exp	sub	code	rev	comp	runtime	trialtime	nstim	refreshdur	cuedur	gapdur	gapOnsetRange	durPostProbe	gapOnsetTime	blocktype	gaptype	prac	trial	ntargets	soa	probeTarget	resp	acc	rt	pts	tpts	meanFrameDur	minFrameDur	maxFrameDur
ProbeTrack15	10	ProbeTrack	15.0	SCS215a	20120209.160137	20120209.160217	8	0.013328	60	0	60-180	60	120	NoGap	None	1	1	2	3	1	target	1	11175	0	0	13.379	13.100	13.552
ProbeTrack15	10	ProbeTrack	15.0	SCS215a	20120209.160137	20120209.160415	8	0.013328	60	0	60-180	60	141	NoGap	None	1	2	2	0	1	target	1	1167	417	417	13.328	13.295	13.355
ProbeTrack15	10	ProbeTrack	15.0	SCS215a	20120209.160137	20120209.160424	8	0.013328	60	0	60-180	60	143	NoGap	None	1	3	2	30	0	distractor	1	1109	446	863	13.328	12.874	13.809
ProbeTrack15	10	ProbeTrack	15.0	SCS215a	20120209.160137	20120209.160450	8	0.013328	60	0	60-180	60	119	NoGap	None	1	4	2	1	1	target	1	1113	444	1307	13.328	13.056	13.608
ProbeTrack15	10	ProbeTrack	15.0	SCS215a	20120209.160137	20120209.160458	8	0.013328	60	0	60-180	60	159	NoGap	None	1	5	2	3	1	target	1	1116	442	1749	13.328	13.092	13.551
ProbeTrack15	10	ProbeTrack	15.0	SCS215a	20120209.160137	20120209.160506	8	0.013328	60	0	60-180	60	119	NoGap	None	1	6	2	30	1	target	1	1037	482	2231	13.328	12.828	13.821
ProbeTrack15	10	ProbeTrack	15.0	SCS215a	20120209.160137	20120209.160516	8	0.013328	60	0	60-180	60	130	NoGap	None	1	7	2	3	0	distractor	1	1039	481	2712	13.328	13.306	13.349
ProbeTrack15	10	ProbeTrack	15.0	SCS215a	20120209.160137	20120209.160524	8	0.013328	60	0	60-180	60	149	NoGap	None	1	8	2	30	0	distractor	1	1026	487	3199	13.328	13.135	13.529
ProbeTrack15	10	ProbeTrack	15.0	SCS215a	20120209.160137	20120209.160532	8	0.013328	60	0	60-180	60	69	NoGap	None	1	9	2	1	1	target	1	1057	472	3671	13.328	13.172	13.483
ProbeTrack15	10	ProbeTrack	15.0	SCS215a	20120209.160137	20120209.160538	8	0.013328	60	0	60-180	60	157	NoGap	None	1	10	2	1	0	distractor	1	1007	497	4168	13.328	13.139	13.525
ProbeTrack15	10	ProbeTrack	15.0	SCS215a	20120209.160137	20120209.160545	8	0.013328	60	0	60-180	60	161	NoGap	None	1	11	2	1	0	distractor	1	979	511	4679	13.328	13.084	13.572
ProbeTrack15	10	ProbeTrack	15.0	SCS215a	20120209.160137	20120209.160555	8	0.013328	60	0	60-180	60	139	NoGap	None	1	12	2	0	1	target	1	1059	471	5150	13.328	13.271	13.392
ProbeTrack15	10	ProbeTrack	15.0	SCS215a	20120209.160137	20120209.160603	8	0.013328	60	0	60-180	60	113	NoGap	None	1	13	2	3	0	distractor	1	1020	490	5640	13.328	13.055	13.595
ProbeTrack15	10	ProbeTrack	15.0	SCS215a	20120209.160137	20120209.160610	8	0.013328	60	0	60-180	60	78	NoGap	None	1	14	2	30	1	target	1	984	508	6148	13.328	13.094	13.546
ProbeTrack15	10	ProbeTrack	15.0	SCS215a	20120209.160137	20120209.160617	8	0.013328	60	0	60-180	60	174	NoGap	None	1	15	2	1	1	target	1	1001	500	6648	13.328	13.112	13.538
ProbeTrack15	10	ProbeTrack	15.0	SCS215a	20120209.160137	20120209.160624	8	0.013328	60	0	60-180	60	124	NoGap	None	1	16	2	3	0	distractor	1	1044	478	7126	13.328	12.851	13.807
ProbeTrack15	10	ProbeTrack	15.0	SCS215a	20120209.160137	20120209.160634	8	0.013328	60	0	60-180	60	88	NoGap	None	1	17	2	3	1	target	1	986	507	7633	13.328	13.307	13.348
ProbeTrack15	10	ProbeTrack	15.0	SCS215a	20120209.160137	20120209.160640	8	0.013328	60	0	60-180	60	161	NoGap	None	1	18	2	30	1	target	1	1012	494	8127	13.328	12.906	13.750
ProbeTrack15	10	ProbeTrack	15.0	SCS215a	20120209.160137	20120209.160647	8	0.013328	60	0	60-180	60	70	NoGap	None	1	19	2	30	1	target	1	1044	478	8605	13.385	13.307	26.579
ProbeTrack15	10	ProbeTrack	15.0	SCS215a	20120209.160137	20120209.160654	8	0.013328	60	0	60-180	60	138	NoGap	None	1	20	2	1	0	distractor	1	952	524	9129	13.328	13.156	13.457
ProbeTrack15	10	ProbeTrack	15.0	SCS215a	20120209.160137	20120209.160701	8	0.013328	60	0	60-180	60	122	NoGap	None	1	21	2	1	0	distractor	1	983	509	9638	13.328	12.935	13.715
ProbeTrack15	10	ProbeTrack	15.0	SCS215a	20120209.160137	20120209.160709	8	0.013328	60	0	60-180	60	107	NoGap	None	1	22	2	0	0	distractor	1	1004	498	10136	13.328	12.911	13.746
ProbeTrack15	10	ProbeTrack	15.0	SCS215a	20120209.160137	20120209.160716	8	0.013328	60	0	60-180	60	149	NoGap	None	1	23	2	30	0	distractor	1	992	504	10640	13.328	12.885	13.807
ProbeTrack15	10	ProbeTrack	15.0	SCS215a	20120209.160137	20120209.160723	8	0.013328	60	0	60-180	60	90	NoGap	None	1	24	2	1	0	distractor	1	1028	486	11126	13.328	13.021	13.625
ProbeTrack15	10	ProbeTrack	15.0	SCS215a	20120209.160137	20120209.160730	8	0.013328	60	0	60-180	60	125	NoGap	None	1	25	2	0	1	target	1	422	789	11915	13.328	12.876	13.799
ProbeTrack15	10	ProbeTrack	15.0	SCS215a	20120209.160137	20120209.160736	8	0.013328	60	0	60-180	60	64	NoGap	None	1	26	2	0	0	distractor	1	518	741	12656	13.328	13.299	13.358
ProbeTrack15	10	ProbeTrack	15.0	SCS215a	20120209.160137	20120209.160746	8	0.013328	60	0	60-180	60	93	NoGap	None	1	27	2	3	0	distractor	1	465	768	13424	13.328	12.906	13.744
ProbeTrack15	10	ProbeTrack	15.0	SCS215a	20120209.160137	20120209.160752	8	0.013328	60	0	60-180	60	127	NoGap	None	1	28	2	3	0	distractor	1	377	812	14236	13.328	13.145	13.528
ProbeTrack15	10	ProbeTrack	15.0	SCS215a	20120209.160137	20120209.160757	8	0.013328	60	0	60-180	60	146	NoGap	None	1	29	2	0	1	target	1	318	841	15077	13.328	13.308	13.350
ProbeTrack15	10	ProbeTrack	15.0	SCS215a	20120209.160137	20120209.160804	8	0.013328	60	0	60-180	60	178	NoGap	None	1	30	2	1	1	target	1	334	833	15910	13.328	13.304	13.352
ProbeTrack15	10	ProbeTrack	15.0	SCS215a	20120209.160137	20120209.160810	8	0.013328	60	0	60-180	60	147	NoGap	None	1	31	2	0	0	distractor	1	409	796	16706	13.327	12.904	13.759
ProbeTrack15	10	ProbeTrack	15.0	SCS215a	20120209.160137	20120209.160817	8	0.013328	60	0	60-180	60	67	NoGap	None	1	32	2	30	0	distractor	1	447	777	17483	13.328	13.293	13.365
ProbeTrack15	10	ProbeTrack	15.0	SCS215a	20120209.160137	20120209.160823	8	0.013328	60	0	60-180	60	100	NoGap	None	1	33	2	0	0	distractor	1	432	784	18267	13.328	13.093	13.551
ProbeTrack15	10	ProbeTrack	15.0	SCS215a	20120209.160137	20120209.160829	8	0.013328	60	0	60-180	60	160	NoGap	None	1	34	2	0	1	target	1	279	861	19128	13.328	12.974	13.678
ProbeTrack15	10	ProbeTrack	15.0	SCS215a	20120209.160137	20120209.160835	8	0.013328	60	0	60-180	60	115	NoGap	None	1	35	2	1	1	target	1	276	862	19990	13.328	13.309	13.350
ProbeTrack15	10	ProbeTrack	15.0	SCS215a	20120209.160137	20120209.160841	8	0.013328	60	0	60-180	60	65	NoGap	None	1	36	2	3	1	target	1	352	824	20814	13.328	13.308	13.345
ProbeTrack15	10	ProbeTrack	15.0	SCS215a	20120209.160137	20120209.160846	8	0.013328	60	0	60-180	60	129	NoGap	None	1	37	2	3	1	target	1	339	831	21645	13.328	13.308	13.352
ProbeTrack15	10	ProbeTrack	15.0	SCS215a	20120209.160137	20120209.160853	8	0.013328	60	0	60-180	60	104	NoGap	None	1	38	2	30	1	target	1	383	809	22454	13.328	13.083	13.732
ProbeTrack15	10	ProbeTrack	15.0	SCS215a	20120209.160137	20120209.160859	8	0.013328	60	0	60-180	60	74	NoGap	None	1	39	2	0	0	distractor	1	471	765	23219	13.328	13.090	13.565
ProbeTrack15	10	ProbeTrack	15.0	SCS215a	20120209.160137	20120209.160904	8	0.013328	60	0	60-180	60	100	NoGap	None	1	40	2	30	0	distractor	1	402	799	24018	13.328	12.878	13.630
ProbeTrack15	10	ProbeTrack	15.0	SCS215a	20120209.161030	20120209.161039	8	0.013327	60	10	60-180	60	143	GapPrac	Blank	1	1	2	0	0	distractor	1	658	671	24689	13.376	6.804	19.850
ProbeTrack15	10	ProbeTrack	15.0	SCS215a	20120209.161030	20120209.161049	8	0.013327	60	10	60-180	60	161	GapPrac	Blank	1	2	2	0	1	target	1	318	841	25530	13.328	9.664	16.980
ProbeTrack15	10	ProbeTrack	15.0	SCS215a	20120209.161030	20120209.161056	8	0.013327	60	10	60-180	60	152	GapPrac	Blank	1	3	2	3	0	distractor	1	393	804	26334	13.328	12.474	14.648
ProbeTrack15	10	ProbeTrack	15.0	SCS215a	20120209.161030	20120209.161103	8	0.013327	60	10	60-180	60	74	GapPrac	Blank	1	4	2	30	1	target	1	305	848	27182	13.328	13.299	13.352
ProbeTrack15	10	ProbeTrack	15.0	SCS215a	20120209.161030	20120209.161108	8	0.013327	60	10	60-180	60	64	GapPrac	Blank	1	5	2	30	0	distractor	1	460	770	27952	13.328	13.300	13.344
ProbeTrack15	10	ProbeTrack	15.0	SCS215a	20120209.161030	20120209.161114	8	0.013327	60	10	60-180	60	162	GapPrac	Blank	1	6	2	0	0	distractor	1	534	733	28685	13.328	8.227	18.418
ProbeTrack15	10	ProbeTrack	15.0	SCS215a	20120209.161030	20120209.161121	8	0.013327	60	10	60-180	60	100	GapPrac	Blank	1	7	2	3	0	target	0	475	-1000	27685	13.328	13.307	13.348
ProbeTrack15	10	ProbeTrack	15.0	SCS215a	20120209.161030	20120209.161127	8	0.013327	60	10	60-180	60	96	GapPrac	Blank	1	8	2	1	0	distractor	1	431	785	28470	13.328	13.312	13.346
ProbeTrack15	10	ProbeTrack	15.0	SCS215a	20120209.161030	20120209.161135	8	0.013327	60	10	60-180	60	157	GapPrac	Blank	1	9	2	0	1	target	1	402	799	29269	13.328	13.309	13.348
ProbeTrack15	10	ProbeTrack	15.0	SCS215a	20120209.161030	20120209.161141	8	0.013327	60	10	60-180	60	157	GapPrac	Blank	1	10	2	30	1	target	1	339	831	30100	13.328	7.666	18.989
ProbeTrack15	10	ProbeTrack	15.0	SCS215a	20120209.161030	20120209.161148	8	0.013327	60	10	60-180	60	150	GapPrac	Blank	1	11	2	1	0	distractor	1	469	766	30866	13.328	13.303	13.355
ProbeTrack15	10	ProbeTrack	15.0	SCS215a	20120209.161030	20120209.161155	8	0.013327	60	10	60-180	60	87	GapPrac	Blank	1	12	2	3	1	target	1	341	830	31696	13.328	13.089	13.554
ProbeTrack15	10	ProbeTrack	15.0	SCS215a	20120209.161030	20120209.161200	8	0.013327	60	10	60-180	60	104	GapPrac	Blank	1	13	2	0	1	target	1	314	843	32539	13.328	13.095	13.549
ProbeTrack15	10	ProbeTrack	15.0	SCS215a	20120209.161030	20120209.161205	8	0.013327	60	10	60-180	60	131	GapPrac	Blank	1	14	2	30	1	target	1	320	840	33379	13.328	11.902	14.753
ProbeTrack15	10	ProbeTrack	15.0	SCS215a	20120209.161030	20120209.161212	8	0.013327	60	10	60-180	60	68	GapPrac	Blank	1	15	2	1	1	target	1	293	854	34233	13.328	13.028	13.631
ProbeTrack15	10	ProbeTrack	15.0	SCS215a	20120209.161030	20120209.161217	8	0.013327	60	10	60-180	60	110	GapPrac	Blank	1	16	2	0	0	distractor	1	495	753	34986	13.328	9.655	17.000
ProbeTrack15	10	ProbeTrack	15.0	SCS215a	20120209.161030	20120209.161223	8	0.013327	60	10	60-180	60	169	GapPrac	Blank	1	17	2	3	1	target	1	399	801	35787	13.328	13.113	13.538
ProbeTrack15	10	ProbeTrack	15.0	SCS215a	20120209.161030	20120209.161230	8	0.013327	60	10	60-180	60	102	GapPrac	Blank	1	18	2	30	0	distractor	1	432	784	36571	13.328	13.092	13.558
ProbeTrack15	10	ProbeTrack	15.0	SCS215a	20120209.161030	20120209.161236	8	0.013327	60	10	60-180	60	173	GapPrac	Blank	1	19	2	3	0	distractor	1	483	759	37330	13.328	12.987	13.676
ProbeTrack15	10	ProbeTrack	15.0	SCS215a	20120209.161030	20120209.161243	8	0.013327	60	10	60-180	60	175	GapPrac	Blank	1	20	2	1	1	target	1	346	827	38157	13.328	13.095	13.561
ProbeTrack15	10	ProbeTrack	15.0	SCS215a	20120209.161321	20120209.161334	8	0.013306	60	10	60-180	60	104	GapExp	Blank	1	1	2	3	1	target	1	279	861	39018	13.390	13.286	13.365
ProbeTrack15	10	ProbeTrack	15.0	SCS215a	20120209.161321	20120209.161341	8	0.013306	60	10	60-180	60	115	GapExp	Blank	1	2	2	30	1	target	1	476	762	39780	13.328	13.308	13.348
ProbeTrack15	10	ProbeTrack	15.0	SCS215a	20120209.161321	20120209.161348	8	0.013306	60	10	60-180	60	151	GapExp	Blank	1	3	2	1	1	target	1	294	853	40633	13.328	13.299	13.356
ProbeTrack15	10	ProbeTrack	15.0	SCS215a	20120209.161321	20120209.161354	8	0.013306	60	10	60-180	60	103	GapExp	Blank	1	4	2	0	0	target	0	493	-1000	39633	13.328	10.535	16.101
ProbeTrack15	10	ProbeTrack	15.0	SCS215a	20120209.161321	20120209.161359	8	0.013306	60	10	60-180	60	91	GapExp	Blank	1	5	2	0	1	target	1	404	798	40431	13.328	13.117	13.557
ProbeTrack15	10	ProbeTrack	15.0	SCS215a	20120209.161321	20120209.161405	8	0.013306	60	10	60-180	60	170	GapExp	Blank	1	6	2	30	0	distractor	1	461	770	41201	13.328	13.102	13.556
ProbeTrack15	10	ProbeTrack	15.0	SCS215a	20120209.161321	20120209.161413	8	0.013306	60	10	60-180	60	151	GapExp	Blank	1	7	2	3	0	distractor	1	400	800	42001	13.328	13.101	13.549
ProbeTrack15	10	ProbeTrack	15.0	SCS215a	20120209.161321	20120209.161419	8	0.013306	60	10	60-180	60	178	GapExp	Blank	1	8	2	1	0	distractor	1	442	779	42780	13.328	13.065	13.602
ProbeTrack15	10	ProbeTrack	15.0	SCS215a	20120209.161321	20120209.161425	8	0.013306	60	10	60-180	60	64	GapExp	Blank	0	9	2	0	1	target	1	410	795	43575	13.328	13.309	13.348
ProbeTrack15	10	ProbeTrack	15.0	SCS215a	20120209.161321	20120209.161431	8	0.013306	60	10	60-180	60	158	GapExp	Blank	0	10	2	3	1	target	1	278	861	44436	13.328	13.298	13.357
ProbeTrack15	10	ProbeTrack	15.0	SCS215a	20120209.161321	20120209.161437	8	0.013306	60	10	60-180	60	159	GapExp	Blank	0	11	2	3	0	distractor	1	382	809	45245	13.328	13.310	13.348
ProbeTrack15	10	ProbeTrack	15.0	SCS215a	20120209.161321	20120209.161444	8	0.013306	60	10	60-180	60	131	GapExp	Blank	0	12	2	0	1	target	1	302	849	46094	13.328	4.423	22.233
ProbeTrack15	10	ProbeTrack	15.0	SCS215a	20120209.161321	20120209.161449	8	0.013306	60	10	60-180	60	133	GapExp	Blank	0	13	2	1	0	distractor	1	410	795	46889	13.328	12.998	13.638
ProbeTrack15	10	ProbeTrack	15.0	SCS215a	20120209.161321	20120209.161455	8	0.013306	60	10	60-180	60	120	GapExp	Blank	0	14	2	0	1	target	1	360	820	47709	13.328	13.091	13.571
ProbeTrack15	10	ProbeTrack	15.0	SCS215a	20120209.161321	20120209.161502	8	0.013306	60	10	60-180	60	62	GapExp	Blank	0	15	2	0	0	target	0	411	-1000	46709	13.328	10.328	16.316
ProbeTrack15	10	ProbeTrack	15.0	SCS215a	20120209.161321	20120209.161507	8	0.013306	60	10	60-180	60	111	GapExp	Blank	0	16	2	30	0	distractor	1	439	781	47490	13.328	10.708	15.950
ProbeTrack15	10	ProbeTrack	15.0	SCS215a	20120209.161321	20120209.161513	8	0.013306	60	10	60-180	60	119	GapExp	Blank	0	17	2	30	1	target	1	318	841	48331	13.328	6.292	20.417
ProbeTrack15	10	ProbeTrack	15.0	SCS215a	20120209.161321	20120209.161519	8	0.013306	60	10	60-180	60	178	GapExp	Blank	0	18	2	1	1	target	1	295	853	49184	13.328	9.362	17.299
ProbeTrack15	10	ProbeTrack	15.0	SCS215a	20120209.161321	20120209.161526	8	0.013306	60	10	60-180	60	100	GapExp	Blank	0	19	2	3	1	target	1	270	865	50049	13.328	13.310	13.351
ProbeTrack15	10	ProbeTrack	15.0	SCS215a	20120209.161321	20120209.161531	8	0.013306	60	10	60-180	60	99	GapExp	Blank	0	20	2	30	1	target	1	268	866	50915	13.328	8.897	17.759
ProbeTrack15	10	ProbeTrack	15.0	SCS215a	20120209.161321	20120209.161537	8	0.013306	60	10	60-180	60	180	GapExp	Blank	0	21	2	3	1	target	1	274	863	51778	13.328	13.108	13.555
ProbeTrack15	10	ProbeTrack	15.0	SCS215a	20120209.161321	20120209.161544	8	0.013306	60	10	60-180	60	168	GapExp	Blank	0	22	2	3	0	distractor	1	471	765	52543	13.328	13.100	13.557
ProbeTrack15	10	ProbeTrack	15.0	SCS215a	20120209.161321	20120209.161551	8	0.013306	60	10	60-180	60	176	GapExp	Blank	0	23	2	3	0	distractor	1	436	782	53325	13.328	6.351	20.307
ProbeTrack15	10	ProbeTrack	15.0	SCS215a	20120209.161321	20120209.161558	8	0.013306	60	10	60-180	60	132	GapExp	Blank	0	24	2	0	0	distractor	1	452	774	54099	13.328	5.839	20.811
ProbeTrack15	10	ProbeTrack	15.0	SCS215a	20120209.161321	20120209.161604	8	0.013306	60	10	60-180	60	67	GapExp	Blank	0	25	2	0	0	distractor	1	566	717	54816	13.328	13.308	13.352
ProbeTrack15	10	ProbeTrack	15.0	SCS215a	20120209.161321	20120209.161609	8	0.013306	60	10	60-180	60	144	GapExp	Blank	0	26	2	1	1	target	1	307	847	55663	13.328	13.306	13.350
ProbeTrack15	10	ProbeTrack	15.0	SCS215a	20120209.161321	20120209.161615	8	0.013306	60	10	60-180	60	129	GapExp	Blank	0	27	2	30	0	distractor	1	360	820	56483	13.328	13.292	13.364
ProbeTrack15	10	ProbeTrack	15.0	SCS215a	20120209.161321	20120209.161622	8	0.013306	60	10	60-180	60	72	GapExp	Blank	0	28	2	3	1	target	1	435	783	57266	13.328	11.283	15.366
ProbeTrack15	10	ProbeTrack	15.0	SCS215a	20120209.161321	20120209.161628	8	0.013306	60	10	60-180	60	74	GapExp	Blank	0	29	2	30	1	target	1	299	851	58117	13.328	11.347	15.306
ProbeTrack15	10	ProbeTrack	15.0	SCS215a	20120209.161321	20120209.161633	8	0.013306	60	10	60-180	60	69	GapExp	Blank	0	30	2	0	0	distractor	1	398	801	58918	13.328	13.307	13.361
ProbeTrack15	10	ProbeTrack	15.0	SCS215a	20120209.161321	20120209.161638	8	0.013306	60	10	60-180	60	115	GapExp	Blank	0	31	2	0	1	target	1	377	812	59730	13.328	13.307	13.350
ProbeTrack15	10	ProbeTrack	15.0	SCS215a	20120209.161321	20120209.161644	8	0.013306	60	10	60-180	60	161	GapExp	Blank	0	32	2	30	1	target	1	297	852	60582	13.328	4.288	22.366
ProbeTrack15	10	ProbeTrack	15.0	SCS215a	20120209.161321	20120209.161651	8	0.013306	60	10	60-180	60	74	GapExp	Blank	0	33	2	30	0	distractor	1	403	799	61381	13.328	8.370	18.279
ProbeTrack15	10	ProbeTrack	15.0	SCS215a	20120209.161321	20120209.161657	8	0.013306	60	10	60-180	60	78	GapExp	Blank	0	34	2	30	1	target	1	311	845	62226	13.328	13.308	13.350
ProbeTrack15	10	ProbeTrack	15.0	SCS215a	20120209.161321	20120209.161703	8	0.013306	60	10	60-180	60	179	GapExp	Blank	0	35	2	30	1	target	1	285	858	63084	13.328	13.034	13.612
ProbeTrack15	10	ProbeTrack	15.0	SCS215a	20120209.161321	20120209.161710	8	0.013306	60	10	60-180	60	84	GapExp	Blank	0	36	2	30	0	distractor	1	373	814	63898	13.328	13.090	13.565
ProbeTrack15	10	ProbeTrack	15.0	SCS215a	20120209.161321	20120209.161715	8	0.013306	60	10	60-180	60	107	GapExp	Blank	0	37	2	1	0	distractor	1	398	801	64699	13.328	8.696	17.962
ProbeTrack15	10	ProbeTrack	15.0	SCS215a	20120209.161321	20120209.161721	8	0.013306	60	10	60-180	60	179	GapExp	Blank	0	38	2	30	1	target	1	267	867	65566	13.328	13.107	13.555
ProbeTrack15	10	ProbeTrack	15.0	SCS215a	20120209.161321	20120209.161728	8	0.013306	60	10	60-180	60	75	GapExp	Blank	0	39	2	0	0	distractor	1	549	726	66292	13.328	13.096	13.556
ProbeTrack15	10	ProbeTrack	15.0	SCS215a	20120209.161321	20120209.161734	8	0.013306	60	10	60-180	60	81	GapExp	Blank	0	40	2	3	1	target	1	293	854	67146	13.328	13.307	13.349
ProbeTrack15	10	ProbeTrack	15.0	SCS215a	20120209.161321	20120209.161739	8	0.013306	60	10	60-180	60	88	GapExp	Blank	0	41	2	1	1	target	1	265	868	68014	13.328	13.263	13.393
ProbeTrack15	10	ProbeTrack	15.0	SCS215a	20120209.161321	20120209.161744	8	0.013306	60	10	60-180	60	125	GapExp	Blank	0	42	2	0	1	target	1	288	856	68870	13.328	13.086	13.563
ProbeTrack15	10	ProbeTrack	15.0	SCS215a	20120209.161321	20120209.161750	8	0.013306	60	10	60-180	60	76	GapExp	Blank	0	43	2	1	0	distractor	1	463	769	69639	13.328	11.923	14.509
ProbeTrack15	10	ProbeTrack	15.0	SCS215a	20120209.161321	20120209.161756	8	0.013306	60	10	60-180	60	160	GapExp	Blank	0	44	2	30	0	distractor	1	476	762	70401	13.328	12.513	14.135
ProbeTrack15	10	ProbeTrack	15.0	SCS215a	20120209.161321	20120209.161803	8	0.013306	60	10	60-180	60	115	GapExp	Blank	0	45	2	1	0	target	0	283	-1000	69401	13.328	13.117	13.547
ProbeTrack15	10	ProbeTrack	15.0	SCS215a	20120209.161321	20120209.161809	8	0.013306	60	10	60-180	60	159	GapExp	Blank	0	46	2	1	1	target	1	308	846	70247	13.328	13.309	13.345
ProbeTrack15	10	ProbeTrack	15.0	SCS215a	20120209.161321	20120209.161816	8	0.013306	60	10	60-180	60	178	GapExp	Blank	0	47	2	30	0	distractor	1	378	811	71058	13.328	8.061	18.600
ProbeTrack15	10	ProbeTrack	15.0	SCS215a	20120209.161321	20120209.161823	8	0.013306	60	10	60-180	60	80	GapExp	Blank	0	48	2	30	0	distractor	1	470	765	71823	13.328	8.488	18.155
ProbeTrack15	10	ProbeTrack	15.0	SCS215a	20120209.161321	20120209.161829	8	0.013306	60	10	60-180	60	73	GapExp	Blank	0	49	2	1	0	distractor	1	402	799	72622	13.328	8.673	17.975
ProbeTrack15	10	ProbeTrack	15.0	SCS215a	20120209.161321	20120209.161835	8	0.013306	60	10	60-180	60	93	GapExp	Blank	0	50	2	1	0	distractor	1	439	781	73403	13.328	12.772	13.884
ProbeTrack15	10	ProbeTrack	15.0	SCS215a	20120209.161321	20120209.161840	8	0.013306	60	10	60-180	60	116	GapExp	Blank	0	51	2	1	0	target	0	259	-1000	72403	13.328	13.167	13.506
ProbeTrack15	10	ProbeTrack	15.0	SCS215a	20120209.161321	20120209.161904	8	0.013306	60	10	60-180	60	134	GapExp	Blank	0	52	2	1	1	target	1	267	867	73270	13.328	13.274	13.382
ProbeTrack15	10	ProbeTrack	15.0	SCS215a	20120209.161321	20120209.161911	8	0.013306	60	10	60-180	60	168	GapExp	Blank	0	53	2	30	1	target	1	349	826	74096	13.328	13.309	13.348
ProbeTrack15	10	ProbeTrack	15.0	SCS215a	20120209.161321	20120209.161918	8	0.013306	60	10	60-180	60	100	GapExp	Blank	0	54	2	1	1	target	1	334	833	74929	13.328	6.757	19.900
ProbeTrack15	10	ProbeTrack	15.0	SCS215a	20120209.161321	20120209.161924	8	0.013306	60	10	60-180	60	127	GapExp	Blank	0	55	2	30	1	target	1	257	872	75801	13.328	13.307	13.344
ProbeTrack15	10	ProbeTrack	15.0	SCS215a	20120209.161321	20120209.161931	8	0.013306	60	10	60-180	60	82	GapExp	Blank	0	56	2	3	1	target	1	273	864	76665	13.328	13.305	13.350
ProbeTrack15	10	ProbeTrack	15.0	SCS215a	20120209.161321	20120209.161937	8	0.013306	60	10	60-180	60	71	GapExp	Blank	0	57	2	1	1	target	1	298	851	77516	13.328	12.579	14.095
ProbeTrack15	10	ProbeTrack	15.0	SCS215a	20120209.161321	20120209.161943	8	0.013306	60	10	60-180	60	130	GapExp	Blank	0	58	2	30	1	target	1	300	850	78366	13.328	13.217	13.434
ProbeTrack15	10	ProbeTrack	15.0	SCS215a	20120209.161321	20120209.161950	8	0.013306	60	10	60-180	60	69	GapExp	Blank	0	59	2	30	0	distractor	1	384	808	79174	13.328	13.307	13.347
ProbeTrack15	10	ProbeTrack	15.0	SCS215a	20120209.161321	20120209.161957	8	0.013306	60	10	60-180	60	84	GapExp	Blank	0	60	2	30	1	target	1	394	803	79977	13.328	10.527	16.130
ProbeTrack15	10	ProbeTrack	15.0	SCS215a	20120209.161321	20120209.162003	8	0.013306	60	10	60-180	60	118	GapExp	Blank	0	61	2	3	0	distractor	1	428	786	80763	13.328	10.100	16.542
ProbeTrack15	10	ProbeTrack	15.0	SCS215a	20120209.161321	20120209.162009	8	0.013306	60	10	60-180	60	143	GapExp	Blank	0	62	2	0	1	target	1	342	829	81592	13.328	10.713	15.951
ProbeTrack15	10	ProbeTrack	15.0	SCS215a	20120209.161321	20120209.162016	8	0.013306	60	10	60-180	60	136	GapExp	Blank	0	63	2	1	0	distractor	1	509	746	82338	13.328	13.095	13.576
ProbeTrack15	10	ProbeTrack	15.0	SCS215a	20120209.161321	20120209.162022	8	0.013306	60	10	60-180	60	154	GapExp	Blank	0	64	2	1	0	target	0	408	-1000	81338	13.328	13.291	13.361
ProbeTrack15	10	ProbeTrack	15.0	SCS215a	20120209.161321	20120209.162029	8	0.013306	60	10	60-180	60	72	GapExp	Blank	0	65	2	0	1	target	1	306	847	82185	13.328	13.299	13.355
ProbeTrack15	10	ProbeTrack	15.0	SCS215a	20120209.161321	20120209.162035	8	0.013306	60	10	60-180	60	140	GapExp	Blank	0	66	2	3	0	distractor	1	406	797	82982	13.329	13.307	13.492
ProbeTrack15	10	ProbeTrack	15.0	SCS215a	20120209.161321	20120209.162042	8	0.013306	60	10	60-180	60	75	GapExp	Blank	0	67	2	1	1	target	1	346	827	83809	13.328	13.309	13.345
ProbeTrack15	10	ProbeTrack	15.0	SCS215a	20120209.161321	20120209.162047	8	0.013306	60	10	60-180	60	133	GapExp	Blank	0	68	2	0	0	distractor	1	468	766	84575	13.328	13.195	13.468
ProbeTrack15	10	ProbeTrack	15.0	SCS215a	20120209.161321	20120209.162053	8	0.013306	60	10	60-180	60	175	GapExp	Blank	0	69	2	3	1	target	1	310	845	85420	13.328	13.307	13.348
ProbeTrack15	10	ProbeTrack	15.0	SCS215a	20120209.161321	20120209.162101	8	0.013306	60	10	60-180	60	115	GapExp	Blank	0	70	2	3	1	target	1	303	849	86269	13.328	13.303	13.345
ProbeTrack15	10	ProbeTrack	15.0	SCS215a	20120209.161321	20120209.162106	8	0.013306	60	10	60-180	60	118	GapExp	Blank	0	71	2	0	0	distractor	1	414	793	87062	13.328	12.194	14.479
ProbeTrack15	10	ProbeTrack	15.0	SCS215a	20120209.161321	20120209.162112	8	0.013306	60	10	60-180	60	136	GapExp	Blank	0	72	2	0	0	distractor	1	408	796	87858	13.328	13.101	13.550
ProbeTrack15	10	ProbeTrack	15.0	SCS215a	20120209.161321	20120209.162119	8	0.013306	60	10	60-180	60	167	GapExp	Blank	0	73	2	1	1	target	1	277	862	88720	13.328	13.106	13.550
ProbeTrack15	10	ProbeTrack	15.0	SCS215a	20120209.161321	20120209.162125	8	0.013306	60	10	60-180	60	61	GapExp	Blank	0	74	2	3	1	target	1	331	835	89555	13.328	11.237	15.418
ProbeTrack15	10	ProbeTrack	15.0	SCS215a	20120209.161321	20120209.162130	8	0.013306	60	10	60-180	60	97	GapExp	Blank	0	75	2	30	0	distractor	1	418	791	90346	13.328	6.140	20.507
ProbeTrack15	10	ProbeTrack	15.0	SCS215a	20120209.161321	20120209.162136	8	0.013306	60	10	60-180	60	180	GapExp	Blank	0	76	2	30	1	target	1	335	833	91179	13.328	12.263	14.391
ProbeTrack15	10	ProbeTrack	15.0	SCS215a	20120209.161321	20120209.162143	8	0.013306	60	10	60-180	60	139	GapExp	Blank	0	77	2	0	1	target	1	366	817	91996	13.328	11.441	15.221
ProbeTrack15	10	ProbeTrack	15.0	SCS215a	20120209.161321	20120209.162150	8	0.013306	60	10	60-180	60	174	GapExp	Blank	0	78	2	0	0	distractor	1	490	755	92751	13.328	13.298	13.349
ProbeTrack15	10	ProbeTrack	15.0	SCS215a	20120209.161321	20120209.162157	8	0.013306	60	10	60-180	60	118	GapExp	Blank	0	79	2	3	1	distractor	0	689	-1000	91751	13.328	11.337	15.333
ProbeTrack15	10	ProbeTrack	15.0	SCS215a	20120209.161321	20120209.162203	8	0.013306	60	10	60-180	60	78	GapExp	Blank	0	80	2	0	0	distractor	1	537	732	92483	13.328	13.306	13.347
ProbeTrack15	10	ProbeTrack	15.0	SCS215a	20120209.161321	20120209.162208	8	0.013306	60	10	60-180	60	85	GapExp	Blank	0	81	2	1	1	target	1	309	846	93329	13.328	13.100	13.565
ProbeTrack15	10	ProbeTrack	15.0	SCS215a	20120209.161321	20120209.162214	8	0.013306	60	10	60-180	60	118	GapExp	Blank	0	82	2	3	1	target	1	358	821	94150	13.328	13.308	13.344
ProbeTrack15	10	ProbeTrack	15.0	SCS215a	20120209.161321	20120209.162220	8	0.013306	60	10	60-180	60	83	GapExp	Blank	0	83	2	30	0	distractor	1	428	786	94936	13.328	13.293	13.358
ProbeTrack15	10	ProbeTrack	15.0	SCS215a	20120209.161321	20120209.162226	8	0.013306	60	10	60-180	60	94	GapExp	Blank	0	84	2	1	1	target	1	328	836	95772	13.328	13.305	13.351
ProbeTrack15	10	ProbeTrack	15.0	SCS215a	20120209.161321	20120209.162232	8	0.013306	60	10	60-180	60	137	GapExp	Blank	0	85	2	30	0	distractor	1	445	778	96550	13.374	8.304	26.080
ProbeTrack15	10	ProbeTrack	15.0	SCS215a	20120209.161321	20120209.162238	8	0.013306	60	10	60-180	60	132	GapExp	Blank	0	86	2	0	1	target	1	333	834	97384	13.328	13.301	13.354
ProbeTrack15	10	ProbeTrack	15.0	SCS215a	20120209.161321	20120209.162244	8	0.013306	60	10	60-180	60	135	GapExp	Blank	0	87	2	3	0	distractor	1	411	795	98179	13.328	13.119	13.539
ProbeTrack15	10	ProbeTrack	15.0	SCS215a	20120209.161321	20120209.162251	8	0.013306	60	10	60-180	60	115	GapExp	Blank	0	88	2	0	1	target	1	352	824	99003	13.328	13.099	13.556
ProbeTrack15	10	ProbeTrack	15.0	SCS215a	20120209.161321	20120209.162257	8	0.013306	60	10	60-180	60	86	GapExp	Blank	0	89	2	30	1	target	1	319	841	99844	13.328	7.661	18.989
ProbeTrack15	10	ProbeTrack	15.0	SCS215a	20120209.161321	20120209.162303	8	0.013306	60	10	60-180	60	110	GapExp	Blank	0	90	2	3	1	target	1	357	822	100666	13.327	10.348	13.894
ProbeTrack15	10	ProbeTrack	15.0	SCS215a	20120209.161321	20120209.162308	8	0.013306	60	10	60-180	60	97	GapExp	Blank	0	91	2	1	1	target	1	303	849	101515	13.328	12.591	14.064
ProbeTrack15	10	ProbeTrack	15.0	SCS215a	20120209.161321	20120209.162314	8	0.013306	60	10	60-180	60	61	GapExp	Blank	0	92	2	1	0	distractor	1	579	711	102226	13.328	13.302	13.349
ProbeTrack15	10	ProbeTrack	15.0	SCS215a	20120209.161321	20120209.162320	8	0.013306	60	10	60-180	60	114	GapExp	Blank	0	93	2	3	1	target	1	309	846	103072	13.328	9.456	17.198
ProbeTrack15	10	ProbeTrack	15.0	SCS215a	20120209.161321	20120209.162326	8	0.013306	60	10	60-180	60	119	GapExp	Blank	0	94	2	30	1	target	1	325	838	103910	13.328	10.123	16.536
ProbeTrack15	10	ProbeTrack	15.0	SCS215a	20120209.161321	20120209.162332	8	0.013306	60	10	60-180	60	172	GapExp	Blank	0	95	2	30	1	target	1	309	846	104756	13.328	13.114	13.538
ProbeTrack15	10	ProbeTrack	15.0	SCS215a	20120209.161321	20120209.162339	8	0.013306	60	10	60-180	60	171	GapExp	Blank	0	96	2	3	0	distractor	1	448	776	105532	13.373	5.809	27.314
ProbeTrack15	10	ProbeTrack	15.0	SCS215a	20120209.161321	20120209.162345	8	0.013306	60	10	60-180	60	177	GapExp	Blank	0	97	2	1	1	target	1	438	781	106313	13.373	10.585	27.662
ProbeTrack15	10	ProbeTrack	15.0	SCS215a	20120209.161321	20120209.162352	8	0.013306	60	10	60-180	60	91	GapExp	Blank	0	98	2	3	1	target	1	281	860	107173	13.328	13.085	13.570
ProbeTrack15	10	ProbeTrack	15.0	SCS215a	20120209.161321	20120209.162358	8	0.013306	60	10	60-180	60	156	GapExp	Blank	0	99	2	3	0	distractor	1	412	794	107967	13.328	13.308	13.347
ProbeTrack15	10	ProbeTrack	15.0	SCS215a	20120209.161321	20120209.162405	8	0.013306	60	10	60-180	60	103	GapExp	Blank	0	100	2	1	1	target	1	249	876	108843	13.328	5.624	21.038
ProbeTrack15	10	ProbeTrack	15.0	SCS215a	20120209.161321	20120209.162412	8	0.013306	60	10	60-180	60	94	GapExp	Blank	0	101	2	1	0	distractor	1	384	808	109651	13.323	12.437	13.346
ProbeTrack15	10	ProbeTrack	15.0	SCS215a	20120209.161321	20120209.162417	8	0.013306	60	10	60-180	60	85	GapExp	Blank	0	102	2	1	1	target	1	299	851	110502	13.328	13.296	13.347
ProbeTrack15	10	ProbeTrack	15.0	SCS215a	20120209.161321	20120209.162423	8	0.013306	60	10	60-180	60	71	GapExp	Blank	0	103	2	30	0	distractor	1	336	832	111334	13.328	13.103	13.557
ProbeTrack15	10	ProbeTrack	15.0	SCS215a	20120209.161321	20120209.162429	8	0.013306	60	10	60-180	60	148	GapExp	Blank	0	104	2	1	0	distractor	1	438	781	112115	13.328	12.579	14.076
ProbeTrack15	10	ProbeTrack	15.0	SCS215a	20120209.161321	20120209.162435	8	0.013306	60	10	60-180	60	159	GapExp	Blank	0	105	2	3	1	target	1	292	854	112969	13.328	13.113	13.558
ProbeTrack15	10	ProbeTrack	15.0	SCS215a	20120209.161321	20120209.162442	8	0.013306	60	10	60-180	60	177	GapExp	Blank	0	106	2	3	0	distractor	1	340	830	113799	13.328	13.098	13.559
ProbeTrack15	10	ProbeTrack	15.0	SCS215a	20120209.161321	20120209.162448	8	0.013306	60	10	60-180	60	132	GapExp	Blank	0	107	2	3	0	distractor	1	371	815	114614	13.328	13.309	13.344
ProbeTrack15	10	ProbeTrack	15.0	SCS215a	20120209.161321	20120209.162454	8	0.013306	60	10	60-180	60	133	GapExp	Blank	0	108	2	3	0	distractor	1	341	830	115444	13.328	8.657	18.009
ProbeTrack15	10	ProbeTrack	15.0	SCS215a	20120209.161321	20120209.162501	8	0.013306	60	10	60-180	60	149	GapExp	Blank	0	109	2	30	0	distractor	1	489	756	116200	13.328	9.478	17.179
ProbeTrack15	10	ProbeTrack	15.0	SCS215a	20120209.161321	20120209.162508	8	0.013306	60	10	60-180	60	167	GapExp	Blank	0	110	2	0	0	distractor	1	576	712	116912	13.328	13.295	13.358
ProbeTrack15	10	ProbeTrack	15.0	SCS215a	20120209.161321	20120209.162514	8	0.013306	60	10	60-180	60	110	GapExp	Blank	0	111	2	3	1	target	1	319	841	117753	13.328	13.308	13.344
ProbeTrack15	10	ProbeTrack	15.0	SCS215a	20120209.161321	20120209.162520	8	0.013306	60	10	60-180	60	66	GapExp	Blank	0	112	2	1	1	target	1	394	803	118556	13.328	13.308	13.346
ProbeTrack15	10	ProbeTrack	15.0	SCS215a	20120209.161321	20120209.162525	8	0.013306	60	10	60-180	60	75	GapExp	Blank	0	113	2	3	1	target	1	284	858	119414	13.328	13.306	13.344
ProbeTrack15	10	ProbeTrack	15.0	SCS215a	20120209.161321	20120209.162531	8	0.013306	60	10	60-180	60	70	GapExp	Blank	0	114	2	3	0	distractor	1	388	806	120220	13.328	13.310	13.348
ProbeTrack15	10	ProbeTrack	15.0	SCS215a	20120209.161321	20120209.162536	8	0.013306	60	10	60-180	60	110	GapExp	Blank	0	115	2	3	1	target	1	254	873	121093	13.328	11.587	15.069
ProbeTrack15	10	ProbeTrack	15.0	SCS215a	20120209.161321	20120209.162542	8	0.013306	60	10	60-180	60	83	GapExp	Blank	0	116	2	0	1	target	1	397	802	121895	13.328	13.309	13.352
ProbeTrack15	10	ProbeTrack	15.0	SCS215a	20120209.161321	20120209.162547	8	0.013306	60	10	60-180	60	163	GapExp	Blank	0	117	2	0	1	target	1	360	820	122715	13.328	13.101	13.544
ProbeTrack15	10	ProbeTrack	15.0	SCS215a	20120209.161321	20120209.162554	8	0.013306	60	10	60-180	60	129	GapExp	Blank	0	118	2	0	0	distractor	1	565	718	123433	13.328	13.117	13.538
ProbeTrack15	10	ProbeTrack	15.0	SCS215a	20120209.161321	20120209.162600	8	0.013306	60	10	60-180	60	98	GapExp	Blank	0	119	2	0	0	distractor	1	441	780	124213	13.328	13.093	13.566
ProbeTrack15	10	ProbeTrack	15.0	SCS215a	20120209.161321	20120209.162606	8	0.013306	60	10	60-180	60	125	GapExp	Blank	0	120	2	30	0	distractor	1	350	825	125038	13.328	13.112	13.552
ProbeTrack15	10	ProbeTrack	15.0	SCS215a	20120209.161321	20120209.162612	8	0.013306	60	10	60-180	60	141	GapExp	Blank	0	121	2	30	1	target	1	255	873	125911	13.328	5.925	20.722
ProbeTrack15	10	ProbeTrack	15.0	SCS215a	20120209.161321	20120209.162619	8	0.013306	60	10	60-180	60	71	GapExp	Blank	0	122	2	3	1	target	1	292	854	126765	13.328	10.369	16.303
ProbeTrack15	10	ProbeTrack	15.0	SCS215a	20120209.161321	20120209.162624	8	0.013306	60	10	60-180	60	164	GapExp	Blank	0	123	2	30	0	distractor	1	409	796	127561	13.328	10.408	16.257
ProbeTrack15	10	ProbeTrack	15.0	SCS215a	20120209.161321	20120209.162631	8	0.013306	60	10	60-180	60	159	GapExp	Blank	0	124	2	30	0	distractor	1	375	813	128374	13.328	10.681	15.968
ProbeTrack15	10	ProbeTrack	15.0	SCS215a	20120209.161321	20120209.162638	8	0.013306	60	10	60-180	60	174	GapExp	Blank	0	125	2	0	0	distractor	1	456	772	129146	13.328	9.538	17.128
ProbeTrack15	10	ProbeTrack	15.0	SCS215a	20120209.161321	20120209.162645	8	0.013306	60	10	60-180	60	88	GapExp	Blank	0	126	2	30	1	target	1	268	866	130012	13.328	11.693	14.957
ProbeTrack15	10	ProbeTrack	15.0	SCS215a	20120209.161321	20120209.162651	8	0.013306	60	10	60-180	60	81	GapExp	Blank	0	127	2	3	0	distractor	1	402	799	130811	13.328	8.164	18.505
ProbeTrack15	10	ProbeTrack	15.0	SCS215a	20120209.161321	20120209.162656	8	0.013306	60	10	60-180	60	117	GapExp	Blank	0	128	2	0	1	target	1	293	854	131665	13.328	13.109	13.556
ProbeTrack15	10	ProbeTrack	15.0	SCS215a	20120209.161321	20120209.162702	8	0.013306	60	10	60-180	60	110	GapExp	Blank	0	129	2	3	0	distractor	1	397	802	132467	13.328	5.564	21.083
ProbeTrack15	10	ProbeTrack	15.0	SCS215a	20120209.161321	20120209.162708	8	0.013306	60	10	60-180	60	138	GapExp	Blank	0	130	2	0	0	distractor	1	416	792	133259	13.328	13.261	13.423
ProbeTrack15	10	ProbeTrack	15.0	SCS215a	20120209.161321	20120209.162714	8	0.013306	60	10	60-180	60	90	GapExp	Blank	0	131	2	1	1	target	1	316	842	134101	13.328	9.203	17.458
ProbeTrack15	10	ProbeTrack	15.0	SCS215a	20120209.161321	20120209.162720	8	0.013306	60	10	60-180	60	95	GapExp	Blank	0	132	2	0	1	target	1	356	822	134923	13.328	13.307	13.348
ProbeTrack15	10	ProbeTrack	15.0	SCS215a	20120209.161321	20120209.162725	8	0.013306	60	10	60-180	60	146	GapExp	Blank	0	133	2	0	1	target	1	264	868	135791	13.328	13.093	13.556
ProbeTrack15	10	ProbeTrack	15.0	SCS215a	20120209.161321	20120209.162732	8	0.013306	60	10	60-180	60	104	GapExp	Blank	0	134	2	1	0	distractor	1	397	802	136593	13.328	13.104	13.543
ProbeTrack15	10	ProbeTrack	15.0	SCS215a	20120209.161321	20120209.162738	8	0.013306	60	10	60-180	60	97	GapExp	Blank	0	135	2	30	1	distractor	0	376	-1000	135593	13.328	12.281	14.380
ProbeTrack15	10	ProbeTrack	15.0	SCS215a	20120209.161321	20120209.162744	8	0.013306	60	10	60-180	60	152	GapExp	Blank	0	136	2	0	1	target	1	287	857	136450	13.328	12.572	14.070
ProbeTrack15	10	ProbeTrack	15.0	SCS215a	20120209.161321	20120209.162751	8	0.013306	60	10	60-180	60	175	GapExp	Blank	0	137	2	1	0	distractor	1	441	780	137230	13.328	8.206	18.454
ProbeTrack15	10	ProbeTrack	15.0	SCS215a	20120209.161321	20120209.162758	8	0.013306	60	10	60-180	60	176	GapExp	Blank	0	138	2	3	0	distractor	1	406	797	138027	13.313	9.020	13.558
ProbeTrack15	10	ProbeTrack	15.0	SCS215a	20120209.161321	20120209.162805	8	0.013306	60	10	60-180	60	137	GapExp	Blank	0	139	2	1	0	distractor	1	378	811	138838	13.328	13.093	13.561
ProbeTrack15	10	ProbeTrack	15.0	SCS215a	20120209.161321	20120209.162811	8	0.013306	60	10	60-180	60	149	GapExp	Blank	0	140	2	3	1	target	1	250	875	139713	13.328	13.310	13.346
ProbeTrack15	10	ProbeTrack	15.0	SCS215a	20120209.161321	20120209.162818	8	0.013306	60	10	60-180	60	73	GapExp	Blank	0	141	2	30	0	distractor	1	341	830	140543	13.328	13.308	13.361
ProbeTrack15	10	ProbeTrack	15.0	SCS215a	20120209.161321	20120209.162823	8	0.013306	60	10	60-180	60	78	GapExp	Blank	0	142	2	1	0	distractor	1	372	814	141357	13.328	8.592	18.065
ProbeTrack15	10	ProbeTrack	15.0	SCS215a	20120209.161321	20120209.162828	8	0.013306	60	10	60-180	60	157	GapExp	Blank	0	143	2	3	0	distractor	1	352	824	142181	13.328	13.121	13.536
ProbeTrack15	10	ProbeTrack	15.0	SCS215a	20120209.161321	20120209.162835	8	0.013306	60	10	60-180	60	131	GapExp	Blank	0	144	2	3	0	distractor	1	439	781	142962	13.328	13.105	13.553
ProbeTrack15	10	ProbeTrack	15.0	SCS215a	20120209.161321	20120209.162841	8	0.013306	60	10	60-180	60	180	GapExp	Blank	0	145	2	0	1	target	1	315	843	143805	13.328	13.276	13.383
ProbeTrack15	10	ProbeTrack	15.0	SCS215a	20120209.161321	20120209.162848	8	0.013306	60	10	60-180	60	71	GapExp	Blank	0	146	2	1	1	target	1	291	855	144660	13.328	13.087	13.557
ProbeTrack15	10	ProbeTrack	15.0	SCS215a	20120209.161321	20120209.162853	8	0.013306	60	10	60-180	60	120	GapExp	Blank	0	147	2	3	0	distractor	1	351	825	145485	13.328	13.292	13.360
ProbeTrack15	10	ProbeTrack	15.0	SCS215a	20120209.161321	20120209.162859	8	0.013306	60	10	60-180	60	63	GapExp	Blank	0	148	2	30	1	target	1	291	855	146340	13.328	6.517	20.139
ProbeTrack15	10	ProbeTrack	15.0	SCS215a	20120209.161321	20120209.162904	8	0.013306	60	10	60-180	60	163	GapExp	Blank	0	149	2	0	1	target	1	326	837	147177	13.328	13.304	13.361
ProbeTrack15	10	ProbeTrack	15.0	SCS215a	20120209.161321	20120209.162911	8	0.013306	60	10	60-180	60	85	GapExp	Blank	0	150	2	1	0	target	0	323	-1000	146177	13.328	13.111	13.542
ProbeTrack15	10	ProbeTrack	15.0	SCS215a	20120209.161321	20120209.162916	8	0.013306	60	10	60-180	60	165	GapExp	Blank	0	151	2	1	0	distractor	1	393	804	146981	13.328	13.111	13.553
ProbeTrack15	10	ProbeTrack	15.0	SCS215a	20120209.161321	20120209.162928	8	0.013306	60	10	60-180	60	147	GapExp	Blank	0	152	2	1	0	distractor	1	378	811	147792	13.328	12.073	14.576
ProbeTrack15	10	ProbeTrack	15.0	SCS215a	20120209.161321	20120209.162934	8	0.013306	60	10	60-180	60	151	GapExp	Blank	0	153	2	30	1	target	1	298	851	148643	13.328	13.307	13.344
ProbeTrack15	10	ProbeTrack	15.0	SCS215a	20120209.161321	20120209.162941	8	0.013306	60	10	60-180	60	120	GapExp	Blank	0	154	2	30	0	distractor	1	331	835	149478	13.328	8.437	18.224
ProbeTrack15	10	ProbeTrack	15.0	SCS215a	20120209.161321	20120209.162947	8	0.013306	60	10	60-180	60	177	GapExp	Blank	0	155	2	0	0	distractor	1	432	784	150262	13.328	13.308	13.347
ProbeTrack15	10	ProbeTrack	15.0	SCS215a	20120209.161321	20120209.162954	8	0.013306	60	10	60-180	60	103	GapExp	Blank	0	156	2	30	0	distractor	1	412	794	151056	13.328	13.304	13.345
ProbeTrack15	10	ProbeTrack	15.0	SCS215a	20120209.161321	20120209.163000	8	0.013306	60	10	60-180	60	111	GapExp	Blank	0	157	2	3	1	target	1	286	857	151913	13.328	7.320	19.335
ProbeTrack15	10	ProbeTrack	15.0	SCS215a	20120209.161321	20120209.163006	8	0.013306	60	10	60-180	60	169	GapExp	Blank	0	158	2	0	0	target	0	582	-1000	150913	13.328	13.107	13.563
ProbeTrack15	10	ProbeTrack	15.0	SCS215a	20120209.161321	20120209.163013	8	0.013306	60	10	60-180	60	112	GapExp	Blank	0	159	2	0	0	distractor	1	391	805	151718	13.328	13.308	13.348
ProbeTrack15	10	ProbeTrack	15.0	SCS215a	20120209.161321	20120209.163019	8	0.013306	60	10	60-180	60	121	GapExp	Blank	0	160	2	1	1	target	1	257	872	152590	13.328	12.489	14.194
ProbeTrack15	10	ProbeTrack	15.0	SCS215a	20120209.161321	20120209.163025	8	0.013306	60	10	60-180	60	150	GapExp	Blank	0	161	2	3	0	distractor	1	385	808	153398	13.328	9.864	16.797
ProbeTrack15	10	ProbeTrack	15.0	SCS215a	20120209.161321	20120209.163032	8	0.013306	60	10	60-180	60	152	GapExp	Blank	0	162	2	3	1	target	1	320	840	154238	13.328	13.092	13.570
ProbeTrack15	10	ProbeTrack	15.0	SCS215a	20120209.161321	20120209.163038	8	0.013306	60	10	60-180	60	67	GapExp	Blank	0	163	2	30	0	target	0	289	-1000	153238	13.328	13.311	13.348
ProbeTrack15	10	ProbeTrack	15.0	SCS215a	20120209.161321	20120209.163044	8	0.013306	60	10	60-180	60	161	GapExp	Blank	0	164	2	0	1	target	1	308	846	154084	13.328	13.142	13.502
ProbeTrack15	10	ProbeTrack	15.0	SCS215a	20120209.161321	20120209.163050	8	0.013306	60	10	60-180	60	136	GapExp	Blank	0	165	2	0	0	target	0	325	-1000	153084	13.328	4.966	21.683
ProbeTrack15	10	ProbeTrack	15.0	SCS215a	20120209.161321	20120209.163056	8	0.013306	60	10	60-180	60	150	GapExp	Blank	0	166	2	30	1	target	1	269	866	153950	13.338	13.183	16.143
ProbeTrack15	10	ProbeTrack	15.0	SCS215a	20120209.161321	20120209.163103	8	0.013306	60	10	60-180	60	139	GapExp	Blank	0	167	2	0	1	target	1	433	784	154734	13.328	10.580	16.063
ProbeTrack15	10	ProbeTrack	15.0	SCS215a	20120209.161321	20120209.163109	8	0.013306	60	10	60-180	60	172	GapExp	Blank	0	168	2	3	0	distractor	1	551	725	155459	13.328	8.325	18.318
ProbeTrack15	10	ProbeTrack	15.0	SCS215a	20120209.161321	20120209.163116	8	0.013306	60	10	60-180	60	110	GapExp	Blank	0	169	2	1	1	target	1	357	822	156281	13.328	13.093	13.570
ProbeTrack15	10	ProbeTrack	15.0	SCS215a	20120209.161321	20120209.163122	8	0.013306	60	10	60-180	60	77	GapExp	Blank	0	170	2	1	0	distractor	1	472	764	157045	13.328	13.100	13.551
ProbeTrack15	10	ProbeTrack	15.0	SCS215a	20120209.161321	20120209.163127	8	0.013306	60	10	60-180	60	157	GapExp	Blank	0	171	2	1	1	target	1	518	741	157786	13.328	13.305	13.345
ProbeTrack15	10	ProbeTrack	15.0	SCS215a	20120209.161321	20120209.163134	8	0.013306	60	10	60-180	60	100	GapExp	Blank	0	172	2	0	0	distractor	1	610	695	158481	13.328	13.309	13.347
ProbeTrack15	10	ProbeTrack	15.0	SCS215a	20120209.161321	20120209.163139	8	0.013306	60	10	60-180	60	115	GapExp	Blank	0	173	2	1	0	distractor	1	379	811	159292	13.328	13.268	13.387
ProbeTrack15	10	ProbeTrack	15.0	SCS215a	20120209.161321	20120209.163145	8	0.013306	60	10	60-180	60	82	GapExp	Blank	0	174	2	0	0	distractor	1	455	773	160065	13.328	8.577	18.084
ProbeTrack15	10	ProbeTrack	15.0	SCS215a	20120209.161321	20120209.163150	8	0.013306	60	10	60-180	60	107	GapExp	Blank	0	175	2	30	1	target	1	294	853	160918	13.328	11.112	15.544
ProbeTrack15	10	ProbeTrack	15.0	SCS215a	20120209.161321	20120209.163156	8	0.013306	60	10	60-180	60	152	GapExp	Blank	0	176	2	1	1	target	1	362	819	161737	13.328	13.103	13.564
ProbeTrack15	10	ProbeTrack	15.0	SCS215a	20120209.161321	20120209.163203	8	0.013306	60	10	60-180	60	79	GapExp	Blank	0	177	2	0	0	distractor	1	437	782	162519	13.328	12.519	14.144
ProbeTrack15	10	ProbeTrack	15.0	SCS215a	20120209.161321	20120209.163209	8	0.013306	60	10	60-180	60	112	GapExp	Blank	0	178	2	30	0	distractor	1	353	824	163343	13.328	9.074	17.575
ProbeTrack15	10	ProbeTrack	15.0	SCS215a	20120209.161321	20120209.163214	8	0.013306	60	10	60-180	60	172	GapExp	Blank	0	179	2	0	1	target	1	332	834	164177	13.328	13.306	13.353
ProbeTrack15	10	ProbeTrack	15.0	SCS215a	20120209.161321	20120209.163221	8	0.013306	60	10	60-180	60	136	GapExp	Blank	0	180	2	30	0	distractor	1	383	809	164986	13.328	11.784	14.880
ProbeTrack15	10	ProbeTrack	15.0	SCS215a	20120209.161321	20120209.163227	8	0.013306	60	10	60-180	60	109	GapExp	Blank	0	181	2	0	0	distractor	1	366	817	165803	13.328	11.883	14.791
ProbeTrack15	10	ProbeTrack	15.0	SCS215a	20120209.161321	20120209.163233	8	0.013306	60	10	60-180	60	137	GapExp	Blank	0	182	2	3	0	distractor	1	425	788	166591	13.328	13.108	13.553
ProbeTrack15	10	ProbeTrack	15.0	SCS215a	20120209.161321	20120209.163239	8	0.013306	60	10	60-180	60	149	GapExp	Blank	0	183	2	1	0	distractor	1	441	780	167371	13.328	13.097	13.564
ProbeTrack15	10	ProbeTrack	15.0	SCS215a	20120209.161321	20120209.163245	8	0.013306	60	10	60-180	60	126	GapExp	Blank	0	184	2	3	0	distractor	1	383	809	168180	13.328	13.093	13.565
ProbeTrack15	10	ProbeTrack	15.0	SCS215a	20120209.161321	20120209.163251	8	0.013306	60	10	60-180	60	103	GapExp	Blank	0	185	2	30	0	distractor	1	353	824	169004	13.328	13.306	13.348
ProbeTrack15	10	ProbeTrack	15.0	SCS215a	20120209.161321	20120209.163257	8	0.013306	60	10	60-180	60	72	GapExp	Blank	0	186	2	0	0	distractor	1	403	799	169803	13.328	12.330	14.324
ProbeTrack15	10	ProbeTrack	15.0	SCS215a	20120209.161321	20120209.163302	8	0.013306	60	10	60-180	60	176	GapExp	Blank	0	187	2	0	1	target	1	320	840	170643	13.328	13.248	13.421
ProbeTrack15	10	ProbeTrack	15.0	SCS215a	20120209.161321	20120209.163309	8	0.013306	60	10	60-180	60	124	GapExp	Blank	0	188	2	30	1	target	1	293	854	171497	13.328	13.297	13.347
ProbeTrack15	10	ProbeTrack	15.0	SCS215a	20120209.161321	20120209.163316	8	0.013306	60	10	60-180	60	173	GapExp	Blank	0	189	2	1	1	target	1	277	862	172359	13.328	12.279	14.378
ProbeTrack15	10	ProbeTrack	15.0	SCS215a	20120209.161321	20120209.163322	8	0.013306	60	10	60-180	60	157	GapExp	Blank	0	190	2	1	0	distractor	1	355	823	173182	13.328	6.656	19.994
ProbeTrack15	10	ProbeTrack	15.0	SCS215a	20120209.161321	20120209.163329	8	0.013306	60	10	60-180	60	141	GapExp	Blank	0	191	2	3	0	distractor	1	396	802	173984	13.328	13.101	13.551
ProbeTrack15	10	ProbeTrack	15.0	SCS215a	20120209.161321	20120209.163335	8	0.013306	60	10	60-180	60	131	GapExp	Blank	0	192	2	3	1	target	1	280	860	174844	13.328	13.141	13.440
ProbeTrack15	10	ProbeTrack	15.0	SCS215a	20120209.161321	20120209.163425	8	0.013306	60	10	60-180	60	76	GapExp	Blank	0	193	2	1	0	distractor	1	419	791	175635	13.328	13.098	13.550
ProbeTrack15	10	ProbeTrack	15.0	SCS215a	20120209.161321	20120209.163431	8	0.013306	60	10	60-180	60	177	GapExp	Blank	0	194	2	1	1	target	1	301	850	176485	13.328	13.105	13.557
ProbeTrack15	10	ProbeTrack	15.0	SCS215a	20120209.161321	20120209.163437	8	0.013306	60	10	60-180	60	76	GapExp	Blank	0	195	2	30	1	target	1	245	878	177363	13.328	13.100	13.557
ProbeTrack15	10	ProbeTrack	15.0	SCS215a	20120209.161321	20120209.163443	8	0.013306	60	10	60-180	60	119	GapExp	Blank	0	196	2	3	1	target	1	321	840	178203	13.328	13.305	13.348
ProbeTrack15	10	ProbeTrack	15.0	SCS215a	20120209.161321	20120209.163449	8	0.013306	60	10	60-180	60	107	GapExp	Blank	0	197	2	0	1	target	1	282	859	179062	13.328	13.307	13.348
ProbeTrack15	10	ProbeTrack	15.0	SCS215a	20120209.161321	20120209.163454	8	0.013306	60	10	60-180	60	146	GapExp	Blank	0	198	2	30	0	distractor	1	346	827	179889	13.328	11.644	15.037
ProbeTrack15	10	ProbeTrack	15.0	SCS215a	20120209.161321	20120209.163501	8	0.013306	60	10	60-180	60	103	GapExp	Blank	0	199	2	3	0	distractor	1	384	808	180697	13.328	12.817	13.832
ProbeTrack15	10	ProbeTrack	15.0	SCS215a	20120209.161321	20120209.163507	8	0.013306	60	10	60-180	60	137	GapExp	Blank	0	200	2	0	1	target	1	324	838	181535	13.328	11.200	15.473
ProbeTrack15	10	ProbeTrack	15.0	SCS215a	20120209.163929	20120209.163940	8	0.013328	60	10	60-180	60	147	GapPrac	BigFlash	1	1	2	30	0	distractor	1	553	724	182259	13.371	13.215	13.487
ProbeTrack15	10	ProbeTrack	15.0	SCS215a	20120209.163929	20120209.163948	8	0.013328	60	10	60-180	60	93	GapPrac	BigFlash	1	2	2	30	1	target	1	304	848	183107	13.328	12.881	13.775
ProbeTrack15	10	ProbeTrack	15.0	SCS215a	20120209.163929	20120209.163954	8	0.013328	60	10	60-180	60	99	GapPrac	BigFlash	1	3	2	3	1	target	1	313	844	183951	13.328	13.085	13.559
ProbeTrack15	10	ProbeTrack	15.0	SCS215a	20120209.163929	20120209.164000	8	0.013328	60	10	60-180	60	120	GapPrac	BigFlash	1	4	2	0	1	target	1	395	803	184754	13.328	13.105	13.545
ProbeTrack15	10	ProbeTrack	15.0	SCS215a	20120209.163929	20120209.164005	8	0.013328	60	10	60-180	60	139	GapPrac	BigFlash	1	5	2	3	0	distractor	1	353	824	185578	13.328	13.114	13.554
ProbeTrack15	10	ProbeTrack	15.0	SCS215a	20120209.163929	20120209.164012	8	0.013328	60	10	60-180	60	115	GapPrac	BigFlash	1	6	2	0	0	distractor	1	349	826	186404	13.328	13.290	13.371
ProbeTrack15	10	ProbeTrack	15.0	SCS215a	20120209.163929	20120209.164017	8	0.013328	60	10	60-180	60	111	GapPrac	BigFlash	1	7	2	1	0	distractor	1	364	818	187222	13.328	12.852	13.810
ProbeTrack15	10	ProbeTrack	15.0	SCS215a	20120209.163929	20120209.164023	8	0.013328	60	10	60-180	60	139	GapPrac	BigFlash	1	8	2	1	1	target	1	327	837	188059	13.328	13.300	13.351
ProbeTrack15	10	ProbeTrack	15.0	SCS215a	20120209.163929	20120209.164029	8	0.013328	60	10	60-180	60	81	GapPrac	BigFlash	1	9	2	30	0	distractor	1	347	827	188886	13.328	13.114	13.558
ProbeTrack15	10	ProbeTrack	15.0	SCS215a	20120209.163929	20120209.164034	8	0.013328	60	10	60-180	60	139	GapPrac	BigFlash	1	10	2	3	1	target	1	293	854	189740	13.328	12.971	13.677
ProbeTrack15	10	ProbeTrack	15.0	SCS215a	20120209.163929	20120209.164040	8	0.013328	60	10	60-180	60	128	GapPrac	BigFlash	1	11	2	30	0	distractor	1	414	793	190533	13.328	13.098	13.567
ProbeTrack15	10	ProbeTrack	15.0	SCS215a	20120209.163929	20120209.164047	8	0.013328	60	10	60-180	60	77	GapPrac	BigFlash	1	12	2	1	0	distractor	1	387	807	191340	13.328	13.308	13.344
ProbeTrack15	10	ProbeTrack	15.0	SCS215a	20120209.163929	20120209.164052	8	0.013328	60	10	60-180	60	165	GapPrac	BigFlash	1	13	2	1	1	target	1	320	840	192180	13.328	13.308	13.344
ProbeTrack15	10	ProbeTrack	15.0	SCS215a	20120209.163929	20120209.164058	8	0.013328	60	10	60-180	60	128	GapPrac	BigFlash	1	14	2	0	0	distractor	1	374	813	192993	13.328	13.036	13.619
ProbeTrack15	10	ProbeTrack	15.0	SCS215a	20120209.163929	20120209.164104	8	0.013328	60	10	60-180	60	156	GapPrac	BigFlash	1	15	2	0	1	target	1	294	853	193846	13.328	12.844	13.812
ProbeTrack15	10	ProbeTrack	15.0	SCS215a	20120209.163929	20120209.164110	8	0.013328	60	10	60-180	60	73	GapPrac	BigFlash	1	16	2	0	1	target	1	310	845	194691	13.328	12.919	13.746
ProbeTrack15	10	ProbeTrack	15.0	SCS215a	20120209.163929	20120209.164115	8	0.013328	60	10	60-180	60	176	GapPrac	BigFlash	1	17	2	3	0	distractor	1	382	809	195500	13.328	13.097	13.547
ProbeTrack15	10	ProbeTrack	15.0	SCS215a	20120209.163929	20120209.164121	8	0.013328	60	10	60-180	60	95	GapPrac	BigFlash	1	18	2	30	1	target	1	264	868	196368	13.328	12.960	13.708
ProbeTrack15	10	ProbeTrack	15.0	SCS215a	20120209.163929	20120209.164127	8	0.013328	60	10	60-180	60	127	GapPrac	BigFlash	1	19	2	3	1	target	1	292	854	197222	13.328	13.295	13.360
ProbeTrack15	10	ProbeTrack	15.0	SCS215a	20120209.163929	20120209.164133	8	0.013328	60	10	60-180	60	120	GapPrac	BigFlash	1	20	2	30	1	target	1	338	831	198053	13.328	13.047	13.613
ProbeTrack15	10	ProbeTrack	15.0	SCS215a	20120209.164307	20120209.164319	8	0.013328	60	10	60-180	60	148	GapExp	BigFlash	1	1	2	3	0	distractor	1	388	806	198859	13.378	13.305	13.349
ProbeTrack15	10	ProbeTrack	15.0	SCS215a	20120209.164307	20120209.164327	8	0.013328	60	10	60-180	60	100	GapExp	BigFlash	1	2	2	30	1	target	1	294	853	199712	13.328	13.307	13.345
ProbeTrack15	10	ProbeTrack	15.0	SCS215a	20120209.164307	20120209.164334	8	0.013328	60	10	60-180	60	101	GapExp	BigFlash	1	3	2	30	0	distractor	1	360	820	200532	13.328	13.304	13.349
ProbeTrack15	10	ProbeTrack	15.0	SCS215a	20120209.164307	20120209.164339	8	0.013328	60	10	60-180	60	96	GapExp	BigFlash	1	4	2	3	1	target	1	251	875	201407	13.328	13.264	13.386
ProbeTrack15	10	ProbeTrack	15.0	SCS215a	20120209.164307	20120209.164345	8	0.013328	60	10	60-180	60	154	GapExp	BigFlash	1	5	2	0	0	distractor	1	359	821	202228	13.328	11.193	15.456
ProbeTrack15	10	ProbeTrack	15.0	SCS215a	20120209.164307	20120209.164351	8	0.013328	60	10	60-180	60	113	GapExp	BigFlash	1	6	2	0	1	target	1	390	805	203033	13.328	13.300	13.350
ProbeTrack15	10	ProbeTrack	15.0	SCS215a	20120209.164307	20120209.164356	8	0.013328	60	10	60-180	60	177	GapExp	BigFlash	1	7	2	1	1	target	1	298	851	203884	13.328	11.602	15.053
ProbeTrack15	10	ProbeTrack	15.0	SCS215a	20120209.164307	20120209.164403	8	0.013328	60	10	60-180	60	92	GapExp	BigFlash	1	8	2	1	0	distractor	1	352	824	204708	13.328	7.643	18.998
ProbeTrack15	10	ProbeTrack	15.0	SCS215a	20120209.164307	20120209.164408	8	0.013328	60	10	60-180	60	105	GapExp	BigFlash	0	9	2	3	0	distractor	1	384	808	205516	13.328	13.305	13.348
ProbeTrack15	10	ProbeTrack	15.0	SCS215a	20120209.164307	20120209.164414	8	0.013328	60	10	60-180	60	78	GapExp	BigFlash	0	10	2	3	1	target	1	258	871	206387	13.328	11.774	14.875
ProbeTrack15	10	ProbeTrack	15.0	SCS215a	20120209.164307	20120209.164419	8	0.013328	60	10	60-180	60	84	GapExp	BigFlash	0	11	2	3	1	target	1	262	869	207256	13.328	12.673	13.976
ProbeTrack15	10	ProbeTrack	15.0	SCS215a	20120209.164307	20120209.164424	8	0.013328	60	10	60-180	60	113	GapExp	BigFlash	0	12	2	3	0	distractor	1	409	796	208052	13.328	13.297	13.359
ProbeTrack15	10	ProbeTrack	15.0	SCS215a	20120209.164307	20120209.164430	8	0.013328	60	10	60-180	60	107	GapExp	BigFlash	0	13	2	30	1	target	1	276	862	208914	13.328	12.661	13.998
ProbeTrack15	10	ProbeTrack	15.0	SCS215a	20120209.164307	20120209.164436	8	0.013328	60	10	60-180	60	96	GapExp	BigFlash	0	14	2	3	0	distractor	1	343	829	209743	13.328	13.309	13.347
ProbeTrack15	10	ProbeTrack	15.0	SCS215a	20120209.164307	20120209.164441	8	0.013328	60	10	60-180	60	170	GapExp	BigFlash	0	15	2	3	0	distractor	1	298	851	210594	13.328	13.091	13.564
ProbeTrack15	10	ProbeTrack	15.0	SCS215a	20120209.164307	20120209.164448	8	0.013328	60	10	60-180	60	92	GapExp	BigFlash	0	16	2	30	0	distractor	1	361	820	211414	13.328	13.308	13.347
ProbeTrack15	10	ProbeTrack	15.0	SCS215a	20120209.164307	20120209.164453	8	0.013328	60	10	60-180	60	81	GapExp	BigFlash	0	17	2	30	0	distractor	1	372	814	212228	13.328	13.307	13.345
ProbeTrack15	10	ProbeTrack	15.0	SCS215a	20120209.164307	20120209.164459	8	0.013328	60	10	60-180	60	156	GapExp	BigFlash	0	18	2	3	0	distractor	1	315	843	213071	13.328	11.018	15.651
ProbeTrack15	10	ProbeTrack	15.0	SCS215a	20120209.164307	20120209.164505	8	0.013328	60	10	60-180	60	148	GapExp	BigFlash	0	19	2	1	0	distractor	1	338	831	213902	13.328	12.283	14.366
ProbeTrack15	10	ProbeTrack	15.0	SCS215a	20120209.164307	20120209.164512	8	0.013328	60	10	60-180	60	81	GapExp	BigFlash	0	20	2	1	0	distractor	1	369	816	214718	13.328	13.303	13.345
ProbeTrack15	10	ProbeTrack	15.0	SCS215a	20120209.164307	20120209.164517	8	0.013328	60	10	60-180	60	169	GapExp	BigFlash	0	21	2	1	0	distractor	1	350	825	215543	13.328	13.088	13.563
ProbeTrack15	10	ProbeTrack	15.0	SCS215a	20120209.164307	20120209.164523	8	0.013328	60	10	60-180	60	158	GapExp	BigFlash	0	22	2	1	0	distractor	1	387	807	216350	13.328	13.302	13.357
ProbeTrack15	10	ProbeTrack	15.0	SCS215a	20120209.164307	20120209.164529	8	0.013328	60	10	60-180	60	73	GapExp	BigFlash	0	23	2	1	1	target	1	375	813	217163	13.328	12.190	14.465
ProbeTrack15	10	ProbeTrack	15.0	SCS215a	20120209.164307	20120209.164534	8	0.013328	60	10	60-180	60	125	GapExp	BigFlash	0	24	2	30	0	distractor	1	345	828	217991	13.328	9.756	16.888
ProbeTrack15	10	ProbeTrack	15.0	SCS215a	20120209.164307	20120209.164540	8	0.013328	60	10	60-180	60	73	GapExp	BigFlash	0	25	2	30	1	target	1	315	843	218834	13.328	13.308	13.352
ProbeTrack15	10	ProbeTrack	15.0	SCS215a	20120209.164307	20120209.164546	8	0.013328	60	10	60-180	60	150	GapExp	BigFlash	0	26	2	30	1	target	1	263	869	219703	13.328	7.728	18.927
ProbeTrack15	10	ProbeTrack	15.0	SCS215a	20120209.164307	20120209.164553	8	0.013328	60	10	60-180	60	119	GapExp	BigFlash	0	27	2	3	0	distractor	1	388	806	220509	13.328	10.820	15.817
ProbeTrack15	10	ProbeTrack	15.0	SCS215a	20120209.164307	20120209.164558	8	0.013328	60	10	60-180	60	140	GapExp	BigFlash	0	28	2	30	1	target	1	331	835	221344	13.328	11.383	15.273
ProbeTrack15	10	ProbeTrack	15.0	SCS215a	20120209.164307	20120209.164605	8	0.013328	60	10	60-180	60	90	GapExp	BigFlash	0	29	2	30	1	target	1	258	871	222215	13.328	10.107	16.547
ProbeTrack15	10	ProbeTrack	15.0	SCS215a	20120209.164307	20120209.164610	8	0.013328	60	10	60-180	60	83	GapExp	BigFlash	0	30	2	3	1	target	1	313	844	223059	13.328	13.293	13.364
ProbeTrack15	10	ProbeTrack	15.0	SCS215a	20120209.164307	20120209.164615	8	0.013328	60	10	60-180	60	151	GapExp	BigFlash	0	31	2	1	0	distractor	1	426	787	223846	13.328	13.299	13.346
ProbeTrack15	10	ProbeTrack	15.0	SCS215a	20120209.164307	20120209.164622	8	0.013328	60	10	60-180	60	93	GapExp	BigFlash	0	32	2	1	1	target	1	258	871	224717	13.328	13.308	13.350
ProbeTrack15	10	ProbeTrack	15.0	SCS215a	20120209.164307	20120209.164627	8	0.013328	60	10	60-180	60	110	GapExp	BigFlash	0	33	2	1	1	target	1	292	854	225571	13.328	8.490	18.161
ProbeTrack15	10	ProbeTrack	15.0	SCS215a	20120209.164307	20120209.164633	8	0.013328	60	10	60-180	60	107	GapExp	BigFlash	0	34	2	1	1	target	1	297	852	226423	13.328	13.105	13.539
ProbeTrack15	10	ProbeTrack	15.0	SCS215a	20120209.164307	20120209.164638	8	0.013328	60	10	60-180	60	131	GapExp	BigFlash	0	35	2	30	1	target	1	466	767	227190	13.328	13.083	13.565
ProbeTrack15	10	ProbeTrack	15.0	SCS215a	20120209.164307	20120209.164645	8	0.013328	60	10	60-180	60	141	GapExp	BigFlash	0	36	2	0	1	target	1	350	825	228015	13.328	13.308	13.348
ProbeTrack15	10	ProbeTrack	15.0	SCS215a	20120209.164307	20120209.164651	8	0.013328	60	10	60-180	60	152	GapExp	BigFlash	0	37	2	30	1	target	1	314	843	228858	13.328	13.280	13.383
ProbeTrack15	10	ProbeTrack	15.0	SCS215a	20120209.164307	20120209.164658	8	0.013328	60	10	60-180	60	79	GapExp	BigFlash	0	38	2	3	0	distractor	1	424	788	229646	13.328	12.590	14.081
ProbeTrack15	10	ProbeTrack	15.0	SCS215a	20120209.164307	20120209.164703	8	0.013328	60	10	60-180	60	116	GapExp	BigFlash	0	39	2	0	0	distractor	1	349	826	230472	13.328	13.303	13.349
ProbeTrack15	10	ProbeTrack	15.0	SCS215a	20120209.164307	20120209.164709	8	0.013328	60	10	60-180	60	65	GapExp	BigFlash	0	40	2	30	1	target	1	260	870	231342	13.328	12.699	13.961
ProbeTrack15	10	ProbeTrack	15.0	SCS215a	20120209.164307	20120209.164714	8	0.013328	60	10	60-180	60	146	GapExp	BigFlash	0	41	2	0	0	distractor	1	378	811	232153	13.328	6.923	19.742
ProbeTrack15	10	ProbeTrack	15.0	SCS215a	20120209.164307	20120209.164720	8	0.013328	60	10	60-180	60	132	GapExp	BigFlash	0	42	2	30	0	distractor	1	403	799	232952	13.328	13.308	13.360
ProbeTrack15	10	ProbeTrack	15.0	SCS215a	20120209.164307	20120209.164726	8	0.013328	60	10	60-180	60	76	GapExp	BigFlash	0	43	2	3	0	distractor	1	366	817	233769	13.328	13.308	13.355
ProbeTrack15	10	ProbeTrack	15.0	SCS215a	20120209.164307	20120209.164732	8	0.013328	60	10	60-180	60	129	GapExp	BigFlash	0	44	2	30	1	target	1	330	835	234604	13.328	8.331	18.319
ProbeTrack15	10	ProbeTrack	15.0	SCS215a	20120209.164307	20120209.164738	8	0.013328	60	10	60-180	60	63	GapExp	BigFlash	0	45	2	30	0	distractor	1	362	819	235423	13.328	11.258	15.397
ProbeTrack15	10	ProbeTrack	15.0	SCS215a	20120209.164307	20120209.164744	8	0.013328	60	10	60-180	60	74	GapExp	BigFlash	0	46	2	0	1	target	1	322	839	236262	13.328	9.530	17.132
ProbeTrack15	10	ProbeTrack	15.0	SCS215a	20120209.164307	20120209.164749	8	0.013328	60	10	60-180	60	171	GapExp	BigFlash	0	47	2	1	0	distractor	1	325	838	237100	13.328	12.060	14.589
ProbeTrack15	10	ProbeTrack	15.0	SCS215a	20120209.164307	20120209.164756	8	0.013328	60	10	60-180	60	67	GapExp	BigFlash	0	48	2	1	0	distractor	1	342	829	237929	13.328	11.092	15.565
ProbeTrack15	10	ProbeTrack	15.0	SCS215a	20120209.164307	20120209.164800	8	0.013328	60	10	60-180	60	106	GapExp	BigFlash	0	49	2	3	1	target	1	348	826	238755	13.328	13.308	13.346
ProbeTrack15	10	ProbeTrack	15.0	SCS215a	20120209.164307	20120209.164806	8	0.013328	60	10	60-180	60	123	GapExp	BigFlash	0	50	2	30	0	distractor	1	382	809	239564	13.427	13.308	38.569
ProbeTrack15	10	ProbeTrack	15.0	SCS215a	20120209.164307	20120209.164813	8	0.013328	60	10	60-180	60	143	GapExp	BigFlash	0	51	2	30	1	target	1	277	862	240426	13.328	13.107	13.542
ProbeTrack15	10	ProbeTrack	15.0	SCS215a	20120209.164307	20120209.164819	8	0.013328	60	10	60-180	60	158	GapExp	BigFlash	0	52	2	1	1	target	1	346	827	241253	13.328	12.916	13.729
ProbeTrack15	10	ProbeTrack	15.0	SCS215a	20120209.164307	20120209.164825	8	0.013328	60	10	60-180	60	122	GapExp	BigFlash	0	53	2	3	0	distractor	1	592	704	241957	13.328	13.092	13.557
ProbeTrack15	10	ProbeTrack	15.0	SCS215a	20120209.164307	20120209.164831	8	0.013328	60	10	60-180	60	175	GapExp	BigFlash	0	54	2	30	0	distractor	1	420	790	242747	13.328	13.102	13.563
ProbeTrack15	10	ProbeTrack	15.0	SCS215a	20120209.164307	20120209.164838	8	0.013328	60	10	60-180	60	150	GapExp	BigFlash	0	55	2	30	1	target	1	290	855	243602	13.328	13.307	13.349
ProbeTrack15	10	ProbeTrack	15.0	SCS215a	20120209.164307	20120209.164845	8	0.013328	60	10	60-180	60	66	GapExp	BigFlash	0	56	2	1	1	target	1	364	818	244420	13.328	13.308	13.343
ProbeTrack15	10	ProbeTrack	15.0	SCS215a	20120209.164307	20120209.164850	8	0.013328	60	10	60-180	60	137	GapExp	BigFlash	0	57	2	3	1	target	1	310	845	245265	13.328	12.784	13.875
ProbeTrack15	10	ProbeTrack	15.0	SCS215a	20120209.164307	20120209.164855	8	0.013328	60	10	60-180	60	148	GapExp	BigFlash	0	58	2	0	0	distractor	1	382	809	246074	13.328	13.298	13.359
ProbeTrack15	10	ProbeTrack	15.0	SCS215a	20120209.164307	20120209.164901	8	0.013328	60	10	60-180	60	119	GapExp	BigFlash	0	59	2	0	0	distractor	1	375	813	246887	13.328	13.096	13.556
ProbeTrack15	10	ProbeTrack	15.0	SCS215a	20120209.164307	20120209.164907	8	0.013328	60	10	60-180	60	121	GapExp	BigFlash	0	60	2	3	0	distractor	1	384	808	247695	13.328	9.377	17.272
ProbeTrack15	10	ProbeTrack	15.0	SCS215a	20120209.164307	20120209.164913	8	0.013328	60	10	60-180	60	76	GapExp	BigFlash	0	61	2	0	0	distractor	1	370	815	248510	13.328	13.309	13.344
ProbeTrack15	10	ProbeTrack	15.0	SCS215a	20120209.164307	20120209.164918	8	0.013328	60	10	60-180	60	61	GapExp	BigFlash	0	62	2	30	0	distractor	1	427	787	249297	13.328	13.307	13.350
ProbeTrack15	10	ProbeTrack	15.0	SCS215a	20120209.164307	20120209.164924	8	0.013328	60	10	60-180	60	157	GapExp	BigFlash	0	63	2	30	1	target	1	264	868	250165	13.328	13.303	13.353
ProbeTrack15	10	ProbeTrack	15.0	SCS215a	20120209.164307	20120209.164930	8	0.013328	60	10	60-180	60	141	GapExp	BigFlash	0	64	2	30	1	target	1	266	867	251032	13.328	13.183	13.478
ProbeTrack15	10	ProbeTrack	15.0	SCS215a	20120209.164307	20120209.164936	8	0.013328	60	10	60-180	60	80	GapExp	BigFlash	0	65	2	3	1	target	1	311	845	251877	13.328	13.113	13.549
ProbeTrack15	10	ProbeTrack	15.0	SCS215a	20120209.164307	20120209.164941	8	0.013328	60	10	60-180	60	114	GapExp	BigFlash	0	66	2	1	1	target	1	349	826	252703	13.328	13.086	13.568
ProbeTrack15	10	ProbeTrack	15.0	SCS215a	20120209.164307	20120209.164947	8	0.013328	60	10	60-180	60	100	GapExp	BigFlash	0	67	2	0	0	distractor	1	412	794	253497	13.328	13.303	13.360
ProbeTrack15	10	ProbeTrack	15.0	SCS215a	20120209.164307	20120209.164953	8	0.013328	60	10	60-180	60	129	GapExp	BigFlash	0	68	2	30	0	distractor	1	311	845	254342	13.328	13.306	13.344
ProbeTrack15	10	ProbeTrack	15.0	SCS215a	20120209.164307	20120209.164959	8	0.013328	60	10	60-180	60	133	GapExp	BigFlash	0	69	2	3	0	distractor	1	379	811	255153	13.328	12.111	14.544
ProbeTrack15	10	ProbeTrack	15.0	SCS215a	20120209.164307	20120209.165005	8	0.013328	60	10	60-180	60	83	GapExp	BigFlash	0	70	2	3	1	target	1	395	803	255956	13.328	13.098	13.564
ProbeTrack15	10	ProbeTrack	15.0	SCS215a	20120209.164307	20120209.165010	8	0.013328	60	10	60-180	60	135	GapExp	BigFlash	0	71	2	30	1	target	1	290	855	256811	13.328	13.109	13.539
ProbeTrack15	10	ProbeTrack	15.0	SCS215a	20120209.164307	20120209.165016	8	0.013328	60	10	60-180	60	63	GapExp	BigFlash	0	72	2	1	1	target	1	346	827	257638	13.328	8.307	18.340
ProbeTrack15	10	ProbeTrack	15.0	SCS215a	20120209.164307	20120209.165022	8	0.013328	60	10	60-180	60	168	GapExp	BigFlash	0	73	2	30	0	distractor	1	407	797	258435	13.328	11.414	15.255
ProbeTrack15	10	ProbeTrack	15.0	SCS215a	20120209.164307	20120209.165028	8	0.013328	60	10	60-180	60	120	GapExp	BigFlash	0	74	2	3	0	distractor	1	357	822	259257	13.328	10.270	16.380
ProbeTrack15	10	ProbeTrack	15.0	SCS215a	20120209.164307	20120209.165034	8	0.013328	60	10	60-180	60	145	GapExp	BigFlash	0	75	2	3	1	target	1	263	869	260126	13.328	13.310	13.346
ProbeTrack15	10	ProbeTrack	15.0	SCS215a	20120209.164307	20120209.165040	8	0.013328	60	10	60-180	60	179	GapExp	BigFlash	0	76	2	3	1	target	1	293	854	260980	13.328	13.085	13.556
ProbeTrack15	10	ProbeTrack	15.0	SCS215a	20120209.164307	20120209.165046	8	0.013328	60	10	60-180	60	147	GapExp	BigFlash	0	77	2	0	0	distractor	1	368	816	261796	13.328	13.096	13.548
ProbeTrack15	10	ProbeTrack	15.0	SCS215a	20120209.164307	20120209.165053	8	0.013328	60	10	60-180	60	135	GapExp	BigFlash	0	78	2	0	0	distractor	1	367	817	262613	13.328	13.309	13.357
ProbeTrack15	10	ProbeTrack	15.0	SCS215a	20120209.164307	20120209.165059	8	0.013328	60	10	60-180	60	119	GapExp	BigFlash	0	79	2	1	1	target	1	290	855	263468	13.328	13.104	13.559
ProbeTrack15	10	ProbeTrack	15.0	SCS215a	20120209.164307	20120209.165104	8	0.013328	60	10	60-180	60	145	GapExp	BigFlash	0	80	2	0	1	target	1	292	854	264322	13.328	13.309	13.346
ProbeTrack15	10	ProbeTrack	15.0	SCS215a	20120209.164307	20120209.165110	8	0.013328	60	10	60-180	60	134	GapExp	BigFlash	0	81	2	0	0	distractor	1	410	795	265117	13.328	13.308	13.350
ProbeTrack15	10	ProbeTrack	15.0	SCS215a	20120209.164307	20120209.165116	8	0.013328	60	10	60-180	60	137	GapExp	BigFlash	0	82	2	0	1	target	1	317	842	265959	13.328	9.707	16.942
ProbeTrack15	10	ProbeTrack	15.0	SCS215a	20120209.164307	20120209.165122	8	0.013328	60	10	60-180	60	70	GapExp	BigFlash	0	83	2	0	1	target	1	278	861	266820	13.328	13.099	13.556
ProbeTrack15	10	ProbeTrack	15.0	SCS215a	20120209.164307	20120209.165127	8	0.013328	60	10	60-180	60	128	GapExp	BigFlash	0	84	2	30	1	target	1	332	834	267654	13.328	13.304	13.347
ProbeTrack15	10	ProbeTrack	15.0	SCS215a	20120209.164307	20120209.165133	8	0.013328	60	10	60-180	60	164	GapExp	BigFlash	0	85	2	1	1	target	1	336	832	268486	13.328	12.167	14.489
ProbeTrack15	10	ProbeTrack	15.0	SCS215a	20120209.164307	20120209.165140	8	0.013328	60	10	60-180	60	70	GapExp	BigFlash	0	86	2	1	1	target	1	275	863	269349	13.328	11.166	15.488
ProbeTrack15	10	ProbeTrack	15.0	SCS215a	20120209.164307	20120209.165144	8	0.013328	60	10	60-180	60	135	GapExp	BigFlash	0	87	2	30	1	target	1	262	869	270218	13.328	5.787	20.871
ProbeTrack15	10	ProbeTrack	15.0	SCS215a	20120209.164307	20120209.165151	8	0.013328	60	10	60-180	60	145	GapExp	BigFlash	0	88	2	0	0	distractor	1	355	823	271041	13.328	13.308	13.348
ProbeTrack15	10	ProbeTrack	15.0	SCS215a	20120209.164307	20120209.165157	8	0.013328	60	10	60-180	60	149	GapExp	BigFlash	0	89	2	3	0	distractor	1	399	801	271842	13.328	9.087	17.588
ProbeTrack15	10	ProbeTrack	15.0	SCS215a	20120209.164307	20120209.165203	8	0.013328	60	10	60-180	60	179	GapExp	BigFlash	0	90	2	3	1	target	1	299	851	272693	13.328	13.306	13.348
ProbeTrack15	10	ProbeTrack	15.0	SCS215a	20120209.164307	20120209.165210	8	0.013328	60	10	60-180	60	164	GapExp	BigFlash	0	91	2	1	1	target	1	317	842	273535	13.328	12.843	13.820
ProbeTrack15	10	ProbeTrack	15.0	SCS215a	20120209.164307	20120209.165216	8	0.013328	60	10	60-180	60	178	GapExp	BigFlash	0	92	2	1	1	target	1	328	836	274371	13.328	13.106	13.556
ProbeTrack15	10	ProbeTrack	15.0	SCS215a	20120209.164307	20120209.165223	8	0.013328	60	10	60-180	60	72	GapExp	BigFlash	0	93	2	0	0	distractor	1	385	808	275179	13.328	13.112	13.549
ProbeTrack15	10	ProbeTrack	15.0	SCS215a	20120209.164307	20120209.165228	8	0.013328	60	10	60-180	60	156	GapExp	BigFlash	0	94	2	0	1	target	1	267	867	276046	13.328	12.969	13.652
ProbeTrack15	10	ProbeTrack	15.0	SCS215a	20120209.164307	20120209.165234	8	0.013328	60	10	60-180	60	87	GapExp	BigFlash	0	95	2	1	0	distractor	1	355	823	276869	13.328	4.843	21.818
ProbeTrack15	10	ProbeTrack	15.0	SCS215a	20120209.164307	20120209.165240	8	0.013328	60	10	60-180	60	179	GapExp	BigFlash	0	96	2	0	1	target	1	300	850	277719	13.328	8.463	18.180
ProbeTrack15	10	ProbeTrack	15.0	SCS215a	20120209.164307	20120209.165246	8	0.013328	60	10	60-180	60	75	GapExp	BigFlash	0	97	2	3	1	target	1	258	871	278590	13.328	13.304	13.353
ProbeTrack15	10	ProbeTrack	15.0	SCS215a	20120209.164307	20120209.165251	8	0.013328	60	10	60-180	60	98	GapExp	BigFlash	0	98	2	1	0	distractor	1	350	825	279415	13.328	13.098	13.548
ProbeTrack15	10	ProbeTrack	15.0	SCS215a	20120209.164307	20120209.165256	8	0.013328	60	10	60-180	60	95	GapExp	BigFlash	0	99	2	30	0	distractor	1	419	791	280206	13.328	10.320	16.337
ProbeTrack15	10	ProbeTrack	15.0	SCS215a	20120209.164307	20120209.165302	8	0.013328	60	10	60-180	60	64	GapExp	BigFlash	0	100	2	1	0	distractor	1	469	766	280972	13.399	13.263	26.481
ProbeTrack15	10	ProbeTrack	15.0	SCS215a	20120209.164307	20120209.165308	8	0.013328	60	10	60-180	60	107	GapExp	BigFlash	0	101	2	3	0	target	0	274	-1000	279972	13.328	12.473	14.190
ProbeTrack15	10	ProbeTrack	15.0	SCS215a	20120209.164307	20120209.165314	8	0.013328	60	10	60-180	60	162	GapExp	BigFlash	0	102	2	30	1	target	1	242	879	280851	13.328	13.305	13.356
ProbeTrack15	10	ProbeTrack	15.0	SCS215a	20120209.164307	20120209.165322	8	0.013328	60	10	60-180	60	139	GapExp	BigFlash	0	103	2	30	0	distractor	1	343	829	281680	13.328	12.009	14.654
ProbeTrack15	10	ProbeTrack	15.0	SCS215a	20120209.164307	20120209.165328	8	0.013328	60	10	60-180	60	62	GapExp	BigFlash	0	104	2	1	0	distractor	1	314	843	282523	13.328	13.309	13.347
ProbeTrack15	10	ProbeTrack	15.0	SCS215a	20120209.164307	20120209.165334	8	0.013328	60	10	60-180	60	95	GapExp	BigFlash	0	105	2	1	0	distractor	1	402	799	283322	13.300	7.333	13.565
ProbeTrack15	10	ProbeTrack	15.0	SCS215a	20120209.164307	20120209.165339	8	0.013328	60	10	60-180	60	64	GapExp	BigFlash	0	106	2	30	0	distractor	1	449	776	284098	13.328	10.267	16.420
ProbeTrack15	10	ProbeTrack	15.0	SCS215a	20120209.164307	20120209.165345	8	0.013328	60	10	60-180	60	169	GapExp	BigFlash	0	107	2	3	1	target	1	300	850	284948	13.328	9.310	17.346
ProbeTrack15	10	ProbeTrack	15.0	SCS215a	20120209.164307	20120209.165351	8	0.013328	60	10	60-180	60	94	GapExp	BigFlash	0	108	2	3	0	target	0	354	-1000	283948	13.328	7.037	19.605
ProbeTrack15	10	ProbeTrack	15.0	SCS215a	20120209.164307	20120209.165357	8	0.013328	60	10	60-180	60	127	GapExp	BigFlash	0	109	2	1	1	target	1	335	833	284781	13.328	13.307	13.350
ProbeTrack15	10	ProbeTrack	15.0	SCS215a	20120209.164307	20120209.165402	8	0.013328	60	10	60-180	60	177	GapExp	BigFlash	0	110	2	0	0	distractor	1	402	799	285580	13.328	13.081	13.573
ProbeTrack15	10	ProbeTrack	15.0	SCS215a	20120209.164307	20120209.165409	8	0.013328	60	10	60-180	60	84	GapExp	BigFlash	0	111	2	0	1	target	1	346	827	286407	13.328	13.106	13.549
ProbeTrack15	10	ProbeTrack	15.0	SCS215a	20120209.164307	20120209.165415	8	0.013328	60	10	60-180	60	93	GapExp	BigFlash	0	112	2	30	0	distractor	1	385	808	287215	13.328	12.394	14.263
ProbeTrack15	10	ProbeTrack	15.0	SCS215a	20120209.164307	20120209.165421	8	0.013328	60	10	60-180	60	139	GapExp	BigFlash	0	113	2	3	1	target	1	296	852	288067	13.328	4.727	21.935
ProbeTrack15	10	ProbeTrack	15.0	SCS215a	20120209.164307	20120209.165426	8	0.013328	60	10	60-180	60	157	GapExp	BigFlash	0	114	2	3	0	distractor	1	439	781	288848	13.328	10.609	16.055
ProbeTrack15	10	ProbeTrack	15.0	SCS215a	20120209.164307	20120209.165432	8	0.013328	60	10	60-180	60	118	GapExp	BigFlash	0	115	2	0	0	distractor	1	376	812	289660	13.328	5.465	21.199
ProbeTrack15	10	ProbeTrack	15.0	SCS215a	20120209.164307	20120209.165438	8	0.013328	60	10	60-180	60	155	GapExp	BigFlash	0	116	2	30	1	target	1	314	843	290503	13.328	13.305	13.347
ProbeTrack15	10	ProbeTrack	15.0	SCS215a	20120209.164307	20120209.165444	8	0.013328	60	10	60-180	60	128	GapExp	BigFlash	0	117	2	0	1	target	1	300	850	291353	13.328	13.104	13.550
ProbeTrack15	10	ProbeTrack	15.0	SCS215a	20120209.164307	20120209.165451	8	0.013328	60	10	60-180	60	69	GapExp	BigFlash	0	118	2	3	1	target	1	256	872	292225	13.328	9.618	17.030
ProbeTrack15	10	ProbeTrack	15.0	SCS215a	20120209.164307	20120209.165456	8	0.013328	60	10	60-180	60	112	GapExp	BigFlash	0	119	2	1	0	distractor	1	349	826	293051	13.328	13.210	13.454
ProbeTrack15	10	ProbeTrack	15.0	SCS215a	20120209.164307	20120209.165501	8	0.013328	60	10	60-180	60	97	GapExp	BigFlash	0	120	2	0	1	target	1	362	819	293870	13.328	9.423	17.231
ProbeTrack15	10	ProbeTrack	15.0	SCS215a	20120209.164307	20120209.165507	8	0.013328	60	10	60-180	60	122	GapExp	BigFlash	0	121	2	0	1	target	1	269	866	294736	13.328	13.309	13.348
ProbeTrack15	10	ProbeTrack	15.0	SCS215a	20120209.164307	20120209.165513	8	0.013328	60	10	60-180	60	167	GapExp	BigFlash	0	122	2	0	0	distractor	1	361	820	295556	13.328	5.299	21.345
ProbeTrack15	10	ProbeTrack	15.0	SCS215a	20120209.164307	20120209.165520	8	0.013328	60	10	60-180	60	64	GapExp	BigFlash	0	123	2	1	0	distractor	1	338	831	296387	13.328	13.307	13.349
ProbeTrack15	10	ProbeTrack	15.0	SCS215a	20120209.164307	20120209.165525	8	0.013328	60	10	60-180	60	85	GapExp	BigFlash	0	124	2	1	0	distractor	1	344	828	297215	13.328	13.105	13.542
ProbeTrack15	10	ProbeTrack	15.0	SCS215a	20120209.164307	20120209.165531	8	0.013328	60	10	60-180	60	80	GapExp	BigFlash	0	125	2	0	0	distractor	1	335	833	298048	13.328	11.920	14.743
ProbeTrack15	10	ProbeTrack	15.0	SCS215a	20120209.164307	20120209.165536	8	0.013328	60	10	60-180	60	156	GapExp	BigFlash	0	126	2	1	1	target	1	412	794	298842	13.328	13.308	13.346
ProbeTrack15	10	ProbeTrack	15.0	SCS215a	20120209.164307	20120209.165542	8	0.013328	60	10	60-180	60	164	GapExp	BigFlash	0	127	2	0	1	target	1	314	843	299685	13.328	9.869	16.789
ProbeTrack15	10	ProbeTrack	15.0	SCS215a	20120209.164307	20120209.165548	8	0.013328	60	10	60-180	60	112	GapExp	BigFlash	0	128	2	0	0	distractor	1	434	783	300468	13.328	13.295	13.369
ProbeTrack15	10	ProbeTrack	15.0	SCS215a	20120209.164307	20120209.165554	8	0.013328	60	10	60-180	60	94	GapExp	BigFlash	0	129	2	0	1	target	1	298	851	301319	13.328	13.298	13.350
ProbeTrack15	10	ProbeTrack	15.0	SCS215a	20120209.164307	20120209.165600	8	0.013328	60	10	60-180	60	66	GapExp	BigFlash	0	130	2	3	1	target	1	285	858	302177	13.328	6.719	19.931
ProbeTrack15	10	ProbeTrack	15.0	SCS215a	20120209.164307	20120209.165604	8	0.013328	60	10	60-180	60	142	GapExp	BigFlash	0	131	2	30	0	distractor	1	328	836	303013	13.328	10.578	16.079
ProbeTrack15	10	ProbeTrack	15.0	SCS215a	20120209.164307	20120209.165611	8	0.013328	60	10	60-180	60	64	GapExp	BigFlash	0	132	2	3	0	distractor	1	340	830	303843	13.328	13.308	13.349
ProbeTrack15	10	ProbeTrack	15.0	SCS215a	20120209.164307	20120209.165616	8	0.013328	60	10	60-180	60	65	GapExp	BigFlash	0	133	2	30	0	target	0	412	-1000	302843	13.328	13.112	13.544
ProbeTrack15	10	ProbeTrack	15.0	SCS215a	20120209.164307	20120209.165621	8	0.013328	60	10	60-180	60	139	GapExp	BigFlash	0	134	2	0	0	distractor	1	396	802	303645	13.328	8.961	17.687
ProbeTrack15	10	ProbeTrack	15.0	SCS215a	20120209.164307	20120209.165627	8	0.013328	60	10	60-180	60	64	GapExp	BigFlash	0	135	2	3	1	target	1	275	863	304508	13.328	13.304	13.358
ProbeTrack15	10	ProbeTrack	15.0	SCS215a	20120209.164307	20120209.165632	8	0.013328	60	10	60-180	60	79	GapExp	BigFlash	0	136	2	30	1	target	1	258	871	305379	13.328	13.308	13.359
ProbeTrack15	10	ProbeTrack	15.0	SCS215a	20120209.164307	20120209.165638	8	0.013328	60	10	60-180	60	108	GapExp	BigFlash	0	137	2	0	1	target	1	321	840	306219	13.328	13.312	13.349
ProbeTrack15	10	ProbeTrack	15.0	SCS215a	20120209.164307	20120209.165643	8	0.013328	60	10	60-180	60	79	GapExp	BigFlash	0	138	2	3	0	distractor	1	353	824	307043	13.328	13.087	13.556
ProbeTrack15	10	ProbeTrack	15.0	SCS215a	20120209.164307	20120209.165648	8	0.013328	60	10	60-180	60	122	GapExp	BigFlash	0	139	2	30	1	target	1	304	848	307891	13.328	11.764	14.892
ProbeTrack15	10	ProbeTrack	15.0	SCS215a	20120209.164307	20120209.165654	8	0.013328	60	10	60-180	60	87	GapExp	BigFlash	0	140	2	30	0	distractor	1	413	794	308685	13.328	11.933	14.719
ProbeTrack15	10	ProbeTrack	15.0	SCS215a	20120209.164307	20120209.165700	8	0.013328	60	10	60-180	60	168	GapExp	BigFlash	0	141	2	0	1	target	1	287	857	309542	13.328	13.306	13.348
ProbeTrack15	10	ProbeTrack	15.0	SCS215a	20120209.164307	20120209.165707	8	0.013328	60	10	60-180	60	147	GapExp	BigFlash	0	142	2	1	1	target	1	276	862	310404	13.328	13.307	13.351
ProbeTrack15	10	ProbeTrack	15.0	SCS215a	20120209.164307	20120209.165712	8	0.013328	60	10	60-180	60	128	GapExp	BigFlash	0	143	2	3	1	target	1	301	850	311254	13.328	12.030	14.625
ProbeTrack15	10	ProbeTrack	15.0	SCS215a	20120209.164307	20120209.165718	8	0.013328	60	10	60-180	60	96	GapExp	BigFlash	0	144	2	0	1	target	1	283	859	312113	13.328	8.477	18.178
ProbeTrack15	10	ProbeTrack	15.0	SCS215a	20120209.164307	20120209.165723	8	0.013328	60	10	60-180	60	148	GapExp	BigFlash	0	145	2	1	0	distractor	1	395	803	312916	13.328	13.100	13.541
ProbeTrack15	10	ProbeTrack	15.0	SCS215a	20120209.164307	20120209.165729	8	0.013328	60	10	60-180	60	138	GapExp	BigFlash	0	146	2	30	0	distractor	1	402	799	313715	13.328	10.101	16.554
ProbeTrack15	10	ProbeTrack	15.0	SCS215a	20120209.164307	20120209.165736	8	0.013328	60	10	60-180	60	156	GapExp	BigFlash	0	147	2	0	0	distractor	1	281	860	314575	13.328	13.307	13.344
ProbeTrack15	10	ProbeTrack	15.0	SCS215a	20120209.164307	20120209.165742	8	0.013328	60	10	60-180	60	124	GapExp	BigFlash	0	148	2	30	0	distractor	1	360	820	315395	13.328	11.105	15.545
ProbeTrack15	10	ProbeTrack	15.0	SCS215a	20120209.164307	20120209.165749	8	0.013328	60	10	60-180	60	93	GapExp	BigFlash	0	149	2	30	1	target	1	263	869	316264	13.328	13.070	13.586
ProbeTrack15	10	ProbeTrack	15.0	SCS215a	20120209.164307	20120209.165754	8	0.013328	60	10	60-180	60	89	GapExp	BigFlash	0	150	2	30	1	distractor	0	321	-1000	315264	13.328	13.296	13.351
ProbeTrack15	10	ProbeTrack	15.0	SCS215a	20120209.164307	20120209.165800	8	0.013328	60	10	60-180	60	122	GapExp	BigFlash	0	151	2	0	1	target	1	279	861	316125	13.328	12.174	14.461
ProbeTrack15	10	ProbeTrack	15.0	SCS215a	20120209.164307	20120209.165806	8	0.013328	60	10	60-180	60	102	GapExp	BigFlash	0	152	2	1	0	distractor	1	366	817	316942	13.328	9.081	17.578
ProbeTrack15	10	ProbeTrack	15.0	SCS215a	20120209.164307	20120209.165811	8	0.013328	60	10	60-180	60	84	GapExp	BigFlash	0	153	2	3	1	target	1	334	833	317775	13.328	13.306	13.351
ProbeTrack15	10	ProbeTrack	15.0	SCS215a	20120209.164307	20120209.165817	8	0.013328	60	10	60-180	60	169	GapExp	BigFlash	0	154	2	0	1	target	1	284	858	318633	13.328	6.768	19.882
ProbeTrack15	10	ProbeTrack	15.0	SCS215a	20120209.164307	20120209.165823	8	0.013328	60	10	60-180	60	153	GapExp	BigFlash	0	155	2	30	0	distractor	1	396	802	319435	13.328	13.309	13.347
ProbeTrack15	10	ProbeTrack	15.0	SCS215a	20120209.164307	20120209.165829	8	0.013328	60	10	60-180	60	64	GapExp	BigFlash	0	156	2	1	0	distractor	1	380	810	320245	13.328	13.302	13.348
ProbeTrack15	10	ProbeTrack	15.0	SCS215a	20120209.164307	20120209.165834	8	0.013328	60	10	60-180	60	94	GapExp	BigFlash	0	157	2	30	1	target	1	238	881	321126	13.328	12.647	14.026
ProbeTrack15	10	ProbeTrack	15.0	SCS215a	20120209.164307	20120209.165840	8	0.013328	60	10	60-180	60	156	GapExp	BigFlash	0	158	2	1	0	distractor	1	436	782	321908	13.328	13.305	13.355
ProbeTrack15	10	ProbeTrack	15.0	SCS215a	20120209.164307	20120209.165846	8	0.013328	60	10	60-180	60	82	GapExp	BigFlash	0	159	2	1	1	target	1	328	836	322744	13.328	7.522	19.134
ProbeTrack15	10	ProbeTrack	15.0	SCS215a	20120209.164307	20120209.165852	8	0.013328	60	10	60-180	60	157	GapExp	BigFlash	0	160	2	3	1	distractor	0	320	-1000	321744	13.328	13.270	13.386
ProbeTrack15	10	ProbeTrack	15.0	SCS215a	20120209.164307	20120209.165858	8	0.013328	60	10	60-180	60	141	GapExp	BigFlash	0	161	2	1	1	target	1	269	866	322610	13.328	12.083	14.578
ProbeTrack15	10	ProbeTrack	15.0	SCS215a	20120209.164307	20120209.165905	8	0.013328	60	10	60-180	60	119	GapExp	BigFlash	0	162	2	0	1	target	1	286	857	323467	13.328	13.303	13.356
ProbeTrack15	10	ProbeTrack	15.0	SCS215a	20120209.164307	20120209.165911	8	0.013328	60	10	60-180	60	142	GapExp	BigFlash	0	163	2	0	1	target	1	284	858	324325	13.328	13.095	13.553
ProbeTrack15	10	ProbeTrack	15.0	SCS215a	20120209.164307	20120209.165917	8	0.013328	60	10	60-180	60	149	GapExp	BigFlash	0	164	2	1	1	target	1	280	860	325185	13.328	13.097	13.558
ProbeTrack15	10	ProbeTrack	15.0	SCS215a	20120209.164307	20120209.165923	8	0.013328	60	10	60-180	60	149	GapExp	BigFlash	0	165	2	3	0	distractor	1	411	795	325980	13.328	13.094	13.550
ProbeTrack15	10	ProbeTrack	15.0	SCS215a	20120209.164307	20120209.165929	8	0.013328	60	10	60-180	60	67	GapExp	BigFlash	0	166	2	3	1	target	1	314	843	326823	13.328	13.303	13.352
ProbeTrack15	10	ProbeTrack	15.0	SCS215a	20120209.164307	20120209.165934	8	0.013328	60	10	60-180	60	164	GapExp	BigFlash	0	167	2	0	1	target	1	292	854	327677	13.328	8.027	18.630
ProbeTrack15	10	ProbeTrack	15.0	SCS215a	20120209.164307	20120209.165940	8	0.013328	60	10	60-180	60	141	GapExp	BigFlash	0	168	2	0	0	distractor	1	349	826	328503	13.328	4.377	22.267
ProbeTrack15	10	ProbeTrack	15.0	SCS215a	20120209.164307	20120209.165946	8	0.013328	60	10	60-180	60	122	GapExp	BigFlash	0	169	2	30	0	distractor	1	341	830	329333	13.328	13.307	13.347
ProbeTrack15	10	ProbeTrack	15.0	SCS215a	20120209.164307	20120209.165952	8	0.013328	60	10	60-180	60	75	GapExp	BigFlash	0	170	2	1	0	distractor	1	525	738	330071	13.328	8.932	17.740
ProbeTrack15	10	ProbeTrack	15.0	SCS215a	20120209.164307	20120209.165958	8	0.013328	60	10	60-180	60	82	GapExp	BigFlash	0	171	2	0	0	distractor	1	343	829	330900	13.328	13.098	13.556
ProbeTrack15	10	ProbeTrack	15.0	SCS215a	20120209.164307	20120209.170003	8	0.013328	60	10	60-180	60	78	GapExp	BigFlash	0	172	2	1	0	distractor	1	431	785	331685	13.328	13.309	13.346
ProbeTrack15	10	ProbeTrack	15.0	SCS215a	20120209.164307	20120209.170008	8	0.013328	60	10	60-180	60	69	GapExp	BigFlash	0	173	2	0	0	distractor	1	470	765	332450	13.328	12.012	14.638
ProbeTrack15	10	ProbeTrack	15.0	SCS215a	20120209.164307	20120209.170013	8	0.013328	60	10	60-180	60	76	GapExp	BigFlash	0	174	2	1	1	target	1	313	844	333294	13.328	13.107	13.562
ProbeTrack15	10	ProbeTrack	15.0	SCS215a	20120209.164307	20120209.170018	8	0.013328	60	10	60-180	60	124	GapExp	BigFlash	0	175	2	0	0	distractor	1	393	804	334098	13.328	5.343	21.327
ProbeTrack15	10	ProbeTrack	15.0	SCS215a	20120209.164307	20120209.170024	8	0.013328	60	10	60-180	60	159	GapExp	BigFlash	0	176	2	3	1	target	1	246	877	334975	13.328	7.728	18.929
ProbeTrack15	10	ProbeTrack	15.0	SCS215a	20120209.164307	20120209.170030	8	0.013328	60	10	60-180	60	97	GapExp	BigFlash	0	177	2	30	0	distractor	1	340	830	335805	13.328	12.988	13.683
ProbeTrack15	10	ProbeTrack	15.0	SCS215a	20120209.164307	20120209.170036	8	0.013328	60	10	60-180	60	85	GapExp	BigFlash	0	178	2	1	0	distractor	1	363	819	336624	13.328	6.692	19.957
ProbeTrack15	10	ProbeTrack	15.0	SCS215a	20120209.164307	20120209.170041	8	0.013328	60	10	60-180	60	123	GapExp	BigFlash	0	179	2	1	1	target	1	324	838	337462	13.328	11.886	14.770
ProbeTrack15	10	ProbeTrack	15.0	SCS215a	20120209.164307	20120209.170047	8	0.013328	60	10	60-180	60	171	GapExp	BigFlash	0	180	2	30	0	distractor	1	333	834	338296	13.328	13.096	13.559
ProbeTrack15	10	ProbeTrack	15.0	SCS215a	20120209.164307	20120209.170053	8	0.013328	60	10	60-180	60	96	GapExp	BigFlash	0	181	2	30	1	early	-4	-1386	-1000	337296	13.328	11.028	15.617
ProbeTrack15	10	ProbeTrack	15.0	SCS215a	20120209.164307	20120209.170059	8	0.013328	60	10	60-180	60	137	GapExp	BigFlash	0	182	2	3	1	target	1	330	835	338131	13.328	13.105	13.557
ProbeTrack15	10	ProbeTrack	15.0	SCS215a	20120209.164307	20120209.170107	8	0.013328	60	10	60-180	60	85	GapExp	BigFlash	0	183	2	3	0	target	0	360	-1000	337131	13.328	13.279	13.357
ProbeTrack15	10	ProbeTrack	15.0	SCS215a	20120209.164307	20120209.170112	8	0.013328	60	10	60-180	60	87	GapExp	BigFlash	0	184	2	0	0	distractor	1	366	817	337948	13.328	13.306	13.346
ProbeTrack15	10	ProbeTrack	15.0	SCS215a	20120209.164307	20120209.170117	8	0.013328	60	10	60-180	60	64	GapExp	BigFlash	0	185	2	0	0	distractor	1	371	815	338763	13.328	13.305	13.352
ProbeTrack15	10	ProbeTrack	15.0	SCS215a	20120209.164307	20120209.170122	8	0.013328	60	10	60-180	60	139	GapExp	BigFlash	0	186	2	0	1	target	1	326	837	339600	13.328	13.094	13.560
ProbeTrack15	10	ProbeTrack	15.0	SCS215a	20120209.164307	20120209.170128	8	0.013328	60	10	60-180	60	67	GapExp	BigFlash	0	187	2	1	1	target	1	307	847	340447	13.328	13.309	13.349
ProbeTrack15	10	ProbeTrack	15.0	SCS215a	20120209.164307	20120209.170133	8	0.013328	60	10	60-180	60	175	GapExp	BigFlash	0	188	2	0	1	target	1	364	818	341265	13.328	13.307	13.348
ProbeTrack15	10	ProbeTrack	15.0	SCS215a	20120209.164307	20120209.170140	8	0.013328	60	10	60-180	60	87	GapExp	BigFlash	0	189	2	3	0	distractor	1	337	832	342097	13.328	9.076	17.587
ProbeTrack15	10	ProbeTrack	15.0	SCS215a	20120209.164307	20120209.170145	8	0.013328	60	10	60-180	60	90	GapExp	BigFlash	0	190	2	1	0	distractor	1	384	808	342905	13.328	13.111	13.557
ProbeTrack15	10	ProbeTrack	15.0	SCS215a	20120209.164307	20120209.170150	8	0.013328	60	10	60-180	60	64	GapExp	BigFlash	0	191	2	1	1	target	1	282	859	343764	13.328	12.654	14.003
ProbeTrack15	10	ProbeTrack	15.0	SCS215a	20120209.164307	20120209.170155	8	0.013328	60	10	60-180	60	120	GapExp	BigFlash	0	192	2	30	0	distractor	1	369	816	344580	13.328	12.753	13.904
ProbeTrack15	10	ProbeTrack	15.0	SCS215a	20120209.164307	20120209.170201	8	0.013328	60	10	60-180	60	121	GapExp	BigFlash	0	193	2	3	0	distractor	1	330	835	345415	13.328	13.307	13.351
ProbeTrack15	10	ProbeTrack	15.0	SCS215a	20120209.164307	20120209.170207	8	0.013328	60	10	60-180	60	140	GapExp	BigFlash	0	194	2	3	1	target	1	297	852	346267	13.328	10.733	15.922
ProbeTrack15	10	ProbeTrack	15.0	SCS215a	20120209.164307	20120209.170213	8	0.013328	60	10	60-180	60	73	GapExp	BigFlash	0	195	2	3	1	target	1	278	861	347128	13.328	8.775	17.894
ProbeTrack15	10	ProbeTrack	15.0	SCS215a	20120209.164307	20120209.170218	8	0.013328	60	10	60-180	60	74	GapExp	BigFlash	0	196	2	3	0	distractor	1	319	841	347969	13.328	7.925	18.738
ProbeTrack15	10	ProbeTrack	15.0	SCS215a	20120209.164307	20120209.170223	8	0.013328	60	10	60-180	60	72	GapExp	BigFlash	0	197	2	1	0	distractor	1	384	808	348777	13.328	13.308	13.348
ProbeTrack15	10	ProbeTrack	15.0	SCS215a	20120209.164307	20120209.170228	8	0.013328	60	10	60-180	60	127	GapExp	BigFlash	0	198	2	1	1	target	1	275	863	349640	13.328	13.294	13.364
ProbeTrack15	10	ProbeTrack	15.0	SCS215a	20120209.164307	20120209.170234	8	0.013328	60	10	60-180	60	114	GapExp	BigFlash	0	199	2	3	0	distractor	1	303	849	350489	13.328	13.302	13.360
ProbeTrack15	10	ProbeTrack	15.0	SCS215a	20120209.164307	20120209.170239	8	0.013328	60	10	60-180	60	180	GapExp	BigFlash	0	200	2	0	1	target	1	303	849	351338	13.328	12.276	14.393
ProbeTrack15	10	ProbeTrack	15.0	SCS215a	20120209.170444	20120209.170454	8	0.013327	60	10	60-180	60	116	GapPrac	SmallFlash	1	1	2	3	0	distractor	1	555	723	352061	13.382	12.898	13.759
ProbeTrack15	10	ProbeTrack	15.0	SCS215a	20120209.170444	20120209.170501	8	0.013327	60	10	60-180	60	141	GapPrac	SmallFlash	1	2	2	30	1	target	1	344	828	352889	13.328	13.039	13.609
ProbeTrack15	10	ProbeTrack	15.0	SCS215a	20120209.170444	20120209.170507	8	0.013327	60	10	60-180	60	67	GapPrac	SmallFlash	1	3	2	0	1	target	1	302	849	353738	13.328	12.932	13.722
ProbeTrack15	10	ProbeTrack	15.0	SCS215a	20120209.170444	20120209.170512	8	0.013327	60	10	60-180	60	95	GapPrac	SmallFlash	1	4	2	1	1	target	1	315	843	354581	13.328	13.085	13.700
ProbeTrack15	10	ProbeTrack	15.0	SCS215a	20120209.170444	20120209.170517	8	0.013327	60	10	60-180	60	101	GapPrac	SmallFlash	1	5	2	0	1	target	1	433	784	355365	13.328	13.249	13.407
ProbeTrack15	10	ProbeTrack	15.0	SCS215a	20120209.170444	20120209.170523	8	0.013327	60	10	60-180	60	168	GapPrac	SmallFlash	1	6	2	3	0	distractor	1	372	814	356179	13.328	13.294	13.368
ProbeTrack15	10	ProbeTrack	15.0	SCS215a	20120209.170444	20120209.170529	8	0.013327	60	10	60-180	60	81	GapPrac	SmallFlash	1	7	2	3	1	target	1	355	823	357002	13.328	12.915	13.740
ProbeTrack15	10	ProbeTrack	15.0	SCS215a	20120209.170444	20120209.170535	8	0.013327	60	10	60-180	60	164	GapPrac	SmallFlash	1	8	2	0	0	distractor	1	398	801	357803	13.328	13.006	13.656
ProbeTrack15	10	ProbeTrack	15.0	SCS215a	20120209.170444	20120209.170541	8	0.013327	60	10	60-180	60	180	GapPrac	SmallFlash	1	9	2	1	0	distractor	1	363	819	358622	13.328	13.112	13.557
ProbeTrack15	10	ProbeTrack	15.0	SCS215a	20120209.170444	20120209.170547	8	0.013327	60	10	60-180	60	118	GapPrac	SmallFlash	1	10	2	30	0	distractor	1	385	808	359430	13.378	12.908	26.574
ProbeTrack15	10	ProbeTrack	15.0	SCS215a	20120209.170444	20120209.170553	8	0.013327	60	10	60-180	60	172	GapPrac	SmallFlash	1	11	2	0	0	distractor	1	350	825	360255	13.328	12.951	13.690
ProbeTrack15	10	ProbeTrack	15.0	SCS215a	20120209.170444	20120209.170600	8	0.013327	60	10	60-180	60	125	GapPrac	SmallFlash	1	12	2	3	0	distractor	1	396	802	361057	13.328	12.929	13.703
ProbeTrack15	10	ProbeTrack	15.0	SCS215a	20120209.170444	20120209.170606	8	0.013327	60	10	60-180	60	101	GapPrac	SmallFlash	1	13	2	3	1	target	1	320	840	361897	13.328	13.307	13.362
ProbeTrack15	10	ProbeTrack	15.0	SCS215a	20120209.170444	20120209.170611	8	0.013327	60	10	60-180	60	76	GapPrac	SmallFlash	1	14	2	0	1	target	1	296	852	362749	13.328	13.299	13.354
ProbeTrack15	10	ProbeTrack	15.0	SCS215a	20120209.170444	20120209.170616	8	0.013327	60	10	60-180	60	65	GapPrac	SmallFlash	1	15	2	1	0	distractor	1	428	786	363535	13.328	12.960	13.760
ProbeTrack15	10	ProbeTrack	15.0	SCS215a	20120209.170444	20120209.170621	8	0.013327	60	10	60-180	60	82	GapPrac	SmallFlash	1	16	2	30	1	target	1	291	855	364390	13.328	13.297	13.362
ProbeTrack15	10	ProbeTrack	15.0	SCS215a	20120209.170444	20120209.170626	8	0.013327	60	10	60-180	60	180	GapPrac	SmallFlash	1	17	2	30	0	distractor	1	394	803	365193	13.328	12.877	13.771
ProbeTrack15	10	ProbeTrack	15.0	SCS215a	20120209.170444	20120209.170633	8	0.013327	60	10	60-180	60	104	GapPrac	SmallFlash	1	18	2	1	1	target	1	278	861	366054	13.328	13.029	13.632
ProbeTrack15	10	ProbeTrack	15.0	SCS215a	20120209.170444	20120209.170639	8	0.013327	60	10	60-180	60	177	GapPrac	SmallFlash	1	19	2	30	1	target	1	332	834	366888	13.328	12.927	13.731
ProbeTrack15	10	ProbeTrack	15.0	SCS215a	20120209.170444	20120209.170646	8	0.013327	60	10	60-180	60	144	GapPrac	SmallFlash	1	20	2	1	1	target	1	330	835	367723	13.328	13.308	13.348
ProbeTrack15	10	ProbeTrack	15.0	SCS215a	20120209.170824	20120209.170835	8	0.013328	60	10	60-180	60	142	GapExp	SmallFlash	1	1	2	1	0	distractor	1	363	819	368542	13.380	13.210	13.463
ProbeTrack15	10	ProbeTrack	15.0	SCS215a	20120209.170824	20120209.170842	8	0.013328	60	10	60-180	60	94	GapExp	SmallFlash	1	2	2	30	1	target	1	299	851	369393	13.328	13.309	13.348
ProbeTrack15	10	ProbeTrack	15.0	SCS215a	20120209.170824	20120209.170848	8	0.013328	60	10	60-180	60	152	GapExp	SmallFlash	1	3	2	3	1	target	1	332	834	370227	13.328	13.190	13.404
ProbeTrack15	10	ProbeTrack	15.0	SCS215a	20120209.170824	20120209.170854	8	0.013328	60	10	60-180	60	162	GapExp	SmallFlash	1	4	2	0	1	target	1	275	863	371090	13.328	13.304	13.346
ProbeTrack15	10	ProbeTrack	15.0	SCS215a	20120209.170824	20120209.170900	8	0.013328	60	10	60-180	60	163	GapExp	SmallFlash	1	5	2	3	0	distractor	1	419	791	371881	13.328	13.104	13.550
ProbeTrack15	10	ProbeTrack	15.0	SCS215a	20120209.170824	20120209.170906	8	0.013328	60	10	60-180	60	89	GapExp	SmallFlash	1	6	2	1	1	target	1	294	853	372734	13.328	13.114	13.541
ProbeTrack15	10	ProbeTrack	15.0	SCS215a	20120209.170824	20120209.170911	8	0.013328	60	10	60-180	60	127	GapExp	SmallFlash	1	7	2	0	0	distractor	1	354	823	373557	13.328	12.857	13.804
ProbeTrack15	10	ProbeTrack	15.0	SCS215a	20120209.170824	20120209.170917	8	0.013328	60	10	60-180	60	131	GapExp	SmallFlash	1	8	2	30	0	distractor	1	378	811	374368	13.329	13.298	13.558
ProbeTrack15	10	ProbeTrack	15.0	SCS215a	20120209.170824	20120209.170923	8	0.013328	60	10	60-180	60	154	GapExp	SmallFlash	0	9	2	3	0	distractor	1	365	818	375186	13.328	12.888	13.751
ProbeTrack15	10	ProbeTrack	15.0	SCS215a	20120209.170824	20120209.170929	8	0.013328	60	10	60-180	60	116	GapExp	SmallFlash	0	10	2	30	0	distractor	1	501	750	375936	13.328	13.308	13.347
ProbeTrack15	10	ProbeTrack	15.0	SCS215a	20120209.170824	20120209.170936	8	0.013328	60	10	60-180	60	179	GapExp	SmallFlash	0	11	2	3	0	distractor	1	347	827	376763	13.328	13.307	13.351
ProbeTrack15	10	ProbeTrack	15.0	SCS215a	20120209.170824	20120209.170943	8	0.013328	60	10	60-180	60	131	GapExp	SmallFlash	0	12	2	1	0	distractor	1	380	810	377573	13.328	12.884	13.774
ProbeTrack15	10	ProbeTrack	15.0	SCS215a	20120209.170824	20120209.170950	8	0.013328	60	10	60-180	60	65	GapExp	SmallFlash	0	13	2	1	1	target	1	334	833	378406	13.328	13.129	13.544
ProbeTrack15	10	ProbeTrack	15.0	SCS215a	20120209.170824	20120209.170955	8	0.013328	60	10	60-180	60	109	GapExp	SmallFlash	0	14	2	1	0	distractor	1	334	833	379239	13.328	13.104	13.553
ProbeTrack15	10	ProbeTrack	15.0	SCS215a	20120209.170824	20120209.171000	8	0.013328	60	10	60-180	60	107	GapExp	SmallFlash	0	15	2	3	0	distractor	1	308	846	380085	13.328	13.112	13.558
ProbeTrack15	10	ProbeTrack	15.0	SCS215a	20120209.170824	20120209.171006	8	0.013328	60	10	60-180	60	67	GapExp	SmallFlash	0	16	2	0	1	target	1	331	835	380920	13.328	13.297	13.347
ProbeTrack15	10	ProbeTrack	15.0	SCS215a	20120209.170824	20120209.171011	8	0.013328	60	10	60-180	60	172	GapExp	SmallFlash	0	17	2	0	0	distractor	1	374	813	381733	13.328	13.293	13.367
ProbeTrack15	10	ProbeTrack	15.0	SCS215a	20120209.170824	20120209.171017	8	0.013328	60	10	60-180	60	158	GapExp	SmallFlash	0	18	2	3	1	target	1	374	813	382546	13.328	12.894	13.762
ProbeTrack15	10	ProbeTrack	15.0	SCS215a	20120209.170824	20120209.171024	8	0.013328	60	10	60-180	60	132	GapExp	SmallFlash	0	19	2	3	0	distractor	1	313	844	383390	13.328	13.308	13.358
ProbeTrack15	10	ProbeTrack	15.0	SCS215a	20120209.170824	20120209.171030	8	0.013328	60	10	60-180	60	135	GapExp	SmallFlash	0	20	2	0	0	distractor	1	591	705	384095	13.328	12.881	13.800
ProbeTrack15	10	ProbeTrack	15.0	SCS215a	20120209.170824	20120209.171036	8	0.013328	60	10	60-180	60	173	GapExp	SmallFlash	0	21	2	0	0	distractor	1	308	846	384941	13.328	13.113	13.543
ProbeTrack15	10	ProbeTrack	15.0	SCS215a	20120209.170824	20120209.171043	8	0.013328	60	10	60-180	60	116	GapExp	SmallFlash	0	22	2	1	1	target	1	324	838	385779	13.328	13.085	13.557
ProbeTrack15	10	ProbeTrack	15.0	SCS215a	20120209.170824	20120209.171048	8	0.013328	60	10	60-180	60	123	GapExp	SmallFlash	0	23	2	0	0	distractor	1	330	835	386614	13.328	12.879	13.771
ProbeTrack15	10	ProbeTrack	15.0	SCS215a	20120209.170824	20120209.171055	8	0.013328	60	10	60-180	60	66	GapExp	SmallFlash	0	24	2	30	1	target	1	367	817	387431	13.328	13.306	13.351
ProbeTrack15	10	ProbeTrack	15.0	SCS215a	20120209.170824	20120209.171100	8	0.013328	60	10	60-180	60	88	GapExp	SmallFlash	0	25	2	30	0	distractor	1	375	813	388244	13.328	13.308	13.352
ProbeTrack15	10	ProbeTrack	15.0	SCS215a	20120209.170824	20120209.171105	8	0.013328	60	10	60-180	60	109	GapExp	SmallFlash	0	26	2	0	0	distractor	1	358	821	389065	13.328	13.099	13.565
ProbeTrack15	10	ProbeTrack	15.0	SCS215a	20120209.170824	20120209.171111	8	0.013328	60	10	60-180	60	87	GapExp	SmallFlash	0	27	2	1	0	distractor	1	318	841	389906	13.328	13.092	13.557
ProbeTrack15	10	ProbeTrack	15.0	SCS215a	20120209.170824	20120209.171116	8	0.013328	60	10	60-180	60	123	GapExp	SmallFlash	0	28	2	0	1	target	1	329	836	390742	13.328	13.308	13.350
ProbeTrack15	10	ProbeTrack	15.0	SCS215a	20120209.170824	20120209.171121	8	0.013328	60	10	60-180	60	108	GapExp	SmallFlash	0	29	2	1	0	distractor	1	442	779	391521	13.328	13.309	13.346
ProbeTrack15	10	ProbeTrack	15.0	SCS215a	20120209.170824	20120209.171128	8	0.013328	60	10	60-180	60	174	GapExp	SmallFlash	0	30	2	1	1	target	1	245	878	392399	13.328	12.878	13.782
ProbeTrack15	10	ProbeTrack	15.0	SCS215a	20120209.170824	20120209.171134	8	0.013328	60	10	60-180	60	70	GapExp	SmallFlash	0	31	2	0	0	distractor	1	389	806	393205	13.328	13.092	13.557
ProbeTrack15	10	ProbeTrack	15.0	SCS215a	20120209.170824	20120209.171139	8	0.013328	60	10	60-180	60	133	GapExp	SmallFlash	0	32	2	1	1	target	1	294	853	394058	13.328	13.091	13.548
ProbeTrack15	10	ProbeTrack	15.0	SCS215a	20120209.170824	20120209.171145	8	0.013328	60	10	60-180	60	166	GapExp	SmallFlash	0	33	2	3	0	distractor	1	342	829	394887	13.328	12.876	13.772
ProbeTrack15	10	ProbeTrack	15.0	SCS215a	20120209.170824	20120209.171151	8	0.013328	60	10	60-180	60	105	GapExp	SmallFlash	0	34	2	30	0	distractor	1	444	778	395665	13.328	13.000	13.651
ProbeTrack15	10	ProbeTrack	15.0	SCS215a	20120209.170824	20120209.171157	8	0.013328	60	10	60-180	60	94	GapExp	SmallFlash	0	35	2	30	1	target	1	327	837	396502	13.328	13.306	13.350
ProbeTrack15	10	ProbeTrack	15.0	SCS215a	20120209.170824	20120209.171203	8	0.013328	60	10	60-180	60	81	GapExp	SmallFlash	0	36	2	0	1	target	1	311	845	397347	13.328	13.296	13.354
ProbeTrack15	10	ProbeTrack	15.0	SCS215a	20120209.170824	20120209.171208	8	0.013328	60	10	60-180	60	119	GapExp	SmallFlash	0	37	2	1	0	distractor	1	352	824	398171	13.328	13.092	13.557
ProbeTrack15	10	ProbeTrack	15.0	SCS215a	20120209.170824	20120209.171213	8	0.013328	60	10	60-180	60	89	GapExp	SmallFlash	0	38	2	3	1	target	1	275	863	399034	13.328	13.309	13.348
ProbeTrack15	10	ProbeTrack	15.0	SCS215a	20120209.170824	20120209.171218	8	0.013328	60	10	60-180	60	141	GapExp	SmallFlash	0	39	2	1	1	distractor	0	288	-1000	398034	13.328	12.963	13.711
ProbeTrack15	10	ProbeTrack	15.0	SCS215a	20120209.170824	20120209.171224	8	0.013328	60	10	60-180	60	146	GapExp	SmallFlash	0	40	2	30	1	target	1	366	817	398851	13.328	13.018	13.639
ProbeTrack15	10	ProbeTrack	15.0	SCS215a	20120209.170824	20120209.171231	8	0.013328	60	10	60-180	60	104	GapExp	SmallFlash	0	41	2	1	0	distractor	1	369	816	399667	13.328	13.308	13.348
ProbeTrack15	10	ProbeTrack	15.0	SCS215a	20120209.170824	20120209.171237	8	0.013328	60	10	60-180	60	130	GapExp	SmallFlash	0	42	2	3	1	target	1	390	805	400472	13.328	13.307	13.348
ProbeTrack15	10	ProbeTrack	15.0	SCS215a	20120209.170824	20120209.171243	8	0.013328	60	10	60-180	60	122	GapExp	SmallFlash	0	43	2	30	0	distractor	1	391	805	401277	13.328	12.864	13.785
ProbeTrack15	10	ProbeTrack	15.0	SCS215a	20120209.170824	20120209.171249	8	0.013328	60	10	60-180	60	128	GapExp	SmallFlash	0	44	2	0	1	target	1	330	835	402112	13.328	13.091	13.552
ProbeTrack15	10	ProbeTrack	15.0	SCS215a	20120209.170824	20120209.171255	8	0.013328	60	10	60-180	60	154	GapExp	SmallFlash	0	45	2	1	1	target	1	267	867	402979	13.328	13.007	13.657
ProbeTrack15	10	ProbeTrack	15.0	SCS215a	20120209.170824	20120209.171301	8	0.013328	60	10	60-180	60	147	GapExp	SmallFlash	0	46	2	0	1	target	1	277	862	403841	13.328	12.967	13.689
ProbeTrack15	10	ProbeTrack	15.0	SCS215a	20120209.170824	20120209.171307	8	0.013328	60	10	60-180	60	172	GapExp	SmallFlash	0	47	2	30	0	distractor	1	366	817	404658	13.328	13.306	13.348
ProbeTrack15	10	ProbeTrack	15.0	SCS215a	20120209.170824	20120209.171314	8	0.013328	60	10	60-180	60	80	GapExp	SmallFlash	0	48	2	0	0	distractor	1	393	804	405462	13.328	13.050	13.612
ProbeTrack15	10	ProbeTrack	15.0	SCS215a	20120209.170824	20120209.171319	8	0.013328	60	10	60-180	60	172	GapExp	SmallFlash	0	49	2	0	0	distractor	1	386	807	406269	13.328	12.936	13.732
ProbeTrack15	10	ProbeTrack	15.0	SCS215a	20120209.170824	20120209.171326	8	0.013328	60	10	60-180	60	134	GapExp	SmallFlash	0	50	2	3	0	distractor	1	449	776	407045	13.328	13.105	13.536
ProbeTrack15	10	ProbeTrack	15.0	SCS215a	20120209.170824	20120209.171332	8	0.013328	60	10	60-180	60	135	GapExp	SmallFlash	0	51	2	3	0	distractor	1	371	815	407860	13.328	13.095	13.552
ProbeTrack15	10	ProbeTrack	15.0	SCS215a	20120209.170824	20120209.171338	8	0.013328	60	10	60-180	60	74	GapExp	SmallFlash	0	52	2	3	0	target	0	490	-1000	406860	13.328	12.903	13.758
ProbeTrack15	10	ProbeTrack	15.0	SCS215a	20120209.170824	20120209.171343	8	0.013328	60	10	60-180	60	79	GapExp	SmallFlash	0	53	2	30	1	target	1	303	849	407709	13.328	13.056	13.594
ProbeTrack15	10	ProbeTrack	15.0	SCS215a	20120209.170824	20120209.171349	8	0.013328	60	10	60-180	60	66	GapExp	SmallFlash	0	54	2	3	0	distractor	1	392	804	408513	13.328	13.308	13.345
ProbeTrack15	10	ProbeTrack	15.0	SCS215a	20120209.170824	20120209.171354	8	0.013328	60	10	60-180	60	134	GapExp	SmallFlash	0	55	2	1	0	distractor	1	419	791	409304	13.328	13.093	13.576
ProbeTrack15	10	ProbeTrack	15.0	SCS215a	20120209.170824	20120209.171400	8	0.013328	60	10	60-180	60	86	GapExp	SmallFlash	0	56	2	1	1	target	1	294	853	410157	13.328	13.109	13.543
ProbeTrack15	10	ProbeTrack	15.0	SCS215a	20120209.170824	20120209.171405	8	0.013328	60	10	60-180	60	95	GapExp	SmallFlash	0	57	2	0	1	target	1	297	852	411009	13.328	13.312	13.344
ProbeTrack15	10	ProbeTrack	15.0	SCS215a	20120209.170824	20120209.171410	8	0.013328	60	10	60-180	60	70	GapExp	SmallFlash	0	58	2	3	0	distractor	1	354	823	411832	13.328	13.309	13.343
ProbeTrack15	10	ProbeTrack	15.0	SCS215a	20120209.170824	20120209.171415	8	0.013328	60	10	60-180	60	138	GapExp	SmallFlash	0	59	2	0	1	target	1	361	820	412652	13.328	13.304	13.352
ProbeTrack15	10	ProbeTrack	15.0	SCS215a	20120209.170824	20120209.171421	8	0.013328	60	10	60-180	60	75	GapExp	SmallFlash	0	60	2	3	0	distractor	1	425	788	413440	13.328	12.919	13.737
ProbeTrack15	10	ProbeTrack	15.0	SCS215a	20120209.170824	20120209.171426	8	0.013328	60	10	60-180	60	84	GapExp	SmallFlash	0	61	2	3	1	target	1	328	836	414276	13.328	13.105	13.546
ProbeTrack15	10	ProbeTrack	15.0	SCS215a	20120209.170824	20120209.171432	8	0.013328	60	10	60-180	60	94	GapExp	SmallFlash	0	62	2	1	1	target	1	328	836	415112	13.328	13.033	13.501
ProbeTrack15	10	ProbeTrack	15.0	SCS215a	20120209.170824	20120209.171437	8	0.013328	60	10	60-180	60	145	GapExp	SmallFlash	0	63	2	3	1	target	1	261	870	415982	13.328	13.308	13.345
ProbeTrack15	10	ProbeTrack	15.0	SCS215a	20120209.170824	20120209.171443	8	0.013328	60	10	60-180	60	85	GapExp	SmallFlash	0	64	2	0	0	distractor	1	359	821	416803	13.328	12.930	13.711
ProbeTrack15	10	ProbeTrack	15.0	SCS215a	20120209.170824	20120209.171448	8	0.013328	60	10	60-180	60	128	GapExp	SmallFlash	0	65	2	0	1	target	1	315	843	417646	13.328	13.092	13.545
ProbeTrack15	10	ProbeTrack	15.0	SCS215a	20120209.170824	20120209.171454	8	0.013328	60	10	60-180	60	104	GapExp	SmallFlash	0	66	2	3	0	distractor	1	320	840	418486	13.328	13.311	13.353
ProbeTrack15	10	ProbeTrack	15.0	SCS215a	20120209.170824	20120209.171459	8	0.013328	60	10	60-180	60	119	GapExp	SmallFlash	0	67	2	1	0	distractor	1	326	837	419323	13.328	13.281	13.391
ProbeTrack15	10	ProbeTrack	15.0	SCS215a	20120209.170824	20120209.171505	8	0.013328	60	10	60-180	60	120	GapExp	SmallFlash	0	68	2	1	1	target	1	249	876	420199	13.328	13.306	13.345
