exp	sub	code	rev	comp	runtime	trialtime	nstim	refreshdur	cuedur	gapdur	gapOnsetRange	durPostProbe	gapOnsetTime	blocktype	gaptype	prac	trial	ntargets	soa	probeTarget	resp	acc	rt	pts	tpts	meanFrameDur	minFrameDur	maxFrameDur
ProbeTrack15	4	ProbeTrack	15.0	SCS215a	20120202.162211	20120202.162236	8	0.013336	60	0	60-180	60	89	NoGap	None	1	1	2	30	0	distractor	1	690	655	655	13.382	8.669	17.988
ProbeTrack15	4	ProbeTrack	15.0	SCS215a	20120202.162211	20120202.162501	8	0.013336	60	0	60-180	60	157	NoGap	None	1	2	2	0	0	distractor	1	426	787	1442	13.328	13.304	13.354
ProbeTrack15	4	ProbeTrack	15.0	SCS215a	20120202.162211	20120202.162524	8	0.013336	60	0	60-180	60	172	NoGap	None	1	3	2	1	1	target	1	425	788	2230	13.328	13.309	13.348
ProbeTrack15	4	ProbeTrack	15.0	SCS215a	20120202.162211	20120202.162532	8	0.013336	60	0	60-180	60	79	NoGap	None	1	4	2	1	0	distractor	1	354	823	3053	13.328	13.305	13.348
ProbeTrack15	4	ProbeTrack	15.0	SCS215a	20120202.162211	20120202.162538	8	0.013336	60	0	60-180	60	164	NoGap	None	1	5	2	30	1	distractor	0	297	-1000	2053	13.328	13.092	13.558
ProbeTrack15	4	ProbeTrack	15.0	SCS215a	20120202.162211	20120202.162545	8	0.013336	60	0	60-180	60	104	NoGap	None	1	6	2	30	0	distractor	1	434	783	2836	13.328	13.268	13.389
ProbeTrack15	4	ProbeTrack	15.0	SCS215a	20120202.162211	20120202.162552	8	0.013336	60	0	60-180	60	96	NoGap	None	1	7	2	3	1	distractor	0	403	-1000	1836	13.328	13.312	13.347
ProbeTrack15	4	ProbeTrack	15.0	SCS215a	20120202.162211	20120202.162558	8	0.013336	60	0	60-180	60	158	NoGap	None	1	8	2	0	1	target	1	357	822	2658	13.328	9.156	17.500
ProbeTrack15	4	ProbeTrack	15.0	SCS215a	20120202.162211	20120202.162605	8	0.013336	60	0	60-180	60	126	NoGap	None	1	9	2	30	0	distractor	1	429	786	3444	13.328	13.101	13.558
ProbeTrack15	4	ProbeTrack	15.0	SCS215a	20120202.162211	20120202.162611	8	0.013336	60	0	60-180	60	76	NoGap	None	1	10	2	1	0	distractor	1	474	763	4207	13.328	12.234	14.407
ProbeTrack15	4	ProbeTrack	15.0	SCS215a	20120202.162211	20120202.162616	8	0.013336	60	0	60-180	60	145	NoGap	None	1	11	2	1	1	target	1	309	846	5053	13.328	13.304	13.345
ProbeTrack15	4	ProbeTrack	15.0	SCS215a	20120202.162211	20120202.162623	8	0.013336	60	0	60-180	60	177	NoGap	None	1	12	2	30	1	target	1	355	823	5876	13.328	12.586	14.077
ProbeTrack15	4	ProbeTrack	15.0	SCS215a	20120202.162211	20120202.162631	8	0.013336	60	0	60-180	60	160	NoGap	None	1	13	2	1	0	distractor	1	384	808	6684	13.328	9.672	16.978
ProbeTrack15	4	ProbeTrack	15.0	SCS215a	20120202.162211	20120202.162638	8	0.013336	60	0	60-180	60	144	NoGap	None	1	14	2	0	0	distractor	1	550	725	7409	13.328	13.100	13.551
ProbeTrack15	4	ProbeTrack	15.0	SCS215a	20120202.162211	20120202.162645	8	0.013336	60	0	60-180	60	84	NoGap	None	1	15	2	1	1	target	1	310	845	8254	13.328	7.517	19.155
ProbeTrack15	4	ProbeTrack	15.0	SCS215a	20120202.162211	20120202.162651	8	0.013336	60	0	60-180	60	96	NoGap	None	1	16	2	0	0	distractor	1	484	758	9012	13.328	8.027	18.624
ProbeTrack15	4	ProbeTrack	15.0	SCS215a	20120202.162211	20120202.162657	8	0.013336	60	0	60-180	60	131	NoGap	None	1	17	2	1	0	distractor	1	466	767	9779	13.328	11.079	15.563
ProbeTrack15	4	ProbeTrack	15.0	SCS215a	20120202.162211	20120202.162703	8	0.013336	60	0	60-180	60	117	NoGap	None	1	18	2	0	0	distractor	1	509	746	10525	13.385	9.882	26.422
ProbeTrack15	4	ProbeTrack	15.0	SCS215a	20120202.162211	20120202.162709	8	0.013336	60	0	60-180	60	105	NoGap	None	1	19	2	3	1	distractor	0	416	-1000	9525	13.328	13.309	13.343
ProbeTrack15	4	ProbeTrack	15.0	SCS215a	20120202.162211	20120202.162716	8	0.013336	60	0	60-180	60	145	NoGap	None	1	20	2	0	1	target	1	482	759	10284	13.328	12.885	13.785
ProbeTrack15	4	ProbeTrack	15.0	SCS215a	20120202.162211	20120202.162722	8	0.013336	60	0	60-180	60	179	NoGap	None	1	21	2	3	0	distractor	1	625	688	10972	13.328	9.713	17.094
ProbeTrack15	4	ProbeTrack	15.0	SCS215a	20120202.162211	20120202.162729	8	0.013336	60	0	60-180	60	145	NoGap	None	1	22	2	0	1	target	1	333	834	11806	13.328	13.309	13.352
ProbeTrack15	4	ProbeTrack	15.0	SCS215a	20120202.162211	20120202.162735	8	0.013336	60	0	60-180	60	155	NoGap	None	1	23	2	3	0	distractor	1	486	757	12563	13.328	13.102	13.553
ProbeTrack15	4	ProbeTrack	15.0	SCS215a	20120202.162211	20120202.162742	8	0.013336	60	0	60-180	60	155	NoGap	None	1	24	2	1	1	target	1	336	832	13395	13.328	9.167	17.489
ProbeTrack15	4	ProbeTrack	15.0	SCS215a	20120202.162211	20120202.162749	8	0.013336	60	0	60-180	60	120	NoGap	None	1	25	2	30	1	target	1	452	774	14169	13.379	13.083	22.894
ProbeTrack15	4	ProbeTrack	15.0	SCS215a	20120202.162211	20120202.162755	8	0.013336	60	0	60-180	60	142	NoGap	None	1	26	2	0	0	distractor	1	474	763	14932	13.328	12.632	14.024
ProbeTrack15	4	ProbeTrack	15.0	SCS215a	20120202.162211	20120202.162803	8	0.013336	60	0	60-180	60	136	NoGap	None	1	27	2	1	0	distractor	1	527	737	15669	13.328	13.154	13.418
ProbeTrack15	4	ProbeTrack	15.0	SCS215a	20120202.162211	20120202.162809	8	0.013336	60	0	60-180	60	149	NoGap	None	1	28	2	3	0	distractor	1	532	734	16403	13.428	13.254	35.726
ProbeTrack15	4	ProbeTrack	15.0	SCS215a	20120202.162211	20120202.162815	8	0.013336	60	0	60-180	60	61	NoGap	None	1	29	2	3	0	distractor	1	623	689	17092	13.328	9.156	17.499
ProbeTrack15	4	ProbeTrack	15.0	SCS215a	20120202.162211	20120202.162821	8	0.013336	60	0	60-180	60	76	NoGap	None	1	30	2	1	1	target	1	436	782	17874	13.328	13.011	13.647
ProbeTrack15	4	ProbeTrack	15.0	SCS215a	20120202.162211	20120202.162826	8	0.013336	60	0	60-180	60	103	NoGap	None	1	31	2	30	0	distractor	1	425	788	18662	13.328	13.085	13.552
ProbeTrack15	4	ProbeTrack	15.0	SCS215a	20120202.162211	20120202.162833	8	0.013336	60	0	60-180	60	143	NoGap	None	1	32	2	3	0	distractor	1	474	763	19425	13.328	13.008	13.651
ProbeTrack15	4	ProbeTrack	15.0	SCS215a	20120202.162211	20120202.162839	8	0.013336	60	0	60-180	60	116	NoGap	None	1	33	2	0	1	target	1	356	822	20247	13.328	13.104	13.557
ProbeTrack15	4	ProbeTrack	15.0	SCS215a	20120202.162211	20120202.162844	8	0.013336	60	0	60-180	60	146	NoGap	None	1	34	2	3	1	target	1	350	825	21072	13.328	13.091	13.557
ProbeTrack15	4	ProbeTrack	15.0	SCS215a	20120202.162211	20120202.162851	8	0.013336	60	0	60-180	60	139	NoGap	None	1	35	2	3	1	target	1	322	839	21911	13.328	12.098	14.579
ProbeTrack15	4	ProbeTrack	15.0	SCS215a	20120202.162211	20120202.162858	8	0.013336	60	0	60-180	60	166	NoGap	None	1	36	2	30	0	distractor	1	454	773	22684	13.328	7.771	18.882
ProbeTrack15	4	ProbeTrack	15.0	SCS215a	20120202.162211	20120202.162905	8	0.013336	60	0	60-180	60	129	NoGap	None	1	37	2	30	1	target	1	390	805	23489	13.328	9.042	17.690
ProbeTrack15	4	ProbeTrack	15.0	SCS215a	20120202.162211	20120202.162911	8	0.013336	60	0	60-180	60	117	NoGap	None	1	38	2	3	1	target	1	378	811	24300	13.328	13.308	13.343
ProbeTrack15	4	ProbeTrack	15.0	SCS215a	20120202.162211	20120202.162918	8	0.013336	60	0	60-180	60	143	NoGap	None	1	39	2	0	1	target	1	365	818	25118	13.328	11.279	15.391
ProbeTrack15	4	ProbeTrack	15.0	SCS215a	20120202.162211	20120202.162924	8	0.013336	60	0	60-180	60	107	NoGap	None	1	40	2	30	1	target	1	338	831	25949	13.328	9.296	17.358
ProbeTrack15	4	ProbeTrack	15.0	SCS215a	20120202.163024	20120202.163032	8	0.013328	60	10	60-180	60	97	GapPrac	Blank	1	1	2	0	1	target	1	415	793	26742	13.390	13.197	13.459
ProbeTrack15	4	ProbeTrack	15.0	SCS215a	20120202.163024	20120202.163043	8	0.013328	60	10	60-180	60	67	GapPrac	Blank	1	2	2	3	0	distractor	1	384	808	27550	13.328	13.143	13.510
ProbeTrack15	4	ProbeTrack	15.0	SCS215a	20120202.163024	20120202.163049	8	0.013328	60	10	60-180	60	153	GapPrac	Blank	1	3	2	1	1	target	1	327	837	28387	13.429	13.261	39.865
ProbeTrack15	4	ProbeTrack	15.0	SCS215a	20120202.163024	20120202.163055	8	0.013328	60	10	60-180	60	147	GapPrac	Blank	1	4	2	30	1	target	1	503	749	29136	13.372	13.099	26.667
ProbeTrack15	4	ProbeTrack	15.0	SCS215a	20120202.163024	20120202.163102	8	0.013328	60	10	60-180	60	177	GapPrac	Blank	1	5	2	1	1	target	1	400	800	29936	13.328	12.938	13.711
ProbeTrack15	4	ProbeTrack	15.0	SCS215a	20120202.163024	20120202.163109	8	0.013328	60	10	60-180	60	127	GapPrac	Blank	1	6	2	30	1	target	1	408	796	30732	13.328	12.875	13.786
ProbeTrack15	4	ProbeTrack	15.0	SCS215a	20120202.163024	20120202.163116	8	0.013328	60	10	60-180	60	125	GapPrac	Blank	1	7	2	0	1	target	1	532	734	31466	13.328	13.291	13.365
ProbeTrack15	4	ProbeTrack	15.0	SCS215a	20120202.163024	20120202.163123	8	0.013328	60	10	60-180	60	87	GapPrac	Blank	1	8	2	1	0	distractor	1	509	746	32212	13.328	13.285	13.378
ProbeTrack15	4	ProbeTrack	15.0	SCS215a	20120202.163024	20120202.163129	8	0.013328	60	10	60-180	60	121	GapPrac	Blank	1	9	2	0	1	target	1	449	776	32988	13.328	12.849	13.580
ProbeTrack15	4	ProbeTrack	15.0	SCS215a	20120202.163024	20120202.163135	8	0.013328	60	10	60-180	60	166	GapPrac	Blank	1	10	2	1	1	target	1	308	846	33834	13.328	13.099	13.537
ProbeTrack15	4	ProbeTrack	15.0	SCS215a	20120202.163024	20120202.163142	8	0.013328	60	10	60-180	60	63	GapPrac	Blank	1	11	2	30	0	distractor	1	659	671	34505	13.328	13.106	13.564
ProbeTrack15	4	ProbeTrack	15.0	SCS215a	20120202.163024	20120202.163148	8	0.013328	60	10	60-180	60	163	GapPrac	Blank	1	12	2	3	0	distractor	1	534	733	35238	13.328	13.101	13.555
ProbeTrack15	4	ProbeTrack	15.0	SCS215a	20120202.163024	20120202.163155	8	0.013328	60	10	60-180	60	115	GapPrac	Blank	1	13	2	30	1	distractor	0	717	-1000	34238	13.328	13.281	13.368
ProbeTrack15	4	ProbeTrack	15.0	SCS215a	20120202.163024	20120202.163202	8	0.013328	60	10	60-180	60	105	GapPrac	Blank	1	14	2	30	0	distractor	1	578	711	34949	13.328	13.111	13.544
ProbeTrack15	4	ProbeTrack	15.0	SCS215a	20120202.163024	20120202.163209	8	0.013328	60	10	60-180	60	110	GapPrac	Blank	1	15	2	1	0	distractor	1	563	719	35668	13.328	13.273	13.376
ProbeTrack15	4	ProbeTrack	15.0	SCS215a	20120202.163024	20120202.163217	8	0.013328	60	10	60-180	60	61	GapPrac	Blank	1	16	2	3	0	distractor	1	718	641	36309	13.328	12.881	13.619
ProbeTrack15	4	ProbeTrack	15.0	SCS215a	20120202.163024	20120202.163223	8	0.013328	60	10	60-180	60	163	GapPrac	Blank	1	17	2	3	1	target	1	482	759	37068	13.328	12.853	13.796
ProbeTrack15	4	ProbeTrack	15.0	SCS215a	20120202.163024	20120202.163231	8	0.013328	60	10	60-180	60	73	GapPrac	Blank	1	18	2	0	0	distractor	1	603	699	37767	13.328	13.225	13.523
ProbeTrack15	4	ProbeTrack	15.0	SCS215a	20120202.163024	20120202.163236	8	0.013328	60	10	60-180	60	106	GapPrac	Blank	1	19	2	0	0	distractor	1	694	653	38420	13.328	13.092	13.571
ProbeTrack15	4	ProbeTrack	15.0	SCS215a	20120202.163024	20120202.163242	8	0.013328	60	10	60-180	60	99	GapPrac	Blank	1	20	2	3	1	target	1	379	811	39231	13.328	13.308	13.354
ProbeTrack15	4	ProbeTrack	15.0	SCS215a	20120202.163338	20120202.163345	8	0.013320	60	10	60-180	60	84	GapExp	Blank	1	1	2	0	1	target	1	596	702	39933	13.390	13.100	13.557
ProbeTrack15	4	ProbeTrack	15.0	SCS215a	20120202.163338	20120202.163353	8	0.013320	60	10	60-180	60	97	GapExp	Blank	1	2	2	1	1	target	1	469	766	40699	13.328	10.498	16.165
ProbeTrack15	4	ProbeTrack	15.0	SCS215a	20120202.163338	20120202.163359	8	0.013320	60	10	60-180	60	127	GapExp	Blank	1	3	2	3	0	distractor	1	439	781	41480	13.328	13.100	13.541
ProbeTrack15	4	ProbeTrack	15.0	SCS215a	20120202.163338	20120202.163406	8	0.013320	60	10	60-180	60	176	GapExp	Blank	1	4	2	30	0	distractor	1	348	826	42306	13.328	13.309	13.348
ProbeTrack15	4	ProbeTrack	15.0	SCS215a	20120202.163338	20120202.163413	8	0.013320	60	10	60-180	60	83	GapExp	Blank	1	5	2	3	1	target	1	403	799	43105	13.328	13.218	13.439
ProbeTrack15	4	ProbeTrack	15.0	SCS215a	20120202.163338	20120202.163418	8	0.013320	60	10	60-180	60	61	GapExp	Blank	1	6	2	1	0	distractor	1	486	757	43862	13.328	13.311	13.345
ProbeTrack15	4	ProbeTrack	15.0	SCS215a	20120202.163338	20120202.163426	8	0.013320	60	10	60-180	60	155	GapExp	Blank	1	7	2	0	0	distractor	1	460	770	44632	13.328	13.308	13.348
ProbeTrack15	4	ProbeTrack	15.0	SCS215a	20120202.163338	20120202.163433	8	0.013320	60	10	60-180	60	61	GapExp	Blank	1	8	2	30	1	target	1	478	761	45393	13.328	13.011	13.644
ProbeTrack15	4	ProbeTrack	15.0	SCS215a	20120202.163338	20120202.163438	8	0.013320	60	10	60-180	60	121	GapExp	Blank	0	9	2	30	1	target	1	388	806	46199	13.328	13.300	13.347
ProbeTrack15	4	ProbeTrack	15.0	SCS215a	20120202.163338	20120202.163445	8	0.013320	60	10	60-180	60	62	GapExp	Blank	0	10	2	30	0	distractor	1	532	734	46933	13.328	13.307	13.347
ProbeTrack15	4	ProbeTrack	15.0	SCS215a	20120202.163338	20120202.163451	8	0.013320	60	10	60-180	60	170	GapExp	Blank	0	11	2	30	0	distractor	1	515	743	47676	13.328	13.118	13.545
ProbeTrack15	4	ProbeTrack	15.0	SCS215a	20120202.163338	20120202.163459	8	0.013320	60	10	60-180	60	135	GapExp	Blank	0	12	2	0	0	distractor	1	579	711	48387	13.328	13.111	13.541
ProbeTrack15	4	ProbeTrack	15.0	SCS215a	20120202.163338	20120202.163505	8	0.013320	60	10	60-180	60	165	GapExp	Blank	0	13	2	3	1	target	1	431	785	49172	13.328	13.113	13.542
ProbeTrack15	4	ProbeTrack	15.0	SCS215a	20120202.163338	20120202.163511	8	0.013320	60	10	60-180	60	145	GapExp	Blank	0	14	2	30	1	target	1	409	796	49968	13.328	13.100	13.556
ProbeTrack15	4	ProbeTrack	15.0	SCS215a	20120202.163338	20120202.163518	8	0.013320	60	10	60-180	60	129	GapExp	Blank	0	15	2	1	1	target	1	601	700	50668	13.328	13.300	13.361
ProbeTrack15	4	ProbeTrack	15.0	SCS215a	20120202.163338	20120202.163525	8	0.013320	60	10	60-180	60	106	GapExp	Blank	0	16	2	1	0	distractor	1	452	774	51442	13.328	13.091	13.558
ProbeTrack15	4	ProbeTrack	15.0	SCS215a	20120202.163338	20120202.163531	8	0.013320	60	10	60-180	60	126	GapExp	Blank	0	17	2	30	1	target	1	392	804	52246	13.328	13.104	13.545
ProbeTrack15	4	ProbeTrack	15.0	SCS215a	20120202.163338	20120202.163539	8	0.013320	60	10	60-180	60	150	GapExp	Blank	0	18	2	3	0	target	0	630	-1000	51246	13.328	13.106	13.550
ProbeTrack15	4	ProbeTrack	15.0	SCS215a	20120202.163338	20120202.163546	8	0.013320	60	10	60-180	60	99	GapExp	Blank	0	19	2	3	0	distractor	1	769	616	51862	13.328	13.070	13.585
ProbeTrack15	4	ProbeTrack	15.0	SCS215a	20120202.163338	20120202.163552	8	0.013320	60	10	60-180	60	179	GapExp	Blank	0	20	2	30	0	distractor	1	907	547	52409	13.328	13.092	13.557
ProbeTrack15	4	ProbeTrack	15.0	SCS215a	20120202.163338	20120202.163600	8	0.013320	60	10	60-180	60	79	GapExp	Blank	0	21	2	1	1	target	1	524	738	53147	13.328	13.307	13.347
ProbeTrack15	4	ProbeTrack	15.0	SCS215a	20120202.163338	20120202.163610	8	0.013320	60	10	60-180	60	134	GapExp	Blank	0	22	2	0	0	distractor	1	495	753	53900	13.328	9.083	17.559
ProbeTrack15	4	ProbeTrack	15.0	SCS215a	20120202.163338	20120202.163618	8	0.013320	60	10	60-180	60	167	GapExp	Blank	0	23	2	3	0	distractor	1	444	778	54678	13.328	11.448	15.200
ProbeTrack15	4	ProbeTrack	15.0	SCS215a	20120202.163338	20120202.163629	8	0.013320	60	10	60-180	60	157	GapExp	Blank	0	24	2	0	1	target	1	554	723	55401	13.328	13.300	13.360
ProbeTrack15	4	ProbeTrack	15.0	SCS215a	20120202.163338	20120202.163637	8	0.013320	60	10	60-180	60	85	GapExp	Blank	0	25	2	3	0	distractor	1	461	770	56171	13.328	5.405	21.250
ProbeTrack15	4	ProbeTrack	15.0	SCS215a	20120202.163338	20120202.163645	8	0.013320	60	10	60-180	60	72	GapExp	Blank	0	26	2	0	0	distractor	1	529	736	56907	13.328	13.311	13.346
ProbeTrack15	4	ProbeTrack	15.0	SCS215a	20120202.163338	20120202.163653	8	0.013320	60	10	60-180	60	145	GapExp	Blank	0	27	2	30	0	distractor	1	293	854	57761	13.328	13.308	13.348
ProbeTrack15	4	ProbeTrack	15.0	SCS215a	20120202.163338	20120202.163659	8	0.013320	60	10	60-180	60	145	GapExp	Blank	0	28	2	0	0	distractor	1	470	765	58526	13.328	13.098	13.565
ProbeTrack15	4	ProbeTrack	15.0	SCS215a	20120202.163338	20120202.163708	8	0.013320	60	10	60-180	60	160	GapExp	Blank	0	29	2	0	1	distractor	0	393	-1000	57526	13.328	13.091	13.558
ProbeTrack15	4	ProbeTrack	15.0	SCS215a	20120202.163338	20120202.163716	8	0.013320	60	10	60-180	60	89	GapExp	Blank	0	30	2	3	0	distractor	1	480	760	58286	13.328	10.711	15.960
ProbeTrack15	4	ProbeTrack	15.0	SCS215a	20120202.163338	20120202.163721	8	0.013320	60	10	60-180	60	92	GapExp	Blank	0	31	2	3	0	distractor	1	425	788	59074	13.328	11.765	14.897
ProbeTrack15	4	ProbeTrack	15.0	SCS215a	20120202.163338	20120202.163727	8	0.013320	60	10	60-180	60	148	GapExp	Blank	0	32	2	1	0	distractor	1	520	740	59814	13.328	11.201	15.443
ProbeTrack15	4	ProbeTrack	15.0	SCS215a	20120202.163338	20120202.163734	8	0.013320	60	10	60-180	60	130	GapExp	Blank	0	33	2	1	0	distractor	1	488	756	60570	13.328	13.305	13.345
ProbeTrack15	4	ProbeTrack	15.0	SCS215a	20120202.163338	20120202.163740	8	0.013320	60	10	60-180	60	117	GapExp	Blank	0	34	2	3	1	target	1	475	763	61333	13.328	13.119	13.543
ProbeTrack15	4	ProbeTrack	15.0	SCS215a	20120202.163338	20120202.163746	8	0.013320	60	10	60-180	60	167	GapExp	Blank	0	35	2	1	1	target	1	373	814	62147	13.375	9.219	23.369
ProbeTrack15	4	ProbeTrack	15.0	SCS215a	20120202.163338	20120202.163753	8	0.013320	60	10	60-180	60	69	GapExp	Blank	0	36	2	3	0	distractor	1	417	792	62939	13.328	13.084	13.557
ProbeTrack15	4	ProbeTrack	15.0	SCS215a	20120202.163338	20120202.163759	8	0.013320	60	10	60-180	60	133	GapExp	Blank	0	37	2	0	1	target	1	491	755	63694	13.328	13.099	13.557
ProbeTrack15	4	ProbeTrack	15.0	SCS215a	20120202.163338	20120202.163805	8	0.013320	60	10	60-180	60	83	GapExp	Blank	0	38	2	0	0	distractor	1	428	786	64480	13.328	13.098	13.551
ProbeTrack15	4	ProbeTrack	15.0	SCS215a	20120202.163338	20120202.163811	8	0.013320	60	10	60-180	60	75	GapExp	Blank	0	39	2	0	0	distractor	1	478	761	65241	13.328	13.308	13.351
ProbeTrack15	4	ProbeTrack	15.0	SCS215a	20120202.163338	20120202.163816	8	0.013320	60	10	60-180	60	150	GapExp	Blank	0	40	2	0	0	distractor	1	561	720	65961	13.328	13.310	13.347
ProbeTrack15	4	ProbeTrack	15.0	SCS215a	20120202.163338	20120202.163823	8	0.013320	60	10	60-180	60	74	GapExp	Blank	0	41	2	3	0	distractor	1	482	759	66720	13.328	13.309	13.351
ProbeTrack15	4	ProbeTrack	15.0	SCS215a	20120202.163338	20120202.163828	8	0.013320	60	10	60-180	60	103	GapExp	Blank	0	42	2	0	1	distractor	0	481	-1000	65720	13.328	13.107	13.555
ProbeTrack15	4	ProbeTrack	15.0	SCS215a	20120202.163338	20120202.163834	8	0.013320	60	10	60-180	60	178	GapExp	Blank	0	43	2	0	1	target	1	370	815	66535	13.328	7.499	19.144
ProbeTrack15	4	ProbeTrack	15.0	SCS215a	20120202.163338	20120202.163843	8	0.013320	60	10	60-180	60	62	GapExp	Blank	0	44	2	3	0	distractor	1	426	787	67322	13.328	13.309	13.345
ProbeTrack15	4	ProbeTrack	15.0	SCS215a	20120202.163338	20120202.163849	8	0.013320	60	10	60-180	60	100	GapExp	Blank	0	45	2	1	0	distractor	1	423	789	68111	13.328	13.104	13.552
ProbeTrack15	4	ProbeTrack	15.0	SCS215a	20120202.163338	20120202.163855	8	0.013320	60	10	60-180	60	161	GapExp	Blank	0	46	2	30	1	distractor	0	453	-1000	67111	13.328	12.815	13.820
ProbeTrack15	4	ProbeTrack	15.0	SCS215a	20120202.163338	20120202.163902	8	0.013320	60	10	60-180	60	97	GapExp	Blank	0	47	2	3	1	target	1	410	795	67906	13.328	11.749	14.915
ProbeTrack15	4	ProbeTrack	15.0	SCS215a	20120202.163338	20120202.163911	8	0.013320	60	10	60-180	60	175	GapExp	Blank	0	48	2	3	0	distractor	1	465	768	68674	13.328	13.296	13.371
ProbeTrack15	4	ProbeTrack	15.0	SCS215a	20120202.163338	20120202.163919	8	0.013320	60	10	60-180	60	156	GapExp	Blank	0	49	2	1	1	distractor	0	422	-1000	67674	13.328	13.281	13.386
ProbeTrack15	4	ProbeTrack	15.0	SCS215a	20120202.163338	20120202.163926	8	0.013320	60	10	60-180	60	129	GapExp	Blank	0	50	2	30	1	target	1	352	824	68498	13.328	13.310	13.345
ProbeTrack15	4	ProbeTrack	15.0	SCS215a	20120202.163338	20120202.163933	8	0.013320	60	10	60-180	60	86	GapExp	Blank	0	51	2	1	0	target	0	496	-1000	67498	13.328	13.297	13.355
ProbeTrack15	4	ProbeTrack	15.0	SCS215a	20120202.163338	20120202.163939	8	0.013320	60	10	60-180	60	69	GapExp	Blank	0	52	2	0	1	target	1	366	817	68315	13.328	13.303	13.343
ProbeTrack15	4	ProbeTrack	15.0	SCS215a	20120202.163338	20120202.163949	8	0.013320	60	10	60-180	60	171	GapExp	Blank	0	53	2	1	1	target	1	471	765	69080	13.328	9.817	16.843
ProbeTrack15	4	ProbeTrack	15.0	SCS215a	20120202.163338	20120202.163957	8	0.013320	60	10	60-180	60	137	GapExp	Blank	0	54	2	3	1	target	1	261	870	69950	13.328	4.467	22.191
ProbeTrack15	4	ProbeTrack	15.0	SCS215a	20120202.163338	20120202.164003	8	0.013320	60	10	60-180	60	141	GapExp	Blank	0	55	2	1	1	target	1	305	848	70798	13.328	13.303	13.348
ProbeTrack15	4	ProbeTrack	15.0	SCS215a	20120202.163338	20120202.164009	8	0.013320	60	10	60-180	60	136	GapExp	Blank	0	56	2	0	0	distractor	1	543	729	71527	13.328	9.279	17.379
ProbeTrack15	4	ProbeTrack	15.0	SCS215a	20120202.163338	20120202.164015	8	0.013320	60	10	60-180	60	140	GapExp	Blank	0	57	2	1	1	target	1	356	822	72349	13.328	13.078	13.586
ProbeTrack15	4	ProbeTrack	15.0	SCS215a	20120202.163338	20120202.164023	8	0.013320	60	10	60-180	60	138	GapExp	Blank	0	58	2	0	0	distractor	1	446	777	73126	13.328	13.307	13.349
ProbeTrack15	4	ProbeTrack	15.0	SCS215a	20120202.163338	20120202.164030	8	0.013320	60	10	60-180	60	132	GapExp	Blank	0	59	2	30	1	distractor	0	442	-1000	72126	13.328	13.271	13.380
ProbeTrack15	4	ProbeTrack	15.0	SCS215a	20120202.163338	20120202.164037	8	0.013320	60	10	60-180	60	153	GapExp	Blank	0	60	2	3	1	target	1	339	831	72957	13.328	13.308	13.345
ProbeTrack15	4	ProbeTrack	15.0	SCS215a	20120202.163338	20120202.164043	8	0.013320	60	10	60-180	60	156	GapExp	Blank	0	61	2	30	1	target	1	450	775	73732	13.328	12.841	13.813
ProbeTrack15	4	ProbeTrack	15.0	SCS215a	20120202.163338	20120202.164050	8	0.013320	60	10	60-180	60	158	GapExp	Blank	0	62	2	1	0	distractor	1	719	641	74373	13.328	13.292	13.364
ProbeTrack15	4	ProbeTrack	15.0	SCS215a	20120202.163338	20120202.164057	8	0.013320	60	10	60-180	60	91	GapExp	Blank	0	63	2	1	1	target	1	340	830	75203	13.328	13.313	13.348
ProbeTrack15	4	ProbeTrack	15.0	SCS215a	20120202.163338	20120202.164103	8	0.013320	60	10	60-180	60	172	GapExp	Blank	0	64	2	3	1	target	1	297	852	76055	13.328	13.307	13.346
ProbeTrack15	4	ProbeTrack	15.0	SCS215a	20120202.163338	20120202.164109	8	0.013320	60	10	60-180	60	69	GapExp	Blank	0	65	2	3	1	target	1	339	831	76886	13.328	13.307	13.349
ProbeTrack15	4	ProbeTrack	15.0	SCS215a	20120202.163338	20120202.164116	8	0.013320	60	10	60-180	60	122	GapExp	Blank	0	66	2	30	1	target	1	422	789	77675	13.426	10.261	43.048
ProbeTrack15	4	ProbeTrack	15.0	SCS215a	20120202.163338	20120202.164123	8	0.013320	60	10	60-180	60	166	GapExp	Blank	0	67	2	30	0	distractor	1	454	773	78448	13.328	13.307	13.359
ProbeTrack15	4	ProbeTrack	15.0	SCS215a	20120202.163338	20120202.164130	8	0.013320	60	10	60-180	60	158	GapExp	Blank	0	68	2	1	1	target	1	353	824	79272	13.328	13.098	13.558
ProbeTrack15	4	ProbeTrack	15.0	SCS215a	20120202.163338	20120202.164137	8	0.013320	60	10	60-180	60	173	GapExp	Blank	0	69	2	30	1	target	1	414	793	80065	13.328	13.106	13.551
ProbeTrack15	4	ProbeTrack	15.0	SCS215a	20120202.163338	20120202.164144	8	0.013320	60	10	60-180	60	112	GapExp	Blank	0	70	2	1	1	target	1	543	729	80794	13.328	11.285	15.365
ProbeTrack15	4	ProbeTrack	15.0	SCS215a	20120202.163338	20120202.164150	8	0.013320	60	10	60-180	60	174	GapExp	Blank	0	71	2	30	0	target	0	413	-1000	79794	13.328	13.097	13.551
ProbeTrack15	4	ProbeTrack	15.0	SCS215a	20120202.163338	20120202.164157	8	0.013320	60	10	60-180	60	127	GapExp	Blank	0	72	2	30	1	target	1	1032	484	80278	13.328	13.308	13.344
ProbeTrack15	4	ProbeTrack	15.0	SCS215a	20120202.163338	20120202.164205	8	0.013320	60	10	60-180	60	164	GapExp	Blank	0	73	2	0	0	distractor	1	543	729	81007	13.328	13.308	13.347
ProbeTrack15	4	ProbeTrack	15.0	SCS215a	20120202.163338	20120202.164214	8	0.013320	60	10	60-180	60	76	GapExp	Blank	0	74	2	0	1	target	1	354	823	81830	13.328	13.300	13.347
ProbeTrack15	4	ProbeTrack	15.0	SCS215a	20120202.163338	20120202.164220	8	0.013320	60	10	60-180	60	65	GapExp	Blank	0	75	2	30	1	target	1	442	779	82609	13.328	13.091	13.561
ProbeTrack15	4	ProbeTrack	15.0	SCS215a	20120202.163338	20120202.164225	8	0.013320	60	10	60-180	60	88	GapExp	Blank	0	76	2	1	0	distractor	1	531	735	83344	13.390	13.116	21.441
ProbeTrack15	4	ProbeTrack	15.0	SCS215a	20120202.163338	20120202.164231	8	0.013320	60	10	60-180	60	109	GapExp	Blank	0	77	2	30	0	distractor	1	492	754	84098	13.328	11.047	15.607
ProbeTrack15	4	ProbeTrack	15.0	SCS215a	20120202.163338	20120202.164240	8	0.013320	60	10	60-180	60	76	GapExp	Blank	0	78	2	30	1	distractor	0	432	-1000	83098	13.328	13.093	13.557
ProbeTrack15	4	ProbeTrack	15.0	SCS215a	20120202.163338	20120202.164246	8	0.013320	60	10	60-180	60	61	GapExp	Blank	0	79	2	0	1	target	1	322	839	83937	13.328	13.105	13.557
ProbeTrack15	4	ProbeTrack	15.0	SCS215a	20120202.163338	20120202.164251	8	0.013320	60	10	60-180	60	126	GapExp	Blank	0	80	2	1	1	target	1	366	817	84754	13.328	13.298	13.357
ProbeTrack15	4	ProbeTrack	15.0	SCS215a	20120202.163338	20120202.164257	8	0.013320	60	10	60-180	60	74	GapExp	Blank	0	81	2	0	1	target	1	355	823	85577	13.328	13.310	13.358
ProbeTrack15	4	ProbeTrack	15.0	SCS215a	20120202.163338	20120202.164303	8	0.013320	60	10	60-180	60	82	GapExp	Blank	0	82	2	0	1	distractor	0	446	-1000	84577	13.328	13.305	13.351
ProbeTrack15	4	ProbeTrack	15.0	SCS215a	20120202.163338	20120202.164308	8	0.013320	60	10	60-180	60	127	GapExp	Blank	0	83	2	0	1	target	1	294	853	85430	13.328	13.105	13.557
ProbeTrack15	4	ProbeTrack	15.0	SCS215a	20120202.163338	20120202.164314	8	0.013320	60	10	60-180	60	155	GapExp	Blank	0	84	2	0	0	distractor	1	441	780	86210	13.376	13.066	26.327
ProbeTrack15	4	ProbeTrack	15.0	SCS215a	20120202.163338	20120202.164321	8	0.013320	60	10	60-180	60	105	GapExp	Blank	0	85	2	3	1	target	1	350	825	87035	13.328	13.112	13.557
ProbeTrack15	4	ProbeTrack	15.0	SCS215a	20120202.163338	20120202.164327	8	0.013320	60	10	60-180	60	74	GapExp	Blank	0	86	2	3	1	target	1	270	865	87900	13.328	12.815	13.842
ProbeTrack15	4	ProbeTrack	15.0	SCS215a	20120202.163338	20120202.164332	8	0.013320	60	10	60-180	60	128	GapExp	Blank	0	87	2	30	1	distractor	0	278	-1000	86900	13.328	10.881	15.763
ProbeTrack15	4	ProbeTrack	15.0	SCS215a	20120202.163338	20120202.164338	8	0.013320	60	10	60-180	60	88	GapExp	Blank	0	88	2	3	1	target	1	251	875	87775	13.328	13.307	13.348
ProbeTrack15	4	ProbeTrack	15.0	SCS215a	20120202.163338	20120202.164344	8	0.013320	60	10	60-180	60	87	GapExp	Blank	0	89	2	30	1	target	1	328	836	88611	13.328	6.109	20.536
ProbeTrack15	4	ProbeTrack	15.0	SCS215a	20120202.163338	20120202.164350	8	0.013320	60	10	60-180	60	164	GapExp	Blank	0	90	2	0	0	distractor	1	517	742	89353	13.328	11.952	14.725
ProbeTrack15	4	ProbeTrack	15.0	SCS215a	20120202.163338	20120202.164357	8	0.013320	60	10	60-180	60	174	GapExp	Blank	0	91	2	1	0	distractor	1	502	749	90102	13.328	11.073	15.594
ProbeTrack15	4	ProbeTrack	15.0	SCS215a	20120202.163338	20120202.164404	8	0.013320	60	10	60-180	60	97	GapExp	Blank	0	92	2	1	0	distractor	1	430	785	90887	13.328	13.104	13.559
ProbeTrack15	4	ProbeTrack	15.0	SCS215a	20120202.163338	20120202.164410	8	0.013320	60	10	60-180	60	175	GapExp	Blank	0	93	2	0	1	target	1	409	796	91683	13.328	13.303	13.355
ProbeTrack15	4	ProbeTrack	15.0	SCS215a	20120202.163338	20120202.164417	8	0.013320	60	10	60-180	60	68	GapExp	Blank	0	94	2	0	1	target	1	367	817	92500	13.328	13.085	13.563
ProbeTrack15	4	ProbeTrack	15.0	SCS215a	20120202.163338	20120202.164422	8	0.013320	60	10	60-180	60	96	GapExp	Blank	0	95	2	1	0	distractor	1	419	791	93291	13.328	13.295	13.349
ProbeTrack15	4	ProbeTrack	15.0	SCS215a	20120202.163338	20120202.164428	8	0.013320	60	10	60-180	60	177	GapExp	Blank	0	96	2	30	0	target	0	541	-1000	92291	13.327	7.230	19.450
ProbeTrack15	4	ProbeTrack	15.0	SCS215a	20120202.163338	20120202.164436	8	0.013320	60	10	60-180	60	137	GapExp	Blank	0	97	2	30	0	distractor	1	493	754	93045	13.328	6.081	20.571
ProbeTrack15	4	ProbeTrack	15.0	SCS215a	20120202.163338	20120202.164442	8	0.013320	60	10	60-180	60	121	GapExp	Blank	0	98	2	30	1	target	1	405	798	93843	13.328	8.601	18.061
ProbeTrack15	4	ProbeTrack	15.0	SCS215a	20120202.163338	20120202.164449	8	0.013320	60	10	60-180	60	61	GapExp	Blank	0	99	2	3	1	target	1	454	773	94616	13.328	7.320	19.336
ProbeTrack15	4	ProbeTrack	15.0	SCS215a	20120202.163338	20120202.164454	8	0.013320	60	10	60-180	60	98	GapExp	Blank	0	100	2	1	0	target	0	466	-1000	93616	13.328	10.139	16.525
ProbeTrack15	4	ProbeTrack	15.0	SCS215a	20120202.163338	20120202.164501	8	0.013320	60	10	60-180	60	175	GapExp	Blank	0	101	2	30	0	distractor	1	366	817	94433	13.328	12.189	14.480
ProbeTrack15	4	ProbeTrack	15.0	SCS215a	20120202.163338	20120202.164509	8	0.013320	60	10	60-180	60	116	GapExp	Blank	0	102	2	0	0	distractor	1	523	739	95172	13.437	7.337	26.671
ProbeTrack15	4	ProbeTrack	15.0	SCS215a	20120202.163338	20120202.164515	8	0.013320	60	10	60-180	60	111	GapExp	Blank	0	103	2	3	0	target	0	471	-1000	94172	13.328	13.082	13.579
ProbeTrack15	4	ProbeTrack	15.0	SCS215a	20120202.163338	20120202.164522	8	0.013320	60	10	60-180	60	72	GapExp	Blank	0	104	2	0	0	distractor	1	492	754	94926	13.328	11.606	15.053
ProbeTrack15	4	ProbeTrack	15.0	SCS215a	20120202.163338	20120202.164527	8	0.013320	60	10	60-180	60	164	GapExp	Blank	0	105	2	1	1	distractor	0	417	-1000	93926	13.328	10.064	16.589
ProbeTrack15	4	ProbeTrack	15.0	SCS215a	20120202.163338	20120202.164534	8	0.013320	60	10	60-180	60	76	GapExp	Blank	0	106	2	0	1	target	1	365	818	94744	13.328	10.652	16.030
ProbeTrack15	4	ProbeTrack	15.0	SCS215a	20120202.163338	20120202.164540	8	0.013320	60	10	60-180	60	176	GapExp	Blank	0	107	2	30	1	distractor	0	298	-1000	93744	13.328	9.284	17.559
ProbeTrack15	4	ProbeTrack	15.0	SCS215a	20120202.163338	20120202.164547	8	0.013320	60	10	60-180	60	136	GapExp	Blank	0	108	2	1	1	target	1	305	848	94592	13.328	6.717	19.941
ProbeTrack15	4	ProbeTrack	15.0	SCS215a	20120202.163338	20120202.164554	8	0.013320	60	10	60-180	60	82	GapExp	Blank	0	109	2	3	1	target	1	280	860	95452	13.328	8.226	18.434
ProbeTrack15	4	ProbeTrack	15.0	SCS215a	20120202.163338	20120202.164559	8	0.013320	60	10	60-180	60	156	GapExp	Blank	0	110	2	1	1	target	1	247	877	96329	13.328	8.311	18.347
ProbeTrack15	4	ProbeTrack	15.0	SCS215a	20120202.163338	20120202.164606	8	0.013320	60	10	60-180	60	119	GapExp	Blank	0	111	2	1	0	distractor	1	402	799	97128	13.384	11.376	24.299
ProbeTrack15	4	ProbeTrack	15.0	SCS215a	20120202.163338	20120202.164612	8	0.013320	60	10	60-180	60	180	GapExp	Blank	0	112	2	3	1	target	1	317	842	97970	13.373	11.139	28.958
ProbeTrack15	4	ProbeTrack	15.0	SCS215a	20120202.163338	20120202.164619	8	0.013320	60	10	60-180	60	149	GapExp	Blank	0	113	2	30	0	distractor	1	401	800	98770	13.419	8.340	23.825
ProbeTrack15	4	ProbeTrack	15.0	SCS215a	20120202.163338	20120202.164627	8	0.013320	60	10	60-180	60	176	GapExp	Blank	0	114	2	0	1	target	1	301	850	99620	13.328	12.888	13.788
ProbeTrack15	4	ProbeTrack	15.0	SCS215a	20120202.163338	20120202.164634	8	0.013320	60	10	60-180	60	118	GapExp	Blank	0	115	2	30	1	target	1	295	853	100473	13.327	13.158	13.503
ProbeTrack15	4	ProbeTrack	15.0	SCS215a	20120202.163338	20120202.164640	8	0.013320	60	10	60-180	60	164	GapExp	Blank	0	116	2	0	0	distractor	1	567	717	101190	13.328	6.145	20.512
ProbeTrack15	4	ProbeTrack	15.0	SCS215a	20120202.163338	20120202.164647	8	0.013320	60	10	60-180	60	119	GapExp	Blank	0	117	2	0	0	distractor	1	439	781	101971	13.328	7.506	19.158
ProbeTrack15	4	ProbeTrack	15.0	SCS215a	20120202.163338	20120202.164653	8	0.013320	60	10	60-180	60	122	GapExp	Blank	0	118	2	3	0	target	0	325	-1000	100971	13.328	8.240	18.426
ProbeTrack15	4	ProbeTrack	15.0	SCS215a	20120202.163338	20120202.164659	8	0.013320	60	10	60-180	60	138	GapExp	Blank	0	119	2	0	0	distractor	1	481	760	101731	13.328	7.604	19.055
ProbeTrack15	4	ProbeTrack	15.0	SCS215a	20120202.163338	20120202.164705	8	0.013320	60	10	60-180	60	166	GapExp	Blank	0	120	2	30	1	target	1	339	831	102562	13.328	8.728	17.938
ProbeTrack15	4	ProbeTrack	15.0	SCS215a	20120202.163338	20120202.164712	8	0.013320	60	10	60-180	60	62	GapExp	Blank	0	121	2	3	1	early	-4	-2727	-1000	101562	13.328	10.331	16.340
ProbeTrack15	4	ProbeTrack	15.0	SCS215a	20120202.163338	20120202.164719	8	0.013320	60	10	60-180	60	101	GapExp	Blank	0	122	2	1	0	target	0	338	-1000	100562	13.328	8.183	18.487
ProbeTrack15	4	ProbeTrack	15.0	SCS215a	20120202.163338	20120202.164725	8	0.013320	60	10	60-180	60	121	GapExp	Blank	0	123	2	0	0	distractor	1	516	742	101304	13.328	12.689	13.977
ProbeTrack15	4	ProbeTrack	15.0	SCS215a	20120202.163338	20120202.164731	8	0.013320	60	10	60-180	60	129	GapExp	Blank	0	124	2	3	0	distractor	1	427	787	102091	13.328	5.763	20.882
ProbeTrack15	4	ProbeTrack	15.0	SCS215a	20120202.163338	20120202.164737	8	0.013320	60	10	60-180	60	145	GapExp	Blank	0	125	2	30	0	distractor	1	483	759	102850	13.328	4.645	22.010
ProbeTrack15	4	ProbeTrack	15.0	SCS215a	20120202.163338	20120202.164744	8	0.013320	60	10	60-180	60	96	GapExp	Blank	0	126	2	1	1	target	1	390	805	103655	13.326	5.291	21.368
ProbeTrack15	4	ProbeTrack	15.0	SCS215a	20120202.163338	20120202.164750	8	0.013320	60	10	60-180	60	67	GapExp	Blank	0	127	2	3	0	distractor	1	417	792	104447	13.328	7.462	19.199
ProbeTrack15	4	ProbeTrack	15.0	SCS215a	20120202.163338	20120202.164755	8	0.013320	60	10	60-180	60	120	GapExp	Blank	0	128	2	3	0	distractor	1	436	782	105229	13.328	6.775	19.883
ProbeTrack15	4	ProbeTrack	15.0	SCS215a	20120202.163338	20120202.164801	8	0.013320	60	10	60-180	60	97	GapExp	Blank	0	129	2	1	0	distractor	1	435	783	106012	13.328	7.295	19.347
ProbeTrack15	4	ProbeTrack	15.0	SCS215a	20120202.163338	20120202.164806	8	0.013320	60	10	60-180	60	94	GapExp	Blank	0	130	2	0	1	distractor	0	366	-1000	105012	13.328	11.371	15.294
ProbeTrack15	4	ProbeTrack	15.0	SCS215a	20120202.163338	20120202.164812	8	0.013320	60	10	60-180	60	149	GapExp	Blank	0	131	2	30	1	distractor	0	324	-1000	104012	13.328	6.160	20.499
ProbeTrack15	4	ProbeTrack	15.0	SCS215a	20120202.163338	20120202.164819	8	0.013320	60	10	60-180	60	130	GapExp	Blank	0	132	2	30	0	distractor	1	541	730	104742	13.328	3.406	23.276
ProbeTrack15	4	ProbeTrack	15.0	SCS215a	20120202.163338	20120202.164826	8	0.013320	60	10	60-180	60	124	GapExp	Blank	0	133	2	3	1	target	1	306	847	105589	13.328	8.129	18.527
ProbeTrack15	4	ProbeTrack	15.0	SCS215a	20120202.163338	20120202.164832	8	0.013320	60	10	60-180	60	133	GapExp	Blank	0	134	2	0	1	target	1	262	869	106458	13.328	12.206	14.454
ProbeTrack15	4	ProbeTrack	15.0	SCS215a	20120202.163338	20120202.164838	8	0.013320	60	10	60-180	60	178	GapExp	Blank	0	135	2	1	0	distractor	1	456	772	107230	13.328	8.932	17.732
ProbeTrack15	4	ProbeTrack	15.0	SCS215a	20120202.163338	20120202.164844	8	0.013320	60	10	60-180	60	160	GapExp	Blank	0	136	2	3	0	distractor	1	366	817	108047	13.328	6.620	20.036
ProbeTrack15	4	ProbeTrack	15.0	SCS215a	20120202.163338	20120202.164855	8	0.013320	60	10	60-180	60	91	GapExp	Blank	0	137	2	3	0	distractor	1	440	780	108827	13.328	7.832	18.828
ProbeTrack15	4	ProbeTrack	15.0	SCS215a	20120202.163338	20120202.164901	8	0.013320	60	10	60-180	60	100	GapExp	Blank	0	138	2	1	1	target	1	312	844	109671	13.328	13.110	13.547
ProbeTrack15	4	ProbeTrack	15.0	SCS215a	20120202.163338	20120202.164907	8	0.013320	60	10	60-180	60	97	GapExp	Blank	0	139	2	1	1	target	1	318	841	110512	13.328	13.077	13.583
ProbeTrack15	4	ProbeTrack	15.0	SCS215a	20120202.163338	20120202.164912	8	0.013320	60	10	60-180	60	125	GapExp	Blank	0	140	2	1	1	target	1	297	852	111364	13.328	7.492	19.168
ProbeTrack15	4	ProbeTrack	15.0	SCS215a	20120202.163338	20120202.164918	8	0.013320	60	10	60-180	60	172	GapExp	Blank	0	141	2	1	0	distractor	1	467	767	112131	13.328	9.403	17.264
ProbeTrack15	4	ProbeTrack	15.0	SCS215a	20120202.163338	20120202.164924	8	0.013320	60	10	60-180	60	174	GapExp	Blank	0	142	2	3	0	distractor	1	320	840	112971	13.328	7.254	19.409
ProbeTrack15	4	ProbeTrack	15.0	SCS215a	20120202.163338	20120202.164931	8	0.013320	60	10	60-180	60	167	GapExp	Blank	0	143	2	30	0	target	0	414	-1000	111971	13.328	9.802	16.861
ProbeTrack15	4	ProbeTrack	15.0	SCS215a	20120202.163338	20120202.164939	8	0.013320	60	10	60-180	60	103	GapExp	Blank	0	144	2	0	1	distractor	0	446	-1000	110971	13.328	13.110	13.543
ProbeTrack15	4	ProbeTrack	15.0	SCS215a	20120202.163338	20120202.164944	8	0.013320	60	10	60-180	60	137	GapExp	Blank	0	145	2	0	0	distractor	1	414	793	111764	13.328	9.870	16.787
ProbeTrack15	4	ProbeTrack	15.0	SCS215a	20120202.163338	20120202.164950	8	0.013320	60	10	60-180	60	164	GapExp	Blank	0	146	2	30	1	target	1	387	807	112571	13.328	8.333	18.328
ProbeTrack15	4	ProbeTrack	15.0	SCS215a	20120202.163338	20120202.164957	8	0.013320	60	10	60-180	60	167	GapExp	Blank	0	147	2	30	0	distractor	1	525	738	113309	13.328	12.497	14.161
ProbeTrack15	4	ProbeTrack	15.0	SCS215a	20120202.163338	20120202.165004	8	0.013320	60	10	60-180	60	86	GapExp	Blank	0	148	2	30	0	distractor	1	597	702	114011	13.382	10.863	26.655
ProbeTrack15	4	ProbeTrack	15.0	SCS215a	20120202.163338	20120202.165010	8	0.013320	60	10	60-180	60	92	GapExp	Blank	0	149	2	3	1	target	1	406	797	114808	13.328	4.596	22.064
ProbeTrack15	4	ProbeTrack	15.0	SCS215a	20120202.163338	20120202.165016	8	0.013320	60	10	60-180	60	89	GapExp	Blank	0	150	2	0	0	target	0	315	-1000	113808	13.328	6.967	19.694
ProbeTrack15	4	ProbeTrack	15.0	SCS215a	20120202.163338	20120202.165023	8	0.013320	60	10	60-180	60	106	GapExp	Blank	0	151	2	0	1	target	1	470	765	114573	13.328	13.301	13.354
ProbeTrack15	4	ProbeTrack	15.0	SCS215a	20120202.163338	20120202.165030	8	0.013320	60	10	60-180	60	145	GapExp	Blank	0	152	2	1	0	distractor	1	387	807	115380	13.328	10.668	15.994
ProbeTrack15	4	ProbeTrack	15.0	SCS215a	20120202.163338	20120202.165038	8	0.013320	60	10	60-180	60	156	GapExp	Blank	0	153	2	30	1	distractor	0	550	-1000	114380	13.328	8.736	16.505
ProbeTrack15	4	ProbeTrack	15.0	SCS215a	20120202.163338	20120202.165044	8	0.013320	60	10	60-180	60	130	GapExp	Blank	0	154	2	1	1	target	1	377	812	115192	13.328	8.523	18.131
ProbeTrack15	4	ProbeTrack	15.0	SCS215a	20120202.163338	20120202.165050	8	0.013320	60	10	60-180	60	73	GapExp	Blank	0	155	2	3	1	target	1	404	798	115990	13.328	12.871	13.761
ProbeTrack15	4	ProbeTrack	15.0	SCS215a	20120202.163338	20120202.165056	8	0.013320	60	10	60-180	60	104	GapExp	Blank	0	156	2	0	0	distractor	1	466	767	116757	13.328	8.414	18.251
ProbeTrack15	4	ProbeTrack	15.0	SCS215a	20120202.163338	20120202.165101	8	0.013320	60	10	60-180	60	85	GapExp	Blank	0	157	2	30	0	distractor	1	495	753	117510	13.328	8.881	17.796
ProbeTrack15	4	ProbeTrack	15.0	SCS215a	20120202.163338	20120202.165107	8	0.013320	60	10	60-180	60	98	GapExp	Blank	0	158	2	0	1	target	1	357	822	118332	13.328	13.231	13.432
ProbeTrack15	4	ProbeTrack	15.0	SCS215a	20120202.163338	20120202.165113	8	0.013320	60	10	60-180	60	172	GapExp	Blank	0	159	2	30	0	distractor	1	630	685	119017	13.312	8.125	15.685
ProbeTrack15	4	ProbeTrack	15.0	SCS215a	20120202.163338	20120202.165120	8	0.013320	60	10	60-180	60	119	GapExp	Blank	0	160	2	30	1	target	1	340	830	119847	13.328	7.476	19.181
ProbeTrack15	4	ProbeTrack	15.0	SCS215a	20120202.163338	20120202.165127	8	0.013320	60	10	60-180	60	61	GapExp	Blank	0	161	2	3	1	target	1	488	756	120603	13.328	11.286	15.379
ProbeTrack15	4	ProbeTrack	15.0	SCS215a	20120202.163338	20120202.165132	8	0.013320	60	10	60-180	60	117	GapExp	Blank	0	162	2	0	1	distractor	0	364	-1000	119603	13.328	7.680	18.984
ProbeTrack15	4	ProbeTrack	15.0	SCS215a	20120202.163338	20120202.165138	8	0.013320	60	10	60-180	60	100	GapExp	Blank	0	163	2	30	0	distractor	1	553	724	120327	13.328	7.252	19.406
ProbeTrack15	4	ProbeTrack	15.0	SCS215a	20120202.163338	20120202.165144	8	0.013320	60	10	60-180	60	142	GapExp	Blank	0	164	2	1	1	target	1	309	846	121173	13.328	6.800	19.865
ProbeTrack15	4	ProbeTrack	15.0	SCS215a	20120202.163338	20120202.165151	8	0.013320	60	10	60-180	60	149	GapExp	Blank	0	165	2	0	0	distractor	1	401	800	121973	13.328	6.600	20.056
ProbeTrack15	4	ProbeTrack	15.0	SCS215a	20120202.163338	20120202.165157	8	0.013320	60	10	60-180	60	163	GapExp	Blank	0	166	2	0	0	distractor	1	493	754	122727	13.328	4.319	22.344
ProbeTrack15	4	ProbeTrack	15.0	SCS215a	20120202.163338	20120202.165203	8	0.013320	60	10	60-180	60	159	GapExp	Blank	0	167	2	30	1	target	1	341	830	123557	13.328	6.568	20.083
ProbeTrack15	4	ProbeTrack	15.0	SCS215a	20120202.163338	20120202.165210	8	0.013320	60	10	60-180	60	70	GapExp	Blank	0	168	2	1	1	target	1	317	842	124399	13.328	8.089	18.568
ProbeTrack15	4	ProbeTrack	15.0	SCS215a	20120202.163338	20120202.165216	8	0.013320	60	10	60-180	60	147	GapExp	Blank	0	169	2	30	0	target	0	16689972	-1000	123399	13.328	5.916	20.743
ProbeTrack15	4	ProbeTrack	15.0	SCS215a	20120202.163338	20120202.165222	8	0.013320	60	10	60-180	60	132	GapExp	Blank	0	170	2	1	0	distractor	1	470	765	124164	13.328	9.249	17.420
ProbeTrack15	4	ProbeTrack	15.0	SCS215a	20120202.163338	20120202.165228	8	0.013320	60	10	60-180	60	180	GapExp	Blank	0	171	2	30	0	distractor	1	426	787	124951	13.328	6.726	19.930
ProbeTrack15	4	ProbeTrack	15.0	SCS215a	20120202.163338	20120202.165235	8	0.013320	60	10	60-180	60	156	GapExp	Blank	0	172	2	30	0	distractor	1	466	767	125718	13.328	10.900	15.780
ProbeTrack15	4	ProbeTrack	15.0	SCS215a	20120202.163338	20120202.165241	8	0.013320	60	10	60-180	60	103	GapExp	Blank	0	173	2	3	1	target	1	518	741	126459	13.328	11.037	15.626
ProbeTrack15	4	ProbeTrack	15.0	SCS215a	20120202.163338	20120202.165248	8	0.013320	60	10	60-180	60	62	GapExp	Blank	0	174	2	3	0	distractor	1	449	776	127235	13.328	8.900	17.760
ProbeTrack15	4	ProbeTrack	15.0	SCS215a	20120202.163338	20120202.165253	8	0.013320	60	10	60-180	60	143	GapExp	Blank	0	175	2	30	0	distractor	1	562	719	127954	13.328	9.072	17.609
ProbeTrack15	4	ProbeTrack	15.0	SCS215a	20120202.163338	20120202.165300	8	0.013320	60	10	60-180	60	128	GapExp	Blank	0	176	2	1	1	target	1	368	816	128770	13.328	13.286	13.370
ProbeTrack15	4	ProbeTrack	15.0	SCS215a	20120202.163338	20120202.165307	8	0.013320	60	10	60-180	60	137	GapExp	Blank	0	177	2	1	0	distractor	1	429	786	129556	13.328	11.718	14.950
ProbeTrack15	4	ProbeTrack	15.0	SCS215a	20120202.163338	20120202.165313	8	0.013320	60	10	60-180	60	80	GapExp	Blank	0	178	2	1	0	distractor	1	425	788	130344	13.328	8.269	18.394
ProbeTrack15	4	ProbeTrack	15.0	SCS215a	20120202.163338	20120202.165321	8	0.013320	60	10	60-180	60	76	GapExp	Blank	0	179	2	3	0	distractor	1	466	767	131111	13.328	5.347	21.319
ProbeTrack15	4	ProbeTrack	15.0	SCS215a	20120202.163338	20120202.165327	8	0.013320	60	10	60-180	60	172	GapExp	Blank	0	180	2	3	0	target	0	437	-1000	130111	13.328	7.709	13.476
ProbeTrack15	4	ProbeTrack	15.0	SCS215a	20120202.163338	20120202.165334	8	0.013320	60	10	60-180	60	148	GapExp	Blank	0	181	2	3	0	distractor	1	327	837	130948	13.328	11.182	15.484
ProbeTrack15	4	ProbeTrack	15.0	SCS215a	20120202.163338	20120202.165340	8	0.013320	60	10	60-180	60	174	GapExp	Blank	0	182	2	3	1	target	1	379	811	131759	13.328	7.536	19.128
ProbeTrack15	4	ProbeTrack	15.0	SCS215a	20120202.163338	20120202.165347	8	0.013320	60	10	60-180	60	176	GapExp	Blank	0	183	2	1	0	target	0	46518	-1000	130759	13.328	3.094	23.570
ProbeTrack15	4	ProbeTrack	15.0	SCS215a	20120202.163338	20120202.165440	8	0.013320	60	10	60-180	60	100	GapExp	Blank	0	184	2	0	0	distractor	1	415	793	131552	13.328	9.995	16.677
ProbeTrack15	4	ProbeTrack	15.0	SCS215a	20120202.163338	20120202.165446	8	0.013320	60	10	60-180	60	75	GapExp	Blank	0	185	2	1	0	distractor	1	441	780	132332	13.328	4.331	22.323
ProbeTrack15	4	ProbeTrack	15.0	SCS215a	20120202.163338	20120202.165452	8	0.013320	60	10	60-180	60	180	GapExp	Blank	0	186	2	3	0	distractor	1	359	821	133153	13.328	7.616	19.039
ProbeTrack15	4	ProbeTrack	15.0	SCS215a	20120202.163338	20120202.165459	8	0.013320	60	10	60-180	60	69	GapExp	Blank	0	187	2	3	1	target	1	492	754	133907	13.328	7.008	19.674
ProbeTrack15	4	ProbeTrack	15.0	SCS215a	20120202.163338	20120202.165505	8	0.013320	60	10	60-180	60	125	GapExp	Blank	0	188	2	3	0	distractor	1	395	803	134710	13.328	10.481	16.175
ProbeTrack15	4	ProbeTrack	15.0	SCS215a	20120202.163338	20120202.165511	8	0.013320	60	10	60-180	60	145	GapExp	Blank	0	189	2	1	0	distractor	1	469	766	135476	13.328	9.200	17.463
ProbeTrack15	4	ProbeTrack	15.0	SCS215a	20120202.163338	20120202.165518	8	0.013320	60	10	60-180	60	113	GapExp	Blank	0	190	2	0	1	target	1	292	854	136330	13.328	6.820	19.839
ProbeTrack15	4	ProbeTrack	15.0	SCS215a	20120202.163338	20120202.165523	8	0.013320	60	10	60-180	60	131	GapExp	Blank	0	191	2	0	1	target	1	374	813	137143	13.328	13.099	13.557
ProbeTrack15	4	ProbeTrack	15.0	SCS215a	20120202.163338	20120202.165529	8	0.013320	60	10	60-180	60	122	GapExp	Blank	0	192	2	3	1	target	1	446	777	137920	13.328	11.521	15.150
ProbeTrack15	4	ProbeTrack	15.0	SCS215a	20120202.163338	20120202.165535	8	0.013320	60	10	60-180	60	168	GapExp	Blank	0	193	2	30	0	distractor	1	351	825	138745	13.328	8.481	18.175
ProbeTrack15	4	ProbeTrack	15.0	SCS215a	20120202.163338	20120202.165543	8	0.013320	60	10	60-180	60	108	GapExp	Blank	0	194	2	0	1	target	1	334	833	139578	13.328	5.046	21.614
ProbeTrack15	4	ProbeTrack	15.0	SCS215a	20120202.163338	20120202.165548	8	0.013320	60	10	60-180	60	150	GapExp	Blank	0	195	2	3	1	target	1	311	845	140423	13.328	13.295	13.362
ProbeTrack15	4	ProbeTrack	15.0	SCS215a	20120202.163338	20120202.165556	8	0.013320	60	10	60-180	60	92	GapExp	Blank	0	196	2	1	1	target	1	300	850	141273	13.328	10.877	15.782
ProbeTrack15	4	ProbeTrack	15.0	SCS215a	20120202.163338	20120202.165602	8	0.013320	60	10	60-180	60	71	GapExp	Blank	0	197	2	1	0	distractor	1	405	798	142071	13.328	11.762	14.899
ProbeTrack15	4	ProbeTrack	15.0	SCS215a	20120202.163338	20120202.165607	8	0.013320	60	10	60-180	60	80	GapExp	Blank	0	198	2	3	1	target	1	255	873	142944	13.398	4.155	22.511
ProbeTrack15	4	ProbeTrack	15.0	SCS215a	20120202.163338	20120202.165612	8	0.013320	60	10	60-180	60	88	GapExp	Blank	0	199	2	1	1	target	1	301	850	143794	13.328	12.659	14.009
ProbeTrack15	4	ProbeTrack	15.0	SCS215a	20120202.163338	20120202.165618	8	0.013320	60	10	60-180	60	175	GapExp	Blank	0	200	2	30	1	target	1	342	829	144623	13.328	8.656	18.059
ProbeTrack15	4	ProbeTrack	15.0	SCS215a	20120202.165758	20120202.165809	8	0.013327	60	10	60-180	60	170	GapPrac	BigFlash	1	1	2	3	1	target	1	380	810	145433	13.420	11.096	22.949
ProbeTrack15	4	ProbeTrack	15.0	SCS215a	20120202.165758	20120202.165817	8	0.013327	60	10	60-180	60	147	GapPrac	BigFlash	1	2	2	0	1	target	1	367	817	146250	13.328	13.090	13.546
ProbeTrack15	4	ProbeTrack	15.0	SCS215a	20120202.165758	20120202.165825	8	0.013327	60	10	60-180	60	94	GapPrac	BigFlash	1	3	2	30	1	target	1	302	849	147099	13.328	13.105	13.558
ProbeTrack15	4	ProbeTrack	15.0	SCS215a	20120202.165758	20120202.165831	8	0.013327	60	10	60-180	60	88	GapPrac	BigFlash	1	4	2	1	0	distractor	1	429	786	147885	13.328	13.307	13.348
ProbeTrack15	4	ProbeTrack	15.0	SCS215a	20120202.165758	20120202.165836	8	0.013327	60	10	60-180	60	102	GapPrac	BigFlash	1	5	2	30	0	distractor	1	411	795	148680	13.328	10.288	16.362
ProbeTrack15	4	ProbeTrack	15.0	SCS215a	20120202.165758	20120202.165842	8	0.013327	60	10	60-180	60	105	GapPrac	BigFlash	1	6	2	1	0	distractor	1	375	813	149493	13.328	13.223	13.426
ProbeTrack15	4	ProbeTrack	15.0	SCS215a	20120202.165758	20120202.165849	8	0.013327	60	10	60-180	60	102	GapPrac	BigFlash	1	7	2	3	0	distractor	1	326	837	150330	13.328	10.464	16.199
ProbeTrack15	4	ProbeTrack	15.0	SCS215a	20120202.165758	20120202.165854	8	0.013327	60	10	60-180	60	93	GapPrac	BigFlash	1	8	2	0	0	distractor	1	400	800	151130	13.327	13.091	13.551
ProbeTrack15	4	ProbeTrack	15.0	SCS215a	20120202.165758	20120202.165900	8	0.013327	60	10	60-180	60	161	GapPrac	BigFlash	1	9	2	30	1	target	1	286	857	151987	13.372	11.676	25.580
ProbeTrack15	4	ProbeTrack	15.0	SCS215a	20120202.165758	20120202.165906	8	0.013327	60	10	60-180	60	169	GapPrac	BigFlash	1	10	2	1	1	distractor	0	333	-1000	150987	13.328	6.253	20.403
ProbeTrack15	4	ProbeTrack	15.0	SCS215a	20120202.165758	20120202.165913	8	0.013327	60	10	60-180	60	145	GapPrac	BigFlash	1	11	2	3	1	target	1	249	876	151863	13.380	13.092	26.143
ProbeTrack15	4	ProbeTrack	15.0	SCS215a	20120202.165758	20120202.165919	8	0.013327	60	10	60-180	60	88	GapPrac	BigFlash	1	12	2	1	0	distractor	1	447	777	152640	13.391	11.601	21.102
ProbeTrack15	4	ProbeTrack	15.0	SCS215a	20120202.165758	20120202.165925	8	0.013327	60	10	60-180	60	119	GapPrac	BigFlash	1	13	2	0	1	target	1	434	783	153423	13.328	8.305	18.350
ProbeTrack15	4	ProbeTrack	15.0	SCS215a	20120202.165758	20120202.165931	8	0.013327	60	10	60-180	60	82	GapPrac	BigFlash	1	14	2	1	1	target	1	310	845	154268	13.397	8.126	22.842
ProbeTrack15	4	ProbeTrack	15.0	SCS215a	20120202.165758	20120202.165936	8	0.013327	60	10	60-180	60	154	GapPrac	BigFlash	1	15	2	3	1	target	1	315	843	155111	13.428	10.828	34.011
ProbeTrack15	4	ProbeTrack	15.0	SCS215a	20120202.165758	20120202.165942	8	0.013327	60	10	60-180	60	120	GapPrac	BigFlash	1	16	2	0	0	target	0	349	-1000	154111	13.328	13.312	13.347
ProbeTrack15	4	ProbeTrack	15.0	SCS215a	20120202.165758	20120202.165948	8	0.013327	60	10	60-180	60	139	GapPrac	BigFlash	1	17	2	30	0	distractor	1	593	704	154815	13.372	13.106	26.450
ProbeTrack15	4	ProbeTrack	15.0	SCS215a	20120202.165758	20120202.165955	8	0.013327	60	10	60-180	60	159	GapPrac	BigFlash	1	18	2	0	1	target	1	353	824	155639	13.328	6.767	19.881
ProbeTrack15	4	ProbeTrack	15.0	SCS215a	20120202.165758	20120202.170002	8	0.013327	60	10	60-180	60	124	GapPrac	BigFlash	1	19	2	3	0	distractor	1	523	739	156378	13.328	13.092	13.564
ProbeTrack15	4	ProbeTrack	15.0	SCS215a	20120202.165758	20120202.170008	8	0.013327	60	10	60-180	60	150	GapPrac	BigFlash	1	20	2	30	1	target	1	508	746	157124	13.328	13.113	13.542
ProbeTrack15	4	ProbeTrack	15.0	SCS215a	20120202.170106	20120202.170113	8	0.013328	60	10	60-180	60	90	GapExp	BigFlash	1	1	2	0	1	target	1	388	806	157930	13.392	13.102	13.552
ProbeTrack15	4	ProbeTrack	15.0	SCS215a	20120202.170106	20120202.170120	8	0.013328	60	10	60-180	60	119	GapExp	BigFlash	1	2	2	30	0	distractor	1	435	783	158713	13.328	13.074	13.585
ProbeTrack15	4	ProbeTrack	15.0	SCS215a	20120202.170106	20120202.170127	8	0.013328	60	10	60-180	60	98	GapExp	BigFlash	1	3	2	1	1	target	1	347	827	159540	13.328	13.106	13.562
ProbeTrack15	4	ProbeTrack	15.0	SCS215a	20120202.170106	20120202.170132	8	0.013328	60	10	60-180	60	113	GapExp	BigFlash	1	4	2	3	0	distractor	1	527	737	160277	13.328	13.020	13.651
ProbeTrack15	4	ProbeTrack	15.0	SCS215a	20120202.170106	20120202.170138	8	0.013328	60	10	60-180	60	171	GapExp	BigFlash	1	5	2	1	0	distractor	1	435	783	161060	13.373	13.118	26.420
ProbeTrack15	4	ProbeTrack	15.0	SCS215a	20120202.170106	20120202.170144	8	0.013328	60	10	60-180	60	105	GapExp	BigFlash	1	6	2	3	1	target	1	322	839	161899	13.328	12.872	13.794
ProbeTrack15	4	ProbeTrack	15.0	SCS215a	20120202.170106	20120202.170151	8	0.013328	60	10	60-180	60	177	GapExp	BigFlash	1	7	2	30	1	target	1	403	799	162698	13.328	13.293	13.359
ProbeTrack15	4	ProbeTrack	15.0	SCS215a	20120202.170106	20120202.170202	8	0.013328	60	10	60-180	60	65	GapExp	BigFlash	1	8	2	0	0	distractor	1	497	752	163450	13.398	13.091	26.420
ProbeTrack15	4	ProbeTrack	15.0	SCS215a	20120202.170106	20120202.170207	8	0.013328	60	10	60-180	60	179	GapExp	BigFlash	0	9	2	0	0	distractor	1	386	807	164257	13.328	12.905	13.759
ProbeTrack15	4	ProbeTrack	15.0	SCS215a	20120202.170106	20120202.170214	8	0.013328	60	10	60-180	60	149	GapExp	BigFlash	0	10	2	1	0	distractor	1	411	795	165052	13.328	13.307	13.344
ProbeTrack15	4	ProbeTrack	15.0	SCS215a	20120202.170106	20120202.170220	8	0.013328	60	10	60-180	60	168	GapExp	BigFlash	0	11	2	30	1	target	1	318	841	165893	13.328	13.289	13.347
ProbeTrack15	4	ProbeTrack	15.0	SCS215a	20120202.170106	20120202.170227	8	0.013328	60	10	60-180	60	149	GapExp	BigFlash	0	12	2	30	0	distractor	1	345	828	166721	13.373	13.231	26.674
ProbeTrack15	4	ProbeTrack	15.0	SCS215a	20120202.170106	20120202.170234	8	0.013328	60	10	60-180	60	107	GapExp	BigFlash	0	13	2	1	0	distractor	1	449	776	167497	13.328	13.309	13.348
ProbeTrack15	4	ProbeTrack	15.0	SCS215a	20120202.170106	20120202.170240	8	0.013328	60	10	60-180	60	154	GapExp	BigFlash	0	14	2	30	1	target	1	398	801	168298	13.328	13.306	13.348
ProbeTrack15	4	ProbeTrack	15.0	SCS215a	20120202.170106	20120202.170246	8	0.013328	60	10	60-180	60	82	GapExp	BigFlash	0	15	2	30	1	target	1	337	832	169130	13.328	13.309	13.348
ProbeTrack15	4	ProbeTrack	15.0	SCS215a	20120202.170106	20120202.170252	8	0.013328	60	10	60-180	60	121	GapExp	BigFlash	0	16	2	0	1	target	1	363	819	169949	13.328	12.889	13.760
ProbeTrack15	4	ProbeTrack	15.0	SCS215a	20120202.170106	20120202.170259	8	0.013328	60	10	60-180	60	119	GapExp	BigFlash	0	17	2	0	1	target	1	413	794	170743	13.328	13.104	13.545
ProbeTrack15	4	ProbeTrack	15.0	SCS215a	20120202.170106	20120202.170305	8	0.013328	60	10	60-180	60	133	GapExp	BigFlash	0	18	2	3	1	target	1	311	845	171588	13.328	12.856	13.813
ProbeTrack15	4	ProbeTrack	15.0	SCS215a	20120202.170106	20120202.170311	8	0.013328	60	10	60-180	60	113	GapExp	BigFlash	0	19	2	3	0	distractor	1	471	765	172353	13.328	13.098	13.543
ProbeTrack15	4	ProbeTrack	15.0	SCS215a	20120202.170106	20120202.170317	8	0.013328	60	10	60-180	60	145	GapExp	BigFlash	0	20	2	0	1	target	1	377	812	173165	13.328	13.307	13.350
ProbeTrack15	4	ProbeTrack	15.0	SCS215a	20120202.170106	20120202.170323	8	0.013328	60	10	60-180	60	68	GapExp	BigFlash	0	21	2	30	1	target	1	385	808	173973	13.328	12.880	13.780
ProbeTrack15	4	ProbeTrack	15.0	SCS215a	20120202.170106	20120202.170330	8	0.013328	60	10	60-180	60	157	GapExp	BigFlash	0	22	2	3	1	target	1	307	847	174820	13.328	13.307	13.351
ProbeTrack15	4	ProbeTrack	15.0	SCS215a	20120202.170106	20120202.170336	8	0.013328	60	10	60-180	60	137	GapExp	BigFlash	0	23	2	3	0	distractor	1	454	773	175593	13.328	13.310	13.345
ProbeTrack15	4	ProbeTrack	15.0	SCS215a	20120202.170106	20120202.170342	8	0.013328	60	10	60-180	60	122	GapExp	BigFlash	0	24	2	0	1	target	1	326	837	176430	13.328	13.309	13.346
ProbeTrack15	4	ProbeTrack	15.0	SCS215a	20120202.170106	20120202.170348	8	0.013328	60	10	60-180	60	120	GapExp	BigFlash	0	25	2	0	0	distractor	1	468	766	177196	13.329	13.106	13.555
ProbeTrack15	4	ProbeTrack	15.0	SCS215a	20120202.170106	20120202.170354	8	0.013328	60	10	60-180	60	87	GapExp	BigFlash	0	26	2	1	1	target	1	420	790	177986	13.328	13.099	13.558
ProbeTrack15	4	ProbeTrack	15.0	SCS215a	20120202.170106	20120202.170400	8	0.013328	60	10	60-180	60	65	GapExp	BigFlash	0	27	2	0	0	distractor	1	546	727	178713	13.328	13.305	13.349
ProbeTrack15	4	ProbeTrack	15.0	SCS215a	20120202.170106	20120202.170405	8	0.013328	60	10	60-180	60	73	GapExp	BigFlash	0	28	2	0	0	distractor	1	435	783	179496	13.328	12.846	13.803
ProbeTrack15	4	ProbeTrack	15.0	SCS215a	20120202.170106	20120202.170411	8	0.013328	60	10	60-180	60	138	GapExp	BigFlash	0	29	2	30	1	distractor	0	359	-1000	178496	13.328	12.951	13.686
ProbeTrack15	4	ProbeTrack	15.0	SCS215a	20120202.170106	20120202.170417	8	0.013328	60	10	60-180	60	143	GapExp	BigFlash	0	30	2	0	0	distractor	1	484	758	179254	13.328	12.939	13.716
ProbeTrack15	4	ProbeTrack	15.0	SCS215a	20120202.170106	20120202.170423	8	0.013328	60	10	60-180	60	98	GapExp	BigFlash	0	31	2	3	0	target	0	488	-1000	178254	13.328	13.112	13.556
ProbeTrack15	4	ProbeTrack	15.0	SCS215a	20120202.170106	20120202.170429	8	0.013328	60	10	60-180	60	162	GapExp	BigFlash	0	32	2	30	0	distractor	1	405	798	179052	13.328	12.921	13.749
ProbeTrack15	4	ProbeTrack	15.0	SCS215a	20120202.170106	20120202.170436	8	0.013328	60	10	60-180	60	148	GapExp	BigFlash	0	33	2	0	0	distractor	1	473	764	179816	13.328	13.110	13.552
ProbeTrack15	4	ProbeTrack	15.0	SCS215a	20120202.170106	20120202.170443	8	0.013328	60	10	60-180	60	126	GapExp	BigFlash	0	34	2	1	1	target	1	440	780	180596	13.328	13.308	13.346
ProbeTrack15	4	ProbeTrack	15.0	SCS215a	20120202.170106	20120202.170449	8	0.013328	60	10	60-180	60	125	GapExp	BigFlash	0	35	2	30	0	distractor	1	416	792	181388	13.328	13.092	13.563
ProbeTrack15	4	ProbeTrack	15.0	SCS215a	20120202.170106	20120202.170456	8	0.013328	60	10	60-180	60	87	GapExp	BigFlash	0	36	2	0	1	target	1	387	807	182195	13.328	13.299	13.359
ProbeTrack15	4	ProbeTrack	15.0	SCS215a	20120202.170106	20120202.170501	8	0.013328	60	10	60-180	60	139	GapExp	BigFlash	0	37	2	1	1	target	1	358	821	183016	13.328	13.307	13.348
ProbeTrack15	4	ProbeTrack	15.0	SCS215a	20120202.170106	20120202.170508	8	0.013328	60	10	60-180	60	67	GapExp	BigFlash	0	38	2	0	1	target	1	427	787	183803	13.328	12.957	13.706
ProbeTrack15	4	ProbeTrack	15.0	SCS215a	20120202.170106	20120202.170513	8	0.013328	60	10	60-180	60	138	GapExp	BigFlash	0	39	2	3	1	target	1	371	815	184618	13.328	13.295	13.362
ProbeTrack15	4	ProbeTrack	15.0	SCS215a	20120202.170106	20120202.170519	8	0.013328	60	10	60-180	60	130	GapExp	BigFlash	0	40	2	3	1	target	1	323	839	185457	13.328	12.982	13.667
ProbeTrack15	4	ProbeTrack	15.0	SCS215a	20120202.170106	20120202.170525	8	0.013328	60	10	60-180	60	62	GapExp	BigFlash	0	41	2	3	0	target	0	457	-1000	184457	13.328	13.097	13.558
ProbeTrack15	4	ProbeTrack	15.0	SCS215a	20120202.170106	20120202.170530	8	0.013328	60	10	60-180	60	177	GapExp	BigFlash	0	42	2	3	0	distractor	1	416	792	185249	13.328	12.888	13.772
ProbeTrack15	4	ProbeTrack	15.0	SCS215a	20120202.170106	20120202.170537	8	0.013328	60	10	60-180	60	156	GapExp	BigFlash	0	43	2	1	0	distractor	1	407	797	186046	13.328	13.091	13.564
ProbeTrack15	4	ProbeTrack	15.0	SCS215a	20120202.170106	20120202.170544	8	0.013328	60	10	60-180	60	104	GapExp	BigFlash	0	44	2	30	1	target	1	329	836	186882	13.328	13.301	13.358
ProbeTrack15	4	ProbeTrack	15.0	SCS215a	20120202.170106	20120202.170550	8	0.013328	60	10	60-180	60	144	GapExp	BigFlash	0	45	2	30	0	distractor	1	475	763	187645	13.328	13.307	13.347
ProbeTrack15	4	ProbeTrack	15.0	SCS215a	20120202.170106	20120202.170557	8	0.013328	60	10	60-180	60	92	GapExp	BigFlash	0	46	2	1	0	target	0	370	-1000	186645	13.328	13.301	13.347
ProbeTrack15	4	ProbeTrack	15.0	SCS215a	20120202.170106	20120202.170603	8	0.013328	60	10	60-180	60	89	GapExp	BigFlash	0	47	2	30	1	target	1	404	798	187443	13.328	13.303	13.347
ProbeTrack15	4	ProbeTrack	15.0	SCS215a	20120202.170106	20120202.170609	8	0.013328	60	10	60-180	60	123	GapExp	BigFlash	0	48	2	1	1	target	1	352	824	188267	13.328	12.927	13.754
ProbeTrack15	4	ProbeTrack	15.0	SCS215a	20120202.170106	20120202.170615	8	0.013328	60	10	60-180	60	77	GapExp	BigFlash	0	49	2	3	1	target	1	318	841	189108	13.328	13.088	13.555
ProbeTrack15	4	ProbeTrack	15.0	SCS215a	20120202.170106	20120202.170621	8	0.013328	60	10	60-180	60	85	GapExp	BigFlash	0	50	2	0	0	distractor	1	489	756	189864	13.328	13.127	13.538
ProbeTrack15	4	ProbeTrack	15.0	SCS215a	20120202.170106	20120202.170627	8	0.013328	60	10	60-180	60	80	GapExp	BigFlash	0	51	2	3	1	target	1	345	828	190692	13.328	13.309	13.348
ProbeTrack15	4	ProbeTrack	15.0	SCS215a	20120202.170106	20120202.170632	8	0.013328	60	10	60-180	60	134	GapExp	BigFlash	0	52	2	1	1	target	1	354	823	191515	13.328	13.307	13.353
ProbeTrack15	4	ProbeTrack	15.0	SCS215a	20120202.170106	20120202.170639	8	0.013328	60	10	60-180	60	70	GapExp	BigFlash	0	53	2	1	1	target	1	458	771	192286	13.328	13.301	13.348
ProbeTrack15	4	ProbeTrack	15.0	SCS215a	20120202.170106	20120202.170644	8	0.013328	60	10	60-180	60	130	GapExp	BigFlash	0	54	2	1	1	target	1	356	822	193108	13.328	13.309	13.346
ProbeTrack15	4	ProbeTrack	15.0	SCS215a	20120202.170106	20120202.170651	8	0.013328	60	10	60-180	60	86	GapExp	BigFlash	0	55	2	3	0	distractor	1	469	766	193874	13.328	13.298	13.349
ProbeTrack15	4	ProbeTrack	15.0	SCS215a	20120202.170106	20120202.170657	8	0.013328	60	10	60-180	60	90	GapExp	BigFlash	0	56	2	0	0	distractor	1	492	754	194628	13.328	13.303	13.348
ProbeTrack15	4	ProbeTrack	15.0	SCS215a	20120202.170106	20120202.170702	8	0.013328	60	10	60-180	60	94	GapExp	BigFlash	0	57	2	3	0	distractor	1	399	801	195429	13.328	13.092	13.570
ProbeTrack15	4	ProbeTrack	15.0	SCS215a	20120202.170106	20120202.170708	8	0.013328	60	10	60-180	60	71	GapExp	BigFlash	0	58	2	30	1	target	1	548	726	196155	13.328	12.860	13.621
ProbeTrack15	4	ProbeTrack	15.0	SCS215a	20120202.170106	20120202.170714	8	0.013328	60	10	60-180	60	165	GapExp	BigFlash	0	59	2	30	0	distractor	1	472	764	196919	13.328	13.307	13.346
ProbeTrack15	4	ProbeTrack	15.0	SCS215a	20120202.170106	20120202.170721	8	0.013328	60	10	60-180	60	141	GapExp	BigFlash	0	60	2	0	1	target	1	370	815	197734	13.328	12.852	13.812
ProbeTrack15	4	ProbeTrack	15.0	SCS215a	20120202.170106	20120202.170727	8	0.013328	60	10	60-180	60	143	GapExp	BigFlash	0	61	2	30	0	distractor	1	351	825	198559	13.328	12.859	13.802
ProbeTrack15	4	ProbeTrack	15.0	SCS215a	20120202.170106	20120202.170734	8	0.013328	60	10	60-180	60	144	GapExp	BigFlash	0	62	2	0	1	target	1	383	809	199368	13.328	13.307	13.348
ProbeTrack15	4	ProbeTrack	15.0	SCS215a	20120202.170106	20120202.170740	8	0.013328	60	10	60-180	60	153	GapExp	BigFlash	0	63	2	1	1	target	1	352	824	200192	13.328	13.140	13.503
ProbeTrack15	4	ProbeTrack	15.0	SCS215a	20120202.170106	20120202.170746	8	0.013328	60	10	60-180	60	154	GapExp	BigFlash	0	64	2	3	1	target	1	326	837	201029	13.328	13.016	13.639
ProbeTrack15	4	ProbeTrack	15.0	SCS215a	20120202.170106	20120202.170753	8	0.013328	60	10	60-180	60	160	GapExp	BigFlash	0	65	2	1	1	target	1	350	825	201854	13.328	13.097	13.566
ProbeTrack15	4	ProbeTrack	15.0	SCS215a	20120202.170106	20120202.170800	8	0.013328	60	10	60-180	60	148	GapExp	BigFlash	0	66	2	0	1	target	1	366	817	202671	13.328	12.875	13.801
ProbeTrack15	4	ProbeTrack	15.0	SCS215a	20120202.170106	20120202.170808	8	0.013328	60	10	60-180	60	83	GapExp	BigFlash	0	67	2	0	1	target	1	360	820	203491	13.328	13.307	13.347
ProbeTrack15	4	ProbeTrack	15.0	SCS215a	20120202.170106	20120202.170814	8	0.013328	60	10	60-180	60	166	GapExp	BigFlash	0	68	2	30	0	target	0	335	-1000	202491	13.328	13.113	13.561
ProbeTrack15	4	ProbeTrack	15.0	SCS215a	20120202.170106	20120202.170821	8	0.013328	60	10	60-180	60	106	GapExp	BigFlash	0	69	2	3	0	distractor	1	431	785	203276	13.328	13.091	13.550
ProbeTrack15	4	ProbeTrack	15.0	SCS215a	20120202.170106	20120202.170827	8	0.013328	60	10	60-180	60	144	GapExp	BigFlash	0	70	2	0	0	distractor	1	412	794	204070	13.328	13.109	13.547
ProbeTrack15	4	ProbeTrack	15.0	SCS215a	20120202.170106	20120202.170834	8	0.013328	60	10	60-180	60	84	GapExp	BigFlash	0	71	2	30	1	distractor	0	369	-1000	203070	13.328	13.143	13.512
ProbeTrack15	4	ProbeTrack	15.0	SCS215a	20120202.170106	20120202.170842	8	0.013328	60	10	60-180	60	119	GapExp	BigFlash	0	72	2	1	0	target	0	309	-1000	202070	13.328	13.105	13.556
ProbeTrack15	4	ProbeTrack	15.0	SCS215a	20120202.170106	20120202.170848	8	0.013328	60	10	60-180	60	166	GapExp	BigFlash	0	73	2	1	0	distractor	1	433	784	202854	13.328	13.112	13.540
ProbeTrack15	4	ProbeTrack	15.0	SCS215a	20120202.170106	20120202.170854	8	0.013328	60	10	60-180	60	67	GapExp	BigFlash	0	74	2	1	1	target	1	470	765	203619	13.328	13.104	13.558
ProbeTrack15	4	ProbeTrack	15.0	SCS215a	20120202.170106	20120202.170900	8	0.013328	60	10	60-180	60	159	GapExp	BigFlash	0	75	2	30	0	distractor	1	397	802	204421	13.328	13.099	13.557
ProbeTrack15	4	ProbeTrack	15.0	SCS215a	20120202.170106	20120202.170907	8	0.013328	60	10	60-180	60	176	GapExp	BigFlash	0	76	2	30	0	distractor	1	416	792	205213	13.328	13.308	13.361
ProbeTrack15	4	ProbeTrack	15.0	SCS215a	20120202.170106	20120202.170914	8	0.013328	60	10	60-180	60	83	GapExp	BigFlash	0	77	2	0	1	target	1	426	787	206000	13.328	13.309	13.343
ProbeTrack15	4	ProbeTrack	15.0	SCS215a	20120202.170106	20120202.170920	8	0.013328	60	10	60-180	60	177	GapExp	BigFlash	0	78	2	30	0	distractor	1	432	784	206784	13.328	13.286	13.376
ProbeTrack15	4	ProbeTrack	15.0	SCS215a	20120202.170106	20120202.170927	8	0.013328	60	10	60-180	60	64	GapExp	BigFlash	0	79	2	30	0	distractor	1	448	776	207560	13.328	13.308	13.352
ProbeTrack15	4	ProbeTrack	15.0	SCS215a	20120202.170106	20120202.170933	8	0.013328	60	10	60-180	60	148	GapExp	BigFlash	0	80	2	3	0	distractor	1	454	773	208333	13.328	13.054	13.596
ProbeTrack15	4	ProbeTrack	15.0	SCS215a	20120202.170106	20120202.170939	8	0.013328	60	10	60-180	60	84	GapExp	BigFlash	0	81	2	30	1	target	1	651	675	209008	13.328	13.308	13.344
ProbeTrack15	4	ProbeTrack	15.0	SCS215a	20120202.170106	20120202.170945	8	0.013328	60	10	60-180	60	101	GapExp	BigFlash	0	82	2	1	1	target	1	474	763	209771	13.328	13.309	13.344
ProbeTrack15	4	ProbeTrack	15.0	SCS215a	20120202.170106	20120202.170951	8	0.013328	60	10	60-180	60	84	GapExp	BigFlash	0	83	2	3	0	distractor	1	471	765	210536	13.328	13.104	13.558
ProbeTrack15	4	ProbeTrack	15.0	SCS215a	20120202.170106	20120202.170957	8	0.013328	60	10	60-180	60	153	GapExp	BigFlash	0	84	2	0	0	distractor	1	512	744	211280	13.328	12.874	13.801
ProbeTrack15	4	ProbeTrack	15.0	SCS215a	20120202.170106	20120202.171003	8	0.013328	60	10	60-180	60	69	GapExp	BigFlash	0	85	2	0	0	distractor	1	517	742	212022	13.328	13.300	13.348
ProbeTrack15	4	ProbeTrack	15.0	SCS215a	20120202.170106	20120202.171008	8	0.013328	60	10	60-180	60	77	GapExp	BigFlash	0	86	2	30	1	target	1	399	801	212823	13.328	13.306	13.351
ProbeTrack15	4	ProbeTrack	15.0	SCS215a	20120202.170106	20120202.171014	8	0.013328	60	10	60-180	60	127	GapExp	BigFlash	0	87	2	0	0	distractor	1	505	748	213571	13.328	13.308	13.347
ProbeTrack15	4	ProbeTrack	15.0	SCS215a	20120202.170106	20120202.171020	8	0.013328	60	10	60-180	60	72	GapExp	BigFlash	0	88	2	1	0	distractor	1	467	767	214338	13.328	13.307	13.347
ProbeTrack15	4	ProbeTrack	15.0	SCS215a	20120202.170106	20120202.171025	8	0.013328	60	10	60-180	60	178	GapExp	BigFlash	0	89	2	1	1	target	1	385	808	215146	13.328	13.111	13.557
ProbeTrack15	4	ProbeTrack	15.0	SCS215a	20120202.170106	20120202.171032	8	0.013328	60	10	60-180	60	167	GapExp	BigFlash	0	90	2	30	0	distractor	1	448	776	215922	13.328	12.943	13.714
ProbeTrack15	4	ProbeTrack	15.0	SCS215a	20120202.170106	20120202.171044	8	0.013328	60	10	60-180	60	72	GapExp	BigFlash	0	91	2	1	0	early	-4	-2846	-1000	214922	13.328	13.307	13.344
ProbeTrack15	4	ProbeTrack	15.0	SCS215a	20120202.170106	20120202.171050	8	0.013328	60	10	60-180	60	63	GapExp	BigFlash	0	92	2	3	0	distractor	1	656	672	215594	13.328	13.300	13.361
ProbeTrack15	4	ProbeTrack	15.0	SCS215a	20120202.170106	20120202.171056	8	0.013328	60	10	60-180	60	174	GapExp	BigFlash	0	93	2	1	0	distractor	1	425	788	216382	13.373	12.919	26.948
ProbeTrack15	4	ProbeTrack	15.0	SCS215a	20120202.170106	20120202.171102	8	0.013328	60	10	60-180	60	79	GapExp	BigFlash	0	94	2	1	0	distractor	1	388	806	217188	13.328	13.308	13.350
ProbeTrack15	4	ProbeTrack	15.0	SCS215a	20120202.170106	20120202.171109	8	0.013328	60	10	60-180	60	163	GapExp	BigFlash	0	95	2	0	0	target	0	3508	-1000	216188	13.328	12.877	13.785
ProbeTrack15	4	ProbeTrack	15.0	SCS215a	20120202.170106	20120202.171119	8	0.013328	60	10	60-180	60	64	GapExp	BigFlash	0	96	2	3	0	distractor	1	445	778	216966	13.328	13.303	13.352
ProbeTrack15	4	ProbeTrack	15.0	SCS215a	20120202.170106	20120202.171124	8	0.013328	60	10	60-180	60	99	GapExp	BigFlash	0	97	2	30	1	target	1	489	756	217722	13.328	13.308	13.348
ProbeTrack15	4	ProbeTrack	15.0	SCS215a	20120202.170106	20120202.171130	8	0.013328	60	10	60-180	60	118	GapExp	BigFlash	0	98	2	1	1	target	1	420	790	218512	13.328	13.090	13.557
ProbeTrack15	4	ProbeTrack	15.0	SCS215a	20120202.170106	20120202.171136	8	0.013328	60	10	60-180	60	140	GapExp	BigFlash	0	99	2	30	0	distractor	1	441	780	219292	13.374	12.881	26.203
ProbeTrack15	4	ProbeTrack	15.0	SCS215a	20120202.170106	20120202.171143	8	0.013328	60	10	60-180	60	79	GapExp	BigFlash	0	100	2	1	0	distractor	1	488	756	220048	13.328	13.087	13.550
ProbeTrack15	4	ProbeTrack	15.0	SCS215a	20120202.170106	20120202.171148	8	0.013328	60	10	60-180	60	125	GapExp	BigFlash	0	101	2	0	1	target	1	378	811	220859	13.328	13.100	13.569
ProbeTrack15	4	ProbeTrack	15.0	SCS215a	20120202.170106	20120202.171157	8	0.013328	60	10	60-180	60	93	GapExp	BigFlash	0	102	2	30	1	target	1	390	805	221664	13.328	13.088	13.568
ProbeTrack15	4	ProbeTrack	15.0	SCS215a	20120202.170106	20120202.171203	8	0.013328	60	10	60-180	60	165	GapExp	BigFlash	0	103	2	0	1	target	1	395	803	222467	13.328	13.105	13.557
ProbeTrack15	4	ProbeTrack	15.0	SCS215a	20120202.170106	20120202.171209	8	0.013328	60	10	60-180	60	112	GapExp	BigFlash	0	104	2	1	1	target	1	390	805	223272	13.328	13.287	13.383
ProbeTrack15	4	ProbeTrack	15.0	SCS215a	20120202.170106	20120202.171215	8	0.013328	60	10	60-180	60	71	GapExp	BigFlash	0	105	2	3	1	target	1	309	846	224118	13.328	12.887	13.782
ProbeTrack15	4	ProbeTrack	15.0	SCS215a	20120202.170106	20120202.171221	8	0.013328	60	10	60-180	60	170	GapExp	BigFlash	0	106	2	3	1	target	1	343	829	224947	13.328	12.896	13.775
ProbeTrack15	4	ProbeTrack	15.0	SCS215a	20120202.170106	20120202.171228	8	0.013328	60	10	60-180	60	143	GapExp	BigFlash	0	107	2	3	0	distractor	1	458	771	225718	13.328	13.292	13.363
ProbeTrack15	4	ProbeTrack	15.0	SCS215a	20120202.170106	20120202.171234	8	0.013328	60	10	60-180	60	163	GapExp	BigFlash	0	108	2	3	1	target	1	372	814	226532	13.328	13.308	13.344
ProbeTrack15	4	ProbeTrack	15.0	SCS215a	20120202.170106	20120202.171241	8	0.013328	60	10	60-180	60	123	GapExp	BigFlash	0	109	2	3	1	distractor	0	411	-1000	225532	13.328	13.113	13.557
ProbeTrack15	4	ProbeTrack	15.0	SCS215a	20120202.170106	20120202.171246	8	0.013328	60	10	60-180	60	152	GapExp	BigFlash	0	110	2	3	1	target	1	320	840	226372	13.328	13.105	13.552
ProbeTrack15	4	ProbeTrack	15.0	SCS215a	20120202.170106	20120202.171253	8	0.013328	60	10	60-180	60	111	GapExp	BigFlash	0	111	2	30	0	distractor	1	406	797	227169	13.328	12.867	13.795
ProbeTrack15	4	ProbeTrack	15.0	SCS215a	20120202.170106	20120202.171259	8	0.013328	60	10	60-180	60	111	GapExp	BigFlash	0	112	2	1	1	target	1	342	829	227998	13.328	12.875	13.792
ProbeTrack15	4	ProbeTrack	15.0	SCS215a	20120202.170106	20120202.171305	8	0.013328	60	10	60-180	60	140	GapExp	BigFlash	0	113	2	30	0	distractor	1	433	784	228782	13.328	13.067	13.583
ProbeTrack15	4	ProbeTrack	15.0	SCS215a	20120202.170106	20120202.171312	8	0.013328	60	10	60-180	60	121	GapExp	BigFlash	0	114	2	0	0	distractor	1	481	760	229542	13.328	12.847	13.808
ProbeTrack15	4	ProbeTrack	15.0	SCS215a	20120202.170106	20120202.171318	8	0.013328	60	10	60-180	60	68	GapExp	BigFlash	0	115	2	3	0	distractor	1	438	781	230323	13.328	13.309	13.347
ProbeTrack15	4	ProbeTrack	15.0	SCS215a	20120202.170106	20120202.171323	8	0.013328	60	10	60-180	60	146	GapExp	BigFlash	0	116	2	30	0	distractor	1	361	820	231143	13.328	13.289	13.360
ProbeTrack15	4	ProbeTrack	15.0	SCS215a	20120202.170106	20120202.171330	8	0.013328	60	10	60-180	60	124	GapExp	BigFlash	0	117	2	1	0	distractor	1	425	788	231931	13.328	13.306	13.360
ProbeTrack15	4	ProbeTrack	15.0	SCS215a	20120202.170106	20120202.171336	8	0.013328	60	10	60-180	60	72	GapExp	BigFlash	0	118	2	30	0	distractor	1	406	797	232728	13.328	13.308	13.348
ProbeTrack15	4	ProbeTrack	15.0	SCS215a	20120202.170106	20120202.171342	8	0.013328	60	10	60-180	60	166	GapExp	BigFlash	0	119	2	3	0	distractor	1	441	780	233508	13.328	13.092	13.557
ProbeTrack15	4	ProbeTrack	15.0	SCS215a	20120202.170106	20120202.171348	8	0.013328	60	10	60-180	60	119	GapExp	BigFlash	0	120	2	1	0	distractor	1	588	706	234214	13.328	13.091	13.557
ProbeTrack15	4	ProbeTrack	15.0	SCS215a	20120202.170106	20120202.171354	8	0.013328	60	10	60-180	60	149	GapExp	BigFlash	0	121	2	3	1	target	1	366	817	235031	13.328	13.309	13.345
ProbeTrack15	4	ProbeTrack	15.0	SCS215a	20120202.170106	20120202.171401	8	0.013328	60	10	60-180	60	116	GapExp	BigFlash	0	122	2	1	1	target	1	340	830	235861	13.328	13.305	13.351
ProbeTrack15	4	ProbeTrack	15.0	SCS215a	20120202.170106	20120202.171407	8	0.013328	60	10	60-180	60	152	GapExp	BigFlash	0	123	2	0	1	target	1	400	800	236661	13.328	13.309	13.352
ProbeTrack15	4	ProbeTrack	15.0	SCS215a	20120202.170106	20120202.171413	8	0.013328	60	10	60-180	60	102	GapExp	BigFlash	0	124	2	1	1	target	1	342	829	237490	13.328	12.908	13.744
ProbeTrack15	4	ProbeTrack	15.0	SCS215a	20120202.170106	20120202.171419	8	0.013328	60	10	60-180	60	65	GapExp	BigFlash	0	125	2	3	0	distractor	1	446	777	238267	13.399	12.919	26.297
ProbeTrack15	4	ProbeTrack	15.0	SCS215a	20120202.170106	20120202.171424	8	0.013328	60	10	60-180	60	180	GapExp	BigFlash	0	126	2	0	0	distractor	1	383	809	239076	13.328	13.086	13.562
ProbeTrack15	4	ProbeTrack	15.0	SCS215a	20120202.170106	20120202.171432	8	0.013328	60	10	60-180	60	146	GapExp	BigFlash	0	127	2	30	1	target	1	337	832	239908	13.328	13.097	13.541
ProbeTrack15	4	ProbeTrack	15.0	SCS215a	20120202.170106	20120202.171438	8	0.013328	60	10	60-180	60	161	GapExp	BigFlash	0	128	2	30	0	distractor	1	477	762	240670	13.328	12.869	13.791
ProbeTrack15	4	ProbeTrack	15.0	SCS215a	20120202.170106	20120202.171445	8	0.013328	60	10	60-180	60	64	GapExp	BigFlash	0	129	2	1	0	distractor	1	462	769	241439	13.328	12.981	13.712
ProbeTrack15	4	ProbeTrack	15.0	SCS215a	20120202.170106	20120202.171451	8	0.013328	60	10	60-180	60	113	GapExp	BigFlash	0	130	2	1	0	distractor	1	366	817	242256	13.328	12.954	13.707
ProbeTrack15	4	ProbeTrack	15.0	SCS215a	20120202.170106	20120202.171456	8	0.013328	60	10	60-180	60	148	GapExp	BigFlash	0	131	2	3	0	distractor	1	410	795	243051	13.328	13.307	13.349
ProbeTrack15	4	ProbeTrack	15.0	SCS215a	20120202.170106	20120202.171503	8	0.013328	60	10	60-180	60	85	GapExp	BigFlash	0	132	2	0	1	target	1	398	801	243852	13.328	13.306	13.344
ProbeTrack15	4	ProbeTrack	15.0	SCS215a	20120202.170106	20120202.171508	8	0.013328	60	10	60-180	60	156	GapExp	BigFlash	0	133	2	30	1	distractor	0	408	-1000	242852	13.328	13.217	13.454
ProbeTrack15	4	ProbeTrack	15.0	SCS215a	20120202.170106	20120202.171515	8	0.013328	60	10	60-180	60	98	GapExp	BigFlash	0	134	2	1	1	target	1	348	826	243678	13.328	13.161	13.538
ProbeTrack15	4	ProbeTrack	15.0	SCS215a	20120202.170106	20120202.171521	8	0.013328	60	10	60-180	60	107	GapExp	BigFlash	0	135	2	0	0	distractor	1	409	796	244474	13.328	13.092	13.545
ProbeTrack15	4	ProbeTrack	15.0	SCS215a	20120202.170106	20120202.171526	8	0.013328	60	10	60-180	60	121	GapExp	BigFlash	0	136	2	3	1	target	1	322	839	245313	13.384	13.251	26.673
ProbeTrack15	4	ProbeTrack	15.0	SCS215a	20120202.170106	20120202.171532	8	0.013328	60	10	60-180	60	124	GapExp	BigFlash	0	137	2	1	1	target	1	356	822	246135	13.440	13.035	27.013
ProbeTrack15	4	ProbeTrack	15.0	SCS215a	20120202.170106	20120202.171539	8	0.013328	60	10	60-180	60	87	GapExp	BigFlash	0	138	2	1	0	distractor	1	482	759	246894	13.328	13.247	13.396
ProbeTrack15	4	ProbeTrack	15.0	SCS215a	20120202.170106	20120202.171544	8	0.013328	60	10	60-180	60	81	GapExp	BigFlash	0	139	2	1	1	target	1	359	821	247715	13.328	13.307	13.346
ProbeTrack15	4	ProbeTrack	15.0	SCS215a	20120202.170106	20120202.171550	8	0.013328	60	10	60-180	60	110	GapExp	BigFlash	0	140	2	30	1	target	1	318	841	248556	13.328	13.307	13.348
ProbeTrack15	4	ProbeTrack	15.0	SCS215a	20120202.170106	20120202.171556	8	0.013328	60	10	60-180	60	88	GapExp	BigFlash	0	141	2	1	1	target	1	396	802	249358	13.328	13.082	13.565
ProbeTrack15	4	ProbeTrack	15.0	SCS215a	20120202.170106	20120202.171601	8	0.013328	60	10	60-180	60	96	GapExp	BigFlash	0	142	2	1	0	distractor	1	456	772	250130	13.328	12.900	13.749
ProbeTrack15	4	ProbeTrack	15.0	SCS215a	20120202.170106	20120202.171607	8	0.013328	60	10	60-180	60	97	GapExp	BigFlash	0	143	2	0	1	target	1	357	822	250952	13.328	12.932	13.708
ProbeTrack15	4	ProbeTrack	15.0	SCS215a	20120202.170106	20120202.171613	8	0.013328	60	10	60-180	60	125	GapExp	BigFlash	0	144	2	0	0	distractor	1	400	800	251752	13.328	13.304	13.356
ProbeTrack15	4	ProbeTrack	15.0	SCS215a	20120202.170106	20120202.171619	8	0.013328	60	10	60-180	60	171	GapExp	BigFlash	0	145	2	0	0	distractor	1	413	794	252546	13.328	13.107	13.553
ProbeTrack15	4	ProbeTrack	15.0	SCS215a	20120202.170106	20120202.171625	8	0.013328	60	10	60-180	60	79	GapExp	BigFlash	0	146	2	0	1	target	1	369	816	253362	13.328	13.309	13.347
ProbeTrack15	4	ProbeTrack	15.0	SCS215a	20120202.170106	20120202.171631	8	0.013328	60	10	60-180	60	73	GapExp	BigFlash	0	147	2	3	0	distractor	1	406	797	254159	13.328	13.102	13.550
ProbeTrack15	4	ProbeTrack	15.0	SCS215a	20120202.170106	20120202.171636	8	0.013328	60	10	60-180	60	160	GapExp	BigFlash	0	148	2	0	0	distractor	1	435	783	254942	13.328	13.308	13.347
ProbeTrack15	4	ProbeTrack	15.0	SCS215a	20120202.170106	20120202.171643	8	0.013328	60	10	60-180	60	91	GapExp	BigFlash	0	149	2	0	1	target	1	387	807	255749	13.328	13.308	13.347
ProbeTrack15	4	ProbeTrack	15.0	SCS215a	20120202.170106	20120202.171649	8	0.013328	60	10	60-180	60	95	GapExp	BigFlash	0	150	2	3	1	target	1	319	841	256590	13.328	12.915	13.737
ProbeTrack15	4	ProbeTrack	15.0	SCS215a	20120202.170106	20120202.171654	8	0.013328	60	10	60-180	60	130	GapExp	BigFlash	0	151	2	30	1	target	1	335	833	257423	13.328	13.303	13.353
ProbeTrack15	4	ProbeTrack	15.0	SCS215a	20120202.170106	20120202.171701	8	0.013328	60	10	60-180	60	117	GapExp	BigFlash	0	152	2	0	0	distractor	1	437	782	258205	13.328	13.231	13.422
ProbeTrack15	4	ProbeTrack	15.0	SCS215a	20120202.170106	20120202.171706	8	0.013328	60	10	60-180	60	120	GapExp	BigFlash	0	153	2	30	1	target	1	355	823	259028	13.328	13.097	13.550
ProbeTrack15	4	ProbeTrack	15.0	SCS215a	20120202.170106	20120202.171713	8	0.013328	60	10	60-180	60	143	GapExp	BigFlash	0	154	2	30	0	distractor	1	377	812	259840	13.328	13.105	13.550
ProbeTrack15	4	ProbeTrack	15.0	SCS215a	20120202.170106	20120202.171720	8	0.013328	60	10	60-180	60	172	GapExp	BigFlash	0	155	2	3	1	target	1	336	832	260672	13.328	13.308	13.346
ProbeTrack15	4	ProbeTrack	15.0	SCS215a	20120202.170106	20120202.171729	8	0.013328	60	10	60-180	60	97	GapExp	BigFlash	0	156	2	3	1	target	1	367	817	261489	13.328	13.302	13.352
ProbeTrack15	4	ProbeTrack	15.0	SCS215a	20120202.170106	20120202.171735	8	0.013328	60	10	60-180	60	130	GapExp	BigFlash	0	157	2	30	0	distractor	1	395	803	262292	13.328	13.111	13.545
ProbeTrack15	4	ProbeTrack	15.0	SCS215a	20120202.170106	20120202.171741	8	0.013328	60	10	60-180	60	74	GapExp	BigFlash	0	158	2	30	0	distractor	1	420	790	263082	13.328	13.048	13.622
ProbeTrack15	4	ProbeTrack	15.0	SCS215a	20120202.170106	20120202.171747	8	0.013328	60	10	60-180	60	135	GapExp	BigFlash	0	159	2	30	0	distractor	1	454	773	263855	13.328	13.105	13.544
ProbeTrack15	4	ProbeTrack	15.0	SCS215a	20120202.170106	20120202.171754	8	0.013328	60	10	60-180	60	121	GapExp	BigFlash	0	160	2	3	0	distractor	1	410	795	264650	13.328	13.065	13.580
ProbeTrack15	4	ProbeTrack	15.0	SCS215a	20120202.170106	20120202.171800	8	0.013328	60	10	60-180	60	104	GapExp	BigFlash	0	161	2	3	0	distractor	1	375	813	265463	13.328	13.264	13.391
ProbeTrack15	4	ProbeTrack	15.0	SCS215a	20120202.170106	20120202.171805	8	0.013328	60	10	60-180	60	131	GapExp	BigFlash	0	162	2	30	1	target	1	404	798	266261	13.328	12.999	13.649
ProbeTrack15	4	ProbeTrack	15.0	SCS215a	20120202.170106	20120202.171812	8	0.013328	60	10	60-180	60	143	GapExp	BigFlash	0	163	2	1	0	distractor	1	398	801	267062	13.328	13.306	13.353
ProbeTrack15	4	ProbeTrack	15.0	SCS215a	20120202.170106	20120202.171818	8	0.013328	60	10	60-180	60	71	GapExp	BigFlash	0	164	2	0	1	target	1	404	798	267860	13.328	13.308	13.349
ProbeTrack15	4	ProbeTrack	15.0	SCS215a	20120202.170106	20120202.171823	8	0.013328	60	10	60-180	60	104	GapExp	BigFlash	0	165	2	1	1	target	1	360	820	268680	13.328	13.111	13.556
ProbeTrack15	4	ProbeTrack	15.0	SCS215a	20120202.170106	20120202.171830	8	0.013328	60	10	60-180	60	66	GapExp	BigFlash	0	166	2	1	1	target	1	400	800	269480	13.328	13.091	13.565
ProbeTrack15	4	ProbeTrack	15.0	SCS215a	20120202.170106	20120202.171836	8	0.013328	60	10	60-180	60	118	GapExp	BigFlash	0	167	2	1	0	distractor	1	403	799	270279	13.328	12.953	13.704
ProbeTrack15	4	ProbeTrack	15.0	SCS215a	20120202.170106	20120202.171842	8	0.013328	60	10	60-180	60	118	GapExp	BigFlash	0	168	2	30	1	target	1	368	816	271095	13.328	13.306	13.354
ProbeTrack15	4	ProbeTrack	15.0	SCS215a	20120202.170106	20120202.171848	8	0.013328	60	10	60-180	60	61	GapExp	BigFlash	0	169	2	1	0	distractor	1	470	765	271860	13.328	13.297	13.359
ProbeTrack15	4	ProbeTrack	15.0	SCS215a	20120202.170106	20120202.171853	8	0.013328	60	10	60-180	60	105	GapExp	BigFlash	0	170	2	3	0	distractor	1	366	817	272677	13.328	12.949	13.688
ProbeTrack15	4	ProbeTrack	15.0	SCS215a	20120202.170106	20120202.171858	8	0.013328	60	10	60-180	60	122	GapExp	BigFlash	0	171	2	3	0	distractor	1	392	804	273481	13.328	13.090	13.559
ProbeTrack15	4	ProbeTrack	15.0	SCS215a	20120202.170106	20120202.171906	8	0.013328	60	10	60-180	60	176	GapExp	BigFlash	0	172	2	3	1	distractor	0	354	-1000	272481	13.328	13.112	13.543
ProbeTrack15	4	ProbeTrack	15.0	SCS215a	20120202.170106	20120202.171912	8	0.013328	60	10	60-180	60	85	GapExp	BigFlash	0	173	2	0	1	target	1	406	797	273278	13.461	13.309	39.609
ProbeTrack15	4	ProbeTrack	15.0	SCS215a	20120202.170106	20120202.171917	8	0.013328	60	10	60-180	60	171	GapExp	BigFlash	0	174	2	3	1	target	1	361	820	274098	13.328	12.903	13.739
ProbeTrack15	4	ProbeTrack	15.0	SCS215a	20120202.170106	20120202.171924	8	0.013328	60	10	60-180	60	180	GapExp	BigFlash	0	175	2	0	1	target	1	551	725	274823	13.328	13.104	13.542
ProbeTrack15	4	ProbeTrack	15.0	SCS215a	20120202.170106	20120202.171931	8	0.013328	60	10	60-180	60	128	GapExp	BigFlash	0	176	2	30	1	target	1	466	767	275590	13.328	12.864	13.794
ProbeTrack15	4	ProbeTrack	15.0	SCS215a	20120202.170106	20120202.171938	8	0.013328	60	10	60-180	60	66	GapExp	BigFlash	0	177	2	30	1	target	1	324	838	276428	13.328	13.313	13.343
ProbeTrack15	4	ProbeTrack	15.0	SCS215a	20120202.170106	20120202.171944	8	0.013328	60	10	60-180	60	135	GapExp	BigFlash	0	178	2	0	1	target	1	307	847	277275	13.328	13.081	13.576
ProbeTrack15	4	ProbeTrack	15.0	SCS215a	20120202.170106	20120202.171950	8	0.013328	60	10	60-180	60	87	GapExp	BigFlash	0	179	2	30	1	target	1	367	817	278092	13.328	12.885	13.778
ProbeTrack15	4	ProbeTrack	15.0	SCS215a	20120202.170106	20120202.171955	8	0.013328	60	10	60-180	60	116	GapExp	BigFlash	0	180	2	0	0	distractor	1	569	716	278808	13.328	13.099	13.541
ProbeTrack15	4	ProbeTrack	15.0	SCS215a	20120202.170106	20120202.172001	8	0.013328	60	10	60-180	60	173	GapExp	BigFlash	0	181	2	0	1	target	1	400	800	279608	13.328	12.862	13.808
ProbeTrack15	4	ProbeTrack	15.0	SCS215a	20120202.170106	20120202.172008	8	0.013328	60	10	60-180	60	178	GapExp	BigFlash	0	182	2	0	0	distractor	1	418	791	280399	13.328	13.097	13.555
ProbeTrack15	4	ProbeTrack	15.0	SCS215a	20120202.170106	20120202.172015	8	0.013328	60	10	60-180	60	70	GapExp	BigFlash	0	183	2	3	1	target	1	383	809	281208	13.328	13.297	13.345
ProbeTrack15	4	ProbeTrack	15.0	SCS215a	20120202.170106	20120202.172020	8	0.013328	60	10	60-180	60	117	GapExp	BigFlash	0	184	2	3	1	target	1	305	848	282056	13.328	13.300	13.349
ProbeTrack15	4	ProbeTrack	15.0	SCS215a	20120202.170106	20120202.172026	8	0.013328	60	10	60-180	60	126	GapExp	BigFlash	0	185	2	0	1	target	1	343	829	282885	13.328	12.946	13.710
ProbeTrack15	4	ProbeTrack	15.0	SCS215a	20120202.170106	20120202.172032	8	0.013328	60	10	60-180	60	104	GapExp	BigFlash	0	186	2	1	1	target	1	305	848	283733	13.328	13.219	13.433
ProbeTrack15	4	ProbeTrack	15.0	SCS215a	20120202.170106	20120202.172038	8	0.013328	60	10	60-180	60	137	GapExp	BigFlash	0	187	2	1	0	target	0	322	-1000	282733	13.328	13.112	13.550
ProbeTrack15	4	ProbeTrack	15.0	SCS215a	20120202.170106	20120202.172044	8	0.013328	60	10	60-180	60	100	GapExp	BigFlash	0	188	2	0	0	distractor	1	414	793	283526	13.328	12.855	13.808
ProbeTrack15	4	ProbeTrack	15.0	SCS215a	20120202.170106	20120202.172050	8	0.013328	60	10	60-180	60	127	GapExp	BigFlash	0	189	2	30	1	target	1	328	836	284362	13.328	13.062	13.587
ProbeTrack15	4	ProbeTrack	15.0	SCS215a	20120202.170106	20120202.172056	8	0.013328	60	10	60-180	60	128	GapExp	BigFlash	0	190	2	3	0	distractor	1	388	806	285168	13.328	13.091	13.564
ProbeTrack15	4	ProbeTrack	15.0	SCS215a	20120202.170106	20120202.172102	8	0.013328	60	10	60-180	60	78	GapExp	BigFlash	0	191	2	30	0	distractor	1	404	798	285966	13.328	13.306	13.345
ProbeTrack15	4	ProbeTrack	15.0	SCS215a	20120202.170106	20120202.172108	8	0.013328	60	10	60-180	60	110	GapExp	BigFlash	0	192	2	1	0	distractor	1	476	762	286728	13.328	13.048	13.627
ProbeTrack15	4	ProbeTrack	15.0	SCS215a	20120202.170106	20120202.172114	8	0.013328	60	10	60-180	60	102	GapExp	BigFlash	0	193	2	0	0	distractor	1	416	792	287520	13.328	13.290	13.373
ProbeTrack15	4	ProbeTrack	15.0	SCS215a	20120202.170106	20120202.172120	8	0.013328	60	10	60-180	60	66	GapExp	BigFlash	0	194	2	3	1	target	1	352	824	288344	13.328	12.968	13.702
ProbeTrack15	4	ProbeTrack	15.0	SCS215a	20120202.170106	20120202.172125	8	0.013328	60	10	60-180	60	73	GapExp	BigFlash	0	195	2	30	0	distractor	1	391	805	289149	13.328	13.309	13.343
ProbeTrack15	4	ProbeTrack	15.0	SCS215a	20120202.170106	20120202.172131	8	0.013328	60	10	60-180	60	74	GapExp	BigFlash	0	196	2	1	0	distractor	1	404	798	289947	13.328	12.864	13.803
ProbeTrack15	4	ProbeTrack	15.0	SCS215a	20120202.170106	20120202.172136	8	0.013328	60	10	60-180	60	167	GapExp	BigFlash	0	197	2	3	1	target	1	375	813	290760	13.328	12.887	13.770
ProbeTrack15	4	ProbeTrack	15.0	SCS215a	20120202.170106	20120202.172142	8	0.013328	60	10	60-180	60	70	GapExp	BigFlash	0	198	2	3	0	distractor	1	447	777	291537	13.328	12.978	13.687
ProbeTrack15	4	ProbeTrack	15.0	SCS215a	20120202.170106	20120202.172147	8	0.013328	60	10	60-180	60	116	GapExp	BigFlash	0	199	2	3	1	target	1	378	811	292348	13.328	13.097	13.546
ProbeTrack15	4	ProbeTrack	15.0	SCS215a	20120202.170106	20120202.172154	8	0.013328	60	10	60-180	60	95	GapExp	BigFlash	0	200	2	1	0	distractor	1	391	805	293153	13.328	13.092	13.556
ProbeTrack15	4	ProbeTrack	15.0	SCS215a	20120202.172251	20120202.172257	8	0.013328	60	10	60-180	60	95	GapPrac	SmallFlash	1	1	2	0	0	distractor	1	666	667	293820	13.385	13.294	13.352
ProbeTrack15	4	ProbeTrack	15.0	SCS215a	20120202.172251	20120202.172305	8	0.013328	60	10	60-180	60	160	GapPrac	SmallFlash	1	2	2	0	1	target	1	279	861	294681	13.328	12.886	13.769
ProbeTrack15	4	ProbeTrack	15.0	SCS215a	20120202.172251	20120202.172311	8	0.013328	60	10	60-180	60	170	GapPrac	SmallFlash	1	3	2	3	1	target	1	284	858	295539	13.328	12.890	13.760
ProbeTrack15	4	ProbeTrack	15.0	SCS215a	20120202.172251	20120202.172318	8	0.013328	60	10	60-180	60	97	GapPrac	SmallFlash	1	4	2	1	0	distractor	1	447	777	296316	13.328	13.056	13.592
ProbeTrack15	4	ProbeTrack	15.0	SCS215a	20120202.172251	20120202.172323	8	0.013328	60	10	60-180	60	71	GapPrac	SmallFlash	1	5	2	0	0	distractor	1	514	743	297059	13.328	13.094	13.557
ProbeTrack15	4	ProbeTrack	15.0	SCS215a	20120202.172251	20120202.172328	8	0.013328	60	10	60-180	60	147	GapPrac	SmallFlash	1	6	2	0	0	distractor	1	375	813	297872	13.328	13.191	13.472
ProbeTrack15	4	ProbeTrack	15.0	SCS215a	20120202.172251	20120202.172335	8	0.013328	60	10	60-180	60	168	GapPrac	SmallFlash	1	7	2	30	1	target	1	336	832	298704	13.328	13.306	13.348
ProbeTrack15	4	ProbeTrack	15.0	SCS215a	20120202.172251	20120202.172342	8	0.013328	60	10	60-180	60	96	GapPrac	SmallFlash	1	8	2	0	1	target	1	347	827	299531	13.328	13.307	13.348
ProbeTrack15	4	ProbeTrack	15.0	SCS215a	20120202.172251	20120202.172348	8	0.013328	60	10	60-180	60	114	GapPrac	SmallFlash	1	9	2	1	1	target	1	266	867	300398	13.328	13.308	13.345
ProbeTrack15	4	ProbeTrack	15.0	SCS215a	20120202.172251	20120202.172354	8	0.013328	60	10	60-180	60	62	GapPrac	SmallFlash	1	10	2	1	0	distractor	1	388	806	301204	13.328	13.304	13.346
ProbeTrack15	4	ProbeTrack	15.0	SCS215a	20120202.172251	20120202.172359	8	0.013328	60	10	60-180	60	179	GapPrac	SmallFlash	1	11	2	3	0	distractor	1	345	828	302032	13.328	13.094	13.558
ProbeTrack15	4	ProbeTrack	15.0	SCS215a	20120202.172251	20120202.172406	8	0.013328	60	10	60-180	60	167	GapPrac	SmallFlash	1	12	2	1	1	target	1	398	801	302833	13.328	12.868	13.788
ProbeTrack15	4	ProbeTrack	15.0	SCS215a	20120202.172251	20120202.172412	8	0.013328	60	10	60-180	60	176	GapPrac	SmallFlash	1	13	2	30	0	distractor	1	471	765	303598	13.328	13.283	13.381
ProbeTrack15	4	ProbeTrack	15.0	SCS215a	20120202.172251	20120202.172419	8	0.013328	60	10	60-180	60	163	GapPrac	SmallFlash	1	14	2	3	1	target	1	316	842	304440	13.328	13.056	13.602
ProbeTrack15	4	ProbeTrack	15.0	SCS215a	20120202.172251	20120202.172426	8	0.013328	60	10	60-180	60	118	GapPrac	SmallFlash	1	15	2	3	0	distractor	1	465	768	305208	13.328	13.116	13.554
ProbeTrack15	4	ProbeTrack	15.0	SCS215a	20120202.172251	20120202.172432	8	0.013328	60	10	60-180	60	80	GapPrac	SmallFlash	1	16	2	0	1	target	1	365	818	306026	13.328	12.979	13.671
ProbeTrack15	4	ProbeTrack	15.0	SCS215a	20120202.172251	20120202.172437	8	0.013328	60	10	60-180	60	138	GapPrac	SmallFlash	1	17	2	30	0	distractor	1	515	743	306769	13.328	12.898	13.747
ProbeTrack15	4	ProbeTrack	15.0	SCS215a	20120202.172251	20120202.172444	8	0.013328	60	10	60-180	60	179	GapPrac	SmallFlash	1	18	2	3	1	target	1	308	846	307615	13.328	12.986	13.671
ProbeTrack15	4	ProbeTrack	15.0	SCS215a	20120202.172251	20120202.172451	8	0.013328	60	10	60-180	60	118	GapPrac	SmallFlash	1	19	2	30	1	target	1	326	837	308452	13.328	13.300	13.344
ProbeTrack15	4	ProbeTrack	15.0	SCS215a	20120202.172251	20120202.172457	8	0.013328	60	10	60-180	60	73	GapPrac	SmallFlash	1	20	2	1	0	distractor	1	515	743	309195	13.328	13.092	13.564
ProbeTrack15	4	ProbeTrack	15.0	SCS215a	20120202.172539	20120202.172545	8	0.013326	60	10	60-180	60	173	GapExp	SmallFlash	1	1	2	1	1	target	1	393	804	309999	13.374	13.115	13.550
ProbeTrack15	4	ProbeTrack	15.0	SCS215a	20120202.172539	20120202.172553	8	0.013326	60	10	60-180	60	123	GapExp	SmallFlash	1	2	2	1	0	distractor	1	456	772	310771	13.328	13.305	13.347
ProbeTrack15	4	ProbeTrack	15.0	SCS215a	20120202.172539	20120202.172600	8	0.013326	60	10	60-180	60	105	GapExp	SmallFlash	1	3	2	0	1	target	1	389	806	311577	13.328	13.092	13.554
ProbeTrack15	4	ProbeTrack	15.0	SCS215a	20120202.172539	20120202.172605	8	0.013326	60	10	60-180	60	150	GapExp	SmallFlash	1	4	2	3	1	target	1	360	820	312397	13.328	13.088	13.575
ProbeTrack15	4	ProbeTrack	15.0	SCS215a	20120202.172539	20120202.172611	8	0.013326	60	10	60-180	60	153	GapExp	SmallFlash	1	5	2	0	0	distractor	1	369	816	313213	13.328	13.111	13.539
ProbeTrack15	4	ProbeTrack	15.0	SCS215a	20120202.172539	20120202.172617	8	0.013326	60	10	60-180	60	65	GapExp	SmallFlash	1	6	2	30	0	distractor	1	482	759	313972	13.328	13.213	13.457
ProbeTrack15	4	ProbeTrack	15.0	SCS215a	20120202.172539	20120202.172623	8	0.013326	60	10	60-180	60	153	GapExp	SmallFlash	1	7	2	30	1	target	1	301	850	314822	13.373	13.004	20.850
ProbeTrack15	4	ProbeTrack	15.0	SCS215a	20120202.172539	20120202.172630	8	0.013326	60	10	60-180	60	140	GapExp	SmallFlash	1	8	2	3	0	distractor	1	423	789	315611	13.328	10.420	13.346
ProbeTrack15	4	ProbeTrack	15.0	SCS215a	20120202.172539	20120202.172636	8	0.013326	60	10	60-180	60	123	GapExp	SmallFlash	0	9	2	3	0	distractor	1	439	781	316392	13.382	13.115	26.803
ProbeTrack15	4	ProbeTrack	15.0	SCS215a	20120202.172539	20120202.172642	8	0.013326	60	10	60-180	60	125	GapExp	SmallFlash	0	10	2	1	0	distractor	1	353	824	317216	13.328	13.070	13.626
ProbeTrack15	4	ProbeTrack	15.0	SCS215a	20120202.172539	20120202.172648	8	0.013326	60	10	60-180	60	131	GapExp	SmallFlash	0	11	2	0	0	distractor	1	406	797	318013	13.382	7.105	26.835
ProbeTrack15	4	ProbeTrack	15.0	SCS215a	20120202.172539	20120202.172654	8	0.013326	60	10	60-180	60	124	GapExp	SmallFlash	0	12	2	30	0	distractor	1	463	769	318782	13.376	13.104	26.391
ProbeTrack15	4	ProbeTrack	15.0	SCS215a	20120202.172539	20120202.172702	8	0.013326	60	10	60-180	60	97	GapExp	SmallFlash	0	13	2	1	1	target	1	358	821	319603	13.391	7.267	23.064
ProbeTrack15	4	ProbeTrack	15.0	SCS215a	20120202.172539	20120202.172707	8	0.013326	60	10	60-180	60	172	GapExp	SmallFlash	0	14	2	0	1	target	1	317	842	320445	13.328	13.105	13.551
ProbeTrack15	4	ProbeTrack	15.0	SCS215a	20120202.172539	20120202.172714	8	0.013326	60	10	60-180	60	140	GapExp	SmallFlash	0	15	2	3	1	target	1	313	844	321289	13.380	13.014	26.662
ProbeTrack15	4	ProbeTrack	15.0	SCS215a	20120202.172539	20120202.172720	8	0.013326	60	10	60-180	60	115	GapExp	SmallFlash	0	16	2	0	0	distractor	1	513	744	322033	13.328	13.306	13.350
ProbeTrack15	4	ProbeTrack	15.0	SCS215a	20120202.172539	20120202.172726	8	0.013326	60	10	60-180	60	148	GapExp	SmallFlash	0	17	2	30	1	target	1	458	771	322804	13.328	7.065	19.597
ProbeTrack15	4	ProbeTrack	15.0	SCS215a	20120202.172539	20120202.172733	8	0.013326	60	10	60-180	60	108	GapExp	SmallFlash	0	18	2	30	1	target	1	436	782	323586	13.328	8.703	17.940
ProbeTrack15	4	ProbeTrack	15.0	SCS215a	20120202.172539	20120202.172739	8	0.013326	60	10	60-180	60	74	GapExp	SmallFlash	0	19	2	3	0	distractor	1	511	745	324331	13.328	10.178	16.472
ProbeTrack15	4	ProbeTrack	15.0	SCS215a	20120202.172539	20120202.172745	8	0.013326	60	10	60-180	60	136	GapExp	SmallFlash	0	20	2	1	0	distractor	1	450	775	325106	13.328	13.099	13.557
ProbeTrack15	4	ProbeTrack	15.0	SCS215a	20120202.172539	20120202.172751	8	0.013326	60	10	60-180	60	130	GapExp	SmallFlash	0	21	2	0	1	target	1	376	812	325918	13.328	8.118	18.538
ProbeTrack15	4	ProbeTrack	15.0	SCS215a	20120202.172539	20120202.172757	8	0.013326	60	10	60-180	60	115	GapExp	SmallFlash	0	22	2	1	1	target	1	310	845	326763	13.328	13.106	13.537
ProbeTrack15	4	ProbeTrack	15.0	SCS215a	20120202.172539	20120202.172803	8	0.013326	60	10	60-180	60	172	GapExp	SmallFlash	0	23	2	0	0	distractor	1	631	685	327448	13.450	7.711	37.277
ProbeTrack15	4	ProbeTrack	15.0	SCS215a	20120202.172539	20120202.172810	8	0.013326	60	10	60-180	60	168	GapExp	SmallFlash	0	24	2	1	0	distractor	1	550	725	328173	13.329	13.106	13.607
ProbeTrack15	4	ProbeTrack	15.0	SCS215a	20120202.172539	20120202.172816	8	0.013326	60	10	60-180	60	121	GapExp	SmallFlash	0	25	2	3	0	distractor	1	453	774	328947	13.328	6.955	19.686
ProbeTrack15	4	ProbeTrack	15.0	SCS215a	20120202.172539	20120202.172822	8	0.013326	60	10	60-180	60	112	GapExp	SmallFlash	0	26	2	3	1	distractor	0	423	-1000	327947	13.328	13.210	13.454
ProbeTrack15	4	ProbeTrack	15.0	SCS215a	20120202.172539	20120202.172828	8	0.013326	60	10	60-180	60	135	GapExp	SmallFlash	0	27	2	0	1	target	1	406	797	328744	13.328	11.468	15.201
ProbeTrack15	4	ProbeTrack	15.0	SCS215a	20120202.172539	20120202.172834	8	0.013326	60	10	60-180	60	156	GapExp	SmallFlash	0	28	2	30	0	distractor	1	430	785	329529	13.371	7.670	26.679
ProbeTrack15	4	ProbeTrack	15.0	SCS215a	20120202.172539	20120202.172841	8	0.013326	60	10	60-180	60	133	GapExp	SmallFlash	0	29	2	0	1	target	1	358	821	330350	13.328	7.580	20.126
ProbeTrack15	4	ProbeTrack	15.0	SCS215a	20120202.172539	20120202.172847	8	0.013326	60	10	60-180	60	119	GapExp	SmallFlash	0	30	2	3	1	target	1	320	840	331190	13.328	13.093	13.564
ProbeTrack15	4	ProbeTrack	15.0	SCS215a	20120202.172539	20120202.172853	8	0.013326	60	10	60-180	60	117	GapExp	SmallFlash	0	31	2	1	1	target	1	331	835	332025	13.328	13.084	13.570
ProbeTrack15	4	ProbeTrack	15.0	SCS215a	20120202.172539	20120202.172859	8	0.013326	60	10	60-180	60	154	GapExp	SmallFlash	0	32	2	0	1	target	1	326	837	332862	13.328	12.498	14.170
ProbeTrack15	4	ProbeTrack	15.0	SCS215a	20120202.172539	20120202.172905	8	0.013326	60	10	60-180	60	109	GapExp	SmallFlash	0	33	2	0	0	distractor	1	499	751	333613	13.385	13.078	20.313
ProbeTrack15	4	ProbeTrack	15.0	SCS215a	20120202.172539	20120202.172911	8	0.013326	60	10	60-180	60	158	GapExp	SmallFlash	0	34	2	3	0	distractor	1	430	785	334398	13.328	11.655	15.008
ProbeTrack15	4	ProbeTrack	15.0	SCS215a	20120202.172539	20120202.172918	8	0.013326	60	10	60-180	60	160	GapExp	SmallFlash	0	35	2	30	0	distractor	1	579	711	335109	13.411	13.304	26.450
ProbeTrack15	4	ProbeTrack	15.0	SCS215a	20120202.172539	20120202.172924	8	0.013326	60	10	60-180	60	111	GapExp	SmallFlash	0	36	2	30	1	target	1	382	809	335918	13.328	13.301	13.356
ProbeTrack15	4	ProbeTrack	15.0	SCS215a	20120202.172539	20120202.172931	8	0.013326	60	10	60-180	60	79	GapExp	SmallFlash	0	37	2	0	0	distractor	1	481	760	336678	13.328	13.308	13.355
ProbeTrack15	4	ProbeTrack	15.0	SCS215a	20120202.172539	20120202.172937	8	0.013326	60	10	60-180	60	93	GapExp	SmallFlash	0	38	2	3	0	target	0	359	-1000	335678	13.328	13.102	13.562
ProbeTrack15	4	ProbeTrack	15.0	SCS215a	20120202.172539	20120202.172942	8	0.013326	60	10	60-180	60	155	GapExp	SmallFlash	0	39	2	1	0	distractor	1	545	728	336406	13.328	13.308	13.346
ProbeTrack15	4	ProbeTrack	15.0	SCS215a	20120202.172539	20120202.172949	8	0.013326	60	10	60-180	60	62	GapExp	SmallFlash	0	40	2	0	0	distractor	1	420	790	337196	13.328	13.112	13.550
ProbeTrack15	4	ProbeTrack	15.0	SCS215a	20120202.172539	20120202.172954	8	0.013326	60	10	60-180	60	154	GapExp	SmallFlash	0	41	2	0	1	target	1	367	817	338013	13.377	9.653	26.587
ProbeTrack15	4	ProbeTrack	15.0	SCS215a	20120202.172539	20120202.173000	8	0.013326	60	10	60-180	60	62	GapExp	SmallFlash	0	42	2	0	0	distractor	1	500	750	338763	13.399	13.031	20.902
ProbeTrack15	4	ProbeTrack	15.0	SCS215a	20120202.172539	20120202.173006	8	0.013326	60	10	60-180	60	90	GapExp	SmallFlash	0	43	2	1	1	target	1	372	814	339577	13.328	12.039	14.625
ProbeTrack15	4	ProbeTrack	15.0	SCS215a	20120202.172539	20120202.173011	8	0.013326	60	10	60-180	60	78	GapExp	SmallFlash	0	44	2	30	1	target	1	385	808	340385	13.328	13.091	13.553
ProbeTrack15	4	ProbeTrack	15.0	SCS215a	20120202.172539	20120202.173017	8	0.013326	60	10	60-180	60	161	GapExp	SmallFlash	0	45	2	30	1	target	1	362	819	341204	13.328	13.267	13.388
ProbeTrack15	4	ProbeTrack	15.0	SCS215a	20120202.172539	20120202.173024	8	0.013326	60	10	60-180	60	97	GapExp	SmallFlash	0	46	2	0	0	distractor	1	549	726	341930	13.328	13.099	13.551
ProbeTrack15	4	ProbeTrack	15.0	SCS215a	20120202.172539	20120202.173029	8	0.013326	60	10	60-180	60	120	GapExp	SmallFlash	0	47	2	0	0	distractor	1	441	780	342710	13.328	13.307	13.353
ProbeTrack15	4	ProbeTrack	15.0	SCS215a	20120202.172539	20120202.173035	8	0.013326	60	10	60-180	60	89	GapExp	SmallFlash	0	48	2	30	0	distractor	1	491	755	343465	13.383	13.269	26.409
ProbeTrack15	4	ProbeTrack	15.0	SCS215a	20120202.172539	20120202.173041	8	0.013326	60	10	60-180	60	128	GapExp	SmallFlash	0	49	2	1	1	target	1	349	826	344291	13.383	13.104	26.444
ProbeTrack15	4	ProbeTrack	15.0	SCS215a	20120202.172539	20120202.173047	8	0.013326	60	10	60-180	60	168	GapExp	SmallFlash	0	50	2	0	1	distractor	0	420	-1000	343291	13.328	13.311	13.351
ProbeTrack15	4	ProbeTrack	15.0	SCS215a	20120202.172539	20120202.173054	8	0.013326	60	10	60-180	60	81	GapExp	SmallFlash	0	51	2	3	1	target	1	334	833	344124	13.328	9.303	17.352
ProbeTrack15	4	ProbeTrack	15.0	SCS215a	20120202.172539	20120202.173059	8	0.013326	60	10	60-180	60	149	GapExp	SmallFlash	0	52	2	3	0	distractor	1	417	792	344916	13.328	13.112	13.546
ProbeTrack15	4	ProbeTrack	15.0	SCS215a	20120202.172539	20120202.173105	8	0.013326	60	10	60-180	60	64	GapExp	SmallFlash	0	53	2	1	1	target	1	397	802	345718	13.477	12.433	37.799
ProbeTrack15	4	ProbeTrack	15.0	SCS215a	20120202.172539	20120202.173110	8	0.013326	60	10	60-180	60	81	GapExp	SmallFlash	0	54	2	0	0	target	0	345	-1000	344718	13.328	13.307	13.350
ProbeTrack15	4	ProbeTrack	15.0	SCS215a	20120202.172539	20120202.173116	8	0.013326	60	10	60-180	60	155	GapExp	SmallFlash	0	55	2	1	0	distractor	1	486	757	345475	13.328	13.309	13.348
ProbeTrack15	4	ProbeTrack	15.0	SCS215a	20120202.172539	20120202.173123	8	0.013326	60	10	60-180	60	125	GapExp	SmallFlash	0	56	2	1	0	distractor	1	411	795	346270	13.328	13.307	13.345
ProbeTrack15	4	ProbeTrack	15.0	SCS215a	20120202.172539	20120202.173129	8	0.013326	60	10	60-180	60	153	GapExp	SmallFlash	0	57	2	3	1	target	1	354	823	347093	13.377	7.822	26.392
ProbeTrack15	4	ProbeTrack	15.0	SCS215a	20120202.172539	20120202.173135	8	0.013326	60	10	60-180	60	101	GapExp	SmallFlash	0	58	2	3	1	target	1	346	827	347920	13.398	9.268	30.775
ProbeTrack15	4	ProbeTrack	15.0	SCS215a	20120202.172539	20120202.173141	8	0.013326	60	10	60-180	60	142	GapExp	SmallFlash	0	59	2	30	0	distractor	1	487	757	348677	13.328	13.064	13.585
ProbeTrack15	4	ProbeTrack	15.0	SCS215a	20120202.172539	20120202.173148	8	0.013326	60	10	60-180	60	149	GapExp	SmallFlash	0	60	2	3	1	target	1	435	783	349460	13.328	13.106	13.564
ProbeTrack15	4	ProbeTrack	15.0	SCS215a	20120202.172539	20120202.173154	8	0.013326	60	10	60-180	60	90	GapExp	SmallFlash	0	61	2	30	0	distractor	1	560	720	350180	13.328	8.981	17.662
ProbeTrack15	4	ProbeTrack	15.0	SCS215a	20120202.172539	20120202.173200	8	0.013326	60	10	60-180	60	101	GapExp	SmallFlash	0	62	2	1	1	target	1	357	822	351002	13.328	13.308	13.355
ProbeTrack15	4	ProbeTrack	15.0	SCS215a	20120202.172539	20120202.173206	8	0.013326	60	10	60-180	60	79	GapExp	SmallFlash	0	63	2	1	1	target	1	339	831	351833	13.328	13.310	13.345
ProbeTrack15	4	ProbeTrack	15.0	SCS215a	20120202.172539	20120202.173211	8	0.013326	60	10	60-180	60	101	GapExp	SmallFlash	0	64	2	1	0	distractor	1	542	729	352562	13.328	12.949	13.702
ProbeTrack15	4	ProbeTrack	15.0	SCS215a	20120202.172539	20120202.173217	8	0.013326	60	10	60-180	60	110	GapExp	SmallFlash	0	65	2	1	0	distractor	1	466	767	353329	13.328	13.098	13.565
ProbeTrack15	4	ProbeTrack	15.0	SCS215a	20120202.172539	20120202.173223	8	0.013326	60	10	60-180	60	165	GapExp	SmallFlash	0	66	2	3	0	distractor	1	486	757	354086	13.328	5.947	20.701
ProbeTrack15	4	ProbeTrack	15.0	SCS215a	20120202.172539	20120202.173230	8	0.013326	60	10	60-180	60	96	GapExp	SmallFlash	0	67	2	3	0	target	0	2012	-1000	353086	13.328	12.763	13.894
ProbeTrack15	4	ProbeTrack	15.0	SCS215a	20120202.172539	20120202.173237	8	0.013326	60	10	60-180	60	106	GapExp	SmallFlash	0	68	2	1	0	distractor	1	562	719	353805	13.328	13.092	13.558
ProbeTrack15	4	ProbeTrack	15.0	SCS215a	20120202.172539	20120202.173243	8	0.013326	60	10	60-180	60	161	GapExp	SmallFlash	0	69	2	30	0	distractor	1	559	721	354526	13.328	13.085	13.571
ProbeTrack15	4	ProbeTrack	15.0	SCS215a	20120202.172539	20120202.173250	8	0.013326	60	10	60-180	60	62	GapExp	SmallFlash	0	70	2	30	0	target	0	498	-1000	353526	13.328	13.308	13.360
ProbeTrack15	4	ProbeTrack	15.0	SCS215a	20120202.172539	20120202.173256	8	0.013326	60	10	60-180	60	69	GapExp	SmallFlash	0	71	2	1	1	target	1	487	757	354283	13.328	13.304	13.352
