exp	sub	code	rev	comp	runtime	trialtime	nstim	refreshdur	cuedur	gapdur	gapOnsetRange	durPostProbe	gapOnsetTime	blocktype	gaptype	prac	trial	ntargets	soa	probeTarget	resp	acc	rt	pts	tpts	meanFrameDur	minFrameDur	maxFrameDur
ProbeTrack15	14	ProbeTrack	15.0	SCS215a	20120508.123935	20120508.123940	8	0.013328	60	0	60-180	60	78	NoGap	None	1	1	2	1	0	target	0	647	-1000	-1000	13.393	13.172	13.352
ProbeTrack15	14	ProbeTrack	15.0	SCS215a	20120508.123935	20120508.124120	8	0.013328	60	0	60-180	60	96	NoGap	None	1	2	2	30	1	target	1	495	753	-247	13.328	13.308	13.351
ProbeTrack15	14	ProbeTrack	15.0	SCS215a	20120508.123935	20120508.124133	8	0.013328	60	0	60-180	60	61	NoGap	None	1	3	2	0	1	target	1	823	589	342	13.328	12.997	13.683
ProbeTrack15	14	ProbeTrack	15.0	SCS215a	20120508.123935	20120508.124140	8	0.013328	60	0	60-180	60	95	NoGap	None	1	4	2	1	1	target	1	648	676	1018	13.328	12.986	13.670
ProbeTrack15	14	ProbeTrack	15.0	SCS215a	20120508.123935	20120508.124146	8	0.013328	60	0	60-180	60	97	NoGap	None	1	5	2	3	0	distractor	1	633	684	1702	13.328	13.106	13.557
ProbeTrack15	14	ProbeTrack	15.0	SCS215a	20120508.123935	20120508.124153	8	0.013328	60	0	60-180	60	166	NoGap	None	1	6	2	30	0	distractor	1	670	665	2367	13.328	13.307	13.347
ProbeTrack15	14	ProbeTrack	15.0	SCS215a	20120508.123935	20120508.124201	8	0.013328	60	0	60-180	60	76	NoGap	None	1	7	2	1	0	distractor	1	762	619	2986	13.328	13.106	13.551
ProbeTrack15	14	ProbeTrack	15.0	SCS215a	20120508.123935	20120508.124207	8	0.013328	60	0	60-180	60	153	NoGap	None	1	8	2	0	0	distractor	1	687	657	3643	13.328	13.113	13.557
ProbeTrack15	14	ProbeTrack	15.0	SCS215a	20120508.123935	20120508.124213	8	0.013328	60	0	60-180	60	148	NoGap	None	1	9	2	3	1	early	-4	-3767	-1000	2643	13.328	12.912	13.760
ProbeTrack15	14	ProbeTrack	15.0	SCS215a	20120508.123935	20120508.124220	8	0.013328	60	0	60-180	60	78	NoGap	None	1	10	2	30	0	distractor	1	594	703	3346	13.328	12.868	13.777
ProbeTrack15	14	ProbeTrack	15.0	SCS215a	20120508.123935	20120508.124227	8	0.013328	60	0	60-180	60	142	NoGap	None	1	11	2	1	0	distractor	1	529	736	4082	13.328	13.122	13.537
ProbeTrack15	14	ProbeTrack	15.0	SCS215a	20120508.123935	20120508.124234	8	0.013328	60	0	60-180	60	114	NoGap	None	1	12	2	0	1	target	1	496	752	4834	13.328	13.099	13.551
ProbeTrack15	14	ProbeTrack	15.0	SCS215a	20120508.123935	20120508.124240	8	0.013328	60	0	60-180	60	178	NoGap	None	1	13	2	1	1	target	1	565	718	5552	13.328	13.112	13.552
ProbeTrack15	14	ProbeTrack	15.0	SCS215a	20120508.123935	20120508.124247	8	0.013328	60	0	60-180	60	106	NoGap	None	1	14	2	1	1	target	1	575	713	6265	13.328	13.271	13.375
ProbeTrack15	14	ProbeTrack	15.0	SCS215a	20120508.123935	20120508.124253	8	0.013328	60	0	60-180	60	135	NoGap	None	1	15	2	3	0	distractor	1	462	769	7034	13.328	12.914	13.733
ProbeTrack15	14	ProbeTrack	15.0	SCS215a	20120508.123935	20120508.124300	8	0.013328	60	0	60-180	60	130	NoGap	None	1	16	2	3	0	target	0	509	-1000	6034	13.328	13.270	13.373
ProbeTrack15	14	ProbeTrack	15.0	SCS215a	20120508.123935	20120508.124306	8	0.013328	60	0	60-180	60	87	NoGap	None	1	17	2	0	0	distractor	1	751	625	6659	13.328	13.056	13.601
ProbeTrack15	14	ProbeTrack	15.0	SCS215a	20120508.123935	20120508.124312	8	0.013328	60	0	60-180	60	101	NoGap	None	1	18	2	0	1	target	1	575	713	7372	13.328	13.307	13.348
ProbeTrack15	14	ProbeTrack	15.0	SCS215a	20120508.123935	20120508.124318	8	0.013328	60	0	60-180	60	106	NoGap	None	1	19	2	3	1	target	1	531	735	8107	13.328	12.859	13.780
ProbeTrack15	14	ProbeTrack	15.0	SCS215a	20120508.123935	20120508.124324	8	0.013328	60	0	60-180	60	71	NoGap	None	1	20	2	0	0	distractor	1	697	652	8759	13.328	13.092	13.559
ProbeTrack15	14	ProbeTrack	15.0	SCS215a	20120508.123935	20120508.124330	8	0.013328	60	0	60-180	60	140	NoGap	None	1	21	2	30	1	target	1	382	809	9568	13.328	12.968	13.677
ProbeTrack15	14	ProbeTrack	15.0	SCS215a	20120508.123935	20120508.124337	8	0.013328	60	0	60-180	60	110	NoGap	None	1	22	2	1	0	distractor	1	494	753	10321	13.328	13.104	13.558
ProbeTrack15	14	ProbeTrack	15.0	SCS215a	20120508.123935	20120508.124343	8	0.013328	60	0	60-180	60	159	NoGap	None	1	23	2	30	1	distractor	0	603	-1000	9321	13.328	13.103	13.541
ProbeTrack15	14	ProbeTrack	15.0	SCS215a	20120508.123935	20120508.124350	8	0.013328	60	0	60-180	60	147	NoGap	None	1	24	2	30	1	target	1	412	794	10115	13.328	13.091	13.552
ProbeTrack15	14	ProbeTrack	15.0	SCS215a	20120508.123935	20120508.124358	8	0.013328	60	0	60-180	60	147	NoGap	None	1	25	2	30	0	distractor	1	589	706	10821	13.328	13.092	13.558
ProbeTrack15	14	ProbeTrack	15.0	SCS215a	20120508.123935	20120508.124405	8	0.013328	60	0	60-180	60	180	NoGap	None	1	26	2	0	0	target	0	599	-1000	9821	13.328	13.286	13.370
ProbeTrack15	14	ProbeTrack	15.0	SCS215a	20120508.123935	20120508.124412	8	0.013328	60	0	60-180	60	132	NoGap	None	1	27	2	0	1	target	1	594	703	10524	13.328	12.888	13.782
ProbeTrack15	14	ProbeTrack	15.0	SCS215a	20120508.123935	20120508.124419	8	0.013328	60	0	60-180	60	179	NoGap	None	1	28	2	0	0	distractor	1	621	690	11214	13.328	13.118	13.551
ProbeTrack15	14	ProbeTrack	15.0	SCS215a	20120508.123935	20120508.124426	8	0.013328	60	0	60-180	60	97	NoGap	None	1	29	2	3	1	target	1	568	716	11930	13.328	13.092	13.564
ProbeTrack15	14	ProbeTrack	15.0	SCS215a	20120508.123935	20120508.124432	8	0.013328	60	0	60-180	60	170	NoGap	None	1	30	2	3	0	distractor	1	616	692	12622	13.328	12.976	13.674
ProbeTrack15	14	ProbeTrack	15.0	SCS215a	20120508.123935	20120508.124440	8	0.013328	60	0	60-180	60	93	NoGap	None	1	31	2	30	1	target	1	270	865	13487	13.328	13.305	13.348
ProbeTrack15	14	ProbeTrack	15.0	SCS215a	20120508.123935	20120508.124445	8	0.013328	60	0	60-180	60	92	NoGap	None	1	32	2	3	0	distractor	1	600	700	14187	13.328	12.928	13.729
ProbeTrack15	14	ProbeTrack	15.0	SCS215a	20120508.123935	20120508.124451	8	0.013328	60	0	60-180	60	123	NoGap	None	1	33	2	30	0	distractor	1	518	741	14928	13.328	12.941	13.722
ProbeTrack15	14	ProbeTrack	15.0	SCS215a	20120508.123935	20120508.124458	8	0.013328	60	0	60-180	60	67	NoGap	None	1	34	2	0	1	target	1	593	704	15632	13.328	13.310	13.345
ProbeTrack15	14	ProbeTrack	15.0	SCS215a	20120508.123935	20120508.124503	8	0.013328	60	0	60-180	60	94	NoGap	None	1	35	2	1	1	target	1	464	768	16400	13.328	13.105	13.537
ProbeTrack15	14	ProbeTrack	15.0	SCS215a	20120508.123935	20120508.124509	8	0.013328	60	0	60-180	60	140	NoGap	None	1	36	2	30	0	distractor	1	669	666	17066	13.328	12.859	13.797
ProbeTrack15	14	ProbeTrack	15.0	SCS215a	20120508.123935	20120508.124517	8	0.013328	60	0	60-180	60	126	NoGap	None	1	37	2	1	0	distractor	1	592	704	17770	13.328	13.099	13.563
ProbeTrack15	14	ProbeTrack	15.0	SCS215a	20120508.123935	20120508.124523	8	0.013328	60	0	60-180	60	62	NoGap	None	1	38	2	1	1	target	1	475	763	18533	13.328	12.980	13.704
ProbeTrack15	14	ProbeTrack	15.0	SCS215a	20120508.123935	20120508.124529	8	0.013328	60	0	60-180	60	140	NoGap	None	1	39	2	3	1	target	1	552	724	19257	13.328	12.956	13.622
ProbeTrack15	14	ProbeTrack	15.0	SCS215a	20120508.123935	20120508.124535	8	0.013328	60	0	60-180	60	149	NoGap	None	1	40	2	3	1	target	1	419	791	20048	13.328	13.095	13.550
ProbeTrack15	14	ProbeTrack	15.0	SCS215a	20120508.124610	20120508.124622	8	0.013311	60	10	60-180	60	128	GapPrac	BigFlash	1	1	2	0	0	distractor	1	789	606	20654	13.377	10.503	16.149
ProbeTrack15	14	ProbeTrack	15.0	SCS215a	20120508.124610	20120508.124633	8	0.013311	60	10	60-180	60	148	GapPrac	BigFlash	1	2	2	30	1	target	1	517	742	21396	13.328	6.089	20.576
ProbeTrack15	14	ProbeTrack	15.0	SCS215a	20120508.124610	20120508.124640	8	0.013311	60	10	60-180	60	112	GapPrac	BigFlash	1	3	2	0	1	target	1	514	743	22139	13.328	12.527	14.120
ProbeTrack15	14	ProbeTrack	15.0	SCS215a	20120508.124610	20120508.124646	8	0.013311	60	10	60-180	60	137	GapPrac	BigFlash	1	4	2	1	0	distractor	1	535	733	22872	13.328	13.099	13.551
ProbeTrack15	14	ProbeTrack	15.0	SCS215a	20120508.124610	20120508.124653	8	0.013311	60	10	60-180	60	173	GapPrac	BigFlash	1	5	2	3	0	distractor	1	551	725	23597	13.328	13.304	13.353
ProbeTrack15	14	ProbeTrack	15.0	SCS215a	20120508.124610	20120508.124700	8	0.013311	60	10	60-180	60	107	GapPrac	BigFlash	1	6	2	30	0	early	-4	-3609	-1000	22597	13.328	12.515	14.139
ProbeTrack15	14	ProbeTrack	15.0	SCS215a	20120508.124610	20120508.124707	8	0.013311	60	10	60-180	60	180	GapPrac	BigFlash	1	7	2	3	1	target	1	408	796	23393	13.328	10.778	15.880
ProbeTrack15	14	ProbeTrack	15.0	SCS215a	20120508.124610	20120508.124718	8	0.013311	60	10	60-180	60	62	GapPrac	BigFlash	1	8	2	3	0	distractor	1	477	762	24155	13.328	12.837	13.829
ProbeTrack15	14	ProbeTrack	15.0	SCS215a	20120508.124610	20120508.124723	8	0.013311	60	10	60-180	60	137	GapPrac	BigFlash	1	9	2	1	0	distractor	1	864	568	24723	13.328	12.883	13.773
ProbeTrack15	14	ProbeTrack	15.0	SCS215a	20120508.124610	20120508.124730	8	0.013311	60	10	60-180	60	125	GapPrac	BigFlash	1	10	2	30	0	distractor	1	499	751	25474	13.328	13.098	13.558
ProbeTrack15	14	ProbeTrack	15.0	SCS215a	20120508.124610	20120508.124738	8	0.013311	60	10	60-180	60	140	GapPrac	BigFlash	1	11	2	0	1	early	-4	-3674	-1000	24474	13.328	9.649	16.999
ProbeTrack15	14	ProbeTrack	15.0	SCS215a	20120508.124610	20120508.124744	8	0.013311	60	10	60-180	60	125	GapPrac	BigFlash	1	12	2	30	1	target	1	367	817	25291	13.328	9.058	17.612
ProbeTrack15	14	ProbeTrack	15.0	SCS215a	20120508.124610	20120508.124754	8	0.013311	60	10	60-180	60	148	GapPrac	BigFlash	1	13	2	30	1	target	1	457	772	26063	13.328	11.981	14.668
ProbeTrack15	14	ProbeTrack	15.0	SCS215a	20120508.124610	20120508.124801	8	0.013311	60	10	60-180	60	75	GapPrac	BigFlash	1	14	2	3	1	target	1	362	819	26882	13.328	11.757	14.913
ProbeTrack15	14	ProbeTrack	15.0	SCS215a	20120508.124610	20120508.124807	8	0.013311	60	10	60-180	60	168	GapPrac	BigFlash	1	15	2	0	0	distractor	1	547	727	27609	13.328	10.370	16.270
ProbeTrack15	14	ProbeTrack	15.0	SCS215a	20120508.124610	20120508.124814	8	0.013311	60	10	60-180	60	77	GapPrac	BigFlash	1	16	2	1	1	target	1	350	825	28434	13.328	6.845	19.994
ProbeTrack15	14	ProbeTrack	15.0	SCS215a	20120508.124610	20120508.124820	8	0.013311	60	10	60-180	60	114	GapPrac	BigFlash	1	17	2	1	1	target	1	488	756	29190	13.328	13.056	13.610
ProbeTrack15	14	ProbeTrack	15.0	SCS215a	20120508.124610	20120508.124826	8	0.013311	60	10	60-180	60	119	GapPrac	BigFlash	1	18	2	0	1	target	1	399	801	29991	13.328	13.092	13.560
ProbeTrack15	14	ProbeTrack	15.0	SCS215a	20120508.124610	20120508.124832	8	0.013311	60	10	60-180	60	118	GapPrac	BigFlash	1	19	2	1	0	distractor	1	539	731	30722	13.328	11.479	15.172
ProbeTrack15	14	ProbeTrack	15.0	SCS215a	20120508.124610	20120508.124838	8	0.013311	60	10	60-180	60	103	GapPrac	BigFlash	1	20	2	0	0	distractor	1	715	643	31365	13.328	13.105	13.544
ProbeTrack15	14	ProbeTrack	15.0	SCS215a	20120508.124907	20120508.124914	8	0.013328	60	10	60-180	60	165	GapExp	BigFlash	1	1	2	30	1	target	1	495	753	32118	13.370	13.105	13.545
ProbeTrack15	14	ProbeTrack	15.0	SCS215a	20120508.124907	20120508.124922	8	0.013328	60	10	60-180	60	67	GapExp	BigFlash	1	2	2	1	0	distractor	1	491	755	32873	13.328	9.603	17.053
ProbeTrack15	14	ProbeTrack	15.0	SCS215a	20120508.124907	20120508.124928	8	0.013328	60	10	60-180	60	92	GapExp	BigFlash	1	3	2	3	0	early	-4	-3005	-1000	31873	13.328	9.860	16.785
ProbeTrack15	14	ProbeTrack	15.0	SCS215a	20120508.124907	20120508.124934	8	0.013328	60	10	60-180	60	152	GapExp	BigFlash	1	4	2	0	0	early	-4	-3799	-1000	30873	13.328	12.893	13.763
ProbeTrack15	14	ProbeTrack	15.0	SCS215a	20120508.124907	20120508.124941	8	0.013328	60	10	60-180	60	154	GapExp	BigFlash	1	5	2	1	1	target	1	440	780	31653	13.328	9.644	17.020
ProbeTrack15	14	ProbeTrack	15.0	SCS215a	20120508.124907	20120508.124948	8	0.013328	60	10	60-180	60	119	GapExp	BigFlash	1	6	2	3	1	target	1	368	816	32469	13.328	11.619	15.038
ProbeTrack15	14	ProbeTrack	15.0	SCS215a	20120508.124907	20120508.124955	8	0.013328	60	10	60-180	60	162	GapExp	BigFlash	1	7	2	0	1	target	1	563	719	33188	13.328	7.555	19.099
ProbeTrack15	14	ProbeTrack	15.0	SCS215a	20120508.124907	20120508.125002	8	0.013328	60	10	60-180	60	119	GapExp	BigFlash	1	8	2	30	0	distractor	1	506	747	33935	13.328	11.373	16.363
ProbeTrack15	14	ProbeTrack	15.0	SCS215a	20120508.124907	20120508.125009	8	0.013328	60	10	60-180	60	90	GapExp	BigFlash	0	9	2	1	0	distractor	1	573	714	34649	13.328	13.308	13.348
ProbeTrack15	14	ProbeTrack	15.0	SCS215a	20120508.124907	20120508.125015	8	0.013328	60	10	60-180	60	83	GapExp	BigFlash	0	10	2	30	0	distractor	1	591	705	35354	13.328	12.436	14.235
ProbeTrack15	14	ProbeTrack	15.0	SCS215a	20120508.124907	20120508.125021	8	0.013328	60	10	60-180	60	150	GapExp	BigFlash	0	11	2	3	0	distractor	1	519	741	36095	13.328	11.420	15.229
ProbeTrack15	14	ProbeTrack	15.0	SCS215a	20120508.124907	20120508.125028	8	0.013328	60	10	60-180	60	68	GapExp	BigFlash	0	12	2	3	0	distractor	1	566	717	36812	13.328	12.349	14.312
ProbeTrack15	14	ProbeTrack	15.0	SCS215a	20120508.124907	20120508.125034	8	0.013328	60	10	60-180	60	111	GapExp	BigFlash	0	13	2	0	0	distractor	1	561	720	37532	13.328	6.558	20.081
ProbeTrack15	14	ProbeTrack	15.0	SCS215a	20120508.124907	20120508.125040	8	0.013328	60	10	60-180	60	116	GapExp	BigFlash	0	14	2	0	1	target	1	449	776	38308	13.328	8.097	18.562
ProbeTrack15	14	ProbeTrack	15.0	SCS215a	20120508.124907	20120508.125046	8	0.013328	60	10	60-180	60	174	GapExp	BigFlash	0	15	2	1	0	distractor	1	530	735	39043	13.328	10.342	16.328
ProbeTrack15	14	ProbeTrack	15.0	SCS215a	20120508.124907	20120508.125053	8	0.013328	60	10	60-180	60	148	GapExp	BigFlash	0	16	2	0	0	distractor	1	586	707	39750	13.328	11.294	15.970
ProbeTrack15	14	ProbeTrack	15.0	SCS215a	20120508.124907	20120508.125101	8	0.013328	60	10	60-180	60	119	GapExp	BigFlash	0	17	2	0	1	early	-4	-3359	-1000	38750	13.328	13.262	13.378
ProbeTrack15	14	ProbeTrack	15.0	SCS215a	20120508.124907	20120508.125107	8	0.013328	60	10	60-180	60	134	GapExp	BigFlash	0	18	2	0	0	distractor	1	472	764	39514	13.328	12.984	13.671
ProbeTrack15	14	ProbeTrack	15.0	SCS215a	20120508.124907	20120508.125115	8	0.013328	60	10	60-180	60	76	GapExp	BigFlash	0	19	2	1	0	distractor	1	431	785	40299	13.328	12.826	13.842
ProbeTrack15	14	ProbeTrack	15.0	SCS215a	20120508.124907	20120508.125122	8	0.013328	60	10	60-180	60	139	GapExp	BigFlash	0	20	2	3	1	target	1	447	777	41076	13.328	8.500	18.156
ProbeTrack15	14	ProbeTrack	15.0	SCS215a	20120508.124907	20120508.125128	8	0.013328	60	10	60-180	60	63	GapExp	BigFlash	0	21	2	0	0	distractor	1	483	759	41835	13.328	13.307	13.344
ProbeTrack15	14	ProbeTrack	15.0	SCS215a	20120508.124907	20120508.125135	8	0.013328	60	10	60-180	60	73	GapExp	BigFlash	0	22	2	1	1	early	-4	-2722	-1000	40835	13.328	13.098	13.558
ProbeTrack15	14	ProbeTrack	15.0	SCS215a	20120508.124907	20120508.125141	8	0.013328	60	10	60-180	60	64	GapExp	BigFlash	0	23	2	3	0	distractor	1	563	719	41554	13.328	8.932	17.725
ProbeTrack15	14	ProbeTrack	15.0	SCS215a	20120508.124907	20120508.125147	8	0.013328	60	10	60-180	60	173	GapExp	BigFlash	0	24	2	0	0	early	-4	-4053	-1000	40554	13.328	4.898	21.771
ProbeTrack15	14	ProbeTrack	15.0	SCS215a	20120508.124907	20120508.125155	8	0.013328	60	10	60-180	60	147	GapExp	BigFlash	0	25	2	3	0	distractor	1	441	780	41334	13.377	2.415	28.897
ProbeTrack15	14	ProbeTrack	15.0	SCS215a	20120508.124907	20120508.125202	8	0.013328	60	10	60-180	60	150	GapExp	BigFlash	0	26	2	30	0	distractor	1	472	764	42098	13.328	7.031	19.625
ProbeTrack15	14	ProbeTrack	15.0	SCS215a	20120508.124907	20120508.125210	8	0.013328	60	10	60-180	60	65	GapExp	BigFlash	0	27	2	1	1	target	1	413	794	42892	13.328	13.115	13.557
ProbeTrack15	14	ProbeTrack	15.0	SCS215a	20120508.124907	20120508.125215	8	0.013328	60	10	60-180	60	166	GapExp	BigFlash	0	28	2	3	0	distractor	1	603	699	43591	13.328	13.112	13.552
ProbeTrack15	14	ProbeTrack	15.0	SCS215a	20120508.124907	20120508.125222	8	0.013328	60	10	60-180	60	108	GapExp	BigFlash	0	29	2	1	1	early	-4	-3184	-1000	42591	13.328	12.521	14.126
ProbeTrack15	14	ProbeTrack	15.0	SCS215a	20120508.124907	20120508.125228	8	0.013328	60	10	60-180	60	81	GapExp	BigFlash	0	30	2	0	1	target	1	416	792	43383	13.328	8.124	18.518
ProbeTrack15	14	ProbeTrack	15.0	SCS215a	20120508.124907	20120508.125234	8	0.013328	60	10	60-180	60	105	GapExp	BigFlash	0	31	2	3	0	distractor	1	504	748	44131	13.328	13.309	13.346
ProbeTrack15	14	ProbeTrack	15.0	SCS215a	20120508.124907	20120508.125241	8	0.013328	60	10	60-180	60	124	GapExp	BigFlash	0	32	2	1	1	target	1	443	779	44910	13.328	6.473	20.182
ProbeTrack15	14	ProbeTrack	15.0	SCS215a	20120508.124907	20120508.125247	8	0.013328	60	10	60-180	60	67	GapExp	BigFlash	0	33	2	3	0	distractor	1	428	786	45696	13.328	13.305	13.346
ProbeTrack15	14	ProbeTrack	15.0	SCS215a	20120508.124907	20120508.125253	8	0.013328	60	10	60-180	60	109	GapExp	BigFlash	0	34	2	30	1	target	1	336	832	46528	13.328	11.259	15.388
ProbeTrack15	14	ProbeTrack	15.0	SCS215a	20120508.124907	20120508.125259	8	0.013328	60	10	60-180	60	162	GapExp	BigFlash	0	35	2	3	0	distractor	1	429	786	47314	13.328	13.208	13.463
ProbeTrack15	14	ProbeTrack	15.0	SCS215a	20120508.124907	20120508.125306	8	0.013328	60	10	60-180	60	168	GapExp	BigFlash	0	36	2	30	1	early	-4	-4380	-1000	46314	13.328	7.559	19.090
ProbeTrack15	14	ProbeTrack	15.0	SCS215a	20120508.124907	20120508.125314	8	0.013328	60	10	60-180	60	151	GapExp	BigFlash	0	37	2	0	1	target	1	361	820	47134	13.328	10.378	16.264
ProbeTrack15	14	ProbeTrack	15.0	SCS215a	20120508.124907	20120508.125324	8	0.013328	60	10	60-180	60	81	GapExp	BigFlash	0	38	2	3	0	distractor	1	436	782	47916	13.328	7.083	19.566
ProbeTrack15	14	ProbeTrack	15.0	SCS215a	20120508.124907	20120508.125330	8	0.013328	60	10	60-180	60	141	GapExp	BigFlash	0	39	2	1	0	early	-4	-3628	-1000	46916	13.328	12.562	14.101
ProbeTrack15	14	ProbeTrack	15.0	SCS215a	20120508.124907	20120508.125336	8	0.013328	60	10	60-180	60	87	GapExp	BigFlash	0	40	2	30	0	distractor	1	511	745	47661	13.328	13.307	13.348
ProbeTrack15	14	ProbeTrack	15.0	SCS215a	20120508.124907	20120508.125343	8	0.013328	60	10	60-180	60	161	GapExp	BigFlash	0	41	2	1	0	early	-4	-3926	-1000	46661	13.328	12.808	13.854
ProbeTrack15	14	ProbeTrack	15.0	SCS215a	20120508.124907	20120508.125350	8	0.013328	60	10	60-180	60	148	GapExp	BigFlash	0	42	2	30	1	target	1	338	831	47492	13.328	9.194	17.462
ProbeTrack15	14	ProbeTrack	15.0	SCS215a	20120508.124907	20120508.125359	8	0.013328	60	10	60-180	60	171	GapExp	BigFlash	0	43	2	0	0	distractor	1	525	738	48230	13.328	12.911	13.760
ProbeTrack15	14	ProbeTrack	15.0	SCS215a	20120508.124907	20120508.125406	8	0.013328	60	10	60-180	60	83	GapExp	BigFlash	0	44	2	30	1	target	1	336	832	49062	13.328	12.718	13.932
ProbeTrack15	14	ProbeTrack	15.0	SCS215a	20120508.124907	20120508.125413	8	0.013328	60	10	60-180	60	131	GapExp	BigFlash	0	45	2	30	1	target	1	282	859	49921	13.328	11.489	15.162
ProbeTrack15	14	ProbeTrack	15.0	SCS215a	20120508.124907	20120508.125419	8	0.013328	60	10	60-180	60	141	GapExp	BigFlash	0	46	2	0	1	target	1	346	827	50748	13.328	13.308	13.343
ProbeTrack15	14	ProbeTrack	15.0	SCS215a	20120508.124907	20120508.125426	8	0.013328	60	10	60-180	60	87	GapExp	BigFlash	0	47	2	30	0	distractor	1	403	799	51547	13.328	13.309	13.347
ProbeTrack15	14	ProbeTrack	15.0	SCS215a	20120508.124907	20120508.125432	8	0.013328	60	10	60-180	60	70	GapExp	BigFlash	0	48	2	30	1	early	-4	-3072	-1000	50547	13.328	13.311	13.344
ProbeTrack15	14	ProbeTrack	15.0	SCS215a	20120508.124907	20120508.125438	8	0.013328	60	10	60-180	60	78	GapExp	BigFlash	0	49	2	3	1	target	1	349	826	51373	13.328	13.307	13.349
ProbeTrack15	14	ProbeTrack	15.0	SCS215a	20120508.124907	20120508.125444	8	0.013328	60	10	60-180	60	94	GapExp	BigFlash	0	50	2	30	1	target	1	227	887	52260	13.328	13.112	13.549
ProbeTrack15	14	ProbeTrack	15.0	SCS215a	20120508.124907	20120508.125450	8	0.013328	60	10	60-180	60	120	GapExp	BigFlash	0	51	2	0	1	target	1	240	880	53140	13.328	13.099	13.543
ProbeTrack15	14	ProbeTrack	15.0	SCS215a	20120508.124907	20120508.125456	8	0.013328	60	10	60-180	60	142	GapExp	BigFlash	0	52	2	30	1	target	1	432	784	53924	13.328	10.838	15.806
ProbeTrack15	14	ProbeTrack	15.0	SCS215a	20120508.124907	20120508.125503	8	0.013328	60	10	60-180	60	174	GapExp	BigFlash	0	53	2	0	0	distractor	1	516	742	54666	13.328	13.112	13.544
ProbeTrack15	14	ProbeTrack	15.0	SCS215a	20120508.124907	20120508.125510	8	0.013328	60	10	60-180	60	86	GapExp	BigFlash	0	54	2	0	1	target	1	392	804	55470	13.328	10.541	16.123
ProbeTrack15	14	ProbeTrack	15.0	SCS215a	20120508.124907	20120508.125516	8	0.013328	60	10	60-180	60	98	GapExp	BigFlash	0	55	2	0	1	target	1	340	830	56300	13.328	12.573	14.082
ProbeTrack15	14	ProbeTrack	15.0	SCS215a	20120508.124907	20120508.125521	8	0.013328	60	10	60-180	60	117	GapExp	BigFlash	0	56	2	1	0	distractor	1	399	801	57101	13.328	11.701	14.954
ProbeTrack15	14	ProbeTrack	15.0	SCS215a	20120508.124907	20120508.125527	8	0.013328	60	10	60-180	60	64	GapExp	BigFlash	0	57	2	30	0	early	-4	-3009	-1000	56101	13.328	13.308	13.348
ProbeTrack15	14	ProbeTrack	15.0	SCS215a	20120508.124907	20120508.125534	8	0.013328	60	10	60-180	60	102	GapExp	BigFlash	0	58	2	30	0	early	-4	-3548	-1000	55101	13.328	13.307	13.357
ProbeTrack15	14	ProbeTrack	15.0	SCS215a	20120508.124907	20120508.125540	8	0.013328	60	10	60-180	60	127	GapExp	BigFlash	0	59	2	0	1	early	-4	-3464	-1000	54101	13.328	13.096	13.559
ProbeTrack15	14	ProbeTrack	15.0	SCS215a	20120508.124907	20120508.125546	8	0.013328	60	10	60-180	60	71	GapExp	BigFlash	0	60	2	30	0	distractor	1	497	752	54853	13.328	12.534	14.152
ProbeTrack15	14	ProbeTrack	15.0	SCS215a	20120508.124907	20120508.125552	8	0.013328	60	10	60-180	60	78	GapExp	BigFlash	0	61	2	1	1	early	-4	-2829	-1000	53853	13.328	13.091	13.556
ProbeTrack15	14	ProbeTrack	15.0	SCS215a	20120508.124907	20120508.125558	8	0.013328	60	10	60-180	60	136	GapExp	BigFlash	0	62	2	30	0	distractor	1	491	755	54608	13.328	13.097	13.558
ProbeTrack15	14	ProbeTrack	15.0	SCS215a	20120508.124907	20120508.125606	8	0.013328	60	10	60-180	60	69	GapExp	BigFlash	0	63	2	1	0	early	-4	-2742	-1000	53608	13.328	13.099	13.552
ProbeTrack15	14	ProbeTrack	15.0	SCS215a	20120508.124907	20120508.125612	8	0.013328	60	10	60-180	60	157	GapExp	BigFlash	0	64	2	1	1	early	-4	-3892	-1000	52608	13.328	12.922	13.749
ProbeTrack15	14	ProbeTrack	15.0	SCS215a	20120508.124907	20120508.125619	8	0.013328	60	10	60-180	60	104	GapExp	BigFlash	0	65	2	0	1	target	1	291	855	53463	13.328	12.712	13.949
ProbeTrack15	14	ProbeTrack	15.0	SCS215a	20120508.124907	20120508.125625	8	0.013328	60	10	60-180	60	119	GapExp	BigFlash	0	66	2	3	1	target	1	365	818	54281	13.328	11.614	15.038
ProbeTrack15	14	ProbeTrack	15.0	SCS215a	20120508.124907	20120508.125631	8	0.013328	60	10	60-180	60	93	GapExp	BigFlash	0	67	2	1	1	target	1	274	863	55144	13.328	8.846	17.819
ProbeTrack15	14	ProbeTrack	15.0	SCS215a	20120508.124907	20120508.125637	8	0.013328	60	10	60-180	60	140	GapExp	BigFlash	0	68	2	30	1	target	1	241	880	56024	13.328	10.639	16.005
ProbeTrack15	14	ProbeTrack	15.0	SCS215a	20120508.124907	20120508.125643	8	0.013328	60	10	60-180	60	171	GapExp	BigFlash	0	69	2	30	0	distractor	1	403	799	56823	13.328	9.855	16.787
ProbeTrack15	14	ProbeTrack	15.0	SCS215a	20120508.124907	20120508.125650	8	0.013328	60	10	60-180	60	140	GapExp	BigFlash	0	70	2	30	0	distractor	1	511	745	57568	13.328	13.299	13.354
ProbeTrack15	14	ProbeTrack	15.0	SCS215a	20120508.124907	20120508.125657	8	0.013328	60	10	60-180	60	145	GapExp	BigFlash	0	71	2	1	1	early	-4	-3781	-1000	56568	13.481	6.008	32.997
ProbeTrack15	14	ProbeTrack	15.0	SCS215a	20120508.124907	20120508.125704	8	0.013328	60	10	60-180	60	153	GapExp	BigFlash	0	72	2	30	1	target	1	408	796	57364	13.328	13.110	13.539
ProbeTrack15	14	ProbeTrack	15.0	SCS215a	20120508.124907	20120508.125711	8	0.013328	60	10	60-180	60	154	GapExp	BigFlash	0	73	2	30	0	distractor	1	431	785	58149	13.328	13.112	13.539
ProbeTrack15	14	ProbeTrack	15.0	SCS215a	20120508.124907	20120508.125718	8	0.013328	60	10	60-180	60	178	GapExp	BigFlash	0	74	2	0	0	distractor	1	498	751	58900	13.328	6.798	19.880
ProbeTrack15	14	ProbeTrack	15.0	SCS215a	20120508.124907	20120508.125725	8	0.013328	60	10	60-180	60	142	GapExp	BigFlash	0	75	2	30	0	distractor	1	456	772	59672	13.328	13.295	13.352
ProbeTrack15	14	ProbeTrack	15.0	SCS215a	20120508.124907	20120508.125732	8	0.013328	60	10	60-180	60	178	GapExp	BigFlash	0	76	2	0	0	distractor	1	390	805	60477	13.328	11.780	14.875
ProbeTrack15	14	ProbeTrack	15.0	SCS215a	20120508.124907	20120508.125739	8	0.013328	60	10	60-180	60	92	GapExp	BigFlash	0	77	2	30	0	distractor	1	601	700	61177	13.328	13.087	13.571
ProbeTrack15	14	ProbeTrack	15.0	SCS215a	20120508.124907	20120508.125746	8	0.013328	60	10	60-180	60	122	GapExp	BigFlash	0	78	2	1	0	distractor	1	486	757	61934	13.328	13.096	13.553
ProbeTrack15	14	ProbeTrack	15.0	SCS215a	20120508.124907	20120508.125752	8	0.013328	60	10	60-180	60	83	GapExp	BigFlash	0	79	2	1	1	early	-4	-2876	-1000	60934	13.328	13.100	13.574
ProbeTrack15	14	ProbeTrack	15.0	SCS215a	20120508.124907	20120508.125758	8	0.013328	60	10	60-180	60	81	GapExp	BigFlash	0	80	2	3	0	distractor	1	475	763	61697	13.328	13.308	13.351
ProbeTrack15	14	ProbeTrack	15.0	SCS215a	20120508.124907	20120508.125803	8	0.013328	60	10	60-180	60	109	GapExp	BigFlash	0	81	2	3	0	distractor	1	370	815	62512	13.328	11.080	15.578
ProbeTrack15	14	ProbeTrack	15.0	SCS215a	20120508.124907	20120508.125809	8	0.013328	60	10	60-180	60	104	GapExp	BigFlash	0	82	2	0	1	early	-4	-3134	-1000	61512	13.328	13.254	13.402
ProbeTrack15	14	ProbeTrack	15.0	SCS215a	20120508.124907	20120508.125815	8	0.013328	60	10	60-180	60	167	GapExp	BigFlash	0	83	2	3	1	target	1	409	796	62308	13.328	13.302	13.359
ProbeTrack15	14	ProbeTrack	15.0	SCS215a	20120508.124907	20120508.125823	8	0.013328	60	10	60-180	60	83	GapExp	BigFlash	0	84	2	30	1	target	1	329	836	63144	13.328	13.305	13.352
ProbeTrack15	14	ProbeTrack	15.0	SCS215a	20120508.124907	20120508.125829	8	0.013328	60	10	60-180	60	173	GapExp	BigFlash	0	85	2	3	0	distractor	1	435	783	63927	13.328	13.300	13.347
ProbeTrack15	14	ProbeTrack	15.0	SCS215a	20120508.124907	20120508.125836	8	0.013328	60	10	60-180	60	65	GapExp	BigFlash	0	86	2	3	0	distractor	1	545	728	64655	13.328	13.304	13.346
ProbeTrack15	14	ProbeTrack	15.0	SCS215a	20120508.124907	20120508.125841	8	0.013328	60	10	60-180	60	83	GapExp	BigFlash	0	87	2	30	0	distractor	1	485	758	65413	13.328	13.114	13.536
ProbeTrack15	14	ProbeTrack	15.0	SCS215a	20120508.124907	20120508.125847	8	0.013328	60	10	60-180	60	86	GapExp	BigFlash	0	88	2	30	0	distractor	1	388	806	66219	13.328	13.106	13.550
ProbeTrack15	14	ProbeTrack	15.0	SCS215a	20120508.124907	20120508.125854	8	0.013328	60	10	60-180	60	134	GapExp	BigFlash	0	89	2	30	0	distractor	1	415	793	67012	13.328	13.091	13.564
ProbeTrack15	14	ProbeTrack	15.0	SCS215a	20120508.124907	20120508.125900	8	0.013328	60	10	60-180	60	141	GapExp	BigFlash	0	90	2	0	0	distractor	1	430	785	67797	13.328	10.527	16.128
ProbeTrack15	14	ProbeTrack	15.0	SCS215a	20120508.124907	20120508.125907	8	0.013328	60	10	60-180	60	164	GapExp	BigFlash	0	91	2	3	1	target	1	290	855	68652	13.328	13.264	13.392
ProbeTrack15	14	ProbeTrack	15.0	SCS215a	20120508.124907	20120508.125913	8	0.013328	60	10	60-180	60	123	GapExp	BigFlash	0	92	2	30	0	distractor	1	428	786	69438	13.328	10.523	16.127
ProbeTrack15	14	ProbeTrack	15.0	SCS215a	20120508.124907	20120508.125920	8	0.013328	60	10	60-180	60	152	GapExp	BigFlash	0	93	2	30	0	distractor	1	445	778	70216	13.328	9.581	17.069
ProbeTrack15	14	ProbeTrack	15.0	SCS215a	20120508.124907	20120508.125927	8	0.013328	60	10	60-180	60	163	GapExp	BigFlash	0	94	2	0	1	target	1	643	679	70895	13.328	12.900	13.744
ProbeTrack15	14	ProbeTrack	15.0	SCS215a	20120508.124907	20120508.125934	8	0.013328	60	10	60-180	60	101	GapExp	BigFlash	0	95	2	30	1	target	1	376	812	71707	13.328	13.294	13.363
ProbeTrack15	14	ProbeTrack	15.0	SCS215a	20120508.124907	20120508.125941	8	0.013328	60	10	60-180	60	73	GapExp	BigFlash	0	96	2	3	1	target	1	326	837	72544	13.328	9.370	17.293
ProbeTrack15	14	ProbeTrack	15.0	SCS215a	20120508.124907	20120508.125946	8	0.013328	60	10	60-180	60	177	GapExp	BigFlash	0	97	2	3	1	target	1	310	845	73389	13.328	13.098	13.547
ProbeTrack15	14	ProbeTrack	15.0	SCS215a	20120508.124907	20120508.125952	8	0.013328	60	10	60-180	60	103	GapExp	BigFlash	0	98	2	0	1	target	1	308	846	74235	13.328	13.098	13.543
ProbeTrack15	14	ProbeTrack	15.0	SCS215a	20120508.124907	20120508.125959	8	0.013328	60	10	60-180	60	140	GapExp	BigFlash	0	99	2	0	0	distractor	1	460	770	75005	13.328	13.083	13.574
ProbeTrack15	14	ProbeTrack	15.0	SCS215a	20120508.124907	20120508.130005	8	0.013328	60	10	60-180	60	135	GapExp	BigFlash	0	100	2	3	1	early	-4	-3631	-1000	74005	13.328	10.197	16.448
ProbeTrack15	14	ProbeTrack	15.0	SCS215a	20120508.124907	20120508.130011	8	0.013328	60	10	60-180	60	151	GapExp	BigFlash	0	101	2	1	1	target	1	280	860	74865	13.328	10.596	16.067
ProbeTrack15	14	ProbeTrack	15.0	SCS215a	20120508.124907	20120508.130017	8	0.013328	60	10	60-180	60	71	GapExp	BigFlash	0	102	2	3	1	target	1	558	721	75586	13.328	11.820	14.831
ProbeTrack15	14	ProbeTrack	15.0	SCS215a	20120508.124907	20120508.130023	8	0.013328	60	10	60-180	60	179	GapExp	BigFlash	0	103	2	0	1	target	1	291	855	76441	13.328	7.564	19.086
ProbeTrack15	14	ProbeTrack	15.0	SCS215a	20120508.124907	20120508.130030	8	0.013328	60	10	60-180	60	71	GapExp	BigFlash	0	104	2	3	0	distractor	1	445	778	77219	13.328	11.961	14.678
ProbeTrack15	14	ProbeTrack	15.0	SCS215a	20120508.124907	20120508.130035	8	0.013328	60	10	60-180	60	174	GapExp	BigFlash	0	105	2	0	1	early	-4	-4113	-1000	76219	13.328	13.281	13.381
ProbeTrack15	14	ProbeTrack	15.0	SCS215a	20120508.124907	20120508.130042	8	0.013328	60	10	60-180	60	123	GapExp	BigFlash	0	106	2	1	0	distractor	1	458	771	76990	13.328	9.332	17.325
ProbeTrack15	14	ProbeTrack	15.0	SCS215a	20120508.124907	20120508.130048	8	0.013328	60	10	60-180	60	62	GapExp	BigFlash	0	107	2	1	0	distractor	1	542	729	77719	13.328	13.085	13.562
ProbeTrack15	14	ProbeTrack	15.0	SCS215a	20120508.124907	20120508.130054	8	0.013328	60	10	60-180	60	61	GapExp	BigFlash	0	108	2	1	1	target	1	315	843	78562	13.328	13.129	13.552
ProbeTrack15	14	ProbeTrack	15.0	SCS215a	20120508.124907	20120508.130059	8	0.013328	60	10	60-180	60	148	GapExp	BigFlash	0	109	2	30	1	target	1	292	854	79416	13.328	9.903	16.755
ProbeTrack15	14	ProbeTrack	15.0	SCS215a	20120508.124907	20120508.130106	8	0.013328	60	10	60-180	60	173	GapExp	BigFlash	0	110	2	30	1	target	1	244	878	80294	13.328	9.246	17.413
ProbeTrack15	14	ProbeTrack	15.0	SCS215a	20120508.124907	20120508.130113	8	0.013328	60	10	60-180	60	175	GapExp	BigFlash	0	111	2	30	1	target	1	283	859	81153	13.370	10.619	24.682
ProbeTrack15	14	ProbeTrack	15.0	SCS215a	20120508.124907	20120508.130120	8	0.013328	60	10	60-180	60	103	GapExp	BigFlash	0	112	2	3	1	target	1	270	865	82018	13.328	10.375	16.282
ProbeTrack15	14	ProbeTrack	15.0	SCS215a	20120508.124907	20120508.130125	8	0.013328	60	10	60-180	60	148	GapExp	BigFlash	0	113	2	3	0	distractor	1	379	811	82829	13.328	11.355	15.288
ProbeTrack15	14	ProbeTrack	15.0	SCS215a	20120508.124907	20120508.130132	8	0.013328	60	10	60-180	60	163	GapExp	BigFlash	0	114	2	3	0	distractor	1	390	805	83634	13.328	13.306	13.354
ProbeTrack15	14	ProbeTrack	15.0	SCS215a	20120508.124907	20120508.130139	8	0.013328	60	10	60-180	60	82	GapExp	BigFlash	0	115	2	0	0	early	-4	-2883	-1000	82634	13.328	10.553	16.117
ProbeTrack15	14	ProbeTrack	15.0	SCS215a	20120508.124907	20120508.130145	8	0.013328	60	10	60-180	60	131	GapExp	BigFlash	0	116	2	3	0	distractor	1	403	799	83433	13.328	13.301	13.356
ProbeTrack15	14	ProbeTrack	15.0	SCS215a	20120508.124907	20120508.130151	8	0.013328	60	10	60-180	60	81	GapExp	BigFlash	0	117	2	3	1	target	1	426	787	84220	13.328	11.615	15.041
ProbeTrack15	14	ProbeTrack	15.0	SCS215a	20120508.124907	20120508.130157	8	0.013328	60	10	60-180	60	127	GapExp	BigFlash	0	118	2	1	1	target	1	329	836	85056	13.551	3.509	35.690
ProbeTrack15	14	ProbeTrack	15.0	SCS215a	20120508.124907	20120508.130203	8	0.013328	60	10	60-180	60	119	GapExp	BigFlash	0	119	2	1	1	target	1	301	850	85906	13.328	11.054	15.620
ProbeTrack15	14	ProbeTrack	15.0	SCS215a	20120508.124907	20120508.130210	8	0.013328	60	10	60-180	60	144	GapExp	BigFlash	0	120	2	3	1	target	1	296	852	86758	13.328	12.013	14.641
ProbeTrack15	14	ProbeTrack	15.0	SCS215a	20120508.124907	20120508.130216	8	0.013328	60	10	60-180	60	61	GapExp	BigFlash	0	121	2	3	1	target	1	369	816	87574	13.327	6.531	20.124
ProbeTrack15	14	ProbeTrack	15.0	SCS215a	20120508.124907	20120508.130221	8	0.013328	60	10	60-180	60	66	GapExp	BigFlash	0	122	2	1	0	distractor	1	424	788	88362	13.328	13.288	13.353
ProbeTrack15	14	ProbeTrack	15.0	SCS215a	20120508.124907	20120508.130226	8	0.013328	60	10	60-180	60	163	GapExp	BigFlash	0	123	2	3	1	target	1	396	802	89164	13.328	9.320	17.322
ProbeTrack15	14	ProbeTrack	15.0	SCS215a	20120508.124907	20120508.130233	8	0.013328	60	10	60-180	60	144	GapExp	BigFlash	0	124	2	1	1	target	1	326	837	90001	13.328	11.728	14.933
ProbeTrack15	14	ProbeTrack	15.0	SCS215a	20120508.124907	20120508.130239	8	0.013328	60	10	60-180	60	162	GapExp	BigFlash	0	125	2	3	0	distractor	1	435	783	90784	13.328	13.106	13.565
ProbeTrack15	14	ProbeTrack	15.0	SCS215a	20120508.124907	20120508.130246	8	0.013328	60	10	60-180	60	146	GapExp	BigFlash	0	126	2	3	0	early	-4	-3782	-1000	89784	13.328	12.819	13.839
ProbeTrack15	14	ProbeTrack	15.0	SCS215a	20120508.124907	20120508.130253	8	0.013328	60	10	60-180	60	161	GapExp	BigFlash	0	127	2	1	0	distractor	1	599	701	90485	13.328	12.914	13.749
ProbeTrack15	14	ProbeTrack	15.0	SCS215a	20120508.124907	20120508.130259	8	0.013328	60	10	60-180	60	117	GapExp	BigFlash	0	128	2	1	1	target	1	384	808	91293	13.328	13.106	13.550
ProbeTrack15	14	ProbeTrack	15.0	SCS215a	20120508.124907	20120508.130305	8	0.013328	60	10	60-180	60	180	GapExp	BigFlash	0	129	2	1	1	target	1	350	825	92118	13.328	12.181	14.468
ProbeTrack15	14	ProbeTrack	15.0	SCS215a	20120508.124907	20120508.130312	8	0.013328	60	10	60-180	60	153	GapExp	BigFlash	0	130	2	0	0	distractor	1	402	799	92917	13.328	10.801	15.855
ProbeTrack15	14	ProbeTrack	15.0	SCS215a	20120508.124907	20120508.130319	8	0.013328	60	10	60-180	60	155	GapExp	BigFlash	0	131	2	30	0	early	-4	-4263	-1000	91917	13.328	12.211	14.445
ProbeTrack15	14	ProbeTrack	15.0	SCS215a	20120508.124907	20120508.130326	8	0.013328	60	10	60-180	60	141	GapExp	BigFlash	0	132	2	0	0	distractor	1	498	751	92668	13.328	13.238	13.410
ProbeTrack15	14	ProbeTrack	15.0	SCS215a	20120508.124907	20120508.130333	8	0.013328	60	10	60-180	60	122	GapExp	BigFlash	0	133	2	1	1	target	1	362	819	93487	13.328	13.307	13.349
ProbeTrack15	14	ProbeTrack	15.0	SCS215a	20120508.124907	20120508.130339	8	0.013328	60	10	60-180	60	79	GapExp	BigFlash	0	134	2	0	0	distractor	1	478	761	94248	13.328	10.487	16.144
ProbeTrack15	14	ProbeTrack	15.0	SCS215a	20120508.124907	20120508.130344	8	0.013328	60	10	60-180	60	142	GapExp	BigFlash	0	135	2	30	1	early	-4	-4096	-1000	93248	13.328	13.307	13.348
ProbeTrack15	14	ProbeTrack	15.0	SCS215a	20120508.124907	20120508.130351	8	0.013328	60	10	60-180	60	69	GapExp	BigFlash	0	136	2	1	0	distractor	1	472	764	94012	13.328	13.309	13.350
ProbeTrack15	14	ProbeTrack	15.0	SCS215a	20120508.124907	20120508.130357	8	0.013328	60	10	60-180	60	109	GapExp	BigFlash	0	137	2	0	0	distractor	1	483	759	94771	13.328	13.085	13.571
ProbeTrack15	14	ProbeTrack	15.0	SCS215a	20120508.124907	20120508.130403	8	0.013328	60	10	60-180	60	105	GapExp	BigFlash	0	138	2	0	0	distractor	1	488	756	95527	13.328	13.281	13.385
ProbeTrack15	14	ProbeTrack	15.0	SCS215a	20120508.124907	20120508.130409	8	0.013328	60	10	60-180	60	161	GapExp	BigFlash	0	139	2	3	1	early	-4	-3983	-1000	94527	13.328	13.105	13.555
ProbeTrack15	14	ProbeTrack	15.0	SCS215a	20120508.124907	20120508.130415	8	0.013328	60	10	60-180	60	119	GapExp	BigFlash	0	140	2	3	1	target	1	392	804	95331	13.328	13.000	13.848
ProbeTrack15	14	ProbeTrack	15.0	SCS215a	20120508.124907	20120508.130424	8	0.013328	60	10	60-180	60	79	GapExp	BigFlash	0	141	2	1	0	distractor	1	879	561	95892	13.328	13.085	13.571
ProbeTrack15	14	ProbeTrack	15.0	SCS215a	20120508.124907	20120508.130430	8	0.013328	60	10	60-180	60	74	GapExp	BigFlash	0	142	2	3	1	target	1	379	811	96703	13.328	13.312	13.343
ProbeTrack15	14	ProbeTrack	15.0	SCS215a	20120508.124907	20120508.130556	8	0.013328	60	10	60-180	60	169	GapExp	BigFlash	0	143	2	30	1	distractor	0	649	-1000	95703	13.328	13.087	13.556
ProbeTrack15	14	ProbeTrack	15.0	SCS215a	20120508.124907	20120508.130604	8	0.013328	60	10	60-180	60	100	GapExp	BigFlash	0	144	2	3	0	distractor	1	483	759	96462	13.327	5.851	20.818
ProbeTrack15	14	ProbeTrack	15.0	SCS215a	20120508.124907	20120508.130610	8	0.013328	60	10	60-180	60	118	GapExp	BigFlash	0	145	2	30	0	distractor	1	540	730	97192	13.328	13.093	13.550
ProbeTrack15	14	ProbeTrack	15.0	SCS215a	20120508.124907	20120508.130616	8	0.013328	60	10	60-180	60	171	GapExp	BigFlash	0	146	2	0	0	distractor	1	480	760	97952	13.328	13.287	13.361
ProbeTrack15	14	ProbeTrack	15.0	SCS215a	20120508.124907	20120508.130624	8	0.013328	60	10	60-180	60	93	GapExp	BigFlash	0	147	2	3	1	target	1	357	822	98774	13.328	13.086	13.570
ProbeTrack15	14	ProbeTrack	15.0	SCS215a	20120508.124907	20120508.130630	8	0.013328	60	10	60-180	60	88	GapExp	BigFlash	0	148	2	3	0	distractor	1	420	790	99564	13.328	13.099	13.558
ProbeTrack15	14	ProbeTrack	15.0	SCS215a	20120508.124907	20120508.130636	8	0.013328	60	10	60-180	60	139	GapExp	BigFlash	0	149	2	3	1	target	1	363	819	100383	13.328	13.098	13.559
ProbeTrack15	14	ProbeTrack	15.0	SCS215a	20120508.124907	20120508.130642	8	0.013328	60	10	60-180	60	150	GapExp	BigFlash	0	150	2	1	1	target	1	380	810	101193	13.328	13.310	13.354
ProbeTrack15	14	ProbeTrack	15.0	SCS215a	20120508.124907	20120508.130648	8	0.013328	60	10	60-180	60	177	GapExp	BigFlash	0	151	2	30	0	distractor	1	466	767	101960	13.328	13.271	13.379
ProbeTrack15	14	ProbeTrack	15.0	SCS215a	20120508.124907	20120508.130656	8	0.013328	60	10	60-180	60	152	GapExp	BigFlash	0	152	2	30	0	early	-4	-4282	-1000	100960	13.373	3.098	33.092
ProbeTrack15	14	ProbeTrack	15.0	SCS215a	20120508.124907	20120508.130703	8	0.013328	60	10	60-180	60	82	GapExp	BigFlash	0	153	2	0	0	distractor	1	428	786	101746	13.328	10.752	15.900
ProbeTrack15	14	ProbeTrack	15.0	SCS215a	20120508.124907	20120508.130806	8	0.013328	60	10	60-180	60	177	GapExp	BigFlash	0	154	2	3	1	target	1	353	824	102570	13.328	13.098	13.566
ProbeTrack15	14	ProbeTrack	15.0	SCS215a	20120508.124907	20120508.130814	8	0.013328	60	10	60-180	60	129	GapExp	BigFlash	0	155	2	1	1	target	1	351	825	103395	13.328	13.086	13.561
ProbeTrack15	14	ProbeTrack	15.0	SCS215a	20120508.124907	20120508.130821	8	0.013328	60	10	60-180	60	132	GapExp	BigFlash	0	156	2	30	0	distractor	1	463	769	104164	13.328	12.980	13.668
ProbeTrack15	14	ProbeTrack	15.0	SCS215a	20120508.124907	20120508.130827	8	0.013328	60	10	60-180	60	142	GapExp	BigFlash	0	157	2	3	0	distractor	1	442	779	104943	13.328	13.292	13.350
ProbeTrack15	14	ProbeTrack	15.0	SCS215a	20120508.124907	20120508.130834	8	0.013328	60	10	60-180	60	161	GapExp	BigFlash	0	158	2	1	0	distractor	1	405	798	105741	13.328	13.091	13.557
ProbeTrack15	14	ProbeTrack	15.0	SCS215a	20120508.124907	20120508.130841	8	0.013328	60	10	60-180	60	94	GapExp	BigFlash	0	159	2	1	1	target	1	410	795	106536	13.328	13.307	13.347
ProbeTrack15	14	ProbeTrack	15.0	SCS215a	20120508.124907	20120508.130847	8	0.013328	60	10	60-180	60	61	GapExp	BigFlash	0	160	2	0	1	target	1	390	805	107341	13.328	13.308	13.347
ProbeTrack15	14	ProbeTrack	15.0	SCS215a	20120508.124907	20120508.130853	8	0.013328	60	10	60-180	60	157	GapExp	BigFlash	0	161	2	3	0	distractor	1	480	760	108101	13.328	11.159	15.493
ProbeTrack15	14	ProbeTrack	15.0	SCS215a	20120508.124907	20120508.130900	8	0.013328	60	10	60-180	60	92	GapExp	BigFlash	0	162	2	1	0	distractor	1	521	740	108841	13.328	13.269	13.389
ProbeTrack15	14	ProbeTrack	15.0	SCS215a	20120508.124907	20120508.130906	8	0.013328	60	10	60-180	60	140	GapExp	BigFlash	0	163	2	1	0	target	0	18595	-1000	107841	13.374	13.269	26.638
ProbeTrack15	14	ProbeTrack	15.0	SCS215a	20120508.124907	20120508.130932	8	0.013328	60	10	60-180	60	113	GapExp	BigFlash	0	164	2	3	1	target	1	363	819	108660	13.328	13.113	13.556
ProbeTrack15	14	ProbeTrack	15.0	SCS215a	20120508.124907	20120508.130944	8	0.013328	60	10	60-180	60	100	GapExp	BigFlash	0	165	2	30	1	target	1	384	808	109468	13.328	12.363	14.297
ProbeTrack15	14	ProbeTrack	15.0	SCS215a	20120508.124907	20120508.130951	8	0.013328	60	10	60-180	60	72	GapExp	BigFlash	0	166	2	0	1	target	1	396	802	110270	13.328	11.564	15.085
ProbeTrack15	14	ProbeTrack	15.0	SCS215a	20120508.124907	20120508.130956	8	0.013328	60	10	60-180	60	84	GapExp	BigFlash	0	167	2	0	1	target	1	330	835	111105	13.328	13.304	13.346
ProbeTrack15	14	ProbeTrack	15.0	SCS215a	20120508.124907	20120508.131002	8	0.013328	60	10	60-180	60	92	GapExp	BigFlash	0	168	2	1	0	distractor	1	426	787	111892	13.328	13.269	13.375
ProbeTrack15	14	ProbeTrack	15.0	SCS215a	20120508.124907	20120508.131008	8	0.013328	60	10	60-180	60	107	GapExp	BigFlash	0	169	2	1	1	target	1	359	821	112713	13.328	13.308	13.345
ProbeTrack15	14	ProbeTrack	15.0	SCS215a	20120508.124907	20120508.131014	8	0.013328	60	10	60-180	60	92	GapExp	BigFlash	0	170	2	0	1	target	1	333	834	113547	13.328	13.028	13.617
ProbeTrack15	14	ProbeTrack	15.0	SCS215a	20120508.124907	20120508.131019	8	0.013328	60	10	60-180	60	107	GapExp	BigFlash	0	171	2	0	0	distractor	1	496	752	114299	13.501	3.730	36.250
ProbeTrack15	14	ProbeTrack	15.0	SCS215a	20120508.124907	20120508.131025	8	0.013328	60	10	60-180	60	106	GapExp	BigFlash	0	172	2	3	1	early	-4	-3250	-1000	113299	13.328	10.176	16.472
ProbeTrack15	14	ProbeTrack	15.0	SCS215a	20120508.124907	20120508.131031	8	0.013328	60	10	60-180	60	154	GapExp	BigFlash	0	173	2	1	0	distractor	1	507	747	114046	13.328	13.299	13.364
ProbeTrack15	14	ProbeTrack	15.0	SCS215a	20120508.124907	20120508.131038	8	0.013328	60	10	60-180	60	105	GapExp	BigFlash	0	174	2	3	1	target	1	397	802	114848	13.328	11.773	14.884
ProbeTrack15	14	ProbeTrack	15.0	SCS215a	20120508.124907	20120508.131044	8	0.013328	60	10	60-180	60	106	GapExp	BigFlash	0	175	2	1	0	distractor	1	427	787	115635	13.328	10.327	16.330
ProbeTrack15	14	ProbeTrack	15.0	SCS215a	20120508.124907	20120508.131050	8	0.013328	60	10	60-180	60	173	GapExp	BigFlash	0	176	2	0	0	distractor	1	438	781	116416	13.328	12.852	13.820
ProbeTrack15	14	ProbeTrack	15.0	SCS215a	20120508.124907	20120508.131057	8	0.013328	60	10	60-180	60	140	GapExp	BigFlash	0	177	2	1	0	distractor	1	453	774	117190	13.328	13.087	13.566
ProbeTrack15	14	ProbeTrack	15.0	SCS215a	20120508.124907	20120508.131104	8	0.013328	60	10	60-180	60	78	GapExp	BigFlash	0	178	2	30	1	target	1	477	762	117952	13.328	11.773	14.872
ProbeTrack15	14	ProbeTrack	15.0	SCS215a	20120508.124907	20120508.131110	8	0.013328	60	10	60-180	60	139	GapExp	BigFlash	0	179	2	30	1	target	1	362	819	118771	13.328	13.098	13.565
ProbeTrack15	14	ProbeTrack	15.0	SCS215a	20120508.124907	20120508.131117	8	0.013328	60	10	60-180	60	169	GapExp	BigFlash	0	180	2	30	1	target	1	371	815	119586	13.328	13.307	13.348
ProbeTrack15	14	ProbeTrack	15.0	SCS215a	20120508.124907	20120508.131124	8	0.013328	60	10	60-180	60	107	GapExp	BigFlash	0	181	2	3	0	distractor	1	395	803	120389	13.328	9.784	16.875
ProbeTrack15	14	ProbeTrack	15.0	SCS215a	20120508.124907	20120508.131130	8	0.013328	60	10	60-180	60	102	GapExp	BigFlash	0	182	2	30	1	target	1	383	809	121198	13.328	13.105	13.550
ProbeTrack15	14	ProbeTrack	15.0	SCS215a	20120508.124907	20120508.131136	8	0.013328	60	10	60-180	60	133	GapExp	BigFlash	0	183	2	30	1	target	1	310	845	122043	13.328	13.077	13.597
ProbeTrack15	14	ProbeTrack	15.0	SCS215a	20120508.124907	20120508.131143	8	0.013328	60	10	60-180	60	161	GapExp	BigFlash	0	184	2	1	0	distractor	1	451	775	122818	13.328	13.257	13.386
ProbeTrack15	14	ProbeTrack	15.0	SCS215a	20120508.124907	20120508.131149	8	0.013328	60	10	60-180	60	91	GapExp	BigFlash	0	185	2	0	0	distractor	1	641	680	123498	13.328	13.306	13.349
ProbeTrack15	14	ProbeTrack	15.0	SCS215a	20120508.124907	20120508.131155	8	0.013328	60	10	60-180	60	104	GapExp	BigFlash	0	186	2	0	0	distractor	1	455	773	124271	13.565	3.799	43.783
ProbeTrack15	14	ProbeTrack	15.0	SCS215a	20120508.124907	20120508.131202	8	0.013328	60	10	60-180	60	137	GapExp	BigFlash	0	187	2	1	1	target	1	376	812	125083	13.328	13.301	13.349
ProbeTrack15	14	ProbeTrack	15.0	SCS215a	20120508.124907	20120508.131208	8	0.013328	60	10	60-180	60	103	GapExp	BigFlash	0	188	2	1	0	distractor	1	426	787	125870	13.328	13.309	13.349
ProbeTrack15	14	ProbeTrack	15.0	SCS215a	20120508.124907	20120508.131215	8	0.013328	60	10	60-180	60	84	GapExp	BigFlash	0	189	2	0	1	early	-4	-2919	-1000	124870	13.328	12.415	14.238
ProbeTrack15	14	ProbeTrack	15.0	SCS215a	20120508.124907	20120508.131220	8	0.013328	60	10	60-180	60	110	GapExp	BigFlash	0	190	2	1	1	target	1	403	799	125669	13.328	13.309	13.343
ProbeTrack15	14	ProbeTrack	15.0	SCS215a	20120508.124907	20120508.131226	8	0.013328	60	10	60-180	60	164	GapExp	BigFlash	0	191	2	3	1	target	1	318	841	126510	13.312	9.061	13.542
ProbeTrack15	14	ProbeTrack	15.0	SCS215a	20120508.124907	20120508.131232	8	0.013328	60	10	60-180	60	103	GapExp	BigFlash	0	192	2	1	1	target	1	350	825	127335	13.328	13.298	13.347
ProbeTrack15	14	ProbeTrack	15.0	SCS215a	20120508.124907	20120508.131238	8	0.013328	60	10	60-180	60	157	GapExp	BigFlash	0	193	2	0	1	target	1	328	836	128171	13.328	13.307	13.349
ProbeTrack15	14	ProbeTrack	15.0	SCS215a	20120508.124907	20120508.131245	8	0.013328	60	10	60-180	60	180	GapExp	BigFlash	0	194	2	0	1	target	1	367	817	128988	13.328	13.305	13.358
ProbeTrack15	14	ProbeTrack	15.0	SCS215a	20120508.124907	20120508.131252	8	0.013328	60	10	60-180	60	137	GapExp	BigFlash	0	195	2	0	1	target	1	356	822	129810	13.328	13.290	13.359
ProbeTrack15	14	ProbeTrack	15.0	SCS215a	20120508.124907	20120508.131258	8	0.013328	60	10	60-180	60	142	GapExp	BigFlash	0	196	2	0	1	target	1	386	807	130617	13.328	13.308	13.347
ProbeTrack15	14	ProbeTrack	15.0	SCS215a	20120508.124907	20120508.131304	8	0.013328	60	10	60-180	60	157	GapExp	BigFlash	0	197	2	0	0	distractor	1	455	773	131390	13.328	10.759	15.905
ProbeTrack15	14	ProbeTrack	15.0	SCS215a	20120508.124907	20120508.131311	8	0.013328	60	10	60-180	60	125	GapExp	BigFlash	0	198	2	1	0	distractor	1	474	763	132153	13.328	13.185	13.488
ProbeTrack15	14	ProbeTrack	15.0	SCS215a	20120508.124907	20120508.131318	8	0.013328	60	10	60-180	60	95	GapExp	BigFlash	0	199	2	30	1	target	1	358	821	132974	13.328	11.259	15.399
ProbeTrack15	14	ProbeTrack	15.0	SCS215a	20120508.124907	20120508.131324	8	0.013328	60	10	60-180	60	89	GapExp	BigFlash	0	200	2	30	0	distractor	1	358	821	133795	13.328	10.756	15.891
ProbeTrack15	14	ProbeTrack	15.0	SCS215a	20120508.131923	20120508.131953	8	0.013328	60	10	60-180	60	163	GapExp	SmallFlash	1	1	2	0	1	target	1	265	868	134663	13.377	12.937	13.731
ProbeTrack15	14	ProbeTrack	15.0	SCS215a	20120508.131923	20120508.132002	8	0.013328	60	10	60-180	60	77	GapExp	SmallFlash	1	2	2	3	1	target	1	336	832	135495	13.328	13.110	13.551
ProbeTrack15	14	ProbeTrack	15.0	SCS215a	20120508.131923	20120508.132008	8	0.013328	60	10	60-180	60	120	GapExp	SmallFlash	1	3	2	1	1	target	1	556	722	136217	13.328	12.918	13.745
ProbeTrack15	14	ProbeTrack	15.0	SCS215a	20120508.131923	20120508.132014	8	0.013328	60	10	60-180	60	167	GapExp	SmallFlash	1	4	2	0	0	distractor	1	427	787	137004	13.328	12.852	13.787
ProbeTrack15	14	ProbeTrack	15.0	SCS215a	20120508.131923	20120508.132020	8	0.013328	60	10	60-180	60	180	GapExp	SmallFlash	1	5	2	1	0	early	-4	-4236	-1000	136004	13.328	13.308	13.350
ProbeTrack15	14	ProbeTrack	15.0	SCS215a	20120508.131923	20120508.132027	8	0.013328	60	10	60-180	60	165	GapExp	SmallFlash	1	6	2	30	0	distractor	1	482	759	136763	13.328	13.306	13.346
ProbeTrack15	14	ProbeTrack	15.0	SCS215a	20120508.131923	20120508.132035	8	0.013328	60	10	60-180	60	81	GapExp	SmallFlash	1	7	2	30	1	target	1	444	778	137541	13.328	13.310	13.347
ProbeTrack15	14	ProbeTrack	15.0	SCS215a	20120508.131923	20120508.132041	8	0.013328	60	10	60-180	60	102	GapExp	SmallFlash	1	8	2	3	0	distractor	1	447	777	138318	13.328	13.303	13.349
ProbeTrack15	14	ProbeTrack	15.0	SCS215a	20120508.131923	20120508.132046	8	0.013328	60	10	60-180	60	105	GapExp	SmallFlash	0	9	2	3	0	distractor	1	492	754	139072	13.328	12.890	13.775
ProbeTrack15	14	ProbeTrack	15.0	SCS215a	20120508.131923	20120508.132052	8	0.013328	60	10	60-180	60	99	GapExp	SmallFlash	0	10	2	0	0	early	-4	-3128	-1000	138072	13.328	12.865	13.792
ProbeTrack15	14	ProbeTrack	15.0	SCS215a	20120508.131923	20120508.132058	8	0.013328	60	10	60-180	60	131	GapExp	SmallFlash	0	11	2	30	1	target	1	349	826	138898	13.328	12.911	13.756
ProbeTrack15	14	ProbeTrack	15.0	SCS215a	20120508.131923	20120508.132104	8	0.013328	60	10	60-180	60	84	GapExp	SmallFlash	0	12	2	3	0	distractor	1	445	778	139676	13.328	13.096	13.566
ProbeTrack15	14	ProbeTrack	15.0	SCS215a	20120508.131923	20120508.132110	8	0.013328	60	10	60-180	60	115	GapExp	SmallFlash	0	13	2	3	1	target	1	359	821	140497	13.328	13.305	13.344
ProbeTrack15	14	ProbeTrack	15.0	SCS215a	20120508.131923	20120508.132116	8	0.013328	60	10	60-180	60	110	GapExp	SmallFlash	0	14	2	3	0	distractor	1	434	783	141280	13.328	13.276	13.373
ProbeTrack15	14	ProbeTrack	15.0	SCS215a	20120508.131923	20120508.132122	8	0.013328	60	10	60-180	60	173	GapExp	SmallFlash	0	15	2	3	1	early	-4	-4157	-1000	140280	13.328	13.296	13.348
ProbeTrack15	14	ProbeTrack	15.0	SCS215a	20120508.131923	20120508.132129	8	0.013328	60	10	60-180	60	93	GapExp	SmallFlash	0	16	2	1	0	distractor	1	428	786	141066	13.328	13.309	13.354
ProbeTrack15	14	ProbeTrack	15.0	SCS215a	20120508.131923	20120508.132135	8	0.013328	60	10	60-180	60	149	GapExp	SmallFlash	0	17	2	1	0	distractor	1	455	773	141839	13.328	12.858	13.809
ProbeTrack15	14	ProbeTrack	15.0	SCS215a	20120508.131923	20120508.132141	8	0.013328	60	10	60-180	60	131	GapExp	SmallFlash	0	18	2	0	0	early	-4	-3561	-1000	140839	13.328	13.093	13.564
ProbeTrack15	14	ProbeTrack	15.0	SCS215a	20120508.131923	20120508.132148	8	0.013328	60	10	60-180	60	143	GapExp	SmallFlash	0	19	2	0	1	early	-4	-3700	-1000	139839	13.328	12.868	13.785
ProbeTrack15	14	ProbeTrack	15.0	SCS215a	20120508.131923	20120508.132154	8	0.013328	60	10	60-180	60	101	GapExp	SmallFlash	0	20	2	30	0	distractor	1	496	752	140591	13.328	12.847	13.802
ProbeTrack15	14	ProbeTrack	15.0	SCS215a	20120508.131923	20120508.132200	8	0.013328	60	10	60-180	60	152	GapExp	SmallFlash	0	21	2	1	0	early	-4	-3850	-1000	139591	13.328	13.092	13.551
ProbeTrack15	14	ProbeTrack	15.0	SCS215a	20120508.131923	20120508.132207	8	0.013328	60	10	60-180	60	142	GapExp	SmallFlash	0	22	2	1	1	target	1	338	831	140422	13.328	12.955	13.700
ProbeTrack15	14	ProbeTrack	15.0	SCS215a	20120508.131923	20120508.132214	8	0.013328	60	10	60-180	60	123	GapExp	SmallFlash	0	23	2	0	0	distractor	1	424	788	141210	13.328	13.101	13.551
ProbeTrack15	14	ProbeTrack	15.0	SCS215a	20120508.131923	20120508.132220	8	0.013328	60	10	60-180	60	120	GapExp	SmallFlash	0	24	2	1	1	target	1	366	817	142027	13.328	12.864	13.803
ProbeTrack15	14	ProbeTrack	15.0	SCS215a	20120508.131923	20120508.132225	8	0.013328	60	10	60-180	60	104	GapExp	SmallFlash	0	25	2	0	1	target	1	361	820	142847	13.328	12.868	13.799
ProbeTrack15	14	ProbeTrack	15.0	SCS215a	20120508.131923	20120508.132232	8	0.013328	60	10	60-180	60	133	GapExp	SmallFlash	0	26	2	30	1	target	1	333	834	143681	13.328	13.307	13.348
ProbeTrack15	14	ProbeTrack	15.0	SCS215a	20120508.131923	20120508.132239	8	0.013328	60	10	60-180	60	99	GapExp	SmallFlash	0	27	2	0	0	distractor	1	503	749	144430	13.328	13.302	13.349
ProbeTrack15	14	ProbeTrack	15.0	SCS215a	20120508.131923	20120508.132245	8	0.013328	60	10	60-180	60	148	GapExp	SmallFlash	0	28	2	30	1	early	-4	-4177	-1000	143430	13.329	13.303	13.770
ProbeTrack15	14	ProbeTrack	15.0	SCS215a	20120508.131923	20120508.132252	8	0.013328	60	10	60-180	60	96	GapExp	SmallFlash	0	29	2	0	0	distractor	1	515	743	144173	13.328	13.293	13.362
ProbeTrack15	14	ProbeTrack	15.0	SCS215a	20120508.131923	20120508.132258	8	0.013328	60	10	60-180	60	64	GapExp	SmallFlash	0	30	2	1	0	distractor	1	493	754	144927	13.328	12.880	13.778
ProbeTrack15	14	ProbeTrack	15.0	SCS215a	20120508.131923	20120508.132303	8	0.013328	60	10	60-180	60	174	GapExp	SmallFlash	0	31	2	1	1	target	1	299	851	145778	13.328	12.960	13.709
ProbeTrack15	14	ProbeTrack	15.0	SCS215a	20120508.131923	20120508.132310	8	0.013328	60	10	60-180	60	114	GapExp	SmallFlash	0	32	2	30	1	target	1	309	846	146624	13.328	13.092	13.566
ProbeTrack15	14	ProbeTrack	15.0	SCS215a	20120508.131923	20120508.132316	8	0.013328	60	10	60-180	60	174	GapExp	SmallFlash	0	33	2	3	0	distractor	1	409	796	147420	13.328	13.090	13.573
ProbeTrack15	14	ProbeTrack	15.0	SCS215a	20120508.131923	20120508.132323	8	0.013328	60	10	60-180	60	129	GapExp	SmallFlash	0	34	2	30	0	distractor	1	472	764	148184	13.328	13.305	13.344
ProbeTrack15	14	ProbeTrack	15.0	SCS215a	20120508.131923	20120508.132329	8	0.013328	60	10	60-180	60	144	GapExp	SmallFlash	0	35	2	30	1	early	-4	-4116	-1000	147184	13.328	13.080	13.582
ProbeTrack15	14	ProbeTrack	15.0	SCS215a	20120508.131923	20120508.132336	8	0.013328	60	10	60-180	60	117	GapExp	SmallFlash	0	36	2	0	1	target	1	318	841	148025	13.328	13.307	13.349
ProbeTrack15	14	ProbeTrack	15.0	SCS215a	20120508.131923	20120508.132342	8	0.013328	60	10	60-180	60	107	GapExp	SmallFlash	0	37	2	30	0	distractor	1	474	763	148788	13.328	13.308	13.348
ProbeTrack15	14	ProbeTrack	15.0	SCS215a	20120508.131923	20120508.132349	8	0.013328	60	10	60-180	60	173	GapExp	SmallFlash	0	38	2	3	0	distractor	1	433	784	149572	13.328	12.889	13.767
ProbeTrack15	14	ProbeTrack	15.0	SCS215a	20120508.131923	20120508.132356	8	0.013328	60	10	60-180	60	85	GapExp	SmallFlash	0	39	2	1	1	target	1	344	828	150400	13.328	13.307	13.348
ProbeTrack15	14	ProbeTrack	15.0	SCS215a	20120508.131923	20120508.132401	8	0.013328	60	10	60-180	60	104	GapExp	SmallFlash	0	40	2	0	1	target	1	315	843	151243	13.328	12.935	13.720
ProbeTrack15	14	ProbeTrack	15.0	SCS215a	20120508.131923	20120508.132407	8	0.013328	60	10	60-180	60	78	GapExp	SmallFlash	0	41	2	3	1	target	1	337	832	152075	13.328	12.847	13.812
ProbeTrack15	14	ProbeTrack	15.0	SCS215a	20120508.131923	20120508.132412	8	0.013328	60	10	60-180	60	167	GapExp	SmallFlash	0	42	2	0	1	target	1	374	813	152888	13.328	13.008	13.655
ProbeTrack15	14	ProbeTrack	15.0	SCS215a	20120508.131923	20120508.132427	8	0.013328	60	10	60-180	60	147	GapExp	SmallFlash	0	43	2	0	1	target	1	301	850	153738	13.328	12.860	13.786
ProbeTrack15	14	ProbeTrack	15.0	SCS215a	20120508.131923	20120508.132434	8	0.013328	60	10	60-180	60	71	GapExp	SmallFlash	0	44	2	1	1	target	1	412	794	154532	13.328	13.308	13.348
ProbeTrack15	14	ProbeTrack	15.0	SCS215a	20120508.131923	20120508.132439	8	0.013328	60	10	60-180	60	81	GapExp	SmallFlash	0	45	2	1	1	target	1	269	866	155398	13.328	13.313	13.349
ProbeTrack15	14	ProbeTrack	15.0	SCS215a	20120508.131923	20120508.132444	8	0.013328	60	10	60-180	60	124	GapExp	SmallFlash	0	46	2	1	0	distractor	1	332	834	156232	13.328	13.309	13.346
ProbeTrack15	14	ProbeTrack	15.0	SCS215a	20120508.131923	20120508.132450	8	0.013328	60	10	60-180	60	165	GapExp	SmallFlash	0	47	2	1	1	target	1	243	879	157111	13.328	13.101	13.571
ProbeTrack15	14	ProbeTrack	15.0	SCS215a	20120508.131923	20120508.132456	8	0.013328	60	10	60-180	60	61	GapExp	SmallFlash	0	48	2	3	1	target	1	275	863	157974	13.328	13.112	13.550
ProbeTrack15	14	ProbeTrack	15.0	SCS215a	20120508.131923	20120508.132502	8	0.013328	60	10	60-180	60	142	GapExp	SmallFlash	0	49	2	0	1	distractor	0	288	-1000	156974	13.328	12.989	13.660
ProbeTrack15	14	ProbeTrack	15.0	SCS215a	20120508.131923	20120508.132508	8	0.013328	60	10	60-180	60	92	GapExp	SmallFlash	0	50	2	3	1	target	1	294	853	157827	13.328	13.303	13.344
ProbeTrack15	14	ProbeTrack	15.0	SCS215a	20120508.131923	20120508.132514	8	0.013328	60	10	60-180	60	109	GapExp	SmallFlash	0	51	2	1	1	target	1	272	864	158691	13.328	13.309	13.344
ProbeTrack15	14	ProbeTrack	15.0	SCS215a	20120508.131923	20120508.132519	8	0.013328	60	10	60-180	60	102	GapExp	SmallFlash	0	52	2	3	1	target	1	273	864	159555	13.328	12.880	13.758
ProbeTrack15	14	ProbeTrack	15.0	SCS215a	20120508.131923	20120508.132525	8	0.013328	60	10	60-180	60	80	GapExp	SmallFlash	0	53	2	1	1	target	1	271	865	160420	13.328	12.948	13.723
ProbeTrack15	14	ProbeTrack	15.0	SCS215a	20120508.131923	20120508.132530	8	0.013328	60	10	60-180	60	124	GapExp	SmallFlash	0	54	2	30	0	distractor	1	408	796	161216	13.328	13.112	13.542
ProbeTrack15	14	ProbeTrack	15.0	SCS215a	20120508.131923	20120508.132537	8	0.013328	60	10	60-180	60	153	GapExp	SmallFlash	0	55	2	0	1	early	-4	-3858	-1000	160216	13.328	12.926	13.739
ProbeTrack15	14	ProbeTrack	15.0	SCS215a	20120508.131923	20120508.132543	8	0.013328	60	10	60-180	60	98	GapExp	SmallFlash	0	56	2	0	1	target	1	277	862	161078	13.328	13.308	13.346
ProbeTrack15	14	ProbeTrack	15.0	SCS215a	20120508.131923	20120508.132548	8	0.013328	60	10	60-180	60	142	GapExp	SmallFlash	0	57	2	3	1	target	1	283	859	161937	13.328	13.033	13.623
ProbeTrack15	14	ProbeTrack	15.0	SCS215a	20120508.131923	20120508.132554	8	0.013328	60	10	60-180	60	110	GapExp	SmallFlash	0	58	2	0	0	distractor	1	421	790	162727	13.328	13.311	13.348
ProbeTrack15	14	ProbeTrack	15.0	SCS215a	20120508.131923	20120508.132600	8	0.013328	60	10	60-180	60	71	GapExp	SmallFlash	0	59	2	0	0	distractor	1	470	765	163492	13.328	13.103	13.544
ProbeTrack15	14	ProbeTrack	15.0	SCS215a	20120508.131923	20120508.132606	8	0.013328	60	10	60-180	60	144	GapExp	SmallFlash	0	60	2	0	0	early	-4	-3737	-1000	162492	13.328	12.916	13.744
ProbeTrack15	14	ProbeTrack	15.0	SCS215a	20120508.131923	20120508.132612	8	0.013328	60	10	60-180	60	138	GapExp	SmallFlash	0	61	2	30	1	early	-4	-4076	-1000	161492	13.328	13.304	13.345
ProbeTrack15	14	ProbeTrack	15.0	SCS215a	20120508.131923	20120508.132619	8	0.013328	60	10	60-180	60	130	GapExp	SmallFlash	0	62	2	1	0	distractor	1	404	798	162290	13.328	13.089	13.551
ProbeTrack15	14	ProbeTrack	15.0	SCS215a	20120508.131923	20120508.132625	8	0.013328	60	10	60-180	60	70	GapExp	SmallFlash	0	63	2	0	0	early	-4	-2754	-1000	161290	13.328	12.855	13.792
ProbeTrack15	14	ProbeTrack	15.0	SCS215a	20120508.131923	20120508.132630	8	0.013328	60	10	60-180	60	122	GapExp	SmallFlash	0	64	2	0	1	early	-4	-3457	-1000	160290	13.328	13.303	13.346
ProbeTrack15	14	ProbeTrack	15.0	SCS215a	20120508.131923	20120508.132636	8	0.013328	60	10	60-180	60	158	GapExp	SmallFlash	0	65	2	3	1	target	1	485	758	161048	13.328	13.307	13.355
ProbeTrack15	14	ProbeTrack	15.0	SCS215a	20120508.131923	20120508.132643	8	0.013328	60	10	60-180	60	135	GapExp	SmallFlash	0	66	2	1	1	target	1	291	855	161903	13.328	13.112	13.555
ProbeTrack15	14	ProbeTrack	15.0	SCS215a	20120508.131923	20120508.132649	8	0.013328	60	10	60-180	60	177	GapExp	SmallFlash	0	67	2	0	1	target	1	302	849	162752	13.328	13.300	13.352
ProbeTrack15	14	ProbeTrack	15.0	SCS215a	20120508.131923	20120508.132655	8	0.013328	60	10	60-180	60	165	GapExp	SmallFlash	0	68	2	3	1	target	1	308	846	163598	13.376	12.837	26.917
ProbeTrack15	14	ProbeTrack	15.0	SCS215a	20120508.131923	20120508.132702	8	0.013328	60	10	60-180	60	162	GapExp	SmallFlash	0	69	2	0	1	target	1	264	868	164466	13.328	13.112	13.559
ProbeTrack15	14	ProbeTrack	15.0	SCS215a	20120508.131923	20120508.132708	8	0.013328	60	10	60-180	60	161	GapExp	SmallFlash	0	70	2	30	0	distractor	1	498	751	165217	13.328	13.061	13.596
ProbeTrack15	14	ProbeTrack	15.0	SCS215a	20120508.131923	20120508.132716	8	0.013328	60	10	60-180	60	109	GapExp	SmallFlash	0	71	2	3	0	distractor	1	484	758	165975	13.328	12.989	13.677
ProbeTrack15	14	ProbeTrack	15.0	SCS215a	20120508.131923	20120508.132722	8	0.013328	60	10	60-180	60	62	GapExp	SmallFlash	0	72	2	0	0	distractor	1	604	698	166673	13.328	13.303	13.347
ProbeTrack15	14	ProbeTrack	15.0	SCS215a	20120508.131923	20120508.132727	8	0.013328	60	10	60-180	60	163	GapExp	SmallFlash	0	73	2	3	0	early	-4	-4047	-1000	165673	13.328	12.916	13.746
ProbeTrack15	14	ProbeTrack	15.0	SCS215a	20120508.131923	20120508.132734	8	0.013328	60	10	60-180	60	84	GapExp	SmallFlash	0	74	2	30	0	distractor	1	411	795	166468	13.328	13.274	13.369
ProbeTrack15	14	ProbeTrack	15.0	SCS215a	20120508.131923	20120508.132739	8	0.013328	60	10	60-180	60	109	GapExp	SmallFlash	0	75	2	30	1	early	-4	-3700	-1000	165468	13.328	13.302	13.353
ProbeTrack15	14	ProbeTrack	15.0	SCS215a	20120508.131923	20120508.132745	8	0.013328	60	10	60-180	60	124	GapExp	SmallFlash	0	76	2	3	0	early	-4	-3537	-1000	164468	13.328	13.088	13.555
ProbeTrack15	14	ProbeTrack	15.0	SCS215a	20120508.131923	20120508.132752	8	0.013328	60	10	60-180	60	122	GapExp	SmallFlash	0	77	2	1	1	target	1	262	869	165337	13.328	12.958	13.691
ProbeTrack15	14	ProbeTrack	15.0	SCS215a	20120508.131923	20120508.132759	8	0.013328	60	10	60-180	60	152	GapExp	SmallFlash	0	78	2	30	1	target	1	342	829	166166	13.328	12.837	13.819
ProbeTrack15	14	ProbeTrack	15.0	SCS215a	20120508.131923	20120508.132805	8	0.013328	60	10	60-180	60	123	GapExp	SmallFlash	0	79	2	1	0	distractor	1	355	823	166989	13.328	12.894	13.769
ProbeTrack15	14	ProbeTrack	15.0	SCS215a	20120508.131923	20120508.132811	8	0.013328	60	10	60-180	60	174	GapExp	SmallFlash	0	80	2	0	0	early	-4	-4167	-1000	165989	13.328	12.927	13.729
ProbeTrack15	14	ProbeTrack	15.0	SCS215a	20120508.131923	20120508.132818	8	0.013328	60	10	60-180	60	90	GapExp	SmallFlash	0	81	2	1	1	target	1	316	842	166831	13.328	12.976	13.674
ProbeTrack15	14	ProbeTrack	15.0	SCS215a	20120508.131923	20120508.132825	8	0.013328	60	10	60-180	60	167	GapExp	SmallFlash	0	82	2	0	0	distractor	1	426	787	167618	13.328	12.997	13.660
ProbeTrack15	14	ProbeTrack	15.0	SCS215a	20120508.131923	20120508.132831	8	0.013328	60	10	60-180	60	86	GapExp	SmallFlash	0	83	2	30	1	target	1	325	838	168456	13.328	13.305	13.351
ProbeTrack15	14	ProbeTrack	15.0	SCS215a	20120508.131923	20120508.132837	8	0.013328	60	10	60-180	60	73	GapExp	SmallFlash	0	84	2	30	0	distractor	1	374	813	169269	13.328	13.308	13.345
ProbeTrack15	14	ProbeTrack	15.0	SCS215a	20120508.131923	20120508.132843	8	0.013328	60	10	60-180	60	79	GapExp	SmallFlash	0	85	2	3	0	distractor	1	487	757	170026	13.328	12.888	13.759
ProbeTrack15	14	ProbeTrack	15.0	SCS215a	20120508.131923	20120508.132848	8	0.013328	60	10	60-180	60	113	GapExp	SmallFlash	0	86	2	1	1	target	1	297	852	170878	13.328	13.029	13.621
ProbeTrack15	14	ProbeTrack	15.0	SCS215a	20120508.131923	20120508.132854	8	0.013328	60	10	60-180	60	105	GapExp	SmallFlash	0	87	2	30	1	target	1	399	801	171679	13.328	13.111	13.557
ProbeTrack15	14	ProbeTrack	15.0	SCS215a	20120508.131923	20120508.132900	8	0.013328	60	10	60-180	60	146	GapExp	SmallFlash	0	88	2	0	0	distractor	1	534	733	172412	13.328	13.259	13.399
ProbeTrack15	14	ProbeTrack	15.0	SCS215a	20120508.131923	20120508.132906	8	0.013328	60	10	60-180	60	68	GapExp	SmallFlash	0	89	2	30	0	distractor	1	415	793	173205	13.328	13.308	13.350
ProbeTrack15	14	ProbeTrack	15.0	SCS215a	20120508.131923	20120508.132912	8	0.013328	60	10	60-180	60	105	GapExp	SmallFlash	0	90	2	0	0	distractor	1	395	803	174008	13.328	12.866	13.804
ProbeTrack15	14	ProbeTrack	15.0	SCS215a	20120508.131923	20120508.132918	8	0.013328	60	10	60-180	60	153	GapExp	SmallFlash	0	91	2	1	0	early	-4	-3874	-1000	173008	13.328	13.308	13.344
ProbeTrack15	14	ProbeTrack	15.0	SCS215a	20120508.131923	20120508.132924	8	0.013328	60	10	60-180	60	150	GapExp	SmallFlash	0	92	2	1	0	distractor	1	398	801	173809	13.328	12.891	13.794
ProbeTrack15	14	ProbeTrack	15.0	SCS215a	20120508.131923	20120508.132931	8	0.013328	60	10	60-180	60	108	GapExp	SmallFlash	0	93	2	30	1	early	-4	-3638	-1000	172809	13.328	13.309	13.348
ProbeTrack15	14	ProbeTrack	15.0	SCS215a	20120508.131923	20120508.132937	8	0.013328	60	10	60-180	60	174	GapExp	SmallFlash	0	94	2	1	1	target	1	274	863	173672	13.328	13.114	13.543
ProbeTrack15	14	ProbeTrack	15.0	SCS215a	20120508.131923	20120508.132944	8	0.013328	60	10	60-180	60	117	GapExp	SmallFlash	0	95	2	3	0	distractor	1	455	773	174445	13.328	13.103	13.554
ProbeTrack15	14	ProbeTrack	15.0	SCS215a	20120508.131923	20120508.132950	8	0.013328	60	10	60-180	60	113	GapExp	SmallFlash	0	96	2	1	1	target	1	341	830	175275	13.328	13.105	13.544
ProbeTrack15	14	ProbeTrack	15.0	SCS215a	20120508.131923	20120508.132956	8	0.013328	60	10	60-180	60	140	GapExp	SmallFlash	0	97	2	3	0	distractor	1	408	796	176071	13.328	13.086	13.562
ProbeTrack15	14	ProbeTrack	15.0	SCS215a	20120508.131923	20120508.133003	8	0.013328	60	10	60-180	60	161	GapExp	SmallFlash	0	98	2	0	1	target	1	303	849	176920	13.328	13.306	13.347
ProbeTrack15	14	ProbeTrack	15.0	SCS215a	20120508.131923	20120508.133009	8	0.013328	60	10	60-180	60	117	GapExp	SmallFlash	0	99	2	3	0	distractor	1	383	809	177729	13.328	12.838	13.811
ProbeTrack15	14	ProbeTrack	15.0	SCS215a	20120508.131923	20120508.133015	8	0.013328	60	10	60-180	60	148	GapExp	SmallFlash	0	100	2	1	0	distractor	1	476	762	178491	13.328	12.442	14.210
ProbeTrack15	14	ProbeTrack	15.0	SCS215a	20120508.131923	20120508.133021	8	0.013328	60	10	60-180	60	110	GapExp	SmallFlash	0	101	2	3	1	target	1	366	817	179308	13.328	13.304	13.352
ProbeTrack15	14	ProbeTrack	15.0	SCS215a	20120508.131923	20120508.133027	8	0.013328	60	10	60-180	60	111	GapExp	SmallFlash	0	102	2	1	0	distractor	1	542	729	180037	13.328	13.307	13.345
ProbeTrack15	14	ProbeTrack	15.0	SCS215a	20120508.131923	20120508.133034	8	0.013328	60	10	60-180	60	132	GapExp	SmallFlash	0	103	2	0	0	distractor	1	370	815	180852	13.328	13.086	13.562
ProbeTrack15	14	ProbeTrack	15.0	SCS215a	20120508.131923	20120508.133040	8	0.013328	60	10	60-180	60	151	GapExp	SmallFlash	0	104	2	1	0	distractor	1	556	722	181574	13.328	13.265	13.383
ProbeTrack15	14	ProbeTrack	15.0	SCS215a	20120508.131923	20120508.133047	8	0.013328	60	10	60-180	60	81	GapExp	SmallFlash	0	105	2	30	1	early	-4	-3303	-1000	180574	13.328	13.105	13.555
ProbeTrack15	14	ProbeTrack	15.0	SCS215a	20120508.131923	20120508.133053	8	0.013328	60	10	60-180	60	166	GapExp	SmallFlash	0	106	2	1	0	distractor	1	439	781	181355	13.328	13.102	13.557
ProbeTrack15	14	ProbeTrack	15.0	SCS215a	20120508.131923	20120508.133059	8	0.013328	60	10	60-180	60	105	GapExp	SmallFlash	0	107	2	1	1	early	-4	-3251	-1000	180355	13.328	13.085	13.564
ProbeTrack15	14	ProbeTrack	15.0	SCS215a	20120508.131923	20120508.133106	8	0.013328	60	10	60-180	60	84	GapExp	SmallFlash	0	108	2	30	0	distractor	1	471	765	181120	13.328	13.106	13.556
ProbeTrack15	14	ProbeTrack	15.0	SCS215a	20120508.131923	20120508.133112	8	0.013328	60	10	60-180	60	103	GapExp	SmallFlash	0	109	2	1	1	early	-4	-3236	-1000	180120	13.328	12.874	13.780
ProbeTrack15	14	ProbeTrack	15.0	SCS215a	20120508.131923	20120508.133117	8	0.013328	60	10	60-180	60	180	GapExp	SmallFlash	0	110	2	30	0	distractor	1	499	751	180871	13.368	12.875	26.593
ProbeTrack15	14	ProbeTrack	15.0	SCS215a	20120508.131923	20120508.133125	8	0.013328	60	10	60-180	60	91	GapExp	SmallFlash	0	111	2	1	1	target	1	370	815	181686	13.328	12.937	13.715
ProbeTrack15	14	ProbeTrack	15.0	SCS215a	20120508.131923	20120508.133130	8	0.013328	60	10	60-180	60	135	GapExp	SmallFlash	0	112	2	1	1	target	1	368	816	182502	13.328	12.861	13.790
ProbeTrack15	14	ProbeTrack	15.0	SCS215a	20120508.131923	20120508.133137	8	0.013328	60	10	60-180	60	179	GapExp	SmallFlash	0	113	2	0	1	target	1	443	779	183281	13.328	12.947	13.697
ProbeTrack15	14	ProbeTrack	15.0	SCS215a	20120508.131923	20120508.133143	8	0.013328	60	10	60-180	60	94	GapExp	SmallFlash	0	114	2	3	1	target	1	383	809	184090	13.328	12.979	13.662
ProbeTrack15	14	ProbeTrack	15.0	SCS215a	20120508.131923	20120508.133149	8	0.013328	60	10	60-180	60	162	GapExp	SmallFlash	0	115	2	30	1	target	1	327	837	184927	13.328	13.096	13.546
ProbeTrack15	14	ProbeTrack	15.0	SCS215a	20120508.131923	20120508.133155	8	0.013328	60	10	60-180	60	108	GapExp	SmallFlash	0	116	2	0	1	target	1	366	817	185744	13.635	12.937	53.347
ProbeTrack15	14	ProbeTrack	15.0	SCS215a	20120508.131923	20120508.133201	8	0.013328	60	10	60-180	60	172	GapExp	SmallFlash	0	117	2	1	0	distractor	1	365	818	186562	13.328	13.099	13.543
ProbeTrack15	14	ProbeTrack	15.0	SCS215a	20120508.131923	20120508.133208	8	0.013328	60	10	60-180	60	133	GapExp	SmallFlash	0	118	2	0	1	target	1	335	833	187395	13.328	13.075	13.593
ProbeTrack15	14	ProbeTrack	15.0	SCS215a	20120508.131923	20120508.133214	8	0.013328	60	10	60-180	60	110	GapExp	SmallFlash	0	119	2	0	0	distractor	1	496	752	188147	13.328	13.095	13.597
ProbeTrack15	14	ProbeTrack	15.0	SCS215a	20120508.131923	20120508.133220	8	0.013328	60	10	60-180	60	108	GapExp	SmallFlash	0	120	2	3	1	early	-4	-3306	-1000	187147	13.328	12.916	13.750
ProbeTrack15	14	ProbeTrack	15.0	SCS215a	20120508.131923	20120508.133226	8	0.013328	60	10	60-180	60	81	GapExp	SmallFlash	0	121	2	1	1	target	1	347	827	187974	13.328	12.839	13.818
ProbeTrack15	14	ProbeTrack	15.0	SCS215a	20120508.131923	20120508.133231	8	0.013328	60	10	60-180	60	116	GapExp	SmallFlash	0	122	2	1	0	distractor	1	439	781	188755	13.328	13.112	13.549
ProbeTrack15	14	ProbeTrack	15.0	SCS215a	20120508.131923	20120508.133238	8	0.013328	60	10	60-180	60	72	GapExp	SmallFlash	0	123	2	30	0	early	-4	-3179	-1000	187755	13.328	13.085	13.564
ProbeTrack15	14	ProbeTrack	15.0	SCS215a	20120508.131923	20120508.133244	8	0.013328	60	10	60-180	60	153	GapExp	SmallFlash	0	124	2	3	1	early	-4	-3896	-1000	186755	13.328	13.092	13.569
ProbeTrack15	14	ProbeTrack	15.0	SCS215a	20120508.131923	20120508.133250	8	0.013328	60	10	60-180	60	162	GapExp	SmallFlash	0	125	2	30	1	target	1	334	833	187588	13.328	13.292	13.358
ProbeTrack15	14	ProbeTrack	15.0	SCS215a	20120508.131923	20120508.133257	8	0.013328	60	10	60-180	60	148	GapExp	SmallFlash	0	126	2	0	1	target	1	284	858	188446	13.328	13.290	13.392
ProbeTrack15	14	ProbeTrack	15.0	SCS215a	20120508.131923	20120508.133303	8	0.013328	60	10	60-180	60	113	GapExp	SmallFlash	0	127	2	0	1	target	1	298	851	189297	13.328	13.309	13.348
ProbeTrack15	14	ProbeTrack	15.0	SCS215a	20120508.131923	20120508.133309	8	0.013328	60	10	60-180	60	159	GapExp	SmallFlash	0	128	2	30	1	target	1	281	860	190157	13.328	13.308	13.346
ProbeTrack15	14	ProbeTrack	15.0	SCS215a	20120508.131923	20120508.133316	8	0.013328	60	10	60-180	60	84	GapExp	SmallFlash	0	129	2	1	0	distractor	1	432	784	190941	13.328	13.304	13.353
ProbeTrack15	14	ProbeTrack	15.0	SCS215a	20120508.131923	20120508.133321	8	0.013328	60	10	60-180	60	125	GapExp	SmallFlash	0	130	2	3	1	early	-4	-3514	-1000	189941	13.328	13.098	13.550
ProbeTrack15	14	ProbeTrack	15.0	SCS215a	20120508.131923	20120508.133327	8	0.013328	60	10	60-180	60	96	GapExp	SmallFlash	0	131	2	0	0	distractor	1	380	810	190751	13.328	13.021	13.624
ProbeTrack15	14	ProbeTrack	15.0	SCS215a	20120508.131923	20120508.133333	8	0.013328	60	10	60-180	60	70	GapExp	SmallFlash	0	132	2	1	0	distractor	1	454	773	191524	13.328	13.305	13.350
ProbeTrack15	14	ProbeTrack	15.0	SCS215a	20120508.131923	20120508.133338	8	0.013328	60	10	60-180	60	68	GapExp	SmallFlash	0	133	2	0	1	target	1	379	811	192335	13.328	12.900	13.788
ProbeTrack15	14	ProbeTrack	15.0	SCS215a	20120508.131923	20120508.133343	8	0.013328	60	10	60-180	60	91	GapExp	SmallFlash	0	134	2	1	1	target	1	397	802	193137	13.328	13.307	13.346
ProbeTrack15	14	ProbeTrack	15.0	SCS215a	20120508.131923	20120508.133349	8	0.013328	60	10	60-180	60	140	GapExp	SmallFlash	0	135	2	1	0	distractor	1	349	826	193963	13.328	13.301	13.351
ProbeTrack15	14	ProbeTrack	15.0	SCS215a	20120508.131923	20120508.133357	8	0.013328	60	10	60-180	60	116	GapExp	SmallFlash	0	136	2	30	0	early	-4	-3747	-1000	192963	13.328	12.979	13.664
ProbeTrack15	14	ProbeTrack	15.0	SCS215a	20120508.131923	20120508.133403	8	0.013328	60	10	60-180	60	78	GapExp	SmallFlash	0	137	2	30	1	early	-4	-3256	-1000	191963	13.326	12.958	13.563
ProbeTrack15	14	ProbeTrack	15.0	SCS215a	20120508.131923	20120508.133409	8	0.013328	60	10	60-180	60	150	GapExp	SmallFlash	0	138	2	3	0	distractor	1	431	785	192748	13.328	13.112	13.558
ProbeTrack15	14	ProbeTrack	15.0	SCS215a	20120508.131923	20120508.133415	8	0.013328	60	10	60-180	60	139	GapExp	SmallFlash	0	139	2	0	1	target	1	295	853	193601	13.328	13.105	13.551
ProbeTrack15	14	ProbeTrack	15.0	SCS215a	20120508.131923	20120508.133422	8	0.013328	60	10	60-180	60	161	GapExp	SmallFlash	0	140	2	3	1	target	1	370	815	194416	13.328	12.947	13.737
ProbeTrack15	14	ProbeTrack	15.0	SCS215a	20120508.131923	20120508.133428	8	0.013328	60	10	60-180	60	100	GapExp	SmallFlash	0	141	2	3	1	target	1	381	810	195226	13.328	12.895	13.773
ProbeTrack15	14	ProbeTrack	15.0	SCS215a	20120508.131923	20120508.133434	8	0.013328	60	10	60-180	60	86	GapExp	SmallFlash	0	142	2	30	0	distractor	1	426	787	196013	13.328	13.308	13.347
ProbeTrack15	14	ProbeTrack	15.0	SCS215a	20120508.131923	20120508.133440	8	0.013328	60	10	60-180	60	72	GapExp	SmallFlash	0	143	2	3	0	early	-4	-2776	-1000	195013	13.328	13.307	13.345
ProbeTrack15	14	ProbeTrack	15.0	SCS215a	20120508.131923	20120508.133445	8	0.013328	60	10	60-180	60	157	GapExp	SmallFlash	0	144	2	1	0	distractor	1	397	802	195815	13.328	12.930	13.764
ProbeTrack15	14	ProbeTrack	15.0	SCS215a	20120508.131923	20120508.133453	8	0.013328	60	10	60-180	60	153	GapExp	SmallFlash	0	145	2	30	0	distractor	1	451	775	196590	13.328	13.099	13.565
ProbeTrack15	14	ProbeTrack	15.0	SCS215a	20120508.131923	20120508.133459	8	0.013328	60	10	60-180	60	68	GapExp	SmallFlash	0	146	2	0	0	distractor	1	914	543	197133	13.328	13.112	13.550
ProbeTrack15	14	ProbeTrack	15.0	SCS215a	20120508.131923	20120508.133505	8	0.013328	60	10	60-180	60	62	GapExp	SmallFlash	0	147	2	1	1	early	-4	-2636	-1000	196133	13.328	13.159	13.488
ProbeTrack15	14	ProbeTrack	15.0	SCS215a	20120508.131923	20120508.133510	8	0.013328	60	10	60-180	60	75	GapExp	SmallFlash	0	148	2	3	0	distractor	1	411	795	196928	13.328	13.280	13.376
ProbeTrack15	14	ProbeTrack	15.0	SCS215a	20120508.131923	20120508.133516	8	0.013328	60	10	60-180	60	105	GapExp	SmallFlash	0	149	2	30	1	target	1	379	811	197739	13.328	13.308	13.348
ProbeTrack15	14	ProbeTrack	15.0	SCS215a	20120508.131923	20120508.133522	8	0.013328	60	10	60-180	60	78	GapExp	SmallFlash	0	150	2	3	0	distractor	1	367	817	198556	13.328	13.299	13.351
ProbeTrack15	14	ProbeTrack	15.0	SCS215a	20120508.131923	20120508.133528	8	0.013328	60	10	60-180	60	104	GapExp	SmallFlash	0	151	2	30	0	distractor	1	430	785	199341	13.328	12.972	13.696
ProbeTrack15	14	ProbeTrack	15.0	SCS215a	20120508.131923	20120508.133534	8	0.013328	60	10	60-180	60	67	GapExp	SmallFlash	0	152	2	1	0	early	-4	-2806	-1000	198341	13.328	13.086	13.563
ProbeTrack15	14	ProbeTrack	15.0	SCS215a	20120508.131923	20120508.133539	8	0.013328	60	10	60-180	60	154	GapExp	SmallFlash	0	153	2	3	1	target	1	322	839	199180	13.328	13.301	13.349
ProbeTrack15	14	ProbeTrack	15.0	SCS215a	20120508.131923	20120508.133546	8	0.013328	60	10	60-180	60	155	GapExp	SmallFlash	0	154	2	30	1	target	1	387	807	199987	13.328	13.106	13.551
ProbeTrack15	14	ProbeTrack	15.0	SCS215a	20120508.131923	20120508.133553	8	0.013328	60	10	60-180	60	117	GapExp	SmallFlash	0	155	2	3	0	distractor	1	363	819	200806	13.328	13.235	13.427
ProbeTrack15	14	ProbeTrack	15.0	SCS215a	20120508.131923	20120508.133559	8	0.013328	60	10	60-180	60	94	GapExp	SmallFlash	0	156	2	3	1	target	1	384	808	201614	13.328	13.305	13.347
ProbeTrack15	14	ProbeTrack	15.0	SCS215a	20120508.131923	20120508.133605	8	0.013328	60	10	60-180	60	98	GapExp	SmallFlash	0	157	2	0	1	target	1	334	833	202447	13.328	13.309	13.348
ProbeTrack15	14	ProbeTrack	15.0	SCS215a	20120508.131923	20120508.133610	8	0.013328	60	10	60-180	60	122	GapExp	SmallFlash	0	158	2	30	1	target	1	352	824	203271	13.328	13.014	13.634
ProbeTrack15	14	ProbeTrack	15.0	SCS215a	20120508.131923	20120508.133616	8	0.013328	60	10	60-180	60	158	GapExp	SmallFlash	0	159	2	30	0	distractor	1	437	782	204053	13.328	12.878	13.767
ProbeTrack15	14	ProbeTrack	15.0	SCS215a	20120508.131923	20120508.133623	8	0.013328	60	10	60-180	60	105	GapExp	SmallFlash	0	160	2	0	0	early	-4	-3234	-1000	203053	13.328	13.105	13.549
ProbeTrack15	14	ProbeTrack	15.0	SCS215a	20120508.131923	20120508.133629	8	0.013328	60	10	60-180	60	103	GapExp	SmallFlash	0	161	2	30	0	early	-4	-3622	-1000	202053	13.328	13.099	13.558
ProbeTrack15	14	ProbeTrack	15.0	SCS215a	20120508.131923	20120508.133636	8	0.013328	60	10	60-180	60	71	GapExp	SmallFlash	0	162	2	30	0	distractor	1	497	752	202805	13.328	12.877	13.779
ProbeTrack15	14	ProbeTrack	15.0	SCS215a	20120508.131923	20120508.133641	8	0.013328	60	10	60-180	60	146	GapExp	SmallFlash	0	163	2	3	1	target	1	363	819	203624	13.328	13.039	13.610
ProbeTrack15	14	ProbeTrack	15.0	SCS215a	20120508.131923	20120508.133647	8	0.013328	60	10	60-180	60	122	GapExp	SmallFlash	0	164	2	30	0	distractor	1	504	748	204372	13.328	12.985	13.675
ProbeTrack15	14	ProbeTrack	15.0	SCS215a	20120508.131923	20120508.133654	8	0.013328	60	10	60-180	60	136	GapExp	SmallFlash	0	165	2	30	1	target	1	411	795	205167	13.328	13.279	13.378
ProbeTrack15	14	ProbeTrack	15.0	SCS215a	20120508.131923	20120508.133701	8	0.013328	60	10	60-180	60	131	GapExp	SmallFlash	0	166	2	1	0	distractor	1	446	777	205944	13.328	13.177	13.479
ProbeTrack15	14	ProbeTrack	15.0	SCS215a	20120508.131923	20120508.133707	8	0.013328	60	10	60-180	60	76	GapExp	SmallFlash	0	167	2	30	1	target	1	353	824	206768	13.328	12.900	13.750
ProbeTrack15	14	ProbeTrack	15.0	SCS215a	20120508.131923	20120508.133713	8	0.013328	60	10	60-180	60	167	GapExp	SmallFlash	0	168	2	1	1	target	1	317	842	207610	13.328	12.916	13.725
ProbeTrack15	14	ProbeTrack	15.0	SCS215a	20120508.131923	20120508.133719	8	0.013328	60	10	60-180	60	178	GapExp	SmallFlash	0	169	2	3	1	target	1	367	817	208427	13.328	13.103	13.546
ProbeTrack15	14	ProbeTrack	15.0	SCS215a	20120508.131923	20120508.133726	8	0.013328	60	10	60-180	60	83	GapExp	SmallFlash	0	170	2	0	1	target	1	442	779	209206	13.328	12.863	13.818
ProbeTrack15	14	ProbeTrack	15.0	SCS215a	20120508.131923	20120508.133732	8	0.013328	60	10	60-180	60	153	GapExp	SmallFlash	0	171	2	3	0	distractor	1	335	833	210039	13.328	12.950	13.716
ProbeTrack15	14	ProbeTrack	15.0	SCS215a	20120508.131923	20120508.133738	8	0.013328	60	10	60-180	60	128	GapExp	SmallFlash	0	172	2	3	1	target	1	339	831	210870	13.328	13.040	13.603
ProbeTrack15	14	ProbeTrack	15.0	SCS215a	20120508.131923	20120508.133744	8	0.013328	60	10	60-180	60	113	GapExp	SmallFlash	0	173	2	30	1	target	1	322	839	211709	13.328	13.305	13.347
ProbeTrack15	14	ProbeTrack	15.0	SCS215a	20120508.131923	20120508.133750	8	0.013328	60	10	60-180	60	78	GapExp	SmallFlash	0	174	2	3	0	distractor	1	421	790	212499	13.328	13.297	13.355
ProbeTrack15	14	ProbeTrack	15.0	SCS215a	20120508.131923	20120508.133756	8	0.013328	60	10	60-180	60	69	GapExp	SmallFlash	0	175	2	30	0	distractor	1	437	782	213281	13.328	13.307	13.347
ProbeTrack15	14	ProbeTrack	15.0	SCS215a	20120508.131923	20120508.133801	8	0.013328	60	10	60-180	60	144	GapExp	SmallFlash	0	176	2	3	0	distractor	1	327	837	214118	13.328	12.930	13.730
ProbeTrack15	14	ProbeTrack	15.0	SCS215a	20120508.131923	20120508.133808	8	0.013328	60	10	60-180	60	69	GapExp	SmallFlash	0	177	2	3	0	early	-4	-2780	-1000	213118	13.328	13.092	13.557
ProbeTrack15	14	ProbeTrack	15.0	SCS215a	20120508.131923	20120508.133813	8	0.013328	60	10	60-180	60	103	GapExp	SmallFlash	0	178	2	0	0	distractor	1	504	748	213866	13.328	12.900	13.763
ProbeTrack15	14	ProbeTrack	15.0	SCS215a	20120508.131923	20120508.133819	8	0.013328	60	10	60-180	60	163	GapExp	SmallFlash	0	179	2	0	0	distractor	1	458	771	214637	13.328	12.964	13.685
ProbeTrack15	14	ProbeTrack	15.0	SCS215a	20120508.131923	20120508.133826	8	0.013328	60	10	60-180	60	146	GapExp	SmallFlash	0	180	2	0	1	early	-4	-3765	-1000	213637	13.328	13.310	13.348
ProbeTrack15	14	ProbeTrack	15.0	SCS215a	20120508.131923	20120508.133832	8	0.013328	60	10	60-180	60	124	GapExp	SmallFlash	0	181	2	1	0	distractor	1	370	815	214452	13.328	12.913	13.753
ProbeTrack15	14	ProbeTrack	15.0	SCS215a	20120508.131923	20120508.133837	8	0.013328	60	10	60-180	60	146	GapExp	SmallFlash	0	182	2	30	0	early	-4	-4179	-1000	213452	13.328	13.304	13.352
ProbeTrack15	14	ProbeTrack	15.0	SCS215a	20120508.131923	20120508.133845	8	0.013328	60	10	60-180	60	113	GapExp	SmallFlash	0	183	2	3	1	early	-4	-3347	-1000	212452	13.328	13.306	13.347
ProbeTrack15	14	ProbeTrack	15.0	SCS215a	20120508.131923	20120508.133850	8	0.013328	60	10	60-180	60	160	GapExp	SmallFlash	0	184	2	3	0	distractor	1	338	831	213283	13.328	13.090	13.559
ProbeTrack15	14	ProbeTrack	15.0	SCS215a	20120508.131923	20120508.133857	8	0.013328	60	10	60-180	60	111	GapExp	SmallFlash	0	185	2	1	0	early	-4	-3319	-1000	212283	13.328	12.888	13.788
ProbeTrack15	14	ProbeTrack	15.0	SCS215a	20120508.131923	20120508.133902	8	0.013328	60	10	60-180	60	154	GapExp	SmallFlash	0	186	2	3	1	target	1	397	802	213085	13.328	12.947	13.702
ProbeTrack15	14	ProbeTrack	15.0	SCS215a	20120508.131923	20120508.133909	8	0.013328	60	10	60-180	60	71	GapExp	SmallFlash	0	187	2	30	1	target	1	379	811	213896	13.328	13.310	13.347
ProbeTrack15	14	ProbeTrack	15.0	SCS215a	20120508.131923	20120508.133915	8	0.013328	60	10	60-180	60	170	GapExp	SmallFlash	0	188	2	1	0	distractor	1	386	807	214703	13.328	12.914	13.737
ProbeTrack15	14	ProbeTrack	15.0	SCS215a	20120508.131923	20120508.133921	8	0.013328	60	10	60-180	60	119	GapExp	SmallFlash	0	189	2	0	0	target	0	3907	-1000	213703	13.378	13.308	26.645
ProbeTrack15	14	ProbeTrack	15.0	SCS215a	20120508.131923	20120508.133931	8	0.013328	60	10	60-180	60	132	GapExp	SmallFlash	0	190	2	0	0	distractor	1	544	728	214431	13.328	13.307	13.344
ProbeTrack15	14	ProbeTrack	15.0	SCS215a	20120508.131923	20120508.133939	8	0.013328	60	10	60-180	60	168	GapExp	SmallFlash	0	191	2	30	0	distractor	1	372	814	215245	13.328	12.846	13.797
ProbeTrack15	14	ProbeTrack	15.0	SCS215a	20120508.131923	20120508.133946	8	0.013328	60	10	60-180	60	86	GapExp	SmallFlash	0	192	2	3	0	distractor	1	544	728	215973	13.328	12.866	13.796
ProbeTrack15	14	ProbeTrack	15.0	SCS215a	20120508.131923	20120508.133952	8	0.013328	60	10	60-180	60	71	GapExp	SmallFlash	0	193	2	30	0	distractor	1	635	683	216656	13.328	13.086	13.571
ProbeTrack15	14	ProbeTrack	15.0	SCS215a	20120508.131923	20120508.133957	8	0.013328	60	10	60-180	60	167	GapExp	SmallFlash	0	194	2	0	0	distractor	1	427	787	217443	13.328	13.105	13.551
ProbeTrack15	14	ProbeTrack	15.0	SCS215a	20120508.131923	20120508.134004	8	0.013328	60	10	60-180	60	132	GapExp	SmallFlash	0	195	2	30	1	target	1	568	716	218159	13.328	13.286	13.363
ProbeTrack15	14	ProbeTrack	15.0	SCS215a	20120508.131923	20120508.134010	8	0.013328	60	10	60-180	60	144	GapExp	SmallFlash	0	196	2	1	1	distractor	0	372	-1000	217159	13.328	13.287	13.375
ProbeTrack15	14	ProbeTrack	15.0	SCS215a	20120508.131923	20120508.134017	8	0.013328	60	10	60-180	60	93	GapExp	SmallFlash	0	197	2	0	1	target	1	272	864	218023	13.328	12.971	13.682
ProbeTrack15	14	ProbeTrack	15.0	SCS215a	20120508.131923	20120508.134023	8	0.013328	60	10	60-180	60	151	GapExp	SmallFlash	0	198	2	3	0	distractor	1	535	733	218756	13.328	13.306	13.346
ProbeTrack15	14	ProbeTrack	15.0	SCS215a	20120508.131923	20120508.134029	8	0.013328	60	10	60-180	60	144	GapExp	SmallFlash	0	199	2	3	1	target	1	341	830	219586	13.328	13.303	13.348
ProbeTrack15	14	ProbeTrack	15.0	SCS215a	20120508.131923	20120508.134035	8	0.013328	60	10	60-180	60	139	GapExp	SmallFlash	0	200	2	30	0	distractor	1	401	800	220386	13.328	12.941	13.706
ProbeTrack15	14	ProbeTrack	15.0	SCS215a	20120508.134129	20120508.134135	8	0.013328	60	10	60-180	60	157	GapPrac	Blank	1	1	2	1	0	distractor	1	848	576	220962	13.372	13.089	13.566
ProbeTrack15	14	ProbeTrack	15.0	SCS215a	20120508.134129	20120508.134144	8	0.013328	60	10	60-180	60	102	GapPrac	Blank	1	2	2	30	0	distractor	1	417	792	221754	13.328	13.308	13.345
ProbeTrack15	14	ProbeTrack	15.0	SCS215a	20120508.134129	20120508.134150	8	0.013328	60	10	60-180	60	169	GapPrac	Blank	1	3	2	30	1	early	-4	-4498	-1000	220754	13.328	13.105	13.551
ProbeTrack15	14	ProbeTrack	15.0	SCS215a	20120508.134129	20120508.134157	8	0.013328	60	10	60-180	60	97	GapPrac	Blank	1	4	2	1	1	target	1	377	812	221566	13.453	12.943	27.114
ProbeTrack15	14	ProbeTrack	15.0	SCS215a	20120508.134129	20120508.134203	8	0.013328	60	10	60-180	60	122	GapPrac	Blank	1	5	2	30	1	target	1	348	826	222392	13.328	13.304	13.345
ProbeTrack15	14	ProbeTrack	15.0	SCS215a	20120508.134129	20120508.134209	8	0.013328	60	10	60-180	60	89	GapPrac	Blank	1	6	2	1	0	distractor	1	560	720	223112	13.328	13.306	13.345
ProbeTrack15	14	ProbeTrack	15.0	SCS215a	20120508.134129	20120508.134215	8	0.013328	60	10	60-180	60	74	GapPrac	Blank	1	7	2	3	0	target	0	563	-1000	222112	13.328	13.058	13.599
ProbeTrack15	14	ProbeTrack	15.0	SCS215a	20120508.134129	20120508.134220	8	0.013328	60	10	60-180	60	170	GapPrac	Blank	1	8	2	0	1	target	1	784	608	222720	13.328	13.306	13.344
ProbeTrack15	14	ProbeTrack	15.0	SCS215a	20120508.134129	20120508.134227	8	0.013328	60	10	60-180	60	111	GapPrac	Blank	1	9	2	1	1	target	1	414	793	223513	13.328	12.952	13.711
ProbeTrack15	14	ProbeTrack	15.0	SCS215a	20120508.134129	20120508.134233	8	0.013328	60	10	60-180	60	155	GapPrac	Blank	1	10	2	0	0	distractor	1	549	726	224239	13.328	13.098	13.570
ProbeTrack15	14	ProbeTrack	15.0	SCS215a	20120508.134129	20120508.134240	8	0.013328	60	10	60-180	60	153	GapPrac	Blank	1	11	2	0	0	early	-4	-3873	-1000	223239	13.328	12.924	13.733
ProbeTrack15	14	ProbeTrack	15.0	SCS215a	20120508.134129	20120508.134247	8	0.013328	60	10	60-180	60	130	GapPrac	Blank	1	12	2	30	1	target	1	347	827	224066	13.328	12.936	13.728
ProbeTrack15	14	ProbeTrack	15.0	SCS215a	20120508.134129	20120508.134253	8	0.013328	60	10	60-180	60	156	GapPrac	Blank	1	13	2	3	1	target	1	492	754	224820	13.328	13.100	13.556
ProbeTrack15	14	ProbeTrack	15.0	SCS215a	20120508.134129	20120508.134300	8	0.013328	60	10	60-180	60	89	GapPrac	Blank	1	14	2	1	1	target	1	428	786	225606	13.328	12.856	13.788
ProbeTrack15	14	ProbeTrack	15.0	SCS215a	20120508.134129	20120508.134305	8	0.013328	60	10	60-180	60	77	GapPrac	Blank	1	15	2	30	0	distractor	1	484	758	226364	13.328	13.308	13.347
ProbeTrack15	14	ProbeTrack	15.0	SCS215a	20120508.134129	20120508.134311	8	0.013328	60	10	60-180	60	141	GapPrac	Blank	1	16	2	1	0	distractor	1	525	738	227102	13.328	13.304	13.356
ProbeTrack15	14	ProbeTrack	15.0	SCS215a	20120508.134129	20120508.134318	8	0.013328	60	10	60-180	60	128	GapPrac	Blank	1	17	2	0	1	target	1	417	792	227894	13.328	13.043	13.614
ProbeTrack15	14	ProbeTrack	15.0	SCS215a	20120508.134129	20120508.134324	8	0.013328	60	10	60-180	60	123	GapPrac	Blank	1	18	2	30	0	target	0	718	-1000	226894	13.328	12.886	13.773
ProbeTrack15	14	ProbeTrack	15.0	SCS215a	20120508.134129	20120508.134331	8	0.013328	60	10	60-180	60	99	GapPrac	Blank	1	19	2	3	0	distractor	1	621	690	227584	13.328	13.306	13.349
ProbeTrack15	14	ProbeTrack	15.0	SCS215a	20120508.134129	20120508.134337	8	0.013328	60	10	60-180	60	131	GapPrac	Blank	1	20	2	3	1	target	1	394	803	228387	13.328	12.898	13.754
