exp	sub	code	rev	comp	runtime	trialtime	nstim	refreshdur	cuedur	gapdur	gapOnsetRange	durPostProbe	gapOnsetTime	blocktype	gaptype	prac	trial	ntargets	soa	probeTarget	resp	acc	rt	pts	tpts	meanFrameDur	minFrameDur	maxFrameDur
ProbeTrack15	12	ProbeTrack	15.0	SCS215a	20120501.121331	20120501.121411	8	0.013321	60	0	60-180	60	155	NoGap	None	1	1	2	1	1	target	1	883	559	559	13.373	13.099	13.552
ProbeTrack15	12	ProbeTrack	15.0	SCS215a	20120501.121331	20120501.121431	8	0.013321	60	0	60-180	60	114	NoGap	None	1	2	2	0	0	distractor	1	839	581	1140	13.328	12.876	13.802
ProbeTrack15	12	ProbeTrack	15.0	SCS215a	20120501.121331	20120501.121447	8	0.013321	60	0	60-180	60	108	NoGap	None	1	3	2	30	1	distractor	0	681	-1000	140	13.328	12.908	13.764
ProbeTrack15	12	ProbeTrack	15.0	SCS215a	20120501.121331	20120501.121458	8	0.013321	60	0	60-180	60	102	NoGap	None	1	4	2	1	1	target	1	589	706	846	13.328	12.858	13.786
ProbeTrack15	12	ProbeTrack	15.0	SCS215a	20120501.121331	20120501.121507	8	0.013321	60	0	60-180	60	157	NoGap	None	1	5	2	1	1	distractor	0	445	-1000	-154	13.328	12.842	13.820
ProbeTrack15	12	ProbeTrack	15.0	SCS215a	20120501.121331	20120501.121514	8	0.013321	60	0	60-180	60	67	NoGap	None	1	6	2	3	0	distractor	1	779	611	457	13.328	12.876	13.784
ProbeTrack15	12	ProbeTrack	15.0	SCS215a	20120501.121331	20120501.121521	8	0.013321	60	0	60-180	60	95	NoGap	None	1	7	2	1	0	distractor	1	608	696	1153	13.328	12.994	13.655
ProbeTrack15	12	ProbeTrack	15.0	SCS215a	20120501.121331	20120501.121527	8	0.013321	60	0	60-180	60	86	NoGap	None	1	8	2	3	1	target	1	476	762	1915	13.328	12.960	13.694
ProbeTrack15	12	ProbeTrack	15.0	SCS215a	20120501.121331	20120501.121533	8	0.013321	60	0	60-180	60	109	NoGap	None	1	9	2	30	0	distractor	1	627	687	2602	13.328	12.855	13.820
ProbeTrack15	12	ProbeTrack	15.0	SCS215a	20120501.121331	20120501.121540	8	0.013321	60	0	60-180	60	104	NoGap	None	1	10	2	3	1	target	1	497	752	3354	13.328	12.847	13.799
ProbeTrack15	12	ProbeTrack	15.0	SCS215a	20120501.121331	20120501.121546	8	0.013321	60	0	60-180	60	154	NoGap	None	1	11	2	1	0	distractor	1	577	712	4066	13.328	12.904	13.760
ProbeTrack15	12	ProbeTrack	15.0	SCS215a	20120501.121331	20120501.121554	8	0.013321	60	0	60-180	60	90	NoGap	None	1	12	2	30	0	distractor	1	616	692	4758	13.328	13.149	13.510
ProbeTrack15	12	ProbeTrack	15.0	SCS215a	20120501.121331	20120501.121600	8	0.013321	60	0	60-180	60	75	NoGap	None	1	13	2	0	1	target	1	698	651	5409	13.328	13.111	13.552
ProbeTrack15	12	ProbeTrack	15.0	SCS215a	20120501.121331	20120501.121606	8	0.013321	60	0	60-180	60	136	NoGap	None	1	14	2	30	0	distractor	1	481	760	6169	13.328	12.884	13.757
ProbeTrack15	12	ProbeTrack	15.0	SCS215a	20120501.121331	20120501.121613	8	0.013321	60	0	60-180	60	137	NoGap	None	1	15	2	30	1	target	1	458	771	6940	13.328	12.872	13.805
ProbeTrack15	12	ProbeTrack	15.0	SCS215a	20120501.121331	20120501.121620	8	0.013321	60	0	60-180	60	172	NoGap	None	1	16	2	3	0	distractor	1	491	755	7695	13.374	12.872	27.004
ProbeTrack15	12	ProbeTrack	15.0	SCS215a	20120501.121331	20120501.121627	8	0.013321	60	0	60-180	60	65	NoGap	None	1	17	2	1	0	distractor	1	599	701	8396	13.328	13.182	13.471
ProbeTrack15	12	ProbeTrack	15.0	SCS215a	20120501.121331	20120501.121632	8	0.013321	60	0	60-180	60	128	NoGap	None	1	18	2	0	0	distractor	1	807	597	8993	13.328	13.300	13.364
ProbeTrack15	12	ProbeTrack	15.0	SCS215a	20120501.121331	20120501.121639	8	0.013321	60	0	60-180	60	175	NoGap	None	1	19	2	30	1	target	1	588	706	9699	13.328	12.866	13.789
ProbeTrack15	12	ProbeTrack	15.0	SCS215a	20120501.121331	20120501.121646	8	0.013321	60	0	60-180	60	167	NoGap	None	1	20	2	1	0	target	0	899	-1000	8699	13.328	12.898	13.771
ProbeTrack15	12	ProbeTrack	15.0	SCS215a	20120501.121331	20120501.121654	8	0.013321	60	0	60-180	60	63	NoGap	None	1	21	2	0	0	distractor	1	575	713	9412	13.328	12.912	13.748
ProbeTrack15	12	ProbeTrack	15.0	SCS215a	20120501.121331	20120501.121659	8	0.013321	60	0	60-180	60	63	NoGap	None	1	22	2	0	0	distractor	1	767	617	10029	13.328	13.119	13.537
ProbeTrack15	12	ProbeTrack	15.0	SCS215a	20120501.121331	20120501.121705	8	0.013321	60	0	60-180	60	158	NoGap	None	1	23	2	1	1	target	1	544	728	10757	13.328	13.121	13.542
ProbeTrack15	12	ProbeTrack	15.0	SCS215a	20120501.121331	20120501.121712	8	0.013321	60	0	60-180	60	108	NoGap	None	1	24	2	0	1	target	1	617	692	11449	13.328	12.865	13.793
ProbeTrack15	12	ProbeTrack	15.0	SCS215a	20120501.121331	20120501.121718	8	0.013321	60	0	60-180	60	96	NoGap	None	1	25	2	1	0	distractor	1	655	673	12122	13.328	12.953	13.690
ProbeTrack15	12	ProbeTrack	15.0	SCS215a	20120501.121331	20120501.121724	8	0.013321	60	0	60-180	60	102	NoGap	None	1	26	2	30	1	target	1	597	702	12824	13.328	12.897	13.759
ProbeTrack15	12	ProbeTrack	15.0	SCS215a	20120501.121331	20120501.121731	8	0.013321	60	0	60-180	60	82	NoGap	None	1	27	2	3	1	target	1	410	795	13619	13.328	12.840	13.823
ProbeTrack15	12	ProbeTrack	15.0	SCS215a	20120501.121331	20120501.121737	8	0.013321	60	0	60-180	60	93	NoGap	None	1	28	2	3	1	target	1	458	771	14390	13.328	13.306	13.346
ProbeTrack15	12	ProbeTrack	15.0	SCS215a	20120501.121331	20120501.121743	8	0.013321	60	0	60-180	60	110	NoGap	None	1	29	2	0	1	target	1	540	730	15120	13.328	12.833	13.819
ProbeTrack15	12	ProbeTrack	15.0	SCS215a	20120501.121331	20120501.121750	8	0.013321	60	0	60-180	60	97	NoGap	None	1	30	2	3	1	target	1	590	705	15825	13.328	12.919	13.723
ProbeTrack15	12	ProbeTrack	15.0	SCS215a	20120501.121331	20120501.121756	8	0.013321	60	0	60-180	60	86	NoGap	None	1	31	2	0	1	target	1	452	774	16599	13.328	13.299	13.349
ProbeTrack15	12	ProbeTrack	15.0	SCS215a	20120501.121331	20120501.121801	8	0.013321	60	0	60-180	60	143	NoGap	None	1	32	2	1	1	target	1	379	811	17410	13.328	12.876	13.794
ProbeTrack15	12	ProbeTrack	15.0	SCS215a	20120501.121331	20120501.121808	8	0.013321	60	0	60-180	60	62	NoGap	None	1	33	2	30	0	distractor	1	565	718	18128	13.328	13.101	13.554
ProbeTrack15	12	ProbeTrack	15.0	SCS215a	20120501.121331	20120501.121814	8	0.013321	60	0	60-180	60	112	NoGap	None	1	34	2	30	1	target	1	488	756	18884	13.328	13.100	13.549
ProbeTrack15	12	ProbeTrack	15.0	SCS215a	20120501.121331	20120501.121820	8	0.013321	60	0	60-180	60	139	NoGap	None	1	35	2	3	0	distractor	1	545	728	19612	13.328	12.874	13.798
ProbeTrack15	12	ProbeTrack	15.0	SCS215a	20120501.121331	20120501.121827	8	0.013321	60	0	60-180	60	77	NoGap	None	1	36	2	30	0	distractor	1	481	760	20372	13.328	12.948	13.708
ProbeTrack15	12	ProbeTrack	15.0	SCS215a	20120501.121331	20120501.121833	8	0.013321	60	0	60-180	60	115	NoGap	None	1	37	2	0	1	target	1	437	782	21154	13.328	12.871	13.786
ProbeTrack15	12	ProbeTrack	15.0	SCS215a	20120501.121331	20120501.121839	8	0.013321	60	0	60-180	60	76	NoGap	None	1	38	2	3	0	distractor	1	517	742	21896	13.328	13.306	13.346
ProbeTrack15	12	ProbeTrack	15.0	SCS215a	20120501.121331	20120501.121845	8	0.013321	60	0	60-180	60	71	NoGap	None	1	39	2	0	0	distractor	1	523	739	22635	13.328	12.886	13.772
ProbeTrack15	12	ProbeTrack	15.0	SCS215a	20120501.121331	20120501.121851	8	0.013321	60	0	60-180	60	134	NoGap	None	1	40	2	3	0	distractor	1	707	647	23282	13.328	13.176	13.494
ProbeTrack15	12	ProbeTrack	15.0	SCS215a	20120501.122022	20120501.122028	8	0.013325	60	10	60-180	60	132	GapPrac	SmallFlash	1	1	2	1	1	target	1	775	613	23895	13.376	5.882	20.787
ProbeTrack15	12	ProbeTrack	15.0	SCS215a	20120501.122022	20120501.122036	8	0.013325	60	10	60-180	60	109	GapPrac	SmallFlash	1	2	2	3	0	target	0	696	-1000	22895	13.328	13.308	13.349
ProbeTrack15	12	ProbeTrack	15.0	SCS215a	20120501.122022	20120501.122043	8	0.013325	60	10	60-180	60	151	GapPrac	SmallFlash	1	3	2	1	0	distractor	1	616	692	23587	13.328	11.940	14.713
ProbeTrack15	12	ProbeTrack	15.0	SCS215a	20120501.122022	20120501.122052	8	0.013325	60	10	60-180	60	160	GapPrac	SmallFlash	1	4	2	30	0	distractor	1	554	723	24310	13.328	9.995	16.660
ProbeTrack15	12	ProbeTrack	15.0	SCS215a	20120501.122022	20120501.122059	8	0.013325	60	10	60-180	60	104	GapPrac	SmallFlash	1	5	2	1	1	target	1	309	846	25156	13.328	13.299	13.358
ProbeTrack15	12	ProbeTrack	15.0	SCS215a	20120501.122022	20120501.122106	8	0.013325	60	10	60-180	60	106	GapPrac	SmallFlash	1	6	2	0	1	distractor	0	363	-1000	24156	13.328	13.296	13.360
ProbeTrack15	12	ProbeTrack	15.0	SCS215a	20120501.122022	20120501.122113	8	0.013325	60	10	60-180	60	80	GapPrac	SmallFlash	1	7	2	30	1	target	1	326	837	24993	13.328	11.319	15.324
ProbeTrack15	12	ProbeTrack	15.0	SCS215a	20120501.122022	20120501.122119	8	0.013325	60	10	60-180	60	118	GapPrac	SmallFlash	1	8	2	3	1	target	1	436	782	25775	13.328	12.049	14.603
ProbeTrack15	12	ProbeTrack	15.0	SCS215a	20120501.122022	20120501.122125	8	0.013325	60	10	60-180	60	179	GapPrac	SmallFlash	1	9	2	3	0	distractor	1	521	740	26515	13.328	9.693	16.968
ProbeTrack15	12	ProbeTrack	15.0	SCS215a	20120501.122022	20120501.122133	8	0.013325	60	10	60-180	60	107	GapPrac	SmallFlash	1	10	2	0	1	target	1	463	769	27284	13.328	13.302	13.358
ProbeTrack15	12	ProbeTrack	15.0	SCS215a	20120501.122022	20120501.122139	8	0.013325	60	10	60-180	60	116	GapPrac	SmallFlash	1	11	2	30	0	early	-4	-3838	-1000	26284	13.328	13.307	13.347
ProbeTrack15	12	ProbeTrack	15.0	SCS215a	20120501.122022	20120501.122147	8	0.013325	60	10	60-180	60	101	GapPrac	SmallFlash	1	12	2	1	1	target	1	573	714	26998	13.328	11.219	15.436
ProbeTrack15	12	ProbeTrack	15.0	SCS215a	20120501.122022	20120501.122154	8	0.013325	60	10	60-180	60	158	GapPrac	SmallFlash	1	13	2	0	0	distractor	1	584	708	27706	13.515	6.144	36.402
ProbeTrack15	12	ProbeTrack	15.0	SCS215a	20120501.122022	20120501.122201	8	0.013325	60	10	60-180	60	160	GapPrac	SmallFlash	1	14	2	3	1	target	1	694	653	28359	13.328	13.302	13.356
ProbeTrack15	12	ProbeTrack	15.0	SCS215a	20120501.122022	20120501.122208	8	0.013325	60	10	60-180	60	123	GapPrac	SmallFlash	1	15	2	30	1	early	-4	-3933	-1000	27359	13.328	13.306	13.350
ProbeTrack15	12	ProbeTrack	15.0	SCS215a	20120501.122022	20120501.122215	8	0.013325	60	10	60-180	60	98	GapPrac	SmallFlash	1	16	2	0	0	early	-4	-3201	-1000	26359	13.328	11.010	15.644
ProbeTrack15	12	ProbeTrack	15.0	SCS215a	20120501.122022	20120501.122223	8	0.013325	60	10	60-180	60	178	GapPrac	SmallFlash	1	17	2	30	0	distractor	1	838	581	26940	13.328	10.467	16.207
ProbeTrack15	12	ProbeTrack	15.0	SCS215a	20120501.122022	20120501.122232	8	0.013325	60	10	60-180	60	153	GapPrac	SmallFlash	1	18	2	1	0	distractor	1	689	656	27596	13.328	9.890	16.754
ProbeTrack15	12	ProbeTrack	15.0	SCS215a	20120501.122022	20120501.122239	8	0.013325	60	10	60-180	60	122	GapPrac	SmallFlash	1	19	2	3	0	distractor	1	745	628	28224	13.328	13.106	13.550
ProbeTrack15	12	ProbeTrack	15.0	SCS215a	20120501.122022	20120501.122246	8	0.013325	60	10	60-180	60	172	GapPrac	SmallFlash	1	20	2	1	0	distractor	1	839	581	28805	13.328	10.956	15.696
ProbeTrack15	12	ProbeTrack	15.0	SCS215a	20120501.122327	20120501.122333	8	0.013328	60	10	60-180	60	123	GapExp	SmallFlash	1	1	2	30	1	target	1	639	681	29486	13.374	12.899	13.759
ProbeTrack15	12	ProbeTrack	15.0	SCS215a	20120501.122327	20120501.122341	8	0.013328	60	10	60-180	60	149	GapExp	SmallFlash	1	2	2	3	0	distractor	1	553	724	30210	13.328	12.878	13.778
ProbeTrack15	12	ProbeTrack	15.0	SCS215a	20120501.122327	20120501.122348	8	0.013328	60	10	60-180	60	141	GapExp	SmallFlash	1	3	2	30	0	distractor	1	545	728	30938	13.328	12.900	13.771
ProbeTrack15	12	ProbeTrack	15.0	SCS215a	20120501.122327	20120501.122355	8	0.013328	60	10	60-180	60	87	GapExp	SmallFlash	1	4	2	1	1	target	1	619	691	31629	13.328	12.929	13.712
ProbeTrack15	12	ProbeTrack	15.0	SCS215a	20120501.122327	20120501.122401	8	0.013328	60	10	60-180	60	64	GapExp	SmallFlash	1	5	2	1	0	distractor	1	600	700	32329	13.328	12.927	13.729
ProbeTrack15	12	ProbeTrack	15.0	SCS215a	20120501.122327	20120501.122407	8	0.013328	60	10	60-180	60	106	GapExp	SmallFlash	1	6	2	3	1	target	1	604	698	33027	13.328	13.307	13.353
ProbeTrack15	12	ProbeTrack	15.0	SCS215a	20120501.122327	20120501.122414	8	0.013328	60	10	60-180	60	80	GapExp	SmallFlash	1	7	2	0	0	early	-4	-2764	-1000	32027	13.328	12.854	13.799
ProbeTrack15	12	ProbeTrack	15.0	SCS215a	20120501.122327	20120501.122420	8	0.013328	60	10	60-180	60	90	GapExp	SmallFlash	1	8	2	0	1	target	1	704	648	32675	13.328	13.307	13.356
ProbeTrack15	12	ProbeTrack	15.0	SCS215a	20120501.122327	20120501.122426	8	0.013328	60	10	60-180	60	75	GapExp	SmallFlash	0	9	2	0	0	distractor	1	553	724	33399	13.328	12.911	13.741
ProbeTrack15	12	ProbeTrack	15.0	SCS215a	20120501.122327	20120501.122432	8	0.013328	60	10	60-180	60	179	GapExp	SmallFlash	0	10	2	1	0	distractor	1	577	712	34111	13.329	12.879	13.779
ProbeTrack15	12	ProbeTrack	15.0	SCS215a	20120501.122327	20120501.122440	8	0.013328	60	10	60-180	60	89	GapExp	SmallFlash	0	11	2	0	0	distractor	1	509	746	34857	13.328	13.047	13.616
ProbeTrack15	12	ProbeTrack	15.0	SCS215a	20120501.122327	20120501.122446	8	0.013328	60	10	60-180	60	73	GapExp	SmallFlash	0	12	2	30	0	distractor	1	709	646	35503	13.328	13.105	13.543
ProbeTrack15	12	ProbeTrack	15.0	SCS215a	20120501.122327	20120501.122453	8	0.013328	60	10	60-180	60	106	GapExp	SmallFlash	0	13	2	3	1	target	1	573	714	36217	13.328	13.092	13.568
ProbeTrack15	12	ProbeTrack	15.0	SCS215a	20120501.122327	20120501.122459	8	0.013328	60	10	60-180	60	125	GapExp	SmallFlash	0	14	2	1	0	early	-4	-3362	-1000	35217	13.328	12.880	13.770
ProbeTrack15	12	ProbeTrack	15.0	SCS215a	20120501.122327	20120501.122506	8	0.013328	60	10	60-180	60	126	GapExp	SmallFlash	0	15	2	0	0	distractor	1	937	532	35749	13.328	12.956	13.712
ProbeTrack15	12	ProbeTrack	15.0	SCS215a	20120501.122327	20120501.122513	8	0.013328	60	10	60-180	60	180	GapExp	SmallFlash	0	16	2	30	1	target	1	552	724	36473	13.328	12.867	13.791
ProbeTrack15	12	ProbeTrack	15.0	SCS215a	20120501.122327	20120501.122521	8	0.013328	60	10	60-180	60	123	GapExp	SmallFlash	0	17	2	1	0	target	0	741	-1000	35473	13.328	13.112	13.545
ProbeTrack15	12	ProbeTrack	15.0	SCS215a	20120501.122327	20120501.122528	8	0.013328	60	10	60-180	60	84	GapExp	SmallFlash	0	18	2	30	0	early	-4	-3291	-1000	34473	13.328	12.901	13.751
ProbeTrack15	12	ProbeTrack	15.0	SCS215a	20120501.122327	20120501.122535	8	0.013328	60	10	60-180	60	85	GapExp	SmallFlash	0	19	2	30	1	target	1	563	719	35192	13.328	12.875	13.784
ProbeTrack15	12	ProbeTrack	15.0	SCS215a	20120501.122327	20120501.122541	8	0.013328	60	10	60-180	60	108	GapExp	SmallFlash	0	20	2	30	1	target	1	659	671	35863	13.326	12.928	13.639
ProbeTrack15	12	ProbeTrack	15.0	SCS215a	20120501.122327	20120501.122548	8	0.013328	60	10	60-180	60	132	GapExp	SmallFlash	0	21	2	30	1	target	1	447	777	36640	13.328	13.090	13.564
ProbeTrack15	12	ProbeTrack	15.0	SCS215a	20120501.122327	20120501.122556	8	0.013328	60	10	60-180	60	129	GapExp	SmallFlash	0	22	2	30	0	distractor	1	651	675	37315	13.373	13.098	26.725
ProbeTrack15	12	ProbeTrack	15.0	SCS215a	20120501.122327	20120501.122603	8	0.013328	60	10	60-180	60	175	GapExp	SmallFlash	0	23	2	0	1	target	1	450	775	38090	13.373	12.869	26.996
ProbeTrack15	12	ProbeTrack	15.0	SCS215a	20120501.122327	20120501.122610	8	0.013328	60	10	60-180	60	76	GapExp	SmallFlash	0	24	2	0	1	target	1	537	732	38822	13.328	12.855	13.796
ProbeTrack15	12	ProbeTrack	15.0	SCS215a	20120501.122327	20120501.122616	8	0.013328	60	10	60-180	60	141	GapExp	SmallFlash	0	25	2	3	0	distractor	1	639	681	39503	13.328	12.963	13.680
ProbeTrack15	12	ProbeTrack	15.0	SCS215a	20120501.122327	20120501.122623	8	0.013328	60	10	60-180	60	71	GapExp	SmallFlash	0	26	2	3	1	target	1	765	618	40121	13.328	13.104	13.537
ProbeTrack15	12	ProbeTrack	15.0	SCS215a	20120501.122327	20120501.122630	8	0.013328	60	10	60-180	60	71	GapExp	SmallFlash	0	27	2	0	1	target	1	581	710	40831	13.328	12.851	13.799
ProbeTrack15	12	ProbeTrack	15.0	SCS215a	20120501.122327	20120501.122636	8	0.013328	60	10	60-180	60	143	GapExp	SmallFlash	0	28	2	3	0	distractor	1	529	736	41567	13.328	12.906	13.754
ProbeTrack15	12	ProbeTrack	15.0	SCS215a	20120501.122327	20120501.122643	8	0.013328	60	10	60-180	60	81	GapExp	SmallFlash	0	29	2	1	1	target	1	439	781	42348	13.328	12.869	13.781
ProbeTrack15	12	ProbeTrack	15.0	SCS215a	20120501.122327	20120501.122648	8	0.013328	60	10	60-180	60	62	GapExp	SmallFlash	0	30	2	30	1	target	1	537	732	43080	13.328	12.900	13.763
ProbeTrack15	12	ProbeTrack	15.0	SCS215a	20120501.122327	20120501.122655	8	0.013328	60	10	60-180	60	75	GapExp	SmallFlash	0	31	2	0	1	target	1	523	739	43819	13.328	13.303	13.362
ProbeTrack15	12	ProbeTrack	15.0	SCS215a	20120501.122327	20120501.122701	8	0.013328	60	10	60-180	60	138	GapExp	SmallFlash	0	32	2	0	0	distractor	1	571	715	44534	13.328	13.302	13.348
ProbeTrack15	12	ProbeTrack	15.0	SCS215a	20120501.122327	20120501.122707	8	0.013328	60	10	60-180	60	68	GapExp	SmallFlash	0	33	2	30	1	target	1	626	687	45221	13.328	12.972	13.687
ProbeTrack15	12	ProbeTrack	15.0	SCS215a	20120501.122327	20120501.122714	8	0.013328	60	10	60-180	60	69	GapExp	SmallFlash	0	34	2	1	1	target	1	518	741	45962	13.326	12.859	13.793
ProbeTrack15	12	ProbeTrack	15.0	SCS215a	20120501.122327	20120501.122720	8	0.013328	60	10	60-180	60	75	GapExp	SmallFlash	0	35	2	30	1	target	1	661	670	46632	13.328	12.903	13.735
ProbeTrack15	12	ProbeTrack	15.0	SCS215a	20120501.122327	20120501.122727	8	0.013328	60	10	60-180	60	88	GapExp	SmallFlash	0	36	2	1	0	distractor	1	539	731	47363	13.328	13.303	13.349
ProbeTrack15	12	ProbeTrack	15.0	SCS215a	20120501.122327	20120501.122733	8	0.013328	60	10	60-180	60	147	GapExp	SmallFlash	0	37	2	3	1	target	1	521	740	48103	13.328	13.044	13.614
ProbeTrack15	12	ProbeTrack	15.0	SCS215a	20120501.122327	20120501.122740	8	0.013328	60	10	60-180	60	68	GapExp	SmallFlash	0	38	2	0	0	distractor	1	569	716	48819	13.328	12.906	13.749
ProbeTrack15	12	ProbeTrack	15.0	SCS215a	20120501.122327	20120501.122746	8	0.013328	60	10	60-180	60	63	GapExp	SmallFlash	0	39	2	3	1	target	1	549	726	49545	13.328	12.973	13.689
ProbeTrack15	12	ProbeTrack	15.0	SCS215a	20120501.122327	20120501.122752	8	0.013328	60	10	60-180	60	176	GapExp	SmallFlash	0	40	2	30	1	target	1	515	743	50288	13.328	12.862	13.785
ProbeTrack15	12	ProbeTrack	15.0	SCS215a	20120501.122327	20120501.122800	8	0.013328	60	10	60-180	60	105	GapExp	SmallFlash	0	41	2	1	1	target	1	571	715	51003	13.328	13.272	13.384
ProbeTrack15	12	ProbeTrack	15.0	SCS215a	20120501.122327	20120501.122807	8	0.013328	60	10	60-180	60	67	GapExp	SmallFlash	0	42	2	30	1	target	1	503	749	51752	13.328	13.288	13.369
ProbeTrack15	12	ProbeTrack	15.0	SCS215a	20120501.122327	20120501.122813	8	0.013328	60	10	60-180	60	123	GapExp	SmallFlash	0	43	2	1	0	distractor	1	566	717	52469	13.328	12.926	13.730
ProbeTrack15	12	ProbeTrack	15.0	SCS215a	20120501.122327	20120501.122820	8	0.013328	60	10	60-180	60	73	GapExp	SmallFlash	0	44	2	1	1	target	1	596	702	53171	13.328	12.916	13.739
ProbeTrack15	12	ProbeTrack	15.0	SCS215a	20120501.122327	20120501.122826	8	0.013328	60	10	60-180	60	82	GapExp	SmallFlash	0	45	2	0	0	distractor	1	729	636	53807	13.328	12.908	13.739
ProbeTrack15	12	ProbeTrack	15.0	SCS215a	20120501.122327	20120501.122832	8	0.013328	60	10	60-180	60	168	GapExp	SmallFlash	0	46	2	0	1	target	1	467	767	54574	13.328	13.306	13.346
ProbeTrack15	12	ProbeTrack	15.0	SCS215a	20120501.122327	20120501.122839	8	0.013328	60	10	60-180	60	65	GapExp	SmallFlash	0	47	2	0	1	target	1	528	736	55310	13.328	13.267	13.376
ProbeTrack15	12	ProbeTrack	15.0	SCS215a	20120501.122327	20120501.122845	8	0.013328	60	10	60-180	60	95	GapExp	SmallFlash	0	48	2	0	0	distractor	1	525	738	56048	13.326	13.019	13.590
ProbeTrack15	12	ProbeTrack	15.0	SCS215a	20120501.122327	20120501.122850	8	0.013328	60	10	60-180	60	161	GapExp	SmallFlash	0	49	2	30	1	target	1	806	597	56645	13.328	12.886	13.774
ProbeTrack15	12	ProbeTrack	15.0	SCS215a	20120501.122327	20120501.122858	8	0.013328	60	10	60-180	60	130	GapExp	SmallFlash	0	50	2	30	1	target	1	665	668	57313	13.328	12.907	13.742
ProbeTrack15	12	ProbeTrack	15.0	SCS215a	20120501.122327	20120501.122906	8	0.013328	60	10	60-180	60	161	GapExp	SmallFlash	0	51	2	1	0	distractor	1	638	681	57994	13.328	12.886	13.775
ProbeTrack15	12	ProbeTrack	15.0	SCS215a	20120501.122327	20120501.122913	8	0.013328	60	10	60-180	60	148	GapExp	SmallFlash	0	52	2	30	1	target	1	588	706	58700	13.328	12.925	13.738
ProbeTrack15	12	ProbeTrack	15.0	SCS215a	20120501.122327	20120501.122921	8	0.013328	60	10	60-180	60	94	GapExp	SmallFlash	0	53	2	0	1	target	1	608	696	59396	13.328	13.309	13.348
ProbeTrack15	12	ProbeTrack	15.0	SCS215a	20120501.122327	20120501.122927	8	0.013328	60	10	60-180	60	127	GapExp	SmallFlash	0	54	2	3	1	target	1	560	720	60116	13.328	12.842	13.823
ProbeTrack15	12	ProbeTrack	15.0	SCS215a	20120501.122327	20120501.122934	8	0.013328	60	10	60-180	60	74	GapExp	SmallFlash	0	55	2	0	1	target	1	606	697	60813	13.328	12.938	13.707
ProbeTrack15	12	ProbeTrack	15.0	SCS215a	20120501.122327	20120501.122940	8	0.013328	60	10	60-180	60	168	GapExp	SmallFlash	0	56	2	0	1	early	-4	-4134	-1000	59813	13.328	12.962	13.701
ProbeTrack15	12	ProbeTrack	15.0	SCS215a	20120501.122327	20120501.122948	8	0.013328	60	10	60-180	60	145	GapExp	SmallFlash	0	57	2	0	0	distractor	1	823	589	60402	13.328	12.951	13.705
ProbeTrack15	12	ProbeTrack	15.0	SCS215a	20120501.122327	20120501.122955	8	0.013328	60	10	60-180	60	81	GapExp	SmallFlash	0	58	2	30	1	target	1	665	668	61070	13.328	12.860	13.795
ProbeTrack15	12	ProbeTrack	15.0	SCS215a	20120501.122327	20120501.123002	8	0.013328	60	10	60-180	60	174	GapExp	SmallFlash	0	59	2	30	0	distractor	1	695	653	61723	13.328	12.870	13.798
ProbeTrack15	12	ProbeTrack	15.0	SCS215a	20120501.122327	20120501.123010	8	0.013328	60	10	60-180	60	156	GapExp	SmallFlash	0	60	2	3	0	distractor	1	806	597	62320	13.328	12.888	13.768
ProbeTrack15	12	ProbeTrack	15.0	SCS215a	20120501.122327	20120501.123017	8	0.013328	60	10	60-180	60	99	GapExp	SmallFlash	0	61	2	1	0	distractor	1	528	736	63056	13.328	13.024	13.639
ProbeTrack15	12	ProbeTrack	15.0	SCS215a	20120501.122327	20120501.123024	8	0.013328	60	10	60-180	60	109	GapExp	SmallFlash	0	62	2	0	0	target	0	616	-1000	62056	13.328	13.090	13.578
ProbeTrack15	12	ProbeTrack	15.0	SCS215a	20120501.122327	20120501.123030	8	0.013328	60	10	60-180	60	174	GapExp	SmallFlash	0	63	2	30	1	target	1	731	635	62691	13.328	12.921	13.731
ProbeTrack15	12	ProbeTrack	15.0	SCS215a	20120501.122327	20120501.123038	8	0.013328	60	10	60-180	60	117	GapExp	SmallFlash	0	64	2	0	0	early	-4	-3462	-1000	61691	13.328	12.918	13.771
ProbeTrack15	12	ProbeTrack	15.0	SCS215a	20120501.122327	20120501.123045	8	0.013328	60	10	60-180	60	133	GapExp	SmallFlash	0	65	2	30	1	target	1	682	659	62350	13.328	13.304	13.350
ProbeTrack15	12	ProbeTrack	15.0	SCS215a	20120501.122327	20120501.123053	8	0.013328	60	10	60-180	60	161	GapExp	SmallFlash	0	66	2	3	1	early	-4	-3959	-1000	61350	13.328	13.266	13.390
ProbeTrack15	12	ProbeTrack	15.0	SCS215a	20120501.122327	20120501.123101	8	0.013328	60	10	60-180	60	158	GapExp	SmallFlash	0	67	2	1	1	target	1	3567	0	61350	13.328	13.306	13.351
ProbeTrack15	12	ProbeTrack	15.0	SCS215a	20120501.122327	20120501.123111	8	0.013328	60	10	60-180	60	164	GapExp	SmallFlash	0	68	2	3	1	target	1	781	610	61960	13.328	12.933	13.730
ProbeTrack15	12	ProbeTrack	15.0	SCS215a	20120501.122327	20120501.123120	8	0.013328	60	10	60-180	60	178	GapExp	SmallFlash	0	69	2	1	1	target	1	523	739	62699	13.328	12.974	13.680
ProbeTrack15	12	ProbeTrack	15.0	SCS215a	20120501.122327	20120501.123127	8	0.013328	60	10	60-180	60	168	GapExp	SmallFlash	0	70	2	0	0	early	-4	-4047	-1000	61699	13.328	12.854	13.812
ProbeTrack15	12	ProbeTrack	15.0	SCS215a	20120501.122327	20120501.123136	8	0.013328	60	10	60-180	60	105	GapExp	SmallFlash	0	71	2	0	1	target	1	986	507	62206	13.328	12.833	13.812
ProbeTrack15	12	ProbeTrack	15.0	SCS215a	20120501.122327	20120501.123143	8	0.013328	60	10	60-180	60	120	GapExp	SmallFlash	0	72	2	30	1	target	1	589	706	62912	13.328	13.087	13.593
ProbeTrack15	12	ProbeTrack	15.0	SCS215a	20120501.122327	20120501.123151	8	0.013328	60	10	60-180	60	117	GapExp	SmallFlash	0	73	2	1	0	distractor	1	825	588	63500	13.328	12.885	13.770
ProbeTrack15	12	ProbeTrack	15.0	SCS215a	20120501.122327	20120501.123157	8	0.013328	60	10	60-180	60	172	GapExp	SmallFlash	0	74	2	3	1	target	1	600	700	64200	13.328	12.869	13.784
ProbeTrack15	12	ProbeTrack	15.0	SCS215a	20120501.122327	20120501.123205	8	0.013328	60	10	60-180	60	78	GapExp	SmallFlash	0	75	2	3	0	early	-4	-2965	-1000	63200	13.328	12.866	13.782
ProbeTrack15	12	ProbeTrack	15.0	SCS215a	20120501.122327	20120501.123211	8	0.013328	60	10	60-180	60	65	GapExp	SmallFlash	0	76	2	1	1	distractor	0	1066	-1000	62200	13.328	12.918	13.747
ProbeTrack15	12	ProbeTrack	15.0	SCS215a	20120501.122327	20120501.123218	8	0.013328	60	10	60-180	60	76	GapExp	SmallFlash	0	77	2	1	0	distractor	1	672	664	62864	13.328	12.899	13.757
ProbeTrack15	12	ProbeTrack	15.0	SCS215a	20120501.122327	20120501.123224	8	0.013328	60	10	60-180	60	133	GapExp	SmallFlash	0	78	2	3	1	target	1	746	627	63491	13.328	13.004	13.642
ProbeTrack15	12	ProbeTrack	15.0	SCS215a	20120501.122327	20120501.123231	8	0.013328	60	10	60-180	60	73	GapExp	SmallFlash	0	79	2	3	0	distractor	1	751	625	64116	13.328	13.124	13.523
ProbeTrack15	12	ProbeTrack	15.0	SCS215a	20120501.122327	20120501.123237	8	0.013328	60	10	60-180	60	119	GapExp	SmallFlash	0	80	2	3	0	distractor	1	603	699	64815	13.328	13.312	13.351
ProbeTrack15	12	ProbeTrack	15.0	SCS215a	20120501.122327	20120501.123244	8	0.013328	60	10	60-180	60	151	GapExp	SmallFlash	0	81	2	1	0	distractor	1	602	699	65514	13.328	12.865	13.739
ProbeTrack15	12	ProbeTrack	15.0	SCS215a	20120501.122327	20120501.123250	8	0.013328	60	10	60-180	60	139	GapExp	SmallFlash	0	82	2	0	0	distractor	1	641	680	66194	13.328	12.852	13.805
ProbeTrack15	12	ProbeTrack	15.0	SCS215a	20120501.122327	20120501.123257	8	0.013328	60	10	60-180	60	155	GapExp	SmallFlash	0	83	2	3	1	target	1	741	630	66824	13.328	12.929	13.731
ProbeTrack15	12	ProbeTrack	15.0	SCS215a	20120501.122327	20120501.123304	8	0.013328	60	10	60-180	60	151	GapExp	SmallFlash	0	84	2	30	0	early	-4	-4310	-1000	65824	13.328	13.091	13.550
ProbeTrack15	12	ProbeTrack	15.0	SCS215a	20120501.122327	20120501.123311	8	0.013328	60	10	60-180	60	78	GapExp	SmallFlash	0	85	2	30	0	distractor	1	1074	463	66287	13.328	13.117	13.557
ProbeTrack15	12	ProbeTrack	15.0	SCS215a	20120501.122327	20120501.123318	8	0.013328	60	10	60-180	60	84	GapExp	SmallFlash	0	86	2	1	1	target	1	547	727	67014	13.328	12.882	13.767
ProbeTrack15	12	ProbeTrack	15.0	SCS215a	20120501.122327	20120501.123325	8	0.013328	60	10	60-180	60	90	GapExp	SmallFlash	0	87	2	30	1	early	-4	-3501	-1000	66014	13.328	12.930	13.736
ProbeTrack15	12	ProbeTrack	15.0	SCS215a	20120501.122327	20120501.123332	8	0.013328	60	10	60-180	60	107	GapExp	SmallFlash	0	88	2	0	1	target	1	582	709	66723	13.328	13.307	13.351
ProbeTrack15	12	ProbeTrack	15.0	SCS215a	20120501.122327	20120501.123339	8	0.013328	60	10	60-180	60	88	GapExp	SmallFlash	0	89	2	3	1	distractor	0	664	-1000	65723	13.328	13.106	13.550
ProbeTrack15	12	ProbeTrack	15.0	SCS215a	20120501.122327	20120501.123344	8	0.013328	60	10	60-180	60	86	GapExp	SmallFlash	0	90	2	3	0	distractor	1	551	725	66448	13.328	12.855	13.805
ProbeTrack15	12	ProbeTrack	15.0	SCS215a	20120501.122327	20120501.123350	8	0.013328	60	10	60-180	60	73	GapExp	SmallFlash	0	91	2	0	1	target	1	605	698	67146	13.328	12.924	13.734
ProbeTrack15	12	ProbeTrack	15.0	SCS215a	20120501.122327	20120501.123357	8	0.013328	60	10	60-180	60	137	GapExp	SmallFlash	0	92	2	1	0	early	-4	-3682	-1000	66146	13.328	13.105	13.565
ProbeTrack15	12	ProbeTrack	15.0	SCS215a	20120501.122327	20120501.123404	8	0.013328	60	10	60-180	60	147	GapExp	SmallFlash	0	93	2	30	0	distractor	1	951	525	66671	13.328	12.984	13.673
ProbeTrack15	12	ProbeTrack	15.0	SCS215a	20120501.122327	20120501.123411	8	0.013328	60	10	60-180	60	137	GapExp	SmallFlash	0	94	2	30	0	distractor	1	853	574	67245	13.328	12.846	13.815
ProbeTrack15	12	ProbeTrack	15.0	SCS215a	20120501.122327	20120501.123418	8	0.013328	60	10	60-180	60	92	GapExp	SmallFlash	0	95	2	1	0	distractor	1	640	680	67925	13.328	12.895	13.763
ProbeTrack15	12	ProbeTrack	15.0	SCS215a	20120501.122327	20120501.123425	8	0.013328	60	10	60-180	60	127	GapExp	SmallFlash	0	96	2	1	1	early	-4	-3597	-1000	66925	13.328	12.872	13.775
ProbeTrack15	12	ProbeTrack	15.0	SCS215a	20120501.122327	20120501.123432	8	0.013328	60	10	60-180	60	103	GapExp	SmallFlash	0	97	2	0	1	target	1	529	736	67661	13.328	13.049	13.621
ProbeTrack15	12	ProbeTrack	15.0	SCS215a	20120501.122327	20120501.123438	8	0.013328	60	10	60-180	60	69	GapExp	SmallFlash	0	98	2	30	1	distractor	0	854	-1000	66661	13.328	12.852	13.807
ProbeTrack15	12	ProbeTrack	15.0	SCS215a	20120501.122327	20120501.123444	8	0.013328	60	10	60-180	60	68	GapExp	SmallFlash	0	99	2	1	1	target	1	567	717	67378	13.328	13.309	13.345
ProbeTrack15	12	ProbeTrack	15.0	SCS215a	20120501.122327	20120501.123449	8	0.013328	60	10	60-180	60	155	GapExp	SmallFlash	0	100	2	3	0	distractor	1	656	672	68050	13.328	13.099	13.550
ProbeTrack15	12	ProbeTrack	15.0	SCS215a	20120501.122327	20120501.123457	8	0.013328	60	10	60-180	60	105	GapExp	SmallFlash	0	101	2	3	1	distractor	0	857	-1000	67050	13.328	13.306	13.350
ProbeTrack15	12	ProbeTrack	15.0	SCS215a	20120501.122327	20120501.123506	8	0.013328	60	10	60-180	60	117	GapExp	SmallFlash	0	102	2	1	0	distractor	1	527	737	67787	13.328	12.930	13.740
ProbeTrack15	12	ProbeTrack	15.0	SCS215a	20120501.122327	20120501.123512	8	0.013328	60	10	60-180	60	116	GapExp	SmallFlash	0	103	2	3	1	target	1	472	764	68551	13.328	13.296	13.359
ProbeTrack15	12	ProbeTrack	15.0	SCS215a	20120501.122327	20120501.123519	8	0.013328	60	10	60-180	60	133	GapExp	SmallFlash	0	104	2	0	0	distractor	1	665	668	69219	13.328	13.306	13.348
ProbeTrack15	12	ProbeTrack	15.0	SCS215a	20120501.122327	20120501.123525	8	0.013328	60	10	60-180	60	72	GapExp	SmallFlash	0	105	2	30	0	distractor	1	886	557	69776	13.328	13.310	13.355
ProbeTrack15	12	ProbeTrack	15.0	SCS215a	20120501.122327	20120501.123532	8	0.013328	60	10	60-180	60	138	GapExp	SmallFlash	0	106	2	1	0	distractor	1	720	640	70416	13.328	12.939	13.725
ProbeTrack15	12	ProbeTrack	15.0	SCS215a	20120501.122327	20120501.123538	8	0.013328	60	10	60-180	60	142	GapExp	SmallFlash	0	107	2	3	0	distractor	1	735	633	71049	13.328	12.896	13.768
ProbeTrack15	12	ProbeTrack	15.0	SCS215a	20120501.122327	20120501.123545	8	0.013328	60	10	60-180	60	125	GapExp	SmallFlash	0	108	2	1	0	distractor	1	676	662	71711	13.328	13.308	13.349
ProbeTrack15	12	ProbeTrack	15.0	SCS215a	20120501.122327	20120501.123551	8	0.013328	60	10	60-180	60	84	GapExp	SmallFlash	0	109	2	30	0	distractor	1	728	636	72347	13.328	13.106	13.535
ProbeTrack15	12	ProbeTrack	15.0	SCS215a	20120501.122327	20120501.123558	8	0.013328	60	10	60-180	60	89	GapExp	SmallFlash	0	110	2	1	1	target	1	687	657	73004	13.328	13.105	13.553
ProbeTrack15	12	ProbeTrack	15.0	SCS215a	20120501.122327	20120501.123604	8	0.013328	60	10	60-180	60	115	GapExp	SmallFlash	0	111	2	30	0	early	-4	-3836	-1000	72004	13.328	12.849	13.815
ProbeTrack15	12	ProbeTrack	15.0	SCS215a	20120501.122327	20120501.123611	8	0.013328	60	10	60-180	60	148	GapExp	SmallFlash	0	112	2	0	1	target	1	649	676	72680	13.328	12.910	13.743
ProbeTrack15	12	ProbeTrack	15.0	SCS215a	20120501.122327	20120501.123619	8	0.013328	60	10	60-180	60	164	GapExp	SmallFlash	0	113	2	30	0	distractor	1	964	518	73198	13.328	13.017	13.657
ProbeTrack15	12	ProbeTrack	15.0	SCS215a	20120501.122327	20120501.123626	8	0.013328	60	10	60-180	60	118	GapExp	SmallFlash	0	114	2	30	1	target	1	635	683	73881	13.328	13.106	13.536
ProbeTrack15	12	ProbeTrack	15.0	SCS215a	20120501.122327	20120501.123633	8	0.013328	60	10	60-180	60	150	GapExp	SmallFlash	0	115	2	0	1	early	-4	-3781	-1000	72881	13.328	12.865	13.796
ProbeTrack15	12	ProbeTrack	15.0	SCS215a	20120501.122327	20120501.123641	8	0.013328	60	10	60-180	60	123	GapExp	SmallFlash	0	116	2	1	1	distractor	0	424	-1000	71881	13.328	12.862	13.806
ProbeTrack15	12	ProbeTrack	15.0	SCS215a	20120501.122327	20120501.123647	8	0.013328	60	10	60-180	60	168	GapExp	SmallFlash	0	117	2	30	0	distractor	1	726	637	72518	13.328	12.940	13.716
ProbeTrack15	12	ProbeTrack	15.0	SCS215a	20120501.122327	20120501.123654	8	0.013328	60	10	60-180	60	68	GapExp	SmallFlash	0	118	2	1	0	distractor	1	694	653	73171	13.328	13.112	13.557
ProbeTrack15	12	ProbeTrack	15.0	SCS215a	20120501.122327	20120501.123700	8	0.013328	60	10	60-180	60	86	GapExp	SmallFlash	0	119	2	30	1	target	1	582	709	73880	13.328	13.093	13.563
ProbeTrack15	12	ProbeTrack	15.0	SCS215a	20120501.122327	20120501.123707	8	0.013328	60	10	60-180	60	79	GapExp	SmallFlash	0	120	2	0	1	target	1	636	682	74562	13.328	12.900	13.747
ProbeTrack15	12	ProbeTrack	15.0	SCS215a	20120501.122327	20120501.123713	8	0.013328	60	10	60-180	60	175	GapExp	SmallFlash	0	121	2	0	1	target	1	581	710	75272	13.328	12.993	13.667
ProbeTrack15	12	ProbeTrack	15.0	SCS215a	20120501.122327	20120501.123721	8	0.013328	60	10	60-180	60	74	GapExp	SmallFlash	0	122	2	3	0	distractor	1	711	645	75917	13.328	13.305	13.355
ProbeTrack15	12	ProbeTrack	15.0	SCS215a	20120501.122327	20120501.123726	8	0.013328	60	10	60-180	60	101	GapExp	SmallFlash	0	123	2	3	1	target	1	528	736	76653	13.328	13.193	13.476
ProbeTrack15	12	ProbeTrack	15.0	SCS215a	20120501.122327	20120501.123733	8	0.013328	60	10	60-180	60	63	GapExp	SmallFlash	0	124	2	0	0	distractor	1	618	691	77344	13.328	13.302	13.358
ProbeTrack15	12	ProbeTrack	15.0	SCS215a	20120501.122327	20120501.123738	8	0.013328	60	10	60-180	60	62	GapExp	SmallFlash	0	125	2	30	0	distractor	1	752	624	77968	13.329	13.307	13.643
ProbeTrack15	12	ProbeTrack	15.0	SCS215a	20120501.122327	20120501.123745	8	0.013328	60	10	60-180	60	148	GapExp	SmallFlash	0	126	2	0	1	target	1	614	693	78661	13.328	12.933	13.725
ProbeTrack15	12	ProbeTrack	15.0	SCS215a	20120501.122327	20120501.123752	8	0.013328	60	10	60-180	60	84	GapExp	SmallFlash	0	127	2	3	1	target	1	472	764	79425	13.328	12.962	13.702
ProbeTrack15	12	ProbeTrack	15.0	SCS215a	20120501.122327	20120501.123758	8	0.013328	60	10	60-180	60	140	GapExp	SmallFlash	0	128	2	3	1	target	1	604	698	80123	13.328	13.277	13.378
ProbeTrack15	12	ProbeTrack	15.0	SCS215a	20120501.122327	20120501.123805	8	0.013328	60	10	60-180	60	125	GapExp	SmallFlash	0	129	2	1	1	target	1	573	714	80837	13.380	13.301	26.664
ProbeTrack15	12	ProbeTrack	15.0	SCS215a	20120501.122327	20120501.123812	8	0.013328	60	10	60-180	60	148	GapExp	SmallFlash	0	130	2	0	1	target	1	540	730	81567	13.328	13.106	13.562
ProbeTrack15	12	ProbeTrack	15.0	SCS215a	20120501.122327	20120501.123820	8	0.013328	60	10	60-180	60	162	GapExp	SmallFlash	0	131	2	1	1	early	-4	-3943	-1000	80567	13.328	12.833	13.822
ProbeTrack15	12	ProbeTrack	15.0	SCS215a	20120501.122327	20120501.123826	8	0.013328	60	10	60-180	60	71	GapExp	SmallFlash	0	132	2	1	0	distractor	1	541	730	81297	13.328	13.099	13.564
ProbeTrack15	12	ProbeTrack	15.0	SCS215a	20120501.122327	20120501.123832	8	0.013328	60	10	60-180	60	64	GapExp	SmallFlash	0	133	2	30	0	distractor	1	675	663	81960	13.328	13.070	13.588
ProbeTrack15	12	ProbeTrack	15.0	SCS215a	20120501.122327	20120501.123838	8	0.013328	60	10	60-180	60	84	GapExp	SmallFlash	0	134	2	1	0	distractor	1	582	709	82669	13.328	13.085	13.566
ProbeTrack15	12	ProbeTrack	15.0	SCS215a	20120501.122327	20120501.123844	8	0.013328	60	10	60-180	60	121	GapExp	SmallFlash	0	135	2	3	0	distractor	1	707	647	83316	13.328	12.887	13.772
ProbeTrack15	12	ProbeTrack	15.0	SCS215a	20120501.122327	20120501.123850	8	0.013328	60	10	60-180	60	66	GapExp	SmallFlash	0	136	2	0	0	distractor	1	596	702	84018	13.328	12.906	13.752
ProbeTrack15	12	ProbeTrack	15.0	SCS215a	20120501.122327	20120501.123856	8	0.013328	60	10	60-180	60	152	GapExp	SmallFlash	0	137	2	1	1	target	1	643	679	84697	13.328	12.838	13.822
ProbeTrack15	12	ProbeTrack	15.0	SCS215a	20120501.122327	20120501.123903	8	0.013328	60	10	60-180	60	138	GapExp	SmallFlash	0	138	2	1	1	target	1	545	728	85425	13.328	13.121	13.564
ProbeTrack15	12	ProbeTrack	15.0	SCS215a	20120501.122327	20120501.123910	8	0.013328	60	10	60-180	60	109	GapExp	SmallFlash	0	139	2	30	0	distractor	1	656	672	86097	13.326	12.856	13.425
ProbeTrack15	12	ProbeTrack	15.0	SCS215a	20120501.122327	20120501.123916	8	0.013328	60	10	60-180	60	166	GapExp	SmallFlash	0	140	2	0	0	distractor	1	585	708	86805	13.328	12.887	13.758
ProbeTrack15	12	ProbeTrack	15.0	SCS215a	20120501.122327	20120501.123924	8	0.013328	60	10	60-180	60	67	GapExp	SmallFlash	0	141	2	1	1	target	1	735	633	87438	13.328	12.910	13.544
ProbeTrack15	12	ProbeTrack	15.0	SCS215a	20120501.122327	20120501.123930	8	0.013328	60	10	60-180	60	95	GapExp	SmallFlash	0	142	2	1	0	distractor	1	553	724	88162	13.328	12.928	13.718
ProbeTrack15	12	ProbeTrack	15.0	SCS215a	20120501.122327	20120501.123935	8	0.013328	60	10	60-180	60	78	GapExp	SmallFlash	0	143	2	0	1	target	1	435	783	88945	13.328	12.841	13.745
ProbeTrack15	12	ProbeTrack	15.0	SCS215a	20120501.122327	20120501.123941	8	0.013328	60	10	60-180	60	171	GapExp	SmallFlash	0	144	2	30	1	target	1	758	621	89566	13.328	13.105	13.549
ProbeTrack15	12	ProbeTrack	15.0	SCS215a	20120501.122327	20120501.123949	8	0.013328	60	10	60-180	60	133	GapExp	SmallFlash	0	145	2	0	0	distractor	1	725	638	90204	13.328	13.087	13.575
ProbeTrack15	12	ProbeTrack	15.0	SCS215a	20120501.122327	20120501.123956	8	0.013328	60	10	60-180	60	135	GapExp	SmallFlash	0	146	2	1	1	target	1	528	736	90940	13.328	12.855	13.809
ProbeTrack15	12	ProbeTrack	15.0	SCS215a	20120501.122327	20120501.124003	8	0.013328	60	10	60-180	60	124	GapExp	SmallFlash	0	147	2	30	1	early	-4	-3944	-1000	89940	13.328	12.936	13.767
ProbeTrack15	12	ProbeTrack	15.0	SCS215a	20120501.122327	20120501.124010	8	0.013328	60	10	60-180	60	124	GapExp	SmallFlash	0	148	2	1	1	target	1	649	676	90616	13.328	13.279	13.368
ProbeTrack15	12	ProbeTrack	15.0	SCS215a	20120501.122327	20120501.124016	8	0.013328	60	10	60-180	60	135	GapExp	SmallFlash	0	149	2	3	1	target	1	580	710	91326	13.328	13.100	13.551
ProbeTrack15	12	ProbeTrack	15.0	SCS215a	20120501.122327	20120501.124023	8	0.013328	60	10	60-180	60	135	GapExp	SmallFlash	0	150	2	3	1	target	1	394	803	92129	13.328	12.881	13.782
ProbeTrack15	12	ProbeTrack	15.0	SCS215a	20120501.122327	20120501.124030	8	0.013328	60	10	60-180	60	179	GapExp	SmallFlash	0	151	2	1	0	target	0	306	-1000	91129	13.328	12.897	13.760
ProbeTrack15	12	ProbeTrack	15.0	SCS215a	20120501.122327	20120501.124037	8	0.013328	60	10	60-180	60	92	GapExp	SmallFlash	0	152	2	1	1	target	1	323	839	91968	13.328	12.849	13.800
ProbeTrack15	12	ProbeTrack	15.0	SCS215a	20120501.122327	20120501.124043	8	0.013328	60	10	60-180	60	163	GapExp	SmallFlash	0	153	2	0	0	target	0	352	-1000	90968	13.328	12.935	13.721
ProbeTrack15	12	ProbeTrack	15.0	SCS215a	20120501.122327	20120501.124049	8	0.013328	60	10	60-180	60	107	GapExp	SmallFlash	0	154	2	3	0	distractor	1	758	621	91589	13.328	13.297	13.348
ProbeTrack15	12	ProbeTrack	15.0	SCS215a	20120501.122327	20120501.124056	8	0.013328	60	10	60-180	60	84	GapExp	SmallFlash	0	155	2	3	1	distractor	0	520	-1000	90589	13.328	13.305	13.357
ProbeTrack15	12	ProbeTrack	15.0	SCS215a	20120501.122327	20120501.124102	8	0.013328	60	10	60-180	60	116	GapExp	SmallFlash	0	156	2	3	0	distractor	1	654	673	91262	13.328	12.847	13.797
ProbeTrack15	12	ProbeTrack	15.0	SCS215a	20120501.122327	20120501.124108	8	0.013328	60	10	60-180	60	106	GapExp	SmallFlash	0	157	2	0	0	distractor	1	728	636	91898	13.328	12.892	13.773
ProbeTrack15	12	ProbeTrack	15.0	SCS215a	20120501.122327	20120501.124114	8	0.013328	60	10	60-180	60	92	GapExp	SmallFlash	0	158	2	30	0	distractor	1	683	659	92557	13.328	13.107	13.540
ProbeTrack15	12	ProbeTrack	15.0	SCS215a	20120501.122327	20120501.124120	8	0.013328	60	10	60-180	60	165	GapExp	SmallFlash	0	159	2	0	1	target	1	518	741	93298	13.328	13.098	13.542
ProbeTrack15	12	ProbeTrack	15.0	SCS215a	20120501.122327	20120501.124127	8	0.013328	60	10	60-180	60	91	GapExp	SmallFlash	0	160	2	30	0	distractor	1	769	616	93914	13.328	12.960	13.694
ProbeTrack15	12	ProbeTrack	15.0	SCS215a	20120501.122327	20120501.124134	8	0.013328	60	10	60-180	60	105	GapExp	SmallFlash	0	161	2	1	0	distractor	1	628	686	94600	13.328	12.882	13.769
ProbeTrack15	12	ProbeTrack	15.0	SCS215a	20120501.122327	20120501.124140	8	0.013328	60	10	60-180	60	166	GapExp	SmallFlash	0	162	2	30	0	distractor	1	865	568	95168	13.328	12.932	13.752
ProbeTrack15	12	ProbeTrack	15.0	SCS215a	20120501.122327	20120501.124148	8	0.013328	60	10	60-180	60	178	GapExp	SmallFlash	0	163	2	0	0	distractor	1	726	637	95805	13.328	13.256	13.406
ProbeTrack15	12	ProbeTrack	15.0	SCS215a	20120501.122327	20120501.124155	8	0.013328	60	10	60-180	60	174	GapExp	SmallFlash	0	164	2	3	0	distractor	1	611	695	96500	13.414	12.905	27.069
ProbeTrack15	12	ProbeTrack	15.0	SCS215a	20120501.122327	20120501.124203	8	0.013328	60	10	60-180	60	98	GapExp	SmallFlash	0	165	2	0	0	distractor	1	701	650	97150	13.328	13.120	13.535
ProbeTrack15	12	ProbeTrack	15.0	SCS215a	20120501.122327	20120501.124210	8	0.013328	60	10	60-180	60	150	GapExp	SmallFlash	0	166	2	3	1	target	1	638	681	97831	13.328	12.839	13.811
ProbeTrack15	12	ProbeTrack	15.0	SCS215a	20120501.122327	20120501.124216	8	0.013328	60	10	60-180	60	123	GapExp	SmallFlash	0	167	2	1	1	target	1	493	754	98585	13.328	12.930	13.727
ProbeTrack15	12	ProbeTrack	15.0	SCS215a	20120501.122327	20120501.124223	8	0.013328	60	10	60-180	60	73	GapExp	SmallFlash	0	168	2	30	0	distractor	1	648	676	99261	13.328	13.067	13.704
ProbeTrack15	12	ProbeTrack	15.0	SCS215a	20120501.122327	20120501.124230	8	0.013328	60	10	60-180	60	128	GapExp	SmallFlash	0	169	2	30	0	distractor	1	668	666	99927	13.328	13.097	13.551
ProbeTrack15	12	ProbeTrack	15.0	SCS215a	20120501.122327	20120501.124237	8	0.013328	60	10	60-180	60	165	GapExp	SmallFlash	0	170	2	0	0	target	0	459	-1000	98927	13.328	12.841	13.817
ProbeTrack15	12	ProbeTrack	15.0	SCS215a	20120501.122327	20120501.124245	8	0.013328	60	10	60-180	60	172	GapExp	SmallFlash	0	171	2	3	0	distractor	1	564	718	99645	13.328	12.872	13.771
ProbeTrack15	12	ProbeTrack	15.0	SCS215a	20120501.122327	20120501.124252	8	0.013328	60	10	60-180	60	119	GapExp	SmallFlash	0	172	2	30	0	early	-4	-3878	-1000	98645	13.328	12.942	13.714
ProbeTrack15	12	ProbeTrack	15.0	SCS215a	20120501.122327	20120501.124259	8	0.013328	60	10	60-180	60	105	GapExp	SmallFlash	0	173	2	1	0	target	0	587	-1000	97645	13.328	13.304	13.348
ProbeTrack15	12	ProbeTrack	15.0	SCS215a	20120501.122327	20120501.124306	8	0.013328	60	10	60-180	60	92	GapExp	SmallFlash	0	174	2	3	0	early	-4	-2921	-1000	96645	13.328	13.097	13.551
ProbeTrack15	12	ProbeTrack	15.0	SCS215a	20120501.122327	20120501.124312	8	0.013328	60	10	60-180	60	73	GapExp	SmallFlash	0	175	2	3	0	distractor	1	614	693	97338	13.328	13.098	13.556
ProbeTrack15	12	ProbeTrack	15.0	SCS215a	20120501.122327	20120501.124318	8	0.013328	60	10	60-180	60	140	GapExp	SmallFlash	0	176	2	30	0	distractor	1	571	715	98053	13.328	12.856	13.795
ProbeTrack15	12	ProbeTrack	15.0	SCS215a	20120501.122327	20120501.124325	8	0.013328	60	10	60-180	60	149	GapExp	SmallFlash	0	177	2	1	1	target	1	730	635	98688	13.328	13.109	13.569
ProbeTrack15	12	ProbeTrack	15.0	SCS215a	20120501.122327	20120501.124332	8	0.013328	60	10	60-180	60	110	GapExp	SmallFlash	0	178	2	3	0	distractor	1	631	685	99373	13.328	13.092	13.570
ProbeTrack15	12	ProbeTrack	15.0	SCS215a	20120501.122327	20120501.124346	8	0.013328	60	10	60-180	60	85	GapExp	SmallFlash	0	179	2	0	1	target	1	585	708	100081	13.328	12.842	13.815
ProbeTrack15	12	ProbeTrack	15.0	SCS215a	20120501.122327	20120501.124352	8	0.013328	60	10	60-180	60	81	GapExp	SmallFlash	0	180	2	1	1	target	1	644	678	100759	13.328	12.973	13.695
ProbeTrack15	12	ProbeTrack	15.0	SCS215a	20120501.122327	20120501.124359	8	0.013328	60	10	60-180	60	161	GapExp	SmallFlash	0	181	2	1	0	distractor	1	820	590	101349	13.328	12.949	13.713
ProbeTrack15	12	ProbeTrack	15.0	SCS215a	20120501.122327	20120501.124407	8	0.013328	60	10	60-180	60	170	GapExp	SmallFlash	0	182	2	0	1	target	1	645	678	102027	13.328	12.978	13.670
ProbeTrack15	12	ProbeTrack	15.0	SCS215a	20120501.122327	20120501.124414	8	0.013328	60	10	60-180	60	173	GapExp	SmallFlash	0	183	2	3	0	early	-4	-4239	-1000	101027	13.328	12.971	13.686
ProbeTrack15	12	ProbeTrack	15.0	SCS215a	20120501.122327	20120501.124421	8	0.013328	60	10	60-180	60	105	GapExp	SmallFlash	0	184	2	3	0	distractor	1	821	590	101617	13.328	12.856	13.806
ProbeTrack15	12	ProbeTrack	15.0	SCS215a	20120501.122327	20120501.124428	8	0.013328	60	10	60-180	60	73	GapExp	SmallFlash	0	185	2	0	1	target	1	525	738	102355	13.328	12.855	13.794
ProbeTrack15	12	ProbeTrack	15.0	SCS215a	20120501.122327	20120501.124434	8	0.013328	60	10	60-180	60	130	GapExp	SmallFlash	0	186	2	30	0	early	-4	-4027	-1000	101355	13.328	12.863	13.801
ProbeTrack15	12	ProbeTrack	15.0	SCS215a	20120501.122327	20120501.124441	8	0.013328	60	10	60-180	60	147	GapExp	SmallFlash	0	187	2	3	0	distractor	1	436	782	102137	13.328	13.094	13.556
ProbeTrack15	12	ProbeTrack	15.0	SCS215a	20120501.122327	20120501.124448	8	0.013328	60	10	60-180	60	69	GapExp	SmallFlash	0	188	2	0	0	distractor	1	536	732	102869	13.328	12.859	13.801
ProbeTrack15	12	ProbeTrack	15.0	SCS215a	20120501.122327	20120501.124454	8	0.013328	60	10	60-180	60	138	GapExp	SmallFlash	0	189	2	3	0	distractor	1	566	717	103586	13.328	13.211	13.440
ProbeTrack15	12	ProbeTrack	15.0	SCS215a	20120501.122327	20120501.124501	8	0.013328	60	10	60-180	60	104	GapExp	SmallFlash	0	190	2	3	0	distractor	1	539	731	104317	13.328	12.866	13.796
ProbeTrack15	12	ProbeTrack	15.0	SCS215a	20120501.122327	20120501.124507	8	0.013328	60	10	60-180	60	74	GapExp	SmallFlash	0	191	2	30	1	distractor	0	688	-1000	103317	13.328	12.954	13.677
ProbeTrack15	12	ProbeTrack	15.0	SCS215a	20120501.122327	20120501.124514	8	0.013328	60	10	60-180	60	168	GapExp	SmallFlash	0	192	2	30	1	target	1	453	774	104091	13.328	13.308	13.351
ProbeTrack15	12	ProbeTrack	15.0	SCS215a	20120501.122327	20120501.124522	8	0.013328	60	10	60-180	60	105	GapExp	SmallFlash	0	193	2	3	0	early	-4	-3223	-1000	103091	13.328	12.843	13.807
ProbeTrack15	12	ProbeTrack	15.0	SCS215a	20120501.122327	20120501.124528	8	0.013328	60	10	60-180	60	103	GapExp	SmallFlash	0	194	2	3	1	target	1	552	724	103815	13.328	12.881	13.777
ProbeTrack15	12	ProbeTrack	15.0	SCS215a	20120501.122327	20120501.124535	8	0.013328	60	10	60-180	60	179	GapExp	SmallFlash	0	195	2	0	0	distractor	1	640	680	104495	13.328	12.928	13.726
ProbeTrack15	12	ProbeTrack	15.0	SCS215a	20120501.122327	20120501.124542	8	0.013328	60	10	60-180	60	169	GapExp	SmallFlash	0	196	2	3	1	target	1	525	738	105233	13.328	12.976	13.678
ProbeTrack15	12	ProbeTrack	15.0	SCS215a	20120501.122327	20120501.124549	8	0.013328	60	10	60-180	60	95	GapExp	SmallFlash	0	197	2	1	1	early	-4	-3160	-1000	104233	13.328	13.207	13.447
ProbeTrack15	12	ProbeTrack	15.0	SCS215a	20120501.122327	20120501.124555	8	0.013328	60	10	60-180	60	115	GapExp	SmallFlash	0	198	2	1	0	distractor	1	769	616	104849	13.328	12.901	13.767
ProbeTrack15	12	ProbeTrack	15.0	SCS215a	20120501.122327	20120501.124602	8	0.013328	60	10	60-180	60	168	GapExp	SmallFlash	0	199	2	3	1	target	1	725	638	105487	13.328	12.908	13.764
ProbeTrack15	12	ProbeTrack	15.0	SCS215a	20120501.122327	20120501.124610	8	0.013328	60	10	60-180	60	126	GapExp	SmallFlash	0	200	2	3	1	target	1	584	708	106195	13.328	12.899	13.765
ProbeTrack15	12	ProbeTrack	15.0	SCS215a	20120501.124835	20120501.124845	8	0.013328	60	10	60-180	60	141	GapPrac	Blank	1	1	2	0	0	distractor	1	2183	0	106195	13.374	10.364	16.286
ProbeTrack15	12	ProbeTrack	15.0	SCS215a	20120501.124835	20120501.124854	8	0.013328	60	10	60-180	60	74	GapPrac	Blank	1	2	2	30	0	target	0	1024	-1000	105195	13.328	10.685	15.972
ProbeTrack15	12	ProbeTrack	15.0	SCS215a	20120501.124835	20120501.124902	8	0.013328	60	10	60-180	60	120	GapPrac	Blank	1	3	2	3	0	distractor	1	1316	342	105537	13.328	13.261	13.389
ProbeTrack15	12	ProbeTrack	15.0	SCS215a	20120501.124835	20120501.124909	8	0.013328	60	10	60-180	60	151	GapPrac	Blank	1	4	2	30	1	target	1	536	732	106269	13.328	13.098	13.550
ProbeTrack15	12	ProbeTrack	15.0	SCS215a	20120501.124835	20120501.124916	8	0.013328	60	10	60-180	60	87	GapPrac	Blank	1	5	2	30	0	distractor	1	613	694	106963	13.328	13.093	13.557
ProbeTrack15	12	ProbeTrack	15.0	SCS215a	20120501.124835	20120501.124923	8	0.013328	60	10	60-180	60	89	GapPrac	Blank	1	6	2	1	1	target	1	691	655	107618	13.328	9.549	17.123
ProbeTrack15	12	ProbeTrack	15.0	SCS215a	20120501.124835	20120501.124929	8	0.013328	60	10	60-180	60	121	GapPrac	Blank	1	7	2	3	0	distractor	1	613	694	108312	13.328	9.702	16.956
ProbeTrack15	12	ProbeTrack	15.0	SCS215a	20120501.124835	20120501.124936	8	0.013328	60	10	60-180	60	171	GapPrac	Blank	1	8	2	0	1	target	1	400	800	109112	13.328	9.037	17.614
ProbeTrack15	12	ProbeTrack	15.0	SCS215a	20120501.124835	20120501.124942	8	0.013328	60	10	60-180	60	82	GapPrac	Blank	1	9	2	0	0	early	-4	-2983	-1000	108112	13.328	13.306	13.351
ProbeTrack15	12	ProbeTrack	15.0	SCS215a	20120501.124835	20120501.124949	8	0.013328	60	10	60-180	60	154	GapPrac	Blank	1	10	2	1	1	target	1	696	652	108764	13.328	11.646	15.007
ProbeTrack15	12	ProbeTrack	15.0	SCS215a	20120501.124835	20120501.124956	8	0.013328	60	10	60-180	60	82	GapPrac	Blank	1	11	2	3	1	early	-4	-2758	-1000	107764	13.328	12.431	14.221
ProbeTrack15	12	ProbeTrack	15.0	SCS215a	20120501.124835	20120501.125002	8	0.013328	60	10	60-180	60	75	GapPrac	Blank	1	12	2	1	0	distractor	1	747	627	108391	13.328	11.164	15.487
ProbeTrack15	12	ProbeTrack	15.0	SCS215a	20120501.124835	20120501.125008	8	0.013328	60	10	60-180	60	64	GapPrac	Blank	1	13	2	30	1	target	1	615	693	109084	13.328	13.308	13.351
ProbeTrack15	12	ProbeTrack	15.0	SCS215a	20120501.124835	20120501.125014	8	0.013328	60	10	60-180	60	162	GapPrac	Blank	1	14	2	0	1	early	-4	-4055	-1000	108084	13.328	12.722	13.947
ProbeTrack15	12	ProbeTrack	15.0	SCS215a	20120501.124835	20120501.125021	8	0.013328	60	10	60-180	60	67	GapPrac	Blank	1	15	2	3	1	distractor	0	834	-1000	107084	13.328	13.282	13.361
ProbeTrack15	12	ProbeTrack	15.0	SCS215a	20120501.124835	20120501.125027	8	0.013328	60	10	60-180	60	146	GapPrac	Blank	1	16	2	0	0	target	0	687	-1000	106084	13.328	4.813	21.859
ProbeTrack15	12	ProbeTrack	15.0	SCS215a	20120501.124835	20120501.125034	8	0.013328	60	10	60-180	60	109	GapPrac	Blank	1	17	2	30	1	early	-4	-3645	-1000	105084	13.328	10.460	16.190
ProbeTrack15	12	ProbeTrack	15.0	SCS215a	20120501.124835	20120501.125041	8	0.013328	60	10	60-180	60	65	GapPrac	Blank	1	18	2	30	0	distractor	1	963	519	105603	13.328	13.307	13.350
ProbeTrack15	12	ProbeTrack	15.0	SCS215a	20120501.124835	20120501.125047	8	0.013328	60	10	60-180	60	125	GapPrac	Blank	1	19	2	3	0	target	0	541	-1000	104603	13.328	11.068	15.572
ProbeTrack15	12	ProbeTrack	15.0	SCS215a	20120501.124835	20120501.125054	8	0.013328	60	10	60-180	60	62	GapPrac	Blank	1	20	2	1	0	early	-4	-2741	-1000	103603	13.328	12.710	13.946
ProbeTrack15	12	ProbeTrack	15.0	SCS215a	20120501.125158	20120501.125225	8	0.013328	60	10	60-180	60	62	GapExp	Blank	1	1	2	30	0	distractor	1	808	596	104199	13.384	13.086	13.556
ProbeTrack15	12	ProbeTrack	15.0	SCS215a	20120501.125158	20120501.125232	8	0.013328	60	10	60-180	60	174	GapExp	Blank	1	2	2	0	0	distractor	1	648	676	104875	13.328	13.106	13.549
ProbeTrack15	12	ProbeTrack	15.0	SCS215a	20120501.125158	20120501.125239	8	0.013328	60	10	60-180	60	100	GapExp	Blank	1	3	2	1	0	target	0	680	-1000	103875	13.328	10.188	16.476
ProbeTrack15	12	ProbeTrack	15.0	SCS215a	20120501.125158	20120501.125245	8	0.013328	60	10	60-180	60	87	GapExp	Blank	1	4	2	3	1	early	-4	-3102	-1000	102875	13.328	13.099	13.542
ProbeTrack15	12	ProbeTrack	15.0	SCS215a	20120501.125158	20120501.125252	8	0.013328	60	10	60-180	60	139	GapExp	Blank	1	5	2	1	1	distractor	0	1021	-1000	101875	13.328	11.216	15.427
ProbeTrack15	12	ProbeTrack	15.0	SCS215a	20120501.125158	20120501.125258	8	0.013328	60	10	60-180	60	155	GapExp	Blank	1	6	2	3	0	distractor	1	883	559	102434	13.328	7.640	19.014
ProbeTrack15	12	ProbeTrack	15.0	SCS215a	20120501.125158	20120501.125306	8	0.013328	60	10	60-180	60	129	GapExp	Blank	1	7	2	0	1	target	1	1014	493	102927	13.328	11.694	14.968
ProbeTrack15	12	ProbeTrack	15.0	SCS215a	20120501.125158	20120501.125313	8	0.013328	60	10	60-180	60	151	GapExp	Blank	1	8	2	30	1	target	1	1431	285	103212	13.328	9.931	16.720
ProbeTrack15	12	ProbeTrack	15.0	SCS215a	20120501.125158	20120501.125323	8	0.013328	60	10	60-180	60	146	GapExp	Blank	0	9	2	0	0	distractor	1	577	712	103924	13.328	9.802	16.848
ProbeTrack15	12	ProbeTrack	15.0	SCS215a	20120501.125158	20120501.125331	8	0.013328	60	10	60-180	60	113	GapExp	Blank	0	10	2	3	0	distractor	1	617	692	104616	13.328	13.302	13.357
ProbeTrack15	12	ProbeTrack	15.0	SCS215a	20120501.125158	20120501.125337	8	0.013328	60	10	60-180	60	68	GapExp	Blank	0	11	2	3	1	target	1	560	720	105336	13.328	13.309	13.345
ProbeTrack15	12	ProbeTrack	15.0	SCS215a	20120501.125158	20120501.125343	8	0.013328	60	10	60-180	60	141	GapExp	Blank	0	12	2	0	1	early	-4	-3775	-1000	104336	13.328	10.933	15.728
ProbeTrack15	12	ProbeTrack	15.0	SCS215a	20120501.125158	20120501.125350	8	0.013328	60	10	60-180	60	162	GapExp	Blank	0	13	2	1	1	early	-4	-3607	-1000	103336	13.328	6.043	20.605
ProbeTrack15	12	ProbeTrack	15.0	SCS215a	20120501.125158	20120501.125358	8	0.013328	60	10	60-180	60	99	GapExp	Blank	0	14	2	30	1	distractor	0	515	-1000	102336	13.328	10.718	15.939
ProbeTrack15	12	ProbeTrack	15.0	SCS215a	20120501.125158	20120501.125404	8	0.013328	60	10	60-180	60	148	GapExp	Blank	0	15	2	3	0	distractor	1	516	742	103078	13.328	9.141	17.526
ProbeTrack15	12	ProbeTrack	15.0	SCS215a	20120501.125158	20120501.125411	8	0.013328	60	10	60-180	60	110	GapExp	Blank	0	16	2	0	1	distractor	0	508	-1000	102078	13.328	11.394	15.265
ProbeTrack15	12	ProbeTrack	15.0	SCS215a	20120501.125158	20120501.125417	8	0.013328	60	10	60-180	60	96	GapExp	Blank	0	17	2	1	1	target	1	487	757	102835	13.328	10.894	15.777
ProbeTrack15	12	ProbeTrack	15.0	SCS215a	20120501.125158	20120501.125423	8	0.013328	60	10	60-180	60	151	GapExp	Blank	0	18	2	1	1	target	1	413	794	103629	13.328	10.834	15.823
ProbeTrack15	12	ProbeTrack	15.0	SCS215a	20120501.125158	20120501.125430	8	0.013328	60	10	60-180	60	112	GapExp	Blank	0	19	2	1	0	distractor	1	560	720	104349	13.328	11.760	14.901
ProbeTrack15	12	ProbeTrack	15.0	SCS215a	20120501.125158	20120501.125436	8	0.013328	60	10	60-180	60	108	GapExp	Blank	0	20	2	1	1	target	1	630	685	105034	13.328	13.307	13.345
ProbeTrack15	12	ProbeTrack	15.0	SCS215a	20120501.125158	20120501.125443	8	0.013328	60	10	60-180	60	158	GapExp	Blank	0	21	2	1	0	target	0	962	-1000	104034	13.328	13.266	13.391
ProbeTrack15	12	ProbeTrack	15.0	SCS215a	20120501.125158	20120501.125450	8	0.013328	60	10	60-180	60	122	GapExp	Blank	0	22	2	0	0	target	0	495	-1000	103034	13.328	9.597	17.056
ProbeTrack15	12	ProbeTrack	15.0	SCS215a	20120501.125158	20120501.125457	8	0.013328	60	10	60-180	60	68	GapExp	Blank	0	23	2	1	1	target	1	428	786	103820	13.328	12.906	13.760
ProbeTrack15	12	ProbeTrack	15.0	SCS215a	20120501.125158	20120501.125502	8	0.013328	60	10	60-180	60	161	GapExp	Blank	0	24	2	0	1	target	1	458	771	104591	13.328	10.096	16.567
ProbeTrack15	12	ProbeTrack	15.0	SCS215a	20120501.125158	20120501.125509	8	0.013328	60	10	60-180	60	111	GapExp	Blank	0	25	2	3	0	target	0	483	-1000	103591	13.328	13.298	13.361
ProbeTrack15	12	ProbeTrack	15.0	SCS215a	20120501.125158	20120501.125515	8	0.013328	60	10	60-180	60	152	GapExp	Blank	0	26	2	1	0	early	-4	-3931	-1000	102591	13.328	13.206	13.458
ProbeTrack15	12	ProbeTrack	15.0	SCS215a	20120501.125158	20120501.125522	8	0.013328	60	10	60-180	60	131	GapExp	Blank	0	27	2	30	1	distractor	0	3991932	-1000	101591	13.328	9.834	16.822
ProbeTrack15	12	ProbeTrack	15.0	SCS215a	20120501.125158	20120501.125530	8	0.013328	60	10	60-180	60	170	GapExp	Blank	0	28	2	3	1	target	1	696	652	102243	13.328	10.289	16.366
ProbeTrack15	12	ProbeTrack	15.0	SCS215a	20120501.125158	20120501.125536	8	0.013328	60	10	60-180	60	82	GapExp	Blank	0	29	2	30	0	distractor	1	808	596	102839	13.328	9.727	16.930
ProbeTrack15	12	ProbeTrack	15.0	SCS215a	20120501.125158	20120501.125542	8	0.013328	60	10	60-180	60	97	GapExp	Blank	0	30	2	0	0	early	-4	-392	-1000	101839	13.328	9.732	16.917
ProbeTrack15	12	ProbeTrack	15.0	SCS215a	20120501.125158	20120501.125549	8	0.013328	60	10	60-180	60	152	GapExp	Blank	0	31	2	3	1	early	-4	-2718	-1000	100839	13.328	13.105	13.558
ProbeTrack15	12	ProbeTrack	15.0	SCS215a	20120501.125158	20120501.125556	8	0.013328	60	10	60-180	60	169	GapExp	Blank	0	32	2	0	1	target	1	636	682	101521	13.328	7.557	19.111
ProbeTrack15	12	ProbeTrack	15.0	SCS215a	20120501.125158	20120501.125603	8	0.013328	60	10	60-180	60	174	GapExp	Blank	0	33	2	1	0	early	-4	-4230	-1000	100521	13.328	10.870	15.778
ProbeTrack15	12	ProbeTrack	15.0	SCS215a	20120501.125158	20120501.125611	8	0.013328	60	10	60-180	60	170	GapExp	Blank	0	34	2	0	1	target	1	740	630	101151	13.328	13.090	13.559
ProbeTrack15	12	ProbeTrack	15.0	SCS215a	20120501.125158	20120501.125618	8	0.013328	60	10	60-180	60	126	GapExp	Blank	0	35	2	3	0	target	0	1026	-1000	100151	13.328	13.277	13.365
ProbeTrack15	12	ProbeTrack	15.0	SCS215a	20120501.125158	20120501.125625	8	0.013328	60	10	60-180	60	145	GapExp	Blank	0	36	2	3	0	distractor	1	577	712	100863	13.328	12.539	14.327
ProbeTrack15	12	ProbeTrack	15.0	SCS215a	20120501.125158	20120501.125632	8	0.013328	60	10	60-180	60	114	GapExp	Blank	0	37	2	3	1	target	1	635	683	101546	13.328	12.274	14.365
ProbeTrack15	12	ProbeTrack	15.0	SCS215a	20120501.125158	20120501.125638	8	0.013328	60	10	60-180	60	168	GapExp	Blank	0	38	2	30	0	distractor	1	1105	448	101994	13.328	9.595	17.059
ProbeTrack15	12	ProbeTrack	15.0	SCS215a	20120501.125158	20120501.125646	8	0.013328	60	10	60-180	60	123	GapExp	Blank	0	39	2	3	0	distractor	1	1364	318	102312	13.328	8.754	17.900
ProbeTrack15	12	ProbeTrack	15.0	SCS215a	20120501.125158	20120501.125653	8	0.013328	60	10	60-180	60	161	GapExp	Blank	0	40	2	30	0	distractor	1	1391	305	102617	13.328	13.309	13.350
ProbeTrack15	12	ProbeTrack	15.0	SCS215a	20120501.125158	20120501.125702	8	0.013328	60	10	60-180	60	172	GapExp	Blank	0	41	2	0	0	target	0	796	-1000	101617	13.328	9.562	17.100
ProbeTrack15	12	ProbeTrack	15.0	SCS215a	20120501.125158	20120501.125710	8	0.013328	60	10	60-180	60	137	GapExp	Blank	0	42	2	0	0	early	-4	-3720	-1000	100617	13.328	10.477	16.175
ProbeTrack15	12	ProbeTrack	15.0	SCS215a	20120501.125158	20120501.125717	8	0.013328	60	10	60-180	60	170	GapExp	Blank	0	43	2	1	0	early	-4	-3380	-1000	99617	13.328	9.786	16.869
ProbeTrack15	12	ProbeTrack	15.0	SCS215a	20120501.125158	20120501.125724	8	0.013328	60	10	60-180	60	73	GapExp	Blank	0	44	2	30	1	distractor	0	1306	-1000	98617	13.328	8.732	17.928
ProbeTrack15	12	ProbeTrack	15.0	SCS215a	20120501.125158	20120501.125732	8	0.013328	60	10	60-180	60	86	GapExp	Blank	0	45	2	0	1	target	1	1314	343	98960	13.328	12.656	14.007
ProbeTrack15	12	ProbeTrack	15.0	SCS215a	20120501.125158	20120501.125738	8	0.013328	60	10	60-180	60	113	GapExp	Blank	0	46	2	30	0	early	-4	-3802	-1000	97960	13.328	12.967	13.699
ProbeTrack15	12	ProbeTrack	15.0	SCS215a	20120501.125158	20120501.125745	8	0.013328	60	10	60-180	60	162	GapExp	Blank	0	47	2	0	0	distractor	1	760	620	98580	13.328	12.414	14.225
ProbeTrack15	12	ProbeTrack	15.0	SCS215a	20120501.125158	20120501.125753	8	0.013328	60	10	60-180	60	99	GapExp	Blank	0	48	2	30	1	target	1	701	650	99230	13.328	7.631	19.026
ProbeTrack15	12	ProbeTrack	15.0	SCS215a	20120501.125158	20120501.125800	8	0.013328	60	10	60-180	60	70	GapExp	Blank	0	49	2	1	1	distractor	0	741	-1000	98230	13.328	7.699	18.943
ProbeTrack15	12	ProbeTrack	15.0	SCS215a	20120501.125158	20120501.125806	8	0.013328	60	10	60-180	60	171	GapExp	Blank	0	50	2	3	1	early	-4	-4010	-1000	97230	13.328	11.999	14.658
ProbeTrack15	12	ProbeTrack	15.0	SCS215a	20120501.125158	20120501.125814	8	0.013328	60	10	60-180	60	152	GapExp	Blank	0	51	2	30	1	early	-4	-2784	-1000	96230	13.328	11.557	15.102
ProbeTrack15	12	ProbeTrack	15.0	SCS215a	20120501.125158	20120501.125822	8	0.013328	60	10	60-180	60	97	GapExp	Blank	0	52	2	30	1	target	1	1380	310	96540	13.323	12.060	13.547
ProbeTrack15	12	ProbeTrack	15.0	SCS215a	20120501.125158	20120501.125829	8	0.013328	60	10	60-180	60	165	GapExp	Blank	0	53	2	3	0	early	-4	-4128	-1000	95540	13.328	9.806	16.838
ProbeTrack15	12	ProbeTrack	15.0	SCS215a	20120501.125158	20120501.125837	8	0.013328	60	10	60-180	60	99	GapExp	Blank	0	54	2	30	0	distractor	1	1733	134	95674	13.328	13.099	13.549
ProbeTrack15	12	ProbeTrack	15.0	SCS215a	20120501.125158	20120501.125845	8	0.013328	60	10	60-180	60	129	GapExp	Blank	0	55	2	1	1	target	1	1355	323	95997	13.328	5.204	21.445
ProbeTrack15	12	ProbeTrack	15.0	SCS215a	20120501.125158	20120501.125852	8	0.013328	60	10	60-180	60	138	GapExp	Blank	0	56	2	30	0	distractor	1	1310	345	96342	13.328	6.007	20.657
ProbeTrack15	12	ProbeTrack	15.0	SCS215a	20120501.125158	20120501.125900	8	0.013328	60	10	60-180	60	92	GapExp	Blank	0	57	2	3	0	distractor	1	898	551	96893	13.328	10.599	16.049
ProbeTrack15	12	ProbeTrack	15.0	SCS215a	20120501.125158	20120501.125907	8	0.013328	60	10	60-180	60	155	GapExp	Blank	0	58	2	30	0	target	0	944	-1000	95893	13.328	13.307	13.350
ProbeTrack15	12	ProbeTrack	15.0	SCS215a	20120501.125158	20120501.125915	8	0.013328	60	10	60-180	60	128	GapExp	Blank	0	59	2	0	0	early	-4	-3599	-1000	94893	13.328	8.629	18.007
ProbeTrack15	12	ProbeTrack	15.0	SCS215a	20120501.125158	20120501.125923	8	0.013328	60	10	60-180	60	66	GapExp	Blank	0	60	2	3	1	target	1	647	677	95570	13.328	4.487	22.165
ProbeTrack15	12	ProbeTrack	15.0	SCS215a	20120501.125158	20120501.125929	8	0.013328	60	10	60-180	60	80	GapExp	Blank	0	61	2	1	1	distractor	0	1257	-1000	94570	13.328	9.506	17.152
ProbeTrack15	12	ProbeTrack	15.0	SCS215a	20120501.125158	20120501.125935	8	0.013328	60	10	60-180	60	166	GapExp	Blank	0	62	2	1	1	target	1	778	611	95181	13.328	11.680	14.969
ProbeTrack15	12	ProbeTrack	15.0	SCS215a	20120501.125158	20120501.125943	8	0.013328	60	10	60-180	60	74	GapExp	Blank	0	63	2	1	0	distractor	1	1342	329	95510	13.328	13.305	13.349
ProbeTrack15	12	ProbeTrack	15.0	SCS215a	20120501.125158	20120501.125949	8	0.013328	60	10	60-180	60	164	GapExp	Blank	0	64	2	0	0	target	0	727	-1000	94510	13.328	10.275	16.376
ProbeTrack15	12	ProbeTrack	15.0	SCS215a	20120501.125158	20120501.125957	8	0.013328	60	10	60-180	60	145	GapExp	Blank	0	65	2	30	0	early	-4	-4079	-1000	93510	13.328	9.440	17.209
ProbeTrack15	12	ProbeTrack	15.0	SCS215a	20120501.125158	20120501.130004	8	0.013328	60	10	60-180	60	169	GapExp	Blank	0	66	2	0	1	distractor	0	323	-1000	92510	13.328	9.787	16.870
ProbeTrack15	12	ProbeTrack	15.0	SCS215a	20120501.125158	20120501.130011	8	0.013328	60	10	60-180	60	115	GapExp	Blank	0	67	2	0	0	early	-4	-3242	-1000	91510	13.328	13.309	13.352
ProbeTrack15	12	ProbeTrack	15.0	SCS215a	20120501.125158	20120501.130017	8	0.013328	60	10	60-180	60	107	GapExp	Blank	0	68	2	1	1	target	1	2246	0	91510	13.328	13.256	13.406
ProbeTrack15	12	ProbeTrack	15.0	SCS215a	20120501.125158	20120501.130025	8	0.013328	60	10	60-180	60	110	GapExp	Blank	0	69	2	30	0	target	0	600	-1000	90510	13.328	11.433	15.666
ProbeTrack15	12	ProbeTrack	15.0	SCS215a	20120501.125158	20120501.130033	8	0.013328	60	10	60-180	60	166	GapExp	Blank	0	70	2	0	0	distractor	1	1346	327	90837	13.328	10.921	15.750
ProbeTrack15	12	ProbeTrack	15.0	SCS215a	20120501.125158	20120501.130040	8	0.013328	60	10	60-180	60	83	GapExp	Blank	0	71	2	3	1	target	1	1209	396	91233	13.328	13.308	13.351
ProbeTrack15	12	ProbeTrack	15.0	SCS215a	20120501.125158	20120501.130047	8	0.013328	60	10	60-180	60	77	GapExp	Blank	0	72	2	3	0	distractor	1	1238	381	91614	13.328	13.309	13.345
ProbeTrack15	12	ProbeTrack	15.0	SCS215a	20120501.125158	20120501.130053	8	0.013328	60	10	60-180	60	157	GapExp	Blank	0	73	2	3	1	target	1	1139	431	92045	13.328	13.275	13.366
ProbeTrack15	12	ProbeTrack	15.0	SCS215a	20120501.125158	20120501.130101	8	0.013328	60	10	60-180	60	179	GapExp	Blank	0	74	2	0	0	target	0	1224	-1000	91045	13.328	10.817	15.854
ProbeTrack15	12	ProbeTrack	15.0	SCS215a	20120501.125158	20120501.130109	8	0.013328	60	10	60-180	60	147	GapExp	Blank	0	75	2	3	1	early	-4	-3895	-1000	90045	13.328	13.114	13.552
ProbeTrack15	12	ProbeTrack	15.0	SCS215a	20120501.125158	20120501.130116	8	0.013328	60	10	60-180	60	86	GapExp	Blank	0	76	2	3	1	target	1	562	719	90764	13.328	13.272	13.385
ProbeTrack15	12	ProbeTrack	15.0	SCS215a	20120501.125158	20120501.130122	8	0.013328	60	10	60-180	60	63	GapExp	Blank	0	77	2	1	0	early	-4	-2748	-1000	89764	13.328	13.305	13.353
ProbeTrack15	12	ProbeTrack	15.0	SCS215a	20120501.125158	20120501.130129	8	0.013328	60	10	60-180	60	151	GapExp	Blank	0	78	2	0	1	distractor	0	820	-1000	88764	13.328	3.760	22.894
ProbeTrack15	12	ProbeTrack	15.0	SCS215a	20120501.125158	20120501.130136	8	0.013328	60	10	60-180	60	95	GapExp	Blank	0	79	2	1	0	distractor	1	1160	420	89184	13.328	10.913	15.732
ProbeTrack15	12	ProbeTrack	15.0	SCS215a	20120501.125158	20120501.130143	8	0.013328	60	10	60-180	60	148	GapExp	Blank	0	80	2	30	1	distractor	0	1282	-1000	88184	13.328	6.426	20.230
ProbeTrack15	12	ProbeTrack	15.0	SCS215a	20120501.125158	20120501.130151	8	0.013328	60	10	60-180	60	97	GapExp	Blank	0	81	2	1	1	target	1	543	729	88913	13.328	13.309	13.348
ProbeTrack15	12	ProbeTrack	15.0	SCS215a	20120501.125158	20120501.130156	8	0.013328	60	10	60-180	60	175	GapExp	Blank	0	82	2	1	0	distractor	1	1163	419	89332	13.328	10.198	16.478
ProbeTrack15	12	ProbeTrack	15.0	SCS215a	20120501.125158	20120501.130204	8	0.013328	60	10	60-180	60	139	GapExp	Blank	0	83	2	30	1	distractor	0	1303	-1000	88332	13.328	11.925	14.733
ProbeTrack15	12	ProbeTrack	15.0	SCS215a	20120501.125158	20120501.130211	8	0.013328	60	10	60-180	60	63	GapExp	Blank	0	84	2	0	0	target	0	1334	-1000	87332	13.328	9.822	16.823
ProbeTrack15	12	ProbeTrack	15.0	SCS215a	20120501.125158	20120501.130218	8	0.013328	60	10	60-180	60	87	GapExp	Blank	0	85	2	3	1	early	-4	-2296	-1000	86332	13.328	9.922	16.735
ProbeTrack15	12	ProbeTrack	15.0	SCS215a	20120501.125158	20120501.130223	8	0.013328	60	10	60-180	60	116	GapExp	Blank	0	86	2	0	0	distractor	1	2050	0	86332	13.328	13.287	13.354
ProbeTrack15	12	ProbeTrack	15.0	SCS215a	20120501.125158	20120501.130232	8	0.013328	60	10	60-180	60	144	GapExp	Blank	0	87	2	1	0	distractor	1	1414	293	86625	13.328	11.596	15.053
ProbeTrack15	12	ProbeTrack	15.0	SCS215a	20120501.125158	20120501.130240	8	0.013328	60	10	60-180	60	103	GapExp	Blank	0	88	2	3	1	target	1	1144	428	87053	13.328	9.576	17.083
ProbeTrack15	12	ProbeTrack	15.0	SCS215a	20120501.125158	20120501.130249	8	0.013328	60	10	60-180	60	86	GapExp	Blank	0	89	2	30	1	early	-4	-3292	-1000	86053	13.328	10.037	16.626
ProbeTrack15	12	ProbeTrack	15.0	SCS215a	20120501.125158	20120501.130256	8	0.013328	60	10	60-180	60	164	GapExp	Blank	0	90	2	1	0	distractor	1	1447	277	86330	13.328	12.714	13.959
ProbeTrack15	12	ProbeTrack	15.0	SCS215a	20120501.125158	20120501.130303	8	0.013328	60	10	60-180	60	69	GapExp	Blank	0	91	2	1	1	target	1	3054	0	86330	13.328	10.016	16.640
ProbeTrack15	12	ProbeTrack	15.0	SCS215a	20120501.125158	20120501.130311	8	0.013328	60	10	60-180	60	88	GapExp	Blank	0	92	2	1	0	early	-4	-3075	-1000	85330	13.328	10.878	15.773
ProbeTrack15	12	ProbeTrack	15.0	SCS215a	20120501.125158	20120501.130317	8	0.013328	60	10	60-180	60	112	GapExp	Blank	0	93	2	3	0	distractor	1	657	672	86002	13.328	7.727	18.942
ProbeTrack15	12	ProbeTrack	15.0	SCS215a	20120501.125158	20120501.130324	8	0.013328	60	10	60-180	60	119	GapExp	Blank	0	94	2	0	0	target	0	1021	-1000	85002	13.328	9.767	16.888
ProbeTrack15	12	ProbeTrack	15.0	SCS215a	20120501.125158	20120501.130331	8	0.013328	60	10	60-180	60	179	GapExp	Blank	0	95	2	30	1	early	-4	-4680	-1000	84002	13.328	13.105	13.555
ProbeTrack15	12	ProbeTrack	15.0	SCS215a	20120501.125158	20120501.130338	8	0.013328	60	10	60-180	60	73	GapExp	Blank	0	96	2	1	1	target	1	1335	333	84335	13.328	12.426	14.229
ProbeTrack15	12	ProbeTrack	15.0	SCS215a	20120501.125158	20120501.130344	8	0.013328	60	10	60-180	60	122	GapExp	Blank	0	97	2	0	1	distractor	0	596	-1000	83335	13.328	10.178	16.485
ProbeTrack15	12	ProbeTrack	15.0	SCS215a	20120501.125158	20120501.130350	8	0.013328	60	10	60-180	60	174	GapExp	Blank	0	98	2	0	1	target	1	809	596	83931	13.328	8.316	18.332
ProbeTrack15	12	ProbeTrack	15.0	SCS215a	20120501.125158	20120501.130358	8	0.013328	60	10	60-180	60	114	GapExp	Blank	0	99	2	0	1	target	1	419	791	84722	13.328	8.310	18.333
ProbeTrack15	12	ProbeTrack	15.0	SCS215a	20120501.125158	20120501.130404	8	0.013328	60	10	60-180	60	124	GapExp	Blank	0	100	2	3	1	target	1	610	695	85417	13.328	4.439	22.215
ProbeTrack15	12	ProbeTrack	15.0	SCS215a	20120501.125158	20120501.130410	8	0.013328	60	10	60-180	60	117	GapExp	Blank	0	101	2	30	1	target	1	660	670	86087	13.328	13.092	13.569
ProbeTrack15	12	ProbeTrack	15.0	SCS215a	20120501.125158	20120501.130417	8	0.013328	60	10	60-180	60	62	GapExp	Blank	0	102	2	30	0	distractor	1	878	561	86648	13.328	9.884	16.766
ProbeTrack15	12	ProbeTrack	15.0	SCS215a	20120501.125158	20120501.130424	8	0.013328	60	10	60-180	60	125	GapExp	Blank	0	103	2	3	1	target	1	629	686	87334	13.328	10.231	16.442
ProbeTrack15	12	ProbeTrack	15.0	SCS215a	20120501.125158	20120501.130430	8	0.013328	60	10	60-180	60	125	GapExp	Blank	0	104	2	30	0	early	-4	-3947	-1000	86334	13.328	10.307	16.355
ProbeTrack15	12	ProbeTrack	15.0	SCS215a	20120501.125158	20120501.130438	8	0.013328	60	10	60-180	60	66	GapExp	Blank	0	105	2	3	0	distractor	1	993	504	86838	13.328	13.306	13.352
ProbeTrack15	12	ProbeTrack	15.0	SCS215a	20120501.125158	20120501.130444	8	0.013328	60	10	60-180	60	149	GapExp	Blank	0	106	2	1	1	target	1	1340	330	87168	13.328	13.313	13.344
ProbeTrack15	12	ProbeTrack	15.0	SCS215a	20120501.125158	20120501.130451	8	0.013328	60	10	60-180	60	67	GapExp	Blank	0	107	2	3	1	early	-4	-2818	-1000	86168	13.328	12.351	14.315
ProbeTrack15	12	ProbeTrack	15.0	SCS215a	20120501.125158	20120501.130458	8	0.013328	60	10	60-180	60	105	GapExp	Blank	0	108	2	30	0	target	0	4563204	-1000	85168	13.328	11.479	15.165
ProbeTrack15	12	ProbeTrack	15.0	SCS215a	20120501.125158	20120501.130504	8	0.013328	60	10	60-180	60	117	GapExp	Blank	0	109	2	0	1	target	1	1189	406	85574	13.328	12.740	13.914
ProbeTrack15	12	ProbeTrack	15.0	SCS215a	20120501.125158	20120501.130511	8	0.013328	60	10	60-180	60	140	GapExp	Blank	0	110	2	3	0	distractor	1	925	538	86112	13.328	13.311	13.351
ProbeTrack15	12	ProbeTrack	15.0	SCS215a	20120501.125158	20120501.130517	8	0.013328	60	10	60-180	60	162	GapExp	Blank	0	111	2	3	1	target	1	704	648	86760	13.328	13.307	13.353
ProbeTrack15	12	ProbeTrack	15.0	SCS215a	20120501.125158	20120501.130524	8	0.013328	60	10	60-180	60	104	GapExp	Blank	0	112	2	3	0	distractor	1	863	569	87329	13.328	11.606	15.059
ProbeTrack15	12	ProbeTrack	15.0	SCS215a	20120501.125158	20120501.130531	8	0.013328	60	10	60-180	60	152	GapExp	Blank	0	113	2	1	0	distractor	1	686	657	87986	13.328	11.204	15.466
ProbeTrack15	12	ProbeTrack	15.0	SCS215a	20120501.125158	20120501.130538	8	0.013328	60	10	60-180	60	143	GapExp	Blank	0	114	2	3	0	distractor	1	797	602	88588	13.328	9.760	16.884
ProbeTrack15	12	ProbeTrack	15.0	SCS215a	20120501.125158	20120501.130545	8	0.013328	60	10	60-180	60	119	GapExp	Blank	0	115	2	1	0	distractor	1	768	616	89204	13.328	11.269	15.375
ProbeTrack15	12	ProbeTrack	15.0	SCS215a	20120501.125158	20120501.130551	8	0.013328	60	10	60-180	60	108	GapExp	Blank	0	116	2	0	1	distractor	0	2584	-1000	88204	13.328	8.354	18.301
ProbeTrack15	12	ProbeTrack	15.0	SCS215a	20120501.125158	20120501.130559	8	0.013328	60	10	60-180	60	153	GapExp	Blank	0	117	2	3	1	target	1	1239	381	88585	13.328	5.730	20.912
ProbeTrack15	12	ProbeTrack	15.0	SCS215a	20120501.125158	20120501.130607	8	0.013328	60	10	60-180	60	154	GapExp	Blank	0	118	2	0	0	early	-4	-3939	-1000	87585	13.328	6.839	19.819
ProbeTrack15	12	ProbeTrack	15.0	SCS215a	20120501.125158	20120501.130615	8	0.013328	60	10	60-180	60	102	GapExp	Blank	0	119	2	0	1	target	1	1168	416	88001	13.328	13.106	13.557
ProbeTrack15	12	ProbeTrack	15.0	SCS215a	20120501.125158	20120501.130623	8	0.013328	60	10	60-180	60	84	GapExp	Blank	0	120	2	0	1	target	1	2176	0	88001	13.328	11.602	15.034
ProbeTrack15	12	ProbeTrack	15.0	SCS215a	20120501.125158	20120501.130632	8	0.013328	60	10	60-180	60	101	GapExp	Blank	0	121	2	0	0	distractor	1	922	539	88540	13.328	9.887	16.783
ProbeTrack15	12	ProbeTrack	15.0	SCS215a	20120501.125158	20120501.130638	8	0.013328	60	10	60-180	60	67	GapExp	Blank	0	122	2	1	0	distractor	1	778	611	89151	13.328	13.104	13.551
ProbeTrack15	12	ProbeTrack	15.0	SCS215a	20120501.125158	20120501.130645	8	0.013328	60	10	60-180	60	177	GapExp	Blank	0	123	2	30	1	target	1	539	731	89882	13.328	9.977	16.673
ProbeTrack15	12	ProbeTrack	15.0	SCS215a	20120501.125158	20120501.130653	8	0.013328	60	10	60-180	60	122	GapExp	Blank	0	124	2	1	1	early	-4	-3286	-1000	88882	13.328	13.110	13.560
ProbeTrack15	12	ProbeTrack	15.0	SCS215a	20120501.125158	20120501.130700	8	0.013328	60	10	60-180	60	129	GapExp	Blank	0	125	2	30	0	early	-4	-3686	-1000	87882	13.328	10.963	15.682
ProbeTrack15	12	ProbeTrack	15.0	SCS215a	20120501.125158	20120501.130706	8	0.013328	60	10	60-180	60	146	GapExp	Blank	0	126	2	0	0	target	0	325	-1000	86882	13.328	10.538	16.114
ProbeTrack15	12	ProbeTrack	15.0	SCS215a	20120501.125158	20120501.130713	8	0.013328	60	10	60-180	60	80	GapExp	Blank	0	127	2	3	0	distractor	1	682	659	87541	13.328	4.061	22.596
ProbeTrack15	12	ProbeTrack	15.0	SCS215a	20120501.125158	20120501.130719	8	0.013328	60	10	60-180	60	123	GapExp	Blank	0	128	2	3	0	distractor	1	689	656	88197	13.328	9.798	16.865
ProbeTrack15	12	ProbeTrack	15.0	SCS215a	20120501.125158	20120501.130726	8	0.013328	60	10	60-180	60	178	GapExp	Blank	0	129	2	1	0	distractor	1	773	614	88811	13.328	13.092	13.563
ProbeTrack15	12	ProbeTrack	15.0	SCS215a	20120501.125158	20120501.130733	8	0.013328	60	10	60-180	60	73	GapExp	Blank	0	130	2	0	1	target	1	944	528	89339	13.328	13.280	13.375
ProbeTrack15	12	ProbeTrack	15.0	SCS215a	20120501.125158	20120501.130739	8	0.013328	60	10	60-180	60	169	GapExp	Blank	0	131	2	1	0	early	-4	-3952	-1000	88339	13.328	10.825	15.839
ProbeTrack15	12	ProbeTrack	15.0	SCS215a	20120501.125158	20120501.130746	8	0.013328	60	10	60-180	60	111	GapExp	Blank	0	132	2	30	1	target	1	4730411	0	88339	13.328	10.606	16.053
ProbeTrack15	12	ProbeTrack	15.0	SCS215a	20120501.125158	20120501.130752	8	0.013328	60	10	60-180	60	96	GapExp	Blank	0	133	2	1	0	distractor	1	1350	325	88664	13.328	13.089	13.531
ProbeTrack15	12	ProbeTrack	15.0	SCS215a	20120501.125158	20120501.130758	8	0.013328	60	10	60-180	60	80	GapExp	Blank	0	134	2	0	0	early	-4	-2964	-1000	87664	13.328	13.173	13.497
ProbeTrack15	12	ProbeTrack	15.0	SCS215a	20120501.125158	20120501.130804	8	0.013328	60	10	60-180	60	95	GapExp	Blank	0	135	2	30	1	target	1	1237	382	88046	13.328	12.988	13.650
ProbeTrack15	12	ProbeTrack	15.0	SCS215a	20120501.125158	20120501.130811	8	0.013328	60	10	60-180	60	150	GapExp	Blank	0	136	2	1	0	distractor	1	881	560	88606	13.328	9.594	17.058
ProbeTrack15	12	ProbeTrack	15.0	SCS215a	20120501.125158	20120501.130818	8	0.013328	60	10	60-180	60	150	GapExp	Blank	0	137	2	30	1	distractor	0	1190	-1000	87606	13.328	13.102	13.540
ProbeTrack15	12	ProbeTrack	15.0	SCS215a	20120501.125158	20120501.130826	8	0.013328	60	10	60-180	60	175	GapExp	Blank	0	138	2	0	1	target	1	748	626	88232	13.328	13.270	13.371
ProbeTrack15	12	ProbeTrack	15.0	SCS215a	20120501.125158	20120501.130833	8	0.013328	60	10	60-180	60	62	GapExp	Blank	0	139	2	3	0	distractor	1	784	608	88840	13.328	13.298	13.345
ProbeTrack15	12	ProbeTrack	15.0	SCS215a	20120501.125158	20120501.130839	8	0.013328	60	10	60-180	60	169	GapExp	Blank	0	140	2	0	0	distractor	1	1578	211	89051	13.328	12.287	14.371
ProbeTrack15	12	ProbeTrack	15.0	SCS215a	20120501.125158	20120501.130847	8	0.013328	60	10	60-180	60	91	GapExp	Blank	0	141	2	0	1	target	1	1457	272	89323	13.328	11.002	15.664
ProbeTrack15	12	ProbeTrack	15.0	SCS215a	20120501.125158	20120501.130854	8	0.013328	60	10	60-180	60	65	GapExp	Blank	0	142	2	30	1	target	1	1140	430	89753	13.328	9.695	16.957
ProbeTrack15	12	ProbeTrack	15.0	SCS215a	20120501.125158	20120501.130901	8	0.013328	60	10	60-180	60	166	GapExp	Blank	0	143	2	3	1	target	1	1489	256	90009	13.328	9.678	16.978
ProbeTrack15	12	ProbeTrack	15.0	SCS215a	20120501.125158	20120501.130908	8	0.013328	60	10	60-180	60	170	GapExp	Blank	0	144	2	30	0	distractor	1	1433	284	90293	13.328	13.087	13.576
ProbeTrack15	12	ProbeTrack	15.0	SCS215a	20120501.125158	20120501.130916	8	0.013328	60	10	60-180	60	167	GapExp	Blank	0	145	2	0	0	distractor	1	661	670	90963	13.328	11.915	14.735
ProbeTrack15	12	ProbeTrack	15.0	SCS215a	20120501.125158	20120501.130923	8	0.013328	60	10	60-180	60	115	GapExp	Blank	0	146	2	0	0	target	0	840	-1000	89963	13.328	11.429	15.211
ProbeTrack15	12	ProbeTrack	15.0	SCS215a	20120501.125158	20120501.130930	8	0.013328	60	10	60-180	60	162	GapExp	Blank	0	147	2	1	0	distractor	1	473	764	90727	13.328	13.120	13.588
ProbeTrack15	12	ProbeTrack	15.0	SCS215a	20120501.125158	20120501.130937	8	0.013328	60	10	60-180	60	88	GapExp	Blank	0	148	2	1	1	distractor	0	536	-1000	89727	13.328	13.296	13.362
ProbeTrack15	12	ProbeTrack	15.0	SCS215a	20120501.125158	20120501.130943	8	0.013328	60	10	60-180	60	157	GapExp	Blank	0	149	2	3	0	target	0	571	-1000	88727	13.328	13.107	13.544
ProbeTrack15	12	ProbeTrack	15.0	SCS215a	20120501.125158	20120501.130949	8	0.013328	60	10	60-180	60	124	GapExp	Blank	0	150	2	30	1	early	-4	-3946	-1000	87727	13.328	10.817	15.832
ProbeTrack15	12	ProbeTrack	15.0	SCS215a	20120501.125158	20120501.130956	8	0.013328	60	10	60-180	60	92	GapExp	Blank	0	151	2	30	1	early	-4	-3516	-1000	86727	13.328	10.662	16.040
ProbeTrack15	12	ProbeTrack	15.0	SCS215a	20120501.125158	20120501.131002	8	0.013328	60	10	60-180	60	76	GapExp	Blank	0	152	2	1	0	early	-4	-2811	-1000	85727	13.328	13.101	13.564
ProbeTrack15	12	ProbeTrack	15.0	SCS215a	20120501.125158	20120501.131010	8	0.013328	60	10	60-180	60	120	GapExp	Blank	0	153	2	30	0	distractor	1	1334	333	86060	13.328	13.129	13.523
ProbeTrack15	12	ProbeTrack	15.0	SCS215a	20120501.125158	20120501.131019	8	0.013328	60	10	60-180	60	79	GapExp	Blank	0	154	2	0	1	distractor	0	1381	-1000	85060	13.328	12.646	14.027
ProbeTrack15	12	ProbeTrack	15.0	SCS215a	20120501.125158	20120501.131025	8	0.013328	60	10	60-180	60	102	GapExp	Blank	0	155	2	30	0	target	0	698	-1000	84060	13.330	12.263	14.388
ProbeTrack15	12	ProbeTrack	15.0	SCS215a	20120501.125158	20120501.131031	8	0.013328	60	10	60-180	60	163	GapExp	Blank	0	156	2	3	0	distractor	1	405	798	84858	13.328	9.515	17.144
ProbeTrack15	12	ProbeTrack	15.0	SCS215a	20120501.125158	20120501.131038	8	0.013328	60	10	60-180	60	121	GapExp	Blank	0	157	2	1	1	distractor	0	1031	-1000	83858	13.328	13.172	13.503
ProbeTrack15	12	ProbeTrack	15.0	SCS215a	20120501.125158	20120501.131045	8	0.013328	60	10	60-180	60	104	GapExp	Blank	0	158	2	0	0	distractor	1	1025	488	84346	13.328	13.097	13.557
ProbeTrack15	12	ProbeTrack	15.0	SCS215a	20120501.125158	20120501.131051	8	0.013328	60	10	60-180	60	101	GapExp	Blank	0	159	2	30	1	target	1	1476	262	84608	13.328	6.098	20.562
ProbeTrack15	12	ProbeTrack	15.0	SCS215a	20120501.125158	20120501.131059	8	0.013328	60	10	60-180	60	168	GapExp	Blank	0	160	2	30	0	distractor	1	762	619	85227	13.328	11.003	15.669
ProbeTrack15	12	ProbeTrack	15.0	SCS215a	20120501.125158	20120501.131106	8	0.013328	60	10	60-180	60	78	GapExp	Blank	0	161	2	3	0	distractor	1	857	572	85799	13.328	10.116	16.553
ProbeTrack15	12	ProbeTrack	15.0	SCS215a	20120501.125158	20120501.131112	8	0.013328	60	10	60-180	60	148	GapExp	Blank	0	162	2	1	0	distractor	1	767	617	86416	13.328	12.930	13.760
ProbeTrack15	12	ProbeTrack	15.0	SCS215a	20120501.125158	20120501.131119	8	0.013328	60	10	60-180	60	66	GapExp	Blank	0	163	2	0	1	early	-4	-2751	-1000	85416	13.328	13.092	13.556
ProbeTrack15	12	ProbeTrack	15.0	SCS215a	20120501.125158	20120501.131125	8	0.013328	60	10	60-180	60	86	GapExp	Blank	0	164	2	3	1	target	1	718	641	86057	13.328	6.490	20.183
ProbeTrack15	12	ProbeTrack	15.0	SCS215a	20120501.125158	20120501.131130	8	0.013328	60	10	60-180	60	121	GapExp	Blank	0	165	2	1	1	target	1	695	653	86710	13.328	12.294	14.363
ProbeTrack15	12	ProbeTrack	15.0	SCS215a	20120501.125158	20120501.131137	8	0.013328	60	10	60-180	60	128	GapExp	Blank	0	166	2	30	0	distractor	1	637	682	87392	13.328	11.682	14.967
ProbeTrack15	12	ProbeTrack	15.0	SCS215a	20120501.125158	20120501.131143	8	0.013328	60	10	60-180	60	113	GapExp	Blank	0	167	2	1	1	distractor	0	1260	-1000	86392	13.328	13.306	13.346
ProbeTrack15	12	ProbeTrack	15.0	SCS215a	20120501.125158	20120501.131151	8	0.013328	60	10	60-180	60	117	GapExp	Blank	0	168	2	0	1	target	1	388	806	87198	13.328	13.305	13.347
ProbeTrack15	12	ProbeTrack	15.0	SCS215a	20120501.125158	20120501.131205	8	0.013328	60	10	60-180	60	131	GapExp	Blank	0	169	2	3	0	distractor	1	985	508	87706	13.328	11.180	15.478
ProbeTrack15	12	ProbeTrack	15.0	SCS215a	20120501.125158	20120501.131211	8	0.013328	60	10	60-180	60	173	GapExp	Blank	0	170	2	0	1	target	1	413	794	88500	13.328	8.434	18.210
ProbeTrack15	12	ProbeTrack	15.0	SCS215a	20120501.125158	20120501.131218	8	0.013328	60	10	60-180	60	91	GapExp	Blank	0	171	2	3	1	early	-4	-3056	-1000	87500	13.328	10.972	15.694
ProbeTrack15	12	ProbeTrack	15.0	SCS215a	20120501.125158	20120501.131228	8	0.013328	60	10	60-180	60	175	GapExp	Blank	0	172	2	3	0	early	-4	-2741	-1000	86500	13.328	13.091	13.563
ProbeTrack15	12	ProbeTrack	15.0	SCS215a	20120501.125158	20120501.131235	8	0.013328	60	10	60-180	60	74	GapExp	Blank	0	173	2	30	0	distractor	1	1494	253	86753	13.328	10.552	16.111
ProbeTrack15	12	ProbeTrack	15.0	SCS215a	20120501.125158	20120501.131242	8	0.013328	60	10	60-180	60	176	GapExp	Blank	0	174	2	3	0	target	0	465	-1000	85753	13.328	13.105	13.545
ProbeTrack15	12	ProbeTrack	15.0	SCS215a	20120501.125158	20120501.131250	8	0.013328	60	10	60-180	60	167	GapExp	Blank	0	175	2	1	1	distractor	0	548	-1000	84753	13.328	8.501	18.143
ProbeTrack15	12	ProbeTrack	15.0	SCS215a	20120501.125158	20120501.131257	8	0.013328	60	10	60-180	60	75	GapExp	Blank	0	176	2	3	1	distractor	0	1651	-1000	83753	13.328	11.782	14.894
ProbeTrack15	12	ProbeTrack	15.0	SCS215a	20120501.125158	20120501.131304	8	0.013328	60	10	60-180	60	85	GapExp	Blank	0	177	2	0	1	target	1	836	582	84335	13.328	12.259	14.393
ProbeTrack15	12	ProbeTrack	15.0	SCS215a	20120501.125158	20120501.131310	8	0.013328	60	10	60-180	60	104	GapExp	Blank	0	178	2	1	1	early	-4	-2521	-1000	83335	13.328	13.111	13.549
ProbeTrack15	12	ProbeTrack	15.0	SCS215a	20120501.125158	20120501.131316	8	0.013328	60	10	60-180	60	133	GapExp	Blank	0	179	2	1	0	distractor	1	756	622	83957	13.328	9.819	16.832
ProbeTrack15	12	ProbeTrack	15.0	SCS215a	20120501.125158	20120501.131323	8	0.013328	60	10	60-180	60	162	GapExp	Blank	0	180	2	30	0	distractor	1	685	658	84615	13.328	13.241	13.386
ProbeTrack15	12	ProbeTrack	15.0	SCS215a	20120501.125158	20120501.131330	8	0.013328	60	10	60-180	60	155	GapExp	Blank	0	181	2	30	0	distractor	1	678	661	85276	13.328	13.105	13.556
ProbeTrack15	12	ProbeTrack	15.0	SCS215a	20120501.125158	20120501.131338	8	0.013328	60	10	60-180	60	143	GapExp	Blank	0	182	2	30	0	distractor	1	595	703	85979	13.328	11.563	15.084
ProbeTrack15	12	ProbeTrack	15.0	SCS215a	20120501.125158	20120501.131345	8	0.013328	60	10	60-180	60	141	GapExp	Blank	0	183	2	1	1	target	1	632	684	86663	13.328	9.556	17.114
ProbeTrack15	12	ProbeTrack	15.0	SCS215a	20120501.125158	20120501.131351	8	0.013328	60	10	60-180	60	111	GapExp	Blank	0	184	2	0	1	distractor	0	389	-1000	85663	13.328	11.451	15.193
ProbeTrack15	12	ProbeTrack	15.0	SCS215a	20120501.125158	20120501.131357	8	0.013328	60	10	60-180	60	75	GapExp	Blank	0	185	2	30	1	distractor	0	669	-1000	84663	13.328	13.306	13.345
ProbeTrack15	12	ProbeTrack	15.0	SCS215a	20120501.125158	20120501.131403	8	0.013328	60	10	60-180	60	140	GapExp	Blank	0	186	2	3	1	target	1	5111767	0	84663	13.328	13.289	13.353
ProbeTrack15	12	ProbeTrack	15.0	SCS215a	20120501.125158	20120501.131411	8	0.013328	60	10	60-180	60	151	GapExp	Blank	0	187	2	30	1	early	-4	-3829	-1000	83663	13.328	12.542	14.105
ProbeTrack15	12	ProbeTrack	15.0	SCS215a	20120501.125158	20120501.131418	8	0.013328	60	10	60-180	60	156	GapExp	Blank	0	188	2	30	0	target	0	596	-1000	82663	13.328	11.604	15.050
ProbeTrack15	12	ProbeTrack	15.0	SCS215a	20120501.125158	20120501.131426	8	0.013328	60	10	60-180	60	139	GapExp	Blank	0	189	2	3	1	early	-4	-3635	-1000	81663	13.328	8.624	18.033
ProbeTrack15	12	ProbeTrack	15.0	SCS215a	20120501.125158	20120501.131432	8	0.013328	60	10	60-180	60	122	GapExp	Blank	0	190	2	1	0	distractor	1	939	531	82194	13.328	7.125	19.521
ProbeTrack15	12	ProbeTrack	15.0	SCS215a	20120501.125158	20120501.131439	8	0.013328	60	10	60-180	60	68	GapExp	Blank	0	191	2	30	0	target	0	815	-1000	81194	13.293	4.942	17.873
ProbeTrack15	12	ProbeTrack	15.0	SCS215a	20120501.125158	20120501.131446	8	0.013328	60	10	60-180	60	178	GapExp	Blank	0	192	2	30	1	distractor	0	807	-1000	80194	13.328	12.206	14.449
ProbeTrack15	12	ProbeTrack	15.0	SCS215a	20120501.125158	20120501.131453	8	0.013328	60	10	60-180	60	134	GapExp	Blank	0	193	2	1	1	distractor	0	607	-1000	79194	13.328	9.846	16.826
ProbeTrack15	12	ProbeTrack	15.0	SCS215a	20120501.125158	20120501.131500	8	0.013328	60	10	60-180	60	130	GapExp	Blank	0	194	2	1	1	target	1	627	687	79881	13.316	10.056	16.607
ProbeTrack15	12	ProbeTrack	15.0	SCS215a	20120501.125158	20120501.131506	8	0.013328	60	10	60-180	60	108	GapExp	Blank	0	195	2	3	0	distractor	1	979	511	80392	13.328	13.306	13.357
ProbeTrack15	12	ProbeTrack	15.0	SCS215a	20120501.125158	20120501.131513	8	0.013328	60	10	60-180	60	125	GapExp	Blank	0	196	2	30	1	distractor	0	436	-1000	79392	13.328	12.955	13.702
ProbeTrack15	12	ProbeTrack	15.0	SCS215a	20120501.125158	20120501.131520	8	0.013328	60	10	60-180	60	147	GapExp	Blank	0	197	2	0	0	distractor	1	4853	0	79392	13.373	12.990	26.657
ProbeTrack15	12	ProbeTrack	15.0	SCS215a	20120501.125158	20120501.131530	8	0.013328	60	10	60-180	60	171	GapExp	Blank	0	198	2	0	0	target	0	556	-1000	78392	13.328	10.768	15.881
ProbeTrack15	12	ProbeTrack	15.0	SCS215a	20120501.125158	20120501.131537	8	0.013328	60	10	60-180	60	154	GapExp	Blank	0	199	2	30	1	target	1	503	749	79141	13.328	9.514	17.130
ProbeTrack15	12	ProbeTrack	15.0	SCS215a	20120501.125158	20120501.131544	8	0.013328	60	10	60-180	60	110	GapExp	Blank	0	200	2	3	1	early	-4	-3390	-1000	78141	13.328	13.101	13.553
ProbeTrack15	12	ProbeTrack	15.0	SCS215a	20120501.131709	20120501.131716	8	0.013327	60	10	60-180	60	70	GapPrac	BigFlash	1	1	2	3	0	target	0	1215	-1000	77141	13.389	13.304	13.350
ProbeTrack15	12	ProbeTrack	15.0	SCS215a	20120501.131709	20120501.131724	8	0.013327	60	10	60-180	60	177	GapPrac	BigFlash	1	2	2	3	1	early	-4	-4270	-1000	76141	13.328	13.085	13.562
ProbeTrack15	12	ProbeTrack	15.0	SCS215a	20120501.131709	20120501.131731	8	0.013327	60	10	60-180	60	170	GapPrac	BigFlash	1	3	2	30	0	distractor	1	1035	483	76624	13.328	13.092	13.556
ProbeTrack15	12	ProbeTrack	15.0	SCS215a	20120501.131709	20120501.131739	8	0.013327	60	10	60-180	60	65	GapPrac	BigFlash	1	4	2	1	1	target	1	993	504	77128	13.328	10.012	16.634
ProbeTrack15	12	ProbeTrack	15.0	SCS215a	20120501.131709	20120501.131745	8	0.013327	60	10	60-180	60	95	GapPrac	BigFlash	1	5	2	30	0	early	-4	-3558	-1000	76128	13.328	12.673	13.994
ProbeTrack15	12	ProbeTrack	15.0	SCS215a	20120501.131709	20120501.131752	8	0.013327	60	10	60-180	60	77	GapPrac	BigFlash	1	6	2	3	1	distractor	0	1453	-1000	75128	13.328	13.308	13.348
ProbeTrack15	12	ProbeTrack	15.0	SCS215a	20120501.131709	20120501.131759	8	0.013327	60	10	60-180	60	89	GapPrac	BigFlash	1	7	2	0	1	target	1	848	576	75704	13.328	13.046	13.612
ProbeTrack15	12	ProbeTrack	15.0	SCS215a	20120501.131709	20120501.131810	8	0.013327	60	10	60-180	60	111	GapPrac	BigFlash	1	8	2	30	1	target	1	756	622	76326	13.328	13.306	13.348
ProbeTrack15	12	ProbeTrack	15.0	SCS215a	20120501.131709	20120501.131816	8	0.013327	60	10	60-180	60	93	GapPrac	BigFlash	1	9	2	3	0	distractor	1	942	529	76855	13.328	11.048	15.614
ProbeTrack15	12	ProbeTrack	15.0	SCS215a	20120501.131709	20120501.131822	8	0.013327	60	10	60-180	60	97	GapPrac	BigFlash	1	10	2	0	1	target	1	983	509	77364	13.328	11.383	15.266
ProbeTrack15	12	ProbeTrack	15.0	SCS215a	20120501.131709	20120501.131829	8	0.013327	60	10	60-180	60	156	GapPrac	BigFlash	1	11	2	30	1	early	-4	-4373	-1000	76364	13.328	9.161	17.494
ProbeTrack15	12	ProbeTrack	15.0	SCS215a	20120501.131709	20120501.131837	8	0.013327	60	10	60-180	60	94	GapPrac	BigFlash	1	12	2	0	0	distractor	1	1335	333	76697	13.328	9.965	16.692
ProbeTrack15	12	ProbeTrack	15.0	SCS215a	20120501.131709	20120501.131843	8	0.013327	60	10	60-180	60	126	GapPrac	BigFlash	1	13	2	30	0	distractor	1	1281	360	77057	13.328	11.199	15.466
ProbeTrack15	12	ProbeTrack	15.0	SCS215a	20120501.131709	20120501.131851	8	0.013327	60	10	60-180	60	160	GapPrac	BigFlash	1	14	2	1	1	target	1	1252	374	77431	13.328	10.323	16.332
ProbeTrack15	12	ProbeTrack	15.0	SCS215a	20120501.131709	20120501.131858	8	0.013327	60	10	60-180	60	66	GapPrac	BigFlash	1	15	2	0	0	early	-4	-2691	-1000	76431	13.328	13.305	13.365
ProbeTrack15	12	ProbeTrack	15.0	SCS215a	20120501.131709	20120501.131904	8	0.013327	60	10	60-180	60	134	GapPrac	BigFlash	1	16	2	3	0	distractor	1	1886	57	76488	13.328	12.089	14.561
ProbeTrack15	12	ProbeTrack	15.0	SCS215a	20120501.131709	20120501.131912	8	0.013327	60	10	60-180	60	163	GapPrac	BigFlash	1	17	2	1	1	target	1	1104	448	76936	13.328	12.657	14.002
ProbeTrack15	12	ProbeTrack	15.0	SCS215a	20120501.131709	20120501.131920	8	0.013327	60	10	60-180	60	146	GapPrac	BigFlash	1	18	2	3	1	target	1	917	542	77478	13.328	9.626	17.017
ProbeTrack15	12	ProbeTrack	15.0	SCS215a	20120501.131709	20120501.131927	8	0.013327	60	10	60-180	60	166	GapPrac	BigFlash	1	19	2	1	0	distractor	1	1003	499	77977	13.328	9.528	17.141
ProbeTrack15	12	ProbeTrack	15.0	SCS215a	20120501.131709	20120501.131934	8	0.013327	60	10	60-180	60	68	GapPrac	BigFlash	1	20	2	1	0	distractor	1	1009	496	78473	13.328	13.303	13.345
ProbeTrack15	12	ProbeTrack	15.0	SCS215a	20120501.131952	20120501.132007	8	0.013327	60	10	60-180	60	102	GapExp	BigFlash	1	1	2	1	0	target	0	433	-1000	77473	13.388	13.305	13.345
ProbeTrack15	12	ProbeTrack	15.0	SCS215a	20120501.131952	20120501.132013	8	0.013327	60	10	60-180	60	79	GapExp	BigFlash	1	2	2	3	0	distractor	1	545	728	78201	13.328	13.280	13.375
ProbeTrack15	12	ProbeTrack	15.0	SCS215a	20120501.131952	20120501.132019	8	0.013327	60	10	60-180	60	110	GapExp	BigFlash	1	3	2	0	0	distractor	1	439	781	78982	13.328	10.177	16.488
ProbeTrack15	12	ProbeTrack	15.0	SCS215a	20120501.131952	20120501.132027	8	0.013327	60	10	60-180	60	150	GapExp	BigFlash	1	4	2	0	1	target	1	1490	255	79237	13.328	10.653	16.022
ProbeTrack15	12	ProbeTrack	15.0	SCS215a	20120501.131952	20120501.132034	8	0.013327	60	10	60-180	60	90	GapExp	BigFlash	1	5	2	3	1	early	-4	-2984	-1000	78237	13.328	12.315	14.349
ProbeTrack15	12	ProbeTrack	15.0	SCS215a	20120501.131952	20120501.132041	8	0.013327	60	10	60-180	60	81	GapExp	BigFlash	1	6	2	30	0	distractor	1	1357	322	78559	13.328	13.286	13.366
ProbeTrack15	12	ProbeTrack	15.0	SCS215a	20120501.131952	20120501.132049	8	0.013327	60	10	60-180	60	177	GapExp	BigFlash	1	7	2	30	1	distractor	0	597	-1000	77559	13.328	10.007	16.650
ProbeTrack15	12	ProbeTrack	15.0	SCS215a	20120501.131952	20120501.132104	8	0.013327	60	10	60-180	60	155	GapExp	BigFlash	1	8	2	1	1	target	1	1158	421	77980	13.328	9.889	16.768
ProbeTrack15	12	ProbeTrack	15.0	SCS215a	20120501.131952	20120501.132111	8	0.013327	60	10	60-180	60	81	GapExp	BigFlash	0	9	2	0	1	target	1	993	504	78484	13.328	13.167	13.470
ProbeTrack15	12	ProbeTrack	15.0	SCS215a	20120501.131952	20120501.132117	8	0.013327	60	10	60-180	60	180	GapExp	BigFlash	0	10	2	0	0	distractor	1	1115	443	78927	13.328	13.112	13.543
ProbeTrack15	12	ProbeTrack	15.0	SCS215a	20120501.131952	20120501.132126	8	0.013327	60	10	60-180	60	146	GapExp	BigFlash	0	11	2	30	0	target	0	712	-1000	77927	13.328	12.488	14.162
ProbeTrack15	12	ProbeTrack	15.0	SCS215a	20120501.131952	20120501.132134	8	0.013327	60	10	60-180	60	61	GapExp	BigFlash	0	12	2	30	0	early	-4	-3112	-1000	76927	13.328	11.761	14.886
ProbeTrack15	12	ProbeTrack	15.0	SCS215a	20120501.131952	20120501.132143	8	0.013327	60	10	60-180	60	169	GapExp	BigFlash	0	13	2	30	1	target	1	633	684	77611	13.328	9.574	17.074
ProbeTrack15	12	ProbeTrack	15.0	SCS215a	20120501.131952	20120501.132151	8	0.013327	60	10	60-180	60	180	GapExp	BigFlash	0	14	2	3	0	target	0	771	-1000	76611	13.328	13.105	13.555
ProbeTrack15	12	ProbeTrack	15.0	SCS215a	20120501.131952	20120501.132159	8	0.013327	60	10	60-180	60	78	GapExp	BigFlash	0	15	2	0	1	target	1	969	516	77127	13.328	13.275	13.394
ProbeTrack15	12	ProbeTrack	15.0	SCS215a	20120501.131952	20120501.132205	8	0.013327	60	10	60-180	60	154	GapExp	BigFlash	0	16	2	30	1	target	1	1378	311	77438	13.328	10.740	15.911
ProbeTrack15	12	ProbeTrack	15.0	SCS215a	20120501.131952	20120501.132213	8	0.013327	60	10	60-180	60	161	GapExp	BigFlash	0	17	2	1	0	target	0	916	-1000	76438	13.328	13.235	13.414
ProbeTrack15	12	ProbeTrack	15.0	SCS215a	20120501.131952	20120501.132221	8	0.013327	60	10	60-180	60	79	GapExp	BigFlash	0	18	2	3	1	target	1	3074	0	76438	13.328	13.308	13.347
ProbeTrack15	12	ProbeTrack	15.0	SCS215a	20120501.131952	20120501.132230	8	0.013327	60	10	60-180	60	110	GapExp	BigFlash	0	19	2	0	1	target	1	1287	357	76795	13.328	13.303	13.353
ProbeTrack15	12	ProbeTrack	15.0	SCS215a	20120501.131952	20120501.132236	8	0.013327	60	10	60-180	60	94	GapExp	BigFlash	0	20	2	1	0	target	0	408	-1000	75795	13.328	12.259	14.385
ProbeTrack15	12	ProbeTrack	15.0	SCS215a	20120501.131952	20120501.132242	8	0.013327	60	10	60-180	60	91	GapExp	BigFlash	0	21	2	0	0	target	0	470	-1000	74795	13.328	7.554	19.109
ProbeTrack15	12	ProbeTrack	15.0	SCS215a	20120501.131952	20120501.132248	8	0.013327	60	10	60-180	60	95	GapExp	BigFlash	0	22	2	1	0	distractor	1	699	651	75446	13.328	13.298	13.357
ProbeTrack15	12	ProbeTrack	15.0	SCS215a	20120501.131952	20120501.132253	8	0.013327	60	10	60-180	60	81	GapExp	BigFlash	0	23	2	30	0	early	-4	-3255	-1000	74446	13.328	13.304	13.360
ProbeTrack15	12	ProbeTrack	15.0	SCS215a	20120501.131952	20120501.132259	8	0.013327	60	10	60-180	60	133	GapExp	BigFlash	0	24	2	0	1	early	-4	-3596	-1000	73446	13.328	5.913	20.735
ProbeTrack15	12	ProbeTrack	15.0	SCS215a	20120501.131952	20120501.132306	8	0.013327	60	10	60-180	60	69	GapExp	BigFlash	0	25	2	3	1	early	-4	-2857	-1000	72446	13.328	13.092	13.545
ProbeTrack15	12	ProbeTrack	15.0	SCS215a	20120501.131952	20120501.132312	8	0.013327	60	10	60-180	60	79	GapExp	BigFlash	0	26	2	0	0	distractor	1	860	570	73016	13.328	9.694	16.961
ProbeTrack15	12	ProbeTrack	15.0	SCS215a	20120501.131952	20120501.132319	8	0.013327	60	10	60-180	60	174	GapExp	BigFlash	0	27	2	1	1	distractor	0	886	-1000	72016	13.328	8.271	18.385
ProbeTrack15	12	ProbeTrack	15.0	SCS215a	20120501.131952	20120501.132326	8	0.013327	60	10	60-180	60	123	GapExp	BigFlash	0	28	2	3	0	target	0	1694	-1000	71016	13.328	13.107	13.549
ProbeTrack15	12	ProbeTrack	15.0	SCS215a	20120501.131952	20120501.132334	8	0.013327	60	10	60-180	60	155	GapExp	BigFlash	0	29	2	1	0	target	0	487	-1000	70016	13.328	13.101	13.535
ProbeTrack15	12	ProbeTrack	15.0	SCS215a	20120501.131952	20120501.132341	8	0.013327	60	10	60-180	60	158	GapExp	BigFlash	0	30	2	1	0	early	-4	-4005	-1000	69016	13.328	11.989	14.677
ProbeTrack15	12	ProbeTrack	15.0	SCS215a	20120501.131952	20120501.132348	8	0.013327	60	10	60-180	60	146	GapExp	BigFlash	0	31	2	3	0	early	-4	-3835	-1000	68016	13.328	9.652	16.999
ProbeTrack15	12	ProbeTrack	15.0	SCS215a	20120501.131952	20120501.132355	8	0.013327	60	10	60-180	60	110	GapExp	BigFlash	0	32	2	0	0	early	-4	-3355	-1000	67016	13.328	10.317	16.339
ProbeTrack15	12	ProbeTrack	15.0	SCS215a	20120501.131952	20120501.132402	8	0.013327	60	10	60-180	60	63	GapExp	BigFlash	0	33	2	1	1	early	-4	-2615	-1000	66016	13.328	13.092	13.556
ProbeTrack15	12	ProbeTrack	15.0	SCS215a	20120501.131952	20120501.132408	8	0.013327	60	10	60-180	60	113	GapExp	BigFlash	0	34	2	0	1	early	-4	-3294	-1000	65016	13.328	10.483	16.175
ProbeTrack15	12	ProbeTrack	15.0	SCS215a	20120501.131952	20120501.132416	8	0.013327	60	10	60-180	60	102	GapExp	BigFlash	0	35	2	0	1	early	-4	-3120	-1000	64016	13.328	12.166	14.498
ProbeTrack15	12	ProbeTrack	15.0	SCS215a	20120501.131952	20120501.132422	8	0.013327	60	10	60-180	60	169	GapExp	BigFlash	0	36	2	1	1	early	-4	-4145	-1000	63016	13.328	11.560	15.096
ProbeTrack15	12	ProbeTrack	15.0	SCS215a	20120501.131952	20120501.132429	8	0.013327	60	10	60-180	60	162	GapExp	BigFlash	0	37	2	1	1	distractor	0	1212	-1000	62016	13.328	6.129	20.540
ProbeTrack15	12	ProbeTrack	15.0	SCS215a	20120501.131952	20120501.132502	8	0.013327	60	10	60-180	60	81	GapExp	BigFlash	0	38	2	0	0	target	0	1236	-1000	61016	13.328	13.304	13.344
ProbeTrack15	12	ProbeTrack	15.0	SCS215a	20120501.131952	20120501.132508	8	0.013327	60	10	60-180	60	98	GapExp	BigFlash	0	39	2	3	0	early	-4	-3106	-1000	60016	13.328	13.305	13.357
ProbeTrack15	12	ProbeTrack	15.0	SCS215a	20120501.131952	20120501.132514	8	0.013327	60	10	60-180	60	126	GapExp	BigFlash	0	40	2	30	0	target	0	289	-1000	59016	13.328	11.764	14.893
ProbeTrack15	12	ProbeTrack	15.0	SCS215a	20120501.131952	20120501.132520	8	0.013327	60	10	60-180	60	65	GapExp	BigFlash	0	41	2	30	1	early	-4	-3160	-1000	58016	13.328	10.386	16.258
ProbeTrack15	12	ProbeTrack	15.0	SCS215a	20120501.131952	20120501.132527	8	0.013327	60	10	60-180	60	139	GapExp	BigFlash	0	42	2	3	0	early	-4	-3800	-1000	57016	13.328	6.382	20.274
ProbeTrack15	12	ProbeTrack	15.0	SCS215a	20120501.131952	20120501.132533	8	0.013327	60	10	60-180	60	121	GapExp	BigFlash	0	43	2	0	0	target	0	751	-1000	56016	13.328	9.658	17.004
ProbeTrack15	12	ProbeTrack	15.0	SCS215a	20120501.131952	20120501.132543	8	0.013327	60	10	60-180	60	157	GapExp	BigFlash	0	44	2	1	1	distractor	0	532	-1000	55016	13.328	12.895	13.747
ProbeTrack15	12	ProbeTrack	15.0	SCS215a	20120501.131952	20120501.132550	8	0.013327	60	10	60-180	60	151	GapExp	BigFlash	0	45	2	30	1	target	1	464	768	55784	13.328	12.069	14.590
ProbeTrack15	12	ProbeTrack	15.0	SCS215a	20120501.131952	20120501.132557	8	0.013327	60	10	60-180	60	172	GapExp	BigFlash	0	46	2	3	0	early	-4	-4169	-1000	54784	13.328	8.868	17.787
ProbeTrack15	12	ProbeTrack	15.0	SCS215a	20120501.131952	20120501.132605	8	0.013327	60	10	60-180	60	93	GapExp	BigFlash	0	47	2	3	1	target	1	1467	267	55051	13.328	10.956	15.693
ProbeTrack15	12	ProbeTrack	15.0	SCS215a	20120501.131952	20120501.132612	8	0.013327	60	10	60-180	60	101	GapExp	BigFlash	0	48	2	3	0	distractor	1	1190	405	55456	13.328	13.305	13.346
ProbeTrack15	12	ProbeTrack	15.0	SCS215a	20120501.131952	20120501.132619	8	0.013327	60	10	60-180	60	137	GapExp	BigFlash	0	49	2	3	0	distractor	1	1083	459	55915	13.328	9.496	17.148
ProbeTrack15	12	ProbeTrack	15.0	SCS215a	20120501.131952	20120501.132626	8	0.013327	60	10	60-180	60	107	GapExp	BigFlash	0	50	2	1	1	target	1	1891	55	55970	13.328	6.460	20.201
ProbeTrack15	12	ProbeTrack	15.0	SCS215a	20120501.131952	20120501.132634	8	0.013327	60	10	60-180	60	150	GapExp	BigFlash	0	51	2	1	1	early	-4	-3909	-1000	54970	13.328	10.083	16.571
ProbeTrack15	12	ProbeTrack	15.0	SCS215a	20120501.131952	20120501.132641	8	0.013327	60	10	60-180	60	126	GapExp	BigFlash	0	52	2	3	0	early	-4	-3609	-1000	53970	13.328	13.308	13.345
ProbeTrack15	12	ProbeTrack	15.0	SCS215a	20120501.131952	20120501.132648	8	0.013327	60	10	60-180	60	110	GapExp	BigFlash	0	53	2	30	0	target	0	781	-1000	52970	13.374	13.092	24.155
ProbeTrack15	12	ProbeTrack	15.0	SCS215a	20120501.131952	20120501.132656	8	0.013327	60	10	60-180	60	86	GapExp	BigFlash	0	54	2	30	0	distractor	1	414	793	53763	13.328	10.067	16.586
ProbeTrack15	12	ProbeTrack	15.0	SCS215a	20120501.131952	20120501.132702	8	0.013327	60	10	60-180	60	93	GapExp	BigFlash	0	55	2	0	0	target	0	470	-1000	52763	13.328	11.273	15.377
ProbeTrack15	12	ProbeTrack	15.0	SCS215a	20120501.131952	20120501.132709	8	0.013327	60	10	60-180	60	170	GapExp	BigFlash	0	56	2	30	1	early	-4	-4398	-1000	51763	13.328	9.944	16.701
ProbeTrack15	12	ProbeTrack	15.0	SCS215a	20120501.131952	20120501.132716	8	0.013327	60	10	60-180	60	77	GapExp	BigFlash	0	57	2	1	0	distractor	1	480	760	52523	13.328	13.309	13.347
ProbeTrack15	12	ProbeTrack	15.0	SCS215a	20120501.131952	20120501.132724	8	0.013327	60	10	60-180	60	66	GapExp	BigFlash	0	58	2	3	1	distractor	0	812	-1000	51523	13.328	4.989	21.662
ProbeTrack15	12	ProbeTrack	15.0	SCS215a	20120501.131952	20120501.132730	8	0.013327	60	10	60-180	60	61	GapExp	BigFlash	0	59	2	30	1	distractor	0	520	-1000	50523	13.328	13.272	13.379
ProbeTrack15	12	ProbeTrack	15.0	SCS215a	20120501.131952	20120501.132736	8	0.013327	60	10	60-180	60	163	GapExp	BigFlash	0	60	2	3	0	target	0	488	-1000	49523	13.328	9.950	16.690
ProbeTrack15	12	ProbeTrack	15.0	SCS215a	20120501.131952	20120501.132744	8	0.013327	60	10	60-180	60	84	GapExp	BigFlash	0	61	2	0	0	early	-4	-3021	-1000	48523	13.328	9.840	16.804
ProbeTrack15	12	ProbeTrack	15.0	SCS215a	20120501.131952	20120501.132751	8	0.013327	60	10	60-180	60	115	GapExp	BigFlash	0	62	2	0	0	early	-4	-3430	-1000	47523	13.328	6.745	19.911
ProbeTrack15	12	ProbeTrack	15.0	SCS215a	20120501.131952	20120501.132759	8	0.013327	60	10	60-180	60	121	GapExp	BigFlash	0	63	2	0	0	early	-4	-3470	-1000	46523	13.328	4.132	22.532
ProbeTrack15	12	ProbeTrack	15.0	SCS215a	20120501.131952	20120501.132805	8	0.013327	60	10	60-180	60	155	GapExp	BigFlash	0	64	2	1	1	target	1	1525	238	46761	13.328	12.839	13.827
ProbeTrack15	12	ProbeTrack	15.0	SCS215a	20120501.131952	20120501.132812	8	0.013327	60	10	60-180	60	103	GapExp	BigFlash	0	65	2	1	1	early	-4	-3257	-1000	45761	13.328	10.543	16.123
ProbeTrack15	12	ProbeTrack	15.0	SCS215a	20120501.131952	20120501.132819	8	0.013327	60	10	60-180	60	69	GapExp	BigFlash	0	66	2	0	0	early	-4	-2813	-1000	44761	13.328	9.559	17.091
