exp	sub	code	rev	comp	runtime	trialtime	nstim	refreshdur	cuedur	gapdur	gapOnsetRange	durPostProbe	gapOnsetTime	blocktype	gaptype	prac	trial	ntargets	soa	probeTarget	resp	acc	rt	pts	tpts	meanFrameDur	minFrameDur	maxFrameDur
ProbeTrack15	1	ProbeTrack	15.0	SCS215a	20120202.121820	20120202.121839	8	0.013328	60	0	60-180	60	99	NoGap	None	1	1	2	1	0	distractor	1	3423	0	0	13.668	12.881	40.443
ProbeTrack15	1	ProbeTrack	15.0	SCS215a	20120202.121820	20120202.122016	8	0.013328	60	0	60-180	60	143	NoGap	None	1	2	2	0	0	target	0	563	-1000	-1000	13.328	13.182	13.534
ProbeTrack15	1	ProbeTrack	15.0	SCS215a	20120202.121820	20120202.122028	8	0.013328	60	0	60-180	60	100	NoGap	None	1	3	2	30	0	target	0	388	-1000	-2000	13.328	13.098	13.555
ProbeTrack15	1	ProbeTrack	15.0	SCS215a	20120202.121820	20120202.122124	8	0.013328	60	0	60-180	60	135	NoGap	None	1	4	2	30	1	target	1	458	771	-1229	13.328	13.113	13.540
ProbeTrack15	1	ProbeTrack	15.0	SCS215a	20120202.121820	20120202.122133	8	0.013328	60	0	60-180	60	101	NoGap	None	1	5	2	3	1	target	1	521	740	-489	13.328	13.161	13.510
ProbeTrack15	1	ProbeTrack	15.0	SCS215a	20120202.121820	20120202.122145	8	0.013328	60	0	60-180	60	87	NoGap	None	1	6	2	1	0	distractor	1	680	660	171	13.328	13.116	13.538
ProbeTrack15	1	ProbeTrack	15.0	SCS215a	20120202.121820	20120202.122153	8	0.013328	60	0	60-180	60	115	NoGap	None	1	7	2	30	0	target	0	461	-1000	-829	13.380	13.089	26.782
ProbeTrack15	1	ProbeTrack	15.0	SCS215a	20120202.121820	20120202.122202	8	0.013328	60	0	60-180	60	140	NoGap	None	1	8	2	30	0	target	0	438	-1000	-1829	13.375	13.029	26.940
ProbeTrack15	1	ProbeTrack	15.0	SCS215a	20120202.121820	20120202.122209	8	0.013328	60	0	60-180	60	148	NoGap	None	1	9	2	3	1	target	1	529	736	-1093	13.328	13.079	13.561
ProbeTrack15	1	ProbeTrack	15.0	SCS215a	20120202.121820	20120202.122218	8	0.013328	60	0	60-180	60	135	NoGap	None	1	10	2	1	1	target	1	483	759	-334	13.328	13.098	13.558
ProbeTrack15	1	ProbeTrack	15.0	SCS215a	20120202.121820	20120202.122224	8	0.013328	60	0	60-180	60	104	NoGap	None	1	11	2	3	0	target	0	469	-1000	-1334	13.389	13.055	26.771
ProbeTrack15	1	ProbeTrack	15.0	SCS215a	20120202.121820	20120202.122232	8	0.013328	60	0	60-180	60	133	NoGap	None	1	12	2	3	0	target	0	435	-1000	-2334	13.328	13.097	13.560
ProbeTrack15	1	ProbeTrack	15.0	SCS215a	20120202.121820	20120202.122238	8	0.013328	60	0	60-180	60	66	NoGap	None	1	13	2	0	0	distractor	1	708	646	-1688	13.465	13.037	40.234
ProbeTrack15	1	ProbeTrack	15.0	SCS215a	20120202.121820	20120202.122249	8	0.013328	60	0	60-180	60	136	NoGap	None	1	14	2	3	0	distractor	1	591	705	-983	13.379	13.247	26.393
ProbeTrack15	1	ProbeTrack	15.0	SCS215a	20120202.121820	20120202.122257	8	0.013328	60	0	60-180	60	151	NoGap	None	1	15	2	0	0	distractor	1	621	690	-293	13.328	13.021	13.687
ProbeTrack15	1	ProbeTrack	15.0	SCS215a	20120202.121820	20120202.122305	8	0.013328	60	0	60-180	60	140	NoGap	None	1	16	2	30	0	distractor	1	586	707	414	13.328	13.228	13.424
ProbeTrack15	1	ProbeTrack	15.0	SCS215a	20120202.121820	20120202.122312	8	0.013328	60	0	60-180	60	85	NoGap	None	1	17	2	30	1	distractor	0	547	-1000	-586	13.328	13.096	13.548
ProbeTrack15	1	ProbeTrack	15.0	SCS215a	20120202.121820	20120202.122318	8	0.013328	60	0	60-180	60	97	NoGap	None	1	18	2	30	1	early	-4	-3357	-1000	-1586	13.328	13.125	13.533
ProbeTrack15	1	ProbeTrack	15.0	SCS215a	20120202.121820	20120202.122324	8	0.013328	60	0	60-180	60	141	NoGap	None	1	19	2	30	1	early	-4	-3926	-1000	-2586	13.328	13.097	13.551
ProbeTrack15	1	ProbeTrack	15.0	SCS215a	20120202.121820	20120202.122335	8	0.013328	60	0	60-180	60	109	NoGap	None	1	20	2	0	1	target	1	782	609	-1977	13.328	13.284	13.381
ProbeTrack15	1	ProbeTrack	15.0	SCS215a	20120202.121820	20120202.122346	8	0.013328	60	0	60-180	60	141	NoGap	None	1	21	2	3	1	target	1	464	768	-1209	13.380	13.113	26.802
ProbeTrack15	1	ProbeTrack	15.0	SCS215a	20120202.121820	20120202.122354	8	0.013328	60	0	60-180	60	145	NoGap	None	1	22	2	1	1	early	-4	-3569	-1000	-2209	13.328	13.298	13.362
ProbeTrack15	1	ProbeTrack	15.0	SCS215a	20120202.121820	20120202.122401	8	0.013328	60	0	60-180	60	84	NoGap	None	1	23	2	1	1	target	1	609	696	-1513	13.328	13.070	13.588
ProbeTrack15	1	ProbeTrack	15.0	SCS215a	20120202.121820	20120202.122411	8	0.013328	60	0	60-180	60	169	NoGap	None	1	24	2	3	0	distractor	1	567	717	-796	13.328	13.104	13.547
ProbeTrack15	1	ProbeTrack	15.0	SCS215a	20120202.121820	20120202.122418	8	0.013328	60	0	60-180	60	73	NoGap	None	1	25	2	0	1	early	-4	-2626	-1000	-1796	13.328	13.274	13.362
ProbeTrack15	1	ProbeTrack	15.0	SCS215a	20120202.121820	20120202.122423	8	0.013328	60	0	60-180	60	169	NoGap	None	1	26	2	3	1	target	1	534	733	-1063	13.374	13.109	26.327
ProbeTrack15	1	ProbeTrack	15.0	SCS215a	20120202.121820	20120202.122432	8	0.013328	60	0	60-180	60	168	NoGap	None	1	27	2	1	0	distractor	1	506	747	-316	13.328	13.085	13.567
ProbeTrack15	1	ProbeTrack	15.0	SCS215a	20120202.121820	20120202.122438	8	0.013328	60	0	60-180	60	90	NoGap	None	1	28	2	30	0	early	-4	-3331	-1000	-1316	13.328	13.162	13.386
ProbeTrack15	1	ProbeTrack	15.0	SCS215a	20120202.121820	20120202.122445	8	0.013328	60	0	60-180	60	88	NoGap	None	1	29	2	1	1	early	-4	-2819	-1000	-2316	13.328	13.271	13.379
ProbeTrack15	1	ProbeTrack	15.0	SCS215a	20120202.121820	20120202.122451	8	0.013328	60	0	60-180	60	72	NoGap	None	1	30	2	1	0	early	-4	-2611	-1000	-3316	13.328	13.104	13.510
ProbeTrack15	1	ProbeTrack	15.0	SCS215a	20120202.121820	20120202.122500	8	0.013328	60	0	60-180	60	117	NoGap	None	1	31	2	1	1	target	1	733	634	-2682	13.381	13.111	26.434
ProbeTrack15	1	ProbeTrack	15.0	SCS215a	20120202.121820	20120202.122506	8	0.013328	60	0	60-180	60	63	NoGap	None	1	32	2	30	1	target	1	524	738	-1944	13.328	13.103	13.562
ProbeTrack15	1	ProbeTrack	15.0	SCS215a	20120202.121820	20120202.122511	8	0.013328	60	0	60-180	60	63	NoGap	None	1	33	2	3	0	early	-4	-2490	-1000	-2944	13.328	13.096	13.573
ProbeTrack15	1	ProbeTrack	15.0	SCS215a	20120202.121820	20120202.122517	8	0.013328	60	0	60-180	60	85	NoGap	None	1	34	2	0	0	distractor	1	532	734	-2210	13.328	13.296	13.367
ProbeTrack15	1	ProbeTrack	15.0	SCS215a	20120202.121820	20120202.122523	8	0.013328	60	0	60-180	60	137	NoGap	None	1	35	2	0	1	early	-4	-3452	-1000	-3210	13.328	13.099	13.560
ProbeTrack15	1	ProbeTrack	15.0	SCS215a	20120202.121820	20120202.122530	8	0.013328	60	0	60-180	60	142	NoGap	None	1	36	2	3	1	early	-4	-3700	-1000	-4210	13.379	13.053	26.814
ProbeTrack15	1	ProbeTrack	15.0	SCS215a	20120202.121820	20120202.122537	8	0.013328	60	0	60-180	60	84	NoGap	None	1	37	2	0	0	early	-4	-2871	-1000	-5210	13.328	13.110	13.542
ProbeTrack15	1	ProbeTrack	15.0	SCS215a	20120202.121820	20120202.122542	8	0.013328	60	0	60-180	60	141	NoGap	None	1	38	2	1	0	early	-4	-3550	-1000	-6210	13.429	13.109	26.852
ProbeTrack15	1	ProbeTrack	15.0	SCS215a	20120202.121820	20120202.122549	8	0.013328	60	0	60-180	60	106	NoGap	None	1	39	2	0	1	target	1	683	659	-5551	13.328	13.107	13.590
ProbeTrack15	1	ProbeTrack	15.0	SCS215a	20120202.121820	20120202.122555	8	0.013328	60	0	60-180	60	143	NoGap	None	1	40	2	0	1	target	1	510	745	-4806	13.328	13.128	13.586
ProbeTrack15	1	ProbeTrack	15.0	SCS215a	20120202.122754	20120202.122834	8	0.013328	60	10	60-180	60	84	GapPrac	Blank	1	1	2	0	0	early	-4	-2918	-1000	-5806	13.449	13.240	21.298
ProbeTrack15	1	ProbeTrack	15.0	SCS215a	20120202.122754	20120202.122842	8	0.013328	60	10	60-180	60	110	GapPrac	Blank	1	2	2	3	1	target	1	560	720	-5086	13.328	13.298	13.359
ProbeTrack15	1	ProbeTrack	15.0	SCS215a	20120202.122754	20120202.122849	8	0.013328	60	10	60-180	60	74	GapPrac	Blank	1	3	2	0	1	early	-4	-2744	-1000	-6086	13.328	12.377	14.306
ProbeTrack15	1	ProbeTrack	15.0	SCS215a	20120202.122754	20120202.122855	8	0.013328	60	10	60-180	60	149	GapPrac	Blank	1	4	2	30	1	target	1	518	741	-5345	13.328	13.306	13.345
ProbeTrack15	1	ProbeTrack	15.0	SCS215a	20120202.122754	20120202.122903	8	0.013328	60	10	60-180	60	151	GapPrac	Blank	1	5	2	30	1	early	-4	-4183	-1000	-6345	13.328	13.071	13.591
ProbeTrack15	1	ProbeTrack	15.0	SCS215a	20120202.122754	20120202.122911	8	0.013328	60	10	60-180	60	70	GapPrac	Blank	1	6	2	30	0	early	-4	-3242	-1000	-7345	13.386	10.561	29.410
ProbeTrack15	1	ProbeTrack	15.0	SCS215a	20120202.122754	20120202.122917	8	0.013328	60	10	60-180	60	123	GapPrac	Blank	1	7	2	3	0	distractor	1	612	694	-6651	13.328	7.686	18.969
ProbeTrack15	1	ProbeTrack	15.0	SCS215a	20120202.122754	20120202.122924	8	0.013328	60	10	60-180	60	94	GapPrac	Blank	1	8	2	30	1	target	1	420	790	-5861	13.328	4.061	22.584
ProbeTrack15	1	ProbeTrack	15.0	SCS215a	20120202.122754	20120202.122930	8	0.013328	60	10	60-180	60	87	GapPrac	Blank	1	9	2	3	0	distractor	1	577	712	-5149	13.328	11.232	15.426
ProbeTrack15	1	ProbeTrack	15.0	SCS215a	20120202.122754	20120202.122937	8	0.013328	60	10	60-180	60	138	GapPrac	Blank	1	10	2	0	1	target	1	505	748	-4401	13.379	13.223	21.289
ProbeTrack15	1	ProbeTrack	15.0	SCS215a	20120202.122754	20120202.122944	8	0.013328	60	10	60-180	60	164	GapPrac	Blank	1	11	2	1	1	early	-4	-3978	-1000	-5401	13.374	13.158	21.220
ProbeTrack15	1	ProbeTrack	15.0	SCS215a	20120202.122754	20120202.122951	8	0.013328	60	10	60-180	60	86	GapPrac	Blank	1	12	2	0	1	early	-4	-2891	-1000	-6401	13.334	8.389	18.266
ProbeTrack15	1	ProbeTrack	15.0	SCS215a	20120202.122754	20120202.122957	8	0.013328	60	10	60-180	60	137	GapPrac	Blank	1	13	2	30	0	early	-4	-4000	-1000	-7401	13.373	11.506	26.654
ProbeTrack15	1	ProbeTrack	15.0	SCS215a	20120202.122754	20120202.123003	8	0.013328	60	10	60-180	60	180	GapPrac	Blank	1	14	2	1	0	early	-4	-4315	-1000	-8401	13.372	13.106	26.677
ProbeTrack15	1	ProbeTrack	15.0	SCS215a	20120202.122754	20120202.123010	8	0.013328	60	10	60-180	60	115	GapPrac	Blank	1	15	2	1	0	distractor	1	697	652	-7749	13.328	13.089	13.560
ProbeTrack15	1	ProbeTrack	15.0	SCS215a	20120202.122754	20120202.123017	8	0.013328	60	10	60-180	60	67	GapPrac	Blank	1	16	2	1	1	target	1	844	578	-7171	13.453	13.309	26.702
ProbeTrack15	1	ProbeTrack	15.0	SCS215a	20120202.122754	20120202.123023	8	0.013328	60	10	60-180	60	134	GapPrac	Blank	1	17	2	0	0	early	-4	-3674	-1000	-8171	13.328	13.105	13.536
ProbeTrack15	1	ProbeTrack	15.0	SCS215a	20120202.122754	20120202.123029	8	0.013328	60	10	60-180	60	83	GapPrac	Blank	1	18	2	3	1	distractor	0	546	-1000	-9171	13.328	11.340	15.308
ProbeTrack15	1	ProbeTrack	15.0	SCS215a	20120202.122754	20120202.123035	8	0.013328	60	10	60-180	60	102	GapPrac	Blank	1	19	2	3	1	target	1	538	731	-8440	13.328	8.527	18.121
ProbeTrack15	1	ProbeTrack	15.0	SCS215a	20120202.122754	20120202.123041	8	0.013328	60	10	60-180	60	167	GapPrac	Blank	1	20	2	0	0	early	-4	-3994	-1000	-9440	13.328	13.307	13.346
ProbeTrack15	1	ProbeTrack	15.0	SCS215a	20120202.123145	20120202.123212	8	0.013328	60	10	60-180	60	123	GapExp	Blank	1	1	2	0	1	early	-4	-3536	-1000	-10440	13.377	13.099	13.557
ProbeTrack15	1	ProbeTrack	15.0	SCS215a	20120202.123145	20120202.123220	8	0.013328	60	10	60-180	60	99	GapExp	Blank	1	2	2	0	0	target	0	509	-1000	-11440	13.328	12.996	13.629
ProbeTrack15	1	ProbeTrack	15.0	SCS215a	20120202.123145	20120202.123226	8	0.013328	60	10	60-180	60	158	GapExp	Blank	1	3	2	30	1	early	-4	-4272	-1000	-12440	13.328	12.866	13.799
ProbeTrack15	1	ProbeTrack	15.0	SCS215a	20120202.123145	20120202.123233	8	0.013328	60	10	60-180	60	72	GapExp	Blank	1	4	2	1	0	early	-4	-2865	-1000	-13440	13.328	13.218	13.440
ProbeTrack15	1	ProbeTrack	15.0	SCS215a	20120202.123145	20120202.123238	8	0.013328	60	10	60-180	60	152	GapExp	Blank	1	5	2	3	1	target	1	435	783	-12657	13.328	12.893	13.781
ProbeTrack15	1	ProbeTrack	15.0	SCS215a	20120202.123145	20120202.123244	8	0.013328	60	10	60-180	60	173	GapExp	Blank	1	6	2	30	0	distractor	1	454	773	-11884	13.369	12.867	26.672
ProbeTrack15	1	ProbeTrack	15.0	SCS215a	20120202.123145	20120202.123252	8	0.013328	60	10	60-180	60	175	GapExp	Blank	1	7	2	1	1	distractor	0	658	-1000	-12884	13.328	13.307	13.344
ProbeTrack15	1	ProbeTrack	15.0	SCS215a	20120202.123145	20120202.123259	8	0.013328	60	10	60-180	60	119	GapExp	Blank	1	8	2	3	0	distractor	1	583	709	-12175	13.328	13.309	13.344
ProbeTrack15	1	ProbeTrack	15.0	SCS215a	20120202.123145	20120202.123306	8	0.013328	60	10	60-180	60	134	GapExp	Blank	0	9	2	1	0	distractor	1	690	655	-11520	13.328	12.838	13.819
ProbeTrack15	1	ProbeTrack	15.0	SCS215a	20120202.123145	20120202.123312	8	0.013328	60	10	60-180	60	114	GapExp	Blank	0	10	2	3	0	distractor	1	545	728	-10792	13.328	12.877	13.798
ProbeTrack15	1	ProbeTrack	15.0	SCS215a	20120202.123145	20120202.123318	8	0.013328	60	10	60-180	60	117	GapExp	Blank	0	11	2	0	0	early	-4	-3438	-1000	-11792	13.328	12.987	13.681
ProbeTrack15	1	ProbeTrack	15.0	SCS215a	20120202.123145	20120202.123325	8	0.013328	60	10	60-180	60	173	GapExp	Blank	0	12	2	3	0	early	-4	-4096	-1000	-12792	13.328	12.859	13.824
ProbeTrack15	1	ProbeTrack	15.0	SCS215a	20120202.123145	20120202.123332	8	0.013328	60	10	60-180	60	146	GapExp	Blank	0	13	2	30	1	early	-4	-4083	-1000	-13792	13.328	12.858	13.592
ProbeTrack15	1	ProbeTrack	15.0	SCS215a	20120202.123145	20120202.123339	8	0.013328	60	10	60-180	60	113	GapExp	Blank	0	14	2	0	1	target	1	653	674	-13118	13.381	13.027	26.531
ProbeTrack15	1	ProbeTrack	15.0	SCS215a	20120202.123145	20120202.123345	8	0.013328	60	10	60-180	60	171	GapExp	Blank	0	15	2	1	0	distractor	1	632	684	-12434	13.328	12.921	13.717
ProbeTrack15	1	ProbeTrack	15.0	SCS215a	20120202.123145	20120202.123352	8	0.013328	60	10	60-180	60	169	GapExp	Blank	0	16	2	1	0	early	-4	-4015	-1000	-13434	13.328	13.079	13.579
ProbeTrack15	1	ProbeTrack	15.0	SCS215a	20120202.123145	20120202.123400	8	0.013328	60	10	60-180	60	90	GapExp	Blank	0	17	2	1	1	target	1	546	727	-12707	13.328	13.099	13.563
ProbeTrack15	1	ProbeTrack	15.0	SCS215a	20120202.123145	20120202.123405	8	0.013328	60	10	60-180	60	150	GapExp	Blank	0	18	2	3	1	target	1	471	765	-11942	13.328	13.087	13.564
ProbeTrack15	1	ProbeTrack	15.0	SCS215a	20120202.123145	20120202.123412	8	0.013328	60	10	60-180	60	130	GapExp	Blank	0	19	2	1	0	target	0	546	-1000	-12942	13.328	13.305	13.345
ProbeTrack15	1	ProbeTrack	15.0	SCS215a	20120202.123145	20120202.123418	8	0.013328	60	10	60-180	60	81	GapExp	Blank	0	20	2	3	1	early	-4	-3015	-1000	-13942	13.328	13.308	13.345
ProbeTrack15	1	ProbeTrack	15.0	SCS215a	20120202.123145	20120202.123423	8	0.013328	60	10	60-180	60	110	GapExp	Blank	0	21	2	3	0	distractor	1	624	688	-13254	13.382	13.044	26.896
ProbeTrack15	1	ProbeTrack	15.0	SCS215a	20120202.123145	20120202.123430	8	0.013328	60	10	60-180	60	118	GapExp	Blank	0	22	2	3	1	target	1	581	710	-12544	13.434	13.212	26.731
ProbeTrack15	1	ProbeTrack	15.0	SCS215a	20120202.123145	20120202.123436	8	0.013328	60	10	60-180	60	85	GapExp	Blank	0	23	2	0	0	target	0	495	-1000	-13544	13.328	12.943	13.721
ProbeTrack15	1	ProbeTrack	15.0	SCS215a	20120202.123145	20120202.123442	8	0.013328	60	10	60-180	60	154	GapExp	Blank	0	24	2	0	1	early	-4	-3810	-1000	-14544	13.328	13.097	13.573
ProbeTrack15	1	ProbeTrack	15.0	SCS215a	20120202.123145	20120202.123448	8	0.013328	60	10	60-180	60	149	GapExp	Blank	0	25	2	1	1	target	1	557	722	-13822	13.376	12.913	26.491
ProbeTrack15	1	ProbeTrack	15.0	SCS215a	20120202.123145	20120202.123455	8	0.013328	60	10	60-180	60	111	GapExp	Blank	0	26	2	0	0	distractor	1	627	687	-13135	13.328	13.118	13.550
ProbeTrack15	1	ProbeTrack	15.0	SCS215a	20120202.123145	20120202.123501	8	0.013328	60	10	60-180	60	98	GapExp	Blank	0	27	2	0	1	early	-4	-3215	-1000	-14135	13.388	13.175	26.384
ProbeTrack15	1	ProbeTrack	15.0	SCS215a	20120202.123145	20120202.123507	8	0.013328	60	10	60-180	60	79	GapExp	Blank	0	28	2	0	1	target	1	508	746	-13389	13.328	12.868	13.804
ProbeTrack15	1	ProbeTrack	15.0	SCS215a	20120202.123145	20120202.123512	8	0.013328	60	10	60-180	60	71	GapExp	Blank	0	29	2	30	1	early	-4	-3257	-1000	-14389	13.389	13.025	26.523
ProbeTrack15	1	ProbeTrack	15.0	SCS215a	20120202.123145	20120202.123518	8	0.013328	60	10	60-180	60	69	GapExp	Blank	0	30	2	1	1	target	1	411	795	-13594	13.399	13.069	26.638
ProbeTrack15	1	ProbeTrack	15.0	SCS215a	20120202.123145	20120202.123523	8	0.013328	60	10	60-180	60	166	GapExp	Blank	0	31	2	0	1	early	-4	-4109	-1000	-14594	13.328	13.106	13.543
ProbeTrack15	1	ProbeTrack	15.0	SCS215a	20120202.123145	20120202.123530	8	0.013328	60	10	60-180	60	171	GapExp	Blank	0	32	2	3	0	distractor	1	549	726	-13868	13.328	13.112	13.542
ProbeTrack15	1	ProbeTrack	15.0	SCS215a	20120202.123145	20120202.123537	8	0.013328	60	10	60-180	60	129	GapExp	Blank	0	33	2	0	1	early	-4	-3618	-1000	-14868	13.328	13.090	13.554
ProbeTrack15	1	ProbeTrack	15.0	SCS215a	20120202.123145	20120202.123543	8	0.013328	60	10	60-180	60	113	GapExp	Blank	0	34	2	1	1	target	1	493	754	-14114	13.328	12.912	13.746
ProbeTrack15	1	ProbeTrack	15.0	SCS215a	20120202.123145	20120202.123549	8	0.013328	60	10	60-180	60	152	GapExp	Blank	0	35	2	0	0	distractor	1	555	723	-13391	13.328	12.912	13.753
ProbeTrack15	1	ProbeTrack	15.0	SCS215a	20120202.123145	20120202.123556	8	0.013328	60	10	60-180	60	154	GapExp	Blank	0	36	2	1	1	target	1	485	758	-12633	13.328	13.307	13.346
ProbeTrack15	1	ProbeTrack	15.0	SCS215a	20120202.123145	20120202.123602	8	0.013328	60	10	60-180	60	129	GapExp	Blank	0	37	2	0	0	early	-4	-3481	-1000	-13633	13.328	13.016	13.629
ProbeTrack15	1	ProbeTrack	15.0	SCS215a	20120202.123145	20120202.123609	8	0.013328	60	10	60-180	60	112	GapExp	Blank	0	38	2	1	1	early	-4	-3398	-1000	-14633	13.328	13.302	13.355
ProbeTrack15	1	ProbeTrack	15.0	SCS215a	20120202.123145	20120202.123615	8	0.013328	60	10	60-180	60	103	GapExp	Blank	0	39	2	3	1	early	-4	-3310	-1000	-15633	13.328	13.117	13.538
ProbeTrack15	1	ProbeTrack	15.0	SCS215a	20120202.123145	20120202.123621	8	0.013328	60	10	60-180	60	174	GapExp	Blank	0	40	2	0	0	early	-4	-4187	-1000	-16633	13.328	13.048	13.629
ProbeTrack15	1	ProbeTrack	15.0	SCS215a	20120202.123145	20120202.123627	8	0.013328	60	10	60-180	60	88	GapExp	Blank	0	41	2	30	1	early	-4	-3345	-1000	-17633	13.328	12.897	13.746
ProbeTrack15	1	ProbeTrack	15.0	SCS215a	20120202.123145	20120202.123633	8	0.013328	60	10	60-180	60	142	GapExp	Blank	0	42	2	3	1	early	-4	-3825	-1000	-18633	13.328	13.019	13.649
ProbeTrack15	1	ProbeTrack	15.0	SCS215a	20120202.123145	20120202.123641	8	0.013328	60	10	60-180	60	154	GapExp	Blank	0	43	2	30	1	early	-4	-4357	-1000	-19633	13.328	13.099	13.546
ProbeTrack15	1	ProbeTrack	15.0	SCS215a	20120202.123145	20120202.123648	8	0.013328	60	10	60-180	60	89	GapExp	Blank	0	44	2	3	0	early	-4	-3119	-1000	-20633	13.328	12.899	13.757
ProbeTrack15	1	ProbeTrack	15.0	SCS215a	20120202.123145	20120202.123653	8	0.013328	60	10	60-180	60	87	GapExp	Blank	0	45	2	30	0	early	-4	-3413	-1000	-21633	13.328	13.246	13.410
ProbeTrack15	1	ProbeTrack	15.0	SCS215a	20120202.123145	20120202.123659	8	0.013328	60	10	60-180	60	143	GapExp	Blank	0	46	2	0	1	early	-4	-3799	-1000	-22633	13.328	13.302	13.355
ProbeTrack15	1	ProbeTrack	15.0	SCS215a	20120202.123145	20120202.123705	8	0.013328	60	10	60-180	60	141	GapExp	Blank	0	47	2	1	0	early	-4	-3012	-1000	-23633	13.328	12.851	13.792
ProbeTrack15	1	ProbeTrack	15.0	SCS215a	20120202.123145	20120202.123712	8	0.013328	60	10	60-180	60	99	GapExp	Blank	0	48	2	3	1	early	-4	-3264	-1000	-24633	13.328	12.853	13.785
ProbeTrack15	1	ProbeTrack	15.0	SCS215a	20120202.123145	20120202.123718	8	0.013328	60	10	60-180	60	78	GapExp	Blank	0	49	2	0	1	target	1	623	689	-23944	13.328	13.308	13.344
ProbeTrack15	1	ProbeTrack	15.0	SCS215a	20120202.123145	20120202.123723	8	0.013328	60	10	60-180	60	77	GapExp	Blank	0	50	2	0	0	target	0	526	-1000	-24944	13.328	12.896	13.772
ProbeTrack15	1	ProbeTrack	15.0	SCS215a	20120202.123145	20120202.123730	8	0.013328	60	10	60-180	60	173	GapExp	Blank	0	51	2	30	1	early	-4	-4572	-1000	-25944	13.328	12.878	13.771
ProbeTrack15	1	ProbeTrack	15.0	SCS215a	20120202.123145	20120202.123738	8	0.013328	60	10	60-180	60	118	GapExp	Blank	0	52	2	30	0	early	-4	-3869	-1000	-26944	13.328	12.901	13.782
ProbeTrack15	1	ProbeTrack	15.0	SCS215a	20120202.123145	20120202.123802	8	0.013328	60	10	60-180	60	122	GapExp	Blank	0	53	2	3	1	target	1	458	771	-26173	13.328	12.937	13.741
ProbeTrack15	1	ProbeTrack	15.0	SCS215a	20120202.123145	20120202.123808	8	0.013328	60	10	60-180	60	174	GapExp	Blank	0	54	2	30	1	target	1	507	747	-25426	13.328	13.306	13.349
ProbeTrack15	1	ProbeTrack	15.0	SCS215a	20120202.123145	20120202.123815	8	0.013328	60	10	60-180	60	147	GapExp	Blank	0	55	2	30	0	distractor	1	474	763	-24663	13.328	13.307	13.352
ProbeTrack15	1	ProbeTrack	15.0	SCS215a	20120202.123145	20120202.123822	8	0.013328	60	10	60-180	60	107	GapExp	Blank	0	56	2	0	1	early	-4	-3325	-1000	-25663	13.328	13.287	13.363
ProbeTrack15	1	ProbeTrack	15.0	SCS215a	20120202.123145	20120202.123828	8	0.013328	60	10	60-180	60	140	GapExp	Blank	0	57	2	3	1	early	-4	-2897	-1000	-26663	13.328	13.098	13.552
ProbeTrack15	1	ProbeTrack	15.0	SCS215a	20120202.123145	20120202.123834	8	0.013328	60	10	60-180	60	82	GapExp	Blank	0	58	2	3	0	distractor	1	518	741	-25922	13.328	13.100	13.556
ProbeTrack15	1	ProbeTrack	15.0	SCS215a	20120202.123145	20120202.123840	8	0.013328	60	10	60-180	60	162	GapExp	Blank	0	59	2	3	1	early	-4	-4094	-1000	-26922	13.328	13.164	13.492
ProbeTrack15	1	ProbeTrack	15.0	SCS215a	20120202.123145	20120202.123846	8	0.013328	60	10	60-180	60	114	GapExp	Blank	0	60	2	3	1	target	1	500	750	-26172	13.328	12.943	13.721
ProbeTrack15	1	ProbeTrack	15.0	SCS215a	20120202.123145	20120202.123852	8	0.013328	60	10	60-180	60	124	GapExp	Blank	0	61	2	1	0	distractor	1	753	624	-25548	13.328	13.298	13.375
ProbeTrack15	1	ProbeTrack	15.0	SCS215a	20120202.123145	20120202.123858	8	0.013328	60	10	60-180	60	96	GapExp	Blank	0	62	2	30	1	early	-4	-3462	-1000	-26548	13.328	13.225	13.435
ProbeTrack15	1	ProbeTrack	15.0	SCS215a	20120202.123145	20120202.123905	8	0.013328	60	10	60-180	60	165	GapExp	Blank	0	63	2	3	0	distractor	1	626	687	-25861	13.328	13.302	13.362
ProbeTrack15	1	ProbeTrack	15.0	SCS215a	20120202.123145	20120202.123912	8	0.013328	60	10	60-180	60	153	GapExp	Blank	0	64	2	3	0	early	-4	-3972	-1000	-26861	13.328	13.037	13.610
ProbeTrack15	1	ProbeTrack	15.0	SCS215a	20120202.123145	20120202.123919	8	0.013328	60	10	60-180	60	88	GapExp	Blank	0	65	2	30	0	early	-4	-3363	-1000	-27861	13.328	13.312	13.348
ProbeTrack15	1	ProbeTrack	15.0	SCS215a	20120202.123145	20120202.123925	8	0.013328	60	10	60-180	60	105	GapExp	Blank	0	66	2	30	0	early	-4	-3583	-1000	-28861	13.328	13.308	13.348
ProbeTrack15	1	ProbeTrack	15.0	SCS215a	20120202.123145	20120202.123931	8	0.013328	60	10	60-180	60	137	GapExp	Blank	0	67	2	30	0	early	-4	-4112	-1000	-29861	13.328	13.257	13.385
ProbeTrack15	1	ProbeTrack	15.0	SCS215a	20120202.123145	20120202.123939	8	0.013328	60	10	60-180	60	112	GapExp	Blank	0	68	2	1	1	early	-4	-3394	-1000	-30861	13.328	12.921	13.721
ProbeTrack15	1	ProbeTrack	15.0	SCS215a	20120202.123145	20120202.123945	8	0.013328	60	10	60-180	60	143	GapExp	Blank	0	69	2	3	1	target	1	468	766	-30095	13.328	12.892	13.770
ProbeTrack15	1	ProbeTrack	15.0	SCS215a	20120202.123145	20120202.123952	8	0.013328	60	10	60-180	60	143	GapExp	Blank	0	70	2	0	0	early	-4	-3801	-1000	-31095	13.328	12.909	13.753
ProbeTrack15	1	ProbeTrack	15.0	SCS215a	20120202.123145	20120202.123958	8	0.013328	60	10	60-180	60	77	GapExp	Blank	0	71	2	3	0	early	-4	-2825	-1000	-32095	13.328	12.875	13.792
ProbeTrack15	1	ProbeTrack	15.0	SCS215a	20120202.123145	20120202.124003	8	0.013328	60	10	60-180	60	153	GapExp	Blank	0	72	2	3	0	distractor	1	600	700	-31395	13.328	13.099	13.550
ProbeTrack15	1	ProbeTrack	15.0	SCS215a	20120202.123145	20120202.124010	8	0.013328	60	10	60-180	60	144	GapExp	Blank	0	73	2	3	0	early	-4	-3847	-1000	-32395	13.328	12.918	13.744
ProbeTrack15	1	ProbeTrack	15.0	SCS215a	20120202.123145	20120202.124017	8	0.013328	60	10	60-180	60	157	GapExp	Blank	0	74	2	1	0	early	-4	-3880	-1000	-33395	13.328	13.307	13.349
ProbeTrack15	1	ProbeTrack	15.0	SCS215a	20120202.123145	20120202.124024	8	0.013328	60	10	60-180	60	180	GapExp	Blank	0	75	2	1	1	early	-4	-4219	-1000	-34395	13.328	13.112	13.543
ProbeTrack15	1	ProbeTrack	15.0	SCS215a	20120202.123145	20120202.124031	8	0.013328	60	10	60-180	60	82	GapExp	Blank	0	76	2	0	0	distractor	1	568	716	-33679	13.328	13.308	13.355
ProbeTrack15	1	ProbeTrack	15.0	SCS215a	20120202.123145	20120202.124036	8	0.013328	60	10	60-180	60	85	GapExp	Blank	0	77	2	0	1	early	-4	-3028	-1000	-34679	13.328	13.309	13.344
ProbeTrack15	1	ProbeTrack	15.0	SCS215a	20120202.123145	20120202.124043	8	0.013328	60	10	60-180	60	163	GapExp	Blank	0	78	2	1	0	distractor	1	689	656	-34023	13.328	12.918	13.731
ProbeTrack15	1	ProbeTrack	15.0	SCS215a	20120202.123145	20120202.124050	8	0.013328	60	10	60-180	60	102	GapExp	Blank	0	79	2	30	0	distractor	1	505	748	-33275	13.328	13.300	13.349
ProbeTrack15	1	ProbeTrack	15.0	SCS215a	20120202.123145	20120202.124056	8	0.013328	60	10	60-180	60	109	GapExp	Blank	0	80	2	1	0	early	-4	-3358	-1000	-34275	13.328	13.226	13.436
ProbeTrack15	1	ProbeTrack	15.0	SCS215a	20120202.123145	20120202.124102	8	0.013328	60	10	60-180	60	95	GapExp	Blank	0	81	2	3	0	early	-4	-3190	-1000	-35275	13.328	13.308	13.348
ProbeTrack15	1	ProbeTrack	15.0	SCS215a	20120202.123145	20120202.124108	8	0.013328	60	10	60-180	60	171	GapExp	Blank	0	82	2	30	0	early	-4	-4434	-1000	-36275	13.328	13.097	13.563
ProbeTrack15	1	ProbeTrack	15.0	SCS215a	20120202.123145	20120202.124115	8	0.013328	60	10	60-180	60	80	GapExp	Blank	0	83	2	3	0	early	-4	-2991	-1000	-37275	13.328	12.865	13.791
ProbeTrack15	1	ProbeTrack	15.0	SCS215a	20120202.123145	20120202.124121	8	0.013328	60	10	60-180	60	62	GapExp	Blank	0	84	2	0	0	early	-4	-2709	-1000	-38275	13.328	13.096	13.553
ProbeTrack15	1	ProbeTrack	15.0	SCS215a	20120202.123145	20120202.124126	8	0.013328	60	10	60-180	60	62	GapExp	Blank	0	85	2	3	1	early	-4	-2754	-1000	-39275	13.328	13.304	13.352
ProbeTrack15	1	ProbeTrack	15.0	SCS215a	20120202.123145	20120202.124131	8	0.013328	60	10	60-180	60	149	GapExp	Blank	0	86	2	0	0	early	-4	-3876	-1000	-40275	13.328	13.307	13.348
ProbeTrack15	1	ProbeTrack	15.0	SCS215a	20120202.123145	20120202.124137	8	0.013328	60	10	60-180	60	95	GapExp	Blank	0	87	2	1	0	early	-4	-3180	-1000	-41275	13.328	13.308	13.353
ProbeTrack15	1	ProbeTrack	15.0	SCS215a	20120202.123145	20120202.124143	8	0.013328	60	10	60-180	60	143	GapExp	Blank	0	88	2	30	1	early	-4	-4064	-1000	-42275	13.328	13.113	13.551
ProbeTrack15	1	ProbeTrack	15.0	SCS215a	20120202.123145	20120202.124149	8	0.013328	60	10	60-180	60	91	GapExp	Blank	0	89	2	3	1	early	-4	-3147	-1000	-43275	13.328	13.090	13.570
ProbeTrack15	1	ProbeTrack	15.0	SCS215a	20120202.123145	20120202.124155	8	0.013328	60	10	60-180	60	175	GapExp	Blank	0	90	2	30	0	distractor	1	488	756	-42519	13.328	12.840	13.815
ProbeTrack15	1	ProbeTrack	15.0	SCS215a	20120202.123145	20120202.124202	8	0.013328	60	10	60-180	60	79	GapExp	Blank	0	91	2	1	1	early	-4	-2967	-1000	-43519	13.328	12.992	13.670
ProbeTrack15	1	ProbeTrack	15.0	SCS215a	20120202.123145	20120202.124207	8	0.013328	60	10	60-180	60	100	GapExp	Blank	0	92	2	0	1	early	-4	-3229	-1000	-44519	13.328	13.301	13.346
ProbeTrack15	1	ProbeTrack	15.0	SCS215a	20120202.123145	20120202.124213	8	0.013328	60	10	60-180	60	175	GapExp	Blank	0	93	2	30	1	early	-4	-4632	-1000	-45519	13.328	13.303	13.351
ProbeTrack15	1	ProbeTrack	15.0	SCS215a	20120202.123145	20120202.124220	8	0.013328	60	10	60-180	60	85	GapExp	Blank	0	94	2	1	0	early	-4	-2920	-1000	-46519	13.328	13.308	13.346
ProbeTrack15	1	ProbeTrack	15.0	SCS215a	20120202.123145	20120202.124226	8	0.013328	60	10	60-180	60	153	GapExp	Blank	0	95	2	30	0	early	-4	-4151	-1000	-47519	13.328	12.871	13.777
ProbeTrack15	1	ProbeTrack	15.0	SCS215a	20120202.123145	20120202.124233	8	0.013328	60	10	60-180	60	143	GapExp	Blank	0	96	2	0	0	early	-4	-3682	-1000	-48519	13.328	13.063	13.600
ProbeTrack15	1	ProbeTrack	15.0	SCS215a	20120202.123145	20120202.124239	8	0.013328	60	10	60-180	60	174	GapExp	Blank	0	97	2	0	1	early	-4	-4212	-1000	-49519	13.328	12.849	13.792
ProbeTrack15	1	ProbeTrack	15.0	SCS215a	20120202.123145	20120202.124246	8	0.013328	60	10	60-180	60	100	GapExp	Blank	0	98	2	1	0	early	-4	-3235	-1000	-50519	13.328	13.092	13.563
ProbeTrack15	1	ProbeTrack	15.0	SCS215a	20120202.123145	20120202.124253	8	0.013328	60	10	60-180	60	158	GapExp	Blank	0	99	2	1	0	early	-4	-3993	-1000	-51519	13.328	13.107	13.542
ProbeTrack15	1	ProbeTrack	15.0	SCS215a	20120202.123145	20120202.124259	8	0.013328	60	10	60-180	60	173	GapExp	Blank	0	100	2	1	1	early	-4	-4221	-1000	-52519	13.328	13.093	13.562
ProbeTrack15	1	ProbeTrack	15.0	SCS215a	20120202.123145	20120202.124306	8	0.013328	60	10	60-180	60	128	GapExp	Blank	0	101	2	0	1	early	-4	-3603	-1000	-53519	13.328	12.986	13.349
ProbeTrack15	1	ProbeTrack	15.0	SCS215a	20120202.123145	20120202.124312	8	0.013328	60	10	60-180	60	173	GapExp	Blank	0	102	2	30	1	early	-4	-4600	-1000	-54519	13.328	12.904	13.776
ProbeTrack15	1	ProbeTrack	15.0	SCS215a	20120202.123145	20120202.124319	8	0.013328	60	10	60-180	60	82	GapExp	Blank	0	103	2	1	1	target	1	382	809	-53710	13.328	13.295	13.355
ProbeTrack15	1	ProbeTrack	15.0	SCS215a	20120202.123145	20120202.124325	8	0.013328	60	10	60-180	60	147	GapExp	Blank	0	104	2	30	1	target	1	488	756	-52954	13.328	13.092	13.564
ProbeTrack15	1	ProbeTrack	15.0	SCS215a	20120202.123145	20120202.124332	8	0.013328	60	10	60-180	60	142	GapExp	Blank	0	105	2	3	1	early	-4	-3826	-1000	-53954	13.328	13.308	13.346
ProbeTrack15	1	ProbeTrack	15.0	SCS215a	20120202.123145	20120202.124338	8	0.013328	60	10	60-180	60	96	GapExp	Blank	0	106	2	3	1	early	-4	-3106	-1000	-54954	13.328	12.893	13.758
ProbeTrack15	1	ProbeTrack	15.0	SCS215a	20120202.123145	20120202.124345	8	0.013328	60	10	60-180	60	149	GapExp	Blank	0	107	2	30	1	early	-4	-4277	-1000	-55954	13.328	13.308	13.349
ProbeTrack15	1	ProbeTrack	15.0	SCS215a	20120202.123145	20120202.124351	8	0.013328	60	10	60-180	60	126	GapExp	Blank	0	108	2	0	1	early	-4	-3582	-1000	-56954	13.328	12.869	13.810
ProbeTrack15	1	ProbeTrack	15.0	SCS215a	20120202.123145	20120202.124358	8	0.013328	60	10	60-180	60	173	GapExp	Blank	0	109	2	3	0	distractor	1	578	711	-56243	13.328	13.307	13.356
ProbeTrack15	1	ProbeTrack	15.0	SCS215a	20120202.123145	20120202.124405	8	0.013328	60	10	60-180	60	106	GapExp	Blank	0	110	2	0	1	target	1	541	730	-55513	13.328	12.907	13.757
ProbeTrack15	1	ProbeTrack	15.0	SCS215a	20120202.123145	20120202.124417	8	0.013328	60	10	60-180	60	95	GapExp	Blank	0	111	2	0	1	early	-4	-3157	-1000	-56513	13.328	12.837	13.825
ProbeTrack15	1	ProbeTrack	15.0	SCS215a	20120202.123145	20120202.124423	8	0.013328	60	10	60-180	60	77	GapExp	Blank	0	112	2	30	0	early	-4	-3303	-1000	-57513	13.328	13.105	13.543
ProbeTrack15	1	ProbeTrack	15.0	SCS215a	20120202.123145	20120202.124430	8	0.013328	60	10	60-180	60	167	GapExp	Blank	0	113	2	0	0	early	-4	-4117	-1000	-58513	13.328	13.050	13.624
ProbeTrack15	1	ProbeTrack	15.0	SCS215a	20120202.123145	20120202.124436	8	0.013328	60	10	60-180	60	153	GapExp	Blank	0	114	2	30	1	early	-4	-4297	-1000	-59513	13.328	12.844	13.814
ProbeTrack15	1	ProbeTrack	15.0	SCS215a	20120202.123145	20120202.124443	8	0.013328	60	10	60-180	60	116	GapExp	Blank	0	115	2	0	1	early	-4	-3297	-1000	-60513	13.328	13.308	13.347
ProbeTrack15	1	ProbeTrack	15.0	SCS215a	20120202.123145	20120202.124449	8	0.013328	60	10	60-180	60	119	GapExp	Blank	0	116	2	3	0	distractor	1	471	765	-59748	13.328	13.288	13.387
ProbeTrack15	1	ProbeTrack	15.0	SCS215a	20120202.123145	20120202.124454	8	0.013328	60	10	60-180	60	68	GapExp	Blank	0	117	2	1	1	early	-4	-2822	-1000	-60748	13.328	13.307	13.350
ProbeTrack15	1	ProbeTrack	15.0	SCS215a	20120202.123145	20120202.124500	8	0.013328	60	10	60-180	60	148	GapExp	Blank	0	118	2	1	1	early	-4	-3877	-1000	-61748	13.328	12.857	13.803
ProbeTrack15	1	ProbeTrack	15.0	SCS215a	20120202.123145	20120202.124507	8	0.013328	60	10	60-180	60	95	GapExp	Blank	0	119	2	3	1	target	1	483	759	-60989	13.328	13.092	13.551
ProbeTrack15	1	ProbeTrack	15.0	SCS215a	20120202.123145	20120202.124512	8	0.013328	60	10	60-180	60	177	GapExp	Blank	0	120	2	3	0	early	-4	-4288	-1000	-61989	13.328	12.854	13.801
ProbeTrack15	1	ProbeTrack	15.0	SCS215a	20120202.123145	20120202.124519	8	0.013328	60	10	60-180	60	115	GapExp	Blank	0	121	2	1	0	early	-4	-3436	-1000	-62989	13.328	13.308	13.348
ProbeTrack15	1	ProbeTrack	15.0	SCS215a	20120202.123145	20120202.124525	8	0.013328	60	10	60-180	60	92	GapExp	Blank	0	122	2	3	1	early	-4	-2982	-1000	-63989	13.328	13.088	13.608
ProbeTrack15	1	ProbeTrack	15.0	SCS215a	20120202.123145	20120202.124531	8	0.013328	60	10	60-180	60	137	GapExp	Blank	0	123	2	30	1	early	-4	-4125	-1000	-64989	13.328	12.887	13.754
ProbeTrack15	1	ProbeTrack	15.0	SCS215a	20120202.123145	20120202.124538	8	0.013328	60	10	60-180	60	152	GapExp	Blank	0	124	2	3	1	early	-4	-3953	-1000	-65989	13.328	13.308	13.348
ProbeTrack15	1	ProbeTrack	15.0	SCS215a	20120202.123145	20120202.124544	8	0.013328	60	10	60-180	60	107	GapExp	Blank	0	125	2	0	1	target	1	509	746	-65243	13.328	12.871	13.786
ProbeTrack15	1	ProbeTrack	15.0	SCS215a	20120202.123145	20120202.124550	8	0.013328	60	10	60-180	60	117	GapExp	Blank	0	126	2	0	0	target	0	575	-1000	-66243	13.328	13.169	13.478
ProbeTrack15	1	ProbeTrack	15.0	SCS215a	20120202.123145	20120202.124556	8	0.013328	60	10	60-180	60	180	GapExp	Blank	0	127	2	0	1	target	1	479	761	-65482	13.328	12.859	13.791
ProbeTrack15	1	ProbeTrack	15.0	SCS215a	20120202.123145	20120202.124603	8	0.013328	60	10	60-180	60	78	GapExp	Blank	0	128	2	1	1	early	-4	-2917	-1000	-66482	13.328	13.310	13.344
ProbeTrack15	1	ProbeTrack	15.0	SCS215a	20120202.123145	20120202.124609	8	0.013328	60	10	60-180	60	68	GapExp	Blank	0	129	2	30	1	target	1	399	801	-65681	13.328	12.968	13.696
ProbeTrack15	1	ProbeTrack	15.0	SCS215a	20120202.123145	20120202.124614	8	0.013328	60	10	60-180	60	102	GapExp	Blank	0	130	2	30	0	early	-4	-3650	-1000	-66681	13.328	13.089	13.563
ProbeTrack15	1	ProbeTrack	15.0	SCS215a	20120202.123145	20120202.124620	8	0.013328	60	10	60-180	60	159	GapExp	Blank	0	131	2	3	1	early	-4	-3890	-1000	-67681	13.328	13.295	13.355
ProbeTrack15	1	ProbeTrack	15.0	SCS215a	20120202.123145	20120202.124626	8	0.013328	60	10	60-180	60	127	GapExp	Blank	0	132	2	1	0	distractor	1	567	717	-66964	13.328	13.118	13.551
ProbeTrack15	1	ProbeTrack	15.0	SCS215a	20120202.123145	20120202.124632	8	0.013328	60	10	60-180	60	62	GapExp	Blank	0	133	2	1	0	early	-4	-2722	-1000	-67964	13.328	13.296	13.349
ProbeTrack15	1	ProbeTrack	15.0	SCS215a	20120202.123145	20120202.124638	8	0.013328	60	10	60-180	60	73	GapExp	Blank	0	134	2	0	0	distractor	1	519	741	-67223	13.328	12.910	13.729
ProbeTrack15	1	ProbeTrack	15.0	SCS215a	20120202.123145	20120202.124643	8	0.013328	60	10	60-180	60	81	GapExp	Blank	0	135	2	3	1	early	-4	-3016	-1000	-68223	13.328	13.092	13.544
ProbeTrack15	1	ProbeTrack	15.0	SCS215a	20120202.123145	20120202.124648	8	0.013328	60	10	60-180	60	143	GapExp	Blank	0	136	2	30	0	early	-4	-4204	-1000	-69223	13.328	12.927	13.727
ProbeTrack15	1	ProbeTrack	15.0	SCS215a	20120202.123145	20120202.124655	8	0.013328	60	10	60-180	60	111	GapExp	Blank	0	137	2	1	1	early	-4	-3391	-1000	-70223	13.328	13.080	13.577
ProbeTrack15	1	ProbeTrack	15.0	SCS215a	20120202.123145	20120202.124701	8	0.013328	60	10	60-180	60	110	GapExp	Blank	0	138	2	3	0	early	-4	-3397	-1000	-71223	13.328	12.995	13.652
ProbeTrack15	1	ProbeTrack	15.0	SCS215a	20120202.123145	20120202.124707	8	0.013328	60	10	60-180	60	80	GapExp	Blank	0	139	2	3	0	distractor	1	459	771	-70452	13.328	13.305	13.354
ProbeTrack15	1	ProbeTrack	15.0	SCS215a	20120202.123145	20120202.124713	8	0.013328	60	10	60-180	60	124	GapExp	Blank	0	140	2	1	0	distractor	1	586	707	-69745	13.328	12.859	13.778
ProbeTrack15	1	ProbeTrack	15.0	SCS215a	20120202.123145	20120202.124719	8	0.013328	60	10	60-180	60	61	GapExp	Blank	0	141	2	1	0	early	-4	-2628	-1000	-70745	13.328	13.091	13.565
ProbeTrack15	1	ProbeTrack	15.0	SCS215a	20120202.123145	20120202.124724	8	0.013328	60	10	60-180	60	124	GapExp	Blank	0	142	2	3	1	early	-4	-3473	-1000	-71745	13.328	12.983	13.689
ProbeTrack15	1	ProbeTrack	15.0	SCS215a	20120202.123145	20120202.124730	8	0.013328	60	10	60-180	60	153	GapExp	Blank	0	143	2	3	1	target	1	709	646	-71099	13.328	13.071	13.579
ProbeTrack15	1	ProbeTrack	15.0	SCS215a	20120202.123145	20120202.124737	8	0.013328	60	10	60-180	60	95	GapExp	Blank	0	144	2	1	1	early	-4	-3171	-1000	-72099	13.328	13.308	13.351
ProbeTrack15	1	ProbeTrack	15.0	SCS215a	20120202.123145	20120202.124743	8	0.013328	60	10	60-180	60	139	GapExp	Blank	0	145	2	3	0	distractor	1	518	741	-71358	13.328	13.303	13.355
ProbeTrack15	1	ProbeTrack	15.0	SCS215a	20120202.123145	20120202.124750	8	0.013328	60	10	60-180	60	165	GapExp	Blank	0	146	2	1	0	early	-4	-4114	-1000	-72358	13.328	13.302	13.351
ProbeTrack15	1	ProbeTrack	15.0	SCS215a	20120202.123145	20120202.124756	8	0.013328	60	10	60-180	60	103	GapExp	Blank	0	147	2	30	1	early	-4	-3561	-1000	-73358	13.328	13.208	13.449
ProbeTrack15	1	ProbeTrack	15.0	SCS215a	20120202.123145	20120202.124802	8	0.013328	60	10	60-180	60	108	GapExp	Blank	0	148	2	30	0	distractor	1	592	704	-72654	13.328	12.961	13.700
ProbeTrack15	1	ProbeTrack	15.0	SCS215a	20120202.123145	20120202.124808	8	0.013328	60	10	60-180	60	156	GapExp	Blank	0	149	2	30	1	early	-4	-4376	-1000	-73654	13.328	13.008	13.645
ProbeTrack15	1	ProbeTrack	15.0	SCS215a	20120202.123145	20120202.124815	8	0.013328	60	10	60-180	60	110	GapExp	Blank	0	150	2	0	0	early	-4	-3246	-1000	-74654	13.328	13.114	13.544
ProbeTrack15	1	ProbeTrack	15.0	SCS215a	20120202.123145	20120202.124821	8	0.013328	60	10	60-180	60	180	GapExp	Blank	0	151	2	30	1	distractor	0	388	-1000	-75654	13.328	13.104	13.563
ProbeTrack15	1	ProbeTrack	15.0	SCS215a	20120202.123145	20120202.124828	8	0.013328	60	10	60-180	60	143	GapExp	Blank	0	152	2	30	1	distractor	0	636	-1000	-76654	13.328	13.094	13.571
ProbeTrack15	1	ProbeTrack	15.0	SCS215a	20120202.123145	20120202.124835	8	0.013328	60	10	60-180	60	85	GapExp	Blank	0	153	2	1	1	target	1	575	713	-75941	13.328	13.100	13.570
ProbeTrack15	1	ProbeTrack	15.0	SCS215a	20120202.123145	20120202.124840	8	0.013328	60	10	60-180	60	145	GapExp	Blank	0	154	2	1	0	distractor	1	447	777	-75164	13.328	12.903	13.770
ProbeTrack15	1	ProbeTrack	15.0	SCS215a	20120202.123145	20120202.124847	8	0.013328	60	10	60-180	60	76	GapExp	Blank	0	155	2	3	0	early	-4	-2950	-1000	-76164	13.328	13.304	13.347
ProbeTrack15	1	ProbeTrack	15.0	SCS215a	20120202.123145	20120202.124852	8	0.013328	60	10	60-180	60	174	GapExp	Blank	0	156	2	0	0	early	-4	-4098	-1000	-77164	13.328	13.023	13.638
ProbeTrack15	1	ProbeTrack	15.0	SCS215a	20120202.123145	20120202.124859	8	0.013328	60	10	60-180	60	109	GapExp	Blank	0	157	2	3	0	early	-4	-3289	-1000	-78164	13.328	13.308	13.345
ProbeTrack15	1	ProbeTrack	15.0	SCS215a	20120202.123145	20120202.124904	8	0.013328	60	10	60-180	60	178	GapExp	Blank	0	158	2	30	1	early	-4	-4671	-1000	-79164	13.328	13.101	13.543
ProbeTrack15	1	ProbeTrack	15.0	SCS215a	20120202.123145	20120202.124911	8	0.013328	60	10	60-180	60	68	GapExp	Blank	0	159	2	1	0	distractor	1	494	753	-78411	13.328	13.048	13.602
ProbeTrack15	1	ProbeTrack	15.0	SCS215a	20120202.123145	20120202.124916	8	0.013328	60	10	60-180	60	134	GapExp	Blank	0	160	2	3	1	target	1	484	758	-77653	13.328	13.113	13.528
ProbeTrack15	1	ProbeTrack	15.0	SCS215a	20120202.123145	20120202.124923	8	0.013328	60	10	60-180	60	115	GapExp	Blank	0	161	2	0	1	target	1	419	791	-76862	13.328	12.881	13.557
ProbeTrack15	1	ProbeTrack	15.0	SCS215a	20120202.123145	20120202.124929	8	0.013328	60	10	60-180	60	124	GapExp	Blank	0	162	2	3	1	target	1	468	766	-76096	13.328	12.894	13.764
ProbeTrack15	1	ProbeTrack	15.0	SCS215a	20120202.123145	20120202.124935	8	0.013328	60	10	60-180	60	87	GapExp	Blank	0	163	2	30	1	target	1	512	744	-75352	13.328	12.883	13.788
ProbeTrack15	1	ProbeTrack	15.0	SCS215a	20120202.123145	20120202.124940	8	0.013328	60	10	60-180	60	104	GapExp	Blank	0	164	2	30	0	distractor	1	425	788	-74564	13.328	12.891	13.760
ProbeTrack15	1	ProbeTrack	15.0	SCS215a	20120202.123145	20120202.124946	8	0.013328	60	10	60-180	60	108	GapExp	Blank	0	165	2	1	1	early	-4	-3216	-1000	-75564	13.328	12.849	13.810
ProbeTrack15	1	ProbeTrack	15.0	SCS215a	20120202.123145	20120202.124952	8	0.013328	60	10	60-180	60	140	GapExp	Blank	0	166	2	30	0	target	0	424	-1000	-76564	13.328	13.113	13.536
ProbeTrack15	1	ProbeTrack	15.0	SCS215a	20120202.123145	20120202.124959	8	0.013328	60	10	60-180	60	105	GapExp	Blank	0	167	2	3	0	distractor	1	808	596	-75968	13.328	12.971	13.691
ProbeTrack15	1	ProbeTrack	15.0	SCS215a	20120202.123145	20120202.125005	8	0.013328	60	10	60-180	60	65	GapExp	Blank	0	168	2	0	1	early	-4	-2546	-1000	-76968	13.328	13.307	13.347
ProbeTrack15	1	ProbeTrack	15.0	SCS215a	20120202.123145	20120202.125010	8	0.013328	60	10	60-180	60	180	GapExp	Blank	0	169	2	30	0	early	-4	-4443	-1000	-77968	13.328	12.844	13.799
ProbeTrack15	1	ProbeTrack	15.0	SCS215a	20120202.123145	20120202.125017	8	0.013328	60	10	60-180	60	76	GapExp	Blank	0	170	2	1	1	target	1	490	755	-77213	13.328	13.303	13.347
ProbeTrack15	1	ProbeTrack	15.0	SCS215a	20120202.123145	20120202.125023	8	0.013328	60	10	60-180	60	148	GapExp	Blank	0	171	2	1	1	target	1	420	790	-76423	13.428	13.005	26.857
ProbeTrack15	1	ProbeTrack	15.0	SCS215a	20120202.123145	20120202.125030	8	0.013328	60	10	60-180	60	151	GapExp	Blank	0	172	2	0	0	early	-4	-3912	-1000	-77423	13.327	13.271	13.348
ProbeTrack15	1	ProbeTrack	15.0	SCS215a	20120202.123145	20120202.125036	8	0.013328	60	10	60-180	60	176	GapExp	Blank	0	173	2	30	0	early	-4	-4611	-1000	-78423	13.328	13.031	13.634
ProbeTrack15	1	ProbeTrack	15.0	SCS215a	20120202.123145	20120202.125043	8	0.013328	60	10	60-180	60	104	GapExp	Blank	0	174	2	1	0	distractor	1	609	696	-77727	13.328	13.290	13.354
ProbeTrack15	1	ProbeTrack	15.0	SCS215a	20120202.123145	20120202.125049	8	0.013328	60	10	60-180	60	81	GapExp	Blank	0	175	2	0	0	early	-4	-2981	-1000	-78727	13.327	13.097	13.552
ProbeTrack15	1	ProbeTrack	15.0	SCS215a	20120202.123145	20120202.125055	8	0.013328	60	10	60-180	60	76	GapExp	Blank	0	176	2	30	1	early	-4	-3182	-1000	-79727	13.328	12.943	13.731
ProbeTrack15	1	ProbeTrack	15.0	SCS215a	20120202.123145	20120202.125101	8	0.013328	60	10	60-180	60	159	GapExp	Blank	0	177	2	3	0	distractor	1	486	757	-78970	13.328	13.019	13.637
ProbeTrack15	1	ProbeTrack	15.0	SCS215a	20120202.123145	20120202.125114	8	0.013328	60	10	60-180	60	156	GapExp	Blank	0	178	2	30	0	early	-4	-4382	-1000	-79970	13.328	12.889	13.770
ProbeTrack15	1	ProbeTrack	15.0	SCS215a	20120202.123145	20120202.125121	8	0.013328	60	10	60-180	60	129	GapExp	Blank	0	179	2	1	0	early	-4	-3385	-1000	-80970	13.328	13.022	13.644
ProbeTrack15	1	ProbeTrack	15.0	SCS215a	20120202.123145	20120202.125127	8	0.013328	60	10	60-180	60	119	GapExp	Blank	0	180	2	30	1	target	1	449	776	-80194	13.328	13.294	13.349
ProbeTrack15	1	ProbeTrack	15.0	SCS215a	20120202.123145	20120202.125134	8	0.013328	60	10	60-180	60	173	GapExp	Blank	0	181	2	1	1	early	-4	-4074	-1000	-81194	13.328	13.308	13.348
ProbeTrack15	1	ProbeTrack	15.0	SCS215a	20120202.123145	20120202.125141	8	0.013328	60	10	60-180	60	152	GapExp	Blank	0	182	2	0	0	distractor	1	520	740	-80454	13.328	12.933	13.657
ProbeTrack15	1	ProbeTrack	15.0	SCS215a	20120202.123145	20120202.125147	8	0.013328	60	10	60-180	60	171	GapExp	Blank	0	183	2	30	1	early	-4	-4462	-1000	-81454	13.328	13.049	13.625
ProbeTrack15	1	ProbeTrack	15.0	SCS215a	20120202.123145	20120202.125154	8	0.013328	60	10	60-180	60	64	GapExp	Blank	0	184	2	1	1	target	1	603	699	-80755	13.328	12.852	13.781
ProbeTrack15	1	ProbeTrack	15.0	SCS215a	20120202.123145	20120202.125159	8	0.013328	60	10	60-180	60	151	GapExp	Blank	0	185	2	1	0	distractor	1	403	799	-79956	13.377	12.847	26.549
ProbeTrack15	1	ProbeTrack	15.0	SCS215a	20120202.123145	20120202.125206	8	0.013328	60	10	60-180	60	103	GapExp	Blank	0	186	2	30	0	early	-4	-3468	-1000	-80956	13.379	13.091	26.204
ProbeTrack15	1	ProbeTrack	15.0	SCS215a	20120202.123145	20120202.125212	8	0.013328	60	10	60-180	60	81	GapExp	Blank	0	187	2	30	0	early	-4	-3224	-1000	-81956	13.328	13.014	13.647
ProbeTrack15	1	ProbeTrack	15.0	SCS215a	20120202.123145	20120202.125221	8	0.013328	60	10	60-180	60	115	GapExp	Blank	0	188	2	0	1	early	-4	-3426	-1000	-82956	13.328	13.309	13.345
ProbeTrack15	1	ProbeTrack	15.0	SCS215a	20120202.123145	20120202.125228	8	0.013328	60	10	60-180	60	91	GapExp	Blank	0	189	2	0	0	early	-4	-3097	-1000	-83956	13.328	13.306	13.345
ProbeTrack15	1	ProbeTrack	15.0	SCS215a	20120202.123145	20120202.125234	8	0.013328	60	10	60-180	60	91	GapExp	Blank	0	190	2	30	0	early	-4	-3510	-1000	-84956	13.328	13.276	13.379
ProbeTrack15	1	ProbeTrack	15.0	SCS215a	20120202.123145	20120202.125240	8	0.013328	60	10	60-180	60	125	GapExp	Blank	0	191	2	1	1	early	-4	-3580	-1000	-85956	13.328	12.837	13.812
ProbeTrack15	1	ProbeTrack	15.0	SCS215a	20120202.123145	20120202.125246	8	0.013328	60	10	60-180	60	64	GapExp	Blank	0	192	2	1	1	early	-4	-2757	-1000	-86956	13.328	13.070	13.597
ProbeTrack15	1	ProbeTrack	15.0	SCS215a	20120202.123145	20120202.125251	8	0.013328	60	10	60-180	60	105	GapExp	Blank	0	193	2	0	0	distractor	1	510	745	-86211	13.328	13.130	13.512
ProbeTrack15	1	ProbeTrack	15.0	SCS215a	20120202.123145	20120202.125257	8	0.013328	60	10	60-180	60	127	GapExp	Blank	0	194	2	30	0	distractor	1	484	758	-85453	13.328	13.308	13.348
ProbeTrack15	1	ProbeTrack	15.0	SCS215a	20120202.123145	20120202.125303	8	0.013328	60	10	60-180	60	139	GapExp	Blank	0	195	2	3	0	early	-4	-3682	-1000	-86453	13.328	12.870	13.786
ProbeTrack15	1	ProbeTrack	15.0	SCS215a	20120202.123145	20120202.125309	8	0.013328	60	10	60-180	60	179	GapExp	Blank	0	196	2	0	1	early	-4	-4038	-1000	-87453	13.328	12.981	13.669
ProbeTrack15	1	ProbeTrack	15.0	SCS215a	20120202.123145	20120202.125317	8	0.013328	60	10	60-180	60	172	GapExp	Blank	0	197	2	0	0	distractor	1	533	734	-86719	13.328	12.935	13.728
ProbeTrack15	1	ProbeTrack	15.0	SCS215a	20120202.123145	20120202.125324	8	0.013328	60	10	60-180	60	114	GapExp	Blank	0	198	2	0	1	early	-4	-3418	-1000	-87719	13.328	13.112	13.537
ProbeTrack15	1	ProbeTrack	15.0	SCS215a	20120202.123145	20120202.125329	8	0.013328	60	10	60-180	60	126	GapExp	Blank	0	199	2	0	0	target	0	449	-1000	-88719	13.328	13.112	13.550
ProbeTrack15	1	ProbeTrack	15.0	SCS215a	20120202.123145	20120202.125335	8	0.013328	60	10	60-180	60	164	GapExp	Blank	0	200	2	30	0	distractor	1	478	761	-87958	13.328	13.051	13.596
ProbeTrack15	1	ProbeTrack	15.0	SCS215a	20120202.125517	20120202.125522	8	0.013328	60	10	60-180	60	85	GapPrac	BigFlash	1	1	2	1	1	early	-4	-3050	-1000	-88958	13.387	13.263	13.393
ProbeTrack15	1	ProbeTrack	15.0	SCS215a	20120202.125517	20120202.125532	8	0.013328	60	10	60-180	60	118	GapPrac	BigFlash	1	2	2	30	0	distractor	1	671	665	-88293	13.328	11.990	14.659
ProbeTrack15	1	ProbeTrack	15.0	SCS215a	20120202.125517	20120202.125538	8	0.013328	60	10	60-180	60	93	GapPrac	BigFlash	1	3	2	1	0	early	-4	-2998	-1000	-89293	13.387	13.216	24.055
ProbeTrack15	1	ProbeTrack	15.0	SCS215a	20120202.125517	20120202.125544	8	0.013328	60	10	60-180	60	73	GapPrac	BigFlash	1	4	2	3	1	early	-4	-2905	-1000	-90293	13.328	13.022	13.630
ProbeTrack15	1	ProbeTrack	15.0	SCS215a	20120202.125517	20120202.125549	8	0.013328	60	10	60-180	60	163	GapPrac	BigFlash	1	5	2	3	0	target	0	526	-1000	-91293	13.328	13.102	13.562
ProbeTrack15	1	ProbeTrack	15.0	SCS215a	20120202.125517	20120202.125556	8	0.013328	60	10	60-180	60	65	GapPrac	BigFlash	1	6	2	30	0	early	-4	-3169	-1000	-92293	13.328	12.019	14.635
ProbeTrack15	1	ProbeTrack	15.0	SCS215a	20120202.125517	20120202.125601	8	0.013328	60	10	60-180	60	113	GapPrac	BigFlash	1	7	2	0	0	early	-4	-3293	-1000	-93293	13.328	11.098	15.566
ProbeTrack15	1	ProbeTrack	15.0	SCS215a	20120202.125517	20120202.125607	8	0.013328	60	10	60-180	60	77	GapPrac	BigFlash	1	8	2	0	1	early	-4	-2899	-1000	-94293	13.328	13.307	13.349
ProbeTrack15	1	ProbeTrack	15.0	SCS215a	20120202.125517	20120202.125613	8	0.013328	60	10	60-180	60	93	GapPrac	BigFlash	1	9	2	1	0	early	-4	-3128	-1000	-95293	13.328	13.107	13.545
ProbeTrack15	1	ProbeTrack	15.0	SCS215a	20120202.125517	20120202.125618	8	0.013328	60	10	60-180	60	165	GapPrac	BigFlash	1	10	2	1	1	target	1	548	726	-94567	13.328	13.100	13.558
ProbeTrack15	1	ProbeTrack	15.0	SCS215a	20120202.125517	20120202.125625	8	0.013328	60	10	60-180	60	74	GapPrac	BigFlash	1	11	2	1	1	early	-4	-2891	-1000	-95567	13.328	13.102	13.570
ProbeTrack15	1	ProbeTrack	15.0	SCS215a	20120202.125517	20120202.125630	8	0.013328	60	10	60-180	60	149	GapPrac	BigFlash	1	12	2	3	1	early	-4	-3925	-1000	-96567	13.328	7.188	19.475
ProbeTrack15	1	ProbeTrack	15.0	SCS215a	20120202.125517	20120202.125637	8	0.013328	60	10	60-180	60	136	GapPrac	BigFlash	1	13	2	30	1	target	1	588	706	-95861	13.328	13.298	13.348
ProbeTrack15	1	ProbeTrack	15.0	SCS215a	20120202.125517	20120202.125644	8	0.013328	60	10	60-180	60	151	GapPrac	BigFlash	1	14	2	0	0	early	-4	-3808	-1000	-96861	13.328	7.767	18.881
ProbeTrack15	1	ProbeTrack	15.0	SCS215a	20120202.125517	20120202.125650	8	0.013328	60	10	60-180	60	117	GapPrac	BigFlash	1	15	2	30	0	early	-4	-3757	-1000	-97861	13.328	11.789	14.870
ProbeTrack15	1	ProbeTrack	15.0	SCS215a	20120202.125517	20120202.125657	8	0.013328	60	10	60-180	60	102	GapPrac	BigFlash	1	16	2	30	1	early	-4	-3661	-1000	-98861	13.328	7.618	19.026
ProbeTrack15	1	ProbeTrack	15.0	SCS215a	20120202.125517	20120202.125703	8	0.013328	60	10	60-180	60	62	GapPrac	BigFlash	1	17	2	3	0	early	-4	-2601	-1000	-99861	13.328	9.894	16.764
ProbeTrack15	1	ProbeTrack	15.0	SCS215a	20120202.125517	20120202.125708	8	0.013328	60	10	60-180	60	61	GapPrac	BigFlash	1	18	2	0	1	early	-4	-2705	-1000	-100861	13.328	7.290	19.360
ProbeTrack15	1	ProbeTrack	15.0	SCS215a	20120202.125517	20120202.125713	8	0.013328	60	10	60-180	60	156	GapPrac	BigFlash	1	19	2	1	0	distractor	1	557	722	-100139	13.328	9.928	16.715
ProbeTrack15	1	ProbeTrack	15.0	SCS215a	20120202.125517	20120202.125720	8	0.013328	60	10	60-180	60	87	GapPrac	BigFlash	1	20	2	3	1	early	-4	-3076	-1000	-101139	13.328	12.469	14.201
ProbeTrack15	1	ProbeTrack	15.0	SCS215a	20120202.125810	20120202.125820	8	0.013328	60	10	60-180	60	111	GapExp	BigFlash	1	1	2	3	1	early	-4	-3459	-1000	-102139	13.383	6.854	19.806
ProbeTrack15	1	ProbeTrack	15.0	SCS215a	20120202.125810	20120202.125827	8	0.013328	60	10	60-180	60	148	GapExp	BigFlash	1	2	2	1	0	distractor	1	529	736	-101403	13.328	4.675	21.979
ProbeTrack15	1	ProbeTrack	15.0	SCS215a	20120202.125810	20120202.125833	8	0.013328	60	10	60-180	60	118	GapExp	BigFlash	1	3	2	3	0	early	-4	-3375	-1000	-102403	13.328	8.943	17.720
ProbeTrack15	1	ProbeTrack	15.0	SCS215a	20120202.125810	20120202.125839	8	0.013328	60	10	60-180	60	155	GapExp	BigFlash	1	4	2	30	1	early	-4	-4216	-1000	-103403	13.328	13.101	13.548
ProbeTrack15	1	ProbeTrack	15.0	SCS215a	20120202.125810	20120202.125846	8	0.013328	60	10	60-180	60	100	GapExp	BigFlash	1	5	2	30	0	distractor	1	491	755	-102648	13.328	13.306	13.347
ProbeTrack15	1	ProbeTrack	15.0	SCS215a	20120202.125810	20120202.125852	8	0.013328	60	10	60-180	60	160	GapExp	BigFlash	1	6	2	1	1	early	-4	-3879	-1000	-103648	13.328	5.805	20.853
ProbeTrack15	1	ProbeTrack	15.0	SCS215a	20120202.125810	20120202.125859	8	0.013328	60	10	60-180	60	164	GapExp	BigFlash	1	7	2	0	1	early	-4	-4082	-1000	-104648	13.328	10.329	16.342
ProbeTrack15	1	ProbeTrack	15.0	SCS215a	20120202.125810	20120202.125905	8	0.013328	60	10	60-180	60	130	GapExp	BigFlash	1	8	2	0	0	distractor	1	513	744	-103904	13.328	12.911	13.739
ProbeTrack15	1	ProbeTrack	15.0	SCS215a	20120202.125810	20120202.125918	8	0.013328	60	10	60-180	60	90	GapExp	BigFlash	0	9	2	1	1	early	-4	-3083	-1000	-104904	13.328	8.989	17.678
ProbeTrack15	1	ProbeTrack	15.0	SCS215a	20120202.125810	20120202.125924	8	0.013328	60	10	60-180	60	167	GapExp	BigFlash	0	10	2	3	1	target	1	473	764	-104140	13.328	8.475	18.181
ProbeTrack15	1	ProbeTrack	15.0	SCS215a	20120202.125810	20120202.125932	8	0.013328	60	10	60-180	60	101	GapExp	BigFlash	0	11	2	1	0	distractor	1	725	638	-103502	13.328	13.098	13.564
ProbeTrack15	1	ProbeTrack	15.0	SCS215a	20120202.125810	20120202.125938	8	0.013328	60	10	60-180	60	161	GapExp	BigFlash	0	12	2	30	1	early	-4	-4261	-1000	-104502	13.328	13.303	13.346
ProbeTrack15	1	ProbeTrack	15.0	SCS215a	20120202.125810	20120202.125945	8	0.013328	60	10	60-180	60	160	GapExp	BigFlash	0	13	2	0	1	target	1	427	787	-103715	13.328	5.643	20.999
ProbeTrack15	1	ProbeTrack	15.0	SCS215a	20120202.125810	20120202.125951	8	0.013328	60	10	60-180	60	145	GapExp	BigFlash	0	14	2	1	0	distractor	1	527	737	-102978	13.328	12.336	14.313
ProbeTrack15	1	ProbeTrack	15.0	SCS215a	20120202.125810	20120202.125957	8	0.013328	60	10	60-180	60	148	GapExp	BigFlash	0	15	2	30	1	early	-4	-4278	-1000	-103978	13.328	12.170	14.494
ProbeTrack15	1	ProbeTrack	15.0	SCS215a	20120202.125810	20120202.130004	8	0.013328	60	10	60-180	60	158	GapExp	BigFlash	0	16	2	1	0	early	-4	-3147	-1000	-104978	13.308	7.540	15.350
ProbeTrack15	1	ProbeTrack	15.0	SCS215a	20120202.125810	20120202.130011	8	0.013328	60	10	60-180	60	172	GapExp	BigFlash	0	17	2	0	0	target	0	404	-1000	-105978	13.328	9.851	16.804
ProbeTrack15	1	ProbeTrack	15.0	SCS215a	20120202.125810	20120202.130017	8	0.013328	60	10	60-180	60	123	GapExp	BigFlash	0	18	2	0	1	early	-4	-3405	-1000	-106978	13.328	10.687	15.977
ProbeTrack15	1	ProbeTrack	15.0	SCS215a	20120202.125810	20120202.130023	8	0.013328	60	10	60-180	60	85	GapExp	BigFlash	0	19	2	30	1	target	1	362	819	-106159	13.328	10.333	16.323
ProbeTrack15	1	ProbeTrack	15.0	SCS215a	20120202.125810	20120202.130029	8	0.013328	60	10	60-180	60	125	GapExp	BigFlash	0	20	2	30	0	distractor	1	1062	469	-105690	13.328	13.106	13.551
ProbeTrack15	1	ProbeTrack	15.0	SCS215a	20120202.125810	20120202.130036	8	0.013328	60	10	60-180	60	118	GapExp	BigFlash	0	21	2	30	1	early	-4	-3842	-1000	-106690	13.328	12.005	14.644
ProbeTrack15	1	ProbeTrack	15.0	SCS215a	20120202.125810	20120202.130044	8	0.013328	60	10	60-180	60	173	GapExp	BigFlash	0	22	2	1	1	target	1	428	786	-105904	13.328	11.876	14.783
ProbeTrack15	1	ProbeTrack	15.0	SCS215a	20120202.125810	20120202.130051	8	0.013328	60	10	60-180	60	134	GapExp	BigFlash	0	23	2	1	0	distractor	1	530	735	-105169	13.328	9.710	16.949
ProbeTrack15	1	ProbeTrack	15.0	SCS215a	20120202.125810	20120202.130057	8	0.013328	60	10	60-180	60	172	GapExp	BigFlash	0	24	2	30	0	early	-4	-4581	-1000	-106169	13.328	11.419	15.238
ProbeTrack15	1	ProbeTrack	15.0	SCS215a	20120202.125810	20120202.130104	8	0.013328	60	10	60-180	60	73	GapExp	BigFlash	0	25	2	1	0	early	-4	-2609	-1000	-107169	13.328	8.998	17.650
ProbeTrack15	1	ProbeTrack	15.0	SCS215a	20120202.125810	20120202.130109	8	0.013328	60	10	60-180	60	164	GapExp	BigFlash	0	26	2	0	0	early	-4	-3964	-1000	-108169	13.328	13.304	13.346
ProbeTrack15	1	ProbeTrack	15.0	SCS215a	20120202.125810	20120202.130116	8	0.013328	60	10	60-180	60	143	GapExp	BigFlash	0	27	2	30	0	target	0	605	-1000	-109169	13.328	11.524	15.133
ProbeTrack15	1	ProbeTrack	15.0	SCS215a	20120202.125810	20120202.130123	8	0.013328	60	10	60-180	60	141	GapExp	BigFlash	0	28	2	30	1	early	-4	-4019	-1000	-110169	13.328	13.211	13.443
ProbeTrack15	1	ProbeTrack	15.0	SCS215a	20120202.125810	20120202.130129	8	0.013328	60	10	60-180	60	66	GapExp	BigFlash	0	29	2	0	1	target	1	547	727	-109442	13.328	10.708	15.954
ProbeTrack15	1	ProbeTrack	15.0	SCS215a	20120202.125810	20120202.130135	8	0.013328	60	10	60-180	60	113	GapExp	BigFlash	0	30	2	3	1	early	-4	-3286	-1000	-110442	13.328	13.305	13.348
ProbeTrack15	1	ProbeTrack	15.0	SCS215a	20120202.125810	20120202.130141	8	0.013328	60	10	60-180	60	84	GapExp	BigFlash	0	31	2	3	1	early	-4	-2897	-1000	-111442	13.328	13.092	13.558
ProbeTrack15	1	ProbeTrack	15.0	SCS215a	20120202.125810	20120202.130147	8	0.013328	60	10	60-180	60	82	GapExp	BigFlash	0	32	2	30	1	early	-4	-3201	-1000	-112442	13.386	11.399	26.711
ProbeTrack15	1	ProbeTrack	15.0	SCS215a	20120202.125810	20120202.130153	8	0.013328	60	10	60-180	60	110	GapExp	BigFlash	0	33	2	0	1	early	-4	-3333	-1000	-113442	13.328	6.048	20.609
ProbeTrack15	1	ProbeTrack	15.0	SCS215a	20120202.125810	20120202.130159	8	0.013328	60	10	60-180	60	88	GapExp	BigFlash	0	34	2	1	1	early	-4	-3076	-1000	-114442	13.328	7.811	18.847
ProbeTrack15	1	ProbeTrack	15.0	SCS215a	20120202.125810	20120202.130204	8	0.013328	60	10	60-180	60	86	GapExp	BigFlash	0	35	2	3	0	early	-4	-3057	-1000	-115442	13.328	11.776	14.877
ProbeTrack15	1	ProbeTrack	15.0	SCS215a	20120202.125810	20120202.130210	8	0.013328	60	10	60-180	60	154	GapExp	BigFlash	0	36	2	30	0	early	-4	-4178	-1000	-116442	13.416	11.395	32.573
ProbeTrack15	1	ProbeTrack	15.0	SCS215a	20120202.125810	20120202.130217	8	0.013328	60	10	60-180	60	138	GapExp	BigFlash	0	37	2	3	0	distractor	1	521	740	-115702	13.378	13.104	26.811
ProbeTrack15	1	ProbeTrack	15.0	SCS215a	20120202.125810	20120202.130223	8	0.013328	60	10	60-180	60	164	GapExp	BigFlash	0	38	2	1	0	early	-4	-3951	-1000	-116702	13.328	13.118	13.543
ProbeTrack15	1	ProbeTrack	15.0	SCS215a	20120202.125810	20120202.130229	8	0.013328	60	10	60-180	60	79	GapExp	BigFlash	0	39	2	3	1	early	-4	-2996	-1000	-117702	13.328	8.980	17.670
ProbeTrack15	1	ProbeTrack	15.0	SCS215a	20120202.125810	20120202.130235	8	0.013328	60	10	60-180	60	153	GapExp	BigFlash	0	40	2	1	1	early	-4	-3858	-1000	-118702	13.377	10.443	26.395
ProbeTrack15	1	ProbeTrack	15.0	SCS215a	20120202.125810	20120202.130241	8	0.013328	60	10	60-180	60	108	GapExp	BigFlash	0	41	2	0	1	target	1	456	772	-117930	13.328	8.184	18.471
ProbeTrack15	1	ProbeTrack	15.0	SCS215a	20120202.125810	20120202.130247	8	0.013328	60	10	60-180	60	126	GapExp	BigFlash	0	42	2	1	1	target	1	527	737	-117193	13.328	13.026	13.629
ProbeTrack15	1	ProbeTrack	15.0	SCS215a	20120202.125810	20120202.130253	8	0.013328	60	10	60-180	60	95	GapExp	BigFlash	0	43	2	30	0	distractor	1	467	767	-116426	13.328	13.306	13.350
ProbeTrack15	1	ProbeTrack	15.0	SCS215a	20120202.125810	20120202.130259	8	0.013328	60	10	60-180	60	119	GapExp	BigFlash	0	44	2	3	1	early	-4	-3526	-1000	-117426	13.328	13.098	13.552
ProbeTrack15	1	ProbeTrack	15.0	SCS215a	20120202.125810	20120202.130304	8	0.013328	60	10	60-180	60	113	GapExp	BigFlash	0	45	2	3	1	early	-4	-3365	-1000	-118426	13.328	13.099	13.557
ProbeTrack15	1	ProbeTrack	15.0	SCS215a	20120202.125810	20120202.130310	8	0.013328	60	10	60-180	60	98	GapExp	BigFlash	0	46	2	1	0	distractor	1	442	779	-117647	13.328	12.945	13.711
ProbeTrack15	1	ProbeTrack	15.0	SCS215a	20120202.125810	20120202.130315	8	0.013328	60	10	60-180	60	171	GapExp	BigFlash	0	47	2	30	0	distractor	1	619	691	-116956	13.328	13.294	13.355
ProbeTrack15	1	ProbeTrack	15.0	SCS215a	20120202.125810	20120202.130323	8	0.013328	60	10	60-180	60	139	GapExp	BigFlash	0	48	2	3	0	early	-4	-3795	-1000	-117956	13.328	10.516	16.124
ProbeTrack15	1	ProbeTrack	15.0	SCS215a	20120202.125810	20120202.130329	8	0.013328	60	10	60-180	60	66	GapExp	BigFlash	0	49	2	3	0	early	-4	-2833	-1000	-118956	13.397	13.166	24.767
ProbeTrack15	1	ProbeTrack	15.0	SCS215a	20120202.125810	20120202.130334	8	0.013328	60	10	60-180	60	111	GapExp	BigFlash	0	50	2	30	0	early	-4	-3710	-1000	-119956	13.380	13.106	26.765
ProbeTrack15	1	ProbeTrack	15.0	SCS215a	20120202.125810	20120202.130339	8	0.013328	60	10	60-180	60	110	GapExp	BigFlash	0	51	2	0	0	early	-4	-3371	-1000	-120956	13.385	13.100	22.766
ProbeTrack15	1	ProbeTrack	15.0	SCS215a	20120202.125810	20120202.130345	8	0.013328	60	10	60-180	60	155	GapExp	BigFlash	0	52	2	30	1	target	1	379	811	-120145	13.328	10.027	16.898
ProbeTrack15	1	ProbeTrack	15.0	SCS215a	20120202.125810	20120202.130352	8	0.013328	60	10	60-180	60	101	GapExp	BigFlash	0	53	2	1	1	target	1	412	794	-119351	13.450	13.222	36.949
ProbeTrack15	1	ProbeTrack	15.0	SCS215a	20120202.125810	20120202.130404	8	0.013328	60	10	60-180	60	77	GapExp	BigFlash	0	54	2	3	0	target	0	506	-1000	-120351	13.328	7.281	19.381
ProbeTrack15	1	ProbeTrack	15.0	SCS215a	20120202.125810	20120202.130409	8	0.013328	60	10	60-180	60	132	GapExp	BigFlash	0	55	2	3	1	early	-4	-3591	-1000	-121351	13.328	12.883	13.767
ProbeTrack15	1	ProbeTrack	15.0	SCS215a	20120202.125810	20120202.130415	8	0.013328	60	10	60-180	60	177	GapExp	BigFlash	0	56	2	3	1	target	1	453	774	-120577	13.372	12.164	26.604
ProbeTrack15	1	ProbeTrack	15.0	SCS215a	20120202.125810	20120202.130421	8	0.013328	60	10	60-180	60	70	GapExp	BigFlash	0	57	2	30	1	distractor	0	495	-1000	-121577	13.328	11.680	14.988
ProbeTrack15	1	ProbeTrack	15.0	SCS215a	20120202.125810	20120202.130427	8	0.013328	60	10	60-180	60	106	GapExp	BigFlash	0	58	2	1	0	early	-4	-3178	-1000	-122577	13.328	13.307	13.353
ProbeTrack15	1	ProbeTrack	15.0	SCS215a	20120202.125810	20120202.130432	8	0.013328	60	10	60-180	60	87	GapExp	BigFlash	0	59	2	0	0	early	-4	-3072	-1000	-123577	13.391	13.128	21.102
ProbeTrack15	1	ProbeTrack	15.0	SCS215a	20120202.125810	20120202.130438	8	0.013328	60	10	60-180	60	85	GapExp	BigFlash	0	60	2	3	0	early	-4	-2997	-1000	-124577	13.325	8.187	18.464
ProbeTrack15	1	ProbeTrack	15.0	SCS215a	20120202.125810	20120202.130443	8	0.013328	60	10	60-180	60	147	GapExp	BigFlash	0	61	2	3	0	early	-4	-3891	-1000	-125577	13.328	7.763	18.887
ProbeTrack15	1	ProbeTrack	15.0	SCS215a	20120202.125810	20120202.130450	8	0.013328	60	10	60-180	60	133	GapExp	BigFlash	0	62	2	3	0	target	0	491	-1000	-126577	13.379	10.857	26.720
ProbeTrack15	1	ProbeTrack	15.0	SCS215a	20120202.125810	20120202.130456	8	0.013328	60	10	60-180	60	138	GapExp	BigFlash	0	63	2	1	0	distractor	1	463	769	-125808	13.328	13.072	13.601
ProbeTrack15	1	ProbeTrack	15.0	SCS215a	20120202.125810	20120202.130502	8	0.013328	60	10	60-180	60	65	GapExp	BigFlash	0	64	2	30	1	early	-4	-3027	-1000	-126808	13.328	12.415	14.258
ProbeTrack15	1	ProbeTrack	15.0	SCS215a	20120202.125810	20120202.130507	8	0.013328	60	10	60-180	60	80	GapExp	BigFlash	0	65	2	1	1	early	-4	-2893	-1000	-127808	13.328	13.082	13.577
ProbeTrack15	1	ProbeTrack	15.0	SCS215a	20120202.125810	20120202.130513	8	0.013328	60	10	60-180	60	120	GapExp	BigFlash	0	66	2	1	1	target	1	433	784	-127024	13.328	11.479	15.198
ProbeTrack15	1	ProbeTrack	15.0	SCS215a	20120202.125810	20120202.130519	8	0.013328	60	10	60-180	60	125	GapExp	BigFlash	0	67	2	1	0	target	0	499	-1000	-128024	13.381	7.862	20.224
ProbeTrack15	1	ProbeTrack	15.0	SCS215a	20120202.125810	20120202.130525	8	0.013328	60	10	60-180	60	138	GapExp	BigFlash	0	68	2	3	0	distractor	1	519	741	-127283	13.429	8.678	37.436
ProbeTrack15	1	ProbeTrack	15.0	SCS215a	20120202.125810	20120202.130531	8	0.013328	60	10	60-180	60	150	GapExp	BigFlash	0	69	2	0	1	early	-4	-3882	-1000	-128283	13.328	8.146	18.512
ProbeTrack15	1	ProbeTrack	15.0	SCS215a	20120202.125810	20120202.130537	8	0.013328	60	10	60-180	60	96	GapExp	BigFlash	0	70	2	1	0	early	-4	-3040	-1000	-129283	13.388	10.444	20.503
ProbeTrack15	1	ProbeTrack	15.0	SCS215a	20120202.125810	20120202.130542	8	0.013328	60	10	60-180	60	154	GapExp	BigFlash	0	71	2	3	1	early	-4	-3867	-1000	-130283	13.328	8.145	18.511
ProbeTrack15	1	ProbeTrack	15.0	SCS215a	20120202.125810	20120202.130549	8	0.013328	60	10	60-180	60	127	GapExp	BigFlash	0	72	2	30	1	early	-4	-3863	-1000	-131283	13.328	13.310	13.346
ProbeTrack15	1	ProbeTrack	15.0	SCS215a	20120202.125810	20120202.130555	8	0.013328	60	10	60-180	60	118	GapExp	BigFlash	0	73	2	0	0	distractor	1	527	737	-130546	13.328	13.296	13.352
ProbeTrack15	1	ProbeTrack	15.0	SCS215a	20120202.125810	20120202.130601	8	0.013328	60	10	60-180	60	103	GapExp	BigFlash	0	74	2	3	0	early	-4	-3305	-1000	-131546	13.328	13.224	13.417
ProbeTrack15	1	ProbeTrack	15.0	SCS215a	20120202.125810	20120202.130607	8	0.013328	60	10	60-180	60	67	GapExp	BigFlash	0	75	2	1	0	early	-4	-2678	-1000	-132546	13.328	11.860	14.789
ProbeTrack15	1	ProbeTrack	15.0	SCS215a	20120202.125810	20120202.130613	8	0.013328	60	10	60-180	60	174	GapExp	BigFlash	0	76	2	3	1	early	-4	-4257	-1000	-133546	13.328	13.102	13.554
ProbeTrack15	1	ProbeTrack	15.0	SCS215a	20120202.125810	20120202.130619	8	0.013328	60	10	60-180	60	147	GapExp	BigFlash	0	77	2	0	0	early	-4	-3741	-1000	-134546	13.328	6.654	19.995
ProbeTrack15	1	ProbeTrack	15.0	SCS215a	20120202.125810	20120202.130626	8	0.013328	60	10	60-180	60	176	GapExp	BigFlash	0	78	2	30	0	early	-4	-4539	-1000	-135546	13.328	13.089	13.562
ProbeTrack15	1	ProbeTrack	15.0	SCS215a	20120202.125810	20120202.130633	8	0.013328	60	10	60-180	60	83	GapExp	BigFlash	0	79	2	30	0	target	0	493	-1000	-136546	13.328	13.100	13.550
ProbeTrack15	1	ProbeTrack	15.0	SCS215a	20120202.125810	20120202.130648	8	0.013328	60	10	60-180	60	71	GapExp	BigFlash	0	80	2	0	0	early	-4	-2844	-1000	-137546	13.328	13.098	13.559
ProbeTrack15	1	ProbeTrack	15.0	SCS215a	20120202.125810	20120202.130654	8	0.013328	60	10	60-180	60	161	GapExp	BigFlash	0	81	2	3	0	early	-4	-4080	-1000	-138546	13.328	13.104	13.552
ProbeTrack15	1	ProbeTrack	15.0	SCS215a	20120202.125810	20120202.130700	8	0.013328	60	10	60-180	60	165	GapExp	BigFlash	0	82	2	0	0	target	0	524	-1000	-139546	13.328	13.298	13.359
ProbeTrack15	1	ProbeTrack	15.0	SCS215a	20120202.125810	20120202.130706	8	0.013328	60	10	60-180	60	91	GapExp	BigFlash	0	83	2	0	1	target	1	655	673	-138873	13.328	13.298	13.344
ProbeTrack15	1	ProbeTrack	15.0	SCS215a	20120202.125810	20120202.130712	8	0.013328	60	10	60-180	60	85	GapExp	BigFlash	0	84	2	3	1	early	-4	-3061	-1000	-139873	13.328	13.307	13.348
ProbeTrack15	1	ProbeTrack	15.0	SCS215a	20120202.125810	20120202.130717	8	0.013328	60	10	60-180	60	87	GapExp	BigFlash	0	85	2	3	1	early	-4	-2868	-1000	-140873	13.328	13.093	13.550
ProbeTrack15	1	ProbeTrack	15.0	SCS215a	20120202.125810	20120202.130723	8	0.013328	60	10	60-180	60	84	GapExp	BigFlash	0	86	2	3	0	early	-4	-3052	-1000	-141873	13.328	13.092	13.557
ProbeTrack15	1	ProbeTrack	15.0	SCS215a	20120202.125810	20120202.130728	8	0.013328	60	10	60-180	60	135	GapExp	BigFlash	0	87	2	1	1	early	-4	-3695	-1000	-142873	13.328	13.307	13.354
ProbeTrack15	1	ProbeTrack	15.0	SCS215a	20120202.125810	20120202.130734	8	0.013328	60	10	60-180	60	80	GapExp	BigFlash	0	88	2	0	0	early	-4	-2774	-1000	-143873	13.328	13.309	13.344
ProbeTrack15	1	ProbeTrack	15.0	SCS215a	20120202.125810	20120202.130740	8	0.013328	60	10	60-180	60	178	GapExp	BigFlash	0	89	2	30	1	early	-4	-4681	-1000	-144873	13.369	10.700	26.355
ProbeTrack15	1	ProbeTrack	15.0	SCS215a	20120202.125810	20120202.130747	8	0.013328	60	10	60-180	60	130	GapExp	BigFlash	0	90	2	0	0	early	-4	-3618	-1000	-145873	13.328	13.310	13.345
ProbeTrack15	1	ProbeTrack	15.0	SCS215a	20120202.125810	20120202.130753	8	0.013328	60	10	60-180	60	75	GapExp	BigFlash	0	91	2	1	1	early	-4	-2755	-1000	-146873	13.328	13.120	13.544
ProbeTrack15	1	ProbeTrack	15.0	SCS215a	20120202.125810	20120202.130758	8	0.013328	60	10	60-180	60	112	GapExp	BigFlash	0	92	2	1	0	distractor	1	530	735	-146138	13.383	13.098	26.220
ProbeTrack15	1	ProbeTrack	15.0	SCS215a	20120202.125810	20120202.130805	8	0.013328	60	10	60-180	60	76	GapExp	BigFlash	0	93	2	1	1	early	-4	-2916	-1000	-147138	13.328	9.517	17.247
ProbeTrack15	1	ProbeTrack	15.0	SCS215a	20120202.125810	20120202.130810	8	0.013328	60	10	60-180	60	106	GapExp	BigFlash	0	94	2	30	0	target	0	519	-1000	-148138	13.328	13.309	13.353
ProbeTrack15	1	ProbeTrack	15.0	SCS215a	20120202.125810	20120202.130816	8	0.013328	60	10	60-180	60	132	GapExp	BigFlash	0	95	2	3	0	early	-4	-3456	-1000	-149138	13.378	5.026	26.114
ProbeTrack15	1	ProbeTrack	15.0	SCS215a	20120202.125810	20120202.130822	8	0.013328	60	10	60-180	60	177	GapExp	BigFlash	0	96	2	30	0	early	-4	-4655	-1000	-150138	13.328	13.306	13.345
ProbeTrack15	1	ProbeTrack	15.0	SCS215a	20120202.125810	20120202.130829	8	0.013328	60	10	60-180	60	83	GapExp	BigFlash	0	97	2	3	1	early	-4	-2891	-1000	-151138	13.328	13.307	13.353
ProbeTrack15	1	ProbeTrack	15.0	SCS215a	20120202.125810	20120202.130835	8	0.013328	60	10	60-180	60	97	GapExp	BigFlash	0	98	2	1	0	distractor	1	473	764	-150374	13.328	12.586	14.077
ProbeTrack15	1	ProbeTrack	15.0	SCS215a	20120202.125810	20120202.130842	8	0.013328	60	10	60-180	60	132	GapExp	BigFlash	0	99	2	1	1	early	-4	-3673	-1000	-151374	13.328	8.291	18.358
ProbeTrack15	1	ProbeTrack	15.0	SCS215a	20120202.125810	20120202.130848	8	0.013328	60	10	60-180	60	143	GapExp	BigFlash	0	100	2	3	0	target	0	463	-1000	-152374	13.328	12.528	14.134
ProbeTrack15	1	ProbeTrack	15.0	SCS215a	20120202.125810	20120202.130854	8	0.013328	60	10	60-180	60	65	GapExp	BigFlash	0	101	2	30	1	early	-4	-3050	-1000	-153374	13.328	9.059	17.596
ProbeTrack15	1	ProbeTrack	15.0	SCS215a	20120202.125810	20120202.130900	8	0.013328	60	10	60-180	60	170	GapExp	BigFlash	0	102	2	3	0	distractor	1	447	777	-152597	13.328	13.098	13.558
ProbeTrack15	1	ProbeTrack	15.0	SCS215a	20120202.125810	20120202.130906	8	0.013328	60	10	60-180	60	157	GapExp	BigFlash	0	103	2	3	1	early	-4	-4015	-1000	-153597	13.328	13.307	13.344
ProbeTrack15	1	ProbeTrack	15.0	SCS215a	20120202.125810	20120202.130922	8	0.013328	60	10	60-180	60	130	GapExp	BigFlash	0	104	2	30	0	early	-4	-4030	-1000	-154597	13.328	11.643	15.013
ProbeTrack15	1	ProbeTrack	15.0	SCS215a	20120202.125810	20120202.130929	8	0.013328	60	10	60-180	60	137	GapExp	BigFlash	0	105	2	1	1	early	-4	-3732	-1000	-155597	13.328	11.609	15.051
ProbeTrack15	1	ProbeTrack	15.0	SCS215a	20120202.125810	20120202.130935	8	0.013328	60	10	60-180	60	165	GapExp	BigFlash	0	106	2	0	0	distractor	1	590	705	-154892	13.328	13.099	13.565
ProbeTrack15	1	ProbeTrack	15.0	SCS215a	20120202.125810	20120202.130942	8	0.013328	60	10	60-180	60	84	GapExp	BigFlash	0	107	2	0	0	early	-4	-3019	-1000	-155892	13.328	12.687	13.957
ProbeTrack15	1	ProbeTrack	15.0	SCS215a	20120202.125810	20120202.130947	8	0.013328	60	10	60-180	60	68	GapExp	BigFlash	0	108	2	0	0	distractor	1	560	720	-155172	13.328	13.273	13.374
ProbeTrack15	1	ProbeTrack	15.0	SCS215a	20120202.125810	20120202.130953	8	0.013328	60	10	60-180	60	170	GapExp	BigFlash	0	109	2	3	1	early	-4	-4057	-1000	-156172	13.328	12.680	13.960
ProbeTrack15	1	ProbeTrack	15.0	SCS215a	20120202.125810	20120202.130959	8	0.013328	60	10	60-180	60	143	GapExp	BigFlash	0	110	2	0	1	early	-4	-2912	-1000	-157172	13.328	13.305	13.347
ProbeTrack15	1	ProbeTrack	15.0	SCS215a	20120202.125810	20120202.131005	8	0.013328	60	10	60-180	60	134	GapExp	BigFlash	0	111	2	0	0	early	-4	-3417	-1000	-158172	13.328	13.112	13.550
ProbeTrack15	1	ProbeTrack	15.0	SCS215a	20120202.125810	20120202.131011	8	0.013328	60	10	60-180	60	121	GapExp	BigFlash	0	112	2	0	1	distractor	0	315	-1000	-159172	13.328	13.107	13.558
ProbeTrack15	1	ProbeTrack	15.0	SCS215a	20120202.125810	20120202.131018	8	0.013328	60	10	60-180	60	96	GapExp	BigFlash	0	113	2	1	0	early	-4	-3051	-1000	-160172	13.328	13.100	13.558
ProbeTrack15	1	ProbeTrack	15.0	SCS215a	20120202.125810	20120202.131023	8	0.013328	60	10	60-180	60	131	GapExp	BigFlash	0	114	2	1	1	early	-4	-3496	-1000	-161172	13.328	13.306	13.348
ProbeTrack15	1	ProbeTrack	15.0	SCS215a	20120202.125810	20120202.131029	8	0.013328	60	10	60-180	60	85	GapExp	BigFlash	0	115	2	3	0	distractor	1	453	774	-160398	13.328	11.623	15.034
ProbeTrack15	1	ProbeTrack	15.0	SCS215a	20120202.125810	20120202.131034	8	0.013328	60	10	60-180	60	166	GapExp	BigFlash	0	116	2	30	0	early	-4	-4458	-1000	-161398	13.328	8.814	17.854
ProbeTrack15	1	ProbeTrack	15.0	SCS215a	20120202.125810	20120202.131041	8	0.013328	60	10	60-180	60	137	GapExp	BigFlash	0	117	2	30	1	early	-4	-3913	-1000	-162398	13.328	8.086	18.570
ProbeTrack15	1	ProbeTrack	15.0	SCS215a	20120202.125810	20120202.131048	8	0.013328	60	10	60-180	60	176	GapExp	BigFlash	0	118	2	1	0	distractor	1	462	769	-161629	13.328	13.292	13.371
ProbeTrack15	1	ProbeTrack	15.0	SCS215a	20120202.125810	20120202.131055	8	0.013328	60	10	60-180	60	89	GapExp	BigFlash	0	119	2	3	1	distractor	0	718	-1000	-162629	13.328	13.306	13.346
ProbeTrack15	1	ProbeTrack	15.0	SCS215a	20120202.125810	20120202.131101	8	0.013328	60	10	60-180	60	174	GapExp	BigFlash	0	120	2	0	1	early	-4	-4086	-1000	-163629	13.328	12.707	13.949
ProbeTrack15	1	ProbeTrack	15.0	SCS215a	20120202.125810	20120202.131107	8	0.013328	60	10	60-180	60	166	GapExp	BigFlash	0	121	2	30	1	target	1	463	769	-162860	13.328	13.106	13.557
ProbeTrack15	1	ProbeTrack	15.0	SCS215a	20120202.125810	20120202.131114	8	0.013328	60	10	60-180	60	82	GapExp	BigFlash	0	122	2	30	0	early	-4	-3257	-1000	-163860	13.328	13.086	13.564
ProbeTrack15	1	ProbeTrack	15.0	SCS215a	20120202.125810	20120202.131120	8	0.013328	60	10	60-180	60	117	GapExp	BigFlash	0	123	2	1	1	early	-4	-3273	-1000	-164860	13.328	8.726	17.944
ProbeTrack15	1	ProbeTrack	15.0	SCS215a	20120202.125810	20120202.131127	8	0.013328	60	10	60-180	60	91	GapExp	BigFlash	0	124	2	30	1	target	1	449	776	-164084	13.328	11.500	15.165
ProbeTrack15	1	ProbeTrack	15.0	SCS215a	20120202.125810	20120202.131132	8	0.013328	60	10	60-180	60	126	GapExp	BigFlash	0	125	2	1	0	target	0	603	-1000	-165084	13.328	13.308	13.345
ProbeTrack15	1	ProbeTrack	15.0	SCS215a	20120202.125810	20120202.131138	8	0.013328	60	10	60-180	60	70	GapExp	BigFlash	0	126	2	0	0	distractor	1	629	686	-164398	13.328	13.310	13.343
ProbeTrack15	1	ProbeTrack	15.0	SCS215a	20120202.125810	20120202.131152	8	0.013328	60	10	60-180	60	100	GapExp	BigFlash	0	127	2	1	0	early	-4	-3149	-1000	-165398	13.328	13.307	13.361
ProbeTrack15	1	ProbeTrack	15.0	SCS215a	20120202.125810	20120202.131158	8	0.013328	60	10	60-180	60	143	GapExp	BigFlash	0	128	2	0	0	early	-4	-3657	-1000	-166398	13.328	13.098	13.533
ProbeTrack15	1	ProbeTrack	15.0	SCS215a	20120202.125810	20120202.131204	8	0.013328	60	10	60-180	60	147	GapExp	BigFlash	0	129	2	30	1	target	1	524	738	-165660	13.328	12.043	14.624
ProbeTrack15	1	ProbeTrack	15.0	SCS215a	20120202.125810	20120202.131211	8	0.013328	60	10	60-180	60	145	GapExp	BigFlash	0	130	2	0	0	distractor	1	466	767	-164893	13.328	9.932	16.725
ProbeTrack15	1	ProbeTrack	15.0	SCS215a	20120202.125810	20120202.131217	8	0.013328	60	10	60-180	60	74	GapExp	BigFlash	0	131	2	0	1	early	-4	-2896	-1000	-165893	13.328	13.098	13.558
ProbeTrack15	1	ProbeTrack	15.0	SCS215a	20120202.125810	20120202.131222	8	0.013328	60	10	60-180	60	94	GapExp	BigFlash	0	132	2	3	0	distractor	1	414	793	-165100	13.328	10.833	15.832
ProbeTrack15	1	ProbeTrack	15.0	SCS215a	20120202.125810	20120202.131227	8	0.013328	60	10	60-180	60	170	GapExp	BigFlash	0	133	2	30	0	early	-4	-4492	-1000	-166100	13.328	6.085	20.563
ProbeTrack15	1	ProbeTrack	15.0	SCS215a	20120202.125810	20120202.131234	8	0.013328	60	10	60-180	60	98	GapExp	BigFlash	0	134	2	3	0	early	-4	-3113	-1000	-167100	13.328	9.176	17.478
ProbeTrack15	1	ProbeTrack	15.0	SCS215a	20120202.125810	20120202.131240	8	0.013328	60	10	60-180	60	93	GapExp	BigFlash	0	135	2	3	0	early	-4	-3130	-1000	-168100	13.328	13.307	13.344
ProbeTrack15	1	ProbeTrack	15.0	SCS215a	20120202.125810	20120202.131245	8	0.013328	60	10	60-180	60	85	GapExp	BigFlash	0	136	2	1	0	early	-4	-3034	-1000	-169100	13.328	8.252	18.413
ProbeTrack15	1	ProbeTrack	15.0	SCS215a	20120202.125810	20120202.131250	8	0.013328	60	10	60-180	60	132	GapExp	BigFlash	0	137	2	0	1	early	-4	-3651	-1000	-170100	13.328	13.307	13.346
ProbeTrack15	1	ProbeTrack	15.0	SCS215a	20120202.125810	20120202.131256	8	0.013328	60	10	60-180	60	161	GapExp	BigFlash	0	138	2	30	0	distractor	1	512	744	-169356	13.370	11.719	24.020
ProbeTrack15	1	ProbeTrack	15.0	SCS215a	20120202.125810	20120202.131303	8	0.013328	60	10	60-180	60	149	GapExp	BigFlash	0	139	2	3	1	early	-4	-3786	-1000	-170356	13.328	13.310	13.345
ProbeTrack15	1	ProbeTrack	15.0	SCS215a	20120202.125810	20120202.131310	8	0.013328	60	10	60-180	60	103	GapExp	BigFlash	0	140	2	1	0	early	-4	-3302	-1000	-171356	13.328	13.308	13.347
ProbeTrack15	1	ProbeTrack	15.0	SCS215a	20120202.125810	20120202.131315	8	0.013328	60	10	60-180	60	153	GapExp	BigFlash	0	141	2	0	1	target	1	647	677	-170679	13.328	13.276	13.367
ProbeTrack15	1	ProbeTrack	15.0	SCS215a	20120202.125810	20120202.131322	8	0.013328	60	10	60-180	60	168	GapExp	BigFlash	0	142	2	1	1	target	1	385	808	-169871	13.328	12.834	13.814
ProbeTrack15	1	ProbeTrack	15.0	SCS215a	20120202.125810	20120202.131329	8	0.013328	60	10	60-180	60	64	GapExp	BigFlash	0	143	2	0	1	target	1	439	781	-169090	13.328	13.112	13.551
ProbeTrack15	1	ProbeTrack	15.0	SCS215a	20120202.125810	20120202.131334	8	0.013328	60	10	60-180	60	94	GapExp	BigFlash	0	144	2	1	1	early	-4	-3063	-1000	-170090	13.328	11.893	14.756
ProbeTrack15	1	ProbeTrack	15.0	SCS215a	20120202.125810	20120202.131339	8	0.013328	60	10	60-180	60	129	GapExp	BigFlash	0	145	2	30	1	target	1	468	766	-169324	13.328	13.309	13.347
ProbeTrack15	1	ProbeTrack	15.0	SCS215a	20120202.125810	20120202.131345	8	0.013328	60	10	60-180	60	130	GapExp	BigFlash	0	146	2	3	1	early	-4	-3615	-1000	-170324	13.328	13.309	13.347
ProbeTrack15	1	ProbeTrack	15.0	SCS215a	20120202.125810	20120202.131352	8	0.013328	60	10	60-180	60	144	GapExp	BigFlash	0	147	2	1	1	target	1	422	789	-169535	13.328	13.305	13.347
ProbeTrack15	1	ProbeTrack	15.0	SCS215a	20120202.125810	20120202.131358	8	0.013328	60	10	60-180	60	82	GapExp	BigFlash	0	148	2	0	0	target	0	533	-1000	-170535	13.328	7.190	19.452
ProbeTrack15	1	ProbeTrack	15.0	SCS215a	20120202.125810	20120202.131404	8	0.013328	60	10	60-180	60	104	GapExp	BigFlash	0	149	2	1	0	early	-4	-3081	-1000	-171535	13.328	10.797	15.859
ProbeTrack15	1	ProbeTrack	15.0	SCS215a	20120202.125810	20120202.131409	8	0.013328	60	10	60-180	60	132	GapExp	BigFlash	0	150	2	3	0	early	-4	-3490	-1000	-172535	13.328	10.452	16.216
ProbeTrack15	1	ProbeTrack	15.0	SCS215a	20120202.125810	20120202.131415	8	0.013328	60	10	60-180	60	152	GapExp	BigFlash	0	151	2	1	0	early	-4	-3929	-1000	-173535	13.328	13.304	13.351
ProbeTrack15	1	ProbeTrack	15.0	SCS215a	20120202.125810	20120202.131421	8	0.013328	60	10	60-180	60	153	GapExp	BigFlash	0	152	2	0	0	early	-4	-3767	-1000	-174535	13.328	8.180	18.480
ProbeTrack15	1	ProbeTrack	15.0	SCS215a	20120202.125810	20120202.131427	8	0.013328	60	10	60-180	60	75	GapExp	BigFlash	0	153	2	1	1	early	-4	-2893	-1000	-175535	13.328	13.170	13.481
ProbeTrack15	1	ProbeTrack	15.0	SCS215a	20120202.125810	20120202.131432	8	0.013328	60	10	60-180	60	110	GapExp	BigFlash	0	154	2	1	1	early	-4	-3253	-1000	-176535	13.328	13.308	13.349
ProbeTrack15	1	ProbeTrack	15.0	SCS215a	20120202.125810	20120202.131439	8	0.013328	60	10	60-180	60	70	GapExp	BigFlash	0	155	2	3	1	early	-4	-2735	-1000	-177535	13.326	13.101	13.348
ProbeTrack15	1	ProbeTrack	15.0	SCS215a	20120202.125810	20120202.131444	8	0.013328	60	10	60-180	60	150	GapExp	BigFlash	0	156	2	3	1	early	-4	-3946	-1000	-178535	13.328	13.085	13.565
ProbeTrack15	1	ProbeTrack	15.0	SCS215a	20120202.125810	20120202.131450	8	0.013328	60	10	60-180	60	65	GapExp	BigFlash	0	157	2	0	1	early	-4	-2628	-1000	-179535	13.328	13.293	13.357
ProbeTrack15	1	ProbeTrack	15.0	SCS215a	20120202.125810	20120202.131455	8	0.013328	60	10	60-180	60	61	GapExp	BigFlash	0	158	2	3	0	early	-4	-2749	-1000	-180535	13.328	13.304	13.345
ProbeTrack15	1	ProbeTrack	15.0	SCS215a	20120202.125810	20120202.131500	8	0.013328	60	10	60-180	60	125	GapExp	BigFlash	0	159	2	3	1	target	1	410	795	-179740	13.328	11.638	15.031
ProbeTrack15	1	ProbeTrack	15.0	SCS215a	20120202.125810	20120202.131506	8	0.013328	60	10	60-180	60	81	GapExp	BigFlash	0	160	2	0	1	early	-4	-2825	-1000	-180740	13.328	13.111	13.539
ProbeTrack15	1	ProbeTrack	15.0	SCS215a	20120202.125810	20120202.131512	8	0.013328	60	10	60-180	60	97	GapExp	BigFlash	0	161	2	0	0	early	-4	-3045	-1000	-181740	13.328	12.817	13.856
ProbeTrack15	1	ProbeTrack	15.0	SCS215a	20120202.125810	20120202.131517	8	0.013328	60	10	60-180	60	98	GapExp	BigFlash	0	162	2	30	0	early	-4	-3524	-1000	-182740	13.328	10.247	16.416
ProbeTrack15	1	ProbeTrack	15.0	SCS215a	20120202.125810	20120202.131523	8	0.013328	60	10	60-180	60	144	GapExp	BigFlash	0	163	2	30	1	early	-4	-4159	-1000	-183740	13.328	12.145	14.499
ProbeTrack15	1	ProbeTrack	15.0	SCS215a	20120202.125810	20120202.131530	8	0.013328	60	10	60-180	60	175	GapExp	BigFlash	0	164	2	30	0	early	-4	-4474	-1000	-184740	13.328	7.121	19.528
ProbeTrack15	1	ProbeTrack	15.0	SCS215a	20120202.125810	20120202.131537	8	0.013328	60	10	60-180	60	153	GapExp	BigFlash	0	165	2	0	1	target	1	443	779	-183961	13.328	13.307	13.346
ProbeTrack15	1	ProbeTrack	15.0	SCS215a	20120202.125810	20120202.131549	8	0.013328	60	10	60-180	60	176	GapExp	BigFlash	0	166	2	30	0	early	-4	-4582	-1000	-184961	13.328	9.817	16.848
ProbeTrack15	1	ProbeTrack	15.0	SCS215a	20120202.125810	20120202.131556	8	0.013328	60	10	60-180	60	100	GapExp	BigFlash	0	167	2	30	0	early	-4	-3469	-1000	-185961	13.328	13.099	13.572
ProbeTrack15	1	ProbeTrack	15.0	SCS215a	20120202.125810	20120202.131602	8	0.013328	60	10	60-180	60	155	GapExp	BigFlash	0	168	2	0	0	early	-4	-3961	-1000	-186961	13.328	12.888	13.761
ProbeTrack15	1	ProbeTrack	15.0	SCS215a	20120202.125810	20120202.131608	8	0.013328	60	10	60-180	60	127	GapExp	BigFlash	0	169	2	3	1	target	1	476	762	-186199	13.328	13.085	13.561
ProbeTrack15	1	ProbeTrack	15.0	SCS215a	20120202.125810	20120202.131614	8	0.013328	60	10	60-180	60	164	GapExp	BigFlash	0	170	2	30	1	early	-4	-4278	-1000	-187199	13.328	13.085	13.557
ProbeTrack15	1	ProbeTrack	15.0	SCS215a	20120202.125810	20120202.131622	8	0.013328	60	10	60-180	60	104	GapExp	BigFlash	0	171	2	30	1	early	-4	-3680	-1000	-188199	13.328	8.642	18.007
ProbeTrack15	1	ProbeTrack	15.0	SCS215a	20120202.125810	20120202.131628	8	0.013328	60	10	60-180	60	137	GapExp	BigFlash	0	172	2	1	1	target	1	492	754	-187445	13.328	13.297	13.361
ProbeTrack15	1	ProbeTrack	15.0	SCS215a	20120202.125810	20120202.131635	8	0.013328	60	10	60-180	60	125	GapExp	BigFlash	0	173	2	30	0	early	-4	-3707	-1000	-188445	13.326	12.554	14.117
ProbeTrack15	1	ProbeTrack	15.0	SCS215a	20120202.125810	20120202.131641	8	0.013328	60	10	60-180	60	166	GapExp	BigFlash	0	174	2	0	1	early	-4	-4004	-1000	-189445	13.328	12.941	13.702
ProbeTrack15	1	ProbeTrack	15.0	SCS215a	20120202.125810	20120202.131647	8	0.013328	60	10	60-180	60	78	GapExp	BigFlash	0	175	2	30	1	early	-4	-3142	-1000	-190445	13.328	13.309	13.347
ProbeTrack15	1	ProbeTrack	15.0	SCS215a	20120202.125810	20120202.131653	8	0.013328	60	10	60-180	60	134	GapExp	BigFlash	0	176	2	0	1	early	-4	-3244	-1000	-191445	13.328	12.149	14.507
ProbeTrack15	1	ProbeTrack	15.0	SCS215a	20120202.125810	20120202.131659	8	0.013328	60	10	60-180	60	150	GapExp	BigFlash	0	177	2	0	1	early	-4	-3671	-1000	-192445	13.328	13.307	13.347
ProbeTrack15	1	ProbeTrack	15.0	SCS215a	20120202.125810	20120202.131705	8	0.013328	60	10	60-180	60	67	GapExp	BigFlash	0	178	2	1	0	distractor	1	374	813	-191632	13.328	13.306	13.348
ProbeTrack15	1	ProbeTrack	15.0	SCS215a	20120202.125810	20120202.131710	8	0.013328	60	10	60-180	60	127	GapExp	BigFlash	0	179	2	0	1	early	-4	-3420	-1000	-192632	13.328	10.440	16.223
ProbeTrack15	1	ProbeTrack	15.0	SCS215a	20120202.125810	20120202.131716	8	0.013328	60	10	60-180	60	78	GapExp	BigFlash	0	180	2	0	0	distractor	1	483	759	-191873	13.328	13.308	13.348
ProbeTrack15	1	ProbeTrack	15.0	SCS215a	20120202.125810	20120202.131722	8	0.013328	60	10	60-180	60	131	GapExp	BigFlash	0	181	2	0	1	early	-4	-3631	-1000	-192873	13.328	9.778	16.892
ProbeTrack15	1	ProbeTrack	15.0	SCS215a	20120202.125810	20120202.131728	8	0.013328	60	10	60-180	60	131	GapExp	BigFlash	0	182	2	3	0	distractor	1	491	755	-192118	13.379	13.131	26.455
ProbeTrack15	1	ProbeTrack	15.0	SCS215a	20120202.125810	20120202.131734	8	0.013328	60	10	60-180	60	178	GapExp	BigFlash	0	183	2	1	1	target	1	442	779	-191339	13.328	13.309	13.348
ProbeTrack15	1	ProbeTrack	15.0	SCS215a	20120202.125810	20120202.131741	8	0.013328	60	10	60-180	60	165	GapExp	BigFlash	0	184	2	0	0	distractor	1	631	685	-190654	13.328	13.310	13.347
ProbeTrack15	1	ProbeTrack	15.0	SCS215a	20120202.125810	20120202.131748	8	0.013328	60	10	60-180	60	80	GapExp	BigFlash	0	185	2	3	1	early	-4	-2842	-1000	-191654	13.328	12.222	14.432
ProbeTrack15	1	ProbeTrack	15.0	SCS215a	20120202.125810	20120202.131753	8	0.013328	60	10	60-180	60	96	GapExp	BigFlash	0	186	2	1	1	distractor	0	394	-1000	-192654	13.328	13.099	13.562
ProbeTrack15	1	ProbeTrack	15.0	SCS215a	20120202.125810	20120202.131759	8	0.013328	60	10	60-180	60	100	GapExp	BigFlash	0	187	2	3	0	early	-4	-3206	-1000	-193654	13.328	13.302	13.354
ProbeTrack15	1	ProbeTrack	15.0	SCS215a	20120202.125810	20120202.131804	8	0.013328	60	10	60-180	60	154	GapExp	BigFlash	0	188	2	0	1	early	-4	-3948	-1000	-194654	13.328	12.152	14.517
ProbeTrack15	1	ProbeTrack	15.0	SCS215a	20120202.125810	20120202.131811	8	0.013328	60	10	60-180	60	64	GapExp	BigFlash	0	189	2	0	1	early	-4	-2547	-1000	-195654	13.328	13.310	13.345
ProbeTrack15	1	ProbeTrack	15.0	SCS215a	20120202.125810	20120202.131816	8	0.013328	60	10	60-180	60	129	GapExp	BigFlash	0	190	2	3	0	early	-4	-3236	-1000	-196654	13.328	13.309	13.345
ProbeTrack15	1	ProbeTrack	15.0	SCS215a	20120202.125810	20120202.131821	8	0.013328	60	10	60-180	60	169	GapExp	BigFlash	0	191	2	1	0	early	-4	-4156	-1000	-197654	13.328	13.098	13.564
ProbeTrack15	1	ProbeTrack	15.0	SCS215a	20120202.125810	20120202.131828	8	0.013328	60	10	60-180	60	170	GapExp	BigFlash	0	192	2	30	1	early	-4	-4451	-1000	-198654	13.328	13.114	13.550
ProbeTrack15	1	ProbeTrack	15.0	SCS215a	20120202.125810	20120202.131835	8	0.013328	60	10	60-180	60	139	GapExp	BigFlash	0	193	2	30	0	early	-4	-4029	-1000	-199654	13.328	10.530	16.132
ProbeTrack15	1	ProbeTrack	15.0	SCS215a	20120202.125810	20120202.131842	8	0.013328	60	10	60-180	60	73	GapExp	BigFlash	0	194	2	30	1	early	-4	-3185	-1000	-200654	13.328	9.778	16.879
ProbeTrack15	1	ProbeTrack	15.0	SCS215a	20120202.125810	20120202.131847	8	0.013328	60	10	60-180	60	115	GapExp	BigFlash	0	195	2	30	0	early	-4	-3815	-1000	-201654	13.328	13.299	13.356
ProbeTrack15	1	ProbeTrack	15.0	SCS215a	20120202.125810	20120202.131853	8	0.013328	60	10	60-180	60	73	GapExp	BigFlash	0	196	2	30	0	early	-4	-2985	-1000	-202654	13.328	13.302	13.348
ProbeTrack15	1	ProbeTrack	15.0	SCS215a	20120202.125810	20120202.131859	8	0.013328	60	10	60-180	60	144	GapExp	BigFlash	0	197	2	30	1	early	-4	-4131	-1000	-203654	13.328	11.926	14.743
ProbeTrack15	1	ProbeTrack	15.0	SCS215a	20120202.125810	20120202.131906	8	0.013328	60	10	60-180	60	133	GapExp	BigFlash	0	198	2	3	1	target	1	416	792	-202862	13.328	13.307	13.346
ProbeTrack15	1	ProbeTrack	15.0	SCS215a	20120202.125810	20120202.131912	8	0.013328	60	10	60-180	60	104	GapExp	BigFlash	0	199	2	0	0	early	-4	-3140	-1000	-203862	13.328	12.682	13.971
ProbeTrack15	1	ProbeTrack	15.0	SCS215a	20120202.125810	20120202.131918	8	0.013328	60	10	60-180	60	123	GapExp	BigFlash	0	200	2	1	1	target	1	425	788	-203074	13.328	13.295	13.362
ProbeTrack15	1	ProbeTrack	15.0	SCS215a	20120202.132029	20120202.132042	8	0.013311	60	10	60-180	60	115	GapPrac	SmallFlash	1	1	2	1	1	early	-4	-3492	-1000	-204074	13.498	7.366	19.427
ProbeTrack15	1	ProbeTrack	15.0	SCS215a	20120202.132029	20120202.132051	8	0.013311	60	10	60-180	60	69	GapPrac	SmallFlash	1	2	2	0	0	early	-4	-2812	-1000	-205074	13.328	13.093	13.557
ProbeTrack15	1	ProbeTrack	15.0	SCS215a	20120202.132029	20120202.132056	8	0.013311	60	10	60-180	60	168	GapPrac	SmallFlash	1	3	2	0	1	early	-4	-4003	-1000	-206074	13.328	4.868	21.794
ProbeTrack15	1	ProbeTrack	15.0	SCS215a	20120202.132029	20120202.132103	8	0.013311	60	10	60-180	60	171	GapPrac	SmallFlash	1	4	2	1	0	early	-4	-4026	-1000	-207074	13.328	13.107	13.550
ProbeTrack15	1	ProbeTrack	15.0	SCS215a	20120202.132029	20120202.132109	8	0.013311	60	10	60-180	60	144	GapPrac	SmallFlash	1	5	2	3	0	early	-4	-3692	-1000	-208074	13.328	6.134	20.528
ProbeTrack15	1	ProbeTrack	15.0	SCS215a	20120202.132029	20120202.132115	8	0.013311	60	10	60-180	60	83	GapPrac	SmallFlash	1	6	2	30	1	early	-4	-3362	-1000	-209074	13.386	13.129	26.779
ProbeTrack15	1	ProbeTrack	15.0	SCS215a	20120202.132029	20120202.132121	8	0.013311	60	10	60-180	60	111	GapPrac	SmallFlash	1	7	2	0	1	early	-4	-3203	-1000	-210074	13.432	8.306	25.626
ProbeTrack15	1	ProbeTrack	15.0	SCS215a	20120202.132029	20120202.132127	8	0.013311	60	10	60-180	60	105	GapPrac	SmallFlash	1	8	2	30	1	target	1	360	820	-209254	13.328	4.585	22.057
ProbeTrack15	1	ProbeTrack	15.0	SCS215a	20120202.132029	20120202.132133	8	0.013311	60	10	60-180	60	178	GapPrac	SmallFlash	1	9	2	3	1	early	-4	-4033	-1000	-210254	13.328	13.298	13.354
ProbeTrack15	1	ProbeTrack	15.0	SCS215a	20120202.132029	20120202.132140	8	0.013311	60	10	60-180	60	77	GapPrac	SmallFlash	1	10	2	1	1	target	1	484	758	-209496	13.328	13.099	13.556
ProbeTrack15	1	ProbeTrack	15.0	SCS215a	20120202.132029	20120202.132145	8	0.013311	60	10	60-180	60	67	GapPrac	SmallFlash	1	11	2	30	0	early	-4	-2886	-1000	-210496	13.328	13.099	13.543
ProbeTrack15	1	ProbeTrack	15.0	SCS215a	20120202.132029	20120202.132151	8	0.013311	60	10	60-180	60	163	GapPrac	SmallFlash	1	12	2	1	0	target	0	490	-1000	-211496	13.328	13.092	13.544
ProbeTrack15	1	ProbeTrack	15.0	SCS215a	20120202.132029	20120202.132158	8	0.013311	60	10	60-180	60	111	GapPrac	SmallFlash	1	13	2	1	1	early	-4	-3387	-1000	-212496	13.328	8.340	18.318
ProbeTrack15	1	ProbeTrack	15.0	SCS215a	20120202.132029	20120202.132204	8	0.013311	60	10	60-180	60	160	GapPrac	SmallFlash	1	14	2	0	0	early	-4	-3535	-1000	-213496	13.328	10.405	16.252
ProbeTrack15	1	ProbeTrack	15.0	SCS215a	20120202.132029	20120202.132211	8	0.013311	60	10	60-180	60	78	GapPrac	SmallFlash	1	15	2	0	0	early	-4	-2932	-1000	-214496	13.328	13.230	13.418
ProbeTrack15	1	ProbeTrack	15.0	SCS215a	20120202.132029	20120202.132216	8	0.013311	60	10	60-180	60	126	GapPrac	SmallFlash	1	16	2	0	1	early	-4	-3570	-1000	-215496	13.328	13.309	13.346
ProbeTrack15	1	ProbeTrack	15.0	SCS215a	20120202.132029	20120202.132222	8	0.013311	60	10	60-180	60	105	GapPrac	SmallFlash	1	17	2	30	0	early	-4	-3481	-1000	-216496	13.328	13.098	13.572
ProbeTrack15	1	ProbeTrack	15.0	SCS215a	20120202.132029	20120202.132228	8	0.013311	60	10	60-180	60	99	GapPrac	SmallFlash	1	18	2	3	1	early	-4	-3176	-1000	-217496	13.328	12.933	13.731
ProbeTrack15	1	ProbeTrack	15.0	SCS215a	20120202.132029	20120202.132234	8	0.013311	60	10	60-180	60	62	GapPrac	SmallFlash	1	19	2	3	0	early	-4	-2662	-1000	-218496	13.328	13.112	13.538
ProbeTrack15	1	ProbeTrack	15.0	SCS215a	20120202.132029	20120202.132239	8	0.013311	60	10	60-180	60	82	GapPrac	SmallFlash	1	20	2	1	0	early	-4	-2851	-1000	-219496	13.328	7.657	19.006
ProbeTrack15	1	ProbeTrack	15.0	SCS215a	20120202.155908	20120202.155914	8	0.013328	60	10	60-180	60	166	GapExp	SmallFlash	1	1	2	3	0	distractor	1	640	680	-218816	13.416	12.925	26.264
ProbeTrack15	1	ProbeTrack	15.0	SCS215a	20120202.155908	20120202.155923	8	0.013328	60	10	60-180	60	108	GapExp	SmallFlash	1	2	2	30	1	early	-4	-3593	-1000	-219816	13.328	13.310	13.345
ProbeTrack15	1	ProbeTrack	15.0	SCS215a	20120202.155908	20120202.155931	8	0.013328	60	10	60-180	60	163	GapExp	SmallFlash	1	3	2	1	0	early	-4	-3930	-1000	-220816	13.328	13.308	13.347
ProbeTrack15	1	ProbeTrack	15.0	SCS215a	20120202.155908	20120202.155938	8	0.013328	60	10	60-180	60	145	GapExp	SmallFlash	1	4	2	1	1	early	-4	-3719	-1000	-221816	13.328	13.150	13.531
ProbeTrack15	1	ProbeTrack	15.0	SCS215a	20120202.155908	20120202.155944	8	0.013328	60	10	60-180	60	175	GapExp	SmallFlash	1	5	2	30	0	distractor	1	373	814	-221002	13.328	13.299	13.364
ProbeTrack15	1	ProbeTrack	15.0	SCS215a	20120202.155908	20120202.155951	8	0.013328	60	10	60-180	60	152	GapExp	SmallFlash	1	6	2	3	1	early	-4	-3840	-1000	-222002	13.328	13.099	13.543
ProbeTrack15	1	ProbeTrack	15.0	SCS215a	20120202.155908	20120202.155958	8	0.013328	60	10	60-180	60	68	GapExp	SmallFlash	1	7	2	0	0	early	-4	-2794	-1000	-223002	13.398	13.099	26.543
ProbeTrack15	1	ProbeTrack	15.0	SCS215a	20120202.155908	20120202.160003	8	0.013328	60	10	60-180	60	80	GapExp	SmallFlash	1	8	2	0	1	early	-4	-2777	-1000	-224002	13.328	13.309	13.348
ProbeTrack15	1	ProbeTrack	15.0	SCS215a	20120202.155908	20120202.160008	8	0.013328	60	10	60-180	60	121	GapExp	SmallFlash	0	9	2	0	1	early	-4	-3360	-1000	-225002	13.328	13.282	13.367
ProbeTrack15	1	ProbeTrack	15.0	SCS215a	20120202.155908	20120202.160014	8	0.013328	60	10	60-180	60	98	GapExp	SmallFlash	0	10	2	1	0	distractor	1	530	735	-224267	13.387	12.943	26.436
ProbeTrack15	1	ProbeTrack	15.0	SCS215a	20120202.155908	20120202.160020	8	0.013328	60	10	60-180	60	61	GapExp	SmallFlash	0	11	2	30	0	early	-4	-3094	-1000	-225267	13.389	13.085	26.522
ProbeTrack15	1	ProbeTrack	15.0	SCS215a	20120202.155908	20120202.160025	8	0.013328	60	10	60-180	60	180	GapExp	SmallFlash	0	12	2	30	0	distractor	1	487	757	-224510	13.328	12.931	13.733
ProbeTrack15	1	ProbeTrack	15.0	SCS215a	20120202.155908	20120202.160033	8	0.013328	60	10	60-180	60	147	GapExp	SmallFlash	0	13	2	30	1	early	-4	-4093	-1000	-225510	13.328	12.881	13.797
ProbeTrack15	1	ProbeTrack	15.0	SCS215a	20120202.155908	20120202.160039	8	0.013328	60	10	60-180	60	164	GapExp	SmallFlash	0	14	2	3	1	early	-4	-3962	-1000	-226510	13.374	12.917	26.352
ProbeTrack15	1	ProbeTrack	15.0	SCS215a	20120202.155908	20120202.160046	8	0.013328	60	10	60-180	60	180	GapExp	SmallFlash	0	15	2	0	1	target	1	561	720	-225790	13.328	12.918	13.772
ProbeTrack15	1	ProbeTrack	15.0	SCS215a	20120202.155908	20120202.160052	8	0.013328	60	10	60-180	60	145	GapExp	SmallFlash	0	16	2	1	1	early	-4	-3829	-1000	-226790	13.328	13.108	13.566
ProbeTrack15	1	ProbeTrack	15.0	SCS215a	20120202.155908	20120202.160058	8	0.013328	60	10	60-180	60	144	GapExp	SmallFlash	0	17	2	1	0	early	-4	-3837	-1000	-227790	13.378	13.145	26.584
ProbeTrack15	1	ProbeTrack	15.0	SCS215a	20120202.155908	20120202.160105	8	0.013328	60	10	60-180	60	68	GapExp	SmallFlash	0	18	2	30	0	early	-4	-3037	-1000	-228790	13.383	12.912	26.599
ProbeTrack15	1	ProbeTrack	15.0	SCS215a	20120202.155908	20120202.160111	8	0.013328	60	10	60-180	60	73	GapExp	SmallFlash	0	19	2	3	0	early	-4	-2905	-1000	-229790	13.328	12.914	13.740
ProbeTrack15	1	ProbeTrack	15.0	SCS215a	20120202.155908	20120202.160116	8	0.013328	60	10	60-180	60	69	GapExp	SmallFlash	0	20	2	0	1	early	-4	-2813	-1000	-230790	13.328	13.039	13.702
ProbeTrack15	1	ProbeTrack	15.0	SCS215a	20120202.155908	20120202.160121	8	0.013328	60	10	60-180	60	94	GapExp	SmallFlash	0	21	2	1	0	distractor	1	501	750	-230040	13.328	12.867	13.808
ProbeTrack15	1	ProbeTrack	15.0	SCS215a	20120202.155908	20120202.160126	8	0.013328	60	10	60-180	60	142	GapExp	SmallFlash	0	22	2	3	1	early	-4	-3720	-1000	-231040	13.328	13.303	13.347
ProbeTrack15	1	ProbeTrack	15.0	SCS215a	20120202.155908	20120202.160133	8	0.013328	60	10	60-180	60	73	GapExp	SmallFlash	0	23	2	0	1	target	1	483	759	-230281	13.328	13.062	13.806
ProbeTrack15	1	ProbeTrack	15.0	SCS215a	20120202.155908	20120202.160138	8	0.013328	60	10	60-180	60	141	GapExp	SmallFlash	0	24	2	1	0	early	-4	-3773	-1000	-231281	13.328	12.851	13.750
ProbeTrack15	1	ProbeTrack	15.0	SCS215a	20120202.155908	20120202.160145	8	0.013328	60	10	60-180	60	113	GapExp	SmallFlash	0	25	2	0	0	early	-4	-3401	-1000	-232281	13.382	13.038	26.422
ProbeTrack15	1	ProbeTrack	15.0	SCS215a	20120202.155908	20120202.160150	8	0.013328	60	10	60-180	60	151	GapExp	SmallFlash	0	26	2	1	1	early	-4	-3783	-1000	-233281	13.328	12.899	13.744
ProbeTrack15	1	ProbeTrack	15.0	SCS215a	20120202.155908	20120202.160157	8	0.013328	60	10	60-180	60	149	GapExp	SmallFlash	0	27	2	0	0	distractor	1	521	740	-232541	13.328	12.897	13.777
ProbeTrack15	1	ProbeTrack	15.0	SCS215a	20120202.155908	20120202.160203	8	0.013328	60	10	60-180	60	80	GapExp	SmallFlash	0	28	2	30	0	early	-4	-3240	-1000	-233541	13.328	13.113	13.542
ProbeTrack15	1	ProbeTrack	15.0	SCS215a	20120202.155908	20120202.160209	8	0.013328	60	10	60-180	60	171	GapExp	SmallFlash	0	29	2	1	1	early	-4	-4005	-1000	-234541	13.328	13.085	13.557
ProbeTrack15	1	ProbeTrack	15.0	SCS215a	20120202.155908	20120202.160216	8	0.013328	60	10	60-180	60	122	GapExp	SmallFlash	0	30	2	0	1	early	-4	-3379	-1000	-235541	13.328	13.091	13.565
ProbeTrack15	1	ProbeTrack	15.0	SCS215a	20120202.155908	20120202.160222	8	0.013328	60	10	60-180	60	106	GapExp	SmallFlash	0	31	2	3	1	early	-4	-3342	-1000	-236541	13.328	13.307	13.351
ProbeTrack15	1	ProbeTrack	15.0	SCS215a	20120202.155908	20120202.160228	8	0.013328	60	10	60-180	60	84	GapExp	SmallFlash	0	32	2	30	1	early	-4	-3281	-1000	-237541	13.328	13.307	13.349
ProbeTrack15	1	ProbeTrack	15.0	SCS215a	20120202.155908	20120202.160233	8	0.013328	60	10	60-180	60	100	GapExp	SmallFlash	0	33	2	1	1	early	-4	-3225	-1000	-238541	13.328	13.303	13.356
ProbeTrack15	1	ProbeTrack	15.0	SCS215a	20120202.155908	20120202.160240	8	0.013328	60	10	60-180	60	85	GapExp	SmallFlash	0	34	2	0	1	early	-4	-3008	-1000	-239541	13.328	12.953	13.683
ProbeTrack15	1	ProbeTrack	15.0	SCS215a	20120202.155908	20120202.160245	8	0.013328	60	10	60-180	60	103	GapExp	SmallFlash	0	35	2	30	0	distractor	1	436	782	-238759	13.328	13.046	13.618
ProbeTrack15	1	ProbeTrack	15.0	SCS215a	20120202.155908	20120202.160251	8	0.013328	60	10	60-180	60	170	GapExp	SmallFlash	0	36	2	30	1	target	1	460	770	-237989	13.328	13.090	13.561
ProbeTrack15	1	ProbeTrack	15.0	SCS215a	20120202.155908	20120202.160258	8	0.013328	60	10	60-180	60	118	GapExp	SmallFlash	0	37	2	30	1	target	1	498	751	-237238	13.328	13.184	13.492
ProbeTrack15	1	ProbeTrack	15.0	SCS215a	20120202.155908	20120202.160304	8	0.013328	60	10	60-180	60	125	GapExp	SmallFlash	0	38	2	30	1	early	-4	-3954	-1000	-238238	13.328	13.099	13.570
ProbeTrack15	1	ProbeTrack	15.0	SCS215a	20120202.155908	20120202.160311	8	0.013328	60	10	60-180	60	79	GapExp	SmallFlash	0	39	2	3	0	early	-4	-2980	-1000	-239238	13.328	13.107	13.550
ProbeTrack15	1	ProbeTrack	15.0	SCS215a	20120202.155908	20120202.160318	8	0.013328	60	10	60-180	60	172	GapExp	SmallFlash	0	40	2	3	1	target	1	481	760	-238478	13.372	13.091	26.461
ProbeTrack15	1	ProbeTrack	15.0	SCS215a	20120202.155908	20120202.160325	8	0.013328	60	10	60-180	60	102	GapExp	SmallFlash	0	41	2	30	1	early	-4	-3524	-1000	-239478	13.328	12.901	13.759
ProbeTrack15	1	ProbeTrack	15.0	SCS215a	20120202.155908	20120202.160331	8	0.013328	60	10	60-180	60	126	GapExp	SmallFlash	0	42	2	30	0	distractor	1	500	750	-238728	13.328	13.304	13.354
ProbeTrack15	1	ProbeTrack	15.0	SCS215a	20120202.155908	20120202.160338	8	0.013328	60	10	60-180	60	111	GapExp	SmallFlash	0	43	2	1	1	early	-4	-3189	-1000	-239728	13.328	12.859	13.804
ProbeTrack15	1	ProbeTrack	15.0	SCS215a	20120202.155908	20120202.160345	8	0.013328	60	10	60-180	60	139	GapExp	SmallFlash	0	44	2	1	0	distractor	1	497	752	-238976	13.378	12.971	26.615
ProbeTrack15	1	ProbeTrack	15.0	SCS215a	20120202.155908	20120202.160351	8	0.013328	60	10	60-180	60	65	GapExp	SmallFlash	0	45	2	0	0	early	-4	-2633	-1000	-239976	13.395	12.908	26.374
ProbeTrack15	1	ProbeTrack	15.0	SCS215a	20120202.155908	20120202.160356	8	0.013328	60	10	60-180	60	151	GapExp	SmallFlash	0	46	2	30	1	early	-4	-4169	-1000	-240976	13.370	13.099	26.713
ProbeTrack15	1	ProbeTrack	15.0	SCS215a	20120202.155908	20120202.160403	8	0.013328	60	10	60-180	60	116	GapExp	SmallFlash	0	47	2	1	0	distractor	1	471	765	-240211	13.328	13.076	13.583
ProbeTrack15	1	ProbeTrack	15.0	SCS215a	20120202.155908	20120202.160409	8	0.013328	60	10	60-180	60	67	GapExp	SmallFlash	0	48	2	0	0	distractor	1	628	686	-239525	13.328	13.306	13.346
ProbeTrack15	1	ProbeTrack	15.0	SCS215a	20120202.155908	20120202.160415	8	0.013328	60	10	60-180	60	168	GapExp	SmallFlash	0	49	2	30	0	early	-4	-4361	-1000	-240525	13.328	13.092	13.556
ProbeTrack15	1	ProbeTrack	15.0	SCS215a	20120202.155908	20120202.160422	8	0.013328	60	10	60-180	60	75	GapExp	SmallFlash	0	50	2	3	0	early	-4	-2931	-1000	-241525	13.328	13.312	13.344
ProbeTrack15	1	ProbeTrack	15.0	SCS215a	20120202.155908	20120202.160427	8	0.013328	60	10	60-180	60	149	GapExp	SmallFlash	0	51	2	0	1	early	-4	-3712	-1000	-242525	13.328	13.308	13.353
ProbeTrack15	1	ProbeTrack	15.0	SCS215a	20120202.155908	20120202.160434	8	0.013328	60	10	60-180	60	177	GapExp	SmallFlash	0	52	2	3	1	target	1	605	698	-241827	13.328	12.881	13.788
ProbeTrack15	1	ProbeTrack	15.0	SCS215a	20120202.155908	20120202.160440	8	0.013328	60	10	60-180	60	131	GapExp	SmallFlash	0	53	2	1	1	target	1	534	733	-241094	13.328	12.916	13.733
ProbeTrack15	1	ProbeTrack	15.0	SCS215a	20120202.155908	20120202.160447	8	0.013328	60	10	60-180	60	72	GapExp	SmallFlash	0	54	2	30	1	target	1	418	791	-240303	13.328	12.832	13.808
ProbeTrack15	1	ProbeTrack	15.0	SCS215a	20120202.155908	20120202.160453	8	0.013328	60	10	60-180	60	62	GapExp	SmallFlash	0	55	2	3	1	target	1	522	739	-239564	13.328	13.099	13.562
ProbeTrack15	1	ProbeTrack	15.0	SCS215a	20120202.155908	20120202.160458	8	0.013328	60	10	60-180	60	179	GapExp	SmallFlash	0	56	2	1	0	distractor	1	443	779	-238785	13.328	13.099	13.548
ProbeTrack15	1	ProbeTrack	15.0	SCS215a	20120202.155908	20120202.160504	8	0.013328	60	10	60-180	60	120	GapExp	SmallFlash	0	57	2	1	0	distractor	1	667	667	-238118	13.328	12.867	13.798
ProbeTrack15	1	ProbeTrack	15.0	SCS215a	20120202.155908	20120202.160511	8	0.013328	60	10	60-180	60	180	GapExp	SmallFlash	0	58	2	0	0	distractor	1	341	830	-237288	13.328	12.852	13.805
ProbeTrack15	1	ProbeTrack	15.0	SCS215a	20120202.155908	20120202.160518	8	0.013328	60	10	60-180	60	166	GapExp	SmallFlash	0	59	2	3	0	early	-4	-3927	-1000	-238288	13.328	12.900	13.772
ProbeTrack15	1	ProbeTrack	15.0	SCS215a	20120202.155908	20120202.160524	8	0.013328	60	10	60-180	60	91	GapExp	SmallFlash	0	60	2	0	1	target	1	554	723	-237565	13.328	12.962	13.687
ProbeTrack15	1	ProbeTrack	15.0	SCS215a	20120202.155908	20120202.160530	8	0.013328	60	10	60-180	60	171	GapExp	SmallFlash	0	61	2	1	0	target	0	450	-1000	-238565	13.328	12.932	13.708
ProbeTrack15	1	ProbeTrack	15.0	SCS215a	20120202.155908	20120202.160536	8	0.013328	60	10	60-180	60	163	GapExp	SmallFlash	0	62	2	0	1	early	-4	-3944	-1000	-239565	13.328	13.073	13.582
ProbeTrack15	1	ProbeTrack	15.0	SCS215a	20120202.155908	20120202.160543	8	0.013328	60	10	60-180	60	82	GapExp	SmallFlash	0	63	2	3	0	distractor	1	510	745	-238820	13.328	13.307	13.348
ProbeTrack15	1	ProbeTrack	15.0	SCS215a	20120202.155908	20120202.160549	8	0.013328	60	10	60-180	60	108	GapExp	SmallFlash	0	64	2	0	0	early	-4	-3340	-1000	-239820	13.328	13.305	13.348
ProbeTrack15	1	ProbeTrack	15.0	SCS215a	20120202.155908	20120202.160554	8	0.013328	60	10	60-180	60	142	GapExp	SmallFlash	0	65	2	0	1	early	-4	-3783	-1000	-240820	13.328	12.929	13.720
