exp	sub	code	rev	comp	runtime	trialtime	nstim	refreshdur	cuedur	gapdur	gapOnsetRange	durPostProbe	gapOnsetTime	blocktype	gaptype	prac	trial	ntargets	soa	probeTarget	resp	acc	rt	pts	tpts	meanFrameDur	minFrameDur	maxFrameDur
ProbeTrack15	2	ProbeTrack	15.0	SCS215b	20120202.122523	20120202.122548	8	0.013328	60	0	60-180	60	102	NoGap	None	1	1	2	30	1	target	1	729	636	636	13.375	13.088	13.561
ProbeTrack15	2	ProbeTrack	15.0	SCS215b	20120202.122523	20120202.122750	8	0.013328	60	0	60-180	60	153	NoGap	None	1	2	2	3	0	distractor	1	430	785	1421	13.328	4.342	22.305
ProbeTrack15	2	ProbeTrack	15.0	SCS215b	20120202.122523	20120202.122809	8	0.013328	60	0	60-180	60	79	NoGap	None	1	3	2	3	1	target	1	449	776	2197	13.328	7.430	19.221
ProbeTrack15	2	ProbeTrack	15.0	SCS215b	20120202.122523	20120202.122815	8	0.013328	60	0	60-180	60	94	NoGap	None	1	4	2	3	1	distractor	0	447	-1000	1197	13.328	10.712	15.946
ProbeTrack15	2	ProbeTrack	15.0	SCS215b	20120202.122523	20120202.122822	8	0.013328	60	0	60-180	60	78	NoGap	None	1	5	2	0	0	distractor	1	527	737	1934	13.328	12.710	14.004
ProbeTrack15	2	ProbeTrack	15.0	SCS215b	20120202.122523	20120202.122828	8	0.013328	60	0	60-180	60	97	NoGap	None	1	6	2	1	0	distractor	1	497	752	2686	13.328	11.014	15.649
ProbeTrack15	2	ProbeTrack	15.0	SCS215b	20120202.122523	20120202.122834	8	0.013328	60	0	60-180	60	139	NoGap	None	1	7	2	30	1	target	1	412	794	3480	13.328	13.305	13.349
ProbeTrack15	2	ProbeTrack	15.0	SCS215b	20120202.122523	20120202.122841	8	0.013328	60	0	60-180	60	85	NoGap	None	1	8	2	30	0	distractor	1	520	740	4220	13.386	13.063	26.651
ProbeTrack15	2	ProbeTrack	15.0	SCS215b	20120202.122523	20120202.122847	8	0.013328	60	0	60-180	60	165	NoGap	None	1	9	2	3	1	target	1	368	816	5036	13.830	9.934	53.321
ProbeTrack15	2	ProbeTrack	15.0	SCS215b	20120202.122523	20120202.122854	8	0.013328	60	0	60-180	60	77	NoGap	None	1	10	2	30	0	distractor	1	495	753	5789	13.328	13.094	13.520
ProbeTrack15	2	ProbeTrack	15.0	SCS215b	20120202.122523	20120202.122900	8	0.013328	60	0	60-180	60	96	NoGap	None	1	11	2	0	1	target	1	389	806	6595	13.328	7.379	19.274
ProbeTrack15	2	ProbeTrack	15.0	SCS215b	20120202.122523	20120202.122908	8	0.013328	60	0	60-180	60	157	NoGap	None	1	12	2	1	0	distractor	1	395	803	7398	13.328	11.960	14.682
ProbeTrack15	2	ProbeTrack	15.0	SCS215b	20120202.122523	20120202.122914	8	0.013328	60	0	60-180	60	111	NoGap	None	1	13	2	30	1	target	1	466	767	8165	13.328	12.346	14.273
ProbeTrack15	2	ProbeTrack	15.0	SCS215b	20120202.122523	20120202.122921	8	0.013328	60	0	60-180	60	91	NoGap	None	1	14	2	1	0	distractor	1	488	756	8921	13.328	13.095	13.523
ProbeTrack15	2	ProbeTrack	15.0	SCS215b	20120202.122523	20120202.122927	8	0.013328	60	0	60-180	60	114	NoGap	None	1	15	2	3	0	distractor	1	426	787	9708	13.328	11.683	14.925
ProbeTrack15	2	ProbeTrack	15.0	SCS215b	20120202.122523	20120202.122933	8	0.013328	60	0	60-180	60	169	NoGap	None	1	16	2	0	1	target	1	417	792	10500	13.567	9.209	39.136
ProbeTrack15	2	ProbeTrack	15.0	SCS215b	20120202.122523	20120202.122940	8	0.013328	60	0	60-180	60	145	NoGap	None	1	17	2	3	1	target	1	391	805	11305	14.325	4.642	53.337
ProbeTrack15	2	ProbeTrack	15.0	SCS215b	20120202.122523	20120202.122946	8	0.013328	60	0	60-180	60	100	NoGap	None	1	18	2	3	0	distractor	1	513	744	12049	13.328	7.197	19.470
ProbeTrack15	2	ProbeTrack	15.0	SCS215b	20120202.122523	20120202.122952	8	0.013328	60	0	60-180	60	63	NoGap	None	1	19	2	30	0	distractor	1	576	712	12761	14.238	5.334	66.688
ProbeTrack15	2	ProbeTrack	15.0	SCS215b	20120202.122523	20120202.122958	8	0.013328	60	0	60-180	60	145	NoGap	None	1	20	2	0	0	distractor	1	519	741	13502	14.154	5.440	61.180
ProbeTrack15	2	ProbeTrack	15.0	SCS215b	20120202.122523	20120202.123007	8	0.013328	60	0	60-180	60	62	NoGap	None	1	21	2	0	1	target	1	544	728	14230	14.072	5.473	49.956
ProbeTrack15	2	ProbeTrack	15.0	SCS215b	20120202.122523	20120202.123012	8	0.013328	60	0	60-180	60	96	NoGap	None	1	22	2	1	1	target	1	442	779	15009	13.972	3.397	53.278
ProbeTrack15	2	ProbeTrack	15.0	SCS215b	20120202.122523	20120202.123018	8	0.013328	60	0	60-180	60	127	NoGap	None	1	23	2	3	0	distractor	1	381	810	15819	13.328	9.092	17.530
ProbeTrack15	2	ProbeTrack	15.0	SCS215b	20120202.122523	20120202.123024	8	0.013328	60	0	60-180	60	140	NoGap	None	1	24	2	1	0	distractor	1	476	762	16581	13.328	13.090	13.568
ProbeTrack15	2	ProbeTrack	15.0	SCS215b	20120202.122523	20120202.123031	8	0.013328	60	0	60-180	60	153	NoGap	None	1	25	2	30	0	distractor	1	427	787	17368	13.786	3.911	40.020
ProbeTrack15	2	ProbeTrack	15.0	SCS215b	20120202.122523	20120202.123038	8	0.013328	60	0	60-180	60	143	NoGap	None	1	26	2	0	1	target	1	560	720	18088	13.890	11.668	62.156
ProbeTrack15	2	ProbeTrack	15.0	SCS215b	20120202.122523	20120202.123044	8	0.013328	60	0	60-180	60	162	NoGap	None	1	27	2	3	1	target	1	427	787	18875	16.886	3.256	305.890
ProbeTrack15	2	ProbeTrack	15.0	SCS215b	20120202.122523	20120202.123052	8	0.013328	60	0	60-180	60	128	NoGap	None	1	28	2	0	0	distractor	1	438	781	19656	13.328	11.052	15.623
ProbeTrack15	2	ProbeTrack	15.0	SCS215b	20120202.122523	20120202.123108	8	0.013328	60	0	60-180	60	163	NoGap	None	1	29	2	1	1	target	1	344	828	20484	13.328	13.266	13.388
ProbeTrack15	2	ProbeTrack	15.0	SCS215b	20120202.122523	20120202.123115	8	0.013328	60	0	60-180	60	146	NoGap	None	1	30	2	1	1	target	1	463	769	21253	13.328	13.263	13.412
ProbeTrack15	2	ProbeTrack	15.0	SCS215b	20120202.122523	20120202.123121	8	0.013328	60	0	60-180	60	169	NoGap	None	1	31	2	3	0	distractor	1	431	785	22038	13.328	10.307	16.384
ProbeTrack15	2	ProbeTrack	15.0	SCS215b	20120202.122523	20120202.123128	8	0.013328	60	0	60-180	60	91	NoGap	None	1	32	2	1	0	distractor	1	656	672	22710	13.328	13.103	13.554
ProbeTrack15	2	ProbeTrack	15.0	SCS215b	20120202.122523	20120202.123134	8	0.013328	60	0	60-180	60	153	NoGap	None	1	33	2	0	0	distractor	1	423	789	23499	13.328	13.099	13.557
ProbeTrack15	2	ProbeTrack	15.0	SCS215b	20120202.122523	20120202.123141	8	0.013328	60	0	60-180	60	102	NoGap	None	1	34	2	1	1	target	1	380	810	24309	13.328	10.548	16.115
ProbeTrack15	2	ProbeTrack	15.0	SCS215b	20120202.122523	20120202.123146	8	0.013328	60	0	60-180	60	139	NoGap	None	1	35	2	30	1	target	1	334	833	25142	13.373	11.171	25.609
ProbeTrack15	2	ProbeTrack	15.0	SCS215b	20120202.122523	20120202.123152	8	0.013328	60	0	60-180	60	143	NoGap	None	1	36	2	0	0	distractor	1	389	806	25948	13.328	6.462	20.210
ProbeTrack15	2	ProbeTrack	15.0	SCS215b	20120202.122523	20120202.123159	8	0.013328	60	0	60-180	60	180	NoGap	None	1	37	2	1	1	target	1	490	755	26703	13.328	8.810	17.807
ProbeTrack15	2	ProbeTrack	15.0	SCS215b	20120202.122523	20120202.123205	8	0.013328	60	0	60-180	60	72	NoGap	None	1	38	2	30	0	distractor	1	623	689	27392	13.387	13.299	24.021
ProbeTrack15	2	ProbeTrack	15.0	SCS215b	20120202.122523	20120202.123212	8	0.013328	60	0	60-180	60	113	NoGap	None	1	39	2	0	1	target	1	431	785	28177	13.328	5.030	21.250
ProbeTrack15	2	ProbeTrack	15.0	SCS215b	20120202.122523	20120202.123217	8	0.013328	60	0	60-180	60	62	NoGap	None	1	40	2	30	1	target	1	417	792	28969	13.328	12.182	14.502
ProbeTrack15	2	ProbeTrack	15.0	SCS215b	20120202.123417	20120202.123432	8	0.013328	60	10	60-180	60	102	GapPrac	BigFlash	1	1	2	0	0	distractor	1	795	603	29572	13.436	2.939	26.655
ProbeTrack15	2	ProbeTrack	15.0	SCS215b	20120202.123417	20120202.123440	8	0.013328	60	10	60-180	60	80	GapPrac	BigFlash	1	2	2	0	1	target	1	623	689	30261	13.328	7.903	18.735
ProbeTrack15	2	ProbeTrack	15.0	SCS215b	20120202.123417	20120202.123453	8	0.013328	60	10	60-180	60	179	GapPrac	BigFlash	1	3	2	30	1	target	1	463	769	31030	13.328	2.628	24.019
ProbeTrack15	2	ProbeTrack	15.0	SCS215b	20120202.123417	20120202.123501	8	0.013328	60	10	60-180	60	111	GapPrac	BigFlash	1	4	2	3	1	target	1	574	713	31743	13.328	4.794	21.858
ProbeTrack15	2	ProbeTrack	15.0	SCS215b	20120202.123417	20120202.123507	8	0.013328	60	10	60-180	60	173	GapPrac	BigFlash	1	5	2	0	1	target	1	436	782	32525	13.328	4.024	22.626
ProbeTrack15	2	ProbeTrack	15.0	SCS215b	20120202.123417	20120202.123514	8	0.013328	60	10	60-180	60	142	GapPrac	BigFlash	1	6	2	30	1	target	1	462	769	33294	13.328	7.053	19.600
ProbeTrack15	2	ProbeTrack	15.0	SCS215b	20120202.123417	20120202.123521	8	0.013328	60	10	60-180	60	180	GapPrac	BigFlash	1	7	2	1	0	early	-4	-4258	-1000	32294	13.328	13.309	13.351
ProbeTrack15	2	ProbeTrack	15.0	SCS215b	20120202.123417	20120202.123528	8	0.013328	60	10	60-180	60	150	GapPrac	BigFlash	1	8	2	1	1	target	1	520	740	33034	13.328	13.101	13.551
ProbeTrack15	2	ProbeTrack	15.0	SCS215b	20120202.123417	20120202.123540	8	0.013328	60	10	60-180	60	153	GapPrac	BigFlash	1	9	2	30	1	target	1	333	834	33868	13.328	4.405	22.249
ProbeTrack15	2	ProbeTrack	15.0	SCS215b	20120202.123417	20120202.123548	8	0.013328	60	10	60-180	60	156	GapPrac	BigFlash	1	10	2	30	0	distractor	1	347	827	34695	13.417	4.458	24.807
ProbeTrack15	2	ProbeTrack	15.0	SCS215b	20120202.123417	20120202.123555	8	0.013328	60	10	60-180	60	81	GapPrac	BigFlash	1	11	2	3	0	distractor	1	586	707	35402	13.389	7.071	26.250
ProbeTrack15	2	ProbeTrack	15.0	SCS215b	20120202.123417	20120202.123600	8	0.013328	60	10	60-180	60	78	GapPrac	BigFlash	1	12	2	3	1	target	1	417	792	36194	13.395	13.115	22.936
ProbeTrack15	2	ProbeTrack	15.0	SCS215b	20120202.123417	20120202.123606	8	0.013328	60	10	60-180	60	155	GapPrac	BigFlash	1	13	2	3	0	distractor	1	375	813	37007	13.328	7.876	18.799
ProbeTrack15	2	ProbeTrack	15.0	SCS215b	20120202.123417	20120202.123613	8	0.013328	60	10	60-180	60	89	GapPrac	BigFlash	1	14	2	0	0	distractor	1	419	791	37798	13.328	13.084	13.571
ProbeTrack15	2	ProbeTrack	15.0	SCS215b	20120202.123417	20120202.123619	8	0.013328	60	10	60-180	60	100	GapPrac	BigFlash	1	15	2	3	1	target	1	386	807	38605	13.328	5.703	20.946
ProbeTrack15	2	ProbeTrack	15.0	SCS215b	20120202.123417	20120202.123625	8	0.013328	60	10	60-180	60	135	GapPrac	BigFlash	1	16	2	1	0	distractor	1	380	810	39415	13.381	9.146	25.766
ProbeTrack15	2	ProbeTrack	15.0	SCS215b	20120202.123417	20120202.123632	8	0.013328	60	10	60-180	60	65	GapPrac	BigFlash	1	17	2	0	1	target	1	392	804	40219	13.328	4.130	22.525
ProbeTrack15	2	ProbeTrack	15.0	SCS215b	20120202.123417	20120202.123638	8	0.013328	60	10	60-180	60	150	GapPrac	BigFlash	1	18	2	1	1	target	1	357	822	41041	13.429	4.404	26.662
ProbeTrack15	2	ProbeTrack	15.0	SCS215b	20120202.123417	20120202.123644	8	0.013328	60	10	60-180	60	80	GapPrac	BigFlash	1	19	2	0	0	distractor	1	419	791	41832	13.328	13.310	13.348
ProbeTrack15	2	ProbeTrack	15.0	SCS215b	20120202.123417	20120202.123650	8	0.013328	60	10	60-180	60	170	GapPrac	BigFlash	1	20	2	30	0	distractor	1	312	844	42676	13.328	7.054	19.603
ProbeTrack15	2	ProbeTrack	15.0	SCS215b	20120202.123943	20120202.123957	8	0.013319	60	10	60-180	60	106	GapExp	BigFlash	1	1	2	0	1	target	1	561	720	43396	13.499	9.743	27.977
ProbeTrack15	2	ProbeTrack	15.0	SCS215b	20120202.123943	20120202.124006	8	0.013319	60	10	60-180	60	67	GapExp	BigFlash	1	2	2	1	1	target	1	349	826	44222	13.328	13.082	13.570
ProbeTrack15	2	ProbeTrack	15.0	SCS215b	20120202.123943	20120202.124011	8	0.013319	60	10	60-180	60	68	GapExp	BigFlash	1	3	2	30	0	distractor	1	302	849	45071	13.328	13.096	13.575
ProbeTrack15	2	ProbeTrack	15.0	SCS215b	20120202.123943	20120202.124017	8	0.013319	60	10	60-180	60	149	GapExp	BigFlash	1	4	2	3	1	target	1	440	780	45851	13.328	13.313	13.348
ProbeTrack15	2	ProbeTrack	15.0	SCS215b	20120202.123943	20120202.124023	8	0.013319	60	10	60-180	60	96	GapExp	BigFlash	1	5	2	30	1	target	1	392	804	46655	13.328	11.027	15.609
ProbeTrack15	2	ProbeTrack	15.0	SCS215b	20120202.123943	20120202.124029	8	0.013319	60	10	60-180	60	121	GapExp	BigFlash	1	6	2	1	0	distractor	1	361	820	47475	13.328	13.002	13.670
ProbeTrack15	2	ProbeTrack	15.0	SCS215b	20120202.123943	20120202.124035	8	0.013319	60	10	60-180	60	61	GapExp	BigFlash	1	7	2	0	0	distractor	1	456	772	48247	13.328	12.789	13.830
ProbeTrack15	2	ProbeTrack	15.0	SCS215b	20120202.123943	20120202.124041	8	0.013319	60	10	60-180	60	103	GapExp	BigFlash	1	8	2	3	0	target	0	482	-1000	47247	13.328	13.103	13.549
ProbeTrack15	2	ProbeTrack	15.0	SCS215b	20120202.123943	20120202.124047	8	0.013319	60	10	60-180	60	111	GapExp	BigFlash	0	9	2	3	1	target	1	423	789	48036	13.328	10.056	16.596
ProbeTrack15	2	ProbeTrack	15.0	SCS215b	20120202.123943	20120202.124052	8	0.013319	60	10	60-180	60	61	GapExp	BigFlash	0	10	2	30	0	distractor	1	438	781	48817	13.328	13.123	13.529
ProbeTrack15	2	ProbeTrack	15.0	SCS215b	20120202.123943	20120202.124058	8	0.013319	60	10	60-180	60	64	GapExp	BigFlash	0	11	2	3	1	target	1	444	778	49595	13.328	12.931	13.741
ProbeTrack15	2	ProbeTrack	15.0	SCS215b	20120202.123943	20120202.124103	8	0.013319	60	10	60-180	60	150	GapExp	BigFlash	0	12	2	30	1	target	1	414	793	50388	13.328	13.312	13.351
ProbeTrack15	2	ProbeTrack	15.0	SCS215b	20120202.123943	20120202.124110	8	0.013319	60	10	60-180	60	114	GapExp	BigFlash	0	13	2	30	0	distractor	1	388	806	51194	13.328	7.307	19.345
ProbeTrack15	2	ProbeTrack	15.0	SCS215b	20120202.123943	20120202.124116	8	0.013319	60	10	60-180	60	149	GapExp	BigFlash	0	14	2	30	0	distractor	1	467	767	51961	13.328	8.964	17.680
ProbeTrack15	2	ProbeTrack	15.0	SCS215b	20120202.123943	20120202.124124	8	0.013319	60	10	60-180	60	136	GapExp	BigFlash	0	15	2	3	0	distractor	1	461	770	52731	13.328	11.941	14.712
ProbeTrack15	2	ProbeTrack	15.0	SCS215b	20120202.123943	20120202.124130	8	0.013319	60	10	60-180	60	173	GapExp	BigFlash	0	16	2	1	1	target	1	483	759	53490	13.328	10.546	16.100
ProbeTrack15	2	ProbeTrack	15.0	SCS215b	20120202.123943	20120202.124137	8	0.013319	60	10	60-180	60	177	GapExp	BigFlash	0	17	2	30	1	target	1	445	778	54268	13.328	10.063	16.589
ProbeTrack15	2	ProbeTrack	15.0	SCS215b	20120202.123943	20120202.124144	8	0.013319	60	10	60-180	60	69	GapExp	BigFlash	0	18	2	3	0	distractor	1	451	775	55043	13.328	13.307	13.347
ProbeTrack15	2	ProbeTrack	15.0	SCS215b	20120202.123943	20120202.124151	8	0.013319	60	10	60-180	60	167	GapExp	BigFlash	0	19	2	30	0	distractor	1	582	709	55752	13.328	13.102	13.550
ProbeTrack15	2	ProbeTrack	15.0	SCS215b	20120202.123943	20120202.124158	8	0.013319	60	10	60-180	60	137	GapExp	BigFlash	0	20	2	30	1	target	1	381	810	56562	13.328	12.917	13.752
ProbeTrack15	2	ProbeTrack	15.0	SCS215b	20120202.123943	20120202.124205	8	0.013319	60	10	60-180	60	62	GapExp	BigFlash	0	21	2	3	1	target	1	420	790	57352	13.328	12.990	13.661
ProbeTrack15	2	ProbeTrack	15.0	SCS215b	20120202.123943	20120202.124210	8	0.013319	60	10	60-180	60	134	GapExp	BigFlash	0	22	2	1	1	target	1	395	803	58155	13.328	13.074	13.578
ProbeTrack15	2	ProbeTrack	15.0	SCS215b	20120202.123943	20120202.124216	8	0.013319	60	10	60-180	60	114	GapExp	BigFlash	0	23	2	0	0	distractor	1	488	756	58911	13.328	13.304	13.359
ProbeTrack15	2	ProbeTrack	15.0	SCS215b	20120202.123943	20120202.124223	8	0.013319	60	10	60-180	60	120	GapExp	BigFlash	0	24	2	0	0	distractor	1	448	776	59687	13.328	13.311	13.348
ProbeTrack15	2	ProbeTrack	15.0	SCS215b	20120202.123943	20120202.124229	8	0.013319	60	10	60-180	60	135	GapExp	BigFlash	0	25	2	1	1	target	1	411	795	60482	13.315	9.996	14.368
ProbeTrack15	2	ProbeTrack	15.0	SCS215b	20120202.123943	20120202.124235	8	0.013319	60	10	60-180	60	88	GapExp	BigFlash	0	26	2	0	1	target	1	451	775	61257	13.328	13.142	13.501
ProbeTrack15	2	ProbeTrack	15.0	SCS215b	20120202.123943	20120202.124241	8	0.013319	60	10	60-180	60	111	GapExp	BigFlash	0	27	2	1	1	target	1	423	789	62046	13.328	13.304	13.348
ProbeTrack15	2	ProbeTrack	15.0	SCS215b	20120202.123943	20120202.124247	8	0.013319	60	10	60-180	60	73	GapExp	BigFlash	0	28	2	1	1	target	1	430	785	62831	13.328	13.100	13.550
ProbeTrack15	2	ProbeTrack	15.0	SCS215b	20120202.123943	20120202.124253	8	0.013319	60	10	60-180	60	172	GapExp	BigFlash	0	29	2	0	0	distractor	1	417	792	63623	13.328	13.048	13.626
ProbeTrack15	2	ProbeTrack	15.0	SCS215b	20120202.123943	20120202.124300	8	0.013319	60	10	60-180	60	114	GapExp	BigFlash	0	30	2	3	0	distractor	1	446	777	64400	13.328	13.100	13.550
ProbeTrack15	2	ProbeTrack	15.0	SCS215b	20120202.123943	20120202.124306	8	0.013319	60	10	60-180	60	160	GapExp	BigFlash	0	31	2	3	1	target	1	424	788	65188	13.328	12.913	13.738
ProbeTrack15	2	ProbeTrack	15.0	SCS215b	20120202.123943	20120202.124312	8	0.013319	60	10	60-180	60	124	GapExp	BigFlash	0	32	2	1	0	distractor	1	419	791	65979	13.328	13.302	13.349
ProbeTrack15	2	ProbeTrack	15.0	SCS215b	20120202.123943	20120202.124318	8	0.013319	60	10	60-180	60	99	GapExp	BigFlash	0	33	2	30	1	target	1	334	833	66812	13.328	12.897	13.759
ProbeTrack15	2	ProbeTrack	15.0	SCS215b	20120202.123943	20120202.124324	8	0.013319	60	10	60-180	60	108	GapExp	BigFlash	0	34	2	3	1	target	1	344	828	67640	13.328	13.292	13.362
ProbeTrack15	2	ProbeTrack	15.0	SCS215b	20120202.123943	20120202.124330	8	0.013319	60	10	60-180	60	139	GapExp	BigFlash	0	35	2	30	0	distractor	1	378	811	68451	13.328	6.808	19.818
ProbeTrack15	2	ProbeTrack	15.0	SCS215b	20120202.123943	20120202.124337	8	0.013319	60	10	60-180	60	148	GapExp	BigFlash	0	36	2	30	1	target	1	368	816	69267	13.328	12.792	14.177
ProbeTrack15	2	ProbeTrack	15.0	SCS215b	20120202.123943	20120202.124343	8	0.013319	60	10	60-180	60	136	GapExp	BigFlash	0	37	2	0	0	distractor	1	456	772	70039	13.328	11.250	15.435
ProbeTrack15	2	ProbeTrack	15.0	SCS215b	20120202.123943	20120202.124349	8	0.013319	60	10	60-180	60	106	GapExp	BigFlash	0	38	2	3	0	distractor	1	430	785	70824	13.328	10.962	15.698
ProbeTrack15	2	ProbeTrack	15.0	SCS215b	20120202.123943	20120202.124355	8	0.013319	60	10	60-180	60	107	GapExp	BigFlash	0	39	2	30	0	target	0	370	-1000	69824	13.328	13.100	13.551
ProbeTrack15	2	ProbeTrack	15.0	SCS215b	20120202.123943	20120202.124401	8	0.013319	60	10	60-180	60	78	GapExp	BigFlash	0	40	2	3	0	distractor	1	428	786	70610	13.328	13.307	13.348
ProbeTrack15	2	ProbeTrack	15.0	SCS215b	20120202.123943	20120202.124408	8	0.013319	60	10	60-180	60	79	GapExp	BigFlash	0	41	2	30	1	target	1	365	818	71428	13.328	13.310	13.351
ProbeTrack15	2	ProbeTrack	15.0	SCS215b	20120202.123943	20120202.124414	8	0.013319	60	10	60-180	60	88	GapExp	BigFlash	0	42	2	0	0	distractor	1	503	749	72177	13.328	12.921	13.755
ProbeTrack15	2	ProbeTrack	15.0	SCS215b	20120202.123943	20120202.124419	8	0.013319	60	10	60-180	60	134	GapExp	BigFlash	0	43	2	3	0	distractor	1	520	740	72917	13.328	13.078	13.568
ProbeTrack15	2	ProbeTrack	15.0	SCS215b	20120202.123943	20120202.124426	8	0.013319	60	10	60-180	60	92	GapExp	BigFlash	0	44	2	3	1	target	1	400	800	73717	13.328	10.393	16.258
ProbeTrack15	2	ProbeTrack	15.0	SCS215b	20120202.123943	20120202.124432	8	0.013319	60	10	60-180	60	93	GapExp	BigFlash	0	45	2	0	1	target	1	545	728	74445	13.328	13.099	13.551
ProbeTrack15	2	ProbeTrack	15.0	SCS215b	20120202.123943	20120202.124438	8	0.013319	60	10	60-180	60	144	GapExp	BigFlash	0	46	2	3	0	distractor	1	439	781	75226	13.328	13.305	13.349
ProbeTrack15	2	ProbeTrack	15.0	SCS215b	20120202.123943	20120202.124444	8	0.013319	60	10	60-180	60	179	GapExp	BigFlash	0	47	2	1	1	target	1	449	776	76002	13.328	13.099	13.571
ProbeTrack15	2	ProbeTrack	15.0	SCS215b	20120202.123943	20120202.124451	8	0.013319	60	10	60-180	60	65	GapExp	BigFlash	0	48	2	30	0	distractor	1	487	757	76759	13.328	4.425	22.233
ProbeTrack15	2	ProbeTrack	15.0	SCS215b	20120202.123943	20120202.124457	8	0.013319	60	10	60-180	60	159	GapExp	BigFlash	0	49	2	1	0	distractor	1	426	787	77546	13.328	13.101	13.551
ProbeTrack15	2	ProbeTrack	15.0	SCS215b	20120202.123943	20120202.124504	8	0.013319	60	10	60-180	60	176	GapExp	BigFlash	0	50	2	1	0	distractor	1	411	795	78341	13.328	4.629	22.021
ProbeTrack15	2	ProbeTrack	15.0	SCS215b	20120202.123943	20120202.124512	8	0.013319	60	10	60-180	60	61	GapExp	BigFlash	0	51	2	1	1	target	1	446	777	79118	13.328	13.311	13.347
ProbeTrack15	2	ProbeTrack	15.0	SCS215b	20120202.123943	20120202.124531	8	0.013319	60	10	60-180	60	152	GapExp	BigFlash	0	52	2	0	1	target	1	472	764	79882	13.328	7.258	19.410
ProbeTrack15	2	ProbeTrack	15.0	SCS215b	20120202.123943	20120202.124537	8	0.013319	60	10	60-180	60	171	GapExp	BigFlash	0	53	2	0	0	distractor	1	417	792	80674	13.328	11.820	14.831
ProbeTrack15	2	ProbeTrack	15.0	SCS215b	20120202.123943	20120202.124544	8	0.013319	60	10	60-180	60	167	GapExp	BigFlash	0	54	2	1	0	distractor	1	397	802	81476	13.328	12.890	13.758
ProbeTrack15	2	ProbeTrack	15.0	SCS215b	20120202.123943	20120202.124550	8	0.013319	60	10	60-180	60	118	GapExp	BigFlash	0	55	2	0	1	target	1	461	770	82246	13.328	10.378	16.310
ProbeTrack15	2	ProbeTrack	15.0	SCS215b	20120202.123943	20120202.124556	8	0.013319	60	10	60-180	60	115	GapExp	BigFlash	0	56	2	3	1	target	1	416	792	83038	13.328	10.781	15.868
ProbeTrack15	2	ProbeTrack	15.0	SCS215b	20120202.123943	20120202.124602	8	0.013319	60	10	60-180	60	168	GapExp	BigFlash	0	57	2	0	1	target	1	374	813	83851	13.328	6.949	19.703
ProbeTrack15	2	ProbeTrack	15.0	SCS215b	20120202.123943	20120202.124609	8	0.013319	60	10	60-180	60	147	GapExp	BigFlash	0	58	2	0	1	target	1	379	811	84662	13.328	11.462	15.192
ProbeTrack15	2	ProbeTrack	15.0	SCS215b	20120202.123943	20120202.124615	8	0.013319	60	10	60-180	60	140	GapExp	BigFlash	0	59	2	30	1	target	1	372	814	85476	13.328	13.102	13.550
ProbeTrack15	2	ProbeTrack	15.0	SCS215b	20120202.123943	20120202.124622	8	0.013319	60	10	60-180	60	64	GapExp	BigFlash	0	60	2	0	1	target	1	401	800	86276	13.328	5.985	20.674
ProbeTrack15	2	ProbeTrack	15.0	SCS215b	20120202.123943	20120202.124627	8	0.013319	60	10	60-180	60	84	GapExp	BigFlash	0	61	2	30	0	distractor	1	463	769	87045	13.328	13.311	13.350
ProbeTrack15	2	ProbeTrack	15.0	SCS215b	20120202.123943	20120202.124633	8	0.013319	60	10	60-180	60	97	GapExp	BigFlash	0	62	2	3	0	distractor	1	409	796	87841	13.328	10.395	16.258
ProbeTrack15	2	ProbeTrack	15.0	SCS215b	20120202.123943	20120202.124639	8	0.013319	60	10	60-180	60	157	GapExp	BigFlash	0	63	2	0	0	distractor	1	371	815	88656	13.328	13.309	13.358
ProbeTrack15	2	ProbeTrack	15.0	SCS215b	20120202.123943	20120202.124645	8	0.013319	60	10	60-180	60	85	GapExp	BigFlash	0	64	2	30	0	distractor	1	447	777	89433	13.385	10.919	25.432
ProbeTrack15	2	ProbeTrack	15.0	SCS215b	20120202.123943	20120202.124651	8	0.013319	60	10	60-180	60	99	GapExp	BigFlash	0	65	2	1	0	distractor	1	372	814	90247	13.328	12.362	14.289
ProbeTrack15	2	ProbeTrack	15.0	SCS215b	20120202.123943	20120202.124656	8	0.013319	60	10	60-180	60	141	GapExp	BigFlash	0	66	2	30	1	target	1	484	758	91005	13.328	13.258	13.391
ProbeTrack15	2	ProbeTrack	15.0	SCS215b	20120202.123943	20120202.124704	8	0.013319	60	10	60-180	60	125	GapExp	BigFlash	0	67	2	3	1	target	1	412	794	91799	13.328	8.599	18.057
ProbeTrack15	2	ProbeTrack	15.0	SCS215b	20120202.123943	20120202.124710	8	0.013319	60	10	60-180	60	66	GapExp	BigFlash	0	68	2	3	0	distractor	1	370	815	92614	13.328	7.713	18.940
ProbeTrack15	2	ProbeTrack	15.0	SCS215b	20120202.123943	20120202.124715	8	0.013319	60	10	60-180	60	130	GapExp	BigFlash	0	69	2	0	0	distractor	1	386	807	93421	13.328	6.308	20.349
ProbeTrack15	2	ProbeTrack	15.0	SCS215b	20120202.123943	20120202.124721	8	0.013319	60	10	60-180	60	128	GapExp	BigFlash	0	70	2	1	1	target	1	375	813	94234	13.328	11.371	15.280
ProbeTrack15	2	ProbeTrack	15.0	SCS215b	20120202.123943	20120202.124727	8	0.013319	60	10	60-180	60	88	GapExp	BigFlash	0	71	2	1	0	distractor	1	377	812	95046	13.328	7.732	18.920
ProbeTrack15	2	ProbeTrack	15.0	SCS215b	20120202.123943	20120202.124733	8	0.013319	60	10	60-180	60	139	GapExp	BigFlash	0	72	2	3	0	distractor	1	301	850	95896	13.328	5.283	21.365
ProbeTrack15	2	ProbeTrack	15.0	SCS215b	20120202.123943	20120202.124739	8	0.013319	60	10	60-180	60	81	GapExp	BigFlash	0	73	2	1	1	target	1	368	816	96712	13.328	13.083	13.568
ProbeTrack15	2	ProbeTrack	15.0	SCS215b	20120202.123943	20120202.124747	8	0.013319	60	10	60-180	60	73	GapExp	BigFlash	0	74	2	3	1	target	1	353	824	97536	13.328	10.855	15.803
ProbeTrack15	2	ProbeTrack	15.0	SCS215b	20120202.123943	20120202.124752	8	0.013319	60	10	60-180	60	80	GapExp	BigFlash	0	75	2	3	1	target	1	332	834	98370	13.328	13.312	13.352
ProbeTrack15	2	ProbeTrack	15.0	SCS215b	20120202.123943	20120202.124758	8	0.013319	60	10	60-180	60	78	GapExp	BigFlash	0	76	2	3	1	target	1	428	786	99156	13.328	13.311	13.348
ProbeTrack15	2	ProbeTrack	15.0	SCS215b	20120202.123943	20120202.124803	8	0.013319	60	10	60-180	60	169	GapExp	BigFlash	0	77	2	1	1	target	1	414	793	99949	13.328	9.779	16.869
ProbeTrack15	2	ProbeTrack	15.0	SCS215b	20120202.123943	20120202.124810	8	0.013319	60	10	60-180	60	96	GapExp	BigFlash	0	78	2	0	0	distractor	1	412	794	100743	13.328	13.312	13.348
ProbeTrack15	2	ProbeTrack	15.0	SCS215b	20120202.123943	20120202.124816	8	0.013319	60	10	60-180	60	105	GapExp	BigFlash	0	79	2	30	1	target	1	401	800	101543	13.328	8.168	18.506
ProbeTrack15	2	ProbeTrack	15.0	SCS215b	20120202.123943	20120202.124822	8	0.013319	60	10	60-180	60	81	GapExp	BigFlash	0	80	2	0	1	target	1	330	835	102378	13.328	13.102	13.549
ProbeTrack15	2	ProbeTrack	15.0	SCS215b	20120202.123943	20120202.124827	8	0.013319	60	10	60-180	60	71	GapExp	BigFlash	0	81	2	0	1	target	1	312	844	103222	13.328	13.291	13.361
ProbeTrack15	2	ProbeTrack	15.0	SCS215b	20120202.123943	20120202.124833	8	0.013319	60	10	60-180	60	71	GapExp	BigFlash	0	82	2	1	0	distractor	1	390	805	104027	13.328	8.454	18.195
ProbeTrack15	2	ProbeTrack	15.0	SCS215b	20120202.123943	20120202.124838	8	0.013319	60	10	60-180	60	132	GapExp	BigFlash	0	83	2	30	0	distractor	1	551	725	104752	13.328	9.350	17.300
ProbeTrack15	2	ProbeTrack	15.0	SCS215b	20120202.123943	20120202.124845	8	0.013319	60	10	60-180	60	146	GapExp	BigFlash	0	84	2	3	0	distractor	1	394	803	105555	13.328	13.307	13.352
ProbeTrack15	2	ProbeTrack	15.0	SCS215b	20120202.123943	20120202.124851	8	0.013319	60	10	60-180	60	168	GapExp	BigFlash	0	85	2	30	0	distractor	1	478	761	106316	13.328	13.100	13.553
ProbeTrack15	2	ProbeTrack	15.0	SCS215b	20120202.123943	20120202.124858	8	0.013319	60	10	60-180	60	158	GapExp	BigFlash	0	86	2	3	0	distractor	1	458	771	107087	13.328	13.103	13.550
ProbeTrack15	2	ProbeTrack	15.0	SCS215b	20120202.123943	20120202.124905	8	0.013319	60	10	60-180	60	62	GapExp	BigFlash	0	87	2	1	1	target	1	398	801	107888	13.328	7.969	18.680
ProbeTrack15	2	ProbeTrack	15.0	SCS215b	20120202.123943	20120202.124910	8	0.013319	60	10	60-180	60	70	GapExp	BigFlash	0	88	2	1	1	target	1	339	831	108719	13.328	8.553	18.102
ProbeTrack15	2	ProbeTrack	15.0	SCS215b	20120202.123943	20120202.124916	8	0.013319	60	10	60-180	60	158	GapExp	BigFlash	0	89	2	0	1	target	1	367	817	109536	13.328	8.408	18.264
ProbeTrack15	2	ProbeTrack	15.0	SCS215b	20120202.123943	20120202.124922	8	0.013319	60	10	60-180	60	97	GapExp	BigFlash	0	90	2	1	0	distractor	1	412	794	110330	13.328	8.744	17.907
ProbeTrack15	2	ProbeTrack	15.0	SCS215b	20120202.123943	20120202.124928	8	0.013319	60	10	60-180	60	73	GapExp	BigFlash	0	91	2	3	0	distractor	1	619	691	111021	13.328	13.308	13.348
ProbeTrack15	2	ProbeTrack	15.0	SCS215b	20120202.123943	20120202.124934	8	0.013319	60	10	60-180	60	92	GapExp	BigFlash	0	92	2	0	1	target	1	359	821	111842	13.328	12.959	13.693
ProbeTrack15	2	ProbeTrack	15.0	SCS215b	20120202.123943	20120202.124939	8	0.013319	60	10	60-180	60	88	GapExp	BigFlash	0	93	2	3	0	early	-4	-2171	-1000	110842	13.328	13.095	13.559
ProbeTrack15	2	ProbeTrack	15.0	SCS215b	20120202.123943	20120202.124945	8	0.013319	60	10	60-180	60	81	GapExp	BigFlash	0	94	2	1	1	target	1	470	765	111607	13.328	13.100	13.546
ProbeTrack15	2	ProbeTrack	15.0	SCS215b	20120202.123943	20120202.124951	8	0.013319	60	10	60-180	60	141	GapExp	BigFlash	0	95	2	1	1	target	1	397	802	112409	13.328	13.300	13.357
ProbeTrack15	2	ProbeTrack	15.0	SCS215b	20120202.123943	20120202.124957	8	0.013319	60	10	60-180	60	84	GapExp	BigFlash	0	96	2	0	1	target	1	370	815	113224	13.328	13.308	13.351
ProbeTrack15	2	ProbeTrack	15.0	SCS215b	20120202.123943	20120202.125003	8	0.013319	60	10	60-180	60	146	GapExp	BigFlash	0	97	2	3	0	distractor	1	373	814	114038	13.328	8.597	18.054
ProbeTrack15	2	ProbeTrack	15.0	SCS215b	20120202.123943	20120202.125009	8	0.013319	60	10	60-180	60	177	GapExp	BigFlash	0	98	2	30	1	target	1	465	768	114806	13.328	13.297	13.363
ProbeTrack15	2	ProbeTrack	15.0	SCS215b	20120202.123943	20120202.125017	8	0.013319	60	10	60-180	60	160	GapExp	BigFlash	0	99	2	0	0	distractor	1	449	776	115582	13.328	13.290	13.364
ProbeTrack15	2	ProbeTrack	15.0	SCS215b	20120202.123943	20120202.125025	8	0.013319	60	10	60-180	60	127	GapExp	BigFlash	0	100	2	3	1	target	1	423	789	116371	13.328	13.310	13.353
ProbeTrack15	2	ProbeTrack	15.0	SCS215b	20120202.123943	20120202.125031	8	0.013319	60	10	60-180	60	62	GapExp	BigFlash	0	101	2	3	0	distractor	1	444	778	117149	13.328	10.779	15.904
ProbeTrack15	2	ProbeTrack	15.0	SCS215b	20120202.123943	20120202.125044	8	0.013319	60	10	60-180	60	67	GapExp	BigFlash	0	102	2	3	1	target	1	427	787	117936	13.328	13.295	13.359
ProbeTrack15	2	ProbeTrack	15.0	SCS215b	20120202.123943	20120202.125049	8	0.013319	60	10	60-180	60	162	GapExp	BigFlash	0	103	2	1	0	distractor	1	418	791	118727	13.328	13.108	13.550
ProbeTrack15	2	ProbeTrack	15.0	SCS215b	20120202.123943	20120202.125056	8	0.013319	60	10	60-180	60	74	GapExp	BigFlash	0	104	2	30	0	distractor	1	471	765	119492	13.387	8.277	24.685
ProbeTrack15	2	ProbeTrack	15.0	SCS215b	20120202.123943	20120202.125102	8	0.013319	60	10	60-180	60	166	GapExp	BigFlash	0	105	2	30	0	distractor	1	487	757	120249	13.328	11.890	14.946
ProbeTrack15	2	ProbeTrack	15.0	SCS215b	20120202.123943	20120202.125110	8	0.013319	60	10	60-180	60	104	GapExp	BigFlash	0	106	2	30	1	target	1	410	795	121044	13.328	12.713	13.957
ProbeTrack15	2	ProbeTrack	15.0	SCS215b	20120202.123943	20120202.125116	8	0.013319	60	10	60-180	60	168	GapExp	BigFlash	0	107	2	0	0	distractor	1	393	804	121848	13.328	12.747	13.909
ProbeTrack15	2	ProbeTrack	15.0	SCS215b	20120202.123943	20120202.125122	8	0.013319	60	10	60-180	60	120	GapExp	BigFlash	0	108	2	30	0	distractor	1	438	781	122629	13.328	13.093	13.551
ProbeTrack15	2	ProbeTrack	15.0	SCS215b	20120202.123943	20120202.125129	8	0.013319	60	10	60-180	60	101	GapExp	BigFlash	0	109	2	0	0	distractor	1	380	810	123439	13.328	11.662	14.988
ProbeTrack15	2	ProbeTrack	15.0	SCS215b	20120202.123943	20120202.125135	8	0.013319	60	10	60-180	60	176	GapExp	BigFlash	0	110	2	1	0	distractor	1	774	613	124052	13.328	13.296	13.348
ProbeTrack15	2	ProbeTrack	15.0	SCS215b	20120202.123943	20120202.125142	8	0.013319	60	10	60-180	60	109	GapExp	BigFlash	0	111	2	30	1	target	1	351	825	124877	13.328	13.298	13.362
ProbeTrack15	2	ProbeTrack	15.0	SCS215b	20120202.123943	20120202.125148	8	0.013319	60	10	60-180	60	128	GapExp	BigFlash	0	112	2	3	0	distractor	1	433	784	125661	13.328	10.607	16.064
ProbeTrack15	2	ProbeTrack	15.0	SCS215b	20120202.123943	20120202.125154	8	0.013319	60	10	60-180	60	153	GapExp	BigFlash	0	113	2	0	1	target	1	513	744	126405	13.328	13.311	13.354
ProbeTrack15	2	ProbeTrack	15.0	SCS215b	20120202.123943	20120202.125201	8	0.013319	60	10	60-180	60	89	GapExp	BigFlash	0	114	2	0	0	distractor	1	374	813	127218	13.328	13.279	13.381
ProbeTrack15	2	ProbeTrack	15.0	SCS215b	20120202.123943	20120202.125207	8	0.013319	60	10	60-180	60	145	GapExp	BigFlash	0	115	2	0	1	target	1	349	826	128044	13.328	13.092	13.565
ProbeTrack15	2	ProbeTrack	15.0	SCS215b	20120202.123943	20120202.125213	8	0.013319	60	10	60-180	60	96	GapExp	BigFlash	0	116	2	30	1	target	1	387	807	128851	13.328	13.309	13.348
ProbeTrack15	2	ProbeTrack	15.0	SCS215b	20120202.123943	20120202.125219	8	0.013319	60	10	60-180	60	173	GapExp	BigFlash	0	117	2	30	1	target	1	371	815	129666	13.328	10.865	15.795
ProbeTrack15	2	ProbeTrack	15.0	SCS215b	20120202.123943	20120202.125226	8	0.013319	60	10	60-180	60	135	GapExp	BigFlash	0	118	2	30	0	distractor	1	482	759	130425	13.328	13.099	13.576
ProbeTrack15	2	ProbeTrack	15.0	SCS215b	20120202.123943	20120202.125233	8	0.013319	60	10	60-180	60	80	GapExp	BigFlash	0	119	2	30	0	distractor	1	437	782	131207	13.328	13.119	13.537
ProbeTrack15	2	ProbeTrack	15.0	SCS215b	20120202.123943	20120202.125239	8	0.013319	60	10	60-180	60	137	GapExp	BigFlash	0	120	2	1	1	target	1	436	782	131989	13.328	13.167	13.507
ProbeTrack15	2	ProbeTrack	15.0	SCS215b	20120202.123943	20120202.125245	8	0.013319	60	10	60-180	60	75	GapExp	BigFlash	0	121	2	1	1	target	1	501	750	132739	13.328	13.309	13.348
ProbeTrack15	2	ProbeTrack	15.0	SCS215b	20120202.123943	20120202.125251	8	0.013319	60	10	60-180	60	167	GapExp	BigFlash	0	122	2	30	1	target	1	484	758	133497	13.328	13.311	13.349
ProbeTrack15	2	ProbeTrack	15.0	SCS215b	20120202.123943	20120202.125259	8	0.013319	60	10	60-180	60	65	GapExp	BigFlash	0	123	2	30	0	distractor	1	486	757	134254	13.328	13.314	13.350
ProbeTrack15	2	ProbeTrack	15.0	SCS215b	20120202.123943	20120202.125306	8	0.013319	60	10	60-180	60	111	GapExp	BigFlash	0	124	2	30	1	target	1	377	812	135066	13.328	11.877	14.767
ProbeTrack15	2	ProbeTrack	15.0	SCS215b	20120202.123943	20120202.125312	8	0.013319	60	10	60-180	60	112	GapExp	BigFlash	0	125	2	0	0	distractor	1	424	788	135854	13.328	8.022	18.627
ProbeTrack15	2	ProbeTrack	15.0	SCS215b	20120202.123943	20120202.125317	8	0.013319	60	10	60-180	60	152	GapExp	BigFlash	0	126	2	3	1	target	1	389	806	136660	13.328	13.100	13.561
ProbeTrack15	2	ProbeTrack	15.0	SCS215b	20120202.123943	20120202.125324	8	0.013319	60	10	60-180	60	109	GapExp	BigFlash	0	127	2	30	0	distractor	1	431	785	137445	13.328	12.238	14.424
ProbeTrack15	2	ProbeTrack	15.0	SCS215b	20120202.123943	20120202.125330	8	0.013319	60	10	60-180	60	137	GapExp	BigFlash	0	128	2	1	1	target	1	348	826	138271	13.328	13.019	13.622
ProbeTrack15	2	ProbeTrack	15.0	SCS215b	20120202.123943	20120202.125336	8	0.013319	60	10	60-180	60	61	GapExp	BigFlash	0	129	2	30	1	distractor	0	427	-1000	137271	13.328	13.086	13.572
ProbeTrack15	2	ProbeTrack	15.0	SCS215b	20120202.123943	20120202.125342	8	0.013319	60	10	60-180	60	111	GapExp	BigFlash	0	130	2	3	1	target	1	348	826	138097	13.328	11.208	15.443
ProbeTrack15	2	ProbeTrack	15.0	SCS215b	20120202.123943	20120202.125348	8	0.013319	60	10	60-180	60	129	GapExp	BigFlash	0	131	2	30	1	target	1	347	827	138924	13.328	12.997	13.670
ProbeTrack15	2	ProbeTrack	15.0	SCS215b	20120202.123943	20120202.125355	8	0.013319	60	10	60-180	60	67	GapExp	BigFlash	0	132	2	1	0	distractor	1	482	759	139683	13.328	13.241	13.408
ProbeTrack15	2	ProbeTrack	15.0	SCS215b	20120202.123943	20120202.125400	8	0.013319	60	10	60-180	60	85	GapExp	BigFlash	0	133	2	1	0	distractor	1	375	813	140496	13.328	13.302	13.350
ProbeTrack15	2	ProbeTrack	15.0	SCS215b	20120202.123943	20120202.125405	8	0.013319	60	10	60-180	60	135	GapExp	BigFlash	0	134	2	0	1	target	1	393	804	141300	13.328	12.719	13.936
ProbeTrack15	2	ProbeTrack	15.0	SCS215b	20120202.123943	20120202.125412	8	0.013319	60	10	60-180	60	146	GapExp	BigFlash	0	135	2	1	1	target	1	487	757	142057	13.328	13.098	13.551
ProbeTrack15	2	ProbeTrack	15.0	SCS215b	20120202.123943	20120202.125418	8	0.013319	60	10	60-180	60	82	GapExp	BigFlash	0	136	2	0	0	distractor	1	540	730	142787	13.328	13.097	13.551
ProbeTrack15	2	ProbeTrack	15.0	SCS215b	20120202.123943	20120202.125424	8	0.013319	60	10	60-180	60	143	GapExp	BigFlash	0	137	2	3	0	distractor	1	443	779	143566	13.328	13.308	13.348
ProbeTrack15	2	ProbeTrack	15.0	SCS215b	20120202.123943	20120202.125430	8	0.013319	60	10	60-180	60	68	GapExp	BigFlash	0	138	2	1	1	target	1	515	743	144309	13.328	13.312	13.356
ProbeTrack15	2	ProbeTrack	15.0	SCS215b	20120202.123943	20120202.125437	8	0.013319	60	10	60-180	60	155	GapExp	BigFlash	0	139	2	1	0	distractor	1	392	804	145113	13.328	13.309	13.347
ProbeTrack15	2	ProbeTrack	15.0	SCS215b	20120202.123943	20120202.125444	8	0.013319	60	10	60-180	60	142	GapExp	BigFlash	0	140	2	0	1	target	1	397	802	145915	13.328	13.074	13.594
ProbeTrack15	2	ProbeTrack	15.0	SCS215b	20120202.123943	20120202.125450	8	0.013319	60	10	60-180	60	90	GapExp	BigFlash	0	141	2	3	1	target	1	364	818	146733	13.328	13.310	13.352
ProbeTrack15	2	ProbeTrack	15.0	SCS215b	20120202.123943	20120202.125456	8	0.013319	60	10	60-180	60	169	GapExp	BigFlash	0	142	2	1	1	target	1	348	826	147559	13.328	13.311	13.348
ProbeTrack15	2	ProbeTrack	15.0	SCS215b	20120202.123943	20120202.125502	8	0.013319	60	10	60-180	60	88	GapExp	BigFlash	0	143	2	1	0	distractor	1	442	779	148338	13.328	13.016	13.635
ProbeTrack15	2	ProbeTrack	15.0	SCS215b	20120202.123943	20120202.125508	8	0.013319	60	10	60-180	60	98	GapExp	BigFlash	0	144	2	1	0	distractor	1	460	770	149108	13.328	13.103	13.570
ProbeTrack15	2	ProbeTrack	15.0	SCS215b	20120202.123943	20120202.125515	8	0.013319	60	10	60-180	60	106	GapExp	BigFlash	0	145	2	30	0	distractor	1	381	810	149918	13.328	13.103	13.551
ProbeTrack15	2	ProbeTrack	15.0	SCS215b	20120202.123943	20120202.125522	8	0.013319	60	10	60-180	60	129	GapExp	BigFlash	0	146	2	30	1	target	1	529	736	150654	13.328	13.103	13.549
ProbeTrack15	2	ProbeTrack	15.0	SCS215b	20120202.123943	20120202.125529	8	0.013319	60	10	60-180	60	174	GapExp	BigFlash	0	147	2	0	0	distractor	1	382	809	151463	13.328	13.308	13.349
ProbeTrack15	2	ProbeTrack	15.0	SCS215b	20120202.123943	20120202.125539	8	0.013319	60	10	60-180	60	170	GapExp	BigFlash	0	148	2	30	1	target	1	452	774	152237	13.328	12.298	14.357
ProbeTrack15	2	ProbeTrack	15.0	SCS215b	20120202.123943	20120202.125558	8	0.013319	60	10	60-180	60	132	GapExp	BigFlash	0	149	2	3	0	distractor	1	362	819	153056	13.328	13.102	13.548
ProbeTrack15	2	ProbeTrack	15.0	SCS215b	20120202.123943	20120202.125605	8	0.013319	60	10	60-180	60	83	GapExp	BigFlash	0	150	2	3	1	target	1	426	787	153843	13.328	11.751	14.898
ProbeTrack15	2	ProbeTrack	15.0	SCS215b	20120202.123943	20120202.125610	8	0.013319	60	10	60-180	60	68	GapExp	BigFlash	0	151	2	30	0	distractor	1	464	768	154611	13.328	12.878	13.767
ProbeTrack15	2	ProbeTrack	15.0	SCS215b	20120202.123943	20120202.125616	8	0.013319	60	10	60-180	60	142	GapExp	BigFlash	0	152	2	1	0	distractor	1	394	803	155414	13.328	13.311	13.347
ProbeTrack15	2	ProbeTrack	15.0	SCS215b	20120202.123943	20120202.125622	8	0.013319	60	10	60-180	60	153	GapExp	BigFlash	0	153	2	1	1	target	1	508	746	156160	13.328	13.308	13.347
ProbeTrack15	2	ProbeTrack	15.0	SCS215b	20120202.123943	20120202.125629	8	0.013319	60	10	60-180	60	69	GapExp	BigFlash	0	154	2	0	0	distractor	1	386	807	156967	13.328	8.083	18.570
ProbeTrack15	2	ProbeTrack	15.0	SCS215b	20120202.123943	20120202.125634	8	0.013319	60	10	60-180	60	157	GapExp	BigFlash	0	155	2	3	1	target	1	448	776	157743	13.328	13.314	13.348
ProbeTrack15	2	ProbeTrack	15.0	SCS215b	20120202.123943	20120202.125641	8	0.013319	60	10	60-180	60	98	GapExp	BigFlash	0	156	2	0	1	target	1	388	806	158549	13.328	13.095	13.570
ProbeTrack15	2	ProbeTrack	15.0	SCS215b	20120202.123943	20120202.125646	8	0.013319	60	10	60-180	60	155	GapExp	BigFlash	0	157	2	0	0	distractor	1	492	754	159303	13.328	6.644	20.007
ProbeTrack15	2	ProbeTrack	15.0	SCS215b	20120202.123943	20120202.125653	8	0.013319	60	10	60-180	60	112	GapExp	BigFlash	0	158	2	1	0	distractor	1	373	814	160117	13.328	13.102	13.570
ProbeTrack15	2	ProbeTrack	15.0	SCS215b	20120202.123943	20120202.125658	8	0.013319	60	10	60-180	60	172	GapExp	BigFlash	0	159	2	1	0	distractor	1	433	784	160901	13.328	13.101	13.571
ProbeTrack15	2	ProbeTrack	15.0	SCS215b	20120202.123943	20120202.125706	8	0.013319	60	10	60-180	60	138	GapExp	BigFlash	0	160	2	0	0	distractor	1	364	818	161719	13.328	13.088	13.571
ProbeTrack15	2	ProbeTrack	15.0	SCS215b	20120202.123943	20120202.125712	8	0.013319	60	10	60-180	60	175	GapExp	BigFlash	0	161	2	3	1	target	1	381	810	162529	13.305	6.566	13.349
ProbeTrack15	2	ProbeTrack	15.0	SCS215b	20120202.123943	20120202.125718	8	0.013319	60	10	60-180	60	88	GapExp	BigFlash	0	162	2	0	1	target	1	458	771	163300	13.328	13.264	13.397
ProbeTrack15	2	ProbeTrack	15.0	SCS215b	20120202.123943	20120202.125724	8	0.013319	60	10	60-180	60	131	GapExp	BigFlash	0	163	2	0	0	distractor	1	406	797	164097	13.328	13.267	13.391
ProbeTrack15	2	ProbeTrack	15.0	SCS215b	20120202.123943	20120202.125730	8	0.013319	60	10	60-180	60	169	GapExp	BigFlash	0	164	2	30	0	distractor	1	431	785	164882	13.370	7.371	32.606
ProbeTrack15	2	ProbeTrack	15.0	SCS215b	20120202.123943	20120202.125737	8	0.013319	60	10	60-180	60	94	GapExp	BigFlash	0	165	2	0	0	distractor	1	386	807	165689	13.328	11.631	15.042
ProbeTrack15	2	ProbeTrack	15.0	SCS215b	20120202.123943	20120202.125744	8	0.013319	60	10	60-180	60	179	GapExp	BigFlash	0	166	2	3	0	distractor	1	358	821	166510	13.328	13.097	13.555
ProbeTrack15	2	ProbeTrack	15.0	SCS215b	20120202.123943	20120202.125750	8	0.013319	60	10	60-180	60	73	GapExp	BigFlash	0	167	2	0	1	target	1	412	794	167304	13.328	13.109	13.552
ProbeTrack15	2	ProbeTrack	15.0	SCS215b	20120202.123943	20120202.125756	8	0.013319	60	10	60-180	60	95	GapExp	BigFlash	0	168	2	0	1	target	1	372	814	168118	13.328	13.307	13.348
ProbeTrack15	2	ProbeTrack	15.0	SCS215b	20120202.123943	20120202.125801	8	0.013319	60	10	60-180	60	178	GapExp	BigFlash	0	169	2	30	0	distractor	1	398	801	168919	13.328	13.103	13.548
ProbeTrack15	2	ProbeTrack	15.0	SCS215b	20120202.123943	20120202.125809	8	0.013319	60	10	60-180	60	158	GapExp	BigFlash	0	170	2	0	1	target	1	359	821	169740	13.328	13.090	13.563
ProbeTrack15	2	ProbeTrack	15.0	SCS215b	20120202.123943	20120202.125815	8	0.013319	60	10	60-180	60	133	GapExp	BigFlash	0	171	2	30	1	target	1	368	816	170556	13.328	12.581	14.071
ProbeTrack15	2	ProbeTrack	15.0	SCS215b	20120202.123943	20120202.125822	8	0.013319	60	10	60-180	60	116	GapExp	BigFlash	0	172	2	1	1	target	1	339	831	171387	13.328	13.307	13.348
ProbeTrack15	2	ProbeTrack	15.0	SCS215b	20120202.123943	20120202.125828	8	0.013319	60	10	60-180	60	140	GapExp	BigFlash	0	173	2	1	1	target	1	344	828	172215	13.328	13.304	13.349
ProbeTrack15	2	ProbeTrack	15.0	SCS215b	20120202.123943	20120202.125834	8	0.013319	60	10	60-180	60	151	GapExp	BigFlash	0	174	2	30	1	target	1	380	810	173025	13.328	9.425	17.228
ProbeTrack15	2	ProbeTrack	15.0	SCS215b	20120202.123943	20120202.125841	8	0.013319	60	10	60-180	60	87	GapExp	BigFlash	0	175	2	0	1	target	1	370	815	173840	13.328	9.997	16.658
ProbeTrack15	2	ProbeTrack	15.0	SCS215b	20120202.123943	20120202.125847	8	0.013319	60	10	60-180	60	90	GapExp	BigFlash	0	176	2	1	0	distractor	1	466	767	174607	13.328	13.308	13.347
ProbeTrack15	2	ProbeTrack	15.0	SCS215b	20120202.123943	20120202.125852	8	0.013319	60	10	60-180	60	123	GapExp	BigFlash	0	177	2	3	0	distractor	1	371	815	175422	13.328	13.100	13.550
ProbeTrack15	2	ProbeTrack	15.0	SCS215b	20120202.123943	20120202.125859	8	0.013319	60	10	60-180	60	141	GapExp	BigFlash	0	178	2	3	1	target	1	503	749	176171	13.328	13.093	13.556
ProbeTrack15	2	ProbeTrack	15.0	SCS215b	20120202.123943	20120202.125905	8	0.013319	60	10	60-180	60	180	GapExp	BigFlash	0	179	2	3	0	distractor	1	367	817	176988	13.328	13.299	13.354
ProbeTrack15	2	ProbeTrack	15.0	SCS215b	20120202.123943	20120202.125912	8	0.013319	60	10	60-180	60	97	GapExp	BigFlash	0	180	2	1	1	target	1	446	777	177765	13.328	10.368	16.304
ProbeTrack15	2	ProbeTrack	15.0	SCS215b	20120202.123943	20120202.125921	8	0.013319	60	10	60-180	60	70	GapExp	BigFlash	0	181	2	0	0	distractor	1	375	813	178578	13.328	13.103	13.548
ProbeTrack15	2	ProbeTrack	15.0	SCS215b	20120202.123943	20120202.125927	8	0.013319	60	10	60-180	60	133	GapExp	BigFlash	0	182	2	3	1	target	1	408	796	179374	13.328	13.096	13.556
ProbeTrack15	2	ProbeTrack	15.0	SCS215b	20120202.123943	20120202.125933	8	0.013319	60	10	60-180	60	111	GapExp	BigFlash	0	183	2	1	0	distractor	1	412	794	180168	13.328	7.110	19.543
ProbeTrack15	2	ProbeTrack	15.0	SCS215b	20120202.123943	20120202.125939	8	0.013319	60	10	60-180	60	139	GapExp	BigFlash	0	184	2	3	0	distractor	1	357	822	180990	13.328	11.617	15.034
ProbeTrack15	2	ProbeTrack	15.0	SCS215b	20120202.123943	20120202.125948	8	0.013319	60	10	60-180	60	170	GapExp	BigFlash	0	185	2	3	0	distractor	1	346	827	181817	13.328	13.084	13.572
ProbeTrack15	2	ProbeTrack	15.0	SCS215b	20120202.123943	20120202.125955	8	0.013319	60	10	60-180	60	110	GapExp	BigFlash	0	186	2	0	1	target	1	380	810	182627	13.328	8.740	17.910
ProbeTrack15	2	ProbeTrack	15.0	SCS215b	20120202.123943	20120202.130000	8	0.013319	60	10	60-180	60	133	GapExp	BigFlash	0	187	2	30	1	target	1	379	811	183438	13.328	13.297	13.372
ProbeTrack15	2	ProbeTrack	15.0	SCS215b	20120202.123943	20120202.130018	8	0.013319	60	10	60-180	60	74	GapExp	BigFlash	0	188	2	0	1	target	1	345	828	184266	13.328	6.699	19.973
ProbeTrack15	2	ProbeTrack	15.0	SCS215b	20120202.123943	20120202.130024	8	0.013319	60	10	60-180	60	152	GapExp	BigFlash	0	189	2	1	0	distractor	1	349	826	185092	13.328	13.100	13.571
ProbeTrack15	2	ProbeTrack	15.0	SCS215b	20120202.123943	20120202.130030	8	0.013319	60	10	60-180	60	152	GapExp	BigFlash	0	190	2	3	1	target	1	691	655	185747	13.328	13.308	13.347
ProbeTrack15	2	ProbeTrack	15.0	SCS215b	20120202.123943	20120202.130038	8	0.013319	60	10	60-180	60	150	GapExp	BigFlash	0	191	2	3	1	target	1	369	816	186563	13.328	13.096	13.569
ProbeTrack15	2	ProbeTrack	15.0	SCS215b	20120202.123943	20120202.130045	8	0.013319	60	10	60-180	60	84	GapExp	BigFlash	0	192	2	1	0	distractor	1	407	797	187360	13.328	11.887	14.764
ProbeTrack15	2	ProbeTrack	15.0	SCS215b	20120202.123943	20120202.130051	8	0.013319	60	10	60-180	60	175	GapExp	BigFlash	0	193	2	30	1	target	1	384	808	188168	13.328	11.462	15.190
ProbeTrack15	2	ProbeTrack	15.0	SCS215b	20120202.123943	20120202.130058	8	0.013319	60	10	60-180	60	146	GapExp	BigFlash	0	194	2	1	0	distractor	1	456	772	188940	13.328	13.100	13.571
ProbeTrack15	2	ProbeTrack	15.0	SCS215b	20120202.123943	20120202.130105	8	0.013319	60	10	60-180	60	64	GapExp	BigFlash	0	195	2	30	0	distractor	1	646	677	189617	13.328	13.102	13.574
ProbeTrack15	2	ProbeTrack	15.0	SCS215b	20120202.123943	20120202.130111	8	0.013319	60	10	60-180	60	178	GapExp	BigFlash	0	196	2	0	0	distractor	1	416	792	190409	13.328	13.057	13.582
ProbeTrack15	2	ProbeTrack	15.0	SCS215b	20120202.123943	20120202.130119	8	0.013319	60	10	60-180	60	130	GapExp	BigFlash	0	197	2	3	1	target	1	445	778	191187	13.328	13.089	13.572
ProbeTrack15	2	ProbeTrack	15.0	SCS215b	20120202.123943	20120202.130126	8	0.013319	60	10	60-180	60	103	GapExp	BigFlash	0	198	2	0	0	distractor	1	376	812	191999	13.328	13.185	13.466
ProbeTrack15	2	ProbeTrack	15.0	SCS215b	20120202.123943	20120202.130132	8	0.013319	60	10	60-180	60	178	GapExp	BigFlash	0	199	2	30	0	distractor	1	395	803	192802	13.328	13.107	13.551
ProbeTrack15	2	ProbeTrack	15.0	SCS215b	20120202.123943	20120202.130141	8	0.013319	60	10	60-180	60	107	GapExp	BigFlash	0	200	2	1	0	distractor	1	453	774	193576	13.328	13.110	13.541
ProbeTrack15	2	ProbeTrack	15.0	SCS215b	20120202.130305	20120202.130316	8	0.013328	60	10	60-180	60	109	GapPrac	SmallFlash	1	1	2	0	1	target	1	498	751	194327	13.385	13.103	13.548
ProbeTrack15	2	ProbeTrack	15.0	SCS215b	20120202.130305	20120202.130326	8	0.013328	60	10	60-180	60	105	GapPrac	SmallFlash	1	2	2	30	0	distractor	1	417	792	195119	13.328	9.956	15.684
ProbeTrack15	2	ProbeTrack	15.0	SCS215b	20120202.130305	20120202.130333	8	0.013328	60	10	60-180	60	134	GapPrac	SmallFlash	1	3	2	30	1	target	1	388	806	195925	13.328	12.708	13.940
ProbeTrack15	2	ProbeTrack	15.0	SCS215b	20120202.130305	20120202.130340	8	0.013328	60	10	60-180	60	169	GapPrac	SmallFlash	1	4	2	3	1	target	1	337	832	196757	13.328	4.485	22.169
ProbeTrack15	2	ProbeTrack	15.0	SCS215b	20120202.130305	20120202.130347	8	0.013328	60	10	60-180	60	100	GapPrac	SmallFlash	1	5	2	30	0	distractor	1	396	802	197559	13.328	12.755	13.921
ProbeTrack15	2	ProbeTrack	15.0	SCS215b	20120202.130305	20120202.130353	8	0.013328	60	10	60-180	60	160	GapPrac	SmallFlash	1	6	2	1	0	distractor	1	366	817	198376	13.328	12.520	14.156
ProbeTrack15	2	ProbeTrack	15.0	SCS215b	20120202.130305	20120202.130400	8	0.013328	60	10	60-180	60	91	GapPrac	SmallFlash	1	7	2	0	1	target	1	396	802	199178	13.328	13.099	13.553
ProbeTrack15	2	ProbeTrack	15.0	SCS215b	20120202.130305	20120202.130405	8	0.013328	60	10	60-180	60	175	GapPrac	SmallFlash	1	8	2	0	1	target	1	433	784	199962	13.328	12.442	14.210
ProbeTrack15	2	ProbeTrack	15.0	SCS215b	20120202.130305	20120202.130413	8	0.013328	60	10	60-180	60	173	GapPrac	SmallFlash	1	9	2	0	0	distractor	1	367	817	200779	13.328	9.396	17.252
ProbeTrack15	2	ProbeTrack	15.0	SCS215b	20120202.130305	20120202.130421	8	0.013328	60	10	60-180	60	81	GapPrac	SmallFlash	1	10	2	3	1	target	1	379	811	201590	13.328	13.310	13.348
ProbeTrack15	2	ProbeTrack	15.0	SCS215b	20120202.130305	20120202.130426	8	0.013328	60	10	60-180	60	62	GapPrac	SmallFlash	1	11	2	3	0	distractor	1	364	818	202408	13.402	11.287	28.720
ProbeTrack15	2	ProbeTrack	15.0	SCS215b	20120202.130305	20120202.130432	8	0.013328	60	10	60-180	60	164	GapPrac	SmallFlash	1	12	2	30	0	distractor	1	372	814	203222	13.371	12.371	26.614
ProbeTrack15	2	ProbeTrack	15.0	SCS215b	20120202.130305	20120202.130439	8	0.013328	60	10	60-180	60	161	GapPrac	SmallFlash	1	13	2	1	1	target	1	354	823	204045	13.328	13.288	13.383
ProbeTrack15	2	ProbeTrack	15.0	SCS215b	20120202.130305	20120202.130445	8	0.013328	60	10	60-180	60	144	GapPrac	SmallFlash	1	14	2	1	0	distractor	1	350	825	204870	13.328	13.302	13.353
ProbeTrack15	2	ProbeTrack	15.0	SCS215b	20120202.130305	20120202.130452	8	0.013328	60	10	60-180	60	122	GapPrac	SmallFlash	1	15	2	0	0	distractor	1	343	829	205699	13.328	7.389	19.266
ProbeTrack15	2	ProbeTrack	15.0	SCS215b	20120202.130305	20120202.130458	8	0.013328	60	10	60-180	60	84	GapPrac	SmallFlash	1	16	2	3	0	distractor	1	384	808	206507	13.328	13.308	13.348
ProbeTrack15	2	ProbeTrack	15.0	SCS215b	20120202.130305	20120202.130504	8	0.013328	60	10	60-180	60	90	GapPrac	SmallFlash	1	17	2	30	1	target	1	462	769	207276	13.328	13.104	13.549
ProbeTrack15	2	ProbeTrack	15.0	SCS215b	20120202.130305	20120202.130510	8	0.013328	60	10	60-180	60	169	GapPrac	SmallFlash	1	18	2	1	1	target	1	370	815	208091	13.328	10.087	16.564
ProbeTrack15	2	ProbeTrack	15.0	SCS215b	20120202.130305	20120202.130517	8	0.013328	60	10	60-180	60	109	GapPrac	SmallFlash	1	19	2	3	1	target	1	422	789	208880	13.328	10.845	15.806
ProbeTrack15	2	ProbeTrack	15.0	SCS215b	20120202.130305	20120202.130523	8	0.013328	60	10	60-180	60	117	GapPrac	SmallFlash	1	20	2	30	1	target	1	384	808	209688	13.328	13.097	13.552
ProbeTrack15	2	ProbeTrack	15.0	SCS215b	20120202.130636	20120202.130650	8	0.013328	60	10	60-180	60	87	GapExp	SmallFlash	1	1	2	1	1	target	1	401	800	210488	13.393	13.190	13.476
ProbeTrack15	2	ProbeTrack	15.0	SCS215b	20120202.130636	20120202.130657	8	0.013328	60	10	60-180	60	77	GapExp	SmallFlash	1	2	2	3	1	target	1	394	803	211291	13.328	13.101	13.550
ProbeTrack15	2	ProbeTrack	15.0	SCS215b	20120202.130636	20120202.130702	8	0.013328	60	10	60-180	60	96	GapExp	SmallFlash	1	3	2	0	0	distractor	1	417	792	212083	13.328	7.781	18.872
ProbeTrack15	2	ProbeTrack	15.0	SCS215b	20120202.130636	20120202.130707	8	0.013328	60	10	60-180	60	121	GapExp	SmallFlash	1	4	2	1	0	distractor	1	413	794	212877	13.328	13.307	13.350
ProbeTrack15	2	ProbeTrack	15.0	SCS215b	20120202.130636	20120202.130713	8	0.013328	60	10	60-180	60	106	GapExp	SmallFlash	1	5	2	30	1	target	1	411	795	213672	13.328	11.513	15.132
ProbeTrack15	2	ProbeTrack	15.0	SCS215b	20120202.130636	20120202.130719	8	0.013328	60	10	60-180	60	137	GapExp	SmallFlash	1	6	2	0	1	target	1	380	810	214482	13.328	12.723	13.930
ProbeTrack15	2	ProbeTrack	15.0	SCS215b	20120202.130636	20120202.130725	8	0.013328	60	10	60-180	60	168	GapExp	SmallFlash	1	7	2	30	0	distractor	1	384	808	215290	13.328	13.295	13.355
ProbeTrack15	2	ProbeTrack	15.0	SCS215b	20120202.130636	20120202.130733	8	0.013328	60	10	60-180	60	82	GapExp	SmallFlash	1	8	2	3	0	distractor	1	378	811	216101	13.328	6.600	20.051
ProbeTrack15	2	ProbeTrack	15.0	SCS215b	20120202.130636	20120202.130738	8	0.013328	60	10	60-180	60	178	GapExp	SmallFlash	0	9	2	3	0	distractor	1	371	815	216916	13.328	12.635	14.012
ProbeTrack15	2	ProbeTrack	15.0	SCS215b	20120202.130636	20120202.130745	8	0.013328	60	10	60-180	60	101	GapExp	SmallFlash	0	10	2	30	1	target	1	370	815	217731	13.328	13.066	13.605
ProbeTrack15	2	ProbeTrack	15.0	SCS215b	20120202.130636	20120202.130751	8	0.013328	60	10	60-180	60	92	GapExp	SmallFlash	0	11	2	30	1	target	1	358	821	218552	13.328	12.476	14.194
ProbeTrack15	2	ProbeTrack	15.0	SCS215b	20120202.130636	20120202.130756	8	0.013328	60	10	60-180	60	156	GapExp	SmallFlash	0	12	2	0	1	target	1	405	798	219350	13.328	13.101	13.551
ProbeTrack15	2	ProbeTrack	15.0	SCS215b	20120202.130636	20120202.130804	8	0.013328	60	10	60-180	60	156	GapExp	SmallFlash	0	13	2	30	0	distractor	1	383	809	220159	13.328	13.103	13.550
ProbeTrack15	2	ProbeTrack	15.0	SCS215b	20120202.130636	20120202.130810	8	0.013328	60	10	60-180	60	148	GapExp	SmallFlash	0	14	2	30	0	distractor	1	403	799	220958	13.328	13.093	13.560
ProbeTrack15	2	ProbeTrack	15.0	SCS215b	20120202.130636	20120202.130818	8	0.013328	60	10	60-180	60	68	GapExp	SmallFlash	0	15	2	0	0	distractor	1	393	804	221762	13.328	13.312	13.348
ProbeTrack15	2	ProbeTrack	15.0	SCS215b	20120202.130636	20120202.130823	8	0.013328	60	10	60-180	60	63	GapExp	SmallFlash	0	16	2	0	1	target	1	378	811	222573	13.328	7.429	19.218
ProbeTrack15	2	ProbeTrack	15.0	SCS215b	20120202.130636	20120202.130828	8	0.013328	60	10	60-180	60	72	GapExp	SmallFlash	0	17	2	0	1	target	1	383	809	223382	13.328	6.107	20.548
ProbeTrack15	2	ProbeTrack	15.0	SCS215b	20120202.130636	20120202.130833	8	0.013328	60	10	60-180	60	64	GapExp	SmallFlash	0	18	2	30	0	distractor	1	330	835	224217	13.328	6.564	20.089
ProbeTrack15	2	ProbeTrack	15.0	SCS215b	20120202.130636	20120202.130839	8	0.013328	60	10	60-180	60	131	GapExp	SmallFlash	0	19	2	30	0	distractor	1	353	824	225041	13.328	13.095	13.553
ProbeTrack15	2	ProbeTrack	15.0	SCS215b	20120202.130636	20120202.130846	8	0.013328	60	10	60-180	60	89	GapExp	SmallFlash	0	20	2	3	0	distractor	1	391	805	225846	13.328	13.099	13.565
ProbeTrack15	2	ProbeTrack	15.0	SCS215b	20120202.130636	20120202.130852	8	0.013328	60	10	60-180	60	83	GapExp	SmallFlash	0	21	2	3	1	target	1	322	839	226685	13.328	8.966	17.687
ProbeTrack15	2	ProbeTrack	15.0	SCS215b	20120202.130636	20120202.130857	8	0.013328	60	10	60-180	60	164	GapExp	SmallFlash	0	22	2	0	0	distractor	1	342	829	227514	13.328	13.307	13.350
ProbeTrack15	2	ProbeTrack	15.0	SCS215b	20120202.130636	20120202.130903	8	0.013328	60	10	60-180	60	178	GapExp	SmallFlash	0	23	2	30	1	target	1	388	806	228320	13.328	13.298	13.375
ProbeTrack15	2	ProbeTrack	15.0	SCS215b	20120202.130636	20120202.130911	8	0.013328	60	10	60-180	60	149	GapExp	SmallFlash	0	24	2	1	1	target	1	338	831	229151	13.328	11.301	15.350
ProbeTrack15	2	ProbeTrack	15.0	SCS215b	20120202.130636	20120202.130917	8	0.013328	60	10	60-180	60	111	GapExp	SmallFlash	0	25	2	3	0	distractor	1	392	804	229955	13.328	4.863	21.790
ProbeTrack15	2	ProbeTrack	15.0	SCS215b	20120202.130636	20120202.130923	8	0.013328	60	10	60-180	60	129	GapExp	SmallFlash	0	26	2	0	1	target	1	345	828	230783	13.328	13.106	13.551
ProbeTrack15	2	ProbeTrack	15.0	SCS215b	20120202.130636	20120202.130929	8	0.013328	60	10	60-180	60	98	GapExp	SmallFlash	0	27	2	3	1	target	1	376	812	231595	13.328	13.095	13.558
ProbeTrack15	2	ProbeTrack	15.0	SCS215b	20120202.130636	20120202.130934	8	0.013328	60	10	60-180	60	142	GapExp	SmallFlash	0	28	2	3	1	target	1	348	826	232421	13.328	12.900	13.753
ProbeTrack15	2	ProbeTrack	15.0	SCS215b	20120202.130636	20120202.130940	8	0.013328	60	10	60-180	60	117	GapExp	SmallFlash	0	29	2	30	0	distractor	1	326	837	233258	13.328	13.306	13.348
ProbeTrack15	2	ProbeTrack	15.0	SCS215b	20120202.130636	20120202.130947	8	0.013328	60	10	60-180	60	66	GapExp	SmallFlash	0	30	2	30	1	target	1	340	830	234088	13.328	5.717	20.939
ProbeTrack15	2	ProbeTrack	15.0	SCS215b	20120202.130636	20120202.130952	8	0.013328	60	10	60-180	60	139	GapExp	SmallFlash	0	31	2	3	0	distractor	1	517	742	234830	13.328	8.081	18.572
ProbeTrack15	2	ProbeTrack	15.0	SCS215b	20120202.130636	20120202.130959	8	0.013328	60	10	60-180	60	152	GapExp	SmallFlash	0	32	2	3	1	target	1	319	841	235671	13.328	8.508	18.142
ProbeTrack15	2	ProbeTrack	15.0	SCS215b	20120202.130636	20120202.131005	8	0.013328	60	10	60-180	60	80	GapExp	SmallFlash	0	33	2	1	1	target	1	359	821	236492	13.328	13.104	13.548
ProbeTrack15	2	ProbeTrack	15.0	SCS215b	20120202.130636	20120202.131010	8	0.013328	60	10	60-180	60	135	GapExp	SmallFlash	0	34	2	0	1	target	1	389	806	237298	13.328	7.593	19.063
ProbeTrack15	2	ProbeTrack	15.0	SCS215b	20120202.130636	20120202.131017	8	0.013328	60	10	60-180	60	176	GapExp	SmallFlash	0	35	2	0	1	target	1	352	824	238122	13.328	13.102	13.550
ProbeTrack15	2	ProbeTrack	15.0	SCS215b	20120202.130636	20120202.131024	8	0.013328	60	10	60-180	60	123	GapExp	SmallFlash	0	36	2	3	0	distractor	1	426	787	238909	13.328	13.096	13.555
ProbeTrack15	2	ProbeTrack	15.0	SCS215b	20120202.130636	20120202.131030	8	0.013328	60	10	60-180	60	178	GapExp	SmallFlash	0	37	2	30	0	distractor	1	376	812	239721	13.328	13.111	13.539
ProbeTrack15	2	ProbeTrack	15.0	SCS215b	20120202.130636	20120202.131037	8	0.013328	60	10	60-180	60	88	GapExp	SmallFlash	0	38	2	30	1	target	1	373	814	240535	13.328	7.150	19.501
ProbeTrack15	2	ProbeTrack	15.0	SCS215b	20120202.130636	20120202.131043	8	0.013328	60	10	60-180	60	153	GapExp	SmallFlash	0	39	2	0	0	distractor	1	398	801	241336	13.328	13.309	13.349
ProbeTrack15	2	ProbeTrack	15.0	SCS215b	20120202.130636	20120202.131050	8	0.013328	60	10	60-180	60	145	GapExp	SmallFlash	0	40	2	3	1	target	1	599	701	242037	13.328	10.403	16.254
ProbeTrack15	2	ProbeTrack	15.0	SCS215b	20120202.130636	20120202.131056	8	0.013328	60	10	60-180	60	179	GapExp	SmallFlash	0	41	2	3	1	target	1	310	845	242882	13.328	13.293	13.358
ProbeTrack15	2	ProbeTrack	15.0	SCS215b	20120202.130636	20120202.131103	8	0.013328	60	10	60-180	60	174	GapExp	SmallFlash	0	42	2	1	0	distractor	1	380	810	243692	13.328	13.305	13.348
ProbeTrack15	2	ProbeTrack	15.0	SCS215b	20120202.130636	20120202.131110	8	0.013328	60	10	60-180	60	159	GapExp	SmallFlash	0	43	2	1	1	target	1	324	838	244530	13.328	13.307	13.349
ProbeTrack15	2	ProbeTrack	15.0	SCS215b	20120202.130636	20120202.131116	8	0.013328	60	10	60-180	60	74	GapExp	SmallFlash	0	44	2	30	1	distractor	0	354	-1000	243530	13.328	6.388	20.266
ProbeTrack15	2	ProbeTrack	15.0	SCS215b	20120202.130636	20120202.131122	8	0.013328	60	10	60-180	60	83	GapExp	SmallFlash	0	45	2	0	1	target	1	368	816	244346	13.328	13.101	13.550
ProbeTrack15	2	ProbeTrack	15.0	SCS215b	20120202.130636	20120202.131127	8	0.013328	60	10	60-180	60	157	GapExp	SmallFlash	0	46	2	0	1	target	1	375	813	245159	13.328	13.103	13.551
ProbeTrack15	2	ProbeTrack	15.0	SCS215b	20120202.130636	20120202.131134	8	0.013328	60	10	60-180	60	176	GapExp	SmallFlash	0	47	2	1	1	target	1	345	828	245987	13.328	11.188	15.462
ProbeTrack15	2	ProbeTrack	15.0	SCS215b	20120202.130636	20120202.131140	8	0.013328	60	10	60-180	60	66	GapExp	SmallFlash	0	48	2	0	0	distractor	1	484	758	246745	13.328	13.310	13.348
ProbeTrack15	2	ProbeTrack	15.0	SCS215b	20120202.130636	20120202.131146	8	0.013328	60	10	60-180	60	88	GapExp	SmallFlash	0	49	2	30	1	target	1	383	809	247554	13.328	13.313	13.349
ProbeTrack15	2	ProbeTrack	15.0	SCS215b	20120202.130636	20120202.131153	8	0.013328	60	10	60-180	60	164	GapExp	SmallFlash	0	50	2	30	0	distractor	1	380	810	248364	13.328	11.386	15.268
ProbeTrack15	2	ProbeTrack	15.0	SCS215b	20120202.130636	20120202.131159	8	0.013328	60	10	60-180	60	63	GapExp	SmallFlash	0	51	2	3	1	target	1	401	800	249164	13.328	13.311	13.348
ProbeTrack15	2	ProbeTrack	15.0	SCS215b	20120202.130636	20120202.131231	8	0.013328	60	10	60-180	60	111	GapExp	SmallFlash	0	52	2	0	1	target	1	377	812	249976	13.328	12.864	13.788
ProbeTrack15	2	ProbeTrack	15.0	SCS215b	20120202.130636	20120202.131237	8	0.013328	60	10	60-180	60	128	GapExp	SmallFlash	0	53	2	30	0	distractor	1	287	857	250833	13.328	13.117	13.552
ProbeTrack15	2	ProbeTrack	15.0	SCS215b	20120202.130636	20120202.131243	8	0.013328	60	10	60-180	60	122	GapExp	SmallFlash	0	54	2	0	0	distractor	1	418	791	251624	13.328	13.307	13.348
ProbeTrack15	2	ProbeTrack	15.0	SCS215b	20120202.130636	20120202.131249	8	0.013328	60	10	60-180	60	170	GapExp	SmallFlash	0	55	2	3	1	target	1	327	837	252461	13.328	5.909	20.739
ProbeTrack15	2	ProbeTrack	15.0	SCS215b	20120202.130636	20120202.131256	8	0.013328	60	10	60-180	60	104	GapExp	SmallFlash	0	56	2	0	0	distractor	1	459	771	253232	13.328	13.309	13.347
ProbeTrack15	2	ProbeTrack	15.0	SCS215b	20120202.130636	20120202.131302	8	0.013328	60	10	60-180	60	62	GapExp	SmallFlash	0	57	2	1	0	distractor	1	372	814	254046	13.328	13.158	13.493
ProbeTrack15	2	ProbeTrack	15.0	SCS215b	20120202.130636	20120202.131307	8	0.013328	60	10	60-180	60	167	GapExp	SmallFlash	0	58	2	3	0	distractor	1	329	836	254882	13.328	8.072	18.581
ProbeTrack15	2	ProbeTrack	15.0	SCS215b	20120202.130636	20120202.131314	8	0.013328	60	10	60-180	60	99	GapExp	SmallFlash	0	59	2	3	0	distractor	1	371	815	255697	13.328	13.100	13.550
ProbeTrack15	2	ProbeTrack	15.0	SCS215b	20120202.130636	20120202.131319	8	0.013328	60	10	60-180	60	173	GapExp	SmallFlash	0	60	2	1	0	distractor	1	377	812	256509	13.328	13.103	13.550
ProbeTrack15	2	ProbeTrack	15.0	SCS215b	20120202.130636	20120202.131326	8	0.013328	60	10	60-180	60	140	GapExp	SmallFlash	0	61	2	1	1	target	1	400	800	257309	13.328	13.103	13.545
ProbeTrack15	2	ProbeTrack	15.0	SCS215b	20120202.130636	20120202.131333	8	0.013328	60	10	60-180	60	86	GapExp	SmallFlash	0	62	2	1	0	distractor	1	368	816	258125	13.328	13.301	13.348
ProbeTrack15	2	ProbeTrack	15.0	SCS215b	20120202.130636	20120202.131357	8	0.013328	60	10	60-180	60	89	GapExp	SmallFlash	0	63	2	30	1	target	1	325	838	258963	13.328	13.093	13.558
ProbeTrack15	2	ProbeTrack	15.0	SCS215b	20120202.130636	20120202.131403	8	0.013328	60	10	60-180	60	151	GapExp	SmallFlash	0	64	2	3	0	distractor	1	360	820	259783	13.328	6.670	19.990
ProbeTrack15	2	ProbeTrack	15.0	SCS215b	20120202.130636	20120202.131409	8	0.013328	60	10	60-180	60	105	GapExp	SmallFlash	0	65	2	1	1	target	1	518	741	260524	13.328	13.309	13.356
ProbeTrack15	2	ProbeTrack	15.0	SCS215b	20120202.130636	20120202.131415	8	0.013328	60	10	60-180	60	66	GapExp	SmallFlash	0	66	2	1	1	target	1	315	843	261367	13.328	9.585	17.085
ProbeTrack15	2	ProbeTrack	15.0	SCS215b	20120202.130636	20120202.131420	8	0.013328	60	10	60-180	60	107	GapExp	SmallFlash	0	67	2	0	0	distractor	1	344	828	262195	13.328	12.014	14.649
ProbeTrack15	2	ProbeTrack	15.0	SCS215b	20120202.130636	20120202.131426	8	0.013328	60	10	60-180	60	148	GapExp	SmallFlash	0	68	2	1	1	target	1	456	772	262967	13.377	13.152	20.748
ProbeTrack15	2	ProbeTrack	15.0	SCS215b	20120202.130636	20120202.131432	8	0.013328	60	10	60-180	60	95	GapExp	SmallFlash	0	69	2	30	0	distractor	1	462	769	263736	13.328	11.443	15.209
ProbeTrack15	2	ProbeTrack	15.0	SCS215b	20120202.130636	20120202.131439	8	0.013328	60	10	60-180	60	72	GapExp	SmallFlash	0	70	2	0	1	target	1	461	770	264506	13.296	7.217	17.990
ProbeTrack15	2	ProbeTrack	15.0	SCS215b	20120202.130636	20120202.131444	8	0.013328	60	10	60-180	60	133	GapExp	SmallFlash	0	71	2	1	0	distractor	1	350	825	265331	13.328	13.300	13.351
ProbeTrack15	2	ProbeTrack	15.0	SCS215b	20120202.130636	20120202.131450	8	0.013328	60	10	60-180	60	108	GapExp	SmallFlash	0	72	2	30	1	target	1	393	804	266135	13.328	13.103	13.550
ProbeTrack15	2	ProbeTrack	15.0	SCS215b	20120202.130636	20120202.131456	8	0.013328	60	10	60-180	60	137	GapExp	SmallFlash	0	73	2	0	0	distractor	1	379	811	266946	13.328	7.649	19.002
ProbeTrack15	2	ProbeTrack	15.0	SCS215b	20120202.130636	20120202.131502	8	0.013328	60	10	60-180	60	82	GapExp	SmallFlash	0	74	2	0	0	distractor	1	366	817	267763	13.328	13.308	13.352
ProbeTrack15	2	ProbeTrack	15.0	SCS215b	20120202.130636	20120202.131508	8	0.013328	60	10	60-180	60	137	GapExp	SmallFlash	0	75	2	30	0	distractor	1	339	831	268594	13.328	7.931	18.718
ProbeTrack15	2	ProbeTrack	15.0	SCS215b	20120202.130636	20120202.131515	8	0.013328	60	10	60-180	60	173	GapExp	SmallFlash	0	76	2	1	0	distractor	1	356	822	269416	13.328	3.946	22.712
ProbeTrack15	2	ProbeTrack	15.0	SCS215b	20120202.130636	20120202.131521	8	0.013328	60	10	60-180	60	84	GapExp	SmallFlash	0	77	2	3	0	distractor	1	593	704	270120	13.328	7.456	19.197
ProbeTrack15	2	ProbeTrack	15.0	SCS215b	20120202.130636	20120202.131527	8	0.013328	60	10	60-180	60	105	GapExp	SmallFlash	0	78	2	30	0	distractor	1	364	818	270938	13.328	6.599	20.065
ProbeTrack15	2	ProbeTrack	15.0	SCS215b	20120202.130636	20120202.131533	8	0.013328	60	10	60-180	60	71	GapExp	SmallFlash	0	79	2	1	0	distractor	1	410	795	271733	13.328	13.105	13.550
ProbeTrack15	2	ProbeTrack	15.0	SCS215b	20120202.130636	20120202.131540	8	0.013328	60	10	60-180	60	177	GapExp	SmallFlash	0	80	2	30	0	distractor	1	389	806	272539	13.328	7.459	19.212
ProbeTrack15	2	ProbeTrack	15.0	SCS215b	20120202.130636	20120202.131547	8	0.013328	60	10	60-180	60	121	GapExp	SmallFlash	0	81	2	30	0	distractor	1	418	791	273330	13.328	13.112	13.539
ProbeTrack15	2	ProbeTrack	15.0	SCS215b	20120202.130636	20120202.131553	8	0.013328	60	10	60-180	60	103	GapExp	SmallFlash	0	82	2	3	1	target	1	484	758	274088	13.328	13.309	13.353
ProbeTrack15	2	ProbeTrack	15.0	SCS215b	20120202.130636	20120202.131600	8	0.013328	60	10	60-180	60	80	GapExp	SmallFlash	0	83	2	1	0	distractor	1	367	817	274905	13.328	13.103	13.549
ProbeTrack15	2	ProbeTrack	15.0	SCS215b	20120202.130636	20120202.131606	8	0.013328	60	10	60-180	60	102	GapExp	SmallFlash	0	84	2	1	0	distractor	1	372	814	275719	13.328	13.100	13.553
ProbeTrack15	2	ProbeTrack	15.0	SCS215b	20120202.130636	20120202.131613	8	0.013328	60	10	60-180	60	63	GapExp	SmallFlash	0	85	2	30	0	distractor	1	388	806	276525	13.328	12.682	13.990
ProbeTrack15	2	ProbeTrack	15.0	SCS215b	20120202.130636	20120202.131619	8	0.013328	60	10	60-180	60	75	GapExp	SmallFlash	0	86	2	0	0	distractor	1	439	781	277306	13.328	6.154	20.496
ProbeTrack15	2	ProbeTrack	15.0	SCS215b	20120202.130636	20120202.131625	8	0.013328	60	10	60-180	60	111	GapExp	SmallFlash	0	87	2	3	1	target	1	343	829	278135	13.328	12.299	14.352
ProbeTrack15	2	ProbeTrack	15.0	SCS215b	20120202.130636	20120202.131630	8	0.013328	60	10	60-180	60	158	GapExp	SmallFlash	0	88	2	0	0	distractor	1	451	775	278910	13.376	13.303	25.647
ProbeTrack15	2	ProbeTrack	15.0	SCS215b	20120202.130636	20120202.131637	8	0.013328	60	10	60-180	60	72	GapExp	SmallFlash	0	89	2	3	1	distractor	0	481	-1000	277910	13.328	12.858	13.791
ProbeTrack15	2	ProbeTrack	15.0	SCS215b	20120202.130636	20120202.131643	8	0.013328	60	10	60-180	60	72	GapExp	SmallFlash	0	90	2	1	1	target	1	396	802	278712	13.328	12.005	14.683
ProbeTrack15	2	ProbeTrack	15.0	SCS215b	20120202.130636	20120202.131648	8	0.013328	60	10	60-180	60	107	GapExp	SmallFlash	0	91	2	1	1	target	1	349	826	279538	13.328	13.095	13.558
ProbeTrack15	2	ProbeTrack	15.0	SCS215b	20120202.130636	20120202.131655	8	0.013328	60	10	60-180	60	62	GapExp	SmallFlash	0	92	2	0	0	distractor	1	414	793	280331	13.328	10.282	16.374
ProbeTrack15	2	ProbeTrack	15.0	SCS215b	20120202.130636	20120202.131702	8	0.013328	60	10	60-180	60	108	GapExp	SmallFlash	0	93	2	30	1	target	1	332	834	281165	13.328	13.308	13.368
ProbeTrack15	2	ProbeTrack	15.0	SCS215b	20120202.130636	20120202.131709	8	0.013328	60	10	60-180	60	81	GapExp	SmallFlash	0	94	2	1	1	target	1	384	808	281973	13.328	13.296	13.351
ProbeTrack15	2	ProbeTrack	15.0	SCS215b	20120202.130636	20120202.131715	8	0.013328	60	10	60-180	60	136	GapExp	SmallFlash	0	95	2	1	0	distractor	1	464	768	282741	13.328	13.101	13.551
ProbeTrack15	2	ProbeTrack	15.0	SCS215b	20120202.130636	20120202.131723	8	0.013328	60	10	60-180	60	165	GapExp	SmallFlash	0	96	2	3	1	target	1	428	786	283527	13.328	13.275	13.399
ProbeTrack15	2	ProbeTrack	15.0	SCS215b	20120202.130636	20120202.131730	8	0.013328	60	10	60-180	60	121	GapExp	SmallFlash	0	97	2	1	0	distractor	1	383	809	284336	13.328	13.278	13.385
ProbeTrack15	2	ProbeTrack	15.0	SCS215b	20120202.130636	20120202.131736	8	0.013328	60	10	60-180	60	138	GapExp	SmallFlash	0	98	2	1	1	target	1	343	829	285165	13.328	7.981	18.667
ProbeTrack15	2	ProbeTrack	15.0	SCS215b	20120202.130636	20120202.131742	8	0.013328	60	10	60-180	60	121	GapExp	SmallFlash	0	99	2	0	1	target	1	388	806	285971	13.328	13.262	13.388
ProbeTrack15	2	ProbeTrack	15.0	SCS215b	20120202.130636	20120202.131748	8	0.013328	60	10	60-180	60	170	GapExp	SmallFlash	0	100	2	3	1	target	1	322	839	286810	13.328	12.813	13.841
ProbeTrack15	2	ProbeTrack	15.0	SCS215b	20120202.130636	20120202.131756	8	0.013328	60	10	60-180	60	109	GapExp	SmallFlash	0	101	2	0	1	target	1	357	822	287632	13.328	13.101	13.548
ProbeTrack15	2	ProbeTrack	15.0	SCS215b	20120202.130636	20120202.131806	8	0.013328	60	10	60-180	60	153	GapExp	SmallFlash	0	102	2	3	1	target	1	356	822	288454	13.328	13.094	13.557
ProbeTrack15	2	ProbeTrack	15.0	SCS215b	20120202.130636	20120202.131812	8	0.013328	60	10	60-180	60	164	GapExp	SmallFlash	0	103	2	3	1	target	1	368	816	289270	13.328	13.285	13.375
ProbeTrack15	2	ProbeTrack	15.0	SCS215b	20120202.130636	20120202.131819	8	0.013328	60	10	60-180	60	165	GapExp	SmallFlash	0	104	2	0	0	distractor	1	364	818	290088	13.328	13.310	13.361
ProbeTrack15	2	ProbeTrack	15.0	SCS215b	20120202.130636	20120202.131825	8	0.013328	60	10	60-180	60	114	GapExp	SmallFlash	0	105	2	0	1	target	1	318	841	290929	13.328	8.555	18.114
ProbeTrack15	2	ProbeTrack	15.0	SCS215b	20120202.130636	20120202.131831	8	0.013328	60	10	60-180	60	62	GapExp	SmallFlash	0	106	2	30	0	distractor	1	617	692	291621	13.328	13.298	13.367
ProbeTrack15	2	ProbeTrack	15.0	SCS215b	20120202.130636	20120202.131838	8	0.013328	60	10	60-180	60	156	GapExp	SmallFlash	0	107	2	30	1	target	1	336	832	292453	13.328	13.299	13.349
ProbeTrack15	2	ProbeTrack	15.0	SCS215b	20120202.130636	20120202.131844	8	0.013328	60	10	60-180	60	107	GapExp	SmallFlash	0	108	2	0	0	distractor	1	520	740	293193	13.328	13.307	13.348
ProbeTrack15	2	ProbeTrack	15.0	SCS215b	20120202.130636	20120202.131851	8	0.013328	60	10	60-180	60	74	GapExp	SmallFlash	0	109	2	1	1	target	1	369	816	294009	13.328	13.230	13.446
ProbeTrack15	2	ProbeTrack	15.0	SCS215b	20120202.130636	20120202.131856	8	0.013328	60	10	60-180	60	93	GapExp	SmallFlash	0	110	2	1	0	distractor	1	374	813	294822	13.392	13.085	26.615
ProbeTrack15	2	ProbeTrack	15.0	SCS215b	20120202.130636	20120202.131959	8	0.013328	60	10	60-180	60	108	GapExp	SmallFlash	0	111	2	30	1	target	1	369	816	295638	13.328	13.295	13.369
ProbeTrack15	2	ProbeTrack	15.0	SCS215b	20120202.130636	20120202.132005	8	0.013328	60	10	60-180	60	136	GapExp	SmallFlash	0	112	2	3	0	distractor	1	377	812	296450	13.328	13.102	13.551
ProbeTrack15	2	ProbeTrack	15.0	SCS215b	20120202.130636	20120202.132011	8	0.013328	60	10	60-180	60	176	GapExp	SmallFlash	0	113	2	30	1	target	1	385	808	297258	13.328	13.103	13.548
ProbeTrack15	2	ProbeTrack	15.0	SCS215b	20120202.130636	20120202.132019	8	0.013328	60	10	60-180	60	95	GapExp	SmallFlash	0	114	2	30	1	target	1	347	827	298085	13.328	13.100	13.559
ProbeTrack15	2	ProbeTrack	15.0	SCS215b	20120202.130636	20120202.132026	8	0.013328	60	10	60-180	60	103	GapExp	SmallFlash	0	115	2	0	0	distractor	1	392	804	298889	13.328	13.100	13.552
ProbeTrack15	2	ProbeTrack	15.0	SCS215b	20120202.130636	20120202.132033	8	0.013328	60	10	60-180	60	140	GapExp	SmallFlash	0	116	2	3	1	target	1	468	766	299655	13.328	13.299	13.360
ProbeTrack15	2	ProbeTrack	15.0	SCS215b	20120202.130636	20120202.132039	8	0.013328	60	10	60-180	60	123	GapExp	SmallFlash	0	117	2	3	1	target	1	383	809	300464	13.328	12.527	14.140
ProbeTrack15	2	ProbeTrack	15.0	SCS215b	20120202.130636	20120202.132046	8	0.013328	60	10	60-180	60	62	GapExp	SmallFlash	0	118	2	1	1	target	1	363	819	301283	13.328	13.310	13.347
ProbeTrack15	2	ProbeTrack	15.0	SCS215b	20120202.130636	20120202.132051	8	0.013328	60	10	60-180	60	175	GapExp	SmallFlash	0	119	2	1	0	distractor	1	322	839	302122	13.328	13.301	13.349
ProbeTrack15	2	ProbeTrack	15.0	SCS215b	20120202.130636	20120202.132058	8	0.013328	60	10	60-180	60	138	GapExp	SmallFlash	0	120	2	0	1	target	1	333	834	302956	13.328	12.303	14.343
ProbeTrack15	2	ProbeTrack	15.0	SCS215b	20120202.130636	20120202.132104	8	0.013328	60	10	60-180	60	133	GapExp	SmallFlash	0	121	2	0	0	distractor	1	403	799	303755	13.328	13.310	13.350
ProbeTrack15	2	ProbeTrack	15.0	SCS215b	20120202.130636	20120202.132110	8	0.013328	60	10	60-180	60	79	GapExp	SmallFlash	0	122	2	1	0	distractor	1	389	806	304561	13.328	13.312	13.349
ProbeTrack15	2	ProbeTrack	15.0	SCS215b	20120202.130636	20120202.132115	8	0.013328	60	10	60-180	60	103	GapExp	SmallFlash	0	123	2	0	1	target	1	365	818	305379	13.328	13.082	13.571
ProbeTrack15	2	ProbeTrack	15.0	SCS215b	20120202.130636	20120202.132121	8	0.013328	60	10	60-180	60	88	GapExp	SmallFlash	0	124	2	3	1	target	1	364	818	306197	13.328	7.507	19.148
ProbeTrack15	2	ProbeTrack	15.0	SCS215b	20120202.130636	20120202.132127	8	0.013328	60	10	60-180	60	139	GapExp	SmallFlash	0	125	2	3	0	distractor	1	316	842	307039	13.328	13.309	13.350
ProbeTrack15	2	ProbeTrack	15.0	SCS215b	20120202.130636	20120202.132133	8	0.013328	60	10	60-180	60	155	GapExp	SmallFlash	0	126	2	30	1	target	1	350	825	307864	13.328	8.613	18.032
ProbeTrack15	2	ProbeTrack	15.0	SCS215b	20120202.130636	20120202.132141	8	0.013328	60	10	60-180	60	180	GapExp	SmallFlash	0	127	2	30	0	distractor	1	354	823	308687	13.328	13.310	13.349
ProbeTrack15	2	ProbeTrack	15.0	SCS215b	20120202.130636	20120202.132148	8	0.013328	60	10	60-180	60	88	GapExp	SmallFlash	0	128	2	0	0	distractor	1	428	786	309473	13.328	11.345	15.305
ProbeTrack15	2	ProbeTrack	15.0	SCS215b	20120202.130636	20120202.132154	8	0.013328	60	10	60-180	60	138	GapExp	SmallFlash	0	129	2	30	1	target	1	368	816	310289	13.328	12.098	14.573
ProbeTrack15	2	ProbeTrack	15.0	SCS215b	20120202.130636	20120202.132200	8	0.013328	60	10	60-180	60	174	GapExp	SmallFlash	0	130	2	0	1	target	1	378	811	311100	13.328	13.304	13.350
ProbeTrack15	2	ProbeTrack	15.0	SCS215b	20120202.130636	20120202.132207	8	0.013328	60	10	60-180	60	67	GapExp	SmallFlash	0	131	2	3	1	target	1	402	799	311899	13.328	13.313	13.347
ProbeTrack15	2	ProbeTrack	15.0	SCS215b	20120202.130636	20120202.132229	8	0.013328	60	10	60-180	60	144	GapExp	SmallFlash	0	132	2	3	0	distractor	1	388	806	312705	13.328	12.645	14.003
ProbeTrack15	2	ProbeTrack	15.0	SCS215b	20120202.130636	20120202.132235	8	0.013328	60	10	60-180	60	81	GapExp	SmallFlash	0	133	2	3	0	distractor	1	346	827	313532	13.328	13.133	13.530
ProbeTrack15	2	ProbeTrack	15.0	SCS215b	20120202.130636	20120202.132241	8	0.013328	60	10	60-180	60	100	GapExp	SmallFlash	0	134	2	3	1	target	1	384	808	314340	13.328	10.584	16.087
ProbeTrack15	2	ProbeTrack	15.0	SCS215b	20120202.130636	20120202.132246	8	0.013328	60	10	60-180	60	64	GapExp	SmallFlash	0	135	2	30	0	distractor	1	355	823	315163	13.328	10.254	16.396
ProbeTrack15	2	ProbeTrack	15.0	SCS215b	20120202.130636	20120202.132252	8	0.013328	60	10	60-180	60	112	GapExp	SmallFlash	0	136	2	0	1	target	1	311	845	316008	13.328	13.307	13.349
ProbeTrack15	2	ProbeTrack	15.0	SCS215b	20120202.130636	20120202.132258	8	0.013328	60	10	60-180	60	129	GapExp	SmallFlash	0	137	2	1	1	target	1	362	819	316827	13.328	13.310	13.348
ProbeTrack15	2	ProbeTrack	15.0	SCS215b	20120202.130636	20120202.132304	8	0.013328	60	10	60-180	60	137	GapExp	SmallFlash	0	138	2	1	0	distractor	1	357	822	317649	13.328	12.834	13.820
ProbeTrack15	2	ProbeTrack	15.0	SCS215b	20120202.130636	20120202.132310	8	0.013328	60	10	60-180	60	121	GapExp	SmallFlash	0	139	2	3	0	distractor	1	340	830	318479	13.328	13.292	13.375
ProbeTrack15	2	ProbeTrack	15.0	SCS215b	20120202.130636	20120202.132316	8	0.013328	60	10	60-180	60	85	GapExp	SmallFlash	0	140	2	1	0	distractor	1	402	799	319278	13.328	13.102	13.550
ProbeTrack15	2	ProbeTrack	15.0	SCS215b	20120202.130636	20120202.132321	8	0.013328	60	10	60-180	60	148	GapExp	SmallFlash	0	141	2	1	0	distractor	1	354	823	320101	13.328	13.102	13.550
ProbeTrack15	2	ProbeTrack	15.0	SCS215b	20120202.130636	20120202.132328	8	0.013328	60	10	60-180	60	147	GapExp	SmallFlash	0	142	2	1	0	distractor	1	407	797	320898	13.328	12.185	14.472
ProbeTrack15	2	ProbeTrack	15.0	SCS215b	20120202.130636	20120202.132335	8	0.013328	60	10	60-180	60	154	GapExp	SmallFlash	0	143	2	30	1	target	1	301	850	321748	13.328	13.102	13.546
ProbeTrack15	2	ProbeTrack	15.0	SCS215b	20120202.130636	20120202.132341	8	0.013328	60	10	60-180	60	142	GapExp	SmallFlash	0	144	2	3	0	distractor	1	392	804	322552	13.328	4.198	22.457
ProbeTrack15	2	ProbeTrack	15.0	SCS215b	20120202.130636	20120202.132348	8	0.013328	60	10	60-180	60	105	GapExp	SmallFlash	0	145	2	1	0	distractor	1	310	845	323397	13.328	9.486	17.180
ProbeTrack15	2	ProbeTrack	15.0	SCS215b	20120202.130636	20120202.132353	8	0.013328	60	10	60-180	60	75	GapExp	SmallFlash	0	146	2	1	1	distractor	0	333	-1000	322397	13.328	13.303	13.353
ProbeTrack15	2	ProbeTrack	15.0	SCS215b	20120202.130636	20120202.132358	8	0.013328	60	10	60-180	60	110	GapExp	SmallFlash	0	147	2	0	0	distractor	1	344	828	323225	13.328	12.711	13.943
ProbeTrack15	2	ProbeTrack	15.0	SCS215b	20120202.130636	20120202.132406	8	0.013328	60	10	60-180	60	129	GapExp	SmallFlash	0	148	2	30	0	distractor	1	416	792	324017	13.328	13.309	13.359
ProbeTrack15	2	ProbeTrack	15.0	SCS215b	20120202.130636	20120202.132413	8	0.013328	60	10	60-180	60	104	GapExp	SmallFlash	0	149	2	1	1	target	1	334	833	324850	13.328	10.611	16.053
ProbeTrack15	2	ProbeTrack	15.0	SCS215b	20120202.130636	20120202.132419	8	0.013328	60	10	60-180	60	67	GapExp	SmallFlash	0	150	2	3	1	target	1	422	789	325639	13.328	13.309	13.352
ProbeTrack15	2	ProbeTrack	15.0	SCS215b	20120202.130636	20120202.132426	8	0.013328	60	10	60-180	60	137	GapExp	SmallFlash	0	151	2	3	0	distractor	1	446	777	326416	13.328	13.310	13.348
ProbeTrack15	2	ProbeTrack	15.0	SCS215b	20120202.130636	20120202.132434	8	0.013328	60	10	60-180	60	161	GapExp	SmallFlash	0	152	2	0	1	target	1	345	828	327244	13.328	13.308	13.348
ProbeTrack15	2	ProbeTrack	15.0	SCS215b	20120202.130636	20120202.132441	8	0.013328	60	10	60-180	60	66	GapExp	SmallFlash	0	153	2	30	0	distractor	1	397	802	328046	13.328	13.313	13.348
ProbeTrack15	2	ProbeTrack	15.0	SCS215b	20120202.130636	20120202.132446	8	0.013328	60	10	60-180	60	71	GapExp	SmallFlash	0	154	2	3	1	target	1	317	842	328888	13.328	13.103	13.550
ProbeTrack15	2	ProbeTrack	15.0	SCS215b	20120202.130636	20120202.132452	8	0.013328	60	10	60-180	60	170	GapExp	SmallFlash	0	155	2	30	1	target	1	432	784	329672	13.328	13.105	13.547
ProbeTrack15	2	ProbeTrack	15.0	SCS215b	20120202.130636	20120202.132500	8	0.013328	60	10	60-180	60	144	GapExp	SmallFlash	0	156	2	3	0	distractor	1	361	820	330492	13.328	13.101	13.551
ProbeTrack15	2	ProbeTrack	15.0	SCS215b	20120202.130636	20120202.132507	8	0.013328	60	10	60-180	60	131	GapExp	SmallFlash	0	157	2	3	1	target	1	402	799	331291	13.328	13.089	13.561
ProbeTrack15	2	ProbeTrack	15.0	SCS215b	20120202.130636	20120202.132514	8	0.013328	60	10	60-180	60	132	GapExp	SmallFlash	0	158	2	30	0	distractor	1	405	798	332089	13.328	9.472	17.178
ProbeTrack15	2	ProbeTrack	15.0	SCS215b	20120202.130636	20120202.132521	8	0.013328	60	10	60-180	60	114	GapExp	SmallFlash	0	159	2	0	0	distractor	1	411	795	332884	13.328	13.103	13.549
ProbeTrack15	2	ProbeTrack	15.0	SCS215b	20120202.130636	20120202.132526	8	0.013328	60	10	60-180	60	105	GapExp	SmallFlash	0	160	2	1	0	distractor	1	343	829	333713	13.328	13.309	13.347
ProbeTrack15	2	ProbeTrack	15.0	SCS215b	20120202.130636	20120202.132532	8	0.013328	60	10	60-180	60	65	GapExp	SmallFlash	0	161	2	1	1	target	1	473	764	334477	13.328	9.607	17.047
ProbeTrack15	2	ProbeTrack	15.0	SCS215b	20120202.130636	20120202.132538	8	0.013328	60	10	60-180	60	157	GapExp	SmallFlash	0	162	2	1	1	target	1	361	820	335297	13.328	13.308	13.347
ProbeTrack15	2	ProbeTrack	15.0	SCS215b	20120202.130636	20120202.132545	8	0.013328	60	10	60-180	60	135	GapExp	SmallFlash	0	163	2	0	1	target	1	365	818	336115	13.328	13.309	13.362
ProbeTrack15	2	ProbeTrack	15.0	SCS215b	20120202.130636	20120202.132551	8	0.013328	60	10	60-180	60	85	GapExp	SmallFlash	0	164	2	1	1	target	1	395	803	336918	13.328	7.595	19.074
ProbeTrack15	2	ProbeTrack	15.0	SCS215b	20120202.130636	20120202.132556	8	0.013328	60	10	60-180	60	140	GapExp	SmallFlash	0	165	2	30	1	target	1	363	819	337737	13.328	13.100	13.551
ProbeTrack15	2	ProbeTrack	15.0	SCS215b	20120202.130636	20120202.132603	8	0.013328	60	10	60-180	60	179	GapExp	SmallFlash	0	166	2	1	0	distractor	1	353	824	338561	13.328	8.119	18.557
ProbeTrack15	2	ProbeTrack	15.0	SCS215b	20120202.130636	20120202.132610	8	0.013328	60	10	60-180	60	139	GapExp	SmallFlash	0	167	2	1	1	target	1	375	813	339374	13.328	10.849	15.802
ProbeTrack15	2	ProbeTrack	15.0	SCS215b	20120202.130636	20120202.132617	8	0.013328	60	10	60-180	60	123	GapExp	SmallFlash	0	168	2	30	1	target	1	326	837	340211	13.328	13.286	13.365
ProbeTrack15	2	ProbeTrack	15.0	SCS215b	20120202.130636	20120202.132624	8	0.013328	60	10	60-180	60	64	GapExp	SmallFlash	0	169	2	0	0	distractor	1	415	793	341004	13.328	13.103	13.549
ProbeTrack15	2	ProbeTrack	15.0	SCS215b	20120202.130636	20120202.132629	8	0.013328	60	10	60-180	60	178	GapExp	SmallFlash	0	170	2	1	0	distractor	1	327	837	341841	13.420	9.917	43.389
ProbeTrack15	2	ProbeTrack	15.0	SCS215b	20120202.130636	20120202.132636	8	0.013328	60	10	60-180	60	156	GapExp	SmallFlash	0	171	2	30	1	target	1	328	836	342677	13.328	13.102	13.551
ProbeTrack15	2	ProbeTrack	15.0	SCS215b	20120202.130636	20120202.132643	8	0.013328	60	10	60-180	60	153	GapExp	SmallFlash	0	172	2	0	1	target	1	345	828	343505	13.328	6.200	20.466
ProbeTrack15	2	ProbeTrack	15.0	SCS215b	20120202.130636	20120202.132650	8	0.013328	60	10	60-180	60	165	GapExp	SmallFlash	0	173	2	30	0	distractor	1	348	826	344331	13.328	9.199	17.456
ProbeTrack15	2	ProbeTrack	15.0	SCS215b	20120202.130636	20120202.132656	8	0.013328	60	10	60-180	60	117	GapExp	SmallFlash	0	174	2	3	0	distractor	1	378	811	345142	13.328	13.309	13.348
ProbeTrack15	2	ProbeTrack	15.0	SCS215b	20120202.130636	20120202.132702	8	0.013328	60	10	60-180	60	165	GapExp	SmallFlash	0	175	2	3	0	distractor	1	386	807	345949	13.328	10.029	16.627
ProbeTrack15	2	ProbeTrack	15.0	SCS215b	20120202.130636	20120202.132709	8	0.013328	60	10	60-180	60	84	GapExp	SmallFlash	0	176	2	0	0	distractor	1	431	785	346734	13.328	13.312	13.349
ProbeTrack15	2	ProbeTrack	15.0	SCS215b	20120202.130636	20120202.132714	8	0.013328	60	10	60-180	60	116	GapExp	SmallFlash	0	177	2	1	0	distractor	1	342	829	347563	13.328	12.695	13.957
ProbeTrack15	2	ProbeTrack	15.0	SCS215b	20120202.130636	20120202.132721	8	0.013328	60	10	60-180	60	168	GapExp	SmallFlash	0	178	2	0	0	distractor	1	368	816	348379	13.328	13.093	13.559
ProbeTrack15	2	ProbeTrack	15.0	SCS215b	20120202.130636	20120202.132728	8	0.013328	60	10	60-180	60	73	GapExp	SmallFlash	0	179	2	3	0	distractor	1	548	726	349105	13.328	10.718	15.933
ProbeTrack15	2	ProbeTrack	15.0	SCS215b	20120202.130636	20120202.132733	8	0.013328	60	10	60-180	60	171	GapExp	SmallFlash	0	180	2	1	1	target	1	344	828	349933	13.328	7.209	19.445
ProbeTrack15	2	ProbeTrack	15.0	SCS215b	20120202.130636	20120202.132739	8	0.013328	60	10	60-180	60	84	GapExp	SmallFlash	0	181	2	3	0	distractor	1	364	818	350751	13.328	13.102	13.547
ProbeTrack15	2	ProbeTrack	15.0	SCS215b	20120202.130636	20120202.132746	8	0.013328	60	10	60-180	60	98	GapExp	SmallFlash	0	182	2	30	1	target	1	346	827	351578	13.328	12.499	14.163
ProbeTrack15	2	ProbeTrack	15.0	SCS215b	20120202.130636	20120202.132753	8	0.013328	60	10	60-180	60	78	GapExp	SmallFlash	0	183	2	1	0	distractor	1	528	736	352314	13.328	13.307	13.348
ProbeTrack15	2	ProbeTrack	15.0	SCS215b	20120202.130636	20120202.132758	8	0.013328	60	10	60-180	60	177	GapExp	SmallFlash	0	184	2	0	1	target	1	383	809	353123	13.328	6.878	19.776
ProbeTrack15	2	ProbeTrack	15.0	SCS215b	20120202.130636	20120202.132805	8	0.013328	60	10	60-180	60	91	GapExp	SmallFlash	0	185	2	30	0	distractor	1	395	803	353926	13.328	13.309	13.348
ProbeTrack15	2	ProbeTrack	15.0	SCS215b	20120202.130636	20120202.132811	8	0.013328	60	10	60-180	60	161	GapExp	SmallFlash	0	186	2	3	0	distractor	1	341	830	354756	13.328	13.308	13.348
ProbeTrack15	2	ProbeTrack	15.0	SCS215b	20120202.130636	20120202.132820	8	0.013328	60	10	60-180	60	100	GapExp	SmallFlash	0	187	2	0	1	target	1	363	819	355575	13.328	13.275	13.376
ProbeTrack15	2	ProbeTrack	15.0	SCS215b	20120202.130636	20120202.132826	8	0.013328	60	10	60-180	60	85	GapExp	SmallFlash	0	188	2	3	0	distractor	1	405	798	356373	13.328	13.260	13.410
ProbeTrack15	2	ProbeTrack	15.0	SCS215b	20120202.130636	20120202.132832	8	0.013328	60	10	60-180	60	177	GapExp	SmallFlash	0	189	2	30	1	target	1	411	795	357168	13.328	13.285	13.365
ProbeTrack15	2	ProbeTrack	15.0	SCS215b	20120202.130636	20120202.132840	8	0.013328	60	10	60-180	60	97	GapExp	SmallFlash	0	190	2	0	1	target	1	434	783	357951	13.328	6.939	19.710
ProbeTrack15	2	ProbeTrack	15.0	SCS215b	20120202.130636	20120202.132846	8	0.013328	60	10	60-180	60	134	GapExp	SmallFlash	0	191	2	30	0	distractor	1	395	803	358754	13.328	13.310	13.349
ProbeTrack15	2	ProbeTrack	15.0	SCS215b	20120202.130636	20120202.132853	8	0.013328	60	10	60-180	60	135	GapExp	SmallFlash	0	192	2	3	1	target	1	371	815	359569	13.328	13.309	13.348
ProbeTrack15	2	ProbeTrack	15.0	SCS215b	20120202.130636	20120202.132900	8	0.013328	60	10	60-180	60	111	GapExp	SmallFlash	0	193	2	3	0	distractor	1	418	791	360360	13.328	13.308	13.348
ProbeTrack15	2	ProbeTrack	15.0	SCS215b	20120202.130636	20120202.132906	8	0.013328	60	10	60-180	60	154	GapExp	SmallFlash	0	194	2	0	1	target	1	355	823	361183	13.328	13.296	13.363
ProbeTrack15	2	ProbeTrack	15.0	SCS215b	20120202.130636	20120202.132914	8	0.013328	60	10	60-180	60	91	GapExp	SmallFlash	0	195	2	0	0	distractor	1	407	797	361980	13.328	13.201	13.454
ProbeTrack15	2	ProbeTrack	15.0	SCS215b	20120202.130636	20120202.132920	8	0.013328	60	10	60-180	60	180	GapExp	SmallFlash	0	196	2	30	1	target	1	370	815	362795	13.575	5.052	50.798
ProbeTrack15	2	ProbeTrack	15.0	SCS215b	20120202.130636	20120202.132927	8	0.013328	60	10	60-180	60	121	GapExp	SmallFlash	0	197	2	30	0	distractor	1	384	808	363603	13.328	11.728	14.946
ProbeTrack15	2	ProbeTrack	15.0	SCS215b	20120202.130636	20120202.132935	8	0.013328	60	10	60-180	60	141	GapExp	SmallFlash	0	198	2	0	0	target	0	398	-1000	362603	13.328	13.301	13.356
ProbeTrack15	2	ProbeTrack	15.0	SCS215b	20120202.130636	20120202.132942	8	0.013328	60	10	60-180	60	156	GapExp	SmallFlash	0	199	2	1	1	target	1	365	818	363421	13.328	6.663	19.997
ProbeTrack15	2	ProbeTrack	15.0	SCS215b	20120202.130636	20120202.132948	8	0.013328	60	10	60-180	60	147	GapExp	SmallFlash	0	200	2	1	1	target	1	647	677	364098	13.328	5.857	20.808
ProbeTrack15	2	ProbeTrack	15.0	SCS215b	20120202.133109	20120202.133119	8	0.013328	60	10	60-180	60	128	GapPrac	Blank	1	1	2	30	1	target	1	740	630	364728	13.372	12.175	14.476
ProbeTrack15	2	ProbeTrack	15.0	SCS215b	20120202.133109	20120202.133129	8	0.013328	60	10	60-180	60	109	GapPrac	Blank	1	2	2	30	0	distractor	1	418	791	365519	13.328	13.307	13.348
ProbeTrack15	2	ProbeTrack	15.0	SCS215b	20120202.133109	20120202.133135	8	0.013328	60	10	60-180	60	82	GapPrac	Blank	1	3	2	1	0	distractor	1	524	738	366257	13.328	13.176	13.476
ProbeTrack15	2	ProbeTrack	15.0	SCS215b	20120202.133109	20120202.133141	8	0.013328	60	10	60-180	60	91	GapPrac	Blank	1	4	2	3	0	distractor	1	457	772	367029	13.328	6.875	19.775
ProbeTrack15	2	ProbeTrack	15.0	SCS215b	20120202.133109	20120202.133147	8	0.013328	60	10	60-180	60	156	GapPrac	Blank	1	5	2	30	1	target	1	350	825	367854	13.328	13.101	13.571
ProbeTrack15	2	ProbeTrack	15.0	SCS215b	20120202.133109	20120202.133153	8	0.013328	60	10	60-180	60	100	GapPrac	Blank	1	6	2	30	0	distractor	1	430	785	368639	13.328	13.104	13.549
ProbeTrack15	2	ProbeTrack	15.0	SCS215b	20120202.133109	20120202.133200	8	0.013328	60	10	60-180	60	63	GapPrac	Blank	1	7	2	0	0	distractor	1	514	743	369382	13.328	7.241	19.411
ProbeTrack15	2	ProbeTrack	15.0	SCS215b	20120202.133109	20120202.133205	8	0.013328	60	10	60-180	60	130	GapPrac	Blank	1	8	2	1	0	distractor	1	503	749	370131	13.328	13.307	13.348
ProbeTrack15	2	ProbeTrack	15.0	SCS215b	20120202.133109	20120202.133211	8	0.013328	60	10	60-180	60	74	GapPrac	Blank	1	9	2	1	0	distractor	1	428	786	370917	13.328	13.312	13.348
ProbeTrack15	2	ProbeTrack	15.0	SCS215b	20120202.133109	20120202.133217	8	0.013328	60	10	60-180	60	150	GapPrac	Blank	1	10	2	30	0	distractor	1	412	794	371711	13.328	13.305	13.348
ProbeTrack15	2	ProbeTrack	15.0	SCS215b	20120202.133109	20120202.133223	8	0.013328	60	10	60-180	60	91	GapPrac	Blank	1	11	2	3	1	target	1	671	665	372376	13.328	11.269	15.384
ProbeTrack15	2	ProbeTrack	15.0	SCS215b	20120202.133109	20120202.133229	8	0.013328	60	10	60-180	60	172	GapPrac	Blank	1	12	2	3	1	target	1	411	795	373171	13.328	13.106	13.549
ProbeTrack15	2	ProbeTrack	15.0	SCS215b	20120202.133109	20120202.133236	8	0.013328	60	10	60-180	60	169	GapPrac	Blank	1	13	2	0	1	target	1	541	730	373901	13.328	12.336	14.335
ProbeTrack15	2	ProbeTrack	15.0	SCS215b	20120202.133109	20120202.133243	8	0.013328	60	10	60-180	60	66	GapPrac	Blank	1	14	2	3	0	distractor	1	518	741	374642	13.328	6.808	19.843
ProbeTrack15	2	ProbeTrack	15.0	SCS215b	20120202.133109	20120202.133248	8	0.013328	60	10	60-180	60	169	GapPrac	Blank	1	15	2	1	1	target	1	441	780	375422	13.328	13.103	13.568
ProbeTrack15	2	ProbeTrack	15.0	SCS215b	20120202.133109	20120202.133255	8	0.013328	60	10	60-180	60	153	GapPrac	Blank	1	16	2	3	0	distractor	1	489	756	376178	13.328	6.001	20.638
ProbeTrack15	2	ProbeTrack	15.0	SCS215b	20120202.133109	20120202.133301	8	0.013328	60	10	60-180	60	134	GapPrac	Blank	1	17	2	1	1	target	1	465	768	376946	13.328	10.310	16.360
ProbeTrack15	2	ProbeTrack	15.0	SCS215b	20120202.133109	20120202.133308	8	0.013328	60	10	60-180	60	70	GapPrac	Blank	1	18	2	0	0	distractor	1	477	762	377708	13.328	11.957	14.714
ProbeTrack15	2	ProbeTrack	15.0	SCS215b	20120202.133109	20120202.133313	8	0.013328	60	10	60-180	60	142	GapPrac	Blank	1	19	2	0	1	target	1	506	747	378455	13.328	11.491	15.164
ProbeTrack15	2	ProbeTrack	15.0	SCS215b	20120202.133109	20120202.133320	8	0.013328	60	10	60-180	60	167	GapPrac	Blank	1	20	2	30	1	target	1	405	798	379253	13.328	13.303	13.350
ProbeTrack15	2	ProbeTrack	15.0	SCS215b	20120202.133411	20120202.133417	8	0.013328	60	10	60-180	60	95	GapExp	Blank	1	1	2	30	0	distractor	1	461	770	380023	13.382	9.439	13.347
ProbeTrack15	2	ProbeTrack	15.0	SCS215b	20120202.133411	20120202.133424	8	0.013328	60	10	60-180	60	135	GapExp	Blank	1	2	2	1	0	distractor	1	443	779	380802	13.328	10.831	15.819
ProbeTrack15	2	ProbeTrack	15.0	SCS215b	20120202.133411	20120202.133431	8	0.013328	60	10	60-180	60	87	GapExp	Blank	1	3	2	3	1	target	1	502	749	381551	13.328	13.027	13.641
ProbeTrack15	2	ProbeTrack	15.0	SCS215b	20120202.133411	20120202.133436	8	0.013328	60	10	60-180	60	80	GapExp	Blank	1	4	2	0	1	target	1	437	782	382333	13.328	13.187	13.464
ProbeTrack15	2	ProbeTrack	15.0	SCS215b	20120202.133411	20120202.133443	8	0.013328	60	10	60-180	60	172	GapExp	Blank	1	5	2	1	1	target	1	452	774	383107	13.328	12.508	14.144
ProbeTrack15	2	ProbeTrack	15.0	SCS215b	20120202.133411	20120202.133449	8	0.013328	60	10	60-180	60	157	GapExp	Blank	1	6	2	3	0	target	0	356	-1000	382107	13.328	13.099	13.552
ProbeTrack15	2	ProbeTrack	15.0	SCS215b	20120202.133411	20120202.133456	8	0.013328	60	10	60-180	60	146	GapExp	Blank	1	7	2	0	0	target	0	525	-1000	381107	13.328	5.431	21.225
ProbeTrack15	2	ProbeTrack	15.0	SCS215b	20120202.133411	20120202.133502	8	0.013328	60	10	60-180	60	132	GapExp	Blank	1	8	2	30	1	target	1	436	782	381889	13.328	11.413	15.232
ProbeTrack15	2	ProbeTrack	15.0	SCS215b	20120202.133411	20120202.133509	8	0.013328	60	10	60-180	60	170	GapExp	Blank	0	9	2	3	0	distractor	1	434	783	382672	13.328	13.101	13.569
ProbeTrack15	2	ProbeTrack	15.0	SCS215b	20120202.133411	20120202.133517	8	0.013328	60	10	60-180	60	141	GapExp	Blank	0	10	2	3	1	target	1	396	802	383474	13.328	12.481	14.177
ProbeTrack15	2	ProbeTrack	15.0	SCS215b	20120202.133411	20120202.133523	8	0.013328	60	10	60-180	60	155	GapExp	Blank	0	11	2	30	1	target	1	442	779	384253	13.328	10.993	15.653
ProbeTrack15	2	ProbeTrack	15.0	SCS215b	20120202.133411	20120202.133530	8	0.013328	60	10	60-180	60	103	GapExp	Blank	0	12	2	3	0	distractor	1	427	787	385040	13.328	13.098	13.552
ProbeTrack15	2	ProbeTrack	15.0	SCS215b	20120202.133411	20120202.133536	8	0.013328	60	10	60-180	60	162	GapExp	Blank	0	13	2	0	0	distractor	1	524	738	385778	13.328	10.168	16.474
ProbeTrack15	2	ProbeTrack	15.0	SCS215b	20120202.133411	20120202.133543	8	0.013328	60	10	60-180	60	98	GapExp	Blank	0	14	2	30	0	distractor	1	516	742	386520	13.328	13.101	13.550
ProbeTrack15	2	ProbeTrack	15.0	SCS215b	20120202.133411	20120202.133549	8	0.013328	60	10	60-180	60	132	GapExp	Blank	0	15	2	30	0	target	0	653	-1000	385520	13.328	7.770	18.881
ProbeTrack15	2	ProbeTrack	15.0	SCS215b	20120202.133411	20120202.133556	8	0.013328	60	10	60-180	60	109	GapExp	Blank	0	16	2	3	1	target	1	506	747	386267	13.328	13.309	13.353
ProbeTrack15	2	ProbeTrack	15.0	SCS215b	20120202.133411	20120202.133603	8	0.013328	60	10	60-180	60	158	GapExp	Blank	0	17	2	3	0	distractor	1	447	777	387044	13.328	4.355	22.298
ProbeTrack15	2	ProbeTrack	15.0	SCS215b	20120202.133411	20120202.133610	8	0.013328	60	10	60-180	60	114	GapExp	Blank	0	18	2	1	0	target	0	570	-1000	386044	13.328	13.310	13.348
ProbeTrack15	2	ProbeTrack	15.0	SCS215b	20120202.133411	20120202.133615	8	0.013328	60	10	60-180	60	111	GapExp	Blank	0	19	2	30	1	target	1	562	719	386763	13.328	13.151	13.499
ProbeTrack15	2	ProbeTrack	15.0	SCS215b	20120202.133411	20120202.133622	8	0.013328	60	10	60-180	60	78	GapExp	Blank	0	20	2	0	1	target	1	375	813	387576	13.328	13.312	13.348
ProbeTrack15	2	ProbeTrack	15.0	SCS215b	20120202.133411	20120202.133628	8	0.013328	60	10	60-180	60	94	GapExp	Blank	0	21	2	3	1	target	1	546	727	388303	13.328	13.309	13.347
ProbeTrack15	2	ProbeTrack	15.0	SCS215b	20120202.133411	20120202.133634	8	0.013328	60	10	60-180	60	81	GapExp	Blank	0	22	2	0	1	target	1	480	760	389063	13.328	13.102	13.552
ProbeTrack15	2	ProbeTrack	15.0	SCS215b	20120202.133411	20120202.133640	8	0.013328	60	10	60-180	60	106	GapExp	Blank	0	23	2	30	1	distractor	0	469	-1000	388063	13.328	13.079	13.573
ProbeTrack15	2	ProbeTrack	15.0	SCS215b	20120202.133411	20120202.133646	8	0.013328	60	10	60-180	60	80	GapExp	Blank	0	24	2	30	0	distractor	1	506	747	388810	13.328	13.299	13.347
ProbeTrack15	2	ProbeTrack	15.0	SCS215b	20120202.133411	20120202.133654	8	0.013328	60	10	60-180	60	102	GapExp	Blank	0	25	2	0	0	distractor	1	792	604	389414	13.328	12.948	13.705
ProbeTrack15	2	ProbeTrack	15.0	SCS215b	20120202.133411	20120202.133700	8	0.013328	60	10	60-180	60	94	GapExp	Blank	0	26	2	1	0	distractor	1	476	762	390176	13.328	13.100	13.552
ProbeTrack15	2	ProbeTrack	15.0	SCS215b	20120202.133411	20120202.133707	8	0.013328	60	10	60-180	60	106	GapExp	Blank	0	27	2	1	1	target	1	421	790	390966	13.328	13.095	13.557
ProbeTrack15	2	ProbeTrack	15.0	SCS215b	20120202.133411	20120202.133713	8	0.013328	60	10	60-180	60	151	GapExp	Blank	0	28	2	3	1	target	1	416	792	391758	13.328	13.314	13.349
ProbeTrack15	2	ProbeTrack	15.0	SCS215b	20120202.133411	20120202.133719	8	0.013328	60	10	60-180	60	62	GapExp	Blank	0	29	2	3	1	target	1	614	693	392451	13.328	6.597	20.038
ProbeTrack15	2	ProbeTrack	15.0	SCS215b	20120202.133411	20120202.133725	8	0.013328	60	10	60-180	60	100	GapExp	Blank	0	30	2	1	0	distractor	1	410	795	393246	13.328	11.992	13.348
ProbeTrack15	2	ProbeTrack	15.0	SCS215b	20120202.133411	20120202.133730	8	0.013328	60	10	60-180	60	85	GapExp	Blank	0	31	2	30	1	distractor	0	655	-1000	392246	13.328	11.569	15.083
ProbeTrack15	2	ProbeTrack	15.0	SCS215b	20120202.133411	20120202.133736	8	0.013328	60	10	60-180	60	69	GapExp	Blank	0	32	2	0	1	target	1	415	793	393039	13.328	11.559	15.083
ProbeTrack15	2	ProbeTrack	15.0	SCS215b	20120202.133411	20120202.133742	8	0.013328	60	10	60-180	60	165	GapExp	Blank	0	33	2	30	1	target	1	471	765	393804	13.328	6.032	20.619
ProbeTrack15	2	ProbeTrack	15.0	SCS215b	20120202.133411	20120202.133749	8	0.013328	60	10	60-180	60	125	GapExp	Blank	0	34	2	1	0	distractor	1	519	741	394545	13.328	13.102	13.551
ProbeTrack15	2	ProbeTrack	15.0	SCS215b	20120202.133411	20120202.133755	8	0.013328	60	10	60-180	60	179	GapExp	Blank	0	35	2	3	0	distractor	1	465	768	395313	13.328	13.102	13.542
ProbeTrack15	2	ProbeTrack	15.0	SCS215b	20120202.133411	20120202.133802	8	0.013328	60	10	60-180	60	102	GapExp	Blank	0	36	2	0	0	distractor	1	411	795	396108	13.328	6.336	20.303
ProbeTrack15	2	ProbeTrack	15.0	SCS215b	20120202.133411	20120202.133808	8	0.013328	60	10	60-180	60	82	GapExp	Blank	0	37	2	30	0	distractor	1	402	799	396907	13.328	11.763	14.889
ProbeTrack15	2	ProbeTrack	15.0	SCS215b	20120202.133411	20120202.133814	8	0.013328	60	10	60-180	60	66	GapExp	Blank	0	38	2	3	1	target	1	449	776	397683	13.328	12.570	14.101
ProbeTrack15	2	ProbeTrack	15.0	SCS215b	20120202.133411	20120202.133819	8	0.013328	60	10	60-180	60	175	GapExp	Blank	0	39	2	30	0	distractor	1	401	800	398483	13.328	13.099	13.570
ProbeTrack15	2	ProbeTrack	15.0	SCS215b	20120202.133411	20120202.133826	8	0.013328	60	10	60-180	60	178	GapExp	Blank	0	40	2	0	1	target	1	393	804	399287	13.328	12.918	13.757
ProbeTrack15	2	ProbeTrack	15.0	SCS215b	20120202.133411	20120202.133833	8	0.013328	60	10	60-180	60	76	GapExp	Blank	0	41	2	0	1	target	1	410	795	400082	13.328	8.986	17.655
ProbeTrack15	2	ProbeTrack	15.0	SCS215b	20120202.133411	20120202.133838	8	0.013328	60	10	60-180	60	155	GapExp	Blank	0	42	2	1	1	target	1	409	796	400878	13.328	13.102	13.552
ProbeTrack15	2	ProbeTrack	15.0	SCS215b	20120202.133411	20120202.133845	8	0.013328	60	10	60-180	60	141	GapExp	Blank	0	43	2	3	1	target	1	345	828	401706	13.328	12.497	14.173
ProbeTrack15	2	ProbeTrack	15.0	SCS215b	20120202.133411	20120202.133851	8	0.013328	60	10	60-180	60	120	GapExp	Blank	0	44	2	1	1	target	1	373	814	402520	13.328	13.301	13.354
ProbeTrack15	2	ProbeTrack	15.0	SCS215b	20120202.133411	20120202.133857	8	0.013328	60	10	60-180	60	179	GapExp	Blank	0	45	2	1	0	distractor	1	417	792	403312	13.328	13.305	13.349
ProbeTrack15	2	ProbeTrack	15.0	SCS215b	20120202.133411	20120202.133903	8	0.013328	60	10	60-180	60	62	GapExp	Blank	0	46	2	1	0	distractor	1	450	775	404087	13.328	13.304	13.354
ProbeTrack15	2	ProbeTrack	15.0	SCS215b	20120202.133411	20120202.133908	8	0.013328	60	10	60-180	60	146	GapExp	Blank	0	47	2	3	1	target	1	357	822	404909	13.328	8.489	18.166
ProbeTrack15	2	ProbeTrack	15.0	SCS215b	20120202.133411	20120202.133915	8	0.013328	60	10	60-180	60	169	GapExp	Blank	0	48	2	3	1	target	1	457	772	405681	13.328	7.039	19.616
ProbeTrack15	2	ProbeTrack	15.0	SCS215b	20120202.133411	20120202.133921	8	0.013328	60	10	60-180	60	144	GapExp	Blank	0	49	2	3	0	distractor	1	426	787	406468	13.328	8.445	18.206
ProbeTrack15	2	ProbeTrack	15.0	SCS215b	20120202.133411	20120202.133928	8	0.013328	60	10	60-180	60	148	GapExp	Blank	0	50	2	1	1	target	1	401	800	407268	13.328	13.109	13.562
ProbeTrack15	2	ProbeTrack	15.0	SCS215b	20120202.133411	20120202.133934	8	0.013328	60	10	60-180	60	84	GapExp	Blank	0	51	2	0	1	target	1	394	803	408071	13.328	13.099	13.546
ProbeTrack15	2	ProbeTrack	15.0	SCS215b	20120202.133411	20120202.133948	8	0.013328	60	10	60-180	60	65	GapExp	Blank	0	52	2	30	1	distractor	0	476	-1000	407071	13.328	13.308	13.358
ProbeTrack15	2	ProbeTrack	15.0	SCS215b	20120202.133411	20120202.133953	8	0.013328	60	10	60-180	60	175	GapExp	Blank	0	53	2	1	1	target	1	445	778	407849	13.328	10.776	15.876
ProbeTrack15	2	ProbeTrack	15.0	SCS215b	20120202.133411	20120202.134000	8	0.013328	60	10	60-180	60	80	GapExp	Blank	0	54	2	1	0	distractor	1	633	684	408533	13.328	5.472	21.179
ProbeTrack15	2	ProbeTrack	15.0	SCS215b	20120202.133411	20120202.134005	8	0.013328	60	10	60-180	60	117	GapExp	Blank	0	55	2	0	1	target	1	358	821	409354	13.328	13.239	13.411
ProbeTrack15	2	ProbeTrack	15.0	SCS215b	20120202.133411	20120202.134011	8	0.013328	60	10	60-180	60	93	GapExp	Blank	0	56	2	1	1	target	1	499	751	410105	13.328	13.286	13.364
ProbeTrack15	2	ProbeTrack	15.0	SCS215b	20120202.133411	20120202.134017	8	0.013328	60	10	60-180	60	107	GapExp	Blank	0	57	2	0	1	target	1	373	814	410919	13.328	11.061	15.593
ProbeTrack15	2	ProbeTrack	15.0	SCS215b	20120202.133411	20120202.134023	8	0.013328	60	10	60-180	60	150	GapExp	Blank	0	58	2	0	0	distractor	1	565	718	411637	13.328	13.097	13.575
ProbeTrack15	2	ProbeTrack	15.0	SCS215b	20120202.133411	20120202.134029	8	0.013328	60	10	60-180	60	144	GapExp	Blank	0	59	2	30	1	target	1	394	803	412440	13.328	6.256	20.397
ProbeTrack15	2	ProbeTrack	15.0	SCS215b	20120202.133411	20120202.134035	8	0.013328	60	10	60-180	60	115	GapExp	Blank	0	60	2	1	1	target	1	489	756	413196	13.328	13.305	13.348
ProbeTrack15	2	ProbeTrack	15.0	SCS215b	20120202.133411	20120202.134041	8	0.013328	60	10	60-180	60	103	GapExp	Blank	0	61	2	3	1	target	1	421	790	413986	13.328	13.313	13.349
ProbeTrack15	2	ProbeTrack	15.0	SCS215b	20120202.133411	20120202.134048	8	0.013328	60	10	60-180	60	104	GapExp	Blank	0	62	2	1	0	distractor	1	398	801	414787	13.328	13.185	13.467
ProbeTrack15	2	ProbeTrack	15.0	SCS215b	20120202.133411	20120202.134054	8	0.013328	60	10	60-180	60	154	GapExp	Blank	0	63	2	1	1	target	1	403	799	415586	13.328	13.310	13.351
ProbeTrack15	2	ProbeTrack	15.0	SCS215b	20120202.133411	20120202.134100	8	0.013328	60	10	60-180	60	140	GapExp	Blank	0	64	2	30	1	target	1	497	752	416338	13.328	13.101	13.550
ProbeTrack15	2	ProbeTrack	15.0	SCS215b	20120202.133411	20120202.134107	8	0.013328	60	10	60-180	60	163	GapExp	Blank	0	65	2	1	1	target	1	537	732	417070	13.328	12.066	14.606
ProbeTrack15	2	ProbeTrack	15.0	SCS215b	20120202.133411	20120202.134114	8	0.013328	60	10	60-180	60	117	GapExp	Blank	0	66	2	0	0	distractor	1	490	755	417825	13.328	8.417	18.255
ProbeTrack15	2	ProbeTrack	15.0	SCS215b	20120202.133411	20120202.134120	8	0.013328	60	10	60-180	60	178	GapExp	Blank	0	67	2	1	1	target	1	532	734	418559	13.328	11.958	14.707
ProbeTrack15	2	ProbeTrack	15.0	SCS215b	20120202.133411	20120202.134127	8	0.013328	60	10	60-180	60	79	GapExp	Blank	0	68	2	0	1	target	1	461	770	419329	13.328	12.820	13.832
