exp	sub	code	rev	comp	runtime	trialtime	nstim	refreshdur	cuedur	gapdur	gapOnsetRange	durPostProbe	gapOnsetTime	blocktype	gaptype	prac	trial	ntargets	soa	probeTarget	resp	acc	rt	pts	tpts	meanFrameDur	minFrameDur	maxFrameDur
ProbeTrack15	16	ProbeTrack	15.0	SCS215a	20120508.135637	20120508.135754	8	0.013328	60	0	60-180	60	66	NoGap	None	1	1	2	1	0	target	0	648	-1000	-1000	13.397	13.305	13.345
ProbeTrack15	16	ProbeTrack	15.0	SCS215a	20120508.135637	20120508.140004	8	0.013328	60	0	60-180	60	143	NoGap	None	1	2	2	0	1	target	1	520	740	-260	13.328	12.962	13.700
ProbeTrack15	16	ProbeTrack	15.0	SCS215a	20120508.135637	20120508.140027	8	0.013328	60	0	60-180	60	124	NoGap	None	1	3	2	3	1	distractor	0	531	-1000	-1260	13.328	13.305	13.347
ProbeTrack15	16	ProbeTrack	15.0	SCS215a	20120508.135637	20120508.140035	8	0.013328	60	0	60-180	60	61	NoGap	None	1	4	2	30	1	target	1	394	803	-457	13.328	13.308	13.345
ProbeTrack15	16	ProbeTrack	15.0	SCS215a	20120508.135637	20120508.140042	8	0.013328	60	0	60-180	60	65	NoGap	None	1	5	2	30	0	distractor	1	514	743	286	13.328	13.281	13.364
ProbeTrack15	16	ProbeTrack	15.0	SCS215a	20120508.135637	20120508.140049	8	0.013328	60	0	60-180	60	91	NoGap	None	1	6	2	30	0	distractor	1	427	787	1073	13.328	13.307	13.345
ProbeTrack15	16	ProbeTrack	15.0	SCS215a	20120508.135637	20120508.140056	8	0.013328	60	0	60-180	60	136	NoGap	None	1	7	2	0	1	target	1	470	765	1838	13.328	12.896	13.760
ProbeTrack15	16	ProbeTrack	15.0	SCS215a	20120508.135637	20120508.140102	8	0.013328	60	0	60-180	60	143	NoGap	None	1	8	2	3	0	distractor	1	495	753	2591	13.328	13.306	13.345
ProbeTrack15	16	ProbeTrack	15.0	SCS215a	20120508.135637	20120508.140109	8	0.013328	60	0	60-180	60	77	NoGap	None	1	9	2	1	0	distractor	1	660	670	3261	13.328	13.279	13.371
ProbeTrack15	16	ProbeTrack	15.0	SCS215a	20120508.135637	20120508.140115	8	0.013328	60	0	60-180	60	73	NoGap	None	1	10	2	0	0	distractor	1	401	800	4061	13.328	13.312	13.345
ProbeTrack15	16	ProbeTrack	15.0	SCS215a	20120508.135637	20120508.140120	8	0.013328	60	0	60-180	60	163	NoGap	None	1	11	2	30	1	target	1	357	822	4883	13.328	12.854	13.788
ProbeTrack15	16	ProbeTrack	15.0	SCS215a	20120508.135637	20120508.140127	8	0.013328	60	0	60-180	60	99	NoGap	None	1	12	2	1	0	distractor	1	554	723	5606	13.328	12.878	13.763
ProbeTrack15	16	ProbeTrack	15.0	SCS215a	20120508.135637	20120508.140134	8	0.013328	60	0	60-180	60	170	NoGap	None	1	13	2	30	0	distractor	1	342	829	6435	13.328	12.838	13.710
ProbeTrack15	16	ProbeTrack	15.0	SCS215a	20120508.135637	20120508.140143	8	0.013328	60	0	60-180	60	94	NoGap	None	1	14	2	1	0	distractor	1	541	730	7165	13.328	13.306	13.350
ProbeTrack15	16	ProbeTrack	15.0	SCS215a	20120508.135637	20120508.140149	8	0.013328	60	0	60-180	60	99	NoGap	None	1	15	2	0	1	target	1	478	761	7926	13.328	13.307	13.348
ProbeTrack15	16	ProbeTrack	15.0	SCS215a	20120508.135637	20120508.140156	8	0.013328	60	0	60-180	60	134	NoGap	None	1	16	2	1	1	target	1	427	787	8713	13.437	12.859	26.910
ProbeTrack15	16	ProbeTrack	15.0	SCS215a	20120508.135637	20120508.140203	8	0.013328	60	0	60-180	60	122	NoGap	None	1	17	2	30	0	distractor	1	249	876	9589	13.328	13.099	13.566
ProbeTrack15	16	ProbeTrack	15.0	SCS215a	20120508.135637	20120508.140210	8	0.013328	60	0	60-180	60	179	NoGap	None	1	18	2	30	1	target	1	345	828	10417	13.328	13.100	13.558
ProbeTrack15	16	ProbeTrack	15.0	SCS215a	20120508.135637	20120508.140217	8	0.013328	60	0	60-180	60	142	NoGap	None	1	19	2	0	1	target	1	333	834	11251	13.328	12.955	13.695
ProbeTrack15	16	ProbeTrack	15.0	SCS215a	20120508.135637	20120508.140224	8	0.013328	60	0	60-180	60	150	NoGap	None	1	20	2	1	0	distractor	1	525	738	11989	13.328	13.091	13.564
ProbeTrack15	16	ProbeTrack	15.0	SCS215a	20120508.135637	20120508.140230	8	0.013328	60	0	60-180	60	145	NoGap	None	1	21	2	3	1	target	1	477	762	12751	13.328	12.943	13.706
ProbeTrack15	16	ProbeTrack	15.0	SCS215a	20120508.135637	20120508.140237	8	0.013328	60	0	60-180	60	90	NoGap	None	1	22	2	3	1	target	1	453	774	13525	13.328	12.851	13.807
ProbeTrack15	16	ProbeTrack	15.0	SCS215a	20120508.135637	20120508.140242	8	0.013328	60	0	60-180	60	108	NoGap	None	1	23	2	3	1	target	1	357	822	14347	13.328	12.888	13.793
ProbeTrack15	16	ProbeTrack	15.0	SCS215a	20120508.135637	20120508.140249	8	0.013328	60	0	60-180	60	76	NoGap	None	1	24	2	30	0	distractor	1	407	797	15144	13.328	13.110	13.549
ProbeTrack15	16	ProbeTrack	15.0	SCS215a	20120508.135637	20120508.140254	8	0.013328	60	0	60-180	60	171	NoGap	None	1	25	2	1	1	distractor	0	384	-1000	14144	13.328	12.952	13.731
ProbeTrack15	16	ProbeTrack	15.0	SCS215a	20120508.135637	20120508.140301	8	0.013328	60	0	60-180	60	151	NoGap	None	1	26	2	3	0	distractor	1	379	811	14955	13.328	12.900	13.756
ProbeTrack15	16	ProbeTrack	15.0	SCS215a	20120508.135637	20120508.140308	8	0.013328	60	0	60-180	60	148	NoGap	None	1	27	2	3	0	distractor	1	396	802	15757	13.328	13.070	13.584
ProbeTrack15	16	ProbeTrack	15.0	SCS215a	20120508.135637	20120508.140314	8	0.013328	60	0	60-180	60	173	NoGap	None	1	28	2	3	0	distractor	1	394	803	16560	13.328	12.956	13.707
ProbeTrack15	16	ProbeTrack	15.0	SCS215a	20120508.135637	20120508.140321	8	0.013328	60	0	60-180	60	168	NoGap	None	1	29	2	0	0	target	0	457	-1000	15560	13.328	12.884	13.772
ProbeTrack15	16	ProbeTrack	15.0	SCS215a	20120508.135637	20120508.140328	8	0.013328	60	0	60-180	60	178	NoGap	None	1	30	2	0	0	distractor	1	373	814	16374	13.328	12.966	13.702
ProbeTrack15	16	ProbeTrack	15.0	SCS215a	20120508.135637	20120508.140335	8	0.013328	60	0	60-180	60	121	NoGap	None	1	31	2	0	0	distractor	1	405	798	17172	13.328	13.113	13.509
ProbeTrack15	16	ProbeTrack	15.0	SCS215a	20120508.135637	20120508.140341	8	0.013328	60	0	60-180	60	78	NoGap	None	1	32	2	0	0	distractor	1	373	814	17986	13.328	13.097	13.548
ProbeTrack15	16	ProbeTrack	15.0	SCS215a	20120508.135637	20120508.140346	8	0.013328	60	0	60-180	60	92	NoGap	None	1	33	2	3	0	distractor	1	313	844	18830	13.328	12.872	13.785
ProbeTrack15	16	ProbeTrack	15.0	SCS215a	20120508.135637	20120508.140352	8	0.013328	60	0	60-180	60	108	NoGap	None	1	34	2	1	1	target	1	594	703	19533	13.328	12.896	13.769
ProbeTrack15	16	ProbeTrack	15.0	SCS215a	20120508.135637	20120508.140358	8	0.013328	60	0	60-180	60	99	NoGap	None	1	35	2	30	1	target	1	530	735	20268	13.328	13.301	13.350
ProbeTrack15	16	ProbeTrack	15.0	SCS215a	20120508.135637	20120508.140404	8	0.013328	60	0	60-180	60	92	NoGap	None	1	36	2	1	1	target	1	445	778	21046	13.328	13.269	13.377
ProbeTrack15	16	ProbeTrack	15.0	SCS215a	20120508.135637	20120508.140410	8	0.013328	60	0	60-180	60	110	NoGap	None	1	37	2	1	1	target	1	546	727	21773	13.328	12.895	13.762
ProbeTrack15	16	ProbeTrack	15.0	SCS215a	20120508.135637	20120508.140416	8	0.013328	60	0	60-180	60	63	NoGap	None	1	38	2	0	1	target	1	471	765	22538	13.328	13.309	13.347
ProbeTrack15	16	ProbeTrack	15.0	SCS215a	20120508.135637	20120508.140423	8	0.013328	60	0	60-180	60	141	NoGap	None	1	39	2	30	1	target	1	365	818	23356	13.328	12.968	13.702
ProbeTrack15	16	ProbeTrack	15.0	SCS215a	20120508.135637	20120508.140429	8	0.013328	60	0	60-180	60	170	NoGap	None	1	40	2	3	1	target	1	393	804	24160	13.328	13.170	13.464
ProbeTrack15	16	ProbeTrack	15.0	SCS215a	20120508.140528	20120508.140542	8	0.013327	60	10	60-180	60	111	GapPrac	Blank	1	1	2	1	0	distractor	1	574	713	24873	13.383	13.306	13.346
ProbeTrack15	16	ProbeTrack	15.0	SCS215a	20120508.140528	20120508.140551	8	0.013327	60	10	60-180	60	76	GapPrac	Blank	1	2	2	30	1	distractor	0	784	-1000	23873	13.328	13.308	13.344
ProbeTrack15	16	ProbeTrack	15.0	SCS215a	20120508.140528	20120508.140557	8	0.013327	60	10	60-180	60	90	GapPrac	Blank	1	3	2	3	0	distractor	1	512	744	24617	13.328	13.306	13.359
ProbeTrack15	16	ProbeTrack	15.0	SCS215a	20120508.140528	20120508.140603	8	0.013327	60	10	60-180	60	73	GapPrac	Blank	1	4	2	1	1	target	1	621	690	25307	13.328	13.306	13.348
ProbeTrack15	16	ProbeTrack	15.0	SCS215a	20120508.140528	20120508.140610	8	0.013327	60	10	60-180	60	65	GapPrac	Blank	1	5	2	1	1	distractor	0	534	-1000	24307	13.328	13.309	13.348
ProbeTrack15	16	ProbeTrack	15.0	SCS215a	20120508.140528	20120508.140615	8	0.013327	60	10	60-180	60	104	GapPrac	Blank	1	6	2	30	1	target	1	411	795	25102	13.328	12.949	13.715
ProbeTrack15	16	ProbeTrack	15.0	SCS215a	20120508.140528	20120508.140631	8	0.013327	60	10	60-180	60	159	GapPrac	Blank	1	7	2	0	1	target	1	502	749	25851	13.328	13.098	13.536
ProbeTrack15	16	ProbeTrack	15.0	SCS215a	20120508.140528	20120508.140641	8	0.013327	60	10	60-180	60	126	GapPrac	Blank	1	8	2	30	0	distractor	1	546	727	26578	13.328	13.244	13.411
ProbeTrack15	16	ProbeTrack	15.0	SCS215a	20120508.140528	20120508.140648	8	0.013327	60	10	60-180	60	76	GapPrac	Blank	1	9	2	3	1	target	1	552	724	27302	13.328	13.106	13.557
ProbeTrack15	16	ProbeTrack	15.0	SCS215a	20120508.140528	20120508.140654	8	0.013327	60	10	60-180	60	117	GapPrac	Blank	1	10	2	30	1	target	1	562	719	28021	13.424	12.857	26.991
ProbeTrack15	16	ProbeTrack	15.0	SCS215a	20120508.140528	20120508.140702	8	0.013327	60	10	60-180	60	128	GapPrac	Blank	1	11	2	0	0	distractor	1	515	743	28764	13.328	13.310	13.345
ProbeTrack15	16	ProbeTrack	15.0	SCS215a	20120508.140528	20120508.140711	8	0.013327	60	10	60-180	60	177	GapPrac	Blank	1	12	2	0	0	distractor	1	586	707	29471	13.328	13.308	13.351
ProbeTrack15	16	ProbeTrack	15.0	SCS215a	20120508.140528	20120508.140719	8	0.013327	60	10	60-180	60	148	GapPrac	Blank	1	13	2	30	0	distractor	1	721	640	30111	13.328	13.304	13.349
ProbeTrack15	16	ProbeTrack	15.0	SCS215a	20120508.140528	20120508.140727	8	0.013327	60	10	60-180	60	63	GapPrac	Blank	1	14	2	1	0	distractor	1	564	718	30829	13.328	12.960	13.722
ProbeTrack15	16	ProbeTrack	15.0	SCS215a	20120508.140528	20120508.140733	8	0.013327	60	10	60-180	60	108	GapPrac	Blank	1	15	2	3	0	distractor	1	530	735	31564	13.328	13.307	13.347
ProbeTrack15	16	ProbeTrack	15.0	SCS215a	20120508.140528	20120508.140739	8	0.013327	60	10	60-180	60	144	GapPrac	Blank	1	16	2	0	1	target	1	497	752	32316	13.328	13.304	13.353
ProbeTrack15	16	ProbeTrack	15.0	SCS215a	20120508.140528	20120508.140746	8	0.013327	60	10	60-180	60	107	GapPrac	Blank	1	17	2	1	1	target	1	564	718	33034	13.328	13.298	13.350
ProbeTrack15	16	ProbeTrack	15.0	SCS215a	20120508.140528	20120508.140752	8	0.013327	60	10	60-180	60	134	GapPrac	Blank	1	18	2	3	0	distractor	1	464	768	33802	13.328	13.308	13.346
ProbeTrack15	16	ProbeTrack	15.0	SCS215a	20120508.140528	20120508.140801	8	0.013327	60	10	60-180	60	143	GapPrac	Blank	1	19	2	3	1	target	1	550	725	34527	13.328	13.271	13.372
ProbeTrack15	16	ProbeTrack	15.0	SCS215a	20120508.140528	20120508.140809	8	0.013327	60	10	60-180	60	135	GapPrac	Blank	1	20	2	1	0	target	0	620	-1000	33527	13.328	13.095	13.554
ProbeTrack15	16	ProbeTrack	15.0	SCS215a	20120508.140830	20120508.140849	8	0.013328	60	10	60-180	60	135	GapExp	Blank	1	1	2	1	0	distractor	1	593	704	34231	13.378	11.323	15.352
ProbeTrack15	16	ProbeTrack	15.0	SCS215a	20120508.140830	20120508.140856	8	0.013328	60	10	60-180	60	165	GapExp	Blank	1	2	2	0	0	distractor	1	523	739	34970	13.328	9.502	17.141
ProbeTrack15	16	ProbeTrack	15.0	SCS215a	20120508.140830	20120508.140905	8	0.013328	60	10	60-180	60	81	GapExp	Blank	1	3	2	30	0	distractor	1	599	701	35671	13.328	10.654	16.008
ProbeTrack15	16	ProbeTrack	15.0	SCS215a	20120508.140830	20120508.140913	8	0.013328	60	10	60-180	60	138	GapExp	Blank	1	4	2	3	0	distractor	1	542	729	36400	13.329	13.304	13.551
ProbeTrack15	16	ProbeTrack	15.0	SCS215a	20120508.140830	20120508.140921	8	0.013328	60	10	60-180	60	61	GapExp	Blank	1	5	2	3	1	distractor	0	388	-1000	35400	13.328	13.307	13.359
ProbeTrack15	16	ProbeTrack	15.0	SCS215a	20120508.140830	20120508.140928	8	0.013328	60	10	60-180	60	72	GapExp	Blank	1	6	2	1	1	target	1	652	674	36074	13.328	13.310	13.350
ProbeTrack15	16	ProbeTrack	15.0	SCS215a	20120508.140830	20120508.140934	8	0.013328	60	10	60-180	60	151	GapExp	Blank	1	7	2	30	1	target	1	570	715	36789	13.328	11.560	15.090
ProbeTrack15	16	ProbeTrack	15.0	SCS215a	20120508.140830	20120508.140941	8	0.013328	60	10	60-180	60	153	GapExp	Blank	1	8	2	0	1	target	1	816	592	37381	13.328	13.094	13.565
ProbeTrack15	16	ProbeTrack	15.0	SCS215a	20120508.140830	20120508.140950	8	0.013328	60	10	60-180	60	123	GapExp	Blank	0	9	2	1	0	distractor	1	548	726	38107	13.328	13.096	13.563
ProbeTrack15	16	ProbeTrack	15.0	SCS215a	20120508.140830	20120508.140956	8	0.013328	60	10	60-180	60	146	GapExp	Blank	0	10	2	3	0	distractor	1	525	738	38845	13.328	13.305	13.345
ProbeTrack15	16	ProbeTrack	15.0	SCS215a	20120508.140830	20120508.141005	8	0.013328	60	10	60-180	60	95	GapExp	Blank	0	11	2	30	0	distractor	1	528	736	39581	13.328	9.705	16.958
ProbeTrack15	16	ProbeTrack	15.0	SCS215a	20120508.140830	20120508.141013	8	0.013328	60	10	60-180	60	77	GapExp	Blank	0	12	2	0	0	target	0	739	-1000	38581	13.328	13.307	13.346
ProbeTrack15	16	ProbeTrack	15.0	SCS215a	20120508.140830	20120508.141020	8	0.013328	60	10	60-180	60	88	GapExp	Blank	0	13	2	3	1	target	1	534	733	39314	13.328	8.146	18.523
ProbeTrack15	16	ProbeTrack	15.0	SCS215a	20120508.140830	20120508.141026	8	0.013328	60	10	60-180	60	90	GapExp	Blank	0	14	2	3	1	target	1	541	730	40044	13.328	13.120	13.543
ProbeTrack15	16	ProbeTrack	15.0	SCS215a	20120508.140830	20120508.141032	8	0.013328	60	10	60-180	60	72	GapExp	Blank	0	15	2	1	1	target	1	730	635	40679	13.328	13.093	13.552
ProbeTrack15	16	ProbeTrack	15.0	SCS215a	20120508.140830	20120508.141040	8	0.013328	60	10	60-180	60	145	GapExp	Blank	0	16	2	30	1	distractor	0	683	-1000	39679	13.328	13.110	13.555
ProbeTrack15	16	ProbeTrack	15.0	SCS215a	20120508.140830	20120508.141048	8	0.013328	60	10	60-180	60	66	GapExp	Blank	0	17	2	0	1	target	1	507	747	40426	13.328	13.097	13.556
ProbeTrack15	16	ProbeTrack	15.0	SCS215a	20120508.140830	20120508.141053	8	0.013328	60	10	60-180	60	94	GapExp	Blank	0	18	2	1	1	target	1	458	771	41197	13.328	13.113	13.558
ProbeTrack15	16	ProbeTrack	15.0	SCS215a	20120508.140830	20120508.141059	8	0.013328	60	10	60-180	60	114	GapExp	Blank	0	19	2	30	1	target	1	461	770	41967	13.328	13.093	13.558
ProbeTrack15	16	ProbeTrack	15.0	SCS215a	20120508.140830	20120508.141106	8	0.013328	60	10	60-180	60	61	GapExp	Blank	0	20	2	1	1	distractor	0	830	-1000	40967	13.328	6.205	20.451
ProbeTrack15	16	ProbeTrack	15.0	SCS215a	20120508.140830	20120508.141112	8	0.013328	60	10	60-180	60	103	GapExp	Blank	0	21	2	30	1	target	1	562	719	41686	13.328	9.025	17.634
ProbeTrack15	16	ProbeTrack	15.0	SCS215a	20120508.140830	20120508.141118	8	0.013328	60	10	60-180	60	80	GapExp	Blank	0	22	2	3	1	target	1	464	768	42454	13.328	13.275	13.395
ProbeTrack15	16	ProbeTrack	15.0	SCS215a	20120508.140830	20120508.141125	8	0.013328	60	10	60-180	60	146	GapExp	Blank	0	23	2	3	1	target	1	1136	432	42886	13.328	13.243	13.408
ProbeTrack15	16	ProbeTrack	15.0	SCS215a	20120508.140830	20120508.141132	8	0.013328	60	10	60-180	60	123	GapExp	Blank	0	24	2	3	0	distractor	1	475	763	43649	13.328	13.309	13.346
ProbeTrack15	16	ProbeTrack	15.0	SCS215a	20120508.140830	20120508.141139	8	0.013328	60	10	60-180	60	165	GapExp	Blank	0	25	2	30	0	distractor	1	603	699	44348	13.328	13.304	13.352
ProbeTrack15	16	ProbeTrack	15.0	SCS215a	20120508.140830	20120508.141146	8	0.013328	60	10	60-180	60	101	GapExp	Blank	0	26	2	0	0	distractor	1	952	524	44872	13.328	13.303	13.348
ProbeTrack15	16	ProbeTrack	15.0	SCS215a	20120508.140830	20120508.141153	8	0.013328	60	10	60-180	60	138	GapExp	Blank	0	27	2	3	0	distractor	1	531	735	45607	13.328	13.308	13.347
ProbeTrack15	16	ProbeTrack	15.0	SCS215a	20120508.140830	20120508.141201	8	0.013328	60	10	60-180	60	138	GapExp	Blank	0	28	2	3	1	target	1	354	823	46430	13.328	13.307	13.345
ProbeTrack15	16	ProbeTrack	15.0	SCS215a	20120508.140830	20120508.141207	8	0.013328	60	10	60-180	60	81	GapExp	Blank	0	29	2	30	0	target	0	377	-1000	45430	13.328	13.310	13.351
ProbeTrack15	16	ProbeTrack	15.0	SCS215a	20120508.140830	20120508.141213	8	0.013328	60	10	60-180	60	169	GapExp	Blank	0	30	2	1	1	target	1	341	830	46260	13.328	9.123	17.529
ProbeTrack15	16	ProbeTrack	15.0	SCS215a	20120508.140830	20120508.141220	8	0.013328	60	10	60-180	60	149	GapExp	Blank	0	31	2	0	1	target	1	437	782	47042	13.328	13.299	13.358
ProbeTrack15	16	ProbeTrack	15.0	SCS215a	20120508.140830	20120508.141226	8	0.013328	60	10	60-180	60	179	GapExp	Blank	0	32	2	0	1	target	1	393	804	47846	13.328	11.035	15.622
ProbeTrack15	16	ProbeTrack	15.0	SCS215a	20120508.140830	20120508.141233	8	0.013328	60	10	60-180	60	69	GapExp	Blank	0	33	2	3	1	target	1	429	786	48632	13.328	13.086	13.559
ProbeTrack15	16	ProbeTrack	15.0	SCS215a	20120508.140830	20120508.141238	8	0.013328	60	10	60-180	60	117	GapExp	Blank	0	34	2	1	1	target	1	318	841	49473	13.328	13.111	13.554
ProbeTrack15	16	ProbeTrack	15.0	SCS215a	20120508.140830	20120508.141244	8	0.013328	60	10	60-180	60	159	GapExp	Blank	0	35	2	30	1	target	1	333	834	50307	13.328	13.255	13.396
ProbeTrack15	16	ProbeTrack	15.0	SCS215a	20120508.140830	20120508.141252	8	0.013328	60	10	60-180	60	82	GapExp	Blank	0	36	2	0	1	target	1	518	741	51048	13.328	13.159	13.483
ProbeTrack15	16	ProbeTrack	15.0	SCS215a	20120508.140830	20120508.141257	8	0.013328	60	10	60-180	60	155	GapExp	Blank	0	37	2	1	1	target	1	507	747	51795	13.328	13.106	13.545
ProbeTrack15	16	ProbeTrack	15.0	SCS215a	20120508.140830	20120508.141307	8	0.013328	60	10	60-180	60	80	GapExp	Blank	0	38	2	0	1	target	1	267	867	52662	13.328	2.672	23.976
ProbeTrack15	16	ProbeTrack	15.0	SCS215a	20120508.140830	20120508.141313	8	0.013328	60	10	60-180	60	118	GapExp	Blank	0	39	2	3	0	distractor	1	397	802	53464	13.328	12.494	14.164
ProbeTrack15	16	ProbeTrack	15.0	SCS215a	20120508.140830	20120508.141319	8	0.013328	60	10	60-180	60	152	GapExp	Blank	0	40	2	30	0	distractor	1	486	757	54221	13.328	13.307	13.357
ProbeTrack15	16	ProbeTrack	15.0	SCS215a	20120508.140830	20120508.141326	8	0.013328	60	10	60-180	60	63	GapExp	Blank	0	41	2	30	0	distractor	1	359	821	55042	13.328	13.274	13.387
ProbeTrack15	16	ProbeTrack	15.0	SCS215a	20120508.140830	20120508.141332	8	0.013328	60	10	60-180	60	90	GapExp	Blank	0	42	2	1	0	distractor	1	543	729	55771	13.328	13.307	13.347
ProbeTrack15	16	ProbeTrack	15.0	SCS215a	20120508.140830	20120508.141339	8	0.013328	60	10	60-180	60	121	GapExp	Blank	0	43	2	0	0	target	0	662	-1000	54771	13.328	7.237	19.403
ProbeTrack15	16	ProbeTrack	15.0	SCS215a	20120508.140830	20120508.141346	8	0.013328	60	10	60-180	60	89	GapExp	Blank	0	44	2	30	1	target	1	422	789	55560	13.328	13.297	13.360
ProbeTrack15	16	ProbeTrack	15.0	SCS215a	20120508.140830	20120508.141352	8	0.013328	60	10	60-180	60	142	GapExp	Blank	0	45	2	3	1	target	1	447	777	56337	13.328	13.308	13.352
ProbeTrack15	16	ProbeTrack	15.0	SCS215a	20120508.140830	20120508.141358	8	0.013328	60	10	60-180	60	86	GapExp	Blank	0	46	2	0	0	distractor	1	501	750	57087	13.328	8.529	18.129
ProbeTrack15	16	ProbeTrack	15.0	SCS215a	20120508.140830	20120508.141404	8	0.013328	60	10	60-180	60	75	GapExp	Blank	0	47	2	1	1	target	1	388	806	57893	13.328	13.097	13.545
ProbeTrack15	16	ProbeTrack	15.0	SCS215a	20120508.140830	20120508.141409	8	0.013328	60	10	60-180	60	166	GapExp	Blank	0	48	2	1	0	distractor	1	475	763	58656	13.328	12.663	13.999
ProbeTrack15	16	ProbeTrack	15.0	SCS215a	20120508.140830	20120508.141416	8	0.013328	60	10	60-180	60	125	GapExp	Blank	0	49	2	30	0	distractor	1	476	762	59418	13.328	12.434	14.225
ProbeTrack15	16	ProbeTrack	15.0	SCS215a	20120508.140830	20120508.141422	8	0.013328	60	10	60-180	60	166	GapExp	Blank	0	50	2	3	0	distractor	1	288	856	60274	13.328	13.310	13.346
ProbeTrack15	16	ProbeTrack	15.0	SCS215a	20120508.140830	20120508.141429	8	0.013328	60	10	60-180	60	161	GapExp	Blank	0	51	2	0	1	distractor	0	438	-1000	59274	13.328	13.090	13.551
ProbeTrack15	16	ProbeTrack	15.0	SCS215a	20120508.140830	20120508.141437	8	0.013328	60	10	60-180	60	152	GapExp	Blank	0	52	2	0	0	distractor	1	523	739	60013	13.328	13.105	13.550
ProbeTrack15	16	ProbeTrack	15.0	SCS215a	20120508.140830	20120508.141444	8	0.013328	60	10	60-180	60	140	GapExp	Blank	0	53	2	3	0	distractor	1	476	762	60775	13.328	8.534	18.129
ProbeTrack15	16	ProbeTrack	15.0	SCS215a	20120508.140830	20120508.141450	8	0.013328	60	10	60-180	60	65	GapExp	Blank	0	54	2	3	0	distractor	1	419	791	61566	13.324	12.646	13.380
ProbeTrack15	16	ProbeTrack	15.0	SCS215a	20120508.140830	20120508.141455	8	0.013328	60	10	60-180	60	106	GapExp	Blank	0	55	2	30	1	distractor	0	648	-1000	60566	13.328	11.860	14.808
ProbeTrack15	16	ProbeTrack	15.0	SCS215a	20120508.140830	20120508.141502	8	0.013328	60	10	60-180	60	62	GapExp	Blank	0	56	2	30	1	target	1	430	785	61351	13.328	13.306	13.350
ProbeTrack15	16	ProbeTrack	15.0	SCS215a	20120508.140830	20120508.141508	8	0.013328	60	10	60-180	60	103	GapExp	Blank	0	57	2	1	1	distractor	0	514	-1000	60351	13.328	13.308	13.346
ProbeTrack15	16	ProbeTrack	15.0	SCS215a	20120508.140830	20120508.141514	8	0.013328	60	10	60-180	60	143	GapExp	Blank	0	58	2	3	1	distractor	0	552	-1000	59351	13.328	13.106	13.552
ProbeTrack15	16	ProbeTrack	15.0	SCS215a	20120508.140830	20120508.141521	8	0.013328	60	10	60-180	60	110	GapExp	Blank	0	59	2	0	1	target	1	480	760	60111	13.328	13.107	13.538
ProbeTrack15	16	ProbeTrack	15.0	SCS215a	20120508.140830	20120508.141527	8	0.013328	60	10	60-180	60	139	GapExp	Blank	0	60	2	30	0	distractor	1	452	774	60885	13.328	9.742	16.912
ProbeTrack15	16	ProbeTrack	15.0	SCS215a	20120508.140830	20120508.141533	8	0.013328	60	10	60-180	60	63	GapExp	Blank	0	61	2	30	1	distractor	0	388	-1000	59885	13.328	13.309	13.346
ProbeTrack15	16	ProbeTrack	15.0	SCS215a	20120508.140830	20120508.141539	8	0.013328	60	10	60-180	60	143	GapExp	Blank	0	62	2	30	1	target	1	430	785	60670	13.328	13.106	13.551
ProbeTrack15	16	ProbeTrack	15.0	SCS215a	20120508.140830	20120508.141546	8	0.013328	60	10	60-180	60	64	GapExp	Blank	0	63	2	1	1	target	1	403	799	61469	13.328	13.307	13.352
ProbeTrack15	16	ProbeTrack	15.0	SCS215a	20120508.140830	20120508.141551	8	0.013328	60	10	60-180	60	128	GapExp	Blank	0	64	2	3	1	target	1	418	791	62260	13.328	13.136	13.518
ProbeTrack15	16	ProbeTrack	15.0	SCS215a	20120508.140830	20120508.141556	8	0.013328	60	10	60-180	60	109	GapExp	Blank	0	65	2	1	0	distractor	1	420	790	63050	13.328	13.100	13.544
ProbeTrack15	16	ProbeTrack	15.0	SCS215a	20120508.140830	20120508.141602	8	0.013328	60	10	60-180	60	97	GapExp	Blank	0	66	2	30	1	target	1	357	822	63872	13.328	13.003	13.643
ProbeTrack15	16	ProbeTrack	15.0	SCS215a	20120508.140830	20120508.141609	8	0.013328	60	10	60-180	60	77	GapExp	Blank	0	67	2	30	1	target	1	461	770	64642	13.328	11.969	14.711
ProbeTrack15	16	ProbeTrack	15.0	SCS215a	20120508.140830	20120508.141615	8	0.013328	60	10	60-180	60	150	GapExp	Blank	0	68	2	3	1	target	1	357	822	65464	13.328	13.095	13.554
ProbeTrack15	16	ProbeTrack	15.0	SCS215a	20120508.140830	20120508.141621	8	0.013328	60	10	60-180	60	136	GapExp	Blank	0	69	2	1	1	target	1	390	805	66269	13.328	13.280	13.394
ProbeTrack15	16	ProbeTrack	15.0	SCS215a	20120508.140830	20120508.141627	8	0.013328	60	10	60-180	60	144	GapExp	Blank	0	70	2	0	0	distractor	1	515	743	67012	13.328	12.276	14.393
ProbeTrack15	16	ProbeTrack	15.0	SCS215a	20120508.140830	20120508.141633	8	0.013328	60	10	60-180	60	155	GapExp	Blank	0	71	2	0	1	target	1	396	802	67814	13.328	13.305	13.354
ProbeTrack15	16	ProbeTrack	15.0	SCS215a	20120508.140830	20120508.141640	8	0.013328	60	10	60-180	60	112	GapExp	Blank	0	72	2	0	0	distractor	1	514	743	68557	13.328	13.284	13.361
ProbeTrack15	16	ProbeTrack	15.0	SCS215a	20120508.140830	20120508.141647	8	0.013328	60	10	60-180	60	108	GapExp	Blank	0	73	2	1	1	distractor	0	621	-1000	67557	13.328	12.336	14.335
ProbeTrack15	16	ProbeTrack	15.0	SCS215a	20120508.140830	20120508.141654	8	0.013328	60	10	60-180	60	133	GapExp	Blank	0	74	2	3	0	distractor	1	420	790	68347	13.328	13.306	13.348
ProbeTrack15	16	ProbeTrack	15.0	SCS215a	20120508.140830	20120508.141700	8	0.013328	60	10	60-180	60	87	GapExp	Blank	0	75	2	0	0	distractor	1	485	758	69105	13.328	12.086	14.581
ProbeTrack15	16	ProbeTrack	15.0	SCS215a	20120508.140830	20120508.141705	8	0.013328	60	10	60-180	60	148	GapExp	Blank	0	76	2	0	1	target	1	427	787	69892	13.328	13.308	13.350
ProbeTrack15	16	ProbeTrack	15.0	SCS215a	20120508.140830	20120508.141717	8	0.013328	60	10	60-180	60	147	GapExp	Blank	0	77	2	30	0	distractor	1	396	802	70694	13.328	7.384	19.266
ProbeTrack15	16	ProbeTrack	15.0	SCS215a	20120508.140830	20120508.141725	8	0.013328	60	10	60-180	60	81	GapExp	Blank	0	78	2	1	0	distractor	1	414	793	71487	13.328	6.171	20.475
ProbeTrack15	16	ProbeTrack	15.0	SCS215a	20120508.140830	20120508.141731	8	0.013328	60	10	60-180	60	130	GapExp	Blank	0	79	2	0	0	distractor	1	600	700	72187	13.328	13.307	13.356
ProbeTrack15	16	ProbeTrack	15.0	SCS215a	20120508.140830	20120508.141737	8	0.013328	60	10	60-180	60	140	GapExp	Blank	0	80	2	1	1	target	1	394	803	72990	13.328	13.307	13.346
ProbeTrack15	16	ProbeTrack	15.0	SCS215a	20120508.140830	20120508.141743	8	0.013328	60	10	60-180	60	136	GapExp	Blank	0	81	2	3	1	target	1	427	787	73777	13.328	13.301	13.358
ProbeTrack15	16	ProbeTrack	15.0	SCS215a	20120508.140830	20120508.141749	8	0.013328	60	10	60-180	60	144	GapExp	Blank	0	82	2	30	1	target	1	392	804	74581	13.328	12.092	14.568
ProbeTrack15	16	ProbeTrack	15.0	SCS215a	20120508.140830	20120508.141756	8	0.013328	60	10	60-180	60	111	GapExp	Blank	0	83	2	0	1	target	1	343	829	75410	13.328	11.799	14.853
ProbeTrack15	16	ProbeTrack	15.0	SCS215a	20120508.140830	20120508.141802	8	0.013328	60	10	60-180	60	109	GapExp	Blank	0	84	2	3	1	target	1	369	816	76226	13.328	13.105	13.557
ProbeTrack15	16	ProbeTrack	15.0	SCS215a	20120508.140830	20120508.141807	8	0.013328	60	10	60-180	60	169	GapExp	Blank	0	85	2	0	0	distractor	1	499	751	76977	13.328	10.115	16.543
ProbeTrack15	16	ProbeTrack	15.0	SCS215a	20120508.140830	20120508.141814	8	0.013328	60	10	60-180	60	139	GapExp	Blank	0	86	2	1	0	distractor	1	417	792	77769	13.328	10.832	15.822
ProbeTrack15	16	ProbeTrack	15.0	SCS215a	20120508.140830	20120508.141820	8	0.013328	60	10	60-180	60	103	GapExp	Blank	0	87	2	3	1	target	1	392	804	78573	13.328	7.384	19.278
ProbeTrack15	16	ProbeTrack	15.0	SCS215a	20120508.140830	20120508.141826	8	0.013328	60	10	60-180	60	153	GapExp	Blank	0	88	2	3	1	target	1	355	823	79396	13.328	13.307	13.349
ProbeTrack15	16	ProbeTrack	15.0	SCS215a	20120508.140830	20120508.141832	8	0.013328	60	10	60-180	60	111	GapExp	Blank	0	89	2	3	0	distractor	1	332	834	80230	13.328	11.099	15.569
ProbeTrack15	16	ProbeTrack	15.0	SCS215a	20120508.140830	20120508.141838	8	0.013328	60	10	60-180	60	165	GapExp	Blank	0	90	2	0	0	distractor	1	547	727	80957	13.328	13.287	13.362
ProbeTrack15	16	ProbeTrack	15.0	SCS215a	20120508.140830	20120508.141845	8	0.013328	60	10	60-180	60	111	GapExp	Blank	0	91	2	1	0	distractor	1	469	766	81723	13.328	13.309	13.346
ProbeTrack15	16	ProbeTrack	15.0	SCS215a	20120508.140830	20120508.141852	8	0.013328	60	10	60-180	60	166	GapExp	Blank	0	92	2	3	0	distractor	1	385	808	82531	13.328	13.306	13.358
ProbeTrack15	16	ProbeTrack	15.0	SCS215a	20120508.140830	20120508.141859	8	0.013328	60	10	60-180	60	134	GapExp	Blank	0	93	2	0	1	target	1	526	737	83268	13.328	13.106	13.564
ProbeTrack15	16	ProbeTrack	15.0	SCS215a	20120508.140830	20120508.141905	8	0.013328	60	10	60-180	60	84	GapExp	Blank	0	94	2	0	1	distractor	0	485	-1000	82268	13.328	10.088	16.566
ProbeTrack15	16	ProbeTrack	15.0	SCS215a	20120508.140830	20120508.141910	8	0.013328	60	10	60-180	60	133	GapExp	Blank	0	95	2	3	1	target	1	342	829	83097	13.328	13.092	13.559
ProbeTrack15	16	ProbeTrack	15.0	SCS215a	20120508.140830	20120508.141916	8	0.013328	60	10	60-180	60	66	GapExp	Blank	0	96	2	1	1	target	1	325	838	83935	13.328	13.309	13.348
ProbeTrack15	16	ProbeTrack	15.0	SCS215a	20120508.140830	20120508.141921	8	0.013328	60	10	60-180	60	109	GapExp	Blank	0	97	2	0	0	distractor	1	357	822	84757	13.328	13.301	13.355
ProbeTrack15	16	ProbeTrack	15.0	SCS215a	20120508.140830	20120508.141927	8	0.013328	60	10	60-180	60	122	GapExp	Blank	0	98	2	3	0	distractor	1	274	863	85620	13.328	13.293	13.347
ProbeTrack15	16	ProbeTrack	15.0	SCS215a	20120508.140830	20120508.141935	8	0.013328	60	10	60-180	60	87	GapExp	Blank	0	99	2	30	1	distractor	0	416	-1000	84620	13.328	13.308	13.347
ProbeTrack15	16	ProbeTrack	15.0	SCS215a	20120508.140830	20120508.141940	8	0.013328	60	10	60-180	60	64	GapExp	Blank	0	100	2	30	0	distractor	1	387	807	85427	13.328	13.100	13.564
ProbeTrack15	16	ProbeTrack	15.0	SCS215a	20120508.140830	20120508.141946	8	0.013328	60	10	60-180	60	166	GapExp	Blank	0	101	2	0	0	distractor	1	630	685	86112	13.328	9.545	17.117
ProbeTrack15	16	ProbeTrack	15.0	SCS215a	20120508.140830	20120508.141952	8	0.013328	60	10	60-180	60	64	GapExp	Blank	0	102	2	1	0	distractor	1	377	812	86924	13.328	13.297	13.346
ProbeTrack15	16	ProbeTrack	15.0	SCS215a	20120508.140830	20120508.141958	8	0.013328	60	10	60-180	60	101	GapExp	Blank	0	103	2	1	1	distractor	0	398	-1000	85924	13.328	8.850	17.799
ProbeTrack15	16	ProbeTrack	15.0	SCS215a	20120508.140830	20120508.142003	8	0.013328	60	10	60-180	60	112	GapExp	Blank	0	104	2	3	0	distractor	1	572	714	86638	13.328	8.612	18.058
ProbeTrack15	16	ProbeTrack	15.0	SCS215a	20120508.140830	20120508.142009	8	0.013328	60	10	60-180	60	86	GapExp	Blank	0	105	2	1	0	distractor	1	563	719	87357	13.328	10.209	16.447
ProbeTrack15	16	ProbeTrack	15.0	SCS215a	20120508.140830	20120508.142014	8	0.013328	60	10	60-180	60	69	GapExp	Blank	0	106	2	3	1	target	1	505	748	88105	13.328	9.594	17.077
ProbeTrack15	16	ProbeTrack	15.0	SCS215a	20120508.140830	20120508.142019	8	0.013328	60	10	60-180	60	164	GapExp	Blank	0	107	2	0	1	target	1	449	776	88881	13.328	9.490	17.159
ProbeTrack15	16	ProbeTrack	15.0	SCS215a	20120508.140830	20120508.142026	8	0.013328	60	10	60-180	60	98	GapExp	Blank	0	108	2	0	0	distractor	1	417	792	89673	13.328	13.286	13.357
ProbeTrack15	16	ProbeTrack	15.0	SCS215a	20120508.140830	20120508.142032	8	0.013328	60	10	60-180	60	79	GapExp	Blank	0	109	2	0	1	target	1	506	747	90420	13.328	13.309	13.350
ProbeTrack15	16	ProbeTrack	15.0	SCS215a	20120508.140830	20120508.142037	8	0.013328	60	10	60-180	60	103	GapExp	Blank	0	110	2	1	0	distractor	1	425	788	91208	13.328	13.306	13.350
ProbeTrack15	16	ProbeTrack	15.0	SCS215a	20120508.140830	20120508.142043	8	0.013328	60	10	60-180	60	133	GapExp	Blank	0	111	2	3	1	distractor	0	520	-1000	90208	13.328	13.094	13.564
ProbeTrack15	16	ProbeTrack	15.0	SCS215a	20120508.140830	20120508.142049	8	0.013328	60	10	60-180	60	131	GapExp	Blank	0	112	2	3	1	target	1	411	795	91003	13.434	11.175	27.402
ProbeTrack15	16	ProbeTrack	15.0	SCS215a	20120508.140830	20120508.142055	8	0.013328	60	10	60-180	60	159	GapExp	Blank	0	113	2	3	0	distractor	1	372	814	91817	13.328	13.111	13.545
ProbeTrack15	16	ProbeTrack	15.0	SCS215a	20120508.140830	20120508.142101	8	0.013328	60	10	60-180	60	169	GapExp	Blank	0	114	2	3	0	distractor	1	382	809	92626	13.328	11.250	15.399
ProbeTrack15	16	ProbeTrack	15.0	SCS215a	20120508.140830	20120508.142108	8	0.013328	60	10	60-180	60	136	GapExp	Blank	0	115	2	1	0	distractor	1	160	920	93546	13.328	13.301	13.357
ProbeTrack15	16	ProbeTrack	15.0	SCS215a	20120508.140830	20120508.142114	8	0.013328	60	10	60-180	60	167	GapExp	Blank	0	116	2	3	1	target	1	315	843	94389	13.328	13.140	13.510
ProbeTrack15	16	ProbeTrack	15.0	SCS215a	20120508.140830	20120508.142120	8	0.013328	60	10	60-180	60	84	GapExp	Blank	0	117	2	1	1	distractor	0	236	-1000	93389	13.328	13.271	13.386
ProbeTrack15	16	ProbeTrack	15.0	SCS215a	20120508.140830	20120508.142125	8	0.013328	60	10	60-180	60	106	GapExp	Blank	0	118	2	0	1	distractor	0	331	-1000	92389	13.389	13.085	26.651
ProbeTrack15	16	ProbeTrack	15.0	SCS215a	20120508.140830	20120508.142131	8	0.013328	60	10	60-180	60	151	GapExp	Blank	0	119	2	1	1	target	1	395	803	93192	13.328	9.719	15.663
ProbeTrack15	16	ProbeTrack	15.0	SCS215a	20120508.140830	20120508.142137	8	0.013328	60	10	60-180	60	76	GapExp	Blank	0	120	2	30	0	distractor	1	498	751	93943	13.328	13.294	13.356
ProbeTrack15	16	ProbeTrack	15.0	SCS215a	20120508.140830	20120508.142143	8	0.013328	60	10	60-180	60	113	GapExp	Blank	0	121	2	0	1	target	1	386	807	94750	13.328	10.457	16.194
ProbeTrack15	16	ProbeTrack	15.0	SCS215a	20120508.140830	20120508.142149	8	0.013328	60	10	60-180	60	103	GapExp	Blank	0	122	2	3	0	distractor	1	365	818	95568	13.328	13.303	13.346
ProbeTrack15	16	ProbeTrack	15.0	SCS215a	20120508.140830	20120508.142154	8	0.013328	60	10	60-180	60	155	GapExp	Blank	0	123	2	1	0	distractor	1	355	823	96391	13.328	9.535	17.124
ProbeTrack15	16	ProbeTrack	15.0	SCS215a	20120508.140830	20120508.142200	8	0.013328	60	10	60-180	60	169	GapExp	Blank	0	124	2	30	1	target	1	418	791	97182	13.328	12.731	13.927
ProbeTrack15	16	ProbeTrack	15.0	SCS215a	20120508.140830	20120508.142207	8	0.013328	60	10	60-180	60	83	GapExp	Blank	0	125	2	0	1	target	1	391	805	97987	13.328	13.090	13.570
ProbeTrack15	16	ProbeTrack	15.0	SCS215a	20120508.140830	20120508.142213	8	0.013328	60	10	60-180	60	74	GapExp	Blank	0	126	2	3	0	distractor	1	457	772	98759	13.328	10.737	15.926
ProbeTrack15	16	ProbeTrack	15.0	SCS215a	20120508.140830	20120508.142219	8	0.013328	60	10	60-180	60	165	GapExp	Blank	0	127	2	3	0	distractor	1	497	752	99511	13.328	10.475	16.178
ProbeTrack15	16	ProbeTrack	15.0	SCS215a	20120508.140830	20120508.142225	8	0.013328	60	10	60-180	60	101	GapExp	Blank	0	128	2	1	0	distractor	1	503	749	100260	13.328	11.071	15.585
ProbeTrack15	16	ProbeTrack	15.0	SCS215a	20120508.140830	20120508.142231	8	0.013328	60	10	60-180	60	88	GapExp	Blank	0	129	2	3	0	distractor	1	484	758	101018	13.328	13.308	13.350
ProbeTrack15	16	ProbeTrack	15.0	SCS215a	20120508.140830	20120508.142237	8	0.013328	60	10	60-180	60	78	GapExp	Blank	0	130	2	0	1	distractor	0	533	-1000	100018	13.328	13.307	13.348
ProbeTrack15	16	ProbeTrack	15.0	SCS215a	20120508.140830	20120508.142242	8	0.013328	60	10	60-180	60	81	GapExp	Blank	0	131	2	3	0	target	0	731	-1000	99018	13.328	4.940	21.705
ProbeTrack15	16	ProbeTrack	15.0	SCS215a	20120508.140830	20120508.142248	8	0.013328	60	10	60-180	60	102	GapExp	Blank	0	132	2	1	0	target	0	411	-1000	98018	13.328	13.107	13.551
ProbeTrack15	16	ProbeTrack	15.0	SCS215a	20120508.140830	20120508.142254	8	0.013328	60	10	60-180	60	157	GapExp	Blank	0	133	2	30	0	distractor	1	379	811	98829	13.328	11.736	14.934
ProbeTrack15	16	ProbeTrack	15.0	SCS215a	20120508.140830	20120508.142300	8	0.013328	60	10	60-180	60	99	GapExp	Blank	0	134	2	30	1	target	1	437	782	99611	13.328	6.139	20.523
ProbeTrack15	16	ProbeTrack	15.0	SCS215a	20120508.140830	20120508.142306	8	0.013328	60	10	60-180	60	154	GapExp	Blank	0	135	2	3	1	target	1	395	803	100414	13.318	10.756	14.599
ProbeTrack15	16	ProbeTrack	15.0	SCS215a	20120508.140830	20120508.142313	8	0.013328	60	10	60-180	60	62	GapExp	Blank	0	136	2	3	0	distractor	1	510	745	101159	13.328	11.957	14.701
ProbeTrack15	16	ProbeTrack	15.0	SCS215a	20120508.140830	20120508.142318	8	0.013328	60	10	60-180	60	73	GapExp	Blank	0	137	2	3	1	target	1	397	802	101961	13.328	10.557	16.116
ProbeTrack15	16	ProbeTrack	15.0	SCS215a	20120508.140830	20120508.142325	8	0.013328	60	10	60-180	60	71	GapExp	Blank	0	138	2	1	0	target	0	712	-1000	100961	13.328	11.591	15.070
ProbeTrack15	16	ProbeTrack	15.0	SCS215a	20120508.140830	20120508.142331	8	0.013328	60	10	60-180	60	146	GapExp	Blank	0	139	2	0	1	target	1	395	803	101764	13.328	13.104	13.560
ProbeTrack15	16	ProbeTrack	15.0	SCS215a	20120508.140830	20120508.142337	8	0.013328	60	10	60-180	60	122	GapExp	Blank	0	140	2	1	0	distractor	1	422	789	102553	13.328	12.731	13.934
ProbeTrack15	16	ProbeTrack	15.0	SCS215a	20120508.140830	20120508.142343	8	0.013328	60	10	60-180	60	106	GapExp	Blank	0	141	2	0	0	distractor	1	418	791	103344	13.328	13.307	13.351
ProbeTrack15	16	ProbeTrack	15.0	SCS215a	20120508.140830	20120508.142349	8	0.013328	60	10	60-180	60	178	GapExp	Blank	0	142	2	30	0	distractor	1	435	783	104127	13.328	11.903	14.748
ProbeTrack15	16	ProbeTrack	15.0	SCS215a	20120508.140830	20120508.142356	8	0.013328	60	10	60-180	60	152	GapExp	Blank	0	143	2	0	1	target	1	489	756	104883	13.328	13.309	13.345
ProbeTrack15	16	ProbeTrack	15.0	SCS215a	20120508.140830	20120508.142402	8	0.013328	60	10	60-180	60	71	GapExp	Blank	0	144	2	1	0	target	0	470	-1000	103883	13.328	13.312	13.347
ProbeTrack15	16	ProbeTrack	15.0	SCS215a	20120508.140830	20120508.142407	8	0.013328	60	10	60-180	60	164	GapExp	Blank	0	145	2	30	1	target	1	421	790	104673	13.328	13.149	13.496
ProbeTrack15	16	ProbeTrack	15.0	SCS215a	20120508.140830	20120508.142414	8	0.013328	60	10	60-180	60	122	GapExp	Blank	0	146	2	3	1	target	1	600	700	105373	13.328	13.301	13.351
ProbeTrack15	16	ProbeTrack	15.0	SCS215a	20120508.140830	20120508.142421	8	0.013328	60	10	60-180	60	78	GapExp	Blank	0	147	2	1	1	distractor	0	498	-1000	104373	13.328	13.299	13.351
ProbeTrack15	16	ProbeTrack	15.0	SCS215a	20120508.140830	20120508.142427	8	0.013328	60	10	60-180	60	75	GapExp	Blank	0	148	2	1	1	target	1	370	815	105188	13.328	12.399	14.269
ProbeTrack15	16	ProbeTrack	15.0	SCS215a	20120508.140830	20120508.142432	8	0.013328	60	10	60-180	60	142	GapExp	Blank	0	149	2	0	0	distractor	1	398	801	105989	13.328	13.092	13.557
ProbeTrack15	16	ProbeTrack	15.0	SCS215a	20120508.140830	20120508.142438	8	0.013328	60	10	60-180	60	65	GapExp	Blank	0	150	2	30	1	target	1	361	820	106809	13.328	9.518	17.125
ProbeTrack15	16	ProbeTrack	15.0	SCS215a	20120508.140830	20120508.142443	8	0.013328	60	10	60-180	60	167	GapExp	Blank	0	151	2	0	0	target	0	604	-1000	105809	13.328	11.082	15.575
ProbeTrack15	16	ProbeTrack	15.0	SCS215a	20120508.140830	20120508.142450	8	0.013328	60	10	60-180	60	66	GapExp	Blank	0	152	2	0	0	distractor	1	588	706	106515	13.328	10.628	16.027
ProbeTrack15	16	ProbeTrack	15.0	SCS215a	20120508.140830	20120508.142455	8	0.013328	60	10	60-180	60	177	GapExp	Blank	0	153	2	0	1	target	1	708	646	107161	13.328	12.919	13.736
ProbeTrack15	16	ProbeTrack	15.0	SCS215a	20120508.140830	20120508.142502	8	0.013328	60	10	60-180	60	95	GapExp	Blank	0	154	2	1	1	target	1	436	782	107943	13.328	13.099	13.564
ProbeTrack15	16	ProbeTrack	15.0	SCS215a	20120508.140830	20120508.142508	8	0.013328	60	10	60-180	60	139	GapExp	Blank	0	155	2	1	0	distractor	1	616	692	108635	13.328	13.106	13.564
ProbeTrack15	16	ProbeTrack	15.0	SCS215a	20120508.140830	20120508.142514	8	0.013328	60	10	60-180	60	137	GapExp	Blank	0	156	2	30	0	distractor	1	373	814	109449	13.328	13.105	13.564
ProbeTrack15	16	ProbeTrack	15.0	SCS215a	20120508.140830	20120508.142520	8	0.013328	60	10	60-180	60	163	GapExp	Blank	0	157	2	1	0	target	0	510	-1000	108449	13.328	13.305	13.347
ProbeTrack15	16	ProbeTrack	15.0	SCS215a	20120508.140830	20120508.142527	8	0.013328	60	10	60-180	60	69	GapExp	Blank	0	158	2	30	0	distractor	1	381	810	109259	13.328	12.444	14.210
ProbeTrack15	16	ProbeTrack	15.0	SCS215a	20120508.140830	20120508.142532	8	0.013328	60	10	60-180	60	72	GapExp	Blank	0	159	2	1	1	distractor	0	619	-1000	108259	13.328	13.297	13.352
ProbeTrack15	16	ProbeTrack	15.0	SCS215a	20120508.140830	20120508.142537	8	0.013328	60	10	60-180	60	99	GapExp	Blank	0	160	2	30	0	distractor	1	550	725	108984	13.328	11.113	15.525
ProbeTrack15	16	ProbeTrack	15.0	SCS215a	20120508.140830	20120508.142543	8	0.013328	60	10	60-180	60	107	GapExp	Blank	0	161	2	30	0	distractor	1	652	674	109658	13.328	13.099	13.570
ProbeTrack15	16	ProbeTrack	15.0	SCS215a	20120508.140830	20120508.142549	8	0.013328	60	10	60-180	60	77	GapExp	Blank	0	162	2	30	1	distractor	0	379	-1000	108658	13.328	13.093	13.558
ProbeTrack15	16	ProbeTrack	15.0	SCS215a	20120508.140830	20120508.142555	8	0.013328	60	10	60-180	60	158	GapExp	Blank	0	163	2	1	1	target	1	355	823	109481	13.328	13.094	13.550
ProbeTrack15	16	ProbeTrack	15.0	SCS215a	20120508.140830	20120508.142602	8	0.013328	60	10	60-180	60	93	GapExp	Blank	0	164	2	0	0	distractor	1	410	795	110276	13.328	13.309	13.350
ProbeTrack15	16	ProbeTrack	15.0	SCS215a	20120508.140830	20120508.142607	8	0.013328	60	10	60-180	60	130	GapExp	Blank	0	165	2	0	1	target	1	602	699	110975	13.328	13.305	13.346
ProbeTrack15	16	ProbeTrack	15.0	SCS215a	20120508.140830	20120508.142613	8	0.013328	60	10	60-180	60	83	GapExp	Blank	0	166	2	0	1	distractor	0	483	-1000	109975	13.328	13.273	13.371
ProbeTrack15	16	ProbeTrack	15.0	SCS215a	20120508.140830	20120508.142619	8	0.013328	60	10	60-180	60	166	GapExp	Blank	0	167	2	30	0	distractor	1	512	744	110719	13.328	13.085	13.563
ProbeTrack15	16	ProbeTrack	15.0	SCS215a	20120508.140830	20120508.142625	8	0.013328	60	10	60-180	60	143	GapExp	Blank	0	168	2	30	1	target	1	438	781	111500	13.328	13.099	13.544
ProbeTrack15	16	ProbeTrack	15.0	SCS215a	20120508.140830	20120508.142632	8	0.013328	60	10	60-180	60	113	GapExp	Blank	0	169	2	0	0	distractor	1	457	772	112272	13.328	11.042	15.606
ProbeTrack15	16	ProbeTrack	15.0	SCS215a	20120508.140830	20120508.142638	8	0.013328	60	10	60-180	60	127	GapExp	Blank	0	170	2	0	0	distractor	1	518	741	113013	13.328	13.298	13.358
ProbeTrack15	16	ProbeTrack	15.0	SCS215a	20120508.140830	20120508.142644	8	0.013328	60	10	60-180	60	97	GapExp	Blank	0	171	2	3	0	distractor	1	448	776	113789	13.328	13.307	13.357
ProbeTrack15	16	ProbeTrack	15.0	SCS215a	20120508.140830	20120508.142650	8	0.013328	60	10	60-180	60	79	GapExp	Blank	0	172	2	30	0	distractor	1	474	763	114552	13.328	13.303	13.348
ProbeTrack15	16	ProbeTrack	15.0	SCS215a	20120508.140830	20120508.142655	8	0.013328	60	10	60-180	60	152	GapExp	Blank	0	173	2	1	1	target	1	308	846	115398	13.480	6.375	26.502
ProbeTrack15	16	ProbeTrack	15.0	SCS215a	20120508.140830	20120508.142701	8	0.013328	60	10	60-180	60	80	GapExp	Blank	0	174	2	1	0	distractor	1	385	808	116206	13.328	13.120	13.537
ProbeTrack15	16	ProbeTrack	15.0	SCS215a	20120508.140830	20120508.142707	8	0.013328	60	10	60-180	60	116	GapExp	Blank	0	175	2	3	0	distractor	1	386	807	117013	13.328	12.898	13.772
ProbeTrack15	16	ProbeTrack	15.0	SCS215a	20120508.140830	20120508.142713	8	0.013328	60	10	60-180	60	146	GapExp	Blank	0	176	2	1	0	distractor	1	419	791	117804	13.328	13.113	13.552
ProbeTrack15	16	ProbeTrack	15.0	SCS215a	20120508.140830	20120508.142719	8	0.013328	60	10	60-180	60	140	GapExp	Blank	0	177	2	0	0	distractor	1	382	809	118613	13.328	13.302	13.357
ProbeTrack15	16	ProbeTrack	15.0	SCS215a	20120508.140830	20120508.142725	8	0.013328	60	10	60-180	60	147	GapExp	Blank	0	178	2	0	0	distractor	1	366	817	119430	13.328	11.350	15.305
ProbeTrack15	16	ProbeTrack	15.0	SCS215a	20120508.140830	20120508.142731	8	0.013328	60	10	60-180	60	130	GapExp	Blank	0	179	2	0	1	distractor	0	357	-1000	118430	13.328	11.311	15.351
ProbeTrack15	16	ProbeTrack	15.0	SCS215a	20120508.140830	20120508.142737	8	0.013328	60	10	60-180	60	130	GapExp	Blank	0	180	2	1	1	target	1	410	795	119225	13.328	11.811	14.846
ProbeTrack15	16	ProbeTrack	15.0	SCS215a	20120508.140830	20120508.142743	8	0.013328	60	10	60-180	60	118	GapExp	Blank	0	181	2	3	1	distractor	0	479	-1000	118225	13.328	13.286	13.357
ProbeTrack15	16	ProbeTrack	15.0	SCS215a	20120508.140830	20120508.142749	8	0.013328	60	10	60-180	60	68	GapExp	Blank	0	182	2	30	0	distractor	1	438	781	119006	13.328	13.107	13.558
ProbeTrack15	16	ProbeTrack	15.0	SCS215a	20120508.140830	20120508.142754	8	0.013328	60	10	60-180	60	162	GapExp	Blank	0	183	2	30	1	target	1	373	814	119820	13.328	10.812	15.861
ProbeTrack15	16	ProbeTrack	15.0	SCS215a	20120508.140830	20120508.142801	8	0.013328	60	10	60-180	60	154	GapExp	Blank	0	184	2	30	1	distractor	0	705	-1000	118820	13.328	8.642	18.014
ProbeTrack15	16	ProbeTrack	15.0	SCS215a	20120508.140830	20120508.142808	8	0.013328	60	10	60-180	60	179	GapExp	Blank	0	185	2	1	0	target	0	408	-1000	117820	13.328	10.351	16.302
ProbeTrack15	16	ProbeTrack	15.0	SCS215a	20120508.140830	20120508.142815	8	0.013328	60	10	60-180	60	122	GapExp	Blank	0	186	2	30	0	target	0	347	-1000	116820	13.328	13.306	13.356
ProbeTrack15	16	ProbeTrack	15.0	SCS215a	20120508.140830	20120508.142821	8	0.013328	60	10	60-180	60	110	GapExp	Blank	0	187	2	1	0	distractor	1	655	673	117493	13.328	10.902	15.742
ProbeTrack15	16	ProbeTrack	15.0	SCS215a	20120508.140830	20120508.142826	8	0.013328	60	10	60-180	60	91	GapExp	Blank	0	188	2	30	0	distractor	1	536	732	118225	13.328	10.166	16.490
ProbeTrack15	16	ProbeTrack	15.0	SCS215a	20120508.140830	20120508.142832	8	0.013328	60	10	60-180	60	170	GapExp	Blank	0	189	2	30	1	target	1	6742	0	118225	13.366	13.093	26.644
ProbeTrack15	16	ProbeTrack	15.0	SCS215a	20120508.140830	20120508.142846	8	0.013328	60	10	60-180	60	124	GapExp	Blank	0	190	2	3	0	distractor	1	607	697	118922	13.328	13.309	13.354
ProbeTrack15	16	ProbeTrack	15.0	SCS215a	20120508.140830	20120508.142857	8	0.013328	60	10	60-180	60	168	GapExp	Blank	0	191	2	30	0	distractor	1	464	768	119690	13.328	12.454	14.218
ProbeTrack15	16	ProbeTrack	15.0	SCS215a	20120508.140830	20120508.142905	8	0.013328	60	10	60-180	60	174	GapExp	Blank	0	192	2	30	1	distractor	0	500	-1000	118690	13.328	13.105	13.550
ProbeTrack15	16	ProbeTrack	15.0	SCS215a	20120508.140830	20120508.142912	8	0.013328	60	10	60-180	60	157	GapExp	Blank	0	193	2	3	0	target	0	605	-1000	117690	13.328	13.105	13.558
ProbeTrack15	16	ProbeTrack	15.0	SCS215a	20120508.140830	20120508.142919	8	0.013328	60	10	60-180	60	138	GapExp	Blank	0	194	2	1	0	distractor	1	500	750	118440	13.328	11.363	15.282
ProbeTrack15	16	ProbeTrack	15.0	SCS215a	20120508.140830	20120508.142926	8	0.013328	60	10	60-180	60	117	GapExp	Blank	0	195	2	1	1	target	1	427	787	119227	13.328	13.110	13.558
ProbeTrack15	16	ProbeTrack	15.0	SCS215a	20120508.140830	20120508.142932	8	0.013328	60	10	60-180	60	109	GapExp	Blank	0	196	2	0	0	distractor	1	528	736	119963	13.328	10.690	15.981
ProbeTrack15	16	ProbeTrack	15.0	SCS215a	20120508.140830	20120508.142937	8	0.013328	60	10	60-180	60	63	GapExp	Blank	0	197	2	30	0	target	0	389	-1000	118963	13.328	9.207	17.456
ProbeTrack15	16	ProbeTrack	15.0	SCS215a	20120508.140830	20120508.142942	8	0.013328	60	10	60-180	60	79	GapExp	Blank	0	198	2	3	1	distractor	0	538	-1000	117963	13.328	8.926	17.716
ProbeTrack15	16	ProbeTrack	15.0	SCS215a	20120508.140830	20120508.142948	8	0.013328	60	10	60-180	60	141	GapExp	Blank	0	199	2	30	0	distractor	1	496	752	118715	13.328	9.855	16.797
ProbeTrack15	16	ProbeTrack	15.0	SCS215a	20120508.140830	20120508.142955	8	0.013328	60	10	60-180	60	90	GapExp	Blank	0	200	2	30	1	target	1	375	813	119528	13.328	13.306	13.346
ProbeTrack15	16	ProbeTrack	15.0	SCS215a	20120508.143047	20120508.143104	8	0.013328	60	10	60-180	60	77	GapPrac	BigFlash	1	1	2	3	1	distractor	0	1204	-1000	118528	13.387	13.306	13.346
ProbeTrack15	16	ProbeTrack	15.0	SCS215a	20120508.143047	20120508.143116	8	0.013328	60	10	60-180	60	74	GapPrac	BigFlash	1	2	2	1	1	target	1	665	668	119196	13.328	13.305	13.347
ProbeTrack15	16	ProbeTrack	15.0	SCS215a	20120508.143047	20120508.143122	8	0.013328	60	10	60-180	60	163	GapPrac	BigFlash	1	3	2	0	0	distractor	1	438	781	119977	13.328	12.907	13.729
ProbeTrack15	16	ProbeTrack	15.0	SCS215a	20120508.143047	20120508.143129	8	0.013328	60	10	60-180	60	154	GapPrac	BigFlash	1	4	2	3	0	distractor	1	411	795	120772	13.328	12.874	13.783
ProbeTrack15	16	ProbeTrack	15.0	SCS215a	20120508.143047	20120508.143135	8	0.013328	60	10	60-180	60	108	GapPrac	BigFlash	1	5	2	3	0	distractor	1	366	817	121589	13.328	12.973	13.668
ProbeTrack15	16	ProbeTrack	15.0	SCS215a	20120508.143047	20120508.143140	8	0.013328	60	10	60-180	60	103	GapPrac	BigFlash	1	6	2	0	0	distractor	1	464	768	122357	13.328	13.112	13.550
ProbeTrack15	16	ProbeTrack	15.0	SCS215a	20120508.143047	20120508.143146	8	0.013328	60	10	60-180	60	152	GapPrac	BigFlash	1	7	2	30	1	target	1	523	739	123096	13.328	13.106	13.549
ProbeTrack15	16	ProbeTrack	15.0	SCS215a	20120508.143047	20120508.143153	8	0.013328	60	10	60-180	60	124	GapPrac	BigFlash	1	8	2	1	1	target	1	502	749	123845	13.328	12.929	13.726
ProbeTrack15	16	ProbeTrack	15.0	SCS215a	20120508.143047	20120508.143159	8	0.013328	60	10	60-180	60	99	GapPrac	BigFlash	1	9	2	1	0	distractor	1	409	796	124641	13.328	12.956	13.697
ProbeTrack15	16	ProbeTrack	15.0	SCS215a	20120508.143047	20120508.143205	8	0.013328	60	10	60-180	60	91	GapPrac	BigFlash	1	10	2	1	1	target	1	427	787	125428	13.328	13.198	13.467
ProbeTrack15	16	ProbeTrack	15.0	SCS215a	20120508.143047	20120508.143210	8	0.013328	60	10	60-180	60	63	GapPrac	BigFlash	1	11	2	1	0	distractor	1	479	761	126189	13.328	12.876	13.711
ProbeTrack15	16	ProbeTrack	15.0	SCS215a	20120508.143047	20120508.143215	8	0.013328	60	10	60-180	60	109	GapPrac	BigFlash	1	12	2	3	0	distractor	1	492	754	126943	13.328	13.092	13.544
ProbeTrack15	16	ProbeTrack	15.0	SCS215a	20120508.143047	20120508.143221	8	0.013328	60	10	60-180	60	100	GapPrac	BigFlash	1	13	2	30	0	distractor	1	360	820	127763	13.328	12.881	13.791
ProbeTrack15	16	ProbeTrack	15.0	SCS215a	20120508.143047	20120508.143227	8	0.013328	60	10	60-180	60	169	GapPrac	BigFlash	1	14	2	3	1	target	1	407	797	128560	13.328	13.012	13.628
ProbeTrack15	16	ProbeTrack	15.0	SCS215a	20120508.143047	20120508.143233	8	0.013328	60	10	60-180	60	174	GapPrac	BigFlash	1	15	2	30	0	target	0	599	-1000	127560	13.328	13.260	13.390
ProbeTrack15	16	ProbeTrack	15.0	SCS215a	20120508.143047	20120508.143240	8	0.013328	60	10	60-180	60	113	GapPrac	BigFlash	1	16	2	0	0	distractor	1	489	756	128316	13.328	12.942	13.709
ProbeTrack15	16	ProbeTrack	15.0	SCS215a	20120508.143047	20120508.143246	8	0.013328	60	10	60-180	60	141	GapPrac	BigFlash	1	17	2	0	1	target	1	508	746	129062	13.328	12.942	13.723
ProbeTrack15	16	ProbeTrack	15.0	SCS215a	20120508.143047	20120508.143253	8	0.013328	60	10	60-180	60	102	GapPrac	BigFlash	1	18	2	30	1	target	1	420	790	129852	13.328	13.246	13.410
ProbeTrack15	16	ProbeTrack	15.0	SCS215a	20120508.143047	20120508.143258	8	0.013328	60	10	60-180	60	72	GapPrac	BigFlash	1	19	2	3	1	target	1	494	753	130605	13.328	13.102	13.566
ProbeTrack15	16	ProbeTrack	15.0	SCS215a	20120508.143047	20120508.143304	8	0.013328	60	10	60-180	60	95	GapPrac	BigFlash	1	20	2	0	1	target	1	385	808	131413	13.328	13.110	13.560
ProbeTrack15	16	ProbeTrack	15.0	SCS215a	20120508.143649	20120508.143703	8	0.013328	60	10	60-180	60	123	GapExp	BigFlash	1	1	2	3	0	distractor	1	517	742	132155	13.381	3.452	23.199
ProbeTrack15	16	ProbeTrack	15.0	SCS215a	20120508.143649	20120508.143716	8	0.013328	60	10	60-180	60	169	GapExp	BigFlash	1	2	2	3	1	target	1	423	789	132944	13.328	12.312	14.345
ProbeTrack15	16	ProbeTrack	15.0	SCS215a	20120508.143649	20120508.143722	8	0.013328	60	10	60-180	60	124	GapExp	BigFlash	1	3	2	30	0	distractor	1	274	863	133807	13.328	13.077	13.572
ProbeTrack15	16	ProbeTrack	15.0	SCS215a	20120508.143649	20120508.143728	8	0.013328	60	10	60-180	60	139	GapExp	BigFlash	1	4	2	0	0	distractor	1	478	761	134568	13.328	13.275	13.395
ProbeTrack15	16	ProbeTrack	15.0	SCS215a	20120508.143649	20120508.143734	8	0.013328	60	10	60-180	60	132	GapExp	BigFlash	1	5	2	30	1	target	1	395	803	135371	13.328	13.290	13.360
ProbeTrack15	16	ProbeTrack	15.0	SCS215a	20120508.143649	20120508.143740	8	0.013328	60	10	60-180	60	149	GapExp	BigFlash	1	6	2	0	1	target	1	368	816	136187	13.328	11.314	15.349
ProbeTrack15	16	ProbeTrack	15.0	SCS215a	20120508.143649	20120508.143746	8	0.013328	60	10	60-180	60	96	GapExp	BigFlash	1	7	2	1	0	distractor	1	538	731	136918	13.328	13.302	13.348
ProbeTrack15	16	ProbeTrack	15.0	SCS215a	20120508.143649	20120508.143752	8	0.013328	60	10	60-180	60	145	GapExp	BigFlash	1	8	2	1	1	target	1	314	843	137761	13.328	12.353	14.316
ProbeTrack15	16	ProbeTrack	15.0	SCS215a	20120508.143649	20120508.143758	8	0.013328	60	10	60-180	60	81	GapExp	BigFlash	0	9	2	30	0	distractor	1	386	807	138568	13.328	13.092	13.564
ProbeTrack15	16	ProbeTrack	15.0	SCS215a	20120508.143649	20120508.143803	8	0.013328	60	10	60-180	60	70	GapExp	BigFlash	0	10	2	30	1	target	1	376	812	139380	13.328	13.304	13.352
ProbeTrack15	16	ProbeTrack	15.0	SCS215a	20120508.143649	20120508.143808	8	0.013328	60	10	60-180	60	116	GapExp	BigFlash	0	11	2	0	1	target	1	310	845	140225	13.328	10.646	16.018
ProbeTrack15	16	ProbeTrack	15.0	SCS215a	20120508.143649	20120508.143814	8	0.013328	60	10	60-180	60	103	GapExp	BigFlash	0	12	2	0	0	distractor	1	429	786	141011	13.328	13.307	13.344
ProbeTrack15	16	ProbeTrack	15.0	SCS215a	20120508.143649	20120508.143820	8	0.013328	60	10	60-180	60	61	GapExp	BigFlash	0	13	2	3	0	distractor	1	451	775	141786	13.328	12.785	13.869
ProbeTrack15	16	ProbeTrack	15.0	SCS215a	20120508.143649	20120508.143825	8	0.013328	60	10	60-180	60	97	GapExp	BigFlash	0	14	2	0	0	distractor	1	453	774	142560	13.328	13.308	13.347
ProbeTrack15	16	ProbeTrack	15.0	SCS215a	20120508.143649	20120508.143830	8	0.013328	60	10	60-180	60	89	GapExp	BigFlash	0	15	2	1	1	target	1	333	834	143394	13.328	13.306	13.349
ProbeTrack15	16	ProbeTrack	15.0	SCS215a	20120508.143649	20120508.143835	8	0.013328	60	10	60-180	60	61	GapExp	BigFlash	0	16	2	30	1	target	1	344	828	144222	13.328	6.045	20.606
ProbeTrack15	16	ProbeTrack	15.0	SCS215a	20120508.143649	20120508.143841	8	0.013328	60	10	60-180	60	63	GapExp	BigFlash	0	17	2	0	0	distractor	1	520	740	144962	13.328	13.112	13.544
ProbeTrack15	16	ProbeTrack	15.0	SCS215a	20120508.143649	20120508.143846	8	0.013328	60	10	60-180	60	86	GapExp	BigFlash	0	18	2	1	0	distractor	1	415	793	145755	13.328	13.286	13.372
ProbeTrack15	16	ProbeTrack	15.0	SCS215a	20120508.143649	20120508.143852	8	0.013328	60	10	60-180	60	106	GapExp	BigFlash	0	19	2	1	1	target	1	438	781	146536	13.328	13.310	13.349
ProbeTrack15	16	ProbeTrack	15.0	SCS215a	20120508.143649	20120508.143858	8	0.013328	60	10	60-180	60	171	GapExp	BigFlash	0	20	2	0	0	target	0	679	-1000	145536	13.328	12.215	14.448
ProbeTrack15	16	ProbeTrack	15.0	SCS215a	20120508.143649	20120508.143905	8	0.013328	60	10	60-180	60	148	GapExp	BigFlash	0	21	2	30	1	target	1	679	661	146197	13.328	10.427	16.216
ProbeTrack15	16	ProbeTrack	15.0	SCS215a	20120508.143649	20120508.143911	8	0.013328	60	10	60-180	60	83	GapExp	BigFlash	0	22	2	3	0	distractor	1	354	823	147020	13.328	13.308	13.353
ProbeTrack15	16	ProbeTrack	15.0	SCS215a	20120508.143649	20120508.143919	8	0.013328	60	10	60-180	60	129	GapExp	BigFlash	0	23	2	30	1	target	1	629	686	147706	13.328	13.311	13.345
ProbeTrack15	16	ProbeTrack	15.0	SCS215a	20120508.143649	20120508.143926	8	0.013328	60	10	60-180	60	135	GapExp	BigFlash	0	24	2	3	1	target	1	358	821	148527	13.328	11.889	14.777
ProbeTrack15	16	ProbeTrack	15.0	SCS215a	20120508.143649	20120508.143932	8	0.013328	60	10	60-180	60	175	GapExp	BigFlash	0	25	2	30	0	distractor	1	357	822	149349	13.328	13.087	13.569
ProbeTrack15	16	ProbeTrack	15.0	SCS215a	20120508.143649	20120508.143939	8	0.013328	60	10	60-180	60	68	GapExp	BigFlash	0	26	2	0	0	distractor	1	386	807	150156	13.328	13.305	13.347
ProbeTrack15	16	ProbeTrack	15.0	SCS215a	20120508.143649	20120508.143944	8	0.013328	60	10	60-180	60	169	GapExp	BigFlash	0	27	2	0	1	target	1	342	829	150985	13.328	13.106	13.551
ProbeTrack15	16	ProbeTrack	15.0	SCS215a	20120508.143649	20120508.143950	8	0.013328	60	10	60-180	60	177	GapExp	BigFlash	0	28	2	1	1	target	1	522	739	151724	13.328	9.109	17.545
ProbeTrack15	16	ProbeTrack	15.0	SCS215a	20120508.143649	20120508.143957	8	0.013328	60	10	60-180	60	114	GapExp	BigFlash	0	29	2	1	0	distractor	1	413	794	152518	13.328	13.113	13.544
ProbeTrack15	16	ProbeTrack	15.0	SCS215a	20120508.143649	20120508.144003	8	0.013328	60	10	60-180	60	69	GapExp	BigFlash	0	30	2	1	1	distractor	0	628	-1000	151518	13.328	13.307	13.347
ProbeTrack15	16	ProbeTrack	15.0	SCS215a	20120508.143649	20120508.144008	8	0.013328	60	10	60-180	60	78	GapExp	BigFlash	0	31	2	1	1	distractor	0	306	-1000	150518	13.328	13.305	13.349
ProbeTrack15	16	ProbeTrack	15.0	SCS215a	20120508.143649	20120508.144013	8	0.013328	60	10	60-180	60	132	GapExp	BigFlash	0	32	2	0	0	distractor	1	502	749	151267	13.328	13.311	13.347
ProbeTrack15	16	ProbeTrack	15.0	SCS215a	20120508.143649	20120508.144022	8	0.013328	60	10	60-180	60	94	GapExp	BigFlash	0	33	2	1	0	distractor	1	463	769	152036	13.328	13.298	13.349
ProbeTrack15	16	ProbeTrack	15.0	SCS215a	20120508.143649	20120508.144028	8	0.013328	60	10	60-180	60	166	GapExp	BigFlash	0	34	2	3	1	target	1	682	659	152695	13.328	13.307	13.348
ProbeTrack15	16	ProbeTrack	15.0	SCS215a	20120508.143649	20120508.144036	8	0.013328	60	10	60-180	60	109	GapExp	BigFlash	0	35	2	1	0	distractor	1	502	749	153444	13.328	13.309	13.346
ProbeTrack15	16	ProbeTrack	15.0	SCS215a	20120508.143649	20120508.144041	8	0.013328	60	10	60-180	60	106	GapExp	BigFlash	0	36	2	30	0	distractor	1	562	719	154163	13.328	13.309	13.354
ProbeTrack15	16	ProbeTrack	15.0	SCS215a	20120508.143649	20120508.144048	8	0.013328	60	10	60-180	60	157	GapExp	BigFlash	0	37	2	30	0	distractor	1	669	666	154829	13.328	10.363	16.296
ProbeTrack15	16	ProbeTrack	15.0	SCS215a	20120508.143649	20120508.144054	8	0.013328	60	10	60-180	60	89	GapExp	BigFlash	0	38	2	0	0	distractor	1	471	765	155594	13.328	12.831	13.825
ProbeTrack15	16	ProbeTrack	15.0	SCS215a	20120508.143649	20120508.144100	8	0.013328	60	10	60-180	60	123	GapExp	BigFlash	0	39	2	3	1	target	1	394	803	156397	13.328	10.367	16.288
ProbeTrack15	16	ProbeTrack	15.0	SCS215a	20120508.143649	20120508.144106	8	0.013328	60	10	60-180	60	180	GapExp	BigFlash	0	40	2	3	1	target	1	436	782	157179	13.328	13.106	13.557
ProbeTrack15	16	ProbeTrack	15.0	SCS215a	20120508.143649	20120508.144112	8	0.013328	60	10	60-180	60	165	GapExp	BigFlash	0	41	2	1	1	target	1	531	735	157914	13.328	13.105	13.538
ProbeTrack15	16	ProbeTrack	15.0	SCS215a	20120508.143649	20120508.144119	8	0.013328	60	10	60-180	60	118	GapExp	BigFlash	0	42	2	1	0	distractor	1	654	673	158587	13.328	13.304	13.353
ProbeTrack15	16	ProbeTrack	15.0	SCS215a	20120508.143649	20120508.144125	8	0.013328	60	10	60-180	60	86	GapExp	BigFlash	0	43	2	30	0	distractor	1	492	754	159341	13.328	7.879	18.757
ProbeTrack15	16	ProbeTrack	15.0	SCS215a	20120508.143649	20120508.144131	8	0.013328	60	10	60-180	60	142	GapExp	BigFlash	0	44	2	0	1	target	1	425	788	160129	13.328	12.205	14.461
ProbeTrack15	16	ProbeTrack	15.0	SCS215a	20120508.143649	20120508.144137	8	0.013328	60	10	60-180	60	176	GapExp	BigFlash	0	45	2	0	1	target	1	376	812	160941	13.328	13.274	13.383
ProbeTrack15	16	ProbeTrack	15.0	SCS215a	20120508.143649	20120508.144144	8	0.013328	60	10	60-180	60	91	GapExp	BigFlash	0	46	2	3	1	target	1	389	806	161747	13.328	13.297	13.353
ProbeTrack15	16	ProbeTrack	15.0	SCS215a	20120508.143649	20120508.144151	8	0.013328	60	10	60-180	60	72	GapExp	BigFlash	0	47	2	3	0	target	0	317	-1000	160747	13.328	13.105	13.551
ProbeTrack15	16	ProbeTrack	15.0	SCS215a	20120508.143649	20120508.144156	8	0.013328	60	10	60-180	60	113	GapExp	BigFlash	0	48	2	30	1	distractor	0	388	-1000	159747	13.431	2.476	25.448
ProbeTrack15	16	ProbeTrack	15.0	SCS215a	20120508.143649	20120508.144202	8	0.013328	60	10	60-180	60	85	GapExp	BigFlash	0	49	2	0	1	target	1	454	773	160520	13.328	13.208	13.449
ProbeTrack15	16	ProbeTrack	15.0	SCS215a	20120508.143649	20120508.144207	8	0.013328	60	10	60-180	60	179	GapExp	BigFlash	0	50	2	0	0	distractor	1	474	763	161283	13.328	13.308	13.353
ProbeTrack15	16	ProbeTrack	15.0	SCS215a	20120508.143649	20120508.144214	8	0.013328	60	10	60-180	60	124	GapExp	BigFlash	0	51	2	0	1	target	1	379	811	162094	13.328	13.308	13.348
ProbeTrack15	16	ProbeTrack	15.0	SCS215a	20120508.143649	20120508.144220	8	0.013328	60	10	60-180	60	142	GapExp	BigFlash	0	52	2	1	1	target	1	337	832	162926	13.328	12.965	13.713
ProbeTrack15	16	ProbeTrack	15.0	SCS215a	20120508.143649	20120508.144226	8	0.013328	60	10	60-180	60	148	GapExp	BigFlash	0	53	2	30	0	distractor	1	567	717	163643	13.328	13.308	13.348
ProbeTrack15	16	ProbeTrack	15.0	SCS215a	20120508.143649	20120508.144234	8	0.013328	60	10	60-180	60	180	GapExp	BigFlash	0	54	2	3	1	target	1	358	821	164464	13.328	7.623	19.029
ProbeTrack15	16	ProbeTrack	15.0	SCS215a	20120508.143649	20120508.144240	8	0.013328	60	10	60-180	60	178	GapExp	BigFlash	0	55	2	3	0	distractor	1	476	762	165226	13.328	13.309	13.345
ProbeTrack15	16	ProbeTrack	15.0	SCS215a	20120508.143649	20120508.144247	8	0.013328	60	10	60-180	60	116	GapExp	BigFlash	0	56	2	1	1	distractor	0	551	-1000	164226	13.328	13.104	13.552
ProbeTrack15	16	ProbeTrack	15.0	SCS215a	20120508.143649	20120508.144252	8	0.013328	60	10	60-180	60	180	GapExp	BigFlash	0	57	2	3	1	target	1	398	801	165027	13.328	10.797	15.870
ProbeTrack15	16	ProbeTrack	15.0	SCS215a	20120508.143649	20120508.144259	8	0.013328	60	10	60-180	60	113	GapExp	BigFlash	0	58	2	0	1	target	1	431	785	165812	13.385	4.801	25.628
ProbeTrack15	16	ProbeTrack	15.0	SCS215a	20120508.143649	20120508.144305	8	0.013328	60	10	60-180	60	104	GapExp	BigFlash	0	59	2	30	1	target	1	344	828	166640	13.328	13.308	13.345
ProbeTrack15	16	ProbeTrack	15.0	SCS215a	20120508.143649	20120508.144311	8	0.013328	60	10	60-180	60	131	GapExp	BigFlash	0	60	2	1	1	target	1	632	684	167324	13.328	13.307	13.349
ProbeTrack15	16	ProbeTrack	15.0	SCS215a	20120508.143649	20120508.144316	8	0.013328	60	10	60-180	60	140	GapExp	BigFlash	0	61	2	1	0	distractor	1	430	785	168109	13.328	13.304	13.348
ProbeTrack15	16	ProbeTrack	15.0	SCS215a	20120508.143649	20120508.144322	8	0.013328	60	10	60-180	60	64	GapExp	BigFlash	0	62	2	30	0	distractor	1	385	808	168917	13.328	13.299	13.344
ProbeTrack15	16	ProbeTrack	15.0	SCS215a	20120508.143649	20120508.144328	8	0.013328	60	10	60-180	60	92	GapExp	BigFlash	0	63	2	30	1	target	1	355	823	169740	13.328	9.818	16.846
ProbeTrack15	16	ProbeTrack	15.0	SCS215a	20120508.143649	20120508.144333	8	0.013328	60	10	60-180	60	164	GapExp	BigFlash	0	64	2	30	1	target	1	389	806	170546	13.328	6.865	19.792
ProbeTrack15	16	ProbeTrack	15.0	SCS215a	20120508.143649	20120508.144340	8	0.013328	60	10	60-180	60	130	GapExp	BigFlash	0	65	2	0	1	target	1	447	777	171323	13.328	6.982	19.686
ProbeTrack15	16	ProbeTrack	15.0	SCS215a	20120508.143649	20120508.144346	8	0.013328	60	10	60-180	60	124	GapExp	BigFlash	0	66	2	30	1	target	1	347	827	172150	13.328	10.528	16.131
ProbeTrack15	16	ProbeTrack	15.0	SCS215a	20120508.143649	20120508.144352	8	0.013328	60	10	60-180	60	180	GapExp	BigFlash	0	67	2	3	1	target	1	257	872	173022	13.328	7.007	19.651
ProbeTrack15	16	ProbeTrack	15.0	SCS215a	20120508.143649	20120508.144358	8	0.013328	60	10	60-180	60	134	GapExp	BigFlash	0	68	2	1	1	target	1	331	835	173857	13.328	10.670	15.988
ProbeTrack15	16	ProbeTrack	15.0	SCS215a	20120508.143649	20120508.144404	8	0.013328	60	10	60-180	60	92	GapExp	BigFlash	0	69	2	0	1	target	1	276	862	174719	13.328	11.319	15.338
ProbeTrack15	16	ProbeTrack	15.0	SCS215a	20120508.143649	20120508.144409	8	0.013328	60	10	60-180	60	66	GapExp	BigFlash	0	70	2	3	1	target	1	244	878	175597	13.328	13.097	13.551
ProbeTrack15	16	ProbeTrack	15.0	SCS215a	20120508.143649	20120508.144414	8	0.013328	60	10	60-180	60	83	GapExp	BigFlash	0	71	2	30	0	distractor	1	322	839	176436	13.328	13.308	13.349
ProbeTrack15	16	ProbeTrack	15.0	SCS215a	20120508.143649	20120508.144420	8	0.013328	60	10	60-180	60	100	GapExp	BigFlash	0	72	2	0	0	distractor	1	411	795	177231	13.328	13.142	13.534
ProbeTrack15	16	ProbeTrack	15.0	SCS215a	20120508.143649	20120508.144425	8	0.013328	60	10	60-180	60	148	GapExp	BigFlash	0	73	2	1	0	target	0	768	-1000	176231	13.328	11.327	15.316
ProbeTrack15	16	ProbeTrack	15.0	SCS215a	20120508.143649	20120508.144432	8	0.013328	60	10	60-180	60	138	GapExp	BigFlash	0	74	2	1	0	distractor	1	594	703	176934	13.328	12.301	14.361
ProbeTrack15	16	ProbeTrack	15.0	SCS215a	20120508.143649	20120508.144438	8	0.013328	60	10	60-180	60	142	GapExp	BigFlash	0	75	2	30	1	target	1	385	808	177742	13.328	13.098	13.559
ProbeTrack15	16	ProbeTrack	15.0	SCS215a	20120508.143649	20120508.144444	8	0.013328	60	10	60-180	60	169	GapExp	BigFlash	0	76	2	3	1	target	1	348	826	178568	13.328	8.114	18.530
ProbeTrack15	16	ProbeTrack	15.0	SCS215a	20120508.143649	20120508.144451	8	0.013328	60	10	60-180	60	73	GapExp	BigFlash	0	77	2	3	0	distractor	1	541	730	179298	13.328	12.317	14.330
ProbeTrack15	16	ProbeTrack	15.0	SCS215a	20120508.143649	20120508.144456	8	0.013328	60	10	60-180	60	82	GapExp	BigFlash	0	78	2	3	1	target	1	387	807	180105	13.328	8.790	17.866
ProbeTrack15	16	ProbeTrack	15.0	SCS215a	20120508.143649	20120508.144501	8	0.013328	60	10	60-180	60	118	GapExp	BigFlash	0	79	2	1	1	target	1	372	814	180919	13.328	13.297	13.384
ProbeTrack15	16	ProbeTrack	15.0	SCS215a	20120508.143649	20120508.144507	8	0.013328	60	10	60-180	60	169	GapExp	BigFlash	0	80	2	3	1	target	1	321	840	181759	13.328	9.522	17.135
ProbeTrack15	16	ProbeTrack	15.0	SCS215a	20120508.143649	20120508.144513	8	0.013328	60	10	60-180	60	98	GapExp	BigFlash	0	81	2	30	0	distractor	1	462	769	182528	13.328	13.106	13.557
ProbeTrack15	16	ProbeTrack	15.0	SCS215a	20120508.143649	20120508.144519	8	0.013328	60	10	60-180	60	68	GapExp	BigFlash	0	82	2	3	1	target	1	411	795	183323	13.328	9.019	17.632
ProbeTrack15	16	ProbeTrack	15.0	SCS215a	20120508.143649	20120508.144524	8	0.013328	60	10	60-180	60	147	GapExp	BigFlash	0	83	2	1	0	distractor	1	502	749	184072	13.328	13.271	13.377
ProbeTrack15	16	ProbeTrack	15.0	SCS215a	20120508.143649	20120508.144530	8	0.013328	60	10	60-180	60	133	GapExp	BigFlash	0	84	2	0	1	target	1	451	775	184847	13.328	11.319	15.321
ProbeTrack15	16	ProbeTrack	15.0	SCS215a	20120508.143649	20120508.144536	8	0.013328	60	10	60-180	60	113	GapExp	BigFlash	0	85	2	0	1	target	1	319	841	185688	13.328	13.296	13.348
ProbeTrack15	16	ProbeTrack	15.0	SCS215a	20120508.143649	20120508.144542	8	0.013328	60	10	60-180	60	120	GapExp	BigFlash	0	86	2	3	1	target	1	318	841	186529	13.328	10.747	15.903
ProbeTrack15	16	ProbeTrack	15.0	SCS215a	20120508.143649	20120508.144547	8	0.013328	60	10	60-180	60	166	GapExp	BigFlash	0	87	2	1	1	target	1	341	830	187359	13.328	13.105	13.557
ProbeTrack15	16	ProbeTrack	15.0	SCS215a	20120508.143649	20120508.144553	8	0.013328	60	10	60-180	60	133	GapExp	BigFlash	0	88	2	3	0	distractor	1	438	781	188140	13.328	13.093	13.561
ProbeTrack15	16	ProbeTrack	15.0	SCS215a	20120508.143649	20120508.144559	8	0.013328	60	10	60-180	60	69	GapExp	BigFlash	0	89	2	30	1	target	1	371	815	188955	13.328	13.311	13.344
ProbeTrack15	16	ProbeTrack	15.0	SCS215a	20120508.143649	20120508.144605	8	0.013328	60	10	60-180	60	93	GapExp	BigFlash	0	90	2	3	0	distractor	1	457	772	189727	13.328	13.309	13.356
ProbeTrack15	16	ProbeTrack	15.0	SCS215a	20120508.143649	20120508.144610	8	0.013328	60	10	60-180	60	66	GapExp	BigFlash	0	91	2	1	0	distractor	1	420	790	190517	13.328	13.103	13.559
ProbeTrack15	16	ProbeTrack	15.0	SCS215a	20120508.143649	20120508.144615	8	0.013328	60	10	60-180	60	147	GapExp	BigFlash	0	92	2	0	1	target	1	385	808	191325	13.328	13.099	13.565
ProbeTrack15	16	ProbeTrack	15.0	SCS215a	20120508.143649	20120508.144621	8	0.013328	60	10	60-180	60	167	GapExp	BigFlash	0	93	2	3	0	distractor	1	447	777	192102	13.328	12.018	14.653
ProbeTrack15	16	ProbeTrack	15.0	SCS215a	20120508.143649	20120508.144627	8	0.013328	60	10	60-180	60	119	GapExp	BigFlash	0	94	2	30	1	target	1	412	794	192896	13.328	13.295	13.352
ProbeTrack15	16	ProbeTrack	15.0	SCS215a	20120508.143649	20120508.144634	8	0.013328	60	10	60-180	60	132	GapExp	BigFlash	0	95	2	3	0	distractor	1	386	807	193703	13.328	6.727	19.923
ProbeTrack15	16	ProbeTrack	15.0	SCS215a	20120508.143649	20120508.144639	8	0.013328	60	10	60-180	60	121	GapExp	BigFlash	0	96	2	30	1	target	1	367	817	194520	13.328	13.308	13.351
ProbeTrack15	16	ProbeTrack	15.0	SCS215a	20120508.143649	20120508.144646	8	0.013328	60	10	60-180	60	143	GapExp	BigFlash	0	97	2	1	1	target	1	468	766	195286	13.328	6.604	20.053
ProbeTrack15	16	ProbeTrack	15.0	SCS215a	20120508.143649	20120508.144652	8	0.013328	60	10	60-180	60	129	GapExp	BigFlash	0	98	2	30	0	distractor	1	1291	355	195641	13.328	13.306	13.348
ProbeTrack15	16	ProbeTrack	15.0	SCS215a	20120508.143649	20120508.144659	8	0.013328	60	10	60-180	60	121	GapExp	BigFlash	0	99	2	0	1	target	1	576	712	196353	13.328	12.530	14.128
ProbeTrack15	16	ProbeTrack	15.0	SCS215a	20120508.143649	20120508.144706	8	0.013328	60	10	60-180	60	66	GapExp	BigFlash	0	100	2	1	1	target	1	415	793	197146	13.328	13.307	13.346
ProbeTrack15	16	ProbeTrack	15.0	SCS215a	20120508.143649	20120508.144711	8	0.013328	60	10	60-180	60	128	GapExp	BigFlash	0	101	2	1	0	distractor	1	458	771	197917	13.328	13.106	13.563
ProbeTrack15	16	ProbeTrack	15.0	SCS215a	20120508.143649	20120508.144717	8	0.013328	60	10	60-180	60	119	GapExp	BigFlash	0	102	2	3	0	distractor	1	368	816	198733	13.328	6.799	19.870
ProbeTrack15	16	ProbeTrack	15.0	SCS215a	20120508.143649	20120508.144723	8	0.013328	60	10	60-180	60	122	GapExp	BigFlash	0	103	2	3	1	distractor	0	244	-1000	197733	13.328	13.283	13.361
ProbeTrack15	16	ProbeTrack	15.0	SCS215a	20120508.143649	20120508.144729	8	0.013328	60	10	60-180	60	73	GapExp	BigFlash	0	104	2	30	0	distractor	1	377	812	198545	13.328	13.308	13.345
ProbeTrack15	16	ProbeTrack	15.0	SCS215a	20120508.143649	20120508.144734	8	0.013328	60	10	60-180	60	125	GapExp	BigFlash	0	105	2	0	1	distractor	0	380	-1000	197545	13.328	13.283	13.374
ProbeTrack15	16	ProbeTrack	15.0	SCS215a	20120508.143649	20120508.144740	8	0.013328	60	10	60-180	60	66	GapExp	BigFlash	0	106	2	3	1	target	1	424	788	198333	13.328	13.302	13.361
ProbeTrack15	16	ProbeTrack	15.0	SCS215a	20120508.143649	20120508.144745	8	0.013328	60	10	60-180	60	118	GapExp	BigFlash	0	107	2	3	0	distractor	1	547	727	199060	13.328	13.092	13.555
ProbeTrack15	16	ProbeTrack	15.0	SCS215a	20120508.143649	20120508.144751	8	0.013328	60	10	60-180	60	109	GapExp	BigFlash	0	108	2	1	0	distractor	1	485	758	199818	13.328	13.308	13.346
ProbeTrack15	16	ProbeTrack	15.0	SCS215a	20120508.143649	20120508.144757	8	0.013328	60	10	60-180	60	175	GapExp	BigFlash	0	109	2	0	0	target	0	516	-1000	198818	13.328	11.529	15.130
ProbeTrack15	16	ProbeTrack	15.0	SCS215a	20120508.143649	20120508.144805	8	0.013328	60	10	60-180	60	76	GapExp	BigFlash	0	110	2	3	0	distractor	1	430	785	199603	13.328	13.308	13.356
ProbeTrack15	16	ProbeTrack	15.0	SCS215a	20120508.143649	20120508.144811	8	0.013328	60	10	60-180	60	172	GapExp	BigFlash	0	111	2	30	0	distractor	1	413	794	200397	13.328	10.837	15.812
ProbeTrack15	16	ProbeTrack	15.0	SCS215a	20120508.143649	20120508.144818	8	0.013328	60	10	60-180	60	113	GapExp	BigFlash	0	112	2	3	0	distractor	1	395	803	201200	13.324	10.905	15.737
ProbeTrack15	16	ProbeTrack	15.0	SCS215a	20120508.143649	20120508.144824	8	0.013328	60	10	60-180	60	83	GapExp	BigFlash	0	113	2	3	1	target	1	513	744	201944	13.328	13.130	13.533
ProbeTrack15	16	ProbeTrack	15.0	SCS215a	20120508.143649	20120508.144829	8	0.013328	60	10	60-180	60	161	GapExp	BigFlash	0	114	2	3	1	target	1	511	745	202689	13.328	13.105	13.541
ProbeTrack15	16	ProbeTrack	15.0	SCS215a	20120508.143649	20120508.144835	8	0.013328	60	10	60-180	60	107	GapExp	BigFlash	0	115	2	30	0	distractor	1	546	727	203416	13.328	10.628	16.029
ProbeTrack15	16	ProbeTrack	15.0	SCS215a	20120508.143649	20120508.144842	8	0.013328	60	10	60-180	60	90	GapExp	BigFlash	0	116	2	30	1	target	1	507	747	204163	13.328	13.089	13.566
ProbeTrack15	16	ProbeTrack	15.0	SCS215a	20120508.143649	20120508.144849	8	0.013328	60	10	60-180	60	72	GapExp	BigFlash	0	117	2	1	1	distractor	0	494	-1000	203163	13.328	11.477	15.185
ProbeTrack15	16	ProbeTrack	15.0	SCS215a	20120508.143649	20120508.144854	8	0.013328	60	10	60-180	60	67	GapExp	BigFlash	0	118	2	3	0	distractor	1	352	824	203987	13.328	13.302	13.349
ProbeTrack15	16	ProbeTrack	15.0	SCS215a	20120508.143649	20120508.144859	8	0.013328	60	10	60-180	60	63	GapExp	BigFlash	0	119	2	0	1	target	1	348	826	204813	13.328	13.302	13.354
ProbeTrack15	16	ProbeTrack	15.0	SCS215a	20120508.143649	20120508.144903	8	0.013328	60	10	60-180	60	67	GapExp	BigFlash	0	120	2	30	1	target	1	353	824	205637	13.328	9.312	17.358
ProbeTrack15	16	ProbeTrack	15.0	SCS215a	20120508.143649	20120508.144908	8	0.013328	60	10	60-180	60	128	GapExp	BigFlash	0	121	2	3	0	distractor	1	343	829	206466	13.328	13.159	13.498
ProbeTrack15	16	ProbeTrack	15.0	SCS215a	20120508.143649	20120508.144915	8	0.013328	60	10	60-180	60	128	GapExp	BigFlash	0	122	2	1	0	distractor	1	446	777	207243	13.328	13.292	13.352
ProbeTrack15	16	ProbeTrack	15.0	SCS215a	20120508.143649	20120508.144920	8	0.013328	60	10	60-180	60	178	GapExp	BigFlash	0	123	2	1	0	distractor	1	407	797	208040	13.328	13.309	13.354
ProbeTrack15	16	ProbeTrack	15.0	SCS215a	20120508.143649	20120508.144927	8	0.013328	60	10	60-180	60	167	GapExp	BigFlash	0	124	2	30	1	target	1	422	789	208829	13.328	13.293	13.350
ProbeTrack15	16	ProbeTrack	15.0	SCS215a	20120508.143649	20120508.144934	8	0.013328	60	10	60-180	60	158	GapExp	BigFlash	0	125	2	1	1	target	1	351	825	209654	13.328	13.308	13.351
ProbeTrack15	16	ProbeTrack	15.0	SCS215a	20120508.143649	20120508.144940	8	0.013328	60	10	60-180	60	130	GapExp	BigFlash	0	126	2	30	1	target	1	289	856	210510	13.327	13.098	13.359
ProbeTrack15	16	ProbeTrack	15.0	SCS215a	20120508.143649	20120508.144947	8	0.013328	60	10	60-180	60	122	GapExp	BigFlash	0	127	2	3	0	distractor	1	356	822	211332	13.328	11.543	15.789
ProbeTrack15	16	ProbeTrack	15.0	SCS215a	20120508.143649	20120508.144952	8	0.013328	60	10	60-180	60	70	GapExp	BigFlash	0	128	2	1	0	distractor	1	456	772	212104	13.328	7.258	19.393
ProbeTrack15	16	ProbeTrack	15.0	SCS215a	20120508.143649	20120508.144957	8	0.013328	60	10	60-180	60	117	GapExp	BigFlash	0	129	2	1	1	distractor	0	400	-1000	211104	13.328	11.043	15.619
ProbeTrack15	16	ProbeTrack	15.0	SCS215a	20120508.143649	20120508.145003	8	0.013328	60	10	60-180	60	101	GapExp	BigFlash	0	130	2	3	1	target	1	282	859	211963	13.328	13.299	13.358
ProbeTrack15	16	ProbeTrack	15.0	SCS215a	20120508.143649	20120508.145008	8	0.013328	60	10	60-180	60	105	GapExp	BigFlash	0	131	2	1	0	distractor	1	481	760	212723	13.328	13.308	13.361
ProbeTrack15	16	ProbeTrack	15.0	SCS215a	20120508.143649	20120508.145014	8	0.013328	60	10	60-180	60	68	GapExp	BigFlash	0	132	2	0	1	target	1	344	828	213551	13.328	13.099	13.537
ProbeTrack15	16	ProbeTrack	15.0	SCS215a	20120508.143649	20120508.145019	8	0.013328	60	10	60-180	60	171	GapExp	BigFlash	0	133	2	1	1	distractor	0	501	-1000	212551	13.328	13.104	13.540
ProbeTrack15	16	ProbeTrack	15.0	SCS215a	20120508.143649	20120508.145026	8	0.013328	60	10	60-180	60	167	GapExp	BigFlash	0	134	2	0	0	distractor	1	501	750	213301	13.328	10.742	15.900
ProbeTrack15	16	ProbeTrack	15.0	SCS215a	20120508.143649	20120508.145032	8	0.013328	60	10	60-180	60	142	GapExp	BigFlash	0	135	2	1	0	distractor	1	443	779	214080	13.328	9.497	17.159
ProbeTrack15	16	ProbeTrack	15.0	SCS215a	20120508.143649	20120508.145038	8	0.013328	60	10	60-180	60	139	GapExp	BigFlash	0	136	2	3	0	distractor	1	431	785	214865	13.328	13.162	13.508
ProbeTrack15	16	ProbeTrack	15.0	SCS215a	20120508.143649	20120508.145044	8	0.013328	60	10	60-180	60	111	GapExp	BigFlash	0	137	2	0	1	target	1	370	815	215680	13.328	4.956	21.680
ProbeTrack15	16	ProbeTrack	15.0	SCS215a	20120508.143649	20120508.145050	8	0.013328	60	10	60-180	60	100	GapExp	BigFlash	0	138	2	0	0	distractor	1	431	785	216465	13.328	11.036	16.369
ProbeTrack15	16	ProbeTrack	15.0	SCS215a	20120508.143649	20120508.145056	8	0.013328	60	10	60-180	60	149	GapExp	BigFlash	0	139	2	1	0	distractor	1	429	786	217251	13.328	11.166	15.504
ProbeTrack15	16	ProbeTrack	15.0	SCS215a	20120508.143649	20120508.145102	8	0.013328	60	10	60-180	60	98	GapExp	BigFlash	0	140	2	1	1	distractor	0	501	-1000	216251	13.328	13.093	13.564
ProbeTrack15	16	ProbeTrack	15.0	SCS215a	20120508.143649	20120508.145108	8	0.013328	60	10	60-180	60	131	GapExp	BigFlash	0	141	2	3	0	distractor	1	411	795	217046	13.328	13.008	13.655
ProbeTrack15	16	ProbeTrack	15.0	SCS215a	20120508.143649	20120508.145114	8	0.013328	60	10	60-180	60	147	GapExp	BigFlash	0	142	2	3	0	distractor	1	471	765	217811	13.378	8.872	19.846
ProbeTrack15	16	ProbeTrack	15.0	SCS215a	20120508.143649	20120508.145121	8	0.013328	60	10	60-180	60	175	GapExp	BigFlash	0	143	2	0	0	distractor	1	460	770	218581	13.328	13.280	13.391
ProbeTrack15	16	ProbeTrack	15.0	SCS215a	20120508.143649	20120508.145127	8	0.013328	60	10	60-180	60	107	GapExp	BigFlash	0	144	2	1	0	distractor	1	425	788	219369	13.328	12.761	14.080
ProbeTrack15	16	ProbeTrack	15.0	SCS215a	20120508.143649	20120508.145133	8	0.013328	60	10	60-180	60	145	GapExp	BigFlash	0	145	2	3	0	distractor	1	424	788	220157	13.328	13.298	13.351
ProbeTrack15	16	ProbeTrack	15.0	SCS215a	20120508.143649	20120508.145139	8	0.013328	60	10	60-180	60	173	GapExp	BigFlash	0	146	2	1	0	distractor	1	541	730	220887	13.328	10.535	16.188
ProbeTrack15	16	ProbeTrack	15.0	SCS215a	20120508.143649	20120508.145145	8	0.013328	60	10	60-180	60	122	GapExp	BigFlash	0	147	2	30	1	distractor	0	440	-1000	219887	13.328	13.306	13.352
ProbeTrack15	16	ProbeTrack	15.0	SCS215a	20120508.143649	20120508.145201	8	0.013328	60	10	60-180	60	78	GapExp	BigFlash	0	148	2	1	1	target	1	469	766	220653	13.328	11.644	15.011
ProbeTrack15	16	ProbeTrack	15.0	SCS215a	20120508.143649	20120508.145206	8	0.013328	60	10	60-180	60	132	GapExp	BigFlash	0	149	2	0	0	distractor	1	437	782	221435	13.328	6.007	20.641
ProbeTrack15	16	ProbeTrack	15.0	SCS215a	20120508.143649	20120508.145212	8	0.013328	60	10	60-180	60	126	GapExp	BigFlash	0	150	2	3	1	target	1	340	830	222265	13.328	9.538	17.112
ProbeTrack15	16	ProbeTrack	15.0	SCS215a	20120508.143649	20120508.145218	8	0.013328	60	10	60-180	60	180	GapExp	BigFlash	0	151	2	0	0	distractor	1	384	808	223073	13.328	11.962	14.693
ProbeTrack15	16	ProbeTrack	15.0	SCS215a	20120508.143649	20120508.145224	8	0.013328	60	10	60-180	60	175	GapExp	BigFlash	0	152	2	30	1	target	1	289	856	223929	13.328	5.423	21.231
ProbeTrack15	16	ProbeTrack	15.0	SCS215a	20120508.143649	20120508.145233	8	0.013328	60	10	60-180	60	161	GapExp	BigFlash	0	153	2	30	0	distractor	1	341	830	224759	13.328	13.097	13.552
ProbeTrack15	16	ProbeTrack	15.0	SCS215a	20120508.143649	20120508.145239	8	0.013328	60	10	60-180	60	134	GapExp	BigFlash	0	154	2	1	0	distractor	1	668	666	225425	13.328	13.308	13.347
ProbeTrack15	16	ProbeTrack	15.0	SCS215a	20120508.143649	20120508.145245	8	0.013328	60	10	60-180	60	153	GapExp	BigFlash	0	155	2	30	0	distractor	1	388	806	226231	13.328	10.300	16.361
ProbeTrack15	16	ProbeTrack	15.0	SCS215a	20120508.143649	20120508.145252	8	0.013328	60	10	60-180	60	95	GapExp	BigFlash	0	156	2	0	0	distractor	1	637	682	226913	13.328	13.037	13.626
ProbeTrack15	16	ProbeTrack	15.0	SCS215a	20120508.143649	20120508.145257	8	0.013328	60	10	60-180	60	140	GapExp	BigFlash	0	157	2	1	0	distractor	1	465	768	227681	13.328	13.307	13.350
ProbeTrack15	16	ProbeTrack	15.0	SCS215a	20120508.143649	20120508.145304	8	0.013328	60	10	60-180	60	170	GapExp	BigFlash	0	158	2	0	1	target	1	530	735	228416	13.328	11.632	15.026
ProbeTrack15	16	ProbeTrack	15.0	SCS215a	20120508.143649	20120508.145310	8	0.013328	60	10	60-180	60	141	GapExp	BigFlash	0	159	2	0	0	distractor	1	407	797	229213	13.328	13.116	13.551
ProbeTrack15	16	ProbeTrack	15.0	SCS215a	20120508.143649	20120508.145316	8	0.013328	60	10	60-180	60	126	GapExp	BigFlash	0	160	2	3	1	target	1	399	801	230014	13.328	13.105	13.544
ProbeTrack15	16	ProbeTrack	15.0	SCS215a	20120508.143649	20120508.145321	8	0.013328	60	10	60-180	60	68	GapExp	BigFlash	0	161	2	0	1	target	1	416	792	230806	13.328	9.253	17.398
ProbeTrack15	16	ProbeTrack	15.0	SCS215a	20120508.143649	20120508.145326	8	0.013328	60	10	60-180	60	179	GapExp	BigFlash	0	162	2	0	0	distractor	1	324	838	231644	13.328	13.309	13.346
ProbeTrack15	16	ProbeTrack	15.0	SCS215a	20120508.143649	20120508.145333	8	0.013328	60	10	60-180	60	76	GapExp	BigFlash	0	163	2	1	1	target	1	473	764	232408	13.328	8.489	18.159
ProbeTrack15	16	ProbeTrack	15.0	SCS215a	20120508.143649	20120508.145339	8	0.013328	60	10	60-180	60	144	GapExp	BigFlash	0	164	2	0	1	target	1	482	759	233167	13.328	13.305	13.353
ProbeTrack15	16	ProbeTrack	15.0	SCS215a	20120508.143649	20120508.145345	8	0.013328	60	10	60-180	60	91	GapExp	BigFlash	0	165	2	0	0	distractor	1	514	743	233910	13.328	12.809	13.856
ProbeTrack15	16	ProbeTrack	15.0	SCS215a	20120508.143649	20120508.145350	8	0.013328	60	10	60-180	60	129	GapExp	BigFlash	0	166	2	1	0	distractor	1	366	817	234727	13.328	13.096	13.557
ProbeTrack15	16	ProbeTrack	15.0	SCS215a	20120508.143649	20120508.145356	8	0.013328	60	10	60-180	60	111	GapExp	BigFlash	0	167	2	1	1	target	1	481	760	235487	13.328	13.106	13.557
ProbeTrack15	16	ProbeTrack	15.0	SCS215a	20120508.143649	20120508.145402	8	0.013328	60	10	60-180	60	110	GapExp	BigFlash	0	168	2	3	0	distractor	1	377	812	236299	13.328	13.306	13.343
ProbeTrack15	16	ProbeTrack	15.0	SCS215a	20120508.143649	20120508.145408	8	0.013328	60	10	60-180	60	179	GapExp	BigFlash	0	169	2	30	0	target	0	576	-1000	235299	13.328	8.941	17.722
ProbeTrack15	16	ProbeTrack	15.0	SCS215a	20120508.143649	20120508.145415	8	0.013328	60	10	60-180	60	133	GapExp	BigFlash	0	170	2	1	1	distractor	0	390	-1000	234299	13.328	7.881	18.776
ProbeTrack15	16	ProbeTrack	15.0	SCS215a	20120508.143649	20120508.145425	8	0.013328	60	10	60-180	60	140	GapExp	BigFlash	0	171	2	30	0	distractor	1	459	771	235070	13.328	13.090	13.569
ProbeTrack15	16	ProbeTrack	15.0	SCS215a	20120508.143649	20120508.145431	8	0.013328	60	10	60-180	60	162	GapExp	BigFlash	0	172	2	30	0	distractor	1	382	809	235879	13.328	10.397	16.265
ProbeTrack15	16	ProbeTrack	15.0	SCS215a	20120508.143649	20120508.145438	8	0.013328	60	10	60-180	60	137	GapExp	BigFlash	0	173	2	0	1	target	1	487	757	236636	13.328	13.089	13.562
ProbeTrack15	16	ProbeTrack	15.0	SCS215a	20120508.143649	20120508.145444	8	0.013328	60	10	60-180	60	114	GapExp	BigFlash	0	174	2	30	0	distractor	1	443	779	237415	13.328	7.925	18.741
ProbeTrack15	16	ProbeTrack	15.0	SCS215a	20120508.143649	20120508.145450	8	0.013328	60	10	60-180	60	149	GapExp	BigFlash	0	175	2	30	1	target	1	406	797	238212	13.328	11.638	15.018
ProbeTrack15	16	ProbeTrack	15.0	SCS215a	20120508.143649	20120508.145457	8	0.013328	60	10	60-180	60	66	GapExp	BigFlash	0	176	2	30	0	distractor	1	388	806	239018	13.328	13.307	13.350
ProbeTrack15	16	ProbeTrack	15.0	SCS215a	20120508.143649	20120508.145502	8	0.013328	60	10	60-180	60	124	GapExp	BigFlash	0	177	2	0	0	distractor	1	521	740	239758	13.328	13.302	13.360
ProbeTrack15	16	ProbeTrack	15.0	SCS215a	20120508.143649	20120508.145508	8	0.013328	60	10	60-180	60	161	GapExp	BigFlash	0	178	2	30	0	distractor	1	487	757	240515	13.328	6.484	20.172
ProbeTrack15	16	ProbeTrack	15.0	SCS215a	20120508.143649	20120508.145515	8	0.013328	60	10	60-180	60	131	GapExp	BigFlash	0	179	2	3	1	target	1	382	809	241324	13.328	13.106	13.545
ProbeTrack15	16	ProbeTrack	15.0	SCS215a	20120508.143649	20120508.145521	8	0.013328	60	10	60-180	60	123	GapExp	BigFlash	0	180	2	30	1	target	1	396	802	242126	13.328	13.107	13.557
ProbeTrack15	16	ProbeTrack	15.0	SCS215a	20120508.143649	20120508.145527	8	0.013328	60	10	60-180	60	128	GapExp	BigFlash	0	181	2	3	0	distractor	1	426	787	242913	13.328	9.134	17.505
ProbeTrack15	16	ProbeTrack	15.0	SCS215a	20120508.143649	20120508.145533	8	0.013328	60	10	60-180	60	175	GapExp	BigFlash	0	182	2	0	0	distractor	1	398	801	243714	13.328	13.304	13.349
ProbeTrack15	16	ProbeTrack	15.0	SCS215a	20120508.143649	20120508.145539	8	0.013328	60	10	60-180	60	142	GapExp	BigFlash	0	183	2	3	1	target	1	514	743	244457	13.328	13.309	13.349
ProbeTrack15	16	ProbeTrack	15.0	SCS215a	20120508.143649	20120508.145545	8	0.013328	60	10	60-180	60	68	GapExp	BigFlash	0	184	2	0	0	distractor	1	1022	489	244946	13.328	11.592	15.059
ProbeTrack15	16	ProbeTrack	15.0	SCS215a	20120508.143649	20120508.145551	8	0.013328	60	10	60-180	60	174	GapExp	BigFlash	0	185	2	0	1	target	1	326	837	245783	13.328	10.020	16.642
ProbeTrack15	16	ProbeTrack	15.0	SCS215a	20120508.143649	20120508.145558	8	0.013328	60	10	60-180	60	149	GapExp	BigFlash	0	186	2	30	1	target	1	416	792	246575	13.328	13.306	13.351
ProbeTrack15	16	ProbeTrack	15.0	SCS215a	20120508.143649	20120508.145604	8	0.013328	60	10	60-180	60	133	GapExp	BigFlash	0	187	2	0	1	target	1	416	792	247367	13.328	13.101	13.556
ProbeTrack15	16	ProbeTrack	15.0	SCS215a	20120508.143649	20120508.145610	8	0.013328	60	10	60-180	60	159	GapExp	BigFlash	0	188	2	0	0	distractor	1	490	755	248122	13.328	12.649	14.003
ProbeTrack15	16	ProbeTrack	15.0	SCS215a	20120508.143649	20120508.145616	8	0.013328	60	10	60-180	60	93	GapExp	BigFlash	0	189	2	1	1	target	1	339	831	248953	13.328	13.306	13.348
ProbeTrack15	16	ProbeTrack	15.0	SCS215a	20120508.143649	20120508.145621	8	0.013328	60	10	60-180	60	67	GapExp	BigFlash	0	190	2	30	0	distractor	1	482	759	249712	13.328	11.411	15.266
ProbeTrack15	16	ProbeTrack	15.0	SCS215a	20120508.143649	20120508.145627	8	0.013328	60	10	60-180	60	77	GapExp	BigFlash	0	191	2	3	0	distractor	1	419	791	250503	13.328	13.306	13.347
ProbeTrack15	16	ProbeTrack	15.0	SCS215a	20120508.143649	20120508.145632	8	0.013328	60	10	60-180	60	179	GapExp	BigFlash	0	192	2	0	0	distractor	1	488	756	251259	13.328	9.257	17.405
ProbeTrack15	16	ProbeTrack	15.0	SCS215a	20120508.143649	20120508.145639	8	0.013328	60	10	60-180	60	148	GapExp	BigFlash	0	193	2	3	0	distractor	1	482	759	252018	13.328	13.105	13.556
ProbeTrack15	16	ProbeTrack	15.0	SCS215a	20120508.143649	20120508.145645	8	0.013328	60	10	60-180	60	160	GapExp	BigFlash	0	194	2	3	1	target	1	425	788	252806	13.328	13.114	13.549
ProbeTrack15	16	ProbeTrack	15.0	SCS215a	20120508.143649	20120508.145651	8	0.013328	60	10	60-180	60	91	GapExp	BigFlash	0	195	2	30	0	distractor	1	341	830	253636	13.328	9.555	17.095
ProbeTrack15	16	ProbeTrack	15.0	SCS215a	20120508.143649	20120508.145657	8	0.013328	60	10	60-180	60	143	GapExp	BigFlash	0	196	2	30	0	distractor	1	466	767	254403	13.509	7.550	44.145
ProbeTrack15	16	ProbeTrack	15.0	SCS215a	20120508.143649	20120508.145704	8	0.013328	60	10	60-180	60	155	GapExp	BigFlash	0	197	2	30	1	distractor	0	488	-1000	253403	13.328	6.308	20.349
ProbeTrack15	16	ProbeTrack	15.0	SCS215a	20120508.143649	20120508.145710	8	0.013328	60	10	60-180	60	173	GapExp	BigFlash	0	198	2	1	0	distractor	1	543	729	254132	13.328	13.294	13.349
ProbeTrack15	16	ProbeTrack	15.0	SCS215a	20120508.143649	20120508.145717	8	0.013328	60	10	60-180	60	163	GapExp	BigFlash	0	199	2	30	1	target	1	447	777	254909	13.328	10.845	15.812
ProbeTrack15	16	ProbeTrack	15.0	SCS215a	20120508.143649	20120508.145724	8	0.013328	60	10	60-180	60	127	GapExp	BigFlash	0	200	2	0	1	target	1	413	794	255703	13.328	13.304	13.347
ProbeTrack15	16	ProbeTrack	15.0	SCS215a	20120508.145827	20120508.145832	8	0.013328	60	10	60-180	60	88	GapPrac	SmallFlash	1	1	2	3	1	target	1	905	548	256251	13.384	12.970	13.684
ProbeTrack15	16	ProbeTrack	15.0	SCS215a	20120508.145827	20120508.145842	8	0.013328	60	10	60-180	60	74	GapPrac	SmallFlash	1	2	2	0	1	target	1	599	701	256952	13.328	13.308	13.351
ProbeTrack15	16	ProbeTrack	15.0	SCS215a	20120508.145827	20120508.145847	8	0.013328	60	10	60-180	60	71	GapPrac	SmallFlash	1	3	2	30	0	distractor	1	384	808	257760	13.328	13.298	13.356
ProbeTrack15	16	ProbeTrack	15.0	SCS215a	20120508.145827	20120508.145852	8	0.013328	60	10	60-180	60	95	GapPrac	SmallFlash	1	4	2	0	0	distractor	1	589	706	258466	13.328	13.298	13.352
ProbeTrack15	16	ProbeTrack	15.0	SCS215a	20120508.145827	20120508.145859	8	0.013328	60	10	60-180	60	151	GapPrac	SmallFlash	1	5	2	1	0	distractor	1	488	756	259222	13.328	12.968	13.693
ProbeTrack15	16	ProbeTrack	15.0	SCS215a	20120508.145827	20120508.145905	8	0.013328	60	10	60-180	60	98	GapPrac	SmallFlash	1	6	2	1	0	distractor	1	639	681	259903	13.328	13.113	13.544
ProbeTrack15	16	ProbeTrack	15.0	SCS215a	20120508.145827	20120508.145910	8	0.013328	60	10	60-180	60	162	GapPrac	SmallFlash	1	7	2	30	0	target	0	680	-1000	258903	13.328	12.925	13.743
ProbeTrack15	16	ProbeTrack	15.0	SCS215a	20120508.145827	20120508.145918	8	0.013328	60	10	60-180	60	175	GapPrac	SmallFlash	1	8	2	3	0	distractor	1	396	802	259705	13.328	13.081	13.563
ProbeTrack15	16	ProbeTrack	15.0	SCS215a	20120508.145827	20120508.145924	8	0.013328	60	10	60-180	60	133	GapPrac	SmallFlash	1	9	2	0	0	distractor	1	425	788	260493	13.328	13.302	13.348
ProbeTrack15	16	ProbeTrack	15.0	SCS215a	20120508.145827	20120508.145930	8	0.013328	60	10	60-180	60	107	GapPrac	SmallFlash	1	10	2	3	0	distractor	1	432	784	261277	13.328	13.278	13.364
ProbeTrack15	16	ProbeTrack	15.0	SCS215a	20120508.145827	20120508.145935	8	0.013328	60	10	60-180	60	96	GapPrac	SmallFlash	1	11	2	30	1	target	1	453	774	262051	13.328	12.847	13.818
ProbeTrack15	16	ProbeTrack	15.0	SCS215a	20120508.145827	20120508.145941	8	0.013328	60	10	60-180	60	109	GapPrac	SmallFlash	1	12	2	0	0	distractor	1	448	776	262827	13.328	13.093	13.563
ProbeTrack15	16	ProbeTrack	15.0	SCS215a	20120508.145827	20120508.145946	8	0.013328	60	10	60-180	60	176	GapPrac	SmallFlash	1	13	2	0	1	target	1	589	706	263533	13.328	12.918	13.738
ProbeTrack15	16	ProbeTrack	15.0	SCS215a	20120508.145827	20120508.145953	8	0.013328	60	10	60-180	60	148	GapPrac	SmallFlash	1	14	2	1	1	target	1	873	564	264097	13.328	13.098	13.551
ProbeTrack15	16	ProbeTrack	15.0	SCS215a	20120508.145827	20120508.150000	8	0.013328	60	10	60-180	60	107	GapPrac	SmallFlash	1	15	2	30	1	target	1	449	776	264873	13.328	13.105	13.565
ProbeTrack15	16	ProbeTrack	15.0	SCS215a	20120508.145827	20120508.150006	8	0.013328	60	10	60-180	60	91	GapPrac	SmallFlash	1	16	2	30	0	distractor	1	406	797	265670	13.328	13.042	13.607
ProbeTrack15	16	ProbeTrack	15.0	SCS215a	20120508.145827	20120508.150011	8	0.013328	60	10	60-180	60	159	GapPrac	SmallFlash	1	17	2	0	1	target	1	433	784	266454	13.328	13.308	13.350
ProbeTrack15	16	ProbeTrack	15.0	SCS215a	20120508.145827	20120508.150018	8	0.013328	60	10	60-180	60	126	GapPrac	SmallFlash	1	18	2	3	1	target	1	333	834	267288	13.328	12.839	13.816
ProbeTrack15	16	ProbeTrack	15.0	SCS215a	20120508.145827	20120508.150024	8	0.013328	60	10	60-180	60	123	GapPrac	SmallFlash	1	19	2	1	1	target	1	450	775	268063	13.328	13.042	13.614
ProbeTrack15	16	ProbeTrack	15.0	SCS215a	20120508.145827	20120508.150030	8	0.013328	60	10	60-180	60	72	GapPrac	SmallFlash	1	20	2	3	1	target	1	408	796	268859	13.328	13.100	13.558
ProbeTrack15	16	ProbeTrack	15.0	SCS215a	20120508.150101	20120508.150112	8	0.013327	60	10	60-180	60	147	GapExp	SmallFlash	1	1	2	1	1	target	1	400	800	269659	13.378	9.577	17.064
ProbeTrack15	16	ProbeTrack	15.0	SCS215a	20120508.150101	20120508.150120	8	0.013327	60	10	60-180	60	66	GapExp	SmallFlash	1	2	2	30	0	distractor	1	466	767	270426	13.328	12.037	14.620
ProbeTrack15	16	ProbeTrack	15.0	SCS215a	20120508.150101	20120508.150126	8	0.013327	60	10	60-180	60	100	GapExp	SmallFlash	1	3	2	0	1	target	1	363	819	271245	13.328	11.896	14.754
ProbeTrack15	16	ProbeTrack	15.0	SCS215a	20120508.150101	20120508.150132	8	0.013327	60	10	60-180	60	92	GapExp	SmallFlash	1	4	2	3	1	target	1	376	812	272057	13.391	7.216	32.757
ProbeTrack15	16	ProbeTrack	15.0	SCS215a	20120508.150101	20120508.150137	8	0.013327	60	10	60-180	60	161	GapExp	SmallFlash	1	5	2	3	0	distractor	1	397	802	272859	13.328	9.563	17.081
ProbeTrack15	16	ProbeTrack	15.0	SCS215a	20120508.150101	20120508.150143	8	0.013327	60	10	60-180	60	114	GapExp	SmallFlash	1	6	2	0	0	distractor	1	423	789	273648	13.328	5.551	21.097
ProbeTrack15	16	ProbeTrack	15.0	SCS215a	20120508.150101	20120508.150153	8	0.013327	60	10	60-180	60	75	GapExp	SmallFlash	1	7	2	1	0	distractor	1	384	808	274456	13.328	4.336	19.936
ProbeTrack15	16	ProbeTrack	15.0	SCS215a	20120508.150101	20120508.150158	8	0.013327	60	10	60-180	60	151	GapExp	SmallFlash	1	8	2	30	1	target	1	427	787	275243	13.328	9.255	17.400
ProbeTrack15	16	ProbeTrack	15.0	SCS215a	20120508.150101	20120508.150205	8	0.013327	60	10	60-180	60	70	GapExp	SmallFlash	0	9	2	0	1	target	1	414	793	276036	13.328	10.087	16.575
ProbeTrack15	16	ProbeTrack	15.0	SCS215a	20120508.150101	20120508.150210	8	0.013327	60	10	60-180	60	175	GapExp	SmallFlash	0	10	2	1	0	distractor	1	448	776	276812	13.328	9.588	17.235
ProbeTrack15	16	ProbeTrack	15.0	SCS215a	20120508.150101	20120508.150217	8	0.013327	60	10	60-180	60	150	GapExp	SmallFlash	0	11	2	30	0	distractor	1	350	825	277637	13.328	5.662	20.998
ProbeTrack15	16	ProbeTrack	15.0	SCS215a	20120508.150101	20120508.150224	8	0.013327	60	10	60-180	60	72	GapExp	SmallFlash	0	12	2	3	1	target	1	390	805	278442	13.328	13.312	13.349
ProbeTrack15	16	ProbeTrack	15.0	SCS215a	20120508.150101	20120508.150230	8	0.013327	60	10	60-180	60	129	GapExp	SmallFlash	0	13	2	3	0	distractor	1	397	802	279244	13.328	13.234	13.424
ProbeTrack15	16	ProbeTrack	15.0	SCS215a	20120508.150101	20120508.150236	8	0.013327	60	10	60-180	60	96	GapExp	SmallFlash	0	14	2	1	1	target	1	335	833	280077	13.328	13.174	13.488
ProbeTrack15	16	ProbeTrack	15.0	SCS215a	20120508.150101	20120508.150242	8	0.013327	60	10	60-180	60	169	GapExp	SmallFlash	0	15	2	30	0	distractor	1	437	782	280859	13.328	12.539	14.148
ProbeTrack15	16	ProbeTrack	15.0	SCS215a	20120508.150101	20120508.150249	8	0.013327	60	10	60-180	60	147	GapExp	SmallFlash	0	16	2	30	0	distractor	1	456	772	281631	13.328	13.105	13.552
ProbeTrack15	16	ProbeTrack	15.0	SCS215a	20120508.150101	20120508.150255	8	0.013327	60	10	60-180	60	124	GapExp	SmallFlash	0	17	2	30	1	target	1	577	712	282343	13.328	12.684	13.981
ProbeTrack15	16	ProbeTrack	15.0	SCS215a	20120508.150101	20120508.150302	8	0.013327	60	10	60-180	60	99	GapExp	SmallFlash	0	18	2	3	0	distractor	1	450	775	283118	13.328	13.105	13.548
ProbeTrack15	16	ProbeTrack	15.0	SCS215a	20120508.150101	20120508.150308	8	0.013327	60	10	60-180	60	65	GapExp	SmallFlash	0	19	2	0	1	target	1	376	812	283930	13.328	13.251	13.409
ProbeTrack15	16	ProbeTrack	15.0	SCS215a	20120508.150101	20120508.150313	8	0.013327	60	10	60-180	60	162	GapExp	SmallFlash	0	20	2	3	1	target	1	344	828	284758	13.328	13.251	13.419
ProbeTrack15	16	ProbeTrack	15.0	SCS215a	20120508.150101	20120508.150319	8	0.013327	60	10	60-180	60	100	GapExp	SmallFlash	0	21	2	30	0	distractor	1	394	803	285561	13.436	13.058	38.618
ProbeTrack15	16	ProbeTrack	15.0	SCS215a	20120508.150101	20120508.150326	8	0.013327	60	10	60-180	60	82	GapExp	SmallFlash	0	22	2	0	1	target	1	410	795	286356	13.328	11.611	16.766
ProbeTrack15	16	ProbeTrack	15.0	SCS215a	20120508.150101	20120508.150332	8	0.013327	60	10	60-180	60	135	GapExp	SmallFlash	0	23	2	30	1	target	1	416	792	287148	13.328	10.436	16.165
ProbeTrack15	16	ProbeTrack	15.0	SCS215a	20120508.150101	20120508.150339	8	0.013327	60	10	60-180	60	166	GapExp	SmallFlash	0	24	2	1	1	target	1	304	848	287996	13.328	11.723	15.051
ProbeTrack15	16	ProbeTrack	15.0	SCS215a	20120508.150101	20120508.150345	8	0.013327	60	10	60-180	60	75	GapExp	SmallFlash	0	25	2	1	0	distractor	1	501	750	288746	13.334	13.277	14.645
ProbeTrack15	16	ProbeTrack	15.0	SCS215a	20120508.150101	20120508.150350	8	0.013327	60	10	60-180	60	177	GapExp	SmallFlash	0	26	2	0	1	target	1	439	781	289527	13.328	10.637	16.024
ProbeTrack15	16	ProbeTrack	15.0	SCS215a	20120508.150101	20120508.150356	8	0.013327	60	10	60-180	60	96	GapExp	SmallFlash	0	27	2	3	1	target	1	397	802	290329	13.328	13.300	13.360
ProbeTrack15	16	ProbeTrack	15.0	SCS215a	20120508.150101	20120508.150402	8	0.013327	60	10	60-180	60	151	GapExp	SmallFlash	0	28	2	0	1	target	1	294	853	291182	13.328	13.307	13.348
ProbeTrack15	16	ProbeTrack	15.0	SCS215a	20120508.150101	20120508.150408	8	0.013327	60	10	60-180	60	65	GapExp	SmallFlash	0	29	2	1	0	distractor	1	451	775	291957	13.328	8.040	18.609
ProbeTrack15	16	ProbeTrack	15.0	SCS215a	20120508.150101	20120508.150413	8	0.013327	60	10	60-180	60	106	GapExp	SmallFlash	0	30	2	0	0	distractor	1	409	796	292753	13.328	11.452	15.190
ProbeTrack15	16	ProbeTrack	15.0	SCS215a	20120508.150101	20120508.150419	8	0.013327	60	10	60-180	60	94	GapExp	SmallFlash	0	31	2	3	1	target	1	522	739	293492	13.328	12.666	13.986
ProbeTrack15	16	ProbeTrack	15.0	SCS215a	20120508.150101	20120508.150425	8	0.013327	60	10	60-180	60	142	GapExp	SmallFlash	0	32	2	0	1	target	1	348	826	294318	13.328	12.354	14.312
ProbeTrack15	16	ProbeTrack	15.0	SCS215a	20120508.150101	20120508.150432	8	0.013327	60	10	60-180	60	151	GapExp	SmallFlash	0	33	2	1	0	distractor	1	388	806	295124	13.328	11.056	15.620
ProbeTrack15	16	ProbeTrack	15.0	SCS215a	20120508.150101	20120508.150438	8	0.013327	60	10	60-180	60	86	GapExp	SmallFlash	0	34	2	1	1	target	1	421	790	295914	13.328	9.481	17.168
ProbeTrack15	16	ProbeTrack	15.0	SCS215a	20120508.150101	20120508.150444	8	0.013327	60	10	60-180	60	113	GapExp	SmallFlash	0	35	2	30	1	target	1	355	823	296737	13.328	13.255	13.407
ProbeTrack15	16	ProbeTrack	15.0	SCS215a	20120508.150101	20120508.150449	8	0.013327	60	10	60-180	60	68	GapExp	SmallFlash	0	36	2	30	0	distractor	1	424	788	297525	13.328	6.821	19.838
ProbeTrack15	16	ProbeTrack	15.0	SCS215a	20120508.150101	20120508.150455	8	0.013327	60	10	60-180	60	65	GapExp	SmallFlash	0	37	2	30	0	distractor	1	407	797	298322	13.328	13.112	13.544
ProbeTrack15	16	ProbeTrack	15.0	SCS215a	20120508.150101	20120508.150500	8	0.013327	60	10	60-180	60	85	GapExp	SmallFlash	0	38	2	3	0	distractor	1	493	754	299076	13.328	11.103	15.548
ProbeTrack15	16	ProbeTrack	15.0	SCS215a	20120508.150101	20120508.150506	8	0.013327	60	10	60-180	60	140	GapExp	SmallFlash	0	39	2	3	0	distractor	1	354	823	299899	13.328	13.302	13.349
ProbeTrack15	16	ProbeTrack	15.0	SCS215a	20120508.150101	20120508.150512	8	0.013327	60	10	60-180	60	139	GapExp	SmallFlash	0	40	2	30	1	target	1	350	825	300724	13.328	7.789	18.860
ProbeTrack15	16	ProbeTrack	15.0	SCS215a	20120508.150101	20120508.150518	8	0.013327	60	10	60-180	60	114	GapExp	SmallFlash	0	41	2	30	0	distractor	1	413	794	301518	13.328	12.974	13.689
ProbeTrack15	16	ProbeTrack	15.0	SCS215a	20120508.150101	20120508.150524	8	0.013327	60	10	60-180	60	77	GapExp	SmallFlash	0	42	2	0	1	target	1	367	817	302335	13.328	13.293	13.370
ProbeTrack15	16	ProbeTrack	15.0	SCS215a	20120508.150101	20120508.150530	8	0.013327	60	10	60-180	60	153	GapExp	SmallFlash	0	43	2	0	1	target	1	354	823	303158	13.328	8.629	18.041
ProbeTrack15	16	ProbeTrack	15.0	SCS215a	20120508.150101	20120508.150536	8	0.013327	60	10	60-180	60	153	GapExp	SmallFlash	0	44	2	1	1	target	1	375	813	303971	13.328	10.651	16.013
ProbeTrack15	16	ProbeTrack	15.0	SCS215a	20120508.150101	20120508.150542	8	0.013327	60	10	60-180	60	171	GapExp	SmallFlash	0	45	2	30	1	target	1	344	828	304799	13.328	12.956	13.701
ProbeTrack15	16	ProbeTrack	15.0	SCS215a	20120508.150101	20120508.150549	8	0.013327	60	10	60-180	60	110	GapExp	SmallFlash	0	46	2	3	0	distractor	1	444	778	305577	13.328	5.913	20.751
ProbeTrack15	16	ProbeTrack	15.0	SCS215a	20120508.150101	20120508.150555	8	0.013327	60	10	60-180	60	129	GapExp	SmallFlash	0	47	2	30	0	distractor	1	339	831	306408	13.328	13.302	13.348
ProbeTrack15	16	ProbeTrack	15.0	SCS215a	20120508.150101	20120508.150601	8	0.013327	60	10	60-180	60	127	GapExp	SmallFlash	0	48	2	0	0	distractor	1	373	814	307222	13.328	13.308	13.345
ProbeTrack15	16	ProbeTrack	15.0	SCS215a	20120508.150101	20120508.150607	8	0.013327	60	10	60-180	60	67	GapExp	SmallFlash	0	49	2	0	0	distractor	1	435	783	308005	13.328	13.308	13.352
ProbeTrack15	16	ProbeTrack	15.0	SCS215a	20120508.150101	20120508.150613	8	0.013327	60	10	60-180	60	67	GapExp	SmallFlash	0	50	2	3	0	distractor	1	390	805	308810	13.328	13.085	13.563
ProbeTrack15	16	ProbeTrack	15.0	SCS215a	20120508.150101	20120508.150619	8	0.013327	60	10	60-180	60	124	GapExp	SmallFlash	0	51	2	0	1	target	1	332	834	309644	13.328	13.105	13.558
ProbeTrack15	16	ProbeTrack	15.0	SCS215a	20120508.150101	20120508.150624	8	0.013327	60	10	60-180	60	110	GapExp	SmallFlash	0	52	2	0	0	distractor	1	401	800	310444	13.328	13.298	13.351
ProbeTrack15	16	ProbeTrack	15.0	SCS215a	20120508.150101	20120508.150630	8	0.013327	60	10	60-180	60	123	GapExp	SmallFlash	0	53	2	0	1	target	1	418	791	311235	13.328	13.308	13.347
ProbeTrack15	16	ProbeTrack	15.0	SCS215a	20120508.150101	20120508.150636	8	0.013327	60	10	60-180	60	153	GapExp	SmallFlash	0	54	2	1	1	target	1	474	763	311998	13.328	13.165	13.489
ProbeTrack15	16	ProbeTrack	15.0	SCS215a	20120508.150101	20120508.150642	8	0.013327	60	10	60-180	60	180	GapExp	SmallFlash	0	55	2	30	0	distractor	1	400	800	312798	13.328	10.922	15.728
ProbeTrack15	16	ProbeTrack	15.0	SCS215a	20120508.150101	20120508.150654	8	0.013327	60	10	60-180	60	154	GapExp	SmallFlash	0	56	2	3	1	target	1	384	808	313606	13.328	11.612	15.058
ProbeTrack15	16	ProbeTrack	15.0	SCS215a	20120508.150101	20120508.150700	8	0.013327	60	10	60-180	60	145	GapExp	SmallFlash	0	57	2	30	1	target	1	397	802	314408	13.328	10.631	16.009
ProbeTrack15	16	ProbeTrack	15.0	SCS215a	20120508.150101	20120508.150707	8	0.013327	60	10	60-180	60	101	GapExp	SmallFlash	0	58	2	1	1	target	1	370	815	315223	13.328	7.338	19.314
ProbeTrack15	16	ProbeTrack	15.0	SCS215a	20120508.150101	20120508.150712	8	0.013327	60	10	60-180	60	172	GapExp	SmallFlash	0	59	2	30	1	target	1	430	785	316008	13.328	13.155	13.502
ProbeTrack15	16	ProbeTrack	15.0	SCS215a	20120508.150101	20120508.150719	8	0.013327	60	10	60-180	60	134	GapExp	SmallFlash	0	60	2	1	0	distractor	1	446	777	316785	13.328	13.186	13.409
ProbeTrack15	16	ProbeTrack	15.0	SCS215a	20120508.150101	20120508.150725	8	0.013327	60	10	60-180	60	154	GapExp	SmallFlash	0	61	2	1	0	distractor	1	400	800	317585	13.328	11.860	14.789
ProbeTrack15	16	ProbeTrack	15.0	SCS215a	20120508.150101	20120508.150732	8	0.013327	60	10	60-180	60	178	GapExp	SmallFlash	0	62	2	30	1	target	1	396	802	318387	13.328	7.484	19.152
ProbeTrack15	16	ProbeTrack	15.0	SCS215a	20120508.150101	20120508.150739	8	0.013327	60	10	60-180	60	165	GapExp	SmallFlash	0	63	2	1	1	target	1	408	796	319183	13.328	11.732	14.948
ProbeTrack15	16	ProbeTrack	15.0	SCS215a	20120508.150101	20120508.150745	8	0.013327	60	10	60-180	60	73	GapExp	SmallFlash	0	64	2	0	1	target	1	398	801	319984	13.328	6.357	20.303
ProbeTrack15	16	ProbeTrack	15.0	SCS215a	20120508.150101	20120508.150750	8	0.013327	60	10	60-180	60	141	GapExp	SmallFlash	0	65	2	1	0	distractor	1	403	799	320783	13.328	11.160	15.511
ProbeTrack15	16	ProbeTrack	15.0	SCS215a	20120508.150101	20120508.150757	8	0.013327	60	10	60-180	60	95	GapExp	SmallFlash	0	66	2	1	1	target	1	392	804	321587	13.328	9.662	17.007
ProbeTrack15	16	ProbeTrack	15.0	SCS215a	20120508.150101	20120508.150802	8	0.013327	60	10	60-180	60	84	GapExp	SmallFlash	0	67	2	30	1	target	1	381	810	322397	13.328	8.569	18.073
