exp	sub	code	rev	comp	runtime	trialtime	nstim	refreshdur	cuedur	gapdur	gapOnsetRange	durPostProbe	gapOnsetTime	blocktype	gaptype	prac	trial	ntargets	soa	probeTarget	resp	acc	rt	pts	tpts	meanFrameDur	minFrameDur	maxFrameDur
ProbeTrack15	7	ProbeTrack	15.0	SCS215a	20120207.155842	20120207.155850	8	0.013328	60	0	60-180	60	176	NoGap	None	1	1	2	0	0	distractor	1	1425	288	288	13.371	13.294	13.357
ProbeTrack15	7	ProbeTrack	15.0	SCS215a	20120207.155842	20120207.160032	8	0.013328	60	0	60-180	60	138	NoGap	None	1	2	2	3	1	target	1	577	712	1000	13.328	13.307	13.348
ProbeTrack15	7	ProbeTrack	15.0	SCS215a	20120207.155842	20120207.160043	8	0.013328	60	0	60-180	60	90	NoGap	None	1	3	2	30	1	target	1	497	752	1752	13.328	13.306	13.344
ProbeTrack15	7	ProbeTrack	15.0	SCS215a	20120207.155842	20120207.160054	8	0.013328	60	0	60-180	60	152	NoGap	None	1	4	2	1	1	target	1	392	804	2556	13.328	13.282	13.375
ProbeTrack15	7	ProbeTrack	15.0	SCS215a	20120207.155842	20120207.160103	8	0.013328	60	0	60-180	60	80	NoGap	None	1	5	2	0	1	distractor	0	380	-1000	1556	13.328	13.308	13.348
ProbeTrack15	7	ProbeTrack	15.0	SCS215a	20120207.155842	20120207.160109	8	0.013328	60	0	60-180	60	150	NoGap	None	1	6	2	30	0	early	-4	-3620	-1000	556	13.328	13.305	13.346
ProbeTrack15	7	ProbeTrack	15.0	SCS215a	20120207.155842	20120207.160117	8	0.013328	60	0	60-180	60	104	NoGap	None	1	7	2	30	1	target	1	585	708	1264	13.328	13.030	13.613
ProbeTrack15	7	ProbeTrack	15.0	SCS215a	20120207.155842	20120207.160125	8	0.013328	60	0	60-180	60	112	NoGap	None	1	8	2	3	0	distractor	1	697	652	1916	13.328	13.282	13.367
ProbeTrack15	7	ProbeTrack	15.0	SCS215a	20120207.155842	20120207.160131	8	0.013328	60	0	60-180	60	173	NoGap	None	1	9	2	1	1	target	1	650	675	2591	13.328	13.306	13.348
ProbeTrack15	7	ProbeTrack	15.0	SCS215a	20120207.155842	20120207.160139	8	0.013328	60	0	60-180	60	119	NoGap	None	1	10	2	0	0	distractor	1	462	769	3360	13.328	13.311	13.349
ProbeTrack15	7	ProbeTrack	15.0	SCS215a	20120207.155842	20120207.160145	8	0.013328	60	0	60-180	60	94	NoGap	None	1	11	2	1	0	distractor	1	439	781	4141	13.328	13.094	13.551
ProbeTrack15	7	ProbeTrack	15.0	SCS215a	20120207.155842	20120207.160154	8	0.013328	60	0	60-180	60	62	NoGap	None	1	12	2	1	0	distractor	1	354	823	4964	13.328	13.308	13.346
ProbeTrack15	7	ProbeTrack	15.0	SCS215a	20120207.155842	20120207.160159	8	0.013328	60	0	60-180	60	88	NoGap	None	1	13	2	1	0	distractor	1	402	799	5763	13.328	12.866	13.792
ProbeTrack15	7	ProbeTrack	15.0	SCS215a	20120207.155842	20120207.160206	8	0.013328	60	0	60-180	60	176	NoGap	None	1	14	2	3	1	distractor	0	323	-1000	4763	13.328	12.833	13.809
ProbeTrack15	7	ProbeTrack	15.0	SCS215a	20120207.155842	20120207.160213	8	0.013328	60	0	60-180	60	176	NoGap	None	1	15	2	0	0	distractor	1	571	715	5478	13.328	13.307	13.345
ProbeTrack15	7	ProbeTrack	15.0	SCS215a	20120207.155842	20120207.160220	8	0.013328	60	0	60-180	60	173	NoGap	None	1	16	2	30	0	distractor	1	687	657	6135	13.328	13.308	13.348
ProbeTrack15	7	ProbeTrack	15.0	SCS215a	20120207.155842	20120207.160228	8	0.013328	60	0	60-180	60	67	NoGap	None	1	17	2	3	0	distractor	1	699	651	6786	13.328	13.308	13.343
ProbeTrack15	7	ProbeTrack	15.0	SCS215a	20120207.155842	20120207.160233	8	0.013328	60	0	60-180	60	62	NoGap	None	1	18	2	3	1	target	1	394	803	7589	13.328	13.308	13.347
ProbeTrack15	7	ProbeTrack	15.0	SCS215a	20120207.155842	20120207.160244	8	0.013328	60	0	60-180	60	125	NoGap	None	1	19	2	3	0	distractor	1	432	784	8373	13.328	13.097	13.551
ProbeTrack15	7	ProbeTrack	15.0	SCS215a	20120207.155842	20120207.160250	8	0.013328	60	0	60-180	60	113	NoGap	None	1	20	2	1	1	target	1	404	798	9171	13.328	12.911	13.749
ProbeTrack15	7	ProbeTrack	15.0	SCS215a	20120207.155842	20120207.160256	8	0.013328	60	0	60-180	60	78	NoGap	None	1	21	2	0	1	target	1	497	752	9923	13.328	13.098	13.551
ProbeTrack15	7	ProbeTrack	15.0	SCS215a	20120207.155842	20120207.160304	8	0.013328	60	0	60-180	60	172	NoGap	None	1	22	2	3	0	distractor	1	406	797	10720	13.328	12.879	13.772
ProbeTrack15	7	ProbeTrack	15.0	SCS215a	20120207.155842	20120207.160311	8	0.013328	60	0	60-180	60	137	NoGap	None	1	23	2	1	1	target	1	450	775	11495	13.328	12.855	13.791
ProbeTrack15	7	ProbeTrack	15.0	SCS215a	20120207.155842	20120207.160318	8	0.013328	60	0	60-180	60	81	NoGap	None	1	24	2	1	1	target	1	473	764	12259	13.328	12.876	13.779
ProbeTrack15	7	ProbeTrack	15.0	SCS215a	20120207.155842	20120207.160324	8	0.013328	60	0	60-180	60	83	NoGap	None	1	25	2	30	0	distractor	1	434	783	13042	13.328	13.307	13.344
ProbeTrack15	7	ProbeTrack	15.0	SCS215a	20120207.155842	20120207.160329	8	0.013328	60	0	60-180	60	77	NoGap	None	1	26	2	3	0	distractor	1	416	792	13834	13.328	13.303	13.350
ProbeTrack15	7	ProbeTrack	15.0	SCS215a	20120207.155842	20120207.160335	8	0.013328	60	0	60-180	60	80	NoGap	None	1	27	2	30	1	target	1	403	799	14633	13.328	12.913	13.765
ProbeTrack15	7	ProbeTrack	15.0	SCS215a	20120207.155842	20120207.160341	8	0.013328	60	0	60-180	60	157	NoGap	None	1	28	2	0	1	target	1	317	842	15475	13.328	12.997	13.653
ProbeTrack15	7	ProbeTrack	15.0	SCS215a	20120207.155842	20120207.160348	8	0.013328	60	0	60-180	60	162	NoGap	None	1	29	2	0	0	distractor	1	445	778	16253	13.328	13.212	13.457
ProbeTrack15	7	ProbeTrack	15.0	SCS215a	20120207.155842	20120207.160356	8	0.013328	60	0	60-180	60	126	NoGap	None	1	30	2	1	0	distractor	1	471	765	17018	13.328	13.106	13.557
ProbeTrack15	7	ProbeTrack	15.0	SCS215a	20120207.155842	20120207.160403	8	0.013328	60	0	60-180	60	90	NoGap	None	1	31	2	30	0	distractor	1	479	761	17779	13.328	13.093	13.563
ProbeTrack15	7	ProbeTrack	15.0	SCS215a	20120207.155842	20120207.160408	8	0.013328	60	0	60-180	60	86	NoGap	None	1	32	2	0	1	target	1	309	846	18625	13.328	13.115	13.551
ProbeTrack15	7	ProbeTrack	15.0	SCS215a	20120207.155842	20120207.160414	8	0.013328	60	0	60-180	60	145	NoGap	None	1	33	2	0	0	distractor	1	511	745	19370	13.328	12.865	13.792
ProbeTrack15	7	ProbeTrack	15.0	SCS215a	20120207.155842	20120207.160421	8	0.013328	60	0	60-180	60	63	NoGap	None	1	34	2	30	1	target	1	442	779	20149	13.330	13.309	13.742
ProbeTrack15	7	ProbeTrack	15.0	SCS215a	20120207.155842	20120207.160427	8	0.013328	60	0	60-180	60	171	NoGap	None	1	35	2	30	1	distractor	0	296	-1000	19149	13.328	13.106	13.551
ProbeTrack15	7	ProbeTrack	15.0	SCS215a	20120207.155842	20120207.160436	8	0.013328	60	0	60-180	60	123	NoGap	None	1	36	2	3	1	target	1	463	769	19918	13.328	13.111	13.552
ProbeTrack15	7	ProbeTrack	15.0	SCS215a	20120207.155842	20120207.160442	8	0.013328	60	0	60-180	60	156	NoGap	None	1	37	2	0	1	target	1	331	835	20753	13.328	13.309	13.345
ProbeTrack15	7	ProbeTrack	15.0	SCS215a	20120207.155842	20120207.160448	8	0.013328	60	0	60-180	60	115	NoGap	None	1	38	2	1	0	distractor	1	516	742	21495	13.328	13.308	13.361
ProbeTrack15	7	ProbeTrack	15.0	SCS215a	20120207.155842	20120207.160455	8	0.013328	60	0	60-180	60	180	NoGap	None	1	39	2	3	1	target	1	472	764	22259	13.328	13.308	13.346
ProbeTrack15	7	ProbeTrack	15.0	SCS215a	20120207.155842	20120207.160501	8	0.013328	60	0	60-180	60	132	NoGap	None	1	40	2	30	0	distractor	1	525	738	22997	13.328	13.308	13.344
ProbeTrack15	7	ProbeTrack	15.0	SCS215a	20120207.160531	20120207.160545	8	0.013308	60	10	60-180	60	78	GapPrac	Blank	1	1	2	0	0	distractor	1	722	639	23636	13.389	9.778	16.863
ProbeTrack15	7	ProbeTrack	15.0	SCS215a	20120207.160531	20120207.160554	8	0.013308	60	10	60-180	60	104	GapPrac	Blank	1	2	2	30	1	target	1	419	791	24427	13.328	13.088	13.568
ProbeTrack15	7	ProbeTrack	15.0	SCS215a	20120207.160531	20120207.160602	8	0.013308	60	10	60-180	60	111	GapPrac	Blank	1	3	2	0	1	target	1	509	746	25173	13.328	13.287	13.369
ProbeTrack15	7	ProbeTrack	15.0	SCS215a	20120207.160531	20120207.160609	8	0.013308	60	10	60-180	60	155	GapPrac	Blank	1	4	2	3	1	target	1	471	765	25938	13.328	13.098	13.552
ProbeTrack15	7	ProbeTrack	15.0	SCS215a	20120207.160531	20120207.160615	8	0.013308	60	10	60-180	60	109	GapPrac	Blank	1	5	2	30	0	distractor	1	450	775	26713	13.328	8.104	18.554
ProbeTrack15	7	ProbeTrack	15.0	SCS215a	20120207.160531	20120207.160622	8	0.013308	60	10	60-180	60	106	GapPrac	Blank	1	6	2	1	1	target	1	539	731	27444	13.328	5.370	21.278
ProbeTrack15	7	ProbeTrack	15.0	SCS215a	20120207.160531	20120207.160629	8	0.013308	60	10	60-180	60	144	GapPrac	Blank	1	7	2	0	1	target	1	396	802	28246	13.328	13.311	13.348
ProbeTrack15	7	ProbeTrack	15.0	SCS215a	20120207.160531	20120207.160635	8	0.013308	60	10	60-180	60	110	GapPrac	Blank	1	8	2	0	0	distractor	1	498	751	28997	13.328	11.146	15.509
ProbeTrack15	7	ProbeTrack	15.0	SCS215a	20120207.160531	20120207.160641	8	0.013308	60	10	60-180	60	89	GapPrac	Blank	1	9	2	3	1	target	1	555	723	29720	13.328	13.309	13.345
ProbeTrack15	7	ProbeTrack	15.0	SCS215a	20120207.160531	20120207.160647	8	0.013308	60	10	60-180	60	66	GapPrac	Blank	1	10	2	30	1	target	1	535	733	30453	13.328	13.307	13.351
ProbeTrack15	7	ProbeTrack	15.0	SCS215a	20120207.160531	20120207.160653	8	0.013308	60	10	60-180	60	93	GapPrac	Blank	1	11	2	0	0	distractor	1	783	609	31062	13.328	13.211	13.459
ProbeTrack15	7	ProbeTrack	15.0	SCS215a	20120207.160531	20120207.160659	8	0.013308	60	10	60-180	60	100	GapPrac	Blank	1	12	2	3	0	distractor	1	510	745	31807	13.328	13.308	13.346
ProbeTrack15	7	ProbeTrack	15.0	SCS215a	20120207.160531	20120207.160705	8	0.013308	60	10	60-180	60	62	GapPrac	Blank	1	13	2	1	0	distractor	1	515	743	32550	13.328	7.483	19.186
ProbeTrack15	7	ProbeTrack	15.0	SCS215a	20120207.160531	20120207.160710	8	0.013308	60	10	60-180	60	100	GapPrac	Blank	1	14	2	30	0	distractor	1	377	812	33362	13.324	12.516	13.544
ProbeTrack15	7	ProbeTrack	15.0	SCS215a	20120207.160531	20120207.160716	8	0.013308	60	10	60-180	60	154	GapPrac	Blank	1	15	2	1	1	target	1	605	698	34060	13.328	11.720	14.934
ProbeTrack15	7	ProbeTrack	15.0	SCS215a	20120207.160531	20120207.160723	8	0.013308	60	10	60-180	60	75	GapPrac	Blank	1	16	2	3	0	distractor	1	422	789	34849	13.328	13.296	13.353
ProbeTrack15	7	ProbeTrack	15.0	SCS215a	20120207.160531	20120207.160729	8	0.013308	60	10	60-180	60	143	GapPrac	Blank	1	17	2	0	1	target	1	309	846	35695	13.328	13.303	13.350
ProbeTrack15	7	ProbeTrack	15.0	SCS215a	20120207.160531	20120207.160735	8	0.013308	60	10	60-180	60	176	GapPrac	Blank	1	18	2	30	1	distractor	0	635	-1000	34695	13.328	13.307	13.348
ProbeTrack15	7	ProbeTrack	15.0	SCS215a	20120207.160531	20120207.160743	8	0.013308	60	10	60-180	60	151	GapPrac	Blank	1	19	2	3	1	target	1	463	769	35464	13.328	13.308	13.348
ProbeTrack15	7	ProbeTrack	15.0	SCS215a	20120207.160531	20120207.160750	8	0.013308	60	10	60-180	60	106	GapPrac	Blank	1	20	2	1	0	target	0	579	-1000	34464	13.328	13.310	13.345
ProbeTrack15	7	ProbeTrack	15.0	SCS215a	20120207.160815	20120207.160824	8	0.013328	60	10	60-180	60	109	GapExp	Blank	1	1	2	1	1	target	1	545	728	35192	13.384	13.098	13.551
ProbeTrack15	7	ProbeTrack	15.0	SCS215a	20120207.160815	20120207.160834	8	0.013328	60	10	60-180	60	104	GapExp	Blank	1	2	2	0	1	target	1	498	751	35943	13.328	13.099	13.550
ProbeTrack15	7	ProbeTrack	15.0	SCS215a	20120207.160815	20120207.160840	8	0.013328	60	10	60-180	60	153	GapExp	Blank	1	3	2	30	0	distractor	1	422	789	36732	13.328	13.283	13.373
ProbeTrack15	7	ProbeTrack	15.0	SCS215a	20120207.160815	20120207.160847	8	0.013328	60	10	60-180	60	89	GapExp	Blank	1	4	2	3	1	target	1	391	805	37537	13.328	13.300	13.348
ProbeTrack15	7	ProbeTrack	15.0	SCS215a	20120207.160815	20120207.160852	8	0.013328	60	10	60-180	60	75	GapExp	Blank	1	5	2	3	0	distractor	1	490	755	38292	13.328	13.307	13.355
ProbeTrack15	7	ProbeTrack	15.0	SCS215a	20120207.160815	20120207.160858	8	0.013328	60	10	60-180	60	106	GapExp	Blank	1	6	2	1	0	target	0	650	-1000	37292	13.328	13.281	13.372
ProbeTrack15	7	ProbeTrack	15.0	SCS215a	20120207.160815	20120207.160904	8	0.013328	60	10	60-180	60	133	GapExp	Blank	1	7	2	0	0	distractor	1	515	743	38035	13.328	12.852	13.811
ProbeTrack15	7	ProbeTrack	15.0	SCS215a	20120207.160815	20120207.160912	8	0.013328	60	10	60-180	60	160	GapExp	Blank	1	8	2	30	1	target	1	788	606	38641	13.328	13.099	13.570
ProbeTrack15	7	ProbeTrack	15.0	SCS215a	20120207.160815	20120207.160919	8	0.013328	60	10	60-180	60	97	GapExp	Blank	0	9	2	1	0	distractor	1	441	780	39421	13.328	13.307	13.349
ProbeTrack15	7	ProbeTrack	15.0	SCS215a	20120207.160815	20120207.160925	8	0.013328	60	10	60-180	60	71	GapExp	Blank	0	10	2	30	1	target	1	487	757	40178	13.328	13.092	13.557
ProbeTrack15	7	ProbeTrack	15.0	SCS215a	20120207.160815	20120207.160930	8	0.013328	60	10	60-180	60	179	GapExp	Blank	0	11	2	30	0	distractor	1	400	800	40978	13.328	13.097	13.547
ProbeTrack15	7	ProbeTrack	15.0	SCS215a	20120207.160815	20120207.160937	8	0.013328	60	10	60-180	60	78	GapExp	Blank	0	12	2	30	1	distractor	0	365	-1000	39978	13.328	12.914	13.743
ProbeTrack15	7	ProbeTrack	15.0	SCS215a	20120207.160815	20120207.160944	8	0.013328	60	10	60-180	60	90	GapExp	Blank	0	13	2	0	0	target	0	730	-1000	38978	13.328	13.309	13.343
ProbeTrack15	7	ProbeTrack	15.0	SCS215a	20120207.160815	20120207.160949	8	0.013328	60	10	60-180	60	63	GapExp	Blank	0	14	2	1	1	target	1	591	705	39683	13.328	12.908	13.750
ProbeTrack15	7	ProbeTrack	15.0	SCS215a	20120207.160815	20120207.160955	8	0.013328	60	10	60-180	60	95	GapExp	Blank	0	15	2	0	1	target	1	447	777	40460	13.328	12.911	13.761
ProbeTrack15	7	ProbeTrack	15.0	SCS215a	20120207.160815	20120207.161001	8	0.013328	60	10	60-180	60	137	GapExp	Blank	0	16	2	3	0	distractor	1	533	734	41194	13.328	12.962	13.689
ProbeTrack15	7	ProbeTrack	15.0	SCS215a	20120207.160815	20120207.161008	8	0.013328	60	10	60-180	60	115	GapExp	Blank	0	17	2	30	0	target	0	437	-1000	40194	13.328	13.119	13.546
ProbeTrack15	7	ProbeTrack	15.0	SCS215a	20120207.160815	20120207.161015	8	0.013328	60	10	60-180	60	124	GapExp	Blank	0	18	2	3	1	distractor	0	398	-1000	39194	13.328	12.872	13.791
ProbeTrack15	7	ProbeTrack	15.0	SCS215a	20120207.160815	20120207.161023	8	0.013328	60	10	60-180	60	74	GapExp	Blank	0	19	2	0	0	target	0	440	-1000	38194	13.328	13.306	13.352
ProbeTrack15	7	ProbeTrack	15.0	SCS215a	20120207.160815	20120207.161028	8	0.013328	60	10	60-180	60	76	GapExp	Blank	0	20	2	1	1	target	1	913	544	38738	13.328	13.000	13.642
ProbeTrack15	7	ProbeTrack	15.0	SCS215a	20120207.160815	20120207.161036	8	0.013328	60	10	60-180	60	167	GapExp	Blank	0	21	2	0	1	target	1	573	714	39452	13.328	12.991	13.642
ProbeTrack15	7	ProbeTrack	15.0	SCS215a	20120207.160815	20120207.161045	8	0.013328	60	10	60-180	60	80	GapExp	Blank	0	22	2	3	1	target	1	434	783	40235	13.328	12.848	13.810
ProbeTrack15	7	ProbeTrack	15.0	SCS215a	20120207.160815	20120207.161051	8	0.013328	60	10	60-180	60	101	GapExp	Blank	0	23	2	0	1	target	1	447	777	41012	13.328	13.309	13.353
ProbeTrack15	7	ProbeTrack	15.0	SCS215a	20120207.160815	20120207.161057	8	0.013328	60	10	60-180	60	114	GapExp	Blank	0	24	2	0	1	target	1	459	771	41783	13.328	12.900	13.613
ProbeTrack15	7	ProbeTrack	15.0	SCS215a	20120207.160815	20120207.161103	8	0.013328	60	10	60-180	60	143	GapExp	Blank	0	25	2	0	0	distractor	1	358	821	42604	13.328	13.099	13.543
ProbeTrack15	7	ProbeTrack	15.0	SCS215a	20120207.160815	20120207.161110	8	0.013328	60	10	60-180	60	174	GapExp	Blank	0	26	2	3	0	distractor	1	575	713	43317	13.328	13.098	13.558
ProbeTrack15	7	ProbeTrack	15.0	SCS215a	20120207.160815	20120207.161117	8	0.013328	60	10	60-180	60	157	GapExp	Blank	0	27	2	1	1	target	1	516	742	44059	13.328	13.307	13.350
ProbeTrack15	7	ProbeTrack	15.0	SCS215a	20120207.160815	20120207.161126	8	0.013328	60	10	60-180	60	133	GapExp	Blank	0	28	2	1	1	target	1	553	724	44783	13.328	12.932	13.755
ProbeTrack15	7	ProbeTrack	15.0	SCS215a	20120207.160815	20120207.161132	8	0.013328	60	10	60-180	60	170	GapExp	Blank	0	29	2	1	1	target	1	411	795	45578	13.328	13.302	13.347
ProbeTrack15	7	ProbeTrack	15.0	SCS215a	20120207.160815	20120207.161139	8	0.013328	60	10	60-180	60	139	GapExp	Blank	0	30	2	3	1	target	1	364	818	46396	13.328	13.303	13.359
ProbeTrack15	7	ProbeTrack	15.0	SCS215a	20120207.160815	20120207.161145	8	0.013328	60	10	60-180	60	132	GapExp	Blank	0	31	2	3	1	target	1	318	841	47237	13.328	13.107	13.557
ProbeTrack15	7	ProbeTrack	15.0	SCS215a	20120207.160815	20120207.161151	8	0.013328	60	10	60-180	60	77	GapExp	Blank	0	32	2	3	0	distractor	1	534	733	47970	13.328	13.061	13.778
ProbeTrack15	7	ProbeTrack	15.0	SCS215a	20120207.160815	20120207.161159	8	0.013328	60	10	60-180	60	125	GapExp	Blank	0	33	2	1	1	distractor	0	656	-1000	46970	13.328	12.929	13.742
ProbeTrack15	7	ProbeTrack	15.0	SCS215a	20120207.160815	20120207.161206	8	0.013328	60	10	60-180	60	160	GapExp	Blank	0	34	2	0	1	target	1	458	771	47741	13.328	13.203	13.458
ProbeTrack15	7	ProbeTrack	15.0	SCS215a	20120207.160815	20120207.161213	8	0.013328	60	10	60-180	60	122	GapExp	Blank	0	35	2	0	1	target	1	413	794	48535	13.328	13.114	13.544
ProbeTrack15	7	ProbeTrack	15.0	SCS215a	20120207.160815	20120207.161219	8	0.013328	60	10	60-180	60	164	GapExp	Blank	0	36	2	3	0	distractor	1	486	757	49292	13.328	13.119	13.544
ProbeTrack15	7	ProbeTrack	15.0	SCS215a	20120207.160815	20120207.161227	8	0.013328	60	10	60-180	60	94	GapExp	Blank	0	37	2	1	1	target	1	561	720	50012	13.328	13.309	13.346
ProbeTrack15	7	ProbeTrack	15.0	SCS215a	20120207.160815	20120207.161235	8	0.013328	60	10	60-180	60	100	GapExp	Blank	0	38	2	30	0	target	0	870	-1000	49012	13.328	13.303	13.351
ProbeTrack15	7	ProbeTrack	15.0	SCS215a	20120207.160815	20120207.161242	8	0.013328	60	10	60-180	60	151	GapExp	Blank	0	39	2	3	1	target	1	438	781	49793	13.328	13.297	13.348
ProbeTrack15	7	ProbeTrack	15.0	SCS215a	20120207.160815	20120207.161248	8	0.013328	60	10	60-180	60	153	GapExp	Blank	0	40	2	0	1	target	1	518	741	50534	13.328	13.106	13.552
ProbeTrack15	7	ProbeTrack	15.0	SCS215a	20120207.160815	20120207.161255	8	0.013328	60	10	60-180	60	77	GapExp	Blank	0	41	2	1	1	target	1	444	778	51312	13.328	13.298	13.346
ProbeTrack15	7	ProbeTrack	15.0	SCS215a	20120207.160815	20120207.161302	8	0.013328	60	10	60-180	60	159	GapExp	Blank	0	42	2	3	1	target	1	326	837	52149	13.328	12.949	13.717
ProbeTrack15	7	ProbeTrack	15.0	SCS215a	20120207.160815	20120207.161309	8	0.013328	60	10	60-180	60	82	GapExp	Blank	0	43	2	30	1	target	1	376	812	52961	13.328	12.846	13.805
ProbeTrack15	7	ProbeTrack	15.0	SCS215a	20120207.160815	20120207.161315	8	0.013328	60	10	60-180	60	126	GapExp	Blank	0	44	2	1	1	target	1	371	815	53776	13.328	12.896	13.777
ProbeTrack15	7	ProbeTrack	15.0	SCS215a	20120207.160815	20120207.161321	8	0.013328	60	10	60-180	60	108	GapExp	Blank	0	45	2	0	1	target	1	276	862	54638	13.328	12.842	13.786
ProbeTrack15	7	ProbeTrack	15.0	SCS215a	20120207.160815	20120207.161326	8	0.013328	60	10	60-180	60	106	GapExp	Blank	0	46	2	1	1	target	1	196	902	55540	13.328	12.916	13.742
ProbeTrack15	7	ProbeTrack	15.0	SCS215a	20120207.160815	20120207.161332	8	0.013328	60	10	60-180	60	157	GapExp	Blank	0	47	2	1	0	target	0	289	-1000	54540	13.326	12.846	13.464
ProbeTrack15	7	ProbeTrack	15.0	SCS215a	20120207.160815	20120207.161338	8	0.013328	60	10	60-180	60	133	GapExp	Blank	0	48	2	0	1	target	1	430	785	55325	13.328	13.292	13.389
ProbeTrack15	7	ProbeTrack	15.0	SCS215a	20120207.160815	20120207.161344	8	0.013328	60	10	60-180	60	110	GapExp	Blank	0	49	2	30	1	target	1	464	768	56093	13.328	13.296	13.354
ProbeTrack15	7	ProbeTrack	15.0	SCS215a	20120207.160815	20120207.161351	8	0.013328	60	10	60-180	60	130	GapExp	Blank	0	50	2	30	0	target	0	606	-1000	55093	13.328	13.089	13.555
ProbeTrack15	7	ProbeTrack	15.0	SCS215a	20120207.160815	20120207.161358	8	0.013328	60	10	60-180	60	106	GapExp	Blank	0	51	2	0	1	distractor	0	623	-1000	54093	13.328	13.307	13.347
ProbeTrack15	7	ProbeTrack	15.0	SCS215a	20120207.160815	20120207.161436	8	0.013328	60	10	60-180	60	155	GapExp	Blank	0	52	2	30	1	target	1	302	849	54942	13.328	12.864	13.801
ProbeTrack15	7	ProbeTrack	15.0	SCS215a	20120207.160815	20120207.161442	8	0.013328	60	10	60-180	60	154	GapExp	Blank	0	53	2	0	1	target	1	424	788	55730	13.328	13.127	13.584
ProbeTrack15	7	ProbeTrack	15.0	SCS215a	20120207.160815	20120207.161449	8	0.013328	60	10	60-180	60	164	GapExp	Blank	0	54	2	30	0	target	0	333	-1000	54730	13.328	13.304	13.358
ProbeTrack15	7	ProbeTrack	15.0	SCS215a	20120207.160815	20120207.161456	8	0.013328	60	10	60-180	60	105	GapExp	Blank	0	55	2	1	0	target	0	301	-1000	53730	13.328	13.083	13.582
ProbeTrack15	7	ProbeTrack	15.0	SCS215a	20120207.160815	20120207.161501	8	0.013328	60	10	60-180	60	171	GapExp	Blank	0	56	2	30	1	target	1	287	857	54587	13.328	13.118	13.551
ProbeTrack15	7	ProbeTrack	15.0	SCS215a	20120207.160815	20120207.161508	8	0.013328	60	10	60-180	60	79	GapExp	Blank	0	57	2	0	0	distractor	1	472	764	55351	13.328	13.039	13.632
ProbeTrack15	7	ProbeTrack	15.0	SCS215a	20120207.160815	20120207.161514	8	0.013328	60	10	60-180	60	109	GapExp	Blank	0	58	2	1	0	distractor	1	364	818	56169	13.328	13.098	13.551
ProbeTrack15	7	ProbeTrack	15.0	SCS215a	20120207.160815	20120207.161519	8	0.013328	60	10	60-180	60	104	GapExp	Blank	0	59	2	0	0	distractor	1	441	780	56949	13.328	13.310	13.351
ProbeTrack15	7	ProbeTrack	15.0	SCS215a	20120207.160815	20120207.161525	8	0.013328	60	10	60-180	60	176	GapExp	Blank	0	60	2	30	0	target	0	406	-1000	55949	13.328	12.881	13.790
ProbeTrack15	7	ProbeTrack	15.0	SCS215a	20120207.160815	20120207.161532	8	0.013328	60	10	60-180	60	81	GapExp	Blank	0	61	2	3	0	distractor	1	431	785	56734	13.328	13.310	13.347
ProbeTrack15	7	ProbeTrack	15.0	SCS215a	20120207.160815	20120207.161537	8	0.013328	60	10	60-180	60	119	GapExp	Blank	0	62	2	3	1	distractor	0	558	-1000	55734	13.328	12.840	13.817
ProbeTrack15	7	ProbeTrack	15.0	SCS215a	20120207.160815	20120207.161544	8	0.013328	60	10	60-180	60	81	GapExp	Blank	0	63	2	30	0	target	0	328	-1000	54734	13.328	12.976	13.673
ProbeTrack15	7	ProbeTrack	15.0	SCS215a	20120207.160815	20120207.161549	8	0.013328	60	10	60-180	60	95	GapExp	Blank	0	64	2	1	0	distractor	1	517	742	55476	13.328	13.101	13.554
ProbeTrack15	7	ProbeTrack	15.0	SCS215a	20120207.160815	20120207.161555	8	0.013328	60	10	60-180	60	160	GapExp	Blank	0	65	2	3	1	distractor	0	555	-1000	54476	13.328	13.309	13.347
ProbeTrack15	7	ProbeTrack	15.0	SCS215a	20120207.160815	20120207.161601	8	0.013328	60	10	60-180	60	91	GapExp	Blank	0	66	2	0	0	distractor	1	409	796	55272	13.328	13.309	13.345
ProbeTrack15	7	ProbeTrack	15.0	SCS215a	20120207.160815	20120207.161607	8	0.013328	60	10	60-180	60	156	GapExp	Blank	0	67	2	0	0	distractor	1	504	748	56020	13.328	12.971	13.809
ProbeTrack15	7	ProbeTrack	15.0	SCS215a	20120207.160815	20120207.161615	8	0.013328	60	10	60-180	60	106	GapExp	Blank	0	68	2	30	1	distractor	0	327	-1000	55020	13.328	12.850	13.817
ProbeTrack15	7	ProbeTrack	15.0	SCS215a	20120207.160815	20120207.161622	8	0.013328	60	10	60-180	60	178	GapExp	Blank	0	69	2	1	1	target	1	368	816	55836	13.328	13.112	13.551
ProbeTrack15	7	ProbeTrack	15.0	SCS215a	20120207.160815	20120207.161629	8	0.013328	60	10	60-180	60	118	GapExp	Blank	0	70	2	3	1	target	1	351	825	56661	13.328	13.181	13.434
ProbeTrack15	7	ProbeTrack	15.0	SCS215a	20120207.160815	20120207.161637	8	0.013328	60	10	60-180	60	179	GapExp	Blank	0	71	2	1	0	distractor	1	356	822	57483	13.328	13.085	13.570
ProbeTrack15	7	ProbeTrack	15.0	SCS215a	20120207.160815	20120207.161643	8	0.013328	60	10	60-180	60	104	GapExp	Blank	0	72	2	1	1	target	1	576	712	58195	13.328	12.898	13.751
ProbeTrack15	7	ProbeTrack	15.0	SCS215a	20120207.160815	20120207.161650	8	0.013328	60	10	60-180	60	162	GapExp	Blank	0	73	2	3	0	distractor	1	426	787	58982	13.328	13.099	13.544
ProbeTrack15	7	ProbeTrack	15.0	SCS215a	20120207.160815	20120207.161658	8	0.013328	60	10	60-180	60	127	GapExp	Blank	0	74	2	0	0	distractor	1	477	762	59744	13.328	13.094	13.553
ProbeTrack15	7	ProbeTrack	15.0	SCS215a	20120207.160815	20120207.161704	8	0.013328	60	10	60-180	60	118	GapExp	Blank	0	75	2	30	1	distractor	0	301	-1000	58744	13.328	13.278	13.371
ProbeTrack15	7	ProbeTrack	15.0	SCS215a	20120207.160815	20120207.161710	8	0.013328	60	10	60-180	60	95	GapExp	Blank	0	76	2	0	0	distractor	1	292	854	59598	13.328	13.084	13.564
ProbeTrack15	7	ProbeTrack	15.0	SCS215a	20120207.160815	20120207.161719	8	0.013328	60	10	60-180	60	103	GapExp	Blank	0	77	2	0	1	target	1	386	807	60405	13.328	13.090	13.559
ProbeTrack15	7	ProbeTrack	15.0	SCS215a	20120207.160815	20120207.161725	8	0.013328	60	10	60-180	60	132	GapExp	Blank	0	78	2	1	0	distractor	1	324	838	61243	13.328	13.306	13.350
ProbeTrack15	7	ProbeTrack	15.0	SCS215a	20120207.160815	20120207.161731	8	0.013328	60	10	60-180	60	160	GapExp	Blank	0	79	2	3	0	distractor	1	299	851	62094	13.328	12.896	13.743
ProbeTrack15	7	ProbeTrack	15.0	SCS215a	20120207.160815	20120207.161737	8	0.013328	60	10	60-180	60	113	GapExp	Blank	0	80	2	30	0	distractor	1	317	842	62936	13.328	13.290	13.354
ProbeTrack15	7	ProbeTrack	15.0	SCS215a	20120207.160815	20120207.161743	8	0.013328	60	10	60-180	60	112	GapExp	Blank	0	81	2	1	0	distractor	1	299	851	63787	13.328	13.307	13.353
ProbeTrack15	7	ProbeTrack	15.0	SCS215a	20120207.160815	20120207.161749	8	0.013328	60	10	60-180	60	84	GapExp	Blank	0	82	2	1	0	distractor	1	377	812	64599	13.328	13.006	13.642
ProbeTrack15	7	ProbeTrack	15.0	SCS215a	20120207.160815	20120207.161754	8	0.013328	60	10	60-180	60	173	GapExp	Blank	0	83	2	3	0	distractor	1	240	880	65479	13.328	12.863	13.786
ProbeTrack15	7	ProbeTrack	15.0	SCS215a	20120207.160815	20120207.161801	8	0.013328	60	10	60-180	60	72	GapExp	Blank	0	84	2	0	0	target	0	285	-1000	64479	13.328	13.003	13.644
ProbeTrack15	7	ProbeTrack	15.0	SCS215a	20120207.160815	20120207.161807	8	0.013328	60	10	60-180	60	149	GapExp	Blank	0	85	2	30	0	distractor	1	273	864	65343	13.328	12.868	13.789
ProbeTrack15	7	ProbeTrack	15.0	SCS215a	20120207.160815	20120207.161814	8	0.013328	60	10	60-180	60	141	GapExp	Blank	0	86	2	0	0	distractor	1	490	755	66098	13.328	13.305	13.357
ProbeTrack15	7	ProbeTrack	15.0	SCS215a	20120207.160815	20120207.161820	8	0.013328	60	10	60-180	60	166	GapExp	Blank	0	87	2	3	1	distractor	0	348	-1000	65098	13.328	12.957	13.711
ProbeTrack15	7	ProbeTrack	15.0	SCS215a	20120207.160815	20120207.161826	8	0.013328	60	10	60-180	60	166	GapExp	Blank	0	88	2	30	1	distractor	0	311	-1000	64098	13.328	13.308	13.350
ProbeTrack15	7	ProbeTrack	15.0	SCS215a	20120207.160815	20120207.161833	8	0.013328	60	10	60-180	60	119	GapExp	Blank	0	89	2	30	1	distractor	0	300	-1000	63098	13.328	13.303	13.349
ProbeTrack15	7	ProbeTrack	15.0	SCS215a	20120207.160815	20120207.161839	8	0.013328	60	10	60-180	60	151	GapExp	Blank	0	90	2	30	0	distractor	1	308	846	63944	13.328	12.856	13.795
ProbeTrack15	7	ProbeTrack	15.0	SCS215a	20120207.160815	20120207.161845	8	0.013328	60	10	60-180	60	109	GapExp	Blank	0	91	2	1	1	distractor	0	521	-1000	62944	13.328	12.942	13.731
ProbeTrack15	7	ProbeTrack	15.0	SCS215a	20120207.160815	20120207.161852	8	0.013328	60	10	60-180	60	179	GapExp	Blank	0	92	2	30	1	target	1	307	847	63791	13.328	13.087	13.564
ProbeTrack15	7	ProbeTrack	15.0	SCS215a	20120207.160815	20120207.161859	8	0.013328	60	10	60-180	60	116	GapExp	Blank	0	93	2	30	0	target	0	324	-1000	62791	13.328	12.870	13.786
ProbeTrack15	7	ProbeTrack	15.0	SCS215a	20120207.160815	20120207.161905	8	0.013328	60	10	60-180	60	114	GapExp	Blank	0	94	2	0	0	distractor	1	554	723	63514	13.328	12.969	13.692
ProbeTrack15	7	ProbeTrack	15.0	SCS215a	20120207.160815	20120207.161911	8	0.013328	60	10	60-180	60	162	GapExp	Blank	0	95	2	1	0	distractor	1	340	830	64344	13.328	12.871	13.792
ProbeTrack15	7	ProbeTrack	15.0	SCS215a	20120207.160815	20120207.161919	8	0.013328	60	10	60-180	60	105	GapExp	Blank	0	96	2	0	1	target	1	622	689	65033	13.328	12.908	13.751
ProbeTrack15	7	ProbeTrack	15.0	SCS215a	20120207.160815	20120207.161925	8	0.013328	60	10	60-180	60	136	GapExp	Blank	0	97	2	3	1	target	1	428	786	65819	13.328	12.882	13.770
ProbeTrack15	7	ProbeTrack	15.0	SCS215a	20120207.160815	20120207.161931	8	0.013328	60	10	60-180	60	84	GapExp	Blank	0	98	2	0	0	target	0	662	-1000	64819	13.328	13.310	13.347
ProbeTrack15	7	ProbeTrack	15.0	SCS215a	20120207.160815	20120207.161937	8	0.013328	60	10	60-180	60	127	GapExp	Blank	0	99	2	1	1	target	1	510	745	65564	13.328	13.303	13.359
ProbeTrack15	7	ProbeTrack	15.0	SCS215a	20120207.160815	20120207.161943	8	0.013328	60	10	60-180	60	100	GapExp	Blank	0	100	2	1	1	target	1	353	824	66388	13.328	13.300	13.350
ProbeTrack15	7	ProbeTrack	15.0	SCS215a	20120207.160815	20120207.161949	8	0.013328	60	10	60-180	60	164	GapExp	Blank	0	101	2	3	0	distractor	1	479	761	67149	13.328	12.888	13.766
ProbeTrack15	7	ProbeTrack	15.0	SCS215a	20120207.160815	20120207.162053	8	0.013328	60	10	60-180	60	69	GapExp	Blank	0	102	2	3	1	distractor	0	336	-1000	66149	13.328	13.310	13.356
ProbeTrack15	7	ProbeTrack	15.0	SCS215a	20120207.160815	20120207.162058	8	0.013328	60	10	60-180	60	170	GapExp	Blank	0	103	2	0	1	target	1	393	804	66953	13.328	12.955	13.725
ProbeTrack15	7	ProbeTrack	15.0	SCS215a	20120207.160815	20120207.162105	8	0.013328	60	10	60-180	60	147	GapExp	Blank	0	104	2	30	1	target	1	243	879	67832	13.328	13.092	13.563
ProbeTrack15	7	ProbeTrack	15.0	SCS215a	20120207.160815	20120207.162111	8	0.013328	60	10	60-180	60	129	GapExp	Blank	0	105	2	30	1	target	1	303	849	68681	13.328	12.863	13.787
ProbeTrack15	7	ProbeTrack	15.0	SCS215a	20120207.160815	20120207.162117	8	0.013328	60	10	60-180	60	124	GapExp	Blank	0	106	2	1	1	target	1	287	857	69538	13.328	13.087	13.582
ProbeTrack15	7	ProbeTrack	15.0	SCS215a	20120207.160815	20120207.162123	8	0.013328	60	10	60-180	60	75	GapExp	Blank	0	107	2	3	0	target	0	312	-1000	68538	13.328	13.307	13.344
ProbeTrack15	7	ProbeTrack	15.0	SCS215a	20120207.160815	20120207.162128	8	0.013328	60	10	60-180	60	86	GapExp	Blank	0	108	2	3	1	target	1	283	859	69397	13.328	13.141	13.509
ProbeTrack15	7	ProbeTrack	15.0	SCS215a	20120207.160815	20120207.162133	8	0.013328	60	10	60-180	60	110	GapExp	Blank	0	109	2	0	1	target	1	330	835	70232	13.328	12.866	13.790
ProbeTrack15	7	ProbeTrack	15.0	SCS215a	20120207.160815	20120207.162139	8	0.013328	60	10	60-180	60	122	GapExp	Blank	0	110	2	30	0	distractor	1	420	790	71022	13.328	13.092	13.558
ProbeTrack15	7	ProbeTrack	15.0	SCS215a	20120207.160815	20120207.162146	8	0.013328	60	10	60-180	60	142	GapExp	Blank	0	111	2	1	0	distractor	1	460	770	71792	13.328	13.118	13.537
ProbeTrack15	7	ProbeTrack	15.0	SCS215a	20120207.160815	20120207.162152	8	0.013328	60	10	60-180	60	111	GapExp	Blank	0	112	2	30	0	early	-4	-3763	-1000	70792	13.328	13.084	13.557
ProbeTrack15	7	ProbeTrack	15.0	SCS215a	20120207.160815	20120207.162159	8	0.013328	60	10	60-180	60	72	GapExp	Blank	0	113	2	3	1	target	1	301	850	71642	13.328	13.111	13.550
ProbeTrack15	7	ProbeTrack	15.0	SCS215a	20120207.160815	20120207.162206	8	0.013328	60	10	60-180	60	166	GapExp	Blank	0	114	2	30	0	target	0	245	-1000	70642	13.328	13.304	13.348
ProbeTrack15	7	ProbeTrack	15.0	SCS215a	20120207.160815	20120207.162212	8	0.013328	60	10	60-180	60	77	GapExp	Blank	0	115	2	3	1	target	1	481	760	71402	13.326	12.927	13.351
ProbeTrack15	7	ProbeTrack	15.0	SCS215a	20120207.160815	20120207.162217	8	0.013328	60	10	60-180	60	109	GapExp	Blank	0	116	2	0	0	distractor	1	400	800	72202	13.328	13.312	13.345
ProbeTrack15	7	ProbeTrack	15.0	SCS215a	20120207.160815	20120207.162223	8	0.013328	60	10	60-180	60	80	GapExp	Blank	0	117	2	30	1	target	1	303	849	73051	13.328	13.112	13.544
ProbeTrack15	7	ProbeTrack	15.0	SCS215a	20120207.160815	20120207.162229	8	0.013328	60	10	60-180	60	167	GapExp	Blank	0	118	2	3	0	target	0	277	-1000	72051	13.328	13.107	13.550
ProbeTrack15	7	ProbeTrack	15.0	SCS215a	20120207.160815	20120207.162235	8	0.013328	60	10	60-180	60	83	GapExp	Blank	0	119	2	0	1	distractor	0	430	-1000	71051	13.328	13.307	13.348
ProbeTrack15	7	ProbeTrack	15.0	SCS215a	20120207.160815	20120207.162240	8	0.013328	60	10	60-180	60	177	GapExp	Blank	0	120	2	3	0	target	0	309	-1000	70051	13.328	12.892	13.750
ProbeTrack15	7	ProbeTrack	15.0	SCS215a	20120207.160815	20120207.162247	8	0.013328	60	10	60-180	60	92	GapExp	Blank	0	121	2	1	1	target	1	373	814	70865	13.328	13.308	13.347
ProbeTrack15	7	ProbeTrack	15.0	SCS215a	20120207.160815	20120207.162252	8	0.013328	60	10	60-180	60	86	GapExp	Blank	0	122	2	3	0	distractor	1	405	798	71663	13.328	13.104	13.551
ProbeTrack15	7	ProbeTrack	15.0	SCS215a	20120207.160815	20120207.162257	8	0.013328	60	10	60-180	60	180	GapExp	Blank	0	123	2	3	0	distractor	1	565	718	72381	13.328	13.011	13.653
ProbeTrack15	7	ProbeTrack	15.0	SCS215a	20120207.160815	20120207.162305	8	0.013328	60	10	60-180	60	111	GapExp	Blank	0	124	2	3	0	distractor	1	432	784	73165	13.328	13.101	13.568
ProbeTrack15	7	ProbeTrack	15.0	SCS215a	20120207.160815	20120207.162310	8	0.013328	60	10	60-180	60	89	GapExp	Blank	0	125	2	3	0	distractor	1	315	843	74008	13.328	13.309	13.353
ProbeTrack15	7	ProbeTrack	15.0	SCS215a	20120207.160815	20120207.162315	8	0.013328	60	10	60-180	60	143	GapExp	Blank	0	126	2	3	1	distractor	0	542	-1000	73008	13.328	13.300	13.348
ProbeTrack15	7	ProbeTrack	15.0	SCS215a	20120207.160815	20120207.162321	8	0.013328	60	10	60-180	60	166	GapExp	Blank	0	127	2	0	0	distractor	1	462	769	73777	13.328	13.306	13.348
ProbeTrack15	7	ProbeTrack	15.0	SCS215a	20120207.160815	20120207.162328	8	0.013328	60	10	60-180	60	177	GapExp	Blank	0	128	2	30	1	target	1	361	820	74597	13.328	12.923	13.742
ProbeTrack15	7	ProbeTrack	15.0	SCS215a	20120207.160815	20120207.162334	8	0.013328	60	10	60-180	60	98	GapExp	Blank	0	129	2	1	0	distractor	1	425	788	75385	13.328	13.309	13.353
ProbeTrack15	7	ProbeTrack	15.0	SCS215a	20120207.160815	20120207.162341	8	0.013328	60	10	60-180	60	114	GapExp	Blank	0	130	2	1	0	distractor	1	429	786	76171	13.328	12.898	13.764
ProbeTrack15	7	ProbeTrack	15.0	SCS215a	20120207.160815	20120207.162346	8	0.013328	60	10	60-180	60	73	GapExp	Blank	0	131	2	30	0	distractor	1	454	773	76944	13.328	13.308	13.354
ProbeTrack15	7	ProbeTrack	15.0	SCS215a	20120207.160815	20120207.162352	8	0.013328	60	10	60-180	60	170	GapExp	Blank	0	132	2	1	0	distractor	1	306	847	77791	13.328	13.099	13.556
ProbeTrack15	7	ProbeTrack	15.0	SCS215a	20120207.160815	20120207.162358	8	0.013328	60	10	60-180	60	68	GapExp	Blank	0	133	2	3	0	distractor	1	440	780	78571	13.328	13.309	13.353
ProbeTrack15	7	ProbeTrack	15.0	SCS215a	20120207.160815	20120207.162403	8	0.013328	60	10	60-180	60	146	GapExp	Blank	0	134	2	3	1	distractor	0	327	-1000	77571	13.328	12.883	13.773
ProbeTrack15	7	ProbeTrack	15.0	SCS215a	20120207.160815	20120207.162409	8	0.013328	60	10	60-180	60	138	GapExp	Blank	0	135	2	30	0	target	0	315	-1000	76571	13.328	12.925	13.754
ProbeTrack15	7	ProbeTrack	15.0	SCS215a	20120207.160815	20120207.162415	8	0.013328	60	10	60-180	60	150	GapExp	Blank	0	136	2	3	0	target	0	522	-1000	75571	13.328	12.854	13.809
ProbeTrack15	7	ProbeTrack	15.0	SCS215a	20120207.160815	20120207.162422	8	0.013328	60	10	60-180	60	79	GapExp	Blank	0	137	2	0	0	distractor	1	468	766	76337	13.328	13.100	13.557
ProbeTrack15	7	ProbeTrack	15.0	SCS215a	20120207.160815	20120207.162428	8	0.013328	60	10	60-180	60	109	GapExp	Blank	0	138	2	30	1	target	1	401	800	77137	13.328	12.879	13.770
ProbeTrack15	7	ProbeTrack	15.0	SCS215a	20120207.160815	20120207.162435	8	0.013328	60	10	60-180	60	122	GapExp	Blank	0	139	2	3	1	target	1	525	738	77875	13.328	13.098	13.558
ProbeTrack15	7	ProbeTrack	15.0	SCS215a	20120207.160815	20120207.162441	8	0.013328	60	10	60-180	60	123	GapExp	Blank	0	140	2	1	0	target	0	437	-1000	76875	13.328	13.094	13.554
ProbeTrack15	7	ProbeTrack	15.0	SCS215a	20120207.160815	20120207.162447	8	0.013328	60	10	60-180	60	162	GapExp	Blank	0	141	2	0	0	distractor	1	446	777	77652	13.328	12.991	13.652
ProbeTrack15	7	ProbeTrack	15.0	SCS215a	20120207.160815	20120207.162455	8	0.013328	60	10	60-180	60	110	GapExp	Blank	0	142	2	0	0	target	0	532	-1000	76652	13.328	12.925	13.739
ProbeTrack15	7	ProbeTrack	15.0	SCS215a	20120207.160815	20120207.162500	8	0.013328	60	10	60-180	60	85	GapExp	Blank	0	143	2	3	0	distractor	1	362	819	77471	13.328	13.307	13.345
ProbeTrack15	7	ProbeTrack	15.0	SCS215a	20120207.160815	20120207.162506	8	0.013328	60	10	60-180	60	146	GapExp	Blank	0	144	2	1	1	distractor	0	400	-1000	76471	13.328	13.308	13.348
ProbeTrack15	7	ProbeTrack	15.0	SCS215a	20120207.160815	20120207.162512	8	0.013328	60	10	60-180	60	104	GapExp	Blank	0	145	2	1	0	distractor	1	429	786	77257	13.328	13.105	13.563
ProbeTrack15	7	ProbeTrack	15.0	SCS215a	20120207.160815	20120207.162518	8	0.013328	60	10	60-180	60	96	GapExp	Blank	0	146	2	0	0	distractor	1	392	804	78061	13.328	13.028	13.631
ProbeTrack15	7	ProbeTrack	15.0	SCS215a	20120207.160815	20120207.162523	8	0.013328	60	10	60-180	60	86	GapExp	Blank	0	147	2	3	1	distractor	0	433	-1000	77061	13.328	13.308	13.346
ProbeTrack15	7	ProbeTrack	15.0	SCS215a	20120207.160815	20120207.162528	8	0.013328	60	10	60-180	60	104	GapExp	Blank	0	148	2	3	0	distractor	1	360	820	77881	13.328	13.008	13.644
ProbeTrack15	7	ProbeTrack	15.0	SCS215a	20120207.160815	20120207.162534	8	0.013328	60	10	60-180	60	86	GapExp	Blank	0	149	2	0	0	distractor	1	344	828	78709	13.328	12.930	13.741
ProbeTrack15	7	ProbeTrack	15.0	SCS215a	20120207.160815	20120207.162539	8	0.013328	60	10	60-180	60	177	GapExp	Blank	0	150	2	1	0	distractor	1	397	802	79511	13.328	13.105	13.545
ProbeTrack15	7	ProbeTrack	15.0	SCS215a	20120207.160815	20120207.162545	8	0.013328	60	10	60-180	60	64	GapExp	Blank	0	151	2	30	1	target	1	332	834	80345	13.328	13.106	13.558
ProbeTrack15	7	ProbeTrack	15.0	SCS215a	20120207.160815	20120207.162653	8	0.013328	60	10	60-180	60	101	GapExp	Blank	0	152	2	30	1	target	1	315	843	81188	13.328	13.307	13.353
ProbeTrack15	7	ProbeTrack	15.0	SCS215a	20120207.160815	20120207.162659	8	0.013328	60	10	60-180	60	164	GapExp	Blank	0	153	2	30	1	target	1	316	842	82030	13.328	13.308	13.349
ProbeTrack15	7	ProbeTrack	15.0	SCS215a	20120207.160815	20120207.162706	8	0.013328	60	10	60-180	60	142	GapExp	Blank	0	154	2	30	1	target	1	286	857	82887	13.328	13.037	13.620
ProbeTrack15	7	ProbeTrack	15.0	SCS215a	20120207.160815	20120207.162714	8	0.013328	60	10	60-180	60	137	GapExp	Blank	0	155	2	3	1	target	1	272	864	83751	13.328	13.306	13.346
ProbeTrack15	7	ProbeTrack	15.0	SCS215a	20120207.160815	20120207.162725	8	0.013328	60	10	60-180	60	97	GapExp	Blank	0	156	2	0	1	target	1	297	852	84603	13.330	13.313	13.711
ProbeTrack15	7	ProbeTrack	15.0	SCS215a	20120207.160815	20120207.162732	8	0.013328	60	10	60-180	60	112	GapExp	Blank	0	157	2	30	1	target	1	263	869	85472	13.328	13.112	13.551
ProbeTrack15	7	ProbeTrack	15.0	SCS215a	20120207.160815	20120207.162737	8	0.013328	60	10	60-180	60	138	GapExp	Blank	0	158	2	30	1	target	1	235	883	86355	13.328	12.873	13.798
ProbeTrack15	7	ProbeTrack	15.0	SCS215a	20120207.160815	20120207.162743	8	0.013328	60	10	60-180	60	112	GapExp	Blank	0	159	2	30	0	target	0	272	-1000	85355	13.328	13.092	13.550
ProbeTrack15	7	ProbeTrack	15.0	SCS215a	20120207.160815	20120207.162749	8	0.013328	60	10	60-180	60	81	GapExp	Blank	0	160	2	30	0	target	0	387	-1000	84355	13.328	13.306	13.349
ProbeTrack15	7	ProbeTrack	15.0	SCS215a	20120207.160815	20120207.162756	8	0.013328	60	10	60-180	60	140	GapExp	Blank	0	161	2	30	0	distractor	1	440	780	85135	13.328	13.081	13.577
ProbeTrack15	7	ProbeTrack	15.0	SCS215a	20120207.160815	20120207.162803	8	0.013328	60	10	60-180	60	157	GapExp	Blank	0	162	2	1	1	distractor	0	448	-1000	84135	13.328	13.090	13.572
ProbeTrack15	7	ProbeTrack	15.0	SCS215a	20120207.160815	20120207.162810	8	0.013328	60	10	60-180	60	95	GapExp	Blank	0	163	2	0	1	target	1	378	811	84946	13.328	13.001	13.650
ProbeTrack15	7	ProbeTrack	15.0	SCS215a	20120207.160815	20120207.162815	8	0.013328	60	10	60-180	60	77	GapExp	Blank	0	164	2	0	1	target	1	370	815	85761	13.328	12.885	13.779
ProbeTrack15	7	ProbeTrack	15.0	SCS215a	20120207.160815	20120207.162820	8	0.013328	60	10	60-180	60	148	GapExp	Blank	0	165	2	30	1	target	1	25436	0	85761	13.328	12.897	13.759
ProbeTrack15	7	ProbeTrack	15.0	SCS215a	20120207.160815	20120207.162902	8	0.013328	60	10	60-180	60	137	GapExp	Blank	0	166	2	1	1	target	1	338	831	86592	13.328	13.088	13.568
ProbeTrack15	7	ProbeTrack	15.0	SCS215a	20120207.160815	20120207.162913	8	0.013328	60	10	60-180	60	146	GapExp	Blank	0	167	2	30	0	distractor	1	378	811	87403	13.328	13.287	13.369
ProbeTrack15	7	ProbeTrack	15.0	SCS215a	20120207.160815	20120207.162920	8	0.013328	60	10	60-180	60	100	GapExp	Blank	0	168	2	0	1	target	1	375	813	88216	13.328	13.298	13.346
ProbeTrack15	7	ProbeTrack	15.0	SCS215a	20120207.160815	20120207.162926	8	0.013328	60	10	60-180	60	95	GapExp	Blank	0	169	2	1	1	target	1	413	794	89010	13.328	13.309	13.345
ProbeTrack15	7	ProbeTrack	15.0	SCS215a	20120207.160815	20120207.162931	8	0.013328	60	10	60-180	60	101	GapExp	Blank	0	170	2	3	1	distractor	0	490	-1000	88010	13.328	12.888	13.772
ProbeTrack15	7	ProbeTrack	15.0	SCS215a	20120207.160815	20120207.162937	8	0.013328	60	10	60-180	60	172	GapExp	Blank	0	171	2	0	1	target	1	645	678	88688	13.328	12.881	13.806
ProbeTrack15	7	ProbeTrack	15.0	SCS215a	20120207.160815	20120207.162943	8	0.013328	60	10	60-180	60	97	GapExp	Blank	0	172	2	30	0	target	0	294	-1000	87688	13.328	13.311	13.346
ProbeTrack15	7	ProbeTrack	15.0	SCS215a	20120207.160815	20120207.162951	8	0.013328	60	10	60-180	60	178	GapExp	Blank	0	173	2	1	0	distractor	1	404	798	88486	13.328	13.055	13.581
ProbeTrack15	7	ProbeTrack	15.0	SCS215a	20120207.160815	20120207.162958	8	0.013328	60	10	60-180	60	90	GapExp	Blank	0	174	2	1	0	distractor	1	425	788	89274	13.328	13.063	13.589
ProbeTrack15	7	ProbeTrack	15.0	SCS215a	20120207.160815	20120207.163004	8	0.013328	60	10	60-180	60	94	GapExp	Blank	0	175	2	3	0	distractor	1	443	779	90053	13.328	13.084	13.559
ProbeTrack15	7	ProbeTrack	15.0	SCS215a	20120207.160815	20120207.163010	8	0.013328	60	10	60-180	60	77	GapExp	Blank	0	176	2	3	0	distractor	1	480	760	90813	13.328	13.052	13.591
ProbeTrack15	7	ProbeTrack	15.0	SCS215a	20120207.160815	20120207.163016	8	0.013328	60	10	60-180	60	120	GapExp	Blank	0	177	2	3	0	distractor	1	477	762	91575	13.328	13.298	13.350
ProbeTrack15	7	ProbeTrack	15.0	SCS215a	20120207.160815	20120207.163022	8	0.013328	60	10	60-180	60	157	GapExp	Blank	0	178	2	1	0	distractor	1	480	760	92335	13.328	13.305	13.352
ProbeTrack15	7	ProbeTrack	15.0	SCS215a	20120207.160815	20120207.163028	8	0.013328	60	10	60-180	60	162	GapExp	Blank	0	179	2	3	1	target	1	445	778	93113	13.328	13.302	13.353
ProbeTrack15	7	ProbeTrack	15.0	SCS215a	20120207.160815	20120207.163036	8	0.013328	60	10	60-180	60	68	GapExp	Blank	0	180	2	30	0	target	0	390	-1000	92113	13.328	13.092	13.571
ProbeTrack15	7	ProbeTrack	15.0	SCS215a	20120207.160815	20120207.163042	8	0.013328	60	10	60-180	60	130	GapExp	Blank	0	181	2	1	0	target	0	515	-1000	91113	13.328	13.037	13.770
ProbeTrack15	7	ProbeTrack	15.0	SCS215a	20120207.160815	20120207.163052	8	0.013328	60	10	60-180	60	172	GapExp	Blank	0	182	2	0	0	distractor	1	401	800	91913	13.328	12.885	13.778
ProbeTrack15	7	ProbeTrack	15.0	SCS215a	20120207.160815	20120207.163058	8	0.013328	60	10	60-180	60	144	GapExp	Blank	0	183	2	3	0	distractor	1	499	751	92664	13.328	12.957	13.692
ProbeTrack15	7	ProbeTrack	15.0	SCS215a	20120207.160815	20120207.163104	8	0.013328	60	10	60-180	60	82	GapExp	Blank	0	184	2	0	0	distractor	1	485	758	93422	13.328	13.306	13.348
ProbeTrack15	7	ProbeTrack	15.0	SCS215a	20120207.160815	20120207.163109	8	0.013328	60	10	60-180	60	71	GapExp	Blank	0	185	2	30	0	distractor	1	382	809	94231	13.328	13.311	13.348
ProbeTrack15	7	ProbeTrack	15.0	SCS215a	20120207.160815	20120207.163115	8	0.013328	60	10	60-180	60	172	GapExp	Blank	0	186	2	1	0	distractor	1	402	799	95030	13.328	13.103	13.558
ProbeTrack15	7	ProbeTrack	15.0	SCS215a	20120207.160815	20120207.163122	8	0.013328	60	10	60-180	60	142	GapExp	Blank	0	187	2	1	1	distractor	0	412	-1000	94030	13.328	13.111	13.550
ProbeTrack15	7	ProbeTrack	15.0	SCS215a	20120207.160815	20120207.163128	8	0.013328	60	10	60-180	60	86	GapExp	Blank	0	188	2	1	1	target	1	507	747	94777	13.328	13.307	13.348
ProbeTrack15	7	ProbeTrack	15.0	SCS215a	20120207.160815	20120207.163133	8	0.013328	60	10	60-180	60	143	GapExp	Blank	0	189	2	1	0	distractor	1	382	809	95586	13.328	13.298	13.346
ProbeTrack15	7	ProbeTrack	15.0	SCS215a	20120207.160815	20120207.163139	8	0.013328	60	10	60-180	60	95	GapExp	Blank	0	190	2	0	0	distractor	1	414	793	96379	13.328	13.185	13.472
ProbeTrack15	7	ProbeTrack	15.0	SCS215a	20120207.160815	20120207.163145	8	0.013328	60	10	60-180	60	151	GapExp	Blank	0	191	2	3	1	distractor	0	332	-1000	95379	13.329	13.303	13.710
ProbeTrack15	7	ProbeTrack	15.0	SCS215a	20120207.160815	20120207.163151	8	0.013328	60	10	60-180	60	114	GapExp	Blank	0	192	2	1	0	distractor	1	390	805	96184	13.328	12.941	13.708
ProbeTrack15	7	ProbeTrack	15.0	SCS215a	20120207.160815	20120207.163157	8	0.013328	60	10	60-180	60	136	GapExp	Blank	0	193	2	0	1	distractor	0	513	-1000	95184	13.328	12.859	13.796
ProbeTrack15	7	ProbeTrack	15.0	SCS215a	20120207.160815	20120207.163203	8	0.013328	60	10	60-180	60	62	GapExp	Blank	0	194	2	0	1	target	1	360	820	96004	13.328	13.106	13.542
ProbeTrack15	7	ProbeTrack	15.0	SCS215a	20120207.160815	20120207.163207	8	0.013328	60	10	60-180	60	163	GapExp	Blank	0	195	2	0	1	target	1	373	814	96818	13.328	12.908	13.734
ProbeTrack15	7	ProbeTrack	15.0	SCS215a	20120207.160815	20120207.163214	8	0.013328	60	10	60-180	60	164	GapExp	Blank	0	196	2	30	1	target	1	276	862	97680	13.328	13.269	13.392
ProbeTrack15	7	ProbeTrack	15.0	SCS215a	20120207.160815	20120207.163220	8	0.013328	60	10	60-180	60	123	GapExp	Blank	0	197	2	0	0	target	0	523	-1000	96680	13.328	12.948	13.703
ProbeTrack15	7	ProbeTrack	15.0	SCS215a	20120207.160815	20120207.163227	8	0.013328	60	10	60-180	60	96	GapExp	Blank	0	198	2	3	1	target	1	530	735	97415	13.328	13.307	13.352
ProbeTrack15	7	ProbeTrack	15.0	SCS215a	20120207.160815	20120207.163233	8	0.013328	60	10	60-180	60	70	GapExp	Blank	0	199	2	30	0	target	0	503	-1000	96415	13.328	13.108	13.562
ProbeTrack15	7	ProbeTrack	15.0	SCS215a	20120207.160815	20120207.163238	8	0.013328	60	10	60-180	60	156	GapExp	Blank	0	200	2	1	1	target	1	493	754	97169	13.328	13.308	13.346
ProbeTrack15	7	ProbeTrack	15.0	SCS215a	20120207.163418	20120207.163426	8	0.013303	60	10	60-180	60	106	GapPrac	BigFlash	1	1	2	1	1	target	1	710	645	97814	13.382	13.307	13.347
ProbeTrack15	7	ProbeTrack	15.0	SCS215a	20120207.163418	20120207.163433	8	0.013303	60	10	60-180	60	159	GapPrac	BigFlash	1	2	2	3	1	target	1	481	760	98574	13.328	13.313	13.343
ProbeTrack15	7	ProbeTrack	15.0	SCS215a	20120207.163418	20120207.163440	8	0.013303	60	10	60-180	60	93	GapPrac	BigFlash	1	3	2	1	0	distractor	1	546	727	99301	13.328	13.308	13.344
ProbeTrack15	7	ProbeTrack	15.0	SCS215a	20120207.163418	20120207.163446	8	0.013303	60	10	60-180	60	85	GapPrac	BigFlash	1	4	2	3	0	distractor	1	530	735	100036	13.328	6.789	19.872
ProbeTrack15	7	ProbeTrack	15.0	SCS215a	20120207.163418	20120207.163451	8	0.013303	60	10	60-180	60	151	GapPrac	BigFlash	1	5	2	30	0	distractor	1	478	761	100797	13.328	4.651	22.003
ProbeTrack15	7	ProbeTrack	15.0	SCS215a	20120207.163418	20120207.163457	8	0.013303	60	10	60-180	60	74	GapPrac	BigFlash	1	6	2	30	1	target	1	497	752	101549	13.328	12.462	14.197
ProbeTrack15	7	ProbeTrack	15.0	SCS215a	20120207.163418	20120207.163504	8	0.013303	60	10	60-180	60	180	GapPrac	BigFlash	1	7	2	30	1	target	1	358	821	102370	13.328	13.104	13.545
ProbeTrack15	7	ProbeTrack	15.0	SCS215a	20120207.163418	20120207.163511	8	0.013303	60	10	60-180	60	154	GapPrac	BigFlash	1	8	2	0	0	distractor	1	508	746	103116	13.328	13.106	13.544
ProbeTrack15	7	ProbeTrack	15.0	SCS215a	20120207.163418	20120207.163517	8	0.013303	60	10	60-180	60	157	GapPrac	BigFlash	1	9	2	0	0	distractor	1	385	808	103924	13.328	8.331	18.320
ProbeTrack15	7	ProbeTrack	15.0	SCS215a	20120207.163418	20120207.163523	8	0.013303	60	10	60-180	60	92	GapPrac	BigFlash	1	10	2	0	1	target	1	402	799	104723	13.328	13.309	13.346
ProbeTrack15	7	ProbeTrack	15.0	SCS215a	20120207.163418	20120207.163529	8	0.013303	60	10	60-180	60	159	GapPrac	BigFlash	1	11	2	3	0	distractor	1	316	842	105565	13.328	10.546	16.105
ProbeTrack15	7	ProbeTrack	15.0	SCS215a	20120207.163418	20120207.163535	8	0.013303	60	10	60-180	60	178	GapPrac	BigFlash	1	12	2	30	0	distractor	1	386	807	106372	13.328	5.594	21.075
ProbeTrack15	7	ProbeTrack	15.0	SCS215a	20120207.163418	20120207.163542	8	0.013303	60	10	60-180	60	102	GapPrac	BigFlash	1	13	2	1	0	distractor	1	422	789	107161	13.328	13.108	13.350
ProbeTrack15	7	ProbeTrack	15.0	SCS215a	20120207.163418	20120207.163547	8	0.013303	60	10	60-180	60	122	GapPrac	BigFlash	1	14	2	1	0	distractor	1	371	815	107976	13.328	13.107	13.551
ProbeTrack15	7	ProbeTrack	15.0	SCS215a	20120207.163418	20120207.163553	8	0.013303	60	10	60-180	60	115	GapPrac	BigFlash	1	15	2	1	1	target	1	429	786	108762	13.328	12.094	14.555
ProbeTrack15	7	ProbeTrack	15.0	SCS215a	20120207.163418	20120207.163559	8	0.013303	60	10	60-180	60	79	GapPrac	BigFlash	1	16	2	3	0	distractor	1	326	837	109599	13.328	10.594	16.050
ProbeTrack15	7	ProbeTrack	15.0	SCS215a	20120207.163418	20120207.163604	8	0.013303	60	10	60-180	60	120	GapPrac	BigFlash	1	17	2	3	1	target	1	368	816	110415	13.328	13.308	13.345
ProbeTrack15	7	ProbeTrack	15.0	SCS215a	20120207.163418	20120207.163610	8	0.013303	60	10	60-180	60	158	GapPrac	BigFlash	1	18	2	3	1	target	1	399	801	111216	13.328	13.309	13.346
ProbeTrack15	7	ProbeTrack	15.0	SCS215a	20120207.163418	20120207.163617	8	0.013303	60	10	60-180	60	148	GapPrac	BigFlash	1	19	2	1	1	target	1	296	852	112068	13.328	13.304	13.351
ProbeTrack15	7	ProbeTrack	15.0	SCS215a	20120207.163418	20120207.163623	8	0.013303	60	10	60-180	60	72	GapPrac	BigFlash	1	20	2	0	1	target	1	390	805	112873	13.328	13.098	13.557
ProbeTrack15	7	ProbeTrack	15.0	SCS215a	20120207.163716	20120207.163726	8	0.013328	60	10	60-180	60	173	GapExp	BigFlash	1	1	2	1	1	target	1	461	770	113643	13.373	13.108	13.555
ProbeTrack15	7	ProbeTrack	15.0	SCS215a	20120207.163716	20120207.163740	8	0.013328	60	10	60-180	60	101	GapExp	BigFlash	1	2	2	1	0	distractor	1	415	793	114436	13.328	13.308	13.348
ProbeTrack15	7	ProbeTrack	15.0	SCS215a	20120207.163716	20120207.163746	8	0.013328	60	10	60-180	60	127	GapExp	BigFlash	1	3	2	0	0	target	0	328	-1000	113436	13.328	12.904	13.749
ProbeTrack15	7	ProbeTrack	15.0	SCS215a	20120207.163716	20120207.163752	8	0.013328	60	10	60-180	60	78	GapExp	BigFlash	1	4	2	30	1	target	1	484	758	114194	13.328	13.086	13.557
ProbeTrack15	7	ProbeTrack	15.0	SCS215a	20120207.163716	20120207.163757	8	0.013328	60	10	60-180	60	85	GapExp	BigFlash	1	5	2	3	1	target	1	452	774	114968	13.328	13.309	13.356
ProbeTrack15	7	ProbeTrack	15.0	SCS215a	20120207.163716	20120207.163802	8	0.013328	60	10	60-180	60	162	GapExp	BigFlash	1	6	2	0	1	target	1	401	800	115768	13.328	13.305	13.348
ProbeTrack15	7	ProbeTrack	15.0	SCS215a	20120207.163716	20120207.163809	8	0.013328	60	10	60-180	60	175	GapExp	BigFlash	1	7	2	3	0	distractor	1	476	762	116530	13.328	13.012	13.630
ProbeTrack15	7	ProbeTrack	15.0	SCS215a	20120207.163716	20120207.163816	8	0.013328	60	10	60-180	60	74	GapExp	BigFlash	1	8	2	30	0	target	0	248	-1000	115530	13.328	13.100	13.551
ProbeTrack15	7	ProbeTrack	15.0	SCS215a	20120207.163716	20120207.163821	8	0.013328	60	10	60-180	60	151	GapExp	BigFlash	0	9	2	30	0	distractor	1	392	804	116334	13.328	12.856	13.792
ProbeTrack15	7	ProbeTrack	15.0	SCS215a	20120207.163716	20120207.163827	8	0.013328	60	10	60-180	60	73	GapExp	BigFlash	0	10	2	30	1	target	1	338	831	117165	13.328	12.911	13.740
ProbeTrack15	7	ProbeTrack	15.0	SCS215a	20120207.163716	20120207.163833	8	0.013328	60	10	60-180	60	123	GapExp	BigFlash	0	11	2	30	1	target	1	309	846	118011	13.328	13.304	13.359
ProbeTrack15	7	ProbeTrack	15.0	SCS215a	20120207.163716	20120207.163839	8	0.013328	60	10	60-180	60	109	GapExp	BigFlash	0	12	2	3	1	distractor	0	329	-1000	117011	13.328	13.310	13.344
ProbeTrack15	7	ProbeTrack	15.0	SCS215a	20120207.163716	20120207.163844	8	0.013328	60	10	60-180	60	107	GapExp	BigFlash	0	13	2	1	1	target	1	360	820	117831	13.328	13.305	13.344
ProbeTrack15	7	ProbeTrack	15.0	SCS215a	20120207.163716	20120207.163850	8	0.013328	60	10	60-180	60	164	GapExp	BigFlash	0	14	2	1	1	target	1	310	845	118676	13.328	13.113	13.552
ProbeTrack15	7	ProbeTrack	15.0	SCS215a	20120207.163716	20120207.163857	8	0.013328	60	10	60-180	60	90	GapExp	BigFlash	0	15	2	1	0	distractor	1	396	802	119478	13.328	12.852	13.803
ProbeTrack15	7	ProbeTrack	15.0	SCS215a	20120207.163716	20120207.163902	8	0.013328	60	10	60-180	60	104	GapExp	BigFlash	0	16	2	30	0	distractor	1	440	780	120258	13.328	12.910	13.732
ProbeTrack15	7	ProbeTrack	15.0	SCS215a	20120207.163716	20120207.163908	8	0.013328	60	10	60-180	60	119	GapExp	BigFlash	0	17	2	0	1	target	1	357	822	121080	13.328	12.957	13.698
ProbeTrack15	7	ProbeTrack	15.0	SCS215a	20120207.163716	20120207.163914	8	0.013328	60	10	60-180	60	106	GapExp	BigFlash	0	18	2	30	1	target	1	374	813	121893	13.328	12.857	13.797
ProbeTrack15	7	ProbeTrack	15.0	SCS215a	20120207.163716	20120207.163920	8	0.013328	60	10	60-180	60	76	GapExp	BigFlash	0	19	2	0	0	distractor	1	467	767	122660	13.328	12.932	13.748
ProbeTrack15	7	ProbeTrack	15.0	SCS215a	20120207.163716	20120207.163925	8	0.013328	60	10	60-180	60	86	GapExp	BigFlash	0	20	2	30	0	target	0	357	-1000	121660	13.328	13.099	13.558
ProbeTrack15	7	ProbeTrack	15.0	SCS215a	20120207.163716	20120207.163931	8	0.013328	60	10	60-180	60	99	GapExp	BigFlash	0	21	2	0	1	target	1	461	770	122430	13.328	13.095	13.562
ProbeTrack15	7	ProbeTrack	15.0	SCS215a	20120207.163716	20120207.163936	8	0.013328	60	10	60-180	60	151	GapExp	BigFlash	0	22	2	1	1	target	1	538	731	123161	13.328	13.106	13.550
ProbeTrack15	7	ProbeTrack	15.0	SCS215a	20120207.163716	20120207.163943	8	0.013328	60	10	60-180	60	97	GapExp	BigFlash	0	23	2	1	0	distractor	1	436	782	123943	13.328	13.273	13.376
ProbeTrack15	7	ProbeTrack	15.0	SCS215a	20120207.163716	20120207.163948	8	0.013328	60	10	60-180	60	123	GapExp	BigFlash	0	24	2	0	0	distractor	1	486	757	124700	13.328	13.291	13.359
ProbeTrack15	7	ProbeTrack	15.0	SCS215a	20120207.163716	20120207.163954	8	0.013328	60	10	60-180	60	173	GapExp	BigFlash	0	25	2	30	0	distractor	1	511	745	125445	13.328	12.976	13.672
ProbeTrack15	7	ProbeTrack	15.0	SCS215a	20120207.163716	20120207.164002	8	0.013328	60	10	60-180	60	148	GapExp	BigFlash	0	26	2	3	1	distractor	0	388	-1000	124445	13.328	13.292	13.346
ProbeTrack15	7	ProbeTrack	15.0	SCS215a	20120207.163716	20120207.164017	8	0.013328	60	10	60-180	60	95	GapExp	BigFlash	0	27	2	0	1	target	1	775	613	125058	13.328	12.950	13.768
ProbeTrack15	7	ProbeTrack	15.0	SCS215a	20120207.163716	20120207.164022	8	0.013328	60	10	60-180	60	95	GapExp	BigFlash	0	28	2	0	0	distractor	1	441	780	125838	13.328	13.306	13.346
ProbeTrack15	7	ProbeTrack	15.0	SCS215a	20120207.163716	20120207.164028	8	0.013328	60	10	60-180	60	132	GapExp	BigFlash	0	29	2	0	0	distractor	1	436	782	126620	13.328	12.887	13.667
ProbeTrack15	7	ProbeTrack	15.0	SCS215a	20120207.163716	20120207.164034	8	0.013328	60	10	60-180	60	111	GapExp	BigFlash	0	30	2	0	0	distractor	1	431	785	127405	13.328	13.114	13.543
ProbeTrack15	7	ProbeTrack	15.0	SCS215a	20120207.163716	20120207.164040	8	0.013328	60	10	60-180	60	80	GapExp	BigFlash	0	31	2	1	0	distractor	1	438	781	128186	13.328	13.109	13.534
ProbeTrack15	7	ProbeTrack	15.0	SCS215a	20120207.163716	20120207.164045	8	0.013328	60	10	60-180	60	163	GapExp	BigFlash	0	32	2	0	1	distractor	0	317	-1000	127186	13.328	13.307	13.347
ProbeTrack15	7	ProbeTrack	15.0	SCS215a	20120207.163716	20120207.164051	8	0.013328	60	10	60-180	60	121	GapExp	BigFlash	0	33	2	3	1	early	-4	-3509	-1000	126186	13.328	13.306	13.351
ProbeTrack15	7	ProbeTrack	15.0	SCS215a	20120207.163716	20120207.164057	8	0.013328	60	10	60-180	60	124	GapExp	BigFlash	0	34	2	30	0	distractor	1	480	760	126946	13.328	13.306	13.350
ProbeTrack15	7	ProbeTrack	15.0	SCS215a	20120207.163716	20120207.164104	8	0.013328	60	10	60-180	60	81	GapExp	BigFlash	0	35	2	30	1	target	1	336	832	127778	13.328	13.110	13.554
ProbeTrack15	7	ProbeTrack	15.0	SCS215a	20120207.163716	20120207.164110	8	0.013328	60	10	60-180	60	132	GapExp	BigFlash	0	36	2	3	0	distractor	1	389	806	128584	13.328	13.088	13.554
ProbeTrack15	7	ProbeTrack	15.0	SCS215a	20120207.163716	20120207.164116	8	0.013328	60	10	60-180	60	171	GapExp	BigFlash	0	37	2	0	0	distractor	1	396	802	129386	13.328	12.990	13.668
ProbeTrack15	7	ProbeTrack	15.0	SCS215a	20120207.163716	20120207.164122	8	0.013328	60	10	60-180	60	104	GapExp	BigFlash	0	38	2	3	0	distractor	1	336	832	130218	13.328	12.879	13.777
ProbeTrack15	7	ProbeTrack	15.0	SCS215a	20120207.163716	20120207.164127	8	0.013328	60	10	60-180	60	111	GapExp	BigFlash	0	39	2	30	1	early	-4	-3729	-1000	129218	13.328	12.928	13.742
ProbeTrack15	7	ProbeTrack	15.0	SCS215a	20120207.163716	20120207.164133	8	0.013328	60	10	60-180	60	102	GapExp	BigFlash	0	40	2	3	1	target	1	305	848	130066	13.328	13.251	13.368
ProbeTrack15	7	ProbeTrack	15.0	SCS215a	20120207.163716	20120207.164139	8	0.013328	60	10	60-180	60	98	GapExp	BigFlash	0	41	2	1	0	target	0	520	-1000	129066	13.328	12.924	13.755
ProbeTrack15	7	ProbeTrack	15.0	SCS215a	20120207.163716	20120207.164145	8	0.013328	60	10	60-180	60	162	GapExp	BigFlash	0	42	2	0	0	distractor	1	441	780	129846	13.328	12.934	13.715
ProbeTrack15	7	ProbeTrack	15.0	SCS215a	20120207.163716	20120207.164151	8	0.013328	60	10	60-180	60	161	GapExp	BigFlash	0	43	2	0	1	early	-4	-3959	-1000	128846	13.328	12.968	13.708
ProbeTrack15	7	ProbeTrack	15.0	SCS215a	20120207.163716	20120207.164157	8	0.013328	60	10	60-180	60	164	GapExp	BigFlash	0	44	2	1	1	target	1	412	794	129640	13.328	12.903	13.751
ProbeTrack15	7	ProbeTrack	15.0	SCS215a	20120207.163716	20120207.164204	8	0.013328	60	10	60-180	60	65	GapExp	BigFlash	0	45	2	1	1	target	1	441	780	130420	13.328	13.084	13.564
ProbeTrack15	7	ProbeTrack	15.0	SCS215a	20120207.163716	20120207.164209	8	0.013328	60	10	60-180	60	168	GapExp	BigFlash	0	46	2	1	1	target	1	377	812	131232	13.328	13.301	13.349
ProbeTrack15	7	ProbeTrack	15.0	SCS215a	20120207.163716	20120207.164215	8	0.013328	60	10	60-180	60	81	GapExp	BigFlash	0	47	2	1	1	target	1	290	855	132087	13.328	13.304	13.367
ProbeTrack15	7	ProbeTrack	15.0	SCS215a	20120207.163716	20120207.164221	8	0.013328	60	10	60-180	60	104	GapExp	BigFlash	0	48	2	30	1	target	1	333	834	132921	13.328	13.106	13.548
ProbeTrack15	7	ProbeTrack	15.0	SCS215a	20120207.163716	20120207.164226	8	0.013328	60	10	60-180	60	153	GapExp	BigFlash	0	49	2	1	1	target	1	434	783	133704	13.328	13.106	13.556
ProbeTrack15	7	ProbeTrack	15.0	SCS215a	20120207.163716	20120207.164233	8	0.013328	60	10	60-180	60	64	GapExp	BigFlash	0	50	2	30	1	target	1	405	798	134502	13.328	13.106	13.549
ProbeTrack15	7	ProbeTrack	15.0	SCS215a	20120207.163716	20120207.164238	8	0.013328	60	10	60-180	60	100	GapExp	BigFlash	0	51	2	1	1	target	1	330	835	135337	13.328	13.103	13.546
ProbeTrack15	7	ProbeTrack	15.0	SCS215a	20120207.163716	20120207.164411	8	0.013328	60	10	60-180	60	172	GapExp	BigFlash	0	52	2	3	1	target	1	336	832	136169	13.328	13.100	13.555
ProbeTrack15	7	ProbeTrack	15.0	SCS215a	20120207.163716	20120207.164418	8	0.013328	60	10	60-180	60	180	GapExp	BigFlash	0	53	2	0	1	target	1	276	862	137031	13.328	13.018	13.653
ProbeTrack15	7	ProbeTrack	15.0	SCS215a	20120207.163716	20120207.164424	8	0.013328	60	10	60-180	60	92	GapExp	BigFlash	0	54	2	3	0	distractor	1	411	795	137826	13.328	13.237	13.430
ProbeTrack15	7	ProbeTrack	15.0	SCS215a	20120207.163716	20120207.164429	8	0.013328	60	10	60-180	60	66	GapExp	BigFlash	0	55	2	1	0	distractor	1	345	828	138654	13.328	13.307	13.347
ProbeTrack15	7	ProbeTrack	15.0	SCS215a	20120207.163716	20120207.164434	8	0.013328	60	10	60-180	60	168	GapExp	BigFlash	0	56	2	1	1	target	1	457	772	139426	13.328	12.900	13.758
ProbeTrack15	7	ProbeTrack	15.0	SCS215a	20120207.163716	20120207.164442	8	0.013328	60	10	60-180	60	117	GapExp	BigFlash	0	57	2	0	0	distractor	1	389	806	140232	13.328	13.307	13.353
ProbeTrack15	7	ProbeTrack	15.0	SCS215a	20120207.163716	20120207.164450	8	0.013328	60	10	60-180	60	162	GapExp	BigFlash	0	58	2	0	1	target	1	320	840	141072	13.328	13.309	13.344
ProbeTrack15	7	ProbeTrack	15.0	SCS215a	20120207.163716	20120207.164456	8	0.013328	60	10	60-180	60	163	GapExp	BigFlash	0	59	2	30	1	target	1	407	797	141869	13.328	13.304	13.349
ProbeTrack15	7	ProbeTrack	15.0	SCS215a	20120207.163716	20120207.164503	8	0.013328	60	10	60-180	60	126	GapExp	BigFlash	0	60	2	3	1	target	1	352	824	142693	13.328	12.889	13.785
ProbeTrack15	7	ProbeTrack	15.0	SCS215a	20120207.163716	20120207.164509	8	0.013328	60	10	60-180	60	102	GapExp	BigFlash	0	61	2	0	0	distractor	1	360	820	143513	13.328	12.940	13.705
ProbeTrack15	7	ProbeTrack	15.0	SCS215a	20120207.163716	20120207.164515	8	0.013328	60	10	60-180	60	102	GapExp	BigFlash	0	62	2	1	0	distractor	1	456	772	144285	13.328	12.863	13.793
ProbeTrack15	7	ProbeTrack	15.0	SCS215a	20120207.163716	20120207.164520	8	0.013328	60	10	60-180	60	146	GapExp	BigFlash	0	63	2	0	0	distractor	1	497	752	145037	13.328	12.999	13.648
ProbeTrack15	7	ProbeTrack	15.0	SCS215a	20120207.163716	20120207.164526	8	0.013328	60	10	60-180	60	135	GapExp	BigFlash	0	64	2	30	1	target	1	475	763	145800	13.328	13.098	13.558
ProbeTrack15	7	ProbeTrack	15.0	SCS215a	20120207.163716	20120207.164533	8	0.013328	60	10	60-180	60	174	GapExp	BigFlash	0	65	2	1	1	target	1	360	820	146620	13.328	13.093	13.551
ProbeTrack15	7	ProbeTrack	15.0	SCS215a	20120207.163716	20120207.164540	8	0.013328	60	10	60-180	60	111	GapExp	BigFlash	0	66	2	1	1	target	1	304	848	147468	13.328	13.306	13.356
ProbeTrack15	7	ProbeTrack	15.0	SCS215a	20120207.163716	20120207.164546	8	0.013328	60	10	60-180	60	147	GapExp	BigFlash	0	67	2	3	1	target	1	291	855	148323	13.328	13.302	13.345
ProbeTrack15	7	ProbeTrack	15.0	SCS215a	20120207.163716	20120207.164552	8	0.013328	60	10	60-180	60	115	GapExp	BigFlash	0	68	2	3	1	target	1	392	804	149127	13.328	12.913	13.738
ProbeTrack15	7	ProbeTrack	15.0	SCS215a	20120207.163716	20120207.164557	8	0.013328	60	10	60-180	60	171	GapExp	BigFlash	0	69	2	3	0	target	0	248	-1000	148127	13.328	13.307	13.344
ProbeTrack15	7	ProbeTrack	15.0	SCS215a	20120207.163716	20120207.164604	8	0.013328	60	10	60-180	60	156	GapExp	BigFlash	0	70	2	30	1	distractor	0	358	-1000	147127	13.328	13.094	13.543
ProbeTrack15	7	ProbeTrack	15.0	SCS215a	20120207.163716	20120207.164610	8	0.013328	60	10	60-180	60	71	GapExp	BigFlash	0	71	2	0	1	target	1	336	832	147959	13.328	13.106	13.550
ProbeTrack15	7	ProbeTrack	15.0	SCS215a	20120207.163716	20120207.164615	8	0.013328	60	10	60-180	60	80	GapExp	BigFlash	0	72	2	0	0	distractor	1	557	722	148681	13.328	13.121	13.458
ProbeTrack15	7	ProbeTrack	15.0	SCS215a	20120207.163716	20120207.164620	8	0.013328	60	10	60-180	60	132	GapExp	BigFlash	0	73	2	3	1	target	1	405	798	149479	13.328	13.288	13.362
ProbeTrack15	7	ProbeTrack	15.0	SCS215a	20120207.163716	20120207.164626	8	0.013328	60	10	60-180	60	148	GapExp	BigFlash	0	74	2	1	1	target	1	283	859	150338	13.328	13.213	13.519
ProbeTrack15	7	ProbeTrack	15.0	SCS215a	20120207.163716	20120207.164632	8	0.013328	60	10	60-180	60	68	GapExp	BigFlash	0	75	2	30	0	distractor	1	516	742	151080	13.328	13.118	13.552
ProbeTrack15	7	ProbeTrack	15.0	SCS215a	20120207.163716	20120207.164638	8	0.013328	60	10	60-180	60	65	GapExp	BigFlash	0	76	2	0	1	target	1	344	828	151908	13.403	13.305	26.678
ProbeTrack15	7	ProbeTrack	15.0	SCS215a	20120207.163716	20120207.164656	8	0.013328	60	10	60-180	60	72	GapExp	BigFlash	0	77	2	0	0	distractor	1	485	758	152666	13.396	12.931	27.034
ProbeTrack15	7	ProbeTrack	15.0	SCS215a	20120207.163716	20120207.164701	8	0.013328	60	10	60-180	60	79	GapExp	BigFlash	0	78	2	1	0	distractor	1	471	765	153431	13.328	13.097	13.560
ProbeTrack15	7	ProbeTrack	15.0	SCS215a	20120207.163716	20120207.164706	8	0.013328	60	10	60-180	60	66	GapExp	BigFlash	0	79	2	1	0	distractor	1	437	782	154213	13.328	13.068	13.588
ProbeTrack15	7	ProbeTrack	15.0	SCS215a	20120207.163716	20120207.164711	8	0.013328	60	10	60-180	60	131	GapExp	BigFlash	0	80	2	1	0	distractor	1	409	796	155009	13.328	13.308	13.350
ProbeTrack15	7	ProbeTrack	15.0	SCS215a	20120207.163716	20120207.164717	8	0.013328	60	10	60-180	60	165	GapExp	BigFlash	0	81	2	3	0	early	-4	-4144	-1000	154009	13.328	12.899	13.753
ProbeTrack15	7	ProbeTrack	15.0	SCS215a	20120207.163716	20120207.164724	8	0.013328	60	10	60-180	60	105	GapExp	BigFlash	0	82	2	30	0	distractor	1	495	753	154762	13.328	13.306	13.359
ProbeTrack15	7	ProbeTrack	15.0	SCS215a	20120207.163716	20120207.164730	8	0.013328	60	10	60-180	60	156	GapExp	BigFlash	0	83	2	1	1	target	1	257	872	155634	13.328	13.311	13.349
ProbeTrack15	7	ProbeTrack	15.0	SCS215a	20120207.163716	20120207.164736	8	0.013328	60	10	60-180	60	80	GapExp	BigFlash	0	84	2	1	1	target	1	507	747	156381	13.328	13.308	13.349
ProbeTrack15	7	ProbeTrack	15.0	SCS215a	20120207.163716	20120207.164742	8	0.013328	60	10	60-180	60	166	GapExp	BigFlash	0	85	2	30	0	distractor	1	427	787	157168	13.328	12.973	13.685
ProbeTrack15	7	ProbeTrack	15.0	SCS215a	20120207.163716	20120207.164749	8	0.013328	60	10	60-180	60	107	GapExp	BigFlash	0	86	2	1	0	early	-4	-3262	-1000	156168	13.328	12.877	13.773
ProbeTrack15	7	ProbeTrack	15.0	SCS215a	20120207.163716	20120207.164754	8	0.013328	60	10	60-180	60	144	GapExp	BigFlash	0	87	2	3	1	target	1	313	844	157012	13.328	13.106	13.557
ProbeTrack15	7	ProbeTrack	15.0	SCS215a	20120207.163716	20120207.164801	8	0.013328	60	10	60-180	60	134	GapExp	BigFlash	0	88	2	1	0	distractor	1	443	779	157791	13.328	13.108	13.554
ProbeTrack15	7	ProbeTrack	15.0	SCS215a	20120207.163716	20120207.164807	8	0.013328	60	10	60-180	60	132	GapExp	BigFlash	0	89	2	3	1	target	1	399	801	158592	13.328	13.305	13.345
ProbeTrack15	7	ProbeTrack	15.0	SCS215a	20120207.163716	20120207.164812	8	0.013328	60	10	60-180	60	63	GapExp	BigFlash	0	90	2	1	0	distractor	1	496	752	159344	13.328	13.214	13.442
ProbeTrack15	7	ProbeTrack	15.0	SCS215a	20120207.163716	20120207.164818	8	0.013328	60	10	60-180	60	169	GapExp	BigFlash	0	91	2	0	1	target	1	357	822	160166	13.328	13.014	13.653
ProbeTrack15	7	ProbeTrack	15.0	SCS215a	20120207.163716	20120207.164824	8	0.013328	60	10	60-180	60	179	GapExp	BigFlash	0	92	2	1	0	target	0	264	-1000	159166	13.328	12.861	13.788
ProbeTrack15	7	ProbeTrack	15.0	SCS215a	20120207.163716	20120207.164831	8	0.013328	60	10	60-180	60	139	GapExp	BigFlash	0	93	2	0	1	target	1	274	863	160029	13.328	13.112	13.557
ProbeTrack15	7	ProbeTrack	15.0	SCS215a	20120207.163716	20120207.164837	8	0.013328	60	10	60-180	60	151	GapExp	BigFlash	0	94	2	30	1	target	1	397	802	160831	13.328	13.102	13.544
ProbeTrack15	7	ProbeTrack	15.0	SCS215a	20120207.163716	20120207.164843	8	0.013328	60	10	60-180	60	97	GapExp	BigFlash	0	95	2	0	0	distractor	1	384	808	161639	13.328	13.309	13.344
ProbeTrack15	7	ProbeTrack	15.0	SCS215a	20120207.163716	20120207.164850	8	0.013328	60	10	60-180	60	175	GapExp	BigFlash	0	96	2	3	1	target	1	313	844	162483	13.328	12.993	13.665
ProbeTrack15	7	ProbeTrack	15.0	SCS215a	20120207.163716	20120207.164859	8	0.013328	60	10	60-180	60	134	GapExp	BigFlash	0	97	2	0	1	target	1	323	839	163322	13.328	13.117	13.538
ProbeTrack15	7	ProbeTrack	15.0	SCS215a	20120207.163716	20120207.164905	8	0.013328	60	10	60-180	60	175	GapExp	BigFlash	0	98	2	0	0	distractor	1	370	815	164137	13.328	13.093	13.557
ProbeTrack15	7	ProbeTrack	15.0	SCS215a	20120207.163716	20120207.164912	8	0.013328	60	10	60-180	60	121	GapExp	BigFlash	0	99	2	3	0	distractor	1	499	751	164888	13.328	13.093	13.559
ProbeTrack15	7	ProbeTrack	15.0	SCS215a	20120207.163716	20120207.164917	8	0.013328	60	10	60-180	60	88	GapExp	BigFlash	0	100	2	30	0	distractor	1	479	761	165649	13.328	13.305	13.347
ProbeTrack15	7	ProbeTrack	15.0	SCS215a	20120207.163716	20120207.164923	8	0.013328	60	10	60-180	60	93	GapExp	BigFlash	0	101	2	30	1	target	1	296	852	166501	13.328	13.102	13.553
ProbeTrack15	7	ProbeTrack	15.0	SCS215a	20120207.163716	20120207.165051	8	0.013328	60	10	60-180	60	105	GapExp	BigFlash	0	102	2	1	0	distractor	1	369	816	167317	13.328	13.091	13.550
ProbeTrack15	7	ProbeTrack	15.0	SCS215a	20120207.163716	20120207.165056	8	0.013328	60	10	60-180	60	131	GapExp	BigFlash	0	103	2	0	0	distractor	1	478	761	168078	13.328	13.304	13.348
ProbeTrack15	7	ProbeTrack	15.0	SCS215a	20120207.163716	20120207.165102	8	0.013328	60	10	60-180	60	67	GapExp	BigFlash	0	104	2	0	1	target	1	468	766	168844	13.328	13.309	13.348
ProbeTrack15	7	ProbeTrack	15.0	SCS215a	20120207.163716	20120207.165107	8	0.013328	60	10	60-180	60	94	GapExp	BigFlash	0	105	2	3	0	distractor	1	405	798	169642	13.328	12.908	13.761
ProbeTrack15	7	ProbeTrack	15.0	SCS215a	20120207.163716	20120207.165113	8	0.013328	60	10	60-180	60	168	GapExp	BigFlash	0	106	2	1	1	target	1	332	834	170476	13.328	12.871	13.786
ProbeTrack15	7	ProbeTrack	15.0	SCS215a	20120207.163716	20120207.165119	8	0.013328	60	10	60-180	60	123	GapExp	BigFlash	0	107	2	30	0	distractor	1	426	787	171263	13.328	13.072	13.598
ProbeTrack15	7	ProbeTrack	15.0	SCS215a	20120207.163716	20120207.165126	8	0.013328	60	10	60-180	60	133	GapExp	BigFlash	0	108	2	3	0	distractor	1	441	780	172043	13.328	12.988	13.676
ProbeTrack15	7	ProbeTrack	15.0	SCS215a	20120207.163716	20120207.165132	8	0.013328	60	10	60-180	60	168	GapExp	BigFlash	0	109	2	3	0	distractor	1	534	733	172776	13.328	12.880	13.775
ProbeTrack15	7	ProbeTrack	15.0	SCS215a	20120207.163716	20120207.165138	8	0.013328	60	10	60-180	60	150	GapExp	BigFlash	0	110	2	3	0	distractor	1	384	808	173584	13.328	13.087	13.557
ProbeTrack15	7	ProbeTrack	15.0	SCS215a	20120207.163716	20120207.165144	8	0.013328	60	10	60-180	60	179	GapExp	BigFlash	0	111	2	1	1	target	1	307	847	174431	13.328	13.120	13.543
ProbeTrack15	7	ProbeTrack	15.0	SCS215a	20120207.163716	20120207.165151	8	0.013328	60	10	60-180	60	63	GapExp	BigFlash	0	112	2	0	0	distractor	1	466	767	175198	13.328	12.863	13.793
ProbeTrack15	7	ProbeTrack	15.0	SCS215a	20120207.163716	20120207.165156	8	0.013328	60	10	60-180	60	175	GapExp	BigFlash	0	113	2	1	1	target	1	250	875	176073	13.328	12.837	13.807
ProbeTrack15	7	ProbeTrack	15.0	SCS215a	20120207.163716	20120207.165202	8	0.013328	60	10	60-180	60	77	GapExp	BigFlash	0	114	2	0	0	target	0	299	-1000	175073	13.328	12.902	13.748
ProbeTrack15	7	ProbeTrack	15.0	SCS215a	20120207.163716	20120207.165207	8	0.013328	60	10	60-180	60	155	GapExp	BigFlash	0	115	2	0	1	target	1	413	794	175867	13.328	13.106	13.543
ProbeTrack15	7	ProbeTrack	15.0	SCS215a	20120207.163716	20120207.165213	8	0.013328	60	10	60-180	60	74	GapExp	BigFlash	0	116	2	0	0	distractor	1	380	810	176677	13.328	12.975	13.690
ProbeTrack15	7	ProbeTrack	15.0	SCS215a	20120207.163716	20120207.165218	8	0.013328	60	10	60-180	60	180	GapExp	BigFlash	0	117	2	3	1	target	1	278	861	177538	13.328	12.963	13.696
ProbeTrack15	7	ProbeTrack	15.0	SCS215a	20120207.163716	20120207.165225	8	0.013328	60	10	60-180	60	160	GapExp	BigFlash	0	118	2	30	0	distractor	1	446	777	178315	13.328	13.307	13.347
ProbeTrack15	7	ProbeTrack	15.0	SCS215a	20120207.163716	20120207.165232	8	0.013328	60	10	60-180	60	134	GapExp	BigFlash	0	119	2	1	0	distractor	1	361	820	179135	13.328	12.924	13.738
ProbeTrack15	7	ProbeTrack	15.0	SCS215a	20120207.163716	20120207.165238	8	0.013328	60	10	60-180	60	144	GapExp	BigFlash	0	120	2	3	0	distractor	1	401	800	179935	13.328	13.273	13.385
ProbeTrack15	7	ProbeTrack	15.0	SCS215a	20120207.163716	20120207.165244	8	0.013328	60	10	60-180	60	167	GapExp	BigFlash	0	121	2	1	1	target	1	533	734	180669	13.328	13.086	13.552
ProbeTrack15	7	ProbeTrack	15.0	SCS215a	20120207.163716	20120207.165250	8	0.013328	60	10	60-180	60	80	GapExp	BigFlash	0	122	2	1	0	distractor	1	563	719	181388	13.328	12.888	13.759
ProbeTrack15	7	ProbeTrack	15.0	SCS215a	20120207.163716	20120207.165255	8	0.013328	60	10	60-180	60	153	GapExp	BigFlash	0	123	2	3	1	target	1	388	806	182194	13.328	13.097	13.535
ProbeTrack15	7	ProbeTrack	15.0	SCS215a	20120207.163716	20120207.165302	8	0.013328	60	10	60-180	60	152	GapExp	BigFlash	0	124	2	30	0	target	0	522	-1000	181194	13.328	13.107	13.556
ProbeTrack15	7	ProbeTrack	15.0	SCS215a	20120207.163716	20120207.165308	8	0.013328	60	10	60-180	60	141	GapExp	BigFlash	0	125	2	1	1	target	1	360	820	182014	13.328	13.306	13.348
ProbeTrack15	7	ProbeTrack	15.0	SCS215a	20120207.163716	20120207.165314	8	0.013328	60	10	60-180	60	180	GapExp	BigFlash	0	126	2	3	0	target	0	288	-1000	181014	13.328	13.304	13.349
ProbeTrack15	7	ProbeTrack	15.0	SCS215a	20120207.163716	20120207.165321	8	0.013328	60	10	60-180	60	144	GapExp	BigFlash	0	127	2	1	0	target	0	409	-1000	180014	13.328	12.986	13.663
ProbeTrack15	7	ProbeTrack	15.0	SCS215a	20120207.163716	20120207.165327	8	0.013328	60	10	60-180	60	160	GapExp	BigFlash	0	128	2	30	1	target	1	418	791	180805	13.328	12.869	13.787
ProbeTrack15	7	ProbeTrack	15.0	SCS215a	20120207.163716	20120207.165334	8	0.013328	60	10	60-180	60	104	GapExp	BigFlash	0	129	2	3	1	target	1	290	855	181660	13.328	13.261	13.389
ProbeTrack15	7	ProbeTrack	15.0	SCS215a	20120207.163716	20120207.165339	8	0.013328	60	10	60-180	60	112	GapExp	BigFlash	0	130	2	1	0	distractor	1	484	758	182418	13.328	13.298	13.346
ProbeTrack15	7	ProbeTrack	15.0	SCS215a	20120207.163716	20120207.165348	8	0.013328	60	10	60-180	60	145	GapExp	BigFlash	0	131	2	30	0	target	0	285	-1000	181418	13.328	13.309	13.348
ProbeTrack15	7	ProbeTrack	15.0	SCS215a	20120207.163716	20120207.165354	8	0.013328	60	10	60-180	60	155	GapExp	BigFlash	0	132	2	30	1	target	1	317	842	182260	13.328	13.309	13.349
ProbeTrack15	7	ProbeTrack	15.0	SCS215a	20120207.163716	20120207.165401	8	0.013328	60	10	60-180	60	65	GapExp	BigFlash	0	133	2	30	0	distractor	1	460	770	183030	13.328	13.307	13.348
ProbeTrack15	7	ProbeTrack	15.0	SCS215a	20120207.163716	20120207.165407	8	0.013328	60	10	60-180	60	88	GapExp	BigFlash	0	134	2	3	1	target	1	414	793	183823	13.328	13.308	13.347
ProbeTrack15	7	ProbeTrack	15.0	SCS215a	20120207.163716	20120207.165416	8	0.013328	60	10	60-180	60	136	GapExp	BigFlash	0	135	2	0	0	distractor	1	470	765	184588	13.328	13.296	13.360
ProbeTrack15	7	ProbeTrack	15.0	SCS215a	20120207.163716	20120207.165421	8	0.013328	60	10	60-180	60	101	GapExp	BigFlash	0	136	2	30	0	distractor	1	561	720	185308	13.328	13.113	13.543
ProbeTrack15	7	ProbeTrack	15.0	SCS215a	20120207.163716	20120207.165427	8	0.013328	60	10	60-180	60	91	GapExp	BigFlash	0	137	2	0	1	target	1	426	787	186095	13.328	12.888	13.783
ProbeTrack15	7	ProbeTrack	15.0	SCS215a	20120207.163716	20120207.165433	8	0.013328	60	10	60-180	60	102	GapExp	BigFlash	0	138	2	0	1	target	1	386	807	186902	13.328	13.301	13.348
ProbeTrack15	7	ProbeTrack	15.0	SCS215a	20120207.163716	20120207.165439	8	0.013328	60	10	60-180	60	66	GapExp	BigFlash	0	139	2	0	1	target	1	393	804	187706	13.328	13.309	13.348
ProbeTrack15	7	ProbeTrack	15.0	SCS215a	20120207.163716	20120207.165444	8	0.013328	60	10	60-180	60	144	GapExp	BigFlash	0	140	2	30	0	distractor	1	455	773	188479	13.328	12.865	13.788
ProbeTrack15	7	ProbeTrack	15.0	SCS215a	20120207.163716	20120207.165450	8	0.013328	60	10	60-180	60	131	GapExp	BigFlash	0	141	2	30	1	target	1	390	805	189284	13.328	13.308	13.347
ProbeTrack15	7	ProbeTrack	15.0	SCS215a	20120207.163716	20120207.165456	8	0.013328	60	10	60-180	60	138	GapExp	BigFlash	0	142	2	0	0	target	0	331	-1000	188284	13.328	13.104	13.552
ProbeTrack15	7	ProbeTrack	15.0	SCS215a	20120207.163716	20120207.165502	8	0.013328	60	10	60-180	60	103	GapExp	BigFlash	0	143	2	1	1	target	1	384	808	189092	13.328	13.099	13.542
ProbeTrack15	7	ProbeTrack	15.0	SCS215a	20120207.163716	20120207.165508	8	0.013328	60	10	60-180	60	150	GapExp	BigFlash	0	144	2	0	0	distractor	1	409	796	189888	13.328	13.099	13.557
ProbeTrack15	7	ProbeTrack	15.0	SCS215a	20120207.163716	20120207.165514	8	0.013328	60	10	60-180	60	156	GapExp	BigFlash	0	145	2	3	0	early	-4	-3860	-1000	188888	13.328	13.005	13.667
ProbeTrack15	7	ProbeTrack	15.0	SCS215a	20120207.163716	20120207.165520	8	0.013328	60	10	60-180	60	78	GapExp	BigFlash	0	146	2	30	0	distractor	1	405	798	189686	13.328	13.302	13.357
ProbeTrack15	7	ProbeTrack	15.0	SCS215a	20120207.163716	20120207.165526	8	0.013328	60	10	60-180	60	126	GapExp	BigFlash	0	147	2	3	1	target	1	384	808	190494	13.328	13.307	13.346
ProbeTrack15	7	ProbeTrack	15.0	SCS215a	20120207.163716	20120207.165532	8	0.013328	60	10	60-180	60	72	GapExp	BigFlash	0	148	2	0	1	target	1	317	842	191336	13.328	13.093	13.564
ProbeTrack15	7	ProbeTrack	15.0	SCS215a	20120207.163716	20120207.165537	8	0.013328	60	10	60-180	60	142	GapExp	BigFlash	0	149	2	1	0	distractor	1	399	801	192137	13.328	13.100	13.563
ProbeTrack15	7	ProbeTrack	15.0	SCS215a	20120207.163716	20120207.165542	8	0.013328	60	10	60-180	60	171	GapExp	BigFlash	0	150	2	30	0	distractor	1	311	845	192982	13.328	13.105	13.557
ProbeTrack15	7	ProbeTrack	15.0	SCS215a	20120207.163716	20120207.165549	8	0.013328	60	10	60-180	60	83	GapExp	BigFlash	0	151	2	0	0	distractor	1	408	796	193778	13.328	13.289	13.361
ProbeTrack15	7	ProbeTrack	15.0	SCS215a	20120207.163716	20120207.165707	8	0.013328	60	10	60-180	60	100	GapExp	BigFlash	0	152	2	3	0	distractor	1	402	799	194577	13.328	13.306	13.345
ProbeTrack15	7	ProbeTrack	15.0	SCS215a	20120207.163716	20120207.165712	8	0.013328	60	10	60-180	60	79	GapExp	BigFlash	0	153	2	0	1	distractor	0	380	-1000	193577	13.328	12.943	13.704
ProbeTrack15	7	ProbeTrack	15.0	SCS215a	20120207.163716	20120207.165717	8	0.013328	60	10	60-180	60	109	GapExp	BigFlash	0	154	2	30	1	target	1	389	806	194383	13.328	13.093	13.550
ProbeTrack15	7	ProbeTrack	15.0	SCS215a	20120207.163716	20120207.165723	8	0.013328	60	10	60-180	60	74	GapExp	BigFlash	0	155	2	30	1	target	1	374	813	195196	13.328	13.112	13.556
ProbeTrack15	7	ProbeTrack	15.0	SCS215a	20120207.163716	20120207.165729	8	0.013328	60	10	60-180	60	122	GapExp	BigFlash	0	156	2	0	1	target	1	398	801	195997	13.328	12.970	13.684
ProbeTrack15	7	ProbeTrack	15.0	SCS215a	20120207.163716	20120207.165734	8	0.013328	60	10	60-180	60	72	GapExp	BigFlash	0	157	2	30	0	distractor	1	446	777	196774	13.328	13.309	13.346
ProbeTrack15	7	ProbeTrack	15.0	SCS215a	20120207.163716	20120207.165741	8	0.013328	60	10	60-180	60	83	GapExp	BigFlash	0	158	2	1	0	distractor	1	466	767	197541	13.328	13.295	13.347
ProbeTrack15	7	ProbeTrack	15.0	SCS215a	20120207.163716	20120207.165746	8	0.013328	60	10	60-180	60	153	GapExp	BigFlash	0	159	2	3	1	target	1	356	822	198363	13.328	13.309	13.354
ProbeTrack15	7	ProbeTrack	15.0	SCS215a	20120207.163716	20120207.165752	8	0.013328	60	10	60-180	60	135	GapExp	BigFlash	0	160	2	0	1	target	1	486	757	199120	13.328	13.100	13.551
ProbeTrack15	7	ProbeTrack	15.0	SCS215a	20120207.163716	20120207.165758	8	0.013328	60	10	60-180	60	130	GapExp	BigFlash	0	161	2	0	0	target	0	287	-1000	198120	13.328	13.092	13.558
ProbeTrack15	7	ProbeTrack	15.0	SCS215a	20120207.163716	20120207.165803	8	0.013328	60	10	60-180	60	86	GapExp	BigFlash	0	162	2	3	1	target	1	330	835	198955	13.328	13.090	13.560
ProbeTrack15	7	ProbeTrack	15.0	SCS215a	20120207.163716	20120207.165811	8	0.013328	60	10	60-180	60	62	GapExp	BigFlash	0	163	2	1	1	target	1	333	834	199789	13.328	13.057	13.607
ProbeTrack15	7	ProbeTrack	15.0	SCS215a	20120207.163716	20120207.165816	8	0.013328	60	10	60-180	60	157	GapExp	BigFlash	0	164	2	3	0	distractor	1	498	751	200540	13.328	13.302	13.349
ProbeTrack15	7	ProbeTrack	15.0	SCS215a	20120207.163716	20120207.165822	8	0.013328	60	10	60-180	60	160	GapExp	BigFlash	0	165	2	30	1	target	1	460	770	201310	13.328	13.306	13.345
ProbeTrack15	7	ProbeTrack	15.0	SCS215a	20120207.163716	20120207.165829	8	0.013328	60	10	60-180	60	169	GapExp	BigFlash	0	166	2	30	0	target	0	325	-1000	200310	13.328	13.307	13.348
ProbeTrack15	7	ProbeTrack	15.0	SCS215a	20120207.163716	20120207.165836	8	0.013328	60	10	60-180	60	157	GapExp	BigFlash	0	167	2	30	1	target	1	434	783	201093	13.328	13.089	13.556
ProbeTrack15	7	ProbeTrack	15.0	SCS215a	20120207.163716	20120207.165845	8	0.013328	60	10	60-180	60	79	GapExp	BigFlash	0	168	2	3	0	target	0	291	-1000	200093	13.328	12.867	13.784
ProbeTrack15	7	ProbeTrack	15.0	SCS215a	20120207.163716	20120207.165850	8	0.013328	60	10	60-180	60	109	GapExp	BigFlash	0	169	2	0	1	target	1	423	789	200882	13.328	12.849	13.820
ProbeTrack15	7	ProbeTrack	15.0	SCS215a	20120207.163716	20120207.165855	8	0.013328	60	10	60-180	60	123	GapExp	BigFlash	0	170	2	1	1	target	1	340	830	201712	13.328	12.915	13.758
ProbeTrack15	7	ProbeTrack	15.0	SCS215a	20120207.163716	20120207.165901	8	0.013328	60	10	60-180	60	68	GapExp	BigFlash	0	171	2	1	0	distractor	1	442	779	202491	13.328	13.111	13.558
ProbeTrack15	7	ProbeTrack	15.0	SCS215a	20120207.163716	20120207.165906	8	0.013328	60	10	60-180	60	90	GapExp	BigFlash	0	172	2	3	1	target	1	472	764	203255	13.328	13.308	13.343
ProbeTrack15	7	ProbeTrack	15.0	SCS215a	20120207.163716	20120207.165911	8	0.013328	60	10	60-180	60	151	GapExp	BigFlash	0	173	2	3	0	distractor	1	430	785	204040	13.328	13.291	13.351
ProbeTrack15	7	ProbeTrack	15.0	SCS215a	20120207.163716	20120207.165918	8	0.013328	60	10	60-180	60	156	GapExp	BigFlash	0	174	2	3	1	target	1	423	789	204829	13.328	13.089	13.554
ProbeTrack15	7	ProbeTrack	15.0	SCS215a	20120207.163716	20120207.165924	8	0.013328	60	10	60-180	60	110	GapExp	BigFlash	0	175	2	1	0	distractor	1	402	799	205628	13.328	13.170	13.446
ProbeTrack15	7	ProbeTrack	15.0	SCS215a	20120207.163716	20120207.165929	8	0.013328	60	10	60-180	60	177	GapExp	BigFlash	0	176	2	30	1	target	1	664	668	206296	13.328	13.309	13.348
ProbeTrack15	7	ProbeTrack	15.0	SCS215a	20120207.163716	20120207.170027	8	0.013328	60	10	60-180	60	64	GapExp	BigFlash	0	177	2	1	1	target	1	401	800	207096	13.326	12.950	13.346
ProbeTrack15	7	ProbeTrack	15.0	SCS215a	20120207.163716	20120207.170032	8	0.013328	60	10	60-180	60	165	GapExp	BigFlash	0	178	2	30	1	target	1	326	837	207933	13.328	12.900	13.750
ProbeTrack15	7	ProbeTrack	15.0	SCS215a	20120207.163716	20120207.170039	8	0.013328	60	10	60-180	60	63	GapExp	BigFlash	0	179	2	3	0	distractor	1	444	778	208711	13.328	13.112	13.557
ProbeTrack15	7	ProbeTrack	15.0	SCS215a	20120207.163716	20120207.170045	8	0.013328	60	10	60-180	60	83	GapExp	BigFlash	0	180	2	0	0	distractor	1	586	707	209418	13.328	12.863	13.787
ProbeTrack15	7	ProbeTrack	15.0	SCS215a	20120207.163716	20120207.170050	8	0.013328	60	10	60-180	60	158	GapExp	BigFlash	0	181	2	30	0	distractor	1	670	665	210083	13.328	13.103	13.545
ProbeTrack15	7	ProbeTrack	15.0	SCS215a	20120207.163716	20120207.170058	8	0.013328	60	10	60-180	60	89	GapExp	BigFlash	0	182	2	3	0	distractor	1	437	782	210865	13.328	13.069	13.579
ProbeTrack15	7	ProbeTrack	15.0	SCS215a	20120207.163716	20120207.170103	8	0.013328	60	10	60-180	60	144	GapExp	BigFlash	0	183	2	0	1	target	1	320	840	211705	13.328	13.296	13.375
ProbeTrack15	7	ProbeTrack	15.0	SCS215a	20120207.163716	20120207.170109	8	0.013328	60	10	60-180	60	105	GapExp	BigFlash	0	184	2	3	0	distractor	1	508	746	212451	13.328	13.307	13.349
ProbeTrack15	7	ProbeTrack	15.0	SCS215a	20120207.163716	20120207.170114	8	0.013328	60	10	60-180	60	119	GapExp	BigFlash	0	185	2	30	1	target	1	302	849	213300	13.328	12.908	13.734
ProbeTrack15	7	ProbeTrack	15.0	SCS215a	20120207.163716	20120207.170120	8	0.013328	60	10	60-180	60	178	GapExp	BigFlash	0	186	2	3	0	distractor	1	406	797	214097	13.328	13.098	13.552
ProbeTrack15	7	ProbeTrack	15.0	SCS215a	20120207.163716	20120207.170127	8	0.013328	60	10	60-180	60	173	GapExp	BigFlash	0	187	2	3	0	target	0	229	-1000	213097	13.328	13.164	13.526
ProbeTrack15	7	ProbeTrack	15.0	SCS215a	20120207.163716	20120207.170133	8	0.013328	60	10	60-180	60	118	GapExp	BigFlash	0	188	2	0	1	target	1	453	774	213871	13.328	13.099	13.565
ProbeTrack15	7	ProbeTrack	15.0	SCS215a	20120207.163716	20120207.170139	8	0.013328	60	10	60-180	60	131	GapExp	BigFlash	0	189	2	3	1	target	1	369	816	214687	13.328	13.119	13.538
ProbeTrack15	7	ProbeTrack	15.0	SCS215a	20120207.163716	20120207.170144	8	0.013328	60	10	60-180	60	170	GapExp	BigFlash	0	190	2	30	0	distractor	1	429	786	215473	13.328	13.119	13.545
ProbeTrack15	7	ProbeTrack	15.0	SCS215a	20120207.163716	20120207.170151	8	0.013328	60	10	60-180	60	61	GapExp	BigFlash	0	191	2	30	1	target	1	369	816	216289	13.328	13.113	13.549
ProbeTrack15	7	ProbeTrack	15.0	SCS215a	20120207.163716	20120207.170222	8	0.013328	60	10	60-180	60	96	GapExp	BigFlash	0	192	2	1	0	distractor	1	467	767	217056	13.328	13.309	13.351
ProbeTrack15	7	ProbeTrack	15.0	SCS215a	20120207.163716	20120207.170227	8	0.013328	60	10	60-180	60	170	GapExp	BigFlash	0	193	2	1	0	target	0	411	-1000	216056	13.328	13.035	13.631
ProbeTrack15	7	ProbeTrack	15.0	SCS215a	20120207.163716	20120207.170236	8	0.013328	60	10	60-180	60	106	GapExp	BigFlash	0	194	2	3	0	distractor	1	440	780	216836	13.328	13.308	13.353
ProbeTrack15	7	ProbeTrack	15.0	SCS215a	20120207.163716	20120207.170241	8	0.013328	60	10	60-180	60	172	GapExp	BigFlash	0	195	2	30	1	target	1	435	783	217619	13.328	12.859	13.669
ProbeTrack15	7	ProbeTrack	15.0	SCS215a	20120207.163716	20120207.170248	8	0.013328	60	10	60-180	60	86	GapExp	BigFlash	0	196	2	3	0	distractor	1	434	783	218402	13.328	12.949	13.722
ProbeTrack15	7	ProbeTrack	15.0	SCS215a	20120207.163716	20120207.170254	8	0.013328	60	10	60-180	60	80	GapExp	BigFlash	0	197	2	30	0	distractor	1	540	730	219132	13.328	12.918	13.731
ProbeTrack15	7	ProbeTrack	15.0	SCS215a	20120207.163716	20120207.170259	8	0.013328	60	10	60-180	60	109	GapExp	BigFlash	0	198	2	3	1	target	1	370	815	219947	13.328	13.100	13.564
ProbeTrack15	7	ProbeTrack	15.0	SCS215a	20120207.163716	20120207.170305	8	0.013328	60	10	60-180	60	108	GapExp	BigFlash	0	199	2	30	0	distractor	1	531	735	220682	13.328	12.971	13.693
ProbeTrack15	7	ProbeTrack	15.0	SCS215a	20120207.163716	20120207.170311	8	0.013328	60	10	60-180	60	82	GapExp	BigFlash	0	200	2	3	1	target	1	358	821	221503	13.328	12.874	13.774
ProbeTrack15	7	ProbeTrack	15.0	SCS215a	20120207.170401	20120207.170409	8	0.013327	60	10	60-180	60	128	GapPrac	SmallFlash	1	1	2	30	0	distractor	1	501	750	222253	13.375	13.302	13.368
ProbeTrack15	7	ProbeTrack	15.0	SCS215a	20120207.170401	20120207.170418	8	0.013327	60	10	60-180	60	72	GapPrac	SmallFlash	1	2	2	1	0	distractor	1	500	750	223003	13.328	13.257	13.389
ProbeTrack15	7	ProbeTrack	15.0	SCS215a	20120207.170401	20120207.170424	8	0.013327	60	10	60-180	60	119	GapPrac	SmallFlash	1	3	2	0	0	distractor	1	466	767	223770	13.328	13.106	13.558
ProbeTrack15	7	ProbeTrack	15.0	SCS215a	20120207.170401	20120207.170429	8	0.013327	60	10	60-180	60	103	GapPrac	SmallFlash	1	4	2	0	1	target	1	573	714	224484	13.328	13.094	13.564
ProbeTrack15	7	ProbeTrack	15.0	SCS215a	20120207.170401	20120207.170435	8	0.013327	60	10	60-180	60	157	GapPrac	SmallFlash	1	5	2	30	0	target	0	366	-1000	223484	13.328	12.252	14.407
ProbeTrack15	7	ProbeTrack	15.0	SCS215a	20120207.170401	20120207.170441	8	0.013327	60	10	60-180	60	114	GapPrac	SmallFlash	1	6	2	1	1	target	1	347	827	224311	13.328	10.857	15.793
ProbeTrack15	7	ProbeTrack	15.0	SCS215a	20120207.170401	20120207.170447	8	0.013327	60	10	60-180	60	95	GapPrac	SmallFlash	1	7	2	30	1	target	1	324	838	225149	13.328	13.307	13.348
ProbeTrack15	7	ProbeTrack	15.0	SCS215a	20120207.170401	20120207.170453	8	0.013327	60	10	60-180	60	173	GapPrac	SmallFlash	1	8	2	3	0	distractor	1	399	801	225950	13.328	13.309	13.345
ProbeTrack15	7	ProbeTrack	15.0	SCS215a	20120207.170401	20120207.170459	8	0.013327	60	10	60-180	60	145	GapPrac	SmallFlash	1	9	2	3	1	target	1	314	843	226793	13.328	13.307	13.346
ProbeTrack15	7	ProbeTrack	15.0	SCS215a	20120207.170401	20120207.170505	8	0.013327	60	10	60-180	60	132	GapPrac	SmallFlash	1	10	2	1	0	distractor	1	402	799	227592	13.328	13.092	13.565
ProbeTrack15	7	ProbeTrack	15.0	SCS215a	20120207.170401	20120207.170511	8	0.013327	60	10	60-180	60	122	GapPrac	SmallFlash	1	11	2	0	0	target	0	191	-1000	226592	13.328	8.332	18.316
ProbeTrack15	7	ProbeTrack	15.0	SCS215a	20120207.170401	20120207.170517	8	0.013327	60	10	60-180	60	92	GapPrac	SmallFlash	1	12	2	30	0	distractor	1	445	778	227370	13.328	13.112	13.540
ProbeTrack15	7	ProbeTrack	15.0	SCS215a	20120207.170401	20120207.170523	8	0.013327	60	10	60-180	60	153	GapPrac	SmallFlash	1	13	2	1	1	target	1	378	811	228181	13.328	13.307	13.346
ProbeTrack15	7	ProbeTrack	15.0	SCS215a	20120207.170401	20120207.170529	8	0.013327	60	10	60-180	60	178	GapPrac	SmallFlash	1	14	2	0	0	distractor	1	375	813	228994	13.328	11.959	14.677
ProbeTrack15	7	ProbeTrack	15.0	SCS215a	20120207.170401	20120207.170536	8	0.013327	60	10	60-180	60	68	GapPrac	SmallFlash	1	15	2	3	1	target	1	363	819	229813	13.328	13.307	13.344
ProbeTrack15	7	ProbeTrack	15.0	SCS215a	20120207.170401	20120207.170541	8	0.013327	60	10	60-180	60	104	GapPrac	SmallFlash	1	16	2	0	1	target	1	366	817	230630	13.328	12.820	13.839
ProbeTrack15	7	ProbeTrack	15.0	SCS215a	20120207.170401	20120207.170547	8	0.013327	60	10	60-180	60	119	GapPrac	SmallFlash	1	17	2	0	1	target	1	264	868	231498	13.328	13.099	13.567
ProbeTrack15	7	ProbeTrack	15.0	SCS215a	20120207.170401	20120207.170552	8	0.013327	60	10	60-180	60	173	GapPrac	SmallFlash	1	18	2	3	0	distractor	1	410	795	232293	13.328	13.297	13.347
ProbeTrack15	7	ProbeTrack	15.0	SCS215a	20120207.170401	20120207.170559	8	0.013327	60	10	60-180	60	70	GapPrac	SmallFlash	1	19	2	30	1	target	1	307	847	233140	13.328	13.309	13.343
ProbeTrack15	7	ProbeTrack	15.0	SCS215a	20120207.170401	20120207.170604	8	0.013327	60	10	60-180	60	74	GapPrac	SmallFlash	1	20	2	1	0	distractor	1	368	816	233956	13.328	13.306	13.348
ProbeTrack15	7	ProbeTrack	15.0	SCS215a	20120207.170629	20120207.170818	8	0.013328	60	10	60-180	60	79	GapExp	SmallFlash	1	1	2	1	1	target	1	451	775	234731	13.394	13.112	13.549
ProbeTrack15	7	ProbeTrack	15.0	SCS215a	20120207.170629	20120207.170827	8	0.013328	60	10	60-180	60	79	GapExp	SmallFlash	1	2	2	1	0	distractor	1	366	817	235548	13.328	13.299	13.370
ProbeTrack15	7	ProbeTrack	15.0	SCS215a	20120207.170629	20120207.170846	8	0.013328	60	10	60-180	60	80	GapExp	SmallFlash	1	3	2	30	0	distractor	1	436	782	236330	13.328	13.093	13.564
ProbeTrack15	7	ProbeTrack	15.0	SCS215a	20120207.170629	20120207.170853	8	0.013328	60	10	60-180	60	152	GapExp	SmallFlash	1	4	2	3	0	target	0	215	-1000	235330	13.328	13.308	13.346
ProbeTrack15	7	ProbeTrack	15.0	SCS215a	20120207.170629	20120207.170859	8	0.013328	60	10	60-180	60	165	GapExp	SmallFlash	1	5	2	0	0	target	0	264	-1000	234330	13.328	13.283	13.391
ProbeTrack15	7	ProbeTrack	15.0	SCS215a	20120207.170629	20120207.170905	8	0.013328	60	10	60-180	60	66	GapExp	SmallFlash	1	6	2	30	1	target	1	239	881	235211	13.328	13.305	13.351
ProbeTrack15	7	ProbeTrack	15.0	SCS215a	20120207.170629	20120207.170910	8	0.013328	60	10	60-180	60	121	GapExp	SmallFlash	1	7	2	3	1	target	1	40	980	236191	13.328	13.104	13.567
ProbeTrack15	7	ProbeTrack	15.0	SCS215a	20120207.170629	20120207.170915	8	0.013328	60	10	60-180	60	105	GapExp	SmallFlash	1	8	2	0	1	target	1	239	881	237072	13.328	13.310	13.350
ProbeTrack15	7	ProbeTrack	15.0	SCS215a	20120207.170629	20120207.170921	8	0.013328	60	10	60-180	60	177	GapExp	SmallFlash	0	9	2	30	0	target	0	18668024	-1000	236072	13.328	12.997	13.660
ProbeTrack15	7	ProbeTrack	15.0	SCS215a	20120207.170629	20120207.170927	8	0.013328	60	10	60-180	60	149	GapExp	SmallFlash	0	10	2	0	1	target	1	260	870	236942	13.328	13.306	13.347
ProbeTrack15	7	ProbeTrack	15.0	SCS215a	20120207.170629	20120207.170933	8	0.013328	60	10	60-180	60	132	GapExp	SmallFlash	0	11	2	1	1	target	1	333	834	237776	13.328	12.891	13.760
ProbeTrack15	7	ProbeTrack	15.0	SCS215a	20120207.170629	20120207.170939	8	0.013328	60	10	60-180	60	178	GapExp	SmallFlash	0	12	2	0	0	target	0	264	-1000	236776	13.328	12.944	13.733
ProbeTrack15	7	ProbeTrack	15.0	SCS215a	20120207.170629	20120207.170945	8	0.013328	60	10	60-180	60	106	GapExp	SmallFlash	0	13	2	30	0	target	0	101	-1000	235776	13.328	13.089	13.559
ProbeTrack15	7	ProbeTrack	15.0	SCS215a	20120207.170629	20120207.170951	8	0.013328	60	10	60-180	60	133	GapExp	SmallFlash	0	14	2	0	0	target	0	370	-1000	234776	13.328	13.101	13.550
ProbeTrack15	7	ProbeTrack	15.0	SCS215a	20120207.170629	20120207.170957	8	0.013328	60	10	60-180	60	95	GapExp	SmallFlash	0	15	2	3	0	target	0	278	-1000	233776	13.328	12.874	13.767
ProbeTrack15	7	ProbeTrack	15.0	SCS215a	20120207.170629	20120207.171002	8	0.013328	60	10	60-180	60	144	GapExp	SmallFlash	0	16	2	0	0	target	0	265	-1000	232776	13.328	12.909	13.756
ProbeTrack15	7	ProbeTrack	15.0	SCS215a	20120207.170629	20120207.171008	8	0.013328	60	10	60-180	60	67	GapExp	SmallFlash	0	17	2	3	0	distractor	1	370	815	233591	13.328	12.963	13.704
ProbeTrack15	7	ProbeTrack	15.0	SCS215a	20120207.170629	20120207.171013	8	0.013328	60	10	60-180	60	166	GapExp	SmallFlash	0	18	2	30	0	target	0	221	-1000	232591	13.328	13.302	13.353
ProbeTrack15	7	ProbeTrack	15.0	SCS215a	20120207.170629	20120207.171023	8	0.013328	60	10	60-180	60	137	GapExp	SmallFlash	0	19	2	3	1	target	1	324	838	233429	13.328	12.931	13.726
ProbeTrack15	7	ProbeTrack	15.0	SCS215a	20120207.170629	20120207.171028	8	0.013328	60	10	60-180	60	137	GapExp	SmallFlash	0	20	2	30	1	target	1	290	855	234284	13.328	13.263	13.396
ProbeTrack15	7	ProbeTrack	15.0	SCS215a	20120207.170629	20120207.171035	8	0.013328	60	10	60-180	60	171	GapExp	SmallFlash	0	21	2	0	1	target	1	251	875	235159	13.328	13.311	13.345
ProbeTrack15	7	ProbeTrack	15.0	SCS215a	20120207.170629	20120207.171042	8	0.013328	60	10	60-180	60	67	GapExp	SmallFlash	0	22	2	3	0	target	0	346	-1000	234159	13.328	13.296	13.348
ProbeTrack15	7	ProbeTrack	15.0	SCS215a	20120207.170629	20120207.171047	8	0.013328	60	10	60-180	60	131	GapExp	SmallFlash	0	23	2	0	0	target	0	363	-1000	233159	13.328	12.886	13.765
ProbeTrack15	7	ProbeTrack	15.0	SCS215a	20120207.170629	20120207.171054	8	0.013328	60	10	60-180	60	146	GapExp	SmallFlash	0	24	2	30	1	early	-4	-4235	-1000	232159	13.328	12.922	13.729
ProbeTrack15	7	ProbeTrack	15.0	SCS215a	20120207.170629	20120207.171101	8	0.013328	60	10	60-180	60	120	GapExp	SmallFlash	0	25	2	1	1	distractor	0	369	-1000	231159	13.328	13.187	13.465
ProbeTrack15	7	ProbeTrack	15.0	SCS215a	20120207.170629	20120207.171131	8	0.013328	60	10	60-180	60	89	GapExp	SmallFlash	0	26	2	3	0	distractor	1	561	720	231879	13.328	13.148	13.555
ProbeTrack15	7	ProbeTrack	15.0	SCS215a	20120207.170629	20120207.171136	8	0.013328	60	10	60-180	60	84	GapExp	SmallFlash	0	27	2	3	1	target	1	438	781	232660	13.328	13.094	13.559
ProbeTrack15	7	ProbeTrack	15.0	SCS215a	20120207.170629	20120207.171142	8	0.013328	60	10	60-180	60	96	GapExp	SmallFlash	0	28	2	0	1	target	1	360	820	233480	13.328	13.302	13.357
ProbeTrack15	7	ProbeTrack	15.0	SCS215a	20120207.170629	20120207.171147	8	0.013328	60	10	60-180	60	157	GapExp	SmallFlash	0	29	2	1	0	distractor	1	415	793	234273	13.328	12.994	13.732
ProbeTrack15	7	ProbeTrack	15.0	SCS215a	20120207.170629	20120207.171154	8	0.013328	60	10	60-180	60	140	GapExp	SmallFlash	0	30	2	1	1	target	1	370	815	235088	13.328	13.300	13.348
ProbeTrack15	7	ProbeTrack	15.0	SCS215a	20120207.170629	20120207.171200	8	0.013328	60	10	60-180	60	111	GapExp	SmallFlash	0	31	2	0	0	target	0	191	-1000	234088	13.328	12.869	13.802
ProbeTrack15	7	ProbeTrack	15.0	SCS215a	20120207.170629	20120207.171206	8	0.013328	60	10	60-180	60	114	GapExp	SmallFlash	0	32	2	1	0	distractor	1	367	817	234905	13.328	13.014	13.662
ProbeTrack15	7	ProbeTrack	15.0	SCS215a	20120207.170629	20120207.171211	8	0.013328	60	10	60-180	60	166	GapExp	SmallFlash	0	33	2	0	1	target	1	198	901	235806	13.328	13.099	13.558
ProbeTrack15	7	ProbeTrack	15.0	SCS215a	20120207.170629	20120207.171217	8	0.013328	60	10	60-180	60	126	GapExp	SmallFlash	0	34	2	3	0	target	0	173	-1000	234806	13.328	13.098	13.559
ProbeTrack15	7	ProbeTrack	15.0	SCS215a	20120207.170629	20120207.171223	8	0.013328	60	10	60-180	60	179	GapExp	SmallFlash	0	35	2	30	0	early	-4	-354	-1000	233806	13.328	12.848	13.809
ProbeTrack15	7	ProbeTrack	15.0	SCS215a	20120207.170629	20120207.171230	8	0.013328	60	10	60-180	60	136	GapExp	SmallFlash	0	36	2	30	0	target	0	23	-1000	232806	13.328	13.276	13.385
ProbeTrack15	7	ProbeTrack	15.0	SCS215a	20120207.170629	20120207.171237	8	0.013328	60	10	60-180	60	166	GapExp	SmallFlash	0	37	2	3	1	target	1	193	904	233710	13.328	13.104	13.561
ProbeTrack15	7	ProbeTrack	15.0	SCS215a	20120207.170629	20120207.171243	8	0.013328	60	10	60-180	60	85	GapExp	SmallFlash	0	38	2	3	0	target	0	228	-1000	232710	13.328	12.840	13.810
ProbeTrack15	7	ProbeTrack	15.0	SCS215a	20120207.170629	20120207.171248	8	0.013328	60	10	60-180	60	62	GapExp	SmallFlash	0	39	2	3	1	target	1	234	883	233593	13.328	13.099	13.572
ProbeTrack15	7	ProbeTrack	15.0	SCS215a	20120207.170629	20120207.171253	8	0.013328	60	10	60-180	60	148	GapExp	SmallFlash	0	40	2	30	0	target	0	18879699	-1000	232593	13.328	13.008	13.663
ProbeTrack15	7	ProbeTrack	15.0	SCS215a	20120207.170629	20120207.171259	8	0.013328	60	10	60-180	60	76	GapExp	SmallFlash	0	41	2	0	1	distractor	0	300	-1000	231593	13.328	12.865	13.789
ProbeTrack15	7	ProbeTrack	15.0	SCS215a	20120207.170629	20120207.171304	8	0.013328	60	10	60-180	60	105	GapExp	SmallFlash	0	42	2	1	0	early	-4	-2136	-1000	230593	13.328	12.851	13.746
ProbeTrack15	7	ProbeTrack	15.0	SCS215a	20120207.170629	20120207.171310	8	0.013328	60	10	60-180	60	113	GapExp	SmallFlash	0	43	2	0	0	distractor	1	413	794	231387	13.328	12.885	13.782
ProbeTrack15	7	ProbeTrack	15.0	SCS215a	20120207.170629	20120207.171315	8	0.013328	60	10	60-180	60	66	GapExp	SmallFlash	0	44	2	30	1	target	1	252	874	232261	13.328	12.925	13.731
ProbeTrack15	7	ProbeTrack	15.0	SCS215a	20120207.170629	20120207.171320	8	0.013328	60	10	60-180	60	88	GapExp	SmallFlash	0	45	2	0	1	target	1	251	875	233136	13.328	13.301	13.354
ProbeTrack15	7	ProbeTrack	15.0	SCS215a	20120207.170629	20120207.171325	8	0.013328	60	10	60-180	60	132	GapExp	SmallFlash	0	46	2	30	0	target	0	18924331	-1000	232136	13.328	12.855	13.780
ProbeTrack15	7	ProbeTrack	15.0	SCS215a	20120207.170629	20120207.171344	8	0.013328	60	10	60-180	60	175	GapExp	SmallFlash	0	47	2	1	1	target	1	256	872	233008	13.328	13.002	13.678
ProbeTrack15	7	ProbeTrack	15.0	SCS215a	20120207.170629	20120207.171350	8	0.013328	60	10	60-180	60	80	GapExp	SmallFlash	0	48	2	30	0	target	0	291	-1000	232008	13.328	13.100	13.723
ProbeTrack15	7	ProbeTrack	15.0	SCS215a	20120207.170629	20120207.171355	8	0.013328	60	10	60-180	60	180	GapExp	SmallFlash	0	49	2	30	1	distractor	0	319	-1000	231008	13.328	12.967	13.778
ProbeTrack15	7	ProbeTrack	15.0	SCS215a	20120207.170629	20120207.171402	8	0.013328	60	10	60-180	60	134	GapExp	SmallFlash	0	50	2	3	1	target	1	354	823	231831	13.328	13.098	13.544
ProbeTrack15	7	ProbeTrack	15.0	SCS215a	20120207.170629	20120207.171408	8	0.013328	60	10	60-180	60	103	GapExp	SmallFlash	0	51	2	3	0	distractor	1	471	765	232596	13.328	13.301	13.349
ProbeTrack15	7	ProbeTrack	15.0	SCS215a	20120207.170629	20120207.171543	8	0.013328	60	10	60-180	60	87	GapExp	SmallFlash	0	52	2	1	1	target	1	384	808	233404	13.328	12.923	13.725
ProbeTrack15	7	ProbeTrack	15.0	SCS215a	20120207.170629	20120207.171548	8	0.013328	60	10	60-180	60	141	GapExp	SmallFlash	0	53	2	3	1	target	1	278	861	234265	13.328	12.890	13.774
ProbeTrack15	7	ProbeTrack	15.0	SCS215a	20120207.170629	20120207.171554	8	0.013328	60	10	60-180	60	146	GapExp	SmallFlash	0	54	2	3	0	distractor	1	373	814	235079	13.328	12.871	13.780
ProbeTrack15	7	ProbeTrack	15.0	SCS215a	20120207.170629	20120207.171601	8	0.013328	60	10	60-180	60	63	GapExp	SmallFlash	0	55	2	1	1	target	1	376	812	235891	13.328	13.089	13.559
ProbeTrack15	7	ProbeTrack	15.0	SCS215a	20120207.170629	20120207.171606	8	0.013328	60	10	60-180	60	76	GapExp	SmallFlash	0	56	2	0	0	distractor	1	424	788	236679	13.328	12.868	13.794
ProbeTrack15	7	ProbeTrack	15.0	SCS215a	20120207.170629	20120207.171611	8	0.013328	60	10	60-180	60	99	GapExp	SmallFlash	0	57	2	1	1	target	1	401	800	237479	13.328	13.306	13.345
ProbeTrack15	7	ProbeTrack	15.0	SCS215a	20120207.170629	20120207.171617	8	0.013328	60	10	60-180	60	175	GapExp	SmallFlash	0	58	2	30	0	distractor	1	456	772	238251	13.328	13.105	13.545
ProbeTrack15	7	ProbeTrack	15.0	SCS215a	20120207.170629	20120207.171624	8	0.013328	60	10	60-180	60	112	GapExp	SmallFlash	0	59	2	30	1	target	1	340	830	239081	13.328	12.946	13.710
ProbeTrack15	7	ProbeTrack	15.0	SCS215a	20120207.170629	20120207.171630	8	0.013328	60	10	60-180	60	164	GapExp	SmallFlash	0	60	2	30	1	target	1	284	858	239939	13.328	13.297	13.353
ProbeTrack15	7	ProbeTrack	15.0	SCS215a	20120207.170629	20120207.171636	8	0.013328	60	10	60-180	60	140	GapExp	SmallFlash	0	61	2	1	1	target	1	331	835	240774	13.328	13.099	13.551
ProbeTrack15	7	ProbeTrack	15.0	SCS215a	20120207.170629	20120207.171642	8	0.013328	60	10	60-180	60	177	GapExp	SmallFlash	0	62	2	30	1	target	1	284	858	241632	13.328	12.973	13.814
ProbeTrack15	7	ProbeTrack	15.0	SCS215a	20120207.170629	20120207.171649	8	0.013328	60	10	60-180	60	156	GapExp	SmallFlash	0	63	2	3	0	distractor	1	530	735	242367	13.328	13.308	13.344
ProbeTrack15	7	ProbeTrack	15.0	SCS215a	20120207.170629	20120207.171700	8	0.013328	60	10	60-180	60	124	GapExp	SmallFlash	0	64	2	0	1	target	1	274	863	243230	13.328	12.890	13.765
ProbeTrack15	7	ProbeTrack	15.0	SCS215a	20120207.170629	20120207.171706	8	0.013328	60	10	60-180	60	180	GapExp	SmallFlash	0	65	2	3	1	target	1	256	872	244102	13.328	13.307	13.347
ProbeTrack15	7	ProbeTrack	15.0	SCS215a	20120207.170629	20120207.171714	8	0.013328	60	10	60-180	60	106	GapExp	SmallFlash	0	66	2	0	0	target	0	159	-1000	243102	13.328	13.099	13.546
ProbeTrack15	7	ProbeTrack	15.0	SCS215a	20120207.170629	20120207.171720	8	0.013328	60	10	60-180	60	82	GapExp	SmallFlash	0	67	2	0	0	target	0	435	-1000	242102	13.328	13.101	13.556
ProbeTrack15	7	ProbeTrack	15.0	SCS215a	20120207.170629	20120207.171725	8	0.013328	60	10	60-180	60	155	GapExp	SmallFlash	0	68	2	0	0	target	0	295	-1000	241102	13.328	13.084	13.561
ProbeTrack15	7	ProbeTrack	15.0	SCS215a	20120207.170629	20120207.171731	8	0.013328	60	10	60-180	60	146	GapExp	SmallFlash	0	69	2	3	1	target	1	245	878	241980	13.328	12.931	13.740
ProbeTrack15	7	ProbeTrack	15.0	SCS215a	20120207.170629	20120207.171736	8	0.013328	60	10	60-180	60	68	GapExp	SmallFlash	0	70	2	0	0	target	0	293	-1000	240980	13.328	13.307	13.349
ProbeTrack15	7	ProbeTrack	15.0	SCS215a	20120207.170629	20120207.171741	8	0.013328	60	10	60-180	60	98	GapExp	SmallFlash	0	71	2	30	1	early	-4	-244	-1000	239980	13.328	13.100	13.549
