exp	sub	code	rev	comp	runtime	trialtime	nstim	refreshdur	cuedur	gapdur	gapOnsetRange	durPostProbe	gapOnsetTime	blocktype	gaptype	prac	trial	ntargets	soa	probeTarget	resp	acc	rt	pts	tpts	meanFrameDur	minFrameDur	maxFrameDur
ProbeTrack15	9	ProbeTrack	15.0	SCS215a	20120209.120828	20120209.120834	8	0.013328	60	0	60-180	60	126	NoGap	None	1	1	2	30	1	target	1	4695	0	0	13.374	13.303	13.352
ProbeTrack15	9	ProbeTrack	15.0	SCS215a	20120209.120828	20120209.121028	8	0.013328	60	0	60-180	60	116	NoGap	None	1	2	2	3	0	distractor	1	799	601	601	13.328	13.084	13.559
ProbeTrack15	9	ProbeTrack	15.0	SCS215a	20120209.120828	20120209.121048	8	0.013328	60	0	60-180	60	87	NoGap	None	1	3	2	1	0	target	0	1017	-1000	-399	13.328	13.113	13.541
ProbeTrack15	9	ProbeTrack	15.0	SCS215a	20120209.120828	20120209.121101	8	0.013328	60	0	60-180	60	103	NoGap	None	1	4	2	0	1	distractor	0	794	-1000	-1399	13.328	13.307	13.347
ProbeTrack15	9	ProbeTrack	15.0	SCS215a	20120209.120828	20120209.121107	8	0.013328	60	0	60-180	60	118	NoGap	None	1	5	2	30	1	target	1	834	583	-816	13.328	2.733	23.894
ProbeTrack15	9	ProbeTrack	15.0	SCS215a	20120209.120828	20120209.121114	8	0.013328	60	0	60-180	60	111	NoGap	None	1	6	2	1	0	distractor	1	497	752	-64	13.328	13.112	13.559
ProbeTrack15	9	ProbeTrack	15.0	SCS215a	20120209.120828	20120209.121121	8	0.013328	60	0	60-180	60	168	NoGap	None	1	7	2	0	0	distractor	1	542	729	665	13.328	10.700	15.934
ProbeTrack15	9	ProbeTrack	15.0	SCS215a	20120209.120828	20120209.121128	8	0.013328	60	0	60-180	60	164	NoGap	None	1	8	2	30	0	distractor	1	488	756	1421	13.328	10.091	16.560
ProbeTrack15	9	ProbeTrack	15.0	SCS215a	20120209.120828	20120209.121135	8	0.013328	60	0	60-180	60	134	NoGap	None	1	9	2	1	0	distractor	1	442	779	2200	13.328	13.309	13.349
ProbeTrack15	9	ProbeTrack	15.0	SCS215a	20120209.120828	20120209.121141	8	0.013328	60	0	60-180	60	107	NoGap	None	1	10	2	0	1	target	1	553	724	2924	13.328	13.307	13.349
ProbeTrack15	9	ProbeTrack	15.0	SCS215a	20120209.120828	20120209.121147	8	0.013328	60	0	60-180	60	70	NoGap	None	1	11	2	3	0	distractor	1	409	796	3720	13.328	8.064	18.657
ProbeTrack15	9	ProbeTrack	15.0	SCS215a	20120209.120828	20120209.121152	8	0.013328	60	0	60-180	60	95	NoGap	None	1	12	2	0	0	distractor	1	472	764	4484	13.328	13.093	13.556
ProbeTrack15	9	ProbeTrack	15.0	SCS215a	20120209.120828	20120209.121158	8	0.013328	60	0	60-180	60	64	NoGap	None	1	13	2	30	0	distractor	1	405	798	5282	13.328	13.096	13.551
ProbeTrack15	9	ProbeTrack	15.0	SCS215a	20120209.120828	20120209.121204	8	0.013328	60	0	60-180	60	123	NoGap	None	1	14	2	3	0	distractor	1	472	764	6046	13.328	13.312	13.346
ProbeTrack15	9	ProbeTrack	15.0	SCS215a	20120209.120828	20120209.121210	8	0.013328	60	0	60-180	60	151	NoGap	None	1	15	2	30	0	distractor	1	418	791	6837	13.328	12.952	13.684
ProbeTrack15	9	ProbeTrack	15.0	SCS215a	20120209.120828	20120209.121217	8	0.013328	60	0	60-180	60	136	NoGap	None	1	16	2	0	0	distractor	1	412	794	7631	13.383	4.021	22.623
ProbeTrack15	9	ProbeTrack	15.0	SCS215a	20120209.120828	20120209.121223	8	0.013328	60	0	60-180	60	170	NoGap	None	1	17	2	3	1	target	1	370	815	8446	13.328	13.079	13.578
ProbeTrack15	9	ProbeTrack	15.0	SCS215a	20120209.120828	20120209.121229	8	0.013328	60	0	60-180	60	152	NoGap	None	1	18	2	1	1	target	1	339	831	9277	13.328	12.372	14.504
ProbeTrack15	9	ProbeTrack	15.0	SCS215a	20120209.120828	20120209.121236	8	0.013328	60	0	60-180	60	158	NoGap	None	1	19	2	1	0	distractor	1	396	802	10079	13.328	10.822	15.835
ProbeTrack15	9	ProbeTrack	15.0	SCS215a	20120209.120828	20120209.121243	8	0.013328	60	0	60-180	60	128	NoGap	None	1	20	2	1	1	target	1	609	696	10775	13.328	13.192	13.556
ProbeTrack15	9	ProbeTrack	15.0	SCS215a	20120209.120828	20120209.121249	8	0.013328	60	0	60-180	60	132	NoGap	None	1	21	2	3	1	target	1	402	799	11574	13.328	13.079	13.566
ProbeTrack15	9	ProbeTrack	15.0	SCS215a	20120209.120828	20120209.121254	8	0.013328	60	0	60-180	60	171	NoGap	None	1	22	2	30	1	target	1	375	813	12387	13.328	5.795	20.899
ProbeTrack15	9	ProbeTrack	15.0	SCS215a	20120209.120828	20120209.121301	8	0.013328	60	0	60-180	60	158	NoGap	None	1	23	2	3	1	target	1	436	782	13169	13.328	10.292	16.376
ProbeTrack15	9	ProbeTrack	15.0	SCS215a	20120209.120828	20120209.121308	8	0.013328	60	0	60-180	60	175	NoGap	None	1	24	2	1	0	distractor	1	330	835	14004	13.328	7.221	19.513
ProbeTrack15	9	ProbeTrack	15.0	SCS215a	20120209.120828	20120209.121316	8	0.013328	60	0	60-180	60	101	NoGap	None	1	25	2	30	0	distractor	1	393	804	14808	13.328	10.616	16.146
ProbeTrack15	9	ProbeTrack	15.0	SCS215a	20120209.120828	20120209.121323	8	0.013328	60	0	60-180	60	69	NoGap	None	1	26	2	1	1	target	1	591	705	15513	13.328	13.110	13.546
ProbeTrack15	9	ProbeTrack	15.0	SCS215a	20120209.120828	20120209.121328	8	0.013328	60	0	60-180	60	77	NoGap	None	1	27	2	30	0	distractor	1	452	774	16287	13.328	13.044	13.615
ProbeTrack15	9	ProbeTrack	15.0	SCS215a	20120209.120828	20120209.121333	8	0.013328	60	0	60-180	60	108	NoGap	None	1	28	2	0	0	distractor	1	418	791	17078	13.328	13.184	13.462
ProbeTrack15	9	ProbeTrack	15.0	SCS215a	20120209.120828	20120209.121339	8	0.013328	60	0	60-180	60	84	NoGap	None	1	29	2	0	1	target	1	470	765	17843	13.328	13.213	13.446
ProbeTrack15	9	ProbeTrack	15.0	SCS215a	20120209.120828	20120209.121344	8	0.013328	60	0	60-180	60	65	NoGap	None	1	30	2	30	1	target	1	423	789	18632	13.328	13.108	13.543
ProbeTrack15	9	ProbeTrack	15.0	SCS215a	20120209.120828	20120209.121350	8	0.013328	60	0	60-180	60	62	NoGap	None	1	31	2	3	1	target	1	401	800	19432	13.328	13.206	13.409
ProbeTrack15	9	ProbeTrack	15.0	SCS215a	20120209.120828	20120209.121355	8	0.013328	60	0	60-180	60	74	NoGap	None	1	32	2	0	0	distractor	1	355	823	20255	13.328	13.240	13.421
ProbeTrack15	9	ProbeTrack	15.0	SCS215a	20120209.120828	20120209.121400	8	0.013328	60	0	60-180	60	64	NoGap	None	1	33	2	3	1	target	1	473	764	21019	13.328	13.296	13.364
ProbeTrack15	9	ProbeTrack	15.0	SCS215a	20120209.120828	20120209.121405	8	0.013328	60	0	60-180	60	66	NoGap	None	1	34	2	1	1	target	1	296	852	21871	13.328	13.107	13.548
ProbeTrack15	9	ProbeTrack	15.0	SCS215a	20120209.120828	20120209.121410	8	0.013328	60	0	60-180	60	113	NoGap	None	1	35	2	30	1	target	1	344	828	22699	13.328	7.761	19.070
ProbeTrack15	9	ProbeTrack	15.0	SCS215a	20120209.120828	20120209.121416	8	0.013328	60	0	60-180	60	169	NoGap	None	1	36	2	3	0	distractor	1	301	850	23549	13.328	13.147	13.513
ProbeTrack15	9	ProbeTrack	15.0	SCS215a	20120209.120828	20120209.121422	8	0.013328	60	0	60-180	60	62	NoGap	None	1	37	2	0	1	target	1	368	816	24365	13.328	13.275	13.379
ProbeTrack15	9	ProbeTrack	15.0	SCS215a	20120209.120828	20120209.121427	8	0.013328	60	0	60-180	60	78	NoGap	None	1	38	2	1	1	target	1	367	817	25182	13.328	13.268	13.372
ProbeTrack15	9	ProbeTrack	15.0	SCS215a	20120209.120828	20120209.121432	8	0.013328	60	0	60-180	60	174	NoGap	None	1	39	2	3	0	distractor	1	346	827	26009	13.328	12.083	14.607
ProbeTrack15	9	ProbeTrack	15.0	SCS215a	20120209.120828	20120209.121438	8	0.013328	60	0	60-180	60	92	NoGap	None	1	40	2	0	1	target	1	326	837	26846	13.328	13.105	13.558
ProbeTrack15	9	ProbeTrack	15.0	SCS215a	20120209.121728	20120209.121746	8	0.013327	60	10	60-180	60	165	GapPrac	SmallFlash	1	1	2	1	0	distractor	1	578	711	27557	13.373	13.106	13.539
ProbeTrack15	9	ProbeTrack	15.0	SCS215a	20120209.121728	20120209.121756	8	0.013327	60	10	60-180	60	67	GapPrac	SmallFlash	1	2	2	30	1	target	1	587	707	28264	13.328	6.162	20.500
ProbeTrack15	9	ProbeTrack	15.0	SCS215a	20120209.121728	20120209.121807	8	0.013327	60	10	60-180	60	143	GapPrac	SmallFlash	1	3	2	1	1	distractor	0	250	-1000	27264	13.328	13.309	13.344
ProbeTrack15	9	ProbeTrack	15.0	SCS215a	20120209.121728	20120209.121813	8	0.013327	60	10	60-180	60	151	GapPrac	SmallFlash	1	4	2	0	0	distractor	1	344	828	28092	13.328	7.169	19.474
ProbeTrack15	9	ProbeTrack	15.0	SCS215a	20120209.121728	20120209.121819	8	0.013327	60	10	60-180	60	123	GapPrac	SmallFlash	1	5	2	3	1	target	1	445	778	28870	13.328	13.305	13.347
ProbeTrack15	9	ProbeTrack	15.0	SCS215a	20120209.121728	20120209.121825	8	0.013327	60	10	60-180	60	101	GapPrac	SmallFlash	1	6	2	1	1	target	1	446	777	29647	13.328	13.308	13.347
ProbeTrack15	9	ProbeTrack	15.0	SCS215a	20120209.121728	20120209.121831	8	0.013327	60	10	60-180	60	158	GapPrac	SmallFlash	1	7	2	3	0	distractor	1	349	826	30473	13.328	13.107	13.558
ProbeTrack15	9	ProbeTrack	15.0	SCS215a	20120209.121728	20120209.121838	8	0.013327	60	10	60-180	60	101	GapPrac	SmallFlash	1	8	2	0	0	distractor	1	354	823	31296	13.328	8.784	18.030
ProbeTrack15	9	ProbeTrack	15.0	SCS215a	20120209.121728	20120209.121843	8	0.013327	60	10	60-180	60	92	GapPrac	SmallFlash	1	9	2	0	1	target	1	316	842	32138	13.328	7.892	18.776
ProbeTrack15	9	ProbeTrack	15.0	SCS215a	20120209.121728	20120209.121849	8	0.013327	60	10	60-180	60	147	GapPrac	SmallFlash	1	10	2	30	0	distractor	1	273	864	33002	13.328	11.708	14.961
ProbeTrack15	9	ProbeTrack	15.0	SCS215a	20120209.121728	20120209.121855	8	0.013327	60	10	60-180	60	99	GapPrac	SmallFlash	1	11	2	0	0	distractor	1	436	782	33784	13.328	13.299	13.353
ProbeTrack15	9	ProbeTrack	15.0	SCS215a	20120209.121728	20120209.121901	8	0.013327	60	10	60-180	60	112	GapPrac	SmallFlash	1	12	2	1	0	distractor	1	396	802	34586	13.328	8.647	18.015
ProbeTrack15	9	ProbeTrack	15.0	SCS215a	20120209.121728	20120209.121907	8	0.013327	60	10	60-180	60	128	GapPrac	SmallFlash	1	13	2	30	1	target	1	239	881	35467	13.328	13.099	13.552
ProbeTrack15	9	ProbeTrack	15.0	SCS215a	20120209.121728	20120209.121913	8	0.013327	60	10	60-180	60	134	GapPrac	SmallFlash	1	14	2	30	1	target	1	297	852	36319	13.328	13.096	13.564
ProbeTrack15	9	ProbeTrack	15.0	SCS215a	20120209.121728	20120209.121919	8	0.013327	60	10	60-180	60	115	GapPrac	SmallFlash	1	15	2	1	0	distractor	1	410	795	37114	13.328	13.115	13.547
ProbeTrack15	9	ProbeTrack	15.0	SCS215a	20120209.121728	20120209.121925	8	0.013327	60	10	60-180	60	115	GapPrac	SmallFlash	1	16	2	3	0	distractor	1	343	829	37943	13.328	13.309	13.347
ProbeTrack15	9	ProbeTrack	15.0	SCS215a	20120209.121728	20120209.121930	8	0.013327	60	10	60-180	60	127	GapPrac	SmallFlash	1	17	2	3	1	target	1	284	858	38801	13.328	10.840	16.969
ProbeTrack15	9	ProbeTrack	15.0	SCS215a	20120209.121728	20120209.121936	8	0.013327	60	10	60-180	60	82	GapPrac	SmallFlash	1	18	2	30	0	distractor	1	288	856	39657	13.328	13.285	13.358
ProbeTrack15	9	ProbeTrack	15.0	SCS215a	20120209.121728	20120209.121942	8	0.013327	60	10	60-180	60	100	GapPrac	SmallFlash	1	19	2	0	1	target	1	301	850	40507	13.328	10.376	16.272
ProbeTrack15	9	ProbeTrack	15.0	SCS215a	20120209.121728	20120209.121948	8	0.013327	60	10	60-180	60	155	GapPrac	SmallFlash	1	20	2	1	1	target	1	331	835	41342	13.328	13.092	13.558
ProbeTrack15	9	ProbeTrack	15.0	SCS215a	20120209.122007	20120209.122021	8	0.013328	60	10	60-180	60	64	GapExp	SmallFlash	1	1	2	30	0	distractor	1	350	825	42167	13.392	12.849	13.815
ProbeTrack15	9	ProbeTrack	15.0	SCS215a	20120209.122007	20120209.122027	8	0.013328	60	10	60-180	60	91	GapExp	SmallFlash	1	2	2	1	0	distractor	1	406	797	42964	13.328	12.855	13.786
ProbeTrack15	9	ProbeTrack	15.0	SCS215a	20120209.122007	20120209.122033	8	0.013328	60	10	60-180	60	124	GapExp	SmallFlash	1	3	2	0	0	distractor	1	348	826	43790	13.326	12.942	13.380
ProbeTrack15	9	ProbeTrack	15.0	SCS215a	20120209.122007	20120209.122039	8	0.013328	60	10	60-180	60	64	GapExp	SmallFlash	1	4	2	0	1	target	1	435	783	44573	13.328	13.303	13.356
ProbeTrack15	9	ProbeTrack	15.0	SCS215a	20120209.122007	20120209.122045	8	0.013328	60	10	60-180	60	169	GapExp	SmallFlash	1	5	2	1	1	target	1	387	807	45380	13.328	13.037	13.618
ProbeTrack15	9	ProbeTrack	15.0	SCS215a	20120209.122007	20120209.122051	8	0.013328	60	10	60-180	60	139	GapExp	SmallFlash	1	6	2	3	1	target	1	261	870	46250	13.328	12.832	13.817
ProbeTrack15	9	ProbeTrack	15.0	SCS215a	20120209.122007	20120209.122057	8	0.013328	60	10	60-180	60	81	GapExp	SmallFlash	1	7	2	3	0	distractor	1	343	829	47079	13.328	13.101	13.548
ProbeTrack15	9	ProbeTrack	15.0	SCS215a	20120209.122007	20120209.122102	8	0.013328	60	10	60-180	60	152	GapExp	SmallFlash	1	8	2	30	1	target	1	241	880	47959	13.328	13.013	13.659
ProbeTrack15	9	ProbeTrack	15.0	SCS215a	20120209.122007	20120209.122109	8	0.013328	60	10	60-180	60	124	GapExp	SmallFlash	0	9	2	30	1	target	1	244	878	48837	13.328	12.901	13.750
ProbeTrack15	9	ProbeTrack	15.0	SCS215a	20120209.122007	20120209.122115	8	0.013328	60	10	60-180	60	174	GapExp	SmallFlash	0	10	2	3	1	target	1	309	846	49683	13.328	12.880	13.769
ProbeTrack15	9	ProbeTrack	15.0	SCS215a	20120209.122007	20120209.122122	8	0.013328	60	10	60-180	60	153	GapExp	SmallFlash	0	11	2	30	0	target	0	312	-1000	48683	13.328	12.888	13.761
ProbeTrack15	9	ProbeTrack	15.0	SCS215a	20120209.122007	20120209.122129	8	0.013328	60	10	60-180	60	61	GapExp	SmallFlash	0	12	2	1	1	target	1	516	742	49425	13.328	13.289	13.352
ProbeTrack15	9	ProbeTrack	15.0	SCS215a	20120209.122007	20120209.122134	8	0.013328	60	10	60-180	60	102	GapExp	SmallFlash	0	13	2	3	0	distractor	1	328	836	50261	13.328	13.098	13.555
ProbeTrack15	9	ProbeTrack	15.0	SCS215a	20120209.122007	20120209.122139	8	0.013328	60	10	60-180	60	113	GapExp	SmallFlash	0	14	2	0	1	target	1	316	842	51103	13.328	12.866	13.786
ProbeTrack15	9	ProbeTrack	15.0	SCS215a	20120209.122007	20120209.122145	8	0.013328	60	10	60-180	60	127	GapExp	SmallFlash	0	15	2	1	1	target	1	481	760	51863	13.328	13.094	13.544
ProbeTrack15	9	ProbeTrack	15.0	SCS215a	20120209.122007	20120209.122151	8	0.013328	60	10	60-180	60	94	GapExp	SmallFlash	0	16	2	3	1	target	1	322	839	52702	13.328	13.308	13.346
ProbeTrack15	9	ProbeTrack	15.0	SCS215a	20120209.122007	20120209.122156	8	0.013328	60	10	60-180	60	168	GapExp	SmallFlash	0	17	2	30	1	target	1	305	848	53550	13.328	12.994	13.673
ProbeTrack15	9	ProbeTrack	15.0	SCS215a	20120209.122007	20120209.122204	8	0.013328	60	10	60-180	60	153	GapExp	SmallFlash	0	18	2	3	1	target	1	426	787	54337	13.328	13.007	13.650
ProbeTrack15	9	ProbeTrack	15.0	SCS215a	20120209.122007	20120209.122210	8	0.013328	60	10	60-180	60	78	GapExp	SmallFlash	0	19	2	1	1	target	1	324	838	55175	13.328	12.849	13.794
ProbeTrack15	9	ProbeTrack	15.0	SCS215a	20120209.122007	20120209.122215	8	0.013328	60	10	60-180	60	155	GapExp	SmallFlash	0	20	2	1	0	distractor	1	521	740	55915	13.329	12.948	13.786
ProbeTrack15	9	ProbeTrack	15.0	SCS215a	20120209.122007	20120209.122221	8	0.013328	60	10	60-180	60	166	GapExp	SmallFlash	0	21	2	3	1	target	1	307	847	56762	13.328	13.101	13.563
ProbeTrack15	9	ProbeTrack	15.0	SCS215a	20120209.122007	20120209.122227	8	0.013328	60	10	60-180	60	154	GapExp	SmallFlash	0	22	2	0	0	distractor	1	348	826	57588	13.328	12.975	13.694
ProbeTrack15	9	ProbeTrack	15.0	SCS215a	20120209.122007	20120209.122234	8	0.013328	60	10	60-180	60	135	GapExp	SmallFlash	0	23	2	30	0	distractor	1	361	820	58408	13.328	13.105	13.543
ProbeTrack15	9	ProbeTrack	15.0	SCS215a	20120209.122007	20120209.122241	8	0.013328	60	10	60-180	60	90	GapExp	SmallFlash	0	24	2	1	1	target	1	328	836	59244	13.328	13.306	13.350
ProbeTrack15	9	ProbeTrack	15.0	SCS215a	20120209.122007	20120209.122246	8	0.013328	60	10	60-180	60	85	GapExp	SmallFlash	0	25	2	0	1	target	1	339	831	60075	13.328	13.292	13.364
ProbeTrack15	9	ProbeTrack	15.0	SCS215a	20120209.122007	20120209.122251	8	0.013328	60	10	60-180	60	73	GapExp	SmallFlash	0	26	2	0	1	target	1	467	767	60842	13.328	12.881	13.801
ProbeTrack15	9	ProbeTrack	15.0	SCS215a	20120209.122007	20120209.122256	8	0.013328	60	10	60-180	60	102	GapExp	SmallFlash	0	27	2	1	0	distractor	1	307	847	61689	13.328	12.962	13.704
ProbeTrack15	9	ProbeTrack	15.0	SCS215a	20120209.122007	20120209.122302	8	0.013328	60	10	60-180	60	61	GapExp	SmallFlash	0	28	2	1	0	distractor	1	446	777	62466	13.328	12.896	13.775
ProbeTrack15	9	ProbeTrack	15.0	SCS215a	20120209.122007	20120209.122307	8	0.013328	60	10	60-180	60	152	GapExp	SmallFlash	0	29	2	30	1	target	1	368	816	63282	13.328	13.309	13.349
ProbeTrack15	9	ProbeTrack	15.0	SCS215a	20120209.122007	20120209.122314	8	0.013328	60	10	60-180	60	134	GapExp	SmallFlash	0	30	2	1	0	distractor	1	395	803	64085	13.328	12.922	13.725
ProbeTrack15	9	ProbeTrack	15.0	SCS215a	20120209.122007	20120209.122319	8	0.013328	60	10	60-180	60	162	GapExp	SmallFlash	0	31	2	30	1	target	1	323	839	64924	13.328	13.004	13.780
ProbeTrack15	9	ProbeTrack	15.0	SCS215a	20120209.122007	20120209.122326	8	0.013328	60	10	60-180	60	150	GapExp	SmallFlash	0	32	2	1	1	target	1	368	816	65740	13.328	12.859	13.784
ProbeTrack15	9	ProbeTrack	15.0	SCS215a	20120209.122007	20120209.122332	8	0.013328	60	10	60-180	60	71	GapExp	SmallFlash	0	33	2	30	1	target	1	387	807	66547	13.328	13.093	13.557
ProbeTrack15	9	ProbeTrack	15.0	SCS215a	20120209.122007	20120209.122338	8	0.013328	60	10	60-180	60	77	GapExp	SmallFlash	0	34	2	30	1	target	1	371	815	67362	13.328	13.086	13.561
ProbeTrack15	9	ProbeTrack	15.0	SCS215a	20120209.122007	20120209.122344	8	0.013328	60	10	60-180	60	119	GapExp	SmallFlash	0	35	2	1	0	distractor	1	343	829	68191	13.328	13.303	13.355
ProbeTrack15	9	ProbeTrack	15.0	SCS215a	20120209.122007	20120209.122349	8	0.013328	60	10	60-180	60	81	GapExp	SmallFlash	0	36	2	3	1	target	1	282	859	69050	13.328	12.964	13.677
ProbeTrack15	9	ProbeTrack	15.0	SCS215a	20120209.122007	20120209.122354	8	0.013328	60	10	60-180	60	165	GapExp	SmallFlash	0	37	2	0	0	distractor	1	387	807	69857	13.328	13.006	13.679
ProbeTrack15	9	ProbeTrack	15.0	SCS215a	20120209.122007	20120209.122401	8	0.013328	60	10	60-180	60	157	GapExp	SmallFlash	0	38	2	3	1	target	1	303	849	70706	13.328	13.050	13.645
ProbeTrack15	9	ProbeTrack	15.0	SCS215a	20120209.122007	20120209.122407	8	0.013328	60	10	60-180	60	67	GapExp	SmallFlash	0	39	2	0	1	target	1	343	829	71535	13.328	13.113	13.550
ProbeTrack15	9	ProbeTrack	15.0	SCS215a	20120209.122007	20120209.122413	8	0.013328	60	10	60-180	60	178	GapExp	SmallFlash	0	40	2	3	1	target	1	302	849	72384	13.328	12.859	13.816
ProbeTrack15	9	ProbeTrack	15.0	SCS215a	20120209.122007	20120209.122419	8	0.013328	60	10	60-180	60	115	GapExp	SmallFlash	0	41	2	30	0	distractor	1	345	828	73212	13.328	13.119	13.544
ProbeTrack15	9	ProbeTrack	15.0	SCS215a	20120209.122007	20120209.122425	8	0.013328	60	10	60-180	60	169	GapExp	SmallFlash	0	42	2	0	1	target	1	311	845	74057	13.328	13.282	13.361
ProbeTrack15	9	ProbeTrack	15.0	SCS215a	20120209.122007	20120209.122431	8	0.013328	60	10	60-180	60	130	GapExp	SmallFlash	0	43	2	3	0	distractor	1	361	820	74877	13.328	13.299	13.350
ProbeTrack15	9	ProbeTrack	15.0	SCS215a	20120209.122007	20120209.122437	8	0.013328	60	10	60-180	60	144	GapExp	SmallFlash	0	44	2	3	1	target	1	341	830	75707	13.328	12.899	13.770
ProbeTrack15	9	ProbeTrack	15.0	SCS215a	20120209.122007	20120209.122444	8	0.013328	60	10	60-180	60	96	GapExp	SmallFlash	0	45	2	1	1	target	1	325	838	76545	13.328	13.037	13.623
ProbeTrack15	9	ProbeTrack	15.0	SCS215a	20120209.122007	20120209.122449	8	0.013328	60	10	60-180	60	171	GapExp	SmallFlash	0	46	2	0	0	distractor	1	373	814	77359	13.328	13.094	13.563
ProbeTrack15	9	ProbeTrack	15.0	SCS215a	20120209.122007	20120209.122456	8	0.013328	60	10	60-180	60	139	GapExp	SmallFlash	0	47	2	30	0	distractor	1	351	825	78184	13.328	13.307	13.347
ProbeTrack15	9	ProbeTrack	15.0	SCS215a	20120209.122007	20120209.122502	8	0.013328	60	10	60-180	60	121	GapExp	SmallFlash	0	48	2	3	0	distractor	1	416	792	78976	13.328	12.854	13.810
ProbeTrack15	9	ProbeTrack	15.0	SCS215a	20120209.122007	20120209.122508	8	0.013328	60	10	60-180	60	120	GapExp	SmallFlash	0	49	2	1	0	distractor	1	332	834	79810	13.328	13.091	13.564
ProbeTrack15	9	ProbeTrack	15.0	SCS215a	20120209.122007	20120209.122514	8	0.013328	60	10	60-180	60	115	GapExp	SmallFlash	0	50	2	0	1	target	1	307	847	80657	13.328	13.306	13.355
ProbeTrack15	9	ProbeTrack	15.0	SCS215a	20120209.122007	20120209.122520	8	0.013328	60	10	60-180	60	148	GapExp	SmallFlash	0	51	2	1	0	distractor	1	375	813	81470	13.328	13.103	13.348
ProbeTrack15	9	ProbeTrack	15.0	SCS215a	20120209.122007	20120209.122531	8	0.013328	60	10	60-180	60	103	GapExp	SmallFlash	0	52	2	3	0	distractor	1	309	846	82316	13.328	12.917	13.724
ProbeTrack15	9	ProbeTrack	15.0	SCS215a	20120209.122007	20120209.122537	8	0.013328	60	10	60-180	60	75	GapExp	SmallFlash	0	53	2	0	0	distractor	1	404	798	83114	13.328	13.112	13.551
ProbeTrack15	9	ProbeTrack	15.0	SCS215a	20120209.122007	20120209.122542	8	0.013328	60	10	60-180	60	148	GapExp	SmallFlash	0	54	2	30	1	target	1	253	874	83988	13.329	13.307	13.558
ProbeTrack15	9	ProbeTrack	15.0	SCS215a	20120209.122007	20120209.122549	8	0.013328	60	10	60-180	60	76	GapExp	SmallFlash	0	55	2	0	0	distractor	1	395	803	84791	13.328	13.304	13.353
ProbeTrack15	9	ProbeTrack	15.0	SCS215a	20120209.122007	20120209.122554	8	0.013328	60	10	60-180	60	151	GapExp	SmallFlash	0	56	2	30	1	target	1	271	865	85656	13.328	12.961	13.697
ProbeTrack15	9	ProbeTrack	15.0	SCS215a	20120209.122007	20120209.122601	8	0.013328	60	10	60-180	60	129	GapExp	SmallFlash	0	57	2	1	0	distractor	1	311	845	86501	13.328	12.949	13.705
ProbeTrack15	9	ProbeTrack	15.0	SCS215a	20120209.122007	20120209.122606	8	0.013328	60	10	60-180	60	113	GapExp	SmallFlash	0	58	2	30	0	distractor	1	494	753	87254	13.328	12.983	13.672
ProbeTrack15	9	ProbeTrack	15.0	SCS215a	20120209.122007	20120209.122612	8	0.013328	60	10	60-180	60	108	GapExp	SmallFlash	0	59	2	1	0	distractor	1	367	817	88071	13.328	13.093	13.558
ProbeTrack15	9	ProbeTrack	15.0	SCS215a	20120209.122007	20120209.122618	8	0.013328	60	10	60-180	60	166	GapExp	SmallFlash	0	60	2	30	0	distractor	1	346	827	88898	13.328	12.869	13.789
ProbeTrack15	9	ProbeTrack	15.0	SCS215a	20120209.122007	20120209.122625	8	0.013328	60	10	60-180	60	68	GapExp	SmallFlash	0	61	2	1	1	target	1	427	787	89685	13.328	13.307	13.347
ProbeTrack15	9	ProbeTrack	15.0	SCS215a	20120209.122007	20120209.122630	8	0.013328	60	10	60-180	60	69	GapExp	SmallFlash	0	62	2	1	1	target	1	365	818	90503	13.328	13.308	13.348
ProbeTrack15	9	ProbeTrack	15.0	SCS215a	20120209.122007	20120209.122635	8	0.013328	60	10	60-180	60	109	GapExp	SmallFlash	0	63	2	1	1	target	1	253	874	91377	13.328	13.306	13.350
ProbeTrack15	9	ProbeTrack	15.0	SCS215a	20120209.122007	20120209.122641	8	0.013328	60	10	60-180	60	171	GapExp	SmallFlash	0	64	2	1	0	distractor	1	338	831	92208	13.328	12.846	13.812
ProbeTrack15	9	ProbeTrack	15.0	SCS215a	20120209.122007	20120209.122647	8	0.013328	60	10	60-180	60	109	GapExp	SmallFlash	0	65	2	1	1	target	1	268	866	93074	13.328	13.088	13.556
ProbeTrack15	9	ProbeTrack	15.0	SCS215a	20120209.122007	20120209.122653	8	0.013328	60	10	60-180	60	117	GapExp	SmallFlash	0	66	2	3	0	distractor	1	326	837	93911	13.328	13.302	13.361
ProbeTrack15	9	ProbeTrack	15.0	SCS215a	20120209.122007	20120209.122659	8	0.013328	60	10	60-180	60	166	GapExp	SmallFlash	0	67	2	30	0	distractor	1	288	856	94767	13.328	13.297	13.348
ProbeTrack15	9	ProbeTrack	15.0	SCS215a	20120209.122007	20120209.122705	8	0.013328	60	10	60-180	60	123	GapExp	SmallFlash	0	68	2	3	1	target	1	319	841	95608	13.328	13.082	13.572
ProbeTrack15	9	ProbeTrack	15.0	SCS215a	20120209.122007	20120209.122711	8	0.013328	60	10	60-180	60	61	GapExp	SmallFlash	0	69	2	30	0	distractor	1	316	842	96450	13.328	13.303	13.354
ProbeTrack15	9	ProbeTrack	15.0	SCS215a	20120209.122007	20120209.122716	8	0.013328	60	10	60-180	60	147	GapExp	SmallFlash	0	70	2	30	0	distractor	1	330	835	97285	13.328	13.085	13.565
ProbeTrack15	9	ProbeTrack	15.0	SCS215a	20120209.122007	20120209.122723	8	0.013328	60	10	60-180	60	130	GapExp	SmallFlash	0	71	2	3	1	target	1	509	746	98031	13.328	13.100	13.570
ProbeTrack15	9	ProbeTrack	15.0	SCS215a	20120209.122007	20120209.122729	8	0.013328	60	10	60-180	60	149	GapExp	SmallFlash	0	72	2	1	1	target	1	299	851	98882	13.328	13.085	13.571
ProbeTrack15	9	ProbeTrack	15.0	SCS215a	20120209.122007	20120209.122736	8	0.013328	60	10	60-180	60	179	GapExp	SmallFlash	0	73	2	3	0	distractor	1	379	811	99693	13.328	13.093	13.563
ProbeTrack15	9	ProbeTrack	15.0	SCS215a	20120209.122007	20120209.122742	8	0.013328	60	10	60-180	60	89	GapExp	SmallFlash	0	74	2	0	0	distractor	1	370	815	100508	13.328	13.311	13.346
ProbeTrack15	9	ProbeTrack	15.0	SCS215a	20120209.122007	20120209.122748	8	0.013328	60	10	60-180	60	157	GapExp	SmallFlash	0	75	2	3	1	target	1	283	859	101367	13.328	12.927	13.731
ProbeTrack15	9	ProbeTrack	15.0	SCS215a	20120209.122007	20120209.122754	8	0.013328	60	10	60-180	60	101	GapExp	SmallFlash	0	76	2	30	1	target	1	287	857	102224	13.328	12.876	13.767
ProbeTrack15	9	ProbeTrack	15.0	SCS215a	20120209.122007	20120209.122800	8	0.013328	60	10	60-180	60	150	GapExp	SmallFlash	0	77	2	0	0	distractor	1	359	821	103045	13.328	12.902	13.747
ProbeTrack15	9	ProbeTrack	15.0	SCS215a	20120209.122007	20120209.122806	8	0.013328	60	10	60-180	60	119	GapExp	SmallFlash	0	78	2	3	0	distractor	1	415	793	103838	13.328	13.307	13.351
ProbeTrack15	9	ProbeTrack	15.0	SCS215a	20120209.122007	20120209.122812	8	0.013328	60	10	60-180	60	100	GapExp	SmallFlash	0	79	2	30	0	distractor	1	345	828	104666	13.328	13.099	13.556
ProbeTrack15	9	ProbeTrack	15.0	SCS215a	20120209.122007	20120209.122818	8	0.013328	60	10	60-180	60	72	GapExp	SmallFlash	0	80	2	3	1	target	1	293	854	105520	13.328	13.310	13.347
ProbeTrack15	9	ProbeTrack	15.0	SCS215a	20120209.122007	20120209.122823	8	0.013328	60	10	60-180	60	161	GapExp	SmallFlash	0	81	2	30	0	distractor	1	305	848	106368	13.328	12.860	13.816
ProbeTrack15	9	ProbeTrack	15.0	SCS215a	20120209.122007	20120209.122829	8	0.013328	60	10	60-180	60	145	GapExp	SmallFlash	0	82	2	30	0	distractor	1	347	827	107195	13.328	13.300	13.345
ProbeTrack15	9	ProbeTrack	15.0	SCS215a	20120209.122007	20120209.122836	8	0.013328	60	10	60-180	60	111	GapExp	SmallFlash	0	83	2	30	0	distractor	1	339	831	108026	13.328	13.298	13.370
ProbeTrack15	9	ProbeTrack	15.0	SCS215a	20120209.122007	20120209.122842	8	0.013328	60	10	60-180	60	155	GapExp	SmallFlash	0	84	2	0	0	distractor	1	395	803	108829	13.328	13.303	13.349
ProbeTrack15	9	ProbeTrack	15.0	SCS215a	20120209.122007	20120209.122848	8	0.013328	60	10	60-180	60	174	GapExp	SmallFlash	0	85	2	0	0	distractor	1	352	824	109653	13.328	13.309	13.352
ProbeTrack15	9	ProbeTrack	15.0	SCS215a	20120209.122007	20120209.122855	8	0.013328	60	10	60-180	60	68	GapExp	SmallFlash	0	86	2	3	0	distractor	1	401	800	110453	13.328	13.307	13.348
ProbeTrack15	9	ProbeTrack	15.0	SCS215a	20120209.122007	20120209.122900	8	0.013328	60	10	60-180	60	131	GapExp	SmallFlash	0	87	2	1	0	distractor	1	335	833	111286	13.328	13.089	13.583
ProbeTrack15	9	ProbeTrack	15.0	SCS215a	20120209.122007	20120209.122905	8	0.013328	60	10	60-180	60	68	GapExp	SmallFlash	0	88	2	30	1	distractor	0	440	-1000	110286	13.328	13.308	13.357
ProbeTrack15	9	ProbeTrack	15.0	SCS215a	20120209.122007	20120209.122911	8	0.013328	60	10	60-180	60	72	GapExp	SmallFlash	0	89	2	30	1	target	1	334	833	111119	13.328	13.092	13.570
ProbeTrack15	9	ProbeTrack	15.0	SCS215a	20120209.122007	20120209.122917	8	0.013328	60	10	60-180	60	132	GapExp	SmallFlash	0	90	2	3	1	target	1	316	842	111961	13.328	13.307	13.347
ProbeTrack15	9	ProbeTrack	15.0	SCS215a	20120209.122007	20120209.122923	8	0.013328	60	10	60-180	60	63	GapExp	SmallFlash	0	91	2	30	0	distractor	1	360	820	112781	13.328	12.981	13.668
ProbeTrack15	9	ProbeTrack	15.0	SCS215a	20120209.122007	20120209.122928	8	0.013328	60	10	60-180	60	106	GapExp	SmallFlash	0	92	2	30	1	target	1	391	805	113586	13.328	12.885	13.759
ProbeTrack15	9	ProbeTrack	15.0	SCS215a	20120209.122007	20120209.122934	8	0.013328	60	10	60-180	60	167	GapExp	SmallFlash	0	93	2	1	0	distractor	1	408	796	114382	13.328	13.091	13.559
ProbeTrack15	9	ProbeTrack	15.0	SCS215a	20120209.122007	20120209.122940	8	0.013328	60	10	60-180	60	75	GapExp	SmallFlash	0	94	2	3	1	target	1	292	854	115236	13.328	12.884	13.795
ProbeTrack15	9	ProbeTrack	15.0	SCS215a	20120209.122007	20120209.122946	8	0.013328	60	10	60-180	60	177	GapExp	SmallFlash	0	95	2	3	0	distractor	1	372	814	116050	13.328	13.300	13.357
ProbeTrack15	9	ProbeTrack	15.0	SCS215a	20120209.122007	20120209.122953	8	0.013328	60	10	60-180	60	126	GapExp	SmallFlash	0	96	2	3	1	target	1	355	823	116873	13.328	13.125	13.531
ProbeTrack15	9	ProbeTrack	15.0	SCS215a	20120209.122007	20120209.122959	8	0.013328	60	10	60-180	60	69	GapExp	SmallFlash	0	97	2	1	1	target	1	540	730	117603	13.328	13.306	13.344
ProbeTrack15	9	ProbeTrack	15.0	SCS215a	20120209.122007	20120209.123004	8	0.013328	60	10	60-180	60	174	GapExp	SmallFlash	0	98	2	30	1	target	1	325	838	118441	13.328	13.100	13.544
ProbeTrack15	9	ProbeTrack	15.0	SCS215a	20120209.122007	20120209.123011	8	0.013328	60	10	60-180	60	175	GapExp	SmallFlash	0	99	2	3	0	distractor	1	386	807	119248	13.328	12.903	13.761
ProbeTrack15	9	ProbeTrack	15.0	SCS215a	20120209.122007	20120209.123018	8	0.013328	60	10	60-180	60	103	GapExp	SmallFlash	0	100	2	3	0	distractor	1	577	712	119960	13.328	12.917	13.739
ProbeTrack15	9	ProbeTrack	15.0	SCS215a	20120209.122007	20120209.123024	8	0.013328	60	10	60-180	60	91	GapExp	SmallFlash	0	101	2	30	0	distractor	1	396	802	120762	13.328	13.307	13.344
ProbeTrack15	9	ProbeTrack	15.0	SCS215a	20120209.122007	20120209.123039	8	0.013328	60	10	60-180	60	133	GapExp	SmallFlash	0	102	2	0	0	distractor	1	475	763	121525	13.328	13.106	13.551
ProbeTrack15	9	ProbeTrack	15.0	SCS215a	20120209.122007	20120209.123045	8	0.013328	60	10	60-180	60	147	GapExp	SmallFlash	0	103	2	1	0	distractor	1	395	803	122328	13.328	13.119	13.535
ProbeTrack15	9	ProbeTrack	15.0	SCS215a	20120209.122007	20120209.123052	8	0.013328	60	10	60-180	60	135	GapExp	SmallFlash	0	104	2	30	1	target	1	299	851	123179	13.328	12.879	13.785
ProbeTrack15	9	ProbeTrack	15.0	SCS215a	20120209.122007	20120209.123058	8	0.013328	60	10	60-180	60	120	GapExp	SmallFlash	0	105	2	0	0	distractor	1	378	811	123990	13.328	12.887	13.763
ProbeTrack15	9	ProbeTrack	15.0	SCS215a	20120209.122007	20120209.123104	8	0.013328	60	10	60-180	60	154	GapExp	SmallFlash	0	106	2	3	0	distractor	1	398	801	124791	13.328	12.920	13.729
ProbeTrack15	9	ProbeTrack	15.0	SCS215a	20120209.122007	20120209.123110	8	0.013328	60	10	60-180	60	126	GapExp	SmallFlash	0	107	2	0	1	target	1	498	751	125542	13.328	12.852	13.806
ProbeTrack15	9	ProbeTrack	15.0	SCS215a	20120209.122007	20120209.123116	8	0.013328	60	10	60-180	60	168	GapExp	SmallFlash	0	108	2	0	0	distractor	1	391	805	126347	13.328	13.029	13.629
ProbeTrack15	9	ProbeTrack	15.0	SCS215a	20120209.122007	20120209.123123	8	0.013328	60	10	60-180	60	161	GapExp	SmallFlash	0	109	2	3	0	distractor	1	387	807	127154	13.328	13.310	13.347
ProbeTrack15	9	ProbeTrack	15.0	SCS215a	20120209.122007	20120209.123129	8	0.013328	60	10	60-180	60	170	GapExp	SmallFlash	0	110	2	1	1	target	1	380	810	127964	13.328	12.901	13.780
ProbeTrack15	9	ProbeTrack	15.0	SCS215a	20120209.122007	20120209.123136	8	0.013328	60	10	60-180	60	86	GapExp	SmallFlash	0	111	2	0	0	distractor	1	450	775	128739	13.328	13.096	13.545
ProbeTrack15	9	ProbeTrack	15.0	SCS215a	20120209.122007	20120209.123141	8	0.013328	60	10	60-180	60	173	GapExp	SmallFlash	0	112	2	3	0	distractor	1	341	830	129569	13.328	13.104	13.551
ProbeTrack15	9	ProbeTrack	15.0	SCS215a	20120209.122007	20120209.123147	8	0.013328	60	10	60-180	60	91	GapExp	SmallFlash	0	113	2	0	1	target	1	453	774	130343	13.328	13.305	13.354
ProbeTrack15	9	ProbeTrack	15.0	SCS215a	20120209.122007	20120209.123153	8	0.013328	60	10	60-180	60	122	GapExp	SmallFlash	0	114	2	1	0	distractor	1	375	813	131156	13.328	13.302	13.353
ProbeTrack15	9	ProbeTrack	15.0	SCS215a	20120209.122007	20120209.123159	8	0.013328	60	10	60-180	60	153	GapExp	SmallFlash	0	115	2	3	0	distractor	1	333	834	131990	13.328	13.306	13.344
ProbeTrack15	9	ProbeTrack	15.0	SCS215a	20120209.122007	20120209.123206	8	0.013328	60	10	60-180	60	84	GapExp	SmallFlash	0	116	2	3	1	target	1	384	808	132798	13.328	12.940	13.725
ProbeTrack15	9	ProbeTrack	15.0	SCS215a	20120209.122007	20120209.123211	8	0.013328	60	10	60-180	60	153	GapExp	SmallFlash	0	117	2	0	0	distractor	1	380	810	133608	13.328	12.874	13.790
ProbeTrack15	9	ProbeTrack	15.0	SCS215a	20120209.122007	20120209.123217	8	0.013328	60	10	60-180	60	94	GapExp	SmallFlash	0	118	2	1	1	target	1	350	825	134433	13.328	13.092	13.558
ProbeTrack15	9	ProbeTrack	15.0	SCS215a	20120209.122007	20120209.123223	8	0.013328	60	10	60-180	60	120	GapExp	SmallFlash	0	119	2	1	0	distractor	1	320	840	135273	13.328	13.030	13.619
ProbeTrack15	9	ProbeTrack	15.0	SCS215a	20120209.122007	20120209.123229	8	0.013328	60	10	60-180	60	87	GapExp	SmallFlash	0	120	2	1	1	target	1	294	853	136126	13.328	12.983	13.666
ProbeTrack15	9	ProbeTrack	15.0	SCS215a	20120209.122007	20120209.123234	8	0.013328	60	10	60-180	60	114	GapExp	SmallFlash	0	121	2	30	1	target	1	318	841	136967	13.328	12.904	13.740
ProbeTrack15	9	ProbeTrack	15.0	SCS215a	20120209.122007	20120209.123240	8	0.013328	60	10	60-180	60	118	GapExp	SmallFlash	0	122	2	3	0	distractor	1	378	811	137778	13.328	12.853	13.798
ProbeTrack15	9	ProbeTrack	15.0	SCS215a	20120209.122007	20120209.123246	8	0.013328	60	10	60-180	60	145	GapExp	SmallFlash	0	123	2	3	0	distractor	1	397	802	138580	13.328	13.302	13.346
ProbeTrack15	9	ProbeTrack	15.0	SCS215a	20120209.122007	20120209.123253	8	0.013328	60	10	60-180	60	120	GapExp	SmallFlash	0	124	2	0	1	target	1	340	830	139410	13.328	13.100	13.557
ProbeTrack15	9	ProbeTrack	15.0	SCS215a	20120209.122007	20120209.123259	8	0.013328	60	10	60-180	60	148	GapExp	SmallFlash	0	125	2	3	1	target	1	302	849	140259	13.328	13.107	13.564
ProbeTrack15	9	ProbeTrack	15.0	SCS215a	20120209.122007	20120209.123305	8	0.013328	60	10	60-180	60	87	GapExp	SmallFlash	0	126	2	30	0	distractor	1	331	835	141094	13.328	12.943	13.725
ProbeTrack15	9	ProbeTrack	15.0	SCS215a	20120209.122007	20120209.123337	8	0.013328	60	10	60-180	60	84	GapExp	SmallFlash	0	127	2	0	0	distractor	1	349	826	141920	13.328	12.987	13.686
ProbeTrack15	9	ProbeTrack	15.0	SCS215a	20120209.122007	20120209.123342	8	0.013328	60	10	60-180	60	107	GapExp	SmallFlash	0	128	2	30	1	target	1	276	862	142782	13.328	12.896	13.746
ProbeTrack15	9	ProbeTrack	15.0	SCS215a	20120209.122007	20120209.123348	8	0.013328	60	10	60-180	60	109	GapExp	SmallFlash	0	129	2	3	1	target	1	320	840	143622	13.328	13.105	13.548
ProbeTrack15	9	ProbeTrack	15.0	SCS215a	20120209.122007	20120209.123354	8	0.013328	60	10	60-180	60	122	GapExp	SmallFlash	0	130	2	0	1	target	1	359	821	144443	13.328	13.308	13.350
ProbeTrack15	9	ProbeTrack	15.0	SCS215a	20120209.122007	20120209.123359	8	0.013328	60	10	60-180	60	134	GapExp	SmallFlash	0	131	2	30	1	target	1	411	795	145238	13.328	13.100	13.559
ProbeTrack15	9	ProbeTrack	15.0	SCS215a	20120209.122007	20120209.123406	8	0.013328	60	10	60-180	60	122	GapExp	SmallFlash	0	132	2	30	1	target	1	423	789	146027	13.328	13.256	13.397
ProbeTrack15	9	ProbeTrack	15.0	SCS215a	20120209.122007	20120209.123412	8	0.013328	60	10	60-180	60	142	GapExp	SmallFlash	0	133	2	0	1	target	1	326	837	146864	13.328	13.305	13.349
ProbeTrack15	9	ProbeTrack	15.0	SCS215a	20120209.122007	20120209.123419	8	0.013328	60	10	60-180	60	138	GapExp	SmallFlash	0	134	2	3	1	target	1	286	857	147721	13.328	12.977	13.675
ProbeTrack15	9	ProbeTrack	15.0	SCS215a	20120209.122007	20120209.123425	8	0.013328	60	10	60-180	60	157	GapExp	SmallFlash	0	135	2	3	0	distractor	1	374	813	148534	13.328	12.883	13.768
ProbeTrack15	9	ProbeTrack	15.0	SCS215a	20120209.122007	20120209.123431	8	0.013328	60	10	60-180	60	62	GapExp	SmallFlash	0	136	2	1	1	target	1	292	854	149388	13.328	13.307	13.349
ProbeTrack15	9	ProbeTrack	15.0	SCS215a	20120209.122007	20120209.123436	8	0.013328	60	10	60-180	60	67	GapExp	SmallFlash	0	137	2	3	0	distractor	1	359	821	150209	13.328	12.929	13.727
ProbeTrack15	9	ProbeTrack	15.0	SCS215a	20120209.122007	20120209.123442	8	0.013328	60	10	60-180	60	130	GapExp	SmallFlash	0	138	2	30	1	target	1	306	847	151056	13.328	12.977	13.687
ProbeTrack15	9	ProbeTrack	15.0	SCS215a	20120209.122007	20120209.123448	8	0.013328	60	10	60-180	60	108	GapExp	SmallFlash	0	139	2	30	1	target	1	297	852	151908	13.328	12.928	13.715
ProbeTrack15	9	ProbeTrack	15.0	SCS215a	20120209.122007	20120209.123454	8	0.013328	60	10	60-180	60	180	GapExp	SmallFlash	0	140	2	1	1	target	1	328	836	152744	13.328	13.307	13.349
ProbeTrack15	9	ProbeTrack	15.0	SCS215a	20120209.122007	20120209.123501	8	0.013328	60	10	60-180	60	95	GapExp	SmallFlash	0	141	2	0	1	target	1	352	824	153568	13.328	13.287	13.384
ProbeTrack15	9	ProbeTrack	15.0	SCS215a	20120209.122007	20120209.123506	8	0.013328	60	10	60-180	60	71	GapExp	SmallFlash	0	142	2	0	1	target	1	328	836	154404	13.328	12.936	13.726
ProbeTrack15	9	ProbeTrack	15.0	SCS215a	20120209.122007	20120209.123511	8	0.013328	60	10	60-180	60	92	GapExp	SmallFlash	0	143	2	0	0	distractor	1	442	779	155183	13.328	13.105	13.557
ProbeTrack15	9	ProbeTrack	15.0	SCS215a	20120209.122007	20120209.123516	8	0.013328	60	10	60-180	60	111	GapExp	SmallFlash	0	144	2	30	0	distractor	1	323	839	156022	13.328	13.173	13.475
ProbeTrack15	9	ProbeTrack	15.0	SCS215a	20120209.122007	20120209.123523	8	0.013328	60	10	60-180	60	161	GapExp	SmallFlash	0	145	2	0	1	target	1	407	797	156819	13.328	13.058	13.585
ProbeTrack15	9	ProbeTrack	15.0	SCS215a	20120209.122007	20120209.123529	8	0.013328	60	10	60-180	60	111	GapExp	SmallFlash	0	146	2	1	0	distractor	1	403	799	157618	13.328	12.880	13.769
ProbeTrack15	9	ProbeTrack	15.0	SCS215a	20120209.122007	20120209.123535	8	0.013328	60	10	60-180	60	161	GapExp	SmallFlash	0	147	2	30	0	distractor	1	378	811	158429	13.328	12.964	13.706
ProbeTrack15	9	ProbeTrack	15.0	SCS215a	20120209.122007	20120209.123541	8	0.013328	60	10	60-180	60	78	GapExp	SmallFlash	0	148	2	3	0	distractor	1	478	761	159190	13.328	13.029	13.614
ProbeTrack15	9	ProbeTrack	15.0	SCS215a	20120209.122007	20120209.123546	8	0.013328	60	10	60-180	60	160	GapExp	SmallFlash	0	149	2	1	0	distractor	1	406	797	159987	13.328	12.935	13.721
ProbeTrack15	9	ProbeTrack	15.0	SCS215a	20120209.122007	20120209.123553	8	0.013328	60	10	60-180	60	127	GapExp	SmallFlash	0	150	2	3	0	distractor	1	386	807	160794	13.328	13.087	13.555
ProbeTrack15	9	ProbeTrack	15.0	SCS215a	20120209.122007	20120209.123559	8	0.013328	60	10	60-180	60	107	GapExp	SmallFlash	0	151	2	0	0	distractor	1	556	722	161516	13.328	13.302	13.353
ProbeTrack15	9	ProbeTrack	15.0	SCS215a	20120209.122007	20120209.123604	8	0.013328	60	10	60-180	60	77	GapExp	SmallFlash	0	152	2	0	1	target	1	311	845	162361	13.328	12.875	13.708
ProbeTrack15	9	ProbeTrack	15.0	SCS215a	20120209.122007	20120209.123609	8	0.013328	60	10	60-180	60	112	GapExp	SmallFlash	0	153	2	3	1	target	1	358	821	163182	13.328	12.877	13.785
ProbeTrack15	9	ProbeTrack	15.0	SCS215a	20120209.122007	20120209.123615	8	0.013328	60	10	60-180	60	155	GapExp	SmallFlash	0	154	2	1	1	target	1	342	829	164011	13.328	12.918	13.739
ProbeTrack15	9	ProbeTrack	15.0	SCS215a	20120209.122007	20120209.123621	8	0.013328	60	10	60-180	60	63	GapExp	SmallFlash	0	155	2	0	0	distractor	1	413	794	164805	13.328	13.106	13.566
ProbeTrack15	9	ProbeTrack	15.0	SCS215a	20120209.122007	20120209.123626	8	0.013328	60	10	60-180	60	177	GapExp	SmallFlash	0	156	2	1	1	target	1	314	843	165648	13.328	13.034	13.631
ProbeTrack15	9	ProbeTrack	15.0	SCS215a	20120209.122007	20120209.123633	8	0.013328	60	10	60-180	60	85	GapExp	SmallFlash	0	157	2	1	0	distractor	1	356	822	166470	13.328	13.306	13.345
ProbeTrack15	9	ProbeTrack	15.0	SCS215a	20120209.122007	20120209.123638	8	0.013328	60	10	60-180	60	163	GapExp	SmallFlash	0	158	2	0	0	distractor	1	438	781	167251	13.328	13.309	13.354
ProbeTrack15	9	ProbeTrack	15.0	SCS215a	20120209.122007	20120209.123644	8	0.013328	60	10	60-180	60	122	GapExp	SmallFlash	0	159	2	1	0	distractor	1	457	772	168023	13.328	13.304	13.356
ProbeTrack15	9	ProbeTrack	15.0	SCS215a	20120209.122007	20120209.123650	8	0.013328	60	10	60-180	60	113	GapExp	SmallFlash	0	160	2	0	1	target	1	357	822	168845	13.328	12.891	13.790
ProbeTrack15	9	ProbeTrack	15.0	SCS215a	20120209.122007	20120209.123656	8	0.013328	60	10	60-180	60	113	GapExp	SmallFlash	0	161	2	30	0	distractor	1	337	832	169677	13.328	12.934	13.716
ProbeTrack15	9	ProbeTrack	15.0	SCS215a	20120209.122007	20120209.123702	8	0.013328	60	10	60-180	60	99	GapExp	SmallFlash	0	162	2	0	1	target	1	291	855	170532	13.328	13.309	13.348
ProbeTrack15	9	ProbeTrack	15.0	SCS215a	20120209.122007	20120209.123707	8	0.013328	60	10	60-180	60	115	GapExp	SmallFlash	0	163	2	0	0	distractor	1	336	832	171364	13.328	13.309	13.349
ProbeTrack15	9	ProbeTrack	15.0	SCS215a	20120209.122007	20120209.123713	8	0.013328	60	10	60-180	60	82	GapExp	SmallFlash	0	164	2	3	1	target	1	261	870	172234	13.328	12.962	13.701
ProbeTrack15	9	ProbeTrack	15.0	SCS215a	20120209.122007	20120209.123718	8	0.013328	60	10	60-180	60	62	GapExp	SmallFlash	0	165	2	3	1	target	1	382	809	173043	13.328	13.112	13.551
ProbeTrack15	9	ProbeTrack	15.0	SCS215a	20120209.122007	20120209.123723	8	0.013328	60	10	60-180	60	101	GapExp	SmallFlash	0	166	2	30	0	distractor	1	356	822	173865	13.328	13.308	13.357
ProbeTrack15	9	ProbeTrack	15.0	SCS215a	20120209.122007	20120209.123728	8	0.013328	60	10	60-180	60	95	GapExp	SmallFlash	0	167	2	1	0	distractor	1	344	828	174693	13.328	13.298	13.348
ProbeTrack15	9	ProbeTrack	15.0	SCS215a	20120209.122007	20120209.123734	8	0.013328	60	10	60-180	60	170	GapExp	SmallFlash	0	168	2	30	0	distractor	1	374	813	175506	13.328	13.305	13.347
ProbeTrack15	9	ProbeTrack	15.0	SCS215a	20120209.122007	20120209.123741	8	0.013328	60	10	60-180	60	96	GapExp	SmallFlash	0	169	2	3	1	target	1	353	824	176330	13.328	13.287	13.362
ProbeTrack15	9	ProbeTrack	15.0	SCS215a	20120209.122007	20120209.123747	8	0.013328	60	10	60-180	60	101	GapExp	SmallFlash	0	170	2	30	1	target	1	293	854	177184	13.328	12.883	13.768
ProbeTrack15	9	ProbeTrack	15.0	SCS215a	20120209.122007	20120209.123753	8	0.013328	60	10	60-180	60	137	GapExp	SmallFlash	0	171	2	30	0	distractor	1	384	808	177992	13.328	13.106	13.567
ProbeTrack15	9	ProbeTrack	15.0	SCS215a	20120209.122007	20120209.123759	8	0.013328	60	10	60-180	60	156	GapExp	SmallFlash	0	172	2	0	1	target	1	299	851	178843	13.328	13.105	13.537
ProbeTrack15	9	ProbeTrack	15.0	SCS215a	20120209.122007	20120209.123805	8	0.013328	60	10	60-180	60	158	GapExp	SmallFlash	0	173	2	30	0	distractor	1	402	799	179642	13.328	13.099	13.556
ProbeTrack15	9	ProbeTrack	15.0	SCS215a	20120209.122007	20120209.123812	8	0.013328	60	10	60-180	60	113	GapExp	SmallFlash	0	174	2	1	0	distractor	1	366	817	180459	13.328	13.083	13.559
ProbeTrack15	9	ProbeTrack	15.0	SCS215a	20120209.122007	20120209.123819	8	0.013328	60	10	60-180	60	118	GapExp	SmallFlash	0	175	2	30	1	target	1	535	733	181192	13.328	13.308	13.350
ProbeTrack15	9	ProbeTrack	15.0	SCS215a	20120209.122007	20120209.123826	8	0.013328	60	10	60-180	60	149	GapExp	SmallFlash	0	176	2	30	0	distractor	1	368	816	182008	13.328	13.099	13.557
ProbeTrack15	9	ProbeTrack	15.0	SCS215a	20120209.122007	20120209.123832	8	0.013328	60	10	60-180	60	61	GapExp	SmallFlash	0	177	2	1	1	target	1	279	861	182869	13.328	12.868	13.796
ProbeTrack15	9	ProbeTrack	15.0	SCS215a	20120209.122007	20120209.123837	8	0.013328	60	10	60-180	60	61	GapExp	SmallFlash	0	178	2	0	1	target	1	333	834	183703	13.328	13.309	13.347
ProbeTrack15	9	ProbeTrack	15.0	SCS215a	20120209.122007	20120209.123842	8	0.013328	60	10	60-180	60	138	GapExp	SmallFlash	0	179	2	0	0	distractor	1	339	831	184534	13.328	12.884	13.777
ProbeTrack15	9	ProbeTrack	15.0	SCS215a	20120209.122007	20120209.123848	8	0.013328	60	10	60-180	60	171	GapExp	SmallFlash	0	180	2	0	1	target	1	328	836	185370	13.328	13.095	13.555
ProbeTrack15	9	ProbeTrack	15.0	SCS215a	20120209.122007	20120209.123854	8	0.013328	60	10	60-180	60	123	GapExp	SmallFlash	0	181	2	1	1	target	1	285	858	186228	13.328	13.111	13.552
ProbeTrack15	9	ProbeTrack	15.0	SCS215a	20120209.122007	20120209.123900	8	0.013328	60	10	60-180	60	94	GapExp	SmallFlash	0	182	2	3	0	distractor	1	311	845	187073	13.328	12.924	13.738
ProbeTrack15	9	ProbeTrack	15.0	SCS215a	20120209.122007	20120209.123905	8	0.013328	60	10	60-180	60	69	GapExp	SmallFlash	0	183	2	0	1	target	1	316	842	187915	13.328	13.309	13.349
ProbeTrack15	9	ProbeTrack	15.0	SCS215a	20120209.122007	20120209.123913	8	0.013328	60	10	60-180	60	77	GapExp	SmallFlash	0	184	2	0	1	target	1	345	828	188743	13.328	12.912	13.737
ProbeTrack15	9	ProbeTrack	15.0	SCS215a	20120209.122007	20120209.123918	8	0.013328	60	10	60-180	60	169	GapExp	SmallFlash	0	185	2	0	1	target	1	313	844	189587	13.328	13.309	13.347
ProbeTrack15	9	ProbeTrack	15.0	SCS215a	20120209.122007	20120209.123925	8	0.013328	60	10	60-180	60	174	GapExp	SmallFlash	0	186	2	1	0	distractor	1	369	816	190403	13.328	13.308	13.353
ProbeTrack15	9	ProbeTrack	15.0	SCS215a	20120209.122007	20120209.123931	8	0.013328	60	10	60-180	60	155	GapExp	SmallFlash	0	187	2	30	1	target	1	326	837	191240	13.328	13.106	13.563
ProbeTrack15	9	ProbeTrack	15.0	SCS215a	20120209.122007	20120209.123938	8	0.013328	60	10	60-180	60	180	GapExp	SmallFlash	0	188	2	0	0	distractor	1	352	824	192064	13.328	13.099	13.557
ProbeTrack15	9	ProbeTrack	15.0	SCS215a	20120209.122007	20120209.123944	8	0.013328	60	10	60-180	60	77	GapExp	SmallFlash	0	189	2	0	0	distractor	1	306	847	192911	13.328	13.101	13.542
ProbeTrack15	9	ProbeTrack	15.0	SCS215a	20120209.122007	20120209.123950	8	0.013328	60	10	60-180	60	115	GapExp	SmallFlash	0	190	2	1	1	target	1	353	824	193735	13.328	13.087	13.569
ProbeTrack15	9	ProbeTrack	15.0	SCS215a	20120209.122007	20120209.123956	8	0.013328	60	10	60-180	60	107	GapExp	SmallFlash	0	191	2	1	0	distractor	1	416	792	194527	13.328	13.289	13.367
ProbeTrack15	9	ProbeTrack	15.0	SCS215a	20120209.122007	20120209.124002	8	0.013328	60	10	60-180	60	154	GapExp	SmallFlash	0	192	2	1	1	target	1	289	856	195383	13.328	13.306	13.347
ProbeTrack15	9	ProbeTrack	15.0	SCS215a	20120209.122007	20120209.124008	8	0.013328	60	10	60-180	60	64	GapExp	SmallFlash	0	193	2	3	0	distractor	1	415	793	196176	13.328	13.307	13.353
ProbeTrack15	9	ProbeTrack	15.0	SCS215a	20120209.122007	20120209.124013	8	0.013328	60	10	60-180	60	168	GapExp	SmallFlash	0	194	2	30	1	target	1	248	876	197052	13.328	12.873	13.791
ProbeTrack15	9	ProbeTrack	15.0	SCS215a	20120209.122007	20120209.124020	8	0.013328	60	10	60-180	60	86	GapExp	SmallFlash	0	195	2	3	1	target	1	3483	0	197052	13.328	12.877	13.756
ProbeTrack15	9	ProbeTrack	15.0	SCS215a	20120209.122007	20120209.124028	8	0.013328	60	10	60-180	60	76	GapExp	SmallFlash	0	196	2	1	0	distractor	1	606	697	197749	13.328	13.309	13.347
ProbeTrack15	9	ProbeTrack	15.0	SCS215a	20120209.122007	20120209.124036	8	0.013328	60	10	60-180	60	115	GapExp	SmallFlash	0	197	2	0	1	distractor	0	393	-1000	196749	13.328	12.844	13.767
ProbeTrack15	9	ProbeTrack	15.0	SCS215a	20120209.122007	20120209.124042	8	0.013328	60	10	60-180	60	68	GapExp	SmallFlash	0	198	2	3	0	distractor	1	421	790	197539	13.328	13.127	13.670
ProbeTrack15	9	ProbeTrack	15.0	SCS215a	20120209.122007	20120209.124048	8	0.013328	60	10	60-180	60	153	GapExp	SmallFlash	0	199	2	0	0	distractor	1	326	837	198376	13.328	12.920	13.742
ProbeTrack15	9	ProbeTrack	15.0	SCS215a	20120209.122007	20120209.124055	8	0.013328	60	10	60-180	60	149	GapExp	SmallFlash	0	200	2	1	1	target	1	300	850	199226	13.328	12.921	13.756
ProbeTrack15	9	ProbeTrack	15.0	SCS215a	20120209.124230	20120209.124245	8	0.013328	60	10	60-180	60	65	GapPrac	Blank	1	1	2	0	0	distractor	1	563	719	199945	13.396	12.851	13.800
ProbeTrack15	9	ProbeTrack	15.0	SCS215a	20120209.124230	20120209.124252	8	0.013328	60	10	60-180	60	89	GapPrac	Blank	1	2	2	1	1	target	1	313	844	200789	13.329	12.976	13.681
ProbeTrack15	9	ProbeTrack	15.0	SCS215a	20120209.124230	20120209.124258	8	0.013328	60	10	60-180	60	108	GapPrac	Blank	1	3	2	0	1	target	1	275	863	201652	13.328	13.298	13.358
ProbeTrack15	9	ProbeTrack	15.0	SCS215a	20120209.124230	20120209.124303	8	0.013328	60	10	60-180	60	87	GapPrac	Blank	1	4	2	3	1	target	1	282	859	202511	13.328	13.309	13.345
ProbeTrack15	9	ProbeTrack	15.0	SCS215a	20120209.124230	20120209.124308	8	0.013328	60	10	60-180	60	107	GapPrac	Blank	1	5	2	30	1	target	1	303	849	203360	13.328	12.884	13.760
ProbeTrack15	9	ProbeTrack	15.0	SCS215a	20120209.124230	20120209.124314	8	0.013328	60	10	60-180	60	133	GapPrac	Blank	1	6	2	30	1	target	1	293	854	204214	13.328	13.107	13.543
ProbeTrack15	9	ProbeTrack	15.0	SCS215a	20120209.124230	20120209.124320	8	0.013328	60	10	60-180	60	146	GapPrac	Blank	1	7	2	1	0	distractor	1	426	787	205001	13.328	13.112	13.533
ProbeTrack15	9	ProbeTrack	15.0	SCS215a	20120209.124230	20120209.124327	8	0.013328	60	10	60-180	60	96	GapPrac	Blank	1	8	2	3	1	target	1	346	827	205828	13.328	13.309	13.354
ProbeTrack15	9	ProbeTrack	15.0	SCS215a	20120209.124230	20120209.124332	8	0.013328	60	10	60-180	60	163	GapPrac	Blank	1	9	2	0	0	distractor	1	519	741	206569	13.328	12.999	13.651
ProbeTrack15	9	ProbeTrack	15.0	SCS215a	20120209.124230	20120209.124338	8	0.013328	60	10	60-180	60	156	GapPrac	Blank	1	10	2	0	1	target	1	407	797	207366	13.328	13.306	13.346
ProbeTrack15	9	ProbeTrack	15.0	SCS215a	20120209.124230	20120209.124344	8	0.013328	60	10	60-180	60	102	GapPrac	Blank	1	11	2	1	1	target	1	486	757	208123	13.328	13.113	13.534
ProbeTrack15	9	ProbeTrack	15.0	SCS215a	20120209.124230	20120209.124350	8	0.013328	60	10	60-180	60	170	GapPrac	Blank	1	12	2	1	1	target	1	356	822	208945	13.328	12.905	13.751
ProbeTrack15	9	ProbeTrack	15.0	SCS215a	20120209.124230	20120209.124356	8	0.013328	60	10	60-180	60	72	GapPrac	Blank	1	13	2	3	0	distractor	1	629	686	209631	13.328	13.306	13.346
ProbeTrack15	9	ProbeTrack	15.0	SCS215a	20120209.124230	20120209.124402	8	0.013328	60	10	60-180	60	176	GapPrac	Blank	1	14	2	3	0	distractor	1	411	795	210426	13.328	13.005	13.544
ProbeTrack15	9	ProbeTrack	15.0	SCS215a	20120209.124230	20120209.124408	8	0.013328	60	10	60-180	60	172	GapPrac	Blank	1	15	2	0	0	distractor	1	353	824	211250	13.328	12.895	13.785
ProbeTrack15	9	ProbeTrack	15.0	SCS215a	20120209.124230	20120209.124415	8	0.013328	60	10	60-180	60	176	GapPrac	Blank	1	16	2	30	0	distractor	1	388	806	212056	13.328	12.998	13.669
ProbeTrack15	9	ProbeTrack	15.0	SCS215a	20120209.124230	20120209.124421	8	0.013328	60	10	60-180	60	173	GapPrac	Blank	1	17	2	30	0	distractor	1	442	779	212835	13.328	12.934	13.741
ProbeTrack15	9	ProbeTrack	15.0	SCS215a	20120209.124230	20120209.124428	8	0.013328	60	10	60-180	60	89	GapPrac	Blank	1	18	2	0	1	target	1	381	810	213645	13.328	13.280	13.385
ProbeTrack15	9	ProbeTrack	15.0	SCS215a	20120209.124230	20120209.124434	8	0.013328	60	10	60-180	60	119	GapPrac	Blank	1	19	2	3	1	target	1	283	859	214504	13.328	12.897	13.768
ProbeTrack15	9	ProbeTrack	15.0	SCS215a	20120209.124230	20120209.124450	8	0.013328	60	10	60-180	60	158	GapPrac	Blank	1	20	2	1	0	distractor	1	300	850	215354	13.328	12.956	13.700
ProbeTrack15	9	ProbeTrack	15.0	SCS215a	20120209.124548	20120209.124555	8	0.013328	60	10	60-180	60	120	GapExp	Blank	1	1	2	0	1	target	1	331	835	216189	13.385	13.092	13.551
ProbeTrack15	9	ProbeTrack	15.0	SCS215a	20120209.124548	20120209.124602	8	0.013328	60	10	60-180	60	171	GapExp	Blank	1	2	2	1	1	target	1	302	849	217038	13.328	12.621	14.053
ProbeTrack15	9	ProbeTrack	15.0	SCS215a	20120209.124548	20120209.124608	8	0.013328	60	10	60-180	60	172	GapExp	Blank	1	3	2	3	0	distractor	1	405	798	217836	13.328	8.245	18.424
ProbeTrack15	9	ProbeTrack	15.0	SCS215a	20120209.124548	20120209.124615	8	0.013328	60	10	60-180	60	78	GapExp	Blank	1	4	2	0	0	distractor	1	797	602	218438	13.328	13.096	13.560
ProbeTrack15	9	ProbeTrack	15.0	SCS215a	20120209.124548	20120209.124620	8	0.013328	60	10	60-180	60	180	GapExp	Blank	1	5	2	3	1	target	1	350	825	219263	13.328	13.214	13.455
ProbeTrack15	9	ProbeTrack	15.0	SCS215a	20120209.124548	20120209.124627	8	0.013328	60	10	60-180	60	158	GapExp	Blank	1	6	2	30	0	distractor	1	349	826	220089	13.328	11.747	14.903
ProbeTrack15	9	ProbeTrack	15.0	SCS215a	20120209.124548	20120209.124634	8	0.013328	60	10	60-180	60	115	GapExp	Blank	1	7	2	1	0	distractor	1	469	766	220855	13.328	13.308	13.348
ProbeTrack15	9	ProbeTrack	15.0	SCS215a	20120209.124548	20120209.124639	8	0.013328	60	10	60-180	60	92	GapExp	Blank	1	8	2	30	1	target	1	315	843	221698	13.328	8.581	18.063
ProbeTrack15	9	ProbeTrack	15.0	SCS215a	20120209.124548	20120209.124645	8	0.013328	60	10	60-180	60	169	GapExp	Blank	0	9	2	30	1	target	1	271	865	222563	13.328	12.398	14.257
ProbeTrack15	9	ProbeTrack	15.0	SCS215a	20120209.124548	20120209.124652	8	0.013328	60	10	60-180	60	72	GapExp	Blank	0	10	2	1	0	distractor	1	332	834	223397	13.328	13.094	13.555
ProbeTrack15	9	ProbeTrack	15.0	SCS215a	20120209.124548	20120209.124657	8	0.013328	60	10	60-180	60	122	GapExp	Blank	0	11	2	3	1	target	1	284	858	224255	13.328	10.503	16.151
ProbeTrack15	9	ProbeTrack	15.0	SCS215a	20120209.124548	20120209.124702	8	0.013328	60	10	60-180	60	159	GapExp	Blank	0	12	2	3	1	target	1	274	863	225118	13.328	11.812	14.850
ProbeTrack15	9	ProbeTrack	15.0	SCS215a	20120209.124548	20120209.124709	8	0.013328	60	10	60-180	60	88	GapExp	Blank	0	13	2	30	1	target	1	300	850	225968	13.328	5.505	21.137
ProbeTrack15	9	ProbeTrack	15.0	SCS215a	20120209.124548	20120209.124714	8	0.013328	60	10	60-180	60	100	GapExp	Blank	0	14	2	1	1	target	1	374	813	226781	13.328	9.393	17.258
ProbeTrack15	9	ProbeTrack	15.0	SCS215a	20120209.124548	20120209.124720	8	0.013328	60	10	60-180	60	138	GapExp	Blank	0	15	2	30	0	distractor	1	300	850	227631	13.328	11.012	15.638
ProbeTrack15	9	ProbeTrack	15.0	SCS215a	20120209.124548	20120209.124726	8	0.013328	60	10	60-180	60	78	GapExp	Blank	0	16	2	3	1	target	1	324	838	228469	13.328	13.304	13.352
ProbeTrack15	9	ProbeTrack	15.0	SCS215a	20120209.124548	20120209.124731	8	0.013328	60	10	60-180	60	126	GapExp	Blank	0	17	2	3	1	target	1	303	849	229318	13.328	13.283	13.378
ProbeTrack15	9	ProbeTrack	15.0	SCS215a	20120209.124548	20120209.124737	8	0.013328	60	10	60-180	60	148	GapExp	Blank	0	18	2	30	1	target	1	264	868	230186	13.328	13.294	13.355
ProbeTrack15	9	ProbeTrack	15.0	SCS215a	20120209.124548	20120209.124743	8	0.013328	60	10	60-180	60	165	GapExp	Blank	0	19	2	3	0	distractor	1	388	806	230992	13.328	10.379	16.278
ProbeTrack15	9	ProbeTrack	15.0	SCS215a	20120209.124548	20120209.124750	8	0.013328	60	10	60-180	60	64	GapExp	Blank	0	20	2	1	1	distractor	0	359	-1000	229992	13.328	8.871	17.792
ProbeTrack15	9	ProbeTrack	15.0	SCS215a	20120209.124548	20120209.124756	8	0.013328	60	10	60-180	60	111	GapExp	Blank	0	21	2	30	1	target	1	315	843	230835	13.328	13.093	13.556
ProbeTrack15	9	ProbeTrack	15.0	SCS215a	20120209.124548	20120209.124803	8	0.013328	60	10	60-180	60	83	GapExp	Blank	0	22	2	30	0	distractor	1	572	714	231549	13.328	13.111	13.552
ProbeTrack15	9	ProbeTrack	15.0	SCS215a	20120209.124548	20120209.124808	8	0.013328	60	10	60-180	60	156	GapExp	Blank	0	23	2	30	1	target	1	300	850	232399	13.328	13.085	13.559
ProbeTrack15	9	ProbeTrack	15.0	SCS215a	20120209.124548	20120209.124815	8	0.013328	60	10	60-180	60	82	GapExp	Blank	0	24	2	0	0	distractor	1	557	722	233121	13.328	13.277	13.374
ProbeTrack15	9	ProbeTrack	15.0	SCS215a	20120209.124548	20120209.124821	8	0.013328	60	10	60-180	60	135	GapExp	Blank	0	25	2	1	1	target	1	376	812	233933	13.328	13.307	13.353
ProbeTrack15	9	ProbeTrack	15.0	SCS215a	20120209.124548	20120209.124827	8	0.013328	60	10	60-180	60	118	GapExp	Blank	0	26	2	0	1	target	1	371	815	234748	13.328	11.074	15.576
ProbeTrack15	9	ProbeTrack	15.0	SCS215a	20120209.124548	20120209.124832	8	0.013328	60	10	60-180	60	142	GapExp	Blank	0	27	2	3	0	distractor	1	407	797	235545	13.328	13.308	13.349
ProbeTrack15	9	ProbeTrack	15.0	SCS215a	20120209.124548	20120209.124839	8	0.013328	60	10	60-180	60	75	GapExp	Blank	0	28	2	3	1	target	1	448	776	236321	13.328	13.086	13.571
ProbeTrack15	9	ProbeTrack	15.0	SCS215a	20120209.124548	20120209.124844	8	0.013328	60	10	60-180	60	74	GapExp	Blank	0	29	2	30	1	target	1	305	848	237169	13.328	13.103	13.552
ProbeTrack15	9	ProbeTrack	15.0	SCS215a	20120209.124548	20120209.124850	8	0.013328	60	10	60-180	60	158	GapExp	Blank	0	30	2	1	0	distractor	1	396	802	237971	13.328	6.005	20.643
ProbeTrack15	9	ProbeTrack	15.0	SCS215a	20120209.124548	20120209.124856	8	0.013328	60	10	60-180	60	115	GapExp	Blank	0	31	2	0	0	distractor	1	438	781	238752	13.328	10.756	15.893
ProbeTrack15	9	ProbeTrack	15.0	SCS215a	20120209.124548	20120209.124902	8	0.013328	60	10	60-180	60	116	GapExp	Blank	0	32	2	0	1	target	1	366	817	239569	13.328	13.291	13.350
ProbeTrack15	9	ProbeTrack	15.0	SCS215a	20120209.124548	20120209.124908	8	0.013328	60	10	60-180	60	88	GapExp	Blank	0	33	2	0	0	distractor	1	486	757	240326	13.328	13.308	13.348
ProbeTrack15	9	ProbeTrack	15.0	SCS215a	20120209.124548	20120209.124913	8	0.013328	60	10	60-180	60	69	GapExp	Blank	0	34	2	0	1	target	1	498	751	241077	13.328	13.090	13.564
ProbeTrack15	9	ProbeTrack	15.0	SCS215a	20120209.124548	20120209.124918	8	0.013328	60	10	60-180	60	85	GapExp	Blank	0	35	2	3	0	distractor	1	385	808	241885	13.328	5.789	20.855
ProbeTrack15	9	ProbeTrack	15.0	SCS215a	20120209.124548	20120209.124924	8	0.013328	60	10	60-180	60	98	GapExp	Blank	0	36	2	1	0	distractor	1	382	809	242694	13.328	10.351	16.311
ProbeTrack15	9	ProbeTrack	15.0	SCS215a	20120209.124548	20120209.124929	8	0.013328	60	10	60-180	60	105	GapExp	Blank	0	37	2	1	1	target	1	370	815	243509	13.328	8.014	18.633
ProbeTrack15	9	ProbeTrack	15.0	SCS215a	20120209.124548	20120209.124935	8	0.013328	60	10	60-180	60	176	GapExp	Blank	0	38	2	0	1	target	1	395	803	244312	13.328	11.649	15.007
ProbeTrack15	9	ProbeTrack	15.0	SCS215a	20120209.124548	20120209.124941	8	0.013328	60	10	60-180	60	66	GapExp	Blank	0	39	2	30	0	distractor	1	347	827	245139	13.328	13.113	13.538
ProbeTrack15	9	ProbeTrack	15.0	SCS215a	20120209.124548	20120209.124947	8	0.013328	60	10	60-180	60	87	GapExp	Blank	0	40	2	1	0	distractor	1	558	721	245860	13.328	13.113	13.556
ProbeTrack15	9	ProbeTrack	15.0	SCS215a	20120209.124548	20120209.124952	8	0.013328	60	10	60-180	60	84	GapExp	Blank	0	41	2	0	0	distractor	1	388	806	246666	13.328	11.615	15.035
ProbeTrack15	9	ProbeTrack	15.0	SCS215a	20120209.124548	20120209.124958	8	0.013328	60	10	60-180	60	92	GapExp	Blank	0	42	2	0	1	target	1	386	807	247473	13.328	13.308	13.346
ProbeTrack15	9	ProbeTrack	15.0	SCS215a	20120209.124548	20120209.125004	8	0.013328	60	10	60-180	60	138	GapExp	Blank	0	43	2	3	1	target	1	353	824	248297	13.328	13.309	13.346
ProbeTrack15	9	ProbeTrack	15.0	SCS215a	20120209.124548	20120209.125010	8	0.013328	60	10	60-180	60	96	GapExp	Blank	0	44	2	3	1	target	1	401	800	249097	13.328	11.752	14.880
ProbeTrack15	9	ProbeTrack	15.0	SCS215a	20120209.124548	20120209.125016	8	0.013328	60	10	60-180	60	95	GapExp	Blank	0	45	2	1	1	distractor	0	316	-1000	248097	13.328	13.099	13.557
ProbeTrack15	9	ProbeTrack	15.0	SCS215a	20120209.124548	20120209.125021	8	0.013328	60	10	60-180	60	96	GapExp	Blank	0	46	2	0	0	distractor	1	369	816	248913	13.328	13.092	13.562
ProbeTrack15	9	ProbeTrack	15.0	SCS215a	20120209.124548	20120209.125027	8	0.013328	60	10	60-180	60	132	GapExp	Blank	0	47	2	0	1	target	1	294	853	249766	13.328	13.107	13.556
ProbeTrack15	9	ProbeTrack	15.0	SCS215a	20120209.124548	20120209.125033	8	0.013328	60	10	60-180	60	131	GapExp	Blank	0	48	2	30	0	distractor	1	384	808	250574	13.328	9.000	17.672
ProbeTrack15	9	ProbeTrack	15.0	SCS215a	20120209.124548	20120209.125039	8	0.013328	60	10	60-180	60	127	GapExp	Blank	0	49	2	3	0	distractor	1	383	809	251383	13.328	13.307	13.348
ProbeTrack15	9	ProbeTrack	15.0	SCS215a	20120209.124548	20120209.125045	8	0.013328	60	10	60-180	60	174	GapExp	Blank	0	50	2	0	0	distractor	1	876	562	251945	13.328	13.304	13.353
ProbeTrack15	9	ProbeTrack	15.0	SCS215a	20120209.124548	20120209.125052	8	0.013328	60	10	60-180	60	76	GapExp	Blank	0	51	2	30	1	target	1	280	860	252805	13.328	12.567	14.250
ProbeTrack15	9	ProbeTrack	15.0	SCS215a	20120209.124548	20120209.125057	8	0.013328	60	10	60-180	60	160	GapExp	Blank	0	52	2	0	0	distractor	1	421	790	253595	13.328	13.096	13.559
ProbeTrack15	9	ProbeTrack	15.0	SCS215a	20120209.124548	20120209.125104	8	0.013328	60	10	60-180	60	179	GapExp	Blank	0	53	2	3	0	distractor	1	423	789	254384	13.328	11.710	14.949
ProbeTrack15	9	ProbeTrack	15.0	SCS215a	20120209.124548	20120209.125111	8	0.013328	60	10	60-180	60	145	GapExp	Blank	0	54	2	1	1	target	1	368	816	255200	13.328	8.654	18.001
ProbeTrack15	9	ProbeTrack	15.0	SCS215a	20120209.124548	20120209.125117	8	0.013328	60	10	60-180	60	169	GapExp	Blank	0	55	2	1	1	target	1	332	834	256034	13.328	10.645	16.018
ProbeTrack15	9	ProbeTrack	15.0	SCS215a	20120209.124548	20120209.125123	8	0.013328	60	10	60-180	60	156	GapExp	Blank	0	56	2	30	0	distractor	1	338	831	256865	13.328	13.093	13.550
ProbeTrack15	9	ProbeTrack	15.0	SCS215a	20120209.124548	20120209.125130	8	0.013328	60	10	60-180	60	90	GapExp	Blank	0	57	2	0	1	target	1	433	784	257649	13.328	10.916	15.747
ProbeTrack15	9	ProbeTrack	15.0	SCS215a	20120209.124548	20120209.125136	8	0.013328	60	10	60-180	60	150	GapExp	Blank	0	58	2	3	0	distractor	1	358	821	258470	13.328	13.238	13.404
ProbeTrack15	9	ProbeTrack	15.0	SCS215a	20120209.124548	20120209.125142	8	0.013328	60	10	60-180	60	107	GapExp	Blank	0	59	2	0	0	distractor	1	643	679	259149	13.328	8.335	18.339
ProbeTrack15	9	ProbeTrack	15.0	SCS215a	20120209.124548	20120209.125148	8	0.013328	60	10	60-180	60	105	GapExp	Blank	0	60	2	3	1	target	1	342	829	259978	13.328	8.416	18.255
ProbeTrack15	9	ProbeTrack	15.0	SCS215a	20120209.124548	20120209.125153	8	0.013328	60	10	60-180	60	137	GapExp	Blank	0	61	2	0	0	distractor	1	368	816	260794	13.328	13.113	13.537
ProbeTrack15	9	ProbeTrack	15.0	SCS215a	20120209.124548	20120209.125159	8	0.013328	60	10	60-180	60	116	GapExp	Blank	0	62	2	30	1	target	1	428	786	261580	13.328	13.118	13.538
ProbeTrack15	9	ProbeTrack	15.0	SCS215a	20120209.124548	20120209.125205	8	0.013328	60	10	60-180	60	75	GapExp	Blank	0	63	2	0	0	distractor	1	417	792	262372	13.328	13.234	13.396
ProbeTrack15	9	ProbeTrack	15.0	SCS215a	20120209.124548	20120209.125211	8	0.013328	60	10	60-180	60	146	GapExp	Blank	0	64	2	30	1	target	1	280	860	263232	13.328	13.293	13.367
ProbeTrack15	9	ProbeTrack	15.0	SCS215a	20120209.124548	20120209.125217	8	0.013328	60	10	60-180	60	140	GapExp	Blank	0	65	2	3	0	distractor	1	426	787	264019	13.328	13.142	13.449
ProbeTrack15	9	ProbeTrack	15.0	SCS215a	20120209.124548	20120209.125223	8	0.013328	60	10	60-180	60	61	GapExp	Blank	0	66	2	3	1	target	1	291	855	264874	13.328	10.007	16.649
ProbeTrack15	9	ProbeTrack	15.0	SCS215a	20120209.124548	20120209.125228	8	0.013328	60	10	60-180	60	130	GapExp	Blank	0	67	2	30	0	distractor	1	394	803	265677	13.328	13.118	13.558
ProbeTrack15	9	ProbeTrack	15.0	SCS215a	20120209.124548	20120209.125234	8	0.013328	60	10	60-180	60	70	GapExp	Blank	0	68	2	30	1	target	1	300	850	266527	13.328	13.109	13.539
ProbeTrack15	9	ProbeTrack	15.0	SCS215a	20120209.124548	20120209.125242	8	0.013328	60	10	60-180	60	104	GapExp	Blank	0	69	2	1	1	target	1	331	835	267362	13.328	13.302	13.346
ProbeTrack15	9	ProbeTrack	15.0	SCS215a	20120209.124548	20120209.125248	8	0.013328	60	10	60-180	60	66	GapExp	Blank	0	70	2	1	1	target	1	449	776	268138	13.328	8.314	18.343
ProbeTrack15	9	ProbeTrack	15.0	SCS215a	20120209.124548	20120209.125253	8	0.013328	60	10	60-180	60	127	GapExp	Blank	0	71	2	3	0	distractor	1	414	793	268931	13.328	11.161	15.978
ProbeTrack15	9	ProbeTrack	15.0	SCS215a	20120209.124548	20120209.125258	8	0.013328	60	10	60-180	60	167	GapExp	Blank	0	72	2	3	0	distractor	1	468	766	269697	13.328	13.303	13.348
ProbeTrack15	9	ProbeTrack	15.0	SCS215a	20120209.124548	20120209.125305	8	0.013328	60	10	60-180	60	96	GapExp	Blank	0	73	2	3	1	target	1	297	852	270549	13.328	13.105	13.542
ProbeTrack15	9	ProbeTrack	15.0	SCS215a	20120209.124548	20120209.125310	8	0.013328	60	10	60-180	60	140	GapExp	Blank	0	74	2	1	0	distractor	1	428	786	271335	13.328	3.383	23.275
ProbeTrack15	9	ProbeTrack	15.0	SCS215a	20120209.124548	20120209.125317	8	0.013328	60	10	60-180	60	162	GapExp	Blank	0	75	2	30	1	target	1	301	850	272185	13.328	8.667	17.990
ProbeTrack15	9	ProbeTrack	15.0	SCS215a	20120209.124548	20120209.125323	8	0.013328	60	10	60-180	60	92	GapExp	Blank	0	76	2	30	0	distractor	1	356	822	273007	13.328	13.098	13.545
ProbeTrack15	9	ProbeTrack	15.0	SCS215a	20120209.124548	20120209.125329	8	0.013328	60	10	60-180	60	132	GapExp	Blank	0	77	2	30	1	target	1	338	831	273838	13.328	13.025	13.624
ProbeTrack15	9	ProbeTrack	15.0	SCS215a	20120209.124548	20120209.125335	8	0.013328	60	10	60-180	60	94	GapExp	Blank	0	78	2	0	0	distractor	1	430	785	274623	13.328	13.294	13.358
ProbeTrack15	9	ProbeTrack	15.0	SCS215a	20120209.124548	20120209.125341	8	0.013328	60	10	60-180	60	130	GapExp	Blank	0	79	2	0	0	distractor	1	446	777	275400	13.328	12.011	14.649
ProbeTrack15	9	ProbeTrack	15.0	SCS215a	20120209.124548	20120209.125347	8	0.013328	60	10	60-180	60	175	GapExp	Blank	0	80	2	0	0	distractor	1	515	743	276143	13.328	7.897	18.691
ProbeTrack15	9	ProbeTrack	15.0	SCS215a	20120209.124548	20120209.125354	8	0.013328	60	10	60-180	60	119	GapExp	Blank	0	81	2	30	1	target	1	276	862	277005	13.328	9.796	16.862
ProbeTrack15	9	ProbeTrack	15.0	SCS215a	20120209.124548	20120209.125400	8	0.013328	60	10	60-180	60	125	GapExp	Blank	0	82	2	30	0	distractor	1	405	798	277803	13.328	12.821	13.629
ProbeTrack15	9	ProbeTrack	15.0	SCS215a	20120209.124548	20120209.125406	8	0.013328	60	10	60-180	60	154	GapExp	Blank	0	83	2	30	1	target	1	519	741	278544	13.328	13.098	13.558
ProbeTrack15	9	ProbeTrack	15.0	SCS215a	20120209.124548	20120209.125413	8	0.013328	60	10	60-180	60	111	GapExp	Blank	0	84	2	3	0	distractor	1	335	833	279377	13.328	12.677	13.985
ProbeTrack15	9	ProbeTrack	15.0	SCS215a	20120209.124548	20120209.125418	8	0.013328	60	10	60-180	60	162	GapExp	Blank	0	85	2	1	0	distractor	1	375	813	280190	13.328	7.080	19.578
ProbeTrack15	9	ProbeTrack	15.0	SCS215a	20120209.124548	20120209.125425	8	0.013328	60	10	60-180	60	131	GapExp	Blank	0	86	2	1	0	distractor	1	412	794	280984	13.328	9.604	17.038
ProbeTrack15	9	ProbeTrack	15.0	SCS215a	20120209.124548	20120209.125431	8	0.013328	60	10	60-180	60	65	GapExp	Blank	0	87	2	30	1	target	1	375	813	281797	13.328	11.249	15.409
ProbeTrack15	9	ProbeTrack	15.0	SCS215a	20120209.124548	20120209.125436	8	0.013328	60	10	60-180	60	133	GapExp	Blank	0	88	2	3	0	distractor	1	355	823	282620	13.328	13.091	13.551
ProbeTrack15	9	ProbeTrack	15.0	SCS215a	20120209.124548	20120209.125442	8	0.013328	60	10	60-180	60	65	GapExp	Blank	0	89	2	3	1	target	1	360	820	283440	13.328	13.105	13.539
ProbeTrack15	9	ProbeTrack	15.0	SCS215a	20120209.124548	20120209.125446	8	0.013328	60	10	60-180	60	80	GapExp	Blank	0	90	2	30	0	distractor	1	346	827	284267	13.328	13.300	13.355
ProbeTrack15	9	ProbeTrack	15.0	SCS215a	20120209.124548	20120209.125452	8	0.013328	60	10	60-180	60	131	GapExp	Blank	0	91	2	30	0	distractor	1	375	813	285080	13.328	10.641	16.017
ProbeTrack15	9	ProbeTrack	15.0	SCS215a	20120209.124548	20120209.125459	8	0.013328	60	10	60-180	60	114	GapExp	Blank	0	92	2	30	1	target	1	315	843	285923	13.328	7.416	19.243
ProbeTrack15	9	ProbeTrack	15.0	SCS215a	20120209.124548	20120209.125505	8	0.013328	60	10	60-180	60	150	GapExp	Blank	0	93	2	0	0	distractor	1	499	751	286674	13.328	11.109	15.533
ProbeTrack15	9	ProbeTrack	15.0	SCS215a	20120209.124548	20120209.125511	8	0.013328	60	10	60-180	60	88	GapExp	Blank	0	94	2	1	0	distractor	1	433	784	287458	13.328	13.101	13.543
ProbeTrack15	9	ProbeTrack	15.0	SCS215a	20120209.124548	20120209.125516	8	0.013328	60	10	60-180	60	66	GapExp	Blank	0	95	2	30	0	distractor	1	394	803	288261	13.328	13.104	13.530
ProbeTrack15	9	ProbeTrack	15.0	SCS215a	20120209.124548	20120209.125521	8	0.013328	60	10	60-180	60	68	GapExp	Blank	0	96	2	0	1	target	1	355	823	289084	13.328	9.955	16.713
ProbeTrack15	9	ProbeTrack	15.0	SCS215a	20120209.124548	20120209.125526	8	0.013328	60	10	60-180	60	96	GapExp	Blank	0	97	2	3	0	distractor	1	696	652	289736	13.328	8.227	18.441
ProbeTrack15	9	ProbeTrack	15.0	SCS215a	20120209.124548	20120209.125533	8	0.013328	60	10	60-180	60	89	GapExp	Blank	0	98	2	30	0	distractor	1	343	829	290565	13.328	11.923	14.729
ProbeTrack15	9	ProbeTrack	15.0	SCS215a	20120209.124548	20120209.125538	8	0.013328	60	10	60-180	60	65	GapExp	Blank	0	99	2	3	1	target	1	360	820	291385	13.328	13.105	13.538
ProbeTrack15	9	ProbeTrack	15.0	SCS215a	20120209.124548	20120209.125544	8	0.013328	60	10	60-180	60	164	GapExp	Blank	0	100	2	3	0	distractor	1	373	814	292199	13.328	13.105	13.551
ProbeTrack15	9	ProbeTrack	15.0	SCS215a	20120209.124548	20120209.125550	8	0.013328	60	10	60-180	60	132	GapExp	Blank	0	101	2	1	0	distractor	1	378	811	293010	13.328	6.315	20.343
ProbeTrack15	9	ProbeTrack	15.0	SCS215a	20120209.124548	20120209.125611	8	0.013328	60	10	60-180	60	80	GapExp	Blank	0	102	2	3	0	distractor	1	375	813	293823	13.328	4.454	22.219
ProbeTrack15	9	ProbeTrack	15.0	SCS215a	20120209.124548	20120209.125616	8	0.013328	60	10	60-180	60	155	GapExp	Blank	0	103	2	0	0	distractor	1	411	795	294618	13.328	13.307	13.346
ProbeTrack15	9	ProbeTrack	15.0	SCS215a	20120209.124548	20120209.125622	8	0.013328	60	10	60-180	60	68	GapExp	Blank	0	104	2	0	1	target	1	552	724	295342	13.328	9.439	17.223
ProbeTrack15	9	ProbeTrack	15.0	SCS215a	20120209.124548	20120209.125627	8	0.013328	60	10	60-180	60	63	GapExp	Blank	0	105	2	30	1	target	1	359	821	296163	13.328	13.307	13.348
ProbeTrack15	9	ProbeTrack	15.0	SCS215a	20120209.124548	20120209.125633	8	0.013328	60	10	60-180	60	175	GapExp	Blank	0	106	2	30	0	distractor	1	397	802	296965	13.328	13.097	13.564
ProbeTrack15	9	ProbeTrack	15.0	SCS215a	20120209.124548	20120209.125640	8	0.013328	60	10	60-180	60	180	GapExp	Blank	0	107	2	1	1	target	1	339	831	297796	13.328	13.308	13.348
ProbeTrack15	9	ProbeTrack	15.0	SCS215a	20120209.124548	20120209.125647	8	0.013328	60	10	60-180	60	142	GapExp	Blank	0	108	2	30	0	distractor	1	342	829	298625	13.328	13.106	13.557
ProbeTrack15	9	ProbeTrack	15.0	SCS215a	20120209.124548	20120209.125654	8	0.013328	60	10	60-180	60	117	GapExp	Blank	0	109	2	3	0	distractor	1	368	816	299441	13.328	8.351	18.315
ProbeTrack15	9	ProbeTrack	15.0	SCS215a	20120209.124548	20120209.125659	8	0.013328	60	10	60-180	60	171	GapExp	Blank	0	110	2	3	0	distractor	1	423	789	300230	13.328	13.098	13.577
ProbeTrack15	9	ProbeTrack	15.0	SCS215a	20120209.124548	20120209.125706	8	0.013328	60	10	60-180	60	68	GapExp	Blank	0	111	2	1	1	target	1	362	819	301049	13.328	11.844	14.817
ProbeTrack15	9	ProbeTrack	15.0	SCS215a	20120209.124548	20120209.125711	8	0.013328	60	10	60-180	60	78	GapExp	Blank	0	112	2	30	1	target	1	263	869	301918	13.328	11.797	14.857
ProbeTrack15	9	ProbeTrack	15.0	SCS215a	20120209.124548	20120209.125716	8	0.013328	60	10	60-180	60	84	GapExp	Blank	0	113	2	1	1	target	1	436	782	302700	13.328	13.115	13.549
ProbeTrack15	9	ProbeTrack	15.0	SCS215a	20120209.124548	20120209.125722	8	0.013328	60	10	60-180	60	147	GapExp	Blank	0	114	2	0	1	target	1	398	801	303501	13.328	13.098	13.551
ProbeTrack15	9	ProbeTrack	15.0	SCS215a	20120209.124548	20120209.125728	8	0.013328	60	10	60-180	60	155	GapExp	Blank	0	115	2	30	1	target	1	403	799	304300	13.328	13.098	13.558
ProbeTrack15	9	ProbeTrack	15.0	SCS215a	20120209.124548	20120209.125735	8	0.013328	60	10	60-180	60	169	GapExp	Blank	0	116	2	3	1	target	1	285	858	305158	13.328	13.083	13.566
ProbeTrack15	9	ProbeTrack	15.0	SCS215a	20120209.124548	20120209.125741	8	0.013328	60	10	60-180	60	157	GapExp	Blank	0	117	2	1	1	target	1	311	845	306003	13.328	13.301	13.352
ProbeTrack15	9	ProbeTrack	15.0	SCS215a	20120209.124548	20120209.125747	8	0.013328	60	10	60-180	60	95	GapExp	Blank	0	118	2	1	1	target	1	287	857	306860	13.328	13.308	13.345
ProbeTrack15	9	ProbeTrack	15.0	SCS215a	20120209.124548	20120209.125753	8	0.013328	60	10	60-180	60	180	GapExp	Blank	0	119	2	1	0	distractor	1	370	815	307675	13.328	13.305	13.355
ProbeTrack15	9	ProbeTrack	15.0	SCS215a	20120209.124548	20120209.125759	8	0.013328	60	10	60-180	60	136	GapExp	Blank	0	120	2	30	0	distractor	1	388	806	308481	13.328	12.399	14.254
ProbeTrack15	9	ProbeTrack	15.0	SCS215a	20120209.124548	20120209.125807	8	0.013328	60	10	60-180	60	144	GapExp	Blank	0	121	2	0	0	distractor	1	316	842	309323	13.328	13.309	13.348
ProbeTrack15	9	ProbeTrack	15.0	SCS215a	20120209.124548	20120209.125813	8	0.013328	60	10	60-180	60	133	GapExp	Blank	0	122	2	0	1	target	1	283	859	310182	13.328	8.190	18.463
ProbeTrack15	9	ProbeTrack	15.0	SCS215a	20120209.124548	20120209.125819	8	0.013328	60	10	60-180	60	114	GapExp	Blank	0	123	2	0	0	distractor	1	393	804	310986	13.328	5.593	21.063
ProbeTrack15	9	ProbeTrack	15.0	SCS215a	20120209.124548	20120209.125825	8	0.013328	60	10	60-180	60	146	GapExp	Blank	0	124	2	3	0	distractor	1	324	838	311824	13.328	7.666	18.991
ProbeTrack15	9	ProbeTrack	15.0	SCS215a	20120209.124548	20120209.125832	8	0.013328	60	10	60-180	60	113	GapExp	Blank	0	125	2	1	1	target	1	326	837	312661	13.328	10.966	15.676
ProbeTrack15	9	ProbeTrack	15.0	SCS215a	20120209.124548	20120209.125838	8	0.013328	60	10	60-180	60	174	GapExp	Blank	0	126	2	30	1	target	1	360	820	313481	13.328	9.346	17.308
ProbeTrack15	9	ProbeTrack	15.0	SCS215a	20120209.124548	20120209.125848	8	0.013328	60	10	60-180	60	144	GapExp	Blank	0	127	2	3	1	target	1	332	834	314315	13.328	13.308	13.345
ProbeTrack15	9	ProbeTrack	15.0	SCS215a	20120209.124548	20120209.125854	8	0.013328	60	10	60-180	60	169	GapExp	Blank	0	128	2	1	0	distractor	1	345	828	315143	13.328	10.067	16.570
ProbeTrack15	9	ProbeTrack	15.0	SCS215a	20120209.124548	20120209.125901	8	0.013328	60	10	60-180	60	96	GapExp	Blank	0	129	2	1	0	distractor	1	401	800	315943	13.328	13.099	13.557
ProbeTrack15	9	ProbeTrack	15.0	SCS215a	20120209.124548	20120209.125907	8	0.013328	60	10	60-180	60	164	GapExp	Blank	0	130	2	30	0	distractor	1	326	837	316780	13.328	13.085	13.564
ProbeTrack15	9	ProbeTrack	15.0	SCS215a	20120209.124548	20120209.125913	8	0.013328	60	10	60-180	60	76	GapExp	Blank	0	131	2	1	0	distractor	1	391	805	317585	13.328	13.091	13.557
ProbeTrack15	9	ProbeTrack	15.0	SCS215a	20120209.124548	20120209.125919	8	0.013328	60	10	60-180	60	105	GapExp	Blank	0	132	2	30	0	distractor	1	374	813	318398	13.328	13.303	13.348
ProbeTrack15	9	ProbeTrack	15.0	SCS215a	20120209.124548	20120209.125924	8	0.013328	60	10	60-180	60	102	GapExp	Blank	0	133	2	0	1	target	1	361	820	319218	13.328	7.116	19.541
ProbeTrack15	9	ProbeTrack	15.0	SCS215a	20120209.124548	20120209.125930	8	0.013328	60	10	60-180	60	106	GapExp	Blank	0	134	2	0	1	target	1	368	816	320034	13.328	12.936	13.713
ProbeTrack15	9	ProbeTrack	15.0	SCS215a	20120209.124548	20120209.125936	8	0.013328	60	10	60-180	60	98	GapExp	Blank	0	135	2	1	0	distractor	1	491	755	320789	13.328	13.093	13.564
ProbeTrack15	9	ProbeTrack	15.0	SCS215a	20120209.124548	20120209.125942	8	0.013328	60	10	60-180	60	142	GapExp	Blank	0	136	2	3	0	distractor	1	333	834	321623	13.328	13.091	13.571
ProbeTrack15	9	ProbeTrack	15.0	SCS215a	20120209.124548	20120209.125948	8	0.013328	60	10	60-180	60	95	GapExp	Blank	0	137	2	1	1	target	1	380	810	322433	13.328	13.308	13.345
ProbeTrack15	9	ProbeTrack	15.0	SCS215a	20120209.124548	20120209.125953	8	0.013328	60	10	60-180	60	125	GapExp	Blank	0	138	2	3	0	distractor	1	421	790	323223	13.328	13.307	13.348
ProbeTrack15	9	ProbeTrack	15.0	SCS215a	20120209.124548	20120209.125959	8	0.013328	60	10	60-180	60	134	GapExp	Blank	0	139	2	30	0	distractor	1	406	797	324020	13.328	7.880	18.775
ProbeTrack15	9	ProbeTrack	15.0	SCS215a	20120209.124548	20120209.130005	8	0.013328	60	10	60-180	60	115	GapExp	Blank	0	140	2	3	0	distractor	1	380	810	324830	13.328	13.286	13.354
ProbeTrack15	9	ProbeTrack	15.0	SCS215a	20120209.124548	20120209.130011	8	0.013328	60	10	60-180	60	142	GapExp	Blank	0	141	2	3	1	target	1	295	853	325683	13.328	11.499	15.152
ProbeTrack15	9	ProbeTrack	15.0	SCS215a	20120209.124548	20120209.130017	8	0.013328	60	10	60-180	60	66	GapExp	Blank	0	142	2	0	1	target	1	372	814	326497	13.328	13.096	13.545
ProbeTrack15	9	ProbeTrack	15.0	SCS215a	20120209.124548	20120209.130022	8	0.013328	60	10	60-180	60	121	GapExp	Blank	0	143	2	3	1	target	1	260	870	327367	13.328	13.302	13.352
ProbeTrack15	9	ProbeTrack	15.0	SCS215a	20120209.124548	20120209.130028	8	0.013328	60	10	60-180	60	145	GapExp	Blank	0	144	2	30	1	target	1	261	870	328237	13.328	13.306	13.348
ProbeTrack15	9	ProbeTrack	15.0	SCS215a	20120209.124548	20120209.130034	8	0.013328	60	10	60-180	60	128	GapExp	Blank	0	145	2	1	0	distractor	1	418	791	329028	13.328	13.234	13.415
ProbeTrack15	9	ProbeTrack	15.0	SCS215a	20120209.124548	20120209.130040	8	0.013328	60	10	60-180	60	147	GapExp	Blank	0	146	2	0	1	target	1	351	825	329853	13.328	13.300	13.357
ProbeTrack15	9	ProbeTrack	15.0	SCS215a	20120209.124548	20120209.130047	8	0.013328	60	10	60-180	60	175	GapExp	Blank	0	147	2	1	0	distractor	1	393	804	330657	13.328	13.098	13.550
ProbeTrack15	9	ProbeTrack	15.0	SCS215a	20120209.124548	20120209.130053	8	0.013328	60	10	60-180	60	72	GapExp	Blank	0	148	2	1	1	target	1	301	850	331507	13.328	13.105	13.550
ProbeTrack15	9	ProbeTrack	15.0	SCS215a	20120209.124548	20120209.130058	8	0.013328	60	10	60-180	60	150	GapExp	Blank	0	149	2	30	0	distractor	1	327	837	332344	13.328	10.963	15.678
ProbeTrack15	9	ProbeTrack	15.0	SCS215a	20120209.124548	20120209.130104	8	0.013328	60	10	60-180	60	78	GapExp	Blank	0	150	2	1	1	target	1	323	839	333183	13.328	12.780	13.884
ProbeTrack15	9	ProbeTrack	15.0	SCS215a	20120209.124548	20120209.130109	8	0.013328	60	10	60-180	60	167	GapExp	Blank	0	151	2	0	0	distractor	1	350	825	334008	13.328	10.435	16.220
ProbeTrack15	9	ProbeTrack	15.0	SCS215a	20120209.124548	20120209.130126	8	0.013328	60	10	60-180	60	109	GapExp	Blank	0	152	2	0	1	target	1	328	836	334844	13.328	11.672	14.987
ProbeTrack15	9	ProbeTrack	15.0	SCS215a	20120209.124548	20120209.130131	8	0.013328	60	10	60-180	60	109	GapExp	Blank	0	153	2	3	1	target	1	330	835	335679	13.328	6.971	19.684
ProbeTrack15	9	ProbeTrack	15.0	SCS215a	20120209.124548	20120209.130137	8	0.013328	60	10	60-180	60	166	GapExp	Blank	0	154	2	0	1	target	1	275	863	336542	13.328	13.308	13.348
ProbeTrack15	9	ProbeTrack	15.0	SCS215a	20120209.124548	20120209.130143	8	0.013328	60	10	60-180	60	100	GapExp	Blank	0	155	2	1	1	target	1	348	826	337368	13.328	13.112	13.345
ProbeTrack15	9	ProbeTrack	15.0	SCS215a	20120209.124548	20120209.130148	8	0.013328	60	10	60-180	60	135	GapExp	Blank	0	156	2	3	1	target	1	317	842	338210	13.328	13.309	13.348
ProbeTrack15	9	ProbeTrack	15.0	SCS215a	20120209.124548	20120209.130158	8	0.013328	60	10	60-180	60	171	GapExp	Blank	0	157	2	3	1	target	1	275	863	339073	13.328	13.309	13.349
ProbeTrack15	9	ProbeTrack	15.0	SCS215a	20120209.124548	20120209.130204	8	0.013328	60	10	60-180	60	175	GapExp	Blank	0	158	2	3	0	distractor	1	374	813	339886	13.328	5.122	21.544
ProbeTrack15	9	ProbeTrack	15.0	SCS215a	20120209.124548	20120209.130210	8	0.013328	60	10	60-180	60	171	GapExp	Blank	0	159	2	1	0	distractor	1	361	820	340706	13.328	13.295	13.355
ProbeTrack15	9	ProbeTrack	15.0	SCS215a	20120209.124548	20120209.130217	8	0.013328	60	10	60-180	60	136	GapExp	Blank	0	160	2	3	0	distractor	1	438	781	341487	13.328	13.098	13.548
ProbeTrack15	9	ProbeTrack	15.0	SCS215a	20120209.124548	20120209.130223	8	0.013328	60	10	60-180	60	76	GapExp	Blank	0	161	2	0	0	distractor	1	411	795	342282	13.328	13.105	13.551
ProbeTrack15	9	ProbeTrack	15.0	SCS215a	20120209.124548	20120209.130228	8	0.013328	60	10	60-180	60	127	GapExp	Blank	0	162	2	30	0	distractor	1	407	797	343079	13.328	10.816	15.831
ProbeTrack15	9	ProbeTrack	15.0	SCS215a	20120209.124548	20120209.130234	8	0.013328	60	10	60-180	60	84	GapExp	Blank	0	163	2	0	0	distractor	1	349	826	343905	13.328	13.309	13.349
ProbeTrack15	9	ProbeTrack	15.0	SCS215a	20120209.124548	20120209.130240	8	0.013328	60	10	60-180	60	125	GapExp	Blank	0	164	2	0	0	distractor	1	351	825	344730	13.328	13.308	13.348
ProbeTrack15	9	ProbeTrack	15.0	SCS215a	20120209.124548	20120209.130245	8	0.013328	60	10	60-180	60	96	GapExp	Blank	0	165	2	1	0	distractor	1	395	803	345533	13.328	13.303	13.348
ProbeTrack15	9	ProbeTrack	15.0	SCS215a	20120209.124548	20120209.130251	8	0.013328	60	10	60-180	60	62	GapExp	Blank	0	166	2	0	0	distractor	1	402	799	346332	13.328	13.067	13.613
ProbeTrack15	9	ProbeTrack	15.0	SCS215a	20120209.124548	20120209.130256	8	0.013328	60	10	60-180	60	180	GapExp	Blank	0	167	2	0	1	target	1	282	859	347191	13.328	13.309	13.346
ProbeTrack15	9	ProbeTrack	15.0	SCS215a	20120209.124548	20120209.130302	8	0.013328	60	10	60-180	60	97	GapExp	Blank	0	168	2	0	1	target	1	281	860	348051	13.328	11.612	15.063
ProbeTrack15	9	ProbeTrack	15.0	SCS215a	20120209.124548	20120209.130308	8	0.013328	60	10	60-180	60	70	GapExp	Blank	0	169	2	0	1	target	1	255	873	348924	13.328	13.308	13.346
ProbeTrack15	9	ProbeTrack	15.0	SCS215a	20120209.124548	20120209.130313	8	0.013328	60	10	60-180	60	132	GapExp	Blank	0	170	2	3	1	target	1	465	768	349692	13.328	13.092	13.558
ProbeTrack15	9	ProbeTrack	15.0	SCS215a	20120209.124548	20120209.130318	8	0.013328	60	10	60-180	60	89	GapExp	Blank	0	171	2	1	0	distractor	1	390	805	350497	13.328	13.308	13.348
ProbeTrack15	9	ProbeTrack	15.0	SCS215a	20120209.124548	20120209.130324	8	0.013328	60	10	60-180	60	66	GapExp	Blank	0	172	2	0	1	target	1	316	842	351339	13.328	10.623	16.037
ProbeTrack15	9	ProbeTrack	15.0	SCS215a	20120209.124548	20120209.130330	8	0.013328	60	10	60-180	60	106	GapExp	Blank	0	173	2	3	1	target	1	309	846	352185	13.328	13.307	13.361
ProbeTrack15	9	ProbeTrack	15.0	SCS215a	20120209.124548	20120209.130336	8	0.013328	60	10	60-180	60	83	GapExp	Blank	0	174	2	1	0	distractor	1	657	672	352857	13.328	13.308	13.351
ProbeTrack15	9	ProbeTrack	15.0	SCS215a	20120209.124548	20120209.130342	8	0.013328	60	10	60-180	60	77	GapExp	Blank	0	175	2	30	0	distractor	1	308	846	353703	13.328	12.141	14.531
ProbeTrack15	9	ProbeTrack	15.0	SCS215a	20120209.124548	20120209.130348	8	0.013328	60	10	60-180	60	168	GapExp	Blank	0	176	2	3	0	distractor	1	364	818	354521	13.328	13.109	13.545
ProbeTrack15	9	ProbeTrack	15.0	SCS215a	20120209.124548	20120209.130355	8	0.013328	60	10	60-180	60	141	GapExp	Blank	0	177	2	1	0	distractor	1	404	798	355319	13.328	6.752	19.898
ProbeTrack15	9	ProbeTrack	15.0	SCS215a	20120209.124548	20120209.130401	8	0.013328	60	10	60-180	60	124	GapExp	Blank	0	178	2	1	1	target	1	379	811	356130	13.328	13.098	13.544
ProbeTrack15	9	ProbeTrack	15.0	SCS215a	20120209.124548	20120209.130407	8	0.013328	60	10	60-180	60	123	GapExp	Blank	0	179	2	3	0	distractor	1	371	815	356945	13.328	9.605	17.051
ProbeTrack15	9	ProbeTrack	15.0	SCS215a	20120209.124548	20120209.130413	8	0.013328	60	10	60-180	60	151	GapExp	Blank	0	180	2	1	1	target	1	340	830	357775	13.328	7.888	18.773
ProbeTrack15	9	ProbeTrack	15.0	SCS215a	20120209.124548	20120209.130419	8	0.013328	60	10	60-180	60	141	GapExp	Blank	0	181	2	0	0	distractor	1	411	795	358570	13.328	13.307	13.350
ProbeTrack15	9	ProbeTrack	15.0	SCS215a	20120209.124548	20120209.130425	8	0.013328	60	10	60-180	60	169	GapExp	Blank	0	182	2	30	0	distractor	1	340	830	359400	13.328	11.755	14.901
ProbeTrack15	9	ProbeTrack	15.0	SCS215a	20120209.124548	20120209.130431	8	0.013328	60	10	60-180	60	169	GapExp	Blank	0	183	2	1	0	distractor	1	354	823	360223	13.328	13.309	13.349
ProbeTrack15	9	ProbeTrack	15.0	SCS215a	20120209.124548	20120209.130438	8	0.013328	60	10	60-180	60	71	GapExp	Blank	0	184	2	1	0	distractor	1	324	838	361061	13.328	13.201	13.472
ProbeTrack15	9	ProbeTrack	15.0	SCS215a	20120209.124548	20120209.130443	8	0.013328	60	10	60-180	60	76	GapExp	Blank	0	185	2	3	1	target	1	505	748	361809	13.328	13.098	13.565
ProbeTrack15	9	ProbeTrack	15.0	SCS215a	20120209.124548	20120209.130448	8	0.013328	60	10	60-180	60	99	GapExp	Blank	0	186	2	30	1	target	1	330	835	362644	13.328	10.625	16.037
ProbeTrack15	9	ProbeTrack	15.0	SCS215a	20120209.124548	20120209.130454	8	0.013328	60	10	60-180	60	125	GapExp	Blank	0	187	2	0	1	target	1	365	818	363462	13.328	12.982	13.674
ProbeTrack15	9	ProbeTrack	15.0	SCS215a	20120209.124548	20120209.130500	8	0.013328	60	10	60-180	60	154	GapExp	Blank	0	188	2	1	1	target	1	323	839	364301	13.328	13.307	13.349
ProbeTrack15	9	ProbeTrack	15.0	SCS215a	20120209.124548	20120209.130506	8	0.013328	60	10	60-180	60	132	GapExp	Blank	0	189	2	30	1	target	1	392	804	365105	13.328	7.561	19.093
ProbeTrack15	9	ProbeTrack	15.0	SCS215a	20120209.124548	20120209.130513	8	0.013328	60	10	60-180	60	114	GapExp	Blank	0	190	2	30	0	distractor	1	343	829	365934	13.328	3.037	23.629
ProbeTrack15	9	ProbeTrack	15.0	SCS215a	20120209.124548	20120209.130519	8	0.013328	60	10	60-180	60	92	GapExp	Blank	0	191	2	1	0	distractor	1	515	743	366677	13.328	9.186	17.475
ProbeTrack15	9	ProbeTrack	15.0	SCS215a	20120209.124548	20120209.130525	8	0.013328	60	10	60-180	60	144	GapExp	Blank	0	192	2	30	0	distractor	1	422	789	367466	13.328	9.956	16.706
ProbeTrack15	9	ProbeTrack	15.0	SCS215a	20120209.124548	20120209.130531	8	0.013328	60	10	60-180	60	112	GapExp	Blank	0	193	2	0	0	distractor	1	489	756	368222	13.328	13.305	13.350
ProbeTrack15	9	ProbeTrack	15.0	SCS215a	20120209.124548	20120209.130537	8	0.013328	60	10	60-180	60	72	GapExp	Blank	0	194	2	30	1	target	1	275	863	369085	13.328	13.307	13.349
ProbeTrack15	9	ProbeTrack	15.0	SCS215a	20120209.124548	20120209.130542	8	0.013328	60	10	60-180	60	165	GapExp	Blank	0	195	2	0	1	target	1	376	812	369897	13.328	12.747	13.909
ProbeTrack15	9	ProbeTrack	15.0	SCS215a	20120209.124548	20120209.130549	8	0.013328	60	10	60-180	60	141	GapExp	Blank	0	196	2	1	1	target	1	295	853	370750	13.328	11.280	15.372
ProbeTrack15	9	ProbeTrack	15.0	SCS215a	20120209.124548	20120209.130555	8	0.013328	60	10	60-180	60	129	GapExp	Blank	0	197	2	3	1	target	1	328	836	371586	13.328	13.279	13.385
ProbeTrack15	9	ProbeTrack	15.0	SCS215a	20120209.124548	20120209.130601	8	0.013328	60	10	60-180	60	94	GapExp	Blank	0	198	2	1	1	target	1	317	842	372428	13.328	13.106	13.546
ProbeTrack15	9	ProbeTrack	15.0	SCS215a	20120209.124548	20120209.130607	8	0.013328	60	10	60-180	60	103	GapExp	Blank	0	199	2	0	1	target	1	383	809	373237	13.328	7.962	18.700
ProbeTrack15	9	ProbeTrack	15.0	SCS215a	20120209.124548	20120209.130612	8	0.013328	60	10	60-180	60	137	GapExp	Blank	0	200	2	3	1	target	1	445	778	374015	13.328	13.103	13.550
ProbeTrack15	9	ProbeTrack	15.0	SCS215a	20120209.130726	20120209.130737	8	0.013327	60	10	60-180	60	118	GapPrac	BigFlash	1	1	2	3	1	target	1	742	629	374644	13.378	13.105	13.558
ProbeTrack15	9	ProbeTrack	15.0	SCS215a	20120209.130726	20120209.130744	8	0.013327	60	10	60-180	60	73	GapPrac	BigFlash	1	2	2	30	1	target	1	265	868	375512	13.328	11.909	14.734
ProbeTrack15	9	ProbeTrack	15.0	SCS215a	20120209.130726	20120209.130750	8	0.013327	60	10	60-180	60	178	GapPrac	BigFlash	1	3	2	1	1	target	1	426	787	376299	13.328	9.921	16.738
ProbeTrack15	9	ProbeTrack	15.0	SCS215a	20120209.130726	20120209.130756	8	0.013327	60	10	60-180	60	164	GapPrac	BigFlash	1	4	2	0	1	target	1	370	815	377114	13.328	7.966	18.693
ProbeTrack15	9	ProbeTrack	15.0	SCS215a	20120209.130726	20120209.130803	8	0.013327	60	10	60-180	60	82	GapPrac	BigFlash	1	5	2	1	1	target	1	349	826	377940	13.328	10.293	16.367
ProbeTrack15	9	ProbeTrack	15.0	SCS215a	20120209.130726	20120209.130808	8	0.013327	60	10	60-180	60	92	GapPrac	BigFlash	1	6	2	30	0	distractor	1	291	855	378795	13.328	13.104	13.542
ProbeTrack15	9	ProbeTrack	15.0	SCS215a	20120209.130726	20120209.130813	8	0.013327	60	10	60-180	60	70	GapPrac	BigFlash	1	7	2	3	1	target	1	437	782	379577	13.328	8.886	17.757
ProbeTrack15	9	ProbeTrack	15.0	SCS215a	20120209.130726	20120209.130819	8	0.013327	60	10	60-180	60	152	GapPrac	BigFlash	1	8	2	3	0	distractor	1	477	762	380339	13.328	7.346	19.315
ProbeTrack15	9	ProbeTrack	15.0	SCS215a	20120209.130726	20120209.130825	8	0.013327	60	10	60-180	60	99	GapPrac	BigFlash	1	9	2	30	0	distractor	1	375	813	381152	13.328	12.859	13.796
ProbeTrack15	9	ProbeTrack	15.0	SCS215a	20120209.130726	20120209.130831	8	0.013327	60	10	60-180	60	158	GapPrac	BigFlash	1	10	2	0	1	target	1	315	843	381995	13.328	13.307	13.346
ProbeTrack15	9	ProbeTrack	15.0	SCS215a	20120209.130726	20120209.130837	8	0.013327	60	10	60-180	60	163	GapPrac	BigFlash	1	11	2	30	1	target	1	297	852	382847	13.328	12.192	14.456
ProbeTrack15	9	ProbeTrack	15.0	SCS215a	20120209.130726	20120209.130844	8	0.013327	60	10	60-180	60	113	GapPrac	BigFlash	1	12	2	0	1	target	1	311	845	383692	13.328	12.597	14.052
ProbeTrack15	9	ProbeTrack	15.0	SCS215a	20120209.130726	20120209.130850	8	0.013327	60	10	60-180	60	121	GapPrac	BigFlash	1	13	2	1	1	target	1	299	851	384543	13.328	13.307	13.345
ProbeTrack15	9	ProbeTrack	15.0	SCS215a	20120209.130726	20120209.130855	8	0.013327	60	10	60-180	60	144	GapPrac	BigFlash	1	14	2	0	0	distractor	1	412	794	385337	13.328	5.706	20.973
ProbeTrack15	9	ProbeTrack	15.0	SCS215a	20120209.130726	20120209.130901	8	0.013327	60	10	60-180	60	122	GapPrac	BigFlash	1	15	2	1	0	distractor	1	705	648	385985	13.328	9.643	17.013
ProbeTrack15	9	ProbeTrack	15.0	SCS215a	20120209.130726	20120209.130907	8	0.013327	60	10	60-180	60	140	GapPrac	BigFlash	1	16	2	3	1	target	1	413	794	386779	13.328	13.297	13.347
ProbeTrack15	9	ProbeTrack	15.0	SCS215a	20120209.130726	20120209.130913	8	0.013327	60	10	60-180	60	98	GapPrac	BigFlash	1	17	2	3	0	distractor	1	404	798	387577	13.328	13.305	13.353
ProbeTrack15	9	ProbeTrack	15.0	SCS215a	20120209.130726	20120209.130919	8	0.013327	60	10	60-180	60	124	GapPrac	BigFlash	1	18	2	0	0	distractor	1	422	789	388366	13.328	13.306	13.345
ProbeTrack15	9	ProbeTrack	15.0	SCS215a	20120209.130726	20120209.130926	8	0.013327	60	10	60-180	60	135	GapPrac	BigFlash	1	19	2	1	0	distractor	1	453	774	389140	13.328	12.788	13.856
ProbeTrack15	9	ProbeTrack	15.0	SCS215a	20120209.130726	20120209.130932	8	0.013327	60	10	60-180	60	151	GapPrac	BigFlash	1	20	2	30	1	target	1	402	799	389939	13.328	13.069	13.553
ProbeTrack15	9	ProbeTrack	15.0	SCS215a	20120209.131009	20120209.131035	8	0.013320	60	10	60-180	60	85	GapExp	BigFlash	1	1	2	1	1	target	1	371	815	390754	13.394	13.307	13.348
ProbeTrack15	9	ProbeTrack	15.0	SCS215a	20120209.131009	20120209.131041	8	0.013320	60	10	60-180	60	135	GapExp	BigFlash	1	2	2	0	0	distractor	1	446	777	391531	13.328	13.109	13.554
ProbeTrack15	9	ProbeTrack	15.0	SCS215a	20120209.131009	20120209.131047	8	0.013320	60	10	60-180	60	145	GapExp	BigFlash	1	3	2	1	0	distractor	1	385	808	392339	13.328	11.970	14.679
ProbeTrack15	9	ProbeTrack	15.0	SCS215a	20120209.131009	20120209.131053	8	0.013320	60	10	60-180	60	87	GapExp	BigFlash	1	4	2	0	1	target	1	290	855	393194	13.328	12.415	14.240
ProbeTrack15	9	ProbeTrack	15.0	SCS215a	20120209.131009	20120209.131059	8	0.013320	60	10	60-180	60	152	GapExp	BigFlash	1	5	2	30	1	target	1	265	868	394062	13.328	13.304	13.351
ProbeTrack15	9	ProbeTrack	15.0	SCS215a	20120209.131009	20120209.131105	8	0.013320	60	10	60-180	60	166	GapExp	BigFlash	1	6	2	3	1	target	1	298	851	394913	13.328	6.332	20.324
ProbeTrack15	9	ProbeTrack	15.0	SCS215a	20120209.131009	20120209.131112	8	0.013320	60	10	60-180	60	102	GapExp	BigFlash	1	7	2	30	0	distractor	1	336	832	395745	13.328	11.642	15.008
ProbeTrack15	9	ProbeTrack	15.0	SCS215a	20120209.131009	20120209.131118	8	0.013320	60	10	60-180	60	143	GapExp	BigFlash	1	8	2	3	0	distractor	1	331	835	396580	13.328	13.305	13.343
ProbeTrack15	9	ProbeTrack	15.0	SCS215a	20120209.131009	20120209.131124	8	0.013320	60	10	60-180	60	134	GapExp	BigFlash	0	9	2	0	1	target	1	321	840	397420	13.328	11.620	15.047
ProbeTrack15	9	ProbeTrack	15.0	SCS215a	20120209.131009	20120209.131130	8	0.013320	60	10	60-180	60	61	GapExp	BigFlash	0	10	2	1	0	distractor	1	530	735	398155	13.328	13.085	13.550
ProbeTrack15	9	ProbeTrack	15.0	SCS215a	20120209.131009	20120209.131135	8	0.013320	60	10	60-180	60	110	GapExp	BigFlash	0	11	2	3	0	distractor	1	348	826	398981	13.328	13.091	13.557
ProbeTrack15	9	ProbeTrack	15.0	SCS215a	20120209.131009	20120209.131150	8	0.013320	60	10	60-180	60	107	GapExp	BigFlash	0	12	2	0	1	target	1	328	836	399817	13.328	13.309	13.348
ProbeTrack15	9	ProbeTrack	15.0	SCS215a	20120209.131009	20120209.131158	8	0.013320	60	10	60-180	60	103	GapExp	BigFlash	0	13	2	1	1	target	1	325	838	400655	13.328	11.218	15.443
ProbeTrack15	9	ProbeTrack	15.0	SCS215a	20120209.131009	20120209.131203	8	0.013320	60	10	60-180	60	158	GapExp	BigFlash	0	14	2	3	1	target	1	275	863	401518	13.328	13.091	13.548
ProbeTrack15	9	ProbeTrack	15.0	SCS215a	20120209.131009	20120209.131209	8	0.013320	60	10	60-180	60	84	GapExp	BigFlash	0	15	2	0	1	target	1	291	855	402373	13.328	13.299	13.345
ProbeTrack15	9	ProbeTrack	15.0	SCS215a	20120209.131009	20120209.131214	8	0.013320	60	10	60-180	60	91	GapExp	BigFlash	0	16	2	3	1	target	1	276	862	403235	13.328	13.277	13.366
ProbeTrack15	9	ProbeTrack	15.0	SCS215a	20120209.131009	20120209.131220	8	0.013320	60	10	60-180	60	89	GapExp	BigFlash	0	17	2	1	0	distractor	1	350	825	404060	13.328	13.307	13.343
ProbeTrack15	9	ProbeTrack	15.0	SCS215a	20120209.131009	20120209.131226	8	0.013320	60	10	60-180	60	81	GapExp	BigFlash	0	18	2	3	0	distractor	1	388	806	404866	13.328	8.170	18.491
ProbeTrack15	9	ProbeTrack	15.0	SCS215a	20120209.131009	20120209.131231	8	0.013320	60	10	60-180	60	75	GapExp	BigFlash	0	19	2	1	0	distractor	1	410	795	405661	13.328	13.308	13.348
ProbeTrack15	9	ProbeTrack	15.0	SCS215a	20120209.131009	20120209.131236	8	0.013320	60	10	60-180	60	88	GapExp	BigFlash	0	20	2	3	1	target	1	261	870	406531	13.328	13.303	13.349
ProbeTrack15	9	ProbeTrack	15.0	SCS215a	20120209.131009	20120209.131241	8	0.013320	60	10	60-180	60	68	GapExp	BigFlash	0	21	2	30	0	distractor	1	308	846	407377	13.328	5.716	20.926
ProbeTrack15	9	ProbeTrack	15.0	SCS215a	20120209.131009	20120209.131246	8	0.013320	60	10	60-180	60	119	GapExp	BigFlash	0	22	2	1	1	target	1	298	851	408228	13.328	9.400	17.251
ProbeTrack15	9	ProbeTrack	15.0	SCS215a	20120209.131009	20120209.131252	8	0.013320	60	10	60-180	60	162	GapExp	BigFlash	0	23	2	1	0	distractor	1	374	813	409041	13.328	11.177	15.490
ProbeTrack15	9	ProbeTrack	15.0	SCS215a	20120209.131009	20120209.131258	8	0.013320	60	10	60-180	60	88	GapExp	BigFlash	0	24	2	3	1	target	1	307	847	409888	13.328	12.446	14.209
ProbeTrack15	9	ProbeTrack	15.0	SCS215a	20120209.131009	20120209.131304	8	0.013320	60	10	60-180	60	131	GapExp	BigFlash	0	25	2	1	0	distractor	1	386	807	410695	13.328	13.308	13.346
ProbeTrack15	9	ProbeTrack	15.0	SCS215a	20120209.131009	20120209.131309	8	0.013320	60	10	60-180	60	138	GapExp	BigFlash	0	26	2	1	0	distractor	1	425	788	411483	13.328	13.093	13.348
ProbeTrack15	9	ProbeTrack	15.0	SCS215a	20120209.131009	20120209.131316	8	0.013320	60	10	60-180	60	71	GapExp	BigFlash	0	27	2	3	0	distractor	1	384	808	412291	13.328	13.302	13.347
ProbeTrack15	9	ProbeTrack	15.0	SCS215a	20120209.131009	20120209.131321	8	0.013320	60	10	60-180	60	106	GapExp	BigFlash	0	28	2	3	0	distractor	1	415	793	413084	13.328	7.404	19.251
ProbeTrack15	9	ProbeTrack	15.0	SCS215a	20120209.131009	20120209.131327	8	0.013320	60	10	60-180	60	82	GapExp	BigFlash	0	29	2	3	1	target	1	505	748	413832	13.328	13.310	13.343
ProbeTrack15	9	ProbeTrack	15.0	SCS215a	20120209.131009	20120209.131333	8	0.013320	60	10	60-180	60	64	GapExp	BigFlash	0	30	2	30	0	distractor	1	341	830	414662	13.328	13.298	13.353
ProbeTrack15	9	ProbeTrack	15.0	SCS215a	20120209.131009	20120209.131339	8	0.013320	60	10	60-180	60	123	GapExp	BigFlash	0	31	2	3	1	target	1	343	829	415491	13.328	6.313	20.350
ProbeTrack15	9	ProbeTrack	15.0	SCS215a	20120209.131009	20120209.131344	8	0.013320	60	10	60-180	60	73	GapExp	BigFlash	0	32	2	0	1	target	1	317	842	416333	13.328	13.107	13.555
ProbeTrack15	9	ProbeTrack	15.0	SCS215a	20120209.131009	20120209.131350	8	0.013320	60	10	60-180	60	115	GapExp	BigFlash	0	33	2	0	1	target	1	356	822	417155	13.328	13.310	13.348
ProbeTrack15	9	ProbeTrack	15.0	SCS215a	20120209.131009	20120209.131356	8	0.013320	60	10	60-180	60	112	GapExp	BigFlash	0	34	2	1	1	target	1	292	854	418009	13.328	10.574	16.089
ProbeTrack15	9	ProbeTrack	15.0	SCS215a	20120209.131009	20120209.131401	8	0.013320	60	10	60-180	60	121	GapExp	BigFlash	0	35	2	30	0	distractor	1	320	840	418849	13.328	12.125	14.538
ProbeTrack15	9	ProbeTrack	15.0	SCS215a	20120209.131009	20120209.131408	8	0.013320	60	10	60-180	60	102	GapExp	BigFlash	0	36	2	0	0	distractor	1	447	777	419626	13.328	11.192	15.464
ProbeTrack15	9	ProbeTrack	15.0	SCS215a	20120209.131009	20120209.131414	8	0.013320	60	10	60-180	60	79	GapExp	BigFlash	0	37	2	3	1	target	1	407	797	420423	13.328	10.256	16.395
ProbeTrack15	9	ProbeTrack	15.0	SCS215a	20120209.131009	20120209.131419	8	0.013320	60	10	60-180	60	171	GapExp	BigFlash	0	38	2	30	1	target	1	375	813	421236	13.328	6.838	19.817
ProbeTrack15	9	ProbeTrack	15.0	SCS215a	20120209.131009	20120209.131426	8	0.013320	60	10	60-180	60	96	GapExp	BigFlash	0	39	2	30	1	target	1	305	848	422084	13.328	13.310	13.344
ProbeTrack15	9	ProbeTrack	15.0	SCS215a	20120209.131009	20120209.131432	8	0.013320	60	10	60-180	60	149	GapExp	BigFlash	0	40	2	0	1	target	1	314	843	422927	13.328	13.305	13.348
ProbeTrack15	9	ProbeTrack	15.0	SCS215a	20120209.131009	20120209.131450	8	0.013320	60	10	60-180	60	69	GapExp	BigFlash	0	41	2	1	0	distractor	1	372	814	423741	13.328	13.304	13.347
ProbeTrack15	9	ProbeTrack	15.0	SCS215a	20120209.131009	20120209.131455	8	0.013320	60	10	60-180	60	166	GapExp	BigFlash	0	42	2	30	0	distractor	1	356	822	424563	13.328	9.006	17.664
ProbeTrack15	9	ProbeTrack	15.0	SCS215a	20120209.131009	20120209.131502	8	0.013320	60	10	60-180	60	75	GapExp	BigFlash	0	43	2	0	1	target	1	363	819	425382	13.328	12.482	14.168
ProbeTrack15	9	ProbeTrack	15.0	SCS215a	20120209.131009	20120209.131507	8	0.013320	60	10	60-180	60	161	GapExp	BigFlash	0	44	2	3	0	distractor	1	384	808	426190	13.328	13.107	13.563
ProbeTrack15	9	ProbeTrack	15.0	SCS215a	20120209.131009	20120209.131514	8	0.013320	60	10	60-180	60	152	GapExp	BigFlash	0	45	2	30	1	target	1	290	855	427045	13.328	13.112	13.550
ProbeTrack15	9	ProbeTrack	15.0	SCS215a	20120209.131009	20120209.131521	8	0.013320	60	10	60-180	60	150	GapExp	BigFlash	0	46	2	30	1	target	1	310	845	427890	13.328	12.397	14.273
ProbeTrack15	9	ProbeTrack	15.0	SCS215a	20120209.131009	20120209.131527	8	0.013320	60	10	60-180	60	152	GapExp	BigFlash	0	47	2	3	0	distractor	1	352	824	428714	13.328	13.306	13.348
ProbeTrack15	9	ProbeTrack	15.0	SCS215a	20120209.131009	20120209.131533	8	0.013320	60	10	60-180	60	136	GapExp	BigFlash	0	48	2	3	0	distractor	1	373	814	429528	13.328	11.460	15.195
ProbeTrack15	9	ProbeTrack	15.0	SCS215a	20120209.131009	20120209.131540	8	0.013320	60	10	60-180	60	108	GapExp	BigFlash	0	49	2	0	0	distractor	1	392	804	430332	13.328	13.303	13.348
ProbeTrack15	9	ProbeTrack	15.0	SCS215a	20120209.131009	20120209.131545	8	0.013320	60	10	60-180	60	68	GapExp	BigFlash	0	50	2	3	1	target	1	320	840	431172	13.328	13.304	13.347
ProbeTrack15	9	ProbeTrack	15.0	SCS215a	20120209.131009	20120209.131550	8	0.013320	60	10	60-180	60	70	GapExp	BigFlash	0	51	2	0	0	distractor	1	372	814	431986	13.328	5.759	20.904
ProbeTrack15	9	ProbeTrack	15.0	SCS215a	20120209.131009	20120209.131605	8	0.013320	60	10	60-180	60	102	GapExp	BigFlash	0	52	2	1	1	distractor	0	350	-1000	430986	13.328	13.309	13.348
ProbeTrack15	9	ProbeTrack	15.0	SCS215a	20120209.131009	20120209.131611	8	0.013320	60	10	60-180	60	115	GapExp	BigFlash	0	53	2	1	1	target	1	311	845	431831	13.328	9.091	17.564
ProbeTrack15	9	ProbeTrack	15.0	SCS215a	20120209.131009	20120209.131617	8	0.013320	60	10	60-180	60	138	GapExp	BigFlash	0	54	2	30	0	distractor	1	371	815	432646	13.328	13.113	13.542
ProbeTrack15	9	ProbeTrack	15.0	SCS215a	20120209.131009	20120209.131623	8	0.013320	60	10	60-180	60	153	GapExp	BigFlash	0	55	2	30	1	target	1	287	857	433503	13.328	11.372	15.284
ProbeTrack15	9	ProbeTrack	15.0	SCS215a	20120209.131009	20120209.131629	8	0.013320	60	10	60-180	60	82	GapExp	BigFlash	0	56	2	0	1	target	1	315	843	434346	13.328	10.148	16.507
ProbeTrack15	9	ProbeTrack	15.0	SCS215a	20120209.131009	20120209.131635	8	0.013320	60	10	60-180	60	164	GapExp	BigFlash	0	57	2	3	1	target	1	317	842	435188	13.328	12.520	14.133
ProbeTrack15	9	ProbeTrack	15.0	SCS215a	20120209.131009	20120209.131641	8	0.013320	60	10	60-180	60	141	GapExp	BigFlash	0	58	2	1	1	target	1	325	838	436026	13.328	13.307	13.346
ProbeTrack15	9	ProbeTrack	15.0	SCS215a	20120209.131009	20120209.131647	8	0.013320	60	10	60-180	60	163	GapExp	BigFlash	0	59	2	1	1	target	1	357	822	436848	13.328	8.495	18.160
ProbeTrack15	9	ProbeTrack	15.0	SCS215a	20120209.131009	20120209.131654	8	0.013320	60	10	60-180	60	63	GapExp	BigFlash	0	60	2	30	1	target	1	331	835	437683	13.328	13.114	13.547
ProbeTrack15	9	ProbeTrack	15.0	SCS215a	20120209.131009	20120209.131659	8	0.013320	60	10	60-180	60	126	GapExp	BigFlash	0	61	2	3	1	target	1	280	860	438543	13.328	13.107	13.550
ProbeTrack15	9	ProbeTrack	15.0	SCS215a	20120209.131009	20120209.131705	8	0.013320	60	10	60-180	60	105	GapExp	BigFlash	0	62	2	1	0	distractor	1	381	810	439353	13.328	12.105	14.561
ProbeTrack15	9	ProbeTrack	15.0	SCS215a	20120209.131009	20120209.131710	8	0.013320	60	10	60-180	60	167	GapExp	BigFlash	0	63	2	30	0	distractor	1	338	831	440184	13.328	13.308	13.344
ProbeTrack15	9	ProbeTrack	15.0	SCS215a	20120209.131009	20120209.131717	8	0.013320	60	10	60-180	60	126	GapExp	BigFlash	0	64	2	0	1	target	1	335	833	441017	13.328	13.306	13.357
ProbeTrack15	9	ProbeTrack	15.0	SCS215a	20120209.131009	20120209.131722	8	0.013320	60	10	60-180	60	96	GapExp	BigFlash	0	65	2	3	0	distractor	1	372	814	441831	13.328	11.892	14.745
ProbeTrack15	9	ProbeTrack	15.0	SCS215a	20120209.131009	20120209.131728	8	0.013320	60	10	60-180	60	95	GapExp	BigFlash	0	66	2	30	1	target	1	257	872	442703	13.328	13.106	13.549
ProbeTrack15	9	ProbeTrack	15.0	SCS215a	20120209.131009	20120209.131734	8	0.013320	60	10	60-180	60	146	GapExp	BigFlash	0	67	2	0	0	target	0	396	-1000	441703	13.328	12.558	14.089
ProbeTrack15	9	ProbeTrack	15.0	SCS215a	20120209.131009	20120209.131740	8	0.013320	60	10	60-180	60	176	GapExp	BigFlash	0	68	2	30	1	target	1	354	823	442526	13.328	3.616	23.025
ProbeTrack15	9	ProbeTrack	15.0	SCS215a	20120209.131009	20120209.131747	8	0.013320	60	10	60-180	60	102	GapExp	BigFlash	0	69	2	30	0	distractor	1	454	773	443299	13.328	13.105	13.558
