exp	sub	code	rev	comp	runtime	trialtime	nstim	refreshdur	cuedur	gapdur	gapOnsetRange	durPostProbe	gapOnsetTime	blocktype	gaptype	prac	trial	ntargets	soa	probeTarget	resp	acc	rt	pts	tpts	meanFrameDur	minFrameDur	maxFrameDur
ProbeTrack15	13	ProbeTrack	15.0	SCS215a	20120501.135536	20120501.135540	8	0.013328	60	0	60-180	60	124	NoGap	None	1	1	2	3	1	target	1	567	717	717	13.382	4.270	22.404
ProbeTrack15	13	ProbeTrack	15.0	SCS215a	20120501.135536	20120501.135714	8	0.013328	60	0	60-180	60	76	NoGap	None	1	2	2	0	1	target	1	431	785	1502	13.328	13.308	13.351
ProbeTrack15	13	ProbeTrack	15.0	SCS215a	20120501.135536	20120501.135721	8	0.013328	60	0	60-180	60	177	NoGap	None	1	3	2	0	1	target	1	466	767	2269	13.328	13.088	13.550
ProbeTrack15	13	ProbeTrack	15.0	SCS215a	20120501.135536	20120501.135729	8	0.013328	60	0	60-180	60	97	NoGap	None	1	4	2	30	1	target	1	374	813	3082	13.386	3.705	25.583
ProbeTrack15	13	ProbeTrack	15.0	SCS215a	20120501.135536	20120501.135735	8	0.013328	60	0	60-180	60	85	NoGap	None	1	5	2	0	0	distractor	1	621	690	3772	13.392	4.712	28.342
ProbeTrack15	13	ProbeTrack	15.0	SCS215a	20120501.135536	20120501.135743	8	0.013328	60	0	60-180	60	120	NoGap	None	1	6	2	0	1	target	1	352	824	4596	13.318	12.185	13.505
ProbeTrack15	13	ProbeTrack	15.0	SCS215a	20120501.135536	20120501.135751	8	0.013328	60	0	60-180	60	118	NoGap	None	1	7	2	0	0	distractor	1	596	702	5298	13.328	13.091	13.563
ProbeTrack15	13	ProbeTrack	15.0	SCS215a	20120501.135536	20120501.135758	8	0.013328	60	0	60-180	60	156	NoGap	None	1	8	2	3	0	distractor	1	374	813	6111	13.328	13.094	13.549
ProbeTrack15	13	ProbeTrack	15.0	SCS215a	20120501.135536	20120501.135806	8	0.013328	60	0	60-180	60	179	NoGap	None	1	9	2	0	0	distractor	1	351	825	6936	13.328	6.898	19.765
ProbeTrack15	13	ProbeTrack	15.0	SCS215a	20120501.135536	20120501.135813	8	0.013328	60	0	60-180	60	83	NoGap	None	1	10	2	30	0	distractor	1	380	810	7746	13.328	13.098	13.558
ProbeTrack15	13	ProbeTrack	15.0	SCS215a	20120501.135536	20120501.135819	8	0.013328	60	0	60-180	60	75	NoGap	None	1	11	2	30	1	target	1	488	756	8502	13.328	13.213	13.463
ProbeTrack15	13	ProbeTrack	15.0	SCS215a	20120501.135536	20120501.135826	8	0.013328	60	0	60-180	60	133	NoGap	None	1	12	2	3	1	target	1	508	746	9248	13.328	5.039	21.616
ProbeTrack15	13	ProbeTrack	15.0	SCS215a	20120501.135536	20120501.135833	8	0.013328	60	0	60-180	60	92	NoGap	None	1	13	2	1	1	target	1	417	792	10040	13.328	13.305	13.352
ProbeTrack15	13	ProbeTrack	15.0	SCS215a	20120501.135536	20120501.135842	8	0.013328	60	0	60-180	60	66	NoGap	None	1	14	2	1	1	target	1	458	771	10811	13.328	9.785	16.871
ProbeTrack15	13	ProbeTrack	15.0	SCS215a	20120501.135536	20120501.135850	8	0.013328	60	0	60-180	60	146	NoGap	None	1	15	2	30	1	target	1	328	836	11647	13.328	8.469	18.189
ProbeTrack15	13	ProbeTrack	15.0	SCS215a	20120501.135536	20120501.135857	8	0.013328	60	0	60-180	60	143	NoGap	None	1	16	2	3	1	target	1	364	818	12465	13.328	5.088	21.576
ProbeTrack15	13	ProbeTrack	15.0	SCS215a	20120501.135536	20120501.135904	8	0.013328	60	0	60-180	60	168	NoGap	None	1	17	2	1	1	target	1	384	808	13273	13.328	13.308	13.344
ProbeTrack15	13	ProbeTrack	15.0	SCS215a	20120501.135536	20120501.135910	8	0.013328	60	0	60-180	60	146	NoGap	None	1	18	2	0	1	target	1	326	837	14110	13.328	13.098	13.558
ProbeTrack15	13	ProbeTrack	15.0	SCS215a	20120501.135536	20120501.135917	8	0.013328	60	0	60-180	60	108	NoGap	None	1	19	2	30	1	target	1	520	740	14850	13.328	13.306	13.344
ProbeTrack15	13	ProbeTrack	15.0	SCS215a	20120501.135536	20120501.135926	8	0.013328	60	0	60-180	60	108	NoGap	None	1	20	2	3	0	distractor	1	526	737	15587	13.328	13.306	13.355
ProbeTrack15	13	ProbeTrack	15.0	SCS215a	20120501.135536	20120501.135935	8	0.013328	60	0	60-180	60	65	NoGap	None	1	21	2	0	1	target	1	334	833	16420	13.328	13.304	13.358
ProbeTrack15	13	ProbeTrack	15.0	SCS215a	20120501.135536	20120501.135940	8	0.013328	60	0	60-180	60	87	NoGap	None	1	22	2	1	0	distractor	1	483	759	17179	13.328	11.435	15.221
ProbeTrack15	13	ProbeTrack	15.0	SCS215a	20120501.135536	20120501.135946	8	0.013328	60	0	60-180	60	173	NoGap	None	1	23	2	3	0	distractor	1	496	752	17931	13.328	13.092	13.564
ProbeTrack15	13	ProbeTrack	15.0	SCS215a	20120501.135536	20120501.135956	8	0.013328	60	0	60-180	60	105	NoGap	None	1	24	2	30	0	distractor	1	430	785	18716	13.328	13.238	13.410
ProbeTrack15	13	ProbeTrack	15.0	SCS215a	20120501.135536	20120501.140002	8	0.013328	60	0	60-180	60	122	NoGap	None	1	25	2	1	0	distractor	1	558	721	19437	13.328	13.308	13.347
ProbeTrack15	13	ProbeTrack	15.0	SCS215a	20120501.135536	20120501.140010	8	0.013328	60	0	60-180	60	153	NoGap	None	1	26	2	3	1	target	1	414	793	20230	13.328	13.106	13.543
ProbeTrack15	13	ProbeTrack	15.0	SCS215a	20120501.135536	20120501.140019	8	0.013328	60	0	60-180	60	124	NoGap	None	1	27	2	3	0	distractor	1	521	740	20970	13.328	10.297	16.357
ProbeTrack15	13	ProbeTrack	15.0	SCS215a	20120501.135536	20120501.140026	8	0.013328	60	0	60-180	60	77	NoGap	None	1	28	2	3	1	target	1	382	809	21779	13.328	13.306	13.358
ProbeTrack15	13	ProbeTrack	15.0	SCS215a	20120501.135536	20120501.140035	8	0.013328	60	0	60-180	60	169	NoGap	None	1	29	2	30	0	distractor	1	352	824	22603	13.328	5.423	21.232
ProbeTrack15	13	ProbeTrack	15.0	SCS215a	20120501.135536	20120501.140043	8	0.013328	60	0	60-180	60	73	NoGap	None	1	30	2	1	0	distractor	1	524	738	23341	13.328	13.301	13.355
ProbeTrack15	13	ProbeTrack	15.0	SCS215a	20120501.135536	20120501.140051	8	0.013328	60	0	60-180	60	105	NoGap	None	1	31	2	1	0	distractor	1	489	756	24097	13.328	11.340	15.317
ProbeTrack15	13	ProbeTrack	15.0	SCS215a	20120501.135536	20120501.140058	8	0.013328	60	0	60-180	60	75	NoGap	None	1	32	2	1	1	target	1	524	738	24835	13.328	13.307	13.345
ProbeTrack15	13	ProbeTrack	15.0	SCS215a	20120501.135536	20120501.140111	8	0.013328	60	0	60-180	60	152	NoGap	None	1	33	2	0	0	distractor	1	371	815	25650	13.328	13.090	13.546
ProbeTrack15	13	ProbeTrack	15.0	SCS215a	20120501.135536	20120501.140123	8	0.013328	60	0	60-180	60	144	NoGap	None	1	34	2	1	1	target	1	383	809	26459	13.328	10.507	16.142
ProbeTrack15	13	ProbeTrack	15.0	SCS215a	20120501.135536	20120501.140130	8	0.013328	60	0	60-180	60	169	NoGap	None	1	35	2	3	0	distractor	1	381	810	27269	13.328	13.104	13.552
ProbeTrack15	13	ProbeTrack	15.0	SCS215a	20120501.135536	20120501.140137	8	0.013328	60	0	60-180	60	83	NoGap	None	1	36	2	30	1	target	1	444	778	28047	13.328	13.304	13.345
ProbeTrack15	13	ProbeTrack	15.0	SCS215a	20120501.135536	20120501.140143	8	0.013328	60	0	60-180	60	172	NoGap	None	1	37	2	1	0	distractor	1	529	736	28783	13.328	13.086	13.557
ProbeTrack15	13	ProbeTrack	15.0	SCS215a	20120501.135536	20120501.140150	8	0.013328	60	0	60-180	60	100	NoGap	None	1	38	2	30	0	distractor	1	493	754	29537	13.328	6.459	20.211
ProbeTrack15	13	ProbeTrack	15.0	SCS215a	20120501.135536	20120501.140157	8	0.013328	60	0	60-180	60	142	NoGap	None	1	39	2	30	0	distractor	1	582	709	30246	13.419	2.919	37.065
ProbeTrack15	13	ProbeTrack	15.0	SCS215a	20120501.135536	20120501.140204	8	0.013328	60	0	60-180	60	72	NoGap	None	1	40	2	0	0	distractor	1	489	756	31002	13.328	8.001	18.656
ProbeTrack15	13	ProbeTrack	15.0	SCS215a	20120501.140244	20120501.140256	8	0.013327	60	10	60-180	60	154	GapPrac	Blank	1	1	2	30	0	distractor	1	551	725	31727	13.370	10.782	15.867
ProbeTrack15	13	ProbeTrack	15.0	SCS215a	20120501.140244	20120501.140311	8	0.013327	60	10	60-180	60	163	GapPrac	Blank	1	2	2	3	1	target	1	609	696	32423	13.328	11.621	15.024
ProbeTrack15	13	ProbeTrack	15.0	SCS215a	20120501.140244	20120501.140320	8	0.013327	60	10	60-180	60	142	GapPrac	Blank	1	3	2	1	0	target	0	634	-1000	31423	13.328	13.098	13.558
ProbeTrack15	13	ProbeTrack	15.0	SCS215a	20120501.140244	20120501.140329	8	0.013327	60	10	60-180	60	136	GapPrac	Blank	1	4	2	3	0	distractor	1	476	762	32185	13.328	13.236	13.408
ProbeTrack15	13	ProbeTrack	15.0	SCS215a	20120501.140244	20120501.140336	8	0.013327	60	10	60-180	60	120	GapPrac	Blank	1	5	2	0	0	target	0	802	-1000	31185	13.328	10.323	16.341
ProbeTrack15	13	ProbeTrack	15.0	SCS215a	20120501.140244	20120501.140344	8	0.013327	60	10	60-180	60	111	GapPrac	Blank	1	6	2	3	1	target	1	615	693	31878	13.328	13.307	13.347
ProbeTrack15	13	ProbeTrack	15.0	SCS215a	20120501.140244	20120501.140351	8	0.013327	60	10	60-180	60	93	GapPrac	Blank	1	7	2	1	1	target	1	409	796	32674	13.328	13.290	13.367
ProbeTrack15	13	ProbeTrack	15.0	SCS215a	20120501.140244	20120501.140358	8	0.013327	60	10	60-180	60	140	GapPrac	Blank	1	8	2	30	0	distractor	1	439	781	33455	13.328	13.305	13.352
ProbeTrack15	13	ProbeTrack	15.0	SCS215a	20120501.140244	20120501.140405	8	0.013327	60	10	60-180	60	84	GapPrac	Blank	1	9	2	0	1	target	1	536	732	34187	13.328	13.309	13.345
ProbeTrack15	13	ProbeTrack	15.0	SCS215a	20120501.140244	20120501.140412	8	0.013327	60	10	60-180	60	98	GapPrac	Blank	1	10	2	3	0	target	0	549	-1000	33187	13.328	10.185	16.485
ProbeTrack15	13	ProbeTrack	15.0	SCS215a	20120501.140244	20120501.140419	8	0.013327	60	10	60-180	60	135	GapPrac	Blank	1	11	2	0	0	distractor	1	723	639	33826	13.328	8.982	17.681
ProbeTrack15	13	ProbeTrack	15.0	SCS215a	20120501.140244	20120501.140426	8	0.013327	60	10	60-180	60	144	GapPrac	Blank	1	12	2	1	0	target	0	801	-1000	32826	13.328	13.305	13.350
ProbeTrack15	13	ProbeTrack	15.0	SCS215a	20120501.140244	20120501.140433	8	0.013327	60	10	60-180	60	78	GapPrac	Blank	1	13	2	0	1	target	1	463	769	33595	13.328	13.307	13.351
ProbeTrack15	13	ProbeTrack	15.0	SCS215a	20120501.140244	20120501.140439	8	0.013327	60	10	60-180	60	113	GapPrac	Blank	1	14	2	3	0	distractor	1	518	741	34336	13.328	10.531	16.119
ProbeTrack15	13	ProbeTrack	15.0	SCS215a	20120501.140244	20120501.140445	8	0.013327	60	10	60-180	60	157	GapPrac	Blank	1	15	2	30	1	target	1	558	721	35057	13.328	10.047	16.609
ProbeTrack15	13	ProbeTrack	15.0	SCS215a	20120501.140244	20120501.140457	8	0.013327	60	10	60-180	60	88	GapPrac	Blank	1	16	2	30	0	distractor	1	517	742	35799	13.328	12.395	14.260
ProbeTrack15	13	ProbeTrack	15.0	SCS215a	20120501.140244	20120501.140503	8	0.013327	60	10	60-180	60	101	GapPrac	Blank	1	17	2	1	1	target	1	445	778	36577	13.328	13.311	13.351
ProbeTrack15	13	ProbeTrack	15.0	SCS215a	20120501.140244	20120501.140510	8	0.013327	60	10	60-180	60	65	GapPrac	Blank	1	18	2	3	1	target	1	433	784	37361	13.328	10.830	15.823
ProbeTrack15	13	ProbeTrack	15.0	SCS215a	20120501.140244	20120501.140515	8	0.013327	60	10	60-180	60	155	GapPrac	Blank	1	19	2	1	0	distractor	1	525	738	38099	13.328	11.723	14.929
ProbeTrack15	13	ProbeTrack	15.0	SCS215a	20120501.140244	20120501.140523	8	0.013327	60	10	60-180	60	109	GapPrac	Blank	1	20	2	30	1	target	1	348	826	38925	13.328	10.384	16.273
ProbeTrack15	13	ProbeTrack	15.0	SCS215a	20120501.140550	20120501.140600	8	0.013328	60	10	60-180	60	76	GapExp	Blank	1	1	2	3	1	target	1	404	798	39723	13.396	13.290	13.360
ProbeTrack15	13	ProbeTrack	15.0	SCS215a	20120501.140550	20120501.140609	8	0.013328	60	10	60-180	60	150	GapExp	Blank	1	2	2	0	0	distractor	1	509	746	40469	13.328	12.924	13.732
ProbeTrack15	13	ProbeTrack	15.0	SCS215a	20120501.140550	20120501.140615	8	0.013328	60	10	60-180	60	115	GapExp	Blank	1	3	2	30	1	target	1	551	725	41194	13.328	12.833	13.817
ProbeTrack15	13	ProbeTrack	15.0	SCS215a	20120501.140550	20120501.140623	8	0.013328	60	10	60-180	60	155	GapExp	Blank	1	4	2	0	1	target	1	429	786	41980	13.328	12.885	13.771
ProbeTrack15	13	ProbeTrack	15.0	SCS215a	20120501.140550	20120501.140630	8	0.013328	60	10	60-180	60	153	GapExp	Blank	1	5	2	3	0	distractor	1	478	761	42741	13.328	12.884	13.709
ProbeTrack15	13	ProbeTrack	15.0	SCS215a	20120501.140550	20120501.140636	8	0.013328	60	10	60-180	60	71	GapExp	Blank	1	6	2	30	0	distractor	1	430	785	43526	13.328	13.307	13.347
ProbeTrack15	13	ProbeTrack	15.0	SCS215a	20120501.140550	20120501.140643	8	0.013328	60	10	60-180	60	88	GapExp	Blank	1	7	2	1	1	target	1	452	774	44300	13.328	13.112	13.558
ProbeTrack15	13	ProbeTrack	15.0	SCS215a	20120501.140550	20120501.140649	8	0.013328	60	10	60-180	60	131	GapExp	Blank	1	8	2	1	0	distractor	1	770	615	44915	13.328	13.302	13.347
ProbeTrack15	13	ProbeTrack	15.0	SCS215a	20120501.140550	20120501.140656	8	0.013328	60	10	60-180	60	70	GapExp	Blank	0	9	2	0	0	distractor	1	683	659	45574	13.524	12.926	39.955
ProbeTrack15	13	ProbeTrack	15.0	SCS215a	20120501.140550	20120501.140701	8	0.013328	60	10	60-180	60	180	GapExp	Blank	0	10	2	1	0	distractor	1	620	690	46264	13.328	13.310	13.347
ProbeTrack15	13	ProbeTrack	15.0	SCS215a	20120501.140550	20120501.140709	8	0.013328	60	10	60-180	60	165	GapExp	Blank	0	11	2	30	1	target	1	389	806	47070	13.328	13.302	13.354
ProbeTrack15	13	ProbeTrack	15.0	SCS215a	20120501.140550	20120501.140719	8	0.013328	60	10	60-180	60	104	GapExp	Blank	0	12	2	3	0	distractor	1	531	735	47805	13.328	12.867	13.791
ProbeTrack15	13	ProbeTrack	15.0	SCS215a	20120501.140550	20120501.140725	8	0.013328	60	10	60-180	60	108	GapExp	Blank	0	13	2	1	0	distractor	1	604	698	48503	13.328	12.885	13.771
ProbeTrack15	13	ProbeTrack	15.0	SCS215a	20120501.140550	20120501.140732	8	0.013328	60	10	60-180	60	146	GapExp	Blank	0	14	2	1	0	distractor	1	681	660	49163	13.328	12.885	13.767
ProbeTrack15	13	ProbeTrack	15.0	SCS215a	20120501.140550	20120501.140738	8	0.013328	60	10	60-180	60	111	GapExp	Blank	0	15	2	30	0	distractor	1	545	728	49891	13.328	12.956	13.699
ProbeTrack15	13	ProbeTrack	15.0	SCS215a	20120501.140550	20120501.140745	8	0.013328	60	10	60-180	60	153	GapExp	Blank	0	16	2	3	0	distractor	1	629	686	50577	13.328	13.090	13.558
ProbeTrack15	13	ProbeTrack	15.0	SCS215a	20120501.140550	20120501.140753	8	0.013328	60	10	60-180	60	160	GapExp	Blank	0	17	2	3	1	target	1	495	753	51330	13.328	12.868	13.789
ProbeTrack15	13	ProbeTrack	15.0	SCS215a	20120501.140550	20120501.140800	8	0.013328	60	10	60-180	60	76	GapExp	Blank	0	18	2	0	0	distractor	1	639	681	52011	13.328	13.048	13.611
ProbeTrack15	13	ProbeTrack	15.0	SCS215a	20120501.140550	20120501.140806	8	0.013328	60	10	60-180	60	160	GapExp	Blank	0	19	2	1	1	target	1	378	811	52822	13.328	12.907	13.741
ProbeTrack15	13	ProbeTrack	15.0	SCS215a	20120501.140550	20120501.140814	8	0.013328	60	10	60-180	60	138	GapExp	Blank	0	20	2	3	0	distractor	1	608	696	53518	13.328	13.012	13.625
ProbeTrack15	13	ProbeTrack	15.0	SCS215a	20120501.140550	20120501.140820	8	0.013328	60	10	60-180	60	89	GapExp	Blank	0	21	2	1	1	distractor	0	504	-1000	52518	13.328	13.307	13.346
ProbeTrack15	13	ProbeTrack	15.0	SCS215a	20120501.140550	20120501.140831	8	0.013328	60	10	60-180	60	81	GapExp	Blank	0	22	2	0	1	distractor	0	627	-1000	51518	13.328	12.838	13.797
ProbeTrack15	13	ProbeTrack	15.0	SCS215a	20120501.140550	20120501.140837	8	0.013328	60	10	60-180	60	98	GapExp	Blank	0	23	2	30	1	target	1	409	796	52314	13.328	12.913	13.743
ProbeTrack15	13	ProbeTrack	15.0	SCS215a	20120501.140550	20120501.140843	8	0.013328	60	10	60-180	60	164	GapExp	Blank	0	24	2	30	0	distractor	1	526	737	53051	13.328	12.932	13.733
ProbeTrack15	13	ProbeTrack	15.0	SCS215a	20120501.140550	20120501.140850	8	0.013328	60	10	60-180	60	178	GapExp	Blank	0	25	2	0	0	distractor	1	629	686	53737	13.328	12.865	13.789
ProbeTrack15	13	ProbeTrack	15.0	SCS215a	20120501.140550	20120501.140857	8	0.013328	60	10	60-180	60	79	GapExp	Blank	0	26	2	30	0	distractor	1	487	757	54494	13.328	13.092	13.564
ProbeTrack15	13	ProbeTrack	15.0	SCS215a	20120501.140550	20120501.140904	8	0.013328	60	10	60-180	60	123	GapExp	Blank	0	27	2	3	1	target	1	367	817	55311	13.328	12.971	13.690
ProbeTrack15	13	ProbeTrack	15.0	SCS215a	20120501.140550	20120501.140910	8	0.013328	60	10	60-180	60	125	GapExp	Blank	0	28	2	30	1	target	1	397	802	56113	13.328	12.874	13.796
ProbeTrack15	13	ProbeTrack	15.0	SCS215a	20120501.140550	20120501.140916	8	0.013328	60	10	60-180	60	130	GapExp	Blank	0	29	2	3	0	target	0	457	-1000	55113	13.328	12.937	13.722
ProbeTrack15	13	ProbeTrack	15.0	SCS215a	20120501.140550	20120501.140923	8	0.013328	60	10	60-180	60	90	GapExp	Blank	0	30	2	30	1	target	1	399	801	55914	13.328	12.939	13.711
ProbeTrack15	13	ProbeTrack	15.0	SCS215a	20120501.140550	20120501.140928	8	0.013328	60	10	60-180	60	174	GapExp	Blank	0	31	2	0	1	distractor	0	495	-1000	54914	13.328	12.863	13.789
ProbeTrack15	13	ProbeTrack	15.0	SCS215a	20120501.140550	20120501.140936	8	0.013328	60	10	60-180	60	166	GapExp	Blank	0	32	2	0	1	target	1	401	800	55714	13.328	13.299	13.351
ProbeTrack15	13	ProbeTrack	15.0	SCS215a	20120501.140550	20120501.140942	8	0.013328	60	10	60-180	60	76	GapExp	Blank	0	33	2	1	1	target	1	387	807	56521	13.328	12.842	13.807
ProbeTrack15	13	ProbeTrack	15.0	SCS215a	20120501.140550	20120501.140948	8	0.013328	60	10	60-180	60	79	GapExp	Blank	0	34	2	0	0	distractor	1	530	735	57256	13.328	12.974	13.675
ProbeTrack15	13	ProbeTrack	15.0	SCS215a	20120501.140550	20120501.140953	8	0.013328	60	10	60-180	60	176	GapExp	Blank	0	35	2	1	0	distractor	1	543	729	57985	13.328	13.105	13.538
ProbeTrack15	13	ProbeTrack	15.0	SCS215a	20120501.140550	20120501.141000	8	0.013328	60	10	60-180	60	152	GapExp	Blank	0	36	2	1	0	distractor	1	704	648	58633	13.328	13.084	13.576
ProbeTrack15	13	ProbeTrack	15.0	SCS215a	20120501.140550	20120501.141008	8	0.013328	60	10	60-180	60	166	GapExp	Blank	0	37	2	3	1	target	1	372	814	59447	13.328	13.106	13.557
ProbeTrack15	13	ProbeTrack	15.0	SCS215a	20120501.140550	20120501.141014	8	0.013328	60	10	60-180	60	117	GapExp	Blank	0	38	2	30	0	distractor	1	422	789	60236	13.328	12.916	13.746
ProbeTrack15	13	ProbeTrack	15.0	SCS215a	20120501.140550	20120501.141023	8	0.013328	60	10	60-180	60	120	GapExp	Blank	0	39	2	0	1	target	1	470	765	61001	13.328	12.936	13.724
ProbeTrack15	13	ProbeTrack	15.0	SCS215a	20120501.140550	20120501.141033	8	0.013328	60	10	60-180	60	69	GapExp	Blank	0	40	2	30	0	distractor	1	459	771	61772	13.328	12.864	13.784
ProbeTrack15	13	ProbeTrack	15.0	SCS215a	20120501.140550	20120501.141040	8	0.013328	60	10	60-180	60	64	GapExp	Blank	0	41	2	0	0	distractor	1	553	724	62496	13.328	13.299	13.349
ProbeTrack15	13	ProbeTrack	15.0	SCS215a	20120501.140550	20120501.141045	8	0.013328	60	10	60-180	60	109	GapExp	Blank	0	42	2	30	0	distractor	1	503	749	63245	13.328	12.851	13.799
ProbeTrack15	13	ProbeTrack	15.0	SCS215a	20120501.140550	20120501.141051	8	0.013328	60	10	60-180	60	144	GapExp	Blank	0	43	2	1	0	distractor	1	606	697	63942	13.328	12.858	13.792
ProbeTrack15	13	ProbeTrack	15.0	SCS215a	20120501.140550	20120501.141058	8	0.013328	60	10	60-180	60	147	GapExp	Blank	0	44	2	3	0	distractor	1	785	608	64550	13.328	12.979	13.676
ProbeTrack15	13	ProbeTrack	15.0	SCS215a	20120501.140550	20120501.141105	8	0.013328	60	10	60-180	60	88	GapExp	Blank	0	45	2	3	1	target	1	464	768	65318	13.328	13.115	13.605
ProbeTrack15	13	ProbeTrack	15.0	SCS215a	20120501.140550	20120501.141111	8	0.013328	60	10	60-180	60	68	GapExp	Blank	0	46	2	3	1	target	1	550	725	66043	13.328	12.872	13.776
ProbeTrack15	13	ProbeTrack	15.0	SCS215a	20120501.140550	20120501.141117	8	0.013328	60	10	60-180	60	101	GapExp	Blank	0	47	2	0	1	target	1	502	749	66792	13.328	12.881	13.774
ProbeTrack15	13	ProbeTrack	15.0	SCS215a	20120501.140550	20120501.141123	8	0.013328	60	10	60-180	60	83	GapExp	Blank	0	48	2	3	0	distractor	1	400	800	67592	13.328	12.857	13.791
ProbeTrack15	13	ProbeTrack	15.0	SCS215a	20120501.140550	20120501.141128	8	0.013328	60	10	60-180	60	70	GapExp	Blank	0	49	2	30	1	distractor	0	548	-1000	66592	13.328	12.897	13.783
ProbeTrack15	13	ProbeTrack	15.0	SCS215a	20120501.140550	20120501.141135	8	0.013328	60	10	60-180	60	173	GapExp	Blank	0	50	2	0	1	target	1	400	800	67392	13.328	13.305	13.346
ProbeTrack15	13	ProbeTrack	15.0	SCS215a	20120501.140550	20120501.141142	8	0.013328	60	10	60-180	60	95	GapExp	Blank	0	51	2	30	1	target	1	331	835	68227	13.328	13.263	13.397
ProbeTrack15	13	ProbeTrack	15.0	SCS215a	20120501.140550	20120501.141154	8	0.013328	60	10	60-180	60	164	GapExp	Blank	0	52	2	3	0	distractor	1	493	754	68981	13.328	12.853	13.795
ProbeTrack15	13	ProbeTrack	15.0	SCS215a	20120501.140550	20120501.141200	8	0.013328	60	10	60-180	60	180	GapExp	Blank	0	53	2	30	0	target	0	573	-1000	67981	13.328	12.913	13.754
ProbeTrack15	13	ProbeTrack	15.0	SCS215a	20120501.140550	20120501.141208	8	0.013328	60	10	60-180	60	131	GapExp	Blank	0	54	2	30	0	distractor	1	544	728	68709	13.328	12.887	13.785
ProbeTrack15	13	ProbeTrack	15.0	SCS215a	20120501.140550	20120501.141215	8	0.013328	60	10	60-180	60	126	GapExp	Blank	0	55	2	30	1	target	1	485	758	69467	13.328	13.106	13.544
ProbeTrack15	13	ProbeTrack	15.0	SCS215a	20120501.140550	20120501.141221	8	0.013328	60	10	60-180	60	109	GapExp	Blank	0	56	2	30	1	target	1	845	578	70045	13.328	12.854	13.809
ProbeTrack15	13	ProbeTrack	15.0	SCS215a	20120501.140550	20120501.141229	8	0.013328	60	10	60-180	60	121	GapExp	Blank	0	57	2	3	0	distractor	1	445	778	70823	13.328	12.880	13.773
ProbeTrack15	13	ProbeTrack	15.0	SCS215a	20120501.140550	20120501.141235	8	0.013328	60	10	60-180	60	119	GapExp	Blank	0	58	2	0	1	target	1	519	741	71564	13.328	13.092	13.564
ProbeTrack15	13	ProbeTrack	15.0	SCS215a	20120501.140550	20120501.141241	8	0.013328	60	10	60-180	60	118	GapExp	Blank	0	59	2	30	1	target	1	514	743	72307	13.328	12.883	13.781
ProbeTrack15	13	ProbeTrack	15.0	SCS215a	20120501.140550	20120501.141248	8	0.013328	60	10	60-180	60	177	GapExp	Blank	0	60	2	3	0	distractor	1	421	790	73097	13.328	13.098	13.558
ProbeTrack15	13	ProbeTrack	15.0	SCS215a	20120501.140550	20120501.141255	8	0.013328	60	10	60-180	60	130	GapExp	Blank	0	61	2	0	1	target	1	413	794	73891	13.328	13.094	13.566
ProbeTrack15	13	ProbeTrack	15.0	SCS215a	20120501.140550	20120501.141301	8	0.013328	60	10	60-180	60	75	GapExp	Blank	0	62	2	3	0	distractor	1	461	770	74661	13.328	12.913	13.755
ProbeTrack15	13	ProbeTrack	15.0	SCS215a	20120501.140550	20120501.141306	8	0.013328	60	10	60-180	60	179	GapExp	Blank	0	63	2	3	1	distractor	0	345	-1000	73661	13.328	12.874	13.782
ProbeTrack15	13	ProbeTrack	15.0	SCS215a	20120501.140550	20120501.141313	8	0.013328	60	10	60-180	60	135	GapExp	Blank	0	64	2	30	0	distractor	1	489	756	74417	13.328	13.304	13.359
ProbeTrack15	13	ProbeTrack	15.0	SCS215a	20120501.140550	20120501.141322	8	0.013328	60	10	60-180	60	108	GapExp	Blank	0	65	2	1	1	target	1	354	823	75240	13.328	13.086	13.564
ProbeTrack15	13	ProbeTrack	15.0	SCS215a	20120501.140550	20120501.141328	8	0.013328	60	10	60-180	60	147	GapExp	Blank	0	66	2	1	0	distractor	1	448	776	76016	13.328	13.305	13.350
ProbeTrack15	13	ProbeTrack	15.0	SCS215a	20120501.140550	20120501.141335	8	0.013328	60	10	60-180	60	153	GapExp	Blank	0	67	2	0	1	target	1	273	864	76880	13.328	12.877	13.772
ProbeTrack15	13	ProbeTrack	15.0	SCS215a	20120501.140550	20120501.141341	8	0.013328	60	10	60-180	60	146	GapExp	Blank	0	68	2	0	0	distractor	1	353	824	77704	13.328	13.304	13.347
ProbeTrack15	13	ProbeTrack	15.0	SCS215a	20120501.140550	20120501.141347	8	0.013328	60	10	60-180	60	122	GapExp	Blank	0	69	2	1	1	target	1	423	789	78493	13.328	13.307	13.347
ProbeTrack15	13	ProbeTrack	15.0	SCS215a	20120501.140550	20120501.141354	8	0.013328	60	10	60-180	60	158	GapExp	Blank	0	70	2	30	0	distractor	1	519	741	79234	13.328	13.305	13.348
ProbeTrack15	13	ProbeTrack	15.0	SCS215a	20120501.140550	20120501.141401	8	0.013328	60	10	60-180	60	134	GapExp	Blank	0	71	2	0	0	distractor	1	412	794	80028	13.381	12.929	26.687
ProbeTrack15	13	ProbeTrack	15.0	SCS215a	20120501.140550	20120501.141419	8	0.013328	60	10	60-180	60	99	GapExp	Blank	0	72	2	1	1	target	1	400	800	80828	13.328	13.105	13.551
ProbeTrack15	13	ProbeTrack	15.0	SCS215a	20120501.140550	20120501.141426	8	0.013328	60	10	60-180	60	98	GapExp	Blank	0	73	2	1	1	target	1	267	867	81695	13.328	13.092	13.551
ProbeTrack15	13	ProbeTrack	15.0	SCS215a	20120501.140550	20120501.141431	8	0.013328	60	10	60-180	60	122	GapExp	Blank	0	74	2	30	1	target	1	390	805	82500	13.328	13.099	13.563
ProbeTrack15	13	ProbeTrack	15.0	SCS215a	20120501.140550	20120501.141438	8	0.013328	60	10	60-180	60	147	GapExp	Blank	0	75	2	0	0	distractor	1	460	770	83270	13.328	12.851	13.803
ProbeTrack15	13	ProbeTrack	15.0	SCS215a	20120501.140550	20120501.141444	8	0.013328	60	10	60-180	60	89	GapExp	Blank	0	76	2	1	1	target	1	495	753	84023	13.328	12.881	13.763
ProbeTrack15	13	ProbeTrack	15.0	SCS215a	20120501.140550	20120501.141450	8	0.013328	60	10	60-180	60	113	GapExp	Blank	0	77	2	0	1	target	1	335	833	84856	13.328	12.958	13.699
ProbeTrack15	13	ProbeTrack	15.0	SCS215a	20120501.140550	20120501.141456	8	0.013328	60	10	60-180	60	162	GapExp	Blank	0	78	2	30	0	distractor	1	374	813	85669	13.328	13.304	13.348
ProbeTrack15	13	ProbeTrack	15.0	SCS215a	20120501.140550	20120501.141505	8	0.013328	60	10	60-180	60	112	GapExp	Blank	0	79	2	1	1	target	1	335	833	86502	13.328	13.303	13.352
ProbeTrack15	13	ProbeTrack	15.0	SCS215a	20120501.140550	20120501.141510	8	0.013328	60	10	60-180	60	123	GapExp	Blank	0	80	2	3	1	target	1	435	783	87285	13.328	13.300	13.351
ProbeTrack15	13	ProbeTrack	15.0	SCS215a	20120501.140550	20120501.141516	8	0.013328	60	10	60-180	60	79	GapExp	Blank	0	81	2	0	1	target	1	254	873	88158	13.328	12.844	13.797
ProbeTrack15	13	ProbeTrack	15.0	SCS215a	20120501.140550	20120501.141522	8	0.013328	60	10	60-180	60	119	GapExp	Blank	0	82	2	3	0	distractor	1	419	791	88949	13.328	13.106	13.549
ProbeTrack15	13	ProbeTrack	15.0	SCS215a	20120501.140550	20120501.141529	8	0.013328	60	10	60-180	60	87	GapExp	Blank	0	83	2	1	0	distractor	1	366	817	89766	13.328	13.088	13.578
ProbeTrack15	13	ProbeTrack	15.0	SCS215a	20120501.140550	20120501.141535	8	0.013328	60	10	60-180	60	157	GapExp	Blank	0	84	2	0	0	distractor	1	341	830	90596	13.328	13.111	13.544
ProbeTrack15	13	ProbeTrack	15.0	SCS215a	20120501.140550	20120501.141542	8	0.013328	60	10	60-180	60	87	GapExp	Blank	0	85	2	1	1	target	1	417	792	91388	13.328	13.308	13.352
ProbeTrack15	13	ProbeTrack	15.0	SCS215a	20120501.140550	20120501.141547	8	0.013328	60	10	60-180	60	128	GapExp	Blank	0	86	2	1	0	target	0	319	-1000	90388	13.328	12.850	13.792
ProbeTrack15	13	ProbeTrack	15.0	SCS215a	20120501.140550	20120501.141556	8	0.013328	60	10	60-180	60	69	GapExp	Blank	0	87	2	0	1	distractor	0	389	-1000	89388	13.328	12.985	13.673
ProbeTrack15	13	ProbeTrack	15.0	SCS215a	20120501.140550	20120501.141602	8	0.013328	60	10	60-180	60	145	GapExp	Blank	0	88	2	3	0	distractor	1	391	805	90193	13.328	13.303	13.344
ProbeTrack15	13	ProbeTrack	15.0	SCS215a	20120501.140550	20120501.141613	8	0.013328	60	10	60-180	60	108	GapExp	Blank	0	89	2	30	0	distractor	1	481	760	90953	13.328	12.925	13.732
ProbeTrack15	13	ProbeTrack	15.0	SCS215a	20120501.140550	20120501.141620	8	0.013328	60	10	60-180	60	148	GapExp	Blank	0	90	2	1	1	target	1	387	807	91760	13.328	12.970	13.679
ProbeTrack15	13	ProbeTrack	15.0	SCS215a	20120501.140550	20120501.141627	8	0.013328	60	10	60-180	60	153	GapExp	Blank	0	91	2	1	0	distractor	1	501	750	92510	13.328	13.193	13.451
ProbeTrack15	13	ProbeTrack	15.0	SCS215a	20120501.140550	20120501.141637	8	0.013328	60	10	60-180	60	149	GapExp	Blank	0	92	2	3	0	distractor	1	365	818	93328	13.328	13.099	13.550
ProbeTrack15	13	ProbeTrack	15.0	SCS215a	20120501.140550	20120501.141645	8	0.013328	60	10	60-180	60	127	GapExp	Blank	0	93	2	1	0	distractor	1	359	821	94149	13.328	13.112	13.550
ProbeTrack15	13	ProbeTrack	15.0	SCS215a	20120501.140550	20120501.141652	8	0.013328	60	10	60-180	60	141	GapExp	Blank	0	94	2	30	0	target	0	445	-1000	93149	13.328	13.103	13.553
ProbeTrack15	13	ProbeTrack	15.0	SCS215a	20120501.140550	20120501.141700	8	0.013328	60	10	60-180	60	96	GapExp	Blank	0	95	2	0	0	distractor	1	654	673	93822	13.328	13.093	13.562
ProbeTrack15	13	ProbeTrack	15.0	SCS215a	20120501.140550	20120501.141706	8	0.013328	60	10	60-180	60	83	GapExp	Blank	0	96	2	1	1	distractor	0	583	-1000	92822	13.328	12.897	13.753
ProbeTrack15	13	ProbeTrack	15.0	SCS215a	20120501.140550	20120501.141714	8	0.013328	60	10	60-180	60	118	GapExp	Blank	0	97	2	0	0	target	0	465	-1000	91822	13.328	13.086	13.563
ProbeTrack15	13	ProbeTrack	15.0	SCS215a	20120501.140550	20120501.141720	8	0.013328	60	10	60-180	60	173	GapExp	Blank	0	98	2	0	1	target	1	605	698	92520	13.328	13.099	13.557
ProbeTrack15	13	ProbeTrack	15.0	SCS215a	20120501.140550	20120501.141728	8	0.013328	60	10	60-180	60	129	GapExp	Blank	0	99	2	3	1	target	1	370	815	93335	13.328	12.842	13.800
ProbeTrack15	13	ProbeTrack	15.0	SCS215a	20120501.140550	20120501.141734	8	0.013328	60	10	60-180	60	145	GapExp	Blank	0	100	2	0	0	distractor	1	501	750	94085	13.328	12.962	13.694
ProbeTrack15	13	ProbeTrack	15.0	SCS215a	20120501.140550	20120501.141741	8	0.013328	60	10	60-180	60	99	GapExp	Blank	0	101	2	1	0	target	0	459	-1000	93085	13.328	13.002	13.650
ProbeTrack15	13	ProbeTrack	15.0	SCS215a	20120501.140550	20120501.141755	8	0.013328	60	10	60-180	60	144	GapExp	Blank	0	102	2	0	0	target	0	446	-1000	92085	13.328	13.113	13.542
ProbeTrack15	13	ProbeTrack	15.0	SCS215a	20120501.140550	20120501.141802	8	0.013328	60	10	60-180	60	165	GapExp	Blank	0	103	2	1	1	target	1	438	781	92866	13.328	12.912	13.744
ProbeTrack15	13	ProbeTrack	15.0	SCS215a	20120501.140550	20120501.141808	8	0.013328	60	10	60-180	60	119	GapExp	Blank	0	104	2	30	1	target	1	430	785	93651	13.328	13.293	13.362
ProbeTrack15	13	ProbeTrack	15.0	SCS215a	20120501.140550	20120501.141814	8	0.013328	60	10	60-180	60	137	GapExp	Blank	0	105	2	0	1	target	1	458	771	94422	13.328	13.272	13.391
ProbeTrack15	13	ProbeTrack	15.0	SCS215a	20120501.140550	20120501.141821	8	0.013328	60	10	60-180	60	75	GapExp	Blank	0	106	2	30	1	target	1	351	825	95247	13.328	13.307	13.352
ProbeTrack15	13	ProbeTrack	15.0	SCS215a	20120501.140550	20120501.141827	8	0.013328	60	10	60-180	60	92	GapExp	Blank	0	107	2	3	0	target	0	588	-1000	94247	13.327	12.933	13.718
ProbeTrack15	13	ProbeTrack	15.0	SCS215a	20120501.140550	20120501.141832	8	0.013328	60	10	60-180	60	116	GapExp	Blank	0	108	2	1	1	target	1	573	714	94961	13.328	13.092	13.550
ProbeTrack15	13	ProbeTrack	15.0	SCS215a	20120501.140550	20120501.141838	8	0.013328	60	10	60-180	60	100	GapExp	Blank	0	109	2	1	1	target	1	338	831	95792	13.328	12.900	13.741
ProbeTrack15	13	ProbeTrack	15.0	SCS215a	20120501.140550	20120501.141844	8	0.013328	60	10	60-180	60	145	GapExp	Blank	0	110	2	3	1	target	1	419	791	96583	13.328	13.080	13.569
ProbeTrack15	13	ProbeTrack	15.0	SCS215a	20120501.140550	20120501.141851	8	0.013328	60	10	60-180	60	109	GapExp	Blank	0	111	2	30	1	target	1	374	813	97396	13.328	13.085	13.571
ProbeTrack15	13	ProbeTrack	15.0	SCS215a	20120501.140550	20120501.141858	8	0.013328	60	10	60-180	60	75	GapExp	Blank	0	112	2	1	0	distractor	1	441	780	98176	13.328	13.079	13.608
ProbeTrack15	13	ProbeTrack	15.0	SCS215a	20120501.140550	20120501.141904	8	0.013328	60	10	60-180	60	155	GapExp	Blank	0	113	2	1	0	distractor	1	454	773	98949	13.328	13.308	13.356
ProbeTrack15	13	ProbeTrack	15.0	SCS215a	20120501.140550	20120501.141911	8	0.013328	60	10	60-180	60	93	GapExp	Blank	0	114	2	3	1	target	1	446	777	99726	13.328	12.896	13.812
ProbeTrack15	13	ProbeTrack	15.0	SCS215a	20120501.140550	20120501.141917	8	0.013328	60	10	60-180	60	65	GapExp	Blank	0	115	2	1	1	target	1	425	788	100514	13.328	13.307	13.349
ProbeTrack15	13	ProbeTrack	15.0	SCS215a	20120501.140550	20120501.141922	8	0.013328	60	10	60-180	60	164	GapExp	Blank	0	116	2	3	0	distractor	1	432	784	101298	13.328	13.305	13.352
ProbeTrack15	13	ProbeTrack	15.0	SCS215a	20120501.140550	20120501.141930	8	0.013328	60	10	60-180	60	157	GapExp	Blank	0	117	2	1	1	target	1	381	810	102108	13.328	13.279	13.383
ProbeTrack15	13	ProbeTrack	15.0	SCS215a	20120501.140550	20120501.141945	8	0.013328	60	10	60-180	60	74	GapExp	Blank	0	118	2	0	0	distractor	1	472	764	102872	13.328	13.300	13.357
ProbeTrack15	13	ProbeTrack	15.0	SCS215a	20120501.140550	20120501.141950	8	0.013328	60	10	60-180	60	146	GapExp	Blank	0	119	2	3	1	target	1	445	778	103650	13.328	12.931	13.716
ProbeTrack15	13	ProbeTrack	15.0	SCS215a	20120501.140550	20120501.141957	8	0.013328	60	10	60-180	60	98	GapExp	Blank	0	120	2	3	1	target	1	364	818	104468	13.328	13.299	13.351
ProbeTrack15	13	ProbeTrack	15.0	SCS215a	20120501.140550	20120501.142003	8	0.013328	60	10	60-180	60	135	GapExp	Blank	0	121	2	3	0	distractor	1	456	772	105240	13.328	13.107	13.549
ProbeTrack15	13	ProbeTrack	15.0	SCS215a	20120501.140550	20120501.142009	8	0.013328	60	10	60-180	60	171	GapExp	Blank	0	122	2	3	0	target	0	418	-1000	104240	13.328	13.112	13.557
ProbeTrack15	13	ProbeTrack	15.0	SCS215a	20120501.140550	20120501.142016	8	0.013328	60	10	60-180	60	99	GapExp	Blank	0	123	2	1	0	distractor	1	426	787	105027	13.328	13.093	13.562
ProbeTrack15	13	ProbeTrack	15.0	SCS215a	20120501.140550	20120501.142021	8	0.013328	60	10	60-180	60	78	GapExp	Blank	0	124	2	3	0	distractor	1	536	732	105759	13.328	12.971	13.692
ProbeTrack15	13	ProbeTrack	15.0	SCS215a	20120501.140550	20120501.142027	8	0.013328	60	10	60-180	60	100	GapExp	Blank	0	125	2	0	1	target	1	507	747	106506	13.328	13.294	13.354
ProbeTrack15	13	ProbeTrack	15.0	SCS215a	20120501.140550	20120501.142032	8	0.013328	60	10	60-180	60	172	GapExp	Blank	0	126	2	30	1	target	1	500	750	107256	13.328	13.304	13.348
ProbeTrack15	13	ProbeTrack	15.0	SCS215a	20120501.140550	20120501.142040	8	0.013328	60	10	60-180	60	108	GapExp	Blank	0	127	2	0	1	target	1	418	791	108047	13.328	13.289	13.375
ProbeTrack15	13	ProbeTrack	15.0	SCS215a	20120501.140550	20120501.142046	8	0.013328	60	10	60-180	60	147	GapExp	Blank	0	128	2	0	0	distractor	1	560	720	108767	13.328	12.845	13.797
ProbeTrack15	13	ProbeTrack	15.0	SCS215a	20120501.140550	20120501.142052	8	0.013328	60	10	60-180	60	144	GapExp	Blank	0	129	2	3	0	distractor	1	410	795	109562	13.328	12.917	13.738
ProbeTrack15	13	ProbeTrack	15.0	SCS215a	20120501.140550	20120501.142059	8	0.013328	60	10	60-180	60	152	GapExp	Blank	0	130	2	1	0	distractor	1	443	779	110341	13.328	13.076	13.579
ProbeTrack15	13	ProbeTrack	15.0	SCS215a	20120501.140550	20120501.142106	8	0.013328	60	10	60-180	60	63	GapExp	Blank	0	131	2	1	1	target	1	395	803	111144	13.328	13.098	13.563
ProbeTrack15	13	ProbeTrack	15.0	SCS215a	20120501.140550	20120501.142111	8	0.013328	60	10	60-180	60	125	GapExp	Blank	0	132	2	30	0	distractor	1	536	732	111876	13.328	12.878	13.787
ProbeTrack15	13	ProbeTrack	15.0	SCS215a	20120501.140550	20120501.142118	8	0.013328	60	10	60-180	60	103	GapExp	Blank	0	133	2	3	0	distractor	1	438	781	112657	13.328	12.961	13.684
ProbeTrack15	13	ProbeTrack	15.0	SCS215a	20120501.140550	20120501.142130	8	0.013328	60	10	60-180	60	179	GapExp	Blank	0	134	2	0	1	target	1	423	789	113446	13.328	12.930	13.729
ProbeTrack15	13	ProbeTrack	15.0	SCS215a	20120501.140550	20120501.142137	8	0.013328	60	10	60-180	60	109	GapExp	Blank	0	135	2	30	0	distractor	1	421	790	114236	13.328	13.283	13.373
ProbeTrack15	13	ProbeTrack	15.0	SCS215a	20120501.140550	20120501.142145	8	0.013328	60	10	60-180	60	131	GapExp	Blank	0	136	2	0	1	target	1	536	732	114968	13.328	12.968	13.701
ProbeTrack15	13	ProbeTrack	15.0	SCS215a	20120501.140550	20120501.142151	8	0.013328	60	10	60-180	60	123	GapExp	Blank	0	137	2	30	1	distractor	0	829	-1000	113968	13.328	13.038	13.608
ProbeTrack15	13	ProbeTrack	15.0	SCS215a	20120501.140550	20120501.142218	8	0.013328	60	10	60-180	60	69	GapExp	Blank	0	138	2	1	1	target	1	323	839	114807	13.328	12.893	13.775
ProbeTrack15	13	ProbeTrack	15.0	SCS215a	20120501.140550	20120501.142224	8	0.013328	60	10	60-180	60	96	GapExp	Blank	0	139	2	0	1	target	1	433	784	115591	13.328	12.918	13.743
ProbeTrack15	13	ProbeTrack	15.0	SCS215a	20120501.140550	20120501.142229	8	0.013328	60	10	60-180	60	138	GapExp	Blank	0	140	2	3	1	target	1	247	877	116468	13.328	12.856	13.799
ProbeTrack15	13	ProbeTrack	15.0	SCS215a	20120501.140550	20120501.142235	8	0.013328	60	10	60-180	60	73	GapExp	Blank	0	141	2	3	0	distractor	1	409	796	117264	13.328	13.275	13.381
ProbeTrack15	13	ProbeTrack	15.0	SCS215a	20120501.140550	20120501.142240	8	0.013328	60	10	60-180	60	134	GapExp	Blank	0	142	2	30	0	distractor	1	437	782	118046	13.328	13.272	13.378
ProbeTrack15	13	ProbeTrack	15.0	SCS215a	20120501.140550	20120501.142247	8	0.013328	60	10	60-180	60	92	GapExp	Blank	0	143	2	3	0	distractor	1	593	704	118750	13.328	13.306	13.347
ProbeTrack15	13	ProbeTrack	15.0	SCS215a	20120501.140550	20120501.142253	8	0.013328	60	10	60-180	60	113	GapExp	Blank	0	144	2	3	1	target	1	322	839	119589	13.328	13.308	13.352
ProbeTrack15	13	ProbeTrack	15.0	SCS215a	20120501.140550	20120501.142259	8	0.013328	60	10	60-180	60	172	GapExp	Blank	0	145	2	30	1	target	1	391	805	120394	13.328	12.954	13.704
ProbeTrack15	13	ProbeTrack	15.0	SCS215a	20120501.140550	20120501.142306	8	0.013328	60	10	60-180	60	162	GapExp	Blank	0	146	2	1	0	distractor	1	460	770	121164	13.328	12.970	13.686
ProbeTrack15	13	ProbeTrack	15.0	SCS215a	20120501.140550	20120501.142312	8	0.013328	60	10	60-180	60	74	GapExp	Blank	0	147	2	0	1	target	1	366	817	121981	13.328	13.069	13.587
ProbeTrack15	13	ProbeTrack	15.0	SCS215a	20120501.140550	20120501.142318	8	0.013328	60	10	60-180	60	138	GapExp	Blank	0	148	2	1	0	distractor	1	542	729	122710	13.328	13.092	13.556
ProbeTrack15	13	ProbeTrack	15.0	SCS215a	20120501.140550	20120501.142324	8	0.013328	60	10	60-180	60	63	GapExp	Blank	0	149	2	0	0	target	0	534	-1000	121710	13.328	13.088	13.562
ProbeTrack15	13	ProbeTrack	15.0	SCS215a	20120501.140550	20120501.142330	8	0.013328	60	10	60-180	60	129	GapExp	Blank	0	150	2	30	1	target	1	523	739	122449	13.328	12.846	13.796
ProbeTrack15	13	ProbeTrack	15.0	SCS215a	20120501.140550	20120501.142340	8	0.013328	60	10	60-180	60	82	GapExp	Blank	0	151	2	30	1	distractor	0	492	-1000	121449	13.328	12.937	13.725
ProbeTrack15	13	ProbeTrack	15.0	SCS215a	20120501.140550	20120501.142345	8	0.013328	60	10	60-180	60	141	GapExp	Blank	0	152	2	3	1	target	1	345	828	122277	13.328	12.875	13.778
ProbeTrack15	13	ProbeTrack	15.0	SCS215a	20120501.140550	20120501.142351	8	0.013328	60	10	60-180	60	83	GapExp	Blank	0	153	2	30	1	target	1	333	834	123111	13.328	12.885	13.760
ProbeTrack15	13	ProbeTrack	15.0	SCS215a	20120501.140550	20120501.142358	8	0.013328	60	10	60-180	60	120	GapExp	Blank	0	154	2	1	0	distractor	1	390	805	123916	13.328	13.307	13.351
ProbeTrack15	13	ProbeTrack	15.0	SCS215a	20120501.140550	20120501.142403	8	0.013328	60	10	60-180	60	177	GapExp	Blank	0	155	2	0	1	distractor	0	347	-1000	122916	13.328	12.869	13.788
ProbeTrack15	13	ProbeTrack	15.0	SCS215a	20120501.140550	20120501.142410	8	0.013328	60	10	60-180	60	101	GapExp	Blank	0	156	2	0	0	target	0	377	-1000	121916	13.328	12.895	13.755
ProbeTrack15	13	ProbeTrack	15.0	SCS215a	20120501.140550	20120501.142415	8	0.013328	60	10	60-180	60	167	GapExp	Blank	0	157	2	0	0	target	0	389	-1000	120916	13.328	12.932	13.719
ProbeTrack15	13	ProbeTrack	15.0	SCS215a	20120501.140550	20120501.142422	8	0.013328	60	10	60-180	60	73	GapExp	Blank	0	158	2	3	0	distractor	1	511	745	121661	13.328	13.096	13.579
ProbeTrack15	13	ProbeTrack	15.0	SCS215a	20120501.140550	20120501.142427	8	0.013328	60	10	60-180	60	146	GapExp	Blank	0	159	2	0	1	distractor	0	641	-1000	120661	13.328	12.986	13.664
ProbeTrack15	13	ProbeTrack	15.0	SCS215a	20120501.140550	20120501.142434	8	0.013328	60	10	60-180	60	180	GapExp	Blank	0	160	2	3	1	target	1	438	781	121442	13.328	12.978	13.669
ProbeTrack15	13	ProbeTrack	15.0	SCS215a	20120501.140550	20120501.142440	8	0.013328	60	10	60-180	60	94	GapExp	Blank	0	161	2	3	1	target	1	352	824	122266	13.328	13.299	13.355
ProbeTrack15	13	ProbeTrack	15.0	SCS215a	20120501.140550	20120501.142446	8	0.013328	60	10	60-180	60	111	GapExp	Blank	0	162	2	30	0	distractor	1	443	779	123045	13.328	12.902	13.747
ProbeTrack15	13	ProbeTrack	15.0	SCS215a	20120501.140550	20120501.142452	8	0.013328	60	10	60-180	60	89	GapExp	Blank	0	163	2	3	1	target	1	338	831	123876	13.328	13.307	13.354
ProbeTrack15	13	ProbeTrack	15.0	SCS215a	20120501.140550	20120501.142505	8	0.013328	60	10	60-180	60	81	GapExp	Blank	0	164	2	0	0	target	0	590	-1000	122876	13.328	12.885	13.770
ProbeTrack15	13	ProbeTrack	15.0	SCS215a	20120501.140550	20120501.142511	8	0.013328	60	10	60-180	60	63	GapExp	Blank	0	165	2	0	0	distractor	1	470	765	123641	13.328	12.848	13.821
ProbeTrack15	13	ProbeTrack	15.0	SCS215a	20120501.140550	20120501.142517	8	0.013328	60	10	60-180	60	166	GapExp	Blank	0	166	2	30	0	distractor	1	377	812	124453	13.328	12.890	13.764
ProbeTrack15	13	ProbeTrack	15.0	SCS215a	20120501.140550	20120501.142524	8	0.013328	60	10	60-180	60	123	GapExp	Blank	0	167	2	1	1	target	1	377	812	125265	13.328	13.071	13.578
ProbeTrack15	13	ProbeTrack	15.0	SCS215a	20120501.140550	20120501.142530	8	0.013328	60	10	60-180	60	72	GapExp	Blank	0	168	2	1	0	distractor	1	527	737	126002	13.328	13.308	13.347
ProbeTrack15	13	ProbeTrack	15.0	SCS215a	20120501.140550	20120501.142536	8	0.013328	60	10	60-180	60	138	GapExp	Blank	0	169	2	0	0	distractor	1	517	742	126744	13.328	13.307	13.356
ProbeTrack15	13	ProbeTrack	15.0	SCS215a	20120501.140550	20120501.142542	8	0.013328	60	10	60-180	60	105	GapExp	Blank	0	170	2	1	0	distractor	1	744	628	127372	13.328	12.925	13.737
ProbeTrack15	13	ProbeTrack	15.0	SCS215a	20120501.140550	20120501.142549	8	0.013328	60	10	60-180	60	91	GapExp	Blank	0	171	2	30	0	distractor	1	76964	0	127372	13.328	12.952	13.806
ProbeTrack15	13	ProbeTrack	15.0	SCS215a	20120501.140550	20120501.142712	8	0.013328	60	10	60-180	60	65	GapExp	Blank	0	172	2	3	0	distractor	1	390	805	128177	13.328	13.092	13.555
ProbeTrack15	13	ProbeTrack	15.0	SCS215a	20120501.140550	20120501.142737	8	0.013328	60	10	60-180	60	62	GapExp	Blank	0	173	2	30	1	target	1	408	796	128973	13.328	12.965	13.683
ProbeTrack15	13	ProbeTrack	15.0	SCS215a	20120501.140550	20120501.142743	8	0.013328	60	10	60-180	60	76	GapExp	Blank	0	174	2	1	0	distractor	1	487	757	129730	13.328	12.863	13.765
ProbeTrack15	13	ProbeTrack	15.0	SCS215a	20120501.140550	20120501.142748	8	0.013328	60	10	60-180	60	132	GapExp	Blank	0	175	2	30	0	distractor	1	437	782	130512	13.328	13.307	13.351
ProbeTrack15	13	ProbeTrack	15.0	SCS215a	20120501.140550	20120501.142754	8	0.013328	60	10	60-180	60	162	GapExp	Blank	0	176	2	1	1	target	1	296	852	131364	13.328	13.304	13.353
ProbeTrack15	13	ProbeTrack	15.0	SCS215a	20120501.140550	20120501.142801	8	0.013328	60	10	60-180	60	95	GapExp	Blank	0	177	2	0	1	target	1	383	809	132173	13.328	13.113	13.556
ProbeTrack15	13	ProbeTrack	15.0	SCS215a	20120501.140550	20120501.142812	8	0.013328	60	10	60-180	60	113	GapExp	Blank	0	178	2	1	0	target	0	491	-1000	131173	13.440	13.253	26.670
ProbeTrack15	13	ProbeTrack	15.0	SCS215a	20120501.140550	20120501.142819	8	0.013328	60	10	60-180	60	118	GapExp	Blank	0	179	2	1	1	target	1	387	807	131980	13.328	13.080	13.590
ProbeTrack15	13	ProbeTrack	15.0	SCS215a	20120501.140550	20120501.142825	8	0.013328	60	10	60-180	60	111	GapExp	Blank	0	180	2	3	1	target	1	294	853	132833	13.328	12.975	13.794
ProbeTrack15	13	ProbeTrack	15.0	SCS215a	20120501.140550	20120501.142830	8	0.013328	60	10	60-180	60	146	GapExp	Blank	0	181	2	30	1	target	1	290	855	133688	13.328	12.930	13.734
ProbeTrack15	13	ProbeTrack	15.0	SCS215a	20120501.140550	20120501.142837	8	0.013328	60	10	60-180	60	97	GapExp	Blank	0	182	2	1	1	target	1	304	848	134536	13.328	12.940	13.715
ProbeTrack15	13	ProbeTrack	15.0	SCS215a	20120501.140550	20120501.142843	8	0.013328	60	10	60-180	60	75	GapExp	Blank	0	183	2	1	1	target	1	294	853	135389	13.328	13.308	13.346
ProbeTrack15	13	ProbeTrack	15.0	SCS215a	20120501.140550	20120501.142848	8	0.013328	60	10	60-180	60	92	GapExp	Blank	0	184	2	30	1	target	1	300	850	136239	13.328	13.009	13.642
ProbeTrack15	13	ProbeTrack	15.0	SCS215a	20120501.140550	20120501.142854	8	0.013328	60	10	60-180	60	100	GapExp	Blank	0	185	2	3	1	target	1	295	853	137092	13.328	13.111	13.549
ProbeTrack15	13	ProbeTrack	15.0	SCS215a	20120501.140550	20120501.142900	8	0.013328	60	10	60-180	60	100	GapExp	Blank	0	186	2	30	0	distractor	1	265	868	137960	13.328	12.852	13.813
ProbeTrack15	13	ProbeTrack	15.0	SCS215a	20120501.140550	20120501.142906	8	0.013328	60	10	60-180	60	177	GapExp	Blank	0	187	2	30	1	target	1	251	875	138835	13.328	12.854	13.804
ProbeTrack15	13	ProbeTrack	15.0	SCS215a	20120501.140550	20120501.142913	8	0.013328	60	10	60-180	60	106	GapExp	Blank	0	188	2	30	0	target	0	279	-1000	137835	13.328	12.920	13.730
ProbeTrack15	13	ProbeTrack	15.0	SCS215a	20120501.140550	20120501.142919	8	0.013328	60	10	60-180	60	134	GapExp	Blank	0	189	2	0	0	target	0	314	-1000	136835	13.328	13.303	13.348
ProbeTrack15	13	ProbeTrack	15.0	SCS215a	20120501.140550	20120501.142925	8	0.013328	60	10	60-180	60	115	GapExp	Blank	0	190	2	0	1	target	1	397	802	137637	13.328	13.299	13.360
ProbeTrack15	13	ProbeTrack	15.0	SCS215a	20120501.140550	20120501.142931	8	0.013328	60	10	60-180	60	150	GapExp	Blank	0	191	2	3	1	distractor	0	442	-1000	136637	13.328	13.058	13.593
ProbeTrack15	13	ProbeTrack	15.0	SCS215a	20120501.140550	20120501.142937	8	0.013328	60	10	60-180	60	163	GapExp	Blank	0	192	2	0	0	distractor	1	538	731	137368	13.328	13.101	13.564
ProbeTrack15	13	ProbeTrack	15.0	SCS215a	20120501.140550	20120501.142944	8	0.013328	60	10	60-180	60	179	GapExp	Blank	0	193	2	3	1	target	1	266	867	138235	13.328	12.886	13.757
ProbeTrack15	13	ProbeTrack	15.0	SCS215a	20120501.140550	20120501.142951	8	0.013328	60	10	60-180	60	72	GapExp	Blank	0	194	2	3	1	target	1	266	867	139102	13.328	12.868	13.800
ProbeTrack15	13	ProbeTrack	15.0	SCS215a	20120501.140550	20120501.142956	8	0.013328	60	10	60-180	60	160	GapExp	Blank	0	195	2	30	1	target	1	302	849	139951	13.328	12.867	13.800
ProbeTrack15	13	ProbeTrack	15.0	SCS215a	20120501.140550	20120501.143003	8	0.013328	60	10	60-180	60	77	GapExp	Blank	0	196	2	30	0	distractor	1	343	829	140780	13.328	13.098	13.550
ProbeTrack15	13	ProbeTrack	15.0	SCS215a	20120501.140550	20120501.143009	8	0.013328	60	10	60-180	60	100	GapExp	Blank	0	197	2	0	0	distractor	1	443	779	141559	13.328	13.309	13.347
ProbeTrack15	13	ProbeTrack	15.0	SCS215a	20120501.140550	20120501.143015	8	0.013328	60	10	60-180	60	130	GapExp	Blank	0	198	2	30	0	distractor	1	170	915	142474	13.328	12.896	13.760
ProbeTrack15	13	ProbeTrack	15.0	SCS215a	20120501.140550	20120501.143021	8	0.013328	60	10	60-180	60	131	GapExp	Blank	0	199	2	1	0	target	0	386	-1000	141474	13.328	13.306	13.347
ProbeTrack15	13	ProbeTrack	15.0	SCS215a	20120501.140550	20120501.143028	8	0.013328	60	10	60-180	60	153	GapExp	Blank	0	200	2	3	1	distractor	0	325	-1000	140474	13.328	12.848	13.795
ProbeTrack15	13	ProbeTrack	15.0	SCS215a	20120501.143434	20120501.143449	8	0.013304	60	10	60-180	60	177	GapPrac	BigFlash	1	1	2	0	1	distractor	0	502	-1000	139474	13.372	13.308	13.347
ProbeTrack15	13	ProbeTrack	15.0	SCS215a	20120501.143434	20120501.143503	8	0.013304	60	10	60-180	60	126	GapPrac	BigFlash	1	2	2	1	0	target	0	308	-1000	138474	13.328	13.307	13.352
ProbeTrack15	13	ProbeTrack	15.0	SCS215a	20120501.143434	20120501.143509	8	0.013304	60	10	60-180	60	124	GapPrac	BigFlash	1	3	2	1	1	target	1	448	776	139250	13.328	11.843	14.812
ProbeTrack15	13	ProbeTrack	15.0	SCS215a	20120501.143434	20120501.143515	8	0.013304	60	10	60-180	60	84	GapPrac	BigFlash	1	4	2	0	0	distractor	1	411	795	140045	13.328	11.025	15.631
ProbeTrack15	13	ProbeTrack	15.0	SCS215a	20120501.143434	20120501.143521	8	0.013304	60	10	60-180	60	144	GapPrac	BigFlash	1	5	2	30	0	distractor	1	536	732	140777	13.328	13.083	13.565
ProbeTrack15	13	ProbeTrack	15.0	SCS215a	20120501.143434	20120501.143527	8	0.013304	60	10	60-180	60	81	GapPrac	BigFlash	1	6	2	1	1	target	1	374	813	141590	13.328	13.306	13.358
ProbeTrack15	13	ProbeTrack	15.0	SCS215a	20120501.143434	20120501.143533	8	0.013304	60	10	60-180	60	168	GapPrac	BigFlash	1	7	2	0	0	distractor	1	431	785	142375	13.328	13.092	13.554
ProbeTrack15	13	ProbeTrack	15.0	SCS215a	20120501.143434	20120501.143540	8	0.013304	60	10	60-180	60	135	GapPrac	BigFlash	1	8	2	3	0	target	0	418	-1000	141375	13.328	13.112	13.542
ProbeTrack15	13	ProbeTrack	15.0	SCS215a	20120501.143434	20120501.143546	8	0.013304	60	10	60-180	60	76	GapPrac	BigFlash	1	9	2	0	1	target	1	540	730	142105	13.328	9.946	16.717
ProbeTrack15	13	ProbeTrack	15.0	SCS215a	20120501.143434	20120501.143552	8	0.013304	60	10	60-180	60	82	GapPrac	BigFlash	1	10	2	0	0	distractor	1	428	786	142891	13.328	13.066	13.606
ProbeTrack15	13	ProbeTrack	15.0	SCS215a	20120501.143434	20120501.143557	8	0.013304	60	10	60-180	60	159	GapPrac	BigFlash	1	11	2	30	1	target	1	312	844	143735	13.328	13.281	13.374
ProbeTrack15	13	ProbeTrack	15.0	SCS215a	20120501.143434	20120501.143605	8	0.013304	60	10	60-180	60	158	GapPrac	BigFlash	1	12	2	30	0	distractor	1	378	811	144546	13.328	13.307	13.347
ProbeTrack15	13	ProbeTrack	15.0	SCS215a	20120501.143434	20120501.143611	8	0.013304	60	10	60-180	60	147	GapPrac	BigFlash	1	13	2	1	0	distractor	1	474	763	145309	13.328	12.176	14.482
ProbeTrack15	13	ProbeTrack	15.0	SCS215a	20120501.143434	20120501.143618	8	0.013304	60	10	60-180	60	139	GapPrac	BigFlash	1	14	2	3	1	target	1	449	776	146085	13.328	11.970	14.693
ProbeTrack15	13	ProbeTrack	15.0	SCS215a	20120501.143434	20120501.143624	8	0.013304	60	10	60-180	60	109	GapPrac	BigFlash	1	15	2	3	0	distractor	1	401	800	146885	13.328	10.603	16.050
ProbeTrack15	13	ProbeTrack	15.0	SCS215a	20120501.143434	20120501.143631	8	0.013304	60	10	60-180	60	118	GapPrac	BigFlash	1	16	2	0	1	target	1	459	771	147656	13.328	12.628	14.021
ProbeTrack15	13	ProbeTrack	15.0	SCS215a	20120501.143434	20120501.143637	8	0.013304	60	10	60-180	60	90	GapPrac	BigFlash	1	17	2	1	1	target	1	893	554	148210	13.328	13.094	13.557
ProbeTrack15	13	ProbeTrack	15.0	SCS215a	20120501.143434	20120501.143643	8	0.013304	60	10	60-180	60	69	GapPrac	BigFlash	1	18	2	1	0	distractor	1	421	790	149000	13.328	13.308	13.345
ProbeTrack15	13	ProbeTrack	15.0	SCS215a	20120501.143434	20120501.143650	8	0.013304	60	10	60-180	60	78	GapPrac	BigFlash	1	19	2	30	1	target	1	364	818	149818	13.328	11.241	15.398
ProbeTrack15	13	ProbeTrack	15.0	SCS215a	20120501.143434	20120501.143656	8	0.013304	60	10	60-180	60	106	GapPrac	BigFlash	1	20	2	3	1	target	1	415	793	150611	13.445	6.529	26.585
ProbeTrack15	13	ProbeTrack	15.0	SCS215a	20120501.143724	20120501.143735	8	0.013328	60	10	60-180	60	73	GapExp	BigFlash	1	1	2	1	0	distractor	1	470	765	151376	13.396	13.307	13.349
ProbeTrack15	13	ProbeTrack	15.0	SCS215a	20120501.143724	20120501.143746	8	0.013328	60	10	60-180	60	106	GapExp	BigFlash	1	2	2	3	1	target	1	300	850	152226	13.328	13.086	13.558
ProbeTrack15	13	ProbeTrack	15.0	SCS215a	20120501.143724	20120501.143752	8	0.013328	60	10	60-180	60	102	GapExp	BigFlash	1	3	2	0	0	distractor	1	457	772	152998	13.328	13.121	13.550
ProbeTrack15	13	ProbeTrack	15.0	SCS215a	20120501.143724	20120501.143758	8	0.013328	60	10	60-180	60	77	GapExp	BigFlash	1	4	2	1	1	target	1	380	810	153808	13.328	5.806	20.845
ProbeTrack15	13	ProbeTrack	15.0	SCS215a	20120501.143724	20120501.143803	8	0.013328	60	10	60-180	60	167	GapExp	BigFlash	1	5	2	30	0	distractor	1	461	770	154578	13.328	11.299	15.345
ProbeTrack15	13	ProbeTrack	15.0	SCS215a	20120501.143724	20120501.143811	8	0.013328	60	10	60-180	60	79	GapExp	BigFlash	1	6	2	0	1	target	1	386	807	155385	13.328	13.310	13.343
ProbeTrack15	13	ProbeTrack	15.0	SCS215a	20120501.143724	20120501.143817	8	0.013328	60	10	60-180	60	177	GapExp	BigFlash	1	7	2	30	1	target	1	313	844	156229	13.328	10.148	16.502
ProbeTrack15	13	ProbeTrack	15.0	SCS215a	20120501.143724	20120501.143824	8	0.013328	60	10	60-180	60	135	GapExp	BigFlash	1	8	2	3	0	distractor	1	393	804	157033	13.328	13.303	13.352
ProbeTrack15	13	ProbeTrack	15.0	SCS215a	20120501.143724	20120501.143830	8	0.013328	60	10	60-180	60	66	GapExp	BigFlash	0	9	2	3	1	target	1	343	829	157862	13.328	13.305	13.357
ProbeTrack15	13	ProbeTrack	15.0	SCS215a	20120501.143724	20120501.143836	8	0.013328	60	10	60-180	60	144	GapExp	BigFlash	0	10	2	1	1	target	1	315	843	158705	13.328	13.103	13.542
ProbeTrack15	13	ProbeTrack	15.0	SCS215a	20120501.143724	20120501.143842	8	0.013328	60	10	60-180	60	149	GapExp	BigFlash	0	11	2	30	0	distractor	1	612	694	159399	13.328	10.629	16.034
ProbeTrack15	13	ProbeTrack	15.0	SCS215a	20120501.143724	20120501.143849	8	0.013328	60	10	60-180	60	150	GapExp	BigFlash	0	12	2	0	0	distractor	1	563	719	160118	13.328	13.110	13.544
ProbeTrack15	13	ProbeTrack	15.0	SCS215a	20120501.143724	20120501.143856	8	0.013328	60	10	60-180	60	147	GapExp	BigFlash	0	13	2	1	1	target	1	406	797	160915	13.328	13.106	13.563
ProbeTrack15	13	ProbeTrack	15.0	SCS215a	20120501.143724	20120501.143904	8	0.013328	60	10	60-180	60	163	GapExp	BigFlash	0	14	2	3	1	target	1	381	810	161725	13.328	6.947	19.695
ProbeTrack15	13	ProbeTrack	15.0	SCS215a	20120501.143724	20120501.143912	8	0.013328	60	10	60-180	60	135	GapExp	BigFlash	0	15	2	0	1	target	1	383	809	162534	13.328	11.568	14.774
ProbeTrack15	13	ProbeTrack	15.0	SCS215a	20120501.143724	20120501.143918	8	0.013328	60	10	60-180	60	63	GapExp	BigFlash	0	16	2	30	0	distractor	1	433	784	163318	13.328	13.304	13.353
ProbeTrack15	13	ProbeTrack	15.0	SCS215a	20120501.143724	20120501.143925	8	0.013328	60	10	60-180	60	100	GapExp	BigFlash	0	17	2	30	1	target	1	322	839	164157	13.328	13.090	13.557
ProbeTrack15	13	ProbeTrack	15.0	SCS215a	20120501.143724	20120501.143931	8	0.013328	60	10	60-180	60	158	GapExp	BigFlash	0	18	2	30	0	distractor	1	436	782	164939	13.328	13.106	13.551
ProbeTrack15	13	ProbeTrack	15.0	SCS215a	20120501.143724	20120501.143937	8	0.013328	60	10	60-180	60	103	GapExp	BigFlash	0	19	2	30	0	distractor	1	410	795	165734	13.328	12.163	14.533
ProbeTrack15	13	ProbeTrack	15.0	SCS215a	20120501.143724	20120501.143943	8	0.013328	60	10	60-180	60	175	GapExp	BigFlash	0	20	2	3	1	target	1	439	781	166515	13.328	11.536	15.134
ProbeTrack15	13	ProbeTrack	15.0	SCS215a	20120501.143724	20120501.143950	8	0.013328	60	10	60-180	60	166	GapExp	BigFlash	0	21	2	1	0	distractor	1	403	799	167314	13.328	13.216	13.493
ProbeTrack15	13	ProbeTrack	15.0	SCS215a	20120501.143724	20120501.143957	8	0.013328	60	10	60-180	60	89	GapExp	BigFlash	0	22	2	3	0	distractor	1	437	782	168096	13.328	13.308	13.347
ProbeTrack15	13	ProbeTrack	15.0	SCS215a	20120501.143724	20120501.144003	8	0.013328	60	10	60-180	60	62	GapExp	BigFlash	0	23	2	1	0	distractor	1	388	806	168902	13.328	13.304	13.345
ProbeTrack15	13	ProbeTrack	15.0	SCS215a	20120501.143724	20120501.144009	8	0.013328	60	10	60-180	60	86	GapExp	BigFlash	0	24	2	3	0	distractor	1	468	766	169668	13.328	12.799	13.870
ProbeTrack15	13	ProbeTrack	15.0	SCS215a	20120501.143724	20120501.144014	8	0.013328	60	10	60-180	60	104	GapExp	BigFlash	0	25	2	1	0	distractor	1	386	807	170475	13.328	10.192	16.463
ProbeTrack15	13	ProbeTrack	15.0	SCS215a	20120501.143724	20120501.144020	8	0.013328	60	10	60-180	60	104	GapExp	BigFlash	0	26	2	3	1	target	1	494	753	171228	13.328	9.654	16.995
ProbeTrack15	13	ProbeTrack	15.0	SCS215a	20120501.143724	20120501.144026	8	0.013328	60	10	60-180	60	149	GapExp	BigFlash	0	27	2	30	0	distractor	1	489	756	171984	13.328	8.510	18.142
ProbeTrack15	13	ProbeTrack	15.0	SCS215a	20120501.143724	20120501.144034	8	0.013328	60	10	60-180	60	121	GapExp	BigFlash	0	28	2	30	1	target	1	445	778	172762	13.328	13.124	13.550
ProbeTrack15	13	ProbeTrack	15.0	SCS215a	20120501.143724	20120501.144041	8	0.013328	60	10	60-180	60	139	GapExp	BigFlash	0	29	2	30	0	distractor	1	429	786	173548	13.328	12.004	14.654
ProbeTrack15	13	ProbeTrack	15.0	SCS215a	20120501.143724	20120501.144048	8	0.013328	60	10	60-180	60	147	GapExp	BigFlash	0	30	2	0	1	target	1	429	786	174334	13.328	7.212	19.458
ProbeTrack15	13	ProbeTrack	15.0	SCS215a	20120501.143724	20120501.144054	8	0.013328	60	10	60-180	60	109	GapExp	BigFlash	0	31	2	3	0	distractor	1	369	816	175150	13.328	5.874	20.783
ProbeTrack15	13	ProbeTrack	15.0	SCS215a	20120501.143724	20120501.144105	8	0.013328	60	10	60-180	60	106	GapExp	BigFlash	0	32	2	30	1	target	1	372	814	175964	13.328	13.094	13.553
ProbeTrack15	13	ProbeTrack	15.0	SCS215a	20120501.143724	20120501.144115	8	0.013328	60	10	60-180	60	140	GapExp	BigFlash	0	33	2	0	1	target	1	384	808	176772	13.328	13.100	13.544
ProbeTrack15	13	ProbeTrack	15.0	SCS215a	20120501.143724	20120501.144121	8	0.013328	60	10	60-180	60	147	GapExp	BigFlash	0	34	2	0	0	distractor	1	394	803	177575	13.328	13.291	13.346
ProbeTrack15	13	ProbeTrack	15.0	SCS215a	20120501.143724	20120501.144127	8	0.013328	60	10	60-180	60	111	GapExp	BigFlash	0	35	2	0	1	target	1	369	816	178391	13.328	9.885	16.785
ProbeTrack15	13	ProbeTrack	15.0	SCS215a	20120501.143724	20120501.144133	8	0.013328	60	10	60-180	60	116	GapExp	BigFlash	0	36	2	3	1	target	1	287	857	179248	13.328	13.163	13.456
ProbeTrack15	13	ProbeTrack	15.0	SCS215a	20120501.143724	20120501.144139	8	0.013328	60	10	60-180	60	136	GapExp	BigFlash	0	37	2	1	0	distractor	1	436	782	180030	13.328	6.130	20.525
ProbeTrack15	13	ProbeTrack	15.0	SCS215a	20120501.143724	20120501.144145	8	0.013328	60	10	60-180	60	145	GapExp	BigFlash	0	38	2	3	0	distractor	1	421	790	180820	13.328	13.092	13.564
ProbeTrack15	13	ProbeTrack	15.0	SCS215a	20120501.143724	20120501.144152	8	0.013328	60	10	60-180	60	144	GapExp	BigFlash	0	39	2	1	0	distractor	1	550	725	181545	13.328	13.104	13.560
ProbeTrack15	13	ProbeTrack	15.0	SCS215a	20120501.143724	20120501.144158	8	0.013328	60	10	60-180	60	117	GapExp	BigFlash	0	40	2	30	0	target	0	453	-1000	180545	13.328	10.284	16.467
ProbeTrack15	13	ProbeTrack	15.0	SCS215a	20120501.143724	20120501.144205	8	0.013328	60	10	60-180	60	135	GapExp	BigFlash	0	41	2	0	1	target	1	423	789	181334	13.328	7.745	18.931
ProbeTrack15	13	ProbeTrack	15.0	SCS215a	20120501.143724	20120501.144211	8	0.013328	60	10	60-180	60	81	GapExp	BigFlash	0	42	2	0	0	distractor	1	404	798	182132	13.328	13.270	13.375
ProbeTrack15	13	ProbeTrack	15.0	SCS215a	20120501.143724	20120501.144217	8	0.013328	60	10	60-180	60	165	GapExp	BigFlash	0	43	2	0	0	distractor	1	434	783	182915	13.328	11.835	14.804
ProbeTrack15	13	ProbeTrack	15.0	SCS215a	20120501.143724	20120501.144223	8	0.013328	60	10	60-180	60	149	GapExp	BigFlash	0	44	2	1	1	target	1	442	779	183694	13.328	10.294	16.425
ProbeTrack15	13	ProbeTrack	15.0	SCS215a	20120501.143724	20120501.144229	8	0.013328	60	10	60-180	60	104	GapExp	BigFlash	0	45	2	0	1	target	1	396	802	184496	13.328	10.623	16.026
ProbeTrack15	13	ProbeTrack	15.0	SCS215a	20120501.143724	20120501.144235	8	0.013328	60	10	60-180	60	143	GapExp	BigFlash	0	46	2	0	0	distractor	1	383	809	185305	13.328	13.106	13.541
ProbeTrack15	13	ProbeTrack	15.0	SCS215a	20120501.143724	20120501.144242	8	0.013328	60	10	60-180	60	100	GapExp	BigFlash	0	47	2	3	0	distractor	1	381	810	186115	13.328	11.136	15.531
ProbeTrack15	13	ProbeTrack	15.0	SCS215a	20120501.143724	20120501.144249	8	0.013328	60	10	60-180	60	97	GapExp	BigFlash	0	48	2	0	0	distractor	1	489	756	186871	13.328	12.423	14.100
ProbeTrack15	13	ProbeTrack	15.0	SCS215a	20120501.143724	20120501.144314	8	0.013328	60	10	60-180	60	114	GapExp	BigFlash	0	49	2	30	1	target	1	348	826	187697	13.328	13.112	13.557
ProbeTrack15	13	ProbeTrack	15.0	SCS215a	20120501.143724	20120501.144321	8	0.013328	60	10	60-180	60	171	GapExp	BigFlash	0	50	2	30	1	target	1	354	823	188520	13.328	13.098	13.550
ProbeTrack15	13	ProbeTrack	15.0	SCS215a	20120501.143724	20120501.144328	8	0.013328	60	10	60-180	60	158	GapExp	BigFlash	0	51	2	30	0	distractor	1	454	773	189293	13.328	8.287	18.533
ProbeTrack15	13	ProbeTrack	15.0	SCS215a	20120501.143724	20120501.144335	8	0.013328	60	10	60-180	60	167	GapExp	BigFlash	0	52	2	30	1	target	1	401	800	190093	13.328	10.655	16.000
ProbeTrack15	13	ProbeTrack	15.0	SCS215a	20120501.143724	20120501.144342	8	0.013328	60	10	60-180	60	73	GapExp	BigFlash	0	53	2	1	0	distractor	1	450	775	190868	13.328	6.293	20.425
ProbeTrack15	13	ProbeTrack	15.0	SCS215a	20120501.143724	20120501.144348	8	0.013328	60	10	60-180	60	94	GapExp	BigFlash	0	54	2	0	0	distractor	1	409	796	191664	13.328	13.303	13.350
ProbeTrack15	13	ProbeTrack	15.0	SCS215a	20120501.143724	20120501.144354	8	0.013328	60	10	60-180	60	131	GapExp	BigFlash	0	55	2	1	1	target	1	383	809	192473	13.328	13.097	13.565
ProbeTrack15	13	ProbeTrack	15.0	SCS215a	20120501.143724	20120501.144405	8	0.013328	60	10	60-180	60	133	GapExp	BigFlash	0	56	2	0	0	distractor	1	383	809	193282	13.328	10.605	16.044
ProbeTrack15	13	ProbeTrack	15.0	SCS215a	20120501.143724	20120501.144410	8	0.013328	60	10	60-180	60	148	GapExp	BigFlash	0	57	2	0	0	distractor	1	560	720	194002	13.328	13.106	13.559
ProbeTrack15	13	ProbeTrack	15.0	SCS215a	20120501.143724	20120501.144417	8	0.013328	60	10	60-180	60	151	GapExp	BigFlash	0	58	2	3	0	distractor	1	418	791	194793	13.328	13.245	13.411
ProbeTrack15	13	ProbeTrack	15.0	SCS215a	20120501.143724	20120501.144424	8	0.013328	60	10	60-180	60	111	GapExp	BigFlash	0	59	2	3	0	distractor	1	413	794	195587	13.328	13.307	13.349
ProbeTrack15	13	ProbeTrack	15.0	SCS215a	20120501.143724	20120501.144429	8	0.013328	60	10	60-180	60	160	GapExp	BigFlash	0	60	2	30	0	distractor	1	479	761	196348	13.328	12.652	14.011
ProbeTrack15	13	ProbeTrack	15.0	SCS215a	20120501.143724	20120501.144438	8	0.013328	60	10	60-180	60	87	GapExp	BigFlash	0	61	2	30	1	target	1	351	825	197173	13.328	13.105	13.549
ProbeTrack15	13	ProbeTrack	15.0	SCS215a	20120501.143724	20120501.144444	8	0.013328	60	10	60-180	60	75	GapExp	BigFlash	0	62	2	0	1	target	1	421	790	197963	13.328	13.304	13.352
ProbeTrack15	13	ProbeTrack	15.0	SCS215a	20120501.143724	20120501.144450	8	0.013328	60	10	60-180	60	76	GapExp	BigFlash	0	63	2	30	0	distractor	1	390	805	198768	13.328	13.307	13.350
ProbeTrack15	13	ProbeTrack	15.0	SCS215a	20120501.143724	20120501.144456	8	0.013328	60	10	60-180	60	76	GapExp	BigFlash	0	64	2	30	1	target	1	328	836	199604	13.328	13.308	13.352
ProbeTrack15	13	ProbeTrack	15.0	SCS215a	20120501.143724	20120501.144502	8	0.013328	60	10	60-180	60	95	GapExp	BigFlash	0	65	2	0	0	distractor	1	391	805	200409	13.328	13.306	13.346
ProbeTrack15	13	ProbeTrack	15.0	SCS215a	20120501.143724	20120501.144508	8	0.013328	60	10	60-180	60	118	GapExp	BigFlash	0	66	2	0	0	early	-4	-3434	-1000	199409	13.328	11.907	13.874
ProbeTrack15	13	ProbeTrack	15.0	SCS215a	20120501.143724	20120501.144514	8	0.013328	60	10	60-180	60	118	GapExp	BigFlash	0	67	2	1	0	distractor	1	570	715	200124	13.328	9.795	16.863
ProbeTrack15	13	ProbeTrack	15.0	SCS215a	20120501.143724	20120501.144524	8	0.013328	60	10	60-180	60	163	GapExp	BigFlash	0	68	2	30	1	target	1	295	853	200977	13.328	13.304	13.352
ProbeTrack15	13	ProbeTrack	15.0	SCS215a	20120501.143724	20120501.144532	8	0.013328	60	10	60-180	60	128	GapExp	BigFlash	0	69	2	1	1	target	1	302	849	201826	13.328	13.275	13.376
ProbeTrack15	13	ProbeTrack	15.0	SCS215a	20120501.143724	20120501.144537	8	0.013328	60	10	60-180	60	170	GapExp	BigFlash	0	70	2	0	1	target	1	279	861	202687	13.328	13.181	13.427
ProbeTrack15	13	ProbeTrack	15.0	SCS215a	20120501.143724	20120501.144544	8	0.013328	60	10	60-180	60	103	GapExp	BigFlash	0	71	2	0	1	target	1	369	816	203503	13.328	12.715	13.936
ProbeTrack15	13	ProbeTrack	15.0	SCS215a	20120501.143724	20120501.144550	8	0.013328	60	10	60-180	60	105	GapExp	BigFlash	0	72	2	1	1	target	1	249	876	204379	13.328	10.687	15.984
ProbeTrack15	13	ProbeTrack	15.0	SCS215a	20120501.143724	20120501.144556	8	0.013328	60	10	60-180	60	100	GapExp	BigFlash	0	73	2	30	1	distractor	0	295	-1000	203379	13.328	13.305	13.347
ProbeTrack15	13	ProbeTrack	15.0	SCS215a	20120501.143724	20120501.144602	8	0.013328	60	10	60-180	60	164	GapExp	BigFlash	0	74	2	0	0	target	0	329	-1000	202379	13.328	13.107	13.564
ProbeTrack15	13	ProbeTrack	15.0	SCS215a	20120501.143724	20120501.144608	8	0.013328	60	10	60-180	60	169	GapExp	BigFlash	0	75	2	0	0	distractor	1	454	773	203152	13.328	11.859	14.794
ProbeTrack15	13	ProbeTrack	15.0	SCS215a	20120501.143724	20120501.144618	8	0.013328	60	10	60-180	60	72	GapExp	BigFlash	0	76	2	30	0	distractor	1	419	791	203943	13.328	12.786	13.865
ProbeTrack15	13	ProbeTrack	15.0	SCS215a	20120501.143724	20120501.144623	8	0.013328	60	10	60-180	60	74	GapExp	BigFlash	0	77	2	30	0	distractor	1	449	776	204719	13.328	10.360	16.304
ProbeTrack15	13	ProbeTrack	15.0	SCS215a	20120501.143724	20120501.144629	8	0.013328	60	10	60-180	60	64	GapExp	BigFlash	0	78	2	0	1	target	1	295	853	205572	13.328	13.275	13.385
ProbeTrack15	13	ProbeTrack	15.0	SCS215a	20120501.143724	20120501.144634	8	0.013328	60	10	60-180	60	162	GapExp	BigFlash	0	79	2	0	1	target	1	326	837	206409	13.328	8.294	18.364
ProbeTrack15	13	ProbeTrack	15.0	SCS215a	20120501.143724	20120501.144640	8	0.013328	60	10	60-180	60	62	GapExp	BigFlash	0	80	2	1	0	target	0	327	-1000	205409	13.328	13.295	13.355
ProbeTrack15	13	ProbeTrack	15.0	SCS215a	20120501.143724	20120501.144645	8	0.013328	60	10	60-180	60	112	GapExp	BigFlash	0	81	2	1	0	distractor	1	413	794	206203	13.328	13.099	13.544
ProbeTrack15	13	ProbeTrack	15.0	SCS215a	20120501.143724	20120501.144651	8	0.013328	60	10	60-180	60	148	GapExp	BigFlash	0	82	2	1	0	distractor	1	408	796	206999	13.328	9.953	16.697
ProbeTrack15	13	ProbeTrack	15.0	SCS215a	20120501.143724	20120501.144657	8	0.013328	60	10	60-180	60	176	GapExp	BigFlash	0	83	2	3	0	distractor	1	413	794	207793	13.418	6.822	37.161
ProbeTrack15	13	ProbeTrack	15.0	SCS215a	20120501.143724	20120501.144704	8	0.013328	60	10	60-180	60	84	GapExp	BigFlash	0	84	2	1	1	distractor	0	352	-1000	206793	13.328	12.318	14.326
ProbeTrack15	13	ProbeTrack	15.0	SCS215a	20120501.143724	20120501.144710	8	0.013328	60	10	60-180	60	142	GapExp	BigFlash	0	85	2	0	1	target	1	569	716	207509	13.328	13.306	13.352
ProbeTrack15	13	ProbeTrack	15.0	SCS215a	20120501.143724	20120501.144716	8	0.013328	60	10	60-180	60	126	GapExp	BigFlash	0	86	2	3	0	distractor	1	389	806	208315	13.328	7.613	19.038
ProbeTrack15	13	ProbeTrack	15.0	SCS215a	20120501.143724	20120501.144722	8	0.013328	60	10	60-180	60	175	GapExp	BigFlash	0	87	2	1	0	target	0	348	-1000	207315	13.328	11.806	14.842
ProbeTrack15	13	ProbeTrack	15.0	SCS215a	20120501.143724	20120501.144728	8	0.013328	60	10	60-180	60	85	GapExp	BigFlash	0	88	2	1	1	target	1	400	800	208115	13.328	13.101	13.547
ProbeTrack15	13	ProbeTrack	15.0	SCS215a	20120501.143724	20120501.144734	8	0.013328	60	10	60-180	60	173	GapExp	BigFlash	0	89	2	3	0	distractor	1	372	814	208929	13.328	8.937	17.719
ProbeTrack15	13	ProbeTrack	15.0	SCS215a	20120501.143724	20120501.144741	8	0.013328	60	10	60-180	60	74	GapExp	BigFlash	0	90	2	30	0	distractor	1	504	748	209677	13.328	13.108	13.535
ProbeTrack15	13	ProbeTrack	15.0	SCS215a	20120501.143724	20120501.144747	8	0.013328	60	10	60-180	60	118	GapExp	BigFlash	0	91	2	30	0	distractor	1	636	682	210359	13.328	13.097	13.552
ProbeTrack15	13	ProbeTrack	15.0	SCS215a	20120501.143724	20120501.144753	8	0.013328	60	10	60-180	60	157	GapExp	BigFlash	0	92	2	30	1	target	1	347	827	211186	13.328	11.852	14.805
ProbeTrack15	13	ProbeTrack	15.0	SCS215a	20120501.143724	20120501.144800	8	0.013328	60	10	60-180	60	130	GapExp	BigFlash	0	93	2	1	0	distractor	1	440	780	211966	13.328	11.294	15.362
ProbeTrack15	13	ProbeTrack	15.0	SCS215a	20120501.143724	20120501.144805	8	0.013328	60	10	60-180	60	136	GapExp	BigFlash	0	94	2	0	1	target	1	293	854	212820	13.328	13.309	13.347
ProbeTrack15	13	ProbeTrack	15.0	SCS215a	20120501.143724	20120501.144812	8	0.013328	60	10	60-180	60	77	GapExp	BigFlash	0	95	2	1	1	target	1	320	840	213660	13.328	13.307	13.355
ProbeTrack15	13	ProbeTrack	15.0	SCS215a	20120501.143724	20120501.144817	8	0.013328	60	10	60-180	60	100	GapExp	BigFlash	0	96	2	30	1	target	1	289	856	214516	13.328	13.112	13.556
ProbeTrack15	13	ProbeTrack	15.0	SCS215a	20120501.143724	20120501.144823	8	0.013328	60	10	60-180	60	113	GapExp	BigFlash	0	97	2	3	0	distractor	1	394	803	215319	13.328	13.087	13.557
ProbeTrack15	13	ProbeTrack	15.0	SCS215a	20120501.143724	20120501.144829	8	0.013328	60	10	60-180	60	119	GapExp	BigFlash	0	98	2	3	0	distractor	1	378	811	216130	13.328	10.651	16.012
ProbeTrack15	13	ProbeTrack	15.0	SCS215a	20120501.143724	20120501.144835	8	0.013328	60	10	60-180	60	140	GapExp	BigFlash	0	99	2	0	0	distractor	1	421	790	216920	13.328	10.964	15.514
ProbeTrack15	13	ProbeTrack	15.0	SCS215a	20120501.143724	20120501.144841	8	0.013328	60	10	60-180	60	147	GapExp	BigFlash	0	100	2	3	0	distractor	1	439	781	217701	13.328	13.262	13.402
ProbeTrack15	13	ProbeTrack	15.0	SCS215a	20120501.143724	20120501.144848	8	0.013328	60	10	60-180	60	134	GapExp	BigFlash	0	101	2	30	1	target	1	257	872	218573	13.328	13.305	13.351
ProbeTrack15	13	ProbeTrack	15.0	SCS215a	20120501.143724	20120501.144854	8	0.013328	60	10	60-180	60	118	GapExp	BigFlash	0	102	2	1	1	target	1	329	836	219409	13.328	13.309	13.353
ProbeTrack15	13	ProbeTrack	15.0	SCS215a	20120501.143724	20120501.144900	8	0.013328	60	10	60-180	60	147	GapExp	BigFlash	0	103	2	0	1	target	1	320	840	220249	13.328	13.307	13.348
ProbeTrack15	13	ProbeTrack	15.0	SCS215a	20120501.143724	20120501.144906	8	0.013328	60	10	60-180	60	71	GapExp	BigFlash	0	104	2	3	0	distractor	1	374	813	221062	13.328	13.115	13.555
ProbeTrack15	13	ProbeTrack	15.0	SCS215a	20120501.143724	20120501.144911	8	0.013328	60	10	60-180	60	116	GapExp	BigFlash	0	105	2	1	1	target	1	270	865	221927	13.328	11.755	14.915
ProbeTrack15	13	ProbeTrack	15.0	SCS215a	20120501.143724	20120501.144940	8	0.013328	60	10	60-180	60	166	GapExp	BigFlash	0	106	2	0	0	distractor	1	344	828	222755	13.328	12.203	14.460
ProbeTrack15	13	ProbeTrack	15.0	SCS215a	20120501.143724	20120501.144946	8	0.013328	60	10	60-180	60	147	GapExp	BigFlash	0	107	2	3	1	target	1	250	875	223630	13.328	13.038	13.631
ProbeTrack15	13	ProbeTrack	15.0	SCS215a	20120501.143724	20120501.144953	8	0.013328	60	10	60-180	60	111	GapExp	BigFlash	0	108	2	0	1	target	1	354	823	224453	13.328	13.105	13.551
ProbeTrack15	13	ProbeTrack	15.0	SCS215a	20120501.143724	20120501.145001	8	0.013328	60	10	60-180	60	69	GapExp	BigFlash	0	109	2	1	0	distractor	1	348	826	225279	13.328	13.101	13.564
ProbeTrack15	13	ProbeTrack	15.0	SCS215a	20120501.143724	20120501.145006	8	0.013328	60	10	60-180	60	141	GapExp	BigFlash	0	110	2	3	0	distractor	1	353	824	226103	13.328	8.060	18.603
ProbeTrack15	13	ProbeTrack	15.0	SCS215a	20120501.143724	20120501.145013	8	0.013328	60	10	60-180	60	114	GapExp	BigFlash	0	111	2	3	1	target	1	320	840	226943	13.328	11.263	15.379
ProbeTrack15	13	ProbeTrack	15.0	SCS215a	20120501.143724	20120501.145018	8	0.013328	60	10	60-180	60	62	GapExp	BigFlash	0	112	2	0	0	distractor	1	404	798	227741	13.328	13.300	13.357
ProbeTrack15	13	ProbeTrack	15.0	SCS215a	20120501.143724	20120501.145023	8	0.013328	60	10	60-180	60	66	GapExp	BigFlash	0	113	2	0	1	target	1	368	816	228557	13.328	13.302	13.348
ProbeTrack15	13	ProbeTrack	15.0	SCS215a	20120501.143724	20120501.145028	8	0.013328	60	10	60-180	60	135	GapExp	BigFlash	0	114	2	0	1	target	1	343	829	229386	13.328	13.098	13.563
ProbeTrack15	13	ProbeTrack	15.0	SCS215a	20120501.143724	20120501.145034	8	0.013328	60	10	60-180	60	76	GapExp	BigFlash	0	115	2	0	0	distractor	1	415	793	230179	13.328	9.520	17.152
ProbeTrack15	13	ProbeTrack	15.0	SCS215a	20120501.143724	20120501.145039	8	0.013328	60	10	60-180	60	109	GapExp	BigFlash	0	116	2	0	1	target	1	302	849	231028	13.328	13.304	13.345
ProbeTrack15	13	ProbeTrack	15.0	SCS215a	20120501.143724	20120501.145045	8	0.013328	60	10	60-180	60	155	GapExp	BigFlash	0	117	2	0	1	target	1	378	811	231839	13.328	11.836	14.826
ProbeTrack15	13	ProbeTrack	15.0	SCS215a	20120501.143724	20120501.145052	8	0.013328	60	10	60-180	60	143	GapExp	BigFlash	0	118	2	3	0	distractor	1	401	800	232639	13.328	13.249	13.400
ProbeTrack15	13	ProbeTrack	15.0	SCS215a	20120501.143724	20120501.145059	8	0.013328	60	10	60-180	60	165	GapExp	BigFlash	0	119	2	3	1	target	1	326	837	233476	13.328	13.307	13.353
ProbeTrack15	13	ProbeTrack	15.0	SCS215a	20120501.143724	20120501.145105	8	0.013328	60	10	60-180	60	157	GapExp	BigFlash	0	120	2	3	1	target	1	318	841	234317	13.328	11.635	15.035
ProbeTrack15	13	ProbeTrack	15.0	SCS215a	20120501.143724	20120501.145112	8	0.013328	60	10	60-180	60	81	GapExp	BigFlash	0	121	2	3	1	target	1	279	861	235178	13.328	13.103	13.552
ProbeTrack15	13	ProbeTrack	15.0	SCS215a	20120501.143724	20120501.145118	8	0.013328	60	10	60-180	60	93	GapExp	BigFlash	0	122	2	3	1	target	1	314	843	236021	13.339	9.536	17.121
ProbeTrack15	13	ProbeTrack	15.0	SCS215a	20120501.143724	20120501.145123	8	0.013328	60	10	60-180	60	125	GapExp	BigFlash	0	123	2	30	1	target	1	393	804	236825	13.328	9.627	17.021
ProbeTrack15	13	ProbeTrack	15.0	SCS215a	20120501.143724	20120501.145130	8	0.013328	60	10	60-180	60	122	GapExp	BigFlash	0	124	2	0	0	distractor	1	385	808	237633	13.320	11.601	14.696
ProbeTrack15	13	ProbeTrack	15.0	SCS215a	20120501.143724	20120501.145136	8	0.013328	60	10	60-180	60	127	GapExp	BigFlash	0	125	2	3	1	target	1	321	840	238473	13.328	13.303	13.352
ProbeTrack15	13	ProbeTrack	15.0	SCS215a	20120501.143724	20120501.145142	8	0.013328	60	10	60-180	60	159	GapExp	BigFlash	0	126	2	30	1	target	1	285	858	239331	13.328	13.297	13.351
ProbeTrack15	13	ProbeTrack	15.0	SCS215a	20120501.143724	20120501.145149	8	0.013328	60	10	60-180	60	148	GapExp	BigFlash	0	127	2	1	0	distractor	1	526	737	240068	13.328	9.910	16.747
ProbeTrack15	13	ProbeTrack	15.0	SCS215a	20120501.143724	20120501.145200	8	0.013328	60	10	60-180	60	175	GapExp	BigFlash	0	128	2	30	1	target	1	287	857	240925	13.328	12.990	13.651
ProbeTrack15	13	ProbeTrack	15.0	SCS215a	20120501.143724	20120501.145207	8	0.013328	60	10	60-180	60	116	GapExp	BigFlash	0	129	2	3	0	distractor	1	412	794	241719	13.328	13.098	13.557
ProbeTrack15	13	ProbeTrack	15.0	SCS215a	20120501.143724	20120501.145222	8	0.013328	60	10	60-180	60	81	GapExp	BigFlash	0	130	2	1	0	distractor	1	432	784	242503	13.328	9.280	17.378
ProbeTrack15	13	ProbeTrack	15.0	SCS215a	20120501.143724	20120501.145231	8	0.013328	60	10	60-180	60	78	GapExp	BigFlash	0	131	2	0	1	target	1	285	858	243361	13.328	11.566	15.083
ProbeTrack15	13	ProbeTrack	15.0	SCS215a	20120501.143724	20120501.145238	8	0.013328	60	10	60-180	60	115	GapExp	BigFlash	0	132	2	3	1	target	1	277	862	244223	13.328	13.308	13.351
ProbeTrack15	13	ProbeTrack	15.0	SCS215a	20120501.143724	20120501.145243	8	0.013328	60	10	60-180	60	102	GapExp	BigFlash	0	133	2	3	0	distractor	1	342	829	245052	13.328	13.098	13.550
ProbeTrack15	13	ProbeTrack	15.0	SCS215a	20120501.143724	20120501.145249	8	0.013328	60	10	60-180	60	99	GapExp	BigFlash	0	134	2	30	0	distractor	1	413	794	245846	13.328	13.106	13.542
ProbeTrack15	13	ProbeTrack	15.0	SCS215a	20120501.143724	20120501.145255	8	0.013328	60	10	60-180	60	86	GapExp	BigFlash	0	135	2	30	0	distractor	1	440	780	246626	13.328	11.153	15.504
ProbeTrack15	13	ProbeTrack	15.0	SCS215a	20120501.143724	20120501.145301	8	0.013328	60	10	60-180	60	107	GapExp	BigFlash	0	136	2	3	1	target	1	346	827	247453	13.328	5.801	20.848
ProbeTrack15	13	ProbeTrack	15.0	SCS215a	20120501.143724	20120501.145307	8	0.013328	60	10	60-180	60	153	GapExp	BigFlash	0	137	2	3	0	distractor	1	399	801	248254	13.328	4.317	22.335
ProbeTrack15	13	ProbeTrack	15.0	SCS215a	20120501.143724	20120501.145318	8	0.013328	60	10	60-180	60	72	GapExp	BigFlash	0	138	2	0	0	distractor	1	407	797	249051	13.328	13.312	13.344
ProbeTrack15	13	ProbeTrack	15.0	SCS215a	20120501.143724	20120501.145332	8	0.013328	60	10	60-180	60	137	GapExp	BigFlash	0	139	2	30	0	distractor	1	391	805	249856	13.328	10.850	15.793
ProbeTrack15	13	ProbeTrack	15.0	SCS215a	20120501.143724	20120501.145341	8	0.013328	60	10	60-180	60	101	GapExp	BigFlash	0	140	2	3	0	distractor	1	339	831	250687	13.328	12.270	14.395
ProbeTrack15	13	ProbeTrack	15.0	SCS215a	20120501.143724	20120501.145347	8	0.013328	60	10	60-180	60	96	GapExp	BigFlash	0	141	2	1	0	distractor	1	406	797	251484	13.328	13.283	13.387
ProbeTrack15	13	ProbeTrack	15.0	SCS215a	20120501.143724	20120501.145352	8	0.013328	60	10	60-180	60	169	GapExp	BigFlash	0	142	2	1	1	target	1	429	786	252270	13.328	13.098	13.562
ProbeTrack15	13	ProbeTrack	15.0	SCS215a	20120501.143724	20120501.145400	8	0.013328	60	10	60-180	60	166	GapExp	BigFlash	0	143	2	3	0	distractor	1	432	784	253054	13.328	13.092	13.566
ProbeTrack15	13	ProbeTrack	15.0	SCS215a	20120501.143724	20120501.145407	8	0.013328	60	10	60-180	60	179	GapExp	BigFlash	0	144	2	1	1	target	1	445	778	253832	13.328	13.098	13.547
ProbeTrack15	13	ProbeTrack	15.0	SCS215a	20120501.143724	20120501.145414	8	0.013328	60	10	60-180	60	114	GapExp	BigFlash	0	145	2	30	0	distractor	1	409	796	254628	13.328	13.028	13.642
ProbeTrack15	13	ProbeTrack	15.0	SCS215a	20120501.143724	20120501.145420	8	0.013328	60	10	60-180	60	143	GapExp	BigFlash	0	146	2	1	0	distractor	1	415	793	255421	13.328	13.094	13.549
ProbeTrack15	13	ProbeTrack	15.0	SCS215a	20120501.143724	20120501.145426	8	0.013328	60	10	60-180	60	140	GapExp	BigFlash	0	147	2	0	1	target	1	343	829	256250	13.328	13.098	13.570
ProbeTrack15	13	ProbeTrack	15.0	SCS215a	20120501.143724	20120501.145432	8	0.013328	60	10	60-180	60	174	GapExp	BigFlash	0	148	2	30	1	target	1	308	846	257096	13.328	13.113	13.547
ProbeTrack15	13	ProbeTrack	15.0	SCS215a	20120501.143724	20120501.145440	8	0.013328	60	10	60-180	60	133	GapExp	BigFlash	0	149	2	3	1	target	1	339	831	257927	13.328	12.237	14.433
ProbeTrack15	13	ProbeTrack	15.0	SCS215a	20120501.143724	20120501.145446	8	0.013328	60	10	60-180	60	145	GapExp	BigFlash	0	150	2	30	1	target	1	362	819	258746	13.328	9.860	16.795
ProbeTrack15	13	ProbeTrack	15.0	SCS215a	20120501.143724	20120501.145452	8	0.013328	60	10	60-180	60	168	GapExp	BigFlash	0	151	2	30	0	distractor	1	411	795	259541	13.328	9.888	16.754
ProbeTrack15	13	ProbeTrack	15.0	SCS215a	20120501.143724	20120501.145518	8	0.013328	60	10	60-180	60	102	GapExp	BigFlash	0	152	2	30	0	distractor	1	408	796	260337	13.328	13.305	13.350
ProbeTrack15	13	ProbeTrack	15.0	SCS215a	20120501.143724	20120501.145525	8	0.013328	60	10	60-180	60	129	GapExp	BigFlash	0	153	2	1	1	target	1	304	848	261185	13.328	3.330	23.329
ProbeTrack15	13	ProbeTrack	15.0	SCS215a	20120501.143724	20120501.145533	8	0.013328	60	10	60-180	60	84	GapExp	BigFlash	0	154	2	1	0	distractor	1	429	786	261971	13.328	13.302	13.368
ProbeTrack15	13	ProbeTrack	15.0	SCS215a	20120501.143724	20120501.145539	8	0.013328	60	10	60-180	60	62	GapExp	BigFlash	0	155	2	30	0	distractor	1	432	784	262755	13.328	11.511	15.144
ProbeTrack15	13	ProbeTrack	15.0	SCS215a	20120501.143724	20120501.145545	8	0.013328	60	10	60-180	60	175	GapExp	BigFlash	0	156	2	30	0	distractor	1	553	724	263479	13.328	10.100	16.549
ProbeTrack15	13	ProbeTrack	15.0	SCS215a	20120501.143724	20120501.145552	8	0.013328	60	10	60-180	60	62	GapExp	BigFlash	0	157	2	0	0	distractor	1	526	737	264216	13.328	10.505	16.167
ProbeTrack15	13	ProbeTrack	15.0	SCS215a	20120501.143724	20120501.145558	8	0.013328	60	10	60-180	60	106	GapExp	BigFlash	0	158	2	1	1	target	1	290	855	265071	13.328	13.301	13.351
ProbeTrack15	13	ProbeTrack	15.0	SCS215a	20120501.143724	20120501.145605	8	0.013328	60	10	60-180	60	155	GapExp	BigFlash	0	159	2	3	0	distractor	1	372	814	265885	13.328	10.454	16.209
ProbeTrack15	13	ProbeTrack	15.0	SCS215a	20120501.143724	20120501.145611	8	0.013328	60	10	60-180	60	179	GapExp	BigFlash	0	160	2	1	1	target	1	414	793	266678	13.328	13.100	13.570
ProbeTrack15	13	ProbeTrack	15.0	SCS215a	20120501.143724	20120501.145618	8	0.013328	60	10	60-180	60	150	GapExp	BigFlash	0	161	2	30	1	target	1	338	831	267509	13.328	10.528	16.129
ProbeTrack15	13	ProbeTrack	15.0	SCS215a	20120501.143724	20120501.145628	8	0.013328	60	10	60-180	60	155	GapExp	BigFlash	0	162	2	1	1	target	1	305	848	268357	13.328	12.618	14.032
ProbeTrack15	13	ProbeTrack	15.0	SCS215a	20120501.143724	20120501.145635	8	0.013328	60	10	60-180	60	150	GapExp	BigFlash	0	163	2	3	1	target	1	264	868	269225	13.328	13.303	13.352
ProbeTrack15	13	ProbeTrack	15.0	SCS215a	20120501.143724	20120501.145642	8	0.013328	60	10	60-180	60	84	GapExp	BigFlash	0	164	2	3	1	target	1	275	863	270088	13.328	13.298	13.357
ProbeTrack15	13	ProbeTrack	15.0	SCS215a	20120501.143724	20120501.145648	8	0.013328	60	10	60-180	60	172	GapExp	BigFlash	0	165	2	0	1	target	1	327	837	270925	13.328	12.047	14.605
ProbeTrack15	13	ProbeTrack	15.0	SCS215a	20120501.143724	20120501.145654	8	0.013328	60	10	60-180	60	107	GapExp	BigFlash	0	166	2	1	1	target	1	267	867	271792	13.328	9.911	16.747
ProbeTrack15	13	ProbeTrack	15.0	SCS215a	20120501.143724	20120501.145701	8	0.013328	60	10	60-180	60	121	GapExp	BigFlash	0	167	2	1	0	distractor	1	399	801	272593	13.328	12.063	14.601
ProbeTrack15	13	ProbeTrack	15.0	SCS215a	20120501.143724	20120501.145709	8	0.013328	60	10	60-180	60	107	GapExp	BigFlash	0	168	2	3	1	target	1	247	877	273470	13.328	13.084	13.557
ProbeTrack15	13	ProbeTrack	15.0	SCS215a	20120501.143724	20120501.145715	8	0.013328	60	10	60-180	60	131	GapExp	BigFlash	0	169	2	1	1	target	1	304	848	274318	13.328	13.086	13.556
ProbeTrack15	13	ProbeTrack	15.0	SCS215a	20120501.143724	20120501.145721	8	0.013328	60	10	60-180	60	81	GapExp	BigFlash	0	170	2	1	0	distractor	1	334	833	275151	13.328	13.112	13.542
ProbeTrack15	13	ProbeTrack	15.0	SCS215a	20120501.143724	20120501.145727	8	0.013328	60	10	60-180	60	82	GapExp	BigFlash	0	171	2	30	1	target	1	777	612	275763	13.328	10.731	15.938
ProbeTrack15	13	ProbeTrack	15.0	SCS215a	20120501.143724	20120501.145734	8	0.013328	60	10	60-180	60	177	GapExp	BigFlash	0	172	2	1	1	distractor	0	347	-1000	274763	13.328	13.311	13.353
ProbeTrack15	13	ProbeTrack	15.0	SCS215a	20120501.143724	20120501.145743	8	0.013328	60	10	60-180	60	112	GapExp	BigFlash	0	173	2	1	1	target	1	315	843	275606	13.328	13.308	13.352
ProbeTrack15	13	ProbeTrack	15.0	SCS215a	20120501.143724	20120501.145753	8	0.013328	60	10	60-180	60	87	GapExp	BigFlash	0	174	2	30	1	target	1	290	855	276461	13.328	12.689	13.968
ProbeTrack15	13	ProbeTrack	15.0	SCS215a	20120501.143724	20120501.145759	8	0.013328	60	10	60-180	60	116	GapExp	BigFlash	0	175	2	1	0	distractor	1	427	787	277248	13.328	10.109	16.551
ProbeTrack15	13	ProbeTrack	15.0	SCS215a	20120501.143724	20120501.145807	8	0.013328	60	10	60-180	60	88	GapExp	BigFlash	0	176	2	30	1	target	1	355	823	278071	13.328	10.039	16.624
ProbeTrack15	13	ProbeTrack	15.0	SCS215a	20120501.143724	20120501.145813	8	0.013328	60	10	60-180	60	75	GapExp	BigFlash	0	177	2	3	1	target	1	278	861	278932	13.328	11.698	14.974
ProbeTrack15	13	ProbeTrack	15.0	SCS215a	20120501.143724	20120501.145818	8	0.013328	60	10	60-180	60	178	GapExp	BigFlash	0	178	2	3	1	distractor	0	334	-1000	277932	13.328	12.781	13.885
ProbeTrack15	13	ProbeTrack	15.0	SCS215a	20120501.143724	20120501.145828	8	0.013328	60	10	60-180	60	158	GapExp	BigFlash	0	179	2	3	1	target	1	285	858	278790	13.328	11.975	14.681
ProbeTrack15	13	ProbeTrack	15.0	SCS215a	20120501.143724	20120501.145835	8	0.013328	60	10	60-180	60	165	GapExp	BigFlash	0	180	2	0	0	target	0	581	-1000	277790	13.328	10.015	16.642
ProbeTrack15	13	ProbeTrack	15.0	SCS215a	20120501.143724	20120501.145842	8	0.013328	60	10	60-180	60	126	GapExp	BigFlash	0	181	2	0	0	distractor	1	444	778	278568	13.328	13.299	13.365
ProbeTrack15	13	ProbeTrack	15.0	SCS215a	20120501.143724	20120501.145849	8	0.013328	60	10	60-180	60	131	GapExp	BigFlash	0	182	2	3	1	target	1	320	840	279408	13.328	13.263	13.393
ProbeTrack15	13	ProbeTrack	15.0	SCS215a	20120501.143724	20120501.145855	8	0.013328	60	10	60-180	60	99	GapExp	BigFlash	0	183	2	3	0	distractor	1	393	804	280212	13.328	13.093	13.570
ProbeTrack15	13	ProbeTrack	15.0	SCS215a	20120501.143724	20120501.145900	8	0.013328	60	10	60-180	60	83	GapExp	BigFlash	0	184	2	3	1	target	1	293	854	281066	13.328	13.099	13.562
ProbeTrack15	13	ProbeTrack	15.0	SCS215a	20120501.143724	20120501.145905	8	0.013328	60	10	60-180	60	130	GapExp	BigFlash	0	185	2	0	0	distractor	1	369	816	281882	13.328	11.293	15.365
ProbeTrack15	13	ProbeTrack	15.0	SCS215a	20120501.143724	20120501.145911	8	0.013328	60	10	60-180	60	86	GapExp	BigFlash	0	186	2	30	1	target	1	279	861	282743	13.328	13.300	13.364
ProbeTrack15	13	ProbeTrack	15.0	SCS215a	20120501.143724	20120501.145918	8	0.013328	60	10	60-180	60	134	GapExp	BigFlash	0	187	2	30	0	distractor	1	426	787	283530	13.328	13.301	13.357
ProbeTrack15	13	ProbeTrack	15.0	SCS215a	20120501.143724	20120501.145925	8	0.013328	60	10	60-180	60	133	GapExp	BigFlash	0	188	2	30	0	distractor	1	420	790	284320	13.328	11.025	15.655
ProbeTrack15	13	ProbeTrack	15.0	SCS215a	20120501.143724	20120501.145931	8	0.013328	60	10	60-180	60	163	GapExp	BigFlash	0	189	2	1	0	distractor	1	507	747	285067	13.374	13.222	26.713
ProbeTrack15	13	ProbeTrack	15.0	SCS215a	20120501.143724	20120501.145938	8	0.013328	60	10	60-180	60	151	GapExp	BigFlash	0	190	2	0	1	target	1	378	811	285878	13.328	8.622	18.032
ProbeTrack15	13	ProbeTrack	15.0	SCS215a	20120501.143724	20120501.145945	8	0.013328	60	10	60-180	60	80	GapExp	BigFlash	0	191	2	1	1	target	1	331	835	286713	13.328	6.072	20.593
ProbeTrack15	13	ProbeTrack	15.0	SCS215a	20120501.143724	20120501.145951	8	0.013328	60	10	60-180	60	97	GapExp	BigFlash	0	192	2	1	0	distractor	1	376	812	287525	13.328	9.879	16.773
ProbeTrack15	13	ProbeTrack	15.0	SCS215a	20120501.143724	20120501.145956	8	0.013328	60	10	60-180	60	138	GapExp	BigFlash	0	193	2	1	1	target	1	328	836	288361	13.328	10.284	16.369
ProbeTrack15	13	ProbeTrack	15.0	SCS215a	20120501.143724	20120501.150002	8	0.013328	60	10	60-180	60	154	GapExp	BigFlash	0	194	2	1	1	target	1	475	763	289124	13.328	12.874	13.775
ProbeTrack15	13	ProbeTrack	15.0	SCS215a	20120501.143724	20120501.150009	8	0.013328	60	10	60-180	60	146	GapExp	BigFlash	0	195	2	3	1	target	1	311	845	289969	13.328	12.236	14.404
ProbeTrack15	13	ProbeTrack	15.0	SCS215a	20120501.143724	20120501.150015	8	0.013328	60	10	60-180	60	171	GapExp	BigFlash	0	196	2	1	0	distractor	1	365	818	290787	13.328	13.308	13.351
ProbeTrack15	13	ProbeTrack	15.0	SCS215a	20120501.143724	20120501.150022	8	0.013328	60	10	60-180	60	115	GapExp	BigFlash	0	197	2	0	1	target	1	349	826	291613	13.328	13.242	13.442
ProbeTrack15	13	ProbeTrack	15.0	SCS215a	20120501.143724	20120501.150028	8	0.013328	60	10	60-180	60	77	GapExp	BigFlash	0	198	2	0	0	target	0	466	-1000	290613	13.328	13.123	13.544
ProbeTrack15	13	ProbeTrack	15.0	SCS215a	20120501.143724	20120501.150033	8	0.013328	60	10	60-180	60	82	GapExp	BigFlash	0	199	2	30	1	target	1	353	824	291437	13.328	13.307	13.352
ProbeTrack15	13	ProbeTrack	15.0	SCS215a	20120501.143724	20120501.150039	8	0.013328	60	10	60-180	60	144	GapExp	BigFlash	0	200	2	3	0	distractor	1	417	792	292229	13.328	11.522	15.120
ProbeTrack15	13	ProbeTrack	15.0	SCS215a	20120501.150125	20120501.150132	8	0.013326	60	10	60-180	60	116	GapPrac	SmallFlash	1	1	2	3	0	target	0	687	-1000	291229	13.379	5.867	20.789
ProbeTrack15	13	ProbeTrack	15.0	SCS215a	20120501.150125	20120501.150210	8	0.013326	60	10	60-180	60	69	GapPrac	SmallFlash	1	2	2	0	1	target	1	537	732	291961	13.328	7.616	19.053
ProbeTrack15	13	ProbeTrack	15.0	SCS215a	20120501.150125	20120501.150215	8	0.013326	60	10	60-180	60	150	GapPrac	SmallFlash	1	3	2	30	1	target	1	294	853	292814	13.328	13.108	13.542
ProbeTrack15	13	ProbeTrack	15.0	SCS215a	20120501.150125	20120501.150222	8	0.013326	60	10	60-180	60	113	GapPrac	SmallFlash	1	4	2	3	1	target	1	366	817	293631	13.328	9.910	16.747
ProbeTrack15	13	ProbeTrack	15.0	SCS215a	20120501.150125	20120501.150227	8	0.013326	60	10	60-180	60	168	GapPrac	SmallFlash	1	5	2	0	1	target	1	283	859	294490	13.328	10.423	16.235
ProbeTrack15	13	ProbeTrack	15.0	SCS215a	20120501.150125	20120501.150234	8	0.013326	60	10	60-180	60	65	GapPrac	SmallFlash	1	6	2	3	1	target	1	290	855	295345	13.328	13.303	13.352
ProbeTrack15	13	ProbeTrack	15.0	SCS215a	20120501.150125	20120501.150240	8	0.013326	60	10	60-180	60	126	GapPrac	SmallFlash	1	7	2	0	0	distractor	1	409	796	296141	13.328	13.308	13.355
ProbeTrack15	13	ProbeTrack	15.0	SCS215a	20120501.150125	20120501.150246	8	0.013326	60	10	60-180	60	105	GapPrac	SmallFlash	1	8	2	1	0	distractor	1	520	740	296881	13.328	13.311	13.346
ProbeTrack15	13	ProbeTrack	15.0	SCS215a	20120501.150125	20120501.150252	8	0.013326	60	10	60-180	60	131	GapPrac	SmallFlash	1	9	2	0	0	distractor	1	423	789	297670	13.328	13.104	13.549
ProbeTrack15	13	ProbeTrack	15.0	SCS215a	20120501.150125	20120501.150258	8	0.013326	60	10	60-180	60	82	GapPrac	SmallFlash	1	10	2	1	1	target	1	384	808	298478	13.328	9.116	16.521
ProbeTrack15	13	ProbeTrack	15.0	SCS215a	20120501.150125	20120501.150303	8	0.013326	60	10	60-180	60	62	GapPrac	SmallFlash	1	11	2	0	1	target	1	390	805	299283	13.328	12.835	13.815
ProbeTrack15	13	ProbeTrack	15.0	SCS215a	20120501.150125	20120501.150308	8	0.013326	60	10	60-180	60	69	GapPrac	SmallFlash	1	12	2	30	1	target	1	295	853	300136	13.328	13.309	13.348
ProbeTrack15	13	ProbeTrack	15.0	SCS215a	20120501.150125	20120501.150314	8	0.013326	60	10	60-180	60	108	GapPrac	SmallFlash	1	13	2	30	0	distractor	1	385	808	300944	13.328	9.430	17.226
ProbeTrack15	13	ProbeTrack	15.0	SCS215a	20120501.150125	20120501.150320	8	0.013326	60	10	60-180	60	166	GapPrac	SmallFlash	1	14	2	3	1	target	1	307	847	301791	13.328	13.107	13.556
ProbeTrack15	13	ProbeTrack	15.0	SCS215a	20120501.150125	20120501.150327	8	0.013326	60	10	60-180	60	131	GapPrac	SmallFlash	1	15	2	1	0	distractor	1	347	827	302618	13.328	11.093	15.565
ProbeTrack15	13	ProbeTrack	15.0	SCS215a	20120501.150125	20120501.150333	8	0.013326	60	10	60-180	60	97	GapPrac	SmallFlash	1	16	2	30	1	target	1	354	823	303441	13.328	10.693	15.971
ProbeTrack15	13	ProbeTrack	15.0	SCS215a	20120501.150125	20120501.150339	8	0.013326	60	10	60-180	60	147	GapPrac	SmallFlash	1	17	2	3	0	distractor	1	386	807	304248	13.328	13.308	13.348
ProbeTrack15	13	ProbeTrack	15.0	SCS215a	20120501.150125	20120501.150345	8	0.013326	60	10	60-180	60	135	GapPrac	SmallFlash	1	18	2	30	0	distractor	1	397	802	305050	13.328	13.111	13.563
ProbeTrack15	13	ProbeTrack	15.0	SCS215a	20120501.150125	20120501.150352	8	0.013326	60	10	60-180	60	118	GapPrac	SmallFlash	1	19	2	1	1	target	1	377	812	305862	13.328	12.817	13.825
ProbeTrack15	13	ProbeTrack	15.0	SCS215a	20120501.150125	20120501.150358	8	0.013326	60	10	60-180	60	174	GapPrac	SmallFlash	1	20	2	3	0	distractor	1	382	809	306671	13.328	13.276	13.379
ProbeTrack15	13	ProbeTrack	15.0	SCS215a	20120501.150432	20120501.150437	8	0.013328	60	10	60-180	60	110	GapExp	SmallFlash	1	1	2	1	0	distractor	1	486	757	307428	13.385	13.309	13.345
ProbeTrack15	13	ProbeTrack	15.0	SCS215a	20120501.150432	20120501.150453	8	0.013328	60	10	60-180	60	123	GapExp	SmallFlash	1	2	2	0	0	distractor	1	424	788	308216	13.328	13.309	13.349
ProbeTrack15	13	ProbeTrack	15.0	SCS215a	20120501.150432	20120501.150500	8	0.013328	60	10	60-180	60	150	GapExp	SmallFlash	1	3	2	30	0	distractor	1	491	755	308971	13.328	13.305	13.346
ProbeTrack15	13	ProbeTrack	15.0	SCS215a	20120501.150432	20120501.150507	8	0.013328	60	10	60-180	60	166	GapExp	SmallFlash	1	4	2	1	1	target	1	310	845	309816	13.328	12.901	13.748
ProbeTrack15	13	ProbeTrack	15.0	SCS215a	20120501.150432	20120501.150514	8	0.013328	60	10	60-180	60	110	GapExp	SmallFlash	1	5	2	0	1	target	1	349	826	310642	13.328	12.972	13.677
ProbeTrack15	13	ProbeTrack	15.0	SCS215a	20120501.150432	20120501.150519	8	0.013328	60	10	60-180	60	156	GapExp	SmallFlash	1	6	2	3	1	target	1	292	854	311496	13.328	12.983	13.681
ProbeTrack15	13	ProbeTrack	15.0	SCS215a	20120501.150432	20120501.150526	8	0.013328	60	10	60-180	60	133	GapExp	SmallFlash	1	7	2	3	0	distractor	1	393	804	312300	13.328	13.104	13.552
ProbeTrack15	13	ProbeTrack	15.0	SCS215a	20120501.150432	20120501.150533	8	0.013328	60	10	60-180	60	65	GapExp	SmallFlash	1	8	2	30	1	target	1	281	860	313160	13.328	12.892	13.780
ProbeTrack15	13	ProbeTrack	15.0	SCS215a	20120501.150432	20120501.150538	8	0.013328	60	10	60-180	60	141	GapExp	SmallFlash	0	9	2	30	1	target	1	457	772	313932	13.328	12.959	13.686
ProbeTrack15	13	ProbeTrack	15.0	SCS215a	20120501.150432	20120501.150545	8	0.013328	60	10	60-180	60	71	GapExp	SmallFlash	0	10	2	3	1	target	1	337	832	314764	13.328	12.940	13.756
ProbeTrack15	13	ProbeTrack	15.0	SCS215a	20120501.150432	20120501.150550	8	0.013328	60	10	60-180	60	85	GapExp	SmallFlash	0	11	2	0	1	target	1	311	845	315609	13.328	13.308	13.346
ProbeTrack15	13	ProbeTrack	15.0	SCS215a	20120501.150432	20120501.150555	8	0.013328	60	10	60-180	60	102	GapExp	SmallFlash	0	12	2	0	0	distractor	1	395	803	316412	13.328	13.307	13.350
ProbeTrack15	13	ProbeTrack	15.0	SCS215a	20120501.150432	20120501.150602	8	0.013328	60	10	60-180	60	119	GapExp	SmallFlash	0	13	2	30	0	distractor	1	424	788	317200	13.328	13.105	13.558
ProbeTrack15	13	ProbeTrack	15.0	SCS215a	20120501.150432	20120501.150608	8	0.013328	60	10	60-180	60	119	GapExp	SmallFlash	0	14	2	1	0	distractor	1	393	804	318004	13.328	12.858	13.810
ProbeTrack15	13	ProbeTrack	15.0	SCS215a	20120501.150432	20120501.150617	8	0.013328	60	10	60-180	60	128	GapExp	SmallFlash	0	15	2	30	1	target	1	315	843	318847	13.328	12.924	13.743
ProbeTrack15	13	ProbeTrack	15.0	SCS215a	20120501.150432	20120501.150623	8	0.013328	60	10	60-180	60	163	GapExp	SmallFlash	0	16	2	0	1	target	1	320	840	319687	13.328	13.304	13.350
ProbeTrack15	13	ProbeTrack	15.0	SCS215a	20120501.150432	20120501.150629	8	0.013328	60	10	60-180	60	73	GapExp	SmallFlash	0	17	2	30	0	distractor	1	361	820	320507	13.328	13.308	13.348
ProbeTrack15	13	ProbeTrack	15.0	SCS215a	20120501.150432	20120501.150636	8	0.013328	60	10	60-180	60	65	GapExp	SmallFlash	0	18	2	3	0	distractor	1	521	740	321247	13.328	13.094	13.563
ProbeTrack15	13	ProbeTrack	15.0	SCS215a	20120501.150432	20120501.150641	8	0.013328	60	10	60-180	60	67	GapExp	SmallFlash	0	19	2	0	1	target	1	391	805	322052	13.328	12.941	13.721
ProbeTrack15	13	ProbeTrack	15.0	SCS215a	20120501.150432	20120501.150646	8	0.013328	60	10	60-180	60	88	GapExp	SmallFlash	0	20	2	3	0	distractor	1	391	805	322857	13.328	12.875	13.792
ProbeTrack15	13	ProbeTrack	15.0	SCS215a	20120501.150432	20120501.150652	8	0.013328	60	10	60-180	60	79	GapExp	SmallFlash	0	21	2	1	1	target	1	367	817	323674	13.328	12.875	13.776
ProbeTrack15	13	ProbeTrack	15.0	SCS215a	20120501.150432	20120501.150657	8	0.013328	60	10	60-180	60	142	GapExp	SmallFlash	0	22	2	3	0	distractor	1	406	797	324471	13.429	12.858	26.932
ProbeTrack15	13	ProbeTrack	15.0	SCS215a	20120501.150432	20120501.150704	8	0.013328	60	10	60-180	60	128	GapExp	SmallFlash	0	23	2	30	0	distractor	1	491	755	325226	13.328	13.299	13.354
ProbeTrack15	13	ProbeTrack	15.0	SCS215a	20120501.150432	20120501.150711	8	0.013328	60	10	60-180	60	112	GapExp	SmallFlash	0	24	2	0	0	distractor	1	409	796	326022	13.328	12.866	13.793
ProbeTrack15	13	ProbeTrack	15.0	SCS215a	20120501.150432	20120501.150717	8	0.013328	60	10	60-180	60	165	GapExp	SmallFlash	0	25	2	0	0	distractor	1	409	796	326818	13.328	12.932	13.727
ProbeTrack15	13	ProbeTrack	15.0	SCS215a	20120501.150432	20120501.150723	8	0.013328	60	10	60-180	60	95	GapExp	SmallFlash	0	26	2	30	0	distractor	1	377	812	327630	13.329	12.865	13.786
ProbeTrack15	13	ProbeTrack	15.0	SCS215a	20120501.150432	20120501.150729	8	0.013328	60	10	60-180	60	139	GapExp	SmallFlash	0	27	2	30	0	distractor	1	427	787	328417	13.328	12.953	13.740
ProbeTrack15	13	ProbeTrack	15.0	SCS215a	20120501.150432	20120501.150737	8	0.013328	60	10	60-180	60	179	GapExp	SmallFlash	0	28	2	3	0	distractor	1	394	803	329220	13.328	13.309	13.353
ProbeTrack15	13	ProbeTrack	15.0	SCS215a	20120501.150432	20120501.150748	8	0.013328	60	10	60-180	60	87	GapExp	SmallFlash	0	29	2	3	1	target	1	352	824	330044	13.328	12.891	13.776
ProbeTrack15	13	ProbeTrack	15.0	SCS215a	20120501.150432	20120501.150754	8	0.013328	60	10	60-180	60	85	GapExp	SmallFlash	0	30	2	30	1	target	1	347	827	330871	13.328	12.854	13.810
ProbeTrack15	13	ProbeTrack	15.0	SCS215a	20120501.150432	20120501.150801	8	0.013328	60	10	60-180	60	69	GapExp	SmallFlash	0	31	2	0	1	target	1	346	827	331698	13.328	13.298	13.360
ProbeTrack15	13	ProbeTrack	15.0	SCS215a	20120501.150432	20120501.150807	8	0.013328	60	10	60-180	60	143	GapExp	SmallFlash	0	32	2	0	0	distractor	1	408	796	332494	13.328	13.306	13.344
ProbeTrack15	13	ProbeTrack	15.0	SCS215a	20120501.150432	20120501.150813	8	0.013328	60	10	60-180	60	166	GapExp	SmallFlash	0	33	2	30	0	distractor	1	396	802	333296	13.328	12.996	13.655
ProbeTrack15	13	ProbeTrack	15.0	SCS215a	20120501.150432	20120501.150821	8	0.013328	60	10	60-180	60	167	GapExp	SmallFlash	0	34	2	1	1	target	1	388	806	334102	13.328	12.980	13.673
ProbeTrack15	13	ProbeTrack	15.0	SCS215a	20120501.150432	20120501.150827	8	0.013328	60	10	60-180	60	73	GapExp	SmallFlash	0	35	2	30	0	distractor	1	398	801	334903	13.328	12.862	13.810
ProbeTrack15	13	ProbeTrack	15.0	SCS215a	20120501.150432	20120501.150835	8	0.013328	60	10	60-180	60	80	GapExp	SmallFlash	0	36	2	30	1	target	1	376	812	335715	13.328	12.947	13.702
ProbeTrack15	13	ProbeTrack	15.0	SCS215a	20120501.150432	20120501.150841	8	0.013328	60	10	60-180	60	172	GapExp	SmallFlash	0	37	2	1	1	target	1	450	775	336490	13.328	13.308	13.345
ProbeTrack15	13	ProbeTrack	15.0	SCS215a	20120501.150432	20120501.150848	8	0.013328	60	10	60-180	60	146	GapExp	SmallFlash	0	38	2	0	0	distractor	1	416	792	337282	13.328	13.091	13.566
ProbeTrack15	13	ProbeTrack	15.0	SCS215a	20120501.150432	20120501.150855	8	0.013328	60	10	60-180	60	138	GapExp	SmallFlash	0	39	2	3	0	distractor	1	411	795	338077	13.328	12.961	13.681
ProbeTrack15	13	ProbeTrack	15.0	SCS215a	20120501.150432	20120501.150901	8	0.013328	60	10	60-180	60	115	GapExp	SmallFlash	0	40	2	0	1	target	1	440	780	338857	13.328	12.902	13.757
ProbeTrack15	13	ProbeTrack	15.0	SCS215a	20120501.150432	20120501.150907	8	0.013328	60	10	60-180	60	87	GapExp	SmallFlash	0	41	2	1	0	distractor	1	412	794	339651	13.328	13.304	13.353
ProbeTrack15	13	ProbeTrack	15.0	SCS215a	20120501.150432	20120501.150912	8	0.013328	60	10	60-180	60	116	GapExp	SmallFlash	0	42	2	3	0	distractor	1	495	753	340404	13.328	13.288	13.355
ProbeTrack15	13	ProbeTrack	15.0	SCS215a	20120501.150432	20120501.150918	8	0.013328	60	10	60-180	60	152	GapExp	SmallFlash	0	43	2	30	0	distractor	1	368	816	341220	13.326	12.937	13.372
ProbeTrack15	13	ProbeTrack	15.0	SCS215a	20120501.150432	20120501.150925	8	0.013328	60	10	60-180	60	172	GapExp	SmallFlash	0	44	2	0	0	target	0	444	-1000	340220	13.328	12.863	13.799
ProbeTrack15	13	ProbeTrack	15.0	SCS215a	20120501.150432	20120501.150932	8	0.013328	60	10	60-180	60	122	GapExp	SmallFlash	0	45	2	30	1	target	1	392	804	341024	13.328	12.918	13.752
ProbeTrack15	13	ProbeTrack	15.0	SCS215a	20120501.150432	20120501.150945	8	0.013328	60	10	60-180	60	69	GapExp	SmallFlash	0	46	2	30	1	target	1	493	754	341778	13.328	12.961	13.684
ProbeTrack15	13	ProbeTrack	15.0	SCS215a	20120501.150432	20120501.150952	8	0.013328	60	10	60-180	60	177	GapExp	SmallFlash	0	47	2	0	1	target	1	375	813	342591	13.328	12.865	13.794
ProbeTrack15	13	ProbeTrack	15.0	SCS215a	20120501.150432	20120501.150959	8	0.013328	60	10	60-180	60	85	GapExp	SmallFlash	0	48	2	0	0	distractor	1	449	776	343367	13.328	12.959	13.696
ProbeTrack15	13	ProbeTrack	15.0	SCS215a	20120501.150432	20120501.151004	8	0.013328	60	10	60-180	60	120	GapExp	SmallFlash	0	49	2	0	0	distractor	1	431	785	344152	13.328	13.299	13.346
ProbeTrack15	13	ProbeTrack	15.0	SCS215a	20120501.150432	20120501.151028	8	0.013328	60	10	60-180	60	116	GapExp	SmallFlash	0	50	2	30	1	target	1	368	816	344968	13.328	13.308	13.353
ProbeTrack15	13	ProbeTrack	15.0	SCS215a	20120501.150432	20120501.151035	8	0.013328	60	10	60-180	60	148	GapExp	SmallFlash	0	51	2	1	0	distractor	1	417	792	345760	13.328	12.928	13.732
ProbeTrack15	13	ProbeTrack	15.0	SCS215a	20120501.150432	20120501.151041	8	0.013328	60	10	60-180	60	69	GapExp	SmallFlash	0	52	2	1	0	distractor	1	501	750	346510	13.328	12.876	13.774
ProbeTrack15	13	ProbeTrack	15.0	SCS215a	20120501.150432	20120501.151047	8	0.013328	60	10	60-180	60	103	GapExp	SmallFlash	0	53	2	30	0	distractor	1	429	786	347296	13.328	12.922	13.736
ProbeTrack15	13	ProbeTrack	15.0	SCS215a	20120501.150432	20120501.151053	8	0.013328	60	10	60-180	60	170	GapExp	SmallFlash	0	54	2	1	1	target	1	401	800	348096	13.328	13.259	13.383
ProbeTrack15	13	ProbeTrack	15.0	SCS215a	20120501.150432	20120501.151059	8	0.013328	60	10	60-180	60	68	GapExp	SmallFlash	0	55	2	3	0	distractor	1	438	781	348877	13.328	13.165	13.498
ProbeTrack15	13	ProbeTrack	15.0	SCS215a	20120501.150432	20120501.151105	8	0.013328	60	10	60-180	60	171	GapExp	SmallFlash	0	56	2	1	0	distractor	1	450	775	349652	13.328	13.167	13.564
ProbeTrack15	13	ProbeTrack	15.0	SCS215a	20120501.150432	20120501.151112	8	0.013328	60	10	60-180	60	63	GapExp	SmallFlash	0	57	2	1	1	target	1	403	799	350451	13.328	12.897	13.764
ProbeTrack15	13	ProbeTrack	15.0	SCS215a	20120501.150432	20120501.151117	8	0.013328	60	10	60-180	60	108	GapExp	SmallFlash	0	58	2	30	1	target	1	357	822	351273	13.328	12.903	13.740
ProbeTrack15	13	ProbeTrack	15.0	SCS215a	20120501.150432	20120501.151123	8	0.013328	60	10	60-180	60	139	GapExp	SmallFlash	0	59	2	1	1	target	1	345	828	352101	13.328	12.968	13.681
ProbeTrack15	13	ProbeTrack	15.0	SCS215a	20120501.150432	20120501.151129	8	0.013328	60	10	60-180	60	90	GapExp	SmallFlash	0	60	2	3	0	distractor	1	405	798	352899	13.328	13.305	13.346
ProbeTrack15	13	ProbeTrack	15.0	SCS215a	20120501.150432	20120501.151135	8	0.013328	60	10	60-180	60	163	GapExp	SmallFlash	0	61	2	3	0	distractor	1	386	807	353706	13.328	12.865	13.806
ProbeTrack15	13	ProbeTrack	15.0	SCS215a	20120501.150432	20120501.151145	8	0.013328	60	10	60-180	60	109	GapExp	SmallFlash	0	62	2	3	0	distractor	1	679	661	354367	13.328	12.873	13.785
ProbeTrack15	13	ProbeTrack	15.0	SCS215a	20120501.150432	20120501.151152	8	0.013328	60	10	60-180	60	108	GapExp	SmallFlash	0	63	2	0	0	distractor	1	437	782	355149	13.328	12.887	13.759
ProbeTrack15	13	ProbeTrack	15.0	SCS215a	20120501.150432	20120501.151158	8	0.013328	60	10	60-180	60	108	GapExp	SmallFlash	0	64	2	30	1	target	1	316	842	355991	13.435	12.854	39.847
ProbeTrack15	13	ProbeTrack	15.0	SCS215a	20120501.150432	20120501.151204	8	0.013328	60	10	60-180	60	74	GapExp	SmallFlash	0	65	2	3	0	distractor	1	412	794	356785	13.328	13.108	13.552
ProbeTrack15	13	ProbeTrack	15.0	SCS215a	20120501.150432	20120501.151209	8	0.013328	60	10	60-180	60	89	GapExp	SmallFlash	0	66	2	30	1	target	1	301	850	357635	13.328	13.258	13.397
ProbeTrack15	13	ProbeTrack	15.0	SCS215a	20120501.150432	20120501.151216	8	0.013328	60	10	60-180	60	87	GapExp	SmallFlash	0	67	2	30	1	target	1	307	847	358482	13.328	12.863	13.785
