exp	sub	code	rev	comp	runtime	trialtime	nstim	refreshdur	cuedur	gapdur	gapOnsetRange	durPostProbe	gapOnsetTime	blocktype	gaptype	prac	trial	ntargets	soa	probeTarget	resp	acc	rt	pts	tpts	meanFrameDur	minFrameDur	maxFrameDur
ProbeTrack15	15	ProbeTrack	15.0	SCS215b	20120508.131701	20120508.131709	8	0.013328	60	0	60-180	60	104	NoGap	None	1	1	2	30	1	target	1	1409	296	296	13.377	12.834	13.789
ProbeTrack15	15	ProbeTrack	15.0	SCS215b	20120508.131701	20120508.131905	8	0.013328	60	0	60-180	60	174	NoGap	None	1	2	2	0	1	target	1	759	621	917	14.218	12.837	53.612
ProbeTrack15	15	ProbeTrack	15.0	SCS215b	20120508.131701	20120508.131917	8	0.013328	60	0	60-180	60	86	NoGap	None	1	3	2	30	0	distractor	1	864	568	1485	13.434	13.158	40.116
ProbeTrack15	15	ProbeTrack	15.0	SCS215b	20120508.131701	20120508.131926	8	0.013328	60	0	60-180	60	114	NoGap	None	1	4	2	3	0	distractor	1	793	604	2089	13.328	13.115	13.536
ProbeTrack15	15	ProbeTrack	15.0	SCS215b	20120508.131701	20120508.131933	8	0.013328	60	0	60-180	60	171	NoGap	None	1	5	2	0	1	target	1	615	693	2782	13.328	13.091	13.573
ProbeTrack15	15	ProbeTrack	15.0	SCS215b	20120508.131701	20120508.131941	8	0.013328	60	0	60-180	60	67	NoGap	None	1	6	2	1	1	distractor	0	736	-1000	1782	13.328	13.298	13.356
ProbeTrack15	15	ProbeTrack	15.0	SCS215b	20120508.131701	20120508.131947	8	0.013328	60	0	60-180	60	78	NoGap	None	1	7	2	1	0	distractor	1	752	624	2406	13.328	13.083	13.576
ProbeTrack15	15	ProbeTrack	15.0	SCS215b	20120508.131701	20120508.131954	8	0.013328	60	0	60-180	60	160	NoGap	None	1	8	2	3	0	distractor	1	492	754	3160	13.328	13.098	13.556
ProbeTrack15	15	ProbeTrack	15.0	SCS215b	20120508.131701	20120508.132002	8	0.013328	60	0	60-180	60	179	NoGap	None	1	9	2	3	0	distractor	1	580	710	3870	13.328	13.092	13.562
ProbeTrack15	15	ProbeTrack	15.0	SCS215b	20120508.131701	20120508.132010	8	0.013328	60	0	60-180	60	67	NoGap	None	1	10	2	0	0	distractor	1	587	707	4577	13.328	13.115	13.537
ProbeTrack15	15	ProbeTrack	15.0	SCS215b	20120508.131701	20120508.132016	8	0.013328	60	0	60-180	60	90	NoGap	None	1	11	2	3	0	distractor	1	600	700	5277	13.328	13.290	13.382
ProbeTrack15	15	ProbeTrack	15.0	SCS215b	20120508.131701	20120508.132023	8	0.013328	60	0	60-180	60	121	NoGap	None	1	12	2	1	0	distractor	1	454	773	6050	13.328	13.110	13.557
ProbeTrack15	15	ProbeTrack	15.0	SCS215b	20120508.131701	20120508.132037	8	0.013328	60	0	60-180	60	134	NoGap	None	1	13	2	1	1	target	1	1294	353	6403	13.328	13.093	13.557
ProbeTrack15	15	ProbeTrack	15.0	SCS215b	20120508.131701	20120508.132044	8	0.013328	60	0	60-180	60	145	NoGap	None	1	14	2	30	0	distractor	1	577	712	7115	13.328	13.096	13.583
ProbeTrack15	15	ProbeTrack	15.0	SCS215b	20120508.131701	20120508.132051	8	0.013328	60	0	60-180	60	143	NoGap	None	1	15	2	3	1	target	1	653	674	7789	13.328	13.233	13.427
ProbeTrack15	15	ProbeTrack	15.0	SCS215b	20120508.131701	20120508.132058	8	0.013328	60	0	60-180	60	180	NoGap	None	1	16	2	1	0	distractor	1	505	748	8537	13.328	13.094	13.563
ProbeTrack15	15	ProbeTrack	15.0	SCS215b	20120508.131701	20120508.132105	8	0.013328	60	0	60-180	60	131	NoGap	None	1	17	2	0	1	target	1	559	721	9258	13.328	13.083	13.510
ProbeTrack15	15	ProbeTrack	15.0	SCS215b	20120508.131701	20120508.132137	8	0.013328	60	0	60-180	60	132	NoGap	None	1	18	2	30	0	distractor	1	542	729	9987	13.853	13.067	39.891
ProbeTrack15	15	ProbeTrack	15.0	SCS215b	20120508.131701	20120508.132144	8	0.013328	60	0	60-180	60	104	NoGap	None	1	19	2	1	1	target	1	720	640	10627	13.328	13.148	13.516
ProbeTrack15	15	ProbeTrack	15.0	SCS215b	20120508.131701	20120508.132150	8	0.013328	60	0	60-180	60	67	NoGap	None	1	20	2	30	1	target	1	421	790	11417	13.328	13.258	13.401
ProbeTrack15	15	ProbeTrack	15.0	SCS215b	20120508.131701	20120508.132155	8	0.013328	60	0	60-180	60	93	NoGap	None	1	21	2	1	1	target	1	553	724	12141	13.328	13.070	13.582
ProbeTrack15	15	ProbeTrack	15.0	SCS215b	20120508.131701	20120508.132202	8	0.013328	60	0	60-180	60	124	NoGap	None	1	22	2	30	0	distractor	1	510	745	12886	13.328	13.165	13.497
ProbeTrack15	15	ProbeTrack	15.0	SCS215b	20120508.131701	20120508.132209	8	0.013328	60	0	60-180	60	94	NoGap	None	1	23	2	0	1	distractor	0	648	-1000	11886	13.328	13.090	13.564
ProbeTrack15	15	ProbeTrack	15.0	SCS215b	20120508.131701	20120508.132215	8	0.013328	60	0	60-180	60	89	NoGap	None	1	24	2	0	0	distractor	1	654	673	12559	13.328	13.092	13.559
ProbeTrack15	15	ProbeTrack	15.0	SCS215b	20120508.131701	20120508.132221	8	0.013328	60	0	60-180	60	141	NoGap	None	1	25	2	30	1	target	1	497	752	13311	13.328	13.115	13.538
ProbeTrack15	15	ProbeTrack	15.0	SCS215b	20120508.131701	20120508.132228	8	0.013328	60	0	60-180	60	133	NoGap	None	1	26	2	30	0	distractor	1	578	711	14022	13.328	13.075	13.566
ProbeTrack15	15	ProbeTrack	15.0	SCS215b	20120508.131701	20120508.132235	8	0.013328	60	0	60-180	60	129	NoGap	None	1	27	2	3	1	target	1	577	712	14734	13.328	13.093	13.571
ProbeTrack15	15	ProbeTrack	15.0	SCS215b	20120508.131701	20120508.132242	8	0.013328	60	0	60-180	60	169	NoGap	None	1	28	2	30	1	target	1	358	821	15555	13.328	13.057	13.598
ProbeTrack15	15	ProbeTrack	15.0	SCS215b	20120508.131701	20120508.132250	8	0.013328	60	0	60-180	60	140	NoGap	None	1	29	2	1	0	distractor	1	602	699	16254	13.328	13.098	13.557
ProbeTrack15	15	ProbeTrack	15.0	SCS215b	20120508.131701	20120508.132257	8	0.013328	60	0	60-180	60	171	NoGap	None	1	30	2	0	1	target	1	389	806	17060	13.328	13.079	13.562
ProbeTrack15	15	ProbeTrack	15.0	SCS215b	20120508.131701	20120508.132304	8	0.013328	60	0	60-180	60	164	NoGap	None	1	31	2	3	1	target	1	522	739	17799	13.328	13.057	13.598
ProbeTrack15	15	ProbeTrack	15.0	SCS215b	20120508.131701	20120508.132310	8	0.013328	60	0	60-180	60	100	NoGap	None	1	32	2	1	1	target	1	644	678	18477	13.328	13.086	13.573
ProbeTrack15	15	ProbeTrack	15.0	SCS215b	20120508.131701	20120508.132317	8	0.013328	60	0	60-180	60	111	NoGap	None	1	33	2	3	0	distractor	1	559	721	19198	13.328	13.064	13.516
ProbeTrack15	15	ProbeTrack	15.0	SCS215b	20120508.131701	20120508.132323	8	0.013328	60	0	60-180	60	124	NoGap	None	1	34	2	3	1	distractor	0	377	-1000	18198	13.328	13.212	13.406
ProbeTrack15	15	ProbeTrack	15.0	SCS215b	20120508.131701	20120508.132329	8	0.013328	60	0	60-180	60	126	NoGap	None	1	35	2	1	0	distractor	1	545	728	18926	13.328	13.269	13.394
ProbeTrack15	15	ProbeTrack	15.0	SCS215b	20120508.131701	20120508.132335	8	0.013328	60	0	60-180	60	132	NoGap	None	1	36	2	0	0	distractor	1	729	636	19562	13.328	13.239	13.426
ProbeTrack15	15	ProbeTrack	15.0	SCS215b	20120508.131701	20120508.132342	8	0.013328	60	0	60-180	60	180	NoGap	None	1	37	2	0	0	distractor	1	554	723	20285	13.507	13.085	39.884
ProbeTrack15	15	ProbeTrack	15.0	SCS215b	20120508.131701	20120508.132349	8	0.013328	60	0	60-180	60	79	NoGap	None	1	38	2	3	1	target	1	517	742	21027	13.328	13.095	13.524
ProbeTrack15	15	ProbeTrack	15.0	SCS215b	20120508.131701	20120508.132354	8	0.013328	60	0	60-180	60	78	NoGap	None	1	39	2	0	0	distractor	1	568	716	21743	13.328	13.093	13.562
ProbeTrack15	15	ProbeTrack	15.0	SCS215b	20120508.131701	20120508.132400	8	0.013328	60	0	60-180	60	63	NoGap	None	1	40	2	30	1	target	1	511	745	22488	13.328	13.052	13.576
ProbeTrack15	15	ProbeTrack	15.0	SCS215b	20120508.132500	20120508.132512	8	0.013328	60	10	60-180	60	135	GapPrac	SmallFlash	1	1	2	0	1	target	1	743	629	23117	13.376	8.874	17.790
ProbeTrack15	15	ProbeTrack	15.0	SCS215b	20120508.132500	20120508.132521	8	0.013328	60	10	60-180	60	103	GapPrac	SmallFlash	1	2	2	1	1	target	1	580	710	23827	13.328	10.402	16.250
ProbeTrack15	15	ProbeTrack	15.0	SCS215b	20120508.132500	20120508.132527	8	0.013328	60	10	60-180	60	62	GapPrac	SmallFlash	1	3	2	30	1	target	1	609	696	24523	13.328	13.301	13.366
ProbeTrack15	15	ProbeTrack	15.0	SCS215b	20120508.132500	20120508.132533	8	0.013328	60	10	60-180	60	166	GapPrac	SmallFlash	1	4	2	0	0	distractor	1	436	782	25305	13.328	9.769	16.892
ProbeTrack15	15	ProbeTrack	15.0	SCS215b	20120508.132500	20120508.132541	8	0.013328	60	10	60-180	60	127	GapPrac	SmallFlash	1	5	2	30	1	target	1	496	752	26057	13.328	4.799	21.880
ProbeTrack15	15	ProbeTrack	15.0	SCS215b	20120508.132500	20120508.132548	8	0.013328	60	10	60-180	60	178	GapPrac	SmallFlash	1	6	2	0	0	distractor	1	547	727	26784	13.328	11.896	14.766
ProbeTrack15	15	ProbeTrack	15.0	SCS215b	20120508.132500	20120508.132555	8	0.013328	60	10	60-180	60	123	GapPrac	SmallFlash	1	7	2	3	1	target	1	527	737	27521	13.328	12.520	14.140
ProbeTrack15	15	ProbeTrack	15.0	SCS215b	20120508.132500	20120508.132602	8	0.013328	60	10	60-180	60	160	GapPrac	SmallFlash	1	8	2	1	1	target	1	815	593	28114	13.328	8.072	18.587
ProbeTrack15	15	ProbeTrack	15.0	SCS215b	20120508.132500	20120508.132609	8	0.013328	60	10	60-180	60	94	GapPrac	SmallFlash	1	9	2	30	1	target	1	445	778	28892	13.328	7.605	19.063
ProbeTrack15	15	ProbeTrack	15.0	SCS215b	20120508.132500	20120508.132616	8	0.013328	60	10	60-180	60	61	GapPrac	SmallFlash	1	10	2	3	1	target	1	550	725	29617	13.328	8.663	19.606
ProbeTrack15	15	ProbeTrack	15.0	SCS215b	20120508.132500	20120508.132621	8	0.013328	60	10	60-180	60	69	GapPrac	SmallFlash	1	11	2	1	1	target	1	491	755	30372	13.466	9.205	27.054
ProbeTrack15	15	ProbeTrack	15.0	SCS215b	20120508.132500	20120508.132627	8	0.013328	60	10	60-180	60	98	GapPrac	SmallFlash	1	12	2	0	1	target	1	384	808	31180	13.328	12.773	13.851
ProbeTrack15	15	ProbeTrack	15.0	SCS215b	20120508.132500	20120508.132634	8	0.013328	60	10	60-180	60	177	GapPrac	SmallFlash	1	13	2	30	0	distractor	1	605	698	31878	13.328	8.328	18.343
ProbeTrack15	15	ProbeTrack	15.0	SCS215b	20120508.132500	20120508.132642	8	0.013328	60	10	60-180	60	163	GapPrac	SmallFlash	1	14	2	30	0	distractor	1	522	739	32617	13.328	6.802	19.850
ProbeTrack15	15	ProbeTrack	15.0	SCS215b	20120508.132500	20120508.132649	8	0.013328	60	10	60-180	60	99	GapPrac	SmallFlash	1	15	2	1	0	distractor	1	516	742	33359	13.328	12.672	14.182
ProbeTrack15	15	ProbeTrack	15.0	SCS215b	20120508.132500	20120508.132655	8	0.013328	60	10	60-180	60	70	GapPrac	SmallFlash	1	16	2	0	1	target	1	465	768	34127	13.328	12.616	14.049
ProbeTrack15	15	ProbeTrack	15.0	SCS215b	20120508.132500	20120508.132700	8	0.013328	60	10	60-180	60	92	GapPrac	SmallFlash	1	17	2	3	0	distractor	1	575	713	34840	13.328	13.219	13.440
ProbeTrack15	15	ProbeTrack	15.0	SCS215b	20120508.132500	20120508.132707	8	0.013328	60	10	60-180	60	179	GapPrac	SmallFlash	1	18	2	0	0	distractor	1	472	764	35604	13.328	12.634	14.014
ProbeTrack15	15	ProbeTrack	15.0	SCS215b	20120508.132500	20120508.132714	8	0.013328	60	10	60-180	60	82	GapPrac	SmallFlash	1	19	2	3	0	distractor	1	682	659	36263	13.328	13.305	13.359
ProbeTrack15	15	ProbeTrack	15.0	SCS215b	20120508.132500	20120508.132720	8	0.013328	60	10	60-180	60	79	GapPrac	SmallFlash	1	20	2	1	0	distractor	1	446	777	37040	13.328	12.323	14.343
ProbeTrack15	15	ProbeTrack	15.0	SCS215b	20120508.132756	20120508.132802	8	0.013328	60	10	60-180	60	117	GapExp	SmallFlash	1	1	2	0	1	distractor	0	430	-1000	36040	13.384	5.122	21.535
ProbeTrack15	15	ProbeTrack	15.0	SCS215b	20120508.132756	20120508.132809	8	0.013328	60	10	60-180	60	125	GapExp	SmallFlash	1	2	2	1	0	distractor	1	569	716	36756	13.328	8.857	17.803
ProbeTrack15	15	ProbeTrack	15.0	SCS215b	20120508.132756	20120508.132815	8	0.013328	60	10	60-180	60	178	GapExp	SmallFlash	1	3	2	30	1	target	1	370	815	37571	13.328	12.827	13.854
ProbeTrack15	15	ProbeTrack	15.0	SCS215b	20120508.132756	20120508.132823	8	0.013328	60	10	60-180	60	65	GapExp	SmallFlash	1	4	2	3	0	distractor	1	570	715	38286	13.328	4.158	22.501
ProbeTrack15	15	ProbeTrack	15.0	SCS215b	20120508.132756	20120508.132829	8	0.013328	60	10	60-180	60	122	GapExp	SmallFlash	1	5	2	0	0	distractor	1	544	728	39014	13.328	8.660	18.003
ProbeTrack15	15	ProbeTrack	15.0	SCS215b	20120508.132756	20120508.132835	8	0.013328	60	10	60-180	60	111	GapExp	SmallFlash	1	6	2	30	0	distractor	1	620	690	39704	13.328	13.089	13.566
ProbeTrack15	15	ProbeTrack	15.0	SCS215b	20120508.132756	20120508.132842	8	0.013328	60	10	60-180	60	134	GapExp	SmallFlash	1	7	2	1	1	target	1	459	771	40475	13.328	13.083	13.567
ProbeTrack15	15	ProbeTrack	15.0	SCS215b	20120508.132756	20120508.132848	8	0.013328	60	10	60-180	60	98	GapExp	SmallFlash	1	8	2	3	1	target	1	473	764	41239	13.328	13.099	13.548
ProbeTrack15	15	ProbeTrack	15.0	SCS215b	20120508.132756	20120508.132854	8	0.013328	60	10	60-180	60	117	GapExp	SmallFlash	0	9	2	3	0	distractor	1	463	769	42008	13.328	13.304	13.357
ProbeTrack15	15	ProbeTrack	15.0	SCS215b	20120508.132756	20120508.132900	8	0.013328	60	10	60-180	60	101	GapExp	SmallFlash	0	10	2	3	1	target	1	451	775	42783	13.328	13.304	13.357
ProbeTrack15	15	ProbeTrack	15.0	SCS215b	20120508.132756	20120508.132906	8	0.013328	60	10	60-180	60	114	GapExp	SmallFlash	0	11	2	1	1	target	1	377	812	43595	13.328	13.303	13.354
ProbeTrack15	15	ProbeTrack	15.0	SCS215b	20120508.132756	20120508.132913	8	0.013328	60	10	60-180	60	112	GapExp	SmallFlash	0	12	2	1	0	distractor	1	1392	304	43899	13.328	11.796	14.856
ProbeTrack15	15	ProbeTrack	15.0	SCS215b	20120508.132756	20120508.132920	8	0.013328	60	10	60-180	60	87	GapExp	SmallFlash	0	13	2	30	0	distractor	1	473	764	44663	13.328	11.488	15.168
ProbeTrack15	15	ProbeTrack	15.0	SCS215b	20120508.132756	20120508.132926	8	0.013328	60	10	60-180	60	96	GapExp	SmallFlash	0	14	2	1	1	target	1	672	664	45327	13.385	12.905	27.074
ProbeTrack15	15	ProbeTrack	15.0	SCS215b	20120508.132756	20120508.132932	8	0.013328	60	10	60-180	60	163	GapExp	SmallFlash	0	15	2	30	0	distractor	1	473	764	46091	13.328	13.303	13.351
ProbeTrack15	15	ProbeTrack	15.0	SCS215b	20120508.132756	20120508.132939	8	0.013328	60	10	60-180	60	114	GapExp	SmallFlash	0	16	2	30	0	distractor	1	668	666	46757	13.328	13.281	13.373
ProbeTrack15	15	ProbeTrack	15.0	SCS215b	20120508.132756	20120508.132946	8	0.013328	60	10	60-180	60	67	GapExp	SmallFlash	0	17	2	0	0	distractor	1	635	683	47440	13.328	13.119	13.528
ProbeTrack15	15	ProbeTrack	15.0	SCS215b	20120508.132756	20120508.132952	8	0.013328	60	10	60-180	60	91	GapExp	SmallFlash	0	18	2	3	0	distractor	1	537	732	48172	13.328	13.093	13.551
ProbeTrack15	15	ProbeTrack	15.0	SCS215b	20120508.132756	20120508.132958	8	0.013328	60	10	60-180	60	91	GapExp	SmallFlash	0	19	2	0	0	distractor	1	561	720	48892	13.328	13.102	13.545
ProbeTrack15	15	ProbeTrack	15.0	SCS215b	20120508.132756	20120508.133004	8	0.013328	60	10	60-180	60	119	GapExp	SmallFlash	0	20	2	30	1	target	1	531	735	49627	13.328	11.325	15.329
ProbeTrack15	15	ProbeTrack	15.0	SCS215b	20120508.132756	20120508.133010	8	0.013328	60	10	60-180	60	90	GapExp	SmallFlash	0	21	2	30	1	target	1	638	681	50308	13.328	13.296	13.362
ProbeTrack15	15	ProbeTrack	15.0	SCS215b	20120508.132756	20120508.133017	8	0.013328	60	10	60-180	60	159	GapExp	SmallFlash	0	22	2	0	0	distractor	1	445	778	51086	13.328	13.084	13.558
ProbeTrack15	15	ProbeTrack	15.0	SCS215b	20120508.132756	20120508.133025	8	0.013328	60	10	60-180	60	162	GapExp	SmallFlash	0	23	2	1	1	target	1	522	739	51825	13.328	11.627	15.026
ProbeTrack15	15	ProbeTrack	15.0	SCS215b	20120508.132756	20120508.133031	8	0.013328	60	10	60-180	60	175	GapExp	SmallFlash	0	24	2	1	0	distractor	1	617	692	52517	13.328	13.096	13.557
ProbeTrack15	15	ProbeTrack	15.0	SCS215b	20120508.132756	20120508.133038	8	0.013328	60	10	60-180	60	81	GapExp	SmallFlash	0	25	2	1	1	target	1	604	698	53215	13.328	12.931	13.737
ProbeTrack15	15	ProbeTrack	15.0	SCS215b	20120508.132756	20120508.133044	8	0.013328	60	10	60-180	60	104	GapExp	SmallFlash	0	26	2	0	0	distractor	1	495	753	53968	13.328	11.260	15.380
ProbeTrack15	15	ProbeTrack	15.0	SCS215b	20120508.132756	20120508.133050	8	0.013328	60	10	60-180	60	96	GapExp	SmallFlash	0	27	2	1	0	distractor	1	514	743	54711	13.328	10.429	16.231
ProbeTrack15	15	ProbeTrack	15.0	SCS215b	20120508.132756	20120508.133056	8	0.013328	60	10	60-180	60	175	GapExp	SmallFlash	0	28	2	3	1	target	1	399	801	55512	13.328	12.746	13.907
ProbeTrack15	15	ProbeTrack	15.0	SCS215b	20120508.132756	20120508.133103	8	0.013328	60	10	60-180	60	149	GapExp	SmallFlash	0	29	2	3	0	distractor	1	730	635	56147	13.328	13.066	13.599
ProbeTrack15	15	ProbeTrack	15.0	SCS215b	20120508.132756	20120508.133111	8	0.013328	60	10	60-180	60	132	GapExp	SmallFlash	0	30	2	3	0	distractor	1	428	786	56933	13.328	12.263	14.398
ProbeTrack15	15	ProbeTrack	15.0	SCS215b	20120508.132756	20120508.133117	8	0.013328	60	10	60-180	60	78	GapExp	SmallFlash	0	31	2	1	0	distractor	1	424	788	57721	13.328	13.304	13.352
ProbeTrack15	15	ProbeTrack	15.0	SCS215b	20120508.132756	20120508.133123	8	0.013328	60	10	60-180	60	152	GapExp	SmallFlash	0	32	2	30	0	distractor	1	425	788	58509	13.328	10.129	16.512
ProbeTrack15	15	ProbeTrack	15.0	SCS215b	20120508.132756	20120508.133130	8	0.013328	60	10	60-180	60	90	GapExp	SmallFlash	0	33	2	0	0	distractor	1	450	775	59284	13.328	12.588	13.725
ProbeTrack15	15	ProbeTrack	15.0	SCS215b	20120508.132756	20120508.133136	8	0.013328	60	10	60-180	60	131	GapExp	SmallFlash	0	34	2	3	1	target	1	496	752	60036	13.328	12.046	14.592
ProbeTrack15	15	ProbeTrack	15.0	SCS215b	20120508.132756	20120508.133142	8	0.013328	60	10	60-180	60	138	GapExp	SmallFlash	0	35	2	1	0	distractor	1	401	800	60836	13.328	13.095	13.549
ProbeTrack15	15	ProbeTrack	15.0	SCS215b	20120508.132756	20120508.133148	8	0.013328	60	10	60-180	60	79	GapExp	SmallFlash	0	36	2	3	0	distractor	1	557	722	61558	13.328	8.026	18.629
ProbeTrack15	15	ProbeTrack	15.0	SCS215b	20120508.132756	20120508.133155	8	0.013328	60	10	60-180	60	111	GapExp	SmallFlash	0	37	2	0	1	target	1	439	781	62339	13.328	9.672	16.961
ProbeTrack15	15	ProbeTrack	15.0	SCS215b	20120508.132756	20120508.133201	8	0.013328	60	10	60-180	60	69	GapExp	SmallFlash	0	38	2	30	1	target	1	446	777	63116	13.328	12.984	13.651
ProbeTrack15	15	ProbeTrack	15.0	SCS215b	20120508.132756	20120508.133207	8	0.013328	60	10	60-180	60	88	GapExp	SmallFlash	0	39	2	3	0	distractor	1	389	806	63922	13.328	13.004	13.678
ProbeTrack15	15	ProbeTrack	15.0	SCS215b	20120508.132756	20120508.133212	8	0.013328	60	10	60-180	60	175	GapExp	SmallFlash	0	40	2	1	1	distractor	0	442	-1000	62922	13.328	6.774	19.890
ProbeTrack15	15	ProbeTrack	15.0	SCS215b	20120508.132756	20120508.133219	8	0.013328	60	10	60-180	60	97	GapExp	SmallFlash	0	41	2	30	0	distractor	1	523	739	63661	13.328	8.885	17.770
ProbeTrack15	15	ProbeTrack	15.0	SCS215b	20120508.132756	20120508.133226	8	0.013328	60	10	60-180	60	101	GapExp	SmallFlash	0	42	2	3	0	distractor	1	467	767	64428	13.328	5.473	21.181
ProbeTrack15	15	ProbeTrack	15.0	SCS215b	20120508.132756	20120508.133232	8	0.013328	60	10	60-180	60	153	GapExp	SmallFlash	0	43	2	30	0	distractor	1	672	664	65092	13.328	7.044	19.617
ProbeTrack15	15	ProbeTrack	15.0	SCS215b	20120508.132756	20120508.133239	8	0.013328	60	10	60-180	60	175	GapExp	SmallFlash	0	44	2	3	1	target	1	321	840	65932	13.328	13.096	13.557
ProbeTrack15	15	ProbeTrack	15.0	SCS215b	20120508.132756	20120508.133246	8	0.013328	60	10	60-180	60	148	GapExp	SmallFlash	0	45	2	30	1	target	1	384	808	66740	13.373	10.957	26.708
ProbeTrack15	15	ProbeTrack	15.0	SCS215b	20120508.132756	20120508.133253	8	0.013328	60	10	60-180	60	101	GapExp	SmallFlash	0	46	2	1	0	distractor	1	576	712	67452	13.328	10.407	16.035
ProbeTrack15	15	ProbeTrack	15.0	SCS215b	20120508.132756	20120508.133259	8	0.013328	60	10	60-180	60	79	GapExp	SmallFlash	0	47	2	3	1	target	1	393	804	68256	13.310	6.678	19.985
ProbeTrack15	15	ProbeTrack	15.0	SCS215b	20120508.132756	20120508.133305	8	0.013328	60	10	60-180	60	90	GapExp	SmallFlash	0	48	2	30	1	target	1	409	796	69052	13.328	11.529	15.122
ProbeTrack15	15	ProbeTrack	15.0	SCS215b	20120508.132756	20120508.133311	8	0.013328	60	10	60-180	60	127	GapExp	SmallFlash	0	49	2	0	0	distractor	1	409	796	69848	13.328	13.300	13.360
ProbeTrack15	15	ProbeTrack	15.0	SCS215b	20120508.132756	20120508.133317	8	0.013328	60	10	60-180	60	155	GapExp	SmallFlash	0	50	2	1	0	distractor	1	454	773	70621	13.328	13.302	13.356
ProbeTrack15	15	ProbeTrack	15.0	SCS215b	20120508.132756	20120508.133323	8	0.013328	60	10	60-180	60	160	GapExp	SmallFlash	0	51	2	3	1	distractor	0	378	-1000	69621	13.328	9.443	17.202
ProbeTrack15	15	ProbeTrack	15.0	SCS215b	20120508.132756	20120508.133331	8	0.013328	60	10	60-180	60	70	GapExp	SmallFlash	0	52	2	1	1	target	1	495	753	70374	13.328	5.543	21.109
ProbeTrack15	15	ProbeTrack	15.0	SCS215b	20120508.132756	20120508.133336	8	0.013328	60	10	60-180	60	165	GapExp	SmallFlash	0	53	2	1	1	target	1	341	830	71204	13.328	9.201	17.457
ProbeTrack15	15	ProbeTrack	15.0	SCS215b	20120508.132756	20120508.133342	8	0.013328	60	10	60-180	60	90	GapExp	SmallFlash	0	54	2	3	1	target	1	461	770	71974	13.328	12.530	14.121
ProbeTrack15	15	ProbeTrack	15.0	SCS215b	20120508.132756	20120508.133348	8	0.013328	60	10	60-180	60	87	GapExp	SmallFlash	0	55	2	0	1	target	1	415	793	72767	13.328	12.805	13.867
ProbeTrack15	15	ProbeTrack	15.0	SCS215b	20120508.132756	20120508.133354	8	0.013328	60	10	60-180	60	119	GapExp	SmallFlash	0	56	2	1	0	distractor	1	478	761	73528	13.328	8.624	18.037
ProbeTrack15	15	ProbeTrack	15.0	SCS215b	20120508.132756	20120508.133400	8	0.013328	60	10	60-180	60	96	GapExp	SmallFlash	0	57	2	30	0	distractor	1	515	743	74271	13.328	12.877	13.785
ProbeTrack15	15	ProbeTrack	15.0	SCS215b	20120508.132756	20120508.133406	8	0.013328	60	10	60-180	60	148	GapExp	SmallFlash	0	58	2	30	1	target	1	363	819	75090	13.328	6.971	19.677
ProbeTrack15	15	ProbeTrack	15.0	SCS215b	20120508.132756	20120508.133413	8	0.013328	60	10	60-180	60	146	GapExp	SmallFlash	0	59	2	0	1	target	1	431	785	75875	13.328	5.216	21.451
ProbeTrack15	15	ProbeTrack	15.0	SCS215b	20120508.132756	20120508.133420	8	0.013328	60	10	60-180	60	103	GapExp	SmallFlash	0	60	2	30	0	distractor	1	367	817	76692	13.328	3.619	23.045
ProbeTrack15	15	ProbeTrack	15.0	SCS215b	20120508.132756	20120508.133427	8	0.013328	60	10	60-180	60	129	GapExp	SmallFlash	0	61	2	0	1	target	1	441	780	77472	13.328	9.836	16.824
ProbeTrack15	15	ProbeTrack	15.0	SCS215b	20120508.132756	20120508.133433	8	0.013328	60	10	60-180	60	102	GapExp	SmallFlash	0	62	2	30	1	target	1	531	735	78207	13.328	7.517	19.129
ProbeTrack15	15	ProbeTrack	15.0	SCS215b	20120508.132756	20120508.133440	8	0.013328	60	10	60-180	60	172	GapExp	SmallFlash	0	63	2	3	1	target	1	338	831	79038	13.421	10.335	36.772
ProbeTrack15	15	ProbeTrack	15.0	SCS215b	20120508.132756	20120508.133447	8	0.013328	60	10	60-180	60	154	GapExp	SmallFlash	0	64	2	1	0	distractor	1	465	768	79806	13.328	12.523	14.146
ProbeTrack15	15	ProbeTrack	15.0	SCS215b	20120508.132756	20120508.133453	8	0.013328	60	10	60-180	60	69	GapExp	SmallFlash	0	65	2	30	1	target	1	468	766	80572	13.328	7.034	19.608
ProbeTrack15	15	ProbeTrack	15.0	SCS215b	20120508.132756	20120508.133459	8	0.013328	60	10	60-180	60	69	GapExp	SmallFlash	0	66	2	3	1	target	1	424	788	81360	13.328	11.018	15.633
ProbeTrack15	15	ProbeTrack	15.0	SCS215b	20120508.132756	20120508.133504	8	0.013328	60	10	60-180	60	172	GapExp	SmallFlash	0	67	2	0	0	distractor	1	398	801	82161	13.328	11.029	15.722
ProbeTrack15	15	ProbeTrack	15.0	SCS215b	20120508.132756	20120508.133511	8	0.013328	60	10	60-180	60	128	GapExp	SmallFlash	0	68	2	30	1	target	1	409	796	82957	13.328	5.181	21.463
ProbeTrack15	15	ProbeTrack	15.0	SCS215b	20120508.132756	20120508.133518	8	0.013328	60	10	60-180	60	69	GapExp	SmallFlash	0	69	2	30	1	target	1	438	781	83738	13.328	13.021	13.663
ProbeTrack15	15	ProbeTrack	15.0	SCS215b	20120508.132756	20120508.133524	8	0.013328	60	10	60-180	60	92	GapExp	SmallFlash	0	70	2	1	1	target	1	406	797	84535	13.362	10.281	20.100
ProbeTrack15	15	ProbeTrack	15.0	SCS215b	20120508.132756	20120508.133529	8	0.013328	60	10	60-180	60	80	GapExp	SmallFlash	0	71	2	3	0	distractor	1	516	742	85277	13.328	11.667	15.004
ProbeTrack15	15	ProbeTrack	15.0	SCS215b	20120508.132756	20120508.133535	8	0.013328	60	10	60-180	60	110	GapExp	SmallFlash	0	72	2	0	1	target	1	365	818	86095	13.328	13.084	13.574
ProbeTrack15	15	ProbeTrack	15.0	SCS215b	20120508.132756	20120508.133541	8	0.013328	60	10	60-180	60	91	GapExp	SmallFlash	0	73	2	1	1	target	1	588	706	86801	13.328	11.973	14.848
ProbeTrack15	15	ProbeTrack	15.0	SCS215b	20120508.132756	20120508.133547	8	0.013328	60	10	60-180	60	69	GapExp	SmallFlash	0	74	2	3	0	distractor	1	986	507	87308	13.328	9.372	17.297
ProbeTrack15	15	ProbeTrack	15.0	SCS215b	20120508.132756	20120508.133553	8	0.013328	60	10	60-180	60	93	GapExp	SmallFlash	0	75	2	3	0	distractor	1	507	747	88055	13.328	4.828	21.830
ProbeTrack15	15	ProbeTrack	15.0	SCS215b	20120508.132756	20120508.133559	8	0.013328	60	10	60-180	60	129	GapExp	SmallFlash	0	76	2	3	0	target	0	350	-1000	87055	13.328	6.204	20.443
ProbeTrack15	15	ProbeTrack	15.0	SCS215b	20120508.132756	20120508.133605	8	0.013328	60	10	60-180	60	151	GapExp	SmallFlash	0	77	2	0	0	distractor	1	469	766	87821	13.328	9.433	17.220
ProbeTrack15	15	ProbeTrack	15.0	SCS215b	20120508.132756	20120508.133612	8	0.013328	60	10	60-180	60	65	GapExp	SmallFlash	0	78	2	3	0	distractor	1	549	726	88547	13.328	4.455	22.211
ProbeTrack15	15	ProbeTrack	15.0	SCS215b	20120508.132756	20120508.133618	8	0.013328	60	10	60-180	60	99	GapExp	SmallFlash	0	79	2	30	1	target	1	538	731	89278	13.328	5.955	20.701
ProbeTrack15	15	ProbeTrack	15.0	SCS215b	20120508.132756	20120508.133624	8	0.013328	60	10	60-180	60	162	GapExp	SmallFlash	0	80	2	1	0	distractor	1	404	798	90076	13.328	10.649	16.023
ProbeTrack15	15	ProbeTrack	15.0	SCS215b	20120508.132756	20120508.133630	8	0.013328	60	10	60-180	60	174	GapExp	SmallFlash	0	81	2	3	0	distractor	1	648	676	90752	13.328	12.814	13.839
ProbeTrack15	15	ProbeTrack	15.0	SCS215b	20120508.132756	20120508.133637	8	0.013328	60	10	60-180	60	157	GapExp	SmallFlash	0	82	2	1	0	distractor	1	518	741	91493	13.328	10.262	16.386
ProbeTrack15	15	ProbeTrack	15.0	SCS215b	20120508.132756	20120508.133644	8	0.013328	60	10	60-180	60	154	GapExp	SmallFlash	0	83	2	30	0	distractor	1	473	764	92257	13.328	7.508	19.159
ProbeTrack15	15	ProbeTrack	15.0	SCS215b	20120508.132756	20120508.133651	8	0.013328	60	10	60-180	60	160	GapExp	SmallFlash	0	84	2	3	1	target	1	804	598	92855	13.328	7.534	19.124
ProbeTrack15	15	ProbeTrack	15.0	SCS215b	20120508.132756	20120508.133658	8	0.013328	60	10	60-180	60	91	GapExp	SmallFlash	0	85	2	30	0	distractor	1	397	802	93657	13.328	6.314	20.334
ProbeTrack15	15	ProbeTrack	15.0	SCS215b	20120508.132756	20120508.133704	8	0.013328	60	10	60-180	60	71	GapExp	SmallFlash	0	86	2	30	1	target	1	380	810	94467	13.328	11.784	14.882
ProbeTrack15	15	ProbeTrack	15.0	SCS215b	20120508.132756	20120508.133710	8	0.013328	60	10	60-180	60	81	GapExp	SmallFlash	0	87	2	0	1	target	1	584	708	95175	13.328	13.289	13.358
ProbeTrack15	15	ProbeTrack	15.0	SCS215b	20120508.132756	20120508.133715	8	0.013328	60	10	60-180	60	130	GapExp	SmallFlash	0	88	2	0	0	distractor	1	417	792	95967	13.328	10.420	16.235
ProbeTrack15	15	ProbeTrack	15.0	SCS215b	20120508.132756	20120508.133722	8	0.013328	60	10	60-180	60	68	GapExp	SmallFlash	0	89	2	0	0	distractor	1	680	660	96627	13.328	4.521	22.138
ProbeTrack15	15	ProbeTrack	15.0	SCS215b	20120508.132756	20120508.133727	8	0.013328	60	10	60-180	60	172	GapExp	SmallFlash	0	90	2	0	1	target	1	437	782	97409	13.328	7.640	19.011
ProbeTrack15	15	ProbeTrack	15.0	SCS215b	20120508.132756	20120508.133734	8	0.013328	60	10	60-180	60	128	GapExp	SmallFlash	0	91	2	0	0	distractor	1	513	744	98153	13.328	6.709	17.005
ProbeTrack15	15	ProbeTrack	15.0	SCS215b	20120508.132756	20120508.133740	8	0.013328	60	10	60-180	60	65	GapExp	SmallFlash	0	92	2	1	1	target	1	395	803	98956	13.328	6.158	20.511
ProbeTrack15	15	ProbeTrack	15.0	SCS215b	20120508.132756	20120508.133745	8	0.013328	60	10	60-180	60	159	GapExp	SmallFlash	0	93	2	3	1	target	1	353	824	99780	13.328	12.040	14.668
ProbeTrack15	15	ProbeTrack	15.0	SCS215b	20120508.132756	20120508.133752	8	0.013328	60	10	60-180	60	91	GapExp	SmallFlash	0	94	2	30	1	target	1	378	811	100591	13.328	4.660	21.986
ProbeTrack15	15	ProbeTrack	15.0	SCS215b	20120508.132756	20120508.133758	8	0.013328	60	10	60-180	60	154	GapExp	SmallFlash	0	95	2	30	1	target	1	395	803	101394	13.328	13.288	13.363
ProbeTrack15	15	ProbeTrack	15.0	SCS215b	20120508.132756	20120508.133805	8	0.013328	60	10	60-180	60	67	GapExp	SmallFlash	0	96	2	0	1	target	1	435	783	102177	13.328	13.304	13.354
ProbeTrack15	15	ProbeTrack	15.0	SCS215b	20120508.132756	20120508.133810	8	0.013328	60	10	60-180	60	157	GapExp	SmallFlash	0	97	2	0	0	distractor	1	437	782	102959	13.328	10.028	15.575
ProbeTrack15	15	ProbeTrack	15.0	SCS215b	20120508.132756	20120508.133816	8	0.013328	60	10	60-180	60	121	GapExp	SmallFlash	0	98	2	0	1	target	1	471	765	103724	13.328	9.493	17.163
ProbeTrack15	15	ProbeTrack	15.0	SCS215b	20120508.132756	20120508.133823	8	0.013328	60	10	60-180	60	118	GapExp	SmallFlash	0	99	2	0	0	distractor	1	476	762	104486	13.328	13.096	13.562
ProbeTrack15	15	ProbeTrack	15.0	SCS215b	20120508.132756	20120508.133829	8	0.013328	60	10	60-180	60	95	GapExp	SmallFlash	0	100	2	0	0	distractor	1	434	783	105269	13.391	9.073	30.915
ProbeTrack15	15	ProbeTrack	15.0	SCS215b	20120508.132756	20120508.133835	8	0.013328	60	10	60-180	60	115	GapExp	SmallFlash	0	101	2	1	1	target	1	377	812	106081	13.328	13.099	13.566
ProbeTrack15	15	ProbeTrack	15.0	SCS215b	20120508.132756	20120508.133841	8	0.013328	60	10	60-180	60	159	GapExp	SmallFlash	0	102	2	30	1	target	1	368	816	106897	13.328	13.293	13.352
ProbeTrack15	15	ProbeTrack	15.0	SCS215b	20120508.132756	20120508.133848	8	0.013328	60	10	60-180	60	80	GapExp	SmallFlash	0	103	2	1	0	distractor	1	491	755	107652	13.328	11.975	14.678
ProbeTrack15	15	ProbeTrack	15.0	SCS215b	20120508.132756	20120508.133854	8	0.013328	60	10	60-180	60	168	GapExp	SmallFlash	0	104	2	30	1	target	1	276	862	108514	13.328	12.329	14.321
ProbeTrack15	15	ProbeTrack	15.0	SCS215b	20120508.132756	20120508.133900	8	0.013328	60	10	60-180	60	127	GapExp	SmallFlash	0	105	2	0	1	target	1	380	810	109324	13.328	13.302	13.349
ProbeTrack15	15	ProbeTrack	15.0	SCS215b	20120508.132756	20120508.133906	8	0.013328	60	10	60-180	60	172	GapExp	SmallFlash	0	106	2	1	0	distractor	1	542	729	110053	13.328	12.070	14.589
ProbeTrack15	15	ProbeTrack	15.0	SCS215b	20120508.132756	20120508.133913	8	0.013328	60	10	60-180	60	72	GapExp	SmallFlash	0	107	2	1	1	target	1	460	770	110823	13.328	11.786	14.884
ProbeTrack15	15	ProbeTrack	15.0	SCS215b	20120508.132756	20120508.133919	8	0.013328	60	10	60-180	60	140	GapExp	SmallFlash	0	108	2	3	0	distractor	1	452	774	111597	13.328	8.791	17.866
ProbeTrack15	15	ProbeTrack	15.0	SCS215b	20120508.132756	20120508.133925	8	0.013328	60	10	60-180	60	155	GapExp	SmallFlash	0	109	2	1	0	distractor	1	365	818	112415	13.330	6.356	20.299
ProbeTrack15	15	ProbeTrack	15.0	SCS215b	20120508.132756	20120508.133932	8	0.013328	60	10	60-180	60	89	GapExp	SmallFlash	0	110	2	1	0	distractor	1	456	772	113187	13.328	12.380	14.284
ProbeTrack15	15	ProbeTrack	15.0	SCS215b	20120508.132756	20120508.133937	8	0.013328	60	10	60-180	60	174	GapExp	SmallFlash	0	111	2	0	0	distractor	1	539	731	113918	13.328	3.522	23.144
ProbeTrack15	15	ProbeTrack	15.0	SCS215b	20120508.132756	20120508.133944	8	0.013328	60	10	60-180	60	156	GapExp	SmallFlash	0	112	2	1	1	distractor	0	1043	-1000	112918	13.328	10.493	16.160
ProbeTrack15	15	ProbeTrack	15.0	SCS215b	20120508.132756	20120508.133951	8	0.013328	60	10	60-180	60	166	GapExp	SmallFlash	0	113	2	3	1	target	1	362	819	113737	13.328	10.939	15.715
ProbeTrack15	15	ProbeTrack	15.0	SCS215b	20120508.132756	20120508.133957	8	0.013328	60	10	60-180	60	161	GapExp	SmallFlash	0	114	2	0	1	target	1	379	811	114548	13.328	12.693	13.977
ProbeTrack15	15	ProbeTrack	15.0	SCS215b	20120508.132756	20120508.134004	8	0.013328	60	10	60-180	60	95	GapExp	SmallFlash	0	115	2	30	0	distractor	1	435	783	115331	13.337	7.434	19.229
ProbeTrack15	15	ProbeTrack	15.0	SCS215b	20120508.132756	20120508.134010	8	0.013328	60	10	60-180	60	73	GapExp	SmallFlash	0	116	2	30	0	distractor	1	580	710	116041	13.328	12.337	15.265
ProbeTrack15	15	ProbeTrack	15.0	SCS215b	20120508.132756	20120508.134016	8	0.013328	60	10	60-180	60	103	GapExp	SmallFlash	0	117	2	1	0	distractor	1	478	761	116802	13.328	4.688	21.971
ProbeTrack15	15	ProbeTrack	15.0	SCS215b	20120508.132756	20120508.134021	8	0.013328	60	10	60-180	60	144	GapExp	SmallFlash	0	118	2	3	1	target	1	347	827	117629	13.328	9.890	16.764
ProbeTrack15	15	ProbeTrack	15.0	SCS215b	20120508.132756	20120508.134028	8	0.013328	60	10	60-180	60	109	GapExp	SmallFlash	0	119	2	1	1	target	1	534	733	118362	13.440	3.236	26.058
ProbeTrack15	15	ProbeTrack	15.0	SCS215b	20120508.132756	20120508.134034	8	0.013328	60	10	60-180	60	153	GapExp	SmallFlash	0	120	2	3	0	distractor	1	683	659	119021	13.509	8.544	39.569
ProbeTrack15	15	ProbeTrack	15.0	SCS215b	20120508.132756	20120508.134041	8	0.013328	60	10	60-180	60	87	GapExp	SmallFlash	0	121	2	1	1	distractor	0	336	-1000	118021	13.664	13.304	39.972
ProbeTrack15	15	ProbeTrack	15.0	SCS215b	20120508.132756	20120508.134046	8	0.013328	60	10	60-180	60	180	GapExp	SmallFlash	0	122	2	30	1	target	1	362	819	118840	13.575	12.052	39.959
ProbeTrack15	15	ProbeTrack	15.0	SCS215b	20120508.132756	20120508.134053	8	0.013328	60	10	60-180	60	152	GapExp	SmallFlash	0	123	2	1	1	target	1	465	768	119608	13.425	12.664	39.975
ProbeTrack15	15	ProbeTrack	15.0	SCS215b	20120508.132756	20120508.134100	8	0.013328	60	10	60-180	60	180	GapExp	SmallFlash	0	124	2	30	0	distractor	1	453	774	120382	13.449	9.803	39.192
ProbeTrack15	15	ProbeTrack	15.0	SCS215b	20120508.132756	20120508.134107	8	0.013328	60	10	60-180	60	68	GapExp	SmallFlash	0	125	2	30	0	distractor	1	535	733	121115	13.328	10.251	16.399
ProbeTrack15	15	ProbeTrack	15.0	SCS215b	20120508.132756	20120508.134113	8	0.013328	60	10	60-180	60	160	GapExp	SmallFlash	0	126	2	1	1	target	1	361	820	121935	13.328	4.419	22.233
ProbeTrack15	15	ProbeTrack	15.0	SCS215b	20120508.132756	20120508.134120	8	0.013328	60	10	60-180	60	67	GapExp	SmallFlash	0	127	2	1	0	distractor	1	438	781	122716	13.328	13.303	13.347
ProbeTrack15	15	ProbeTrack	15.0	SCS215b	20120508.132756	20120508.134125	8	0.013328	60	10	60-180	60	125	GapExp	SmallFlash	0	128	2	30	0	distractor	1	483	759	123475	13.759	3.743	45.775
ProbeTrack15	15	ProbeTrack	15.0	SCS215b	20120508.132756	20120508.134132	8	0.013328	60	10	60-180	60	103	GapExp	SmallFlash	0	129	2	0	0	distractor	1	538	731	124206	13.502	3.789	46.514
ProbeTrack15	15	ProbeTrack	15.0	SCS215b	20120508.132756	20120508.134138	8	0.013328	60	10	60-180	60	175	GapExp	SmallFlash	0	130	2	30	0	distractor	1	464	768	124974	13.410	6.102	41.332
ProbeTrack15	15	ProbeTrack	15.0	SCS215b	20120508.132756	20120508.134145	8	0.013328	60	10	60-180	60	98	GapExp	SmallFlash	0	131	2	30	0	distractor	1	634	683	125657	13.328	13.085	13.569
ProbeTrack15	15	ProbeTrack	15.0	SCS215b	20120508.132756	20120508.134151	8	0.013328	60	10	60-180	60	82	GapExp	SmallFlash	0	132	2	3	0	distractor	1	432	784	126441	13.328	13.103	13.572
ProbeTrack15	15	ProbeTrack	15.0	SCS215b	20120508.132756	20120508.134157	8	0.013328	60	10	60-180	60	173	GapExp	SmallFlash	0	133	2	30	1	target	1	530	735	127176	13.328	13.091	13.550
ProbeTrack15	15	ProbeTrack	15.0	SCS215b	20120508.132756	20120508.134204	8	0.013328	60	10	60-180	60	90	GapExp	SmallFlash	0	134	2	0	0	distractor	1	479	761	127937	13.328	9.098	17.556
ProbeTrack15	15	ProbeTrack	15.0	SCS215b	20120508.132756	20120508.134210	8	0.013328	60	10	60-180	60	105	GapExp	SmallFlash	0	135	2	30	1	target	1	427	787	128724	13.381	6.005	26.556
ProbeTrack15	15	ProbeTrack	15.0	SCS215b	20120508.132756	20120508.134216	8	0.013328	60	10	60-180	60	161	GapExp	SmallFlash	0	136	2	3	1	target	1	346	827	129551	13.424	8.359	40.021
ProbeTrack15	15	ProbeTrack	15.0	SCS215b	20120508.132756	20120508.134223	8	0.013328	60	10	60-180	60	89	GapExp	SmallFlash	0	137	2	0	0	distractor	1	749	626	130177	13.673	4.813	53.317
ProbeTrack15	15	ProbeTrack	15.0	SCS215b	20120508.132756	20120508.134229	8	0.013328	60	10	60-180	60	152	GapExp	SmallFlash	0	138	2	1	0	distractor	1	438	781	130958	13.328	12.296	14.345
ProbeTrack15	15	ProbeTrack	15.0	SCS215b	20120508.132756	20120508.134235	8	0.013328	60	10	60-180	60	110	GapExp	SmallFlash	0	139	2	0	1	target	1	377	812	131770	13.328	12.265	14.374
ProbeTrack15	15	ProbeTrack	15.0	SCS215b	20120508.132756	20120508.134241	8	0.013328	60	10	60-180	60	158	GapExp	SmallFlash	0	140	2	3	0	distractor	1	485	758	132528	13.328	13.104	13.551
ProbeTrack15	15	ProbeTrack	15.0	SCS215b	20120508.132756	20120508.134248	8	0.013328	60	10	60-180	60	126	GapExp	SmallFlash	0	141	2	0	1	target	1	482	759	133287	13.328	7.889	18.770
ProbeTrack15	15	ProbeTrack	15.0	SCS215b	20120508.132756	20120508.134253	8	0.013328	60	10	60-180	60	175	GapExp	SmallFlash	0	142	2	3	1	target	1	306	847	134134	13.328	13.105	13.558
ProbeTrack15	15	ProbeTrack	15.0	SCS215b	20120508.132756	20120508.134300	8	0.013328	60	10	60-180	60	61	GapExp	SmallFlash	0	143	2	30	1	target	1	428	786	134920	13.328	10.826	15.832
ProbeTrack15	15	ProbeTrack	15.0	SCS215b	20120508.132756	20120508.134306	8	0.013328	60	10	60-180	60	105	GapExp	SmallFlash	0	144	2	1	1	target	1	433	784	135704	13.328	13.303	13.350
ProbeTrack15	15	ProbeTrack	15.0	SCS215b	20120508.132756	20120508.134312	8	0.013328	60	10	60-180	60	166	GapExp	SmallFlash	0	145	2	30	1	target	1	419	791	136495	13.328	13.053	13.594
ProbeTrack15	15	ProbeTrack	15.0	SCS215b	20120508.132756	20120508.134319	8	0.013328	60	10	60-180	60	116	GapExp	SmallFlash	0	146	2	1	1	target	1	372	814	137309	13.328	13.304	13.362
ProbeTrack15	15	ProbeTrack	15.0	SCS215b	20120508.132756	20120508.134324	8	0.013328	60	10	60-180	60	154	GapExp	SmallFlash	0	147	2	30	1	target	1	442	779	138088	13.328	7.757	18.901
ProbeTrack15	15	ProbeTrack	15.0	SCS215b	20120508.132756	20120508.134331	8	0.013328	60	10	60-180	60	139	GapExp	SmallFlash	0	148	2	0	1	target	1	336	832	138920	13.328	12.816	13.850
ProbeTrack15	15	ProbeTrack	15.0	SCS215b	20120508.132756	20120508.134338	8	0.013328	60	10	60-180	60	68	GapExp	SmallFlash	0	149	2	3	0	distractor	1	826	587	139507	13.328	12.903	13.788
ProbeTrack15	15	ProbeTrack	15.0	SCS215b	20120508.132756	20120508.134343	8	0.013328	60	10	60-180	60	173	GapExp	SmallFlash	0	150	2	3	0	distractor	1	445	778	140285	13.328	12.129	14.533
ProbeTrack15	15	ProbeTrack	15.0	SCS215b	20120508.132756	20120508.134350	8	0.013328	60	10	60-180	60	108	GapExp	SmallFlash	0	151	2	1	1	target	1	358	821	141106	13.328	6.242	20.423
ProbeTrack15	15	ProbeTrack	15.0	SCS215b	20120508.132756	20120508.134356	8	0.013328	60	10	60-180	60	177	GapExp	SmallFlash	0	152	2	0	0	distractor	1	532	734	141840	13.372	9.786	26.171
ProbeTrack15	15	ProbeTrack	15.0	SCS215b	20120508.132756	20120508.134402	8	0.013328	60	10	60-180	60	176	GapExp	SmallFlash	0	153	2	30	1	target	1	361	820	142660	13.328	8.074	13.349
ProbeTrack15	15	ProbeTrack	15.0	SCS215b	20120508.132756	20120508.134410	8	0.013328	60	10	60-180	60	156	GapExp	SmallFlash	0	154	2	0	0	distractor	1	480	760	143420	13.328	13.102	13.548
ProbeTrack15	15	ProbeTrack	15.0	SCS215b	20120508.132756	20120508.134417	8	0.013328	60	10	60-180	60	161	GapExp	SmallFlash	0	155	2	1	0	distractor	1	494	753	144173	13.328	13.298	13.374
ProbeTrack15	15	ProbeTrack	15.0	SCS215b	20120508.132756	20120508.134423	8	0.013328	60	10	60-180	60	131	GapExp	SmallFlash	0	156	2	30	0	distractor	1	525	738	144911	13.328	6.516	20.153
ProbeTrack15	15	ProbeTrack	15.0	SCS215b	20120508.132756	20120508.134430	8	0.013328	60	10	60-180	60	139	GapExp	SmallFlash	0	157	2	30	0	distractor	1	494	753	145664	13.328	7.387	19.265
ProbeTrack15	15	ProbeTrack	15.0	SCS215b	20120508.132756	20120508.134436	8	0.013328	60	10	60-180	60	139	GapExp	SmallFlash	0	158	2	3	1	distractor	0	408	-1000	144664	13.328	6.649	20.021
ProbeTrack15	15	ProbeTrack	15.0	SCS215b	20120508.132756	20120508.134443	8	0.013328	60	10	60-180	60	97	GapExp	SmallFlash	0	159	2	0	0	distractor	1	727	637	145301	13.328	6.157	20.499
ProbeTrack15	15	ProbeTrack	15.0	SCS215b	20120508.132756	20120508.134449	8	0.013328	60	10	60-180	60	111	GapExp	SmallFlash	0	160	2	0	1	target	1	637	682	145983	13.328	10.896	15.760
ProbeTrack15	15	ProbeTrack	15.0	SCS215b	20120508.132756	20120508.134455	8	0.013328	60	10	60-180	60	179	GapExp	SmallFlash	0	161	2	1	1	target	1	469	766	146749	13.337	6.865	19.784
ProbeTrack15	15	ProbeTrack	15.0	SCS215b	20120508.132756	20120508.134502	8	0.013328	60	10	60-180	60	79	GapExp	SmallFlash	0	162	2	0	0	distractor	1	1341	330	147079	13.328	7.052	19.596
ProbeTrack15	15	ProbeTrack	15.0	SCS215b	20120508.132756	20120508.134508	8	0.013328	60	10	60-180	60	137	GapExp	SmallFlash	0	163	2	30	0	distractor	1	467	767	147846	13.328	6.384	20.259
ProbeTrack15	15	ProbeTrack	15.0	SCS215b	20120508.132756	20120508.134515	8	0.013328	60	10	60-180	60	153	GapExp	SmallFlash	0	164	2	3	1	target	1	476	762	148608	13.477	8.715	37.570
ProbeTrack15	15	ProbeTrack	15.0	SCS215b	20120508.132756	20120508.134522	8	0.013328	60	10	60-180	60	83	GapExp	SmallFlash	0	165	2	0	1	target	1	483	759	149367	13.328	4.997	21.648
ProbeTrack15	15	ProbeTrack	15.0	SCS215b	20120508.132756	20120508.134527	8	0.013328	60	10	60-180	60	115	GapExp	SmallFlash	0	166	2	30	1	target	1	476	762	150129	13.328	7.513	19.155
ProbeTrack15	15	ProbeTrack	15.0	SCS215b	20120508.132756	20120508.134534	8	0.013328	60	10	60-180	60	168	GapExp	SmallFlash	0	167	2	0	1	target	1	341	830	150959	13.328	8.048	18.594
ProbeTrack15	15	ProbeTrack	15.0	SCS215b	20120508.132756	20120508.134540	8	0.013328	60	10	60-180	60	118	GapExp	SmallFlash	0	168	2	1	0	distractor	1	473	764	151723	13.328	6.152	20.511
ProbeTrack15	15	ProbeTrack	15.0	SCS215b	20120508.132756	20120508.134547	8	0.013328	60	10	60-180	60	169	GapExp	SmallFlash	0	169	2	30	0	distractor	1	524	738	152461	13.328	7.731	18.917
ProbeTrack15	15	ProbeTrack	15.0	SCS215b	20120508.132756	20120508.134554	8	0.013328	60	10	60-180	60	112	GapExp	SmallFlash	0	170	2	0	1	target	1	447	777	153238	13.328	4.560	22.092
ProbeTrack15	15	ProbeTrack	15.0	SCS215b	20120508.132756	20120508.134600	8	0.013328	60	10	60-180	60	130	GapExp	SmallFlash	0	171	2	3	0	distractor	1	748	626	153864	13.328	6.989	19.656
ProbeTrack15	15	ProbeTrack	15.0	SCS215b	20120508.132756	20120508.134606	8	0.013328	60	10	60-180	60	111	GapExp	SmallFlash	0	172	2	3	1	target	1	440	780	154644	13.356	6.154	20.495
ProbeTrack15	15	ProbeTrack	15.0	SCS215b	20120508.132756	20120508.134612	8	0.013328	60	10	60-180	60	160	GapExp	SmallFlash	0	173	2	3	1	target	1	404	798	155442	13.328	11.535	15.110
ProbeTrack15	15	ProbeTrack	15.0	SCS215b	20120508.132756	20120508.134619	8	0.013328	60	10	60-180	60	63	GapExp	SmallFlash	0	174	2	0	1	target	1	394	803	156245	13.328	6.933	19.715
ProbeTrack15	15	ProbeTrack	15.0	SCS215b	20120508.132756	20120508.134624	8	0.013328	60	10	60-180	60	110	GapExp	SmallFlash	0	175	2	0	1	target	1	388	806	157051	13.446	2.788	32.442
ProbeTrack15	15	ProbeTrack	15.0	SCS215b	20120508.132756	20120508.134629	8	0.013328	60	10	60-180	60	128	GapExp	SmallFlash	0	176	2	1	1	target	1	833	584	157635	13.328	6.767	19.895
ProbeTrack15	15	ProbeTrack	15.0	SCS215b	20120508.132756	20120508.134636	8	0.013328	60	10	60-180	60	141	GapExp	SmallFlash	0	177	2	3	1	target	1	345	828	158463	13.380	13.101	21.074
ProbeTrack15	15	ProbeTrack	15.0	SCS215b	20120508.132756	20120508.134642	8	0.013328	60	10	60-180	60	144	GapExp	SmallFlash	0	178	2	0	1	target	1	339	831	159294	13.380	7.988	31.971
ProbeTrack15	15	ProbeTrack	15.0	SCS215b	20120508.132756	20120508.134648	8	0.013328	60	10	60-180	60	67	GapExp	SmallFlash	0	179	2	3	0	distractor	1	578	711	160005	13.461	7.524	39.992
ProbeTrack15	15	ProbeTrack	15.0	SCS215b	20120508.132756	20120508.134654	8	0.013328	60	10	60-180	60	175	GapExp	SmallFlash	0	180	2	1	0	distractor	1	433	784	160789	13.328	9.379	17.274
ProbeTrack15	15	ProbeTrack	15.0	SCS215b	20120508.132756	20120508.134700	8	0.013328	60	10	60-180	60	89	GapExp	SmallFlash	0	181	2	1	1	target	1	327	837	161626	13.328	9.466	17.188
ProbeTrack15	15	ProbeTrack	15.0	SCS215b	20120508.132756	20120508.134706	8	0.013328	60	10	60-180	60	64	GapExp	SmallFlash	0	182	2	1	1	target	1	417	792	162418	13.328	7.458	19.208
ProbeTrack15	15	ProbeTrack	15.0	SCS215b	20120508.132756	20120508.134711	8	0.013328	60	10	60-180	60	110	GapExp	SmallFlash	0	183	2	30	0	distractor	1	438	781	163199	13.431	11.265	42.052
ProbeTrack15	15	ProbeTrack	15.0	SCS215b	20120508.132756	20120508.134717	8	0.013328	60	10	60-180	60	171	GapExp	SmallFlash	0	184	2	30	0	distractor	1	452	774	163973	13.453	4.196	63.305
ProbeTrack15	15	ProbeTrack	15.0	SCS215b	20120508.132756	20120508.134725	8	0.013328	60	10	60-180	60	132	GapExp	SmallFlash	0	185	2	3	0	distractor	1	468	766	164739	13.328	6.828	19.812
ProbeTrack15	15	ProbeTrack	15.0	SCS215b	20120508.132756	20120508.134731	8	0.013328	60	10	60-180	60	162	GapExp	SmallFlash	0	186	2	0	1	target	1	568	716	165455	13.328	12.265	14.401
ProbeTrack15	15	ProbeTrack	15.0	SCS215b	20120508.132756	20120508.134738	8	0.013328	60	10	60-180	60	119	GapExp	SmallFlash	0	187	2	1	0	distractor	1	447	777	166232	13.328	6.255	20.399
ProbeTrack15	15	ProbeTrack	15.0	SCS215b	20120508.132756	20120508.134744	8	0.013328	60	10	60-180	60	98	GapExp	SmallFlash	0	188	2	3	1	target	1	470	765	166997	13.328	6.401	20.253
ProbeTrack15	15	ProbeTrack	15.0	SCS215b	20120508.132756	20120508.134749	8	0.013328	60	10	60-180	60	146	GapExp	SmallFlash	0	189	2	1	0	distractor	1	437	782	167779	13.322	5.533	21.124
ProbeTrack15	15	ProbeTrack	15.0	SCS215b	20120508.132756	20120508.134756	8	0.013328	60	10	60-180	60	128	GapExp	SmallFlash	0	190	2	0	0	target	0	4827	-1000	166779	13.377	10.816	26.672
ProbeTrack15	15	ProbeTrack	15.0	SCS215b	20120508.132756	20120508.134806	8	0.013328	60	10	60-180	60	68	GapExp	SmallFlash	0	191	2	30	0	distractor	1	444	778	167557	13.328	8.418	18.250
ProbeTrack15	15	ProbeTrack	15.0	SCS215b	20120508.132756	20120508.134812	8	0.013328	60	10	60-180	60	167	GapExp	SmallFlash	0	192	2	1	0	distractor	1	545	728	168285	13.328	10.374	16.281
ProbeTrack15	15	ProbeTrack	15.0	SCS215b	20120508.132756	20120508.134819	8	0.013328	60	10	60-180	60	167	GapExp	SmallFlash	0	193	2	0	0	distractor	1	886	557	168842	13.328	6.399	20.269
ProbeTrack15	15	ProbeTrack	15.0	SCS215b	20120508.132756	20120508.134826	8	0.013328	60	10	60-180	60	91	GapExp	SmallFlash	0	194	2	0	1	target	1	421	790	169632	13.328	4.343	22.330
ProbeTrack15	15	ProbeTrack	15.0	SCS215b	20120508.132756	20120508.134832	8	0.013328	60	10	60-180	60	116	GapExp	SmallFlash	0	195	2	0	1	target	1	371	815	170447	13.328	3.864	22.794
ProbeTrack15	15	ProbeTrack	15.0	SCS215b	20120508.132756	20120508.134837	8	0.013328	60	10	60-180	60	153	GapExp	SmallFlash	0	196	2	3	1	target	1	375	813	171260	13.328	9.756	16.901
ProbeTrack15	15	ProbeTrack	15.0	SCS215b	20120508.132756	20120508.134844	8	0.013328	60	10	60-180	60	117	GapExp	SmallFlash	0	197	2	3	0	distractor	1	446	777	172037	13.328	13.089	13.567
ProbeTrack15	15	ProbeTrack	15.0	SCS215b	20120508.132756	20120508.134850	8	0.013328	60	10	60-180	60	104	GapExp	SmallFlash	0	198	2	3	1	target	1	392	804	172841	13.328	11.870	14.789
ProbeTrack15	15	ProbeTrack	15.0	SCS215b	20120508.132756	20120508.134855	8	0.013328	60	10	60-180	60	77	GapExp	SmallFlash	0	199	2	3	0	distractor	1	475	763	173604	13.328	9.273	17.395
ProbeTrack15	15	ProbeTrack	15.0	SCS215b	20120508.132756	20120508.134901	8	0.013328	60	10	60-180	60	68	GapExp	SmallFlash	0	200	2	3	1	target	1	465	768	174372	13.328	9.638	17.029
ProbeTrack15	15	ProbeTrack	15.0	SCS215b	20120508.134955	20120508.135001	8	0.013328	60	10	60-180	60	83	GapPrac	Blank	1	1	2	30	0	distractor	1	550	725	175097	13.383	11.115	15.537
ProbeTrack15	15	ProbeTrack	15.0	SCS215b	20120508.134955	20120508.135010	8	0.013328	60	10	60-180	60	132	GapPrac	Blank	1	2	2	1	1	target	1	428	786	175883	13.328	11.581	15.072
ProbeTrack15	15	ProbeTrack	15.0	SCS215b	20120508.134955	20120508.135016	8	0.013328	60	10	60-180	60	132	GapPrac	Blank	1	3	2	1	0	distractor	1	530	735	176618	13.328	5.210	21.435
ProbeTrack15	15	ProbeTrack	15.0	SCS215b	20120508.134955	20120508.135022	8	0.013328	60	10	60-180	60	63	GapPrac	Blank	1	4	2	3	0	distractor	1	432	784	177402	13.328	12.944	13.717
ProbeTrack15	15	ProbeTrack	15.0	SCS215b	20120508.134955	20120508.135027	8	0.013328	60	10	60-180	60	62	GapPrac	Blank	1	5	2	1	0	distractor	1	509	746	178148	13.328	9.138	17.512
ProbeTrack15	15	ProbeTrack	15.0	SCS215b	20120508.134955	20120508.135033	8	0.013328	60	10	60-180	60	148	GapPrac	Blank	1	6	2	3	0	distractor	1	557	722	178870	13.328	4.004	22.641
ProbeTrack15	15	ProbeTrack	15.0	SCS215b	20120508.134955	20120508.135039	8	0.013328	60	10	60-180	60	146	GapPrac	Blank	1	7	2	1	1	distractor	0	697	-1000	177870	13.328	11.917	14.741
ProbeTrack15	15	ProbeTrack	15.0	SCS215b	20120508.134955	20120508.135046	8	0.013328	60	10	60-180	60	124	GapPrac	Blank	1	8	2	0	1	target	1	639	681	178551	13.328	7.896	18.737
ProbeTrack15	15	ProbeTrack	15.0	SCS215b	20120508.134955	20120508.135052	8	0.013328	60	10	60-180	60	107	GapPrac	Blank	1	9	2	0	0	distractor	1	595	703	179254	13.328	6.751	19.910
ProbeTrack15	15	ProbeTrack	15.0	SCS215b	20120508.134955	20120508.135058	8	0.013328	60	10	60-180	60	145	GapPrac	Blank	1	10	2	30	0	distractor	1	420	790	180044	13.328	6.391	20.264
ProbeTrack15	15	ProbeTrack	15.0	SCS215b	20120508.134955	20120508.135105	8	0.013328	60	10	60-180	60	170	GapPrac	Blank	1	11	2	30	1	target	1	555	723	180767	13.328	12.987	13.653
ProbeTrack15	15	ProbeTrack	15.0	SCS215b	20120508.134955	20120508.135112	8	0.013328	60	10	60-180	60	175	GapPrac	Blank	1	12	2	3	1	target	1	439	781	181548	13.328	9.850	16.793
ProbeTrack15	15	ProbeTrack	15.0	SCS215b	20120508.134955	20120508.135119	8	0.013328	60	10	60-180	60	125	GapPrac	Blank	1	13	2	30	0	target	0	542	-1000	180548	13.422	6.076	38.101
ProbeTrack15	15	ProbeTrack	15.0	SCS215b	20120508.134955	20120508.135126	8	0.013328	60	10	60-180	60	100	GapPrac	Blank	1	14	2	1	1	target	1	641	680	181228	13.328	10.434	16.211
ProbeTrack15	15	ProbeTrack	15.0	SCS215b	20120508.134955	20120508.135131	8	0.013328	60	10	60-180	60	171	GapPrac	Blank	1	15	2	3	1	target	1	365	818	182046	13.328	5.803	20.844
ProbeTrack15	15	ProbeTrack	15.0	SCS215b	20120508.134955	20120508.135138	8	0.013328	60	10	60-180	60	131	GapPrac	Blank	1	16	2	0	0	distractor	1	762	619	182665	13.328	6.780	18.111
ProbeTrack15	15	ProbeTrack	15.0	SCS215b	20120508.134955	20120508.135144	8	0.013328	60	10	60-180	60	68	GapPrac	Blank	1	17	2	1	0	distractor	1	758	621	183286	13.328	7.923	18.749
ProbeTrack15	15	ProbeTrack	15.0	SCS215b	20120508.134955	20120508.135150	8	0.013328	60	10	60-180	60	86	GapPrac	Blank	1	18	2	3	0	target	0	484	-1000	182286	13.454	10.950	34.366
ProbeTrack15	15	ProbeTrack	15.0	SCS215b	20120508.134955	20120508.135156	8	0.013328	60	10	60-180	60	178	GapPrac	Blank	1	19	2	30	1	target	1	643	679	182965	13.328	5.913	20.745
ProbeTrack15	15	ProbeTrack	15.0	SCS215b	20120508.134955	20120508.135203	8	0.013328	60	10	60-180	60	173	GapPrac	Blank	1	20	2	0	1	target	1	546	727	183692	13.328	4.793	21.864
ProbeTrack15	15	ProbeTrack	15.0	SCS215b	20120508.135237	20120508.135620	8	0.013328	60	10	60-180	60	171	GapExp	Blank	1	1	2	1	1	target	1	550	725	184417	13.372	4.309	22.354
ProbeTrack15	15	ProbeTrack	15.0	SCS215b	20120508.135237	20120508.135628	8	0.013328	60	10	60-180	60	149	GapExp	Blank	1	2	2	0	0	target	0	569	-1000	183417	13.328	6.033	20.628
ProbeTrack15	15	ProbeTrack	15.0	SCS215b	20120508.135237	20120508.135635	8	0.013328	60	10	60-180	60	110	GapExp	Blank	1	3	2	3	1	target	1	336	832	184249	13.328	9.394	17.276
ProbeTrack15	15	ProbeTrack	15.0	SCS215b	20120508.135237	20120508.135642	8	0.013328	60	10	60-180	60	137	GapExp	Blank	1	4	2	1	0	distractor	1	622	689	184938	13.328	8.805	17.836
ProbeTrack15	15	ProbeTrack	15.0	SCS215b	20120508.135237	20120508.135648	8	0.013328	60	10	60-180	60	107	GapExp	Blank	1	5	2	0	1	target	1	402	799	185737	13.328	9.930	16.743
ProbeTrack15	15	ProbeTrack	15.0	SCS215b	20120508.135237	20120508.135654	8	0.013328	60	10	60-180	60	109	GapExp	Blank	1	6	2	30	1	target	1	412	794	186531	13.328	8.898	17.767
ProbeTrack15	15	ProbeTrack	15.0	SCS215b	20120508.135237	20120508.135700	8	0.013328	60	10	60-180	60	113	GapExp	Blank	1	7	2	3	0	distractor	1	600	700	187231	13.328	3.078	23.567
ProbeTrack15	15	ProbeTrack	15.0	SCS215b	20120508.135237	20120508.135707	8	0.013328	60	10	60-180	60	138	GapExp	Blank	1	8	2	30	0	distractor	1	395	803	188034	13.328	4.719	21.945
ProbeTrack15	15	ProbeTrack	15.0	SCS215b	20120508.135237	20120508.135713	8	0.013328	60	10	60-180	60	89	GapExp	Blank	0	9	2	1	1	target	1	691	655	188689	13.328	5.861	20.780
ProbeTrack15	15	ProbeTrack	15.0	SCS215b	20120508.135237	20120508.135719	8	0.013328	60	10	60-180	60	127	GapExp	Blank	0	10	2	1	1	target	1	629	686	189375	13.328	6.103	20.546
ProbeTrack15	15	ProbeTrack	15.0	SCS215b	20120508.135237	20120508.135725	8	0.013328	60	10	60-180	60	66	GapExp	Blank	0	11	2	0	0	distractor	1	509	746	190121	13.328	13.304	13.355
ProbeTrack15	15	ProbeTrack	15.0	SCS215b	20120508.135237	20120508.135731	8	0.013328	60	10	60-180	60	74	GapExp	Blank	0	12	2	3	0	distractor	1	590	705	190826	13.328	13.096	13.572
ProbeTrack15	15	ProbeTrack	15.0	SCS215b	20120508.135237	20120508.135737	8	0.013328	60	10	60-180	60	112	GapExp	Blank	0	13	2	30	1	target	1	489	756	191582	13.328	6.332	20.313
ProbeTrack15	15	ProbeTrack	15.0	SCS215b	20120508.135237	20120508.135743	8	0.013328	60	10	60-180	60	92	GapExp	Blank	0	14	2	0	1	target	1	523	739	192321	13.328	5.132	21.508
ProbeTrack15	15	ProbeTrack	15.0	SCS215b	20120508.135237	20120508.135748	8	0.013328	60	10	60-180	60	100	GapExp	Blank	0	15	2	3	1	target	1	733	634	192955	13.328	13.272	13.367
ProbeTrack15	15	ProbeTrack	15.0	SCS215b	20120508.135237	20120508.135755	8	0.013328	60	10	60-180	60	156	GapExp	Blank	0	16	2	0	0	distractor	1	448	776	193731	13.328	12.310	14.328
ProbeTrack15	15	ProbeTrack	15.0	SCS215b	20120508.135237	20120508.135801	8	0.013328	60	10	60-180	60	131	GapExp	Blank	0	17	2	1	0	distractor	1	501	750	194481	13.328	13.304	13.352
ProbeTrack15	15	ProbeTrack	15.0	SCS215b	20120508.135237	20120508.135808	8	0.013328	60	10	60-180	60	147	GapExp	Blank	0	18	2	30	1	target	1	365	818	195299	13.328	12.826	13.821
ProbeTrack15	15	ProbeTrack	15.0	SCS215b	20120508.135237	20120508.135814	8	0.013328	60	10	60-180	60	132	GapExp	Blank	0	19	2	1	0	distractor	1	513	744	196043	13.328	12.396	14.256
ProbeTrack15	15	ProbeTrack	15.0	SCS215b	20120508.135237	20120508.135820	8	0.013328	60	10	60-180	60	168	GapExp	Blank	0	20	2	30	0	distractor	1	492	754	196797	13.328	10.761	15.916
ProbeTrack15	15	ProbeTrack	15.0	SCS215b	20120508.135237	20120508.135827	8	0.013328	60	10	60-180	60	91	GapExp	Blank	0	21	2	0	0	target	0	628	-1000	195797	13.328	10.466	16.173
ProbeTrack15	15	ProbeTrack	15.0	SCS215b	20120508.135237	20120508.135833	8	0.013328	60	10	60-180	60	128	GapExp	Blank	0	22	2	30	1	target	1	353	824	196621	13.328	12.903	13.758
ProbeTrack15	15	ProbeTrack	15.0	SCS215b	20120508.135237	20120508.135840	8	0.013328	60	10	60-180	60	174	GapExp	Blank	0	23	2	1	1	target	1	449	776	197397	13.328	13.110	13.551
ProbeTrack15	15	ProbeTrack	15.0	SCS215b	20120508.135237	20120508.135847	8	0.013328	60	10	60-180	60	86	GapExp	Blank	0	24	2	3	0	distractor	1	531	735	198132	13.328	6.860	19.896
ProbeTrack15	15	ProbeTrack	15.0	SCS215b	20120508.135237	20120508.135852	8	0.013328	60	10	60-180	60	156	GapExp	Blank	0	25	2	0	1	target	1	502	749	198881	13.328	8.265	18.384
ProbeTrack15	15	ProbeTrack	15.0	SCS215b	20120508.135237	20120508.135859	8	0.013328	60	10	60-180	60	83	GapExp	Blank	0	26	2	0	1	target	1	590	705	199586	13.328	4.958	21.705
ProbeTrack15	15	ProbeTrack	15.0	SCS215b	20120508.135237	20120508.135905	8	0.013328	60	10	60-180	60	147	GapExp	Blank	0	27	2	1	1	target	1	421	790	200376	13.328	7.019	19.646
ProbeTrack15	15	ProbeTrack	15.0	SCS215b	20120508.135237	20120508.135911	8	0.013328	60	10	60-180	60	62	GapExp	Blank	0	28	2	3	1	target	1	395	803	201179	13.328	12.167	14.492
ProbeTrack15	15	ProbeTrack	15.0	SCS215b	20120508.135237	20120508.135917	8	0.013328	60	10	60-180	60	63	GapExp	Blank	0	29	2	30	0	distractor	1	530	735	201914	13.328	8.356	18.324
ProbeTrack15	15	ProbeTrack	15.0	SCS215b	20120508.135237	20120508.135922	8	0.013328	60	10	60-180	60	140	GapExp	Blank	0	30	2	30	1	target	1	403	799	202713	13.374	9.100	25.528
ProbeTrack15	15	ProbeTrack	15.0	SCS215b	20120508.135237	20120508.135929	8	0.013328	60	10	60-180	60	177	GapExp	Blank	0	31	2	30	0	distractor	1	449	776	203489	13.328	10.237	16.426
ProbeTrack15	15	ProbeTrack	15.0	SCS215b	20120508.135237	20120508.135937	8	0.013328	60	10	60-180	60	163	GapExp	Blank	0	32	2	3	1	distractor	0	433	-1000	202489	13.328	12.175	14.477
ProbeTrack15	15	ProbeTrack	15.0	SCS215b	20120508.135237	20120508.135943	8	0.013328	60	10	60-180	60	159	GapExp	Blank	0	33	2	0	0	distractor	1	453	774	203263	13.328	8.664	17.478
ProbeTrack15	15	ProbeTrack	15.0	SCS215b	20120508.135237	20120508.135950	8	0.013328	60	10	60-180	60	149	GapExp	Blank	0	34	2	1	0	distractor	1	445	778	204041	13.328	6.301	20.345
ProbeTrack15	15	ProbeTrack	15.0	SCS215b	20120508.135237	20120508.135956	8	0.013328	60	10	60-180	60	78	GapExp	Blank	0	35	2	1	0	distractor	1	481	760	204801	13.592	6.475	40.662
ProbeTrack15	15	ProbeTrack	15.0	SCS215b	20120508.135237	20120508.140002	8	0.013328	60	10	60-180	60	156	GapExp	Blank	0	36	2	1	1	target	1	1572	214	205015	13.328	13.294	13.369
ProbeTrack15	15	ProbeTrack	15.0	SCS215b	20120508.135237	20120508.140010	8	0.013328	60	10	60-180	60	173	GapExp	Blank	0	37	2	30	0	distractor	1	403	799	205814	13.328	5.597	21.063
ProbeTrack15	15	ProbeTrack	15.0	SCS215b	20120508.135237	20120508.140017	8	0.013328	60	10	60-180	60	143	GapExp	Blank	0	38	2	1	1	target	1	382	809	206623	13.328	9.653	17.012
ProbeTrack15	15	ProbeTrack	15.0	SCS215b	20120508.135237	20120508.140023	8	0.013328	60	10	60-180	60	120	GapExp	Blank	0	39	2	0	1	target	1	411	795	207418	13.328	5.322	21.340
ProbeTrack15	15	ProbeTrack	15.0	SCS215b	20120508.135237	20120508.140029	8	0.013328	60	10	60-180	60	69	GapExp	Blank	0	40	2	1	0	target	0	346	-1000	206418	13.328	5.706	20.949
ProbeTrack15	15	ProbeTrack	15.0	SCS215b	20120508.135237	20120508.140034	8	0.013328	60	10	60-180	60	115	GapExp	Blank	0	41	2	0	0	target	0	374	-1000	205418	13.336	13.284	15.208
ProbeTrack15	15	ProbeTrack	15.0	SCS215b	20120508.135237	20120508.140039	8	0.013328	60	10	60-180	60	146	GapExp	Blank	0	42	2	0	0	distractor	1	444	778	206196	13.328	6.299	20.348
ProbeTrack15	15	ProbeTrack	15.0	SCS215b	20120508.135237	20120508.140046	8	0.013328	60	10	60-180	60	62	GapExp	Blank	0	43	2	30	1	target	1	435	783	206979	13.328	5.668	20.994
ProbeTrack15	15	ProbeTrack	15.0	SCS215b	20120508.135237	20120508.140052	8	0.013328	60	10	60-180	60	78	GapExp	Blank	0	44	2	0	0	distractor	1	488	756	207735	13.328	5.827	20.817
ProbeTrack15	15	ProbeTrack	15.0	SCS215b	20120508.135237	20120508.140057	8	0.013328	60	10	60-180	60	142	GapExp	Blank	0	45	2	3	1	target	1	330	835	208570	13.328	12.614	14.005
ProbeTrack15	15	ProbeTrack	15.0	SCS215b	20120508.135237	20120508.140103	8	0.013328	60	10	60-180	60	116	GapExp	Blank	0	46	2	0	0	target	0	379	-1000	207570	13.328	9.933	14.555
ProbeTrack15	15	ProbeTrack	15.0	SCS215b	20120508.135237	20120508.140109	8	0.013328	60	10	60-180	60	174	GapExp	Blank	0	47	2	0	0	distractor	1	678	661	208231	13.328	4.165	22.487
ProbeTrack15	15	ProbeTrack	15.0	SCS215b	20120508.135237	20120508.140116	8	0.013328	60	10	60-180	60	162	GapExp	Blank	0	48	2	3	0	distractor	1	550	725	208956	13.328	4.630	22.006
ProbeTrack15	15	ProbeTrack	15.0	SCS215b	20120508.135237	20120508.140123	8	0.013328	60	10	60-180	60	169	GapExp	Blank	0	49	2	30	1	target	1	336	832	209788	13.328	8.177	18.480
ProbeTrack15	15	ProbeTrack	15.0	SCS215b	20120508.135237	20120508.140130	8	0.013328	60	10	60-180	60	157	GapExp	Blank	0	50	2	1	1	target	1	385	808	210596	13.328	9.724	16.919
ProbeTrack15	15	ProbeTrack	15.0	SCS215b	20120508.135237	20120508.140136	8	0.013328	60	10	60-180	60	179	GapExp	Blank	0	51	2	3	1	target	1	343	829	211425	13.328	9.775	16.844
ProbeTrack15	15	ProbeTrack	15.0	SCS215b	20120508.135237	20120508.140143	8	0.013328	60	10	60-180	60	92	GapExp	Blank	0	52	2	3	1	target	1	343	829	212254	13.328	11.518	15.115
ProbeTrack15	15	ProbeTrack	15.0	SCS215b	20120508.135237	20120508.140148	8	0.013328	60	10	60-180	60	73	GapExp	Blank	0	53	2	1	0	target	0	501	-1000	211254	13.328	10.070	16.580
ProbeTrack15	15	ProbeTrack	15.0	SCS215b	20120508.135237	20120508.140154	8	0.013328	60	10	60-180	60	176	GapExp	Blank	0	54	2	1	1	target	1	524	738	211992	13.328	8.969	17.706
ProbeTrack15	15	ProbeTrack	15.0	SCS215b	20120508.135237	20120508.140200	8	0.013328	60	10	60-180	60	80	GapExp	Blank	0	55	2	0	1	target	1	423	789	212781	13.328	5.588	21.078
ProbeTrack15	15	ProbeTrack	15.0	SCS215b	20120508.135237	20120508.140206	8	0.013328	60	10	60-180	60	153	GapExp	Blank	0	56	2	1	0	distractor	1	628	686	213467	13.328	6.755	19.914
ProbeTrack15	15	ProbeTrack	15.0	SCS215b	20120508.135237	20120508.140212	8	0.013328	60	10	60-180	60	95	GapExp	Blank	0	57	2	3	0	distractor	1	481	760	214227	13.328	12.929	13.743
ProbeTrack15	15	ProbeTrack	15.0	SCS215b	20120508.135237	20120508.140218	8	0.013328	60	10	60-180	60	173	GapExp	Blank	0	58	2	3	1	target	1	537	732	214959	13.328	3.865	22.795
ProbeTrack15	15	ProbeTrack	15.0	SCS215b	20120508.135237	20120508.140225	8	0.013328	60	10	60-180	60	165	GapExp	Blank	0	59	2	30	1	target	1	331	835	215794	13.328	8.125	18.517
ProbeTrack15	15	ProbeTrack	15.0	SCS215b	20120508.135237	20120508.140233	8	0.013328	60	10	60-180	60	121	GapExp	Blank	0	60	2	0	1	target	1	383	809	216603	13.328	9.417	17.249
ProbeTrack15	15	ProbeTrack	15.0	SCS215b	20120508.135237	20120508.140242	8	0.013328	60	10	60-180	60	133	GapExp	Blank	0	61	2	3	1	target	1	345	828	217431	13.328	6.124	20.513
ProbeTrack15	15	ProbeTrack	15.0	SCS215b	20120508.135237	20120508.140248	8	0.013328	60	10	60-180	60	168	GapExp	Blank	0	62	2	0	1	target	1	382	809	218240	13.328	8.754	17.883
ProbeTrack15	15	ProbeTrack	15.0	SCS215b	20120508.135237	20120508.140254	8	0.013328	60	10	60-180	60	168	GapExp	Blank	0	63	2	30	1	target	1	383	809	219049	13.328	13.075	13.579
ProbeTrack15	15	ProbeTrack	15.0	SCS215b	20120508.135237	20120508.140302	8	0.013328	60	10	60-180	60	71	GapExp	Blank	0	64	2	1	0	target	0	690	-1000	218049	13.328	12.760	13.894
ProbeTrack15	15	ProbeTrack	15.0	SCS215b	20120508.135237	20120508.140309	8	0.013328	60	10	60-180	60	145	GapExp	Blank	0	65	2	30	0	distractor	1	482	759	218808	13.328	3.889	22.766
ProbeTrack15	15	ProbeTrack	15.0	SCS215b	20120508.135237	20120508.140315	8	0.013328	60	10	60-180	60	102	GapExp	Blank	0	66	2	30	1	target	1	394	803	219611	13.328	4.843	21.812
ProbeTrack15	15	ProbeTrack	15.0	SCS215b	20120508.135237	20120508.140321	8	0.013328	60	10	60-180	60	150	GapExp	Blank	0	67	2	30	1	target	1	320	840	220451	13.328	8.188	18.458
ProbeTrack15	15	ProbeTrack	15.0	SCS215b	20120508.135237	20120508.140328	8	0.013328	60	10	60-180	60	131	GapExp	Blank	0	68	2	30	1	target	1	284	858	221309	13.328	5.878	20.773
ProbeTrack15	15	ProbeTrack	15.0	SCS215b	20120508.135237	20120508.140335	8	0.013328	60	10	60-180	60	156	GapExp	Blank	0	69	2	1	0	distractor	1	568	716	222025	13.328	7.931	18.713
ProbeTrack15	15	ProbeTrack	15.0	SCS215b	20120508.135237	20120508.140342	8	0.013328	60	10	60-180	60	147	GapExp	Blank	0	70	2	3	0	distractor	1	412	794	222819	13.328	8.034	18.624
ProbeTrack15	15	ProbeTrack	15.0	SCS215b	20120508.135237	20120508.140348	8	0.013328	60	10	60-180	60	80	GapExp	Blank	0	71	2	3	0	target	0	373	-1000	221819	13.328	6.576	20.082
ProbeTrack15	15	ProbeTrack	15.0	SCS215b	20120508.135237	20120508.140353	8	0.013328	60	10	60-180	60	118	GapExp	Blank	0	72	2	30	1	target	1	375	813	222632	13.328	11.648	15.006
ProbeTrack15	15	ProbeTrack	15.0	SCS215b	20120508.135237	20120508.140400	8	0.013328	60	10	60-180	60	107	GapExp	Blank	0	73	2	30	0	distractor	1	375	813	223445	13.328	9.738	16.916
ProbeTrack15	15	ProbeTrack	15.0	SCS215b	20120508.135237	20120508.140406	8	0.013328	60	10	60-180	60	176	GapExp	Blank	0	74	2	1	1	target	1	453	774	224219	13.328	5.183	21.465
ProbeTrack15	15	ProbeTrack	15.0	SCS215b	20120508.135237	20120508.140413	8	0.013328	60	10	60-180	60	92	GapExp	Blank	0	75	2	3	1	target	1	362	819	225038	13.328	13.303	13.353
ProbeTrack15	15	ProbeTrack	15.0	SCS215b	20120508.135237	20120508.140418	8	0.013328	60	10	60-180	60	180	GapExp	Blank	0	76	2	30	1	target	1	391	805	225843	13.328	6.111	20.551
ProbeTrack15	15	ProbeTrack	15.0	SCS215b	20120508.135237	20120508.140426	8	0.013328	60	10	60-180	60	168	GapExp	Blank	0	77	2	30	0	distractor	1	425	788	226631	13.328	6.988	19.682
ProbeTrack15	15	ProbeTrack	15.0	SCS215b	20120508.135237	20120508.140433	8	0.013328	60	10	60-180	60	155	GapExp	Blank	0	78	2	30	0	distractor	1	569	716	227347	13.328	10.995	15.668
ProbeTrack15	15	ProbeTrack	15.0	SCS215b	20120508.135237	20120508.140440	8	0.013328	60	10	60-180	60	116	GapExp	Blank	0	79	2	3	0	distractor	1	406	797	228144	13.328	13.308	13.352
ProbeTrack15	15	ProbeTrack	15.0	SCS215b	20120508.135237	20120508.140446	8	0.013328	60	10	60-180	60	69	GapExp	Blank	0	80	2	0	1	target	1	412	794	228938	13.328	8.657	17.992
ProbeTrack15	15	ProbeTrack	15.0	SCS215b	20120508.135237	20120508.140451	8	0.013328	60	10	60-180	60	137	GapExp	Blank	0	81	2	30	1	target	1	534	733	229671	13.328	7.399	19.241
ProbeTrack15	15	ProbeTrack	15.0	SCS215b	20120508.135237	20120508.140457	8	0.013328	60	10	60-180	60	69	GapExp	Blank	0	82	2	0	1	target	1	446	777	230448	13.328	13.307	13.355
ProbeTrack15	15	ProbeTrack	15.0	SCS215b	20120508.135237	20120508.140503	8	0.013328	60	10	60-180	60	105	GapExp	Blank	0	83	2	3	0	distractor	1	479	761	231209	13.328	8.516	18.128
ProbeTrack15	15	ProbeTrack	15.0	SCS215b	20120508.135237	20120508.140508	8	0.013328	60	10	60-180	60	153	GapExp	Blank	0	84	2	1	1	target	1	456	772	231981	13.328	9.561	17.093
ProbeTrack15	15	ProbeTrack	15.0	SCS215b	20120508.135237	20120508.140515	8	0.013328	60	10	60-180	60	68	GapExp	Blank	0	85	2	30	1	target	1	365	818	232799	13.328	7.232	19.428
ProbeTrack15	15	ProbeTrack	15.0	SCS215b	20120508.135237	20120508.140521	8	0.013328	60	10	60-180	60	132	GapExp	Blank	0	86	2	1	0	target	0	363	-1000	231799	13.328	13.092	13.564
ProbeTrack15	15	ProbeTrack	15.0	SCS215b	20120508.135237	20120508.140527	8	0.013328	60	10	60-180	60	107	GapExp	Blank	0	87	2	1	1	target	1	520	740	232539	13.328	11.081	15.570
ProbeTrack15	15	ProbeTrack	15.0	SCS215b	20120508.135237	20120508.140533	8	0.013328	60	10	60-180	60	70	GapExp	Blank	0	88	2	1	0	target	0	520	-1000	231539	13.328	12.961	13.711
ProbeTrack15	15	ProbeTrack	15.0	SCS215b	20120508.135237	20120508.140538	8	0.013328	60	10	60-180	60	67	GapExp	Blank	0	89	2	0	0	target	0	453	-1000	230539	13.328	12.529	14.148
ProbeTrack15	15	ProbeTrack	15.0	SCS215b	20120508.135237	20120508.140543	8	0.013328	60	10	60-180	60	128	GapExp	Blank	0	90	2	1	1	target	1	443	779	231318	13.328	10.629	16.022
ProbeTrack15	15	ProbeTrack	15.0	SCS215b	20120508.135237	20120508.140549	8	0.013328	60	10	60-180	60	85	GapExp	Blank	0	91	2	1	0	target	0	316	-1000	230318	13.328	13.303	13.352
ProbeTrack15	15	ProbeTrack	15.0	SCS215b	20120508.135237	20120508.140555	8	0.013328	60	10	60-180	60	158	GapExp	Blank	0	92	2	30	0	target	0	406	-1000	229318	13.328	13.089	13.573
ProbeTrack15	15	ProbeTrack	15.0	SCS215b	20120508.135237	20120508.140602	8	0.013328	60	10	60-180	60	75	GapExp	Blank	0	93	2	3	0	distractor	1	417	792	230110	13.328	13.101	13.571
ProbeTrack15	15	ProbeTrack	15.0	SCS215b	20120508.135237	20120508.140607	8	0.013328	60	10	60-180	60	98	GapExp	Blank	0	94	2	1	1	target	1	387	807	230917	13.328	12.903	13.745
ProbeTrack15	15	ProbeTrack	15.0	SCS215b	20120508.135237	20120508.140613	8	0.013328	60	10	60-180	60	104	GapExp	Blank	0	95	2	0	0	distractor	1	469	766	231683	13.328	13.309	13.353
ProbeTrack15	15	ProbeTrack	15.0	SCS215b	20120508.135237	20120508.140619	8	0.013328	60	10	60-180	60	168	GapExp	Blank	0	96	2	30	1	target	1	335	833	232516	13.328	13.297	13.359
ProbeTrack15	15	ProbeTrack	15.0	SCS215b	20120508.135237	20120508.140626	8	0.013328	60	10	60-180	60	121	GapExp	Blank	0	97	2	0	1	target	1	622	689	233205	13.328	13.284	13.366
ProbeTrack15	15	ProbeTrack	15.0	SCS215b	20120508.135237	20120508.140632	8	0.013328	60	10	60-180	60	130	GapExp	Blank	0	98	2	1	0	distractor	1	536	732	233937	13.328	6.062	20.594
ProbeTrack15	15	ProbeTrack	15.0	SCS215b	20120508.135237	20120508.140638	8	0.013328	60	10	60-180	60	89	GapExp	Blank	0	99	2	0	0	distractor	1	417	792	234729	13.328	7.403	19.264
ProbeTrack15	15	ProbeTrack	15.0	SCS215b	20120508.135237	20120508.140643	8	0.013328	60	10	60-180	60	154	GapExp	Blank	0	100	2	3	0	distractor	1	467	767	235496	13.328	7.363	19.310
ProbeTrack15	15	ProbeTrack	15.0	SCS215b	20120508.135237	20120508.140650	8	0.013328	60	10	60-180	60	126	GapExp	Blank	0	101	2	30	1	target	1	412	794	236290	13.328	10.268	16.394
ProbeTrack15	15	ProbeTrack	15.0	SCS215b	20120508.135237	20120508.140656	8	0.013328	60	10	60-180	60	122	GapExp	Blank	0	102	2	0	0	target	0	432	-1000	235290	13.328	12.581	14.072
ProbeTrack15	15	ProbeTrack	15.0	SCS215b	20120508.135237	20120508.140702	8	0.013328	60	10	60-180	60	93	GapExp	Blank	0	103	2	3	1	target	1	444	778	236068	13.328	12.411	14.233
ProbeTrack15	15	ProbeTrack	15.0	SCS215b	20120508.135237	20120508.140708	8	0.013328	60	10	60-180	60	101	GapExp	Blank	0	104	2	0	1	target	1	380	810	236878	13.328	12.920	13.741
ProbeTrack15	15	ProbeTrack	15.0	SCS215b	20120508.135237	20120508.140713	8	0.013328	60	10	60-180	60	105	GapExp	Blank	0	105	2	1	0	target	0	344	-1000	235878	13.328	13.098	13.559
ProbeTrack15	15	ProbeTrack	15.0	SCS215b	20120508.135237	20120508.140719	8	0.013328	60	10	60-180	60	78	GapExp	Blank	0	106	2	0	0	distractor	1	519	741	236619	13.328	5.337	21.315
ProbeTrack15	15	ProbeTrack	15.0	SCS215b	20120508.135237	20120508.140724	8	0.013328	60	10	60-180	60	171	GapExp	Blank	0	107	2	1	0	target	0	645	-1000	235619	13.328	8.250	18.418
ProbeTrack15	15	ProbeTrack	15.0	SCS215b	20120508.135237	20120508.140731	8	0.013328	60	10	60-180	60	84	GapExp	Blank	0	108	2	30	0	distractor	1	405	798	236417	13.328	5.212	21.454
ProbeTrack15	15	ProbeTrack	15.0	SCS215b	20120508.135237	20120508.140737	8	0.013328	60	10	60-180	60	150	GapExp	Blank	0	109	2	0	0	distractor	1	458	771	237188	13.328	8.878	17.784
ProbeTrack15	15	ProbeTrack	15.0	SCS215b	20120508.135237	20120508.140743	8	0.013328	60	10	60-180	60	73	GapExp	Blank	0	110	2	30	1	target	1	358	821	238009	13.328	10.007	16.664
ProbeTrack15	15	ProbeTrack	15.0	SCS215b	20120508.135237	20120508.140752	8	0.013328	60	10	60-180	60	93	GapExp	Blank	0	111	2	0	1	target	1	429	786	238795	13.327	10.451	16.189
ProbeTrack15	15	ProbeTrack	15.0	SCS215b	20120508.135237	20120508.140758	8	0.013328	60	10	60-180	60	177	GapExp	Blank	0	112	2	0	1	target	1	686	657	239452	13.328	8.469	18.184
ProbeTrack15	15	ProbeTrack	15.0	SCS215b	20120508.135237	20120508.140805	8	0.013328	60	10	60-180	60	144	GapExp	Blank	0	113	2	1	0	distractor	1	603	699	240151	13.328	5.291	21.374
ProbeTrack15	15	ProbeTrack	15.0	SCS215b	20120508.135237	20120508.140812	8	0.013328	60	10	60-180	60	145	GapExp	Blank	0	114	2	3	1	target	1	358	821	240972	13.328	3.570	23.092
ProbeTrack15	15	ProbeTrack	15.0	SCS215b	20120508.135237	20120508.140818	8	0.013328	60	10	60-180	60	178	GapExp	Blank	0	115	2	0	1	target	1	378	811	241783	13.328	7.628	19.035
ProbeTrack15	15	ProbeTrack	15.0	SCS215b	20120508.135237	20120508.140824	8	0.013328	60	10	60-180	60	81	GapExp	Blank	0	116	2	3	0	distractor	1	445	778	242561	13.327	13.129	13.354
ProbeTrack15	15	ProbeTrack	15.0	SCS215b	20120508.135237	20120508.140830	8	0.013328	60	10	60-180	60	77	GapExp	Blank	0	117	2	3	1	target	1	377	812	243373	13.328	11.392	15.266
ProbeTrack15	15	ProbeTrack	15.0	SCS215b	20120508.135237	20120508.140836	8	0.013328	60	10	60-180	60	129	GapExp	Blank	0	118	2	1	0	target	0	343	-1000	242373	13.328	6.945	19.722
ProbeTrack15	15	ProbeTrack	15.0	SCS215b	20120508.135237	20120508.140841	8	0.013328	60	10	60-180	60	129	GapExp	Blank	0	119	2	0	0	target	0	507	-1000	241373	13.328	13.223	13.424
ProbeTrack15	15	ProbeTrack	15.0	SCS215b	20120508.135237	20120508.140847	8	0.013328	60	10	60-180	60	101	GapExp	Blank	0	120	2	3	0	distractor	1	592	704	242077	13.328	10.379	16.283
ProbeTrack15	15	ProbeTrack	15.0	SCS215b	20120508.135237	20120508.140853	8	0.013328	60	10	60-180	60	145	GapExp	Blank	0	121	2	0	0	distractor	1	450	775	242852	13.328	4.599	22.067
ProbeTrack15	15	ProbeTrack	15.0	SCS215b	20120508.135237	20120508.140900	8	0.013328	60	10	60-180	60	179	GapExp	Blank	0	122	2	1	1	target	1	389	806	243658	13.328	6.723	19.911
ProbeTrack15	15	ProbeTrack	15.0	SCS215b	20120508.135237	20120508.140907	8	0.013328	60	10	60-180	60	170	GapExp	Blank	0	123	2	0	0	distractor	1	522	739	244397	13.328	4.007	22.654
ProbeTrack15	15	ProbeTrack	15.0	SCS215b	20120508.135237	20120508.140913	8	0.013328	60	10	60-180	60	110	GapExp	Blank	0	124	2	3	0	distractor	1	510	745	245142	13.328	3.089	23.567
ProbeTrack15	15	ProbeTrack	15.0	SCS215b	20120508.135237	20120508.140919	8	0.013328	60	10	60-180	60	105	GapExp	Blank	0	125	2	30	0	distractor	1	449	776	245918	13.328	7.095	19.556
ProbeTrack15	15	ProbeTrack	15.0	SCS215b	20120508.135237	20120508.140925	8	0.013328	60	10	60-180	60	61	GapExp	Blank	0	126	2	3	0	distractor	1	484	758	246676	13.328	5.301	21.341
ProbeTrack15	15	ProbeTrack	15.0	SCS215b	20120508.135237	20120508.140930	8	0.013328	60	10	60-180	60	108	GapExp	Blank	0	127	2	1	0	distractor	1	463	769	247445	13.328	7.611	19.041
ProbeTrack15	15	ProbeTrack	15.0	SCS215b	20120508.135237	20120508.140936	8	0.013328	60	10	60-180	60	73	GapExp	Blank	0	128	2	30	0	distractor	1	422	789	248234	13.328	11.474	15.174
ProbeTrack15	15	ProbeTrack	15.0	SCS215b	20120508.135237	20120508.140942	8	0.013328	60	10	60-180	60	116	GapExp	Blank	0	129	2	0	1	distractor	0	696	-1000	247234	13.328	12.698	13.969
ProbeTrack15	15	ProbeTrack	15.0	SCS215b	20120508.135237	20120508.140948	8	0.013328	60	10	60-180	60	173	GapExp	Blank	0	130	2	1	0	distractor	1	421	790	248024	13.328	6.125	20.536
ProbeTrack15	15	ProbeTrack	15.0	SCS215b	20120508.135237	20120508.140955	8	0.013328	60	10	60-180	60	108	GapExp	Blank	0	131	2	0	1	target	1	412	794	248818	13.328	9.139	17.501
ProbeTrack15	15	ProbeTrack	15.0	SCS215b	20120508.135237	20120508.141000	8	0.013328	60	10	60-180	60	108	GapExp	Blank	0	132	2	1	1	target	1	609	696	249514	13.328	6.185	20.470
ProbeTrack15	15	ProbeTrack	15.0	SCS215b	20120508.135237	20120508.141006	8	0.013328	60	10	60-180	60	99	GapExp	Blank	0	133	2	0	1	target	1	844	578	250092	13.328	10.482	16.181
ProbeTrack15	15	ProbeTrack	15.0	SCS215b	20120508.135237	20120508.141012	8	0.013328	60	10	60-180	60	134	GapExp	Blank	0	134	2	30	0	distractor	1	370	815	250907	13.328	7.532	19.134
ProbeTrack15	15	ProbeTrack	15.0	SCS215b	20120508.135237	20120508.141019	8	0.013328	60	10	60-180	60	153	GapExp	Blank	0	135	2	0	0	distractor	1	453	774	251681	13.328	5.213	21.444
ProbeTrack15	15	ProbeTrack	15.0	SCS215b	20120508.135237	20120508.141025	8	0.013328	60	10	60-180	60	142	GapExp	Blank	0	136	2	3	0	distractor	1	380	810	252491	13.328	4.272	22.377
ProbeTrack15	15	ProbeTrack	15.0	SCS215b	20120508.135237	20120508.141031	8	0.013328	60	10	60-180	60	101	GapExp	Blank	0	137	2	1	1	distractor	0	650	-1000	251491	13.328	6.988	19.682
ProbeTrack15	15	ProbeTrack	15.0	SCS215b	20120508.135237	20120508.141037	8	0.013328	60	10	60-180	60	142	GapExp	Blank	0	138	2	3	1	target	1	465	768	252259	13.328	7.258	19.397
ProbeTrack15	15	ProbeTrack	15.0	SCS215b	20120508.135237	20120508.141043	8	0.013328	60	10	60-180	60	66	GapExp	Blank	0	139	2	1	1	target	1	417	792	253051	13.328	9.388	17.251
ProbeTrack15	15	ProbeTrack	15.0	SCS215b	20120508.135237	20120508.141048	8	0.013328	60	10	60-180	60	80	GapExp	Blank	0	140	2	3	1	target	1	367	817	253868	13.328	3.047	23.605
ProbeTrack15	15	ProbeTrack	15.0	SCS215b	20120508.135237	20120508.141054	8	0.013328	60	10	60-180	60	77	GapExp	Blank	0	141	2	3	0	target	0	371	-1000	252868	13.328	12.446	14.207
ProbeTrack15	15	ProbeTrack	15.0	SCS215b	20120508.135237	20120508.141059	8	0.013328	60	10	60-180	60	175	GapExp	Blank	0	142	2	3	1	target	1	413	794	253662	13.328	9.497	17.144
ProbeTrack15	15	ProbeTrack	15.0	SCS215b	20120508.135237	20120508.141106	8	0.013328	60	10	60-180	60	101	GapExp	Blank	0	143	2	0	0	distractor	1	405	798	254460	13.328	12.982	13.647
ProbeTrack15	15	ProbeTrack	15.0	SCS215b	20120508.135237	20120508.141112	8	0.013328	60	10	60-180	60	107	GapExp	Blank	0	144	2	1	1	target	1	399	801	255261	13.447	6.840	35.005
ProbeTrack15	15	ProbeTrack	15.0	SCS215b	20120508.135237	20120508.141117	8	0.013328	60	10	60-180	60	177	GapExp	Blank	0	145	2	30	1	target	1	327	837	256098	13.328	7.315	19.345
ProbeTrack15	15	ProbeTrack	15.0	SCS215b	20120508.135237	20120508.141125	8	0.013328	60	10	60-180	60	159	GapExp	Blank	0	146	2	0	1	distractor	0	564	-1000	255098	13.328	11.398	15.428
ProbeTrack15	15	ProbeTrack	15.0	SCS215b	20120508.135237	20120508.141131	8	0.013328	60	10	60-180	60	132	GapExp	Blank	0	147	2	30	0	target	0	383	-1000	254098	13.328	10.375	16.264
ProbeTrack15	15	ProbeTrack	15.0	SCS215b	20120508.135237	20120508.141138	8	0.013328	60	10	60-180	60	134	GapExp	Blank	0	148	2	3	1	target	1	730	635	254733	13.328	9.697	16.951
ProbeTrack15	15	ProbeTrack	15.0	SCS215b	20120508.135237	20120508.141144	8	0.013328	60	10	60-180	60	64	GapExp	Blank	0	149	2	30	1	target	1	459	771	255504	13.328	8.606	18.054
ProbeTrack15	15	ProbeTrack	15.0	SCS215b	20120508.135237	20120508.141149	8	0.013328	60	10	60-180	60	152	GapExp	Blank	0	150	2	1	1	target	1	765	618	256122	13.328	4.844	21.819
ProbeTrack15	15	ProbeTrack	15.0	SCS215b	20120508.135237	20120508.141157	8	0.013328	60	10	60-180	60	98	GapExp	Blank	0	151	2	1	0	target	0	528	-1000	255122	13.328	11.580	15.071
ProbeTrack15	15	ProbeTrack	15.0	SCS215b	20120508.135237	20120508.141205	8	0.013328	60	10	60-180	60	112	GapExp	Blank	0	152	2	3	0	distractor	1	477	762	255884	13.328	4.920	21.742
ProbeTrack15	15	ProbeTrack	15.0	SCS215b	20120508.135237	20120508.141211	8	0.013328	60	10	60-180	60	135	GapExp	Blank	0	153	2	3	0	distractor	1	598	701	256585	13.328	4.539	22.114
ProbeTrack15	15	ProbeTrack	15.0	SCS215b	20120508.135237	20120508.141217	8	0.013328	60	10	60-180	60	85	GapExp	Blank	0	154	2	3	0	distractor	1	459	771	257356	13.328	11.479	15.174
ProbeTrack15	15	ProbeTrack	15.0	SCS215b	20120508.135237	20120508.141223	8	0.013328	60	10	60-180	60	151	GapExp	Blank	0	155	2	3	1	target	1	453	774	258130	13.377	4.775	21.868
ProbeTrack15	15	ProbeTrack	15.0	SCS215b	20120508.135237	20120508.141230	8	0.013328	60	10	60-180	60	83	GapExp	Blank	0	156	2	3	1	target	1	448	776	258906	13.328	11.029	15.620
ProbeTrack15	15	ProbeTrack	15.0	SCS215b	20120508.135237	20120508.141235	8	0.013328	60	10	60-180	60	170	GapExp	Blank	0	157	2	3	0	distractor	1	489	756	259662	13.328	6.018	20.639
ProbeTrack15	15	ProbeTrack	15.0	SCS215b	20120508.135237	20120508.141242	8	0.013328	60	10	60-180	60	63	GapExp	Blank	0	158	2	30	0	target	0	559	-1000	258662	13.328	12.278	14.384
ProbeTrack15	15	ProbeTrack	15.0	SCS215b	20120508.135237	20120508.141249	8	0.013328	60	10	60-180	60	106	GapExp	Blank	0	159	2	0	1	distractor	0	589	-1000	257662	13.328	9.012	17.792
ProbeTrack15	15	ProbeTrack	15.0	SCS215b	20120508.135237	20120508.141254	8	0.013328	60	10	60-180	60	117	GapExp	Blank	0	160	2	1	1	target	1	471	765	258427	13.328	6.387	20.256
ProbeTrack15	15	ProbeTrack	15.0	SCS215b	20120508.135237	20120508.141301	8	0.013328	60	10	60-180	60	120	GapExp	Blank	0	161	2	0	0	distractor	1	539	731	259158	13.328	13.094	13.564
ProbeTrack15	15	ProbeTrack	15.0	SCS215b	20120508.135237	20120508.141307	8	0.013328	60	10	60-180	60	94	GapExp	Blank	0	162	2	3	1	target	1	373	814	259972	13.328	12.292	14.358
ProbeTrack15	15	ProbeTrack	15.0	SCS215b	20120508.135237	20120508.141312	8	0.013328	60	10	60-180	60	82	GapExp	Blank	0	163	2	3	1	target	1	585	708	260680	13.328	10.005	16.705
ProbeTrack15	15	ProbeTrack	15.0	SCS215b	20120508.135237	20120508.141318	8	0.013328	60	10	60-180	60	111	GapExp	Blank	0	164	2	30	0	distractor	1	432	784	261464	13.328	12.997	13.658
ProbeTrack15	15	ProbeTrack	15.0	SCS215b	20120508.135237	20120508.141324	8	0.013328	60	10	60-180	60	178	GapExp	Blank	0	165	2	3	1	target	1	345	828	262292	13.328	4.114	22.547
ProbeTrack15	15	ProbeTrack	15.0	SCS215b	20120508.135237	20120508.141331	8	0.013328	60	10	60-180	60	79	GapExp	Blank	0	166	2	1	1	target	1	464	768	263060	13.328	13.101	13.561
ProbeTrack15	15	ProbeTrack	15.0	SCS215b	20120508.135237	20120508.141336	8	0.013328	60	10	60-180	60	87	GapExp	Blank	0	167	2	0	1	target	1	348	826	263886	13.328	8.438	18.218
ProbeTrack15	15	ProbeTrack	15.0	SCS215b	20120508.135237	20120508.141342	8	0.013328	60	10	60-180	60	131	GapExp	Blank	0	168	2	3	0	distractor	1	482	759	264645	13.328	4.563	22.081
ProbeTrack15	15	ProbeTrack	15.0	SCS215b	20120508.135237	20120508.141348	8	0.013328	60	10	60-180	60	166	GapExp	Blank	0	169	2	3	0	distractor	1	454	773	265418	13.328	3.246	23.408
ProbeTrack15	15	ProbeTrack	15.0	SCS215b	20120508.135237	20120508.141354	8	0.013328	60	10	60-180	60	120	GapExp	Blank	0	170	2	1	0	distractor	1	421	790	266208	13.328	8.018	18.645
ProbeTrack15	15	ProbeTrack	15.0	SCS215b	20120508.135237	20120508.141400	8	0.013328	60	10	60-180	60	134	GapExp	Blank	0	171	2	3	1	target	1	551	725	266933	13.328	13.292	13.362
ProbeTrack15	15	ProbeTrack	15.0	SCS215b	20120508.135237	20120508.141407	8	0.013328	60	10	60-180	60	72	GapExp	Blank	0	172	2	30	0	distractor	1	463	769	267702	13.328	12.310	14.350
ProbeTrack15	15	ProbeTrack	15.0	SCS215b	20120508.135237	20120508.141412	8	0.013328	60	10	60-180	60	104	GapExp	Blank	0	173	2	3	0	distractor	1	568	716	268418	13.328	9.976	16.686
ProbeTrack15	15	ProbeTrack	15.0	SCS215b	20120508.135237	20120508.141418	8	0.013328	60	10	60-180	60	174	GapExp	Blank	0	174	2	1	1	target	1	435	783	269201	13.328	12.141	14.511
ProbeTrack15	15	ProbeTrack	15.0	SCS215b	20120508.135237	20120508.141424	8	0.013328	60	10	60-180	60	110	GapExp	Blank	0	175	2	0	1	target	1	446	777	269978	13.328	12.524	14.133
ProbeTrack15	15	ProbeTrack	15.0	SCS215b	20120508.135237	20120508.141430	8	0.013328	60	10	60-180	60	152	GapExp	Blank	0	176	2	30	0	distractor	1	427	787	270765	13.328	12.619	14.036
ProbeTrack15	15	ProbeTrack	15.0	SCS215b	20120508.135237	20120508.141437	8	0.013328	60	10	60-180	60	116	GapExp	Blank	0	177	2	1	1	target	1	473	764	271529	13.328	13.117	13.540
ProbeTrack15	15	ProbeTrack	15.0	SCS215b	20120508.135237	20120508.141443	8	0.013328	60	10	60-180	60	77	GapExp	Blank	0	178	2	30	0	distractor	1	528	736	272265	13.328	11.860	14.813
ProbeTrack15	15	ProbeTrack	15.0	SCS215b	20120508.135237	20120508.141449	8	0.013328	60	10	60-180	60	76	GapExp	Blank	0	179	2	3	0	target	0	345	-1000	271265	13.328	8.269	18.384
ProbeTrack15	15	ProbeTrack	15.0	SCS215b	20120508.135237	20120508.141454	8	0.013328	60	10	60-180	60	154	GapExp	Blank	0	180	2	0	0	distractor	1	382	809	272074	13.328	10.425	16.227
ProbeTrack15	15	ProbeTrack	15.0	SCS215b	20120508.135237	20120508.141501	8	0.013328	60	10	60-180	60	177	GapExp	Blank	0	181	2	30	0	distractor	1	502	749	272823	13.328	10.217	16.424
ProbeTrack15	15	ProbeTrack	15.0	SCS215b	20120508.135237	20120508.141508	8	0.013328	60	10	60-180	60	95	GapExp	Blank	0	182	2	30	0	distractor	1	748	626	273449	13.328	5.742	20.903
ProbeTrack15	15	ProbeTrack	15.0	SCS215b	20120508.135237	20120508.141514	8	0.013328	60	10	60-180	60	163	GapExp	Blank	0	183	2	0	1	target	1	481	760	274209	13.328	6.103	20.559
ProbeTrack15	15	ProbeTrack	15.0	SCS215b	20120508.135237	20120508.141521	8	0.013328	60	10	60-180	60	150	GapExp	Blank	0	184	2	0	1	target	1	464	768	274977	13.328	13.093	13.551
ProbeTrack15	15	ProbeTrack	15.0	SCS215b	20120508.135237	20120508.141527	8	0.013328	60	10	60-180	60	91	GapExp	Blank	0	185	2	0	0	distractor	1	439	781	275758	13.328	4.808	21.837
ProbeTrack15	15	ProbeTrack	15.0	SCS215b	20120508.135237	20120508.141532	8	0.013328	60	10	60-180	60	94	GapExp	Blank	0	186	2	1	0	distractor	1	475	763	276521	13.328	4.422	22.233
ProbeTrack15	15	ProbeTrack	15.0	SCS215b	20120508.135237	20120508.141538	8	0.013328	60	10	60-180	60	179	GapExp	Blank	0	187	2	30	1	target	1	348	826	277347	13.328	7.895	18.759
ProbeTrack15	15	ProbeTrack	15.0	SCS215b	20120508.135237	20120508.141545	8	0.013328	60	10	60-180	60	113	GapExp	Blank	0	188	2	1	0	distractor	1	542	729	278076	13.328	9.161	17.496
ProbeTrack15	15	ProbeTrack	15.0	SCS215b	20120508.135237	20120508.141551	8	0.013328	60	10	60-180	60	98	GapExp	Blank	0	189	2	30	0	distractor	1	428	786	278862	13.328	7.308	19.331
ProbeTrack15	15	ProbeTrack	15.0	SCS215b	20120508.135237	20120508.141557	8	0.013328	60	10	60-180	60	76	GapExp	Blank	0	190	2	30	0	target	0	470	-1000	277862	13.328	6.260	20.381
ProbeTrack15	15	ProbeTrack	15.0	SCS215b	20120508.135237	20120508.141603	8	0.013328	60	10	60-180	60	86	GapExp	Blank	0	191	2	1	0	target	0	715	-1000	276862	13.328	11.145	15.528
ProbeTrack15	15	ProbeTrack	15.0	SCS215b	20120508.135237	20120508.141608	8	0.013328	60	10	60-180	60	172	GapExp	Blank	0	192	2	3	1	target	1	387	807	277669	13.328	3.745	22.904
ProbeTrack15	15	ProbeTrack	15.0	SCS215b	20120508.135237	20120508.141615	8	0.013328	60	10	60-180	60	128	GapExp	Blank	0	193	2	0	1	target	1	407	797	278466	13.328	13.295	13.366
ProbeTrack15	15	ProbeTrack	15.0	SCS215b	20120508.135237	20120508.141621	8	0.013328	60	10	60-180	60	135	GapExp	Blank	0	194	2	30	1	target	1	369	816	279282	13.328	7.011	19.628
ProbeTrack15	15	ProbeTrack	15.0	SCS215b	20120508.135237	20120508.141627	8	0.013328	60	10	60-180	60	119	GapExp	Blank	0	195	2	1	1	target	1	625	688	279970	13.309	8.511	17.965
ProbeTrack15	15	ProbeTrack	15.0	SCS215b	20120508.135237	20120508.141633	8	0.013328	60	10	60-180	60	132	GapExp	Blank	0	196	2	3	1	target	1	398	801	280771	13.328	9.782	16.887
ProbeTrack15	15	ProbeTrack	15.0	SCS215b	20120508.135237	20120508.141639	8	0.013328	60	10	60-180	60	117	GapExp	Blank	0	197	2	0	0	distractor	1	516	742	281513	13.328	12.944	13.737
ProbeTrack15	15	ProbeTrack	15.0	SCS215b	20120508.135237	20120508.141645	8	0.013328	60	10	60-180	60	128	GapExp	Blank	0	198	2	30	1	target	1	323	839	282352	13.328	12.326	14.333
ProbeTrack15	15	ProbeTrack	15.0	SCS215b	20120508.135237	20120508.141652	8	0.013328	60	10	60-180	60	110	GapExp	Blank	0	199	2	30	0	distractor	1	451	775	283127	13.328	7.572	19.089
ProbeTrack15	15	ProbeTrack	15.0	SCS215b	20120508.135237	20120508.141658	8	0.013328	60	10	60-180	60	89	GapExp	Blank	0	200	2	30	1	target	1	342	829	283956	13.328	4.515	22.129
ProbeTrack15	15	ProbeTrack	15.0	SCS215b	20120508.141819	20120508.141826	8	0.013328	60	10	60-180	60	118	GapPrac	BigFlash	1	1	2	30	0	distractor	1	638	681	284637	13.375	13.032	13.634
ProbeTrack15	15	ProbeTrack	15.0	SCS215b	20120508.141819	20120508.141834	8	0.013328	60	10	60-180	60	81	GapPrac	BigFlash	1	2	2	30	1	target	1	534	733	285370	13.328	12.863	13.782
ProbeTrack15	15	ProbeTrack	15.0	SCS215b	20120508.141819	20120508.141840	8	0.013328	60	10	60-180	60	112	GapPrac	BigFlash	1	3	2	0	0	distractor	1	598	701	286071	13.328	9.297	17.356
ProbeTrack15	15	ProbeTrack	15.0	SCS215b	20120508.141819	20120508.141846	8	0.013328	60	10	60-180	60	82	GapPrac	BigFlash	1	4	2	1	1	target	1	457	772	286843	13.328	10.815	15.836
ProbeTrack15	15	ProbeTrack	15.0	SCS215b	20120508.141819	20120508.141851	8	0.013328	60	10	60-180	60	146	GapPrac	BigFlash	1	5	2	3	0	target	0	731	-1000	285843	13.328	11.564	15.105
ProbeTrack15	15	ProbeTrack	15.0	SCS215b	20120508.141819	20120508.141858	8	0.013328	60	10	60-180	60	138	GapPrac	BigFlash	1	6	2	0	0	distractor	1	445	778	286621	13.328	5.813	20.846
ProbeTrack15	15	ProbeTrack	15.0	SCS215b	20120508.141819	20120508.141905	8	0.013328	60	10	60-180	60	157	GapPrac	BigFlash	1	7	2	30	1	target	1	466	767	287388	13.328	4.423	22.237
ProbeTrack15	15	ProbeTrack	15.0	SCS215b	20120508.141819	20120508.141912	8	0.013328	60	10	60-180	60	141	GapPrac	BigFlash	1	8	2	3	0	distractor	1	470	765	288153	13.328	7.880	18.760
ProbeTrack15	15	ProbeTrack	15.0	SCS215b	20120508.141819	20120508.141918	8	0.013328	60	10	60-180	60	81	GapPrac	BigFlash	1	9	2	0	0	distractor	1	483	759	288912	13.328	5.684	20.967
ProbeTrack15	15	ProbeTrack	15.0	SCS215b	20120508.141819	20120508.141923	8	0.013328	60	10	60-180	60	62	GapPrac	BigFlash	1	10	2	1	1	target	1	626	687	289599	13.328	9.032	17.638
ProbeTrack15	15	ProbeTrack	15.0	SCS215b	20120508.141819	20120508.141929	8	0.013328	60	10	60-180	60	134	GapPrac	BigFlash	1	11	2	3	1	target	1	357	822	290421	13.328	5.609	21.044
ProbeTrack15	15	ProbeTrack	15.0	SCS215b	20120508.141819	20120508.141935	8	0.013328	60	10	60-180	60	108	GapPrac	BigFlash	1	12	2	1	0	distractor	1	794	603	291024	13.328	5.489	21.160
ProbeTrack15	15	ProbeTrack	15.0	SCS215b	20120508.141819	20120508.141941	8	0.013328	60	10	60-180	60	109	GapPrac	BigFlash	1	13	2	30	0	distractor	1	510	745	291769	13.328	12.387	14.261
ProbeTrack15	15	ProbeTrack	15.0	SCS215b	20120508.141819	20120508.141948	8	0.013328	60	10	60-180	60	143	GapPrac	BigFlash	1	14	2	1	1	target	1	435	783	292552	13.328	13.096	13.561
ProbeTrack15	15	ProbeTrack	15.0	SCS215b	20120508.141819	20120508.141954	8	0.013328	60	10	60-180	60	106	GapPrac	BigFlash	1	15	2	0	1	target	1	334	833	293385	13.328	8.808	17.869
ProbeTrack15	15	ProbeTrack	15.0	SCS215b	20120508.141819	20120508.142000	8	0.013328	60	10	60-180	60	90	GapPrac	BigFlash	1	16	2	0	1	target	1	726	637	294022	13.328	9.181	17.965
ProbeTrack15	15	ProbeTrack	15.0	SCS215b	20120508.141819	20120508.142006	8	0.013328	60	10	60-180	60	142	GapPrac	BigFlash	1	17	2	30	0	distractor	1	454	773	294795	13.328	11.327	15.349
ProbeTrack15	15	ProbeTrack	15.0	SCS215b	20120508.141819	20120508.142012	8	0.013328	60	10	60-180	60	74	GapPrac	BigFlash	1	18	2	30	1	target	1	486	757	295552	13.328	12.947	13.715
ProbeTrack15	15	ProbeTrack	15.0	SCS215b	20120508.141819	20120508.142018	8	0.013328	60	10	60-180	60	69	GapPrac	BigFlash	1	19	2	3	1	target	1	436	782	296334	13.328	8.920	17.726
ProbeTrack15	15	ProbeTrack	15.0	SCS215b	20120508.141819	20120508.142023	8	0.013328	60	10	60-180	60	160	GapPrac	BigFlash	1	20	2	1	0	distractor	1	569	716	297050	13.328	6.818	19.845
ProbeTrack15	15	ProbeTrack	15.0	SCS215b	20120508.142043	20120508.142050	8	0.013328	60	10	60-180	60	142	GapExp	BigFlash	1	1	2	30	0	distractor	1	465	768	297818	13.373	5.971	20.670
ProbeTrack15	15	ProbeTrack	15.0	SCS215b	20120508.142043	20120508.142058	8	0.013328	60	10	60-180	60	86	GapExp	BigFlash	1	2	2	1	0	distractor	1	462	769	298587	13.328	10.380	16.297
ProbeTrack15	15	ProbeTrack	15.0	SCS215b	20120508.142043	20120508.142103	8	0.013328	60	10	60-180	60	65	GapExp	BigFlash	1	3	2	0	1	target	1	410	795	299382	13.328	10.038	16.606
ProbeTrack15	15	ProbeTrack	15.0	SCS215b	20120508.142043	20120508.142108	8	0.013328	60	10	60-180	60	153	GapExp	BigFlash	1	4	2	3	0	distractor	1	406	797	300179	13.328	8.230	18.420
ProbeTrack15	15	ProbeTrack	15.0	SCS215b	20120508.142043	20120508.142115	8	0.013328	60	10	60-180	60	106	GapExp	BigFlash	1	5	2	30	1	target	1	380	810	300989	13.328	11.572	15.069
ProbeTrack15	15	ProbeTrack	15.0	SCS215b	20120508.142043	20120508.142121	8	0.013328	60	10	60-180	60	79	GapExp	BigFlash	1	6	2	0	0	distractor	1	504	748	301737	13.328	7.394	19.266
ProbeTrack15	15	ProbeTrack	15.0	SCS215b	20120508.142043	20120508.142126	8	0.013328	60	10	60-180	60	155	GapExp	BigFlash	1	7	2	1	1	target	1	513	744	302481	13.328	9.107	17.557
ProbeTrack15	15	ProbeTrack	15.0	SCS215b	20120508.142043	20120508.142133	8	0.013328	60	10	60-180	60	88	GapExp	BigFlash	1	8	2	3	1	target	1	571	715	303196	13.328	10.087	16.575
ProbeTrack15	15	ProbeTrack	15.0	SCS215b	20120508.142043	20120508.142139	8	0.013328	60	10	60-180	60	119	GapExp	BigFlash	0	9	2	0	0	distractor	1	791	605	303801	13.328	4.185	22.479
ProbeTrack15	15	ProbeTrack	15.0	SCS215b	20120508.142043	20120508.142145	8	0.013328	60	10	60-180	60	162	GapExp	BigFlash	0	10	2	3	0	distractor	1	490	755	304556	13.328	6.531	20.127
ProbeTrack15	15	ProbeTrack	15.0	SCS215b	20120508.142043	20120508.142152	8	0.013328	60	10	60-180	60	132	GapExp	BigFlash	0	11	2	0	1	target	1	380	810	305366	13.328	12.964	13.693
ProbeTrack15	15	ProbeTrack	15.0	SCS215b	20120508.142043	20120508.142158	8	0.013328	60	10	60-180	60	140	GapExp	BigFlash	0	12	2	30	0	distractor	1	352	824	306190	13.328	10.072	16.596
ProbeTrack15	15	ProbeTrack	15.0	SCS215b	20120508.142043	20120508.142205	8	0.013328	60	10	60-180	60	61	GapExp	BigFlash	0	13	2	1	0	distractor	1	455	773	306963	13.328	13.304	13.359
ProbeTrack15	15	ProbeTrack	15.0	SCS215b	20120508.142043	20120508.142210	8	0.013328	60	10	60-180	60	115	GapExp	BigFlash	0	14	2	3	1	target	1	560	720	307683	13.328	9.350	17.289
ProbeTrack15	15	ProbeTrack	15.0	SCS215b	20120508.142043	20120508.142216	8	0.013328	60	10	60-180	60	168	GapExp	BigFlash	0	15	2	0	0	distractor	1	487	757	308440	13.328	12.286	14.379
ProbeTrack15	15	ProbeTrack	15.0	SCS215b	20120508.142043	20120508.142222	8	0.013328	60	10	60-180	60	83	GapExp	BigFlash	0	16	2	0	0	distractor	1	462	769	309209	13.328	3.303	23.349
ProbeTrack15	15	ProbeTrack	15.0	SCS215b	20120508.142043	20120508.142227	8	0.013328	60	10	60-180	60	163	GapExp	BigFlash	0	17	2	3	0	distractor	1	353	824	310033	13.328	10.518	16.130
ProbeTrack15	15	ProbeTrack	15.0	SCS215b	20120508.142043	20120508.142234	8	0.013328	60	10	60-180	60	105	GapExp	BigFlash	0	18	2	30	0	target	0	936	-1000	309033	13.329	8.178	18.468
ProbeTrack15	15	ProbeTrack	15.0	SCS215b	20120508.142043	20120508.142241	8	0.013328	60	10	60-180	60	145	GapExp	BigFlash	0	19	2	30	1	target	1	472	764	309797	13.328	7.155	19.503
ProbeTrack15	15	ProbeTrack	15.0	SCS215b	20120508.142043	20120508.142248	8	0.013328	60	10	60-180	60	165	GapExp	BigFlash	0	20	2	1	0	distractor	1	430	785	310582	13.328	10.659	15.809
ProbeTrack15	15	ProbeTrack	15.0	SCS215b	20120508.142043	20120508.142254	8	0.013328	60	10	60-180	60	138	GapExp	BigFlash	0	21	2	0	0	distractor	1	461	770	311352	13.328	13.290	13.360
ProbeTrack15	15	ProbeTrack	15.0	SCS215b	20120508.142043	20120508.142300	8	0.013328	60	10	60-180	60	172	GapExp	BigFlash	0	22	2	0	1	target	1	1232	384	311736	13.328	8.289	18.352
ProbeTrack15	15	ProbeTrack	15.0	SCS215b	20120508.142043	20120508.142307	8	0.013328	60	10	60-180	60	133	GapExp	BigFlash	0	23	2	3	0	distractor	1	418	791	312527	13.328	8.543	18.115
ProbeTrack15	15	ProbeTrack	15.0	SCS215b	20120508.142043	20120508.142314	8	0.013328	60	10	60-180	60	112	GapExp	BigFlash	0	24	2	0	0	distractor	1	776	612	313139	13.328	6.220	20.430
ProbeTrack15	15	ProbeTrack	15.0	SCS215b	20120508.142043	20120508.142320	8	0.013328	60	10	60-180	60	177	GapExp	BigFlash	0	25	2	1	1	distractor	0	393	-1000	312139	13.328	6.271	20.377
ProbeTrack15	15	ProbeTrack	15.0	SCS215b	20120508.142043	20120508.142326	8	0.013328	60	10	60-180	60	69	GapExp	BigFlash	0	26	2	3	1	target	1	438	781	312920	13.328	9.810	16.835
ProbeTrack15	15	ProbeTrack	15.0	SCS215b	20120508.142043	20120508.142332	8	0.013328	60	10	60-180	60	132	GapExp	BigFlash	0	27	2	0	1	target	1	498	751	313671	13.328	5.079	21.797
ProbeTrack15	15	ProbeTrack	15.0	SCS215b	20120508.142043	20120508.142338	8	0.013328	60	10	60-180	60	175	GapExp	BigFlash	0	28	2	30	1	target	1	484	758	314429	13.328	3.818	22.849
ProbeTrack15	15	ProbeTrack	15.0	SCS215b	20120508.142043	20120508.142345	8	0.013328	60	10	60-180	60	73	GapExp	BigFlash	0	29	2	0	0	distractor	1	651	675	315104	13.328	5.288	21.351
ProbeTrack15	15	ProbeTrack	15.0	SCS215b	20120508.142043	20120508.142351	8	0.013328	60	10	60-180	60	168	GapExp	BigFlash	0	30	2	1	0	distractor	1	494	753	315857	13.328	3.864	22.783
ProbeTrack15	15	ProbeTrack	15.0	SCS215b	20120508.142043	20120508.142357	8	0.013328	60	10	60-180	60	74	GapExp	BigFlash	0	31	2	1	1	target	1	393	804	316661	13.328	4.392	22.263
ProbeTrack15	15	ProbeTrack	15.0	SCS215b	20120508.142043	20120508.142402	8	0.013328	60	10	60-180	60	163	GapExp	BigFlash	0	32	2	1	0	distractor	1	473	764	317425	13.328	5.922	20.738
ProbeTrack15	15	ProbeTrack	15.0	SCS215b	20120508.142043	20120508.142409	8	0.013328	60	10	60-180	60	129	GapExp	BigFlash	0	33	2	30	0	distractor	1	399	801	318226	13.328	4.448	22.195
ProbeTrack15	15	ProbeTrack	15.0	SCS215b	20120508.142043	20120508.142416	8	0.013328	60	10	60-180	60	93	GapExp	BigFlash	0	34	2	0	1	target	1	355	823	319049	13.328	9.523	17.129
ProbeTrack15	15	ProbeTrack	15.0	SCS215b	20120508.142043	20120508.142421	8	0.013328	60	10	60-180	60	167	GapExp	BigFlash	0	35	2	0	1	target	1	449	776	319825	13.328	12.908	13.748
ProbeTrack15	15	ProbeTrack	15.0	SCS215b	20120508.142043	20120508.142428	8	0.013328	60	10	60-180	60	159	GapExp	BigFlash	0	36	2	1	0	distractor	1	447	777	320602	13.709	13.099	66.628
ProbeTrack15	15	ProbeTrack	15.0	SCS215b	20120508.142043	20120508.142434	8	0.013328	60	10	60-180	60	176	GapExp	BigFlash	0	37	2	1	1	distractor	0	738	-1000	319602	13.328	11.609	15.044
ProbeTrack15	15	ProbeTrack	15.0	SCS215b	20120508.142043	20120508.142441	8	0.013328	60	10	60-180	60	157	GapExp	BigFlash	0	38	2	3	1	target	1	398	801	320403	13.328	7.268	19.391
ProbeTrack15	15	ProbeTrack	15.0	SCS215b	20120508.142043	20120508.142448	8	0.013328	60	10	60-180	60	153	GapExp	BigFlash	0	39	2	30	0	distractor	1	948	526	320929	13.328	7.825	18.824
ProbeTrack15	15	ProbeTrack	15.0	SCS215b	20120508.142043	20120508.142455	8	0.013328	60	10	60-180	60	98	GapExp	BigFlash	0	40	2	1	0	target	0	372	-1000	319929	13.328	8.656	17.994
ProbeTrack15	15	ProbeTrack	15.0	SCS215b	20120508.142043	20120508.142501	8	0.013328	60	10	60-180	60	163	GapExp	BigFlash	0	41	2	3	0	distractor	1	507	747	320676	13.328	11.416	15.239
ProbeTrack15	15	ProbeTrack	15.0	SCS215b	20120508.142043	20120508.142507	8	0.013328	60	10	60-180	60	178	GapExp	BigFlash	0	42	2	3	1	target	1	485	758	321434	13.328	7.667	18.977
ProbeTrack15	15	ProbeTrack	15.0	SCS215b	20120508.142043	20120508.142514	8	0.013328	60	10	60-180	60	90	GapExp	BigFlash	0	43	2	30	1	target	1	464	768	322202	13.328	12.565	14.069
ProbeTrack15	15	ProbeTrack	15.0	SCS215b	20120508.142043	20120508.142520	8	0.013328	60	10	60-180	60	146	GapExp	BigFlash	0	44	2	0	0	distractor	1	489	756	322958	13.328	6.046	20.614
ProbeTrack15	15	ProbeTrack	15.0	SCS215b	20120508.142043	20120508.142527	8	0.013328	60	10	60-180	60	160	GapExp	BigFlash	0	45	2	1	0	distractor	1	423	789	323747	13.328	12.316	14.343
ProbeTrack15	15	ProbeTrack	15.0	SCS215b	20120508.142043	20120508.142534	8	0.013328	60	10	60-180	60	132	GapExp	BigFlash	0	46	2	3	1	target	1	494	753	324500	13.328	8.273	18.389
ProbeTrack15	15	ProbeTrack	15.0	SCS215b	20120508.142043	20120508.142540	8	0.013328	60	10	60-180	60	101	GapExp	BigFlash	0	47	2	0	1	target	1	440	780	325280	13.328	9.178	17.485
ProbeTrack15	15	ProbeTrack	15.0	SCS215b	20120508.142043	20120508.142546	8	0.013328	60	10	60-180	60	151	GapExp	BigFlash	0	48	2	30	0	distractor	1	483	759	326039	13.328	11.532	15.127
ProbeTrack15	15	ProbeTrack	15.0	SCS215b	20120508.142043	20120508.142553	8	0.013328	60	10	60-180	60	156	GapExp	BigFlash	0	49	2	1	1	target	1	478	761	326800	13.328	6.693	17.216
ProbeTrack15	15	ProbeTrack	15.0	SCS215b	20120508.142043	20120508.142559	8	0.013328	60	10	60-180	60	69	GapExp	BigFlash	0	50	2	3	1	target	1	499	751	327551	13.328	7.578	19.077
ProbeTrack15	15	ProbeTrack	15.0	SCS215b	20120508.142043	20120508.142605	8	0.013328	60	10	60-180	60	123	GapExp	BigFlash	0	51	2	3	1	target	1	324	838	328389	13.318	10.406	16.253
ProbeTrack15	15	ProbeTrack	15.0	SCS215b	20120508.142043	20120508.142614	8	0.013328	60	10	60-180	60	162	GapExp	BigFlash	0	52	2	3	0	distractor	1	444	778	329167	13.328	6.436	20.218
ProbeTrack15	15	ProbeTrack	15.0	SCS215b	20120508.142043	20120508.142620	8	0.013328	60	10	60-180	60	147	GapExp	BigFlash	0	53	2	3	0	target	0	409	-1000	328167	13.328	8.712	18.087
ProbeTrack15	15	ProbeTrack	15.0	SCS215b	20120508.142043	20120508.142627	8	0.013328	60	10	60-180	60	100	GapExp	BigFlash	0	54	2	1	0	distractor	1	463	769	328936	13.328	13.093	13.569
ProbeTrack15	15	ProbeTrack	15.0	SCS215b	20120508.142043	20120508.142633	8	0.013328	60	10	60-180	60	124	GapExp	BigFlash	0	55	2	30	1	target	1	509	746	329682	13.328	8.676	17.966
ProbeTrack15	15	ProbeTrack	15.0	SCS215b	20120508.142043	20120508.142639	8	0.013328	60	10	60-180	60	156	GapExp	BigFlash	0	56	2	30	0	distractor	1	500	750	330432	13.328	11.473	15.176
ProbeTrack15	15	ProbeTrack	15.0	SCS215b	20120508.142043	20120508.142646	8	0.013328	60	10	60-180	60	92	GapExp	BigFlash	0	57	2	30	0	distractor	1	579	711	331143	13.328	7.484	19.172
ProbeTrack15	15	ProbeTrack	15.0	SCS215b	20120508.142043	20120508.142653	8	0.013328	60	10	60-180	60	80	GapExp	BigFlash	0	58	2	0	0	distractor	1	656	672	331815	13.328	4.495	22.144
ProbeTrack15	15	ProbeTrack	15.0	SCS215b	20120508.142043	20120508.142659	8	0.013328	60	10	60-180	60	87	GapExp	BigFlash	0	59	2	30	0	distractor	1	537	732	332547	13.328	8.642	18.018
ProbeTrack15	15	ProbeTrack	15.0	SCS215b	20120508.142043	20120508.142704	8	0.013328	60	10	60-180	60	152	GapExp	BigFlash	0	60	2	0	0	target	0	605	-1000	331547	13.328	11.737	14.905
ProbeTrack15	15	ProbeTrack	15.0	SCS215b	20120508.142043	20120508.142711	8	0.013328	60	10	60-180	60	171	GapExp	BigFlash	0	61	2	1	0	distractor	1	461	770	332317	13.328	12.703	13.951
ProbeTrack15	15	ProbeTrack	15.0	SCS215b	20120508.142043	20120508.142718	8	0.013328	60	10	60-180	60	116	GapExp	BigFlash	0	62	2	3	0	distractor	1	514	743	333060	13.328	9.173	17.486
ProbeTrack15	15	ProbeTrack	15.0	SCS215b	20120508.142043	20120508.142724	8	0.013328	60	10	60-180	60	69	GapExp	BigFlash	0	63	2	0	0	distractor	1	427	787	333847	13.328	10.296	16.369
ProbeTrack15	15	ProbeTrack	15.0	SCS215b	20120508.142043	20120508.142729	8	0.013328	60	10	60-180	60	170	GapExp	BigFlash	0	64	2	1	0	distractor	1	418	791	334638	13.328	7.309	19.341
ProbeTrack15	15	ProbeTrack	15.0	SCS215b	20120508.142043	20120508.142737	8	0.013328	60	10	60-180	60	176	GapExp	BigFlash	0	65	2	1	0	distractor	1	472	764	335402	13.328	11.824	14.838
ProbeTrack15	15	ProbeTrack	15.0	SCS215b	20120508.142043	20120508.142744	8	0.013328	60	10	60-180	60	95	GapExp	BigFlash	0	66	2	3	0	distractor	1	399	801	336203	13.328	3.506	23.147
ProbeTrack15	15	ProbeTrack	15.0	SCS215b	20120508.142043	20120508.142749	8	0.013328	60	10	60-180	60	101	GapExp	BigFlash	0	67	2	1	0	distractor	1	444	778	336981	13.328	12.439	14.216
