exp	sub	code	rev	comp	runtime	trialtime	nstim	refreshdur	cuedur	gapdur	gapOnsetRange	durPostProbe	gapOnsetTime	blocktype	gaptype	prac	trial	ntargets	soa	probeTarget	resp	acc	rt	pts	tpts	meanFrameDur	minFrameDur	maxFrameDur
ProbeTrack15	6	ProbeTrack	15.0	SCS215b	20120207.121146	20120207.121204	8	0.013328	60	0	60-180	60	68	NoGap	None	1	1	2	1	0	distractor	1	968	516	516	13.394	12.593	14.059
ProbeTrack15	6	ProbeTrack	15.0	SCS215b	20120207.121146	20120207.121411	8	0.013328	60	0	60-180	60	97	NoGap	None	1	2	2	1	0	distractor	1	639	681	1197	13.328	12.078	14.600
ProbeTrack15	6	ProbeTrack	15.0	SCS215b	20120207.121146	20120207.121428	8	0.013328	60	0	60-180	60	160	NoGap	None	1	3	2	0	0	distractor	1	778	611	1808	13.328	13.127	13.535
ProbeTrack15	6	ProbeTrack	15.0	SCS215b	20120207.121146	20120207.121435	8	0.013328	60	0	60-180	60	166	NoGap	None	1	4	2	30	1	distractor	0	465	-1000	808	13.328	13.034	13.614
ProbeTrack15	6	ProbeTrack	15.0	SCS215b	20120207.121146	20120207.121444	8	0.013328	60	0	60-180	60	89	NoGap	None	1	5	2	3	1	target	1	577	712	1520	13.328	13.304	13.357
ProbeTrack15	6	ProbeTrack	15.0	SCS215b	20120207.121146	20120207.121451	8	0.013328	60	0	60-180	60	129	NoGap	None	1	6	2	1	1	distractor	0	550	-1000	520	13.328	4.275	22.375
ProbeTrack15	6	ProbeTrack	15.0	SCS215b	20120207.121146	20120207.121458	8	0.013328	60	0	60-180	60	86	NoGap	None	1	7	2	30	0	distractor	1	631	685	1205	13.328	13.015	13.648
ProbeTrack15	6	ProbeTrack	15.0	SCS215b	20120207.121146	20120207.121507	8	0.013328	60	0	60-180	60	155	NoGap	None	1	8	2	0	1	target	1	504	748	1953	13.328	13.107	13.556
ProbeTrack15	6	ProbeTrack	15.0	SCS215b	20120207.121146	20120207.121515	8	0.013328	60	0	60-180	60	154	NoGap	None	1	9	2	3	1	target	1	1046	477	2430	13.328	12.923	13.735
ProbeTrack15	6	ProbeTrack	15.0	SCS215b	20120207.121146	20120207.121523	8	0.013328	60	0	60-180	60	176	NoGap	None	1	10	2	30	1	distractor	0	567	-1000	1430	13.369	3.548	35.204
ProbeTrack15	6	ProbeTrack	15.0	SCS215b	20120207.121146	20120207.121531	8	0.013328	60	0	60-180	60	146	NoGap	None	1	11	2	1	0	distractor	1	635	683	2113	13.328	13.157	13.469
ProbeTrack15	6	ProbeTrack	15.0	SCS215b	20120207.121146	20120207.121538	8	0.013328	60	0	60-180	60	75	NoGap	None	1	12	2	30	0	distractor	1	1069	466	2579	13.328	12.942	13.708
ProbeTrack15	6	ProbeTrack	15.0	SCS215b	20120207.121146	20120207.121547	8	0.013328	60	0	60-180	60	167	NoGap	None	1	13	2	30	0	distractor	1	908	546	3125	13.328	11.980	14.735
ProbeTrack15	6	ProbeTrack	15.0	SCS215b	20120207.121146	20120207.121615	8	0.013328	60	0	60-180	60	110	NoGap	None	1	14	2	3	1	target	1	478	761	3886	13.328	12.768	13.906
ProbeTrack15	6	ProbeTrack	15.0	SCS215b	20120207.121146	20120207.121622	8	0.013328	60	0	60-180	60	114	NoGap	None	1	15	2	3	0	target	0	747	-1000	2886	13.328	4.467	22.195
ProbeTrack15	6	ProbeTrack	15.0	SCS215b	20120207.121146	20120207.121631	8	0.013328	60	0	60-180	60	146	NoGap	None	1	16	2	1	0	distractor	1	985	508	3394	13.328	8.892	17.770
ProbeTrack15	6	ProbeTrack	15.0	SCS215b	20120207.121146	20120207.121637	8	0.013328	60	0	60-180	60	154	NoGap	None	1	17	2	1	1	target	1	794	603	3997	13.328	12.841	13.768
ProbeTrack15	6	ProbeTrack	15.0	SCS215b	20120207.121146	20120207.121645	8	0.013328	60	0	60-180	60	148	NoGap	None	1	18	2	0	1	target	1	788	606	4603	13.328	13.060	13.631
ProbeTrack15	6	ProbeTrack	15.0	SCS215b	20120207.121146	20120207.121651	8	0.013328	60	0	60-180	60	164	NoGap	None	1	19	2	30	0	distractor	1	966	517	5120	13.328	13.104	13.564
ProbeTrack15	6	ProbeTrack	15.0	SCS215b	20120207.121146	20120207.121659	8	0.013328	60	0	60-180	60	173	NoGap	None	1	20	2	30	1	target	1	445	778	5898	13.328	11.369	15.289
ProbeTrack15	6	ProbeTrack	15.0	SCS215b	20120207.121146	20120207.121707	8	0.013328	60	0	60-180	60	102	NoGap	None	1	21	2	0	1	target	1	531	735	6633	13.328	12.974	13.685
ProbeTrack15	6	ProbeTrack	15.0	SCS215b	20120207.121146	20120207.121713	8	0.013328	60	0	60-180	60	122	NoGap	None	1	22	2	3	0	distractor	1	612	694	7327	13.328	13.094	13.557
ProbeTrack15	6	ProbeTrack	15.0	SCS215b	20120207.121146	20120207.121721	8	0.013328	60	0	60-180	60	128	NoGap	None	1	23	2	0	0	distractor	1	599	701	8028	13.328	13.112	13.558
ProbeTrack15	6	ProbeTrack	15.0	SCS215b	20120207.121146	20120207.121727	8	0.013328	60	0	60-180	60	62	NoGap	None	1	24	2	1	1	target	1	663	669	8697	13.328	13.094	13.547
ProbeTrack15	6	ProbeTrack	15.0	SCS215b	20120207.121146	20120207.121733	8	0.013328	60	0	60-180	60	108	NoGap	None	1	25	2	30	1	target	1	555	723	9420	13.380	9.270	26.043
ProbeTrack15	6	ProbeTrack	15.0	SCS215b	20120207.121146	20120207.121742	8	0.013328	60	0	60-180	60	174	NoGap	None	1	26	2	0	0	distractor	1	795	603	10023	13.328	13.093	13.546
ProbeTrack15	6	ProbeTrack	15.0	SCS215b	20120207.121146	20120207.121749	8	0.013328	60	0	60-180	60	119	NoGap	None	1	27	2	0	0	distractor	1	790	605	10628	13.328	13.095	13.560
ProbeTrack15	6	ProbeTrack	15.0	SCS215b	20120207.121146	20120207.121757	8	0.013328	60	0	60-180	60	151	NoGap	None	1	28	2	3	0	distractor	1	924	538	11166	13.328	13.100	13.554
ProbeTrack15	6	ProbeTrack	15.0	SCS215b	20120207.121146	20120207.121804	8	0.013328	60	0	60-180	60	115	NoGap	None	1	29	2	3	1	target	1	657	672	11838	13.328	7.908	18.753
ProbeTrack15	6	ProbeTrack	15.0	SCS215b	20120207.121146	20120207.121816	8	0.013328	60	0	60-180	60	70	NoGap	None	1	30	2	1	1	target	1	461	770	12608	13.328	12.725	13.924
ProbeTrack15	6	ProbeTrack	15.0	SCS215b	20120207.121146	20120207.121823	8	0.013328	60	0	60-180	60	119	NoGap	None	1	31	2	3	0	distractor	1	843	579	13187	13.328	10.178	16.480
ProbeTrack15	6	ProbeTrack	15.0	SCS215b	20120207.121146	20120207.121831	8	0.013328	60	0	60-180	60	102	NoGap	None	1	32	2	0	1	target	1	634	683	13870	13.328	13.111	13.541
ProbeTrack15	6	ProbeTrack	15.0	SCS215b	20120207.121146	20120207.121837	8	0.013328	60	0	60-180	60	158	NoGap	None	1	33	2	30	0	distractor	1	476	762	14632	13.328	12.926	13.714
ProbeTrack15	6	ProbeTrack	15.0	SCS215b	20120207.121146	20120207.121845	8	0.013328	60	0	60-180	60	116	NoGap	None	1	34	2	3	0	distractor	1	639	681	15313	13.328	13.272	13.382
ProbeTrack15	6	ProbeTrack	15.0	SCS215b	20120207.121146	20120207.121851	8	0.013328	60	0	60-180	60	118	NoGap	None	1	35	2	1	0	distractor	1	534	733	16046	13.328	13.099	13.537
ProbeTrack15	6	ProbeTrack	15.0	SCS215b	20120207.121146	20120207.121858	8	0.013328	60	0	60-180	60	180	NoGap	None	1	36	2	1	1	target	1	694	653	16699	13.328	7.878	18.783
ProbeTrack15	6	ProbeTrack	15.0	SCS215b	20120207.121146	20120207.121906	8	0.013328	60	0	60-180	60	91	NoGap	None	1	37	2	0	0	distractor	1	700	650	17349	13.328	13.272	13.386
ProbeTrack15	6	ProbeTrack	15.0	SCS215b	20120207.121146	20120207.121914	8	0.013328	60	0	60-180	60	96	NoGap	None	1	38	2	30	1	target	1	588	706	18055	13.328	13.271	13.378
ProbeTrack15	6	ProbeTrack	15.0	SCS215b	20120207.121146	20120207.121921	8	0.013328	60	0	60-180	60	78	NoGap	None	1	39	2	0	1	target	1	711	645	18700	13.328	13.267	13.389
ProbeTrack15	6	ProbeTrack	15.0	SCS215b	20120207.121146	20120207.121927	8	0.013328	60	0	60-180	60	157	NoGap	None	1	40	2	3	1	target	1	425	788	19488	13.328	10.507	16.155
ProbeTrack15	6	ProbeTrack	15.0	SCS215b	20120207.122030	20120207.122042	8	0.013328	60	10	60-180	60	111	GapPrac	SmallFlash	1	1	2	3	0	distractor	1	828	586	20074	13.379	13.097	13.557
ProbeTrack15	6	ProbeTrack	15.0	SCS215b	20120207.122030	20120207.122050	8	0.013328	60	10	60-180	60	108	GapPrac	SmallFlash	1	2	2	30	1	target	1	641	680	20754	13.328	13.096	13.546
ProbeTrack15	6	ProbeTrack	15.0	SCS215b	20120207.122030	20120207.122058	8	0.013328	60	10	60-180	60	163	GapPrac	SmallFlash	1	3	2	3	1	distractor	0	414	-1000	19754	13.328	8.112	18.530
ProbeTrack15	6	ProbeTrack	15.0	SCS215b	20120207.122030	20120207.122105	8	0.013328	60	10	60-180	60	116	GapPrac	SmallFlash	1	4	2	1	1	distractor	0	846	-1000	18754	13.328	4.631	22.018
ProbeTrack15	6	ProbeTrack	15.0	SCS215b	20120207.122030	20120207.122112	8	0.013328	60	10	60-180	60	134	GapPrac	SmallFlash	1	5	2	30	1	target	1	628	686	19440	13.328	13.100	13.557
ProbeTrack15	6	ProbeTrack	15.0	SCS215b	20120207.122030	20120207.122120	8	0.013328	60	10	60-180	60	166	GapPrac	SmallFlash	1	6	2	3	1	target	1	483	759	20199	13.328	7.400	19.272
ProbeTrack15	6	ProbeTrack	15.0	SCS215b	20120207.122030	20120207.122129	8	0.013328	60	10	60-180	60	106	GapPrac	SmallFlash	1	7	2	0	1	target	1	413	794	20993	13.328	3.938	22.705
ProbeTrack15	6	ProbeTrack	15.0	SCS215b	20120207.122030	20120207.122135	8	0.013328	60	10	60-180	60	119	GapPrac	SmallFlash	1	8	2	3	1	target	1	533	734	21727	13.328	13.204	13.455
ProbeTrack15	6	ProbeTrack	15.0	SCS215b	20120207.122030	20120207.122141	8	0.013328	60	10	60-180	60	124	GapPrac	SmallFlash	1	9	2	0	1	target	1	327	837	22564	13.328	12.959	13.688
ProbeTrack15	6	ProbeTrack	15.0	SCS215b	20120207.122030	20120207.122148	8	0.013328	60	10	60-180	60	115	GapPrac	SmallFlash	1	10	2	30	0	target	0	550	-1000	21564	13.328	6.380	20.269
ProbeTrack15	6	ProbeTrack	15.0	SCS215b	20120207.122030	20120207.122155	8	0.013328	60	10	60-180	60	162	GapPrac	SmallFlash	1	11	2	30	0	distractor	1	886	557	22121	13.328	13.133	13.515
ProbeTrack15	6	ProbeTrack	15.0	SCS215b	20120207.122030	20120207.122204	8	0.013328	60	10	60-180	60	163	GapPrac	SmallFlash	1	12	2	3	0	distractor	1	653	674	22795	13.328	7.360	19.309
ProbeTrack15	6	ProbeTrack	15.0	SCS215b	20120207.122030	20120207.122211	8	0.013328	60	10	60-180	60	178	GapPrac	SmallFlash	1	13	2	1	1	target	1	671	665	23460	13.370	3.407	26.912
ProbeTrack15	6	ProbeTrack	15.0	SCS215b	20120207.122030	20120207.122219	8	0.013328	60	10	60-180	60	179	GapPrac	SmallFlash	1	14	2	0	0	distractor	1	565	718	24178	13.328	12.020	14.647
ProbeTrack15	6	ProbeTrack	15.0	SCS215b	20120207.122030	20120207.122226	8	0.013328	60	10	60-180	60	145	GapPrac	SmallFlash	1	15	2	1	0	distractor	1	816	592	24770	13.329	12.298	14.423
ProbeTrack15	6	ProbeTrack	15.0	SCS215b	20120207.122030	20120207.122232	8	0.013328	60	10	60-180	60	143	GapPrac	SmallFlash	1	16	2	0	0	distractor	1	761	620	25390	13.328	9.093	17.548
ProbeTrack15	6	ProbeTrack	15.0	SCS215b	20120207.122030	20120207.122239	8	0.013328	60	10	60-180	60	148	GapPrac	SmallFlash	1	17	2	1	0	distractor	1	611	695	26085	13.328	3.505	23.150
ProbeTrack15	6	ProbeTrack	15.0	SCS215b	20120207.122030	20120207.122247	8	0.013328	60	10	60-180	60	77	GapPrac	SmallFlash	1	18	2	1	1	target	1	611	695	26780	13.328	11.011	15.649
ProbeTrack15	6	ProbeTrack	15.0	SCS215b	20120207.122030	20120207.122255	8	0.013328	60	10	60-180	60	161	GapPrac	SmallFlash	1	19	2	3	0	distractor	1	543	729	27509	13.328	11.031	15.616
ProbeTrack15	6	ProbeTrack	15.0	SCS215b	20120207.122030	20120207.122302	8	0.013328	60	10	60-180	60	167	GapPrac	SmallFlash	1	20	2	30	1	target	1	836	582	28091	13.328	11.962	14.695
ProbeTrack15	6	ProbeTrack	15.0	SCS215b	20120207.122336	20120207.122342	8	0.013328	60	10	60-180	60	146	GapExp	SmallFlash	1	1	2	0	1	target	1	609	696	28787	13.376	13.167	13.512
ProbeTrack15	6	ProbeTrack	15.0	SCS215b	20120207.122336	20120207.122350	8	0.013328	60	10	60-180	60	175	GapExp	SmallFlash	1	2	2	0	0	distractor	1	598	701	29488	13.328	13.021	13.651
ProbeTrack15	6	ProbeTrack	15.0	SCS215b	20120207.122336	20120207.122358	8	0.013328	60	10	60-180	60	117	GapExp	SmallFlash	1	3	2	1	0	distractor	1	617	692	30180	13.328	12.904	13.759
ProbeTrack15	6	ProbeTrack	15.0	SCS215b	20120207.122336	20120207.122404	8	0.013328	60	10	60-180	60	80	GapExp	SmallFlash	1	4	2	3	0	distractor	1	408	796	30976	13.328	12.876	13.796
ProbeTrack15	6	ProbeTrack	15.0	SCS215b	20120207.122336	20120207.122413	8	0.013328	60	10	60-180	60	126	GapExp	SmallFlash	1	5	2	1	1	target	1	525	738	31714	13.328	12.872	13.785
ProbeTrack15	6	ProbeTrack	15.0	SCS215b	20120207.122336	20120207.122420	8	0.013328	60	10	60-180	60	174	GapExp	SmallFlash	1	6	2	30	1	target	1	512	744	32458	13.328	12.857	13.802
ProbeTrack15	6	ProbeTrack	15.0	SCS215b	20120207.122336	20120207.122428	8	0.013328	60	10	60-180	60	142	GapExp	SmallFlash	1	7	2	3	1	distractor	0	477	-1000	31458	13.328	12.858	13.829
ProbeTrack15	6	ProbeTrack	15.0	SCS215b	20120207.122336	20120207.122434	8	0.013328	60	10	60-180	60	76	GapExp	SmallFlash	1	8	2	30	0	distractor	1	804	598	32056	13.328	12.956	13.677
ProbeTrack15	6	ProbeTrack	15.0	SCS215b	20120207.122336	20120207.122441	8	0.013328	60	10	60-180	60	91	GapExp	SmallFlash	0	9	2	1	1	target	1	580	710	32766	13.328	12.884	13.798
ProbeTrack15	6	ProbeTrack	15.0	SCS215b	20120207.122336	20120207.122447	8	0.013328	60	10	60-180	60	179	GapExp	SmallFlash	0	10	2	0	0	distractor	1	502	749	33515	13.328	12.857	13.792
ProbeTrack15	6	ProbeTrack	15.0	SCS215b	20120207.122336	20120207.122455	8	0.013328	60	10	60-180	60	105	GapExp	SmallFlash	0	11	2	0	0	distractor	1	1045	478	33993	13.328	12.881	13.795
ProbeTrack15	6	ProbeTrack	15.0	SCS215b	20120207.122336	20120207.122502	8	0.013328	60	10	60-180	60	156	GapExp	SmallFlash	0	12	2	0	0	distractor	1	1130	435	34428	13.328	12.832	13.820
ProbeTrack15	6	ProbeTrack	15.0	SCS215b	20120207.122336	20120207.122511	8	0.013328	60	10	60-180	60	100	GapExp	SmallFlash	0	13	2	3	0	target	0	418	-1000	33428	13.328	12.851	13.815
ProbeTrack15	6	ProbeTrack	15.0	SCS215b	20120207.122336	20120207.122518	8	0.013328	60	10	60-180	60	175	GapExp	SmallFlash	0	14	2	30	1	target	1	537	732	34160	13.328	12.851	13.811
ProbeTrack15	6	ProbeTrack	15.0	SCS215b	20120207.122336	20120207.122526	8	0.013328	60	10	60-180	60	68	GapExp	SmallFlash	0	15	2	30	0	distractor	1	612	694	34854	13.328	12.985	13.684
ProbeTrack15	6	ProbeTrack	15.0	SCS215b	20120207.122336	20120207.122533	8	0.013328	60	10	60-180	60	96	GapExp	SmallFlash	0	16	2	1	1	target	1	505	748	35602	13.328	12.988	13.790
ProbeTrack15	6	ProbeTrack	15.0	SCS215b	20120207.122336	20120207.122539	8	0.013328	60	10	60-180	60	121	GapExp	SmallFlash	0	17	2	30	0	distractor	1	742	629	36231	13.328	12.913	13.761
ProbeTrack15	6	ProbeTrack	15.0	SCS215b	20120207.122336	20120207.122547	8	0.013328	60	10	60-180	60	144	GapExp	SmallFlash	0	18	2	1	0	distractor	1	462	769	37000	13.328	12.871	13.782
ProbeTrack15	6	ProbeTrack	15.0	SCS215b	20120207.122336	20120207.122555	8	0.013328	60	10	60-180	60	99	GapExp	SmallFlash	0	19	2	30	1	target	1	705	648	37648	13.328	12.858	13.796
ProbeTrack15	6	ProbeTrack	15.0	SCS215b	20120207.122336	20120207.122603	8	0.013328	60	10	60-180	60	80	GapExp	SmallFlash	0	20	2	3	0	distractor	1	488	756	38404	13.328	13.299	13.350
ProbeTrack15	6	ProbeTrack	15.0	SCS215b	20120207.122336	20120207.122609	8	0.013328	60	10	60-180	60	114	GapExp	SmallFlash	0	21	2	3	1	target	1	550	725	39129	13.328	13.304	13.354
ProbeTrack15	6	ProbeTrack	15.0	SCS215b	20120207.122336	20120207.122617	8	0.013328	60	10	60-180	60	87	GapExp	SmallFlash	0	22	2	3	1	target	1	601	700	39829	13.328	12.854	13.791
ProbeTrack15	6	ProbeTrack	15.0	SCS215b	20120207.122336	20120207.122623	8	0.013328	60	10	60-180	60	165	GapExp	SmallFlash	0	23	2	1	0	distractor	1	634	683	40512	13.328	13.035	13.615
ProbeTrack15	6	ProbeTrack	15.0	SCS215b	20120207.122336	20120207.122630	8	0.013328	60	10	60-180	60	105	GapExp	SmallFlash	0	24	2	0	1	target	1	466	767	41279	13.328	12.872	13.775
ProbeTrack15	6	ProbeTrack	15.0	SCS215b	20120207.122336	20120207.122637	8	0.013328	60	10	60-180	60	176	GapExp	SmallFlash	0	25	2	3	0	distractor	1	358	821	42100	13.328	12.899	13.764
ProbeTrack15	6	ProbeTrack	15.0	SCS215b	20120207.122336	20120207.122644	8	0.013328	60	10	60-180	60	102	GapExp	SmallFlash	0	26	2	1	0	distractor	1	614	693	42793	13.328	13.100	13.553
ProbeTrack15	6	ProbeTrack	15.0	SCS215b	20120207.122336	20120207.122651	8	0.013328	60	10	60-180	60	164	GapExp	SmallFlash	0	27	2	3	0	distractor	1	427	787	43580	13.328	13.303	13.353
ProbeTrack15	6	ProbeTrack	15.0	SCS215b	20120207.122336	20120207.122658	8	0.013328	60	10	60-180	60	118	GapExp	SmallFlash	0	28	2	1	1	target	1	635	683	44263	13.328	12.857	13.812
ProbeTrack15	6	ProbeTrack	15.0	SCS215b	20120207.122336	20120207.122705	8	0.013328	60	10	60-180	60	104	GapExp	SmallFlash	0	29	2	3	0	distractor	1	406	797	45060	13.328	13.063	13.600
ProbeTrack15	6	ProbeTrack	15.0	SCS215b	20120207.122336	20120207.122713	8	0.013328	60	10	60-180	60	102	GapExp	SmallFlash	0	30	2	1	1	target	1	366	817	45877	13.328	12.942	13.738
ProbeTrack15	6	ProbeTrack	15.0	SCS215b	20120207.122336	20120207.122720	8	0.013328	60	10	60-180	60	158	GapExp	SmallFlash	0	31	2	3	0	distractor	1	450	775	46652	13.328	12.858	13.789
ProbeTrack15	6	ProbeTrack	15.0	SCS215b	20120207.122336	20120207.122727	8	0.013328	60	10	60-180	60	61	GapExp	SmallFlash	0	32	2	0	1	target	1	522	739	47391	13.328	13.247	13.402
ProbeTrack15	6	ProbeTrack	15.0	SCS215b	20120207.122336	20120207.122734	8	0.013328	60	10	60-180	60	122	GapExp	SmallFlash	0	33	2	3	0	distractor	1	589	706	48097	13.328	12.893	13.763
ProbeTrack15	6	ProbeTrack	15.0	SCS215b	20120207.122336	20120207.122742	8	0.013328	60	10	60-180	60	149	GapExp	SmallFlash	0	34	2	3	0	distractor	1	450	775	48872	13.328	13.156	13.503
ProbeTrack15	6	ProbeTrack	15.0	SCS215b	20120207.122336	20120207.122749	8	0.013328	60	10	60-180	60	62	GapExp	SmallFlash	0	35	2	0	1	target	1	515	743	49615	13.328	13.287	13.367
ProbeTrack15	6	ProbeTrack	15.0	SCS215b	20120207.122336	20120207.122755	8	0.013328	60	10	60-180	60	106	GapExp	SmallFlash	0	36	2	30	0	distractor	1	338	831	50446	13.328	13.296	13.353
ProbeTrack15	6	ProbeTrack	15.0	SCS215b	20120207.122336	20120207.122802	8	0.013328	60	10	60-180	60	169	GapExp	SmallFlash	0	37	2	30	1	target	1	382	809	51255	13.328	12.857	13.804
ProbeTrack15	6	ProbeTrack	15.0	SCS215b	20120207.122336	20120207.122809	8	0.013328	60	10	60-180	60	99	GapExp	SmallFlash	0	38	2	3	0	distractor	1	480	760	52015	13.328	13.305	13.351
ProbeTrack15	6	ProbeTrack	15.0	SCS215b	20120207.122336	20120207.122816	8	0.013328	60	10	60-180	60	125	GapExp	SmallFlash	0	39	2	3	1	distractor	0	406	-1000	51015	13.328	12.839	13.806
ProbeTrack15	6	ProbeTrack	15.0	SCS215b	20120207.122336	20120207.122824	8	0.013328	60	10	60-180	60	113	GapExp	SmallFlash	0	40	2	30	0	distractor	1	559	721	51736	13.328	13.043	13.637
ProbeTrack15	6	ProbeTrack	15.0	SCS215b	20120207.122336	20120207.122831	8	0.013328	60	10	60-180	60	155	GapExp	SmallFlash	0	41	2	30	0	distractor	1	682	659	52395	13.328	13.091	13.562
ProbeTrack15	6	ProbeTrack	15.0	SCS215b	20120207.122336	20120207.122839	8	0.013328	60	10	60-180	60	142	GapExp	SmallFlash	0	42	2	30	0	distractor	1	627	687	53082	13.328	12.840	13.821
ProbeTrack15	6	ProbeTrack	15.0	SCS215b	20120207.122336	20120207.122847	8	0.013328	60	10	60-180	60	128	GapExp	SmallFlash	0	43	2	0	1	target	1	585	708	53790	13.328	12.965	13.683
ProbeTrack15	6	ProbeTrack	15.0	SCS215b	20120207.122336	20120207.122857	8	0.013328	60	10	60-180	60	109	GapExp	SmallFlash	0	44	2	1	1	target	1	381	810	54600	13.328	12.878	13.785
ProbeTrack15	6	ProbeTrack	15.0	SCS215b	20120207.122336	20120207.122904	8	0.013328	60	10	60-180	60	113	GapExp	SmallFlash	0	45	2	3	1	target	1	386	807	55407	13.328	13.059	13.607
ProbeTrack15	6	ProbeTrack	15.0	SCS215b	20120207.122336	20120207.122910	8	0.013328	60	10	60-180	60	110	GapExp	SmallFlash	0	46	2	0	1	target	1	440	780	56187	13.328	13.302	13.360
ProbeTrack15	6	ProbeTrack	15.0	SCS215b	20120207.122336	20120207.122916	8	0.013328	60	10	60-180	60	77	GapExp	SmallFlash	0	47	2	0	1	target	1	345	828	57015	13.328	13.307	13.350
ProbeTrack15	6	ProbeTrack	15.0	SCS215b	20120207.122336	20120207.122922	8	0.013328	60	10	60-180	60	167	GapExp	SmallFlash	0	48	2	1	1	target	1	588	706	57721	13.602	12.851	79.940
ProbeTrack15	6	ProbeTrack	15.0	SCS215b	20120207.122336	20120207.122929	8	0.013328	60	10	60-180	60	102	GapExp	SmallFlash	0	49	2	0	0	distractor	1	668	666	58387	13.328	13.076	13.569
ProbeTrack15	6	ProbeTrack	15.0	SCS215b	20120207.122336	20120207.122936	8	0.013328	60	10	60-180	60	123	GapExp	SmallFlash	0	50	2	3	0	distractor	1	523	739	59126	13.328	13.265	13.379
ProbeTrack15	6	ProbeTrack	15.0	SCS215b	20120207.122336	20120207.122946	8	0.013328	60	10	60-180	60	130	GapExp	SmallFlash	0	51	2	0	1	target	1	600	700	59826	13.328	13.162	13.503
ProbeTrack15	6	ProbeTrack	15.0	SCS215b	20120207.122336	20120207.123001	8	0.013328	60	10	60-180	60	144	GapExp	SmallFlash	0	52	2	30	0	distractor	1	645	678	60504	13.328	13.076	13.578
ProbeTrack15	6	ProbeTrack	15.0	SCS215b	20120207.122336	20120207.123008	8	0.013328	60	10	60-180	60	95	GapExp	SmallFlash	0	53	2	0	0	distractor	1	517	742	61246	13.388	13.080	26.977
ProbeTrack15	6	ProbeTrack	15.0	SCS215b	20120207.122336	20120207.123015	8	0.013328	60	10	60-180	60	157	GapExp	SmallFlash	0	54	2	0	0	target	0	766	-1000	60246	13.328	13.106	13.552
ProbeTrack15	6	ProbeTrack	15.0	SCS215b	20120207.122336	20120207.123022	8	0.013328	60	10	60-180	60	141	GapExp	SmallFlash	0	55	2	3	0	distractor	1	563	719	60965	13.328	13.082	13.570
ProbeTrack15	6	ProbeTrack	15.0	SCS215b	20120207.122336	20120207.123033	8	0.013328	60	10	60-180	60	69	GapExp	SmallFlash	0	56	2	0	0	distractor	1	668	666	61631	13.328	13.090	13.571
ProbeTrack15	6	ProbeTrack	15.0	SCS215b	20120207.122336	20120207.123045	8	0.013328	60	10	60-180	60	76	GapExp	SmallFlash	0	57	2	0	1	target	1	395	803	62434	13.328	13.135	13.510
ProbeTrack15	6	ProbeTrack	15.0	SCS215b	20120207.122336	20120207.123056	8	0.013328	60	10	60-180	60	96	GapExp	SmallFlash	0	58	2	30	0	distractor	1	575	713	63147	13.328	13.267	13.385
ProbeTrack15	6	ProbeTrack	15.0	SCS215b	20120207.122336	20120207.123103	8	0.013328	60	10	60-180	60	74	GapExp	SmallFlash	0	59	2	0	0	distractor	1	643	679	63826	13.328	13.070	13.579
ProbeTrack15	6	ProbeTrack	15.0	SCS215b	20120207.122336	20120207.123115	8	0.013328	60	10	60-180	60	85	GapExp	SmallFlash	0	60	2	30	1	target	1	507	747	64573	13.328	13.291	13.358
ProbeTrack15	6	ProbeTrack	15.0	SCS215b	20120207.122336	20120207.123122	8	0.013328	60	10	60-180	60	128	GapExp	SmallFlash	0	61	2	3	1	target	1	445	778	65351	13.328	13.093	13.585
ProbeTrack15	6	ProbeTrack	15.0	SCS215b	20120207.122336	20120207.123138	8	0.013328	60	10	60-180	60	98	GapExp	SmallFlash	0	62	2	30	1	target	1	533	734	66085	13.328	13.067	13.605
ProbeTrack15	6	ProbeTrack	15.0	SCS215b	20120207.122336	20120207.123145	8	0.013328	60	10	60-180	60	75	GapExp	SmallFlash	0	63	2	0	0	distractor	1	633	684	66769	13.328	13.227	13.438
ProbeTrack15	6	ProbeTrack	15.0	SCS215b	20120207.122336	20120207.123150	8	0.013328	60	10	60-180	60	148	GapExp	SmallFlash	0	64	2	0	0	distractor	1	403	799	67568	13.328	13.115	13.560
ProbeTrack15	6	ProbeTrack	15.0	SCS215b	20120207.122336	20120207.123157	8	0.013328	60	10	60-180	60	156	GapExp	SmallFlash	0	65	2	3	1	target	1	429	786	68354	13.328	13.114	13.544
ProbeTrack15	6	ProbeTrack	15.0	SCS215b	20120207.122336	20120207.123204	8	0.013328	60	10	60-180	60	163	GapExp	SmallFlash	0	66	2	3	1	target	1	393	804	69158	13.328	13.098	13.514
ProbeTrack15	6	ProbeTrack	15.0	SCS215b	20120207.122336	20120207.123212	8	0.013328	60	10	60-180	60	164	GapExp	SmallFlash	0	67	2	3	1	target	1	371	815	69973	13.328	13.225	13.435
ProbeTrack15	6	ProbeTrack	15.0	SCS215b	20120207.122336	20120207.123218	8	0.013328	60	10	60-180	60	155	GapExp	SmallFlash	0	68	2	0	0	distractor	1	533	734	70707	13.328	13.110	13.541
ProbeTrack15	6	ProbeTrack	15.0	SCS215b	20120207.122336	20120207.123225	8	0.013328	60	10	60-180	60	88	GapExp	SmallFlash	0	69	2	0	1	target	1	458	771	71478	13.328	13.098	13.556
ProbeTrack15	6	ProbeTrack	15.0	SCS215b	20120207.122336	20120207.123231	8	0.013328	60	10	60-180	60	109	GapExp	SmallFlash	0	70	2	1	1	target	1	645	678	72156	13.328	13.238	13.431
ProbeTrack15	6	ProbeTrack	15.0	SCS215b	20120207.122336	20120207.123240	8	0.013328	60	10	60-180	60	102	GapExp	SmallFlash	0	71	2	0	0	target	0	632	-1000	71156	13.328	13.277	13.390
ProbeTrack15	6	ProbeTrack	15.0	SCS215b	20120207.122336	20120207.123301	8	0.013328	60	10	60-180	60	179	GapExp	SmallFlash	0	72	2	0	0	distractor	1	571	715	71871	13.328	13.065	13.598
ProbeTrack15	6	ProbeTrack	15.0	SCS215b	20120207.122336	20120207.123309	8	0.013328	60	10	60-180	60	76	GapExp	SmallFlash	0	73	2	3	0	distractor	1	682	659	72530	13.328	13.103	13.554
ProbeTrack15	6	ProbeTrack	15.0	SCS215b	20120207.122336	20120207.123318	8	0.013328	60	10	60-180	60	148	GapExp	SmallFlash	0	74	2	30	1	target	1	904	548	73078	13.327	13.098	13.557
ProbeTrack15	6	ProbeTrack	15.0	SCS215b	20120207.122336	20120207.123326	8	0.013328	60	10	60-180	60	137	GapExp	SmallFlash	0	75	2	3	0	distractor	1	503	749	73827	13.328	13.102	13.568
ProbeTrack15	6	ProbeTrack	15.0	SCS215b	20120207.122336	20120207.123334	8	0.013328	60	10	60-180	60	179	GapExp	SmallFlash	0	76	2	3	1	target	1	509	746	74573	13.328	13.095	13.556
ProbeTrack15	6	ProbeTrack	15.0	SCS215b	20120207.122336	20120207.123343	8	0.013328	60	10	60-180	60	107	GapExp	SmallFlash	0	77	2	1	0	distractor	1	751	625	75198	13.328	13.115	13.548
ProbeTrack15	6	ProbeTrack	15.0	SCS215b	20120207.122336	20120207.123351	8	0.013328	60	10	60-180	60	76	GapExp	SmallFlash	0	78	2	30	1	target	1	472	764	75962	13.328	13.181	13.483
ProbeTrack15	6	ProbeTrack	15.0	SCS215b	20120207.122336	20120207.123357	8	0.013328	60	10	60-180	60	110	GapExp	SmallFlash	0	79	2	3	0	distractor	1	432	784	76746	13.328	13.102	13.561
ProbeTrack15	6	ProbeTrack	15.0	SCS215b	20120207.122336	20120207.123403	8	0.013328	60	10	60-180	60	80	GapExp	SmallFlash	0	80	2	3	1	target	1	523	739	77485	13.328	13.087	13.559
ProbeTrack15	6	ProbeTrack	15.0	SCS215b	20120207.122336	20120207.123411	8	0.013328	60	10	60-180	60	93	GapExp	SmallFlash	0	81	2	30	1	target	1	377	812	78297	13.328	13.286	13.381
ProbeTrack15	6	ProbeTrack	15.0	SCS215b	20120207.122336	20120207.123427	8	0.013328	60	10	60-180	60	71	GapExp	SmallFlash	0	82	2	3	0	distractor	1	503	749	79046	13.328	13.098	13.560
ProbeTrack15	6	ProbeTrack	15.0	SCS215b	20120207.122336	20120207.123433	8	0.013328	60	10	60-180	60	83	GapExp	SmallFlash	0	83	2	30	1	target	1	648	676	79722	13.328	13.095	13.564
ProbeTrack15	6	ProbeTrack	15.0	SCS215b	20120207.122336	20120207.123440	8	0.013328	60	10	60-180	60	87	GapExp	SmallFlash	0	84	2	0	1	target	1	512	744	80466	13.328	13.230	13.420
ProbeTrack15	6	ProbeTrack	15.0	SCS215b	20120207.122336	20120207.123449	8	0.013328	60	10	60-180	60	89	GapExp	SmallFlash	0	85	2	30	0	distractor	1	574	713	81179	13.328	13.108	13.561
ProbeTrack15	6	ProbeTrack	15.0	SCS215b	20120207.122336	20120207.123457	8	0.013328	60	10	60-180	60	105	GapExp	SmallFlash	0	86	2	3	0	distractor	1	676	662	81841	13.328	13.155	13.519
ProbeTrack15	6	ProbeTrack	15.0	SCS215b	20120207.122336	20120207.123503	8	0.013328	60	10	60-180	60	170	GapExp	SmallFlash	0	87	2	1	1	target	1	606	697	82538	13.328	13.098	13.558
ProbeTrack15	6	ProbeTrack	15.0	SCS215b	20120207.122336	20120207.123511	8	0.013328	60	10	60-180	60	151	GapExp	SmallFlash	0	88	2	30	0	distractor	1	626	687	83225	13.328	13.111	13.543
ProbeTrack15	6	ProbeTrack	15.0	SCS215b	20120207.122336	20120207.123529	8	0.013328	60	10	60-180	60	173	GapExp	SmallFlash	0	89	2	1	1	target	1	401	800	84025	13.328	13.097	13.557
ProbeTrack15	6	ProbeTrack	15.0	SCS215b	20120207.122336	20120207.123539	8	0.013328	60	10	60-180	60	138	GapExp	SmallFlash	0	90	2	3	1	target	1	462	769	84794	13.328	13.136	13.558
ProbeTrack15	6	ProbeTrack	15.0	SCS215b	20120207.122336	20120207.123550	8	0.013328	60	10	60-180	60	83	GapExp	SmallFlash	0	91	2	1	0	distractor	1	655	673	85467	13.328	13.075	13.587
ProbeTrack15	6	ProbeTrack	15.0	SCS215b	20120207.122336	20120207.123556	8	0.013328	60	10	60-180	60	175	GapExp	SmallFlash	0	92	2	0	0	distractor	1	719	641	86108	13.328	13.170	13.513
ProbeTrack15	6	ProbeTrack	15.0	SCS215b	20120207.122336	20120207.123605	8	0.013328	60	10	60-180	60	104	GapExp	SmallFlash	0	93	2	0	1	target	1	603	699	86807	13.328	13.162	13.535
ProbeTrack15	6	ProbeTrack	15.0	SCS215b	20120207.122336	20120207.123618	8	0.013328	60	10	60-180	60	87	GapExp	SmallFlash	0	94	2	30	1	target	1	521	740	87547	13.328	13.075	13.607
ProbeTrack15	6	ProbeTrack	15.0	SCS215b	20120207.122336	20120207.123625	8	0.013328	60	10	60-180	60	123	GapExp	SmallFlash	0	95	2	1	0	distractor	1	351	825	88372	13.328	13.105	13.557
ProbeTrack15	6	ProbeTrack	15.0	SCS215b	20120207.122336	20120207.123632	8	0.013328	60	10	60-180	60	102	GapExp	SmallFlash	0	96	2	1	0	distractor	1	437	782	89154	13.328	13.299	13.353
ProbeTrack15	6	ProbeTrack	15.0	SCS215b	20120207.122336	20120207.123639	8	0.013328	60	10	60-180	60	138	GapExp	SmallFlash	0	97	2	0	1	target	1	336	832	89986	13.328	13.053	13.591
ProbeTrack15	6	ProbeTrack	15.0	SCS215b	20120207.122336	20120207.123645	8	0.013328	60	10	60-180	60	162	GapExp	SmallFlash	0	98	2	3	0	distractor	1	257	872	90858	13.328	13.097	13.557
ProbeTrack15	6	ProbeTrack	15.0	SCS215b	20120207.122336	20120207.123656	8	0.013328	60	10	60-180	60	159	GapExp	SmallFlash	0	99	2	0	1	distractor	0	292	-1000	89858	13.328	13.105	13.566
ProbeTrack15	6	ProbeTrack	15.0	SCS215b	20120207.122336	20120207.123705	8	0.013328	60	10	60-180	60	107	GapExp	SmallFlash	0	100	2	0	1	target	1	542	729	90587	13.328	13.142	13.511
ProbeTrack15	6	ProbeTrack	15.0	SCS215b	20120207.122336	20120207.123713	8	0.013328	60	10	60-180	60	175	GapExp	SmallFlash	0	101	2	3	1	target	1	373	814	91401	13.328	13.093	13.562
ProbeTrack15	6	ProbeTrack	15.0	SCS215b	20120207.122336	20120207.123738	8	0.013328	60	10	60-180	60	79	GapExp	SmallFlash	0	102	2	1	0	distractor	1	470	765	92166	13.328	13.100	13.565
ProbeTrack15	6	ProbeTrack	15.0	SCS215b	20120207.122336	20120207.123745	8	0.013328	60	10	60-180	60	82	GapExp	SmallFlash	0	103	2	0	1	target	1	395	803	92969	13.328	13.109	13.562
ProbeTrack15	6	ProbeTrack	15.0	SCS215b	20120207.122336	20120207.123752	8	0.013328	60	10	60-180	60	93	GapExp	SmallFlash	0	104	2	1	1	target	1	396	802	93771	13.328	13.200	13.472
ProbeTrack15	6	ProbeTrack	15.0	SCS215b	20120207.122336	20120207.123759	8	0.013328	60	10	60-180	60	104	GapExp	SmallFlash	0	105	2	1	0	target	0	412	-1000	92771	13.328	13.100	13.694
ProbeTrack15	6	ProbeTrack	15.0	SCS215b	20120207.122336	20120207.123807	8	0.013328	60	10	60-180	60	176	GapExp	SmallFlash	0	106	2	1	1	target	1	425	788	93559	13.328	13.086	13.575
ProbeTrack15	6	ProbeTrack	15.0	SCS215b	20120207.122336	20120207.123816	8	0.013328	60	10	60-180	60	169	GapExp	SmallFlash	0	107	2	0	0	distractor	1	441	780	94339	13.328	13.116	13.543
ProbeTrack15	6	ProbeTrack	15.0	SCS215b	20120207.122336	20120207.123824	8	0.013328	60	10	60-180	60	168	GapExp	SmallFlash	0	108	2	1	0	distractor	1	503	749	95088	13.328	13.293	13.376
ProbeTrack15	6	ProbeTrack	15.0	SCS215b	20120207.122336	20120207.123831	8	0.013328	60	10	60-180	60	127	GapExp	SmallFlash	0	109	2	1	1	target	1	367	817	95905	13.328	13.281	13.368
ProbeTrack15	6	ProbeTrack	15.0	SCS215b	20120207.122336	20120207.123837	8	0.013328	60	10	60-180	60	75	GapExp	SmallFlash	0	110	2	1	0	distractor	1	480	760	96665	13.328	13.215	13.452
ProbeTrack15	6	ProbeTrack	15.0	SCS215b	20120207.122336	20120207.123843	8	0.013328	60	10	60-180	60	82	GapExp	SmallFlash	0	111	2	30	0	distractor	1	352	824	97489	13.328	13.085	13.573
ProbeTrack15	6	ProbeTrack	15.0	SCS215b	20120207.122336	20120207.123852	8	0.013328	60	10	60-180	60	111	GapExp	SmallFlash	0	112	2	0	0	distractor	1	602	699	98188	13.328	13.120	13.524
ProbeTrack15	6	ProbeTrack	15.0	SCS215b	20120207.122336	20120207.123900	8	0.013328	60	10	60-180	60	173	GapExp	SmallFlash	0	113	2	1	0	distractor	1	396	802	98990	13.328	13.083	13.563
ProbeTrack15	6	ProbeTrack	15.0	SCS215b	20120207.122336	20120207.123907	8	0.013328	60	10	60-180	60	77	GapExp	SmallFlash	0	114	2	1	1	distractor	0	741	-1000	97990	13.328	13.303	13.356
ProbeTrack15	6	ProbeTrack	15.0	SCS215b	20120207.122336	20120207.123915	8	0.013328	60	10	60-180	60	131	GapExp	SmallFlash	0	115	2	30	1	target	1	456	772	98762	13.328	13.113	13.558
ProbeTrack15	6	ProbeTrack	15.0	SCS215b	20120207.122336	20120207.123923	8	0.013328	60	10	60-180	60	145	GapExp	SmallFlash	0	116	2	30	1	target	1	410	795	99557	13.328	13.094	13.555
ProbeTrack15	6	ProbeTrack	15.0	SCS215b	20120207.122336	20120207.123931	8	0.013328	60	10	60-180	60	143	GapExp	SmallFlash	0	117	2	30	0	distractor	1	558	721	100278	13.328	13.101	13.552
ProbeTrack15	6	ProbeTrack	15.0	SCS215b	20120207.122336	20120207.123938	8	0.013328	60	10	60-180	60	172	GapExp	SmallFlash	0	118	2	3	0	distractor	1	545	728	101006	13.328	13.147	13.528
ProbeTrack15	6	ProbeTrack	15.0	SCS215b	20120207.122336	20120207.123945	8	0.013328	60	10	60-180	60	159	GapExp	SmallFlash	0	119	2	1	0	distractor	1	685	658	101664	13.328	13.094	13.560
ProbeTrack15	6	ProbeTrack	15.0	SCS215b	20120207.122336	20120207.123954	8	0.013328	60	10	60-180	60	138	GapExp	SmallFlash	0	120	2	30	1	target	1	600	700	102364	13.328	12.954	13.576
ProbeTrack15	6	ProbeTrack	15.0	SCS215b	20120207.122336	20120207.124001	8	0.013328	60	10	60-180	60	133	GapExp	SmallFlash	0	121	2	1	0	distractor	1	670	665	103029	13.328	13.100	13.559
ProbeTrack15	6	ProbeTrack	15.0	SCS215b	20120207.122336	20120207.124008	8	0.013328	60	10	60-180	60	68	GapExp	SmallFlash	0	122	2	3	0	distractor	1	542	729	103758	13.328	13.166	13.539
ProbeTrack15	6	ProbeTrack	15.0	SCS215b	20120207.122336	20120207.124014	8	0.013328	60	10	60-180	60	61	GapExp	SmallFlash	0	123	2	0	0	distractor	1	584	708	104466	13.328	13.086	13.591
ProbeTrack15	6	ProbeTrack	15.0	SCS215b	20120207.122336	20120207.124020	8	0.013328	60	10	60-180	60	99	GapExp	SmallFlash	0	124	2	1	1	target	1	463	769	105235	13.328	13.061	13.545
ProbeTrack15	6	ProbeTrack	15.0	SCS215b	20120207.122336	20120207.124027	8	0.013328	60	10	60-180	60	140	GapExp	SmallFlash	0	125	2	1	0	distractor	1	579	711	105946	13.328	13.090	13.551
ProbeTrack15	6	ProbeTrack	15.0	SCS215b	20120207.122336	20120207.124035	8	0.013328	60	10	60-180	60	97	GapExp	SmallFlash	0	126	2	3	0	distractor	1	448	776	106722	13.328	13.101	13.556
ProbeTrack15	6	ProbeTrack	15.0	SCS215b	20120207.122336	20120207.124041	8	0.013328	60	10	60-180	60	177	GapExp	SmallFlash	0	127	2	30	0	distractor	1	519	741	107463	13.328	13.097	13.571
ProbeTrack15	6	ProbeTrack	15.0	SCS215b	20120207.122336	20120207.124049	8	0.013328	60	10	60-180	60	174	GapExp	SmallFlash	0	128	2	30	1	target	1	423	789	108252	13.328	13.114	13.563
ProbeTrack15	6	ProbeTrack	15.0	SCS215b	20120207.122336	20120207.124057	8	0.013328	60	10	60-180	60	93	GapExp	SmallFlash	0	129	2	1	1	target	1	415	793	109045	13.328	13.097	13.569
ProbeTrack15	6	ProbeTrack	15.0	SCS215b	20120207.122336	20120207.124103	8	0.013328	60	10	60-180	60	82	GapExp	SmallFlash	0	130	2	30	1	target	1	350	825	109870	13.328	13.094	13.553
ProbeTrack15	6	ProbeTrack	15.0	SCS215b	20120207.122336	20120207.124110	8	0.013328	60	10	60-180	60	171	GapExp	SmallFlash	0	131	2	3	1	target	1	409	796	110666	13.328	13.098	13.557
ProbeTrack15	6	ProbeTrack	15.0	SCS215b	20120207.122336	20120207.124117	8	0.013328	60	10	60-180	60	139	GapExp	SmallFlash	0	132	2	30	0	distractor	1	436	782	111448	13.328	13.083	13.579
ProbeTrack15	6	ProbeTrack	15.0	SCS215b	20120207.122336	20120207.124128	8	0.013328	60	10	60-180	60	116	GapExp	SmallFlash	0	133	2	30	0	distractor	1	814	593	112041	13.374	13.159	26.736
ProbeTrack15	6	ProbeTrack	15.0	SCS215b	20120207.122336	20120207.124137	8	0.013328	60	10	60-180	60	105	GapExp	SmallFlash	0	134	2	30	1	target	1	368	816	112857	13.328	13.100	13.545
ProbeTrack15	6	ProbeTrack	15.0	SCS215b	20120207.122336	20120207.124143	8	0.013328	60	10	60-180	60	130	GapExp	SmallFlash	0	135	2	3	1	target	1	524	738	113595	13.328	13.094	13.564
ProbeTrack15	6	ProbeTrack	15.0	SCS215b	20120207.122336	20120207.124150	8	0.013328	60	10	60-180	60	122	GapExp	SmallFlash	0	136	2	3	1	target	1	330	835	114430	13.328	13.253	13.404
ProbeTrack15	6	ProbeTrack	15.0	SCS215b	20120207.122336	20120207.124156	8	0.013328	60	10	60-180	60	73	GapExp	SmallFlash	0	137	2	3	1	target	1	407	797	115227	13.328	13.093	13.567
ProbeTrack15	6	ProbeTrack	15.0	SCS215b	20120207.122336	20120207.124202	8	0.013328	60	10	60-180	60	91	GapExp	SmallFlash	0	138	2	0	1	target	1	472	764	115991	13.328	13.160	13.504
ProbeTrack15	6	ProbeTrack	15.0	SCS215b	20120207.122336	20120207.124208	8	0.013328	60	10	60-180	60	83	GapExp	SmallFlash	0	139	2	3	1	target	1	314	843	116834	13.328	13.121	13.523
ProbeTrack15	6	ProbeTrack	15.0	SCS215b	20120207.122336	20120207.124214	8	0.013328	60	10	60-180	60	102	GapExp	SmallFlash	0	140	2	0	1	target	1	415	793	117627	13.328	13.106	13.573
ProbeTrack15	6	ProbeTrack	15.0	SCS215b	20120207.122336	20120207.124221	8	0.013328	60	10	60-180	60	103	GapExp	SmallFlash	0	141	2	0	0	distractor	1	412	794	118421	13.328	13.119	13.546
ProbeTrack15	6	ProbeTrack	15.0	SCS215b	20120207.122336	20120207.124227	8	0.013328	60	10	60-180	60	141	GapExp	SmallFlash	0	142	2	3	1	target	1	371	815	119236	13.328	13.110	13.552
ProbeTrack15	6	ProbeTrack	15.0	SCS215b	20120207.122336	20120207.124233	8	0.013328	60	10	60-180	60	67	GapExp	SmallFlash	0	143	2	0	0	distractor	1	575	713	119949	13.328	13.261	13.428
ProbeTrack15	6	ProbeTrack	15.0	SCS215b	20120207.122336	20120207.124239	8	0.013328	60	10	60-180	60	146	GapExp	SmallFlash	0	144	2	0	0	distractor	1	437	782	120731	13.328	13.095	13.560
ProbeTrack15	6	ProbeTrack	15.0	SCS215b	20120207.122336	20120207.124246	8	0.013328	60	10	60-180	60	61	GapExp	SmallFlash	0	145	2	1	1	target	1	445	778	121509	13.328	13.277	13.393
ProbeTrack15	6	ProbeTrack	15.0	SCS215b	20120207.122336	20120207.124251	8	0.013328	60	10	60-180	60	79	GapExp	SmallFlash	0	146	2	1	1	target	1	356	822	122331	13.328	13.255	13.396
ProbeTrack15	6	ProbeTrack	15.0	SCS215b	20120207.122336	20120207.124257	8	0.013328	60	10	60-180	60	67	GapExp	SmallFlash	0	147	2	1	0	distractor	1	585	708	123039	13.328	13.154	13.540
ProbeTrack15	6	ProbeTrack	15.0	SCS215b	20120207.122336	20120207.124302	8	0.013328	60	10	60-180	60	102	GapExp	SmallFlash	0	148	2	3	1	target	1	320	840	123879	13.328	13.091	13.526
ProbeTrack15	6	ProbeTrack	15.0	SCS215b	20120207.122336	20120207.124308	8	0.013328	60	10	60-180	60	81	GapExp	SmallFlash	0	149	2	1	0	distractor	1	466	767	124646	13.328	13.182	13.568
ProbeTrack15	6	ProbeTrack	15.0	SCS215b	20120207.122336	20120207.124314	8	0.013328	60	10	60-180	60	68	GapExp	SmallFlash	0	150	2	0	1	target	1	362	819	125465	13.328	13.106	13.582
ProbeTrack15	6	ProbeTrack	15.0	SCS215b	20120207.122336	20120207.124320	8	0.013328	60	10	60-180	60	167	GapExp	SmallFlash	0	151	2	1	0	distractor	1	781	610	126075	13.328	13.086	13.572
ProbeTrack15	6	ProbeTrack	15.0	SCS215b	20120207.122336	20120207.124327	8	0.013328	60	10	60-180	60	101	GapExp	SmallFlash	0	152	2	3	1	target	1	346	827	126902	13.328	13.102	13.602
ProbeTrack15	6	ProbeTrack	15.0	SCS215b	20120207.122336	20120207.124333	8	0.013328	60	10	60-180	60	108	GapExp	SmallFlash	0	153	2	1	0	distractor	1	487	757	127659	13.328	13.262	13.405
ProbeTrack15	6	ProbeTrack	15.0	SCS215b	20120207.122336	20120207.124339	8	0.013328	60	10	60-180	60	178	GapExp	SmallFlash	0	154	2	0	0	target	0	34521	-1000	126659	13.328	13.084	13.564
ProbeTrack15	6	ProbeTrack	15.0	SCS215b	20120207.122336	20120207.124422	8	0.013328	60	10	60-180	60	168	GapExp	SmallFlash	0	155	2	0	1	target	1	587	707	127366	13.328	13.113	13.537
ProbeTrack15	6	ProbeTrack	15.0	SCS215b	20120207.122336	20120207.124438	8	0.013328	60	10	60-180	60	68	GapExp	SmallFlash	0	156	2	30	0	distractor	1	594	703	128069	13.328	13.116	13.545
ProbeTrack15	6	ProbeTrack	15.0	SCS215b	20120207.122336	20120207.124443	8	0.013328	60	10	60-180	60	75	GapExp	SmallFlash	0	157	2	3	1	target	1	545	728	128797	13.328	13.293	13.366
ProbeTrack15	6	ProbeTrack	15.0	SCS215b	20120207.122336	20120207.124449	8	0.013328	60	10	60-180	60	135	GapExp	SmallFlash	0	158	2	1	0	distractor	1	668	666	129463	13.328	13.097	13.575
ProbeTrack15	6	ProbeTrack	15.0	SCS215b	20120207.122336	20120207.124456	8	0.013328	60	10	60-180	60	143	GapExp	SmallFlash	0	159	2	30	1	target	1	562	719	130182	13.328	13.273	13.396
ProbeTrack15	6	ProbeTrack	15.0	SCS215b	20120207.122336	20120207.124505	8	0.013328	60	10	60-180	60	63	GapExp	SmallFlash	0	160	2	30	0	distractor	1	547	727	130909	13.328	13.261	13.394
ProbeTrack15	6	ProbeTrack	15.0	SCS215b	20120207.122336	20120207.124510	8	0.013328	60	10	60-180	60	62	GapExp	SmallFlash	0	161	2	30	0	distractor	1	563	719	131628	13.328	13.289	13.375
ProbeTrack15	6	ProbeTrack	15.0	SCS215b	20120207.122336	20120207.124516	8	0.013328	60	10	60-180	60	62	GapExp	SmallFlash	0	162	2	0	1	target	1	525	738	132366	13.328	13.107	13.544
ProbeTrack15	6	ProbeTrack	15.0	SCS215b	20120207.122336	20120207.124522	8	0.013328	60	10	60-180	60	135	GapExp	SmallFlash	0	163	2	30	0	distractor	1	571	715	133081	13.328	13.074	13.586
ProbeTrack15	6	ProbeTrack	15.0	SCS215b	20120207.122336	20120207.124529	8	0.013328	60	10	60-180	60	99	GapExp	SmallFlash	0	164	2	3	0	target	0	598	-1000	132081	13.385	13.085	26.928
ProbeTrack15	6	ProbeTrack	15.0	SCS215b	20120207.122336	20120207.124536	8	0.013328	60	10	60-180	60	129	GapExp	SmallFlash	0	165	2	0	0	distractor	1	662	669	132750	13.328	13.062	13.586
ProbeTrack15	6	ProbeTrack	15.0	SCS215b	20120207.122336	20120207.124543	8	0.013328	60	10	60-180	60	164	GapExp	SmallFlash	0	166	2	0	1	target	1	530	735	133485	13.328	13.109	13.539
ProbeTrack15	6	ProbeTrack	15.0	SCS215b	20120207.122336	20120207.124550	8	0.013328	60	10	60-180	60	97	GapExp	SmallFlash	0	167	2	1	0	distractor	1	739	631	134116	13.328	13.090	13.559
ProbeTrack15	6	ProbeTrack	15.0	SCS215b	20120207.122336	20120207.124558	8	0.013328	60	10	60-180	60	136	GapExp	SmallFlash	0	168	2	30	1	target	1	511	745	134861	13.328	13.218	13.434
ProbeTrack15	6	ProbeTrack	15.0	SCS215b	20120207.122336	20120207.124605	8	0.013328	60	10	60-180	60	63	GapExp	SmallFlash	0	169	2	3	0	distractor	1	686	657	135518	13.328	13.114	13.548
ProbeTrack15	6	ProbeTrack	15.0	SCS215b	20120207.122336	20120207.124611	8	0.013328	60	10	60-180	60	99	GapExp	SmallFlash	0	170	2	3	1	target	1	543	729	136247	13.328	13.091	13.567
ProbeTrack15	6	ProbeTrack	15.0	SCS215b	20120207.122336	20120207.124617	8	0.013328	60	10	60-180	60	146	GapExp	SmallFlash	0	171	2	3	0	distractor	1	494	753	137000	13.328	13.290	13.368
ProbeTrack15	6	ProbeTrack	15.0	SCS215b	20120207.122336	20120207.124623	8	0.013328	60	10	60-180	60	95	GapExp	SmallFlash	0	172	2	30	1	target	1	664	668	137668	13.328	13.113	13.534
ProbeTrack15	6	ProbeTrack	15.0	SCS215b	20120207.122336	20120207.124629	8	0.013328	60	10	60-180	60	123	GapExp	SmallFlash	0	173	2	30	1	target	1	405	798	138466	13.328	13.184	13.536
ProbeTrack15	6	ProbeTrack	15.0	SCS215b	20120207.122336	20120207.124636	8	0.013328	60	10	60-180	60	123	GapExp	SmallFlash	0	174	2	0	1	target	1	429	786	139252	13.328	13.242	13.416
ProbeTrack15	6	ProbeTrack	15.0	SCS215b	20120207.122336	20120207.124642	8	0.013328	60	10	60-180	60	173	GapExp	SmallFlash	0	175	2	1	1	target	1	476	762	140014	13.373	13.100	26.881
ProbeTrack15	6	ProbeTrack	15.0	SCS215b	20120207.122336	20120207.124649	8	0.013328	60	10	60-180	60	129	GapExp	SmallFlash	0	176	2	1	1	target	1	377	812	140826	13.328	13.124	13.539
ProbeTrack15	6	ProbeTrack	15.0	SCS215b	20120207.122336	20120207.124656	8	0.013328	60	10	60-180	60	65	GapExp	SmallFlash	0	177	2	1	1	target	1	329	836	141662	13.327	13.110	13.383
ProbeTrack15	6	ProbeTrack	15.0	SCS215b	20120207.122336	20120207.124701	8	0.013328	60	10	60-180	60	161	GapExp	SmallFlash	0	178	2	1	0	distractor	1	402	799	142461	13.328	13.092	13.562
ProbeTrack15	6	ProbeTrack	15.0	SCS215b	20120207.122336	20120207.124708	8	0.013328	60	10	60-180	60	126	GapExp	SmallFlash	0	179	2	1	1	target	1	505	748	143209	13.328	13.123	13.582
ProbeTrack15	6	ProbeTrack	15.0	SCS215b	20120207.122336	20120207.124715	8	0.013328	60	10	60-180	60	167	GapExp	SmallFlash	0	180	2	1	0	distractor	1	682	659	143868	13.328	13.111	13.546
ProbeTrack15	6	ProbeTrack	15.0	SCS215b	20120207.122336	20120207.124722	8	0.013328	60	10	60-180	60	164	GapExp	SmallFlash	0	181	2	30	1	distractor	0	512	-1000	142868	13.328	13.093	13.573
ProbeTrack15	6	ProbeTrack	15.0	SCS215b	20120207.122336	20120207.124729	8	0.013328	60	10	60-180	60	175	GapExp	SmallFlash	0	182	2	1	1	target	1	454	773	143641	13.328	13.081	13.571
ProbeTrack15	6	ProbeTrack	15.0	SCS215b	20120207.122336	20120207.124736	8	0.013328	60	10	60-180	60	180	GapExp	SmallFlash	0	183	2	0	0	distractor	1	503	749	144390	13.328	13.087	13.548
ProbeTrack15	6	ProbeTrack	15.0	SCS215b	20120207.122336	20120207.124744	8	0.013328	60	10	60-180	60	180	GapExp	SmallFlash	0	184	2	0	0	distractor	1	675	663	145053	13.328	13.253	13.405
ProbeTrack15	6	ProbeTrack	15.0	SCS215b	20120207.122336	20120207.124751	8	0.013328	60	10	60-180	60	74	GapExp	SmallFlash	0	185	2	1	0	distractor	1	508	746	145799	13.328	13.087	13.579
ProbeTrack15	6	ProbeTrack	15.0	SCS215b	20120207.122336	20120207.124757	8	0.013328	60	10	60-180	60	64	GapExp	SmallFlash	0	186	2	3	0	distractor	1	613	694	146493	13.328	13.107	13.566
ProbeTrack15	6	ProbeTrack	15.0	SCS215b	20120207.122336	20120207.124803	8	0.013328	60	10	60-180	60	74	GapExp	SmallFlash	0	187	2	30	1	target	1	617	692	147185	13.328	13.114	13.536
ProbeTrack15	6	ProbeTrack	15.0	SCS215b	20120207.122336	20120207.124809	8	0.013328	60	10	60-180	60	115	GapExp	SmallFlash	0	188	2	1	1	target	1	377	812	147997	13.328	13.077	13.579
ProbeTrack15	6	ProbeTrack	15.0	SCS215b	20120207.122336	20120207.124815	8	0.013328	60	10	60-180	60	76	GapExp	SmallFlash	0	189	2	3	1	target	1	371	815	148812	13.328	13.217	13.452
ProbeTrack15	6	ProbeTrack	15.0	SCS215b	20120207.122336	20120207.124820	8	0.013328	60	10	60-180	60	103	GapExp	SmallFlash	0	190	2	3	1	target	1	424	788	149600	13.328	13.250	13.406
ProbeTrack15	6	ProbeTrack	15.0	SCS215b	20120207.122336	20120207.124826	8	0.013328	60	10	60-180	60	61	GapExp	SmallFlash	0	191	2	0	1	target	1	379	811	150411	13.328	13.108	13.548
ProbeTrack15	6	ProbeTrack	15.0	SCS215b	20120207.122336	20120207.124832	8	0.013328	60	10	60-180	60	154	GapExp	SmallFlash	0	192	2	1	1	target	1	441	780	151191	13.328	13.113	13.543
ProbeTrack15	6	ProbeTrack	15.0	SCS215b	20120207.122336	20120207.124839	8	0.013328	60	10	60-180	60	145	GapExp	SmallFlash	0	193	2	30	1	target	1	441	780	151971	13.328	13.092	13.492
ProbeTrack15	6	ProbeTrack	15.0	SCS215b	20120207.122336	20120207.124848	8	0.013328	60	10	60-180	60	105	GapExp	SmallFlash	0	194	2	30	0	distractor	1	550	725	152696	13.328	13.095	13.573
ProbeTrack15	6	ProbeTrack	15.0	SCS215b	20120207.122336	20120207.124854	8	0.013328	60	10	60-180	60	175	GapExp	SmallFlash	0	195	2	30	1	target	1	453	774	153470	13.328	13.131	13.536
ProbeTrack15	6	ProbeTrack	15.0	SCS215b	20120207.122336	20120207.124901	8	0.013328	60	10	60-180	60	65	GapExp	SmallFlash	0	196	2	30	0	distractor	1	687	657	154127	13.328	13.092	13.584
ProbeTrack15	6	ProbeTrack	15.0	SCS215b	20120207.122336	20120207.124907	8	0.013328	60	10	60-180	60	117	GapExp	SmallFlash	0	197	2	30	0	distractor	1	527	737	154864	13.328	13.112	13.543
ProbeTrack15	6	ProbeTrack	15.0	SCS215b	20120207.122336	20120207.124914	8	0.013328	60	10	60-180	60	151	GapExp	SmallFlash	0	198	2	30	0	distractor	1	590	705	155569	13.328	13.092	13.562
ProbeTrack15	6	ProbeTrack	15.0	SCS215b	20120207.122336	20120207.124922	8	0.013328	60	10	60-180	60	124	GapExp	SmallFlash	0	199	2	0	1	target	1	379	811	156380	13.328	13.091	13.562
ProbeTrack15	6	ProbeTrack	15.0	SCS215b	20120207.122336	20120207.124928	8	0.013328	60	10	60-180	60	109	GapExp	SmallFlash	0	200	2	30	0	distractor	1	434	783	157163	13.328	13.155	13.559
ProbeTrack15	6	ProbeTrack	15.0	SCS215b	20120207.125029	20120207.125035	8	0.013328	60	10	60-180	60	124	GapPrac	Blank	1	1	2	30	1	distractor	0	788	-1000	156163	13.373	12.828	13.819
ProbeTrack15	6	ProbeTrack	15.0	SCS215b	20120207.125029	20120207.125043	8	0.013328	60	10	60-180	60	148	GapPrac	Blank	1	2	2	3	0	distractor	1	764	618	156781	13.328	12.897	13.761
ProbeTrack15	6	ProbeTrack	15.0	SCS215b	20120207.125029	20120207.125059	8	0.013328	60	10	60-180	60	145	GapPrac	Blank	1	3	2	1	0	target	0	812	-1000	155781	13.328	12.909	13.739
ProbeTrack15	6	ProbeTrack	15.0	SCS215b	20120207.125029	20120207.125106	8	0.013328	60	10	60-180	60	102	GapPrac	Blank	1	4	2	30	0	distractor	1	1413	294	156075	13.328	13.016	13.656
ProbeTrack15	6	ProbeTrack	15.0	SCS215b	20120207.125029	20120207.125114	8	0.013328	60	10	60-180	60	99	GapPrac	Blank	1	5	2	3	0	distractor	1	1354	323	156398	13.328	12.910	13.749
ProbeTrack15	6	ProbeTrack	15.0	SCS215b	20120207.125029	20120207.125122	8	0.013328	60	10	60-180	60	90	GapPrac	Blank	1	6	2	0	0	distractor	1	813	594	156992	13.328	12.918	13.749
ProbeTrack15	6	ProbeTrack	15.0	SCS215b	20120207.125029	20120207.125127	8	0.013328	60	10	60-180	60	171	GapPrac	Blank	1	7	2	3	1	target	1	704	648	157640	13.328	12.834	13.812
ProbeTrack15	6	ProbeTrack	15.0	SCS215b	20120207.125029	20120207.125138	8	0.013328	60	10	60-180	60	140	GapPrac	Blank	1	8	2	30	0	distractor	1	750	625	158265	13.328	12.862	13.814
ProbeTrack15	6	ProbeTrack	15.0	SCS215b	20120207.125029	20120207.125145	8	0.013328	60	10	60-180	60	78	GapPrac	Blank	1	9	2	1	0	distractor	1	695	653	158918	13.328	13.022	13.635
ProbeTrack15	6	ProbeTrack	15.0	SCS215b	20120207.125029	20120207.125151	8	0.013328	60	10	60-180	60	110	GapPrac	Blank	1	10	2	1	1	target	1	869	566	159484	13.328	13.249	13.404
ProbeTrack15	6	ProbeTrack	15.0	SCS215b	20120207.125029	20120207.125157	8	0.013328	60	10	60-180	60	65	GapPrac	Blank	1	11	2	3	0	distractor	1	666	667	160151	13.328	13.296	13.360
ProbeTrack15	6	ProbeTrack	15.0	SCS215b	20120207.125029	20120207.125203	8	0.013328	60	10	60-180	60	149	GapPrac	Blank	1	12	2	0	1	target	1	1069	466	160617	13.328	13.289	13.363
ProbeTrack15	6	ProbeTrack	15.0	SCS215b	20120207.125029	20120207.125211	8	0.013328	60	10	60-180	60	98	GapPrac	Blank	1	13	2	30	1	target	1	725	638	161255	13.328	12.843	13.823
ProbeTrack15	6	ProbeTrack	15.0	SCS215b	20120207.125029	20120207.125218	8	0.013328	60	10	60-180	60	172	GapPrac	Blank	1	14	2	0	1	distractor	0	715	-1000	160255	13.328	12.861	13.824
ProbeTrack15	6	ProbeTrack	15.0	SCS215b	20120207.125029	20120207.125226	8	0.013328	60	10	60-180	60	111	GapPrac	Blank	1	15	2	0	0	target	0	761	-1000	159255	13.328	13.075	13.576
ProbeTrack15	6	ProbeTrack	15.0	SCS215b	20120207.125029	20120207.125233	8	0.013328	60	10	60-180	60	86	GapPrac	Blank	1	16	2	1	0	distractor	1	1011	495	159750	13.328	13.041	13.602
ProbeTrack15	6	ProbeTrack	15.0	SCS215b	20120207.125029	20120207.125239	8	0.013328	60	10	60-180	60	148	GapPrac	Blank	1	17	2	30	0	distractor	1	805	598	160348	13.328	12.873	13.781
ProbeTrack15	6	ProbeTrack	15.0	SCS215b	20120207.125029	20120207.125247	8	0.013328	60	10	60-180	60	91	GapPrac	Blank	1	18	2	1	1	distractor	0	670	-1000	159348	13.328	13.232	13.424
ProbeTrack15	6	ProbeTrack	15.0	SCS215b	20120207.125029	20120207.125254	8	0.013328	60	10	60-180	60	133	GapPrac	Blank	1	19	2	3	1	target	1	696	652	160000	13.328	13.134	13.507
ProbeTrack15	6	ProbeTrack	15.0	SCS215b	20120207.125029	20120207.125300	8	0.013328	60	10	60-180	60	79	GapPrac	Blank	1	20	2	30	1	target	1	509	746	160746	13.328	12.912	13.765
ProbeTrack15	6	ProbeTrack	15.0	SCS215b	20120207.125407	20120207.125412	8	0.013327	60	10	60-180	60	106	GapExp	Blank	1	1	2	3	0	distractor	1	1090	455	161201	13.380	12.853	13.817
ProbeTrack15	6	ProbeTrack	15.0	SCS215b	20120207.125407	20120207.125421	8	0.013327	60	10	60-180	60	128	GapExp	Blank	1	2	2	1	0	distractor	1	1140	430	161631	13.328	13.087	13.560
ProbeTrack15	6	ProbeTrack	15.0	SCS215b	20120207.125407	20120207.125429	8	0.013327	60	10	60-180	60	171	GapExp	Blank	1	3	2	0	1	distractor	0	621	-1000	160631	13.328	13.093	13.570
ProbeTrack15	6	ProbeTrack	15.0	SCS215b	20120207.125407	20120207.125437	8	0.013327	60	10	60-180	60	166	GapExp	Blank	1	4	2	1	1	distractor	0	598	-1000	159631	13.328	13.301	13.348
ProbeTrack15	6	ProbeTrack	15.0	SCS215b	20120207.125407	20120207.125445	8	0.013327	60	10	60-180	60	152	GapExp	Blank	1	5	2	30	0	distractor	1	869	566	160197	13.328	12.946	13.724
ProbeTrack15	6	ProbeTrack	15.0	SCS215b	20120207.125407	20120207.125453	8	0.013327	60	10	60-180	60	158	GapExp	Blank	1	6	2	0	0	distractor	1	883	559	160756	13.328	12.858	13.794
ProbeTrack15	6	ProbeTrack	15.0	SCS215b	20120207.125407	20120207.125500	8	0.013327	60	10	60-180	60	65	GapExp	Blank	1	7	2	30	1	target	1	658	671	161427	13.328	12.900	13.749
ProbeTrack15	6	ProbeTrack	15.0	SCS215b	20120207.125407	20120207.125505	8	0.013327	60	10	60-180	60	69	GapExp	Blank	1	8	2	3	1	target	1	678	661	162088	13.328	12.856	13.793
ProbeTrack15	6	ProbeTrack	15.0	SCS215b	20120207.125407	20120207.125511	8	0.013327	60	10	60-180	60	128	GapExp	Blank	0	9	2	3	0	target	0	601	-1000	161088	13.328	13.092	13.565
ProbeTrack15	6	ProbeTrack	15.0	SCS215b	20120207.125407	20120207.125517	8	0.013327	60	10	60-180	60	123	GapExp	Blank	0	10	2	1	0	distractor	1	741	630	161718	13.328	12.913	13.758
ProbeTrack15	6	ProbeTrack	15.0	SCS215b	20120207.125407	20120207.125524	8	0.013327	60	10	60-180	60	128	GapExp	Blank	0	11	2	3	0	distractor	1	652	674	162392	13.328	12.872	13.773
ProbeTrack15	6	ProbeTrack	15.0	SCS215b	20120207.125407	20120207.125531	8	0.013327	60	10	60-180	60	105	GapExp	Blank	0	12	2	3	1	distractor	0	713	-1000	161392	13.328	12.870	13.781
ProbeTrack15	6	ProbeTrack	15.0	SCS215b	20120207.125407	20120207.125537	8	0.013327	60	10	60-180	60	96	GapExp	Blank	0	13	2	30	1	distractor	0	692	-1000	160392	13.328	12.879	13.771
ProbeTrack15	6	ProbeTrack	15.0	SCS215b	20120207.125407	20120207.125544	8	0.013327	60	10	60-180	60	156	GapExp	Blank	0	14	2	3	0	distractor	1	865	568	160960	13.328	12.857	13.801
ProbeTrack15	6	ProbeTrack	15.0	SCS215b	20120207.125407	20120207.125551	8	0.013327	60	10	60-180	60	131	GapExp	Blank	0	15	2	0	1	distractor	0	633	-1000	159960	13.328	12.837	13.827
ProbeTrack15	6	ProbeTrack	15.0	SCS215b	20120207.125407	20120207.125558	8	0.013327	60	10	60-180	60	94	GapExp	Blank	0	16	2	1	0	distractor	1	650	675	160635	13.328	12.963	13.799
ProbeTrack15	6	ProbeTrack	15.0	SCS215b	20120207.125407	20120207.125604	8	0.013327	60	10	60-180	60	63	GapExp	Blank	0	17	2	30	0	distractor	1	679	661	161296	13.328	12.841	13.839
ProbeTrack15	6	ProbeTrack	15.0	SCS215b	20120207.125407	20120207.125610	8	0.013327	60	10	60-180	60	143	GapExp	Blank	0	18	2	3	1	distractor	0	656	-1000	160296	13.328	12.883	13.801
ProbeTrack15	6	ProbeTrack	15.0	SCS215b	20120207.125407	20120207.125616	8	0.013327	60	10	60-180	60	168	GapExp	Blank	0	19	2	30	0	target	0	638	-1000	159296	13.328	12.857	13.800
ProbeTrack15	6	ProbeTrack	15.0	SCS215b	20120207.125407	20120207.125624	8	0.013327	60	10	60-180	60	162	GapExp	Blank	0	20	2	0	0	distractor	1	748	626	159922	13.328	12.834	13.827
ProbeTrack15	6	ProbeTrack	15.0	SCS215b	20120207.125407	20120207.125631	8	0.013327	60	10	60-180	60	139	GapExp	Blank	0	21	2	30	0	target	0	511	-1000	158922	13.328	13.238	13.414
ProbeTrack15	6	ProbeTrack	15.0	SCS215b	20120207.125407	20120207.125638	8	0.013327	60	10	60-180	60	171	GapExp	Blank	0	22	2	1	0	target	0	661	-1000	157922	13.328	13.200	13.469
ProbeTrack15	6	ProbeTrack	15.0	SCS215b	20120207.125407	20120207.125645	8	0.013327	60	10	60-180	60	107	GapExp	Blank	0	23	2	0	1	target	1	920	540	158462	13.328	13.195	13.453
ProbeTrack15	6	ProbeTrack	15.0	SCS215b	20120207.125407	20120207.125652	8	0.013327	60	10	60-180	60	137	GapExp	Blank	0	24	2	30	0	distractor	1	856	572	159034	13.328	12.919	13.729
ProbeTrack15	6	ProbeTrack	15.0	SCS215b	20120207.125407	20120207.125659	8	0.013327	60	10	60-180	60	130	GapExp	Blank	0	25	2	1	0	distractor	1	709	646	159680	13.328	12.916	13.758
ProbeTrack15	6	ProbeTrack	15.0	SCS215b	20120207.125407	20120207.125706	8	0.013327	60	10	60-180	60	154	GapExp	Blank	0	26	2	0	1	distractor	0	811	-1000	158680	13.328	12.905	13.765
ProbeTrack15	6	ProbeTrack	15.0	SCS215b	20120207.125407	20120207.125713	8	0.013327	60	10	60-180	60	78	GapExp	Blank	0	27	2	30	0	distractor	1	499	751	159431	13.328	12.894	13.773
ProbeTrack15	6	ProbeTrack	15.0	SCS215b	20120207.125407	20120207.125719	8	0.013327	60	10	60-180	60	124	GapExp	Blank	0	28	2	3	1	target	1	568	716	160147	13.328	13.171	13.481
ProbeTrack15	6	ProbeTrack	15.0	SCS215b	20120207.125407	20120207.125725	8	0.013327	60	10	60-180	60	155	GapExp	Blank	0	29	2	0	0	target	0	673	-1000	159147	13.328	12.894	13.771
ProbeTrack15	6	ProbeTrack	15.0	SCS215b	20120207.125407	20120207.125732	8	0.013327	60	10	60-180	60	167	GapExp	Blank	0	30	2	3	0	distractor	1	710	645	159792	13.328	12.889	13.761
ProbeTrack15	6	ProbeTrack	15.0	SCS215b	20120207.125407	20120207.125739	8	0.013327	60	10	60-180	60	72	GapExp	Blank	0	31	2	1	0	distractor	1	838	581	160373	13.329	12.851	13.800
ProbeTrack15	6	ProbeTrack	15.0	SCS215b	20120207.125407	20120207.125745	8	0.013327	60	10	60-180	60	137	GapExp	Blank	0	32	2	30	0	distractor	1	778	611	160984	13.328	12.883	13.796
ProbeTrack15	6	ProbeTrack	15.0	SCS215b	20120207.125407	20120207.125752	8	0.013327	60	10	60-180	60	104	GapExp	Blank	0	33	2	0	0	distractor	1	660	670	161654	13.328	13.107	13.548
ProbeTrack15	6	ProbeTrack	15.0	SCS215b	20120207.125407	20120207.125758	8	0.013327	60	10	60-180	60	133	GapExp	Blank	0	34	2	3	0	distractor	1	711	645	162299	13.328	13.038	13.617
ProbeTrack15	6	ProbeTrack	15.0	SCS215b	20120207.125407	20120207.125805	8	0.013327	60	10	60-180	60	87	GapExp	Blank	0	35	2	0	0	distractor	1	606	697	162996	13.328	13.302	13.350
ProbeTrack15	6	ProbeTrack	15.0	SCS215b	20120207.125407	20120207.125811	8	0.013327	60	10	60-180	60	101	GapExp	Blank	0	36	2	30	0	distractor	1	910	545	163541	13.328	12.969	13.690
ProbeTrack15	6	ProbeTrack	15.0	SCS215b	20120207.125407	20120207.125817	8	0.013327	60	10	60-180	60	92	GapExp	Blank	0	37	2	0	1	target	1	799	601	164142	13.329	12.867	13.818
ProbeTrack15	6	ProbeTrack	15.0	SCS215b	20120207.125407	20120207.125824	8	0.013327	60	10	60-180	60	136	GapExp	Blank	0	38	2	0	0	distractor	1	763	619	164761	13.328	12.862	13.806
ProbeTrack15	6	ProbeTrack	15.0	SCS215b	20120207.125407	20120207.125831	8	0.013327	60	10	60-180	60	155	GapExp	Blank	0	39	2	30	1	distractor	0	636	-1000	163761	13.328	12.868	13.802
ProbeTrack15	6	ProbeTrack	15.0	SCS215b	20120207.125407	20120207.125838	8	0.013327	60	10	60-180	60	155	GapExp	Blank	0	40	2	30	1	target	1	551	725	164486	13.328	13.060	13.600
ProbeTrack15	6	ProbeTrack	15.0	SCS215b	20120207.125407	20120207.125845	8	0.013327	60	10	60-180	60	124	GapExp	Blank	0	41	2	30	1	distractor	0	717	-1000	163486	13.328	13.303	13.353
ProbeTrack15	6	ProbeTrack	15.0	SCS215b	20120207.125407	20120207.125852	8	0.013327	60	10	60-180	60	81	GapExp	Blank	0	42	2	3	1	target	1	492	754	164240	13.328	13.098	13.561
ProbeTrack15	6	ProbeTrack	15.0	SCS215b	20120207.125407	20120207.125858	8	0.013327	60	10	60-180	60	82	GapExp	Blank	0	43	2	1	1	distractor	0	762	-1000	163240	13.328	12.977	13.672
ProbeTrack15	6	ProbeTrack	15.0	SCS215b	20120207.125407	20120207.125903	8	0.013327	60	10	60-180	60	128	GapExp	Blank	0	44	2	1	1	target	1	476	762	164002	13.328	12.967	13.688
ProbeTrack15	6	ProbeTrack	15.0	SCS215b	20120207.125407	20120207.125909	8	0.013327	60	10	60-180	60	150	GapExp	Blank	0	45	2	0	1	target	1	583	709	164711	13.328	13.081	13.564
ProbeTrack15	6	ProbeTrack	15.0	SCS215b	20120207.125407	20120207.125916	8	0.013327	60	10	60-180	60	106	GapExp	Blank	0	46	2	30	0	distractor	1	646	677	165388	13.328	13.017	13.634
ProbeTrack15	6	ProbeTrack	15.0	SCS215b	20120207.125407	20120207.125923	8	0.013327	60	10	60-180	60	76	GapExp	Blank	0	47	2	30	1	target	1	551	725	166113	13.328	12.852	13.799
ProbeTrack15	6	ProbeTrack	15.0	SCS215b	20120207.125407	20120207.125929	8	0.013327	60	10	60-180	60	70	GapExp	Blank	0	48	2	0	0	distractor	1	620	690	166803	13.328	12.848	13.807
ProbeTrack15	6	ProbeTrack	15.0	SCS215b	20120207.125407	20120207.125936	8	0.013327	60	10	60-180	60	82	GapExp	Blank	0	49	2	30	1	distractor	0	703	-1000	165803	13.328	12.935	13.732
ProbeTrack15	6	ProbeTrack	15.0	SCS215b	20120207.125407	20120207.125942	8	0.013327	60	10	60-180	60	159	GapExp	Blank	0	50	2	30	1	target	1	788	606	166409	13.328	12.874	13.783
ProbeTrack15	6	ProbeTrack	15.0	SCS215b	20120207.125407	20120207.125951	8	0.013327	60	10	60-180	60	65	GapExp	Blank	0	51	2	0	1	target	1	445	778	167187	13.400	12.851	26.985
ProbeTrack15	6	ProbeTrack	15.0	SCS215b	20120207.125407	20120207.125957	8	0.013327	60	10	60-180	60	97	GapExp	Blank	0	52	2	3	1	distractor	0	629	-1000	166187	13.385	12.885	26.176
ProbeTrack15	6	ProbeTrack	15.0	SCS215b	20120207.125407	20120207.130003	8	0.013327	60	10	60-180	60	108	GapExp	Blank	0	53	2	3	1	target	1	395	803	166990	13.328	12.910	13.778
ProbeTrack15	6	ProbeTrack	15.0	SCS215b	20120207.125407	20120207.130009	8	0.013327	60	10	60-180	60	124	GapExp	Blank	0	54	2	1	1	target	1	583	709	167699	13.328	12.897	13.766
ProbeTrack15	6	ProbeTrack	15.0	SCS215b	20120207.125407	20120207.130015	8	0.013327	60	10	60-180	60	95	GapExp	Blank	0	55	2	30	0	target	0	550	-1000	166699	13.328	12.873	13.787
ProbeTrack15	6	ProbeTrack	15.0	SCS215b	20120207.125407	20120207.130021	8	0.013327	60	10	60-180	60	127	GapExp	Blank	0	56	2	3	1	target	1	393	804	167503	13.328	12.953	13.694
ProbeTrack15	6	ProbeTrack	15.0	SCS215b	20120207.125407	20120207.130027	8	0.013327	60	10	60-180	60	136	GapExp	Blank	0	57	2	3	1	target	1	470	765	168268	13.328	12.901	13.768
ProbeTrack15	6	ProbeTrack	15.0	SCS215b	20120207.125407	20120207.130034	8	0.013327	60	10	60-180	60	153	GapExp	Blank	0	58	2	0	0	distractor	1	722	639	168907	13.328	12.859	13.795
ProbeTrack15	6	ProbeTrack	15.0	SCS215b	20120207.125407	20120207.130040	8	0.013327	60	10	60-180	60	151	GapExp	Blank	0	59	2	0	1	distractor	0	632	-1000	167907	13.328	12.882	13.772
ProbeTrack15	6	ProbeTrack	15.0	SCS215b	20120207.125407	20120207.130047	8	0.013327	60	10	60-180	60	175	GapExp	Blank	0	60	2	0	0	target	0	643	-1000	166907	13.328	12.885	13.770
ProbeTrack15	6	ProbeTrack	15.0	SCS215b	20120207.125407	20120207.130054	8	0.013327	60	10	60-180	60	72	GapExp	Blank	0	61	2	0	0	distractor	1	576	712	167619	13.328	12.966	13.678
ProbeTrack15	6	ProbeTrack	15.0	SCS215b	20120207.125407	20120207.130100	8	0.013327	60	10	60-180	60	64	GapExp	Blank	0	62	2	3	1	target	1	619	691	168310	13.328	13.009	13.660
ProbeTrack15	6	ProbeTrack	15.0	SCS215b	20120207.125407	20120207.130105	8	0.013327	60	10	60-180	60	141	GapExp	Blank	0	63	2	30	1	target	1	686	657	168967	13.328	13.096	13.542
ProbeTrack15	6	ProbeTrack	15.0	SCS215b	20120207.125407	20120207.130114	8	0.013327	60	10	60-180	60	83	GapExp	Blank	0	64	2	3	1	target	1	493	754	169721	13.328	12.850	13.819
ProbeTrack15	6	ProbeTrack	15.0	SCS215b	20120207.125407	20120207.130119	8	0.013327	60	10	60-180	60	171	GapExp	Blank	0	65	2	30	1	distractor	0	650	-1000	168721	13.328	12.902	13.738
ProbeTrack15	6	ProbeTrack	15.0	SCS215b	20120207.125407	20120207.130126	8	0.013327	60	10	60-180	60	67	GapExp	Blank	0	66	2	30	1	target	1	456	772	169493	13.328	13.053	13.351
ProbeTrack15	6	ProbeTrack	15.0	SCS215b	20120207.125407	20120207.130132	8	0.013327	60	10	60-180	60	161	GapExp	Blank	0	67	2	30	0	distractor	1	605	698	170191	13.328	12.854	13.798
ProbeTrack15	6	ProbeTrack	15.0	SCS215b	20120207.125407	20120207.130139	8	0.013327	60	10	60-180	60	135	GapExp	Blank	0	68	2	0	0	target	0	583	-1000	169191	13.328	12.995	13.652
ProbeTrack15	6	ProbeTrack	15.0	SCS215b	20120207.125407	20120207.130145	8	0.013327	60	10	60-180	60	172	GapExp	Blank	0	69	2	30	1	target	1	550	725	169916	13.328	13.073	13.587
ProbeTrack15	6	ProbeTrack	15.0	SCS215b	20120207.125407	20120207.130153	8	0.013327	60	10	60-180	60	74	GapExp	Blank	0	70	2	1	0	distractor	1	760	620	170536	13.328	12.968	13.684
ProbeTrack15	6	ProbeTrack	15.0	SCS215b	20120207.125407	20120207.130158	8	0.013327	60	10	60-180	60	158	GapExp	Blank	0	71	2	30	0	target	0	455	-1000	169536	13.328	12.963	13.689
ProbeTrack15	6	ProbeTrack	15.0	SCS215b	20120207.125407	20120207.130207	8	0.013327	60	10	60-180	60	105	GapExp	Blank	0	72	2	1	1	target	1	633	684	170220	13.328	12.816	13.827
ProbeTrack15	6	ProbeTrack	15.0	SCS215b	20120207.125407	20120207.130213	8	0.013327	60	10	60-180	60	155	GapExp	Blank	0	73	2	0	0	distractor	1	809	596	170816	13.328	12.887	13.772
ProbeTrack15	6	ProbeTrack	15.0	SCS215b	20120207.125407	20120207.130219	8	0.013327	60	10	60-180	60	74	GapExp	Blank	0	74	2	3	1	target	1	498	751	171567	13.328	13.132	13.530
ProbeTrack15	6	ProbeTrack	15.0	SCS215b	20120207.125407	20120207.130227	8	0.013327	60	10	60-180	60	74	GapExp	Blank	0	75	2	3	1	target	1	414	793	172360	13.328	12.892	13.766
ProbeTrack15	6	ProbeTrack	15.0	SCS215b	20120207.125407	20120207.130232	8	0.013327	60	10	60-180	60	86	GapExp	Blank	0	76	2	0	1	target	1	567	717	173077	13.328	12.984	13.674
ProbeTrack15	6	ProbeTrack	15.0	SCS215b	20120207.125407	20120207.130238	8	0.013327	60	10	60-180	60	86	GapExp	Blank	0	77	2	1	0	target	0	612	-1000	172077	13.328	12.980	13.676
ProbeTrack15	6	ProbeTrack	15.0	SCS215b	20120207.125407	20120207.130244	8	0.013327	60	10	60-180	60	97	GapExp	Blank	0	78	2	3	0	distractor	1	664	668	172745	13.328	12.953	13.697
ProbeTrack15	6	ProbeTrack	15.0	SCS215b	20120207.125407	20120207.130250	8	0.013327	60	10	60-180	60	99	GapExp	Blank	0	79	2	30	0	distractor	1	668	666	173411	13.328	13.125	13.537
ProbeTrack15	6	ProbeTrack	15.0	SCS215b	20120207.125407	20120207.130256	8	0.013327	60	10	60-180	60	121	GapExp	Blank	0	80	2	1	0	target	0	631	-1000	172411	13.328	12.900	13.763
ProbeTrack15	6	ProbeTrack	15.0	SCS215b	20120207.125407	20120207.130303	8	0.013327	60	10	60-180	60	98	GapExp	Blank	0	81	2	1	0	distractor	1	692	654	173065	13.328	12.946	13.755
ProbeTrack15	6	ProbeTrack	15.0	SCS215b	20120207.125407	20120207.130310	8	0.013327	60	10	60-180	60	114	GapExp	Blank	0	82	2	3	0	distractor	1	535	733	173798	13.328	12.938	13.720
ProbeTrack15	6	ProbeTrack	15.0	SCS215b	20120207.125407	20120207.130316	8	0.013327	60	10	60-180	60	139	GapExp	Blank	0	83	2	3	1	target	1	629	686	174484	13.328	12.834	13.816
ProbeTrack15	6	ProbeTrack	15.0	SCS215b	20120207.125407	20120207.130322	8	0.013327	60	10	60-180	60	115	GapExp	Blank	0	84	2	1	0	distractor	1	968	516	175000	13.328	12.970	13.672
ProbeTrack15	6	ProbeTrack	15.0	SCS215b	20120207.125407	20120207.130329	8	0.013327	60	10	60-180	60	136	GapExp	Blank	0	85	2	3	0	distractor	1	598	701	175701	13.328	12.921	13.737
ProbeTrack15	6	ProbeTrack	15.0	SCS215b	20120207.125407	20120207.130335	8	0.013327	60	10	60-180	60	104	GapExp	Blank	0	86	2	1	1	target	1	651	675	176376	13.328	12.907	13.756
ProbeTrack15	6	ProbeTrack	15.0	SCS215b	20120207.125407	20120207.130341	8	0.013327	60	10	60-180	60	102	GapExp	Blank	0	87	2	30	0	distractor	1	512	744	177120	13.328	12.853	13.796
ProbeTrack15	6	ProbeTrack	15.0	SCS215b	20120207.125407	20120207.130347	8	0.013327	60	10	60-180	60	118	GapExp	Blank	0	88	2	30	1	target	1	572	714	177834	13.328	12.856	13.796
ProbeTrack15	6	ProbeTrack	15.0	SCS215b	20120207.125407	20120207.130353	8	0.013327	60	10	60-180	60	122	GapExp	Blank	0	89	2	30	0	distractor	1	720	640	178474	13.328	12.881	13.796
ProbeTrack15	6	ProbeTrack	15.0	SCS215b	20120207.125407	20120207.130400	8	0.013327	60	10	60-180	60	164	GapExp	Blank	0	90	2	3	1	target	1	695	653	179127	13.328	13.128	13.516
ProbeTrack15	6	ProbeTrack	15.0	SCS215b	20120207.125407	20120207.130407	8	0.013327	60	10	60-180	60	107	GapExp	Blank	0	91	2	1	0	distractor	1	692	654	179781	13.328	13.243	13.402
ProbeTrack15	6	ProbeTrack	15.0	SCS215b	20120207.125407	20120207.130413	8	0.013327	60	10	60-180	60	147	GapExp	Blank	0	92	2	1	1	target	1	578	711	180492	13.328	12.861	13.818
ProbeTrack15	6	ProbeTrack	15.0	SCS215b	20120207.125407	20120207.130420	8	0.013327	60	10	60-180	60	66	GapExp	Blank	0	93	2	0	1	target	1	539	731	181223	13.328	12.896	13.768
ProbeTrack15	6	ProbeTrack	15.0	SCS215b	20120207.125407	20120207.130425	8	0.013327	60	10	60-180	60	136	GapExp	Blank	0	94	2	3	0	distractor	1	671	665	181888	13.328	12.948	13.721
ProbeTrack15	6	ProbeTrack	15.0	SCS215b	20120207.125407	20120207.130431	8	0.013327	60	10	60-180	60	132	GapExp	Blank	0	95	2	0	0	distractor	1	580	710	182598	13.328	13.160	13.493
ProbeTrack15	6	ProbeTrack	15.0	SCS215b	20120207.125407	20120207.130437	8	0.013327	60	10	60-180	60	80	GapExp	Blank	0	96	2	0	0	distractor	1	601	700	183298	13.328	12.830	13.828
ProbeTrack15	6	ProbeTrack	15.0	SCS215b	20120207.125407	20120207.130443	8	0.013327	60	10	60-180	60	166	GapExp	Blank	0	97	2	1	1	target	1	593	704	184002	13.328	12.844	13.815
ProbeTrack15	6	ProbeTrack	15.0	SCS215b	20120207.125407	20120207.130450	8	0.013327	60	10	60-180	60	151	GapExp	Blank	0	98	2	1	1	target	1	444	778	184780	13.328	12.888	13.812
ProbeTrack15	6	ProbeTrack	15.0	SCS215b	20120207.125407	20120207.130456	8	0.013327	60	10	60-180	60	72	GapExp	Blank	0	99	2	0	1	target	1	690	655	185435	13.328	13.078	13.583
ProbeTrack15	6	ProbeTrack	15.0	SCS215b	20120207.125407	20120207.130502	8	0.013327	60	10	60-180	60	127	GapExp	Blank	0	100	2	1	1	target	1	533	734	186169	13.328	12.875	13.773
ProbeTrack15	6	ProbeTrack	15.0	SCS215b	20120207.125407	20120207.130508	8	0.013327	60	10	60-180	60	163	GapExp	Blank	0	101	2	1	0	distractor	1	612	694	186863	13.328	13.122	13.518
ProbeTrack15	6	ProbeTrack	15.0	SCS215b	20120207.125407	20120207.130517	8	0.013327	60	10	60-180	60	149	GapExp	Blank	0	102	2	30	1	distractor	0	740	-1000	185863	13.328	12.871	13.781
ProbeTrack15	6	ProbeTrack	15.0	SCS215b	20120207.125407	20120207.130524	8	0.013327	60	10	60-180	60	70	GapExp	Blank	0	103	2	1	1	distractor	0	692	-1000	184863	13.328	12.918	13.735
ProbeTrack15	6	ProbeTrack	15.0	SCS215b	20120207.125407	20120207.130530	8	0.013327	60	10	60-180	60	147	GapExp	Blank	0	104	2	0	0	target	0	920	-1000	183863	13.328	12.927	13.592
ProbeTrack15	6	ProbeTrack	15.0	SCS215b	20120207.125407	20120207.130537	8	0.013327	60	10	60-180	60	100	GapExp	Blank	0	105	2	30	0	distractor	1	719	641	184504	13.328	12.905	13.766
ProbeTrack15	6	ProbeTrack	15.0	SCS215b	20120207.125407	20120207.130543	8	0.013327	60	10	60-180	60	134	GapExp	Blank	0	106	2	3	1	distractor	0	558	-1000	183504	13.328	13.291	13.368
ProbeTrack15	6	ProbeTrack	15.0	SCS215b	20120207.125407	20120207.130549	8	0.013327	60	10	60-180	60	173	GapExp	Blank	0	107	2	3	0	distractor	1	867	567	184071	13.328	12.846	13.813
ProbeTrack15	6	ProbeTrack	15.0	SCS215b	20120207.125407	20120207.130557	8	0.013327	60	10	60-180	60	164	GapExp	Blank	0	108	2	1	0	distractor	1	621	690	184761	13.328	13.095	13.550
ProbeTrack15	6	ProbeTrack	15.0	SCS215b	20120207.125407	20120207.130603	8	0.013327	60	10	60-180	60	88	GapExp	Blank	0	109	2	1	1	target	1	468	766	185527	13.328	12.886	13.759
ProbeTrack15	6	ProbeTrack	15.0	SCS215b	20120207.125407	20120207.130609	8	0.013327	60	10	60-180	60	143	GapExp	Blank	0	110	2	1	0	distractor	1	600	700	186227	13.328	12.890	13.763
ProbeTrack15	6	ProbeTrack	15.0	SCS215b	20120207.125407	20120207.130615	8	0.013327	60	10	60-180	60	78	GapExp	Blank	0	111	2	3	0	distractor	1	812	594	186821	13.328	12.880	13.786
ProbeTrack15	6	ProbeTrack	15.0	SCS215b	20120207.125407	20120207.130621	8	0.013327	60	10	60-180	60	86	GapExp	Blank	0	112	2	0	1	distractor	0	772	-1000	185821	13.328	12.875	13.796
ProbeTrack15	6	ProbeTrack	15.0	SCS215b	20120207.125407	20120207.130627	8	0.013327	60	10	60-180	60	129	GapExp	Blank	0	113	2	30	0	distractor	1	498	751	186572	13.328	12.875	13.786
ProbeTrack15	6	ProbeTrack	15.0	SCS215b	20120207.125407	20120207.130633	8	0.013327	60	10	60-180	60	156	GapExp	Blank	0	114	2	0	0	distractor	1	562	719	187291	13.328	13.243	13.408
ProbeTrack15	6	ProbeTrack	15.0	SCS215b	20120207.125407	20120207.130640	8	0.013327	60	10	60-180	60	109	GapExp	Blank	0	115	2	3	1	target	1	502	749	188040	13.328	13.089	13.576
ProbeTrack15	6	ProbeTrack	15.0	SCS215b	20120207.125407	20120207.130646	8	0.013327	60	10	60-180	60	102	GapExp	Blank	0	116	2	3	1	target	1	496	752	188792	13.328	12.895	13.763
ProbeTrack15	6	ProbeTrack	15.0	SCS215b	20120207.125407	20120207.130651	8	0.013327	60	10	60-180	60	107	GapExp	Blank	0	117	2	30	1	target	1	627	687	189479	13.328	12.835	13.805
ProbeTrack15	6	ProbeTrack	15.0	SCS215b	20120207.125407	20120207.130658	8	0.013327	60	10	60-180	60	163	GapExp	Blank	0	118	2	3	0	distractor	1	648	676	190155	13.328	12.904	13.759
ProbeTrack15	6	ProbeTrack	15.0	SCS215b	20120207.125407	20120207.130705	8	0.013327	60	10	60-180	60	175	GapExp	Blank	0	119	2	30	1	distractor	0	657	-1000	189155	13.328	12.860	13.787
ProbeTrack15	6	ProbeTrack	15.0	SCS215b	20120207.125407	20120207.130712	8	0.013327	60	10	60-180	60	89	GapExp	Blank	0	120	2	3	0	distractor	1	815	593	189748	13.328	12.909	13.773
ProbeTrack15	6	ProbeTrack	15.0	SCS215b	20120207.125407	20120207.130718	8	0.013327	60	10	60-180	60	179	GapExp	Blank	0	121	2	1	0	distractor	1	714	643	190391	13.328	12.893	13.765
ProbeTrack15	6	ProbeTrack	15.0	SCS215b	20120207.125407	20120207.130725	8	0.013327	60	10	60-180	60	71	GapExp	Blank	0	122	2	0	0	distractor	1	646	677	191068	13.328	13.068	13.601
ProbeTrack15	6	ProbeTrack	15.0	SCS215b	20120207.125407	20120207.130731	8	0.013327	60	10	60-180	60	112	GapExp	Blank	0	123	2	1	0	distractor	1	668	666	191734	13.328	12.873	13.810
ProbeTrack15	6	ProbeTrack	15.0	SCS215b	20120207.125407	20120207.130737	8	0.013327	60	10	60-180	60	74	GapExp	Blank	0	124	2	30	0	distractor	1	497	752	192486	13.328	12.872	13.794
ProbeTrack15	6	ProbeTrack	15.0	SCS215b	20120207.125407	20120207.130742	8	0.013327	60	10	60-180	60	78	GapExp	Blank	0	125	2	1	1	target	1	702	649	193135	13.328	12.931	13.763
ProbeTrack15	6	ProbeTrack	15.0	SCS215b	20120207.125407	20120207.130748	8	0.013327	60	10	60-180	60	66	GapExp	Blank	0	126	2	0	0	target	0	487	-1000	192135	13.398	12.963	26.748
ProbeTrack15	6	ProbeTrack	15.0	SCS215b	20120207.125407	20120207.130753	8	0.013327	60	10	60-180	60	150	GapExp	Blank	0	127	2	30	1	target	1	612	694	192829	13.328	12.885	13.783
ProbeTrack15	6	ProbeTrack	15.0	SCS215b	20120207.125407	20120207.130800	8	0.013327	60	10	60-180	60	124	GapExp	Blank	0	128	2	3	1	target	1	1031	485	193314	13.328	12.916	13.756
ProbeTrack15	6	ProbeTrack	15.0	SCS215b	20120207.125407	20120207.130807	8	0.013327	60	10	60-180	60	178	GapExp	Blank	0	129	2	3	1	target	1	731	635	193949	13.328	12.896	13.771
ProbeTrack15	6	ProbeTrack	15.0	SCS215b	20120207.125407	20120207.130815	8	0.013327	60	10	60-180	60	97	GapExp	Blank	0	130	2	3	1	target	1	560	720	194669	13.328	12.883	13.777
ProbeTrack15	6	ProbeTrack	15.0	SCS215b	20120207.125407	20120207.130820	8	0.013327	60	10	60-180	60	96	GapExp	Blank	0	131	2	30	1	target	1	568	716	195385	13.328	13.237	13.424
ProbeTrack15	6	ProbeTrack	15.0	SCS215b	20120207.125407	20120207.130826	8	0.013327	60	10	60-180	60	73	GapExp	Blank	0	132	2	1	0	distractor	1	741	630	196015	13.328	13.167	13.509
ProbeTrack15	6	ProbeTrack	15.0	SCS215b	20120207.125407	20120207.130832	8	0.013327	60	10	60-180	60	84	GapExp	Blank	0	133	2	0	0	target	0	770	-1000	195015	13.328	12.897	13.751
ProbeTrack15	6	ProbeTrack	15.0	SCS215b	20120207.125407	20120207.130838	8	0.013327	60	10	60-180	60	150	GapExp	Blank	0	134	2	1	1	target	1	644	678	195693	13.328	12.854	13.811
ProbeTrack15	6	ProbeTrack	15.0	SCS215b	20120207.125407	20120207.130901	8	0.013327	60	10	60-180	60	132	GapExp	Blank	0	135	2	30	0	target	0	541	-1000	194693	13.328	12.967	13.690
ProbeTrack15	6	ProbeTrack	15.0	SCS215b	20120207.125407	20120207.130909	8	0.013327	60	10	60-180	60	114	GapExp	Blank	0	136	2	0	0	distractor	1	570	715	195408	13.328	13.207	13.437
ProbeTrack15	6	ProbeTrack	15.0	SCS215b	20120207.125407	20120207.130915	8	0.013327	60	10	60-180	60	100	GapExp	Blank	0	137	2	30	0	distractor	1	700	650	196058	13.328	12.833	13.832
ProbeTrack15	6	ProbeTrack	15.0	SCS215b	20120207.125407	20120207.130922	8	0.013327	60	10	60-180	60	134	GapExp	Blank	0	138	2	30	0	distractor	1	591	705	196763	13.328	12.888	13.778
ProbeTrack15	6	ProbeTrack	15.0	SCS215b	20120207.125407	20120207.130928	8	0.013327	60	10	60-180	60	174	GapExp	Blank	0	139	2	3	1	target	1	544	728	197491	13.328	12.940	13.705
ProbeTrack15	6	ProbeTrack	15.0	SCS215b	20120207.125407	20120207.130935	8	0.013327	60	10	60-180	60	128	GapExp	Blank	0	140	2	1	1	target	1	894	553	198044	13.328	13.075	13.584
ProbeTrack15	6	ProbeTrack	15.0	SCS215b	20120207.125407	20120207.130942	8	0.013327	60	10	60-180	60	138	GapExp	Blank	0	141	2	0	1	target	1	523	739	198783	13.328	12.850	13.788
ProbeTrack15	6	ProbeTrack	15.0	SCS215b	20120207.125407	20120207.130948	8	0.013327	60	10	60-180	60	119	GapExp	Blank	0	142	2	1	0	distractor	1	685	658	199441	13.328	12.868	13.798
ProbeTrack15	6	ProbeTrack	15.0	SCS215b	20120207.125407	20120207.130954	8	0.013327	60	10	60-180	60	124	GapExp	Blank	0	143	2	3	0	distractor	1	646	677	200118	13.328	12.970	13.699
ProbeTrack15	6	ProbeTrack	15.0	SCS215b	20120207.125407	20120207.131000	8	0.013327	60	10	60-180	60	103	GapExp	Blank	0	144	2	0	1	target	1	657	672	200790	13.384	12.864	26.874
ProbeTrack15	6	ProbeTrack	15.0	SCS215b	20120207.125407	20120207.131006	8	0.013327	60	10	60-180	60	120	GapExp	Blank	0	145	2	0	1	target	1	507	747	201537	13.328	12.878	13.812
ProbeTrack15	6	ProbeTrack	15.0	SCS215b	20120207.125407	20120207.131012	8	0.013327	60	10	60-180	60	109	GapExp	Blank	0	146	2	0	1	target	1	649	676	202213	13.328	12.925	13.755
ProbeTrack15	6	ProbeTrack	15.0	SCS215b	20120207.125407	20120207.131019	8	0.013327	60	10	60-180	60	113	GapExp	Blank	0	147	2	3	0	distractor	1	640	680	202893	13.328	12.910	13.775
ProbeTrack15	6	ProbeTrack	15.0	SCS215b	20120207.125407	20120207.131024	8	0.013327	60	10	60-180	60	77	GapExp	Blank	0	148	2	30	0	distractor	1	749	626	203519	13.328	12.859	13.774
ProbeTrack15	6	ProbeTrack	15.0	SCS215b	20120207.125407	20120207.131030	8	0.013327	60	10	60-180	60	71	GapExp	Blank	0	149	2	30	0	target	0	633	-1000	202519	13.328	12.862	13.783
ProbeTrack15	6	ProbeTrack	15.0	SCS215b	20120207.125407	20120207.131036	8	0.013327	60	10	60-180	60	97	GapExp	Blank	0	150	2	30	1	distractor	0	966	-1000	201519	13.328	13.046	13.607
ProbeTrack15	6	ProbeTrack	15.0	SCS215b	20120207.125407	20120207.131043	8	0.013327	60	10	60-180	60	110	GapExp	Blank	0	151	2	1	1	target	1	442	779	202298	13.328	12.926	13.734
ProbeTrack15	6	ProbeTrack	15.0	SCS215b	20120207.125407	20120207.131049	8	0.013327	60	10	60-180	60	153	GapExp	Blank	0	152	2	3	0	distractor	1	668	666	202964	13.328	13.102	13.539
ProbeTrack15	6	ProbeTrack	15.0	SCS215b	20120207.125407	20120207.131055	8	0.013327	60	10	60-180	60	160	GapExp	Blank	0	153	2	0	0	distractor	1	672	664	203628	13.328	12.907	13.758
ProbeTrack15	6	ProbeTrack	15.0	SCS215b	20120207.125407	20120207.131102	8	0.013327	60	10	60-180	60	121	GapExp	Blank	0	154	2	1	0	distractor	1	536	732	204360	13.328	12.860	13.802
ProbeTrack15	6	ProbeTrack	15.0	SCS215b	20120207.125407	20120207.131108	8	0.013327	60	10	60-180	60	171	GapExp	Blank	0	155	2	0	1	distractor	0	742	-1000	203360	13.328	13.058	13.606
ProbeTrack15	6	ProbeTrack	15.0	SCS215b	20120207.125407	20120207.131115	8	0.013327	60	10	60-180	60	161	GapExp	Blank	0	156	2	3	0	distractor	1	622	689	204049	13.328	13.058	13.573
ProbeTrack15	6	ProbeTrack	15.0	SCS215b	20120207.125407	20120207.131122	8	0.013327	60	10	60-180	60	112	GapExp	Blank	0	157	2	1	1	target	1	526	737	204786	13.328	12.885	13.766
ProbeTrack15	6	ProbeTrack	15.0	SCS215b	20120207.125407	20120207.131128	8	0.013327	60	10	60-180	60	177	GapExp	Blank	0	158	2	3	1	target	1	561	720	205506	13.328	12.977	13.679
ProbeTrack15	6	ProbeTrack	15.0	SCS215b	20120207.125407	20120207.131135	8	0.013327	60	10	60-180	60	73	GapExp	Blank	0	159	2	1	0	distractor	1	618	691	206197	13.328	13.301	13.355
ProbeTrack15	6	ProbeTrack	15.0	SCS215b	20120207.125407	20120207.131140	8	0.013327	60	10	60-180	60	125	GapExp	Blank	0	160	2	1	1	target	1	582	709	206906	13.328	12.955	13.716
ProbeTrack15	6	ProbeTrack	15.0	SCS215b	20120207.125407	20120207.131147	8	0.013327	60	10	60-180	60	115	GapExp	Blank	0	161	2	3	0	distractor	1	591	705	207611	13.328	13.099	13.562
ProbeTrack15	6	ProbeTrack	15.0	SCS215b	20120207.125407	20120207.131153	8	0.013327	60	10	60-180	60	127	GapExp	Blank	0	162	2	1	1	target	1	714	643	208254	13.328	13.119	13.534
ProbeTrack15	6	ProbeTrack	15.0	SCS215b	20120207.125407	20120207.131159	8	0.013327	60	10	60-180	60	78	GapExp	Blank	0	163	2	1	1	target	1	467	767	209021	13.328	12.949	13.703
ProbeTrack15	6	ProbeTrack	15.0	SCS215b	20120207.125407	20120207.131204	8	0.013327	60	10	60-180	60	156	GapExp	Blank	0	164	2	30	1	target	1	590	705	209726	13.328	13.017	13.634
ProbeTrack15	6	ProbeTrack	15.0	SCS215b	20120207.125407	20120207.131211	8	0.013327	60	10	60-180	60	169	GapExp	Blank	0	165	2	1	0	distractor	1	733	634	210360	13.328	12.826	13.831
ProbeTrack15	6	ProbeTrack	15.0	SCS215b	20120207.125407	20120207.131219	8	0.013327	60	10	60-180	60	101	GapExp	Blank	0	166	2	3	1	target	1	406	797	211157	13.328	12.977	13.695
ProbeTrack15	6	ProbeTrack	15.0	SCS215b	20120207.125407	20120207.131224	8	0.013327	60	10	60-180	60	109	GapExp	Blank	0	167	2	0	1	target	1	385	808	211965	13.328	12.968	13.671
ProbeTrack15	6	ProbeTrack	15.0	SCS215b	20120207.125407	20120207.131230	8	0.013327	60	10	60-180	60	147	GapExp	Blank	0	168	2	3	0	target	0	657	-1000	210965	13.328	13.004	13.659
ProbeTrack15	6	ProbeTrack	15.0	SCS215b	20120207.125407	20120207.131236	8	0.013327	60	10	60-180	60	79	GapExp	Blank	0	169	2	1	0	distractor	1	597	702	211667	13.328	12.987	13.658
ProbeTrack15	6	ProbeTrack	15.0	SCS215b	20120207.125407	20120207.131242	8	0.013327	60	10	60-180	60	150	GapExp	Blank	0	170	2	30	1	distractor	0	792	-1000	210667	13.328	12.850	13.808
ProbeTrack15	6	ProbeTrack	15.0	SCS215b	20120207.125407	20120207.131250	8	0.013327	60	10	60-180	60	69	GapExp	Blank	0	171	2	0	1	target	1	548	726	211393	13.328	12.916	13.744
ProbeTrack15	6	ProbeTrack	15.0	SCS215b	20120207.125407	20120207.131255	8	0.013327	60	10	60-180	60	83	GapExp	Blank	0	172	2	30	1	distractor	0	708	-1000	210393	13.328	12.927	13.750
ProbeTrack15	6	ProbeTrack	15.0	SCS215b	20120207.125407	20120207.131301	8	0.013327	60	10	60-180	60	74	GapExp	Blank	0	173	2	0	1	target	1	510	745	211138	13.328	12.943	13.708
ProbeTrack15	6	ProbeTrack	15.0	SCS215b	20120207.125407	20120207.131307	8	0.013327	60	10	60-180	60	171	GapExp	Blank	0	174	2	0	1	target	1	443	779	211917	13.328	12.919	13.739
ProbeTrack15	6	ProbeTrack	15.0	SCS215b	20120207.125407	20120207.131313	8	0.013327	60	10	60-180	60	105	GapExp	Blank	0	175	2	3	1	target	1	522	739	212656	13.328	13.009	13.652
ProbeTrack15	6	ProbeTrack	15.0	SCS215b	20120207.125407	20120207.131319	8	0.013327	60	10	60-180	60	110	GapExp	Blank	0	176	2	0	0	distractor	1	659	671	213327	13.328	12.850	13.797
ProbeTrack15	6	ProbeTrack	15.0	SCS215b	20120207.125407	20120207.131325	8	0.013327	60	10	60-180	60	74	GapExp	Blank	0	177	2	1	1	target	1	539	731	214058	13.328	12.880	13.765
ProbeTrack15	6	ProbeTrack	15.0	SCS215b	20120207.125407	20120207.131331	8	0.013327	60	10	60-180	60	124	GapExp	Blank	0	178	2	30	1	target	1	542	729	214787	13.328	12.873	13.803
ProbeTrack15	6	ProbeTrack	15.0	SCS215b	20120207.125407	20120207.131337	8	0.013327	60	10	60-180	60	171	GapExp	Blank	0	179	2	3	0	target	0	570	-1000	213787	13.328	13.097	13.546
ProbeTrack15	6	ProbeTrack	15.0	SCS215b	20120207.125407	20120207.131344	8	0.013327	60	10	60-180	60	61	GapExp	Blank	0	180	2	0	1	target	1	527	737	214524	13.328	12.964	13.681
ProbeTrack15	6	ProbeTrack	15.0	SCS215b	20120207.125407	20120207.131349	8	0.013327	60	10	60-180	60	166	GapExp	Blank	0	181	2	1	1	distractor	0	600	-1000	213524	13.328	12.841	13.804
ProbeTrack15	6	ProbeTrack	15.0	SCS215b	20120207.125407	20120207.131356	8	0.013327	60	10	60-180	60	144	GapExp	Blank	0	182	2	0	0	distractor	1	677	662	214186	13.423	12.857	27.122
ProbeTrack15	6	ProbeTrack	15.0	SCS215b	20120207.125407	20120207.131403	8	0.013327	60	10	60-180	60	94	GapExp	Blank	0	183	2	30	1	target	1	685	658	214844	13.328	12.938	13.797
ProbeTrack15	6	ProbeTrack	15.0	SCS215b	20120207.125407	20120207.131410	8	0.013327	60	10	60-180	60	124	GapExp	Blank	0	184	2	1	1	distractor	0	649	-1000	213844	13.328	12.913	13.747
ProbeTrack15	6	ProbeTrack	15.0	SCS215b	20120207.125407	20120207.131417	8	0.013327	60	10	60-180	60	179	GapExp	Blank	0	185	2	0	0	target	0	521	-1000	212844	13.328	12.878	13.724
ProbeTrack15	6	ProbeTrack	15.0	SCS215b	20120207.125407	20120207.131424	8	0.013327	60	10	60-180	60	114	GapExp	Blank	0	186	2	1	0	distractor	1	916	542	213386	13.328	12.863	13.802
ProbeTrack15	6	ProbeTrack	15.0	SCS215b	20120207.125407	20120207.131433	8	0.013327	60	10	60-180	60	133	GapExp	Blank	0	187	2	3	0	distractor	1	523	739	214125	13.328	12.934	13.720
ProbeTrack15	6	ProbeTrack	15.0	SCS215b	20120207.125407	20120207.131439	8	0.013327	60	10	60-180	60	76	GapExp	Blank	0	188	2	30	0	distractor	1	792	604	214729	13.328	13.137	13.517
ProbeTrack15	6	ProbeTrack	15.0	SCS215b	20120207.125407	20120207.131445	8	0.013327	60	10	60-180	60	95	GapExp	Blank	0	189	2	0	1	distractor	0	513	-1000	213729	13.328	13.301	13.361
ProbeTrack15	6	ProbeTrack	15.0	SCS215b	20120207.125407	20120207.131451	8	0.013327	60	10	60-180	60	94	GapExp	Blank	0	190	2	30	1	distractor	0	753	-1000	212729	13.328	13.259	13.394
ProbeTrack15	6	ProbeTrack	15.0	SCS215b	20120207.125407	20120207.131457	8	0.013327	60	10	60-180	60	65	GapExp	Blank	0	191	2	30	0	target	0	783	-1000	211729	13.328	13.006	13.646
ProbeTrack15	6	ProbeTrack	15.0	SCS215b	20120207.125407	20120207.131503	8	0.013327	60	10	60-180	60	66	GapExp	Blank	0	192	2	1	1	distractor	0	969	-1000	210729	13.328	13.100	13.541
ProbeTrack15	6	ProbeTrack	15.0	SCS215b	20120207.125407	20120207.131509	8	0.013327	60	10	60-180	60	97	GapExp	Blank	0	193	2	3	0	target	0	709	-1000	209729	13.328	13.104	13.547
ProbeTrack15	6	ProbeTrack	15.0	SCS215b	20120207.125407	20120207.131515	8	0.013327	60	10	60-180	60	81	GapExp	Blank	0	194	2	1	0	target	0	1235	-1000	208729	13.328	13.302	13.352
ProbeTrack15	6	ProbeTrack	15.0	SCS215b	20120207.125407	20120207.131521	8	0.013327	60	10	60-180	60	78	GapExp	Blank	0	195	2	3	0	target	0	758	-1000	207729	13.328	13.303	13.354
ProbeTrack15	6	ProbeTrack	15.0	SCS215b	20120207.125407	20120207.131527	8	0.013327	60	10	60-180	60	175	GapExp	Blank	0	196	2	3	0	distractor	1	1028	486	208215	13.328	12.967	13.703
ProbeTrack15	6	ProbeTrack	15.0	SCS215b	20120207.125407	20120207.131534	8	0.013327	60	10	60-180	60	130	GapExp	Blank	0	197	2	0	0	distractor	1	1134	433	208648	13.328	12.821	13.827
ProbeTrack15	6	ProbeTrack	15.0	SCS215b	20120207.125407	20120207.131541	8	0.013327	60	10	60-180	60	172	GapExp	Blank	0	198	2	0	1	target	1	692	654	209302	13.328	12.849	13.801
ProbeTrack15	6	ProbeTrack	15.0	SCS215b	20120207.125407	20120207.131548	8	0.013327	60	10	60-180	60	149	GapExp	Blank	0	199	2	0	1	target	1	626	687	209989	13.328	12.855	13.827
ProbeTrack15	6	ProbeTrack	15.0	SCS215b	20120207.125407	20120207.131554	8	0.013327	60	10	60-180	60	160	GapExp	Blank	0	200	2	1	1	target	1	496	752	210741	13.328	12.913	13.762
ProbeTrack15	6	ProbeTrack	15.0	SCS215b	20120207.131652	20120207.131659	8	0.013328	60	10	60-180	60	149	GapPrac	BigFlash	1	1	2	0	0	distractor	1	1032	484	211225	13.373	12.851	13.815
ProbeTrack15	6	ProbeTrack	15.0	SCS215b	20120207.131652	20120207.131708	8	0.013328	60	10	60-180	60	165	GapPrac	BigFlash	1	2	2	1	1	target	1	540	730	211955	13.328	12.857	13.789
ProbeTrack15	6	ProbeTrack	15.0	SCS215b	20120207.131652	20120207.131715	8	0.013328	60	10	60-180	60	156	GapPrac	BigFlash	1	3	2	1	0	distractor	1	679	661	212616	13.328	13.030	13.629
ProbeTrack15	6	ProbeTrack	15.0	SCS215b	20120207.131652	20120207.131724	8	0.013328	60	10	60-180	60	102	GapPrac	BigFlash	1	4	2	30	0	distractor	1	1007	497	213113	13.328	12.847	13.815
ProbeTrack15	6	ProbeTrack	15.0	SCS215b	20120207.131652	20120207.131730	8	0.013328	60	10	60-180	60	154	GapPrac	BigFlash	1	5	2	0	0	distractor	1	641	680	213793	13.328	12.990	13.674
ProbeTrack15	6	ProbeTrack	15.0	SCS215b	20120207.131652	20120207.131737	8	0.013328	60	10	60-180	60	105	GapPrac	BigFlash	1	6	2	3	0	distractor	1	534	733	214526	13.328	13.089	13.558
ProbeTrack15	6	ProbeTrack	15.0	SCS215b	20120207.131652	20120207.131743	8	0.013328	60	10	60-180	60	118	GapPrac	BigFlash	1	7	2	3	0	distractor	1	493	754	215280	13.328	12.835	13.828
ProbeTrack15	6	ProbeTrack	15.0	SCS215b	20120207.131652	20120207.131749	8	0.013328	60	10	60-180	60	142	GapPrac	BigFlash	1	8	2	30	0	distractor	1	473	764	216044	13.328	12.921	13.751
ProbeTrack15	6	ProbeTrack	15.0	SCS215b	20120207.131652	20120207.131756	8	0.013328	60	10	60-180	60	180	GapPrac	BigFlash	1	9	2	30	1	target	1	407	797	216841	13.328	12.863	13.810
ProbeTrack15	6	ProbeTrack	15.0	SCS215b	20120207.131652	20120207.131803	8	0.013328	60	10	60-180	60	101	GapPrac	BigFlash	1	10	2	0	0	distractor	1	537	732	217573	13.328	12.936	13.713
ProbeTrack15	6	ProbeTrack	15.0	SCS215b	20120207.131652	20120207.131808	8	0.013328	60	10	60-180	60	81	GapPrac	BigFlash	1	11	2	30	1	target	1	444	778	218351	13.328	12.924	13.739
ProbeTrack15	6	ProbeTrack	15.0	SCS215b	20120207.131652	20120207.131815	8	0.013328	60	10	60-180	60	111	GapPrac	BigFlash	1	12	2	1	1	distractor	0	590	-1000	217351	13.328	13.134	13.528
ProbeTrack15	6	ProbeTrack	15.0	SCS215b	20120207.131652	20120207.131821	8	0.013328	60	10	60-180	60	129	GapPrac	BigFlash	1	13	2	30	0	distractor	1	571	715	218066	13.328	12.901	13.747
ProbeTrack15	6	ProbeTrack	15.0	SCS215b	20120207.131652	20120207.131827	8	0.013328	60	10	60-180	60	157	GapPrac	BigFlash	1	14	2	3	1	target	1	397	802	218868	13.328	12.927	13.738
ProbeTrack15	6	ProbeTrack	15.0	SCS215b	20120207.131652	20120207.131834	8	0.013328	60	10	60-180	60	121	GapPrac	BigFlash	1	15	2	3	1	target	1	1355	323	219191	13.328	12.936	13.725
ProbeTrack15	6	ProbeTrack	15.0	SCS215b	20120207.131652	20120207.131840	8	0.013328	60	10	60-180	60	140	GapPrac	BigFlash	1	16	2	1	1	target	1	356	822	220013	13.328	12.987	13.665
ProbeTrack15	6	ProbeTrack	15.0	SCS215b	20120207.131652	20120207.131847	8	0.013328	60	10	60-180	60	120	GapPrac	BigFlash	1	17	2	1	0	distractor	1	521	740	220753	13.328	12.913	13.740
ProbeTrack15	6	ProbeTrack	15.0	SCS215b	20120207.131652	20120207.131853	8	0.013328	60	10	60-180	60	134	GapPrac	BigFlash	1	18	2	1	0	distractor	1	778	611	221364	13.328	12.967	13.671
ProbeTrack15	6	ProbeTrack	15.0	SCS215b	20120207.131652	20120207.131859	8	0.013328	60	10	60-180	60	90	GapPrac	BigFlash	1	19	2	0	1	target	1	443	779	222143	13.328	13.024	13.632
ProbeTrack15	6	ProbeTrack	15.0	SCS215b	20120207.131652	20120207.131905	8	0.013328	60	10	60-180	60	127	GapPrac	BigFlash	1	20	2	0	1	target	1	495	753	222896	13.328	12.838	13.819
ProbeTrack15	6	ProbeTrack	15.0	SCS215b	20120207.132004	20120207.132008	8	0.013328	60	10	60-180	60	160	GapExp	BigFlash	1	1	2	30	0	distractor	1	540	730	223626	13.370	13.102	13.558
ProbeTrack15	6	ProbeTrack	15.0	SCS215b	20120207.132004	20120207.132016	8	0.013328	60	10	60-180	60	179	GapExp	BigFlash	1	2	2	3	0	distractor	1	444	778	224404	13.328	11.186	15.470
ProbeTrack15	6	ProbeTrack	15.0	SCS215b	20120207.132004	20120207.132023	8	0.013328	60	10	60-180	60	88	GapExp	BigFlash	1	3	2	1	1	target	1	581	710	225114	13.328	13.035	13.626
ProbeTrack15	6	ProbeTrack	15.0	SCS215b	20120207.132004	20120207.132029	8	0.013328	60	10	60-180	60	171	GapExp	BigFlash	1	4	2	30	1	target	1	628	686	225800	13.329	6.639	20.004
ProbeTrack15	6	ProbeTrack	15.0	SCS215b	20120207.132004	20120207.132036	8	0.013328	60	10	60-180	60	78	GapExp	BigFlash	1	5	2	1	0	distractor	1	544	728	226528	13.328	9.344	17.299
ProbeTrack15	6	ProbeTrack	15.0	SCS215b	20120207.132004	20120207.132042	8	0.013328	60	10	60-180	60	92	GapExp	BigFlash	1	6	2	3	1	target	1	336	832	227360	13.328	8.775	17.893
ProbeTrack15	6	ProbeTrack	15.0	SCS215b	20120207.132004	20120207.132047	8	0.013328	60	10	60-180	60	147	GapExp	BigFlash	1	7	2	0	1	target	1	337	832	228192	13.328	11.493	15.196
ProbeTrack15	6	ProbeTrack	15.0	SCS215b	20120207.132004	20120207.132054	8	0.013328	60	10	60-180	60	172	GapExp	BigFlash	1	8	2	0	0	target	0	427	-1000	227192	13.328	7.959	18.712
ProbeTrack15	6	ProbeTrack	15.0	SCS215b	20120207.132004	20120207.132100	8	0.013328	60	10	60-180	60	110	GapExp	BigFlash	0	9	2	30	0	distractor	1	619	691	227883	13.328	7.881	18.773
ProbeTrack15	6	ProbeTrack	15.0	SCS215b	20120207.132004	20120207.132106	8	0.013328	60	10	60-180	60	86	GapExp	BigFlash	0	10	2	1	0	distractor	1	532	734	228617	13.328	10.787	15.873
ProbeTrack15	6	ProbeTrack	15.0	SCS215b	20120207.132004	20120207.132112	8	0.013328	60	10	60-180	60	171	GapExp	BigFlash	0	11	2	3	0	distractor	1	565	718	229335	13.328	9.293	17.360
ProbeTrack15	6	ProbeTrack	15.0	SCS215b	20120207.132004	20120207.132119	8	0.013328	60	10	60-180	60	84	GapExp	BigFlash	0	12	2	0	0	distractor	1	547	727	230062	13.328	8.392	18.251
ProbeTrack15	6	ProbeTrack	15.0	SCS215b	20120207.132004	20120207.132124	8	0.013328	60	10	60-180	60	78	GapExp	BigFlash	0	13	2	1	0	distractor	1	450	775	230837	13.328	6.493	20.177
ProbeTrack15	6	ProbeTrack	15.0	SCS215b	20120207.132004	20120207.132130	8	0.013328	60	10	60-180	60	177	GapExp	BigFlash	0	14	2	0	0	distractor	1	408	796	231633	13.373	7.918	26.747
ProbeTrack15	6	ProbeTrack	15.0	SCS215b	20120207.132004	20120207.132136	8	0.013328	60	10	60-180	60	72	GapExp	BigFlash	0	15	2	1	0	distractor	1	514	743	232376	13.328	9.176	17.467
ProbeTrack15	6	ProbeTrack	15.0	SCS215b	20120207.132004	20120207.132141	8	0.013328	60	10	60-180	60	127	GapExp	BigFlash	0	16	2	3	0	distractor	1	422	789	233165	13.328	13.096	13.550
ProbeTrack15	6	ProbeTrack	15.0	SCS215b	20120207.132004	20120207.132147	8	0.013328	60	10	60-180	60	180	GapExp	BigFlash	0	17	2	0	1	target	1	433	784	233949	13.328	10.227	16.433
ProbeTrack15	6	ProbeTrack	15.0	SCS215b	20120207.132004	20120207.132154	8	0.013328	60	10	60-180	60	93	GapExp	BigFlash	0	18	2	30	0	distractor	1	621	690	234639	13.355	6.317	20.349
ProbeTrack15	6	ProbeTrack	15.0	SCS215b	20120207.132004	20120207.132200	8	0.013328	60	10	60-180	60	102	GapExp	BigFlash	0	19	2	0	1	target	1	489	756	235395	13.328	5.838	20.812
ProbeTrack15	6	ProbeTrack	15.0	SCS215b	20120207.132004	20120207.132206	8	0.013328	60	10	60-180	60	175	GapExp	BigFlash	0	20	2	1	1	target	1	452	774	236169	13.328	7.657	19.003
ProbeTrack15	6	ProbeTrack	15.0	SCS215b	20120207.132004	20120207.132213	8	0.013328	60	10	60-180	60	171	GapExp	BigFlash	0	21	2	1	1	target	1	437	782	236951	13.328	9.791	16.870
ProbeTrack15	6	ProbeTrack	15.0	SCS215b	20120207.132004	20120207.132219	8	0.013328	60	10	60-180	60	121	GapExp	BigFlash	0	22	2	1	1	target	1	350	825	237776	13.328	5.820	20.818
ProbeTrack15	6	ProbeTrack	15.0	SCS215b	20120207.132004	20120207.132226	8	0.013328	60	10	60-180	60	158	GapExp	BigFlash	0	23	2	0	0	target	0	374	-1000	236776	13.328	10.848	15.815
ProbeTrack15	6	ProbeTrack	15.0	SCS215b	20120207.132004	20120207.132232	8	0.013328	60	10	60-180	60	92	GapExp	BigFlash	0	24	2	3	1	target	1	460	770	237546	13.328	11.068	15.575
ProbeTrack15	6	ProbeTrack	15.0	SCS215b	20120207.132004	20120207.132237	8	0.013328	60	10	60-180	60	91	GapExp	BigFlash	0	25	2	3	1	target	1	379	811	238357	13.328	10.639	16.029
ProbeTrack15	6	ProbeTrack	15.0	SCS215b	20120207.132004	20120207.132243	8	0.013328	60	10	60-180	60	162	GapExp	BigFlash	0	26	2	30	1	target	1	481	760	239117	13.328	13.086	13.557
ProbeTrack15	6	ProbeTrack	15.0	SCS215b	20120207.132004	20120207.132249	8	0.013328	60	10	60-180	60	141	GapExp	BigFlash	0	27	2	30	1	target	1	540	730	239847	13.328	9.495	17.167
ProbeTrack15	6	ProbeTrack	15.0	SCS215b	20120207.132004	20120207.132256	8	0.013328	60	10	60-180	60	95	GapExp	BigFlash	0	28	2	3	0	distractor	1	541	730	240577	13.328	13.261	13.395
ProbeTrack15	6	ProbeTrack	15.0	SCS215b	20120207.132004	20120207.132302	8	0.013328	60	10	60-180	60	126	GapExp	BigFlash	0	29	2	1	1	target	1	395	803	241380	13.328	9.765	16.882
ProbeTrack15	6	ProbeTrack	15.0	SCS215b	20120207.132004	20120207.132308	8	0.013328	60	10	60-180	60	121	GapExp	BigFlash	0	30	2	3	0	distractor	1	518	741	242121	13.328	13.273	13.382
ProbeTrack15	6	ProbeTrack	15.0	SCS215b	20120207.132004	20120207.132314	8	0.013328	60	10	60-180	60	73	GapExp	BigFlash	0	31	2	30	0	distractor	1	573	714	242835	13.328	9.172	17.496
ProbeTrack15	6	ProbeTrack	15.0	SCS215b	20120207.132004	20120207.132319	8	0.013328	60	10	60-180	60	161	GapExp	BigFlash	0	32	2	3	1	target	1	810	595	243430	13.328	13.078	13.566
ProbeTrack15	6	ProbeTrack	15.0	SCS215b	20120207.132004	20120207.132326	8	0.013328	60	10	60-180	60	156	GapExp	BigFlash	0	33	2	3	0	distractor	1	462	769	244199	13.328	8.662	17.984
ProbeTrack15	6	ProbeTrack	15.0	SCS215b	20120207.132004	20120207.132333	8	0.013328	60	10	60-180	60	162	GapExp	BigFlash	0	34	2	30	1	target	1	572	714	244913	13.328	10.413	16.226
ProbeTrack15	6	ProbeTrack	15.0	SCS215b	20120207.132004	20120207.132340	8	0.013328	60	10	60-180	60	172	GapExp	BigFlash	0	35	2	0	0	distractor	1	639	681	245594	13.328	10.793	15.879
ProbeTrack15	6	ProbeTrack	15.0	SCS215b	20120207.132004	20120207.132348	8	0.013328	60	10	60-180	60	73	GapExp	BigFlash	0	36	2	0	1	target	1	392	804	246398	13.328	11.689	14.938
ProbeTrack15	6	ProbeTrack	15.0	SCS215b	20120207.132004	20120207.132353	8	0.013328	60	10	60-180	60	140	GapExp	BigFlash	0	37	2	30	1	target	1	595	703	247101	13.328	9.636	17.037
ProbeTrack15	6	ProbeTrack	15.0	SCS215b	20120207.132004	20120207.132359	8	0.013328	60	10	60-180	60	69	GapExp	BigFlash	0	38	2	1	1	target	1	325	838	247939	13.328	11.287	15.386
ProbeTrack15	6	ProbeTrack	15.0	SCS215b	20120207.132004	20120207.132405	8	0.013328	60	10	60-180	60	81	GapExp	BigFlash	0	39	2	30	0	distractor	1	675	663	248602	13.328	12.579	14.081
ProbeTrack15	6	ProbeTrack	15.0	SCS215b	20120207.132004	20120207.132411	8	0.013328	60	10	60-180	60	168	GapExp	BigFlash	0	40	2	3	0	distractor	1	468	766	249368	13.328	4.626	22.028
ProbeTrack15	6	ProbeTrack	15.0	SCS215b	20120207.132004	20120207.132417	8	0.013328	60	10	60-180	60	119	GapExp	BigFlash	0	41	2	1	1	target	1	527	737	250105	13.328	5.860	20.808
ProbeTrack15	6	ProbeTrack	15.0	SCS215b	20120207.132004	20120207.132423	8	0.013328	60	10	60-180	60	154	GapExp	BigFlash	0	42	2	1	1	target	1	346	827	250932	13.328	10.420	16.274
ProbeTrack15	6	ProbeTrack	15.0	SCS215b	20120207.132004	20120207.132429	8	0.013328	60	10	60-180	60	75	GapExp	BigFlash	0	43	2	1	0	distractor	1	606	697	251629	13.328	13.095	13.559
ProbeTrack15	6	ProbeTrack	15.0	SCS215b	20120207.132004	20120207.132435	8	0.013328	60	10	60-180	60	167	GapExp	BigFlash	0	44	2	30	0	distractor	1	751	625	252254	13.328	9.868	16.772
ProbeTrack15	6	ProbeTrack	15.0	SCS215b	20120207.132004	20120207.132443	8	0.013328	60	10	60-180	60	66	GapExp	BigFlash	0	45	2	30	1	target	1	439	781	253035	13.328	10.696	15.963
ProbeTrack15	6	ProbeTrack	15.0	SCS215b	20120207.132004	20120207.132448	8	0.013328	60	10	60-180	60	100	GapExp	BigFlash	0	46	2	30	0	target	0	459	-1000	252035	13.328	6.846	19.796
ProbeTrack15	6	ProbeTrack	15.0	SCS215b	20120207.132004	20120207.132454	8	0.013328	60	10	60-180	60	65	GapExp	BigFlash	0	47	2	30	1	target	1	392	804	252839	13.328	13.304	13.355
ProbeTrack15	6	ProbeTrack	15.0	SCS215b	20120207.132004	20120207.132459	8	0.013328	60	10	60-180	60	167	GapExp	BigFlash	0	48	2	0	0	distractor	1	526	737	253576	13.328	13.184	13.463
ProbeTrack15	6	ProbeTrack	15.0	SCS215b	20120207.132004	20120207.132506	8	0.013328	60	10	60-180	60	147	GapExp	BigFlash	0	49	2	0	1	target	1	421	790	254366	13.328	12.065	14.602
ProbeTrack15	6	ProbeTrack	15.0	SCS215b	20120207.132004	20120207.132512	8	0.013328	60	10	60-180	60	143	GapExp	BigFlash	0	50	2	3	0	distractor	1	392	804	255170	13.328	9.572	17.082
ProbeTrack15	6	ProbeTrack	15.0	SCS215b	20120207.132004	20120207.132518	8	0.013328	60	10	60-180	60	140	GapExp	BigFlash	0	51	2	0	0	target	0	1244	-1000	254170	13.328	11.577	15.136
ProbeTrack15	6	ProbeTrack	15.0	SCS215b	20120207.132004	20120207.132525	8	0.013328	60	10	60-180	60	90	GapExp	BigFlash	0	52	2	0	0	distractor	1	592	704	254874	13.328	7.553	19.078
ProbeTrack15	6	ProbeTrack	15.0	SCS215b	20120207.132004	20120207.132531	8	0.013328	60	10	60-180	60	62	GapExp	BigFlash	0	53	2	3	0	distractor	1	559	721	255595	13.328	9.079	17.564
ProbeTrack15	6	ProbeTrack	15.0	SCS215b	20120207.132004	20120207.132537	8	0.013328	60	10	60-180	60	98	GapExp	BigFlash	0	54	2	0	0	distractor	1	479	761	256356	13.328	4.106	22.557
ProbeTrack15	6	ProbeTrack	15.0	SCS215b	20120207.132004	20120207.132542	8	0.013328	60	10	60-180	60	147	GapExp	BigFlash	0	55	2	30	1	target	1	492	754	257110	13.328	4.801	21.851
ProbeTrack15	6	ProbeTrack	15.0	SCS215b	20120207.132004	20120207.132549	8	0.013328	60	10	60-180	60	177	GapExp	BigFlash	0	56	2	3	1	target	1	431	785	257895	13.308	7.351	19.250
ProbeTrack15	6	ProbeTrack	15.0	SCS215b	20120207.132004	20120207.132555	8	0.013328	60	10	60-180	60	129	GapExp	BigFlash	0	57	2	30	0	distractor	1	586	707	258602	13.328	9.507	17.157
ProbeTrack15	6	ProbeTrack	15.0	SCS215b	20120207.132004	20120207.132602	8	0.013328	60	10	60-180	60	141	GapExp	BigFlash	0	58	2	30	0	distractor	1	537	732	259334	13.328	11.468	15.182
ProbeTrack15	6	ProbeTrack	15.0	SCS215b	20120207.132004	20120207.132609	8	0.013328	60	10	60-180	60	71	GapExp	BigFlash	0	59	2	0	0	distractor	1	527	737	260071	13.328	10.300	16.350
ProbeTrack15	6	ProbeTrack	15.0	SCS215b	20120207.132004	20120207.132614	8	0.013328	60	10	60-180	60	148	GapExp	BigFlash	0	60	2	1	1	target	1	473	764	260835	13.328	12.464	14.187
ProbeTrack15	6	ProbeTrack	15.0	SCS215b	20120207.132004	20120207.132620	8	0.013328	60	10	60-180	60	77	GapExp	BigFlash	0	61	2	30	0	distractor	1	588	706	261541	13.328	7.646	19.037
ProbeTrack15	6	ProbeTrack	15.0	SCS215b	20120207.132004	20120207.132627	8	0.013328	60	10	60-180	60	91	GapExp	BigFlash	0	62	2	3	1	target	1	342	829	262370	13.328	4.028	22.618
ProbeTrack15	6	ProbeTrack	15.0	SCS215b	20120207.132004	20120207.132632	8	0.013328	60	10	60-180	60	81	GapExp	BigFlash	0	63	2	3	0	distractor	1	728	636	263006	13.328	3.740	22.904
ProbeTrack15	6	ProbeTrack	15.0	SCS215b	20120207.132004	20120207.132638	8	0.013328	60	10	60-180	60	110	GapExp	BigFlash	0	64	2	1	1	target	1	383	809	263815	13.328	6.893	19.767
ProbeTrack15	6	ProbeTrack	15.0	SCS215b	20120207.132004	20120207.132644	8	0.013328	60	10	60-180	60	96	GapExp	BigFlash	0	65	2	3	1	target	1	319	841	264656	13.328	7.185	19.448
ProbeTrack15	6	ProbeTrack	15.0	SCS215b	20120207.132004	20120207.132650	8	0.013328	60	10	60-180	60	68	GapExp	BigFlash	0	66	2	30	0	distractor	1	400	800	265456	13.328	12.381	14.258
ProbeTrack15	6	ProbeTrack	15.0	SCS215b	20120207.132004	20120207.132655	8	0.013328	60	10	60-180	60	177	GapExp	BigFlash	0	67	2	0	0	distractor	1	571	715	266171	13.328	5.428	21.237
ProbeTrack15	6	ProbeTrack	15.0	SCS215b	20120207.132004	20120207.132702	8	0.013328	60	10	60-180	60	162	GapExp	BigFlash	0	68	2	1	1	target	1	325	838	267009	13.328	12.715	13.956
