exp	sub	code	rev	comp	runtime	trialtime	nstim	refreshdur	cuedur	gapdur	gapOnsetRange	durPostProbe	gapOnsetTime	blocktype	gaptype	prac	trial	ntargets	soa	probeTarget	resp	acc	rt	pts	tpts	meanFrameDur	minFrameDur	maxFrameDur
ProbeTrack15	8	ProbeTrack	15.0	SCS215b	20120207.160241	20120207.160245	8	0.013328	60	0	60-180	60	116	NoGap	None	1	1	2	3	0	target	0	1947	-1000	-1000	13.380	13.095	13.560
ProbeTrack15	8	ProbeTrack	15.0	SCS215b	20120207.160241	20120207.160509	8	0.013328	60	0	60-180	60	159	NoGap	None	1	2	2	3	1	distractor	0	3243	-1000	-2000	13.328	12.906	13.752
ProbeTrack15	8	ProbeTrack	15.0	SCS215b	20120207.160241	20120207.160529	8	0.013328	60	0	60-180	60	113	NoGap	None	1	3	2	30	1	target	1	839	581	-1419	13.328	12.851	13.792
ProbeTrack15	8	ProbeTrack	15.0	SCS215b	20120207.160241	20120207.160540	8	0.013328	60	0	60-180	60	92	NoGap	None	1	4	2	3	1	target	1	654	673	-746	13.328	13.092	13.572
ProbeTrack15	8	ProbeTrack	15.0	SCS215b	20120207.160241	20120207.160550	8	0.013328	60	0	60-180	60	170	NoGap	None	1	5	2	0	1	target	1	570	715	-31	13.328	12.871	13.791
ProbeTrack15	8	ProbeTrack	15.0	SCS215b	20120207.160241	20120207.160600	8	0.013328	60	0	60-180	60	73	NoGap	None	1	6	2	0	1	target	1	746	627	596	13.328	13.090	13.565
ProbeTrack15	8	ProbeTrack	15.0	SCS215b	20120207.160241	20120207.160606	8	0.013328	60	0	60-180	60	80	NoGap	None	1	7	2	3	1	target	1	422	789	1385	13.328	12.935	13.726
ProbeTrack15	8	ProbeTrack	15.0	SCS215b	20120207.160241	20120207.160611	8	0.013328	60	0	60-180	60	143	NoGap	None	1	8	2	30	0	distractor	1	508	746	2131	13.328	12.841	13.813
ProbeTrack15	8	ProbeTrack	15.0	SCS215b	20120207.160241	20120207.160618	8	0.013328	60	0	60-180	60	142	NoGap	None	1	9	2	0	0	distractor	1	549	726	2857	13.328	12.863	13.795
ProbeTrack15	8	ProbeTrack	15.0	SCS215b	20120207.160241	20120207.160625	8	0.013328	60	0	60-180	60	142	NoGap	None	1	10	2	30	0	distractor	1	556	722	3579	13.328	12.873	13.798
ProbeTrack15	8	ProbeTrack	15.0	SCS215b	20120207.160241	20120207.160632	8	0.013328	60	0	60-180	60	170	NoGap	None	1	11	2	0	0	distractor	1	599	701	4280	13.328	12.844	13.818
ProbeTrack15	8	ProbeTrack	15.0	SCS215b	20120207.160241	20120207.160639	8	0.013328	60	0	60-180	60	87	NoGap	None	1	12	2	3	0	distractor	1	599	701	4981	13.328	12.986	13.683
ProbeTrack15	8	ProbeTrack	15.0	SCS215b	20120207.160241	20120207.160645	8	0.013328	60	0	60-180	60	94	NoGap	None	1	13	2	30	0	distractor	1	677	662	5643	13.328	12.922	13.604
ProbeTrack15	8	ProbeTrack	15.0	SCS215b	20120207.160241	20120207.160651	8	0.013328	60	0	60-180	60	86	NoGap	None	1	14	2	3	0	target	0	479	-1000	4643	13.328	13.011	13.655
ProbeTrack15	8	ProbeTrack	15.0	SCS215b	20120207.160241	20120207.160657	8	0.013328	60	0	60-180	60	177	NoGap	None	1	15	2	1	0	distractor	1	822	589	5232	13.328	13.043	13.637
ProbeTrack15	8	ProbeTrack	15.0	SCS215b	20120207.160241	20120207.160705	8	0.013328	60	0	60-180	60	130	NoGap	None	1	16	2	30	1	distractor	0	530	-1000	4232	13.326	12.839	13.531
ProbeTrack15	8	ProbeTrack	15.0	SCS215b	20120207.160241	20120207.160712	8	0.013328	60	0	60-180	60	79	NoGap	None	1	17	2	1	1	target	1	652	674	4906	13.328	12.847	13.830
ProbeTrack15	8	ProbeTrack	15.0	SCS215b	20120207.160241	20120207.160718	8	0.013328	60	0	60-180	60	127	NoGap	None	1	18	2	1	1	target	1	401	800	5706	13.328	12.959	13.705
ProbeTrack15	8	ProbeTrack	15.0	SCS215b	20120207.160241	20120207.160725	8	0.013328	60	0	60-180	60	79	NoGap	None	1	19	2	3	0	distractor	1	579	711	6417	13.328	13.173	13.477
ProbeTrack15	8	ProbeTrack	15.0	SCS215b	20120207.160241	20120207.160730	8	0.013328	60	0	60-180	60	161	NoGap	None	1	20	2	1	0	distractor	1	613	694	7111	13.328	13.245	13.406
ProbeTrack15	8	ProbeTrack	15.0	SCS215b	20120207.160241	20120207.160737	8	0.013328	60	0	60-180	60	142	NoGap	None	1	21	2	3	1	target	1	544	728	7839	13.328	12.870	13.773
ProbeTrack15	8	ProbeTrack	15.0	SCS215b	20120207.160241	20120207.160744	8	0.013328	60	0	60-180	60	142	NoGap	None	1	22	2	0	1	target	1	492	754	8593	13.328	12.956	13.697
ProbeTrack15	8	ProbeTrack	15.0	SCS215b	20120207.160241	20120207.160751	8	0.013328	60	0	60-180	60	161	NoGap	None	1	23	2	1	0	distractor	1	451	775	9368	13.328	12.888	13.758
ProbeTrack15	8	ProbeTrack	15.0	SCS215b	20120207.160241	20120207.160758	8	0.013328	60	0	60-180	60	158	NoGap	None	1	24	2	30	0	distractor	1	528	736	10104	13.328	13.005	13.651
ProbeTrack15	8	ProbeTrack	15.0	SCS215b	20120207.160241	20120207.160805	8	0.013328	60	0	60-180	60	68	NoGap	None	1	25	2	0	0	distractor	1	541	730	10834	13.328	13.287	13.373
ProbeTrack15	8	ProbeTrack	15.0	SCS215b	20120207.160241	20120207.160811	8	0.013328	60	0	60-180	60	180	NoGap	None	1	26	2	30	1	target	1	452	774	11608	13.328	12.848	13.822
ProbeTrack15	8	ProbeTrack	15.0	SCS215b	20120207.160241	20120207.160818	8	0.013328	60	0	60-180	60	124	NoGap	None	1	27	2	0	0	target	0	343	-1000	10608	13.328	13.046	13.623
ProbeTrack15	8	ProbeTrack	15.0	SCS215b	20120207.160241	20120207.160825	8	0.013328	60	0	60-180	60	66	NoGap	None	1	28	2	1	1	target	1	504	748	11356	13.328	13.251	13.418
ProbeTrack15	8	ProbeTrack	15.0	SCS215b	20120207.160241	20120207.160831	8	0.013328	60	0	60-180	60	137	NoGap	None	1	29	2	1	1	target	1	444	778	12134	13.328	13.044	13.594
ProbeTrack15	8	ProbeTrack	15.0	SCS215b	20120207.160241	20120207.160838	8	0.013328	60	0	60-180	60	176	NoGap	None	1	30	2	0	0	distractor	1	525	738	12872	13.328	12.828	13.835
ProbeTrack15	8	ProbeTrack	15.0	SCS215b	20120207.160241	20120207.160845	8	0.013328	60	0	60-180	60	123	NoGap	None	1	31	2	3	0	distractor	1	492	754	13626	13.328	12.846	13.797
ProbeTrack15	8	ProbeTrack	15.0	SCS215b	20120207.160241	20120207.160851	8	0.013328	60	0	60-180	60	130	NoGap	None	1	32	2	30	1	target	1	618	691	14317	13.328	12.935	13.824
ProbeTrack15	8	ProbeTrack	15.0	SCS215b	20120207.160241	20120207.160858	8	0.013328	60	0	60-180	60	140	NoGap	None	1	33	2	3	1	target	1	507	747	15064	13.328	13.130	13.559
ProbeTrack15	8	ProbeTrack	15.0	SCS215b	20120207.160241	20120207.160905	8	0.013328	60	0	60-180	60	88	NoGap	None	1	34	2	1	1	target	1	407	797	15861	13.328	12.877	13.806
ProbeTrack15	8	ProbeTrack	15.0	SCS215b	20120207.160241	20120207.160910	8	0.013328	60	0	60-180	60	72	NoGap	None	1	35	2	0	1	target	1	424	788	16649	13.328	13.168	13.498
ProbeTrack15	8	ProbeTrack	15.0	SCS215b	20120207.160241	20120207.160916	8	0.013328	60	0	60-180	60	106	NoGap	None	1	36	2	30	1	target	1	480	760	17409	13.328	13.155	13.501
ProbeTrack15	8	ProbeTrack	15.0	SCS215b	20120207.160241	20120207.160922	8	0.013328	60	0	60-180	60	101	NoGap	None	1	37	2	0	1	target	1	347	827	18236	13.328	12.888	13.765
ProbeTrack15	8	ProbeTrack	15.0	SCS215b	20120207.160241	20120207.160929	8	0.013328	60	0	60-180	60	115	NoGap	None	1	38	2	1	0	distractor	1	515	743	18979	13.328	12.892	13.772
ProbeTrack15	8	ProbeTrack	15.0	SCS215b	20120207.160241	20120207.160936	8	0.013328	60	0	60-180	60	132	NoGap	None	1	39	2	1	0	distractor	1	524	738	19717	13.328	12.925	13.760
ProbeTrack15	8	ProbeTrack	15.0	SCS215b	20120207.160241	20120207.160942	8	0.013328	60	0	60-180	60	172	NoGap	None	1	40	2	30	0	distractor	1	614	693	20410	13.328	12.913	13.748
ProbeTrack15	8	ProbeTrack	15.0	SCS215b	20120207.161022	20120207.161032	8	0.013328	60	10	60-180	60	105	GapPrac	BigFlash	1	1	2	0	1	target	1	930	535	20945	13.381	13.097	13.565
ProbeTrack15	8	ProbeTrack	15.0	SCS215b	20120207.161022	20120207.161041	8	0.013328	60	10	60-180	60	91	GapPrac	BigFlash	1	2	2	1	1	target	1	631	685	21630	13.328	13.179	13.467
ProbeTrack15	8	ProbeTrack	15.0	SCS215b	20120207.161022	20120207.161048	8	0.013328	60	10	60-180	60	175	GapPrac	BigFlash	1	3	2	3	1	target	1	361	820	22450	13.328	13.215	13.444
ProbeTrack15	8	ProbeTrack	15.0	SCS215b	20120207.161022	20120207.161055	8	0.013328	60	10	60-180	60	179	GapPrac	BigFlash	1	4	2	0	0	distractor	1	687	657	23107	13.328	12.902	13.744
ProbeTrack15	8	ProbeTrack	15.0	SCS215b	20120207.161022	20120207.161103	8	0.013328	60	10	60-180	60	160	GapPrac	BigFlash	1	5	2	30	0	distractor	1	512	744	23851	13.328	12.850	13.812
ProbeTrack15	8	ProbeTrack	15.0	SCS215b	20120207.161022	20120207.161111	8	0.013328	60	10	60-180	60	72	GapPrac	BigFlash	1	6	2	3	0	distractor	1	643	679	24530	13.328	12.866	13.801
ProbeTrack15	8	ProbeTrack	15.0	SCS215b	20120207.161022	20120207.161117	8	0.013328	60	10	60-180	60	90	GapPrac	BigFlash	1	7	2	1	1	target	1	581	710	25240	13.328	13.027	13.616
ProbeTrack15	8	ProbeTrack	15.0	SCS215b	20120207.161022	20120207.161123	8	0.013328	60	10	60-180	60	100	GapPrac	BigFlash	1	8	2	30	1	target	1	680	660	25900	13.328	12.860	13.799
ProbeTrack15	8	ProbeTrack	15.0	SCS215b	20120207.161022	20120207.161130	8	0.013328	60	10	60-180	60	88	GapPrac	BigFlash	1	9	2	1	1	target	1	589	706	26606	13.328	13.103	13.551
ProbeTrack15	8	ProbeTrack	15.0	SCS215b	20120207.161022	20120207.161138	8	0.013328	60	10	60-180	60	75	GapPrac	BigFlash	1	10	2	3	1	target	1	415	793	27399	13.328	12.880	13.771
ProbeTrack15	8	ProbeTrack	15.0	SCS215b	20120207.161022	20120207.161144	8	0.013328	60	10	60-180	60	70	GapPrac	BigFlash	1	11	2	3	1	target	1	528	736	28135	13.328	12.880	13.787
ProbeTrack15	8	ProbeTrack	15.0	SCS215b	20120207.161022	20120207.161152	8	0.013328	60	10	60-180	60	167	GapPrac	BigFlash	1	12	2	1	0	distractor	1	644	678	28813	13.328	12.940	13.720
ProbeTrack15	8	ProbeTrack	15.0	SCS215b	20120207.161022	20120207.161159	8	0.013328	60	10	60-180	60	122	GapPrac	BigFlash	1	13	2	0	1	target	1	650	675	29488	13.328	13.091	13.550
ProbeTrack15	8	ProbeTrack	15.0	SCS215b	20120207.161022	20120207.161206	8	0.013328	60	10	60-180	60	159	GapPrac	BigFlash	1	14	2	30	1	target	1	472	764	30252	13.328	12.968	13.678
ProbeTrack15	8	ProbeTrack	15.0	SCS215b	20120207.161022	20120207.161214	8	0.013328	60	10	60-180	60	87	GapPrac	BigFlash	1	15	2	30	0	distractor	1	406	797	31049	13.328	13.047	13.606
ProbeTrack15	8	ProbeTrack	15.0	SCS215b	20120207.161022	20120207.161220	8	0.013328	60	10	60-180	60	94	GapPrac	BigFlash	1	16	2	3	0	distractor	1	600	700	31749	13.328	12.918	13.743
ProbeTrack15	8	ProbeTrack	15.0	SCS215b	20120207.161022	20120207.161226	8	0.013328	60	10	60-180	60	87	GapPrac	BigFlash	1	17	2	0	0	distractor	1	537	732	32481	13.328	13.017	13.626
ProbeTrack15	8	ProbeTrack	15.0	SCS215b	20120207.161022	20120207.161233	8	0.013328	60	10	60-180	60	147	GapPrac	BigFlash	1	18	2	0	1	target	1	392	804	33285	13.328	12.860	13.789
ProbeTrack15	8	ProbeTrack	15.0	SCS215b	20120207.161022	20120207.161239	8	0.013328	60	10	60-180	60	75	GapPrac	BigFlash	1	19	2	1	0	distractor	1	605	698	33983	13.328	12.837	13.816
ProbeTrack15	8	ProbeTrack	15.0	SCS215b	20120207.161022	20120207.161247	8	0.013328	60	10	60-180	60	77	GapPrac	BigFlash	1	20	2	0	0	distractor	1	524	738	34721	13.328	13.263	13.393
ProbeTrack15	8	ProbeTrack	15.0	SCS215b	20120207.161309	20120207.161312	8	0.013328	60	10	60-180	60	127	GapExp	BigFlash	1	1	2	1	0	distractor	1	621	690	35411	13.379	12.950	13.715
ProbeTrack15	8	ProbeTrack	15.0	SCS215b	20120207.161309	20120207.161319	8	0.013328	60	10	60-180	60	155	GapExp	BigFlash	1	2	2	1	1	target	1	444	778	36189	13.328	12.855	13.808
ProbeTrack15	8	ProbeTrack	15.0	SCS215b	20120207.161309	20120207.161326	8	0.013328	60	10	60-180	60	93	GapExp	BigFlash	1	3	2	30	1	target	1	462	769	36958	13.328	12.879	13.788
ProbeTrack15	8	ProbeTrack	15.0	SCS215b	20120207.161309	20120207.161333	8	0.013328	60	10	60-180	60	86	GapExp	BigFlash	1	4	2	0	1	target	1	501	750	37708	13.328	12.836	13.809
ProbeTrack15	8	ProbeTrack	15.0	SCS215b	20120207.161309	20120207.161338	8	0.013328	60	10	60-180	60	84	GapExp	BigFlash	1	5	2	0	0	distractor	1	549	726	38434	13.328	12.887	13.783
ProbeTrack15	8	ProbeTrack	15.0	SCS215b	20120207.161309	20120207.161344	8	0.013328	60	10	60-180	60	112	GapExp	BigFlash	1	6	2	3	1	target	1	318	841	39275	13.328	12.846	13.825
ProbeTrack15	8	ProbeTrack	15.0	SCS215b	20120207.161309	20120207.161350	8	0.013328	60	10	60-180	60	167	GapExp	BigFlash	1	7	2	30	0	distractor	1	479	761	40036	13.412	12.893	40.153
ProbeTrack15	8	ProbeTrack	15.0	SCS215b	20120207.161309	20120207.161357	8	0.013328	60	10	60-180	60	71	GapExp	BigFlash	1	8	2	3	0	distractor	1	446	777	40813	13.328	12.823	13.826
ProbeTrack15	8	ProbeTrack	15.0	SCS215b	20120207.161309	20120207.161403	8	0.013328	60	10	60-180	60	140	GapExp	BigFlash	0	9	2	3	1	target	1	522	739	41552	13.328	12.916	13.663
ProbeTrack15	8	ProbeTrack	15.0	SCS215b	20120207.161309	20120207.161410	8	0.013328	60	10	60-180	60	131	GapExp	BigFlash	0	10	2	30	1	target	1	419	791	42343	13.328	12.866	13.808
ProbeTrack15	8	ProbeTrack	15.0	SCS215b	20120207.161309	20120207.161417	8	0.013328	60	10	60-180	60	93	GapExp	BigFlash	0	11	2	0	1	target	1	450	775	43118	13.328	12.820	13.831
ProbeTrack15	8	ProbeTrack	15.0	SCS215b	20120207.161309	20120207.161423	8	0.013328	60	10	60-180	60	164	GapExp	BigFlash	0	12	2	30	1	target	1	600	700	43818	13.328	13.303	13.352
ProbeTrack15	8	ProbeTrack	15.0	SCS215b	20120207.161309	20120207.161431	8	0.013328	60	10	60-180	60	164	GapExp	BigFlash	0	13	2	3	1	target	1	424	788	44606	13.328	12.812	13.816
ProbeTrack15	8	ProbeTrack	15.0	SCS215b	20120207.161309	20120207.161437	8	0.013328	60	10	60-180	60	72	GapExp	BigFlash	0	14	2	0	1	target	1	382	809	45415	13.328	12.875	13.825
ProbeTrack15	8	ProbeTrack	15.0	SCS215b	20120207.161309	20120207.161443	8	0.013328	60	10	60-180	60	152	GapExp	BigFlash	0	15	2	1	1	target	1	374	813	46228	13.328	12.861	13.806
ProbeTrack15	8	ProbeTrack	15.0	SCS215b	20120207.161309	20120207.161449	8	0.013328	60	10	60-180	60	72	GapExp	BigFlash	0	16	2	1	1	target	1	394	803	47031	13.328	12.887	13.780
ProbeTrack15	8	ProbeTrack	15.0	SCS215b	20120207.161309	20120207.161455	8	0.013328	60	10	60-180	60	71	GapExp	BigFlash	0	17	2	3	0	distractor	1	522	739	47770	13.328	13.108	13.559
ProbeTrack15	8	ProbeTrack	15.0	SCS215b	20120207.161309	20120207.161501	8	0.013328	60	10	60-180	60	154	GapExp	BigFlash	0	18	2	3	1	target	1	545	728	48498	13.328	13.101	13.547
ProbeTrack15	8	ProbeTrack	15.0	SCS215b	20120207.161309	20120207.161508	8	0.013328	60	10	60-180	60	108	GapExp	BigFlash	0	19	2	30	0	distractor	1	569	716	49214	13.328	12.858	13.796
ProbeTrack15	8	ProbeTrack	15.0	SCS215b	20120207.161309	20120207.161514	8	0.013328	60	10	60-180	60	179	GapExp	BigFlash	0	20	2	3	1	target	1	483	759	49973	13.328	13.100	13.557
ProbeTrack15	8	ProbeTrack	15.0	SCS215b	20120207.161309	20120207.161521	8	0.013328	60	10	60-180	60	164	GapExp	BigFlash	0	21	2	0	0	distractor	1	551	725	50698	13.328	12.937	13.706
ProbeTrack15	8	ProbeTrack	15.0	SCS215b	20120207.161309	20120207.161530	8	0.013328	60	10	60-180	60	134	GapExp	BigFlash	0	22	2	3	1	target	1	397	802	51500	13.328	13.126	13.564
ProbeTrack15	8	ProbeTrack	15.0	SCS215b	20120207.161309	20120207.161538	8	0.013328	60	10	60-180	60	180	GapExp	BigFlash	0	23	2	30	1	target	1	439	781	52281	13.328	12.850	13.807
ProbeTrack15	8	ProbeTrack	15.0	SCS215b	20120207.161309	20120207.161546	8	0.013328	60	10	60-180	60	146	GapExp	BigFlash	0	24	2	1	0	distractor	1	501	750	53031	13.328	13.062	13.602
ProbeTrack15	8	ProbeTrack	15.0	SCS215b	20120207.161309	20120207.161552	8	0.013328	60	10	60-180	60	110	GapExp	BigFlash	0	25	2	0	0	distractor	1	970	515	53546	13.328	12.834	13.831
ProbeTrack15	8	ProbeTrack	15.0	SCS215b	20120207.161309	20120207.161559	8	0.013328	60	10	60-180	60	140	GapExp	BigFlash	0	26	2	3	0	distractor	1	625	688	54234	13.328	13.079	13.568
ProbeTrack15	8	ProbeTrack	15.0	SCS215b	20120207.161309	20120207.161606	8	0.013328	60	10	60-180	60	103	GapExp	BigFlash	0	27	2	1	0	distractor	1	424	788	55022	13.328	13.089	13.569
ProbeTrack15	8	ProbeTrack	15.0	SCS215b	20120207.161309	20120207.161612	8	0.013328	60	10	60-180	60	168	GapExp	BigFlash	0	28	2	0	1	target	1	363	819	55841	13.328	12.980	13.669
ProbeTrack15	8	ProbeTrack	15.0	SCS215b	20120207.161309	20120207.161619	8	0.013328	60	10	60-180	60	106	GapExp	BigFlash	0	29	2	0	0	distractor	1	511	745	56586	13.328	12.906	13.768
ProbeTrack15	8	ProbeTrack	15.0	SCS215b	20120207.161309	20120207.161625	8	0.013328	60	10	60-180	60	151	GapExp	BigFlash	0	30	2	30	1	target	1	379	811	57397	13.328	13.085	13.575
ProbeTrack15	8	ProbeTrack	15.0	SCS215b	20120207.161309	20120207.161632	8	0.013328	60	10	60-180	60	102	GapExp	BigFlash	0	31	2	3	1	target	1	305	848	58245	13.328	13.109	13.545
ProbeTrack15	8	ProbeTrack	15.0	SCS215b	20120207.161309	20120207.161641	8	0.013328	60	10	60-180	60	132	GapExp	BigFlash	0	32	2	3	1	target	1	356	822	59067	13.328	13.116	13.547
ProbeTrack15	8	ProbeTrack	15.0	SCS215b	20120207.161309	20120207.161647	8	0.013328	60	10	60-180	60	138	GapExp	BigFlash	0	33	2	0	0	distractor	1	484	758	59825	13.328	13.094	13.560
ProbeTrack15	8	ProbeTrack	15.0	SCS215b	20120207.161309	20120207.161654	8	0.013328	60	10	60-180	60	168	GapExp	BigFlash	0	34	2	30	0	distractor	1	540	730	60555	13.328	12.938	13.730
ProbeTrack15	8	ProbeTrack	15.0	SCS215b	20120207.161309	20120207.161701	8	0.013328	60	10	60-180	60	77	GapExp	BigFlash	0	35	2	1	1	target	1	346	827	61382	13.328	13.103	13.557
ProbeTrack15	8	ProbeTrack	15.0	SCS215b	20120207.161309	20120207.161708	8	0.013328	60	10	60-180	60	93	GapExp	BigFlash	0	36	2	0	0	distractor	1	491	755	62137	13.328	12.942	13.717
ProbeTrack15	8	ProbeTrack	15.0	SCS215b	20120207.161309	20120207.161716	8	0.013328	60	10	60-180	60	165	GapExp	BigFlash	0	37	2	1	1	target	1	348	826	62963	13.328	12.850	13.797
ProbeTrack15	8	ProbeTrack	15.0	SCS215b	20120207.161309	20120207.161725	8	0.013328	60	10	60-180	60	157	GapExp	BigFlash	0	38	2	0	0	distractor	1	465	768	63731	13.328	12.880	13.769
ProbeTrack15	8	ProbeTrack	15.0	SCS215b	20120207.161309	20120207.161731	8	0.013328	60	10	60-180	60	121	GapExp	BigFlash	0	39	2	3	0	distractor	1	516	742	64473	13.328	13.094	13.558
ProbeTrack15	8	ProbeTrack	15.0	SCS215b	20120207.161309	20120207.161738	8	0.013328	60	10	60-180	60	126	GapExp	BigFlash	0	40	2	0	0	distractor	1	390	805	65278	13.328	12.965	13.700
ProbeTrack15	8	ProbeTrack	15.0	SCS215b	20120207.161309	20120207.161745	8	0.013328	60	10	60-180	60	68	GapExp	BigFlash	0	41	2	0	0	distractor	1	595	703	65981	13.328	12.910	13.742
ProbeTrack15	8	ProbeTrack	15.0	SCS215b	20120207.161309	20120207.161751	8	0.013328	60	10	60-180	60	174	GapExp	BigFlash	0	42	2	30	0	distractor	1	505	748	66729	13.328	12.906	13.745
ProbeTrack15	8	ProbeTrack	15.0	SCS215b	20120207.161309	20120207.161759	8	0.013328	60	10	60-180	60	87	GapExp	BigFlash	0	43	2	30	0	distractor	1	457	772	67501	13.328	12.885	13.787
ProbeTrack15	8	ProbeTrack	15.0	SCS215b	20120207.161309	20120207.161806	8	0.013328	60	10	60-180	60	100	GapExp	BigFlash	0	44	2	1	0	distractor	1	483	759	68260	13.328	12.869	13.796
ProbeTrack15	8	ProbeTrack	15.0	SCS215b	20120207.161309	20120207.161812	8	0.013328	60	10	60-180	60	140	GapExp	BigFlash	0	45	2	1	1	target	1	486	757	69017	13.328	12.843	13.826
ProbeTrack15	8	ProbeTrack	15.0	SCS215b	20120207.161309	20120207.161818	8	0.013328	60	10	60-180	60	113	GapExp	BigFlash	0	46	2	30	1	target	1	500	750	69767	13.328	13.092	13.673
ProbeTrack15	8	ProbeTrack	15.0	SCS215b	20120207.161309	20120207.161825	8	0.013328	60	10	60-180	60	175	GapExp	BigFlash	0	47	2	3	1	target	1	413	794	70561	13.328	13.098	13.564
ProbeTrack15	8	ProbeTrack	15.0	SCS215b	20120207.161309	20120207.161833	8	0.013328	60	10	60-180	60	113	GapExp	BigFlash	0	48	2	1	0	distractor	1	504	748	71309	13.328	13.110	13.546
ProbeTrack15	8	ProbeTrack	15.0	SCS215b	20120207.161309	20120207.161839	8	0.013328	60	10	60-180	60	81	GapExp	BigFlash	0	49	2	1	0	distractor	1	621	690	71999	13.327	13.056	13.595
ProbeTrack15	8	ProbeTrack	15.0	SCS215b	20120207.161309	20120207.161846	8	0.013328	60	10	60-180	60	93	GapExp	BigFlash	0	50	2	0	0	distractor	1	645	678	72677	13.328	12.955	13.704
ProbeTrack15	8	ProbeTrack	15.0	SCS215b	20120207.161309	20120207.161852	8	0.013328	60	10	60-180	60	150	GapExp	BigFlash	0	51	2	0	1	target	1	365	818	73495	13.429	12.866	27.139
ProbeTrack15	8	ProbeTrack	15.0	SCS215b	20120207.161309	20120207.161901	8	0.013328	60	10	60-180	60	70	GapExp	BigFlash	0	52	2	3	1	target	1	398	801	74296	13.328	13.115	13.541
ProbeTrack15	8	ProbeTrack	15.0	SCS215b	20120207.161309	20120207.161907	8	0.013328	60	10	60-180	60	96	GapExp	BigFlash	0	53	2	30	0	distractor	1	417	792	75088	13.327	12.955	13.697
ProbeTrack15	8	ProbeTrack	15.0	SCS215b	20120207.161309	20120207.161913	8	0.013328	60	10	60-180	60	82	GapExp	BigFlash	0	54	2	3	1	target	1	329	836	75924	13.328	13.117	13.507
ProbeTrack15	8	ProbeTrack	15.0	SCS215b	20120207.161309	20120207.161919	8	0.013328	60	10	60-180	60	100	GapExp	BigFlash	0	55	2	1	0	distractor	1	510	745	76669	13.328	13.105	13.552
ProbeTrack15	8	ProbeTrack	15.0	SCS215b	20120207.161309	20120207.161927	8	0.013328	60	10	60-180	60	66	GapExp	BigFlash	0	56	2	3	1	target	1	378	811	77480	13.328	13.094	13.565
ProbeTrack15	8	ProbeTrack	15.0	SCS215b	20120207.161309	20120207.161935	8	0.013328	60	10	60-180	60	112	GapExp	BigFlash	0	57	2	1	0	distractor	1	482	759	78239	13.328	12.983	13.690
ProbeTrack15	8	ProbeTrack	15.0	SCS215b	20120207.161309	20120207.161946	8	0.013328	60	10	60-180	60	104	GapExp	BigFlash	0	58	2	1	0	distractor	1	468	766	79005	13.328	12.841	13.817
ProbeTrack15	8	ProbeTrack	15.0	SCS215b	20120207.161309	20120207.161952	8	0.013328	60	10	60-180	60	171	GapExp	BigFlash	0	59	2	30	1	distractor	0	472	-1000	78005	13.411	12.862	27.007
ProbeTrack15	8	ProbeTrack	15.0	SCS215b	20120207.161309	20120207.162000	8	0.013328	60	10	60-180	60	149	GapExp	BigFlash	0	60	2	3	1	target	1	434	783	78788	13.328	12.837	13.815
ProbeTrack15	8	ProbeTrack	15.0	SCS215b	20120207.161309	20120207.162009	8	0.013328	60	10	60-180	60	138	GapExp	BigFlash	0	61	2	30	0	distractor	1	483	759	79547	13.328	12.866	13.824
ProbeTrack15	8	ProbeTrack	15.0	SCS215b	20120207.161309	20120207.162016	8	0.013328	60	10	60-180	60	156	GapExp	BigFlash	0	62	2	3	0	distractor	1	533	734	80281	13.328	12.902	13.779
ProbeTrack15	8	ProbeTrack	15.0	SCS215b	20120207.161309	20120207.162022	8	0.013328	60	10	60-180	60	110	GapExp	BigFlash	0	63	2	1	0	distractor	1	672	664	80945	13.328	13.134	13.553
ProbeTrack15	8	ProbeTrack	15.0	SCS215b	20120207.161309	20120207.162029	8	0.013328	60	10	60-180	60	128	GapExp	BigFlash	0	64	2	0	1	target	1	410	795	81740	13.328	13.039	13.614
ProbeTrack15	8	ProbeTrack	15.0	SCS215b	20120207.161309	20120207.162035	8	0.013328	60	10	60-180	60	142	GapExp	BigFlash	0	65	2	0	1	target	1	549	726	82466	13.328	12.906	13.776
ProbeTrack15	8	ProbeTrack	15.0	SCS215b	20120207.161309	20120207.162042	8	0.013328	60	10	60-180	60	64	GapExp	BigFlash	0	66	2	30	1	target	1	365	818	83284	13.328	12.965	13.795
ProbeTrack15	8	ProbeTrack	15.0	SCS215b	20120207.161309	20120207.162048	8	0.013328	60	10	60-180	60	141	GapExp	BigFlash	0	67	2	3	1	target	1	373	814	84098	13.328	13.259	13.373
ProbeTrack15	8	ProbeTrack	15.0	SCS215b	20120207.161309	20120207.162056	8	0.013328	60	10	60-180	60	120	GapExp	BigFlash	0	68	2	30	0	distractor	1	445	778	84876	13.328	12.896	13.769
ProbeTrack15	8	ProbeTrack	15.0	SCS215b	20120207.161309	20120207.162102	8	0.013328	60	10	60-180	60	137	GapExp	BigFlash	0	69	2	30	1	target	1	394	803	85679	13.328	13.284	13.358
ProbeTrack15	8	ProbeTrack	15.0	SCS215b	20120207.161309	20120207.162109	8	0.013328	60	10	60-180	60	82	GapExp	BigFlash	0	70	2	1	1	target	1	389	806	86485	13.328	12.863	13.793
ProbeTrack15	8	ProbeTrack	15.0	SCS215b	20120207.161309	20120207.162115	8	0.013328	60	10	60-180	60	94	GapExp	BigFlash	0	71	2	3	0	distractor	1	559	721	87206	13.328	12.891	13.770
ProbeTrack15	8	ProbeTrack	15.0	SCS215b	20120207.161309	20120207.162121	8	0.013328	60	10	60-180	60	68	GapExp	BigFlash	0	72	2	30	0	distractor	1	910	545	87751	13.328	12.928	13.741
ProbeTrack15	8	ProbeTrack	15.0	SCS215b	20120207.161309	20120207.162128	8	0.013328	60	10	60-180	60	71	GapExp	BigFlash	0	73	2	3	1	target	1	388	806	88557	13.328	12.999	13.661
ProbeTrack15	8	ProbeTrack	15.0	SCS215b	20120207.161309	20120207.162135	8	0.013328	60	10	60-180	60	147	GapExp	BigFlash	0	74	2	30	0	distractor	1	573	714	89271	13.328	13.048	13.623
ProbeTrack15	8	ProbeTrack	15.0	SCS215b	20120207.161309	20120207.162144	8	0.013328	60	10	60-180	60	93	GapExp	BigFlash	0	75	2	3	1	target	1	420	790	90061	13.328	12.975	13.662
ProbeTrack15	8	ProbeTrack	15.0	SCS215b	20120207.161309	20120207.162150	8	0.013328	60	10	60-180	60	145	GapExp	BigFlash	0	76	2	0	0	distractor	1	615	693	90754	13.328	12.845	13.813
ProbeTrack15	8	ProbeTrack	15.0	SCS215b	20120207.161309	20120207.162156	8	0.013328	60	10	60-180	60	105	GapExp	BigFlash	0	77	2	1	1	target	1	369	816	91570	13.328	13.106	13.553
ProbeTrack15	8	ProbeTrack	15.0	SCS215b	20120207.161309	20120207.162202	8	0.013328	60	10	60-180	60	171	GapExp	BigFlash	0	78	2	0	0	distractor	1	511	745	92315	13.328	12.886	13.791
ProbeTrack15	8	ProbeTrack	15.0	SCS215b	20120207.161309	20120207.162209	8	0.013328	60	10	60-180	60	63	GapExp	BigFlash	0	79	2	1	0	distractor	1	604	698	93013	13.328	13.292	13.384
ProbeTrack15	8	ProbeTrack	15.0	SCS215b	20120207.161309	20120207.162216	8	0.013328	60	10	60-180	60	137	GapExp	BigFlash	0	80	2	3	0	distractor	1	582	709	93722	13.328	12.849	13.820
ProbeTrack15	8	ProbeTrack	15.0	SCS215b	20120207.161309	20120207.162223	8	0.013328	60	10	60-180	60	88	GapExp	BigFlash	0	81	2	0	1	target	1	525	738	94460	13.328	12.983	13.677
ProbeTrack15	8	ProbeTrack	15.0	SCS215b	20120207.161309	20120207.162229	8	0.013328	60	10	60-180	60	148	GapExp	BigFlash	0	82	2	0	1	target	1	360	820	95280	13.328	12.953	13.698
ProbeTrack15	8	ProbeTrack	15.0	SCS215b	20120207.161309	20120207.162235	8	0.013328	60	10	60-180	60	80	GapExp	BigFlash	0	83	2	3	0	distractor	1	529	736	96016	13.328	12.890	13.769
ProbeTrack15	8	ProbeTrack	15.0	SCS215b	20120207.161309	20120207.162241	8	0.013328	60	10	60-180	60	79	GapExp	BigFlash	0	84	2	0	1	target	1	368	816	96832	13.328	12.845	13.819
ProbeTrack15	8	ProbeTrack	15.0	SCS215b	20120207.161309	20120207.162247	8	0.013328	60	10	60-180	60	107	GapExp	BigFlash	0	85	2	30	1	target	1	312	844	97676	13.328	12.827	13.825
ProbeTrack15	8	ProbeTrack	15.0	SCS215b	20120207.161309	20120207.162255	8	0.013328	60	10	60-180	60	128	GapExp	BigFlash	0	86	2	0	0	distractor	1	573	714	98390	13.328	12.924	13.720
ProbeTrack15	8	ProbeTrack	15.0	SCS215b	20120207.161309	20120207.162301	8	0.013328	60	10	60-180	60	170	GapExp	BigFlash	0	87	2	0	1	target	1	329	836	99226	13.328	13.304	13.349
ProbeTrack15	8	ProbeTrack	15.0	SCS215b	20120207.161309	20120207.162308	8	0.013328	60	10	60-180	60	67	GapExp	BigFlash	0	88	2	3	0	target	0	486	-1000	98226	13.328	12.845	13.810
ProbeTrack15	8	ProbeTrack	15.0	SCS215b	20120207.161309	20120207.162314	8	0.013328	60	10	60-180	60	154	GapExp	BigFlash	0	89	2	1	1	target	1	344	828	99054	13.328	13.111	13.560
ProbeTrack15	8	ProbeTrack	15.0	SCS215b	20120207.161309	20120207.162320	8	0.013328	60	10	60-180	60	76	GapExp	BigFlash	0	90	2	1	0	distractor	1	594	703	99757	13.328	12.904	13.552
ProbeTrack15	8	ProbeTrack	15.0	SCS215b	20120207.161309	20120207.162326	8	0.013328	60	10	60-180	60	136	GapExp	BigFlash	0	91	2	0	0	target	0	521	-1000	98757	13.328	12.842	13.827
ProbeTrack15	8	ProbeTrack	15.0	SCS215b	20120207.161309	20120207.162333	8	0.013328	60	10	60-180	60	79	GapExp	BigFlash	0	92	2	3	1	target	1	660	670	99427	13.326	12.850	13.786
ProbeTrack15	8	ProbeTrack	15.0	SCS215b	20120207.161309	20120207.162338	8	0.013328	60	10	60-180	60	127	GapExp	BigFlash	0	93	2	30	0	distractor	1	566	717	100144	13.328	12.855	13.806
ProbeTrack15	8	ProbeTrack	15.0	SCS215b	20120207.161309	20120207.162345	8	0.013328	60	10	60-180	60	167	GapExp	BigFlash	0	94	2	1	1	target	1	336	832	100976	13.328	13.103	13.540
ProbeTrack15	8	ProbeTrack	15.0	SCS215b	20120207.161309	20120207.162352	8	0.013328	60	10	60-180	60	66	GapExp	BigFlash	0	95	2	30	1	target	1	366	817	101793	13.328	12.947	13.720
ProbeTrack15	8	ProbeTrack	15.0	SCS215b	20120207.161309	20120207.162358	8	0.013328	60	10	60-180	60	95	GapExp	BigFlash	0	96	2	30	1	target	1	414	793	102586	13.328	13.109	13.544
ProbeTrack15	8	ProbeTrack	15.0	SCS215b	20120207.161309	20120207.162405	8	0.013328	60	10	60-180	60	129	GapExp	BigFlash	0	97	2	3	0	distractor	1	685	658	103244	13.328	12.840	13.818
ProbeTrack15	8	ProbeTrack	15.0	SCS215b	20120207.161309	20120207.162411	8	0.013328	60	10	60-180	60	135	GapExp	BigFlash	0	98	2	0	0	distractor	1	541	730	103974	13.328	12.880	13.774
ProbeTrack15	8	ProbeTrack	15.0	SCS215b	20120207.161309	20120207.162418	8	0.013328	60	10	60-180	60	168	GapExp	BigFlash	0	99	2	1	0	distractor	1	516	742	104716	13.328	12.865	13.797
ProbeTrack15	8	ProbeTrack	15.0	SCS215b	20120207.161309	20120207.162424	8	0.013328	60	10	60-180	60	90	GapExp	BigFlash	0	100	2	30	1	target	1	347	827	105543	13.328	12.846	13.818
ProbeTrack15	8	ProbeTrack	15.0	SCS215b	20120207.161309	20120207.162431	8	0.013328	60	10	60-180	60	93	GapExp	BigFlash	0	101	2	3	0	distractor	1	511	745	106288	13.328	12.967	13.687
ProbeTrack15	8	ProbeTrack	15.0	SCS215b	20120207.161309	20120207.162443	8	0.013328	60	10	60-180	60	79	GapExp	BigFlash	0	102	2	30	0	distractor	1	549	726	107014	13.328	13.091	13.560
ProbeTrack15	8	ProbeTrack	15.0	SCS215b	20120207.161309	20120207.162449	8	0.013328	60	10	60-180	60	96	GapExp	BigFlash	0	103	2	3	1	target	1	343	829	107843	13.328	12.894	13.787
ProbeTrack15	8	ProbeTrack	15.0	SCS215b	20120207.161309	20120207.162456	8	0.013328	60	10	60-180	60	132	GapExp	BigFlash	0	104	2	1	1	target	1	385	808	108651	13.328	12.889	13.759
ProbeTrack15	8	ProbeTrack	15.0	SCS215b	20120207.161309	20120207.162503	8	0.013328	60	10	60-180	60	82	GapExp	BigFlash	0	105	2	30	0	distractor	1	570	715	109366	13.328	13.018	13.632
ProbeTrack15	8	ProbeTrack	15.0	SCS215b	20120207.161309	20120207.162509	8	0.013328	60	10	60-180	60	98	GapExp	BigFlash	0	106	2	0	1	target	1	403	799	110165	13.328	13.299	13.353
ProbeTrack15	8	ProbeTrack	15.0	SCS215b	20120207.161309	20120207.162516	8	0.013328	60	10	60-180	60	89	GapExp	BigFlash	0	107	2	3	0	target	0	290	-1000	109165	13.328	13.145	13.591
ProbeTrack15	8	ProbeTrack	15.0	SCS215b	20120207.161309	20120207.162521	8	0.013328	60	10	60-180	60	164	GapExp	BigFlash	0	108	2	30	0	distractor	1	516	742	109907	13.328	12.894	13.757
ProbeTrack15	8	ProbeTrack	15.0	SCS215b	20120207.161309	20120207.162529	8	0.013328	60	10	60-180	60	85	GapExp	BigFlash	0	109	2	3	0	distractor	1	541	730	110637	13.328	12.908	13.743
ProbeTrack15	8	ProbeTrack	15.0	SCS215b	20120207.161309	20120207.162535	8	0.013328	60	10	60-180	60	82	GapExp	BigFlash	0	110	2	0	1	target	1	379	811	111448	13.328	13.279	13.378
ProbeTrack15	8	ProbeTrack	15.0	SCS215b	20120207.161309	20120207.162541	8	0.013328	60	10	60-180	60	117	GapExp	BigFlash	0	111	2	0	0	target	0	526	-1000	110448	13.328	13.101	13.353
ProbeTrack15	8	ProbeTrack	15.0	SCS215b	20120207.161309	20120207.162548	8	0.013328	60	10	60-180	60	122	GapExp	BigFlash	0	112	2	0	1	target	1	439	781	111229	13.328	13.107	13.542
ProbeTrack15	8	ProbeTrack	15.0	SCS215b	20120207.161309	20120207.162615	8	0.013328	60	10	60-180	60	86	GapExp	BigFlash	0	113	2	1	0	distractor	1	504	748	111977	13.328	13.036	13.647
ProbeTrack15	8	ProbeTrack	15.0	SCS215b	20120207.161309	20120207.162621	8	0.013328	60	10	60-180	60	162	GapExp	BigFlash	0	114	2	0	0	distractor	1	514	743	112720	13.328	12.837	13.838
ProbeTrack15	8	ProbeTrack	15.0	SCS215b	20120207.161309	20120207.162627	8	0.013328	60	10	60-180	60	127	GapExp	BigFlash	0	115	2	30	0	distractor	1	605	698	113418	13.328	12.895	13.777
ProbeTrack15	8	ProbeTrack	15.0	SCS215b	20120207.161309	20120207.162634	8	0.013328	60	10	60-180	60	141	GapExp	BigFlash	0	116	2	3	0	distractor	1	543	729	114147	13.328	12.880	13.758
ProbeTrack15	8	ProbeTrack	15.0	SCS215b	20120207.161309	20120207.162642	8	0.013328	60	10	60-180	60	93	GapExp	BigFlash	0	117	2	1	1	target	1	638	681	114828	13.445	12.909	26.933
ProbeTrack15	8	ProbeTrack	15.0	SCS215b	20120207.161309	20120207.162648	8	0.013328	60	10	60-180	60	136	GapExp	BigFlash	0	118	2	1	1	target	1	362	819	115647	13.328	12.902	13.759
ProbeTrack15	8	ProbeTrack	15.0	SCS215b	20120207.161309	20120207.162655	8	0.013328	60	10	60-180	60	120	GapExp	BigFlash	0	119	2	30	1	target	1	377	812	116459	13.328	12.846	13.816
ProbeTrack15	8	ProbeTrack	15.0	SCS215b	20120207.161309	20120207.162701	8	0.013328	60	10	60-180	60	149	GapExp	BigFlash	0	120	2	3	0	distractor	1	598	701	117160	13.328	12.989	13.680
ProbeTrack15	8	ProbeTrack	15.0	SCS215b	20120207.161309	20120207.162708	8	0.013328	60	10	60-180	60	179	GapExp	BigFlash	0	121	2	0	1	target	1	358	821	117981	13.328	12.835	13.813
ProbeTrack15	8	ProbeTrack	15.0	SCS215b	20120207.161309	20120207.162714	8	0.013328	60	10	60-180	60	64	GapExp	BigFlash	0	122	2	3	1	target	1	317	842	118823	13.328	12.997	13.657
ProbeTrack15	8	ProbeTrack	15.0	SCS215b	20120207.161309	20120207.162720	8	0.013328	60	10	60-180	60	85	GapExp	BigFlash	0	123	2	30	1	target	1	341	830	119653	13.328	12.926	13.824
ProbeTrack15	8	ProbeTrack	15.0	SCS215b	20120207.161309	20120207.162726	8	0.013328	60	10	60-180	60	67	GapExp	BigFlash	0	124	2	0	0	distractor	1	529	736	120389	13.328	12.887	13.769
ProbeTrack15	8	ProbeTrack	15.0	SCS215b	20120207.161309	20120207.162732	8	0.013328	60	10	60-180	60	115	GapExp	BigFlash	0	125	2	1	0	target	0	568	-1000	119389	13.328	12.972	13.683
ProbeTrack15	8	ProbeTrack	15.0	SCS215b	20120207.161309	20120207.162739	8	0.013328	60	10	60-180	60	175	GapExp	BigFlash	0	126	2	30	0	distractor	1	569	716	120105	13.328	12.869	13.808
ProbeTrack15	8	ProbeTrack	15.0	SCS215b	20120207.161309	20120207.162746	8	0.013328	60	10	60-180	60	94	GapExp	BigFlash	0	127	2	0	0	distractor	1	586	707	120812	13.326	12.870	13.579
ProbeTrack15	8	ProbeTrack	15.0	SCS215b	20120207.161309	20120207.162752	8	0.013328	60	10	60-180	60	63	GapExp	BigFlash	0	128	2	0	1	target	1	426	787	121599	13.328	13.248	13.374
ProbeTrack15	8	ProbeTrack	15.0	SCS215b	20120207.161309	20120207.162759	8	0.013328	60	10	60-180	60	128	GapExp	BigFlash	0	129	2	1	0	distractor	1	410	795	122394	13.328	13.103	13.550
ProbeTrack15	8	ProbeTrack	15.0	SCS215b	20120207.161309	20120207.162805	8	0.013328	60	10	60-180	60	134	GapExp	BigFlash	0	130	2	0	0	distractor	1	483	759	123153	13.328	12.987	13.668
ProbeTrack15	8	ProbeTrack	15.0	SCS215b	20120207.161309	20120207.162811	8	0.013328	60	10	60-180	60	176	GapExp	BigFlash	0	131	2	1	1	target	1	467	767	123920	13.328	13.227	13.435
ProbeTrack15	8	ProbeTrack	15.0	SCS215b	20120207.161309	20120207.162818	8	0.013328	60	10	60-180	60	174	GapExp	BigFlash	0	132	2	0	1	target	1	391	805	124725	13.328	12.886	13.779
ProbeTrack15	8	ProbeTrack	15.0	SCS215b	20120207.161309	20120207.162825	8	0.013328	60	10	60-180	60	137	GapExp	BigFlash	0	133	2	30	1	target	1	293	854	125579	13.328	13.070	13.601
ProbeTrack15	8	ProbeTrack	15.0	SCS215b	20120207.161309	20120207.162832	8	0.013328	60	10	60-180	60	64	GapExp	BigFlash	0	134	2	3	1	target	1	393	804	126383	13.328	12.976	13.684
ProbeTrack15	8	ProbeTrack	15.0	SCS215b	20120207.161309	20120207.162837	8	0.013328	60	10	60-180	60	140	GapExp	BigFlash	0	135	2	0	1	target	1	384	808	127191	13.328	12.881	13.773
ProbeTrack15	8	ProbeTrack	15.0	SCS215b	20120207.161309	20120207.162844	8	0.013328	60	10	60-180	60	161	GapExp	BigFlash	0	136	2	1	1	target	1	578	711	127902	13.328	12.856	13.805
ProbeTrack15	8	ProbeTrack	15.0	SCS215b	20120207.161309	20120207.162850	8	0.013328	60	10	60-180	60	156	GapExp	BigFlash	0	137	2	3	0	distractor	1	557	722	128624	13.328	13.100	13.562
ProbeTrack15	8	ProbeTrack	15.0	SCS215b	20120207.161309	20120207.162858	8	0.013328	60	10	60-180	60	131	GapExp	BigFlash	0	138	2	1	1	target	1	386	807	129431	13.328	12.870	13.798
ProbeTrack15	8	ProbeTrack	15.0	SCS215b	20120207.161309	20120207.162908	8	0.013328	60	10	60-180	60	178	GapExp	BigFlash	0	139	2	0	0	distractor	1	562	719	130150	13.328	12.961	13.698
ProbeTrack15	8	ProbeTrack	15.0	SCS215b	20120207.161309	20120207.162915	8	0.013328	60	10	60-180	60	93	GapExp	BigFlash	0	140	2	30	1	target	1	445	778	130928	13.328	12.947	13.708
ProbeTrack15	8	ProbeTrack	15.0	SCS215b	20120207.161309	20120207.162921	8	0.013328	60	10	60-180	60	117	GapExp	BigFlash	0	141	2	3	0	distractor	1	475	763	131691	13.328	12.863	13.800
ProbeTrack15	8	ProbeTrack	15.0	SCS215b	20120207.161309	20120207.162927	8	0.013328	60	10	60-180	60	175	GapExp	BigFlash	0	142	2	1	0	distractor	1	540	730	132421	13.328	12.902	13.763
ProbeTrack15	8	ProbeTrack	15.0	SCS215b	20120207.161309	20120207.162934	8	0.013328	60	10	60-180	60	147	GapExp	BigFlash	0	143	2	0	1	target	1	403	799	133220	13.328	13.300	13.361
ProbeTrack15	8	ProbeTrack	15.0	SCS215b	20120207.161309	20120207.162940	8	0.013328	60	10	60-180	60	71	GapExp	BigFlash	0	144	2	0	0	distractor	1	674	663	133883	13.328	12.828	13.820
ProbeTrack15	8	ProbeTrack	15.0	SCS215b	20120207.161309	20120207.162946	8	0.013328	60	10	60-180	60	151	GapExp	BigFlash	0	145	2	30	1	target	1	450	775	134658	13.328	12.837	13.817
ProbeTrack15	8	ProbeTrack	15.0	SCS215b	20120207.161309	20120207.162953	8	0.013328	60	10	60-180	60	120	GapExp	BigFlash	0	146	2	0	1	target	1	422	789	135447	13.328	13.086	13.558
ProbeTrack15	8	ProbeTrack	15.0	SCS215b	20120207.161309	20120207.162959	8	0.013328	60	10	60-180	60	163	GapExp	BigFlash	0	147	2	0	0	distractor	1	538	731	136178	13.328	12.921	13.729
ProbeTrack15	8	ProbeTrack	15.0	SCS215b	20120207.161309	20120207.163008	8	0.013328	60	10	60-180	60	125	GapExp	BigFlash	0	148	2	1	0	distractor	1	504	748	136926	13.328	12.883	13.785
ProbeTrack15	8	ProbeTrack	15.0	SCS215b	20120207.161309	20120207.163014	8	0.013328	60	10	60-180	60	126	GapExp	BigFlash	0	149	2	30	0	distractor	1	822	589	137515	13.328	12.831	13.824
ProbeTrack15	8	ProbeTrack	15.0	SCS215b	20120207.161309	20120207.163022	8	0.013328	60	10	60-180	60	127	GapExp	BigFlash	0	150	2	1	1	target	1	353	824	138339	13.328	13.060	13.596
ProbeTrack15	8	ProbeTrack	15.0	SCS215b	20120207.161309	20120207.163031	8	0.013328	60	10	60-180	60	112	GapExp	BigFlash	0	151	2	1	1	target	1	426	787	139126	13.327	13.102	13.419
ProbeTrack15	8	ProbeTrack	15.0	SCS215b	20120207.161309	20120207.163037	8	0.013328	60	10	60-180	60	73	GapExp	BigFlash	0	152	2	1	0	distractor	1	511	745	139871	13.328	12.954	13.704
ProbeTrack15	8	ProbeTrack	15.0	SCS215b	20120207.161309	20120207.163043	8	0.013328	60	10	60-180	60	90	GapExp	BigFlash	0	153	2	30	0	distractor	1	613	694	140565	13.381	12.976	26.718
ProbeTrack15	8	ProbeTrack	15.0	SCS215b	20120207.161309	20120207.163050	8	0.013328	60	10	60-180	60	163	GapExp	BigFlash	0	154	2	30	0	distractor	1	516	742	141307	13.328	12.854	13.801
ProbeTrack15	8	ProbeTrack	15.0	SCS215b	20120207.161309	20120207.163057	8	0.013328	60	10	60-180	60	79	GapExp	BigFlash	0	155	2	3	1	target	1	322	839	142146	13.328	12.833	13.812
ProbeTrack15	8	ProbeTrack	15.0	SCS215b	20120207.161309	20120207.163104	8	0.013328	60	10	60-180	60	131	GapExp	BigFlash	0	156	2	30	1	target	1	372	814	142960	13.328	12.905	13.740
ProbeTrack15	8	ProbeTrack	15.0	SCS215b	20120207.161309	20120207.163110	8	0.013328	60	10	60-180	60	176	GapExp	BigFlash	0	157	2	1	0	distractor	1	517	742	143702	13.328	12.844	13.804
ProbeTrack15	8	ProbeTrack	15.0	SCS215b	20120207.161309	20120207.163118	8	0.013328	60	10	60-180	60	91	GapExp	BigFlash	0	158	2	30	0	distractor	1	471	765	144467	13.328	13.304	13.355
ProbeTrack15	8	ProbeTrack	15.0	SCS215b	20120207.161309	20120207.163124	8	0.013328	60	10	60-180	60	115	GapExp	BigFlash	0	159	2	3	0	distractor	1	501	750	145217	13.328	13.285	13.360
ProbeTrack15	8	ProbeTrack	15.0	SCS215b	20120207.161309	20120207.163130	8	0.013328	60	10	60-180	60	150	GapExp	BigFlash	0	160	2	1	1	target	1	437	782	145999	13.328	13.084	13.566
ProbeTrack15	8	ProbeTrack	15.0	SCS215b	20120207.161309	20120207.163137	8	0.013328	60	10	60-180	60	144	GapExp	BigFlash	0	161	2	30	0	distractor	1	485	758	146757	13.328	12.909	13.754
ProbeTrack15	8	ProbeTrack	15.0	SCS215b	20120207.161309	20120207.163144	8	0.013328	60	10	60-180	60	160	GapExp	BigFlash	0	162	2	30	0	distractor	1	444	778	147535	13.328	12.852	13.813
ProbeTrack15	8	ProbeTrack	15.0	SCS215b	20120207.161309	20120207.163152	8	0.013328	60	10	60-180	60	179	GapExp	BigFlash	0	163	2	1	0	distractor	1	706	647	148182	13.328	12.956	13.705
ProbeTrack15	8	ProbeTrack	15.0	SCS215b	20120207.161309	20120207.163159	8	0.013328	60	10	60-180	60	98	GapExp	BigFlash	0	164	2	1	0	distractor	1	539	731	148913	13.328	13.010	13.667
ProbeTrack15	8	ProbeTrack	15.0	SCS215b	20120207.161309	20120207.163205	8	0.013328	60	10	60-180	60	100	GapExp	BigFlash	0	165	2	0	1	target	1	383	809	149722	13.328	13.100	13.572
ProbeTrack15	8	ProbeTrack	15.0	SCS215b	20120207.161309	20120207.163211	8	0.013328	60	10	60-180	60	142	GapExp	BigFlash	0	166	2	1	1	target	1	418	791	150513	13.328	12.888	13.787
ProbeTrack15	8	ProbeTrack	15.0	SCS215b	20120207.161309	20120207.163220	8	0.013328	60	10	60-180	60	138	GapExp	BigFlash	0	167	2	1	1	target	1	365	818	151331	13.328	12.900	13.783
ProbeTrack15	8	ProbeTrack	15.0	SCS215b	20120207.161309	20120207.163226	8	0.013328	60	10	60-180	60	153	GapExp	BigFlash	0	168	2	1	0	distractor	1	571	715	152046	13.328	12.892	13.770
ProbeTrack15	8	ProbeTrack	15.0	SCS215b	20120207.161309	20120207.163235	8	0.013328	60	10	60-180	60	80	GapExp	BigFlash	0	169	2	3	1	target	1	369	816	152862	13.328	12.848	13.777
ProbeTrack15	8	ProbeTrack	15.0	SCS215b	20120207.161309	20120207.163240	8	0.013328	60	10	60-180	60	113	GapExp	BigFlash	0	170	2	3	0	distractor	1	452	774	153636	13.328	13.124	13.547
ProbeTrack15	8	ProbeTrack	15.0	SCS215b	20120207.161309	20120207.163246	8	0.013328	60	10	60-180	60	166	GapExp	BigFlash	0	171	2	0	1	target	1	429	786	154422	13.328	13.090	13.557
ProbeTrack15	8	ProbeTrack	15.0	SCS215b	20120207.161309	20120207.163253	8	0.013328	60	10	60-180	60	178	GapExp	BigFlash	0	172	2	30	1	target	1	370	815	155237	13.328	12.832	13.828
ProbeTrack15	8	ProbeTrack	15.0	SCS215b	20120207.161309	20120207.163301	8	0.013328	60	10	60-180	60	152	GapExp	BigFlash	0	173	2	30	0	distractor	1	472	764	156001	13.328	13.112	13.556
ProbeTrack15	8	ProbeTrack	15.0	SCS215b	20120207.161309	20120207.163308	8	0.013328	60	10	60-180	60	161	GapExp	BigFlash	0	174	2	3	1	target	1	343	829	156830	13.328	12.863	13.811
ProbeTrack15	8	ProbeTrack	15.0	SCS215b	20120207.161309	20120207.163315	8	0.013328	60	10	60-180	60	119	GapExp	BigFlash	0	175	2	1	1	target	1	381	810	157640	13.328	12.856	13.800
ProbeTrack15	8	ProbeTrack	15.0	SCS215b	20120207.161309	20120207.163334	8	0.013328	60	10	60-180	60	109	GapExp	BigFlash	0	176	2	3	0	distractor	1	576	712	158352	13.328	13.140	13.513
ProbeTrack15	8	ProbeTrack	15.0	SCS215b	20120207.161309	20120207.163340	8	0.013328	60	10	60-180	60	151	GapExp	BigFlash	0	177	2	3	0	distractor	1	426	787	159139	13.328	12.961	13.680
ProbeTrack15	8	ProbeTrack	15.0	SCS215b	20120207.161309	20120207.163348	8	0.013328	60	10	60-180	60	102	GapExp	BigFlash	0	178	2	1	1	target	1	408	796	159935	13.328	12.841	13.803
ProbeTrack15	8	ProbeTrack	15.0	SCS215b	20120207.161309	20120207.163354	8	0.013328	60	10	60-180	60	95	GapExp	BigFlash	0	179	2	0	0	distractor	1	535	733	160668	13.328	12.899	13.771
ProbeTrack15	8	ProbeTrack	15.0	SCS215b	20120207.161309	20120207.163400	8	0.013328	60	10	60-180	60	130	GapExp	BigFlash	0	180	2	30	1	target	1	691	655	161323	13.328	12.846	13.801
ProbeTrack15	8	ProbeTrack	15.0	SCS215b	20120207.161309	20120207.163407	8	0.013328	60	10	60-180	60	150	GapExp	BigFlash	0	181	2	1	1	target	1	373	814	162137	13.327	13.020	13.630
ProbeTrack15	8	ProbeTrack	15.0	SCS215b	20120207.161309	20120207.163413	8	0.013328	60	10	60-180	60	161	GapExp	BigFlash	0	182	2	1	0	distractor	1	553	724	162861	13.328	12.924	13.734
ProbeTrack15	8	ProbeTrack	15.0	SCS215b	20120207.161309	20120207.163420	8	0.013328	60	10	60-180	60	88	GapExp	BigFlash	0	183	2	1	1	target	1	409	796	163657	13.328	12.856	13.800
ProbeTrack15	8	ProbeTrack	15.0	SCS215b	20120207.161309	20120207.163429	8	0.013328	60	10	60-180	60	97	GapExp	BigFlash	0	184	2	3	1	target	1	370	815	164472	13.328	12.899	13.752
ProbeTrack15	8	ProbeTrack	15.0	SCS215b	20120207.161309	20120207.163438	8	0.013328	60	10	60-180	60	130	GapExp	BigFlash	0	185	2	3	0	distractor	1	487	757	165229	13.328	13.040	13.633
ProbeTrack15	8	ProbeTrack	15.0	SCS215b	20120207.161309	20120207.163448	8	0.013328	60	10	60-180	60	66	GapExp	BigFlash	0	186	2	0	1	target	1	360	820	166049	13.328	13.303	13.354
ProbeTrack15	8	ProbeTrack	15.0	SCS215b	20120207.161309	20120207.163453	8	0.013328	60	10	60-180	60	95	GapExp	BigFlash	0	187	2	1	0	distractor	1	508	746	166795	13.328	12.947	13.704
ProbeTrack15	8	ProbeTrack	15.0	SCS215b	20120207.161309	20120207.163500	8	0.013328	60	10	60-180	60	114	GapExp	BigFlash	0	188	2	0	1	target	1	404	798	167593	13.328	12.853	13.810
ProbeTrack15	8	ProbeTrack	15.0	SCS215b	20120207.161309	20120207.163506	8	0.013328	60	10	60-180	60	122	GapExp	BigFlash	0	189	2	30	1	target	1	407	797	168390	13.328	12.943	13.710
ProbeTrack15	8	ProbeTrack	15.0	SCS215b	20120207.161309	20120207.163513	8	0.013328	60	10	60-180	60	158	GapExp	BigFlash	0	190	2	30	1	target	1	466	767	169157	13.328	13.084	13.571
ProbeTrack15	8	ProbeTrack	15.0	SCS215b	20120207.161309	20120207.163521	8	0.013328	60	10	60-180	60	103	GapExp	BigFlash	0	191	2	30	0	early	-4	-3589	-1000	168157	13.328	12.860	13.806
ProbeTrack15	8	ProbeTrack	15.0	SCS215b	20120207.161309	20120207.163527	8	0.013328	60	10	60-180	60	162	GapExp	BigFlash	0	192	2	30	1	target	1	467	767	168924	13.371	12.864	26.951
ProbeTrack15	8	ProbeTrack	15.0	SCS215b	20120207.161309	20120207.163536	8	0.013328	60	10	60-180	60	179	GapExp	BigFlash	0	193	2	3	0	distractor	1	485	758	169682	13.328	12.875	13.789
ProbeTrack15	8	ProbeTrack	15.0	SCS215b	20120207.161309	20120207.163545	8	0.013328	60	10	60-180	60	141	GapExp	BigFlash	0	194	2	0	0	distractor	1	490	755	170437	13.328	12.873	13.800
ProbeTrack15	8	ProbeTrack	15.0	SCS215b	20120207.161309	20120207.163552	8	0.013328	60	10	60-180	60	167	GapExp	BigFlash	0	195	2	3	1	target	1	460	770	171207	13.328	13.256	13.409
ProbeTrack15	8	ProbeTrack	15.0	SCS215b	20120207.161309	20120207.163559	8	0.013328	60	10	60-180	60	73	GapExp	BigFlash	0	196	2	30	0	distractor	1	560	720	171927	13.328	12.980	13.678
ProbeTrack15	8	ProbeTrack	15.0	SCS215b	20120207.161309	20120207.163606	8	0.013328	60	10	60-180	60	76	GapExp	BigFlash	0	197	2	3	0	distractor	1	482	759	172686	13.328	13.196	13.459
ProbeTrack15	8	ProbeTrack	15.0	SCS215b	20120207.161309	20120207.163613	8	0.013328	60	10	60-180	60	123	GapExp	BigFlash	0	198	2	0	1	target	1	390	805	173491	13.328	13.294	13.353
ProbeTrack15	8	ProbeTrack	15.0	SCS215b	20120207.161309	20120207.163620	8	0.013328	60	10	60-180	60	150	GapExp	BigFlash	0	199	2	30	1	target	1	410	795	174286	13.328	12.927	13.735
ProbeTrack15	8	ProbeTrack	15.0	SCS215b	20120207.161309	20120207.163627	8	0.013328	60	10	60-180	60	144	GapExp	BigFlash	0	200	2	3	0	distractor	1	533	734	175020	13.328	13.162	13.478
ProbeTrack15	8	ProbeTrack	15.0	SCS215b	20120207.163737	20120207.163744	8	0.013325	60	10	60-180	60	82	GapPrac	SmallFlash	1	1	2	30	1	target	1	664	668	175688	13.382	10.502	16.154
ProbeTrack15	8	ProbeTrack	15.0	SCS215b	20120207.163737	20120207.163751	8	0.013325	60	10	60-180	60	118	GapPrac	SmallFlash	1	2	2	0	0	distractor	1	475	763	176451	13.328	8.000	18.662
ProbeTrack15	8	ProbeTrack	15.0	SCS215b	20120207.163737	20120207.163757	8	0.013325	60	10	60-180	60	88	GapPrac	SmallFlash	1	3	2	1	0	distractor	1	509	746	177197	13.328	5.842	20.803
ProbeTrack15	8	ProbeTrack	15.0	SCS215b	20120207.163737	20120207.163803	8	0.013325	60	10	60-180	60	111	GapPrac	SmallFlash	1	4	2	1	1	target	1	394	803	178000	13.328	4.400	22.250
ProbeTrack15	8	ProbeTrack	15.0	SCS215b	20120207.163737	20120207.163808	8	0.013325	60	10	60-180	60	176	GapPrac	SmallFlash	1	5	2	3	1	target	1	339	831	178831	13.306	6.835	13.549
ProbeTrack15	8	ProbeTrack	15.0	SCS215b	20120207.163737	20120207.163815	8	0.013325	60	10	60-180	60	161	GapPrac	SmallFlash	1	6	2	3	0	distractor	1	531	735	179566	13.328	9.097	17.556
ProbeTrack15	8	ProbeTrack	15.0	SCS215b	20120207.163737	20120207.163822	8	0.013325	60	10	60-180	60	96	GapPrac	SmallFlash	1	7	2	1	1	target	1	376	812	180378	13.328	6.976	19.677
ProbeTrack15	8	ProbeTrack	15.0	SCS215b	20120207.163737	20120207.163828	8	0.013325	60	10	60-180	60	155	GapPrac	SmallFlash	1	8	2	0	0	distractor	1	491	755	181133	13.328	8.740	17.924
ProbeTrack15	8	ProbeTrack	15.0	SCS215b	20120207.163737	20120207.163835	8	0.013325	60	10	60-180	60	91	GapPrac	SmallFlash	1	9	2	0	0	distractor	1	442	779	181912	13.328	8.039	18.606
ProbeTrack15	8	ProbeTrack	15.0	SCS215b	20120207.163737	20120207.163840	8	0.013325	60	10	60-180	60	99	GapPrac	SmallFlash	1	10	2	3	0	target	0	833	-1000	180912	13.328	3.711	22.943
ProbeTrack15	8	ProbeTrack	15.0	SCS215b	20120207.163737	20120207.163846	8	0.013325	60	10	60-180	60	153	GapPrac	SmallFlash	1	11	2	3	1	target	1	562	719	181631	13.328	5.155	21.488
ProbeTrack15	8	ProbeTrack	15.0	SCS215b	20120207.163737	20120207.163853	8	0.013325	60	10	60-180	60	78	GapPrac	SmallFlash	1	12	2	30	1	target	1	483	759	182390	13.328	3.969	22.697
ProbeTrack15	8	ProbeTrack	15.0	SCS215b	20120207.163737	20120207.163859	8	0.013325	60	10	60-180	60	147	GapPrac	SmallFlash	1	13	2	0	1	target	1	744	628	183018	13.328	5.399	21.272
ProbeTrack15	8	ProbeTrack	15.0	SCS215b	20120207.163737	20120207.163906	8	0.013325	60	10	60-180	60	137	GapPrac	SmallFlash	1	14	2	0	1	target	1	536	732	183750	13.325	8.339	18.335
ProbeTrack15	8	ProbeTrack	15.0	SCS215b	20120207.163737	20120207.163913	8	0.013325	60	10	60-180	60	80	GapPrac	SmallFlash	1	15	2	1	1	target	1	505	748	184498	13.328	5.143	21.524
ProbeTrack15	8	ProbeTrack	15.0	SCS215b	20120207.163737	20120207.163919	8	0.013325	60	10	60-180	60	180	GapPrac	SmallFlash	1	16	2	30	0	distractor	1	497	752	185250	13.328	4.372	22.288
ProbeTrack15	8	ProbeTrack	15.0	SCS215b	20120207.163737	20120207.163926	8	0.013325	60	10	60-180	60	176	GapPrac	SmallFlash	1	17	2	30	1	target	1	359	821	186071	13.328	3.859	22.800
ProbeTrack15	8	ProbeTrack	15.0	SCS215b	20120207.163737	20120207.163934	8	0.013325	60	10	60-180	60	168	GapPrac	SmallFlash	1	18	2	1	0	distractor	1	451	775	186846	13.328	9.648	17.009
ProbeTrack15	8	ProbeTrack	15.0	SCS215b	20120207.163737	20120207.163941	8	0.013325	60	10	60-180	60	155	GapPrac	SmallFlash	1	19	2	30	0	distractor	1	482	759	187605	13.328	13.115	13.552
ProbeTrack15	8	ProbeTrack	15.0	SCS215b	20120207.163737	20120207.163947	8	0.013325	60	10	60-180	60	73	GapPrac	SmallFlash	1	20	2	1	0	distractor	1	487	757	188362	13.328	3.843	22.815
ProbeTrack15	8	ProbeTrack	15.0	SCS215b	20120207.164027	20120207.164033	8	0.013328	60	10	60-180	60	143	GapExp	SmallFlash	1	1	2	3	1	target	1	370	815	189177	13.379	12.909	13.765
ProbeTrack15	8	ProbeTrack	15.0	SCS215b	20120207.164027	20120207.164040	8	0.013328	60	10	60-180	60	69	GapExp	SmallFlash	1	2	2	1	0	distractor	1	409	796	189973	13.328	12.925	13.730
ProbeTrack15	8	ProbeTrack	15.0	SCS215b	20120207.164027	20120207.164045	8	0.013328	60	10	60-180	60	97	GapExp	SmallFlash	1	3	2	30	0	target	0	402	-1000	188973	13.328	12.848	13.806
ProbeTrack15	8	ProbeTrack	15.0	SCS215b	20120207.164027	20120207.164051	8	0.013328	60	10	60-180	60	119	GapExp	SmallFlash	1	4	2	3	0	distractor	1	537	732	189705	13.328	12.887	13.778
ProbeTrack15	8	ProbeTrack	15.0	SCS215b	20120207.164027	20120207.164058	8	0.013328	60	10	60-180	60	88	GapExp	SmallFlash	1	5	2	1	1	target	1	376	812	190517	13.328	12.853	13.684
ProbeTrack15	8	ProbeTrack	15.0	SCS215b	20120207.164027	20120207.164103	8	0.013328	60	10	60-180	60	139	GapExp	SmallFlash	1	6	2	0	0	distractor	1	462	769	191286	13.328	12.937	13.701
ProbeTrack15	8	ProbeTrack	15.0	SCS215b	20120207.164027	20120207.164109	8	0.013328	60	10	60-180	60	162	GapExp	SmallFlash	1	7	2	0	1	target	1	437	782	192068	13.328	12.882	13.785
ProbeTrack15	8	ProbeTrack	15.0	SCS215b	20120207.164027	20120207.164116	8	0.013328	60	10	60-180	60	125	GapExp	SmallFlash	1	8	2	30	1	target	1	405	798	192866	13.328	12.886	13.782
ProbeTrack15	8	ProbeTrack	15.0	SCS215b	20120207.164027	20120207.164123	8	0.013328	60	10	60-180	60	102	GapExp	SmallFlash	0	9	2	0	1	target	1	330	835	193701	13.328	12.921	13.745
ProbeTrack15	8	ProbeTrack	15.0	SCS215b	20120207.164027	20120207.164128	8	0.013328	60	10	60-180	60	129	GapExp	SmallFlash	0	10	2	0	0	distractor	1	502	749	194450	13.328	12.887	13.771
ProbeTrack15	8	ProbeTrack	15.0	SCS215b	20120207.164027	20120207.164134	8	0.013328	60	10	60-180	60	102	GapExp	SmallFlash	0	11	2	0	1	target	1	332	834	195284	13.328	12.860	13.809
ProbeTrack15	8	ProbeTrack	15.0	SCS215b	20120207.164027	20120207.164140	8	0.013328	60	10	60-180	60	160	GapExp	SmallFlash	0	12	2	3	0	distractor	1	631	685	195969	13.328	12.840	13.813
ProbeTrack15	8	ProbeTrack	15.0	SCS215b	20120207.164027	20120207.164147	8	0.013328	60	10	60-180	60	79	GapExp	SmallFlash	0	13	2	30	1	target	1	305	848	196817	13.328	12.896	13.765
ProbeTrack15	8	ProbeTrack	15.0	SCS215b	20120207.164027	20120207.164152	8	0.013328	60	10	60-180	60	116	GapExp	SmallFlash	0	14	2	0	0	distractor	1	577	712	197529	13.328	13.106	13.551
ProbeTrack15	8	ProbeTrack	15.0	SCS215b	20120207.164027	20120207.164159	8	0.013328	60	10	60-180	60	128	GapExp	SmallFlash	0	15	2	0	1	target	1	306	847	198376	13.328	12.880	13.768
ProbeTrack15	8	ProbeTrack	15.0	SCS215b	20120207.164027	20120207.164205	8	0.013328	60	10	60-180	60	129	GapExp	SmallFlash	0	16	2	1	1	target	1	418	791	199167	13.328	12.910	13.741
ProbeTrack15	8	ProbeTrack	15.0	SCS215b	20120207.164027	20120207.164213	8	0.013328	60	10	60-180	60	174	GapExp	SmallFlash	0	17	2	30	1	target	1	345	828	199995	13.328	12.971	13.706
ProbeTrack15	8	ProbeTrack	15.0	SCS215b	20120207.164027	20120207.164221	8	0.013328	60	10	60-180	60	80	GapExp	SmallFlash	0	18	2	30	0	distractor	1	500	750	200745	13.328	12.898	13.760
ProbeTrack15	8	ProbeTrack	15.0	SCS215b	20120207.164027	20120207.164226	8	0.013328	60	10	60-180	60	170	GapExp	SmallFlash	0	19	2	0	0	target	0	449	-1000	199745	13.328	12.944	13.713
ProbeTrack15	8	ProbeTrack	15.0	SCS215b	20120207.164027	20120207.164233	8	0.013328	60	10	60-180	60	62	GapExp	SmallFlash	0	20	2	3	0	distractor	1	785	608	200353	13.328	12.859	13.774
ProbeTrack15	8	ProbeTrack	15.0	SCS215b	20120207.164027	20120207.164239	8	0.013328	60	10	60-180	60	147	GapExp	SmallFlash	0	21	2	0	0	distractor	1	480	760	201113	13.377	12.862	26.616
ProbeTrack15	8	ProbeTrack	15.0	SCS215b	20120207.164027	20120207.164245	8	0.013328	60	10	60-180	60	82	GapExp	SmallFlash	0	22	2	0	0	distractor	1	603	699	201812	13.328	12.860	13.793
ProbeTrack15	8	ProbeTrack	15.0	SCS215b	20120207.164027	20120207.164251	8	0.013328	60	10	60-180	60	92	GapExp	SmallFlash	0	23	2	30	1	target	1	430	785	202597	13.328	12.879	13.805
ProbeTrack15	8	ProbeTrack	15.0	SCS215b	20120207.164027	20120207.164257	8	0.013328	60	10	60-180	60	178	GapExp	SmallFlash	0	24	2	3	0	distractor	1	535	733	203330	13.328	12.906	13.783
ProbeTrack15	8	ProbeTrack	15.0	SCS215b	20120207.164027	20120207.164304	8	0.013328	60	10	60-180	60	123	GapExp	SmallFlash	0	25	2	30	0	distractor	1	476	762	204092	13.328	12.911	13.727
ProbeTrack15	8	ProbeTrack	15.0	SCS215b	20120207.164027	20120207.164311	8	0.013328	60	10	60-180	60	172	GapExp	SmallFlash	0	26	2	30	1	target	1	417	792	204884	13.328	13.095	13.484
ProbeTrack15	8	ProbeTrack	15.0	SCS215b	20120207.164027	20120207.164318	8	0.013328	60	10	60-180	60	87	GapExp	SmallFlash	0	27	2	30	1	target	1	355	823	205707	13.386	12.925	26.775
ProbeTrack15	8	ProbeTrack	15.0	SCS215b	20120207.164027	20120207.164324	8	0.013328	60	10	60-180	60	165	GapExp	SmallFlash	0	28	2	1	0	distractor	1	496	752	206459	13.328	12.888	13.817
ProbeTrack15	8	ProbeTrack	15.0	SCS215b	20120207.164027	20120207.164331	8	0.013328	60	10	60-180	60	128	GapExp	SmallFlash	0	29	2	0	1	target	1	318	841	207300	13.328	13.259	13.381
ProbeTrack15	8	ProbeTrack	15.0	SCS215b	20120207.164027	20120207.164336	8	0.013328	60	10	60-180	60	66	GapExp	SmallFlash	0	30	2	1	1	target	1	349	826	208126	13.328	12.914	13.762
ProbeTrack15	8	ProbeTrack	15.0	SCS215b	20120207.164027	20120207.164341	8	0.013328	60	10	60-180	60	100	GapExp	SmallFlash	0	31	2	3	1	target	1	351	825	208951	13.328	12.848	13.795
ProbeTrack15	8	ProbeTrack	15.0	SCS215b	20120207.164027	20120207.164346	8	0.013328	60	10	60-180	60	99	GapExp	SmallFlash	0	32	2	30	0	distractor	1	546	727	209678	13.328	12.939	13.720
ProbeTrack15	8	ProbeTrack	15.0	SCS215b	20120207.164027	20120207.164353	8	0.013328	60	10	60-180	60	148	GapExp	SmallFlash	0	33	2	1	1	target	1	347	827	210505	13.328	13.100	13.564
ProbeTrack15	8	ProbeTrack	15.0	SCS215b	20120207.164027	20120207.164359	8	0.013328	60	10	60-180	60	101	GapExp	SmallFlash	0	34	2	3	1	target	1	338	831	211336	13.328	12.916	13.708
ProbeTrack15	8	ProbeTrack	15.0	SCS215b	20120207.164027	20120207.164405	8	0.013328	60	10	60-180	60	180	GapExp	SmallFlash	0	35	2	3	0	distractor	1	479	761	212097	13.328	12.845	13.814
ProbeTrack15	8	ProbeTrack	15.0	SCS215b	20120207.164027	20120207.164412	8	0.013328	60	10	60-180	60	72	GapExp	SmallFlash	0	36	2	30	0	distractor	1	498	751	212848	13.328	12.799	14.015
ProbeTrack15	8	ProbeTrack	15.0	SCS215b	20120207.164027	20120207.164418	8	0.013328	60	10	60-180	60	142	GapExp	SmallFlash	0	37	2	30	1	target	1	344	828	213676	13.328	12.870	13.807
ProbeTrack15	8	ProbeTrack	15.0	SCS215b	20120207.164027	20120207.164424	8	0.013328	60	10	60-180	60	84	GapExp	SmallFlash	0	38	2	30	1	target	1	297	852	214528	13.328	12.874	13.816
ProbeTrack15	8	ProbeTrack	15.0	SCS215b	20120207.164027	20120207.164430	8	0.013328	60	10	60-180	60	89	GapExp	SmallFlash	0	39	2	3	0	distractor	1	632	684	215212	13.328	12.848	13.820
ProbeTrack15	8	ProbeTrack	15.0	SCS215b	20120207.164027	20120207.164436	8	0.013328	60	10	60-180	60	78	GapExp	SmallFlash	0	40	2	3	1	target	1	376	812	216024	13.328	13.204	13.445
ProbeTrack15	8	ProbeTrack	15.0	SCS215b	20120207.164027	20120207.164442	8	0.013328	60	10	60-180	60	75	GapExp	SmallFlash	0	41	2	0	1	target	1	330	835	216859	13.400	12.836	27.076
ProbeTrack15	8	ProbeTrack	15.0	SCS215b	20120207.164027	20120207.164447	8	0.013328	60	10	60-180	60	62	GapExp	SmallFlash	0	42	2	1	0	distractor	1	595	703	217562	13.328	12.953	13.696
ProbeTrack15	8	ProbeTrack	15.0	SCS215b	20120207.164027	20120207.164452	8	0.013328	60	10	60-180	60	123	GapExp	SmallFlash	0	43	2	3	1	target	1	351	825	218387	13.328	12.865	13.823
ProbeTrack15	8	ProbeTrack	15.0	SCS215b	20120207.164027	20120207.164458	8	0.013328	60	10	60-180	60	111	GapExp	SmallFlash	0	44	2	30	0	distractor	1	487	757	219144	13.328	12.853	13.772
ProbeTrack15	8	ProbeTrack	15.0	SCS215b	20120207.164027	20120207.164504	8	0.013328	60	10	60-180	60	126	GapExp	SmallFlash	0	45	2	1	1	target	1	361	820	219964	13.328	12.843	13.811
ProbeTrack15	8	ProbeTrack	15.0	SCS215b	20120207.164027	20120207.164510	8	0.013328	60	10	60-180	60	154	GapExp	SmallFlash	0	46	2	30	1	target	1	375	813	220777	13.328	12.976	13.683
ProbeTrack15	8	ProbeTrack	15.0	SCS215b	20120207.164027	20120207.164517	8	0.013328	60	10	60-180	60	171	GapExp	SmallFlash	0	47	2	30	0	distractor	1	538	731	221508	13.328	13.012	13.652
ProbeTrack15	8	ProbeTrack	15.0	SCS215b	20120207.164027	20120207.164524	8	0.013328	60	10	60-180	60	154	GapExp	SmallFlash	0	48	2	1	0	distractor	1	496	752	222260	13.328	12.908	13.771
ProbeTrack15	8	ProbeTrack	15.0	SCS215b	20120207.164027	20120207.164530	8	0.013328	60	10	60-180	60	71	GapExp	SmallFlash	0	49	2	3	1	target	1	356	822	223082	13.328	13.076	13.570
ProbeTrack15	8	ProbeTrack	15.0	SCS215b	20120207.164027	20120207.164536	8	0.013328	60	10	60-180	60	152	GapExp	SmallFlash	0	50	2	3	1	target	1	330	835	223917	13.328	12.936	13.708
ProbeTrack15	8	ProbeTrack	15.0	SCS215b	20120207.164027	20120207.164542	8	0.013328	60	10	60-180	60	69	GapExp	SmallFlash	0	51	2	30	1	target	1	466	767	224684	13.328	12.913	13.743
ProbeTrack15	8	ProbeTrack	15.0	SCS215b	20120207.164027	20120207.164547	8	0.013328	60	10	60-180	60	72	GapExp	SmallFlash	0	52	2	3	0	distractor	1	584	708	225392	13.328	13.078	13.555
ProbeTrack15	8	ProbeTrack	15.0	SCS215b	20120207.164027	20120207.164553	8	0.013328	60	10	60-180	60	94	GapExp	SmallFlash	0	53	2	30	0	distractor	1	610	695	226087	13.328	13.106	13.549
ProbeTrack15	8	ProbeTrack	15.0	SCS215b	20120207.164027	20120207.164559	8	0.013328	60	10	60-180	60	100	GapExp	SmallFlash	0	54	2	3	1	target	1	308	846	226933	13.328	12.861	13.778
ProbeTrack15	8	ProbeTrack	15.0	SCS215b	20120207.164027	20120207.164605	8	0.013328	60	10	60-180	60	129	GapExp	SmallFlash	0	55	2	1	1	target	1	360	820	227753	13.328	12.855	13.803
ProbeTrack15	8	ProbeTrack	15.0	SCS215b	20120207.164027	20120207.164613	8	0.013328	60	10	60-180	60	79	GapExp	SmallFlash	0	56	2	1	0	distractor	1	453	774	228527	13.328	13.093	13.554
ProbeTrack15	8	ProbeTrack	15.0	SCS215b	20120207.164027	20120207.164618	8	0.013328	60	10	60-180	60	85	GapExp	SmallFlash	0	57	2	0	1	target	1	371	815	229342	13.328	13.239	13.418
ProbeTrack15	8	ProbeTrack	15.0	SCS215b	20120207.164027	20120207.164624	8	0.013328	60	10	60-180	60	126	GapExp	SmallFlash	0	58	2	30	1	target	1	309	846	230188	13.328	13.306	13.353
ProbeTrack15	8	ProbeTrack	15.0	SCS215b	20120207.164027	20120207.164630	8	0.013328	60	10	60-180	60	110	GapExp	SmallFlash	0	59	2	0	0	distractor	1	505	748	230936	13.328	12.848	13.810
ProbeTrack15	8	ProbeTrack	15.0	SCS215b	20120207.164027	20120207.164636	8	0.013328	60	10	60-180	60	99	GapExp	SmallFlash	0	60	2	30	0	distractor	1	497	752	231688	13.328	12.942	13.698
ProbeTrack15	8	ProbeTrack	15.0	SCS215b	20120207.164027	20120207.164642	8	0.013328	60	10	60-180	60	124	GapExp	SmallFlash	0	61	2	0	0	distractor	1	429	786	232474	13.328	13.065	13.607
ProbeTrack15	8	ProbeTrack	15.0	SCS215b	20120207.164027	20120207.164649	8	0.013328	60	10	60-180	60	110	GapExp	SmallFlash	0	62	2	30	1	target	1	824	588	233062	13.328	13.099	13.555
ProbeTrack15	8	ProbeTrack	15.0	SCS215b	20120207.164027	20120207.164656	8	0.013328	60	10	60-180	60	62	GapExp	SmallFlash	0	63	2	1	1	target	1	614	693	233755	13.328	13.288	13.358
ProbeTrack15	8	ProbeTrack	15.0	SCS215b	20120207.164027	20120207.164701	8	0.013328	60	10	60-180	60	83	GapExp	SmallFlash	0	64	2	0	1	target	1	389	806	234561	13.328	12.890	13.746
ProbeTrack15	8	ProbeTrack	15.0	SCS215b	20120207.164027	20120207.164706	8	0.013328	60	10	60-180	60	81	GapExp	SmallFlash	0	65	2	0	0	distractor	1	739	631	235192	13.328	13.092	13.553
ProbeTrack15	8	ProbeTrack	15.0	SCS215b	20120207.164027	20120207.164712	8	0.013328	60	10	60-180	60	70	GapExp	SmallFlash	0	66	2	0	0	distractor	1	441	780	235972	13.328	13.308	13.352
ProbeTrack15	8	ProbeTrack	15.0	SCS215b	20120207.164027	20120207.164720	8	0.013328	60	10	60-180	60	147	GapExp	SmallFlash	0	67	2	3	1	target	1	310	845	236817	13.328	12.894	13.766
ProbeTrack15	8	ProbeTrack	15.0	SCS215b	20120207.164027	20120207.164726	8	0.013328	60	10	60-180	60	93	GapExp	SmallFlash	0	68	2	0	1	target	1	313	844	237661	13.328	13.202	13.458
ProbeTrack15	8	ProbeTrack	15.0	SCS215b	20120207.164027	20120207.164731	8	0.013328	60	10	60-180	60	120	GapExp	SmallFlash	0	69	2	0	1	target	1	312	844	238505	13.328	13.307	13.356
ProbeTrack15	8	ProbeTrack	15.0	SCS215b	20120207.164027	20120207.164737	8	0.013328	60	10	60-180	60	109	GapExp	SmallFlash	0	70	2	30	1	target	1	305	848	239353	13.328	12.870	13.789
ProbeTrack15	8	ProbeTrack	15.0	SCS215b	20120207.164027	20120207.164743	8	0.013328	60	10	60-180	60	83	GapExp	SmallFlash	0	71	2	1	0	distractor	1	467	767	240120	13.328	12.874	13.785
ProbeTrack15	8	ProbeTrack	15.0	SCS215b	20120207.164027	20120207.164749	8	0.013328	60	10	60-180	60	71	GapExp	SmallFlash	0	72	2	1	0	distractor	1	461	770	240890	13.328	12.906	13.748
ProbeTrack15	8	ProbeTrack	15.0	SCS215b	20120207.164027	20120207.164754	8	0.013328	60	10	60-180	60	144	GapExp	SmallFlash	0	73	2	1	0	distractor	1	443	779	241669	13.328	12.993	13.653
ProbeTrack15	8	ProbeTrack	15.0	SCS215b	20120207.164027	20120207.164801	8	0.013328	60	10	60-180	60	62	GapExp	SmallFlash	0	74	2	30	0	distractor	1	640	680	242349	13.328	12.906	13.774
ProbeTrack15	8	ProbeTrack	15.0	SCS215b	20120207.164027	20120207.164806	8	0.013328	60	10	60-180	60	71	GapExp	SmallFlash	0	75	2	1	1	target	1	417	792	243141	13.328	13.031	13.617
ProbeTrack15	8	ProbeTrack	15.0	SCS215b	20120207.164027	20120207.164812	8	0.013328	60	10	60-180	60	104	GapExp	SmallFlash	0	76	2	30	0	distractor	1	460	770	243911	13.328	12.831	13.841
ProbeTrack15	8	ProbeTrack	15.0	SCS215b	20120207.164027	20120207.164817	8	0.013328	60	10	60-180	60	88	GapExp	SmallFlash	0	77	2	3	1	target	1	384	808	244719	13.328	12.841	13.796
ProbeTrack15	8	ProbeTrack	15.0	SCS215b	20120207.164027	20120207.164823	8	0.013328	60	10	60-180	60	176	GapExp	SmallFlash	0	78	2	0	0	distractor	1	505	748	245467	13.328	13.074	13.559
ProbeTrack15	8	ProbeTrack	15.0	SCS215b	20120207.164027	20120207.164830	8	0.013328	60	10	60-180	60	62	GapExp	SmallFlash	0	79	2	3	0	distractor	1	499	751	246218	13.328	13.022	13.620
ProbeTrack15	8	ProbeTrack	15.0	SCS215b	20120207.164027	20120207.164835	8	0.013328	60	10	60-180	60	143	GapExp	SmallFlash	0	80	2	3	0	distractor	1	421	790	247008	13.328	12.845	13.823
ProbeTrack15	8	ProbeTrack	15.0	SCS215b	20120207.164027	20120207.164841	8	0.013328	60	10	60-180	60	100	GapExp	SmallFlash	0	81	2	1	1	target	1	317	842	247850	13.328	12.949	13.708
ProbeTrack15	8	ProbeTrack	15.0	SCS215b	20120207.164027	20120207.164847	8	0.013328	60	10	60-180	60	85	GapExp	SmallFlash	0	82	2	30	0	distractor	1	434	783	248633	13.328	12.875	13.791
ProbeTrack15	8	ProbeTrack	15.0	SCS215b	20120207.164027	20120207.164853	8	0.013328	60	10	60-180	60	93	GapExp	SmallFlash	0	83	2	0	1	target	1	349	826	249459	13.328	13.304	13.352
ProbeTrack15	8	ProbeTrack	15.0	SCS215b	20120207.164027	20120207.164858	8	0.013328	60	10	60-180	60	154	GapExp	SmallFlash	0	84	2	3	1	target	1	399	801	250260	13.328	12.871	13.788
ProbeTrack15	8	ProbeTrack	15.0	SCS215b	20120207.164027	20120207.164905	8	0.013328	60	10	60-180	60	150	GapExp	SmallFlash	0	85	2	30	1	target	1	402	799	251059	13.328	12.820	13.841
ProbeTrack15	8	ProbeTrack	15.0	SCS215b	20120207.164027	20120207.164912	8	0.013328	60	10	60-180	60	88	GapExp	SmallFlash	0	86	2	3	0	distractor	1	505	748	251807	13.328	12.914	13.728
ProbeTrack15	8	ProbeTrack	15.0	SCS215b	20120207.164027	20120207.164917	8	0.013328	60	10	60-180	60	89	GapExp	SmallFlash	0	87	2	0	0	distractor	1	538	731	252538	13.328	13.304	13.352
ProbeTrack15	8	ProbeTrack	15.0	SCS215b	20120207.164027	20120207.164923	8	0.013328	60	10	60-180	60	151	GapExp	SmallFlash	0	88	2	30	1	target	1	352	824	253362	13.328	12.973	13.673
ProbeTrack15	8	ProbeTrack	15.0	SCS215b	20120207.164027	20120207.164929	8	0.013328	60	10	60-180	60	128	GapExp	SmallFlash	0	89	2	30	1	target	1	297	852	254214	13.328	12.938	13.563
ProbeTrack15	8	ProbeTrack	15.0	SCS215b	20120207.164027	20120207.164936	8	0.013328	60	10	60-180	60	149	GapExp	SmallFlash	0	90	2	1	0	distractor	1	443	779	254993	13.328	12.985	13.686
ProbeTrack15	8	ProbeTrack	15.0	SCS215b	20120207.164027	20120207.164943	8	0.013328	60	10	60-180	60	143	GapExp	SmallFlash	0	91	2	0	0	distractor	1	439	781	255774	13.328	12.831	13.825
ProbeTrack15	8	ProbeTrack	15.0	SCS215b	20120207.164027	20120207.164953	8	0.013328	60	10	60-180	60	156	GapExp	SmallFlash	0	92	2	30	0	distractor	1	439	781	256555	13.328	12.904	13.752
ProbeTrack15	8	ProbeTrack	15.0	SCS215b	20120207.164027	20120207.164959	8	0.013328	60	10	60-180	60	122	GapExp	SmallFlash	0	93	2	0	1	target	1	365	818	257373	13.328	13.030	13.616
ProbeTrack15	8	ProbeTrack	15.0	SCS215b	20120207.164027	20120207.165005	8	0.013328	60	10	60-180	60	104	GapExp	SmallFlash	0	94	2	1	1	target	1	312	844	258217	13.328	12.879	13.780
ProbeTrack15	8	ProbeTrack	15.0	SCS215b	20120207.164027	20120207.165011	8	0.013328	60	10	60-180	60	175	GapExp	SmallFlash	0	95	2	3	0	distractor	1	453	774	258991	13.328	13.017	13.649
ProbeTrack15	8	ProbeTrack	15.0	SCS215b	20120207.164027	20120207.165018	8	0.013328	60	10	60-180	60	99	GapExp	SmallFlash	0	96	2	1	1	target	1	638	681	259672	13.328	13.108	13.551
ProbeTrack15	8	ProbeTrack	15.0	SCS215b	20120207.164027	20120207.165024	8	0.013328	60	10	60-180	60	159	GapExp	SmallFlash	0	97	2	3	0	distractor	1	519	741	260413	13.328	12.875	13.770
ProbeTrack15	8	ProbeTrack	15.0	SCS215b	20120207.164027	20120207.165030	8	0.013328	60	10	60-180	60	135	GapExp	SmallFlash	0	98	2	3	0	distractor	1	531	735	261148	13.328	12.864	13.787
ProbeTrack15	8	ProbeTrack	15.0	SCS215b	20120207.164027	20120207.165037	8	0.013328	60	10	60-180	60	72	GapExp	SmallFlash	0	99	2	0	1	distractor	0	567	-1000	260148	13.328	13.100	13.541
ProbeTrack15	8	ProbeTrack	15.0	SCS215b	20120207.164027	20120207.165047	8	0.013328	60	10	60-180	60	122	GapExp	SmallFlash	0	100	2	3	0	distractor	1	428	786	260934	13.328	12.866	13.781
ProbeTrack15	8	ProbeTrack	15.0	SCS215b	20120207.164027	20120207.165053	8	0.013328	60	10	60-180	60	172	GapExp	SmallFlash	0	101	2	0	1	target	1	404	798	261732	13.328	12.866	13.785
ProbeTrack15	8	ProbeTrack	15.0	SCS215b	20120207.164027	20120207.165100	8	0.013328	60	10	60-180	60	105	GapExp	SmallFlash	0	102	2	1	1	target	1	306	847	262579	13.328	12.912	13.822
ProbeTrack15	8	ProbeTrack	15.0	SCS215b	20120207.164027	20120207.165105	8	0.013328	60	10	60-180	60	176	GapExp	SmallFlash	0	103	2	30	1	distractor	0	624	-1000	261579	13.328	12.825	13.821
ProbeTrack15	8	ProbeTrack	15.0	SCS215b	20120207.164027	20120207.165113	8	0.013328	60	10	60-180	60	150	GapExp	SmallFlash	0	104	2	0	0	distractor	1	530	735	262314	13.328	13.133	13.525
ProbeTrack15	8	ProbeTrack	15.0	SCS215b	20120207.164027	20120207.165119	8	0.013328	60	10	60-180	60	129	GapExp	SmallFlash	0	105	2	1	0	distractor	1	487	757	263071	13.328	12.963	13.765
ProbeTrack15	8	ProbeTrack	15.0	SCS215b	20120207.164027	20120207.165126	8	0.013328	60	10	60-180	60	140	GapExp	SmallFlash	0	106	2	1	1	target	1	313	844	263915	13.328	12.854	13.806
ProbeTrack15	8	ProbeTrack	15.0	SCS215b	20120207.164027	20120207.165131	8	0.013328	60	10	60-180	60	69	GapExp	SmallFlash	0	107	2	30	0	distractor	1	493	754	264669	13.328	12.908	13.750
ProbeTrack15	8	ProbeTrack	15.0	SCS215b	20120207.164027	20120207.165137	8	0.013328	60	10	60-180	60	123	GapExp	SmallFlash	0	108	2	1	1	target	1	352	824	265493	13.328	12.864	13.775
ProbeTrack15	8	ProbeTrack	15.0	SCS215b	20120207.164027	20120207.165143	8	0.013328	60	10	60-180	60	119	GapExp	SmallFlash	0	109	2	0	1	target	1	375	813	266306	13.328	13.103	13.542
ProbeTrack15	8	ProbeTrack	15.0	SCS215b	20120207.164027	20120207.165148	8	0.013328	60	10	60-180	60	167	GapExp	SmallFlash	0	110	2	0	0	distractor	1	491	755	267061	13.328	13.084	13.569
ProbeTrack15	8	ProbeTrack	15.0	SCS215b	20120207.164027	20120207.165155	8	0.013328	60	10	60-180	60	108	GapExp	SmallFlash	0	111	2	1	0	distractor	1	465	768	267829	13.328	12.853	13.808
ProbeTrack15	8	ProbeTrack	15.0	SCS215b	20120207.164027	20120207.165201	8	0.013328	60	10	60-180	60	179	GapExp	SmallFlash	0	112	2	1	1	target	1	322	839	268668	13.328	13.202	13.449
ProbeTrack15	8	ProbeTrack	15.0	SCS215b	20120207.164027	20120207.165207	8	0.013328	60	10	60-180	60	151	GapExp	SmallFlash	0	113	2	1	0	distractor	1	446	777	269445	13.328	12.859	13.804
ProbeTrack15	8	ProbeTrack	15.0	SCS215b	20120207.164027	20120207.165214	8	0.013328	60	10	60-180	60	81	GapExp	SmallFlash	0	114	2	30	1	target	1	785	608	270053	13.328	13.061	13.595
ProbeTrack15	8	ProbeTrack	15.0	SCS215b	20120207.164027	20120207.165220	8	0.013328	60	10	60-180	60	70	GapExp	SmallFlash	0	115	2	1	0	distractor	1	497	752	270805	13.328	13.126	13.543
ProbeTrack15	8	ProbeTrack	15.0	SCS215b	20120207.164027	20120207.165227	8	0.013328	60	10	60-180	60	133	GapExp	SmallFlash	0	116	2	0	0	distractor	1	488	756	271561	13.328	12.837	13.830
ProbeTrack15	8	ProbeTrack	15.0	SCS215b	20120207.164027	20120207.165233	8	0.013328	60	10	60-180	60	131	GapExp	SmallFlash	0	117	2	1	1	target	1	301	850	272411	13.328	13.049	13.600
ProbeTrack15	8	ProbeTrack	15.0	SCS215b	20120207.164027	20120207.165239	8	0.013328	60	10	60-180	60	112	GapExp	SmallFlash	0	118	2	1	0	distractor	1	555	723	273134	13.328	12.904	13.766
ProbeTrack15	8	ProbeTrack	15.0	SCS215b	20120207.164027	20120207.165245	8	0.013328	60	10	60-180	60	88	GapExp	SmallFlash	0	119	2	3	1	target	1	331	835	273969	13.328	12.839	13.803
ProbeTrack15	8	ProbeTrack	15.0	SCS215b	20120207.164027	20120207.165250	8	0.013328	60	10	60-180	60	91	GapExp	SmallFlash	0	120	2	3	0	distractor	1	470	765	274734	13.328	12.865	13.776
ProbeTrack15	8	ProbeTrack	15.0	SCS215b	20120207.164027	20120207.165256	8	0.013328	60	10	60-180	60	97	GapExp	SmallFlash	0	121	2	1	0	distractor	1	499	751	275485	13.328	13.004	13.644
ProbeTrack15	8	ProbeTrack	15.0	SCS215b	20120207.164027	20120207.165302	8	0.013328	60	10	60-180	60	171	GapExp	SmallFlash	0	122	2	0	1	target	1	328	836	276321	13.422	12.926	26.951
ProbeTrack15	8	ProbeTrack	15.0	SCS215b	20120207.164027	20120207.165308	8	0.013328	60	10	60-180	60	117	GapExp	SmallFlash	0	123	2	1	0	distractor	1	442	779	277100	13.328	13.092	13.554
ProbeTrack15	8	ProbeTrack	15.0	SCS215b	20120207.164027	20120207.165314	8	0.013328	60	10	60-180	60	84	GapExp	SmallFlash	0	124	2	0	0	distractor	1	455	773	277873	13.328	12.833	13.813
ProbeTrack15	8	ProbeTrack	15.0	SCS215b	20120207.164027	20120207.165320	8	0.013328	60	10	60-180	60	66	GapExp	SmallFlash	0	125	2	0	0	distractor	1	469	766	278639	13.328	12.859	13.783
ProbeTrack15	8	ProbeTrack	15.0	SCS215b	20120207.164027	20120207.165325	8	0.013328	60	10	60-180	60	91	GapExp	SmallFlash	0	126	2	1	0	target	0	371	-1000	277639	13.328	12.914	13.748
ProbeTrack15	8	ProbeTrack	15.0	SCS215b	20120207.164027	20120207.165330	8	0.013328	60	10	60-180	60	114	GapExp	SmallFlash	0	127	2	3	0	target	0	248	-1000	276639	13.328	13.270	13.361
ProbeTrack15	8	ProbeTrack	15.0	SCS215b	20120207.164027	20120207.165336	8	0.013328	60	10	60-180	60	85	GapExp	SmallFlash	0	128	2	1	1	target	1	382	809	277448	13.328	13.098	13.571
ProbeTrack15	8	ProbeTrack	15.0	SCS215b	20120207.164027	20120207.165341	8	0.013328	60	10	60-180	60	166	GapExp	SmallFlash	0	129	2	0	1	target	1	283	859	278307	13.328	12.972	13.794
ProbeTrack15	8	ProbeTrack	15.0	SCS215b	20120207.164027	20120207.165348	8	0.013328	60	10	60-180	60	80	GapExp	SmallFlash	0	130	2	0	1	target	1	326	837	279144	13.328	13.009	13.670
ProbeTrack15	8	ProbeTrack	15.0	SCS215b	20120207.164027	20120207.165353	8	0.013328	60	10	60-180	60	90	GapExp	SmallFlash	0	131	2	1	0	distractor	1	565	718	279862	13.328	12.898	13.353
ProbeTrack15	8	ProbeTrack	15.0	SCS215b	20120207.164027	20120207.165359	8	0.013328	60	10	60-180	60	171	GapExp	SmallFlash	0	132	2	3	1	distractor	0	424	-1000	278862	13.328	12.865	13.790
ProbeTrack15	8	ProbeTrack	15.0	SCS215b	20120207.164027	20120207.165405	8	0.013328	60	10	60-180	60	153	GapExp	SmallFlash	0	133	2	3	0	distractor	1	506	747	279609	13.328	12.908	13.769
ProbeTrack15	8	ProbeTrack	15.0	SCS215b	20120207.164027	20120207.165412	8	0.013328	60	10	60-180	60	173	GapExp	SmallFlash	0	134	2	3	0	distractor	1	520	740	280349	13.328	12.953	13.802
ProbeTrack15	8	ProbeTrack	15.0	SCS215b	20120207.164027	20120207.165419	8	0.013328	60	10	60-180	60	120	GapExp	SmallFlash	0	135	2	30	0	target	0	329	-1000	279349	13.328	13.098	13.572
ProbeTrack15	8	ProbeTrack	15.0	SCS215b	20120207.164027	20120207.165425	8	0.013328	60	10	60-180	60	147	GapExp	SmallFlash	0	136	2	30	0	distractor	1	452	774	280123	13.328	12.870	13.809
ProbeTrack15	8	ProbeTrack	15.0	SCS215b	20120207.164027	20120207.165431	8	0.013328	60	10	60-180	60	70	GapExp	SmallFlash	0	137	2	3	1	target	1	332	834	280957	13.328	12.868	13.805
ProbeTrack15	8	ProbeTrack	15.0	SCS215b	20120207.164027	20120207.165437	8	0.013328	60	10	60-180	60	151	GapExp	SmallFlash	0	138	2	1	0	distractor	1	480	760	281717	13.328	13.105	13.542
ProbeTrack15	8	ProbeTrack	15.0	SCS215b	20120207.164027	20120207.165444	8	0.013328	60	10	60-180	60	116	GapExp	SmallFlash	0	139	2	0	1	target	1	441	780	282497	13.328	12.864	13.796
ProbeTrack15	8	ProbeTrack	15.0	SCS215b	20120207.164027	20120207.165449	8	0.013328	60	10	60-180	60	116	GapExp	SmallFlash	0	140	2	1	0	distractor	1	462	769	283266	13.328	12.861	13.801
ProbeTrack15	8	ProbeTrack	15.0	SCS215b	20120207.164027	20120207.165455	8	0.013328	60	10	60-180	60	79	GapExp	SmallFlash	0	141	2	30	1	target	1	344	828	284094	13.328	13.091	13.550
ProbeTrack15	8	ProbeTrack	15.0	SCS215b	20120207.164027	20120207.165501	8	0.013328	60	10	60-180	60	133	GapExp	SmallFlash	0	142	2	3	1	target	1	315	843	284937	13.328	12.863	13.797
ProbeTrack15	8	ProbeTrack	15.0	SCS215b	20120207.164027	20120207.165506	8	0.013328	60	10	60-180	60	159	GapExp	SmallFlash	0	143	2	1	1	target	1	281	860	285797	13.378	12.910	26.867
ProbeTrack15	8	ProbeTrack	15.0	SCS215b	20120207.164027	20120207.165513	8	0.013328	60	10	60-180	60	62	GapExp	SmallFlash	0	144	2	1	0	target	0	394	-1000	284797	13.328	12.948	13.721
ProbeTrack15	8	ProbeTrack	15.0	SCS215b	20120207.164027	20120207.165518	8	0.013328	60	10	60-180	60	142	GapExp	SmallFlash	0	145	2	30	0	distractor	1	414	793	285590	13.328	13.086	13.565
ProbeTrack15	8	ProbeTrack	15.0	SCS215b	20120207.164027	20120207.165525	8	0.013328	60	10	60-180	60	73	GapExp	SmallFlash	0	146	2	30	0	distractor	1	585	708	286298	13.328	13.117	13.571
ProbeTrack15	8	ProbeTrack	15.0	SCS215b	20120207.164027	20120207.165534	8	0.013328	60	10	60-180	60	73	GapExp	SmallFlash	0	147	2	3	1	target	1	343	829	287127	13.328	12.979	13.785
ProbeTrack15	8	ProbeTrack	15.0	SCS215b	20120207.164027	20120207.165540	8	0.013328	60	10	60-180	60	87	GapExp	SmallFlash	0	148	2	30	1	target	1	269	866	287993	13.328	13.154	13.489
ProbeTrack15	8	ProbeTrack	15.0	SCS215b	20120207.164027	20120207.165545	8	0.013328	60	10	60-180	60	98	GapExp	SmallFlash	0	149	2	3	1	target	1	301	850	288843	13.328	13.186	13.487
ProbeTrack15	8	ProbeTrack	15.0	SCS215b	20120207.164027	20120207.165551	8	0.013328	60	10	60-180	60	152	GapExp	SmallFlash	0	150	2	1	1	target	1	319	841	289684	13.328	12.894	13.770
ProbeTrack15	8	ProbeTrack	15.0	SCS215b	20120207.164027	20120207.165557	8	0.013328	60	10	60-180	60	79	GapExp	SmallFlash	0	151	2	0	1	target	1	372	814	290498	13.328	12.868	13.770
ProbeTrack15	8	ProbeTrack	15.0	SCS215b	20120207.164027	20120207.165602	8	0.013328	60	10	60-180	60	70	GapExp	SmallFlash	0	152	2	1	0	distractor	1	502	749	291247	13.328	13.090	13.550
ProbeTrack15	8	ProbeTrack	15.0	SCS215b	20120207.164027	20120207.165607	8	0.013328	60	10	60-180	60	98	GapExp	SmallFlash	0	153	2	30	0	distractor	1	433	784	292031	13.328	12.875	13.808
ProbeTrack15	8	ProbeTrack	15.0	SCS215b	20120207.164027	20120207.165613	8	0.013328	60	10	60-180	60	155	GapExp	SmallFlash	0	154	2	1	1	target	1	336	832	292863	13.328	12.901	13.748
ProbeTrack15	8	ProbeTrack	15.0	SCS215b	20120207.164027	20120207.165619	8	0.013328	60	10	60-180	60	150	GapExp	SmallFlash	0	155	2	1	1	target	1	279	861	293724	13.328	12.895	13.780
ProbeTrack15	8	ProbeTrack	15.0	SCS215b	20120207.164027	20120207.165626	8	0.013328	60	10	60-180	60	86	GapExp	SmallFlash	0	156	2	30	0	distractor	1	529	736	294460	13.328	12.886	13.769
ProbeTrack15	8	ProbeTrack	15.0	SCS215b	20120207.164027	20120207.165632	8	0.013328	60	10	60-180	60	178	GapExp	SmallFlash	0	157	2	3	0	distractor	1	587	707	295167	13.328	13.131	13.514
ProbeTrack15	8	ProbeTrack	15.0	SCS215b	20120207.164027	20120207.165640	8	0.013328	60	10	60-180	60	128	GapExp	SmallFlash	0	158	2	30	1	target	1	307	847	296014	13.328	12.888	13.764
ProbeTrack15	8	ProbeTrack	15.0	SCS215b	20120207.164027	20120207.165646	8	0.013328	60	10	60-180	60	117	GapExp	SmallFlash	0	159	2	1	1	target	1	325	838	296852	13.328	12.965	13.699
ProbeTrack15	8	ProbeTrack	15.0	SCS215b	20120207.164027	20120207.165652	8	0.013328	60	10	60-180	60	156	GapExp	SmallFlash	0	160	2	0	1	target	1	328	836	297688	13.328	12.851	13.796
ProbeTrack15	8	ProbeTrack	15.0	SCS215b	20120207.164027	20120207.165658	8	0.013328	60	10	60-180	60	67	GapExp	SmallFlash	0	161	2	30	0	distractor	1	476	762	298450	13.328	13.037	13.666
ProbeTrack15	8	ProbeTrack	15.0	SCS215b	20120207.164027	20120207.165704	8	0.013328	60	10	60-180	60	158	GapExp	SmallFlash	0	162	2	1	0	distractor	1	463	769	299219	13.328	12.865	13.801
ProbeTrack15	8	ProbeTrack	15.0	SCS215b	20120207.164027	20120207.165711	8	0.013328	60	10	60-180	60	147	GapExp	SmallFlash	0	163	2	3	1	target	1	463	769	299988	13.328	13.039	13.599
ProbeTrack15	8	ProbeTrack	15.0	SCS215b	20120207.164027	20120207.165717	8	0.013328	60	10	60-180	60	76	GapExp	SmallFlash	0	164	2	3	1	target	1	549	726	300714	13.392	12.982	26.825
ProbeTrack15	8	ProbeTrack	15.0	SCS215b	20120207.164027	20120207.165723	8	0.013328	60	10	60-180	60	110	GapExp	SmallFlash	0	165	2	3	1	target	1	377	812	301526	13.328	12.831	13.838
ProbeTrack15	8	ProbeTrack	15.0	SCS215b	20120207.164027	20120207.165730	8	0.013328	60	10	60-180	60	168	GapExp	SmallFlash	0	166	2	0	0	target	0	597	-1000	300526	13.328	12.906	13.724
ProbeTrack15	8	ProbeTrack	15.0	SCS215b	20120207.164027	20120207.165736	8	0.013328	60	10	60-180	60	91	GapExp	SmallFlash	0	167	2	3	1	target	1	354	823	301349	13.328	12.834	13.807
ProbeTrack15	8	ProbeTrack	15.0	SCS215b	20120207.164027	20120207.165742	8	0.013328	60	10	60-180	60	116	GapExp	SmallFlash	0	168	2	30	1	target	1	314	843	302192	13.328	12.998	13.675
ProbeTrack15	8	ProbeTrack	15.0	SCS215b	20120207.164027	20120207.165748	8	0.013328	60	10	60-180	60	177	GapExp	SmallFlash	0	169	2	3	0	distractor	1	488	756	302948	13.328	12.871	13.785
ProbeTrack15	8	ProbeTrack	15.0	SCS215b	20120207.164027	20120207.165756	8	0.013328	60	10	60-180	60	152	GapExp	SmallFlash	0	170	2	0	1	target	1	294	853	303801	13.328	12.889	13.769
ProbeTrack15	8	ProbeTrack	15.0	SCS215b	20120207.164027	20120207.165803	8	0.013328	60	10	60-180	60	180	GapExp	SmallFlash	0	171	2	3	1	target	1	241	880	304681	13.328	12.869	13.775
ProbeTrack15	8	ProbeTrack	15.0	SCS215b	20120207.164027	20120207.165809	8	0.013328	60	10	60-180	60	142	GapExp	SmallFlash	0	172	2	0	1	target	1	345	828	305509	13.328	13.097	13.556
ProbeTrack15	8	ProbeTrack	15.0	SCS215b	20120207.164027	20120207.165815	8	0.013328	60	10	60-180	60	155	GapExp	SmallFlash	0	173	2	1	0	distractor	1	553	724	306233	13.328	12.843	13.813
ProbeTrack15	8	ProbeTrack	15.0	SCS215b	20120207.164027	20120207.165822	8	0.013328	60	10	60-180	60	115	GapExp	SmallFlash	0	174	2	1	1	target	1	326	837	307070	13.328	13.084	13.554
ProbeTrack15	8	ProbeTrack	15.0	SCS215b	20120207.164027	20120207.165828	8	0.013328	60	10	60-180	60	134	GapExp	SmallFlash	0	175	2	3	0	distractor	1	402	799	307869	13.328	13.101	13.543
ProbeTrack15	8	ProbeTrack	15.0	SCS215b	20120207.164027	20120207.165835	8	0.013328	60	10	60-180	60	81	GapExp	SmallFlash	0	176	2	30	1	target	1	383	809	308678	13.328	13.174	13.509
ProbeTrack15	8	ProbeTrack	15.0	SCS215b	20120207.164027	20120207.165854	8	0.013328	60	10	60-180	60	68	GapExp	SmallFlash	0	177	2	3	0	distractor	1	452	774	309452	13.328	13.303	13.354
ProbeTrack15	8	ProbeTrack	15.0	SCS215b	20120207.164027	20120207.165859	8	0.013328	60	10	60-180	60	88	GapExp	SmallFlash	0	178	2	3	1	target	1	330	835	310287	13.328	13.293	13.367
ProbeTrack15	8	ProbeTrack	15.0	SCS215b	20120207.164027	20120207.165904	8	0.013328	60	10	60-180	60	107	GapExp	SmallFlash	0	179	2	0	0	distractor	1	458	771	311058	13.386	13.102	26.660
ProbeTrack15	8	ProbeTrack	15.0	SCS215b	20120207.164027	20120207.165910	8	0.013328	60	10	60-180	60	76	GapExp	SmallFlash	0	180	2	3	0	distractor	1	524	738	311796	13.328	12.856	13.800
ProbeTrack15	8	ProbeTrack	15.0	SCS215b	20120207.164027	20120207.165917	8	0.013328	60	10	60-180	60	107	GapExp	SmallFlash	0	181	2	30	1	target	1	306	847	312643	13.328	12.844	13.793
ProbeTrack15	8	ProbeTrack	15.0	SCS215b	20120207.164027	20120207.165923	8	0.013328	60	10	60-180	60	120	GapExp	SmallFlash	0	182	2	0	0	distractor	1	497	752	313395	13.328	12.843	13.810
ProbeTrack15	8	ProbeTrack	15.0	SCS215b	20120207.164027	20120207.165929	8	0.013328	60	10	60-180	60	135	GapExp	SmallFlash	0	183	2	1	1	target	1	416	792	314187	13.328	13.127	13.543
ProbeTrack15	8	ProbeTrack	15.0	SCS215b	20120207.164027	20120207.165935	8	0.013328	60	10	60-180	60	132	GapExp	SmallFlash	0	184	2	1	0	distractor	1	424	788	314975	13.328	13.116	13.529
ProbeTrack15	8	ProbeTrack	15.0	SCS215b	20120207.164027	20120207.165941	8	0.013328	60	10	60-180	60	171	GapExp	SmallFlash	0	185	2	3	1	early	-4	-3111	-1000	313975	13.328	13.183	13.486
ProbeTrack15	8	ProbeTrack	15.0	SCS215b	20120207.164027	20120207.165948	8	0.013328	60	10	60-180	60	68	GapExp	SmallFlash	0	186	2	30	0	distractor	1	633	684	314659	13.328	12.941	13.717
ProbeTrack15	8	ProbeTrack	15.0	SCS215b	20120207.164027	20120207.165955	8	0.013328	60	10	60-180	60	68	GapExp	SmallFlash	0	187	2	0	0	distractor	1	511	745	315404	13.328	12.972	13.675
ProbeTrack15	8	ProbeTrack	15.0	SCS215b	20120207.164027	20120207.170000	8	0.013328	60	10	60-180	60	149	GapExp	SmallFlash	0	188	2	0	0	distractor	1	452	774	316178	13.328	13.049	13.618
ProbeTrack15	8	ProbeTrack	15.0	SCS215b	20120207.164027	20120207.170006	8	0.013328	60	10	60-180	60	87	GapExp	SmallFlash	0	189	2	0	1	target	1	244	878	317056	13.328	13.249	13.415
ProbeTrack15	8	ProbeTrack	15.0	SCS215b	20120207.164027	20120207.170012	8	0.013328	60	10	60-180	60	64	GapExp	SmallFlash	0	190	2	30	0	distractor	1	524	738	317794	13.328	12.921	13.743
ProbeTrack15	8	ProbeTrack	15.0	SCS215b	20120207.164027	20120207.170018	8	0.013328	60	10	60-180	60	144	GapExp	SmallFlash	0	191	2	30	1	target	1	266	867	318661	13.328	12.843	13.801
ProbeTrack15	8	ProbeTrack	15.0	SCS215b	20120207.164027	20120207.170024	8	0.013328	60	10	60-180	60	76	GapExp	SmallFlash	0	192	2	3	0	distractor	1	708	646	319307	13.328	12.870	13.796
ProbeTrack15	8	ProbeTrack	15.0	SCS215b	20120207.164027	20120207.170030	8	0.013328	60	10	60-180	60	109	GapExp	SmallFlash	0	193	2	0	0	distractor	1	681	660	319967	13.328	12.868	13.814
ProbeTrack15	8	ProbeTrack	15.0	SCS215b	20120207.164027	20120207.170035	8	0.013328	60	10	60-180	60	124	GapExp	SmallFlash	0	194	2	3	0	distractor	1	466	767	320734	13.328	13.030	13.652
ProbeTrack15	8	ProbeTrack	15.0	SCS215b	20120207.164027	20120207.170041	8	0.013328	60	10	60-180	60	145	GapExp	SmallFlash	0	195	2	0	0	target	0	514	-1000	319734	13.328	13.080	13.573
ProbeTrack15	8	ProbeTrack	15.0	SCS215b	20120207.164027	20120207.170048	8	0.013328	60	10	60-180	60	65	GapExp	SmallFlash	0	196	2	30	0	distractor	1	542	729	320463	13.327	12.935	13.558
ProbeTrack15	8	ProbeTrack	15.0	SCS215b	20120207.164027	20120207.170054	8	0.013328	60	10	60-180	60	180	GapExp	SmallFlash	0	197	2	0	1	target	1	304	848	321311	13.328	12.894	13.758
ProbeTrack15	8	ProbeTrack	15.0	SCS215b	20120207.164027	20120207.170100	8	0.013328	60	10	60-180	60	180	GapExp	SmallFlash	0	198	2	30	0	distractor	1	357	822	322133	13.328	12.903	13.740
ProbeTrack15	8	ProbeTrack	15.0	SCS215b	20120207.164027	20120207.170107	8	0.013328	60	10	60-180	60	108	GapExp	SmallFlash	0	199	2	1	1	target	1	298	851	322984	13.328	12.909	13.780
ProbeTrack15	8	ProbeTrack	15.0	SCS215b	20120207.164027	20120207.170112	8	0.013328	60	10	60-180	60	149	GapExp	SmallFlash	0	200	2	3	1	target	1	300	850	323834	13.328	12.938	13.727
ProbeTrack15	8	ProbeTrack	15.0	SCS215b	20120207.170144	20120207.170146	8	0.013328	60	10	60-180	60	112	GapPrac	Blank	1	1	2	3	0	target	0	458	-1000	322834	13.384	12.881	13.790
ProbeTrack15	8	ProbeTrack	15.0	SCS215b	20120207.170144	20120207.170153	8	0.013328	60	10	60-180	60	142	GapPrac	Blank	1	2	2	1	1	target	1	761	620	323454	13.328	13.014	13.643
ProbeTrack15	8	ProbeTrack	15.0	SCS215b	20120207.170144	20120207.170200	8	0.013328	60	10	60-180	60	75	GapPrac	Blank	1	3	2	30	0	distractor	1	562	719	324173	13.328	12.933	13.718
ProbeTrack15	8	ProbeTrack	15.0	SCS215b	20120207.170144	20120207.170205	8	0.013328	60	10	60-180	60	153	GapPrac	Blank	1	4	2	0	0	distractor	1	408	796	324969	13.328	12.926	13.745
ProbeTrack15	8	ProbeTrack	15.0	SCS215b	20120207.170144	20120207.170212	8	0.013328	60	10	60-180	60	107	GapPrac	Blank	1	5	2	30	1	target	1	345	828	325797	13.328	12.981	13.665
ProbeTrack15	8	ProbeTrack	15.0	SCS215b	20120207.170144	20120207.170218	8	0.013328	60	10	60-180	60	126	GapPrac	Blank	1	6	2	3	1	target	1	441	780	326577	13.328	12.917	13.763
ProbeTrack15	8	ProbeTrack	15.0	SCS215b	20120207.170144	20120207.170227	8	0.013328	60	10	60-180	60	138	GapPrac	Blank	1	7	2	1	0	target	0	550	-1000	325577	13.328	13.062	13.590
ProbeTrack15	8	ProbeTrack	15.0	SCS215b	20120207.170144	20120207.170233	8	0.013328	60	10	60-180	60	133	GapPrac	Blank	1	8	2	0	0	target	0	327	-1000	324577	13.328	13.058	13.607
ProbeTrack15	8	ProbeTrack	15.0	SCS215b	20120207.170144	20120207.170239	8	0.013328	60	10	60-180	60	126	GapPrac	Blank	1	9	2	1	1	target	1	449	776	325353	13.328	12.862	13.789
ProbeTrack15	8	ProbeTrack	15.0	SCS215b	20120207.170144	20120207.170245	8	0.013328	60	10	60-180	60	153	GapPrac	Blank	1	10	2	0	1	distractor	0	345	-1000	324353	13.328	13.166	13.479
ProbeTrack15	8	ProbeTrack	15.0	SCS215b	20120207.170144	20120207.170252	8	0.013328	60	10	60-180	60	175	GapPrac	Blank	1	11	2	1	0	distractor	1	523	739	325092	13.328	13.046	13.629
ProbeTrack15	8	ProbeTrack	15.0	SCS215b	20120207.170144	20120207.170259	8	0.013328	60	10	60-180	60	79	GapPrac	Blank	1	12	2	0	0	distractor	1	621	690	325782	13.328	13.053	13.610
ProbeTrack15	8	ProbeTrack	15.0	SCS215b	20120207.170144	20120207.170305	8	0.013328	60	10	60-180	60	149	GapPrac	Blank	1	13	2	30	1	target	1	459	771	326553	13.328	12.854	13.790
ProbeTrack15	8	ProbeTrack	15.0	SCS215b	20120207.170144	20120207.170312	8	0.013328	60	10	60-180	60	179	GapPrac	Blank	1	14	2	0	1	target	1	368	816	327369	13.328	12.880	13.776
ProbeTrack15	8	ProbeTrack	15.0	SCS215b	20120207.170144	20120207.170318	8	0.013328	60	10	60-180	60	124	GapPrac	Blank	1	15	2	3	1	target	1	364	818	328187	13.328	12.877	13.785
ProbeTrack15	8	ProbeTrack	15.0	SCS215b	20120207.170144	20120207.170324	8	0.013328	60	10	60-180	60	116	GapPrac	Blank	1	16	2	3	0	target	0	848	-1000	327187	13.328	13.113	13.550
ProbeTrack15	8	ProbeTrack	15.0	SCS215b	20120207.170144	20120207.170331	8	0.013328	60	10	60-180	60	173	GapPrac	Blank	1	17	2	1	1	target	1	416	792	327979	13.328	13.088	13.566
ProbeTrack15	8	ProbeTrack	15.0	SCS215b	20120207.170144	20120207.170337	8	0.013328	60	10	60-180	60	111	GapPrac	Blank	1	18	2	30	0	distractor	1	564	718	328697	13.328	12.922	13.734
ProbeTrack15	8	ProbeTrack	15.0	SCS215b	20120207.170144	20120207.170343	8	0.013328	60	10	60-180	60	69	GapPrac	Blank	1	19	2	30	0	distractor	1	480	760	329457	13.329	12.834	13.811
ProbeTrack15	8	ProbeTrack	15.0	SCS215b	20120207.170144	20120207.170349	8	0.013328	60	10	60-180	60	180	GapPrac	Blank	1	20	2	3	0	distractor	1	576	712	330169	13.328	12.834	13.822
ProbeTrack15	8	ProbeTrack	15.0	SCS215b	20120207.170409	20120207.170413	8	0.013327	60	10	60-180	60	104	GapExp	Blank	1	1	2	1	1	target	1	378	811	330980	13.389	13.299	13.361
ProbeTrack15	8	ProbeTrack	15.0	SCS215b	20120207.170409	20120207.170420	8	0.013327	60	10	60-180	60	94	GapExp	Blank	1	2	2	30	0	distractor	1	477	762	331742	13.328	5.022	21.625
ProbeTrack15	8	ProbeTrack	15.0	SCS215b	20120207.170409	20120207.170426	8	0.013327	60	10	60-180	60	67	GapExp	Blank	1	3	2	1	0	target	0	371	-1000	330742	13.328	4.394	22.253
ProbeTrack15	8	ProbeTrack	15.0	SCS215b	20120207.170409	20120207.170431	8	0.013327	60	10	60-180	60	91	GapExp	Blank	1	4	2	30	1	target	1	456	772	331514	13.328	11.289	15.357
ProbeTrack15	8	ProbeTrack	15.0	SCS215b	20120207.170409	20120207.170436	8	0.013327	60	10	60-180	60	71	GapExp	Blank	1	5	2	3	0	distractor	1	458	771	332285	13.328	13.239	13.423
ProbeTrack15	8	ProbeTrack	15.0	SCS215b	20120207.170409	20120207.170442	8	0.013327	60	10	60-180	60	139	GapExp	Blank	1	6	2	0	1	target	1	430	785	333070	13.327	12.065	14.597
ProbeTrack15	8	ProbeTrack	15.0	SCS215b	20120207.170409	20120207.170448	8	0.013327	60	10	60-180	60	168	GapExp	Blank	1	7	2	3	1	target	1	418	791	333861	13.328	9.825	16.831
ProbeTrack15	8	ProbeTrack	15.0	SCS215b	20120207.170409	20120207.170455	8	0.013327	60	10	60-180	60	124	GapExp	Blank	1	8	2	0	0	distractor	1	616	692	334553	13.328	12.718	13.920
ProbeTrack15	8	ProbeTrack	15.0	SCS215b	20120207.170409	20120207.170501	8	0.013327	60	10	60-180	60	173	GapExp	Blank	0	9	2	1	1	target	1	459	771	335324	13.328	6.531	20.127
ProbeTrack15	8	ProbeTrack	15.0	SCS215b	20120207.170409	20120207.170507	8	0.013327	60	10	60-180	60	87	GapExp	Blank	0	10	2	30	0	distractor	1	434	783	336107	13.328	9.531	17.108
ProbeTrack15	8	ProbeTrack	15.0	SCS215b	20120207.170409	20120207.170514	8	0.013327	60	10	60-180	60	177	GapExp	Blank	0	11	2	30	1	target	1	322	839	336946	13.328	6.703	19.956
ProbeTrack15	8	ProbeTrack	15.0	SCS215b	20120207.170409	20120207.170520	8	0.013327	60	10	60-180	60	180	GapExp	Blank	0	12	2	1	1	target	1	266	867	337813	13.328	5.813	20.821
ProbeTrack15	8	ProbeTrack	15.0	SCS215b	20120207.170409	20120207.170527	8	0.013327	60	10	60-180	60	123	GapExp	Blank	0	13	2	3	1	target	1	284	858	338671	13.328	13.297	13.351
ProbeTrack15	8	ProbeTrack	15.0	SCS215b	20120207.170409	20120207.170533	8	0.013327	60	10	60-180	60	87	GapExp	Blank	0	14	2	30	0	distractor	1	448	776	339447	13.328	9.885	16.784
ProbeTrack15	8	ProbeTrack	15.0	SCS215b	20120207.170409	20120207.170539	8	0.013327	60	10	60-180	60	79	GapExp	Blank	0	15	2	1	0	distractor	1	485	758	340205	13.328	13.135	13.524
ProbeTrack15	8	ProbeTrack	15.0	SCS215b	20120207.170409	20120207.170545	8	0.013327	60	10	60-180	60	140	GapExp	Blank	0	16	2	3	0	distractor	1	484	758	340963	13.328	6.360	20.298
ProbeTrack15	8	ProbeTrack	15.0	SCS215b	20120207.170409	20120207.170551	8	0.013327	60	10	60-180	60	107	GapExp	Blank	0	17	2	30	0	distractor	1	468	766	341729	13.328	12.809	13.836
ProbeTrack15	8	ProbeTrack	15.0	SCS215b	20120207.170409	20120207.170557	8	0.013327	60	10	60-180	60	162	GapExp	Blank	0	18	2	1	1	target	1	391	805	342534	13.328	4.900	21.746
ProbeTrack15	8	ProbeTrack	15.0	SCS215b	20120207.170409	20120207.170603	8	0.013327	60	10	60-180	60	101	GapExp	Blank	0	19	2	3	0	distractor	1	744	628	343162	13.328	10.445	16.215
ProbeTrack15	8	ProbeTrack	15.0	SCS215b	20120207.170409	20120207.170609	8	0.013327	60	10	60-180	60	178	GapExp	Blank	0	20	2	1	0	target	0	573	-1000	342162	13.328	11.322	15.354
ProbeTrack15	8	ProbeTrack	15.0	SCS215b	20120207.170409	20120207.170616	8	0.013327	60	10	60-180	60	165	GapExp	Blank	0	21	2	3	0	target	0	448	-1000	341162	13.328	5.900	20.756
ProbeTrack15	8	ProbeTrack	15.0	SCS215b	20120207.170409	20120207.170622	8	0.013327	60	10	60-180	60	165	GapExp	Blank	0	22	2	0	0	distractor	1	721	640	341802	13.328	5.999	20.656
ProbeTrack15	8	ProbeTrack	15.0	SCS215b	20120207.170409	20120207.170629	8	0.013327	60	10	60-180	60	82	GapExp	Blank	0	23	2	30	1	target	1	412	794	342596	13.386	12.013	26.518
ProbeTrack15	8	ProbeTrack	15.0	SCS215b	20120207.170409	20120207.170635	8	0.013327	60	10	60-180	60	173	GapExp	Blank	0	24	2	0	0	distractor	1	516	742	343338	13.328	9.249	17.398
ProbeTrack15	8	ProbeTrack	15.0	SCS215b	20120207.170409	20120207.170642	8	0.013327	60	10	60-180	60	75	GapExp	Blank	0	25	2	30	0	distractor	1	459	771	344109	13.328	7.237	19.418
ProbeTrack15	8	ProbeTrack	15.0	SCS215b	20120207.170409	20120207.170647	8	0.013327	60	10	60-180	60	65	GapExp	Blank	0	26	2	1	0	distractor	1	455	773	344882	13.328	13.114	13.553
ProbeTrack15	8	ProbeTrack	15.0	SCS215b	20120207.170409	20120207.170652	8	0.013327	60	10	60-180	60	90	GapExp	Blank	0	27	2	1	1	target	1	387	807	345689	13.287	4.951	15.225
ProbeTrack15	8	ProbeTrack	15.0	SCS215b	20120207.170409	20120207.170657	8	0.013327	60	10	60-180	60	107	GapExp	Blank	0	28	2	0	1	target	1	344	828	346517	13.328	10.957	15.703
ProbeTrack15	8	ProbeTrack	15.0	SCS215b	20120207.170409	20120207.170703	8	0.013327	60	10	60-180	60	135	GapExp	Blank	0	29	2	3	1	target	1	345	828	347345	13.328	6.323	20.328
ProbeTrack15	8	ProbeTrack	15.0	SCS215b	20120207.170409	20120207.170709	8	0.013327	60	10	60-180	60	171	GapExp	Blank	0	30	2	0	0	target	0	314	-1000	346345	13.328	8.618	18.048
ProbeTrack15	8	ProbeTrack	15.0	SCS215b	20120207.170409	20120207.170716	8	0.013327	60	10	60-180	60	173	GapExp	Blank	0	31	2	3	1	target	1	294	853	347198	13.328	8.515	18.143
ProbeTrack15	8	ProbeTrack	15.0	SCS215b	20120207.170409	20120207.170722	8	0.013327	60	10	60-180	60	169	GapExp	Blank	0	32	2	0	0	distractor	1	753	624	347822	13.328	9.785	16.871
ProbeTrack15	8	ProbeTrack	15.0	SCS215b	20120207.170409	20120207.170729	8	0.013327	60	10	60-180	60	171	GapExp	Blank	0	33	2	3	1	target	1	341	830	348652	13.328	5.547	21.088
ProbeTrack15	8	ProbeTrack	15.0	SCS215b	20120207.170409	20120207.170735	8	0.013327	60	10	60-180	60	172	GapExp	Blank	0	34	2	0	1	target	1	301	850	349502	13.328	10.809	15.861
ProbeTrack15	8	ProbeTrack	15.0	SCS215b	20120207.170409	20120207.170742	8	0.013327	60	10	60-180	60	116	GapExp	Blank	0	35	2	3	1	target	1	265	868	350370	13.328	5.324	21.339
ProbeTrack15	8	ProbeTrack	15.0	SCS215b	20120207.170409	20120207.170748	8	0.013327	60	10	60-180	60	83	GapExp	Blank	0	36	2	1	1	target	1	314	843	351213	13.328	9.070	17.597
ProbeTrack15	8	ProbeTrack	15.0	SCS215b	20120207.170409	20120207.170753	8	0.013327	60	10	60-180	60	130	GapExp	Blank	0	37	2	1	0	target	0	184	-1000	350213	13.328	8.277	18.409
ProbeTrack15	8	ProbeTrack	15.0	SCS215b	20120207.170409	20120207.170759	8	0.013327	60	10	60-180	60	178	GapExp	Blank	0	38	2	30	0	distractor	1	489	756	350969	13.328	12.962	13.701
ProbeTrack15	8	ProbeTrack	15.0	SCS215b	20120207.170409	20120207.170837	8	0.013327	60	10	60-180	60	123	GapExp	Blank	0	39	2	0	1	target	1	341	830	351799	13.328	13.117	13.545
ProbeTrack15	8	ProbeTrack	15.0	SCS215b	20120207.170409	20120207.170843	8	0.013327	60	10	60-180	60	125	GapExp	Blank	0	40	2	0	1	target	1	421	790	352589	13.328	6.374	20.262
ProbeTrack15	8	ProbeTrack	15.0	SCS215b	20120207.170409	20120207.170848	8	0.013327	60	10	60-180	60	81	GapExp	Blank	0	41	2	0	0	distractor	1	528	736	353325	13.328	9.275	17.384
ProbeTrack15	8	ProbeTrack	15.0	SCS215b	20120207.170409	20120207.170854	8	0.013327	60	10	60-180	60	111	GapExp	Blank	0	42	2	0	1	target	1	331	835	354160	13.328	13.080	13.574
ProbeTrack15	8	ProbeTrack	15.0	SCS215b	20120207.170409	20120207.170859	8	0.013327	60	10	60-180	60	61	GapExp	Blank	0	43	2	30	1	early	-4	-134	-1000	353160	13.328	13.084	13.554
ProbeTrack15	8	ProbeTrack	15.0	SCS215b	20120207.170409	20120207.170905	8	0.013327	60	10	60-180	60	83	GapExp	Blank	0	44	2	1	1	target	1	429	786	353946	13.328	13.278	13.379
ProbeTrack15	8	ProbeTrack	15.0	SCS215b	20120207.170409	20120207.170910	8	0.013327	60	10	60-180	60	169	GapExp	Blank	0	45	2	3	1	target	1	270	865	354811	13.328	4.899	21.752
ProbeTrack15	8	ProbeTrack	15.0	SCS215b	20120207.170409	20120207.170917	8	0.013327	60	10	60-180	60	180	GapExp	Blank	0	46	2	0	1	target	1	410	795	355606	13.328	6.502	20.134
ProbeTrack15	8	ProbeTrack	15.0	SCS215b	20120207.170409	20120207.170923	8	0.013327	60	10	60-180	60	72	GapExp	Blank	0	47	2	30	0	distractor	1	538	731	356337	13.328	11.618	15.043
ProbeTrack15	8	ProbeTrack	15.0	SCS215b	20120207.170409	20120207.170929	8	0.013327	60	10	60-180	60	166	GapExp	Blank	0	48	2	30	1	target	1	327	837	357174	13.328	11.717	14.967
ProbeTrack15	8	ProbeTrack	15.0	SCS215b	20120207.170409	20120207.170935	8	0.013327	60	10	60-180	60	171	GapExp	Blank	0	49	2	3	1	target	1	361	820	357994	13.328	7.431	19.228
ProbeTrack15	8	ProbeTrack	15.0	SCS215b	20120207.170409	20120207.170944	8	0.013327	60	10	60-180	60	84	GapExp	Blank	0	50	2	0	0	distractor	1	546	727	358721	13.328	13.268	13.397
ProbeTrack15	8	ProbeTrack	15.0	SCS215b	20120207.170409	20120207.170949	8	0.013327	60	10	60-180	60	87	GapExp	Blank	0	51	2	0	1	target	1	396	802	359523	13.393	7.034	32.961
ProbeTrack15	8	ProbeTrack	15.0	SCS215b	20120207.170409	20120207.170954	8	0.013327	60	10	60-180	60	88	GapExp	Blank	0	52	2	0	1	target	1	474	763	360286	13.328	9.807	16.882
ProbeTrack15	8	ProbeTrack	15.0	SCS215b	20120207.170409	20120207.171000	8	0.013327	60	10	60-180	60	141	GapExp	Blank	0	53	2	0	1	target	1	396	802	361088	13.328	11.479	15.192
ProbeTrack15	8	ProbeTrack	15.0	SCS215b	20120207.170409	20120207.171006	8	0.013327	60	10	60-180	60	99	GapExp	Blank	0	54	2	0	1	distractor	0	392	-1000	360088	13.328	9.670	16.990
ProbeTrack15	8	ProbeTrack	15.0	SCS215b	20120207.170409	20120207.171011	8	0.013327	60	10	60-180	60	103	GapExp	Blank	0	55	2	0	1	target	1	406	797	360885	13.328	6.686	20.007
ProbeTrack15	8	ProbeTrack	15.0	SCS215b	20120207.170409	20120207.171018	8	0.013327	60	10	60-180	60	142	GapExp	Blank	0	56	2	1	1	target	1	272	864	361749	13.328	11.763	14.898
ProbeTrack15	8	ProbeTrack	15.0	SCS215b	20120207.170409	20120207.171024	8	0.013327	60	10	60-180	60	141	GapExp	Blank	0	57	2	30	1	target	1	296	852	362601	13.328	8.495	18.139
ProbeTrack15	8	ProbeTrack	15.0	SCS215b	20120207.170409	20120207.171030	8	0.013327	60	10	60-180	60	93	GapExp	Blank	0	58	2	3	0	distractor	1	549	726	363327	13.328	6.035	20.637
ProbeTrack15	8	ProbeTrack	15.0	SCS215b	20120207.170409	20120207.171036	8	0.013327	60	10	60-180	60	175	GapExp	Blank	0	59	2	3	0	target	0	420	-1000	362327	13.328	8.173	20.214
ProbeTrack15	8	ProbeTrack	15.0	SCS215b	20120207.170409	20120207.171042	8	0.013327	60	10	60-180	60	87	GapExp	Blank	0	60	2	30	1	distractor	0	478	-1000	361327	13.328	13.305	13.349
ProbeTrack15	8	ProbeTrack	15.0	SCS215b	20120207.170409	20120207.171049	8	0.013327	60	10	60-180	60	166	GapExp	Blank	0	61	2	3	1	target	1	427	787	362114	13.328	8.002	18.658
ProbeTrack15	8	ProbeTrack	15.0	SCS215b	20120207.170409	20120207.171055	8	0.013327	60	10	60-180	60	104	GapExp	Blank	0	62	2	30	0	distractor	1	553	724	362838	13.328	5.196	21.471
ProbeTrack15	8	ProbeTrack	15.0	SCS215b	20120207.170409	20120207.171101	8	0.013327	60	10	60-180	60	154	GapExp	Blank	0	63	2	30	1	target	1	465	768	363606	13.328	7.706	18.946
ProbeTrack15	8	ProbeTrack	15.0	SCS215b	20120207.170409	20120207.171108	8	0.013327	60	10	60-180	60	171	GapExp	Blank	0	64	2	3	0	distractor	1	523	739	364345	13.328	12.081	14.580
ProbeTrack15	8	ProbeTrack	15.0	SCS215b	20120207.170409	20120207.171114	8	0.013327	60	10	60-180	60	121	GapExp	Blank	0	65	2	1	1	target	1	244	878	365223	13.328	8.116	18.543
ProbeTrack15	8	ProbeTrack	15.0	SCS215b	20120207.170409	20120207.171120	8	0.013327	60	10	60-180	60	124	GapExp	Blank	0	66	2	3	1	distractor	0	545	-1000	364223	13.328	3.331	23.313
ProbeTrack15	8	ProbeTrack	15.0	SCS215b	20120207.170409	20120207.171126	8	0.013327	60	10	60-180	60	140	GapExp	Blank	0	67	2	30	0	distractor	1	468	766	364989	13.328	6.641	20.021
