exp	sub	code	rev	comp	runtime	trialtime	nstim	refreshdur	cuedur	gapdur	gapOnsetRange	durPostProbe	gapOnsetTime	blocktype	gaptype	prac	trial	ntargets	soa	probeTarget	resp	acc	rt	pts	tpts	meanFrameDur	minFrameDur	maxFrameDur
ProbeTrack15	3	ProbeTrack	15.0	SCS215b	20120202.160332	20120202.160357	8	0.013328	60	0	60-180	60	72	NoGap	None	1	1	2	0	0	distractor	1	1302	349	349	13.392	10.119	16.551
ProbeTrack15	3	ProbeTrack	15.0	SCS215b	20120202.160332	20120202.160618	8	0.013328	60	0	60-180	60	166	NoGap	None	1	2	2	1	1	target	1	1159	421	770	13.328	13.308	13.351
ProbeTrack15	3	ProbeTrack	15.0	SCS215b	20120202.160332	20120202.160655	8	0.013328	60	0	60-180	60	124	NoGap	None	1	3	2	30	1	target	1	672	664	1434	13.328	13.102	13.548
ProbeTrack15	3	ProbeTrack	15.0	SCS215b	20120202.160332	20120202.160703	8	0.013328	60	0	60-180	60	111	NoGap	None	1	4	2	30	1	target	1	542	729	2163	13.328	13.098	13.550
ProbeTrack15	3	ProbeTrack	15.0	SCS215b	20120202.160332	20120202.160710	8	0.013328	60	0	60-180	60	82	NoGap	None	1	5	2	3	1	target	1	469	766	2929	13.328	12.202	14.447
ProbeTrack15	3	ProbeTrack	15.0	SCS215b	20120202.160332	20120202.160716	8	0.013328	60	0	60-180	60	136	NoGap	None	1	6	2	3	0	distractor	1	829	586	3515	13.328	12.526	14.125
ProbeTrack15	3	ProbeTrack	15.0	SCS215b	20120202.160332	20120202.160723	8	0.013328	60	0	60-180	60	119	NoGap	None	1	7	2	3	1	target	1	520	740	4255	13.328	10.232	16.420
ProbeTrack15	3	ProbeTrack	15.0	SCS215b	20120202.160332	20120202.160730	8	0.013328	60	0	60-180	60	70	NoGap	None	1	8	2	30	0	distractor	1	714	643	4898	13.328	13.101	13.551
ProbeTrack15	3	ProbeTrack	15.0	SCS215b	20120202.160332	20120202.160738	8	0.013328	60	0	60-180	60	155	NoGap	None	1	9	2	0	1	target	1	480	760	5658	13.328	13.102	13.550
ProbeTrack15	3	ProbeTrack	15.0	SCS215b	20120202.160332	20120202.160745	8	0.013328	60	0	60-180	60	96	NoGap	None	1	10	2	1	0	distractor	1	522	739	6397	13.328	13.310	13.348
ProbeTrack15	3	ProbeTrack	15.0	SCS215b	20120202.160332	20120202.160752	8	0.013328	60	0	60-180	60	146	NoGap	None	1	11	2	0	1	target	1	422	789	7186	13.328	13.100	13.568
ProbeTrack15	3	ProbeTrack	15.0	SCS215b	20120202.160332	20120202.160800	8	0.013328	60	0	60-180	60	63	NoGap	None	1	12	2	0	1	target	1	357	822	8008	13.328	13.101	13.550
ProbeTrack15	3	ProbeTrack	15.0	SCS215b	20120202.160332	20120202.160806	8	0.013328	60	0	60-180	60	116	NoGap	None	1	13	2	3	0	distractor	1	388	806	8814	13.328	7.429	19.228
ProbeTrack15	3	ProbeTrack	15.0	SCS215b	20120202.160332	20120202.160812	8	0.013328	60	0	60-180	60	128	NoGap	None	1	14	2	3	1	target	1	306	847	9661	13.328	4.510	22.152
ProbeTrack15	3	ProbeTrack	15.0	SCS215b	20120202.160332	20120202.160819	8	0.013328	60	0	60-180	60	170	NoGap	None	1	15	2	0	0	distractor	1	387	807	10468	13.328	13.308	13.348
ProbeTrack15	3	ProbeTrack	15.0	SCS215b	20120202.160332	20120202.160825	8	0.013328	60	0	60-180	60	91	NoGap	None	1	16	2	1	0	distractor	1	410	795	11263	13.328	9.573	17.080
ProbeTrack15	3	ProbeTrack	15.0	SCS215b	20120202.160332	20120202.160831	8	0.013328	60	0	60-180	60	112	NoGap	None	1	17	2	0	0	distractor	1	407	797	12060	13.328	13.309	13.348
ProbeTrack15	3	ProbeTrack	15.0	SCS215b	20120202.160332	20120202.160837	8	0.013328	60	0	60-180	60	130	NoGap	None	1	18	2	3	1	target	1	338	831	12891	13.328	13.275	13.367
ProbeTrack15	3	ProbeTrack	15.0	SCS215b	20120202.160332	20120202.160843	8	0.013328	60	0	60-180	60	93	NoGap	None	1	19	2	1	0	distractor	1	627	687	13578	13.328	13.106	13.547
ProbeTrack15	3	ProbeTrack	15.0	SCS215b	20120202.160332	20120202.160848	8	0.013328	60	0	60-180	60	83	NoGap	None	1	20	2	1	1	target	1	452	774	14352	13.328	13.103	13.549
ProbeTrack15	3	ProbeTrack	15.0	SCS215b	20120202.160332	20120202.160854	8	0.013328	60	0	60-180	60	126	NoGap	None	1	21	2	3	0	distractor	1	461	770	15122	13.328	13.304	13.347
ProbeTrack15	3	ProbeTrack	15.0	SCS215b	20120202.160332	20120202.160900	8	0.013328	60	0	60-180	60	114	NoGap	None	1	22	2	1	0	distractor	1	353	824	15946	13.328	13.103	13.548
ProbeTrack15	3	ProbeTrack	15.0	SCS215b	20120202.160332	20120202.160909	8	0.013328	60	0	60-180	60	138	NoGap	None	1	23	2	3	1	target	1	437	782	16728	13.328	13.100	13.552
ProbeTrack15	3	ProbeTrack	15.0	SCS215b	20120202.160332	20120202.160915	8	0.013328	60	0	60-180	60	119	NoGap	None	1	24	2	3	0	distractor	1	373	814	17542	13.328	13.305	13.347
ProbeTrack15	3	ProbeTrack	15.0	SCS215b	20120202.160332	20120202.160921	8	0.013328	60	0	60-180	60	141	NoGap	None	1	25	2	30	0	distractor	1	481	760	18302	13.328	13.308	13.348
ProbeTrack15	3	ProbeTrack	15.0	SCS215b	20120202.160332	20120202.160928	8	0.013328	60	0	60-180	60	130	NoGap	None	1	26	2	30	1	target	1	335	833	19135	13.328	6.597	20.053
ProbeTrack15	3	ProbeTrack	15.0	SCS215b	20120202.160332	20120202.160934	8	0.013328	60	0	60-180	60	135	NoGap	None	1	27	2	0	0	distractor	1	553	724	19859	13.328	13.306	13.366
ProbeTrack15	3	ProbeTrack	15.0	SCS215b	20120202.160332	20120202.160941	8	0.013328	60	0	60-180	60	124	NoGap	None	1	28	2	1	1	target	1	384	808	20667	13.328	13.313	13.352
ProbeTrack15	3	ProbeTrack	15.0	SCS215b	20120202.160332	20120202.160947	8	0.013328	60	0	60-180	60	147	NoGap	None	1	29	2	0	0	distractor	1	351	825	21492	13.328	12.037	14.635
ProbeTrack15	3	ProbeTrack	15.0	SCS215b	20120202.160332	20120202.160953	8	0.013328	60	0	60-180	60	82	NoGap	None	1	30	2	30	0	distractor	1	496	752	22244	13.328	13.101	13.550
ProbeTrack15	3	ProbeTrack	15.0	SCS215b	20120202.160332	20120202.160959	8	0.013328	60	0	60-180	60	152	NoGap	None	1	31	2	30	1	target	1	433	784	23028	13.328	9.798	16.854
ProbeTrack15	3	ProbeTrack	15.0	SCS215b	20120202.160332	20120202.161005	8	0.013328	60	0	60-180	60	132	NoGap	None	1	32	2	3	0	distractor	1	538	731	23759	13.328	4.052	22.617
ProbeTrack15	3	ProbeTrack	15.0	SCS215b	20120202.160332	20120202.161012	8	0.013328	60	0	60-180	60	118	NoGap	None	1	33	2	30	0	distractor	1	524	738	24497	13.328	13.102	13.551
ProbeTrack15	3	ProbeTrack	15.0	SCS215b	20120202.160332	20120202.161018	8	0.013328	60	0	60-180	60	99	NoGap	None	1	34	2	30	1	target	1	424	788	25285	13.328	13.311	13.346
ProbeTrack15	3	ProbeTrack	15.0	SCS215b	20120202.160332	20120202.161024	8	0.013328	60	0	60-180	60	114	NoGap	None	1	35	2	1	1	target	1	522	739	26024	13.328	13.310	13.347
ProbeTrack15	3	ProbeTrack	15.0	SCS215b	20120202.160332	20120202.161030	8	0.013328	60	0	60-180	60	61	NoGap	None	1	36	2	0	1	target	1	492	754	26778	13.328	13.312	13.347
ProbeTrack15	3	ProbeTrack	15.0	SCS215b	20120202.160332	20120202.161035	8	0.013328	60	0	60-180	60	107	NoGap	None	1	37	2	30	0	distractor	1	406	797	27575	13.328	13.112	13.560
ProbeTrack15	3	ProbeTrack	15.0	SCS215b	20120202.160332	20120202.161041	8	0.013328	60	0	60-180	60	95	NoGap	None	1	38	2	1	0	distractor	1	397	802	28377	13.328	10.174	16.488
ProbeTrack15	3	ProbeTrack	15.0	SCS215b	20120202.160332	20120202.161047	8	0.013328	60	0	60-180	60	162	NoGap	None	1	39	2	0	1	target	1	413	794	29171	13.328	13.100	13.571
ProbeTrack15	3	ProbeTrack	15.0	SCS215b	20120202.160332	20120202.161054	8	0.013328	60	0	60-180	60	141	NoGap	None	1	40	2	1	1	target	1	291	855	30026	13.328	13.108	13.551
ProbeTrack15	3	ProbeTrack	15.0	SCS215b	20120202.161149	20120202.161206	8	0.013328	60	10	60-180	60	94	GapPrac	SmallFlash	1	1	2	3	0	distractor	1	1405	298	30324	13.383	13.312	13.348
ProbeTrack15	3	ProbeTrack	15.0	SCS215b	20120202.161149	20120202.161224	8	0.013328	60	10	60-180	60	130	GapPrac	SmallFlash	1	2	2	3	1	target	1	560	720	31044	13.328	13.056	13.603
ProbeTrack15	3	ProbeTrack	15.0	SCS215b	20120202.161149	20120202.161231	8	0.013328	60	10	60-180	60	87	GapPrac	SmallFlash	1	3	2	0	0	target	0	625	-1000	30044	13.389	10.243	25.420
ProbeTrack15	3	ProbeTrack	15.0	SCS215b	20120202.161149	20120202.161237	8	0.013328	60	10	60-180	60	91	GapPrac	SmallFlash	1	4	2	1	0	distractor	1	775	613	30657	13.328	13.083	13.565
ProbeTrack15	3	ProbeTrack	15.0	SCS215b	20120202.161149	20120202.161246	8	0.013328	60	10	60-180	60	162	GapPrac	SmallFlash	1	5	2	1	1	target	1	793	604	31261	13.328	13.103	13.549
ProbeTrack15	3	ProbeTrack	15.0	SCS215b	20120202.161149	20120202.161253	8	0.013328	60	10	60-180	60	114	GapPrac	SmallFlash	1	6	2	0	0	distractor	1	630	685	31946	13.328	13.105	13.548
ProbeTrack15	3	ProbeTrack	15.0	SCS215b	20120202.161149	20120202.161259	8	0.013328	60	10	60-180	60	131	GapPrac	SmallFlash	1	7	2	3	1	target	1	489	756	32702	13.328	13.309	13.348
ProbeTrack15	3	ProbeTrack	15.0	SCS215b	20120202.161149	20120202.161306	8	0.013328	60	10	60-180	60	170	GapPrac	SmallFlash	1	8	2	0	1	target	1	414	793	33495	13.328	13.100	13.548
ProbeTrack15	3	ProbeTrack	15.0	SCS215b	20120202.161149	20120202.161313	8	0.013328	60	10	60-180	60	121	GapPrac	SmallFlash	1	9	2	30	0	distractor	1	472	764	34259	13.328	9.801	16.855
ProbeTrack15	3	ProbeTrack	15.0	SCS215b	20120202.161149	20120202.161319	8	0.013328	60	10	60-180	60	158	GapPrac	SmallFlash	1	10	2	30	0	distractor	1	476	762	35021	13.328	13.207	13.411
ProbeTrack15	3	ProbeTrack	15.0	SCS215b	20120202.161149	20120202.161326	8	0.013328	60	10	60-180	60	179	GapPrac	SmallFlash	1	11	2	1	0	distractor	1	552	724	35745	13.328	11.178	15.492
ProbeTrack15	3	ProbeTrack	15.0	SCS215b	20120202.161149	20120202.161334	8	0.013328	60	10	60-180	60	110	GapPrac	SmallFlash	1	12	2	0	0	distractor	1	674	663	36408	13.328	7.502	19.150
ProbeTrack15	3	ProbeTrack	15.0	SCS215b	20120202.161149	20120202.161340	8	0.013328	60	10	60-180	60	81	GapPrac	SmallFlash	1	13	2	1	0	distractor	1	424	788	37196	13.328	6.057	20.674
ProbeTrack15	3	ProbeTrack	15.0	SCS215b	20120202.161149	20120202.161345	8	0.013328	60	10	60-180	60	175	GapPrac	SmallFlash	1	14	2	30	1	target	1	358	821	38017	13.328	10.720	15.940
ProbeTrack15	3	ProbeTrack	15.0	SCS215b	20120202.161149	20120202.161352	8	0.013328	60	10	60-180	60	137	GapPrac	SmallFlash	1	15	2	3	0	distractor	1	355	823	38840	13.328	13.277	13.382
ProbeTrack15	3	ProbeTrack	15.0	SCS215b	20120202.161149	20120202.161359	8	0.013328	60	10	60-180	60	123	GapPrac	SmallFlash	1	16	2	0	1	target	1	454	773	39613	13.328	5.989	20.669
ProbeTrack15	3	ProbeTrack	15.0	SCS215b	20120202.161149	20120202.161405	8	0.013328	60	10	60-180	60	85	GapPrac	SmallFlash	1	17	2	1	1	target	1	528	736	40349	13.328	13.050	13.606
ProbeTrack15	3	ProbeTrack	15.0	SCS215b	20120202.161149	20120202.161411	8	0.013328	60	10	60-180	60	163	GapPrac	SmallFlash	1	18	2	30	1	target	1	466	767	41116	13.328	13.306	13.348
ProbeTrack15	3	ProbeTrack	15.0	SCS215b	20120202.161149	20120202.161418	8	0.013328	60	10	60-180	60	120	GapPrac	SmallFlash	1	19	2	3	0	distractor	1	503	749	41865	13.328	13.082	13.571
ProbeTrack15	3	ProbeTrack	15.0	SCS215b	20120202.161149	20120202.161424	8	0.013328	60	10	60-180	60	117	GapPrac	SmallFlash	1	20	2	3	1	target	1	406	797	42662	13.328	6.163	20.483
ProbeTrack15	3	ProbeTrack	15.0	SCS215b	20120202.161524	20120202.161540	8	0.013328	60	10	60-180	60	72	GapExp	SmallFlash	1	1	2	30	0	distractor	1	449	776	43438	13.388	5.228	21.422
ProbeTrack15	3	ProbeTrack	15.0	SCS215b	20120202.161524	20120202.161548	8	0.013328	60	10	60-180	60	106	GapExp	SmallFlash	1	2	2	1	1	target	1	510	745	44183	13.328	8.309	18.546
ProbeTrack15	3	ProbeTrack	15.0	SCS215b	20120202.161524	20120202.161554	8	0.013328	60	10	60-180	60	128	GapExp	SmallFlash	1	3	2	1	0	distractor	1	708	646	44829	13.328	13.284	13.358
ProbeTrack15	3	ProbeTrack	15.0	SCS215b	20120202.161524	20120202.161600	8	0.013328	60	10	60-180	60	162	GapExp	SmallFlash	1	4	2	30	1	target	1	432	784	45613	13.328	9.238	17.415
ProbeTrack15	3	ProbeTrack	15.0	SCS215b	20120202.161524	20120202.161607	8	0.013328	60	10	60-180	60	113	GapExp	SmallFlash	1	5	2	0	0	distractor	1	576	712	46325	13.328	7.647	19.007
ProbeTrack15	3	ProbeTrack	15.0	SCS215b	20120202.161524	20120202.161613	8	0.013328	60	10	60-180	60	71	GapExp	SmallFlash	1	6	2	3	1	target	1	429	786	47111	13.328	13.228	13.438
ProbeTrack15	3	ProbeTrack	15.0	SCS215b	20120202.161524	20120202.161619	8	0.013328	60	10	60-180	60	169	GapExp	SmallFlash	1	7	2	3	0	distractor	1	366	817	47928	13.328	13.308	13.348
ProbeTrack15	3	ProbeTrack	15.0	SCS215b	20120202.161524	20120202.161626	8	0.013328	60	10	60-180	60	154	GapExp	SmallFlash	1	8	2	0	1	target	1	416	792	48720	13.328	13.227	13.360
ProbeTrack15	3	ProbeTrack	15.0	SCS215b	20120202.161524	20120202.161632	8	0.013328	60	10	60-180	60	165	GapExp	SmallFlash	0	9	2	1	1	target	1	373	814	49534	13.328	13.306	13.347
ProbeTrack15	3	ProbeTrack	15.0	SCS215b	20120202.161524	20120202.161639	8	0.013328	60	10	60-180	60	155	GapExp	SmallFlash	0	10	2	30	1	target	1	342	829	50363	13.328	13.101	13.550
ProbeTrack15	3	ProbeTrack	15.0	SCS215b	20120202.161524	20120202.161645	8	0.013328	60	10	60-180	60	61	GapExp	SmallFlash	0	11	2	30	0	distractor	1	545	728	51091	13.328	13.100	13.551
ProbeTrack15	3	ProbeTrack	15.0	SCS215b	20120202.161524	20120202.161651	8	0.013328	60	10	60-180	60	99	GapExp	SmallFlash	0	12	2	0	0	distractor	1	401	800	51891	13.328	13.102	13.550
ProbeTrack15	3	ProbeTrack	15.0	SCS215b	20120202.161524	20120202.161657	8	0.013328	60	10	60-180	60	76	GapExp	SmallFlash	0	13	2	1	0	distractor	1	479	761	52652	13.328	13.310	13.347
ProbeTrack15	3	ProbeTrack	15.0	SCS215b	20120202.161524	20120202.161702	8	0.013328	60	10	60-180	60	98	GapExp	SmallFlash	0	14	2	3	1	target	1	327	837	53489	13.328	13.171	13.487
ProbeTrack15	3	ProbeTrack	15.0	SCS215b	20120202.161524	20120202.161708	8	0.013328	60	10	60-180	60	85	GapExp	SmallFlash	0	15	2	0	1	target	1	458	771	54260	13.359	13.306	19.657
ProbeTrack15	3	ProbeTrack	15.0	SCS215b	20120202.161524	20120202.161714	8	0.013328	60	10	60-180	60	62	GapExp	SmallFlash	0	16	2	3	1	target	1	455	773	55033	13.328	13.100	13.570
ProbeTrack15	3	ProbeTrack	15.0	SCS215b	20120202.161524	20120202.161719	8	0.013328	60	10	60-180	60	147	GapExp	SmallFlash	0	17	2	1	0	distractor	1	416	792	55825	13.328	8.820	17.824
ProbeTrack15	3	ProbeTrack	15.0	SCS215b	20120202.161524	20120202.161726	8	0.013328	60	10	60-180	60	151	GapExp	SmallFlash	0	18	2	1	1	target	1	318	841	56666	13.328	13.109	13.549
ProbeTrack15	3	ProbeTrack	15.0	SCS215b	20120202.161524	20120202.161732	8	0.013328	60	10	60-180	60	146	GapExp	SmallFlash	0	19	2	30	0	distractor	1	440	780	57446	13.328	13.306	13.349
ProbeTrack15	3	ProbeTrack	15.0	SCS215b	20120202.161524	20120202.161738	8	0.013328	60	10	60-180	60	65	GapExp	SmallFlash	0	20	2	1	0	distractor	1	711	645	58091	13.328	11.884	14.767
ProbeTrack15	3	ProbeTrack	15.0	SCS215b	20120202.161524	20120202.161745	8	0.013328	60	10	60-180	60	165	GapExp	SmallFlash	0	21	2	3	0	distractor	1	437	782	58873	13.328	13.262	13.386
ProbeTrack15	3	ProbeTrack	15.0	SCS215b	20120202.161524	20120202.161751	8	0.013328	60	10	60-180	60	66	GapExp	SmallFlash	0	22	2	3	0	distractor	1	599	701	59574	13.328	13.307	13.348
ProbeTrack15	3	ProbeTrack	15.0	SCS215b	20120202.161524	20120202.161757	8	0.013328	60	10	60-180	60	65	GapExp	SmallFlash	0	23	2	30	0	distractor	1	500	750	60324	13.328	3.734	22.928
ProbeTrack15	3	ProbeTrack	15.0	SCS215b	20120202.161524	20120202.161803	8	0.013328	60	10	60-180	60	163	GapExp	SmallFlash	0	24	2	1	1	target	1	390	805	61129	13.328	13.101	13.549
ProbeTrack15	3	ProbeTrack	15.0	SCS215b	20120202.161524	20120202.161810	8	0.013328	60	10	60-180	60	123	GapExp	SmallFlash	0	25	2	1	0	distractor	1	433	784	61913	13.328	12.361	14.312
ProbeTrack15	3	ProbeTrack	15.0	SCS215b	20120202.161524	20120202.161816	8	0.013328	60	10	60-180	60	119	GapExp	SmallFlash	0	26	2	30	1	target	1	440	780	62693	13.328	6.475	20.177
ProbeTrack15	3	ProbeTrack	15.0	SCS215b	20120202.161524	20120202.161822	8	0.013328	60	10	60-180	60	157	GapExp	SmallFlash	0	27	2	3	0	distractor	1	336	832	63525	13.328	13.103	13.548
ProbeTrack15	3	ProbeTrack	15.0	SCS215b	20120202.161524	20120202.161828	8	0.013328	60	10	60-180	60	71	GapExp	SmallFlash	0	28	2	30	1	target	1	450	775	64300	13.328	13.309	13.348
ProbeTrack15	3	ProbeTrack	15.0	SCS215b	20120202.161524	20120202.161834	8	0.013328	60	10	60-180	60	86	GapExp	SmallFlash	0	29	2	0	0	distractor	1	545	728	65028	13.328	13.310	13.347
ProbeTrack15	3	ProbeTrack	15.0	SCS215b	20120202.161524	20120202.161840	8	0.013328	60	10	60-180	60	172	GapExp	SmallFlash	0	30	2	3	1	target	1	472	764	65792	13.328	10.225	16.425
ProbeTrack15	3	ProbeTrack	15.0	SCS215b	20120202.161524	20120202.161847	8	0.013328	60	10	60-180	60	103	GapExp	SmallFlash	0	31	2	0	0	distractor	1	537	732	66524	13.328	6.235	20.431
ProbeTrack15	3	ProbeTrack	15.0	SCS215b	20120202.161524	20120202.161853	8	0.013328	60	10	60-180	60	140	GapExp	SmallFlash	0	32	2	0	1	target	1	482	759	67283	13.328	10.274	16.391
ProbeTrack15	3	ProbeTrack	15.0	SCS215b	20120202.161524	20120202.161900	8	0.013328	60	10	60-180	60	160	GapExp	SmallFlash	0	33	2	0	1	target	1	411	795	68078	13.328	13.306	13.359
ProbeTrack15	3	ProbeTrack	15.0	SCS215b	20120202.161524	20120202.161907	8	0.013328	60	10	60-180	60	98	GapExp	SmallFlash	0	34	2	3	1	target	1	519	741	68819	13.328	13.102	13.549
ProbeTrack15	3	ProbeTrack	15.0	SCS215b	20120202.161524	20120202.161913	8	0.013328	60	10	60-180	60	69	GapExp	SmallFlash	0	35	2	3	0	distractor	1	498	751	69570	13.328	13.088	13.570
ProbeTrack15	3	ProbeTrack	15.0	SCS215b	20120202.161524	20120202.161918	8	0.013328	60	10	60-180	60	100	GapExp	SmallFlash	0	36	2	3	1	target	1	530	735	70305	13.328	13.084	13.561
ProbeTrack15	3	ProbeTrack	15.0	SCS215b	20120202.161524	20120202.161924	8	0.013328	60	10	60-180	60	71	GapExp	SmallFlash	0	37	2	3	0	distractor	1	436	782	71087	13.328	10.328	16.344
ProbeTrack15	3	ProbeTrack	15.0	SCS215b	20120202.161524	20120202.161929	8	0.013328	60	10	60-180	60	168	GapExp	SmallFlash	0	38	2	3	1	target	1	443	779	71866	13.328	10.547	16.106
ProbeTrack15	3	ProbeTrack	15.0	SCS215b	20120202.161524	20120202.161936	8	0.013328	60	10	60-180	60	170	GapExp	SmallFlash	0	39	2	1	1	target	1	429	786	72652	13.328	8.146	18.518
ProbeTrack15	3	ProbeTrack	15.0	SCS215b	20120202.161524	20120202.161943	8	0.013328	60	10	60-180	60	67	GapExp	SmallFlash	0	40	2	1	1	target	1	505	748	73400	13.328	13.299	13.353
ProbeTrack15	3	ProbeTrack	15.0	SCS215b	20120202.161524	20120202.161948	8	0.013328	60	10	60-180	60	172	GapExp	SmallFlash	0	41	2	1	1	target	1	474	763	74163	13.328	13.087	13.570
ProbeTrack15	3	ProbeTrack	15.0	SCS215b	20120202.161524	20120202.161954	8	0.013328	60	10	60-180	60	85	GapExp	SmallFlash	0	42	2	1	1	target	1	512	744	74907	13.328	9.835	16.818
ProbeTrack15	3	ProbeTrack	15.0	SCS215b	20120202.161524	20120202.162000	8	0.013328	60	10	60-180	60	151	GapExp	SmallFlash	0	43	2	30	0	distractor	1	504	748	75655	13.328	12.209	14.440
ProbeTrack15	3	ProbeTrack	15.0	SCS215b	20120202.161524	20120202.162007	8	0.013328	60	10	60-180	60	180	GapExp	SmallFlash	0	44	2	30	1	target	1	607	697	76352	13.328	11.960	14.713
ProbeTrack15	3	ProbeTrack	15.0	SCS215b	20120202.161524	20120202.162014	8	0.013328	60	10	60-180	60	131	GapExp	SmallFlash	0	45	2	30	0	distractor	1	506	747	77099	13.328	13.107	13.550
ProbeTrack15	3	ProbeTrack	15.0	SCS215b	20120202.161524	20120202.162021	8	0.013328	60	10	60-180	60	126	GapExp	SmallFlash	0	46	2	0	0	distractor	1	467	767	77866	13.328	13.101	13.567
ProbeTrack15	3	ProbeTrack	15.0	SCS215b	20120202.161524	20120202.162027	8	0.013328	60	10	60-180	60	99	GapExp	SmallFlash	0	47	2	0	0	distractor	1	763	619	78485	13.328	13.309	13.353
ProbeTrack15	3	ProbeTrack	15.0	SCS215b	20120202.161524	20120202.162033	8	0.013328	60	10	60-180	60	92	GapExp	SmallFlash	0	48	2	1	0	distractor	1	383	809	79294	13.328	13.305	13.348
ProbeTrack15	3	ProbeTrack	15.0	SCS215b	20120202.161524	20120202.162039	8	0.013328	60	10	60-180	60	165	GapExp	SmallFlash	0	49	2	0	1	target	1	385	808	80102	13.328	13.311	13.347
ProbeTrack15	3	ProbeTrack	15.0	SCS215b	20120202.161524	20120202.162045	8	0.013328	60	10	60-180	60	111	GapExp	SmallFlash	0	50	2	0	1	target	1	585	708	80810	13.328	13.266	13.374
ProbeTrack15	3	ProbeTrack	15.0	SCS215b	20120202.161524	20120202.162052	8	0.013328	60	10	60-180	60	153	GapExp	SmallFlash	0	51	2	3	1	target	1	538	731	81541	13.328	13.118	13.539
ProbeTrack15	3	ProbeTrack	15.0	SCS215b	20120202.161524	20120202.162104	8	0.013328	60	10	60-180	60	144	GapExp	SmallFlash	0	52	2	30	1	target	1	531	735	82276	13.328	12.831	13.853
ProbeTrack15	3	ProbeTrack	15.0	SCS215b	20120202.161524	20120202.162111	8	0.013328	60	10	60-180	60	138	GapExp	SmallFlash	0	53	2	0	1	target	1	389	806	83082	13.328	13.101	13.570
ProbeTrack15	3	ProbeTrack	15.0	SCS215b	20120202.161524	20120202.162117	8	0.013328	60	10	60-180	60	95	GapExp	SmallFlash	0	54	2	0	1	target	1	429	786	83868	13.328	13.098	13.553
ProbeTrack15	3	ProbeTrack	15.0	SCS215b	20120202.161524	20120202.162123	8	0.013328	60	10	60-180	60	69	GapExp	SmallFlash	0	55	2	30	1	target	1	352	824	84692	13.328	10.193	16.465
ProbeTrack15	3	ProbeTrack	15.0	SCS215b	20120202.161524	20120202.162128	8	0.013328	60	10	60-180	60	127	GapExp	SmallFlash	0	56	2	3	0	distractor	1	494	753	85445	13.328	12.053	14.605
ProbeTrack15	3	ProbeTrack	15.0	SCS215b	20120202.161524	20120202.162134	8	0.013328	60	10	60-180	60	145	GapExp	SmallFlash	0	57	2	1	0	distractor	1	492	754	86199	13.326	9.299	17.350
ProbeTrack15	3	ProbeTrack	15.0	SCS215b	20120202.161524	20120202.162140	8	0.013328	60	10	60-180	60	87	GapExp	SmallFlash	0	58	2	0	0	distractor	1	491	755	86954	13.328	7.577	19.075
ProbeTrack15	3	ProbeTrack	15.0	SCS215b	20120202.161524	20120202.162146	8	0.013328	60	10	60-180	60	112	GapExp	SmallFlash	0	59	2	0	0	distractor	1	463	769	87723	13.328	13.103	13.568
ProbeTrack15	3	ProbeTrack	15.0	SCS215b	20120202.161524	20120202.162152	8	0.013328	60	10	60-180	60	119	GapExp	SmallFlash	0	60	2	3	1	target	1	497	752	88475	13.328	13.104	13.551
ProbeTrack15	3	ProbeTrack	15.0	SCS215b	20120202.161524	20120202.162158	8	0.013328	60	10	60-180	60	132	GapExp	SmallFlash	0	61	2	0	1	target	1	403	799	89274	13.328	10.492	16.169
ProbeTrack15	3	ProbeTrack	15.0	SCS215b	20120202.161524	20120202.162204	8	0.013328	60	10	60-180	60	158	GapExp	SmallFlash	0	62	2	0	1	target	1	452	774	90048	13.328	13.307	13.352
ProbeTrack15	3	ProbeTrack	15.0	SCS215b	20120202.161524	20120202.162210	8	0.013328	60	10	60-180	60	170	GapExp	SmallFlash	0	63	2	1	0	distractor	1	465	768	90816	13.328	13.287	13.365
ProbeTrack15	3	ProbeTrack	15.0	SCS215b	20120202.161524	20120202.162217	8	0.013328	60	10	60-180	60	173	GapExp	SmallFlash	0	64	2	0	1	target	1	440	780	91596	13.328	13.055	13.617
ProbeTrack15	3	ProbeTrack	15.0	SCS215b	20120202.161524	20120202.162223	8	0.013328	60	10	60-180	60	87	GapExp	SmallFlash	0	65	2	30	1	target	1	537	732	92328	13.328	13.303	13.359
ProbeTrack15	3	ProbeTrack	15.0	SCS215b	20120202.161524	20120202.162229	8	0.013328	60	10	60-180	60	70	GapExp	SmallFlash	0	66	2	0	0	distractor	1	563	719	93047	13.328	13.313	13.351
ProbeTrack15	3	ProbeTrack	15.0	SCS215b	20120202.161524	20120202.162236	8	0.013328	60	10	60-180	60	72	GapExp	SmallFlash	0	67	2	3	1	target	1	485	758	93805	13.328	12.932	13.731
ProbeTrack15	3	ProbeTrack	15.0	SCS215b	20120202.161524	20120202.162241	8	0.013328	60	10	60-180	60	122	GapExp	SmallFlash	0	68	2	1	0	distractor	1	466	767	94572	13.328	11.590	15.068
ProbeTrack15	3	ProbeTrack	15.0	SCS215b	20120202.161524	20120202.162248	8	0.013328	60	10	60-180	60	152	GapExp	SmallFlash	0	69	2	1	0	distractor	1	431	785	95357	13.328	13.201	13.469
ProbeTrack15	3	ProbeTrack	15.0	SCS215b	20120202.161524	20120202.162254	8	0.013328	60	10	60-180	60	166	GapExp	SmallFlash	0	70	2	1	0	distractor	1	473	764	96121	13.328	12.356	14.290
ProbeTrack15	3	ProbeTrack	15.0	SCS215b	20120202.161524	20120202.162301	8	0.013328	60	10	60-180	60	83	GapExp	SmallFlash	0	71	2	1	1	target	1	569	716	96837	13.328	13.307	13.348
ProbeTrack15	3	ProbeTrack	15.0	SCS215b	20120202.161524	20120202.162306	8	0.013328	60	10	60-180	60	69	GapExp	SmallFlash	0	72	2	0	0	distractor	1	502	749	97586	13.328	13.312	13.352
ProbeTrack15	3	ProbeTrack	15.0	SCS215b	20120202.161524	20120202.162311	8	0.013328	60	10	60-180	60	107	GapExp	SmallFlash	0	73	2	0	1	target	1	390	805	98391	13.328	13.100	13.550
ProbeTrack15	3	ProbeTrack	15.0	SCS215b	20120202.161524	20120202.162317	8	0.013328	60	10	60-180	60	100	GapExp	SmallFlash	0	74	2	0	1	target	1	716	642	99033	13.328	13.112	13.541
ProbeTrack15	3	ProbeTrack	15.0	SCS215b	20120202.161524	20120202.162323	8	0.013328	60	10	60-180	60	62	GapExp	SmallFlash	0	75	2	0	1	target	1	473	764	99797	13.328	13.304	13.368
ProbeTrack15	3	ProbeTrack	15.0	SCS215b	20120202.161524	20120202.162328	8	0.013328	60	10	60-180	60	178	GapExp	SmallFlash	0	76	2	30	1	target	1	370	815	100612	13.328	13.301	13.351
ProbeTrack15	3	ProbeTrack	15.0	SCS215b	20120202.161524	20120202.162335	8	0.013328	60	10	60-180	60	148	GapExp	SmallFlash	0	77	2	1	1	target	1	421	790	101402	13.328	10.378	16.289
ProbeTrack15	3	ProbeTrack	15.0	SCS215b	20120202.161524	20120202.162341	8	0.013328	60	10	60-180	60	82	GapExp	SmallFlash	0	78	2	1	0	distractor	1	726	637	102039	13.328	13.309	13.349
ProbeTrack15	3	ProbeTrack	15.0	SCS215b	20120202.161524	20120202.162347	8	0.013328	60	10	60-180	60	125	GapExp	SmallFlash	0	79	2	30	0	distractor	1	425	788	102827	13.328	13.101	13.549
ProbeTrack15	3	ProbeTrack	15.0	SCS215b	20120202.161524	20120202.162353	8	0.013328	60	10	60-180	60	128	GapExp	SmallFlash	0	80	2	1	1	target	1	318	841	103668	13.328	7.344	19.305
ProbeTrack15	3	ProbeTrack	15.0	SCS215b	20120202.161524	20120202.162359	8	0.013328	60	10	60-180	60	139	GapExp	SmallFlash	0	81	2	0	1	target	1	355	823	104491	13.328	10.108	16.564
ProbeTrack15	3	ProbeTrack	15.0	SCS215b	20120202.161524	20120202.162405	8	0.013328	60	10	60-180	60	87	GapExp	SmallFlash	0	82	2	30	0	distractor	1	467	767	105258	13.328	13.100	13.571
ProbeTrack15	3	ProbeTrack	15.0	SCS215b	20120202.161524	20120202.162411	8	0.013328	60	10	60-180	60	171	GapExp	SmallFlash	0	83	2	1	1	target	1	443	779	106037	13.328	5.736	20.932
ProbeTrack15	3	ProbeTrack	15.0	SCS215b	20120202.161524	20120202.162418	8	0.013328	60	10	60-180	60	166	GapExp	SmallFlash	0	84	2	0	1	target	1	292	854	106891	13.328	13.310	13.349
ProbeTrack15	3	ProbeTrack	15.0	SCS215b	20120202.161524	20120202.162424	8	0.013328	60	10	60-180	60	114	GapExp	SmallFlash	0	85	2	3	1	target	1	526	737	107628	13.328	12.935	13.715
ProbeTrack15	3	ProbeTrack	15.0	SCS215b	20120202.161524	20120202.162430	8	0.013328	60	10	60-180	60	93	GapExp	SmallFlash	0	86	2	30	0	distractor	1	576	712	108340	13.328	13.310	13.348
ProbeTrack15	3	ProbeTrack	15.0	SCS215b	20120202.161524	20120202.162436	8	0.013328	60	10	60-180	60	156	GapExp	SmallFlash	0	87	2	30	0	distractor	1	434	783	109123	13.328	13.304	13.348
ProbeTrack15	3	ProbeTrack	15.0	SCS215b	20120202.161524	20120202.162443	8	0.013328	60	10	60-180	60	136	GapExp	SmallFlash	0	88	2	1	1	target	1	437	782	109905	13.328	13.302	13.352
ProbeTrack15	3	ProbeTrack	15.0	SCS215b	20120202.161524	20120202.162449	8	0.013328	60	10	60-180	60	162	GapExp	SmallFlash	0	89	2	3	1	target	1	424	788	110693	13.328	13.082	13.570
ProbeTrack15	3	ProbeTrack	15.0	SCS215b	20120202.161524	20120202.162456	8	0.013328	60	10	60-180	60	67	GapExp	SmallFlash	0	90	2	1	1	target	1	571	715	111408	13.328	13.102	13.550
ProbeTrack15	3	ProbeTrack	15.0	SCS215b	20120202.161524	20120202.162501	8	0.013328	60	10	60-180	60	131	GapExp	SmallFlash	0	91	2	3	0	distractor	1	395	803	112211	13.328	13.099	13.551
ProbeTrack15	3	ProbeTrack	15.0	SCS215b	20120202.161524	20120202.162508	8	0.013328	60	10	60-180	60	162	GapExp	SmallFlash	0	92	2	30	0	distractor	1	399	801	113012	13.328	13.311	13.354
ProbeTrack15	3	ProbeTrack	15.0	SCS215b	20120202.161524	20120202.162515	8	0.013328	60	10	60-180	60	63	GapExp	SmallFlash	0	93	2	30	0	distractor	1	512	744	113756	13.328	13.028	13.643
ProbeTrack15	3	ProbeTrack	15.0	SCS215b	20120202.161524	20120202.162521	8	0.013328	60	10	60-180	60	96	GapExp	SmallFlash	0	94	2	0	0	distractor	1	488	756	114512	13.328	13.303	13.348
ProbeTrack15	3	ProbeTrack	15.0	SCS215b	20120202.161524	20120202.162527	8	0.013328	60	10	60-180	60	153	GapExp	SmallFlash	0	95	2	1	0	distractor	1	525	738	115250	13.376	3.057	29.437
ProbeTrack15	3	ProbeTrack	15.0	SCS215b	20120202.161524	20120202.162534	8	0.013328	60	10	60-180	60	82	GapExp	SmallFlash	0	96	2	30	0	distractor	1	467	767	116017	13.328	8.246	18.403
ProbeTrack15	3	ProbeTrack	15.0	SCS215b	20120202.161524	20120202.162539	8	0.013328	60	10	60-180	60	94	GapExp	SmallFlash	0	97	2	3	0	distractor	1	455	773	116790	13.328	13.312	13.348
ProbeTrack15	3	ProbeTrack	15.0	SCS215b	20120202.161524	20120202.162545	8	0.013328	60	10	60-180	60	88	GapExp	SmallFlash	0	98	2	1	0	distractor	1	552	724	117514	13.328	13.306	13.353
ProbeTrack15	3	ProbeTrack	15.0	SCS215b	20120202.161524	20120202.162550	8	0.013328	60	10	60-180	60	142	GapExp	SmallFlash	0	99	2	3	1	target	1	463	769	118283	13.328	13.101	13.571
ProbeTrack15	3	ProbeTrack	15.0	SCS215b	20120202.161524	20120202.162557	8	0.013328	60	10	60-180	60	79	GapExp	SmallFlash	0	100	2	1	0	distractor	1	410	795	119078	13.328	13.312	13.349
ProbeTrack15	3	ProbeTrack	15.0	SCS215b	20120202.161524	20120202.162602	8	0.013328	60	10	60-180	60	135	GapExp	SmallFlash	0	101	2	30	0	distractor	1	476	762	119840	13.328	8.039	18.633
ProbeTrack15	3	ProbeTrack	15.0	SCS215b	20120202.161524	20120202.162610	8	0.013328	60	10	60-180	60	176	GapExp	SmallFlash	0	102	2	1	0	distractor	1	403	799	120639	13.328	8.718	17.933
ProbeTrack15	3	ProbeTrack	15.0	SCS215b	20120202.161524	20120202.162616	8	0.013328	60	10	60-180	60	144	GapExp	SmallFlash	0	103	2	3	0	distractor	1	535	733	121372	13.328	13.287	13.362
ProbeTrack15	3	ProbeTrack	15.0	SCS215b	20120202.161524	20120202.162623	8	0.013328	60	10	60-180	60	74	GapExp	SmallFlash	0	104	2	1	0	distractor	1	427	787	122159	13.328	13.193	13.456
ProbeTrack15	3	ProbeTrack	15.0	SCS215b	20120202.161524	20120202.162628	8	0.013328	60	10	60-180	60	135	GapExp	SmallFlash	0	105	2	3	1	target	1	401	800	122959	13.328	13.308	13.348
ProbeTrack15	3	ProbeTrack	15.0	SCS215b	20120202.161524	20120202.162634	8	0.013328	60	10	60-180	60	142	GapExp	SmallFlash	0	106	2	3	0	distractor	1	408	796	123755	13.328	13.101	13.549
ProbeTrack15	3	ProbeTrack	15.0	SCS215b	20120202.161524	20120202.162641	8	0.013328	60	10	60-180	60	180	GapExp	SmallFlash	0	107	2	3	1	target	1	453	774	124529	13.328	13.099	13.551
ProbeTrack15	3	ProbeTrack	15.0	SCS215b	20120202.161524	20120202.162647	8	0.013328	60	10	60-180	60	126	GapExp	SmallFlash	0	108	2	0	1	target	1	439	781	125310	13.328	7.458	19.195
ProbeTrack15	3	ProbeTrack	15.0	SCS215b	20120202.161524	20120202.162654	8	0.013328	60	10	60-180	60	140	GapExp	SmallFlash	0	109	2	30	1	target	1	399	801	126111	13.328	9.691	16.960
ProbeTrack15	3	ProbeTrack	15.0	SCS215b	20120202.161524	20120202.162700	8	0.013328	60	10	60-180	60	75	GapExp	SmallFlash	0	110	2	30	1	target	1	486	757	126868	13.328	13.082	13.570
ProbeTrack15	3	ProbeTrack	15.0	SCS215b	20120202.161524	20120202.162706	8	0.013328	60	10	60-180	60	113	GapExp	SmallFlash	0	111	2	1	1	target	1	335	833	127701	13.328	13.308	13.348
ProbeTrack15	3	ProbeTrack	15.0	SCS215b	20120202.161524	20120202.162712	8	0.013328	60	10	60-180	60	142	GapExp	SmallFlash	0	112	2	30	1	target	1	336	832	128533	13.328	13.310	13.349
ProbeTrack15	3	ProbeTrack	15.0	SCS215b	20120202.161524	20120202.162718	8	0.013328	60	10	60-180	60	108	GapExp	SmallFlash	0	113	2	3	1	target	1	611	695	129228	13.328	8.996	17.657
ProbeTrack15	3	ProbeTrack	15.0	SCS215b	20120202.161524	20120202.162724	8	0.013328	60	10	60-180	60	122	GapExp	SmallFlash	0	114	2	30	0	distractor	1	389	806	130034	13.328	11.547	15.104
ProbeTrack15	3	ProbeTrack	15.0	SCS215b	20120202.161524	20120202.162731	8	0.013328	60	10	60-180	60	93	GapExp	SmallFlash	0	115	2	3	0	distractor	1	397	802	130836	13.328	10.563	16.086
ProbeTrack15	3	ProbeTrack	15.0	SCS215b	20120202.161524	20120202.162737	8	0.013328	60	10	60-180	60	77	GapExp	SmallFlash	0	116	2	0	1	target	1	484	758	131594	13.328	13.103	13.550
ProbeTrack15	3	ProbeTrack	15.0	SCS215b	20120202.161524	20120202.162742	8	0.013328	60	10	60-180	60	61	GapExp	SmallFlash	0	117	2	30	0	distractor	1	404	798	132392	13.328	10.684	15.974
ProbeTrack15	3	ProbeTrack	15.0	SCS215b	20120202.161524	20120202.162748	8	0.013328	60	10	60-180	60	161	GapExp	SmallFlash	0	118	2	30	0	distractor	1	344	828	133220	13.328	10.842	15.826
ProbeTrack15	3	ProbeTrack	15.0	SCS215b	20120202.161524	20120202.162754	8	0.013328	60	10	60-180	60	154	GapExp	SmallFlash	0	119	2	0	1	target	1	433	784	134004	13.328	13.242	13.413
ProbeTrack15	3	ProbeTrack	15.0	SCS215b	20120202.161524	20120202.162801	8	0.013328	60	10	60-180	60	127	GapExp	SmallFlash	0	120	2	3	0	distractor	1	452	774	134778	13.328	13.302	13.349
ProbeTrack15	3	ProbeTrack	15.0	SCS215b	20120202.161524	20120202.162808	8	0.013328	60	10	60-180	60	89	GapExp	SmallFlash	0	121	2	30	1	target	1	413	794	135572	13.328	13.311	13.351
ProbeTrack15	3	ProbeTrack	15.0	SCS215b	20120202.161524	20120202.162814	8	0.013328	60	10	60-180	60	163	GapExp	SmallFlash	0	122	2	0	0	distractor	1	379	811	136383	13.328	13.305	13.354
ProbeTrack15	3	ProbeTrack	15.0	SCS215b	20120202.161524	20120202.162821	8	0.013328	60	10	60-180	60	120	GapExp	SmallFlash	0	123	2	0	1	target	1	494	753	137136	13.328	11.636	15.017
ProbeTrack15	3	ProbeTrack	15.0	SCS215b	20120202.161524	20120202.162827	8	0.013328	60	10	60-180	60	123	GapExp	SmallFlash	0	124	2	1	0	distractor	1	487	757	137893	13.328	13.098	13.552
ProbeTrack15	3	ProbeTrack	15.0	SCS215b	20120202.161524	20120202.162833	8	0.013328	60	10	60-180	60	138	GapExp	SmallFlash	0	125	2	3	1	target	1	470	765	138658	13.328	13.115	13.555
ProbeTrack15	3	ProbeTrack	15.0	SCS215b	20120202.161524	20120202.162839	8	0.013328	60	10	60-180	60	69	GapExp	SmallFlash	0	126	2	0	0	distractor	1	534	733	139391	13.328	8.886	17.764
ProbeTrack15	3	ProbeTrack	15.0	SCS215b	20120202.161524	20120202.162845	8	0.013328	60	10	60-180	60	87	GapExp	SmallFlash	0	127	2	30	0	distractor	1	391	805	140196	13.327	13.229	13.349
ProbeTrack15	3	ProbeTrack	15.0	SCS215b	20120202.161524	20120202.162850	8	0.013328	60	10	60-180	60	99	GapExp	SmallFlash	0	128	2	1	1	target	1	338	831	141027	13.328	8.262	18.393
ProbeTrack15	3	ProbeTrack	15.0	SCS215b	20120202.161524	20120202.162856	8	0.013328	60	10	60-180	60	178	GapExp	SmallFlash	0	129	2	30	1	target	1	433	784	141811	13.369	11.604	21.635
ProbeTrack15	3	ProbeTrack	15.0	SCS215b	20120202.161524	20120202.162903	8	0.013328	60	10	60-180	60	104	GapExp	SmallFlash	0	130	2	30	0	distractor	1	416	792	142603	13.328	13.107	13.557
ProbeTrack15	3	ProbeTrack	15.0	SCS215b	20120202.161524	20120202.162909	8	0.013328	60	10	60-180	60	91	GapExp	SmallFlash	0	131	2	30	1	target	1	416	792	143395	13.328	13.311	13.349
ProbeTrack15	3	ProbeTrack	15.0	SCS215b	20120202.161524	20120202.162915	8	0.013328	60	10	60-180	60	69	GapExp	SmallFlash	0	132	2	1	1	target	1	368	816	144211	13.328	13.302	13.352
ProbeTrack15	3	ProbeTrack	15.0	SCS215b	20120202.161524	20120202.162920	8	0.013328	60	10	60-180	60	85	GapExp	SmallFlash	0	133	2	0	0	distractor	1	493	754	144965	13.328	13.100	13.550
ProbeTrack15	3	ProbeTrack	15.0	SCS215b	20120202.161524	20120202.162926	8	0.013328	60	10	60-180	60	180	GapExp	SmallFlash	0	134	2	3	0	distractor	1	355	823	145788	13.328	9.759	16.896
ProbeTrack15	3	ProbeTrack	15.0	SCS215b	20120202.161524	20120202.162932	8	0.013328	60	10	60-180	60	114	GapExp	SmallFlash	0	135	2	0	0	distractor	1	429	786	146574	13.328	13.303	13.353
ProbeTrack15	3	ProbeTrack	15.0	SCS215b	20120202.161524	20120202.162938	8	0.013328	60	10	60-180	60	150	GapExp	SmallFlash	0	136	2	3	0	distractor	1	578	711	147285	13.328	13.310	13.351
ProbeTrack15	3	ProbeTrack	15.0	SCS215b	20120202.161524	20120202.162945	8	0.013328	60	10	60-180	60	91	GapExp	SmallFlash	0	137	2	0	1	target	1	411	795	148080	13.328	11.676	14.984
ProbeTrack15	3	ProbeTrack	15.0	SCS215b	20120202.161524	20120202.162951	8	0.013328	60	10	60-180	60	80	GapExp	SmallFlash	0	138	2	30	1	target	1	360	820	148900	13.328	13.313	13.348
ProbeTrack15	3	ProbeTrack	15.0	SCS215b	20120202.161524	20120202.162958	8	0.013328	60	10	60-180	60	96	GapExp	SmallFlash	0	139	2	1	0	distractor	1	374	813	149713	13.328	13.266	13.407
ProbeTrack15	3	ProbeTrack	15.0	SCS215b	20120202.161524	20120202.163004	8	0.013328	60	10	60-180	60	150	GapExp	SmallFlash	0	140	2	3	0	distractor	1	404	798	150511	13.328	13.101	13.550
ProbeTrack15	3	ProbeTrack	15.0	SCS215b	20120202.161524	20120202.163010	8	0.013328	60	10	60-180	60	109	GapExp	SmallFlash	0	141	2	1	0	distractor	1	449	776	151287	13.328	13.102	13.571
ProbeTrack15	3	ProbeTrack	15.0	SCS215b	20120202.161524	20120202.163016	8	0.013328	60	10	60-180	60	82	GapExp	SmallFlash	0	142	2	3	1	target	1	400	800	152087	13.328	13.213	13.437
ProbeTrack15	3	ProbeTrack	15.0	SCS215b	20120202.161524	20120202.163022	8	0.013328	60	10	60-180	60	141	GapExp	SmallFlash	0	143	2	3	0	distractor	1	331	835	152922	13.328	10.070	16.581
ProbeTrack15	3	ProbeTrack	15.0	SCS215b	20120202.161524	20120202.163028	8	0.013328	60	10	60-180	60	61	GapExp	SmallFlash	0	144	2	30	1	target	1	288	856	153778	13.328	4.619	22.033
ProbeTrack15	3	ProbeTrack	15.0	SCS215b	20120202.161524	20120202.163033	8	0.013328	60	10	60-180	60	130	GapExp	SmallFlash	0	145	2	0	1	target	1	421	790	154568	13.328	13.305	13.348
ProbeTrack15	3	ProbeTrack	15.0	SCS215b	20120202.161524	20120202.163039	8	0.013328	60	10	60-180	60	140	GapExp	SmallFlash	0	146	2	30	1	target	1	238	881	155449	13.328	12.984	13.671
ProbeTrack15	3	ProbeTrack	15.0	SCS215b	20120202.161524	20120202.163045	8	0.013328	60	10	60-180	60	80	GapExp	SmallFlash	0	147	2	30	1	target	1	435	783	156232	13.328	13.118	13.554
ProbeTrack15	3	ProbeTrack	15.0	SCS215b	20120202.161524	20120202.163051	8	0.013328	60	10	60-180	60	73	GapExp	SmallFlash	0	148	2	0	0	distractor	1	522	739	156971	13.328	9.840	16.811
ProbeTrack15	3	ProbeTrack	15.0	SCS215b	20120202.161524	20120202.163057	8	0.013328	60	10	60-180	60	74	GapExp	SmallFlash	0	149	2	30	1	target	1	341	830	157801	13.328	13.306	13.351
ProbeTrack15	3	ProbeTrack	15.0	SCS215b	20120202.161524	20120202.163102	8	0.013328	60	10	60-180	60	85	GapExp	SmallFlash	0	150	2	1	1	target	1	317	842	158643	13.328	13.315	13.349
ProbeTrack15	3	ProbeTrack	15.0	SCS215b	20120202.161524	20120202.163107	8	0.013328	60	10	60-180	60	133	GapExp	SmallFlash	0	151	2	0	0	distractor	1	430	785	159428	13.328	13.102	13.549
ProbeTrack15	3	ProbeTrack	15.0	SCS215b	20120202.161524	20120202.163113	8	0.013328	60	10	60-180	60	175	GapExp	SmallFlash	0	152	2	30	1	target	1	490	755	160183	13.328	10.812	15.838
ProbeTrack15	3	ProbeTrack	15.0	SCS215b	20120202.161524	20120202.163120	8	0.013328	60	10	60-180	60	105	GapExp	SmallFlash	0	153	2	3	1	target	1	310	845	161028	13.328	13.089	13.569
ProbeTrack15	3	ProbeTrack	15.0	SCS215b	20120202.161524	20120202.163126	8	0.013328	60	10	60-180	60	86	GapExp	SmallFlash	0	154	2	30	1	target	1	315	843	161871	13.387	7.510	31.775
ProbeTrack15	3	ProbeTrack	15.0	SCS215b	20120202.161524	20120202.163132	8	0.013328	60	10	60-180	60	71	GapExp	SmallFlash	0	155	2	1	0	distractor	1	457	772	162643	13.328	13.302	13.352
ProbeTrack15	3	ProbeTrack	15.0	SCS215b	20120202.161524	20120202.163137	8	0.013328	60	10	60-180	60	93	GapExp	SmallFlash	0	156	2	3	1	target	1	291	855	163498	13.328	9.537	17.114
ProbeTrack15	3	ProbeTrack	15.0	SCS215b	20120202.161524	20120202.163142	8	0.013328	60	10	60-180	60	88	GapExp	SmallFlash	0	157	2	0	1	target	1	234	883	164381	13.328	7.178	19.473
ProbeTrack15	3	ProbeTrack	15.0	SCS215b	20120202.161524	20120202.163147	8	0.013328	60	10	60-180	60	68	GapExp	SmallFlash	0	158	2	3	1	target	1	250	875	165256	13.328	7.445	19.194
ProbeTrack15	3	ProbeTrack	15.0	SCS215b	20120202.161524	20120202.163152	8	0.013328	60	10	60-180	60	179	GapExp	SmallFlash	0	159	2	3	1	target	1	584	708	165964	13.328	12.884	13.785
ProbeTrack15	3	ProbeTrack	15.0	SCS215b	20120202.161524	20120202.163159	8	0.013328	60	10	60-180	60	89	GapExp	SmallFlash	0	160	2	1	0	distractor	1	339	831	166795	13.328	13.308	13.348
ProbeTrack15	3	ProbeTrack	15.0	SCS215b	20120202.161524	20120202.163205	8	0.013328	60	10	60-180	60	150	GapExp	SmallFlash	0	161	2	30	0	distractor	1	336	832	167627	13.328	9.093	17.559
ProbeTrack15	3	ProbeTrack	15.0	SCS215b	20120202.161524	20120202.163211	8	0.013328	60	10	60-180	60	175	GapExp	SmallFlash	0	162	2	0	1	distractor	0	289	-1000	166627	13.328	9.983	16.664
ProbeTrack15	3	ProbeTrack	15.0	SCS215b	20120202.161524	20120202.163218	8	0.013328	60	10	60-180	60	145	GapExp	SmallFlash	0	163	2	30	0	distractor	1	468	766	167393	13.328	12.794	13.867
ProbeTrack15	3	ProbeTrack	15.0	SCS215b	20120202.161524	20120202.163226	8	0.013328	60	10	60-180	60	154	GapExp	SmallFlash	0	164	2	1	0	distractor	1	495	753	168146	13.328	11.753	14.905
ProbeTrack15	3	ProbeTrack	15.0	SCS215b	20120202.161524	20120202.163233	8	0.013328	60	10	60-180	60	113	GapExp	SmallFlash	0	165	2	0	0	distractor	1	567	717	168863	13.328	13.307	13.364
ProbeTrack15	3	ProbeTrack	15.0	SCS215b	20120202.161524	20120202.163239	8	0.013328	60	10	60-180	60	91	GapExp	SmallFlash	0	166	2	1	0	distractor	1	480	760	169623	13.328	11.829	14.828
ProbeTrack15	3	ProbeTrack	15.0	SCS215b	20120202.161524	20120202.163245	8	0.013328	60	10	60-180	60	176	GapExp	SmallFlash	0	167	2	30	1	target	1	411	795	170418	13.328	13.102	13.542
ProbeTrack15	3	ProbeTrack	15.0	SCS215b	20120202.161524	20120202.163252	8	0.013328	60	10	60-180	60	153	GapExp	SmallFlash	0	168	2	3	0	distractor	1	431	785	171203	13.328	13.103	13.560
ProbeTrack15	3	ProbeTrack	15.0	SCS215b	20120202.161524	20120202.163258	8	0.013328	60	10	60-180	60	167	GapExp	SmallFlash	0	169	2	3	1	target	1	389	806	172009	13.328	9.515	17.139
ProbeTrack15	3	ProbeTrack	15.0	SCS215b	20120202.161524	20120202.163305	8	0.013328	60	10	60-180	60	158	GapExp	SmallFlash	0	170	2	0	0	distractor	1	408	796	172805	13.328	13.100	13.549
ProbeTrack15	3	ProbeTrack	15.0	SCS215b	20120202.161524	20120202.163312	8	0.013328	60	10	60-180	60	129	GapExp	SmallFlash	0	171	2	3	1	target	1	388	806	173611	13.328	10.352	16.300
ProbeTrack15	3	ProbeTrack	15.0	SCS215b	20120202.161524	20120202.163317	8	0.013328	60	10	60-180	60	64	GapExp	SmallFlash	0	172	2	30	1	target	1	369	816	174427	13.328	13.015	13.636
ProbeTrack15	3	ProbeTrack	15.0	SCS215b	20120202.161524	20120202.163323	8	0.013328	60	10	60-180	60	114	GapExp	SmallFlash	0	173	2	1	1	target	1	334	833	175260	13.328	13.292	13.359
ProbeTrack15	3	ProbeTrack	15.0	SCS215b	20120202.161524	20120202.163328	8	0.013328	60	10	60-180	60	170	GapExp	SmallFlash	0	174	2	3	0	distractor	1	427	787	176047	13.328	5.314	21.347
ProbeTrack15	3	ProbeTrack	15.0	SCS215b	20120202.161524	20120202.163335	8	0.013328	60	10	60-180	60	133	GapExp	SmallFlash	0	175	2	1	1	target	1	279	861	176908	13.328	13.103	13.549
ProbeTrack15	3	ProbeTrack	15.0	SCS215b	20120202.161524	20120202.163341	8	0.013328	60	10	60-180	60	108	GapExp	SmallFlash	0	176	2	1	1	target	1	327	837	177745	13.328	13.094	13.556
ProbeTrack15	3	ProbeTrack	15.0	SCS215b	20120202.161524	20120202.163347	8	0.013328	60	10	60-180	60	143	GapExp	SmallFlash	0	177	2	1	0	distractor	1	403	799	178544	13.328	13.245	13.425
ProbeTrack15	3	ProbeTrack	15.0	SCS215b	20120202.161524	20120202.163353	8	0.013328	60	10	60-180	60	179	GapExp	SmallFlash	0	178	2	1	1	target	1	325	838	179382	13.328	13.101	13.570
ProbeTrack15	3	ProbeTrack	15.0	SCS215b	20120202.161524	20120202.163400	8	0.013328	60	10	60-180	60	69	GapExp	SmallFlash	0	179	2	1	1	target	1	328	836	180218	13.328	8.997	17.673
ProbeTrack15	3	ProbeTrack	15.0	SCS215b	20120202.161524	20120202.163405	8	0.013328	60	10	60-180	60	85	GapExp	SmallFlash	0	180	2	0	0	distractor	1	471	765	180983	13.328	13.212	13.443
ProbeTrack15	3	ProbeTrack	15.0	SCS215b	20120202.161524	20120202.163410	8	0.013328	60	10	60-180	60	79	GapExp	SmallFlash	0	181	2	1	1	target	1	353	824	181807	13.328	7.422	19.236
ProbeTrack15	3	ProbeTrack	15.0	SCS215b	20120202.161524	20120202.163415	8	0.013328	60	10	60-180	60	85	GapExp	SmallFlash	0	182	2	3	0	distractor	1	390	805	182612	13.328	9.058	17.593
ProbeTrack15	3	ProbeTrack	15.0	SCS215b	20120202.161524	20120202.163421	8	0.013328	60	10	60-180	60	76	GapExp	SmallFlash	0	183	2	0	0	distractor	1	467	767	183379	13.328	10.096	16.570
ProbeTrack15	3	ProbeTrack	15.0	SCS215b	20120202.161524	20120202.163426	8	0.013328	60	10	60-180	60	169	GapExp	SmallFlash	0	184	2	3	0	distractor	1	335	833	184212	13.328	6.762	14.820
ProbeTrack15	3	ProbeTrack	15.0	SCS215b	20120202.161524	20120202.163433	8	0.013328	60	10	60-180	60	118	GapExp	SmallFlash	0	185	2	1	1	target	1	356	822	185034	13.328	10.083	16.587
ProbeTrack15	3	ProbeTrack	15.0	SCS215b	20120202.161524	20120202.163439	8	0.013328	60	10	60-180	60	126	GapExp	SmallFlash	0	186	2	3	0	distractor	1	320	840	185874	13.328	13.292	13.360
ProbeTrack15	3	ProbeTrack	15.0	SCS215b	20120202.161524	20120202.163446	8	0.013328	60	10	60-180	60	110	GapExp	SmallFlash	0	187	2	30	1	target	1	319	841	186715	13.328	13.308	13.350
ProbeTrack15	3	ProbeTrack	15.0	SCS215b	20120202.161524	20120202.163452	8	0.013328	60	10	60-180	60	70	GapExp	SmallFlash	0	188	2	3	1	target	1	415	793	187508	13.328	11.769	14.902
ProbeTrack15	3	ProbeTrack	15.0	SCS215b	20120202.161524	20120202.163457	8	0.013328	60	10	60-180	60	103	GapExp	SmallFlash	0	189	2	30	0	distractor	1	384	808	188316	13.328	10.232	16.428
ProbeTrack15	3	ProbeTrack	15.0	SCS215b	20120202.161524	20120202.163503	8	0.013328	60	10	60-180	60	131	GapExp	SmallFlash	0	190	2	30	0	distractor	1	404	798	189114	13.328	13.083	13.570
ProbeTrack15	3	ProbeTrack	15.0	SCS215b	20120202.161524	20120202.163509	8	0.013328	60	10	60-180	60	73	GapExp	SmallFlash	0	191	2	0	0	distractor	1	507	747	189861	13.328	13.306	13.351
ProbeTrack15	3	ProbeTrack	15.0	SCS215b	20120202.161524	20120202.163515	8	0.013328	60	10	60-180	60	72	GapExp	SmallFlash	0	192	2	0	1	target	1	449	776	190637	13.328	13.297	13.354
ProbeTrack15	3	ProbeTrack	15.0	SCS215b	20120202.161524	20120202.163520	8	0.013328	60	10	60-180	60	138	GapExp	SmallFlash	0	193	2	30	0	distractor	1	415	793	191430	13.327	12.591	14.088
ProbeTrack15	3	ProbeTrack	15.0	SCS215b	20120202.161524	20120202.163527	8	0.013328	60	10	60-180	60	171	GapExp	SmallFlash	0	194	2	0	0	distractor	1	350	825	192255	13.328	13.309	13.347
ProbeTrack15	3	ProbeTrack	15.0	SCS215b	20120202.161524	20120202.163533	8	0.013328	60	10	60-180	60	117	GapExp	SmallFlash	0	195	2	0	0	target	0	422	-1000	191255	13.328	13.308	13.347
ProbeTrack15	3	ProbeTrack	15.0	SCS215b	20120202.161524	20120202.163539	8	0.013328	60	10	60-180	60	111	GapExp	SmallFlash	0	196	2	0	0	distractor	1	7043	0	191255	13.328	13.105	13.551
ProbeTrack15	3	ProbeTrack	15.0	SCS215b	20120202.161524	20120202.163553	8	0.013328	60	10	60-180	60	130	GapExp	SmallFlash	0	197	2	3	0	distractor	1	508	746	192001	13.328	9.881	16.785
ProbeTrack15	3	ProbeTrack	15.0	SCS215b	20120202.161524	20120202.163602	8	0.013328	60	10	60-180	60	100	GapExp	SmallFlash	0	198	2	3	0	distractor	1	451	775	192776	13.328	8.168	18.485
ProbeTrack15	3	ProbeTrack	15.0	SCS215b	20120202.161524	20120202.163608	8	0.013328	60	10	60-180	60	165	GapExp	SmallFlash	0	199	2	30	0	distractor	1	428	786	193562	13.328	13.281	13.372
ProbeTrack15	3	ProbeTrack	15.0	SCS215b	20120202.161524	20120202.163614	8	0.013328	60	10	60-180	60	107	GapExp	SmallFlash	0	200	2	3	0	distractor	1	357	822	194384	13.328	13.100	13.550
ProbeTrack15	3	ProbeTrack	15.0	SCS215b	20120202.163730	20120202.163747	8	0.013328	60	10	60-180	60	66	GapPrac	Blank	1	1	2	1	1	distractor	0	962	-1000	193384	13.391	13.308	13.348
ProbeTrack15	3	ProbeTrack	15.0	SCS215b	20120202.163730	20120202.163754	8	0.013328	60	10	60-180	60	118	GapPrac	Blank	1	2	2	30	1	target	1	598	701	194085	13.328	13.312	13.348
ProbeTrack15	3	ProbeTrack	15.0	SCS215b	20120202.163730	20120202.163803	8	0.013328	60	10	60-180	60	151	GapPrac	Blank	1	3	2	3	0	distractor	1	543	729	194814	13.328	13.307	13.353
ProbeTrack15	3	ProbeTrack	15.0	SCS215b	20120202.163730	20120202.163810	8	0.013328	60	10	60-180	60	144	GapPrac	Blank	1	4	2	1	0	distractor	1	662	669	195483	13.328	13.306	13.351
ProbeTrack15	3	ProbeTrack	15.0	SCS215b	20120202.163730	20120202.163816	8	0.013328	60	10	60-180	60	118	GapPrac	Blank	1	5	2	3	0	distractor	1	415	793	196276	13.328	13.309	13.348
ProbeTrack15	3	ProbeTrack	15.0	SCS215b	20120202.163730	20120202.163822	8	0.013328	60	10	60-180	60	173	GapPrac	Blank	1	6	2	0	0	distractor	1	536	732	197008	13.327	13.107	13.350
ProbeTrack15	3	ProbeTrack	15.0	SCS215b	20120202.163730	20120202.163829	8	0.013328	60	10	60-180	60	121	GapPrac	Blank	1	7	2	0	1	target	1	564	718	197726	13.328	8.964	17.706
ProbeTrack15	3	ProbeTrack	15.0	SCS215b	20120202.163730	20120202.163835	8	0.013328	60	10	60-180	60	157	GapPrac	Blank	1	8	2	1	0	distractor	1	530	735	198461	13.328	13.100	13.565
ProbeTrack15	3	ProbeTrack	15.0	SCS215b	20120202.163730	20120202.163841	8	0.013328	60	10	60-180	60	98	GapPrac	Blank	1	9	2	0	1	target	1	637	682	199143	13.328	13.099	13.571
ProbeTrack15	3	ProbeTrack	15.0	SCS215b	20120202.163730	20120202.163847	8	0.013328	60	10	60-180	60	75	GapPrac	Blank	1	10	2	3	1	target	1	372	814	199957	13.328	13.100	13.552
ProbeTrack15	3	ProbeTrack	15.0	SCS215b	20120202.163730	20120202.163853	8	0.013328	60	10	60-180	60	89	GapPrac	Blank	1	11	2	3	0	distractor	1	501	750	200707	13.328	13.309	13.356
ProbeTrack15	3	ProbeTrack	15.0	SCS215b	20120202.163730	20120202.163858	8	0.013328	60	10	60-180	60	154	GapPrac	Blank	1	12	2	30	1	target	1	390	805	201512	13.328	13.310	13.354
ProbeTrack15	3	ProbeTrack	15.0	SCS215b	20120202.163730	20120202.163905	8	0.013328	60	10	60-180	60	98	GapPrac	Blank	1	13	2	30	0	distractor	1	498	751	202263	13.328	13.148	13.499
ProbeTrack15	3	ProbeTrack	15.0	SCS215b	20120202.163730	20120202.163911	8	0.013328	60	10	60-180	60	148	GapPrac	Blank	1	14	2	1	1	target	1	403	799	203062	13.328	13.307	13.350
ProbeTrack15	3	ProbeTrack	15.0	SCS215b	20120202.163730	20120202.163917	8	0.013328	60	10	60-180	60	77	GapPrac	Blank	1	15	2	30	0	distractor	1	657	672	203734	13.328	7.076	19.573
ProbeTrack15	3	ProbeTrack	15.0	SCS215b	20120202.163730	20120202.163923	8	0.013328	60	10	60-180	60	145	GapPrac	Blank	1	16	2	1	0	distractor	1	690	655	204389	13.328	13.100	13.551
ProbeTrack15	3	ProbeTrack	15.0	SCS215b	20120202.163730	20120202.163930	8	0.013328	60	10	60-180	60	76	GapPrac	Blank	1	17	2	1	1	target	1	484	758	205147	13.330	13.102	13.779
ProbeTrack15	3	ProbeTrack	15.0	SCS215b	20120202.163730	20120202.163935	8	0.013328	60	10	60-180	60	165	GapPrac	Blank	1	18	2	30	1	target	1	372	814	205961	13.328	3.941	22.711
ProbeTrack15	3	ProbeTrack	15.0	SCS215b	20120202.163730	20120202.163942	8	0.013328	60	10	60-180	60	157	GapPrac	Blank	1	19	2	0	0	distractor	1	425	788	206749	13.328	13.199	13.457
ProbeTrack15	3	ProbeTrack	15.0	SCS215b	20120202.163730	20120202.163948	8	0.013328	60	10	60-180	60	115	GapPrac	Blank	1	20	2	3	1	target	1	388	806	207555	13.328	6.524	20.137
ProbeTrack15	3	ProbeTrack	15.0	SCS215b	20120202.164029	20120202.164045	8	0.013328	60	10	60-180	60	103	GapExp	Blank	1	1	2	3	0	distractor	1	393	804	208359	13.388	13.129	13.671
ProbeTrack15	3	ProbeTrack	15.0	SCS215b	20120202.164029	20120202.164056	8	0.013328	60	10	60-180	60	64	GapExp	Blank	1	2	2	0	1	target	1	535	733	209092	13.328	11.003	15.649
ProbeTrack15	3	ProbeTrack	15.0	SCS215b	20120202.164029	20120202.164101	8	0.013328	60	10	60-180	60	113	GapExp	Blank	1	3	2	1	1	target	1	447	777	209869	13.328	13.103	13.551
ProbeTrack15	3	ProbeTrack	15.0	SCS215b	20120202.164029	20120202.164107	8	0.013328	60	10	60-180	60	164	GapExp	Blank	1	4	2	30	1	target	1	323	839	210708	13.328	13.101	13.550
ProbeTrack15	3	ProbeTrack	15.0	SCS215b	20120202.164029	20120202.164114	8	0.013328	60	10	60-180	60	164	GapExp	Blank	1	5	2	30	0	distractor	1	597	702	211410	13.328	13.101	13.572
ProbeTrack15	3	ProbeTrack	15.0	SCS215b	20120202.164029	20120202.164122	8	0.013328	60	10	60-180	60	173	GapExp	Blank	1	6	2	0	0	distractor	1	438	781	212191	13.328	13.311	13.353
ProbeTrack15	3	ProbeTrack	15.0	SCS215b	20120202.164029	20120202.164133	8	0.013328	60	10	60-180	60	144	GapExp	Blank	1	7	2	1	0	distractor	1	399	801	212992	13.328	7.163	19.499
ProbeTrack15	3	ProbeTrack	15.0	SCS215b	20120202.164029	20120202.164139	8	0.013328	60	10	60-180	60	101	GapExp	Blank	1	8	2	3	1	target	1	431	785	213777	13.388	7.109	22.014
ProbeTrack15	3	ProbeTrack	15.0	SCS215b	20120202.164029	20120202.164144	8	0.013328	60	10	60-180	60	102	GapExp	Blank	0	9	2	0	0	distractor	1	289	856	214633	13.328	4.503	22.150
ProbeTrack15	3	ProbeTrack	15.0	SCS215b	20120202.164029	20120202.164150	8	0.013328	60	10	60-180	60	92	GapExp	Blank	0	10	2	0	1	target	1	391	805	215438	13.328	13.093	13.569
ProbeTrack15	3	ProbeTrack	15.0	SCS215b	20120202.164029	20120202.164155	8	0.013328	60	10	60-180	60	157	GapExp	Blank	0	11	2	30	1	target	1	360	820	216258	13.328	9.159	17.502
ProbeTrack15	3	ProbeTrack	15.0	SCS215b	20120202.164029	20120202.164202	8	0.013328	60	10	60-180	60	83	GapExp	Blank	0	12	2	1	0	distractor	1	413	794	217052	13.328	12.218	14.455
ProbeTrack15	3	ProbeTrack	15.0	SCS215b	20120202.164029	20120202.164207	8	0.013328	60	10	60-180	60	160	GapExp	Blank	0	13	2	0	0	distractor	1	356	822	217874	13.328	10.560	16.098
ProbeTrack15	3	ProbeTrack	15.0	SCS215b	20120202.164029	20120202.164214	8	0.013328	60	10	60-180	60	110	GapExp	Blank	0	14	2	0	1	target	1	446	777	218651	13.328	12.554	14.097
ProbeTrack15	3	ProbeTrack	15.0	SCS215b	20120202.164029	20120202.164219	8	0.013328	60	10	60-180	60	82	GapExp	Blank	0	15	2	1	1	target	1	318	841	219492	13.328	13.114	13.566
ProbeTrack15	3	ProbeTrack	15.0	SCS215b	20120202.164029	20120202.164224	8	0.013328	60	10	60-180	60	97	GapExp	Blank	0	16	2	30	0	distractor	1	342	829	220321	13.328	13.105	13.550
ProbeTrack15	3	ProbeTrack	15.0	SCS215b	20120202.164029	20120202.164230	8	0.013328	60	10	60-180	60	157	GapExp	Blank	0	17	2	30	0	target	0	440	-1000	219321	13.328	13.276	13.377
ProbeTrack15	3	ProbeTrack	15.0	SCS215b	20120202.164029	20120202.164237	8	0.013328	60	10	60-180	60	131	GapExp	Blank	0	18	2	3	1	target	1	482	759	220080	13.328	13.271	13.375
ProbeTrack15	3	ProbeTrack	15.0	SCS215b	20120202.164029	20120202.164248	8	0.013328	60	10	60-180	60	180	GapExp	Blank	0	19	2	0	0	distractor	1	485	758	220838	13.328	4.928	21.731
ProbeTrack15	3	ProbeTrack	15.0	SCS215b	20120202.164029	20120202.164255	8	0.013328	60	10	60-180	60	83	GapExp	Blank	0	20	2	30	1	target	1	418	791	221629	13.328	9.539	17.125
ProbeTrack15	3	ProbeTrack	15.0	SCS215b	20120202.164029	20120202.164300	8	0.013328	60	10	60-180	60	62	GapExp	Blank	0	21	2	30	0	distractor	1	408	796	222425	13.328	13.093	13.567
ProbeTrack15	3	ProbeTrack	15.0	SCS215b	20120202.164029	20120202.164306	8	0.013328	60	10	60-180	60	106	GapExp	Blank	0	22	2	30	1	target	1	546	727	223152	13.328	13.288	13.363
ProbeTrack15	3	ProbeTrack	15.0	SCS215b	20120202.164029	20120202.164312	8	0.013328	60	10	60-180	60	135	GapExp	Blank	0	23	2	3	0	distractor	1	392	804	223956	13.328	11.032	15.616
ProbeTrack15	3	ProbeTrack	15.0	SCS215b	20120202.164029	20120202.164319	8	0.013328	60	10	60-180	60	120	GapExp	Blank	0	24	2	1	1	distractor	0	1317	-1000	222956	13.328	11.772	14.884
ProbeTrack15	3	ProbeTrack	15.0	SCS215b	20120202.164029	20120202.164326	8	0.013328	60	10	60-180	60	109	GapExp	Blank	0	25	2	0	1	target	1	500	750	223706	13.328	10.221	16.451
ProbeTrack15	3	ProbeTrack	15.0	SCS215b	20120202.164029	20120202.164333	8	0.013328	60	10	60-180	60	173	GapExp	Blank	0	26	2	0	1	target	1	508	746	224452	13.328	13.103	13.556
ProbeTrack15	3	ProbeTrack	15.0	SCS215b	20120202.164029	20120202.164340	8	0.013328	60	10	60-180	60	111	GapExp	Blank	0	27	2	3	1	target	1	487	757	225209	13.328	13.301	13.348
ProbeTrack15	3	ProbeTrack	15.0	SCS215b	20120202.164029	20120202.164346	8	0.013328	60	10	60-180	60	120	GapExp	Blank	0	28	2	3	1	target	1	576	712	225921	13.328	13.310	13.348
ProbeTrack15	3	ProbeTrack	15.0	SCS215b	20120202.164029	20120202.164352	8	0.013328	60	10	60-180	60	67	GapExp	Blank	0	29	2	30	0	distractor	1	828	586	226507	13.328	10.190	16.460
ProbeTrack15	3	ProbeTrack	15.0	SCS215b	20120202.164029	20120202.164358	8	0.013328	60	10	60-180	60	149	GapExp	Blank	0	30	2	0	0	distractor	1	503	749	227256	13.328	13.151	13.455
ProbeTrack15	3	ProbeTrack	15.0	SCS215b	20120202.164029	20120202.164405	8	0.013328	60	10	60-180	60	146	GapExp	Blank	0	31	2	3	1	target	1	692	654	227910	13.328	13.107	13.554
ProbeTrack15	3	ProbeTrack	15.0	SCS215b	20120202.164029	20120202.164411	8	0.013328	60	10	60-180	60	172	GapExp	Blank	0	32	2	3	0	distractor	1	406	797	228707	13.328	3.280	20.460
ProbeTrack15	3	ProbeTrack	15.0	SCS215b	20120202.164029	20120202.164422	8	0.013328	60	10	60-180	60	86	GapExp	Blank	0	33	2	30	0	distractor	1	403	799	229506	13.328	13.250	13.413
ProbeTrack15	3	ProbeTrack	15.0	SCS215b	20120202.164029	20120202.164429	8	0.013328	60	10	60-180	60	173	GapExp	Blank	0	34	2	0	1	distractor	0	748	-1000	228506	13.328	11.150	15.509
ProbeTrack15	3	ProbeTrack	15.0	SCS215b	20120202.164029	20120202.164436	8	0.013328	60	10	60-180	60	157	GapExp	Blank	0	35	2	3	1	target	1	461	770	229276	13.328	10.942	15.733
ProbeTrack15	3	ProbeTrack	15.0	SCS215b	20120202.164029	20120202.164445	8	0.013328	60	10	60-180	60	138	GapExp	Blank	0	36	2	1	0	distractor	1	957	522	229798	13.328	12.614	14.042
ProbeTrack15	3	ProbeTrack	15.0	SCS215b	20120202.164029	20120202.164452	8	0.013328	60	10	60-180	60	79	GapExp	Blank	0	37	2	3	0	distractor	1	574	713	230511	13.328	8.833	17.819
ProbeTrack15	3	ProbeTrack	15.0	SCS215b	20120202.164029	20120202.164501	8	0.013328	60	10	60-180	60	69	GapExp	Blank	0	38	2	1	0	distractor	1	493	754	231265	13.328	11.385	13.348
ProbeTrack15	3	ProbeTrack	15.0	SCS215b	20120202.164029	20120202.164507	8	0.013328	60	10	60-180	60	110	GapExp	Blank	0	39	2	30	1	target	1	470	765	232030	13.328	13.104	13.567
ProbeTrack15	3	ProbeTrack	15.0	SCS215b	20120202.164029	20120202.164513	8	0.013328	60	10	60-180	60	143	GapExp	Blank	0	40	2	30	1	target	1	484	758	232788	13.328	10.947	15.706
ProbeTrack15	3	ProbeTrack	15.0	SCS215b	20120202.164029	20120202.164521	8	0.013328	60	10	60-180	60	83	GapExp	Blank	0	41	2	0	0	distractor	1	499	751	233539	13.328	11.836	14.827
ProbeTrack15	3	ProbeTrack	15.0	SCS215b	20120202.164029	20120202.164538	8	0.013328	60	10	60-180	60	146	GapExp	Blank	0	42	2	3	1	distractor	0	455	-1000	232539	13.328	13.155	13.499
ProbeTrack15	3	ProbeTrack	15.0	SCS215b	20120202.164029	20120202.164545	8	0.013328	60	10	60-180	60	163	GapExp	Blank	0	43	2	3	0	distractor	1	717	642	233181	13.328	13.309	13.356
ProbeTrack15	3	ProbeTrack	15.0	SCS215b	20120202.164029	20120202.164558	8	0.013328	60	10	60-180	60	92	GapExp	Blank	0	44	2	0	0	distractor	1	481	760	233941	13.328	13.310	13.347
ProbeTrack15	3	ProbeTrack	15.0	SCS215b	20120202.164029	20120202.164604	8	0.013328	60	10	60-180	60	63	GapExp	Blank	0	45	2	30	1	target	1	451	775	234716	13.328	7.167	19.482
ProbeTrack15	3	ProbeTrack	15.0	SCS215b	20120202.164029	20120202.164610	8	0.013328	60	10	60-180	60	113	GapExp	Blank	0	46	2	0	0	distractor	1	461	770	235486	13.328	6.771	19.898
ProbeTrack15	3	ProbeTrack	15.0	SCS215b	20120202.164029	20120202.164616	8	0.013328	60	10	60-180	60	155	GapExp	Blank	0	47	2	30	0	distractor	1	538	731	236217	13.328	13.096	13.558
ProbeTrack15	3	ProbeTrack	15.0	SCS215b	20120202.164029	20120202.164623	8	0.013328	60	10	60-180	60	132	GapExp	Blank	0	48	2	30	1	target	1	423	789	237006	13.328	13.104	13.549
ProbeTrack15	3	ProbeTrack	15.0	SCS215b	20120202.164029	20120202.164629	8	0.013328	60	10	60-180	60	83	GapExp	Blank	0	49	2	1	1	target	1	423	789	237795	13.328	13.301	13.350
ProbeTrack15	3	ProbeTrack	15.0	SCS215b	20120202.164029	20120202.164634	8	0.013328	60	10	60-180	60	123	GapExp	Blank	0	50	2	3	0	distractor	1	403	799	238594	13.328	13.234	13.438
ProbeTrack15	3	ProbeTrack	15.0	SCS215b	20120202.164029	20120202.164641	8	0.013328	60	10	60-180	60	135	GapExp	Blank	0	51	2	3	1	distractor	0	398	-1000	237594	13.328	13.306	13.349
ProbeTrack15	3	ProbeTrack	15.0	SCS215b	20120202.164029	20120202.164647	8	0.013328	60	10	60-180	60	120	GapExp	Blank	0	52	2	0	0	distractor	1	557	722	238316	13.328	10.564	16.090
ProbeTrack15	3	ProbeTrack	15.0	SCS215b	20120202.164029	20120202.164655	8	0.013328	60	10	60-180	60	84	GapExp	Blank	0	53	2	30	1	target	1	317	842	239158	13.328	13.204	13.478
ProbeTrack15	3	ProbeTrack	15.0	SCS215b	20120202.164029	20120202.164700	8	0.013328	60	10	60-180	60	157	GapExp	Blank	0	54	2	1	1	target	1	540	730	239888	13.328	11.274	15.376
ProbeTrack15	3	ProbeTrack	15.0	SCS215b	20120202.164029	20120202.164707	8	0.013328	60	10	60-180	60	83	GapExp	Blank	0	55	2	3	1	distractor	0	411	-1000	238888	13.328	12.976	13.675
ProbeTrack15	3	ProbeTrack	15.0	SCS215b	20120202.164029	20120202.164713	8	0.013328	60	10	60-180	60	179	GapExp	Blank	0	56	2	30	1	target	1	380	810	239698	13.328	13.102	13.566
ProbeTrack15	3	ProbeTrack	15.0	SCS215b	20120202.164029	20120202.164720	8	0.013328	60	10	60-180	60	178	GapExp	Blank	0	57	2	3	0	distractor	1	451	775	240473	13.328	13.101	13.571
ProbeTrack15	3	ProbeTrack	15.0	SCS215b	20120202.164029	20120202.164727	8	0.013328	60	10	60-180	60	100	GapExp	Blank	0	58	2	3	1	target	1	408	796	241269	13.328	13.106	13.550
ProbeTrack15	3	ProbeTrack	15.0	SCS215b	20120202.164029	20120202.164733	8	0.013328	60	10	60-180	60	154	GapExp	Blank	0	59	2	3	0	distractor	1	561	720	241989	13.328	7.086	19.565
ProbeTrack15	3	ProbeTrack	15.0	SCS215b	20120202.164029	20120202.164739	8	0.013328	60	10	60-180	60	162	GapExp	Blank	0	60	2	0	1	target	1	501	750	242739	13.328	13.309	13.349
ProbeTrack15	3	ProbeTrack	15.0	SCS215b	20120202.164029	20120202.164747	8	0.013328	60	10	60-180	60	156	GapExp	Blank	0	61	2	3	1	target	1	448	776	243515	13.328	13.103	13.569
ProbeTrack15	3	ProbeTrack	15.0	SCS215b	20120202.164029	20120202.164753	8	0.013328	60	10	60-180	60	171	GapExp	Blank	0	62	2	1	0	target	0	404	-1000	242515	13.420	13.101	26.648
ProbeTrack15	3	ProbeTrack	15.0	SCS215b	20120202.164029	20120202.164759	8	0.013328	60	10	60-180	60	170	GapExp	Blank	0	63	2	0	1	target	1	632	684	243199	13.328	13.102	13.550
ProbeTrack15	3	ProbeTrack	15.0	SCS215b	20120202.164029	20120202.164809	8	0.013328	60	10	60-180	60	111	GapExp	Blank	0	64	2	30	1	target	1	645	678	243877	13.328	10.189	16.482
ProbeTrack15	3	ProbeTrack	15.0	SCS215b	20120202.164029	20120202.164815	8	0.013328	60	10	60-180	60	130	GapExp	Blank	0	65	2	0	0	distractor	1	790	605	244482	13.328	13.303	13.355
ProbeTrack15	3	ProbeTrack	15.0	SCS215b	20120202.164029	20120202.164823	8	0.013328	60	10	60-180	60	97	GapExp	Blank	0	66	2	3	0	distractor	1	691	655	245137	13.328	13.301	13.352
ProbeTrack15	3	ProbeTrack	15.0	SCS215b	20120202.164029	20120202.164832	8	0.013328	60	10	60-180	60	161	GapExp	Blank	0	67	2	1	0	distractor	1	508	746	245883	13.328	13.290	13.352
ProbeTrack15	3	ProbeTrack	15.0	SCS215b	20120202.164029	20120202.164839	8	0.013328	60	10	60-180	60	89	GapExp	Blank	0	68	2	1	0	distractor	1	982	509	246392	13.328	13.133	13.531
ProbeTrack15	3	ProbeTrack	15.0	SCS215b	20120202.164029	20120202.164845	8	0.013328	60	10	60-180	60	170	GapExp	Blank	0	69	2	30	0	distractor	1	829	586	246978	13.328	13.308	13.349
ProbeTrack15	3	ProbeTrack	15.0	SCS215b	20120202.164029	20120202.164853	8	0.013328	60	10	60-180	60	114	GapExp	Blank	0	70	2	1	0	distractor	1	567	717	247695	13.328	13.309	13.348
ProbeTrack15	3	ProbeTrack	15.0	SCS215b	20120202.164029	20120202.164900	8	0.013328	60	10	60-180	60	120	GapExp	Blank	0	71	2	3	1	target	1	526	737	248432	13.328	13.310	13.348
ProbeTrack15	3	ProbeTrack	15.0	SCS215b	20120202.164029	20120202.164906	8	0.013328	60	10	60-180	60	110	GapExp	Blank	0	72	2	0	0	distractor	1	571	715	249147	13.328	13.308	13.349
ProbeTrack15	3	ProbeTrack	15.0	SCS215b	20120202.164029	20120202.164912	8	0.013328	60	10	60-180	60	97	GapExp	Blank	0	73	2	1	0	distractor	1	705	648	249795	13.328	12.185	14.467
ProbeTrack15	3	ProbeTrack	15.0	SCS215b	20120202.164029	20120202.164918	8	0.013328	60	10	60-180	60	134	GapExp	Blank	0	74	2	30	0	distractor	1	554	723	250518	13.328	13.101	13.551
ProbeTrack15	3	ProbeTrack	15.0	SCS215b	20120202.164029	20120202.164925	8	0.013328	60	10	60-180	60	137	GapExp	Blank	0	75	2	1	0	distractor	1	407	797	251315	13.328	13.306	13.351
ProbeTrack15	3	ProbeTrack	15.0	SCS215b	20120202.164029	20120202.164932	8	0.013328	60	10	60-180	60	168	GapExp	Blank	0	76	2	1	0	distractor	1	498	751	252066	13.328	12.399	14.252
ProbeTrack15	3	ProbeTrack	15.0	SCS215b	20120202.164029	20120202.164938	8	0.013328	60	10	60-180	60	140	GapExp	Blank	0	77	2	3	1	target	1	715	643	252709	13.328	13.100	13.553
ProbeTrack15	3	ProbeTrack	15.0	SCS215b	20120202.164029	20120202.164945	8	0.013328	60	10	60-180	60	158	GapExp	Blank	0	78	2	0	1	target	1	480	760	253469	13.328	13.103	13.549
ProbeTrack15	3	ProbeTrack	15.0	SCS215b	20120202.164029	20120202.164951	8	0.013328	60	10	60-180	60	91	GapExp	Blank	0	79	2	0	0	distractor	1	673	664	254133	13.328	8.893	17.752
ProbeTrack15	3	ProbeTrack	15.0	SCS215b	20120202.164029	20120202.164957	8	0.013328	60	10	60-180	60	123	GapExp	Blank	0	80	2	0	1	target	1	520	740	254873	13.328	13.305	13.354
ProbeTrack15	3	ProbeTrack	15.0	SCS215b	20120202.164029	20120202.165005	8	0.013328	60	10	60-180	60	98	GapExp	Blank	0	81	2	0	0	distractor	1	604	698	255571	13.328	13.103	13.550
ProbeTrack15	3	ProbeTrack	15.0	SCS215b	20120202.164029	20120202.165014	8	0.013328	60	10	60-180	60	96	GapExp	Blank	0	82	2	0	0	distractor	1	507	747	256318	13.328	13.312	13.347
ProbeTrack15	3	ProbeTrack	15.0	SCS215b	20120202.164029	20120202.165031	8	0.013328	60	10	60-180	60	99	GapExp	Blank	0	83	2	1	1	target	1	737	632	256950	13.328	10.663	15.990
ProbeTrack15	3	ProbeTrack	15.0	SCS215b	20120202.164029	20120202.165041	8	0.013328	60	10	60-180	60	72	GapExp	Blank	0	84	2	3	1	target	1	511	745	257695	13.328	13.126	13.548
ProbeTrack15	3	ProbeTrack	15.0	SCS215b	20120202.164029	20120202.165046	8	0.013328	60	10	60-180	60	127	GapExp	Blank	0	85	2	1	1	target	1	975	513	258208	13.328	13.306	13.357
ProbeTrack15	3	ProbeTrack	15.0	SCS215b	20120202.164029	20120202.165052	8	0.013328	60	10	60-180	60	78	GapExp	Blank	0	86	2	30	0	distractor	1	367	817	259025	13.328	12.687	13.966
ProbeTrack15	3	ProbeTrack	15.0	SCS215b	20120202.164029	20120202.165058	8	0.013328	60	10	60-180	60	77	GapExp	Blank	0	87	2	0	1	target	1	1306	347	259372	13.328	13.114	13.540
ProbeTrack15	3	ProbeTrack	15.0	SCS215b	20120202.164029	20120202.165104	8	0.013328	60	10	60-180	60	146	GapExp	Blank	0	88	2	3	1	distractor	0	219	-1000	258372	13.328	13.222	13.450
ProbeTrack15	3	ProbeTrack	15.0	SCS215b	20120202.164029	20120202.165112	8	0.013328	60	10	60-180	60	128	GapExp	Blank	0	89	2	3	0	distractor	1	608	696	259068	13.328	12.467	14.190
ProbeTrack15	3	ProbeTrack	15.0	SCS215b	20120202.164029	20120202.165120	8	0.013328	60	10	60-180	60	90	GapExp	Blank	0	90	2	3	0	distractor	1	668	666	259734	13.328	12.748	13.922
ProbeTrack15	3	ProbeTrack	15.0	SCS215b	20120202.164029	20120202.165126	8	0.013328	60	10	60-180	60	149	GapExp	Blank	0	91	2	1	1	target	1	436	782	260516	13.328	11.635	15.023
ProbeTrack15	3	ProbeTrack	15.0	SCS215b	20120202.164029	20120202.165132	8	0.013328	60	10	60-180	60	79	GapExp	Blank	0	92	2	0	1	target	1	1281	360	260876	13.328	13.305	13.347
ProbeTrack15	3	ProbeTrack	15.0	SCS215b	20120202.164029	20120202.165140	8	0.013328	60	10	60-180	60	160	GapExp	Blank	0	93	2	0	1	target	1	504	748	261624	13.328	13.313	13.347
ProbeTrack15	3	ProbeTrack	15.0	SCS215b	20120202.164029	20120202.165147	8	0.013328	60	10	60-180	60	83	GapExp	Blank	0	94	2	1	0	distractor	1	711	645	262269	13.328	9.878	16.769
ProbeTrack15	3	ProbeTrack	15.0	SCS215b	20120202.164029	20120202.165153	8	0.013328	60	10	60-180	60	79	GapExp	Blank	0	95	2	30	0	distractor	1	727	637	262906	13.328	6.849	19.802
ProbeTrack15	3	ProbeTrack	15.0	SCS215b	20120202.164029	20120202.165200	8	0.013328	60	10	60-180	60	123	GapExp	Blank	0	96	2	0	0	distractor	1	1028	486	263392	13.328	13.102	13.551
ProbeTrack15	3	ProbeTrack	15.0	SCS215b	20120202.164029	20120202.165207	8	0.013328	60	10	60-180	60	110	GapExp	Blank	0	97	2	1	1	target	1	566	717	264109	13.328	9.267	17.381
ProbeTrack15	3	ProbeTrack	15.0	SCS215b	20120202.164029	20120202.165213	8	0.013328	60	10	60-180	60	61	GapExp	Blank	0	98	2	30	0	distractor	1	368	816	264925	13.328	13.104	13.547
ProbeTrack15	3	ProbeTrack	15.0	SCS215b	20120202.164029	20120202.165218	8	0.013328	60	10	60-180	60	112	GapExp	Blank	0	99	2	1	0	distractor	1	495	753	265678	13.328	9.894	16.753
ProbeTrack15	3	ProbeTrack	15.0	SCS215b	20120202.164029	20120202.165224	8	0.013328	60	10	60-180	60	79	GapExp	Blank	0	100	2	1	1	target	1	749	626	266304	13.328	7.306	19.343
ProbeTrack15	3	ProbeTrack	15.0	SCS215b	20120202.164029	20120202.165230	8	0.013328	60	10	60-180	60	126	GapExp	Blank	0	101	2	30	0	distractor	1	553	724	267028	13.328	6.933	19.724
ProbeTrack15	3	ProbeTrack	15.0	SCS215b	20120202.164029	20120202.165236	8	0.013328	60	10	60-180	60	138	GapExp	Blank	0	102	2	30	1	target	1	484	758	267786	13.328	13.293	13.355
ProbeTrack15	3	ProbeTrack	15.0	SCS215b	20120202.164029	20120202.165301	8	0.013328	60	10	60-180	60	66	GapExp	Blank	0	103	2	0	0	distractor	1	607	697	268483	13.328	13.104	13.548
ProbeTrack15	3	ProbeTrack	15.0	SCS215b	20120202.164029	20120202.165307	8	0.013328	60	10	60-180	60	121	GapExp	Blank	0	104	2	30	1	distractor	0	1856	-1000	267483	13.328	10.690	15.965
ProbeTrack15	3	ProbeTrack	15.0	SCS215b	20120202.164029	20120202.165315	8	0.013328	60	10	60-180	60	146	GapExp	Blank	0	105	2	30	0	distractor	1	509	746	268229	13.328	10.363	16.299
ProbeTrack15	3	ProbeTrack	15.0	SCS215b	20120202.164029	20120202.165325	8	0.013328	60	10	60-180	60	100	GapExp	Blank	0	106	2	30	1	distractor	0	706	-1000	267229	13.328	13.293	13.371
ProbeTrack15	3	ProbeTrack	15.0	SCS215b	20120202.164029	20120202.165332	8	0.013328	60	10	60-180	60	180	GapExp	Blank	0	107	2	30	0	distractor	1	714	643	267872	13.328	12.790	13.904
ProbeTrack15	3	ProbeTrack	15.0	SCS215b	20120202.164029	20120202.165340	8	0.013328	60	10	60-180	60	145	GapExp	Blank	0	108	2	0	1	target	1	551	725	268597	13.328	13.273	13.379
ProbeTrack15	3	ProbeTrack	15.0	SCS215b	20120202.164029	20120202.165347	8	0.013328	60	10	60-180	60	115	GapExp	Blank	0	109	2	1	1	target	1	390	805	269402	13.328	12.689	13.970
ProbeTrack15	3	ProbeTrack	15.0	SCS215b	20120202.164029	20120202.165354	8	0.013328	60	10	60-180	60	85	GapExp	Blank	0	110	2	3	1	target	1	575	713	270115	13.328	7.890	18.776
ProbeTrack15	3	ProbeTrack	15.0	SCS215b	20120202.164029	20120202.165359	8	0.013328	60	10	60-180	60	62	GapExp	Blank	0	111	2	30	0	distractor	1	344	828	270943	13.328	13.118	13.549
ProbeTrack15	3	ProbeTrack	15.0	SCS215b	20120202.164029	20120202.165405	8	0.013328	60	10	60-180	60	67	GapExp	Blank	0	112	2	3	0	distractor	1	405	798	271741	13.328	13.294	13.364
ProbeTrack15	3	ProbeTrack	15.0	SCS215b	20120202.164029	20120202.165411	8	0.013328	60	10	60-180	60	108	GapExp	Blank	0	113	2	3	1	target	1	760	620	272361	13.328	11.381	15.274
ProbeTrack15	3	ProbeTrack	15.0	SCS215b	20120202.164029	20120202.165418	8	0.013328	60	10	60-180	60	180	GapExp	Blank	0	114	2	30	1	target	1	403	799	273160	13.328	10.335	16.322
ProbeTrack15	3	ProbeTrack	15.0	SCS215b	20120202.164029	20120202.165425	8	0.013328	60	10	60-180	60	147	GapExp	Blank	0	115	2	3	1	target	1	431	785	273945	13.328	13.108	13.544
ProbeTrack15	3	ProbeTrack	15.0	SCS215b	20120202.164029	20120202.165431	8	0.013328	60	10	60-180	60	167	GapExp	Blank	0	116	2	1	1	target	1	455	773	274718	13.328	13.099	13.556
ProbeTrack15	3	ProbeTrack	15.0	SCS215b	20120202.164029	20120202.165439	8	0.013328	60	10	60-180	60	168	GapExp	Blank	0	117	2	1	0	distractor	1	525	738	275456	13.328	13.276	13.374
ProbeTrack15	3	ProbeTrack	15.0	SCS215b	20120202.164029	20120202.165445	8	0.013328	60	10	60-180	60	110	GapExp	Blank	0	118	2	1	1	target	1	614	693	276149	13.328	13.108	13.549
ProbeTrack15	3	ProbeTrack	15.0	SCS215b	20120202.164029	20120202.165452	8	0.013328	60	10	60-180	60	179	GapExp	Blank	0	119	2	30	1	target	1	539	731	276880	13.328	12.411	14.252
ProbeTrack15	3	ProbeTrack	15.0	SCS215b	20120202.164029	20120202.165500	8	0.013328	60	10	60-180	60	127	GapExp	Blank	0	120	2	30	0	distractor	1	685	658	277538	13.328	13.100	13.553
ProbeTrack15	3	ProbeTrack	15.0	SCS215b	20120202.164029	20120202.165507	8	0.013328	60	10	60-180	60	101	GapExp	Blank	0	121	2	1	0	distractor	1	626	687	278225	13.328	13.107	13.549
ProbeTrack15	3	ProbeTrack	15.0	SCS215b	20120202.164029	20120202.165513	8	0.013328	60	10	60-180	60	100	GapExp	Blank	0	122	2	1	0	distractor	1	391	805	279030	13.328	13.285	13.370
ProbeTrack15	3	ProbeTrack	15.0	SCS215b	20120202.164029	20120202.165519	8	0.013328	60	10	60-180	60	76	GapExp	Blank	0	123	2	30	1	target	1	398	801	279831	13.328	13.278	13.362
ProbeTrack15	3	ProbeTrack	15.0	SCS215b	20120202.164029	20120202.165524	8	0.013328	60	10	60-180	60	176	GapExp	Blank	0	124	2	3	0	distractor	1	432	784	280615	13.328	13.273	13.384
ProbeTrack15	3	ProbeTrack	15.0	SCS215b	20120202.164029	20120202.165531	8	0.013328	60	10	60-180	60	140	GapExp	Blank	0	125	2	3	1	target	1	522	739	281354	13.328	6.646	20.013
ProbeTrack15	3	ProbeTrack	15.0	SCS215b	20120202.164029	20120202.165537	8	0.013328	60	10	60-180	60	124	GapExp	Blank	0	126	2	3	0	distractor	1	557	722	282076	13.328	13.146	13.495
ProbeTrack15	3	ProbeTrack	15.0	SCS215b	20120202.164029	20120202.165545	8	0.013328	60	10	60-180	60	105	GapExp	Blank	0	127	2	1	1	target	1	553	724	282800	13.328	13.288	13.367
ProbeTrack15	3	ProbeTrack	15.0	SCS215b	20120202.164029	20120202.165552	8	0.013328	60	10	60-180	60	168	GapExp	Blank	0	128	2	3	0	distractor	1	408	796	283596	13.328	11.020	15.645
ProbeTrack15	3	ProbeTrack	15.0	SCS215b	20120202.164029	20120202.165559	8	0.013328	60	10	60-180	60	114	GapExp	Blank	0	129	2	1	0	distractor	1	333	834	284430	13.328	10.434	16.234
ProbeTrack15	3	ProbeTrack	15.0	SCS215b	20120202.164029	20120202.165604	8	0.013328	60	10	60-180	60	144	GapExp	Blank	0	130	2	3	0	distractor	1	321	840	285270	13.328	13.120	13.552
ProbeTrack15	3	ProbeTrack	15.0	SCS215b	20120202.164029	20120202.165611	8	0.013328	60	10	60-180	60	133	GapExp	Blank	0	131	2	1	0	distractor	1	329	836	286106	13.328	13.108	13.548
ProbeTrack15	3	ProbeTrack	15.0	SCS215b	20120202.164029	20120202.165617	8	0.013328	60	10	60-180	60	165	GapExp	Blank	0	132	2	1	1	target	1	455	773	286879	13.328	11.094	15.568
ProbeTrack15	3	ProbeTrack	15.0	SCS215b	20120202.164029	20120202.165623	8	0.013328	60	10	60-180	60	65	GapExp	Blank	0	133	2	30	1	distractor	0	1258	-1000	285879	13.328	11.778	14.889
ProbeTrack15	3	ProbeTrack	15.0	SCS215b	20120202.164029	20120202.165630	8	0.013328	60	10	60-180	60	90	GapExp	Blank	0	134	2	3	0	distractor	1	449	776	286655	13.328	13.222	13.434
ProbeTrack15	3	ProbeTrack	15.0	SCS215b	20120202.164029	20120202.165636	8	0.013328	60	10	60-180	60	89	GapExp	Blank	0	135	2	0	1	target	1	592	704	287359	13.328	13.269	13.387
ProbeTrack15	3	ProbeTrack	15.0	SCS215b	20120202.164029	20120202.165641	8	0.013328	60	10	60-180	60	63	GapExp	Blank	0	136	2	0	0	distractor	1	455	773	288132	13.328	13.274	13.386
ProbeTrack15	3	ProbeTrack	15.0	SCS215b	20120202.164029	20120202.165646	8	0.013328	60	10	60-180	60	77	GapExp	Blank	0	137	2	1	1	target	1	445	778	288910	13.328	7.368	19.297
ProbeTrack15	3	ProbeTrack	15.0	SCS215b	20120202.164029	20120202.165652	8	0.013328	60	10	60-180	60	106	GapExp	Blank	0	138	2	3	0	distractor	1	399	801	289711	13.328	9.527	17.139
ProbeTrack15	3	ProbeTrack	15.0	SCS215b	20120202.164029	20120202.165658	8	0.013328	60	10	60-180	60	105	GapExp	Blank	0	139	2	0	0	distractor	1	736	632	290343	13.328	13.260	13.378
ProbeTrack15	3	ProbeTrack	15.0	SCS215b	20120202.164029	20120202.165703	8	0.013328	60	10	60-180	60	124	GapExp	Blank	0	140	2	3	0	distractor	1	468	766	291109	13.381	3.719	29.727
ProbeTrack15	3	ProbeTrack	15.0	SCS215b	20120202.164029	20120202.165710	8	0.013328	60	10	60-180	60	72	GapExp	Blank	0	141	2	30	1	target	1	382	809	291918	13.328	11.930	14.743
ProbeTrack15	3	ProbeTrack	15.0	SCS215b	20120202.164029	20120202.165715	8	0.013328	60	10	60-180	60	165	GapExp	Blank	0	142	2	0	1	target	1	577	712	292630	13.328	13.108	13.548
ProbeTrack15	3	ProbeTrack	15.0	SCS215b	20120202.164029	20120202.165722	8	0.013328	60	10	60-180	60	154	GapExp	Blank	0	143	2	30	0	distractor	1	390	805	293435	13.328	11.186	15.491
ProbeTrack15	3	ProbeTrack	15.0	SCS215b	20120202.164029	20120202.165729	8	0.013328	60	10	60-180	60	167	GapExp	Blank	0	144	2	30	1	target	1	454	773	294208	13.328	13.098	13.557
ProbeTrack15	3	ProbeTrack	15.0	SCS215b	20120202.164029	20120202.165736	8	0.013328	60	10	60-180	60	108	GapExp	Blank	0	145	2	0	0	distractor	1	1504	248	294456	13.328	13.115	13.547
ProbeTrack15	3	ProbeTrack	15.0	SCS215b	20120202.164029	20120202.165743	8	0.013328	60	10	60-180	60	63	GapExp	Blank	0	146	2	30	1	target	1	373	814	295270	13.328	6.630	20.039
ProbeTrack15	3	ProbeTrack	15.0	SCS215b	20120202.164029	20120202.165748	8	0.013328	60	10	60-180	60	98	GapExp	Blank	0	147	2	0	1	target	1	465	768	296038	13.328	8.875	17.792
ProbeTrack15	3	ProbeTrack	15.0	SCS215b	20120202.164029	20120202.165754	8	0.013328	60	10	60-180	60	82	GapExp	Blank	0	148	2	3	1	target	1	317	842	296880	13.328	13.297	13.363
ProbeTrack15	3	ProbeTrack	15.0	SCS215b	20120202.164029	20120202.165800	8	0.013328	60	10	60-180	60	145	GapExp	Blank	0	149	2	0	0	distractor	1	421	790	297670	13.328	12.865	13.796
ProbeTrack15	3	ProbeTrack	15.0	SCS215b	20120202.164029	20120202.165806	8	0.013328	60	10	60-180	60	135	GapExp	Blank	0	150	2	3	1	target	1	417	792	298462	13.328	9.437	13.440
ProbeTrack15	3	ProbeTrack	15.0	SCS215b	20120202.164029	20120202.165813	8	0.013328	60	10	60-180	60	127	GapExp	Blank	0	151	2	30	1	target	1	370	815	299277	13.328	11.878	14.745
ProbeTrack15	3	ProbeTrack	15.0	SCS215b	20120202.164029	20120202.165819	8	0.013328	60	10	60-180	60	91	GapExp	Blank	0	152	2	1	0	distractor	1	445	778	300055	13.328	13.271	13.387
ProbeTrack15	3	ProbeTrack	15.0	SCS215b	20120202.164029	20120202.165825	8	0.013328	60	10	60-180	60	150	GapExp	Blank	0	153	2	3	0	distractor	1	364	818	300873	13.328	13.100	13.556
ProbeTrack15	3	ProbeTrack	15.0	SCS215b	20120202.164029	20120202.165832	8	0.013328	60	10	60-180	60	170	GapExp	Blank	0	154	2	30	0	distractor	1	348	826	301699	13.328	11.876	14.786
ProbeTrack15	3	ProbeTrack	15.0	SCS215b	20120202.164029	20120202.165839	8	0.013328	60	10	60-180	60	97	GapExp	Blank	0	155	2	1	1	target	1	500	750	302449	13.328	13.285	13.375
ProbeTrack15	3	ProbeTrack	15.0	SCS215b	20120202.164029	20120202.165844	8	0.013328	60	10	60-180	60	180	GapExp	Blank	0	156	2	0	0	distractor	1	415	793	303242	13.328	13.099	13.555
ProbeTrack15	3	ProbeTrack	15.0	SCS215b	20120202.164029	20120202.165851	8	0.013328	60	10	60-180	60	117	GapExp	Blank	0	157	2	1	1	target	1	626	687	303929	13.328	12.546	14.133
ProbeTrack15	3	ProbeTrack	15.0	SCS215b	20120202.164029	20120202.165857	8	0.013328	60	10	60-180	60	132	GapExp	Blank	0	158	2	30	0	distractor	1	316	842	304771	13.328	13.098	13.557
ProbeTrack15	3	ProbeTrack	15.0	SCS215b	20120202.164029	20120202.165904	8	0.013328	60	10	60-180	60	149	GapExp	Blank	0	159	2	1	0	distractor	1	348	826	305597	13.328	11.128	15.532
ProbeTrack15	3	ProbeTrack	15.0	SCS215b	20120202.164029	20120202.165910	8	0.013328	60	10	60-180	60	151	GapExp	Blank	0	160	2	3	0	distractor	1	310	845	306442	13.328	12.653	14.018
ProbeTrack15	3	ProbeTrack	15.0	SCS215b	20120202.164029	20120202.165916	8	0.013328	60	10	60-180	60	129	GapExp	Blank	0	161	2	1	0	distractor	1	604	698	307140	13.328	11.430	15.234
ProbeTrack15	3	ProbeTrack	15.0	SCS215b	20120202.164029	20120202.165922	8	0.013328	60	10	60-180	60	151	GapExp	Blank	0	162	2	30	0	distractor	1	403	799	307939	13.328	8.422	18.244
ProbeTrack15	3	ProbeTrack	15.0	SCS215b	20120202.164029	20120202.165929	8	0.013328	60	10	60-180	60	120	GapExp	Blank	0	163	2	1	1	target	1	417	792	308731	13.328	13.281	13.376
ProbeTrack15	3	ProbeTrack	15.0	SCS215b	20120202.164029	20120202.165935	8	0.013328	60	10	60-180	60	75	GapExp	Blank	0	164	2	0	0	distractor	1	370	815	309546	13.328	13.103	13.556
ProbeTrack15	3	ProbeTrack	15.0	SCS215b	20120202.164029	20120202.165940	8	0.013328	60	10	60-180	60	110	GapExp	Blank	0	165	2	1	1	target	1	561	720	310266	13.328	13.112	13.538
ProbeTrack15	3	ProbeTrack	15.0	SCS215b	20120202.164029	20120202.165946	8	0.013328	60	10	60-180	60	151	GapExp	Blank	0	166	2	0	0	distractor	1	414	793	311059	13.328	13.263	13.392
ProbeTrack15	3	ProbeTrack	15.0	SCS215b	20120202.164029	20120202.165952	8	0.013328	60	10	60-180	60	96	GapExp	Blank	0	167	2	30	0	distractor	1	390	805	311864	13.328	13.303	13.372
ProbeTrack15	3	ProbeTrack	15.0	SCS215b	20120202.164029	20120202.165958	8	0.013328	60	10	60-180	60	122	GapExp	Blank	0	168	2	30	0	distractor	1	394	803	312667	13.328	10.460	16.205
ProbeTrack15	3	ProbeTrack	15.0	SCS215b	20120202.164029	20120202.170005	8	0.013328	60	10	60-180	60	66	GapExp	Blank	0	169	2	0	0	distractor	1	484	758	313425	13.328	6.869	19.773
ProbeTrack15	3	ProbeTrack	15.0	SCS215b	20120202.164029	20120202.170010	8	0.013328	60	10	60-180	60	154	GapExp	Blank	0	170	2	0	1	target	1	390	805	314230	13.328	13.111	13.548
ProbeTrack15	3	ProbeTrack	15.0	SCS215b	20120202.164029	20120202.170016	8	0.013328	60	10	60-180	60	82	GapExp	Blank	0	171	2	1	1	target	1	680	660	314890	13.328	13.110	13.555
ProbeTrack15	3	ProbeTrack	15.0	SCS215b	20120202.164029	20120202.170022	8	0.013328	60	10	60-180	60	92	GapExp	Blank	0	172	2	3	0	target	0	438	-1000	313890	13.328	13.275	13.387
ProbeTrack15	3	ProbeTrack	15.0	SCS215b	20120202.164029	20120202.170028	8	0.013328	60	10	60-180	60	70	GapExp	Blank	0	173	2	0	1	target	1	397	802	314692	13.328	13.133	13.528
ProbeTrack15	3	ProbeTrack	15.0	SCS215b	20120202.164029	20120202.170033	8	0.013328	60	10	60-180	60	90	GapExp	Blank	0	174	2	1	0	distractor	1	415	793	315485	13.328	12.148	14.504
ProbeTrack15	3	ProbeTrack	15.0	SCS215b	20120202.164029	20120202.170039	8	0.013328	60	10	60-180	60	91	GapExp	Blank	0	175	2	1	0	distractor	1	522	739	316224	13.328	13.084	13.578
ProbeTrack15	3	ProbeTrack	15.0	SCS215b	20120202.164029	20120202.170044	8	0.013328	60	10	60-180	60	120	GapExp	Blank	0	176	2	3	1	target	1	526	737	316961	13.328	7.688	18.979
ProbeTrack15	3	ProbeTrack	15.0	SCS215b	20120202.164029	20120202.170050	8	0.013328	60	10	60-180	60	61	GapExp	Blank	0	177	2	1	1	target	1	443	779	317740	13.328	13.205	13.456
ProbeTrack15	3	ProbeTrack	15.0	SCS215b	20120202.164029	20120202.170055	8	0.013328	60	10	60-180	60	66	GapExp	Blank	0	178	2	3	1	target	1	453	774	318514	13.328	8.104	18.565
ProbeTrack15	3	ProbeTrack	15.0	SCS215b	20120202.164029	20120202.170100	8	0.013328	60	10	60-180	60	99	GapExp	Blank	0	179	2	1	0	distractor	1	336	832	319346	13.328	12.321	14.394
ProbeTrack15	3	ProbeTrack	15.0	SCS215b	20120202.164029	20120202.170106	8	0.013328	60	10	60-180	60	112	GapExp	Blank	0	180	2	30	0	target	0	465	-1000	318346	13.328	13.102	13.556
ProbeTrack15	3	ProbeTrack	15.0	SCS215b	20120202.164029	20120202.170112	8	0.013328	60	10	60-180	60	112	GapExp	Blank	0	181	2	0	1	target	1	475	763	319109	13.328	11.190	15.465
ProbeTrack15	3	ProbeTrack	15.0	SCS215b	20120202.164029	20120202.170118	8	0.013328	60	10	60-180	60	64	GapExp	Blank	0	182	2	30	1	target	1	412	794	319903	13.328	13.275	13.377
ProbeTrack15	3	ProbeTrack	15.0	SCS215b	20120202.164029	20120202.170123	8	0.013328	60	10	60-180	60	129	GapExp	Blank	0	183	2	3	0	distractor	1	373	814	320717	13.328	10.211	16.440
ProbeTrack15	3	ProbeTrack	15.0	SCS215b	20120202.164029	20120202.170129	8	0.013328	60	10	60-180	60	82	GapExp	Blank	0	184	2	3	0	distractor	1	363	819	321536	13.328	12.764	13.900
ProbeTrack15	3	ProbeTrack	15.0	SCS215b	20120202.164029	20120202.170134	8	0.013328	60	10	60-180	60	114	GapExp	Blank	0	185	2	0	1	target	1	533	734	322270	13.439	9.934	26.634
ProbeTrack15	3	ProbeTrack	15.0	SCS215b	20120202.164029	20120202.170140	8	0.013328	60	10	60-180	60	104	GapExp	Blank	0	186	2	3	1	target	1	477	762	323032	13.328	10.465	16.204
ProbeTrack15	3	ProbeTrack	15.0	SCS215b	20120202.164029	20120202.170146	8	0.013328	60	10	60-180	60	174	GapExp	Blank	0	187	2	0	1	target	1	440	780	323812	13.328	12.882	13.793
ProbeTrack15	3	ProbeTrack	15.0	SCS215b	20120202.164029	20120202.170153	8	0.013328	60	10	60-180	60	135	GapExp	Blank	0	188	2	0	1	target	1	465	768	324580	13.328	13.099	13.558
ProbeTrack15	3	ProbeTrack	15.0	SCS215b	20120202.164029	20120202.170159	8	0.013328	60	10	60-180	60	86	GapExp	Blank	0	189	2	1	1	target	1	360	820	325400	13.328	13.268	13.389
ProbeTrack15	3	ProbeTrack	15.0	SCS215b	20120202.164029	20120202.170204	8	0.013328	60	10	60-180	60	104	GapExp	Blank	0	190	2	1	1	target	1	434	783	326183	13.328	11.838	14.823
ProbeTrack15	3	ProbeTrack	15.0	SCS215b	20120202.164029	20120202.170210	8	0.013328	60	10	60-180	60	175	GapExp	Blank	0	191	2	30	1	target	1	354	823	327006	13.328	10.566	16.103
ProbeTrack15	3	ProbeTrack	15.0	SCS215b	20120202.164029	20120202.170217	8	0.013328	60	10	60-180	60	61	GapExp	Blank	0	192	2	3	1	target	1	398	801	327807	13.328	13.274	13.386
ProbeTrack15	3	ProbeTrack	15.0	SCS215b	20120202.164029	20120202.170222	8	0.013328	60	10	60-180	60	131	GapExp	Blank	0	193	2	30	0	distractor	1	341	830	328637	13.328	13.104	13.557
ProbeTrack15	3	ProbeTrack	15.0	SCS215b	20120202.164029	20120202.170228	8	0.013328	60	10	60-180	60	176	GapExp	Blank	0	194	2	0	1	target	1	539	731	329368	13.328	10.887	15.773
ProbeTrack15	3	ProbeTrack	15.0	SCS215b	20120202.164029	20120202.170235	8	0.013328	60	10	60-180	60	144	GapExp	Blank	0	195	2	0	1	target	1	453	774	330142	13.328	13.098	13.548
ProbeTrack15	3	ProbeTrack	15.0	SCS215b	20120202.164029	20120202.170241	8	0.013328	60	10	60-180	60	80	GapExp	Blank	0	196	2	3	0	target	0	333	-1000	329142	13.328	12.828	13.864
ProbeTrack15	3	ProbeTrack	15.0	SCS215b	20120202.164029	20120202.170247	8	0.013328	60	10	60-180	60	80	GapExp	Blank	0	197	2	30	1	target	1	401	800	329942	13.328	13.310	13.350
ProbeTrack15	3	ProbeTrack	15.0	SCS215b	20120202.164029	20120202.170253	8	0.013328	60	10	60-180	60	83	GapExp	Blank	0	198	2	0	0	distractor	1	456	772	330714	13.328	9.128	17.527
ProbeTrack15	3	ProbeTrack	15.0	SCS215b	20120202.164029	20120202.170259	8	0.013328	60	10	60-180	60	139	GapExp	Blank	0	199	2	1	1	target	1	353	824	331538	13.328	8.205	18.450
ProbeTrack15	3	ProbeTrack	15.0	SCS215b	20120202.164029	20120202.170305	8	0.013328	60	10	60-180	60	86	GapExp	Blank	0	200	2	1	0	distractor	1	417	792	332330	13.328	13.107	13.542
ProbeTrack15	3	ProbeTrack	15.0	SCS215b	20120202.170354	20120202.170402	8	0.013328	60	10	60-180	60	83	GapPrac	BigFlash	1	1	2	1	0	distractor	1	818	591	332921	13.386	13.107	13.555
ProbeTrack15	3	ProbeTrack	15.0	SCS215b	20120202.170354	20120202.170412	8	0.013328	60	10	60-180	60	103	GapPrac	BigFlash	1	2	2	1	1	target	1	651	675	333596	13.328	11.547	15.104
ProbeTrack15	3	ProbeTrack	15.0	SCS215b	20120202.170354	20120202.170418	8	0.013328	60	10	60-180	60	140	GapPrac	BigFlash	1	3	2	0	1	target	1	566	717	334313	13.328	11.600	15.047
ProbeTrack15	3	ProbeTrack	15.0	SCS215b	20120202.170354	20120202.170424	8	0.013328	60	10	60-180	60	123	GapPrac	BigFlash	1	4	2	30	1	target	1	442	779	335092	13.342	12.555	17.111
ProbeTrack15	3	ProbeTrack	15.0	SCS215b	20120202.170354	20120202.170430	8	0.013328	60	10	60-180	60	112	GapPrac	BigFlash	1	5	2	30	0	distractor	1	567	717	335809	13.328	13.301	13.349
ProbeTrack15	3	ProbeTrack	15.0	SCS215b	20120202.170354	20120202.170436	8	0.013328	60	10	60-180	60	97	GapPrac	BigFlash	1	6	2	1	0	distractor	1	407	797	336606	13.328	13.102	13.551
ProbeTrack15	3	ProbeTrack	15.0	SCS215b	20120202.170354	20120202.170442	8	0.013328	60	10	60-180	60	121	GapPrac	BigFlash	1	7	2	1	1	target	1	561	720	337326	13.328	13.102	13.551
ProbeTrack15	3	ProbeTrack	15.0	SCS215b	20120202.170354	20120202.170448	8	0.013328	60	10	60-180	60	138	GapPrac	BigFlash	1	8	2	0	1	target	1	512	744	338070	13.328	10.169	16.481
ProbeTrack15	3	ProbeTrack	15.0	SCS215b	20120202.170354	20120202.170454	8	0.013328	60	10	60-180	60	84	GapPrac	BigFlash	1	9	2	0	1	target	1	423	789	338859	13.328	12.853	13.803
ProbeTrack15	3	ProbeTrack	15.0	SCS215b	20120202.170354	20120202.170500	8	0.013328	60	10	60-180	60	102	GapPrac	BigFlash	1	10	2	1	1	target	1	410	795	339654	13.328	13.308	13.347
ProbeTrack15	3	ProbeTrack	15.0	SCS215b	20120202.170354	20120202.170505	8	0.013328	60	10	60-180	60	119	GapPrac	BigFlash	1	11	2	0	0	distractor	1	447	777	340431	13.328	13.298	13.356
ProbeTrack15	3	ProbeTrack	15.0	SCS215b	20120202.170354	20120202.170511	8	0.013328	60	10	60-180	60	157	GapPrac	BigFlash	1	12	2	3	1	target	1	492	754	341185	13.328	13.103	13.550
ProbeTrack15	3	ProbeTrack	15.0	SCS215b	20120202.170354	20120202.170517	8	0.013328	60	10	60-180	60	86	GapPrac	BigFlash	1	13	2	1	0	distractor	1	406	797	341982	13.328	13.103	13.568
ProbeTrack15	3	ProbeTrack	15.0	SCS215b	20120202.170354	20120202.170523	8	0.013328	60	10	60-180	60	122	GapPrac	BigFlash	1	14	2	3	0	distractor	1	418	791	342773	13.328	13.103	13.550
ProbeTrack15	3	ProbeTrack	15.0	SCS215b	20120202.170354	20120202.170529	8	0.013328	60	10	60-180	60	171	GapPrac	BigFlash	1	15	2	0	0	distractor	1	469	766	343539	13.328	8.568	18.086
ProbeTrack15	3	ProbeTrack	15.0	SCS215b	20120202.170354	20120202.170536	8	0.013328	60	10	60-180	60	130	GapPrac	BigFlash	1	16	2	3	1	target	1	454	773	344312	13.328	13.245	13.399
ProbeTrack15	3	ProbeTrack	15.0	SCS215b	20120202.170354	20120202.170542	8	0.013328	60	10	60-180	60	109	GapPrac	BigFlash	1	17	2	30	1	target	1	286	857	345169	13.328	13.310	13.348
ProbeTrack15	3	ProbeTrack	15.0	SCS215b	20120202.170354	20120202.170548	8	0.013328	60	10	60-180	60	127	GapPrac	BigFlash	1	18	2	3	0	distractor	1	455	773	345942	13.328	8.657	18.015
ProbeTrack15	3	ProbeTrack	15.0	SCS215b	20120202.170354	20120202.170554	8	0.013328	60	10	60-180	60	159	GapPrac	BigFlash	1	19	2	30	0	distractor	1	355	823	346765	13.328	13.082	13.571
ProbeTrack15	3	ProbeTrack	15.0	SCS215b	20120202.170354	20120202.170600	8	0.013328	60	10	60-180	60	150	GapPrac	BigFlash	1	20	2	30	1	distractor	0	320	-1000	345765	13.328	13.104	13.550
ProbeTrack15	3	ProbeTrack	15.0	SCS215b	20120202.170656	20120202.170704	8	0.013328	60	10	60-180	60	98	GapExp	BigFlash	1	1	2	3	0	distractor	1	584	708	346473	13.386	10.505	16.155
ProbeTrack15	3	ProbeTrack	15.0	SCS215b	20120202.170656	20120202.170715	8	0.013328	60	10	60-180	60	168	GapExp	BigFlash	1	2	2	0	1	target	1	490	755	347228	13.328	13.095	13.556
ProbeTrack15	3	ProbeTrack	15.0	SCS215b	20120202.170656	20120202.170722	8	0.013328	60	10	60-180	60	88	GapExp	BigFlash	1	3	2	1	1	target	1	401	800	348028	13.328	8.187	18.464
ProbeTrack15	3	ProbeTrack	15.0	SCS215b	20120202.170656	20120202.170727	8	0.013328	60	10	60-180	60	63	GapExp	BigFlash	1	4	2	30	0	distractor	1	366	817	348845	13.328	8.615	18.057
ProbeTrack15	3	ProbeTrack	15.0	SCS215b	20120202.170656	20120202.170733	8	0.013328	60	10	60-180	60	97	GapExp	BigFlash	1	5	2	30	1	target	1	474	763	349608	13.349	8.187	18.627
ProbeTrack15	3	ProbeTrack	15.0	SCS215b	20120202.170656	20120202.170739	8	0.013328	60	10	60-180	60	112	GapExp	BigFlash	1	6	2	3	1	target	1	431	785	350393	13.328	13.310	13.347
ProbeTrack15	3	ProbeTrack	15.0	SCS215b	20120202.170656	20120202.170753	8	0.013328	60	10	60-180	60	111	GapExp	BigFlash	1	7	2	0	0	distractor	1	440	780	351173	13.328	11.939	14.716
ProbeTrack15	3	ProbeTrack	15.0	SCS215b	20120202.170656	20120202.170758	8	0.013328	60	10	60-180	60	67	GapExp	BigFlash	1	8	2	1	0	distractor	1	418	791	351964	13.328	12.347	14.306
ProbeTrack15	3	ProbeTrack	15.0	SCS215b	20120202.170656	20120202.170804	8	0.013328	60	10	60-180	60	163	GapExp	BigFlash	0	9	2	3	0	distractor	1	409	796	352760	13.328	4.686	21.974
ProbeTrack15	3	ProbeTrack	15.0	SCS215b	20120202.170656	20120202.170810	8	0.013328	60	10	60-180	60	87	GapExp	BigFlash	0	10	2	30	1	target	1	421	790	353550	13.328	13.309	13.353
ProbeTrack15	3	ProbeTrack	15.0	SCS215b	20120202.170656	20120202.170816	8	0.013328	60	10	60-180	60	113	GapExp	BigFlash	0	11	2	0	1	target	1	447	777	354327	13.328	13.305	13.353
ProbeTrack15	3	ProbeTrack	15.0	SCS215b	20120202.170656	20120202.170823	8	0.013328	60	10	60-180	60	88	GapExp	BigFlash	0	12	2	3	1	target	1	388	806	355133	13.328	12.602	14.050
ProbeTrack15	3	ProbeTrack	15.0	SCS215b	20120202.170656	20120202.170828	8	0.013328	60	10	60-180	60	104	GapExp	BigFlash	0	13	2	0	1	target	1	460	770	355903	13.328	13.106	13.548
ProbeTrack15	3	ProbeTrack	15.0	SCS215b	20120202.170656	20120202.170834	8	0.013328	60	10	60-180	60	122	GapExp	BigFlash	0	14	2	30	1	target	1	374	813	356716	13.328	13.103	13.551
ProbeTrack15	3	ProbeTrack	15.0	SCS215b	20120202.170656	20120202.170840	8	0.013328	60	10	60-180	60	78	GapExp	BigFlash	0	15	2	30	0	distractor	1	420	790	357506	13.328	11.017	15.647
ProbeTrack15	3	ProbeTrack	15.0	SCS215b	20120202.170656	20120202.170846	8	0.013328	60	10	60-180	60	125	GapExp	BigFlash	0	16	2	1	1	target	1	701	650	358156	13.328	13.100	13.550
ProbeTrack15	3	ProbeTrack	15.0	SCS215b	20120202.170656	20120202.170852	8	0.013328	60	10	60-180	60	138	GapExp	BigFlash	0	17	2	1	1	target	1	536	732	358888	13.328	9.987	16.664
ProbeTrack15	3	ProbeTrack	15.0	SCS215b	20120202.170656	20120202.170859	8	0.013328	60	10	60-180	60	135	GapExp	BigFlash	0	18	2	1	0	distractor	1	366	817	359705	13.328	13.103	13.549
ProbeTrack15	3	ProbeTrack	15.0	SCS215b	20120202.170656	20120202.170908	8	0.013328	60	10	60-180	60	81	GapExp	BigFlash	0	19	2	30	0	distractor	1	444	778	360483	13.328	13.101	13.550
ProbeTrack15	3	ProbeTrack	15.0	SCS215b	20120202.170656	20120202.170928	8	0.013328	60	10	60-180	60	174	GapExp	BigFlash	0	20	2	1	1	target	1	570	715	361198	13.318	10.382	14.588
ProbeTrack15	3	ProbeTrack	15.0	SCS215b	20120202.170656	20120202.170935	8	0.013328	60	10	60-180	60	157	GapExp	BigFlash	0	21	2	0	1	target	1	646	677	361875	13.328	13.308	13.348
ProbeTrack15	3	ProbeTrack	15.0	SCS215b	20120202.170656	20120202.170945	8	0.013328	60	10	60-180	60	167	GapExp	BigFlash	0	22	2	0	1	target	1	551	725	362600	13.328	13.311	13.348
ProbeTrack15	3	ProbeTrack	15.0	SCS215b	20120202.170656	20120202.170953	8	0.013328	60	10	60-180	60	69	GapExp	BigFlash	0	23	2	1	0	distractor	1	367	817	363417	13.328	13.103	13.548
ProbeTrack15	3	ProbeTrack	15.0	SCS215b	20120202.170656	20120202.171003	8	0.013328	60	10	60-180	60	176	GapExp	BigFlash	0	24	2	3	0	target	0	500	-1000	362417	13.328	9.907	16.750
ProbeTrack15	3	ProbeTrack	15.0	SCS215b	20120202.170656	20120202.171010	8	0.013328	60	10	60-180	60	126	GapExp	BigFlash	0	25	2	0	1	target	1	428	786	363203	13.328	12.575	14.070
ProbeTrack15	3	ProbeTrack	15.0	SCS215b	20120202.170656	20120202.171019	8	0.013328	60	10	60-180	60	147	GapExp	BigFlash	0	26	2	1	0	distractor	1	476	762	363965	13.328	7.015	19.641
ProbeTrack15	3	ProbeTrack	15.0	SCS215b	20120202.170656	20120202.171025	8	0.013328	60	10	60-180	60	102	GapExp	BigFlash	0	27	2	0	0	distractor	1	527	737	364702	13.328	13.098	13.553
ProbeTrack15	3	ProbeTrack	15.0	SCS215b	20120202.170656	20120202.171031	8	0.013328	60	10	60-180	60	94	GapExp	BigFlash	0	28	2	1	1	target	1	546	727	365429	13.328	13.310	13.351
ProbeTrack15	3	ProbeTrack	15.0	SCS215b	20120202.170656	20120202.171037	8	0.013328	60	10	60-180	60	173	GapExp	BigFlash	0	29	2	0	0	distractor	1	377	812	366241	13.328	13.307	13.358
ProbeTrack15	3	ProbeTrack	15.0	SCS215b	20120202.170656	20120202.171043	8	0.013328	60	10	60-180	60	177	GapExp	BigFlash	0	30	2	0	1	target	1	426	787	367028	13.328	8.783	17.886
ProbeTrack15	3	ProbeTrack	15.0	SCS215b	20120202.170656	20120202.171050	8	0.013328	60	10	60-180	60	72	GapExp	BigFlash	0	31	2	3	0	distractor	1	387	807	367835	13.328	6.724	19.931
ProbeTrack15	3	ProbeTrack	15.0	SCS215b	20120202.170656	20120202.171055	8	0.013328	60	10	60-180	60	102	GapExp	BigFlash	0	32	2	30	0	distractor	1	476	762	368597	13.328	13.303	13.350
ProbeTrack15	3	ProbeTrack	15.0	SCS215b	20120202.170656	20120202.171101	8	0.013328	60	10	60-180	60	89	GapExp	BigFlash	0	33	2	3	1	target	1	512	744	369341	13.328	12.668	13.985
ProbeTrack15	3	ProbeTrack	15.0	SCS215b	20120202.170656	20120202.171107	8	0.013328	60	10	60-180	60	95	GapExp	BigFlash	0	34	2	1	1	target	1	402	799	370140	13.328	6.151	20.495
ProbeTrack15	3	ProbeTrack	15.0	SCS215b	20120202.170656	20120202.171113	8	0.013328	60	10	60-180	60	148	GapExp	BigFlash	0	35	2	1	0	distractor	1	395	803	370943	13.328	13.089	13.563
ProbeTrack15	3	ProbeTrack	15.0	SCS215b	20120202.170656	20120202.171120	8	0.013328	60	10	60-180	60	116	GapExp	BigFlash	0	36	2	0	1	target	1	389	806	371749	13.328	8.991	17.663
ProbeTrack15	3	ProbeTrack	15.0	SCS215b	20120202.170656	20120202.171126	8	0.013328	60	10	60-180	60	61	GapExp	BigFlash	0	37	2	1	0	distractor	1	543	729	372478	13.328	13.309	13.353
ProbeTrack15	3	ProbeTrack	15.0	SCS215b	20120202.170656	20120202.171131	8	0.013328	60	10	60-180	60	104	GapExp	BigFlash	0	38	2	1	1	target	1	534	733	373211	13.328	8.793	17.861
ProbeTrack15	3	ProbeTrack	15.0	SCS215b	20120202.170656	20120202.171137	8	0.013328	60	10	60-180	60	152	GapExp	BigFlash	0	39	2	0	1	target	1	459	771	373982	13.328	13.308	13.350
ProbeTrack15	3	ProbeTrack	15.0	SCS215b	20120202.170656	20120202.171143	8	0.013328	60	10	60-180	60	168	GapExp	BigFlash	0	40	2	3	1	distractor	0	578	-1000	372982	13.328	13.093	13.558
ProbeTrack15	3	ProbeTrack	15.0	SCS215b	20120202.170656	20120202.171151	8	0.013328	60	10	60-180	60	127	GapExp	BigFlash	0	41	2	0	0	distractor	1	571	715	373697	13.328	13.314	13.352
ProbeTrack15	3	ProbeTrack	15.0	SCS215b	20120202.170656	20120202.171157	8	0.013328	60	10	60-180	60	124	GapExp	BigFlash	0	42	2	30	0	distractor	1	427	787	374484	13.328	4.884	21.774
ProbeTrack15	3	ProbeTrack	15.0	SCS215b	20120202.170656	20120202.171204	8	0.013328	60	10	60-180	60	149	GapExp	BigFlash	0	43	2	3	1	target	1	579	711	375195	13.328	7.155	19.507
ProbeTrack15	3	ProbeTrack	15.0	SCS215b	20120202.170656	20120202.171210	8	0.013328	60	10	60-180	60	69	GapExp	BigFlash	0	44	2	30	0	distractor	1	454	773	375968	13.328	10.561	16.107
ProbeTrack15	3	ProbeTrack	15.0	SCS215b	20120202.170656	20120202.171216	8	0.013328	60	10	60-180	60	153	GapExp	BigFlash	0	45	2	0	1	target	1	532	734	376702	13.328	6.960	19.694
ProbeTrack15	3	ProbeTrack	15.0	SCS215b	20120202.170656	20120202.171222	8	0.013328	60	10	60-180	60	92	GapExp	BigFlash	0	46	2	1	1	target	1	396	802	377504	13.328	13.140	13.510
ProbeTrack15	3	ProbeTrack	15.0	SCS215b	20120202.170656	20120202.171228	8	0.013328	60	10	60-180	60	154	GapExp	BigFlash	0	47	2	30	1	target	1	479	761	378265	13.328	13.285	13.373
ProbeTrack15	3	ProbeTrack	15.0	SCS215b	20120202.170656	20120202.171235	8	0.013328	60	10	60-180	60	171	GapExp	BigFlash	0	48	2	0	0	4	-3	17384614	-1000	377265	13.328	7.443	19.229
ProbeTrack15	3	ProbeTrack	15.0	SCS215b	20120202.170656	20120202.171242	8	0.013328	60	10	60-180	60	68	GapExp	BigFlash	0	49	2	30	0	distractor	1	712	644	377909	13.328	13.305	13.365
ProbeTrack15	3	ProbeTrack	15.0	SCS215b	20120202.170656	20120202.171255	8	0.013328	60	10	60-180	60	80	GapExp	BigFlash	0	50	2	3	1	distractor	0	893	-1000	376909	13.328	13.309	13.356
ProbeTrack15	3	ProbeTrack	15.0	SCS215b	20120202.170656	20120202.171301	8	0.013328	60	10	60-180	60	67	GapExp	BigFlash	0	51	2	30	1	target	1	521	740	377649	13.328	13.311	13.351
ProbeTrack15	3	ProbeTrack	15.0	SCS215b	20120202.170656	20120202.171307	8	0.013328	60	10	60-180	60	166	GapExp	BigFlash	0	52	2	0	1	target	1	538	731	378380	13.328	12.713	13.940
ProbeTrack15	3	ProbeTrack	15.0	SCS215b	20120202.170656	20120202.171314	8	0.013328	60	10	60-180	60	136	GapExp	BigFlash	0	53	2	1	1	target	1	412	794	379174	13.328	13.102	13.548
ProbeTrack15	3	ProbeTrack	15.0	SCS215b	20120202.170656	20120202.171320	8	0.013328	60	10	60-180	60	97	GapExp	BigFlash	0	54	2	0	0	distractor	1	579	711	379885	13.328	12.161	14.490
ProbeTrack15	3	ProbeTrack	15.0	SCS215b	20120202.170656	20120202.171326	8	0.013328	60	10	60-180	60	73	GapExp	BigFlash	0	55	2	1	1	target	1	374	813	380698	13.329	13.308	13.550
ProbeTrack15	3	ProbeTrack	15.0	SCS215b	20120202.170656	20120202.171332	8	0.013328	60	10	60-180	60	141	GapExp	BigFlash	0	56	2	3	0	distractor	1	600	700	381398	13.328	12.519	14.132
ProbeTrack15	3	ProbeTrack	15.0	SCS215b	20120202.170656	20120202.171338	8	0.013328	60	10	60-180	60	171	GapExp	BigFlash	0	57	2	0	1	target	1	614	693	382091	13.328	8.763	17.892
ProbeTrack15	3	ProbeTrack	15.0	SCS215b	20120202.170656	20120202.171345	8	0.013328	60	10	60-180	60	138	GapExp	BigFlash	0	58	2	0	1	target	1	423	789	382880	13.328	8.334	18.323
ProbeTrack15	3	ProbeTrack	15.0	SCS215b	20120202.170656	20120202.171351	8	0.013328	60	10	60-180	60	154	GapExp	BigFlash	0	59	2	30	0	distractor	1	531	735	383615	13.328	9.859	16.794
ProbeTrack15	3	ProbeTrack	15.0	SCS215b	20120202.170656	20120202.171359	8	0.013328	60	10	60-180	60	177	GapExp	BigFlash	0	60	2	0	1	target	1	365	818	384433	13.328	11.140	15.552
ProbeTrack15	3	ProbeTrack	15.0	SCS215b	20120202.170656	20120202.171406	8	0.013328	60	10	60-180	60	70	GapExp	BigFlash	0	61	2	0	1	target	1	417	792	385225	13.328	11.404	15.267
ProbeTrack15	3	ProbeTrack	15.0	SCS215b	20120202.170656	20120202.171411	8	0.013328	60	10	60-180	60	65	GapExp	BigFlash	0	62	2	3	1	target	1	341	830	386055	13.328	10.049	16.597
ProbeTrack15	3	ProbeTrack	15.0	SCS215b	20120202.170656	20120202.171416	8	0.013328	60	10	60-180	60	114	GapExp	BigFlash	0	63	2	0	1	target	1	385	808	386863	13.328	13.309	13.350
ProbeTrack15	3	ProbeTrack	15.0	SCS215b	20120202.170656	20120202.171422	8	0.013328	60	10	60-180	60	128	GapExp	BigFlash	0	64	2	3	1	target	1	395	803	387666	13.328	13.165	13.549
ProbeTrack15	3	ProbeTrack	15.0	SCS215b	20120202.170656	20120202.171429	8	0.013328	60	10	60-180	60	88	GapExp	BigFlash	0	65	2	30	1	target	1	482	759	388425	13.328	12.793	13.873
ProbeTrack15	3	ProbeTrack	15.0	SCS215b	20120202.170656	20120202.171435	8	0.013328	60	10	60-180	60	84	GapExp	BigFlash	0	66	2	30	1	target	1	383	809	389234	13.328	13.129	13.535
ProbeTrack15	3	ProbeTrack	15.0	SCS215b	20120202.170656	20120202.171441	8	0.013328	60	10	60-180	60	129	GapExp	BigFlash	0	67	2	3	0	distractor	1	440	780	390014	13.328	13.289	13.362
ProbeTrack15	3	ProbeTrack	15.0	SCS215b	20120202.170656	20120202.171447	8	0.013328	60	10	60-180	60	113	GapExp	BigFlash	0	68	2	30	1	target	1	361	820	390834	13.328	13.311	13.348
ProbeTrack15	3	ProbeTrack	15.0	SCS215b	20120202.170656	20120202.171453	8	0.013328	60	10	60-180	60	64	GapExp	BigFlash	0	69	2	1	0	distractor	1	656	672	391506	13.328	7.931	18.721
