exp	sub	code	rev	comp	runtime	trialtime	nstim	refreshdur	cuedur	gapdur	gapOnsetRange	durPostProbe	gapOnsetTime	blocktype	gaptype	prac	trial	ntargets	soa	probeTarget	resp	acc	rt	pts	tpts	meanFrameDur	minFrameDur	maxFrameDur
ProbeTrack15	11	ProbeTrack	15.0	SCS215a	20120216.162141	20120216.162150	8	0.013327	60	0	60-180	60	114	NoGap	None	1	1	2	1	0	distractor	1	2081	0	0	13.381	13.310	13.346
ProbeTrack15	11	ProbeTrack	15.0	SCS215a	20120216.162141	20120216.162416	8	0.013327	60	0	60-180	60	172	NoGap	None	1	2	2	1	1	target	1	1027	487	487	13.328	10.195	16.469
ProbeTrack15	11	ProbeTrack	15.0	SCS215a	20120216.162141	20120216.162424	8	0.013327	60	0	60-180	60	89	NoGap	None	1	3	2	0	1	target	1	989	506	993	13.328	13.310	13.353
ProbeTrack15	11	ProbeTrack	15.0	SCS215a	20120216.162141	20120216.162501	8	0.013327	60	0	60-180	60	168	NoGap	None	1	4	2	1	0	distractor	1	758	621	1614	13.328	13.307	13.346
ProbeTrack15	11	ProbeTrack	15.0	SCS215a	20120216.162141	20120216.162510	8	0.013327	60	0	60-180	60	150	NoGap	None	1	5	2	0	1	target	1	517	742	2356	13.328	12.674	13.984
ProbeTrack15	11	ProbeTrack	15.0	SCS215a	20120216.162141	20120216.162517	8	0.013327	60	0	60-180	60	103	NoGap	None	1	6	2	30	0	distractor	1	703	649	3005	13.328	11.497	15.189
ProbeTrack15	11	ProbeTrack	15.0	SCS215a	20120216.162141	20120216.162523	8	0.013327	60	0	60-180	60	145	NoGap	None	1	7	2	3	0	distractor	1	716	642	3647	13.328	13.112	13.541
ProbeTrack15	11	ProbeTrack	15.0	SCS215a	20120216.162141	20120216.162530	8	0.013327	60	0	60-180	60	126	NoGap	None	1	8	2	0	0	distractor	1	705	648	4295	13.328	9.266	17.391
ProbeTrack15	11	ProbeTrack	15.0	SCS215a	20120216.162141	20120216.162536	8	0.013327	60	0	60-180	60	128	NoGap	None	1	9	2	0	1	target	1	523	739	5034	13.328	13.091	13.556
ProbeTrack15	11	ProbeTrack	15.0	SCS215a	20120216.162141	20120216.162543	8	0.013327	60	0	60-180	60	95	NoGap	None	1	10	2	30	0	distractor	1	678	661	5695	13.328	11.160	15.504
ProbeTrack15	11	ProbeTrack	15.0	SCS215a	20120216.162141	20120216.162549	8	0.013327	60	0	60-180	60	173	NoGap	None	1	11	2	30	0	distractor	1	608	696	6391	13.328	12.340	14.338
ProbeTrack15	11	ProbeTrack	15.0	SCS215a	20120216.162141	20120216.162556	8	0.013327	60	0	60-180	60	69	NoGap	None	1	12	2	0	0	distractor	1	687	657	7048	13.328	13.272	13.384
ProbeTrack15	11	ProbeTrack	15.0	SCS215a	20120216.162141	20120216.162602	8	0.013327	60	0	60-180	60	65	NoGap	None	1	13	2	3	0	distractor	1	560	720	7768	13.328	13.308	13.351
ProbeTrack15	11	ProbeTrack	15.0	SCS215a	20120216.162141	20120216.162608	8	0.013327	60	0	60-180	60	126	NoGap	None	1	14	2	0	0	target	0	668	-1000	6768	13.328	12.063	14.608
ProbeTrack15	11	ProbeTrack	15.0	SCS215a	20120216.162141	20120216.162614	8	0.013327	60	0	60-180	60	173	NoGap	None	1	15	2	3	1	target	1	793	604	7372	13.328	7.703	18.945
ProbeTrack15	11	ProbeTrack	15.0	SCS215a	20120216.162141	20120216.162622	8	0.013327	60	0	60-180	60	152	NoGap	None	1	16	2	30	1	target	1	458	771	8143	13.328	13.308	13.347
ProbeTrack15	11	ProbeTrack	15.0	SCS215a	20120216.162141	20120216.162629	8	0.013327	60	0	60-180	60	168	NoGap	None	1	17	2	3	0	distractor	1	540	730	8873	13.328	7.221	19.436
ProbeTrack15	11	ProbeTrack	15.0	SCS215a	20120216.162141	20120216.162635	8	0.013327	60	0	60-180	60	107	NoGap	None	1	18	2	30	1	target	1	488	756	9629	13.328	11.642	15.015
ProbeTrack15	11	ProbeTrack	15.0	SCS215a	20120216.162141	20120216.162642	8	0.013327	60	0	60-180	60	115	NoGap	None	1	19	2	3	1	target	1	446	777	10406	13.328	10.471	16.185
ProbeTrack15	11	ProbeTrack	15.0	SCS215a	20120216.162141	20120216.162648	8	0.013327	60	0	60-180	60	131	NoGap	None	1	20	2	3	0	distractor	1	389	806	11212	13.328	13.310	13.346
ProbeTrack15	11	ProbeTrack	15.0	SCS215a	20120216.162141	20120216.162654	8	0.013327	60	0	60-180	60	128	NoGap	None	1	21	2	30	0	distractor	1	494	753	11965	13.328	13.105	13.556
ProbeTrack15	11	ProbeTrack	15.0	SCS215a	20120216.162141	20120216.162700	8	0.013327	60	0	60-180	60	96	NoGap	None	1	22	2	0	0	distractor	1	600	700	12665	13.328	7.593	19.055
ProbeTrack15	11	ProbeTrack	15.0	SCS215a	20120216.162141	20120216.162706	8	0.013327	60	0	60-180	60	77	NoGap	None	1	23	2	1	0	distractor	1	567	717	13382	13.328	13.310	13.349
ProbeTrack15	11	ProbeTrack	15.0	SCS215a	20120216.162141	20120216.162712	8	0.013327	60	0	60-180	60	113	NoGap	None	1	24	2	3	1	target	1	583	709	14091	13.328	8.454	18.200
ProbeTrack15	11	ProbeTrack	15.0	SCS215a	20120216.162141	20120216.162718	8	0.013327	60	0	60-180	60	163	NoGap	None	1	25	2	1	0	distractor	1	486	757	14848	13.328	11.735	14.923
ProbeTrack15	11	ProbeTrack	15.0	SCS215a	20120216.162141	20120216.162731	8	0.013327	60	0	60-180	60	154	NoGap	None	1	26	2	30	1	target	1	718	641	15489	13.328	13.309	13.353
ProbeTrack15	11	ProbeTrack	15.0	SCS215a	20120216.162141	20120216.162738	8	0.013327	60	0	60-180	60	62	NoGap	None	1	27	2	0	0	distractor	1	510	745	16234	13.328	11.184	15.463
ProbeTrack15	11	ProbeTrack	15.0	SCS215a	20120216.162141	20120216.162744	8	0.013327	60	0	60-180	60	120	NoGap	None	1	28	2	30	0	target	0	859	-1000	15234	13.374	2.974	26.656
ProbeTrack15	11	ProbeTrack	15.0	SCS215a	20120216.162141	20120216.162752	8	0.013327	60	0	60-180	60	141	NoGap	None	1	29	2	3	1	distractor	0	701	-1000	14234	13.328	13.099	13.537
ProbeTrack15	11	ProbeTrack	15.0	SCS215a	20120216.162141	20120216.162801	8	0.013327	60	0	60-180	60	178	NoGap	None	1	30	2	30	1	target	1	404	798	15032	13.328	12.612	14.053
ProbeTrack15	11	ProbeTrack	15.0	SCS215a	20120216.162141	20120216.162811	8	0.013327	60	0	60-180	60	168	NoGap	None	1	31	2	1	1	target	1	545	728	15760	13.328	13.191	13.471
ProbeTrack15	11	ProbeTrack	15.0	SCS215a	20120216.162141	20120216.162818	8	0.013327	60	0	60-180	60	131	NoGap	None	1	32	2	0	1	target	1	381	810	16570	13.328	13.279	13.377
ProbeTrack15	11	ProbeTrack	15.0	SCS215a	20120216.162141	20120216.162825	8	0.013327	60	0	60-180	60	111	NoGap	None	1	33	2	3	0	distractor	1	570	715	17285	13.328	9.125	17.518
ProbeTrack15	11	ProbeTrack	15.0	SCS215a	20120216.162141	20120216.162831	8	0.013327	60	0	60-180	60	133	NoGap	None	1	34	2	1	1	target	1	568	716	18001	13.328	13.087	13.549
ProbeTrack15	11	ProbeTrack	15.0	SCS215a	20120216.162141	20120216.162838	8	0.013327	60	0	60-180	60	155	NoGap	None	1	35	2	1	1	target	1	579	711	18712	13.328	12.881	13.774
ProbeTrack15	11	ProbeTrack	15.0	SCS215a	20120216.162141	20120216.162845	8	0.013327	60	0	60-180	60	74	NoGap	None	1	36	2	30	1	target	1	357	822	19534	13.328	13.309	13.344
ProbeTrack15	11	ProbeTrack	15.0	SCS215a	20120216.162141	20120216.162852	8	0.013327	60	0	60-180	60	113	NoGap	None	1	37	2	1	1	target	1	395	803	20337	13.328	12.968	13.688
ProbeTrack15	11	ProbeTrack	15.0	SCS215a	20120216.162141	20120216.162859	8	0.013327	60	0	60-180	60	161	NoGap	None	1	38	2	0	1	target	1	352	824	21161	13.328	13.090	13.549
ProbeTrack15	11	ProbeTrack	15.0	SCS215a	20120216.162141	20120216.162906	8	0.013327	60	0	60-180	60	70	NoGap	None	1	39	2	1	0	distractor	1	656	672	21833	13.328	9.882	16.770
ProbeTrack15	11	ProbeTrack	15.0	SCS215a	20120216.162141	20120216.162913	8	0.013327	60	0	60-180	60	151	NoGap	None	1	40	2	3	1	target	1	390	805	22638	13.328	13.091	13.566
ProbeTrack15	11	ProbeTrack	15.0	SCS215a	20120216.163036	20120216.163046	8	0.013328	60	10	60-180	60	179	GapPrac	BigFlash	1	1	2	30	0	distractor	1	616	692	23330	13.367	12.880	13.783
ProbeTrack15	11	ProbeTrack	15.0	SCS215a	20120216.163036	20120216.163056	8	0.013328	60	10	60-180	60	116	GapPrac	BigFlash	1	2	2	0	1	target	1	859	571	23901	13.328	12.874	13.784
ProbeTrack15	11	ProbeTrack	15.0	SCS215a	20120216.163036	20120216.163105	8	0.013328	60	10	60-180	60	121	GapPrac	BigFlash	1	3	2	3	0	distractor	1	642	679	24580	13.328	12.871	13.785
ProbeTrack15	11	ProbeTrack	15.0	SCS215a	20120216.163036	20120216.163112	8	0.013328	60	10	60-180	60	97	GapPrac	BigFlash	1	4	2	30	1	target	1	410	795	25375	13.328	13.098	13.554
ProbeTrack15	11	ProbeTrack	15.0	SCS215a	20120216.163036	20120216.163119	8	0.013328	60	10	60-180	60	77	GapPrac	BigFlash	1	5	2	1	0	distractor	1	582	709	26084	13.328	12.904	13.771
ProbeTrack15	11	ProbeTrack	15.0	SCS215a	20120216.163036	20120216.163125	8	0.013328	60	10	60-180	60	161	GapPrac	BigFlash	1	6	2	1	0	distractor	1	545	728	26812	13.328	13.099	13.568
ProbeTrack15	11	ProbeTrack	15.0	SCS215a	20120216.163036	20120216.163132	8	0.013328	60	10	60-180	60	102	GapPrac	BigFlash	1	7	2	0	1	target	1	475	763	27575	13.328	13.172	13.493
ProbeTrack15	11	ProbeTrack	15.0	SCS215a	20120216.163036	20120216.163138	8	0.013328	60	10	60-180	60	122	GapPrac	BigFlash	1	8	2	1	1	target	1	365	818	28393	13.328	13.138	13.527
ProbeTrack15	11	ProbeTrack	15.0	SCS215a	20120216.163036	20120216.163144	8	0.013328	60	10	60-180	60	177	GapPrac	BigFlash	1	9	2	30	0	distractor	1	463	769	29162	13.328	13.104	13.542
ProbeTrack15	11	ProbeTrack	15.0	SCS215a	20120216.163036	20120216.163152	8	0.013328	60	10	60-180	60	174	GapPrac	BigFlash	1	10	2	30	1	target	1	424	788	29950	13.328	12.957	13.698
ProbeTrack15	11	ProbeTrack	15.0	SCS215a	20120216.163036	20120216.163159	8	0.013328	60	10	60-180	60	95	GapPrac	BigFlash	1	11	2	30	0	distractor	1	408	796	30746	13.328	12.859	13.798
ProbeTrack15	11	ProbeTrack	15.0	SCS215a	20120216.163036	20120216.163206	8	0.013328	60	10	60-180	60	159	GapPrac	BigFlash	1	12	2	30	1	target	1	387	807	31553	13.328	13.307	13.348
ProbeTrack15	11	ProbeTrack	15.0	SCS215a	20120216.163036	20120216.163213	8	0.013328	60	10	60-180	60	110	GapPrac	BigFlash	1	13	2	0	0	distractor	1	590	705	32258	13.328	12.936	13.721
ProbeTrack15	11	ProbeTrack	15.0	SCS215a	20120216.163036	20120216.163219	8	0.013328	60	10	60-180	60	143	GapPrac	BigFlash	1	14	2	0	0	distractor	1	649	676	32934	13.328	12.896	13.762
ProbeTrack15	11	ProbeTrack	15.0	SCS215a	20120216.163036	20120216.163226	8	0.013328	60	10	60-180	60	63	GapPrac	BigFlash	1	15	2	3	0	distractor	1	480	760	33694	13.328	12.859	13.792
ProbeTrack15	11	ProbeTrack	15.0	SCS215a	20120216.163036	20120216.163232	8	0.013328	60	10	60-180	60	117	GapPrac	BigFlash	1	16	2	0	1	target	1	322	839	34533	13.328	12.890	13.768
ProbeTrack15	11	ProbeTrack	15.0	SCS215a	20120216.163036	20120216.163239	8	0.013328	60	10	60-180	60	116	GapPrac	BigFlash	1	17	2	3	1	target	1	303	849	35382	13.328	12.874	13.791
ProbeTrack15	11	ProbeTrack	15.0	SCS215a	20120216.163036	20120216.163246	8	0.013328	60	10	60-180	60	157	GapPrac	BigFlash	1	18	2	3	0	distractor	1	567	717	36099	13.328	13.119	13.538
ProbeTrack15	11	ProbeTrack	15.0	SCS215a	20120216.163036	20120216.163252	8	0.013328	60	10	60-180	60	156	GapPrac	BigFlash	1	19	2	1	1	target	1	340	830	36929	13.328	13.091	13.569
ProbeTrack15	11	ProbeTrack	15.0	SCS215a	20120216.163036	20120216.163259	8	0.013328	60	10	60-180	60	134	GapPrac	BigFlash	1	20	2	3	1	target	1	336	832	37761	13.328	13.158	13.494
ProbeTrack15	11	ProbeTrack	15.0	SCS215a	20120216.163332	20120216.163342	8	0.013328	60	10	60-180	60	69	GapExp	BigFlash	1	1	2	3	0	distractor	1	547	727	38488	13.395	13.131	13.526
ProbeTrack15	11	ProbeTrack	15.0	SCS215a	20120216.163332	20120216.163350	8	0.013328	60	10	60-180	60	131	GapExp	BigFlash	1	2	2	30	1	target	1	493	754	39242	13.328	13.278	13.396
ProbeTrack15	11	ProbeTrack	15.0	SCS215a	20120216.163332	20120216.163357	8	0.013328	60	10	60-180	60	153	GapExp	BigFlash	1	3	2	3	1	target	1	348	826	40068	13.328	13.297	13.350
ProbeTrack15	11	ProbeTrack	15.0	SCS215a	20120216.163332	20120216.163404	8	0.013328	60	10	60-180	60	83	GapExp	BigFlash	1	4	2	1	0	distractor	1	514	743	40811	13.328	13.084	13.582
ProbeTrack15	11	ProbeTrack	15.0	SCS215a	20120216.163332	20120216.163410	8	0.013328	60	10	60-180	60	131	GapExp	BigFlash	1	5	2	0	0	distractor	1	465	768	41579	13.328	13.309	13.346
ProbeTrack15	11	ProbeTrack	15.0	SCS215a	20120216.163332	20120216.163416	8	0.013328	60	10	60-180	60	112	GapExp	BigFlash	1	6	2	0	1	target	1	409	796	42375	13.328	13.133	13.516
ProbeTrack15	11	ProbeTrack	15.0	SCS215a	20120216.163332	20120216.163423	8	0.013328	60	10	60-180	60	76	GapExp	BigFlash	1	7	2	30	0	distractor	1	419	791	43166	13.328	12.924	13.783
ProbeTrack15	11	ProbeTrack	15.0	SCS215a	20120216.163332	20120216.163428	8	0.013328	60	10	60-180	60	166	GapExp	BigFlash	1	8	2	1	1	target	1	386	807	43973	13.328	13.031	13.639
ProbeTrack15	11	ProbeTrack	15.0	SCS215a	20120216.163332	20120216.163436	8	0.013328	60	10	60-180	60	72	GapExp	BigFlash	0	9	2	1	1	target	1	325	838	44811	13.328	13.101	13.544
ProbeTrack15	11	ProbeTrack	15.0	SCS215a	20120216.163332	20120216.163442	8	0.013328	60	10	60-180	60	161	GapExp	BigFlash	0	10	2	3	1	target	1	482	759	45570	13.328	13.086	13.571
ProbeTrack15	11	ProbeTrack	15.0	SCS215a	20120216.163332	20120216.163449	8	0.013328	60	10	60-180	60	144	GapExp	BigFlash	0	11	2	1	1	target	1	309	846	46416	13.328	12.841	13.823
ProbeTrack15	11	ProbeTrack	15.0	SCS215a	20120216.163332	20120216.163456	8	0.013328	60	10	60-180	60	122	GapExp	BigFlash	0	12	2	0	1	target	1	295	853	47269	13.328	12.987	13.680
ProbeTrack15	11	ProbeTrack	15.0	SCS215a	20120216.163332	20120216.163502	8	0.013328	60	10	60-180	60	100	GapExp	BigFlash	0	13	2	3	1	target	1	295	853	48122	13.328	13.099	13.552
ProbeTrack15	11	ProbeTrack	15.0	SCS215a	20120216.163332	20120216.163509	8	0.013328	60	10	60-180	60	179	GapExp	BigFlash	0	14	2	1	1	target	1	338	831	48953	13.328	13.098	13.558
ProbeTrack15	11	ProbeTrack	15.0	SCS215a	20120216.163332	20120216.163516	8	0.013328	60	10	60-180	60	74	GapExp	BigFlash	0	15	2	3	0	target	0	459	-1000	47953	13.328	13.082	13.559
ProbeTrack15	11	ProbeTrack	15.0	SCS215a	20120216.163332	20120216.163521	8	0.013328	60	10	60-180	60	63	GapExp	BigFlash	0	16	2	0	1	target	1	393	804	48757	13.328	13.307	13.348
ProbeTrack15	11	ProbeTrack	15.0	SCS215a	20120216.163332	20120216.163528	8	0.013328	60	10	60-180	60	150	GapExp	BigFlash	0	17	2	3	0	distractor	1	653	674	49431	13.328	13.307	13.349
ProbeTrack15	11	ProbeTrack	15.0	SCS215a	20120216.163332	20120216.163535	8	0.013328	60	10	60-180	60	147	GapExp	BigFlash	0	18	2	0	1	target	1	340	830	50261	13.328	13.304	13.347
ProbeTrack15	11	ProbeTrack	15.0	SCS215a	20120216.163332	20120216.163542	8	0.013328	60	10	60-180	60	172	GapExp	BigFlash	0	19	2	1	1	target	1	479	761	51022	13.328	13.255	13.400
ProbeTrack15	11	ProbeTrack	15.0	SCS215a	20120216.163332	20120216.163549	8	0.013328	60	10	60-180	60	67	GapExp	BigFlash	0	20	2	3	1	target	1	510	745	51767	13.328	13.284	13.379
ProbeTrack15	11	ProbeTrack	15.0	SCS215a	20120216.163332	20120216.163555	8	0.013328	60	10	60-180	60	149	GapExp	BigFlash	0	21	2	3	1	target	1	402	799	52566	13.328	13.013	13.644
ProbeTrack15	11	ProbeTrack	15.0	SCS215a	20120216.163332	20120216.163603	8	0.013328	60	10	60-180	60	98	GapExp	BigFlash	0	22	2	0	1	target	1	315	843	53409	13.328	13.308	13.344
ProbeTrack15	11	ProbeTrack	15.0	SCS215a	20120216.163332	20120216.163609	8	0.013328	60	10	60-180	60	155	GapExp	BigFlash	0	23	2	30	0	distractor	1	424	788	54197	13.328	12.923	13.752
ProbeTrack15	11	ProbeTrack	15.0	SCS215a	20120216.163332	20120216.163616	8	0.013328	60	10	60-180	60	70	GapExp	BigFlash	0	24	2	30	0	distractor	1	407	797	54994	13.328	12.980	13.692
ProbeTrack15	11	ProbeTrack	15.0	SCS215a	20120216.163332	20120216.163622	8	0.013328	60	10	60-180	60	125	GapExp	BigFlash	0	25	2	3	0	distractor	1	481	760	55754	13.328	13.293	13.355
ProbeTrack15	11	ProbeTrack	15.0	SCS215a	20120216.163332	20120216.163628	8	0.013328	60	10	60-180	60	170	GapExp	BigFlash	0	26	2	30	1	distractor	0	417	-1000	54754	13.328	12.946	13.703
ProbeTrack15	11	ProbeTrack	15.0	SCS215a	20120216.163332	20120216.163636	8	0.013328	60	10	60-180	60	166	GapExp	BigFlash	0	27	2	0	0	distractor	1	529	736	55490	13.328	12.948	13.716
ProbeTrack15	11	ProbeTrack	15.0	SCS215a	20120216.163332	20120216.163643	8	0.013328	60	10	60-180	60	122	GapExp	BigFlash	0	28	2	1	0	distractor	1	608	696	56186	13.328	13.181	13.469
ProbeTrack15	11	ProbeTrack	15.0	SCS215a	20120216.163332	20120216.163651	8	0.013328	60	10	60-180	60	143	GapExp	BigFlash	0	29	2	0	0	distractor	1	464	768	56954	13.328	13.294	13.357
ProbeTrack15	11	ProbeTrack	15.0	SCS215a	20120216.163332	20120216.163658	8	0.013328	60	10	60-180	60	94	GapExp	BigFlash	0	30	2	3	1	target	1	388	806	57760	13.328	12.996	13.675
ProbeTrack15	11	ProbeTrack	15.0	SCS215a	20120216.163332	20120216.163704	8	0.013328	60	10	60-180	60	68	GapExp	BigFlash	0	31	2	30	1	target	1	380	810	58570	13.328	13.182	13.469
ProbeTrack15	11	ProbeTrack	15.0	SCS215a	20120216.163332	20120216.163716	8	0.013328	60	10	60-180	60	66	GapExp	BigFlash	0	32	2	0	1	target	1	323	839	59409	13.328	12.922	13.737
ProbeTrack15	11	ProbeTrack	15.0	SCS215a	20120216.163332	20120216.163722	8	0.013328	60	10	60-180	60	166	GapExp	BigFlash	0	33	2	0	0	distractor	1	372	814	60223	13.328	12.911	13.744
ProbeTrack15	11	ProbeTrack	15.0	SCS215a	20120216.163332	20120216.163729	8	0.013328	60	10	60-180	60	102	GapExp	BigFlash	0	34	2	30	0	distractor	1	389	806	61029	13.328	12.902	13.746
ProbeTrack15	11	ProbeTrack	15.0	SCS215a	20120216.163332	20120216.163735	8	0.013328	60	10	60-180	60	172	GapExp	BigFlash	0	35	2	3	1	target	1	369	816	61845	13.374	12.872	26.647
ProbeTrack15	11	ProbeTrack	15.0	SCS215a	20120216.163332	20120216.163742	8	0.013328	60	10	60-180	60	113	GapExp	BigFlash	0	36	2	1	1	target	1	407	797	62642	13.328	12.837	13.804
ProbeTrack15	11	ProbeTrack	15.0	SCS215a	20120216.163332	20120216.163749	8	0.013328	60	10	60-180	60	120	GapExp	BigFlash	0	37	2	1	1	target	1	295	853	63495	13.328	12.861	13.820
ProbeTrack15	11	ProbeTrack	15.0	SCS215a	20120216.163332	20120216.163755	8	0.013328	60	10	60-180	60	112	GapExp	BigFlash	0	38	2	3	1	target	1	275	863	64358	13.328	12.926	13.740
ProbeTrack15	11	ProbeTrack	15.0	SCS215a	20120216.163332	20120216.163802	8	0.013328	60	10	60-180	60	153	GapExp	BigFlash	0	39	2	30	1	target	1	400	800	65158	13.328	13.064	13.578
ProbeTrack15	11	ProbeTrack	15.0	SCS215a	20120216.163332	20120216.163809	8	0.013328	60	10	60-180	60	126	GapExp	BigFlash	0	40	2	30	1	target	1	414	793	65951	13.328	13.214	13.450
ProbeTrack15	11	ProbeTrack	15.0	SCS215a	20120216.163332	20120216.163816	8	0.013328	60	10	60-180	60	172	GapExp	BigFlash	0	41	2	3	0	distractor	1	436	782	66733	13.328	12.864	13.812
ProbeTrack15	11	ProbeTrack	15.0	SCS215a	20120216.163332	20120216.163840	8	0.013328	60	10	60-180	60	131	GapExp	BigFlash	0	42	2	30	0	distractor	1	540	730	67463	13.328	12.852	13.813
ProbeTrack15	11	ProbeTrack	15.0	SCS215a	20120216.163332	20120216.163849	8	0.013328	60	10	60-180	60	128	GapExp	BigFlash	0	43	2	3	0	distractor	1	441	780	68243	13.328	12.923	13.727
ProbeTrack15	11	ProbeTrack	15.0	SCS215a	20120216.163332	20120216.163900	8	0.013328	60	10	60-180	60	69	GapExp	BigFlash	0	44	2	3	0	distractor	1	443	779	69022	13.328	13.308	13.348
ProbeTrack15	11	ProbeTrack	15.0	SCS215a	20120216.163332	20120216.163906	8	0.013328	60	10	60-180	60	122	GapExp	BigFlash	0	45	2	30	0	distractor	1	515	743	69765	13.328	13.102	13.543
ProbeTrack15	11	ProbeTrack	15.0	SCS215a	20120216.163332	20120216.163914	8	0.013328	60	10	60-180	60	79	GapExp	BigFlash	0	46	2	0	0	distractor	1	474	763	70528	13.328	13.310	13.347
ProbeTrack15	11	ProbeTrack	15.0	SCS215a	20120216.163332	20120216.163920	8	0.013328	60	10	60-180	60	106	GapExp	BigFlash	0	47	2	0	0	distractor	1	398	801	71329	13.328	12.938	13.705
ProbeTrack15	11	ProbeTrack	15.0	SCS215a	20120216.163332	20120216.163927	8	0.013328	60	10	60-180	60	72	GapExp	BigFlash	0	48	2	0	0	distractor	1	434	783	72112	13.328	13.078	13.565
ProbeTrack15	11	ProbeTrack	15.0	SCS215a	20120216.163332	20120216.163932	8	0.013328	60	10	60-180	60	98	GapExp	BigFlash	0	49	2	3	0	distractor	1	388	806	72918	13.328	13.308	13.347
ProbeTrack15	11	ProbeTrack	15.0	SCS215a	20120216.163332	20120216.163939	8	0.013328	60	10	60-180	60	121	GapExp	BigFlash	0	50	2	3	0	distractor	1	409	796	73714	13.328	13.306	13.346
ProbeTrack15	11	ProbeTrack	15.0	SCS215a	20120216.163332	20120216.163945	8	0.013328	60	10	60-180	60	154	GapExp	BigFlash	0	51	2	0	0	distractor	1	404	798	74512	13.328	13.108	13.533
ProbeTrack15	11	ProbeTrack	15.0	SCS215a	20120216.163332	20120216.163952	8	0.013328	60	10	60-180	60	96	GapExp	BigFlash	0	52	2	0	1	target	1	339	831	75343	13.328	13.281	13.378
ProbeTrack15	11	ProbeTrack	15.0	SCS215a	20120216.163332	20120216.163958	8	0.013328	60	10	60-180	60	164	GapExp	BigFlash	0	53	2	30	1	target	1	399	801	76144	13.328	12.875	13.770
ProbeTrack15	11	ProbeTrack	15.0	SCS215a	20120216.163332	20120216.164006	8	0.013328	60	10	60-180	60	80	GapExp	BigFlash	0	54	2	30	1	target	1	624	688	76832	13.328	12.871	13.793
ProbeTrack15	11	ProbeTrack	15.0	SCS215a	20120216.163332	20120216.164013	8	0.013328	60	10	60-180	60	180	GapExp	BigFlash	0	55	2	1	1	target	1	287	857	77689	13.328	12.849	13.807
ProbeTrack15	11	ProbeTrack	15.0	SCS215a	20120216.163332	20120216.164021	8	0.013328	60	10	60-180	60	147	GapExp	BigFlash	0	56	2	1	1	target	1	401	800	78489	13.328	13.050	13.601
ProbeTrack15	11	ProbeTrack	15.0	SCS215a	20120216.163332	20120216.164027	8	0.013328	60	10	60-180	60	177	GapExp	BigFlash	0	57	2	1	1	target	1	291	855	79344	13.328	13.006	13.644
ProbeTrack15	11	ProbeTrack	15.0	SCS215a	20120216.163332	20120216.164035	8	0.013328	60	10	60-180	60	135	GapExp	BigFlash	0	58	2	30	0	distractor	1	454	773	80117	13.328	13.098	13.376
ProbeTrack15	11	ProbeTrack	15.0	SCS215a	20120216.163332	20120216.164042	8	0.013328	60	10	60-180	60	93	GapExp	BigFlash	0	59	2	1	0	distractor	1	561	720	80837	13.328	13.303	13.348
ProbeTrack15	11	ProbeTrack	15.0	SCS215a	20120216.163332	20120216.164049	8	0.013328	60	10	60-180	60	84	GapExp	BigFlash	0	60	2	1	0	distractor	1	399	801	81638	13.328	13.098	13.557
ProbeTrack15	11	ProbeTrack	15.0	SCS215a	20120216.163332	20120216.164055	8	0.013328	60	10	60-180	60	158	GapExp	BigFlash	0	61	2	3	0	distractor	1	508	746	82384	13.328	12.896	13.768
ProbeTrack15	11	ProbeTrack	15.0	SCS215a	20120216.163332	20120216.164103	8	0.013328	60	10	60-180	60	116	GapExp	BigFlash	0	62	2	0	0	distractor	1	644	678	83062	13.328	12.897	13.753
ProbeTrack15	11	ProbeTrack	15.0	SCS215a	20120216.163332	20120216.164109	8	0.013328	60	10	60-180	60	106	GapExp	BigFlash	0	63	2	1	1	target	1	319	841	83903	13.328	12.895	13.779
ProbeTrack15	11	ProbeTrack	15.0	SCS215a	20120216.163332	20120216.164116	8	0.013328	60	10	60-180	60	150	GapExp	BigFlash	0	64	2	30	1	target	1	343	829	84732	13.328	13.017	13.624
ProbeTrack15	11	ProbeTrack	15.0	SCS215a	20120216.163332	20120216.164123	8	0.013328	60	10	60-180	60	144	GapExp	BigFlash	0	65	2	3	0	distractor	1	443	779	85511	13.328	12.863	13.792
ProbeTrack15	11	ProbeTrack	15.0	SCS215a	20120216.163332	20120216.164130	8	0.013328	60	10	60-180	60	114	GapExp	BigFlash	0	66	2	30	1	target	1	347	827	86338	13.328	12.970	13.687
ProbeTrack15	11	ProbeTrack	15.0	SCS215a	20120216.163332	20120216.164137	8	0.013328	60	10	60-180	60	85	GapExp	BigFlash	0	67	2	30	1	target	1	328	836	87174	13.328	12.880	13.770
ProbeTrack15	11	ProbeTrack	15.0	SCS215a	20120216.163332	20120216.164144	8	0.013328	60	10	60-180	60	161	GapExp	BigFlash	0	68	2	3	0	distractor	1	610	695	87869	13.328	12.900	13.749
ProbeTrack15	11	ProbeTrack	15.0	SCS215a	20120216.163332	20120216.164152	8	0.013328	60	10	60-180	60	100	GapExp	BigFlash	0	69	2	3	0	distractor	1	412	794	88663	13.328	13.093	13.566
ProbeTrack15	11	ProbeTrack	15.0	SCS215a	20120216.163332	20120216.164158	8	0.013328	60	10	60-180	60	121	GapExp	BigFlash	0	70	2	30	0	distractor	1	419	791	89454	13.328	13.091	13.557
ProbeTrack15	11	ProbeTrack	15.0	SCS215a	20120216.163332	20120216.164205	8	0.013328	60	10	60-180	60	101	GapExp	BigFlash	0	71	2	1	1	target	1	340	830	90284	13.328	13.086	13.557
ProbeTrack15	11	ProbeTrack	15.0	SCS215a	20120216.163332	20120216.164211	8	0.013328	60	10	60-180	60	108	GapExp	BigFlash	0	72	2	30	0	distractor	1	364	818	91102	13.328	12.882	13.761
ProbeTrack15	11	ProbeTrack	15.0	SCS215a	20120216.163332	20120216.164218	8	0.013328	60	10	60-180	60	112	GapExp	BigFlash	0	73	2	0	1	distractor	0	328	-1000	90102	13.328	13.112	13.552
ProbeTrack15	11	ProbeTrack	15.0	SCS215a	20120216.163332	20120216.164224	8	0.013328	60	10	60-180	60	94	GapExp	BigFlash	0	74	2	30	0	distractor	1	355	823	90925	13.328	12.874	13.777
ProbeTrack15	11	ProbeTrack	15.0	SCS215a	20120216.163332	20120216.164237	8	0.013328	60	10	60-180	60	169	GapExp	BigFlash	0	75	2	30	0	distractor	1	433	784	91709	13.328	12.904	13.751
ProbeTrack15	11	ProbeTrack	15.0	SCS215a	20120216.163332	20120216.164244	8	0.013328	60	10	60-180	60	135	GapExp	BigFlash	0	76	2	3	1	target	1	302	849	92558	13.328	13.075	13.579
ProbeTrack15	11	ProbeTrack	15.0	SCS215a	20120216.163332	20120216.164251	8	0.013328	60	10	60-180	60	144	GapExp	BigFlash	0	77	2	3	1	target	1	286	857	93415	13.328	12.879	13.779
ProbeTrack15	11	ProbeTrack	15.0	SCS215a	20120216.163332	20120216.164257	8	0.013328	60	10	60-180	60	94	GapExp	BigFlash	0	78	2	1	0	distractor	1	393	804	94219	13.328	12.867	13.795
ProbeTrack15	11	ProbeTrack	15.0	SCS215a	20120216.163332	20120216.164303	8	0.013328	60	10	60-180	60	122	GapExp	BigFlash	0	79	2	0	0	distractor	1	415	793	95012	13.328	13.019	13.632
ProbeTrack15	11	ProbeTrack	15.0	SCS215a	20120216.163332	20120216.164310	8	0.013328	60	10	60-180	60	171	GapExp	BigFlash	0	80	2	1	0	target	0	273	-1000	94012	13.328	12.912	13.744
ProbeTrack15	11	ProbeTrack	15.0	SCS215a	20120216.163332	20120216.164343	8	0.013328	60	10	60-180	60	74	GapExp	BigFlash	0	81	2	0	0	target	0	457	-1000	93012	13.328	12.870	13.779
ProbeTrack15	11	ProbeTrack	15.0	SCS215a	20120216.163332	20120216.164351	8	0.013328	60	10	60-180	60	136	GapExp	BigFlash	0	82	2	0	1	target	1	382	809	93821	13.328	12.881	13.774
ProbeTrack15	11	ProbeTrack	15.0	SCS215a	20120216.163332	20120216.164406	8	0.013328	60	10	60-180	60	142	GapExp	BigFlash	0	83	2	1	0	distractor	1	423	789	94610	13.328	12.876	13.756
ProbeTrack15	11	ProbeTrack	15.0	SCS215a	20120216.163332	20120216.164413	8	0.013328	60	10	60-180	60	153	GapExp	BigFlash	0	84	2	0	1	target	1	434	783	95393	13.328	12.883	13.770
ProbeTrack15	11	ProbeTrack	15.0	SCS215a	20120216.163332	20120216.164420	8	0.013328	60	10	60-180	60	117	GapExp	BigFlash	0	85	2	1	0	distractor	1	370	815	96208	13.328	12.840	13.823
ProbeTrack15	11	ProbeTrack	15.0	SCS215a	20120216.163332	20120216.164426	8	0.013328	60	10	60-180	60	117	GapExp	BigFlash	0	86	2	30	0	distractor	1	492	754	96962	13.328	12.861	13.795
ProbeTrack15	11	ProbeTrack	15.0	SCS215a	20120216.163332	20120216.164433	8	0.013328	60	10	60-180	60	120	GapExp	BigFlash	0	87	2	1	0	distractor	1	427	787	97749	13.328	12.872	13.793
ProbeTrack15	11	ProbeTrack	15.0	SCS215a	20120216.163332	20120216.164439	8	0.013328	60	10	60-180	60	118	GapExp	BigFlash	0	88	2	0	1	target	1	408	796	98545	13.328	13.082	13.708
ProbeTrack15	11	ProbeTrack	15.0	SCS215a	20120216.163332	20120216.164445	8	0.013328	60	10	60-180	60	162	GapExp	BigFlash	0	89	2	3	1	target	1	314	843	99388	13.328	12.849	13.799
ProbeTrack15	11	ProbeTrack	15.0	SCS215a	20120216.163332	20120216.164453	8	0.013328	60	10	60-180	60	158	GapExp	BigFlash	0	90	2	30	1	target	1	312	844	100232	13.328	13.293	13.356
ProbeTrack15	11	ProbeTrack	15.0	SCS215a	20120216.163332	20120216.164500	8	0.013328	60	10	60-180	60	143	GapExp	BigFlash	0	91	2	3	1	target	1	326	837	101069	13.328	13.111	13.551
ProbeTrack15	11	ProbeTrack	15.0	SCS215a	20120216.163332	20120216.164506	8	0.013328	60	10	60-180	60	154	GapExp	BigFlash	0	92	2	3	0	target	0	285	-1000	100069	13.328	13.103	13.559
ProbeTrack15	11	ProbeTrack	15.0	SCS215a	20120216.163332	20120216.164513	8	0.013328	60	10	60-180	60	72	GapExp	BigFlash	0	93	2	1	1	target	1	426	787	100856	13.328	13.103	13.566
ProbeTrack15	11	ProbeTrack	15.0	SCS215a	20120216.163332	20120216.164520	8	0.013328	60	10	60-180	60	108	GapExp	BigFlash	0	94	2	1	0	distractor	1	452	774	101630	13.328	12.851	13.805
ProbeTrack15	11	ProbeTrack	15.0	SCS215a	20120216.163332	20120216.164526	8	0.013328	60	10	60-180	60	138	GapExp	BigFlash	0	95	2	30	0	target	0	414	-1000	100630	13.328	13.033	13.629
ProbeTrack15	11	ProbeTrack	15.0	SCS215a	20120216.163332	20120216.164533	8	0.013328	60	10	60-180	60	137	GapExp	BigFlash	0	96	2	0	0	distractor	1	561	720	101350	13.328	13.306	13.343
ProbeTrack15	11	ProbeTrack	15.0	SCS215a	20120216.163332	20120216.164543	8	0.013328	60	10	60-180	60	82	GapExp	BigFlash	0	97	2	3	1	target	1	329	836	102186	13.328	13.226	13.415
ProbeTrack15	11	ProbeTrack	15.0	SCS215a	20120216.163332	20120216.164549	8	0.013328	60	10	60-180	60	121	GapExp	BigFlash	0	98	2	30	0	distractor	1	435	783	102969	13.328	12.975	13.674
ProbeTrack15	11	ProbeTrack	15.0	SCS215a	20120216.163332	20120216.164557	8	0.013328	60	10	60-180	60	115	GapExp	BigFlash	0	99	2	0	0	distractor	1	405	798	103767	13.328	12.941	13.614
ProbeTrack15	11	ProbeTrack	15.0	SCS215a	20120216.163332	20120216.164603	8	0.013328	60	10	60-180	60	143	GapExp	BigFlash	0	100	2	0	1	target	1	330	835	104602	13.328	12.876	13.785
ProbeTrack15	11	ProbeTrack	15.0	SCS215a	20120216.163332	20120216.164609	8	0.013328	60	10	60-180	60	86	GapExp	BigFlash	0	101	2	3	1	target	1	361	820	105422	13.328	12.850	13.799
ProbeTrack15	11	ProbeTrack	15.0	SCS215a	20120216.163332	20120216.164618	8	0.013328	60	10	60-180	60	123	GapExp	BigFlash	0	102	2	3	0	distractor	1	499	751	106173	13.328	12.938	13.725
ProbeTrack15	11	ProbeTrack	15.0	SCS215a	20120216.163332	20120216.164629	8	0.013328	60	10	60-180	60	117	GapExp	BigFlash	0	103	2	30	1	target	1	364	818	106991	13.328	13.013	13.625
ProbeTrack15	11	ProbeTrack	15.0	SCS215a	20120216.163332	20120216.164636	8	0.013328	60	10	60-180	60	157	GapExp	BigFlash	0	104	2	1	0	distractor	1	373	814	107805	13.328	12.861	13.781
ProbeTrack15	11	ProbeTrack	15.0	SCS215a	20120216.163332	20120216.164642	8	0.013328	60	10	60-180	60	78	GapExp	BigFlash	0	105	2	0	1	target	1	329	836	108641	13.328	13.075	13.562
ProbeTrack15	11	ProbeTrack	15.0	SCS215a	20120216.163332	20120216.164648	8	0.013328	60	10	60-180	60	178	GapExp	BigFlash	0	106	2	3	0	distractor	1	626	687	109328	13.328	13.242	13.401
ProbeTrack15	11	ProbeTrack	15.0	SCS215a	20120216.163332	20120216.164656	8	0.013328	60	10	60-180	60	103	GapExp	BigFlash	0	107	2	30	1	target	1	348	826	110154	13.328	12.924	13.732
ProbeTrack15	11	ProbeTrack	15.0	SCS215a	20120216.163332	20120216.164703	8	0.013328	60	10	60-180	60	76	GapExp	BigFlash	0	108	2	0	1	target	1	341	830	110984	13.328	13.307	13.349
ProbeTrack15	11	ProbeTrack	15.0	SCS215a	20120216.163332	20120216.164709	8	0.013328	60	10	60-180	60	135	GapExp	BigFlash	0	109	2	30	1	target	1	277	862	111846	13.328	12.889	13.768
ProbeTrack15	11	ProbeTrack	15.0	SCS215a	20120216.163332	20120216.164716	8	0.013328	60	10	60-180	60	95	GapExp	BigFlash	0	110	2	0	0	distractor	1	388	806	112652	13.328	13.263	13.393
ProbeTrack15	11	ProbeTrack	15.0	SCS215a	20120216.163332	20120216.164722	8	0.013328	60	10	60-180	60	111	GapExp	BigFlash	0	111	2	3	0	distractor	1	482	759	113411	13.328	13.012	13.624
ProbeTrack15	11	ProbeTrack	15.0	SCS215a	20120216.163332	20120216.164728	8	0.013328	60	10	60-180	60	153	GapExp	BigFlash	0	112	2	0	1	target	1	347	827	114238	13.328	13.088	13.567
ProbeTrack15	11	ProbeTrack	15.0	SCS215a	20120216.163332	20120216.164735	8	0.013328	60	10	60-180	60	62	GapExp	BigFlash	0	113	2	3	1	target	1	366	817	115055	13.328	13.307	13.346
ProbeTrack15	11	ProbeTrack	15.0	SCS215a	20120216.163332	20120216.164741	8	0.013328	60	10	60-180	60	172	GapExp	BigFlash	0	114	2	30	0	target	0	352	-1000	114055	13.328	12.981	13.702
ProbeTrack15	11	ProbeTrack	15.0	SCS215a	20120216.163332	20120216.164749	8	0.013328	60	10	60-180	60	96	GapExp	BigFlash	0	115	2	30	1	target	1	317	842	114897	13.328	13.304	13.359
ProbeTrack15	11	ProbeTrack	15.0	SCS215a	20120216.163332	20120216.164758	8	0.013328	60	10	60-180	60	61	GapExp	BigFlash	0	116	2	3	1	target	1	303	849	115746	13.328	12.911	13.744
ProbeTrack15	11	ProbeTrack	15.0	SCS215a	20120216.163332	20120216.164804	8	0.013328	60	10	60-180	60	167	GapExp	BigFlash	0	117	2	3	0	distractor	1	471	765	116511	13.328	13.296	13.372
ProbeTrack15	11	ProbeTrack	15.0	SCS215a	20120216.163332	20120216.164812	8	0.013328	60	10	60-180	60	64	GapExp	BigFlash	0	118	2	0	1	target	1	340	830	117341	13.328	13.307	13.342
ProbeTrack15	11	ProbeTrack	15.0	SCS215a	20120216.163332	20120216.164817	8	0.013328	60	10	60-180	60	139	GapExp	BigFlash	0	119	2	3	0	distractor	1	337	832	118173	13.328	13.162	13.494
ProbeTrack15	11	ProbeTrack	15.0	SCS215a	20120216.163332	20120216.164823	8	0.013328	60	10	60-180	60	61	GapExp	BigFlash	0	120	2	30	0	distractor	1	416	792	118965	13.328	13.114	13.554
ProbeTrack15	11	ProbeTrack	15.0	SCS215a	20120216.163332	20120216.164829	8	0.013328	60	10	60-180	60	93	GapExp	BigFlash	0	121	2	0	1	target	1	285	858	119823	13.328	13.099	13.544
ProbeTrack15	11	ProbeTrack	15.0	SCS215a	20120216.163332	20120216.164850	8	0.013328	60	10	60-180	60	179	GapExp	BigFlash	0	122	2	1	0	distractor	1	431	785	120608	13.328	13.308	13.352
ProbeTrack15	11	ProbeTrack	15.0	SCS215a	20120216.163332	20120216.164858	8	0.013328	60	10	60-180	60	109	GapExp	BigFlash	0	123	2	30	1	target	1	391	805	121413	13.328	13.048	13.638
ProbeTrack15	11	ProbeTrack	15.0	SCS215a	20120216.163332	20120216.164905	8	0.013328	60	10	60-180	60	74	GapExp	BigFlash	0	124	2	3	1	target	1	327	837	122250	13.328	13.108	13.543
ProbeTrack15	11	ProbeTrack	15.0	SCS215a	20120216.163332	20120216.164911	8	0.013328	60	10	60-180	60	133	GapExp	BigFlash	0	125	2	3	0	distractor	1	343	829	123079	13.328	12.927	13.749
ProbeTrack15	11	ProbeTrack	15.0	SCS215a	20120216.163332	20120216.164917	8	0.013328	60	10	60-180	60	171	GapExp	BigFlash	0	126	2	1	1	target	1	282	859	123938	13.328	12.872	13.792
ProbeTrack15	11	ProbeTrack	15.0	SCS215a	20120216.163332	20120216.164925	8	0.013328	60	10	60-180	60	98	GapExp	BigFlash	0	127	2	1	0	distractor	1	366	817	124755	13.328	13.105	13.557
ProbeTrack15	11	ProbeTrack	15.0	SCS215a	20120216.163332	20120216.164930	8	0.013328	60	10	60-180	60	163	GapExp	BigFlash	0	128	2	0	0	distractor	1	399	801	125556	13.328	12.797	13.866
ProbeTrack15	11	ProbeTrack	15.0	SCS215a	20120216.163332	20120216.164937	8	0.013328	60	10	60-180	60	131	GapExp	BigFlash	0	129	2	30	1	target	1	319	841	126397	13.328	13.093	13.564
ProbeTrack15	11	ProbeTrack	15.0	SCS215a	20120216.163332	20120216.164945	8	0.013328	60	10	60-180	60	160	GapExp	BigFlash	0	130	2	1	1	target	1	324	838	127235	13.328	13.104	13.556
ProbeTrack15	11	ProbeTrack	15.0	SCS215a	20120216.163332	20120216.164952	8	0.013328	60	10	60-180	60	90	GapExp	BigFlash	0	131	2	1	0	distractor	1	373	814	128049	13.328	12.884	13.772
ProbeTrack15	11	ProbeTrack	15.0	SCS215a	20120216.163332	20120216.164959	8	0.013328	60	10	60-180	60	120	GapExp	BigFlash	0	132	2	0	0	distractor	1	388	806	128855	13.328	13.303	13.351
ProbeTrack15	11	ProbeTrack	15.0	SCS215a	20120216.163332	20120216.165005	8	0.013328	60	10	60-180	60	86	GapExp	BigFlash	0	133	2	3	0	distractor	1	353	824	129679	13.328	13.197	13.454
ProbeTrack15	11	ProbeTrack	15.0	SCS215a	20120216.163332	20120216.165011	8	0.013328	60	10	60-180	60	105	GapExp	BigFlash	0	134	2	0	1	distractor	0	310	-1000	128679	13.328	13.310	13.345
ProbeTrack15	11	ProbeTrack	15.0	SCS215a	20120216.163332	20120216.165017	8	0.013328	60	10	60-180	60	132	GapExp	BigFlash	0	135	2	3	0	distractor	1	391	805	129484	13.328	13.306	13.347
ProbeTrack15	11	ProbeTrack	15.0	SCS215a	20120216.163332	20120216.165025	8	0.013328	60	10	60-180	60	164	GapExp	BigFlash	0	136	2	1	1	target	1	364	818	130302	13.328	13.289	13.362
ProbeTrack15	11	ProbeTrack	15.0	SCS215a	20120216.163332	20120216.165032	8	0.013328	60	10	60-180	60	152	GapExp	BigFlash	0	137	2	0	0	distractor	1	389	806	131108	13.328	13.308	13.355
ProbeTrack15	11	ProbeTrack	15.0	SCS215a	20120216.163332	20120216.165039	8	0.013328	60	10	60-180	60	180	GapExp	BigFlash	0	138	2	1	0	distractor	1	409	796	131904	13.328	13.305	13.349
ProbeTrack15	11	ProbeTrack	15.0	SCS215a	20120216.163332	20120216.165046	8	0.013328	60	10	60-180	60	132	GapExp	BigFlash	0	139	2	1	1	target	1	352	824	132728	13.328	13.307	13.343
ProbeTrack15	11	ProbeTrack	15.0	SCS215a	20120216.163332	20120216.165052	8	0.013328	60	10	60-180	60	158	GapExp	BigFlash	0	140	2	3	1	target	1	321	840	133568	13.328	13.309	13.344
ProbeTrack15	11	ProbeTrack	15.0	SCS215a	20120216.163332	20120216.165059	8	0.013328	60	10	60-180	60	144	GapExp	BigFlash	0	141	2	0	0	distractor	1	387	807	134375	13.328	12.875	13.781
ProbeTrack15	11	ProbeTrack	15.0	SCS215a	20120216.163332	20120216.165106	8	0.013328	60	10	60-180	60	98	GapExp	BigFlash	0	142	2	1	1	target	1	318	841	135216	13.328	13.298	13.349
ProbeTrack15	11	ProbeTrack	15.0	SCS215a	20120216.163332	20120216.165112	8	0.013328	60	10	60-180	60	122	GapExp	BigFlash	0	143	2	1	0	distractor	1	417	792	136008	13.328	12.926	13.724
ProbeTrack15	11	ProbeTrack	15.0	SCS215a	20120216.163332	20120216.165119	8	0.013328	60	10	60-180	60	64	GapExp	BigFlash	0	144	2	0	1	target	1	327	837	136845	13.328	12.862	13.799
ProbeTrack15	11	ProbeTrack	15.0	SCS215a	20120216.163332	20120216.165124	8	0.013328	60	10	60-180	60	166	GapExp	BigFlash	0	145	2	3	1	target	1	369	816	137661	13.328	12.898	13.758
ProbeTrack15	11	ProbeTrack	15.0	SCS215a	20120216.163332	20120216.165131	8	0.013328	60	10	60-180	60	143	GapExp	BigFlash	0	146	2	3	1	target	1	252	874	138535	13.328	13.103	13.567
ProbeTrack15	11	ProbeTrack	15.0	SCS215a	20120216.163332	20120216.165138	8	0.013328	60	10	60-180	60	75	GapExp	BigFlash	0	147	2	1	1	target	1	352	824	139359	13.328	13.307	13.345
ProbeTrack15	11	ProbeTrack	15.0	SCS215a	20120216.163332	20120216.165143	8	0.013328	60	10	60-180	60	145	GapExp	BigFlash	0	148	2	30	0	distractor	1	445	778	140137	13.328	13.212	13.451
ProbeTrack15	11	ProbeTrack	15.0	SCS215a	20120216.163332	20120216.165150	8	0.013328	60	10	60-180	60	114	GapExp	BigFlash	0	149	2	30	0	distractor	1	364	818	140955	13.328	12.877	13.766
ProbeTrack15	11	ProbeTrack	15.0	SCS215a	20120216.163332	20120216.165157	8	0.013328	60	10	60-180	60	85	GapExp	BigFlash	0	150	2	30	1	target	1	361	820	141775	13.328	12.898	13.761
ProbeTrack15	11	ProbeTrack	15.0	SCS215a	20120216.163332	20120216.165203	8	0.013328	60	10	60-180	60	127	GapExp	BigFlash	0	151	2	30	1	target	1	300	850	142625	13.328	13.081	13.560
ProbeTrack15	11	ProbeTrack	15.0	SCS215a	20120216.163332	20120216.165210	8	0.013328	60	10	60-180	60	164	GapExp	BigFlash	0	152	2	0	0	distractor	1	470	765	143390	13.328	13.306	13.354
ProbeTrack15	11	ProbeTrack	15.0	SCS215a	20120216.163332	20120216.165217	8	0.013328	60	10	60-180	60	83	GapExp	BigFlash	0	153	2	3	1	target	1	308	846	144236	13.328	13.252	13.403
ProbeTrack15	11	ProbeTrack	15.0	SCS215a	20120216.163332	20120216.165222	8	0.013328	60	10	60-180	60	169	GapExp	BigFlash	0	154	2	0	0	distractor	1	404	798	145034	13.328	13.111	13.549
ProbeTrack15	11	ProbeTrack	15.0	SCS215a	20120216.163332	20120216.165229	8	0.013328	60	10	60-180	60	144	GapExp	BigFlash	0	155	2	0	1	target	1	317	842	145876	13.328	13.093	13.566
ProbeTrack15	11	ProbeTrack	15.0	SCS215a	20120216.163332	20120216.165235	8	0.013328	60	10	60-180	60	144	GapExp	BigFlash	0	156	2	30	1	target	1	309	846	146722	13.328	12.898	13.745
ProbeTrack15	11	ProbeTrack	15.0	SCS215a	20120216.163332	20120216.165242	8	0.013328	60	10	60-180	60	102	GapExp	BigFlash	0	157	2	1	1	target	1	291	855	147577	13.328	13.308	13.344
ProbeTrack15	11	ProbeTrack	15.0	SCS215a	20120216.163332	20120216.165248	8	0.013328	60	10	60-180	60	160	GapExp	BigFlash	0	158	2	1	0	distractor	1	405	798	148375	13.328	12.980	13.680
ProbeTrack15	11	ProbeTrack	15.0	SCS215a	20120216.163332	20120216.165254	8	0.013328	60	10	60-180	60	73	GapExp	BigFlash	0	159	2	3	0	distractor	1	373	814	149189	13.328	13.026	13.631
ProbeTrack15	11	ProbeTrack	15.0	SCS215a	20120216.163332	20120216.165300	8	0.013328	60	10	60-180	60	83	GapExp	BigFlash	0	160	2	3	1	target	1	331	835	150024	13.328	13.078	13.350
ProbeTrack15	11	ProbeTrack	15.0	SCS215a	20120216.163332	20120216.165305	8	0.013328	60	10	60-180	60	110	GapExp	BigFlash	0	161	2	3	1	target	1	296	852	150876	13.328	13.096	13.547
ProbeTrack15	11	ProbeTrack	15.0	SCS215a	20120216.163332	20120216.165338	8	0.013328	60	10	60-180	60	100	GapExp	BigFlash	0	162	2	1	0	distractor	1	485	758	151634	13.328	13.085	13.557
ProbeTrack15	11	ProbeTrack	15.0	SCS215a	20120216.163332	20120216.165344	8	0.013328	60	10	60-180	60	85	GapExp	BigFlash	0	163	2	1	1	target	1	18037	0	151634	13.328	13.105	13.538
ProbeTrack15	11	ProbeTrack	15.0	SCS215a	20120216.163332	20120216.165407	8	0.013328	60	10	60-180	60	145	GapExp	BigFlash	0	164	2	30	0	distractor	1	426	787	152421	13.328	13.007	13.643
ProbeTrack15	11	ProbeTrack	15.0	SCS215a	20120216.163332	20120216.165421	8	0.013328	60	10	60-180	60	121	GapExp	BigFlash	0	165	2	1	0	distractor	1	356	822	153243	13.328	13.103	13.559
ProbeTrack15	11	ProbeTrack	15.0	SCS215a	20120216.163332	20120216.165427	8	0.013328	60	10	60-180	60	71	GapExp	BigFlash	0	166	2	0	1	target	1	305	848	154091	13.328	13.098	13.566
ProbeTrack15	11	ProbeTrack	15.0	SCS215a	20120216.163332	20120216.165432	8	0.013328	60	10	60-180	60	80	GapExp	BigFlash	0	167	2	30	0	distractor	1	413	794	154885	13.328	13.096	13.560
ProbeTrack15	11	ProbeTrack	15.0	SCS215a	20120216.163332	20120216.165439	8	0.013328	60	10	60-180	60	94	GapExp	BigFlash	0	168	2	3	0	distractor	1	409	796	155681	13.328	12.887	13.800
ProbeTrack15	11	ProbeTrack	15.0	SCS215a	20120216.163332	20120216.165445	8	0.013328	60	10	60-180	60	106	GapExp	BigFlash	0	169	2	30	1	target	1	343	829	156510	13.328	13.306	13.345
ProbeTrack15	11	ProbeTrack	15.0	SCS215a	20120216.163332	20120216.165451	8	0.013328	60	10	60-180	60	145	GapExp	BigFlash	0	170	2	3	1	target	1	415	793	157303	13.328	13.270	13.380
ProbeTrack15	11	ProbeTrack	15.0	SCS215a	20120216.163332	20120216.165458	8	0.013328	60	10	60-180	60	165	GapExp	BigFlash	0	171	2	1	0	distractor	1	429	786	158089	13.328	13.307	13.350
ProbeTrack15	11	ProbeTrack	15.0	SCS215a	20120216.163332	20120216.165505	8	0.013328	60	10	60-180	60	123	GapExp	BigFlash	0	172	2	1	0	distractor	1	413	794	158883	13.328	13.307	13.343
ProbeTrack15	11	ProbeTrack	15.0	SCS215a	20120216.163332	20120216.165512	8	0.013328	60	10	60-180	60	132	GapExp	BigFlash	0	173	2	0	1	target	1	341	830	159713	13.328	12.998	13.661
ProbeTrack15	11	ProbeTrack	15.0	SCS215a	20120216.163332	20120216.165518	8	0.013328	60	10	60-180	60	168	GapExp	BigFlash	0	174	2	30	0	distractor	1	415	793	160506	13.328	13.237	13.420
ProbeTrack15	11	ProbeTrack	15.0	SCS215a	20120216.163332	20120216.165526	8	0.013328	60	10	60-180	60	174	GapExp	BigFlash	0	175	2	0	1	target	1	311	845	161351	13.328	13.302	13.383
ProbeTrack15	11	ProbeTrack	15.0	SCS215a	20120216.163332	20120216.165532	8	0.013328	60	10	60-180	60	156	GapExp	BigFlash	0	176	2	30	1	target	1	266	867	162218	13.328	13.311	13.347
ProbeTrack15	11	ProbeTrack	15.0	SCS215a	20120216.163332	20120216.165539	8	0.013328	60	10	60-180	60	157	GapExp	BigFlash	0	177	2	0	0	distractor	1	353	824	163042	13.328	13.305	13.345
ProbeTrack15	11	ProbeTrack	15.0	SCS215a	20120216.163332	20120216.165546	8	0.013328	60	10	60-180	60	139	GapExp	BigFlash	0	178	2	30	1	target	1	388	806	163848	13.328	13.228	13.427
ProbeTrack15	11	ProbeTrack	15.0	SCS215a	20120216.163332	20120216.165553	8	0.013328	60	10	60-180	60	153	GapExp	BigFlash	0	179	2	1	1	target	1	284	858	164706	13.328	12.885	13.758
ProbeTrack15	11	ProbeTrack	15.0	SCS215a	20120216.163332	20120216.165600	8	0.013328	60	10	60-180	60	140	GapExp	BigFlash	0	180	2	30	0	distractor	1	446	777	165483	13.328	12.884	13.776
ProbeTrack15	11	ProbeTrack	15.0	SCS215a	20120216.163332	20120216.165607	8	0.013328	60	10	60-180	60	128	GapExp	BigFlash	0	181	2	30	0	distractor	1	376	812	166295	13.328	13.308	13.347
ProbeTrack15	11	ProbeTrack	15.0	SCS215a	20120216.163332	20120216.165614	8	0.013328	60	10	60-180	60	137	GapExp	BigFlash	0	182	2	1	1	target	1	313	844	167139	13.328	12.918	13.724
ProbeTrack15	11	ProbeTrack	15.0	SCS215a	20120216.163332	20120216.165620	8	0.013328	60	10	60-180	60	153	GapExp	BigFlash	0	183	2	1	1	target	1	302	849	167988	13.328	13.103	13.553
ProbeTrack15	11	ProbeTrack	15.0	SCS215a	20120216.163332	20120216.165627	8	0.013328	60	10	60-180	60	156	GapExp	BigFlash	0	184	2	0	1	target	1	296	852	168840	13.328	12.963	13.673
ProbeTrack15	11	ProbeTrack	15.0	SCS215a	20120216.163332	20120216.165634	8	0.013328	60	10	60-180	60	67	GapExp	BigFlash	0	185	2	3	1	target	1	332	834	169674	13.328	12.885	13.753
ProbeTrack15	11	ProbeTrack	15.0	SCS215a	20120216.163332	20120216.165639	8	0.013328	60	10	60-180	60	145	GapExp	BigFlash	0	186	2	30	1	target	1	307	847	170521	13.328	12.894	13.769
ProbeTrack15	11	ProbeTrack	15.0	SCS215a	20120216.163332	20120216.165646	8	0.013328	60	10	60-180	60	122	GapExp	BigFlash	0	187	2	30	0	distractor	1	381	810	171331	13.328	13.085	13.565
ProbeTrack15	11	ProbeTrack	15.0	SCS215a	20120216.163332	20120216.165652	8	0.013328	60	10	60-180	60	64	GapExp	BigFlash	0	188	2	1	1	target	1	300	850	172181	13.328	13.310	13.345
ProbeTrack15	11	ProbeTrack	15.0	SCS215a	20120216.163332	20120216.165657	8	0.013328	60	10	60-180	60	67	GapExp	BigFlash	0	189	2	1	0	distractor	1	339	831	173012	13.328	13.310	13.344
ProbeTrack15	11	ProbeTrack	15.0	SCS215a	20120216.163332	20120216.165703	8	0.013328	60	10	60-180	60	66	GapExp	BigFlash	0	190	2	0	0	target	0	535	-1000	172012	13.328	13.108	13.347
ProbeTrack15	11	ProbeTrack	15.0	SCS215a	20120216.163332	20120216.165709	8	0.013328	60	10	60-180	60	62	GapExp	BigFlash	0	191	2	1	0	distractor	1	464	768	172780	13.328	12.927	13.730
ProbeTrack15	11	ProbeTrack	15.0	SCS215a	20120216.163332	20120216.165714	8	0.013328	60	10	60-180	60	99	GapExp	BigFlash	0	192	2	0	0	distractor	1	430	785	173565	13.328	13.073	13.586
ProbeTrack15	11	ProbeTrack	15.0	SCS215a	20120216.163332	20120216.165720	8	0.013328	60	10	60-180	60	88	GapExp	BigFlash	0	193	2	0	1	target	1	334	833	174398	13.328	13.308	13.348
ProbeTrack15	11	ProbeTrack	15.0	SCS215a	20120216.163332	20120216.165725	8	0.013328	60	10	60-180	60	120	GapExp	BigFlash	0	194	2	1	0	distractor	1	371	815	175213	13.328	13.308	13.355
ProbeTrack15	11	ProbeTrack	15.0	SCS215a	20120216.163332	20120216.165731	8	0.013328	60	10	60-180	60	139	GapExp	BigFlash	0	195	2	0	0	target	0	322	-1000	174213	13.328	13.301	13.362
ProbeTrack15	11	ProbeTrack	15.0	SCS215a	20120216.163332	20120216.165737	8	0.013328	60	10	60-180	60	123	GapExp	BigFlash	0	196	2	3	0	distractor	1	362	819	175032	13.328	13.109	13.549
ProbeTrack15	11	ProbeTrack	15.0	SCS215a	20120216.163332	20120216.165744	8	0.013328	60	10	60-180	60	154	GapExp	BigFlash	0	197	2	0	0	distractor	1	377	812	175844	13.328	12.890	13.768
ProbeTrack15	11	ProbeTrack	15.0	SCS215a	20120216.163332	20120216.165750	8	0.013328	60	10	60-180	60	81	GapExp	BigFlash	0	198	2	30	0	early	-4	-3368	-1000	174844	13.328	13.046	13.611
ProbeTrack15	11	ProbeTrack	15.0	SCS215a	20120216.163332	20120216.165756	8	0.013328	60	10	60-180	60	140	GapExp	BigFlash	0	199	2	1	0	target	0	362	-1000	173844	13.328	12.940	13.717
ProbeTrack15	11	ProbeTrack	15.0	SCS215a	20120216.163332	20120216.165807	8	0.013328	60	10	60-180	60	63	GapExp	BigFlash	0	200	2	30	1	target	1	482	759	174603	13.328	13.100	13.570
ProbeTrack15	11	ProbeTrack	15.0	SCS215a	20120216.170112	20120216.170132	8	0.013328	60	10	60-180	60	170	GapPrac	SmallFlash	1	1	2	30	1	target	1	350	825	175428	13.370	13.099	13.557
ProbeTrack15	11	ProbeTrack	15.0	SCS215a	20120216.170112	20120216.170142	8	0.013328	60	10	60-180	60	103	GapPrac	SmallFlash	1	2	2	1	0	distractor	1	425	788	176216	13.328	13.096	13.546
ProbeTrack15	11	ProbeTrack	15.0	SCS215a	20120216.170112	20120216.170148	8	0.013328	60	10	60-180	60	141	GapPrac	SmallFlash	1	3	2	0	0	distractor	1	405	798	177014	13.328	12.887	13.791
ProbeTrack15	11	ProbeTrack	15.0	SCS215a	20120216.170112	20120216.170154	8	0.013328	60	10	60-180	60	79	GapPrac	SmallFlash	1	4	2	3	0	distractor	1	346	827	177841	13.328	13.099	13.556
ProbeTrack15	11	ProbeTrack	15.0	SCS215a	20120216.170112	20120216.170200	8	0.013328	60	10	60-180	60	63	GapPrac	SmallFlash	1	5	2	3	1	target	1	374	813	178654	13.328	12.957	13.732
ProbeTrack15	11	ProbeTrack	15.0	SCS215a	20120216.170112	20120216.170205	8	0.013328	60	10	60-180	60	91	GapPrac	SmallFlash	1	6	2	3	0	distractor	1	336	832	179486	13.328	13.311	13.347
ProbeTrack15	11	ProbeTrack	15.0	SCS215a	20120216.170112	20120216.170211	8	0.013328	60	10	60-180	60	77	GapPrac	SmallFlash	1	7	2	30	0	distractor	1	368	816	180302	13.328	12.851	13.812
ProbeTrack15	11	ProbeTrack	15.0	SCS215a	20120216.170112	20120216.170217	8	0.013328	60	10	60-180	60	90	GapPrac	SmallFlash	1	8	2	30	0	distractor	1	378	811	181113	13.328	13.097	13.545
ProbeTrack15	11	ProbeTrack	15.0	SCS215a	20120216.170112	20120216.170223	8	0.013328	60	10	60-180	60	79	GapPrac	SmallFlash	1	9	2	1	0	distractor	1	356	822	181935	13.328	13.096	13.557
ProbeTrack15	11	ProbeTrack	15.0	SCS215a	20120216.170112	20120216.170229	8	0.013328	60	10	60-180	60	162	GapPrac	SmallFlash	1	10	2	0	0	distractor	1	539	731	182666	13.328	12.873	13.786
ProbeTrack15	11	ProbeTrack	15.0	SCS215a	20120216.170112	20120216.170236	8	0.013328	60	10	60-180	60	113	GapPrac	SmallFlash	1	11	2	3	1	target	1	369	816	183482	13.326	12.935	13.722
ProbeTrack15	11	ProbeTrack	15.0	SCS215a	20120216.170112	20120216.170241	8	0.013328	60	10	60-180	60	166	GapPrac	SmallFlash	1	12	2	0	0	distractor	1	322	839	184321	13.328	12.918	13.718
ProbeTrack15	11	ProbeTrack	15.0	SCS215a	20120216.170112	20120216.170249	8	0.013328	60	10	60-180	60	65	GapPrac	SmallFlash	1	13	2	3	0	distractor	1	310	845	185166	13.328	12.875	13.790
ProbeTrack15	11	ProbeTrack	15.0	SCS215a	20120216.170112	20120216.170254	8	0.013328	60	10	60-180	60	152	GapPrac	SmallFlash	1	14	2	0	1	target	1	329	836	186002	13.328	13.000	13.654
ProbeTrack15	11	ProbeTrack	15.0	SCS215a	20120216.170112	20120216.170301	8	0.013328	60	10	60-180	60	178	GapPrac	SmallFlash	1	15	2	0	1	target	1	324	838	186840	13.328	13.203	13.452
ProbeTrack15	11	ProbeTrack	15.0	SCS215a	20120216.170112	20120216.170308	8	0.013328	60	10	60-180	60	124	GapPrac	SmallFlash	1	16	2	1	1	target	1	309	846	187686	13.328	13.299	13.345
ProbeTrack15	11	ProbeTrack	15.0	SCS215a	20120216.170112	20120216.170314	8	0.013328	60	10	60-180	60	69	GapPrac	SmallFlash	1	17	2	1	1	target	1	297	852	188538	13.328	13.308	13.348
ProbeTrack15	11	ProbeTrack	15.0	SCS215a	20120216.170112	20120216.170320	8	0.013328	60	10	60-180	60	93	GapPrac	SmallFlash	1	18	2	30	1	target	1	396	802	189340	13.328	13.083	13.566
ProbeTrack15	11	ProbeTrack	15.0	SCS215a	20120216.170112	20120216.170326	8	0.013328	60	10	60-180	60	118	GapPrac	SmallFlash	1	19	2	1	0	distractor	1	382	809	190149	13.328	13.099	13.565
ProbeTrack15	11	ProbeTrack	15.0	SCS215a	20120216.170112	20120216.170333	8	0.013328	60	10	60-180	60	62	GapPrac	SmallFlash	1	20	2	30	1	target	1	347	827	190976	13.328	13.109	13.546
ProbeTrack15	11	ProbeTrack	15.0	SCS215a	20120216.170424	20120216.170434	8	0.013328	60	10	60-180	60	141	GapExp	SmallFlash	1	1	2	3	0	distractor	1	364	818	191794	13.379	12.905	13.753
ProbeTrack15	11	ProbeTrack	15.0	SCS215a	20120216.170424	20120216.170447	8	0.013328	60	10	60-180	60	93	GapExp	SmallFlash	1	2	2	1	0	distractor	1	334	833	192627	13.328	13.308	13.346
ProbeTrack15	11	ProbeTrack	15.0	SCS215a	20120216.170424	20120216.170453	8	0.013328	60	10	60-180	60	165	GapExp	SmallFlash	1	3	2	1	1	target	1	310	845	193472	13.326	12.867	13.356
ProbeTrack15	11	ProbeTrack	15.0	SCS215a	20120216.170424	20120216.170459	8	0.013328	60	10	60-180	60	87	GapExp	SmallFlash	1	4	2	30	0	distractor	1	390	805	194277	13.328	12.879	13.780
ProbeTrack15	11	ProbeTrack	15.0	SCS215a	20120216.170424	20120216.170505	8	0.013328	60	10	60-180	60	117	GapExp	SmallFlash	1	5	2	3	1	target	1	293	854	195131	13.328	12.889	13.763
ProbeTrack15	11	ProbeTrack	15.0	SCS215a	20120216.170424	20120216.170511	8	0.013328	60	10	60-180	60	95	GapExp	SmallFlash	1	6	2	0	1	target	1	318	841	195972	13.328	13.114	13.557
ProbeTrack15	11	ProbeTrack	15.0	SCS215a	20120216.170424	20120216.170517	8	0.013328	60	10	60-180	60	81	GapExp	SmallFlash	1	7	2	0	0	distractor	1	367	817	196789	13.328	13.308	13.344
ProbeTrack15	11	ProbeTrack	15.0	SCS215a	20120216.170424	20120216.170523	8	0.013328	60	10	60-180	60	101	GapExp	SmallFlash	1	8	2	30	1	target	1	303	849	197638	13.328	12.934	13.722
ProbeTrack15	11	ProbeTrack	15.0	SCS215a	20120216.170424	20120216.170529	8	0.013328	60	10	60-180	60	152	GapExp	SmallFlash	0	9	2	30	1	target	1	290	855	198493	13.328	13.301	13.349
ProbeTrack15	11	ProbeTrack	15.0	SCS215a	20120216.170424	20120216.170536	8	0.013328	60	10	60-180	60	131	GapExp	SmallFlash	0	10	2	0	1	target	1	274	863	199356	13.328	13.306	13.351
ProbeTrack15	11	ProbeTrack	15.0	SCS215a	20120216.170424	20120216.170542	8	0.013328	60	10	60-180	60	113	GapExp	SmallFlash	0	11	2	3	0	distractor	1	328	836	200192	13.328	13.296	13.353
ProbeTrack15	11	ProbeTrack	15.0	SCS215a	20120216.170424	20120216.170547	8	0.013328	60	10	60-180	60	81	GapExp	SmallFlash	0	12	2	3	1	target	1	315	843	201035	13.328	12.790	13.853
ProbeTrack15	11	ProbeTrack	15.0	SCS215a	20120216.170424	20120216.170553	8	0.013328	60	10	60-180	60	177	GapExp	SmallFlash	0	13	2	30	1	target	1	300	850	201885	13.328	13.100	13.556
ProbeTrack15	11	ProbeTrack	15.0	SCS215a	20120216.170424	20120216.170601	8	0.013328	60	10	60-180	60	136	GapExp	SmallFlash	0	14	2	0	0	distractor	1	385	808	202693	13.328	13.066	13.600
ProbeTrack15	11	ProbeTrack	15.0	SCS215a	20120216.170424	20120216.170607	8	0.013328	60	10	60-180	60	75	GapExp	SmallFlash	0	15	2	30	0	distractor	1	588	706	203399	13.328	13.299	13.355
ProbeTrack15	11	ProbeTrack	15.0	SCS215a	20120216.170424	20120216.170612	8	0.013328	60	10	60-180	60	168	GapExp	SmallFlash	0	16	2	30	1	target	1	306	847	204246	13.328	12.890	13.757
ProbeTrack15	11	ProbeTrack	15.0	SCS215a	20120216.170424	20120216.170619	8	0.013328	60	10	60-180	60	92	GapExp	SmallFlash	0	17	2	0	1	target	1	315	843	205089	13.328	13.056	13.586
ProbeTrack15	11	ProbeTrack	15.0	SCS215a	20120216.170424	20120216.170625	8	0.013328	60	10	60-180	60	180	GapExp	SmallFlash	0	18	2	1	0	distractor	1	356	822	205911	13.328	13.025	13.632
ProbeTrack15	11	ProbeTrack	15.0	SCS215a	20120216.170424	20120216.170632	8	0.013328	60	10	60-180	60	160	GapExp	SmallFlash	0	19	2	0	0	distractor	1	353	824	206735	13.328	13.310	13.347
ProbeTrack15	11	ProbeTrack	15.0	SCS215a	20120216.170424	20120216.170638	8	0.013328	60	10	60-180	60	160	GapExp	SmallFlash	0	20	2	3	1	target	1	268	866	207601	13.328	13.291	13.353
ProbeTrack15	11	ProbeTrack	15.0	SCS215a	20120216.170424	20120216.170645	8	0.013328	60	10	60-180	60	177	GapExp	SmallFlash	0	21	2	30	1	target	1	256	872	208473	13.328	13.307	13.351
ProbeTrack15	11	ProbeTrack	15.0	SCS215a	20120216.170424	20120216.170652	8	0.013328	60	10	60-180	60	90	GapExp	SmallFlash	0	22	2	0	1	distractor	0	312	-1000	207473	13.328	13.273	13.368
ProbeTrack15	11	ProbeTrack	15.0	SCS215a	20120216.170424	20120216.170658	8	0.013328	60	10	60-180	60	170	GapExp	SmallFlash	0	23	2	30	1	target	1	285	858	208331	13.328	12.893	13.764
ProbeTrack15	11	ProbeTrack	15.0	SCS215a	20120216.170424	20120216.170707	8	0.013328	60	10	60-180	60	78	GapExp	SmallFlash	0	24	2	3	0	distractor	1	516	742	209073	13.328	13.312	13.344
ProbeTrack15	11	ProbeTrack	15.0	SCS215a	20120216.170424	20120216.170713	8	0.013328	60	10	60-180	60	167	GapExp	SmallFlash	0	25	2	1	1	target	1	317	842	209915	13.328	12.889	13.761
ProbeTrack15	11	ProbeTrack	15.0	SCS215a	20120216.170424	20120216.170720	8	0.013328	60	10	60-180	60	123	GapExp	SmallFlash	0	26	2	0	0	distractor	1	562	719	210634	13.328	13.307	13.349
ProbeTrack15	11	ProbeTrack	15.0	SCS215a	20120216.170424	20120216.170729	8	0.013328	60	10	60-180	60	138	GapExp	SmallFlash	0	27	2	1	1	target	1	370	815	211449	13.328	13.307	13.346
ProbeTrack15	11	ProbeTrack	15.0	SCS215a	20120216.170424	20120216.170735	8	0.013328	60	10	60-180	60	99	GapExp	SmallFlash	0	28	2	1	1	target	1	322	839	212288	13.328	13.301	13.343
ProbeTrack15	11	ProbeTrack	15.0	SCS215a	20120216.170424	20120216.170741	8	0.013328	60	10	60-180	60	175	GapExp	SmallFlash	0	29	2	0	0	distractor	1	397	802	213090	13.328	13.026	13.636
ProbeTrack15	11	ProbeTrack	15.0	SCS215a	20120216.170424	20120216.170747	8	0.013328	60	10	60-180	60	66	GapExp	SmallFlash	0	30	2	3	0	distractor	1	673	664	213754	13.328	12.848	13.815
ProbeTrack15	11	ProbeTrack	15.0	SCS215a	20120216.170424	20120216.170753	8	0.013328	60	10	60-180	60	109	GapExp	SmallFlash	0	31	2	3	1	target	1	412	794	214548	13.328	12.967	13.695
ProbeTrack15	11	ProbeTrack	15.0	SCS215a	20120216.170424	20120216.170800	8	0.013328	60	10	60-180	60	122	GapExp	SmallFlash	0	32	2	3	0	distractor	1	413	794	215342	13.328	13.090	13.565
ProbeTrack15	11	ProbeTrack	15.0	SCS215a	20120216.170424	20120216.170806	8	0.013328	60	10	60-180	60	133	GapExp	SmallFlash	0	33	2	30	0	distractor	1	397	802	216144	13.328	13.040	13.630
ProbeTrack15	11	ProbeTrack	15.0	SCS215a	20120216.170424	20120216.170812	8	0.013328	60	10	60-180	60	145	GapExp	SmallFlash	0	34	2	0	1	target	1	275	863	217007	13.328	12.990	13.666
ProbeTrack15	11	ProbeTrack	15.0	SCS215a	20120216.170424	20120216.170818	8	0.013328	60	10	60-180	60	132	GapExp	SmallFlash	0	35	2	1	0	distractor	1	422	789	217796	13.328	13.303	13.345
ProbeTrack15	11	ProbeTrack	15.0	SCS215a	20120216.170424	20120216.170825	8	0.013328	60	10	60-180	60	115	GapExp	SmallFlash	0	36	2	1	0	target	0	473	-1000	216796	13.328	13.305	13.348
ProbeTrack15	11	ProbeTrack	15.0	SCS215a	20120216.170424	20120216.170831	8	0.013328	60	10	60-180	60	105	GapExp	SmallFlash	0	37	2	30	1	target	1	289	856	217652	13.328	13.299	13.354
ProbeTrack15	11	ProbeTrack	15.0	SCS215a	20120216.170424	20120216.170838	8	0.013328	60	10	60-180	60	130	GapExp	SmallFlash	0	38	2	30	0	distractor	1	465	768	218420	13.329	12.919	13.742
ProbeTrack15	11	ProbeTrack	15.0	SCS215a	20120216.170424	20120216.170845	8	0.013328	60	10	60-180	60	99	GapExp	SmallFlash	0	39	2	0	1	target	1	333	834	219254	13.328	13.308	13.346
ProbeTrack15	11	ProbeTrack	15.0	SCS215a	20120216.170424	20120216.170851	8	0.013328	60	10	60-180	60	132	GapExp	SmallFlash	0	40	2	0	0	target	0	453	-1000	218254	13.328	13.309	13.346
ProbeTrack15	11	ProbeTrack	15.0	SCS215a	20120216.170424	20120216.170857	8	0.013328	60	10	60-180	60	105	GapExp	SmallFlash	0	41	2	1	0	distractor	1	437	782	219036	13.328	12.901	13.762
ProbeTrack15	11	ProbeTrack	15.0	SCS215a	20120216.170424	20120216.170904	8	0.013328	60	10	60-180	60	171	GapExp	SmallFlash	0	42	2	0	1	target	1	322	839	219875	13.328	13.307	13.346
ProbeTrack15	11	ProbeTrack	15.0	SCS215a	20120216.170424	20120216.170911	8	0.013328	60	10	60-180	60	80	GapExp	SmallFlash	0	43	2	1	1	target	1	414	793	220668	13.328	13.073	13.585
ProbeTrack15	11	ProbeTrack	15.0	SCS215a	20120216.170424	20120216.170916	8	0.013328	60	10	60-180	60	165	GapExp	SmallFlash	0	44	2	30	0	distractor	1	419	791	221459	13.328	13.099	13.551
ProbeTrack15	11	ProbeTrack	15.0	SCS215a	20120216.170424	20120216.170923	8	0.013328	60	10	60-180	60	76	GapExp	SmallFlash	0	45	2	30	0	distractor	1	413	794	222253	13.328	12.976	13.679
ProbeTrack15	11	ProbeTrack	15.0	SCS215a	20120216.170424	20120216.170929	8	0.013328	60	10	60-180	60	121	GapExp	SmallFlash	0	46	2	3	0	distractor	1	547	727	222980	13.328	12.855	13.810
ProbeTrack15	11	ProbeTrack	15.0	SCS215a	20120216.170424	20120216.170936	8	0.013328	60	10	60-180	60	164	GapExp	SmallFlash	0	47	2	30	0	target	0	499	-1000	221980	13.328	13.098	13.564
ProbeTrack15	11	ProbeTrack	15.0	SCS215a	20120216.170424	20120216.170943	8	0.013328	60	10	60-180	60	179	GapExp	SmallFlash	0	48	2	30	1	target	1	343	829	222809	13.328	13.093	13.556
ProbeTrack15	11	ProbeTrack	15.0	SCS215a	20120216.170424	20120216.170952	8	0.013328	60	10	60-180	60	117	GapExp	SmallFlash	0	49	2	1	0	distractor	1	437	782	223591	13.328	13.108	13.565
ProbeTrack15	11	ProbeTrack	15.0	SCS215a	20120216.170424	20120216.170958	8	0.013328	60	10	60-180	60	64	GapExp	SmallFlash	0	50	2	0	0	distractor	1	411	795	224386	13.328	13.308	13.346
ProbeTrack15	11	ProbeTrack	15.0	SCS215a	20120216.170424	20120216.171003	8	0.013328	60	10	60-180	60	119	GapExp	SmallFlash	0	51	2	30	1	target	1	434	783	225169	13.328	13.099	13.565
ProbeTrack15	11	ProbeTrack	15.0	SCS215a	20120216.170424	20120216.171010	8	0.013328	60	10	60-180	60	65	GapExp	SmallFlash	0	52	2	3	0	distractor	1	367	817	225986	13.328	13.308	13.344
ProbeTrack15	11	ProbeTrack	15.0	SCS215a	20120216.170424	20120216.171015	8	0.013328	60	10	60-180	60	158	GapExp	SmallFlash	0	53	2	1	1	target	1	353	824	226810	13.328	12.903	13.752
ProbeTrack15	11	ProbeTrack	15.0	SCS215a	20120216.170424	20120216.171022	8	0.013328	60	10	60-180	60	177	GapExp	SmallFlash	0	54	2	1	0	distractor	1	408	796	227606	13.328	13.309	13.349
ProbeTrack15	11	ProbeTrack	15.0	SCS215a	20120216.170424	20120216.171029	8	0.013328	60	10	60-180	60	110	GapExp	SmallFlash	0	55	2	1	0	distractor	1	376	812	228418	13.328	12.862	13.802
ProbeTrack15	11	ProbeTrack	15.0	SCS215a	20120216.170424	20120216.171034	8	0.013328	60	10	60-180	60	131	GapExp	SmallFlash	0	56	2	3	1	target	1	308	846	229264	13.328	13.147	13.502
ProbeTrack15	11	ProbeTrack	15.0	SCS215a	20120216.170424	20120216.171041	8	0.013328	60	10	60-180	60	133	GapExp	SmallFlash	0	57	2	30	1	target	1	355	823	230087	13.328	13.093	13.563
ProbeTrack15	11	ProbeTrack	15.0	SCS215a	20120216.170424	20120216.171048	8	0.013328	60	10	60-180	60	106	GapExp	SmallFlash	0	58	2	0	0	distractor	1	375	813	230900	13.328	13.032	13.610
ProbeTrack15	11	ProbeTrack	15.0	SCS215a	20120216.170424	20120216.171054	8	0.013328	60	10	60-180	60	175	GapExp	SmallFlash	0	59	2	1	0	distractor	1	339	831	231731	13.328	13.105	13.550
ProbeTrack15	11	ProbeTrack	15.0	SCS215a	20120216.170424	20120216.171100	8	0.013328	60	10	60-180	60	142	GapExp	SmallFlash	0	60	2	30	1	target	1	383	809	232540	13.328	13.112	13.557
ProbeTrack15	11	ProbeTrack	15.0	SCS215a	20120216.170424	20120216.171107	8	0.013328	60	10	60-180	60	99	GapExp	SmallFlash	0	61	2	30	0	distractor	1	430	785	233325	13.327	12.933	13.693
ProbeTrack15	11	ProbeTrack	15.0	SCS215a	20120216.170424	20120216.171114	8	0.013328	60	10	60-180	60	160	GapExp	SmallFlash	0	62	2	30	0	distractor	1	379	811	234136	13.328	12.874	13.783
ProbeTrack15	11	ProbeTrack	15.0	SCS215a	20120216.170424	20120216.171121	8	0.013328	60	10	60-180	60	175	GapExp	SmallFlash	0	63	2	0	1	target	1	351	825	234961	13.328	13.082	13.559
ProbeTrack15	11	ProbeTrack	15.0	SCS215a	20120216.170424	20120216.171127	8	0.013328	60	10	60-180	60	168	GapExp	SmallFlash	0	64	2	30	0	target	0	609	-1000	233961	13.328	12.860	13.790
ProbeTrack15	11	ProbeTrack	15.0	SCS215a	20120216.170424	20120216.171134	8	0.013328	60	10	60-180	60	106	GapExp	SmallFlash	0	65	2	0	0	distractor	1	358	821	234782	13.328	13.111	13.557
ProbeTrack15	11	ProbeTrack	15.0	SCS215a	20120216.170424	20120216.171143	8	0.013328	60	10	60-180	60	88	GapExp	SmallFlash	0	66	2	0	1	target	1	347	827	235609	13.328	12.848	13.808
ProbeTrack15	11	ProbeTrack	15.0	SCS215a	20120216.170424	20120216.171149	8	0.013328	60	10	60-180	60	80	GapExp	SmallFlash	0	67	2	0	1	distractor	0	312	-1000	234609	13.330	13.099	13.759
ProbeTrack15	11	ProbeTrack	15.0	SCS215a	20120216.170424	20120216.171155	8	0.013328	60	10	60-180	60	77	GapExp	SmallFlash	0	68	2	0	0	distractor	1	580	710	235319	13.328	13.311	13.345
ProbeTrack15	11	ProbeTrack	15.0	SCS215a	20120216.170424	20120216.171201	8	0.013328	60	10	60-180	60	63	GapExp	SmallFlash	0	69	2	0	0	distractor	1	515	743	236062	13.328	13.177	13.481
ProbeTrack15	11	ProbeTrack	15.0	SCS215a	20120216.170424	20120216.171206	8	0.013328	60	10	60-180	60	96	GapExp	SmallFlash	0	70	2	0	1	target	1	317	842	236904	13.328	12.925	13.733
ProbeTrack15	11	ProbeTrack	15.0	SCS215a	20120216.170424	20120216.171212	8	0.013328	60	10	60-180	60	65	GapExp	SmallFlash	0	71	2	30	0	distractor	1	600	700	237604	13.328	12.950	13.691
ProbeTrack15	11	ProbeTrack	15.0	SCS215a	20120216.170424	20120216.171217	8	0.013328	60	10	60-180	60	63	GapExp	SmallFlash	0	72	2	1	1	target	1	322	839	238443	13.328	13.311	13.349
ProbeTrack15	11	ProbeTrack	15.0	SCS215a	20120216.170424	20120216.171223	8	0.013328	60	10	60-180	60	166	GapExp	SmallFlash	0	73	2	1	0	distractor	1	373	814	239257	13.328	12.878	13.791
ProbeTrack15	11	ProbeTrack	15.0	SCS215a	20120216.170424	20120216.171229	8	0.013328	60	10	60-180	60	178	GapExp	SmallFlash	0	74	2	3	0	distractor	1	344	828	240085	13.328	12.918	13.746
ProbeTrack15	11	ProbeTrack	15.0	SCS215a	20120216.170424	20120216.171236	8	0.013328	60	10	60-180	60	115	GapExp	SmallFlash	0	75	2	0	0	distractor	1	372	814	240899	13.328	13.281	13.388
ProbeTrack15	11	ProbeTrack	15.0	SCS215a	20120216.170424	20120216.171242	8	0.013328	60	10	60-180	60	158	GapExp	SmallFlash	0	76	2	30	1	target	1	437	782	241681	13.328	12.885	13.776
ProbeTrack15	11	ProbeTrack	15.0	SCS215a	20120216.170424	20120216.171249	8	0.013328	60	10	60-180	60	94	GapExp	SmallFlash	0	77	2	1	0	distractor	1	400	800	242481	13.328	13.219	13.444
ProbeTrack15	11	ProbeTrack	15.0	SCS215a	20120216.170424	20120216.171255	8	0.013328	60	10	60-180	60	138	GapExp	SmallFlash	0	78	2	3	0	distractor	1	401	800	243281	13.328	12.863	13.348
ProbeTrack15	11	ProbeTrack	15.0	SCS215a	20120216.170424	20120216.171301	8	0.013328	60	10	60-180	60	149	GapExp	SmallFlash	0	79	2	30	1	target	1	332	834	244115	13.328	13.106	13.557
ProbeTrack15	11	ProbeTrack	15.0	SCS215a	20120216.170424	20120216.171308	8	0.013328	60	10	60-180	60	101	GapExp	SmallFlash	0	80	2	0	0	distractor	1	415	793	244908	13.328	12.948	13.707
ProbeTrack15	11	ProbeTrack	15.0	SCS215a	20120216.170424	20120216.171313	8	0.013328	60	10	60-180	60	146	GapExp	SmallFlash	0	81	2	1	1	target	1	421	790	245698	13.328	13.001	13.655
ProbeTrack15	11	ProbeTrack	15.0	SCS215a	20120216.170424	20120216.171320	8	0.013328	60	10	60-180	60	156	GapExp	SmallFlash	0	82	2	0	1	target	1	306	847	246545	13.328	13.306	13.345
ProbeTrack15	11	ProbeTrack	15.0	SCS215a	20120216.170424	20120216.171326	8	0.013328	60	10	60-180	60	128	GapExp	SmallFlash	0	83	2	1	0	target	0	315	-1000	245545	13.328	13.304	13.359
ProbeTrack15	11	ProbeTrack	15.0	SCS215a	20120216.170424	20120216.171332	8	0.013328	60	10	60-180	60	134	GapExp	SmallFlash	0	84	2	1	1	distractor	0	561	-1000	244545	13.328	12.919	13.751
ProbeTrack15	11	ProbeTrack	15.0	SCS215a	20120216.170424	20120216.171339	8	0.013328	60	10	60-180	60	171	GapExp	SmallFlash	0	85	2	1	1	target	1	352	824	245369	13.328	13.106	13.547
ProbeTrack15	11	ProbeTrack	15.0	SCS215a	20120216.170424	20120216.171347	8	0.013328	60	10	60-180	60	162	GapExp	SmallFlash	0	86	2	0	0	distractor	1	450	775	246144	13.328	13.107	13.556
ProbeTrack15	11	ProbeTrack	15.0	SCS215a	20120216.170424	20120216.171354	8	0.013328	60	10	60-180	60	121	GapExp	SmallFlash	0	87	2	0	1	target	1	410	795	246939	13.328	13.305	13.344
ProbeTrack15	11	ProbeTrack	15.0	SCS215a	20120216.170424	20120216.171401	8	0.013328	60	10	60-180	60	85	GapExp	SmallFlash	0	88	2	0	1	target	1	294	853	247792	13.328	13.004	13.639
ProbeTrack15	11	ProbeTrack	15.0	SCS215a	20120216.170424	20120216.171413	8	0.013328	60	10	60-180	60	164	GapExp	SmallFlash	0	89	2	3	0	distractor	1	532	734	248526	13.328	12.907	13.750
ProbeTrack15	11	ProbeTrack	15.0	SCS215a	20120216.170424	20120216.171419	8	0.013328	60	10	60-180	60	134	GapExp	SmallFlash	0	90	2	0	0	distractor	1	389	806	249332	13.328	13.307	13.344
ProbeTrack15	11	ProbeTrack	15.0	SCS215a	20120216.170424	20120216.171426	8	0.013328	60	10	60-180	60	74	GapExp	SmallFlash	0	91	2	3	0	distractor	1	439	781	250113	13.328	13.307	13.344
ProbeTrack15	11	ProbeTrack	15.0	SCS215a	20120216.170424	20120216.171432	8	0.013328	60	10	60-180	60	93	GapExp	SmallFlash	0	92	2	1	1	target	1	388	806	250919	13.328	13.092	13.563
ProbeTrack15	11	ProbeTrack	15.0	SCS215a	20120216.170424	20120216.171437	8	0.013328	60	10	60-180	60	87	GapExp	SmallFlash	0	93	2	0	1	target	1	290	855	251774	13.328	12.854	13.805
ProbeTrack15	11	ProbeTrack	15.0	SCS215a	20120216.170424	20120216.171443	8	0.013328	60	10	60-180	60	86	GapExp	SmallFlash	0	94	2	3	1	target	1	367	817	252591	13.328	13.309	13.347
ProbeTrack15	11	ProbeTrack	15.0	SCS215a	20120216.170424	20120216.171448	8	0.013328	60	10	60-180	60	87	GapExp	SmallFlash	0	95	2	1	1	target	1	356	822	253413	13.328	13.308	13.349
ProbeTrack15	11	ProbeTrack	15.0	SCS215a	20120216.170424	20120216.171454	8	0.013328	60	10	60-180	60	88	GapExp	SmallFlash	0	96	2	0	1	target	1	328	836	254249	13.328	13.309	13.395
ProbeTrack15	11	ProbeTrack	15.0	SCS215a	20120216.170424	20120216.171459	8	0.013328	60	10	60-180	60	162	GapExp	SmallFlash	0	97	2	1	0	distractor	1	376	812	255061	13.328	13.115	13.543
ProbeTrack15	11	ProbeTrack	15.0	SCS215a	20120216.170424	20120216.171506	8	0.013328	60	10	60-180	60	97	GapExp	SmallFlash	0	98	2	30	0	distractor	1	417	792	255853	13.328	13.093	13.551
ProbeTrack15	11	ProbeTrack	15.0	SCS215a	20120216.170424	20120216.171512	8	0.013328	60	10	60-180	60	72	GapExp	SmallFlash	0	99	2	3	1	target	1	379	811	256664	13.328	12.941	13.717
ProbeTrack15	11	ProbeTrack	15.0	SCS215a	20120216.170424	20120216.171518	8	0.013328	60	10	60-180	60	87	GapExp	SmallFlash	0	100	2	3	0	distractor	1	386	807	257471	13.328	13.312	13.346
ProbeTrack15	11	ProbeTrack	15.0	SCS215a	20120216.170424	20120216.171523	8	0.013328	60	10	60-180	60	162	GapExp	SmallFlash	0	101	2	0	1	target	1	358	821	258292	13.328	13.298	13.357
ProbeTrack15	11	ProbeTrack	15.0	SCS215a	20120216.170424	20120216.171530	8	0.013328	60	10	60-180	60	91	GapExp	SmallFlash	0	102	2	0	0	distractor	1	456	772	259064	13.328	13.265	13.384
ProbeTrack15	11	ProbeTrack	15.0	SCS215a	20120216.170424	20120216.171535	8	0.013328	60	10	60-180	60	86	GapExp	SmallFlash	0	103	2	3	1	target	1	341	830	259894	13.328	13.305	13.348
ProbeTrack15	11	ProbeTrack	15.0	SCS215a	20120216.170424	20120216.171542	8	0.013328	60	10	60-180	60	176	GapExp	SmallFlash	0	104	2	3	1	target	1	323	839	260733	13.328	13.101	13.550
ProbeTrack15	11	ProbeTrack	15.0	SCS215a	20120216.170424	20120216.171548	8	0.013328	60	10	60-180	60	178	GapExp	SmallFlash	0	105	2	0	1	target	1	318	841	261574	13.328	12.997	13.667
ProbeTrack15	11	ProbeTrack	15.0	SCS215a	20120216.170424	20120216.171555	8	0.013328	60	10	60-180	60	168	GapExp	SmallFlash	0	106	2	0	1	target	1	374	813	262387	13.328	13.082	13.575
ProbeTrack15	11	ProbeTrack	15.0	SCS215a	20120216.170424	20120216.171601	8	0.013328	60	10	60-180	60	154	GapExp	SmallFlash	0	107	2	30	0	distractor	1	371	815	263202	13.328	12.911	13.745
ProbeTrack15	11	ProbeTrack	15.0	SCS215a	20120216.170424	20120216.171608	8	0.013328	60	10	60-180	60	99	GapExp	SmallFlash	0	108	2	0	1	target	1	345	828	264030	13.391	12.939	26.944
ProbeTrack15	11	ProbeTrack	15.0	SCS215a	20120216.170424	20120216.171614	8	0.013328	60	10	60-180	60	132	GapExp	SmallFlash	0	109	2	30	0	distractor	1	501	750	264780	13.328	12.868	13.781
ProbeTrack15	11	ProbeTrack	15.0	SCS215a	20120216.170424	20120216.171621	8	0.013328	60	10	60-180	60	157	GapExp	SmallFlash	0	110	2	1	0	distractor	1	400	800	265580	13.328	13.300	13.355
ProbeTrack15	11	ProbeTrack	15.0	SCS215a	20120216.170424	20120216.171627	8	0.013328	60	10	60-180	60	163	GapExp	SmallFlash	0	111	2	30	0	distractor	1	387	807	266387	13.328	13.307	13.349
ProbeTrack15	11	ProbeTrack	15.0	SCS215a	20120216.170424	20120216.171634	8	0.013328	60	10	60-180	60	152	GapExp	SmallFlash	0	112	2	3	1	target	1	308	846	267233	13.328	12.858	13.805
ProbeTrack15	11	ProbeTrack	15.0	SCS215a	20120216.170424	20120216.171640	8	0.013328	60	10	60-180	60	62	GapExp	SmallFlash	0	113	2	30	0	distractor	1	420	790	268023	13.328	13.307	13.355
ProbeTrack15	11	ProbeTrack	15.0	SCS215a	20120216.170424	20120216.171646	8	0.013328	60	10	60-180	60	74	GapExp	SmallFlash	0	114	2	3	1	target	1	325	838	268861	13.328	13.308	13.348
ProbeTrack15	11	ProbeTrack	15.0	SCS215a	20120216.170424	20120216.171651	8	0.013328	60	10	60-180	60	98	GapExp	SmallFlash	0	115	2	3	0	distractor	1	360	820	269681	13.328	12.999	13.670
ProbeTrack15	11	ProbeTrack	15.0	SCS215a	20120216.170424	20120216.171657	8	0.013328	60	10	60-180	60	62	GapExp	SmallFlash	0	116	2	3	0	distractor	1	345	828	270509	13.328	13.302	13.358
ProbeTrack15	11	ProbeTrack	15.0	SCS215a	20120216.170424	20120216.171702	8	0.013328	60	10	60-180	60	82	GapExp	SmallFlash	0	117	2	3	0	distractor	1	340	830	271339	13.328	12.753	13.910
ProbeTrack15	11	ProbeTrack	15.0	SCS215a	20120216.170424	20120216.171707	8	0.013328	60	10	60-180	60	167	GapExp	SmallFlash	0	118	2	30	1	target	1	408	796	272135	13.328	12.887	13.763
ProbeTrack15	11	ProbeTrack	15.0	SCS215a	20120216.170424	20120216.171714	8	0.013328	60	10	60-180	60	175	GapExp	SmallFlash	0	119	2	1	1	target	1	336	832	272967	13.328	12.931	13.724
ProbeTrack15	11	ProbeTrack	15.0	SCS215a	20120216.170424	20120216.171721	8	0.013328	60	10	60-180	60	65	GapExp	SmallFlash	0	120	2	1	1	target	1	312	844	273811	13.328	12.871	13.802
ProbeTrack15	11	ProbeTrack	15.0	SCS215a	20120216.170424	20120216.171726	8	0.013328	60	10	60-180	60	150	GapExp	SmallFlash	0	121	2	30	1	target	1	376	812	274623	13.328	12.920	13.761
ProbeTrack15	11	ProbeTrack	15.0	SCS215a	20120216.170424	20120216.171733	8	0.013328	60	10	60-180	60	177	GapExp	SmallFlash	0	122	2	1	1	target	1	361	820	275443	13.328	12.901	13.767
ProbeTrack15	11	ProbeTrack	15.0	SCS215a	20120216.170424	20120216.171740	8	0.013328	60	10	60-180	60	90	GapExp	SmallFlash	0	123	2	1	1	target	1	283	859	276302	13.328	13.085	13.587
ProbeTrack15	11	ProbeTrack	15.0	SCS215a	20120216.170424	20120216.171745	8	0.013328	60	10	60-180	60	91	GapExp	SmallFlash	0	124	2	0	0	distractor	1	336	832	277134	13.328	12.897	13.767
ProbeTrack15	11	ProbeTrack	15.0	SCS215a	20120216.170424	20120216.171750	8	0.013328	60	10	60-180	60	76	GapExp	SmallFlash	0	125	2	30	0	distractor	1	338	831	277965	13.328	12.953	13.697
ProbeTrack15	11	ProbeTrack	15.0	SCS215a	20120216.170424	20120216.171756	8	0.013328	60	10	60-180	60	176	GapExp	SmallFlash	0	126	2	30	0	distractor	1	310	845	278810	13.328	13.022	13.644
ProbeTrack15	11	ProbeTrack	15.0	SCS215a	20120216.170424	20120216.171803	8	0.013328	60	10	60-180	60	125	GapExp	SmallFlash	0	127	2	0	0	distractor	1	349	826	279636	13.328	13.206	13.435
ProbeTrack15	11	ProbeTrack	15.0	SCS215a	20120216.170424	20120216.171809	8	0.013328	60	10	60-180	60	165	GapExp	SmallFlash	0	128	2	30	1	target	1	291	855	280491	13.328	12.875	13.766
ProbeTrack15	11	ProbeTrack	15.0	SCS215a	20120216.170424	20120216.171816	8	0.013328	60	10	60-180	60	89	GapExp	SmallFlash	0	129	2	1	1	target	1	331	835	281326	13.328	13.105	13.558
ProbeTrack15	11	ProbeTrack	15.0	SCS215a	20120216.170424	20120216.171821	8	0.013328	60	10	60-180	60	96	GapExp	SmallFlash	0	130	2	0	1	target	1	340	830	282156	13.328	13.243	13.408
ProbeTrack15	11	ProbeTrack	15.0	SCS215a	20120216.170424	20120216.171827	8	0.013328	60	10	60-180	60	88	GapExp	SmallFlash	0	131	2	3	1	distractor	0	352	-1000	281156	13.328	13.302	13.357
ProbeTrack15	11	ProbeTrack	15.0	SCS215a	20120216.170424	20120216.171832	8	0.013328	60	10	60-180	60	154	GapExp	SmallFlash	0	132	2	3	1	target	1	409	796	281952	13.328	12.842	13.808
ProbeTrack15	11	ProbeTrack	15.0	SCS215a	20120216.170424	20120216.171839	8	0.013328	60	10	60-180	60	148	GapExp	SmallFlash	0	133	2	3	1	target	1	335	833	282785	13.328	12.871	13.770
ProbeTrack15	11	ProbeTrack	15.0	SCS215a	20120216.170424	20120216.171845	8	0.013328	60	10	60-180	60	143	GapExp	SmallFlash	0	134	2	1	0	distractor	1	426	787	283572	13.328	12.878	13.803
ProbeTrack15	11	ProbeTrack	15.0	SCS215a	20120216.170424	20120216.171851	8	0.013328	60	10	60-180	60	132	GapExp	SmallFlash	0	135	2	1	0	target	0	514	-1000	282572	13.328	13.250	13.407
ProbeTrack15	11	ProbeTrack	15.0	SCS215a	20120216.170424	20120216.171858	8	0.013328	60	10	60-180	60	62	GapExp	SmallFlash	0	136	2	3	0	distractor	1	945	528	283100	13.328	13.117	13.526
ProbeTrack15	11	ProbeTrack	15.0	SCS215a	20120216.170424	20120216.171905	8	0.013328	60	10	60-180	60	86	GapExp	SmallFlash	0	137	2	1	0	distractor	1	608	696	283796	13.328	12.889	13.772
ProbeTrack15	11	ProbeTrack	15.0	SCS215a	20120216.170424	20120216.171911	8	0.013328	60	10	60-180	60	134	GapExp	SmallFlash	0	138	2	3	0	distractor	1	570	715	284511	13.328	12.912	13.742
ProbeTrack15	11	ProbeTrack	15.0	SCS215a	20120216.170424	20120216.171917	8	0.013328	60	10	60-180	60	144	GapExp	SmallFlash	0	139	2	30	1	target	1	387	807	285318	13.328	13.099	13.542
ProbeTrack15	11	ProbeTrack	15.0	SCS215a	20120216.170424	20120216.171923	8	0.013328	60	10	60-180	60	101	GapExp	SmallFlash	0	140	2	30	0	distractor	1	401	800	286118	13.328	13.293	13.364
ProbeTrack15	11	ProbeTrack	15.0	SCS215a	20120216.170424	20120216.171930	8	0.013328	60	10	60-180	60	170	GapExp	SmallFlash	0	141	2	3	1	target	1	329	836	286954	13.328	12.955	13.708
ProbeTrack15	11	ProbeTrack	15.0	SCS215a	20120216.170424	20120216.171936	8	0.013328	60	10	60-180	60	76	GapExp	SmallFlash	0	142	2	3	0	distractor	1	397	802	287756	13.328	12.965	13.685
ProbeTrack15	11	ProbeTrack	15.0	SCS215a	20120216.170424	20120216.171941	8	0.013328	60	10	60-180	60	85	GapExp	SmallFlash	0	143	2	1	1	target	1	326	837	288593	13.328	12.922	13.741
ProbeTrack15	11	ProbeTrack	15.0	SCS215a	20120216.170424	20120216.171947	8	0.013328	60	10	60-180	60	121	GapExp	SmallFlash	0	144	2	3	1	target	1	369	816	289409	13.328	12.898	13.754
ProbeTrack15	11	ProbeTrack	15.0	SCS215a	20120216.170424	20120216.171952	8	0.013328	60	10	60-180	60	95	GapExp	SmallFlash	0	145	2	1	1	target	1	320	840	290249	13.328	13.098	13.555
ProbeTrack15	11	ProbeTrack	15.0	SCS215a	20120216.170424	20120216.171958	8	0.013328	60	10	60-180	60	123	GapExp	SmallFlash	0	146	2	30	1	target	1	453	774	291023	13.328	13.277	13.393
ProbeTrack15	11	ProbeTrack	15.0	SCS215a	20120216.170424	20120216.172005	8	0.013328	60	10	60-180	60	94	GapExp	SmallFlash	0	147	2	0	0	distractor	1	453	774	291797	13.328	13.295	13.361
ProbeTrack15	11	ProbeTrack	15.0	SCS215a	20120216.170424	20120216.172010	8	0.013328	60	10	60-180	60	122	GapExp	SmallFlash	0	148	2	0	0	distractor	1	337	832	292629	13.328	13.303	13.347
ProbeTrack15	11	ProbeTrack	15.0	SCS215a	20120216.170424	20120216.172016	8	0.013328	60	10	60-180	60	68	GapExp	SmallFlash	0	149	2	1	0	distractor	1	2090	0	292629	13.328	13.102	13.540
ProbeTrack15	11	ProbeTrack	15.0	SCS215a	20120216.170424	20120216.172023	8	0.013328	60	10	60-180	60	135	GapExp	SmallFlash	0	150	2	1	1	target	1	298	851	293480	13.328	13.302	13.355
ProbeTrack15	11	ProbeTrack	15.0	SCS215a	20120216.170424	20120216.172030	8	0.013328	60	10	60-180	60	151	GapExp	SmallFlash	0	151	2	3	1	target	1	375	813	294293	13.328	12.865	13.799
ProbeTrack15	11	ProbeTrack	15.0	SCS215a	20120216.170424	20120216.172037	8	0.013328	60	10	60-180	60	104	GapExp	SmallFlash	0	152	2	30	1	target	1	314	843	295136	13.328	13.003	13.654
ProbeTrack15	11	ProbeTrack	15.0	SCS215a	20120216.170424	20120216.172043	8	0.013328	60	10	60-180	60	84	GapExp	SmallFlash	0	153	2	30	1	target	1	334	833	295969	13.328	13.006	13.649
ProbeTrack15	11	ProbeTrack	15.0	SCS215a	20120216.170424	20120216.172048	8	0.013328	60	10	60-180	60	176	GapExp	SmallFlash	0	154	2	3	0	distractor	1	344	828	296797	13.328	12.896	13.773
ProbeTrack15	11	ProbeTrack	15.0	SCS215a	20120216.170424	20120216.172055	8	0.013328	60	10	60-180	60	136	GapExp	SmallFlash	0	155	2	30	0	distractor	1	408	796	297593	13.328	13.012	13.652
ProbeTrack15	11	ProbeTrack	15.0	SCS215a	20120216.170424	20120216.172101	8	0.013328	60	10	60-180	60	135	GapExp	SmallFlash	0	156	2	30	0	distractor	1	667	667	298260	13.328	13.095	13.560
ProbeTrack15	11	ProbeTrack	15.0	SCS215a	20120216.170424	20120216.172108	8	0.013328	60	10	60-180	60	75	GapExp	SmallFlash	0	157	2	1	0	target	0	349	-1000	297260	13.328	12.881	13.783
ProbeTrack15	11	ProbeTrack	15.0	SCS215a	20120216.170424	20120216.172113	8	0.013328	60	10	60-180	60	120	GapExp	SmallFlash	0	158	2	1	0	distractor	1	460	770	298030	13.328	13.308	13.348
ProbeTrack15	11	ProbeTrack	15.0	SCS215a	20120216.170424	20120216.172120	8	0.013328	60	10	60-180	60	160	GapExp	SmallFlash	0	159	2	3	1	target	1	349	826	298856	13.328	12.966	13.673
ProbeTrack15	11	ProbeTrack	15.0	SCS215a	20120216.170424	20120216.172126	8	0.013328	60	10	60-180	60	71	GapExp	SmallFlash	0	160	2	3	0	distractor	1	415	793	299649	13.328	12.898	13.751
ProbeTrack15	11	ProbeTrack	15.0	SCS215a	20120216.170424	20120216.172131	8	0.013328	60	10	60-180	60	169	GapExp	SmallFlash	0	161	2	0	0	distractor	1	485	758	300407	13.328	13.034	13.621
ProbeTrack15	11	ProbeTrack	15.0	SCS215a	20120216.170424	20120216.172138	8	0.013328	60	10	60-180	60	160	GapExp	SmallFlash	0	162	2	0	0	distractor	1	326	837	301244	13.328	12.929	13.742
ProbeTrack15	11	ProbeTrack	15.0	SCS215a	20120216.170424	20120216.172145	8	0.013328	60	10	60-180	60	146	GapExp	SmallFlash	0	163	2	1	1	target	1	363	819	302063	13.328	13.093	13.565
ProbeTrack15	11	ProbeTrack	15.0	SCS215a	20120216.170424	20120216.172151	8	0.013328	60	10	60-180	60	63	GapExp	SmallFlash	0	164	2	1	0	distractor	1	496	752	302815	13.328	12.897	13.751
ProbeTrack15	11	ProbeTrack	15.0	SCS215a	20120216.170424	20120216.172156	8	0.013328	60	10	60-180	60	65	GapExp	SmallFlash	0	165	2	1	0	distractor	1	373	814	303629	13.328	13.069	13.579
ProbeTrack15	11	ProbeTrack	15.0	SCS215a	20120216.170424	20120216.172201	8	0.013328	60	10	60-180	60	88	GapExp	SmallFlash	0	166	2	30	1	target	1	337	832	304461	13.328	12.913	13.769
ProbeTrack15	11	ProbeTrack	15.0	SCS215a	20120216.170424	20120216.172207	8	0.013328	60	10	60-180	60	154	GapExp	SmallFlash	0	167	2	3	0	distractor	1	348	826	305287	13.328	13.070	13.580
ProbeTrack15	11	ProbeTrack	15.0	SCS215a	20120216.170424	20120216.172213	8	0.013328	60	10	60-180	60	169	GapExp	SmallFlash	0	168	2	1	1	target	1	303	849	306136	13.328	13.051	13.607
ProbeTrack15	11	ProbeTrack	15.0	SCS215a	20120216.170424	20120216.172220	8	0.013328	60	10	60-180	60	112	GapExp	SmallFlash	0	169	2	30	0	distractor	1	390	805	306941	13.328	13.099	13.565
ProbeTrack15	11	ProbeTrack	15.0	SCS215a	20120216.170424	20120216.172226	8	0.013328	60	10	60-180	60	127	GapExp	SmallFlash	0	170	2	3	1	target	1	359	821	307762	13.328	13.304	13.362
ProbeTrack15	11	ProbeTrack	15.0	SCS215a	20120216.170424	20120216.172232	8	0.013328	60	10	60-180	60	168	GapExp	SmallFlash	0	171	2	30	0	distractor	1	408	796	308558	13.328	13.308	13.354
ProbeTrack15	11	ProbeTrack	15.0	SCS215a	20120216.170424	20120216.172238	8	0.013328	60	10	60-180	60	104	GapExp	SmallFlash	0	172	2	1	1	target	1	363	819	309377	13.328	13.308	13.352
ProbeTrack15	11	ProbeTrack	15.0	SCS215a	20120216.170424	20120216.172244	8	0.013328	60	10	60-180	60	77	GapExp	SmallFlash	0	173	2	30	0	distractor	1	401	800	310177	13.328	13.263	13.385
ProbeTrack15	11	ProbeTrack	15.0	SCS215a	20120216.170424	20120216.172250	8	0.013328	60	10	60-180	60	103	GapExp	SmallFlash	0	174	2	30	1	target	1	351	825	311002	13.328	13.308	13.345
ProbeTrack15	11	ProbeTrack	15.0	SCS215a	20120216.170424	20120216.172256	8	0.013328	60	10	60-180	60	122	GapExp	SmallFlash	0	175	2	30	1	target	1	322	839	311841	13.328	13.100	13.559
ProbeTrack15	11	ProbeTrack	15.0	SCS215a	20120216.170424	20120216.172302	8	0.013328	60	10	60-180	60	108	GapExp	SmallFlash	0	176	2	3	0	distractor	1	358	821	312662	13.328	12.993	13.657
ProbeTrack15	11	ProbeTrack	15.0	SCS215a	20120216.170424	20120216.172307	8	0.013328	60	10	60-180	60	179	GapExp	SmallFlash	0	177	2	3	0	distractor	1	336	832	313494	13.328	13.113	13.543
ProbeTrack15	11	ProbeTrack	15.0	SCS215a	20120216.170424	20120216.172314	8	0.013328	60	10	60-180	60	85	GapExp	SmallFlash	0	178	2	1	0	distractor	1	390	805	314299	13.328	13.304	13.344
ProbeTrack15	11	ProbeTrack	15.0	SCS215a	20120216.170424	20120216.172319	8	0.013328	60	10	60-180	60	77	GapExp	SmallFlash	0	179	2	1	0	distractor	1	384	808	315107	13.328	13.290	13.379
ProbeTrack15	11	ProbeTrack	15.0	SCS215a	20120216.170424	20120216.172325	8	0.013328	60	10	60-180	60	152	GapExp	SmallFlash	0	180	2	0	1	target	1	318	841	315948	13.328	12.951	13.699
ProbeTrack15	11	ProbeTrack	15.0	SCS215a	20120216.170424	20120216.172331	8	0.013328	60	10	60-180	60	146	GapExp	SmallFlash	0	181	2	3	1	target	1	343	829	316777	13.328	13.119	13.544
ProbeTrack15	11	ProbeTrack	15.0	SCS215a	20120216.170424	20120216.172337	8	0.013328	60	10	60-180	60	167	GapExp	SmallFlash	0	182	2	0	0	distractor	1	356	822	317599	13.328	12.862	13.787
ProbeTrack15	11	ProbeTrack	15.0	SCS215a	20120216.170424	20120216.172344	8	0.013328	60	10	60-180	60	115	GapExp	SmallFlash	0	183	2	3	1	target	1	347	827	318426	13.328	13.097	13.556
ProbeTrack15	11	ProbeTrack	15.0	SCS215a	20120216.170424	20120216.172349	8	0.013328	60	10	60-180	60	104	GapExp	SmallFlash	0	184	2	1	1	target	1	367	817	319243	13.328	13.204	13.454
ProbeTrack15	11	ProbeTrack	15.0	SCS215a	20120216.170424	20120216.172355	8	0.013328	60	10	60-180	60	136	GapExp	SmallFlash	0	185	2	0	0	distractor	1	315	843	320086	13.328	12.857	13.799
ProbeTrack15	11	ProbeTrack	15.0	SCS215a	20120216.170424	20120216.172401	8	0.013328	60	10	60-180	60	61	GapExp	SmallFlash	0	186	2	0	1	target	1	308	846	320932	13.328	13.278	13.373
ProbeTrack15	11	ProbeTrack	15.0	SCS215a	20120216.170424	20120216.172406	8	0.013328	60	10	60-180	60	84	GapExp	SmallFlash	0	187	2	30	1	target	1	335	833	321765	13.328	13.112	13.553
ProbeTrack15	11	ProbeTrack	15.0	SCS215a	20120216.170424	20120216.172412	8	0.013328	60	10	60-180	60	62	GapExp	SmallFlash	0	188	2	0	1	target	1	304	848	322613	13.328	13.308	13.349
ProbeTrack15	11	ProbeTrack	15.0	SCS215a	20120216.170424	20120216.172416	8	0.013328	60	10	60-180	60	89	GapExp	SmallFlash	0	189	2	30	0	distractor	1	386	807	323420	13.328	13.304	13.357
ProbeTrack15	11	ProbeTrack	15.0	SCS215a	20120216.170424	20120216.172422	8	0.013328	60	10	60-180	60	132	GapExp	SmallFlash	0	190	2	3	1	target	1	286	857	324277	13.328	13.308	13.346
ProbeTrack15	11	ProbeTrack	15.0	SCS215a	20120216.170424	20120216.172428	8	0.013328	60	10	60-180	60	91	GapExp	SmallFlash	0	191	2	30	1	target	1	343	829	325106	13.328	13.307	13.345
ProbeTrack15	11	ProbeTrack	15.0	SCS215a	20120216.170424	20120216.172434	8	0.013328	60	10	60-180	60	74	GapExp	SmallFlash	0	192	2	1	1	target	1	325	838	325944	13.328	13.120	13.563
ProbeTrack15	11	ProbeTrack	15.0	SCS215a	20120216.170424	20120216.172439	8	0.013328	60	10	60-180	60	125	GapExp	SmallFlash	0	193	2	1	0	target	0	4220	-1000	324944	13.328	12.956	13.695
ProbeTrack15	11	ProbeTrack	15.0	SCS215a	20120216.170424	20120216.172449	8	0.013328	60	10	60-180	60	113	GapExp	SmallFlash	0	194	2	3	1	target	1	442	779	325723	13.328	13.308	13.347
ProbeTrack15	11	ProbeTrack	15.0	SCS215a	20120216.170424	20120216.172456	8	0.013328	60	10	60-180	60	170	GapExp	SmallFlash	0	195	2	3	1	target	1	308	846	326569	13.328	12.959	13.697
ProbeTrack15	11	ProbeTrack	15.0	SCS215a	20120216.170424	20120216.172504	8	0.013328	60	10	60-180	60	101	GapExp	SmallFlash	0	196	2	3	0	distractor	1	423	789	327358	13.328	12.882	13.772
ProbeTrack15	11	ProbeTrack	15.0	SCS215a	20120216.170424	20120216.172509	8	0.013328	60	10	60-180	60	167	GapExp	SmallFlash	0	197	2	0	1	target	1	266	867	328225	13.328	12.865	13.790
ProbeTrack15	11	ProbeTrack	15.0	SCS215a	20120216.170424	20120216.172515	8	0.013328	60	10	60-180	60	144	GapExp	SmallFlash	0	198	2	3	0	distractor	1	419	791	329016	13.328	13.098	13.565
ProbeTrack15	11	ProbeTrack	15.0	SCS215a	20120216.170424	20120216.172521	8	0.013328	60	10	60-180	60	174	GapExp	SmallFlash	0	199	2	3	1	target	1	353	824	329840	13.328	12.842	13.818
ProbeTrack15	11	ProbeTrack	15.0	SCS215a	20120216.170424	20120216.172528	8	0.013328	60	10	60-180	60	161	GapExp	SmallFlash	0	200	2	0	0	distractor	1	340	830	330670	13.328	13.100	13.536
ProbeTrack15	11	ProbeTrack	15.0	SCS215a	20120216.172953	20120216.173010	8	0.013328	60	10	60-180	60	87	GapPrac	Blank	1	1	2	3	1	target	1	329	836	331506	13.394	13.308	13.345
ProbeTrack15	11	ProbeTrack	15.0	SCS215a	20120216.172953	20120216.173018	8	0.013328	60	10	60-180	60	102	GapPrac	Blank	1	2	2	30	0	target	0	585	-1000	330506	13.328	12.923	13.733
ProbeTrack15	11	ProbeTrack	15.0	SCS215a	20120216.172953	20120216.173025	8	0.013328	60	10	60-180	60	180	GapPrac	Blank	1	3	2	1	0	target	0	335	-1000	329506	13.328	13.084	13.565
ProbeTrack15	11	ProbeTrack	15.0	SCS215a	20120216.172953	20120216.173031	8	0.013328	60	10	60-180	60	131	GapPrac	Blank	1	4	2	3	0	distractor	1	373	814	330320	13.328	12.933	13.731
ProbeTrack15	11	ProbeTrack	15.0	SCS215a	20120216.172953	20120216.173037	8	0.013328	60	10	60-180	60	90	GapPrac	Blank	1	5	2	3	1	target	1	306	847	331167	13.328	13.274	13.369
ProbeTrack15	11	ProbeTrack	15.0	SCS215a	20120216.172953	20120216.173042	8	0.013328	60	10	60-180	60	164	GapPrac	Blank	1	6	2	3	1	target	1	508	746	331913	13.328	13.118	13.538
ProbeTrack15	11	ProbeTrack	15.0	SCS215a	20120216.172953	20120216.173049	8	0.013328	60	10	60-180	60	173	GapPrac	Blank	1	7	2	1	1	target	1	313	844	332757	13.328	13.092	13.570
ProbeTrack15	11	ProbeTrack	15.0	SCS215a	20120216.172953	20120216.173056	8	0.013328	60	10	60-180	60	78	GapPrac	Blank	1	8	2	30	1	target	1	367	817	333574	13.328	13.307	13.347
ProbeTrack15	11	ProbeTrack	15.0	SCS215a	20120216.172953	20120216.173102	8	0.013328	60	10	60-180	60	180	GapPrac	Blank	1	9	2	0	0	distractor	1	401	800	334374	13.328	12.869	13.793
ProbeTrack15	11	ProbeTrack	15.0	SCS215a	20120216.172953	20120216.173108	8	0.013328	60	10	60-180	60	165	GapPrac	Blank	1	10	2	0	1	target	1	318	841	335215	13.328	12.969	13.698
ProbeTrack15	11	ProbeTrack	15.0	SCS215a	20120216.172953	20120216.173115	8	0.013328	60	10	60-180	60	78	GapPrac	Blank	1	11	2	30	0	distractor	1	452	774	335989	13.328	12.885	13.771
ProbeTrack15	11	ProbeTrack	15.0	SCS215a	20120216.172953	20120216.173121	8	0.013328	60	10	60-180	60	87	GapPrac	Blank	1	12	2	30	1	target	1	381	810	336799	13.328	12.882	13.786
ProbeTrack15	11	ProbeTrack	15.0	SCS215a	20120216.172953	20120216.173127	8	0.013328	60	10	60-180	60	141	GapPrac	Blank	1	13	2	1	0	target	0	257	-1000	335799	13.328	12.882	13.774
ProbeTrack15	11	ProbeTrack	15.0	SCS215a	20120216.172953	20120216.173133	8	0.013328	60	10	60-180	60	175	GapPrac	Blank	1	14	2	0	1	target	1	336	832	336631	13.328	13.099	13.556
ProbeTrack15	11	ProbeTrack	15.0	SCS215a	20120216.172953	20120216.173139	8	0.013328	60	10	60-180	60	162	GapPrac	Blank	1	15	2	3	0	distractor	1	396	802	337433	13.328	13.307	13.349
ProbeTrack15	11	ProbeTrack	15.0	SCS215a	20120216.172953	20120216.173146	8	0.013328	60	10	60-180	60	180	GapPrac	Blank	1	16	2	3	0	distractor	1	345	828	338261	13.328	13.085	13.564
ProbeTrack15	11	ProbeTrack	15.0	SCS215a	20120216.172953	20120216.173153	8	0.013328	60	10	60-180	60	177	GapPrac	Blank	1	17	2	30	0	distractor	1	480	760	339021	13.328	12.873	13.797
ProbeTrack15	11	ProbeTrack	15.0	SCS215a	20120216.172953	20120216.173200	8	0.013328	60	10	60-180	60	80	GapPrac	Blank	1	18	2	0	0	distractor	1	461	770	339791	13.328	12.875	13.787
ProbeTrack15	11	ProbeTrack	15.0	SCS215a	20120216.172953	20120216.173206	8	0.013328	60	10	60-180	60	98	GapPrac	Blank	1	19	2	1	0	target	0	845	-1000	338791	13.328	13.308	13.344
ProbeTrack15	11	ProbeTrack	15.0	SCS215a	20120216.172953	20120216.173211	8	0.013328	60	10	60-180	60	177	GapPrac	Blank	1	20	2	1	1	target	1	351	825	339616	13.328	12.872	13.779
ProbeTrack15	11	ProbeTrack	15.0	SCS215a	20120216.173241	20120216.173248	8	0.013328	60	10	60-180	60	91	GapExp	Blank	1	1	2	1	1	target	1	369	816	340432	13.392	8.671	17.986
ProbeTrack15	11	ProbeTrack	15.0	SCS215a	20120216.173241	20120216.173255	8	0.013328	60	10	60-180	60	141	GapExp	Blank	1	2	2	1	0	distractor	1	491	755	341187	13.328	13.113	13.543
ProbeTrack15	11	ProbeTrack	15.0	SCS215a	20120216.173241	20120216.173302	8	0.013328	60	10	60-180	60	110	GapExp	Blank	1	3	2	0	1	target	1	394	803	341990	13.328	7.439	19.209
ProbeTrack15	11	ProbeTrack	15.0	SCS215a	20120216.173241	20120216.173309	8	0.013328	60	10	60-180	60	97	GapExp	Blank	1	4	2	30	1	target	1	393	804	342794	13.328	8.488	18.156
ProbeTrack15	11	ProbeTrack	15.0	SCS215a	20120216.173241	20120216.173315	8	0.013328	60	10	60-180	60	80	GapExp	Blank	1	5	2	3	1	target	1	395	803	343597	13.328	13.297	13.358
ProbeTrack15	11	ProbeTrack	15.0	SCS215a	20120216.173241	20120216.173320	8	0.013328	60	10	60-180	60	110	GapExp	Blank	1	6	2	0	0	distractor	1	462	769	344366	13.328	11.692	14.969
ProbeTrack15	11	ProbeTrack	15.0	SCS215a	20120216.173241	20120216.173327	8	0.013328	60	10	60-180	60	69	GapExp	Blank	1	7	2	3	0	distractor	1	464	768	345134	13.328	13.312	13.348
ProbeTrack15	11	ProbeTrack	15.0	SCS215a	20120216.173241	20120216.173332	8	0.013328	60	10	60-180	60	105	GapExp	Blank	1	8	2	30	0	distractor	1	404	798	345932	13.328	13.092	13.564
ProbeTrack15	11	ProbeTrack	15.0	SCS215a	20120216.173241	20120216.173338	8	0.013328	60	10	60-180	60	102	GapExp	Blank	0	9	2	1	1	target	1	292	854	346786	13.328	13.299	13.352
ProbeTrack15	11	ProbeTrack	15.0	SCS215a	20120216.173241	20120216.173343	8	0.013328	60	10	60-180	60	161	GapExp	Blank	0	10	2	3	1	target	1	326	837	347623	13.328	13.280	13.382
ProbeTrack15	11	ProbeTrack	15.0	SCS215a	20120216.173241	20120216.173349	8	0.013328	60	10	60-180	60	126	GapExp	Blank	0	11	2	3	0	distractor	1	339	831	348454	13.390	12.143	27.023
ProbeTrack15	11	ProbeTrack	15.0	SCS215a	20120216.173241	20120216.173355	8	0.013328	60	10	60-180	60	95	GapExp	Blank	0	12	2	0	0	distractor	1	394	803	349257	13.328	13.299	13.350
ProbeTrack15	11	ProbeTrack	15.0	SCS215a	20120216.173241	20120216.173401	8	0.013328	60	10	60-180	60	93	GapExp	Blank	0	13	2	0	0	distractor	1	403	799	350056	13.328	13.099	13.550
ProbeTrack15	11	ProbeTrack	15.0	SCS215a	20120216.173241	20120216.173406	8	0.013328	60	10	60-180	60	97	GapExp	Blank	0	14	2	3	0	distractor	1	293	854	350910	13.328	13.087	13.563
ProbeTrack15	11	ProbeTrack	15.0	SCS215a	20120216.173241	20120216.173411	8	0.013328	60	10	60-180	60	137	GapExp	Blank	0	15	2	30	1	target	1	518	741	351651	13.328	13.064	13.598
ProbeTrack15	11	ProbeTrack	15.0	SCS215a	20120216.173241	20120216.173418	8	0.013328	60	10	60-180	60	70	GapExp	Blank	0	16	2	0	1	target	1	306	847	352498	13.328	7.420	17.785
ProbeTrack15	11	ProbeTrack	15.0	SCS215a	20120216.173241	20120216.173423	8	0.013328	60	10	60-180	60	179	GapExp	Blank	0	17	2	30	1	target	1	304	848	353346	13.328	12.285	14.311
ProbeTrack15	11	ProbeTrack	15.0	SCS215a	20120216.173241	20120216.173430	8	0.013328	60	10	60-180	60	62	GapExp	Blank	0	18	2	0	1	target	1	306	847	354193	13.328	13.309	13.342
ProbeTrack15	11	ProbeTrack	15.0	SCS215a	20120216.173241	20120216.173435	8	0.013328	60	10	60-180	60	159	GapExp	Blank	0	19	2	0	0	distractor	1	498	751	354944	13.328	12.090	14.571
ProbeTrack15	11	ProbeTrack	15.0	SCS215a	20120216.173241	20120216.173441	8	0.013328	60	10	60-180	60	84	GapExp	Blank	0	20	2	3	0	target	0	289	-1000	353944	13.328	10.174	16.489
ProbeTrack15	11	ProbeTrack	15.0	SCS215a	20120216.173241	20120216.173446	8	0.013328	60	10	60-180	60	137	GapExp	Blank	0	21	2	0	0	target	0	335	-1000	352944	13.328	4.697	21.951
ProbeTrack15	11	ProbeTrack	15.0	SCS215a	20120216.173241	20120216.173452	8	0.013328	60	10	60-180	60	172	GapExp	Blank	0	22	2	30	1	target	1	570	715	353659	13.328	4.286	22.376
ProbeTrack15	11	ProbeTrack	15.0	SCS215a	20120216.173241	20120216.173459	8	0.013328	60	10	60-180	60	114	GapExp	Blank	0	23	2	3	1	distractor	0	305	-1000	352659	13.328	7.166	19.518
ProbeTrack15	11	ProbeTrack	15.0	SCS215a	20120216.173241	20120216.173505	8	0.013328	60	10	60-180	60	128	GapExp	Blank	0	24	2	1	0	distractor	1	363	819	353478	13.328	12.488	14.169
ProbeTrack15	11	ProbeTrack	15.0	SCS215a	20120216.173241	20120216.173511	8	0.013328	60	10	60-180	60	134	GapExp	Blank	0	25	2	30	1	target	1	311	845	354323	13.328	10.898	15.793
ProbeTrack15	11	ProbeTrack	15.0	SCS215a	20120216.173241	20120216.173517	8	0.013328	60	10	60-180	60	85	GapExp	Blank	0	26	2	30	1	target	1	432	784	355107	13.328	13.087	13.569
ProbeTrack15	11	ProbeTrack	15.0	SCS215a	20120216.173241	20120216.173523	8	0.013328	60	10	60-180	60	103	GapExp	Blank	0	27	2	1	0	distractor	1	433	784	355891	13.328	10.406	16.251
ProbeTrack15	11	ProbeTrack	15.0	SCS215a	20120216.173241	20120216.173528	8	0.013328	60	10	60-180	60	117	GapExp	Blank	0	28	2	30	0	distractor	1	409	796	356687	13.328	9.867	16.789
ProbeTrack15	11	ProbeTrack	15.0	SCS215a	20120216.173241	20120216.173534	8	0.013328	60	10	60-180	60	109	GapExp	Blank	0	29	2	3	1	target	1	288	856	357543	13.328	10.492	16.156
ProbeTrack15	11	ProbeTrack	15.0	SCS215a	20120216.173241	20120216.173541	8	0.013328	60	10	60-180	60	100	GapExp	Blank	0	30	2	1	0	distractor	1	306	847	358390	13.328	13.307	13.348
ProbeTrack15	11	ProbeTrack	15.0	SCS215a	20120216.173241	20120216.173546	8	0.013328	60	10	60-180	60	94	GapExp	Blank	0	31	2	3	1	target	1	322	839	359229	13.328	12.652	13.997
ProbeTrack15	11	ProbeTrack	15.0	SCS215a	20120216.173241	20120216.173551	8	0.013328	60	10	60-180	60	87	GapExp	Blank	0	32	2	0	1	target	1	258	871	360100	13.328	13.308	13.344
ProbeTrack15	11	ProbeTrack	15.0	SCS215a	20120216.173241	20120216.173556	8	0.013328	60	10	60-180	60	66	GapExp	Blank	0	33	2	1	0	distractor	1	332	834	360934	13.328	13.303	13.346
ProbeTrack15	11	ProbeTrack	15.0	SCS215a	20120216.173241	20120216.173601	8	0.013328	60	10	60-180	60	72	GapExp	Blank	0	34	2	0	0	target	0	471	-1000	359934	13.328	12.365	14.293
ProbeTrack15	11	ProbeTrack	15.0	SCS215a	20120216.173241	20120216.173606	8	0.013328	60	10	60-180	60	173	GapExp	Blank	0	35	2	1	1	target	1	288	856	360790	13.328	13.107	13.549
ProbeTrack15	11	ProbeTrack	15.0	SCS215a	20120216.173241	20120216.173613	8	0.013328	60	10	60-180	60	123	GapExp	Blank	0	36	2	0	1	target	1	258	871	361661	13.328	13.118	13.546
ProbeTrack15	11	ProbeTrack	15.0	SCS215a	20120216.173241	20120216.173619	8	0.013328	60	10	60-180	60	124	GapExp	Blank	0	37	2	1	0	distractor	1	298	851	362512	13.328	13.309	13.344
ProbeTrack15	11	ProbeTrack	15.0	SCS215a	20120216.173241	20120216.173624	8	0.013328	60	10	60-180	60	116	GapExp	Blank	0	38	2	1	1	target	1	263	869	363381	13.328	6.440	20.228
ProbeTrack15	11	ProbeTrack	15.0	SCS215a	20120216.173241	20120216.173630	8	0.013328	60	10	60-180	60	163	GapExp	Blank	0	39	2	3	0	distractor	1	278	861	364242	13.328	13.301	13.353
ProbeTrack15	11	ProbeTrack	15.0	SCS215a	20120216.173241	20120216.173636	8	0.013328	60	10	60-180	60	162	GapExp	Blank	0	40	2	3	1	target	1	277	862	365104	13.328	13.105	13.542
ProbeTrack15	11	ProbeTrack	15.0	SCS215a	20120216.173241	20120216.173642	8	0.013328	60	10	60-180	60	166	GapExp	Blank	0	41	2	0	0	distractor	1	350	825	365929	13.328	13.307	13.357
ProbeTrack15	11	ProbeTrack	15.0	SCS215a	20120216.173241	20120216.173649	8	0.013328	60	10	60-180	60	90	GapExp	Blank	0	42	2	30	1	target	1	383	809	366738	13.328	7.028	19.614
ProbeTrack15	11	ProbeTrack	15.0	SCS215a	20120216.173241	20120216.173654	8	0.013328	60	10	60-180	60	110	GapExp	Blank	0	43	2	0	1	target	1	288	856	367594	13.328	13.098	13.557
ProbeTrack15	11	ProbeTrack	15.0	SCS215a	20120216.173241	20120216.173700	8	0.013328	60	10	60-180	60	148	GapExp	Blank	0	44	2	0	0	distractor	1	490	755	368349	13.328	13.307	13.348
ProbeTrack15	11	ProbeTrack	15.0	SCS215a	20120216.173241	20120216.173706	8	0.013328	60	10	60-180	60	125	GapExp	Blank	0	45	2	30	1	target	1	256	872	369221	13.328	8.950	17.692
ProbeTrack15	11	ProbeTrack	15.0	SCS215a	20120216.173241	20120216.173712	8	0.013328	60	10	60-180	60	63	GapExp	Blank	0	46	2	30	1	target	1	368	816	370037	13.328	11.043	15.607
ProbeTrack15	11	ProbeTrack	15.0	SCS215a	20120216.173241	20120216.173717	8	0.013328	60	10	60-180	60	82	GapExp	Blank	0	47	2	1	0	distractor	1	438	781	370818	13.328	13.297	13.354
ProbeTrack15	11	ProbeTrack	15.0	SCS215a	20120216.173241	20120216.173723	8	0.013328	60	10	60-180	60	76	GapExp	Blank	0	48	2	30	0	distractor	1	392	804	371622	13.328	13.099	13.565
ProbeTrack15	11	ProbeTrack	15.0	SCS215a	20120216.173241	20120216.173728	8	0.013328	60	10	60-180	60	130	GapExp	Blank	0	49	2	0	1	target	1	316	842	372464	13.328	13.312	13.346
ProbeTrack15	11	ProbeTrack	15.0	SCS215a	20120216.173241	20120216.173734	8	0.013328	60	10	60-180	60	99	GapExp	Blank	0	50	2	30	0	distractor	1	357	822	373286	13.328	13.303	13.346
ProbeTrack15	11	ProbeTrack	15.0	SCS215a	20120216.173241	20120216.173740	8	0.013328	60	10	60-180	60	138	GapExp	Blank	0	51	2	3	0	distractor	1	432	784	374070	13.328	13.206	13.437
ProbeTrack15	11	ProbeTrack	15.0	SCS215a	20120216.173241	20120216.173746	8	0.013328	60	10	60-180	60	112	GapExp	Blank	0	52	2	1	0	distractor	1	316	842	374912	13.328	13.091	13.564
ProbeTrack15	11	ProbeTrack	15.0	SCS215a	20120216.173241	20120216.173751	8	0.013328	60	10	60-180	60	65	GapExp	Blank	0	53	2	0	0	distractor	1	357	822	375734	13.328	13.270	13.387
ProbeTrack15	11	ProbeTrack	15.0	SCS215a	20120216.173241	20120216.173756	8	0.013328	60	10	60-180	60	117	GapExp	Blank	0	54	2	30	1	target	1	360	820	376554	13.328	13.309	13.347
ProbeTrack15	11	ProbeTrack	15.0	SCS215a	20120216.173241	20120216.173803	8	0.013328	60	10	60-180	60	159	GapExp	Blank	0	55	2	30	1	distractor	0	325	-1000	375554	13.328	10.852	15.804
ProbeTrack15	11	ProbeTrack	15.0	SCS215a	20120216.173241	20120216.173809	8	0.013328	60	10	60-180	60	75	GapExp	Blank	0	56	2	3	0	distractor	1	407	797	376351	13.328	13.299	13.345
ProbeTrack15	11	ProbeTrack	15.0	SCS215a	20120216.173241	20120216.173814	8	0.013328	60	10	60-180	60	132	GapExp	Blank	0	57	2	0	0	distractor	1	338	831	377182	13.328	13.111	13.559
ProbeTrack15	11	ProbeTrack	15.0	SCS215a	20120216.173241	20120216.173820	8	0.013328	60	10	60-180	60	63	GapExp	Blank	0	58	2	3	0	distractor	1	366	817	377999	13.328	13.104	13.551
ProbeTrack15	11	ProbeTrack	15.0	SCS215a	20120216.173241	20120216.173824	8	0.013328	60	10	60-180	60	132	GapExp	Blank	0	59	2	30	0	distractor	1	432	784	378783	13.328	13.233	13.421
ProbeTrack15	11	ProbeTrack	15.0	SCS215a	20120216.173241	20120216.173831	8	0.013328	60	10	60-180	60	129	GapExp	Blank	0	60	2	30	0	distractor	1	403	799	379582	13.328	11.484	15.165
ProbeTrack15	11	ProbeTrack	15.0	SCS215a	20120216.173241	20120216.173837	8	0.013328	60	10	60-180	60	70	GapExp	Blank	0	61	2	1	0	distractor	1	361	820	380402	13.328	11.575	15.106
ProbeTrack15	11	ProbeTrack	15.0	SCS215a	20120216.173241	20120216.173842	8	0.013328	60	10	60-180	60	170	GapExp	Blank	0	62	2	1	1	target	1	431	785	381187	13.328	12.499	14.165
ProbeTrack15	11	ProbeTrack	15.0	SCS215a	20120216.173241	20120216.173848	8	0.013328	60	10	60-180	60	132	GapExp	Blank	0	63	2	30	1	target	1	303	849	382036	13.328	13.098	13.550
ProbeTrack15	11	ProbeTrack	15.0	SCS215a	20120216.173241	20120216.173855	8	0.013328	60	10	60-180	60	86	GapExp	Blank	0	64	2	1	0	distractor	1	400	800	382836	13.328	4.708	21.949
