exp	sub	code	rev	comp	runtime	trialtime	nstim	refreshdur	cuedur	gapdur	gapOnsetRange	durPostProbe	gapOnsetTime	blocktype	gaptype	prac	trial	ntargets	soa	probeTarget	resp	acc	rt	pts	tpts	meanFrameDur	minFrameDur	maxFrameDur
ProbeTrack15	5	ProbeTrack	15.0	SCS215a	20120207.120448	20120207.120519	8	0.013328	60	0	60-180	60	169	NoGap	None	1	1	2	30	1	distractor	0	4054	-1000	-1000	13.368	8.547	18.109
ProbeTrack15	5	ProbeTrack	15.0	SCS215a	20120207.120448	20120207.120715	8	0.013328	60	0	60-180	60	150	NoGap	None	1	2	2	3	1	target	1	715	643	-357	13.328	13.293	13.365
ProbeTrack15	5	ProbeTrack	15.0	SCS215a	20120207.120448	20120207.120755	8	0.013328	60	0	60-180	60	158	NoGap	None	1	3	2	30	0	distractor	1	699	651	294	13.328	11.387	15.370
ProbeTrack15	5	ProbeTrack	15.0	SCS215a	20120207.120448	20120207.120821	8	0.013328	60	0	60-180	60	162	NoGap	None	1	4	2	1	1	target	1	889	556	850	13.328	12.522	14.181
ProbeTrack15	5	ProbeTrack	15.0	SCS215a	20120207.120448	20120207.120831	8	0.013328	60	0	60-180	60	75	NoGap	None	1	5	2	1	0	distractor	1	602	699	1549	13.328	13.307	13.344
ProbeTrack15	5	ProbeTrack	15.0	SCS215a	20120207.120448	20120207.120837	8	0.013328	60	0	60-180	60	142	NoGap	None	1	6	2	0	1	distractor	0	595	-1000	549	13.328	13.298	13.359
ProbeTrack15	5	ProbeTrack	15.0	SCS215a	20120207.120448	20120207.120844	8	0.013328	60	0	60-180	60	138	NoGap	None	1	7	2	3	0	target	0	1715	-1000	-451	13.328	7.069	19.605
ProbeTrack15	5	ProbeTrack	15.0	SCS215a	20120207.120448	20120207.120852	8	0.013328	60	0	60-180	60	157	NoGap	None	1	8	2	30	1	distractor	0	986	-1000	-1451	13.328	13.100	13.546
ProbeTrack15	5	ProbeTrack	15.0	SCS215a	20120207.120448	20120207.120903	8	0.013328	60	0	60-180	60	113	NoGap	None	1	9	2	30	1	distractor	0	514	-1000	-2451	13.328	12.515	14.174
ProbeTrack15	5	ProbeTrack	15.0	SCS215a	20120207.120448	20120207.120912	8	0.013328	60	0	60-180	60	70	NoGap	None	1	10	2	30	1	distractor	0	1877	-1000	-3451	13.328	13.083	13.565
ProbeTrack15	5	ProbeTrack	15.0	SCS215a	20120207.120448	20120207.120922	8	0.013328	60	0	60-180	60	78	NoGap	None	1	11	2	1	0	distractor	1	1482	259	-3192	13.328	11.115	15.530
ProbeTrack15	5	ProbeTrack	15.0	SCS215a	20120207.120448	20120207.120945	8	0.013328	60	0	60-180	60	86	NoGap	None	1	12	2	1	1	distractor	0	1481	-1000	-4192	13.328	5.023	21.631
ProbeTrack15	5	ProbeTrack	15.0	SCS215a	20120207.120448	20120207.120956	8	0.013328	60	0	60-180	60	66	NoGap	None	1	13	2	3	1	distractor	0	1262	-1000	-5192	13.328	13.272	13.367
ProbeTrack15	5	ProbeTrack	15.0	SCS215a	20120207.120448	20120207.121011	8	0.013328	60	0	60-180	60	131	NoGap	None	1	14	2	30	0	target	0	750	-1000	-6192	13.328	13.310	13.350
ProbeTrack15	5	ProbeTrack	15.0	SCS215a	20120207.120448	20120207.121030	8	0.013328	60	0	60-180	60	93	NoGap	None	1	15	2	30	0	distractor	1	542	729	-5463	13.324	12.504	13.552
ProbeTrack15	5	ProbeTrack	15.0	SCS215a	20120207.120448	20120207.121040	8	0.013328	60	0	60-180	60	163	NoGap	None	1	16	2	1	0	distractor	1	596	702	-4761	13.328	10.743	15.910
ProbeTrack15	5	ProbeTrack	15.0	SCS215a	20120207.120448	20120207.121047	8	0.013328	60	0	60-180	60	123	NoGap	None	1	17	2	0	0	distractor	1	476	762	-3999	13.328	7.359	19.305
ProbeTrack15	5	ProbeTrack	15.0	SCS215a	20120207.120448	20120207.121052	8	0.013328	60	0	60-180	60	97	NoGap	None	1	18	2	30	0	distractor	1	372	814	-3185	13.328	13.110	13.546
ProbeTrack15	5	ProbeTrack	15.0	SCS215a	20120207.120448	20120207.121058	8	0.013328	60	0	60-180	60	68	NoGap	None	1	19	2	3	1	distractor	0	398	-1000	-4185	13.403	8.417	20.507
ProbeTrack15	5	ProbeTrack	15.0	SCS215a	20120207.120448	20120207.121104	8	0.013328	60	0	60-180	60	111	NoGap	None	1	20	2	30	1	target	1	402	799	-3386	13.328	3.597	23.045
ProbeTrack15	5	ProbeTrack	15.0	SCS215a	20120207.120448	20120207.121111	8	0.013328	60	0	60-180	60	134	NoGap	None	1	21	2	1	1	target	1	356	822	-2564	13.328	13.305	13.347
ProbeTrack15	5	ProbeTrack	15.0	SCS215a	20120207.120448	20120207.121117	8	0.013328	60	0	60-180	60	134	NoGap	None	1	22	2	0	1	target	1	327	837	-1727	13.328	13.307	13.346
ProbeTrack15	5	ProbeTrack	15.0	SCS215a	20120207.120448	20120207.121123	8	0.013328	60	0	60-180	60	176	NoGap	None	1	23	2	1	1	target	1	327	837	-890	13.328	8.142	18.522
ProbeTrack15	5	ProbeTrack	15.0	SCS215a	20120207.120448	20120207.121129	8	0.013328	60	0	60-180	60	176	NoGap	None	1	24	2	3	1	target	1	350	825	-65	13.328	13.071	13.579
ProbeTrack15	5	ProbeTrack	15.0	SCS215a	20120207.120448	20120207.121136	8	0.013328	60	0	60-180	60	136	NoGap	None	1	25	2	0	1	target	1	285	858	793	13.328	13.104	13.561
ProbeTrack15	5	ProbeTrack	15.0	SCS215a	20120207.120448	20120207.121142	8	0.013328	60	0	60-180	60	147	NoGap	None	1	26	2	0	0	distractor	1	371	815	1608	13.328	13.102	13.538
ProbeTrack15	5	ProbeTrack	15.0	SCS215a	20120207.120448	20120207.121148	8	0.013328	60	0	60-180	60	140	NoGap	None	1	27	2	3	0	distractor	1	447	777	2385	13.328	6.273	20.364
ProbeTrack15	5	ProbeTrack	15.0	SCS215a	20120207.120448	20120207.121154	8	0.013328	60	0	60-180	60	70	NoGap	None	1	28	2	0	1	distractor	0	478	-1000	1385	13.328	13.310	13.346
ProbeTrack15	5	ProbeTrack	15.0	SCS215a	20120207.120448	20120207.121159	8	0.013328	60	0	60-180	60	66	NoGap	None	1	29	2	30	0	distractor	1	444	778	2163	13.328	13.288	13.362
ProbeTrack15	5	ProbeTrack	15.0	SCS215a	20120207.120448	20120207.121204	8	0.013328	60	0	60-180	60	103	NoGap	None	1	30	2	3	0	distractor	1	486	757	2920	13.328	13.092	13.557
ProbeTrack15	5	ProbeTrack	15.0	SCS215a	20120207.120448	20120207.121210	8	0.013328	60	0	60-180	60	70	NoGap	None	1	31	2	3	0	distractor	1	540	730	3650	13.328	13.093	13.571
ProbeTrack15	5	ProbeTrack	15.0	SCS215a	20120207.120448	20120207.121216	8	0.013328	60	0	60-180	60	126	NoGap	None	1	32	2	0	0	distractor	1	411	795	4445	13.328	13.103	13.565
ProbeTrack15	5	ProbeTrack	15.0	SCS215a	20120207.120448	20120207.121222	8	0.013328	60	0	60-180	60	91	NoGap	None	1	33	2	0	1	target	1	419	791	5236	13.328	13.309	13.350
ProbeTrack15	5	ProbeTrack	15.0	SCS215a	20120207.120448	20120207.121227	8	0.013328	60	0	60-180	60	93	NoGap	None	1	34	2	0	0	distractor	1	423	789	6025	13.328	11.160	15.494
ProbeTrack15	5	ProbeTrack	15.0	SCS215a	20120207.120448	20120207.121233	8	0.013328	60	0	60-180	60	159	NoGap	None	1	35	2	3	0	distractor	1	341	830	6855	13.328	12.271	14.412
ProbeTrack15	5	ProbeTrack	15.0	SCS215a	20120207.120448	20120207.121239	8	0.013328	60	0	60-180	60	67	NoGap	None	1	36	2	3	1	target	1	510	745	7600	13.328	13.111	13.558
ProbeTrack15	5	ProbeTrack	15.0	SCS215a	20120207.120448	20120207.121244	8	0.013328	60	0	60-180	60	124	NoGap	None	1	37	2	1	0	distractor	1	425	788	8388	13.328	8.352	18.290
ProbeTrack15	5	ProbeTrack	15.0	SCS215a	20120207.120448	20120207.121250	8	0.013328	60	0	60-180	60	92	NoGap	None	1	38	2	0	0	distractor	1	387	807	9195	13.328	13.286	13.361
ProbeTrack15	5	ProbeTrack	15.0	SCS215a	20120207.120448	20120207.121255	8	0.013328	60	0	60-180	60	130	NoGap	None	1	39	2	1	0	distractor	1	372	814	10009	13.328	13.280	13.368
ProbeTrack15	5	ProbeTrack	15.0	SCS215a	20120207.120448	20120207.121301	8	0.013328	60	0	60-180	60	98	NoGap	None	1	40	2	1	1	target	1	456	772	10781	13.328	13.077	13.581
ProbeTrack15	5	ProbeTrack	15.0	SCS215a	20120207.121449	20120207.121459	8	0.013328	60	10	60-180	60	153	GapPrac	BigFlash	1	1	2	3	1	target	1	662	669	11450	13.373	13.159	13.676
ProbeTrack15	5	ProbeTrack	15.0	SCS215a	20120207.121449	20120207.121508	8	0.013328	60	10	60-180	60	123	GapPrac	BigFlash	1	2	2	30	1	target	1	363	819	12269	13.328	13.162	13.501
ProbeTrack15	5	ProbeTrack	15.0	SCS215a	20120207.121449	20120207.121515	8	0.013328	60	10	60-180	60	72	GapPrac	BigFlash	1	3	2	3	0	distractor	1	596	702	12971	13.328	12.905	13.751
ProbeTrack15	5	ProbeTrack	15.0	SCS215a	20120207.121449	20120207.121521	8	0.013328	60	10	60-180	60	61	GapPrac	BigFlash	1	4	2	0	1	target	1	496	752	13723	13.328	13.099	13.558
ProbeTrack15	5	ProbeTrack	15.0	SCS215a	20120207.121449	20120207.121526	8	0.013328	60	10	60-180	60	109	GapPrac	BigFlash	1	5	2	30	0	distractor	1	333	834	14557	13.328	13.098	13.552
ProbeTrack15	5	ProbeTrack	15.0	SCS215a	20120207.121449	20120207.121532	8	0.013328	60	10	60-180	60	122	GapPrac	BigFlash	1	6	2	0	1	target	1	351	825	15382	13.328	13.306	13.361
ProbeTrack15	5	ProbeTrack	15.0	SCS215a	20120207.121449	20120207.121537	8	0.013328	60	10	60-180	60	123	GapPrac	BigFlash	1	7	2	3	0	distractor	1	386	807	16189	13.328	13.305	13.349
ProbeTrack15	5	ProbeTrack	15.0	SCS215a	20120207.121449	20120207.121544	8	0.013328	60	10	60-180	60	162	GapPrac	BigFlash	1	8	2	1	0	distractor	1	391	805	16994	13.328	13.276	13.380
ProbeTrack15	5	ProbeTrack	15.0	SCS215a	20120207.121449	20120207.121550	8	0.013328	60	10	60-180	60	161	GapPrac	BigFlash	1	9	2	3	1	target	1	411	795	17789	13.328	12.931	13.788
ProbeTrack15	5	ProbeTrack	15.0	SCS215a	20120207.121449	20120207.121557	8	0.013328	60	10	60-180	60	87	GapPrac	BigFlash	1	10	2	30	1	target	1	319	841	18630	13.328	13.307	13.351
ProbeTrack15	5	ProbeTrack	15.0	SCS215a	20120207.121449	20120207.121602	8	0.013328	60	10	60-180	60	127	GapPrac	BigFlash	1	11	2	1	1	target	1	361	820	19450	13.328	12.927	13.728
ProbeTrack15	5	ProbeTrack	15.0	SCS215a	20120207.121449	20120207.121608	8	0.013328	60	10	60-180	60	154	GapPrac	BigFlash	1	12	2	0	0	distractor	1	455	773	20223	13.328	12.896	13.758
ProbeTrack15	5	ProbeTrack	15.0	SCS215a	20120207.121449	20120207.121615	8	0.013328	60	10	60-180	60	96	GapPrac	BigFlash	1	13	2	3	1	target	1	365	818	21041	13.328	13.051	13.597
ProbeTrack15	5	ProbeTrack	15.0	SCS215a	20120207.121449	20120207.121620	8	0.013328	60	10	60-180	60	161	GapPrac	BigFlash	1	14	2	0	0	distractor	1	416	792	21833	13.328	13.097	13.572
ProbeTrack15	5	ProbeTrack	15.0	SCS215a	20120207.121449	20120207.121627	8	0.013328	60	10	60-180	60	166	GapPrac	BigFlash	1	15	2	0	1	target	1	515	743	22576	13.328	13.199	13.447
ProbeTrack15	5	ProbeTrack	15.0	SCS215a	20120207.121449	20120207.121633	8	0.013328	60	10	60-180	60	115	GapPrac	BigFlash	1	16	2	1	1	target	1	399	801	23377	13.328	13.309	13.345
ProbeTrack15	5	ProbeTrack	15.0	SCS215a	20120207.121449	20120207.121639	8	0.013328	60	10	60-180	60	108	GapPrac	BigFlash	1	17	2	30	1	target	1	326	837	24214	13.328	13.301	13.358
ProbeTrack15	5	ProbeTrack	15.0	SCS215a	20120207.121449	20120207.121646	8	0.013328	60	10	60-180	60	111	GapPrac	BigFlash	1	18	2	1	0	distractor	1	475	763	24977	13.328	13.179	13.478
ProbeTrack15	5	ProbeTrack	15.0	SCS215a	20120207.121449	20120207.121652	8	0.013328	60	10	60-180	60	123	GapPrac	BigFlash	1	19	2	30	0	distractor	1	444	778	25755	13.328	13.308	13.349
ProbeTrack15	5	ProbeTrack	15.0	SCS215a	20120207.121449	20120207.121658	8	0.013328	60	10	60-180	60	85	GapPrac	BigFlash	1	20	2	3	0	distractor	1	435	783	26538	13.328	13.098	13.551
ProbeTrack15	5	ProbeTrack	15.0	SCS215a	20120207.121758	20120207.121804	8	0.013328	60	10	60-180	60	168	GapExp	BigFlash	1	1	2	0	0	distractor	1	508	746	27284	13.373	12.837	13.819
ProbeTrack15	5	ProbeTrack	15.0	SCS215a	20120207.121758	20120207.121814	8	0.013328	60	10	60-180	60	167	GapExp	BigFlash	1	2	2	30	0	distractor	1	331	835	28119	13.328	12.910	13.767
ProbeTrack15	5	ProbeTrack	15.0	SCS215a	20120207.121758	20120207.121821	8	0.013328	60	10	60-180	60	175	GapExp	BigFlash	1	3	2	0	1	target	1	411	795	28914	13.328	13.100	13.541
ProbeTrack15	5	ProbeTrack	15.0	SCS215a	20120207.121758	20120207.121827	8	0.013328	60	10	60-180	60	70	GapExp	BigFlash	1	4	2	1	0	distractor	1	461	770	29684	13.328	13.229	13.433
ProbeTrack15	5	ProbeTrack	15.0	SCS215a	20120207.121758	20120207.121832	8	0.013328	60	10	60-180	60	64	GapExp	BigFlash	1	5	2	3	0	distractor	1	438	781	30465	13.328	13.306	13.346
ProbeTrack15	5	ProbeTrack	15.0	SCS215a	20120207.121758	20120207.121837	8	0.013328	60	10	60-180	60	83	GapExp	BigFlash	1	6	2	1	1	target	1	422	789	31254	13.328	13.307	13.348
ProbeTrack15	5	ProbeTrack	15.0	SCS215a	20120207.121758	20120207.121843	8	0.013328	60	10	60-180	60	103	GapExp	BigFlash	1	7	2	30	1	distractor	0	276	-1000	30254	13.328	13.109	13.549
ProbeTrack15	5	ProbeTrack	15.0	SCS215a	20120207.121758	20120207.121849	8	0.013328	60	10	60-180	60	137	GapExp	BigFlash	1	8	2	3	1	target	1	318	841	31095	13.328	12.836	13.814
ProbeTrack15	5	ProbeTrack	15.0	SCS215a	20120207.121758	20120207.121855	8	0.013328	60	10	60-180	60	120	GapExp	BigFlash	0	9	2	1	1	target	1	358	821	31916	13.328	12.920	13.736
ProbeTrack15	5	ProbeTrack	15.0	SCS215a	20120207.121758	20120207.121901	8	0.013328	60	10	60-180	60	115	GapExp	BigFlash	0	10	2	30	1	target	1	408	796	32712	13.328	13.303	13.345
ProbeTrack15	5	ProbeTrack	15.0	SCS215a	20120207.121758	20120207.121907	8	0.013328	60	10	60-180	60	129	GapExp	BigFlash	0	11	2	3	0	distractor	1	504	748	33460	13.328	13.306	13.349
ProbeTrack15	5	ProbeTrack	15.0	SCS215a	20120207.121758	20120207.121913	8	0.013328	60	10	60-180	60	140	GapExp	BigFlash	0	12	2	30	0	distractor	1	474	763	34223	13.328	12.845	13.813
ProbeTrack15	5	ProbeTrack	15.0	SCS215a	20120207.121758	20120207.121920	8	0.013328	60	10	60-180	60	113	GapExp	BigFlash	0	13	2	0	0	distractor	1	816	592	34815	13.328	12.883	13.772
ProbeTrack15	5	ProbeTrack	15.0	SCS215a	20120207.121758	20120207.121926	8	0.013328	60	10	60-180	60	112	GapExp	BigFlash	0	14	2	0	0	distractor	1	556	722	35537	13.328	13.308	13.349
ProbeTrack15	5	ProbeTrack	15.0	SCS215a	20120207.121758	20120207.121932	8	0.013328	60	10	60-180	60	119	GapExp	BigFlash	0	15	2	1	1	target	1	334	833	36370	13.328	13.093	13.549
ProbeTrack15	5	ProbeTrack	15.0	SCS215a	20120207.121758	20120207.121938	8	0.013328	60	10	60-180	60	97	GapExp	BigFlash	0	16	2	3	1	target	1	365	818	37188	13.328	13.306	13.348
ProbeTrack15	5	ProbeTrack	15.0	SCS215a	20120207.121758	20120207.121944	8	0.013328	60	10	60-180	60	114	GapExp	BigFlash	0	17	2	0	1	target	1	360	820	38008	13.328	12.881	13.731
ProbeTrack15	5	ProbeTrack	15.0	SCS215a	20120207.121758	20120207.121950	8	0.013328	60	10	60-180	60	81	GapExp	BigFlash	0	18	2	3	0	distractor	1	435	783	38791	13.328	13.307	13.347
ProbeTrack15	5	ProbeTrack	15.0	SCS215a	20120207.121758	20120207.121956	8	0.013328	60	10	60-180	60	124	GapExp	BigFlash	0	19	2	30	0	distractor	1	402	799	39590	13.328	12.801	13.847
ProbeTrack15	5	ProbeTrack	15.0	SCS215a	20120207.121758	20120207.122002	8	0.013328	60	10	60-180	60	66	GapExp	BigFlash	0	20	2	30	1	target	1	286	857	40447	13.328	13.309	13.346
ProbeTrack15	5	ProbeTrack	15.0	SCS215a	20120207.121758	20120207.122008	8	0.013328	60	10	60-180	60	105	GapExp	BigFlash	0	21	2	1	0	distractor	1	605	698	41145	13.328	13.056	13.578
ProbeTrack15	5	ProbeTrack	15.0	SCS215a	20120207.121758	20120207.122013	8	0.013328	60	10	60-180	60	78	GapExp	BigFlash	0	22	2	1	1	target	1	626	687	41832	13.328	13.091	13.558
ProbeTrack15	5	ProbeTrack	15.0	SCS215a	20120207.121758	20120207.122019	8	0.013328	60	10	60-180	60	70	GapExp	BigFlash	0	23	2	0	1	target	1	387	807	42639	13.328	13.038	13.613
ProbeTrack15	5	ProbeTrack	15.0	SCS215a	20120207.121758	20120207.122024	8	0.013328	60	10	60-180	60	103	GapExp	BigFlash	0	24	2	3	0	distractor	1	530	735	43374	13.328	12.848	13.794
ProbeTrack15	5	ProbeTrack	15.0	SCS215a	20120207.121758	20120207.122030	8	0.013328	60	10	60-180	60	176	GapExp	BigFlash	0	25	2	0	1	target	1	372	814	44188	13.328	12.856	13.796
ProbeTrack15	5	ProbeTrack	15.0	SCS215a	20120207.121758	20120207.122037	8	0.013328	60	10	60-180	60	123	GapExp	BigFlash	0	26	2	3	0	distractor	1	483	759	44947	13.328	13.304	13.349
ProbeTrack15	5	ProbeTrack	15.0	SCS215a	20120207.121758	20120207.122043	8	0.013328	60	10	60-180	60	79	GapExp	BigFlash	0	27	2	1	0	distractor	1	430	785	45732	13.328	12.993	13.657
ProbeTrack15	5	ProbeTrack	15.0	SCS215a	20120207.121758	20120207.122048	8	0.013328	60	10	60-180	60	69	GapExp	BigFlash	0	28	2	30	0	distractor	1	466	767	46499	13.328	12.885	13.789
ProbeTrack15	5	ProbeTrack	15.0	SCS215a	20120207.121758	20120207.122054	8	0.013328	60	10	60-180	60	153	GapExp	BigFlash	0	29	2	1	1	target	1	499	751	47250	13.328	12.908	13.756
ProbeTrack15	5	ProbeTrack	15.0	SCS215a	20120207.121758	20120207.122100	8	0.013328	60	10	60-180	60	102	GapExp	BigFlash	0	30	2	1	1	target	1	519	741	47991	13.328	13.308	13.349
ProbeTrack15	5	ProbeTrack	15.0	SCS215a	20120207.121758	20120207.122106	8	0.013328	60	10	60-180	60	133	GapExp	BigFlash	0	31	2	3	1	target	1	358	821	48812	13.328	13.303	13.346
ProbeTrack15	5	ProbeTrack	15.0	SCS215a	20120207.121758	20120207.122112	8	0.013328	60	10	60-180	60	88	GapExp	BigFlash	0	32	2	3	1	target	1	371	815	49627	13.328	13.298	13.346
ProbeTrack15	5	ProbeTrack	15.0	SCS215a	20120207.121758	20120207.122117	8	0.013328	60	10	60-180	60	75	GapExp	BigFlash	0	33	2	1	1	target	1	307	847	50474	13.328	13.307	13.357
ProbeTrack15	5	ProbeTrack	15.0	SCS215a	20120207.121758	20120207.122123	8	0.013328	60	10	60-180	60	98	GapExp	BigFlash	0	34	2	1	0	distractor	1	326	837	51311	13.328	12.871	13.793
ProbeTrack15	5	ProbeTrack	15.0	SCS215a	20120207.121758	20120207.122128	8	0.013328	60	10	60-180	60	103	GapExp	BigFlash	0	35	2	0	0	distractor	1	523	739	52050	13.328	12.870	13.786
ProbeTrack15	5	ProbeTrack	15.0	SCS215a	20120207.121758	20120207.122134	8	0.013328	60	10	60-180	60	152	GapExp	BigFlash	0	36	2	30	0	distractor	1	329	836	52886	13.328	13.164	13.507
ProbeTrack15	5	ProbeTrack	15.0	SCS215a	20120207.121758	20120207.122141	8	0.013328	60	10	60-180	60	70	GapExp	BigFlash	0	37	2	0	1	target	1	329	836	53722	13.328	13.304	13.347
ProbeTrack15	5	ProbeTrack	15.0	SCS215a	20120207.121758	20120207.122146	8	0.013328	60	10	60-180	60	146	GapExp	BigFlash	0	38	2	30	0	distractor	1	555	723	54445	13.328	13.271	13.390
ProbeTrack15	5	ProbeTrack	15.0	SCS215a	20120207.121758	20120207.122153	8	0.013328	60	10	60-180	60	88	GapExp	BigFlash	0	39	2	30	1	target	1	453	774	55219	13.328	13.300	13.351
ProbeTrack15	5	ProbeTrack	15.0	SCS215a	20120207.121758	20120207.122158	8	0.013328	60	10	60-180	60	87	GapExp	BigFlash	0	40	2	3	1	target	1	338	831	56050	13.328	13.040	13.628
ProbeTrack15	5	ProbeTrack	15.0	SCS215a	20120207.121758	20120207.122204	8	0.013328	60	10	60-180	60	103	GapExp	BigFlash	0	41	2	30	1	target	1	285	858	56908	13.328	13.112	13.545
ProbeTrack15	5	ProbeTrack	15.0	SCS215a	20120207.121758	20120207.122210	8	0.013328	60	10	60-180	60	145	GapExp	BigFlash	0	42	2	3	0	distractor	1	406	797	57705	13.328	12.895	13.749
ProbeTrack15	5	ProbeTrack	15.0	SCS215a	20120207.121758	20120207.122217	8	0.013328	60	10	60-180	60	164	GapExp	BigFlash	0	43	2	0	1	target	1	351	825	58530	13.328	13.306	13.347
ProbeTrack15	5	ProbeTrack	15.0	SCS215a	20120207.121758	20120207.122223	8	0.013328	60	10	60-180	60	66	GapExp	BigFlash	0	44	2	1	1	target	1	385	808	59338	13.328	13.305	13.345
ProbeTrack15	5	ProbeTrack	15.0	SCS215a	20120207.121758	20120207.122228	8	0.013328	60	10	60-180	60	145	GapExp	BigFlash	0	45	2	1	0	distractor	1	401	800	60138	13.328	12.837	13.805
ProbeTrack15	5	ProbeTrack	15.0	SCS215a	20120207.121758	20120207.122234	8	0.013328	60	10	60-180	60	88	GapExp	BigFlash	0	46	2	30	1	target	1	348	826	60964	13.328	13.098	13.565
ProbeTrack15	5	ProbeTrack	15.0	SCS215a	20120207.121758	20120207.122240	8	0.013328	60	10	60-180	60	90	GapExp	BigFlash	0	47	2	1	1	target	1	296	852	61816	13.328	13.086	13.562
ProbeTrack15	5	ProbeTrack	15.0	SCS215a	20120207.121758	20120207.122245	8	0.013328	60	10	60-180	60	93	GapExp	BigFlash	0	48	2	30	1	target	1	274	863	62679	13.328	13.307	13.348
ProbeTrack15	5	ProbeTrack	15.0	SCS215a	20120207.121758	20120207.122252	8	0.013328	60	10	60-180	60	155	GapExp	BigFlash	0	49	2	0	0	distractor	1	275	863	63542	13.328	12.889	13.765
ProbeTrack15	5	ProbeTrack	15.0	SCS215a	20120207.121758	20120207.122258	8	0.013328	60	10	60-180	60	89	GapExp	BigFlash	0	50	2	0	0	distractor	1	417	792	64334	13.328	13.301	13.363
ProbeTrack15	5	ProbeTrack	15.0	SCS215a	20120207.121758	20120207.122303	8	0.013328	60	10	60-180	60	80	GapExp	BigFlash	0	51	2	30	0	distractor	1	304	848	65182	13.328	13.309	13.346
ProbeTrack15	5	ProbeTrack	15.0	SCS215a	20120207.121758	20120207.122309	8	0.013328	60	10	60-180	60	128	GapExp	BigFlash	0	52	2	30	1	target	1	324	838	66020	13.328	13.097	13.572
ProbeTrack15	5	ProbeTrack	15.0	SCS215a	20120207.121758	20120207.122315	8	0.013328	60	10	60-180	60	151	GapExp	BigFlash	0	53	2	30	0	distractor	1	330	835	66855	13.328	13.094	13.570
ProbeTrack15	5	ProbeTrack	15.0	SCS215a	20120207.121758	20120207.122321	8	0.013328	60	10	60-180	60	95	GapExp	BigFlash	0	54	2	1	0	distractor	1	397	802	67657	13.328	13.096	13.545
ProbeTrack15	5	ProbeTrack	15.0	SCS215a	20120207.121758	20120207.122327	8	0.013328	60	10	60-180	60	97	GapExp	BigFlash	0	55	2	1	1	target	1	342	829	68486	13.328	13.286	13.369
ProbeTrack15	5	ProbeTrack	15.0	SCS215a	20120207.121758	20120207.122333	8	0.013328	60	10	60-180	60	166	GapExp	BigFlash	0	56	2	30	1	target	1	342	829	69315	13.328	13.309	13.350
ProbeTrack15	5	ProbeTrack	15.0	SCS215a	20120207.121758	20120207.122339	8	0.013328	60	10	60-180	60	75	GapExp	BigFlash	0	57	2	30	0	distractor	1	345	828	70143	13.328	13.190	13.451
ProbeTrack15	5	ProbeTrack	15.0	SCS215a	20120207.121758	20120207.122345	8	0.013328	60	10	60-180	60	160	GapExp	BigFlash	0	58	2	1	1	target	1	368	816	70959	13.328	13.308	13.355
ProbeTrack15	5	ProbeTrack	15.0	SCS215a	20120207.121758	20120207.122351	8	0.013328	60	10	60-180	60	131	GapExp	BigFlash	0	59	2	0	1	target	1	333	834	71793	13.328	13.103	13.559
ProbeTrack15	5	ProbeTrack	15.0	SCS215a	20120207.121758	20120207.122358	8	0.013328	60	10	60-180	60	124	GapExp	BigFlash	0	60	2	30	1	target	1	305	848	72641	13.328	12.898	13.759
ProbeTrack15	5	ProbeTrack	15.0	SCS215a	20120207.121758	20120207.122404	8	0.013328	60	10	60-180	60	106	GapExp	BigFlash	0	61	2	30	0	distractor	1	294	853	73494	13.328	13.075	13.589
ProbeTrack15	5	ProbeTrack	15.0	SCS215a	20120207.121758	20120207.122410	8	0.013328	60	10	60-180	60	129	GapExp	BigFlash	0	62	2	3	0	distractor	1	418	791	74285	13.328	12.851	13.825
ProbeTrack15	5	ProbeTrack	15.0	SCS215a	20120207.121758	20120207.122416	8	0.013328	60	10	60-180	60	105	GapExp	BigFlash	0	63	2	3	0	distractor	1	375	813	75098	13.328	13.309	13.349
ProbeTrack15	5	ProbeTrack	15.0	SCS215a	20120207.121758	20120207.122421	8	0.013328	60	10	60-180	60	170	GapExp	BigFlash	0	64	2	1	0	distractor	1	406	797	75895	13.328	12.843	13.814
ProbeTrack15	5	ProbeTrack	15.0	SCS215a	20120207.121758	20120207.122428	8	0.013328	60	10	60-180	60	162	GapExp	BigFlash	0	65	2	3	1	target	1	382	809	76704	13.328	12.903	13.717
ProbeTrack15	5	ProbeTrack	15.0	SCS215a	20120207.121758	20120207.122434	8	0.013328	60	10	60-180	60	106	GapExp	BigFlash	0	66	2	30	1	target	1	302	849	77553	13.328	13.308	13.347
ProbeTrack15	5	ProbeTrack	15.0	SCS215a	20120207.121758	20120207.122440	8	0.013328	60	10	60-180	60	85	GapExp	BigFlash	0	67	2	0	1	target	1	360	820	78373	13.328	12.920	13.730
ProbeTrack15	5	ProbeTrack	15.0	SCS215a	20120207.121758	20120207.122446	8	0.013328	60	10	60-180	60	125	GapExp	BigFlash	0	68	2	0	1	target	1	329	836	79209	13.328	13.097	13.566
ProbeTrack15	5	ProbeTrack	15.0	SCS215a	20120207.121758	20120207.122451	8	0.013328	60	10	60-180	60	143	GapExp	BigFlash	0	69	2	1	0	distractor	1	416	792	80001	13.328	13.098	13.550
ProbeTrack15	5	ProbeTrack	15.0	SCS215a	20120207.121758	20120207.122458	8	0.013328	60	10	60-180	60	109	GapExp	BigFlash	0	70	2	3	1	target	1	276	862	80863	13.328	13.308	13.347
ProbeTrack15	5	ProbeTrack	15.0	SCS215a	20120207.121758	20120207.122503	8	0.013328	60	10	60-180	60	102	GapExp	BigFlash	0	71	2	3	0	distractor	1	439	781	81644	13.328	13.299	13.351
ProbeTrack15	5	ProbeTrack	15.0	SCS215a	20120207.121758	20120207.122509	8	0.013328	60	10	60-180	60	98	GapExp	BigFlash	0	72	2	1	0	distractor	1	436	782	82426	13.328	13.054	13.608
ProbeTrack15	5	ProbeTrack	15.0	SCS215a	20120207.121758	20120207.122515	8	0.013328	60	10	60-180	60	139	GapExp	BigFlash	0	73	2	1	1	target	1	309	846	83272	13.328	13.104	13.564
ProbeTrack15	5	ProbeTrack	15.0	SCS215a	20120207.121758	20120207.122521	8	0.013328	60	10	60-180	60	62	GapExp	BigFlash	0	74	2	1	0	distractor	1	419	791	84063	13.328	13.089	13.557
ProbeTrack15	5	ProbeTrack	15.0	SCS215a	20120207.121758	20120207.122526	8	0.013328	60	10	60-180	60	109	GapExp	BigFlash	0	75	2	30	0	distractor	1	307	847	84910	13.328	13.307	13.346
ProbeTrack15	5	ProbeTrack	15.0	SCS215a	20120207.121758	20120207.122532	8	0.013328	60	10	60-180	60	125	GapExp	BigFlash	0	76	2	1	1	target	1	346	827	85737	13.328	12.904	13.757
ProbeTrack15	5	ProbeTrack	15.0	SCS215a	20120207.121758	20120207.122537	8	0.013328	60	10	60-180	60	164	GapExp	BigFlash	0	77	2	30	0	distractor	1	415	793	86530	13.328	12.960	13.691
ProbeTrack15	5	ProbeTrack	15.0	SCS215a	20120207.121758	20120207.122545	8	0.013328	60	10	60-180	60	178	GapExp	BigFlash	0	78	2	1	0	distractor	1	429	786	87316	13.328	13.309	13.345
ProbeTrack15	5	ProbeTrack	15.0	SCS215a	20120207.121758	20120207.122551	8	0.013328	60	10	60-180	60	147	GapExp	BigFlash	0	79	2	1	1	target	1	356	822	88138	13.328	13.292	13.365
ProbeTrack15	5	ProbeTrack	15.0	SCS215a	20120207.121758	20120207.122557	8	0.013328	60	10	60-180	60	96	GapExp	BigFlash	0	80	2	0	0	distractor	1	386	807	88945	13.328	13.038	13.598
ProbeTrack15	5	ProbeTrack	15.0	SCS215a	20120207.121758	20120207.122603	8	0.013328	60	10	60-180	60	177	GapExp	BigFlash	0	81	2	1	1	target	1	362	819	89764	13.328	13.106	13.541
ProbeTrack15	5	ProbeTrack	15.0	SCS215a	20120207.121758	20120207.122609	8	0.013328	60	10	60-180	60	66	GapExp	BigFlash	0	82	2	3	0	distractor	1	386	807	90571	13.328	13.307	13.345
ProbeTrack15	5	ProbeTrack	15.0	SCS215a	20120207.121758	20120207.122614	8	0.013328	60	10	60-180	60	79	GapExp	BigFlash	0	83	2	3	0	distractor	1	372	814	91385	13.328	13.289	13.365
ProbeTrack15	5	ProbeTrack	15.0	SCS215a	20120207.121758	20120207.122620	8	0.013328	60	10	60-180	60	65	GapExp	BigFlash	0	84	2	30	1	target	1	328	836	92221	13.328	12.911	13.731
ProbeTrack15	5	ProbeTrack	15.0	SCS215a	20120207.121758	20120207.122626	8	0.013328	60	10	60-180	60	72	GapExp	BigFlash	0	85	2	3	1	target	1	373	814	93035	13.328	13.084	13.566
ProbeTrack15	5	ProbeTrack	15.0	SCS215a	20120207.121758	20120207.122631	8	0.013328	60	10	60-180	60	130	GapExp	BigFlash	0	86	2	1	0	distractor	1	429	786	93821	13.328	12.869	13.790
ProbeTrack15	5	ProbeTrack	15.0	SCS215a	20120207.121758	20120207.122637	8	0.013328	60	10	60-180	60	93	GapExp	BigFlash	0	87	2	0	0	distractor	1	363	819	94640	13.328	13.306	13.348
ProbeTrack15	5	ProbeTrack	15.0	SCS215a	20120207.121758	20120207.122642	8	0.013328	60	10	60-180	60	145	GapExp	BigFlash	0	88	2	0	0	distractor	1	515	743	95383	13.328	13.087	13.567
ProbeTrack15	5	ProbeTrack	15.0	SCS215a	20120207.121758	20120207.122648	8	0.013328	60	10	60-180	60	135	GapExp	BigFlash	0	89	2	0	0	distractor	1	399	801	96184	13.328	12.845	13.798
ProbeTrack15	5	ProbeTrack	15.0	SCS215a	20120207.121758	20120207.122655	8	0.013328	60	10	60-180	60	84	GapExp	BigFlash	0	90	2	1	1	target	1	361	820	97004	13.328	12.867	13.778
ProbeTrack15	5	ProbeTrack	15.0	SCS215a	20120207.121758	20120207.122700	8	0.013328	60	10	60-180	60	85	GapExp	BigFlash	0	91	2	3	1	target	1	307	847	97851	13.328	13.098	13.566
ProbeTrack15	5	ProbeTrack	15.0	SCS215a	20120207.121758	20120207.122705	8	0.013328	60	10	60-180	60	95	GapExp	BigFlash	0	92	2	3	0	distractor	1	413	794	98645	13.328	13.097	13.551
ProbeTrack15	5	ProbeTrack	15.0	SCS215a	20120207.121758	20120207.122711	8	0.013328	60	10	60-180	60	169	GapExp	BigFlash	0	93	2	30	0	distractor	1	352	824	99469	13.328	13.276	13.380
ProbeTrack15	5	ProbeTrack	15.0	SCS215a	20120207.121758	20120207.122717	8	0.013328	60	10	60-180	60	123	GapExp	BigFlash	0	94	2	3	0	distractor	1	404	798	100267	13.328	13.304	13.353
ProbeTrack15	5	ProbeTrack	15.0	SCS215a	20120207.121758	20120207.122723	8	0.013328	60	10	60-180	60	127	GapExp	BigFlash	0	95	2	3	0	distractor	1	462	769	101036	13.328	13.304	13.348
ProbeTrack15	5	ProbeTrack	15.0	SCS215a	20120207.121758	20120207.122730	8	0.013328	60	10	60-180	60	71	GapExp	BigFlash	0	96	2	3	0	distractor	1	471	765	101801	13.328	12.870	13.783
ProbeTrack15	5	ProbeTrack	15.0	SCS215a	20120207.121758	20120207.122735	8	0.013328	60	10	60-180	60	84	GapExp	BigFlash	0	97	2	30	0	distractor	1	350	825	102626	13.328	13.104	13.553
ProbeTrack15	5	ProbeTrack	15.0	SCS215a	20120207.121758	20120207.122740	8	0.013328	60	10	60-180	60	158	GapExp	BigFlash	0	98	2	0	0	distractor	1	445	778	103404	13.328	13.076	13.575
ProbeTrack15	5	ProbeTrack	15.0	SCS215a	20120207.121758	20120207.122746	8	0.013328	60	10	60-180	60	178	GapExp	BigFlash	0	99	2	3	0	distractor	1	391	805	104209	13.328	13.083	13.557
ProbeTrack15	5	ProbeTrack	15.0	SCS215a	20120207.121758	20120207.122753	8	0.013328	60	10	60-180	60	135	GapExp	BigFlash	0	100	2	3	0	distractor	1	390	805	105014	13.328	13.305	13.348
ProbeTrack15	5	ProbeTrack	15.0	SCS215a	20120207.121758	20120207.122759	8	0.013328	60	10	60-180	60	107	GapExp	BigFlash	0	101	2	0	0	distractor	1	482	759	105773	13.328	12.896	13.774
ProbeTrack15	5	ProbeTrack	15.0	SCS215a	20120207.121758	20120207.122805	8	0.013328	60	10	60-180	60	145	GapExp	BigFlash	0	102	2	0	0	distractor	1	378	811	106584	13.328	12.912	13.743
ProbeTrack15	5	ProbeTrack	15.0	SCS215a	20120207.121758	20120207.122811	8	0.013328	60	10	60-180	60	173	GapExp	BigFlash	0	103	2	30	1	target	1	280	860	107444	13.328	13.309	13.350
ProbeTrack15	5	ProbeTrack	15.0	SCS215a	20120207.121758	20120207.122818	8	0.013328	60	10	60-180	60	109	GapExp	BigFlash	0	104	2	1	0	distractor	1	387	807	108251	13.328	12.872	13.796
ProbeTrack15	5	ProbeTrack	15.0	SCS215a	20120207.121758	20120207.122823	8	0.013328	60	10	60-180	60	140	GapExp	BigFlash	0	105	2	3	1	target	1	370	815	109066	13.328	13.101	13.547
ProbeTrack15	5	ProbeTrack	15.0	SCS215a	20120207.121758	20120207.122829	8	0.013328	60	10	60-180	60	133	GapExp	BigFlash	0	106	2	1	1	target	1	299	851	109917	13.328	13.307	13.350
ProbeTrack15	5	ProbeTrack	15.0	SCS215a	20120207.121758	20120207.122836	8	0.013328	60	10	60-180	60	104	GapExp	BigFlash	0	107	2	0	0	distractor	1	433	784	110701	13.328	12.861	13.640
ProbeTrack15	5	ProbeTrack	15.0	SCS215a	20120207.121758	20120207.122841	8	0.013328	60	10	60-180	60	70	GapExp	BigFlash	0	108	2	1	0	distractor	1	382	809	111510	13.328	12.860	13.797
ProbeTrack15	5	ProbeTrack	15.0	SCS215a	20120207.121758	20120207.122846	8	0.013328	60	10	60-180	60	82	GapExp	BigFlash	0	109	2	0	0	distractor	1	474	763	112273	13.328	13.313	13.348
ProbeTrack15	5	ProbeTrack	15.0	SCS215a	20120207.121758	20120207.122852	8	0.013328	60	10	60-180	60	62	GapExp	BigFlash	0	110	2	3	0	distractor	1	545	728	113001	13.328	13.003	13.653
ProbeTrack15	5	ProbeTrack	15.0	SCS215a	20120207.121758	20120207.122857	8	0.013328	60	10	60-180	60	152	GapExp	BigFlash	0	111	2	0	1	target	1	317	842	113843	13.328	13.096	13.546
ProbeTrack15	5	ProbeTrack	15.0	SCS215a	20120207.121758	20120207.122903	8	0.013328	60	10	60-180	60	112	GapExp	BigFlash	0	112	2	0	0	distractor	1	598	701	114544	13.328	13.307	13.347
ProbeTrack15	5	ProbeTrack	15.0	SCS215a	20120207.121758	20120207.122909	8	0.013328	60	10	60-180	60	151	GapExp	BigFlash	0	113	2	1	0	distractor	1	319	841	115385	13.328	12.962	13.701
ProbeTrack15	5	ProbeTrack	15.0	SCS215a	20120207.121758	20120207.122915	8	0.013328	60	10	60-180	60	62	GapExp	BigFlash	0	114	2	3	0	distractor	1	355	823	116208	13.328	13.301	13.345
ProbeTrack15	5	ProbeTrack	15.0	SCS215a	20120207.121758	20120207.122920	8	0.013328	60	10	60-180	60	176	GapExp	BigFlash	0	115	2	0	0	distractor	1	362	819	117027	13.328	13.098	13.551
ProbeTrack15	5	ProbeTrack	15.0	SCS215a	20120207.121758	20120207.122927	8	0.013328	60	10	60-180	60	70	GapExp	BigFlash	0	116	2	1	0	distractor	1	463	769	117796	13.328	13.081	13.573
ProbeTrack15	5	ProbeTrack	15.0	SCS215a	20120207.121758	20120207.122932	8	0.013328	60	10	60-180	60	82	GapExp	BigFlash	0	117	2	3	1	target	1	364	818	118614	13.328	13.234	13.436
ProbeTrack15	5	ProbeTrack	15.0	SCS215a	20120207.121758	20120207.122937	8	0.013328	60	10	60-180	60	136	GapExp	BigFlash	0	118	2	1	1	target	1	337	832	119446	13.328	13.309	13.352
ProbeTrack15	5	ProbeTrack	15.0	SCS215a	20120207.121758	20120207.122944	8	0.013328	60	10	60-180	60	151	GapExp	BigFlash	0	119	2	1	0	distractor	1	385	808	120254	13.328	13.055	13.599
ProbeTrack15	5	ProbeTrack	15.0	SCS215a	20120207.121758	20120207.122950	8	0.013328	60	10	60-180	60	163	GapExp	BigFlash	0	120	2	30	1	distractor	0	315	-1000	119254	13.328	13.290	13.360
ProbeTrack15	5	ProbeTrack	15.0	SCS215a	20120207.121758	20120207.122956	8	0.013328	60	10	60-180	60	83	GapExp	BigFlash	0	121	2	1	0	distractor	1	435	783	120037	13.328	12.859	13.791
ProbeTrack15	5	ProbeTrack	15.0	SCS215a	20120207.121758	20120207.123002	8	0.013328	60	10	60-180	60	76	GapExp	BigFlash	0	122	2	3	1	target	1	348	826	120863	13.328	13.097	13.551
ProbeTrack15	5	ProbeTrack	15.0	SCS215a	20120207.121758	20120207.123007	8	0.013328	60	10	60-180	60	160	GapExp	BigFlash	0	123	2	3	1	target	1	364	818	121681	13.328	13.071	13.578
ProbeTrack15	5	ProbeTrack	15.0	SCS215a	20120207.121758	20120207.123013	8	0.013328	60	10	60-180	60	134	GapExp	BigFlash	0	124	2	3	1	target	1	344	828	122509	13.328	13.296	13.360
ProbeTrack15	5	ProbeTrack	15.0	SCS215a	20120207.121758	20120207.123020	8	0.013328	60	10	60-180	60	105	GapExp	BigFlash	0	125	2	3	1	target	1	439	781	123290	13.328	13.309	13.354
ProbeTrack15	5	ProbeTrack	15.0	SCS215a	20120207.121758	20120207.123025	8	0.013328	60	10	60-180	60	117	GapExp	BigFlash	0	126	2	0	1	target	1	322	839	124129	13.328	13.190	13.460
ProbeTrack15	5	ProbeTrack	15.0	SCS215a	20120207.121758	20120207.123031	8	0.013328	60	10	60-180	60	178	GapExp	BigFlash	0	127	2	0	0	distractor	1	421	790	124919	13.328	13.288	13.368
ProbeTrack15	5	ProbeTrack	15.0	SCS215a	20120207.121758	20120207.123038	8	0.013328	60	10	60-180	60	140	GapExp	BigFlash	0	128	2	30	0	distractor	1	470	765	125684	13.328	13.283	13.377
ProbeTrack15	5	ProbeTrack	15.0	SCS215a	20120207.121758	20120207.123045	8	0.013328	60	10	60-180	60	85	GapExp	BigFlash	0	129	2	30	1	target	1	546	727	126411	13.328	13.298	13.360
ProbeTrack15	5	ProbeTrack	15.0	SCS215a	20120207.121758	20120207.123052	8	0.013328	60	10	60-180	60	67	GapExp	BigFlash	0	130	2	30	0	distractor	1	433	784	127195	13.328	12.917	13.739
ProbeTrack15	5	ProbeTrack	15.0	SCS215a	20120207.121758	20120207.123057	8	0.013328	60	10	60-180	60	144	GapExp	BigFlash	0	131	2	0	1	target	1	353	824	128019	13.328	13.098	13.571
ProbeTrack15	5	ProbeTrack	15.0	SCS215a	20120207.121758	20120207.123103	8	0.013328	60	10	60-180	60	131	GapExp	BigFlash	0	132	2	0	0	target	0	587	-1000	127019	13.328	13.046	13.611
ProbeTrack15	5	ProbeTrack	15.0	SCS215a	20120207.121758	20120207.123110	8	0.013328	60	10	60-180	60	113	GapExp	BigFlash	0	133	2	0	1	target	1	334	833	127852	13.328	12.939	13.723
ProbeTrack15	5	ProbeTrack	15.0	SCS215a	20120207.121758	20120207.123115	8	0.013328	60	10	60-180	60	142	GapExp	BigFlash	0	134	2	30	1	target	1	328	836	128688	13.328	13.289	13.353
ProbeTrack15	5	ProbeTrack	15.0	SCS215a	20120207.121758	20120207.123122	8	0.013328	60	10	60-180	60	179	GapExp	BigFlash	0	135	2	0	1	target	1	316	842	129530	13.328	12.869	13.772
ProbeTrack15	5	ProbeTrack	15.0	SCS215a	20120207.121758	20120207.123129	8	0.013328	60	10	60-180	60	86	GapExp	BigFlash	0	136	2	30	0	distractor	1	377	812	130342	13.328	13.194	13.473
ProbeTrack15	5	ProbeTrack	15.0	SCS215a	20120207.121758	20120207.123135	8	0.013328	60	10	60-180	60	63	GapExp	BigFlash	0	137	2	3	0	distractor	1	430	785	131127	13.328	13.308	13.344
ProbeTrack15	5	ProbeTrack	15.0	SCS215a	20120207.121758	20120207.123140	8	0.013328	60	10	60-180	60	135	GapExp	BigFlash	0	138	2	3	1	target	1	294	853	131980	13.328	12.905	13.753
ProbeTrack15	5	ProbeTrack	15.0	SCS215a	20120207.121758	20120207.123146	8	0.013328	60	10	60-180	60	114	GapExp	BigFlash	0	139	2	3	0	distractor	1	352	824	132804	13.328	13.099	13.563
ProbeTrack15	5	ProbeTrack	15.0	SCS215a	20120207.121758	20120207.123151	8	0.013328	60	10	60-180	60	114	GapExp	BigFlash	0	140	2	0	1	target	1	391	805	133609	13.328	13.309	13.347
ProbeTrack15	5	ProbeTrack	15.0	SCS215a	20120207.121758	20120207.123158	8	0.013328	60	10	60-180	60	151	GapExp	BigFlash	0	141	2	1	1	target	1	290	855	134464	13.328	12.842	13.814
ProbeTrack15	5	ProbeTrack	15.0	SCS215a	20120207.121758	20120207.123204	8	0.013328	60	10	60-180	60	156	GapExp	BigFlash	0	142	2	3	1	target	1	269	866	135330	13.328	13.307	13.348
ProbeTrack15	5	ProbeTrack	15.0	SCS215a	20120207.121758	20120207.123210	8	0.013328	60	10	60-180	60	155	GapExp	BigFlash	0	143	2	1	0	distractor	1	440	780	136110	13.328	12.859	13.805
ProbeTrack15	5	ProbeTrack	15.0	SCS215a	20120207.121758	20120207.123217	8	0.013328	60	10	60-180	60	106	GapExp	BigFlash	0	144	2	30	1	target	1	314	843	136953	13.328	12.916	13.748
ProbeTrack15	5	ProbeTrack	15.0	SCS215a	20120207.121758	20120207.123222	8	0.013328	60	10	60-180	60	109	GapExp	BigFlash	0	145	2	0	0	distractor	1	412	794	137747	13.328	12.914	13.743
ProbeTrack15	5	ProbeTrack	15.0	SCS215a	20120207.121758	20120207.123228	8	0.013328	60	10	60-180	60	76	GapExp	BigFlash	0	146	2	0	0	distractor	1	447	777	138524	13.328	13.097	13.558
ProbeTrack15	5	ProbeTrack	15.0	SCS215a	20120207.121758	20120207.123234	8	0.013328	60	10	60-180	60	152	GapExp	BigFlash	0	147	2	30	0	distractor	1	363	819	139343	13.328	13.104	13.565
ProbeTrack15	5	ProbeTrack	15.0	SCS215a	20120207.121758	20120207.123240	8	0.013328	60	10	60-180	60	142	GapExp	BigFlash	0	148	2	1	0	distractor	1	416	792	140135	13.328	12.837	13.804
ProbeTrack15	5	ProbeTrack	15.0	SCS215a	20120207.121758	20120207.123246	8	0.013328	60	10	60-180	60	85	GapExp	BigFlash	0	149	2	30	1	target	1	323	839	140974	13.328	13.005	13.660
ProbeTrack15	5	ProbeTrack	15.0	SCS215a	20120207.121758	20120207.123252	8	0.013328	60	10	60-180	60	157	GapExp	BigFlash	0	150	2	30	0	distractor	1	342	829	141803	13.328	13.307	13.346
ProbeTrack15	5	ProbeTrack	15.0	SCS215a	20120207.121758	20120207.123259	8	0.013328	60	10	60-180	60	64	GapExp	BigFlash	0	151	2	1	0	distractor	1	500	750	142553	13.328	13.300	13.354
ProbeTrack15	5	ProbeTrack	15.0	SCS215a	20120207.121758	20120207.123304	8	0.013328	60	10	60-180	60	174	GapExp	BigFlash	0	152	2	30	0	distractor	1	432	784	143337	13.328	12.881	13.781
ProbeTrack15	5	ProbeTrack	15.0	SCS215a	20120207.121758	20120207.123311	8	0.013328	60	10	60-180	60	85	GapExp	BigFlash	0	153	2	0	0	distractor	1	411	795	144132	13.328	13.097	13.559
ProbeTrack15	5	ProbeTrack	15.0	SCS215a	20120207.121758	20120207.123316	8	0.013328	60	10	60-180	60	137	GapExp	BigFlash	0	154	2	0	0	distractor	1	393	804	144936	13.328	12.858	13.780
ProbeTrack15	5	ProbeTrack	15.0	SCS215a	20120207.121758	20120207.123322	8	0.013328	60	10	60-180	60	167	GapExp	BigFlash	0	155	2	3	1	target	1	331	835	145771	13.328	12.852	13.787
ProbeTrack15	5	ProbeTrack	15.0	SCS215a	20120207.121758	20120207.123329	8	0.013328	60	10	60-180	60	152	GapExp	BigFlash	0	156	2	0	1	target	1	313	844	146615	13.328	12.868	13.791
ProbeTrack15	5	ProbeTrack	15.0	SCS215a	20120207.121758	20120207.123335	8	0.013328	60	10	60-180	60	180	GapExp	BigFlash	0	157	2	30	1	target	1	263	869	147484	13.328	12.837	13.809
ProbeTrack15	5	ProbeTrack	15.0	SCS215a	20120207.121758	20120207.123342	8	0.013328	60	10	60-180	60	125	GapExp	BigFlash	0	158	2	3	1	target	1	341	830	148314	13.439	12.930	27.086
ProbeTrack15	5	ProbeTrack	15.0	SCS215a	20120207.121758	20120207.123348	8	0.013328	60	10	60-180	60	123	GapExp	BigFlash	0	159	2	30	1	target	1	272	864	149178	13.328	13.309	13.347
ProbeTrack15	5	ProbeTrack	15.0	SCS215a	20120207.121758	20120207.123354	8	0.013328	60	10	60-180	60	155	GapExp	BigFlash	0	160	2	30	0	distractor	1	246	877	150055	13.328	12.846	13.818
ProbeTrack15	5	ProbeTrack	15.0	SCS215a	20120207.121758	20120207.123400	8	0.013328	60	10	60-180	60	177	GapExp	BigFlash	0	161	2	0	1	target	1	380	810	150865	13.328	12.937	13.709
ProbeTrack15	5	ProbeTrack	15.0	SCS215a	20120207.121758	20120207.123407	8	0.013328	60	10	60-180	60	176	GapExp	BigFlash	0	162	2	3	0	distractor	1	389	806	151671	13.328	13.307	13.358
ProbeTrack15	5	ProbeTrack	15.0	SCS215a	20120207.121758	20120207.123414	8	0.013328	60	10	60-180	60	179	GapExp	BigFlash	0	163	2	3	1	target	1	298	851	152522	13.328	13.091	13.558
ProbeTrack15	5	ProbeTrack	15.0	SCS215a	20120207.121758	20120207.123420	8	0.013328	60	10	60-180	60	130	GapExp	BigFlash	0	164	2	1	1	target	1	346	827	153349	13.328	12.987	13.658
ProbeTrack15	5	ProbeTrack	15.0	SCS215a	20120207.121758	20120207.123426	8	0.013328	60	10	60-180	60	99	GapExp	BigFlash	0	165	2	1	1	target	1	389	806	154155	13.328	13.264	13.392
ProbeTrack15	5	ProbeTrack	15.0	SCS215a	20120207.121758	20120207.123431	8	0.013328	60	10	60-180	60	101	GapExp	BigFlash	0	166	2	30	1	target	1	252	874	155029	13.328	13.144	13.498
ProbeTrack15	5	ProbeTrack	15.0	SCS215a	20120207.121758	20120207.123437	8	0.013328	60	10	60-180	60	121	GapExp	BigFlash	0	167	2	1	0	distractor	1	385	808	155837	13.328	13.309	13.345
ProbeTrack15	5	ProbeTrack	15.0	SCS215a	20120207.121758	20120207.123443	8	0.013328	60	10	60-180	60	103	GapExp	BigFlash	0	168	2	3	1	target	1	304	848	156685	13.328	12.968	13.677
ProbeTrack15	5	ProbeTrack	15.0	SCS215a	20120207.121758	20120207.123449	8	0.013328	60	10	60-180	60	78	GapExp	BigFlash	0	169	2	30	1	target	1	255	873	157558	13.328	13.003	13.641
ProbeTrack15	5	ProbeTrack	15.0	SCS215a	20120207.121758	20120207.123454	8	0.013328	60	10	60-180	60	138	GapExp	BigFlash	0	170	2	0	1	target	1	380	810	158368	13.328	12.980	13.675
ProbeTrack15	5	ProbeTrack	15.0	SCS215a	20120207.121758	20120207.123500	8	0.013328	60	10	60-180	60	169	GapExp	BigFlash	0	171	2	3	1	target	1	330	835	159203	13.328	12.946	13.705
ProbeTrack15	5	ProbeTrack	15.0	SCS215a	20120207.121758	20120207.123506	8	0.013328	60	10	60-180	60	95	GapExp	BigFlash	0	172	2	0	1	target	1	321	840	160043	13.328	13.311	13.345
ProbeTrack15	5	ProbeTrack	15.0	SCS215a	20120207.121758	20120207.123512	8	0.013328	60	10	60-180	60	71	GapExp	BigFlash	0	173	2	1	0	distractor	1	430	785	160828	13.328	13.309	13.349
ProbeTrack15	5	ProbeTrack	15.0	SCS215a	20120207.121758	20120207.123517	8	0.013328	60	10	60-180	60	70	GapExp	BigFlash	0	174	2	0	0	distractor	1	459	771	161599	13.328	13.098	13.559
ProbeTrack15	5	ProbeTrack	15.0	SCS215a	20120207.121758	20120207.123522	8	0.013328	60	10	60-180	60	117	GapExp	BigFlash	0	175	2	3	0	distractor	1	368	816	162415	13.328	13.053	13.618
ProbeTrack15	5	ProbeTrack	15.0	SCS215a	20120207.121758	20120207.123528	8	0.013328	60	10	60-180	60	97	GapExp	BigFlash	0	176	2	1	1	target	1	326	837	163252	13.328	13.307	13.345
ProbeTrack15	5	ProbeTrack	15.0	SCS215a	20120207.121758	20120207.123533	8	0.013328	60	10	60-180	60	89	GapExp	BigFlash	0	177	2	0	1	target	1	340	830	164082	13.328	13.302	13.347
ProbeTrack15	5	ProbeTrack	15.0	SCS215a	20120207.121758	20120207.123538	8	0.013328	60	10	60-180	60	103	GapExp	BigFlash	0	178	2	1	1	target	1	351	825	164907	13.328	13.104	13.544
ProbeTrack15	5	ProbeTrack	15.0	SCS215a	20120207.121758	20120207.123544	8	0.013328	60	10	60-180	60	79	GapExp	BigFlash	0	179	2	30	0	distractor	1	352	824	165731	13.328	13.308	13.343
ProbeTrack15	5	ProbeTrack	15.0	SCS215a	20120207.121758	20120207.123550	8	0.013328	60	10	60-180	60	83	GapExp	BigFlash	0	180	2	1	1	target	1	381	810	166541	13.328	13.309	13.347
ProbeTrack15	5	ProbeTrack	15.0	SCS215a	20120207.121758	20120207.123555	8	0.013328	60	10	60-180	60	150	GapExp	BigFlash	0	181	2	1	1	target	1	345	828	167369	13.328	13.303	13.349
ProbeTrack15	5	ProbeTrack	15.0	SCS215a	20120207.121758	20120207.123601	8	0.013328	60	10	60-180	60	158	GapExp	BigFlash	0	182	2	3	1	target	1	352	824	168193	13.328	13.308	13.346
ProbeTrack15	5	ProbeTrack	15.0	SCS215a	20120207.121758	20120207.123608	8	0.013328	60	10	60-180	60	64	GapExp	BigFlash	0	183	2	0	1	target	1	339	831	169024	13.328	13.309	13.348
ProbeTrack15	5	ProbeTrack	15.0	SCS215a	20120207.121758	20120207.123613	8	0.013328	60	10	60-180	60	178	GapExp	BigFlash	0	184	2	30	1	target	1	262	869	169893	13.328	13.106	13.555
ProbeTrack15	5	ProbeTrack	15.0	SCS215a	20120207.121758	20120207.123619	8	0.013328	60	10	60-180	60	63	GapExp	BigFlash	0	185	2	30	1	target	1	259	871	170764	13.328	13.310	13.345
ProbeTrack15	5	ProbeTrack	15.0	SCS215a	20120207.121758	20120207.123625	8	0.013328	60	10	60-180	60	116	GapExp	BigFlash	0	186	2	30	1	target	1	285	858	171622	13.328	12.964	13.702
ProbeTrack15	5	ProbeTrack	15.0	SCS215a	20120207.121758	20120207.123631	8	0.013328	60	10	60-180	60	139	GapExp	BigFlash	0	187	2	0	1	target	1	415	793	172415	13.328	13.308	13.345
ProbeTrack15	5	ProbeTrack	15.0	SCS215a	20120207.121758	20120207.123637	8	0.013328	60	10	60-180	60	160	GapExp	BigFlash	0	188	2	0	1	target	1	320	840	173255	13.328	13.307	13.346
ProbeTrack15	5	ProbeTrack	15.0	SCS215a	20120207.121758	20120207.123643	8	0.013328	60	10	60-180	60	68	GapExp	BigFlash	0	189	2	1	0	distractor	1	445	778	174033	13.328	13.042	13.619
ProbeTrack15	5	ProbeTrack	15.0	SCS215a	20120207.121758	20120207.123648	8	0.013328	60	10	60-180	60	167	GapExp	BigFlash	0	190	2	3	1	target	1	298	851	174884	13.328	12.878	13.801
ProbeTrack15	5	ProbeTrack	15.0	SCS215a	20120207.121758	20120207.123655	8	0.013328	60	10	60-180	60	104	GapExp	BigFlash	0	191	2	3	0	distractor	1	436	782	175666	13.328	13.103	13.552
ProbeTrack15	5	ProbeTrack	15.0	SCS215a	20120207.121758	20120207.123701	8	0.013328	60	10	60-180	60	111	GapExp	BigFlash	0	192	2	0	1	target	1	337	832	176498	13.328	13.092	13.571
ProbeTrack15	5	ProbeTrack	15.0	SCS215a	20120207.121758	20120207.123706	8	0.013328	60	10	60-180	60	120	GapExp	BigFlash	0	193	2	0	1	target	1	311	845	177343	13.328	13.309	13.352
ProbeTrack15	5	ProbeTrack	15.0	SCS215a	20120207.121758	20120207.123712	8	0.013328	60	10	60-180	60	137	GapExp	BigFlash	0	194	2	3	1	target	1	301	850	178193	13.328	13.309	13.345
ProbeTrack15	5	ProbeTrack	15.0	SCS215a	20120207.121758	20120207.123718	8	0.013328	60	10	60-180	60	69	GapExp	BigFlash	0	195	2	0	0	distractor	1	418	791	178984	13.328	13.017	13.639
ProbeTrack15	5	ProbeTrack	15.0	SCS215a	20120207.121758	20120207.123723	8	0.013328	60	10	60-180	60	103	GapExp	BigFlash	0	196	2	1	0	target	0	648	-1000	177984	13.328	13.012	13.656
ProbeTrack15	5	ProbeTrack	15.0	SCS215a	20120207.121758	20120207.123728	8	0.013328	60	10	60-180	60	137	GapExp	BigFlash	0	197	2	30	0	distractor	1	313	844	178828	13.328	13.005	13.659
ProbeTrack15	5	ProbeTrack	15.0	SCS215a	20120207.121758	20120207.123735	8	0.013328	60	10	60-180	60	123	GapExp	BigFlash	0	198	2	30	0	distractor	1	346	827	179655	13.328	12.905	13.738
ProbeTrack15	5	ProbeTrack	15.0	SCS215a	20120207.121758	20120207.123741	8	0.013328	60	10	60-180	60	110	GapExp	BigFlash	0	199	2	30	0	distractor	1	339	831	180486	13.328	13.302	13.348
ProbeTrack15	5	ProbeTrack	15.0	SCS215a	20120207.121758	20120207.123747	8	0.013328	60	10	60-180	60	129	GapExp	BigFlash	0	200	2	3	0	distractor	1	402	799	181285	13.328	13.308	13.348
ProbeTrack15	5	ProbeTrack	15.0	SCS215a	20120207.123831	20120207.123836	8	0.013327	60	10	60-180	60	76	GapPrac	SmallFlash	1	1	2	30	0	distractor	1	401	800	182085	13.388	13.305	13.343
ProbeTrack15	5	ProbeTrack	15.0	SCS215a	20120207.123831	20120207.123844	8	0.013327	60	10	60-180	60	131	GapPrac	SmallFlash	1	2	2	0	1	target	1	517	742	182827	13.328	7.807	18.848
ProbeTrack15	5	ProbeTrack	15.0	SCS215a	20120207.123831	20120207.123850	8	0.013327	60	10	60-180	60	78	GapPrac	SmallFlash	1	3	2	1	1	target	1	527	737	183564	13.328	10.344	16.310
ProbeTrack15	5	ProbeTrack	15.0	SCS215a	20120207.123831	20120207.123855	8	0.013327	60	10	60-180	60	148	GapPrac	SmallFlash	1	4	2	0	0	distractor	1	471	765	184329	13.328	9.310	17.338
ProbeTrack15	5	ProbeTrack	15.0	SCS215a	20120207.123831	20120207.123901	8	0.013327	60	10	60-180	60	114	GapPrac	SmallFlash	1	5	2	0	1	target	1	380	810	185139	13.328	13.104	13.561
ProbeTrack15	5	ProbeTrack	15.0	SCS215a	20120207.123831	20120207.123907	8	0.013327	60	10	60-180	60	139	GapPrac	SmallFlash	1	6	2	1	1	target	1	321	840	185979	13.328	13.309	13.347
ProbeTrack15	5	ProbeTrack	15.0	SCS215a	20120207.123831	20120207.123913	8	0.013327	60	10	60-180	60	152	GapPrac	SmallFlash	1	7	2	0	0	distractor	1	411	795	186774	13.328	8.547	18.111
ProbeTrack15	5	ProbeTrack	15.0	SCS215a	20120207.123831	20120207.123919	8	0.013327	60	10	60-180	60	137	GapPrac	SmallFlash	1	8	2	30	0	distractor	1	341	830	187604	13.328	11.939	14.697
ProbeTrack15	5	ProbeTrack	15.0	SCS215a	20120207.123831	20120207.123925	8	0.013327	60	10	60-180	60	154	GapPrac	SmallFlash	1	9	2	30	1	target	1	325	838	188442	13.328	13.285	13.365
ProbeTrack15	5	ProbeTrack	15.0	SCS215a	20120207.123831	20120207.123932	8	0.013327	60	10	60-180	60	155	GapPrac	SmallFlash	1	10	2	3	1	target	1	348	826	189268	13.328	9.836	16.829
ProbeTrack15	5	ProbeTrack	15.0	SCS215a	20120207.123831	20120207.123938	8	0.013327	60	10	60-180	60	68	GapPrac	SmallFlash	1	11	2	1	1	target	1	414	793	190061	13.328	13.306	13.346
ProbeTrack15	5	ProbeTrack	15.0	SCS215a	20120207.123831	20120207.123943	8	0.013327	60	10	60-180	60	129	GapPrac	SmallFlash	1	12	2	0	0	distractor	1	432	784	190845	13.328	13.098	13.570
ProbeTrack15	5	ProbeTrack	15.0	SCS215a	20120207.123831	20120207.123949	8	0.013327	60	10	60-180	60	79	GapPrac	SmallFlash	1	13	2	1	0	distractor	1	443	779	191624	13.328	13.093	13.552
ProbeTrack15	5	ProbeTrack	15.0	SCS215a	20120207.123831	20120207.123954	8	0.013327	60	10	60-180	60	143	GapPrac	SmallFlash	1	14	2	3	0	distractor	1	557	722	192346	13.328	13.104	13.559
ProbeTrack15	5	ProbeTrack	15.0	SCS215a	20120207.123831	20120207.124000	8	0.013327	60	10	60-180	60	130	GapPrac	SmallFlash	1	15	2	1	0	distractor	1	389	806	193152	13.328	10.717	15.939
ProbeTrack15	5	ProbeTrack	15.0	SCS215a	20120207.123831	20120207.124006	8	0.013327	60	10	60-180	60	141	GapPrac	SmallFlash	1	16	2	30	0	distractor	1	339	831	193983	13.328	13.211	13.445
ProbeTrack15	5	ProbeTrack	15.0	SCS215a	20120207.123831	20120207.124013	8	0.013327	60	10	60-180	60	136	GapPrac	SmallFlash	1	17	2	3	1	target	1	365	818	194801	13.328	13.296	13.357
ProbeTrack15	5	ProbeTrack	15.0	SCS215a	20120207.123831	20120207.124018	8	0.013327	60	10	60-180	60	108	GapPrac	SmallFlash	1	18	2	3	0	distractor	1	382	809	195610	13.328	13.113	13.543
ProbeTrack15	5	ProbeTrack	15.0	SCS215a	20120207.123831	20120207.124024	8	0.013327	60	10	60-180	60	120	GapPrac	SmallFlash	1	19	2	30	1	target	1	267	867	196477	13.328	13.086	13.558
ProbeTrack15	5	ProbeTrack	15.0	SCS215a	20120207.123831	20120207.124031	8	0.013327	60	10	60-180	60	64	GapPrac	SmallFlash	1	20	2	0	1	target	1	361	820	197297	13.328	13.314	13.350
ProbeTrack15	5	ProbeTrack	15.0	SCS215a	20120207.124109	20120207.124114	8	0.013328	60	10	60-180	60	160	GapExp	SmallFlash	1	1	2	0	1	target	1	346	827	198124	13.377	12.897	13.772
ProbeTrack15	5	ProbeTrack	15.0	SCS215a	20120207.124109	20120207.124125	8	0.013328	60	10	60-180	60	135	GapExp	SmallFlash	1	2	2	3	1	target	1	303	849	198973	13.328	13.299	13.351
ProbeTrack15	5	ProbeTrack	15.0	SCS215a	20120207.124109	20120207.124131	8	0.013328	60	10	60-180	60	119	GapExp	SmallFlash	1	3	2	0	0	distractor	1	569	716	199689	13.328	12.868	13.783
ProbeTrack15	5	ProbeTrack	15.0	SCS215a	20120207.124109	20120207.124136	8	0.013328	60	10	60-180	60	126	GapExp	SmallFlash	1	4	2	1	1	target	1	325	838	200527	13.328	13.308	13.347
ProbeTrack15	5	ProbeTrack	15.0	SCS215a	20120207.124109	20120207.124142	8	0.013328	60	10	60-180	60	102	GapExp	SmallFlash	1	5	2	30	1	target	1	366	817	201344	13.328	13.104	13.544
ProbeTrack15	5	ProbeTrack	15.0	SCS215a	20120207.124109	20120207.124148	8	0.013328	60	10	60-180	60	82	GapExp	SmallFlash	1	6	2	1	0	distractor	1	436	782	202126	13.328	12.902	13.749
ProbeTrack15	5	ProbeTrack	15.0	SCS215a	20120207.124109	20120207.124153	8	0.013328	60	10	60-180	60	153	GapExp	SmallFlash	1	7	2	3	0	distractor	1	407	797	202923	13.328	12.841	13.815
ProbeTrack15	5	ProbeTrack	15.0	SCS215a	20120207.124109	20120207.124200	8	0.013328	60	10	60-180	60	139	GapExp	SmallFlash	1	8	2	30	0	distractor	1	328	836	203759	13.328	12.855	13.803
ProbeTrack15	5	ProbeTrack	15.0	SCS215a	20120207.124109	20120207.124206	8	0.013328	60	10	60-180	60	144	GapExp	SmallFlash	0	9	2	1	0	distractor	1	404	798	204557	13.328	12.890	13.770
ProbeTrack15	5	ProbeTrack	15.0	SCS215a	20120207.124109	20120207.124213	8	0.013328	60	10	60-180	60	71	GapExp	SmallFlash	0	10	2	30	1	target	1	382	809	205366	13.328	13.307	13.344
ProbeTrack15	5	ProbeTrack	15.0	SCS215a	20120207.124109	20120207.124218	8	0.013328	60	10	60-180	60	119	GapExp	SmallFlash	0	11	2	0	0	distractor	1	421	790	206156	13.328	13.308	13.345
ProbeTrack15	5	ProbeTrack	15.0	SCS215a	20120207.124109	20120207.124224	8	0.013328	60	10	60-180	60	82	GapExp	SmallFlash	0	12	2	1	0	distractor	1	362	819	206975	13.328	13.306	13.356
ProbeTrack15	5	ProbeTrack	15.0	SCS215a	20120207.124109	20120207.124229	8	0.013328	60	10	60-180	60	91	GapExp	SmallFlash	0	13	2	1	0	distractor	1	362	819	207794	13.328	13.112	13.541
ProbeTrack15	5	ProbeTrack	15.0	SCS215a	20120207.124109	20120207.124235	8	0.013328	60	10	60-180	60	174	GapExp	SmallFlash	0	14	2	30	1	target	1	251	875	208669	13.328	13.098	13.558
ProbeTrack15	5	ProbeTrack	15.0	SCS215a	20120207.124109	20120207.124242	8	0.013328	60	10	60-180	60	134	GapExp	SmallFlash	0	15	2	30	1	target	1	276	862	209531	13.328	13.298	13.352
ProbeTrack15	5	ProbeTrack	15.0	SCS215a	20120207.124109	20120207.124248	8	0.013328	60	10	60-180	60	170	GapExp	SmallFlash	0	16	2	30	1	target	1	259	871	210402	13.328	13.279	13.379
ProbeTrack15	5	ProbeTrack	15.0	SCS215a	20120207.124109	20120207.124255	8	0.013328	60	10	60-180	60	89	GapExp	SmallFlash	0	17	2	0	0	distractor	1	436	782	211184	13.328	13.309	13.345
ProbeTrack15	5	ProbeTrack	15.0	SCS215a	20120207.124109	20120207.124300	8	0.013328	60	10	60-180	60	175	GapExp	SmallFlash	0	18	2	1	0	distractor	1	358	821	212005	13.328	12.899	13.757
ProbeTrack15	5	ProbeTrack	15.0	SCS215a	20120207.124109	20120207.124307	8	0.013328	60	10	60-180	60	132	GapExp	SmallFlash	0	19	2	30	0	distractor	1	300	850	212855	13.328	13.077	13.589
ProbeTrack15	5	ProbeTrack	15.0	SCS215a	20120207.124109	20120207.124313	8	0.013328	60	10	60-180	60	172	GapExp	SmallFlash	0	20	2	0	1	target	1	396	802	213657	13.328	12.891	13.777
ProbeTrack15	5	ProbeTrack	15.0	SCS215a	20120207.124109	20120207.124319	8	0.013328	60	10	60-180	60	85	GapExp	SmallFlash	0	21	2	0	1	target	1	326	837	214494	13.328	12.864	13.792
ProbeTrack15	5	ProbeTrack	15.0	SCS215a	20120207.124109	20120207.124324	8	0.013328	60	10	60-180	60	122	GapExp	SmallFlash	0	22	2	1	0	distractor	1	436	782	215276	13.328	12.966	13.732
ProbeTrack15	5	ProbeTrack	15.0	SCS215a	20120207.124109	20120207.124330	8	0.013328	60	10	60-180	60	116	GapExp	SmallFlash	0	23	2	3	1	target	1	274	863	216139	13.328	13.111	13.606
ProbeTrack15	5	ProbeTrack	15.0	SCS215a	20120207.124109	20120207.124336	8	0.013328	60	10	60-180	60	110	GapExp	SmallFlash	0	24	2	1	0	distractor	1	405	798	216937	13.328	13.309	13.347
ProbeTrack15	5	ProbeTrack	15.0	SCS215a	20120207.124109	20120207.124342	8	0.013328	60	10	60-180	60	92	GapExp	SmallFlash	0	25	2	1	0	distractor	1	421	790	217727	13.328	13.309	13.350
ProbeTrack15	5	ProbeTrack	15.0	SCS215a	20120207.124109	20120207.124347	8	0.013328	60	10	60-180	60	136	GapExp	SmallFlash	0	26	2	0	0	distractor	1	407	797	218524	13.328	13.100	13.558
ProbeTrack15	5	ProbeTrack	15.0	SCS215a	20120207.124109	20120207.124353	8	0.013328	60	10	60-180	60	98	GapExp	SmallFlash	0	27	2	3	0	distractor	1	377	812	219336	13.328	13.147	13.565
ProbeTrack15	5	ProbeTrack	15.0	SCS215a	20120207.124109	20120207.124359	8	0.013328	60	10	60-180	60	173	GapExp	SmallFlash	0	28	2	1	1	target	1	319	841	220177	13.375	12.840	26.728
ProbeTrack15	5	ProbeTrack	15.0	SCS215a	20120207.124109	20120207.124405	8	0.013328	60	10	60-180	60	91	GapExp	SmallFlash	0	29	2	0	1	target	1	373	814	220991	13.328	12.916	13.739
ProbeTrack15	5	ProbeTrack	15.0	SCS215a	20120207.124109	20120207.124410	8	0.013328	60	10	60-180	60	136	GapExp	SmallFlash	0	30	2	1	1	target	1	282	859	221850	13.328	13.167	13.512
ProbeTrack15	5	ProbeTrack	15.0	SCS215a	20120207.124109	20120207.124417	8	0.013328	60	10	60-180	60	113	GapExp	SmallFlash	0	31	2	1	0	distractor	1	408	796	222646	13.328	13.112	13.551
ProbeTrack15	5	ProbeTrack	15.0	SCS215a	20120207.124109	20120207.124422	8	0.013328	60	10	60-180	60	85	GapExp	SmallFlash	0	32	2	1	1	target	1	284	858	223504	13.328	13.097	13.551
ProbeTrack15	5	ProbeTrack	15.0	SCS215a	20120207.124109	20120207.124427	8	0.013328	60	10	60-180	60	128	GapExp	SmallFlash	0	33	2	1	1	target	1	315	843	224347	13.328	13.285	13.365
ProbeTrack15	5	ProbeTrack	15.0	SCS215a	20120207.124109	20120207.124433	8	0.013328	60	10	60-180	60	176	GapExp	SmallFlash	0	34	2	3	1	target	1	291	855	225202	13.328	13.307	13.361
ProbeTrack15	5	ProbeTrack	15.0	SCS215a	20120207.124109	20120207.124440	8	0.013328	60	10	60-180	60	71	GapExp	SmallFlash	0	35	2	1	0	distractor	1	460	770	225972	13.328	13.086	13.560
ProbeTrack15	5	ProbeTrack	15.0	SCS215a	20120207.124109	20120207.124445	8	0.013328	60	10	60-180	60	152	GapExp	SmallFlash	0	36	2	30	1	target	1	241	880	226852	13.328	12.935	13.737
ProbeTrack15	5	ProbeTrack	15.0	SCS215a	20120207.124109	20120207.124451	8	0.013328	60	10	60-180	60	167	GapExp	SmallFlash	0	37	2	0	1	target	1	283	859	227711	13.328	12.891	13.758
ProbeTrack15	5	ProbeTrack	15.0	SCS215a	20120207.124109	20120207.124458	8	0.013328	60	10	60-180	60	102	GapExp	SmallFlash	0	38	2	1	0	distractor	1	392	804	228515	13.328	13.108	13.553
ProbeTrack15	5	ProbeTrack	15.0	SCS215a	20120207.124109	20120207.124503	8	0.013328	60	10	60-180	60	160	GapExp	SmallFlash	0	39	2	1	1	target	1	322	839	229354	13.328	13.100	13.549
ProbeTrack15	5	ProbeTrack	15.0	SCS215a	20120207.124109	20120207.124509	8	0.013328	60	10	60-180	60	93	GapExp	SmallFlash	0	40	2	30	0	distractor	1	331	835	230189	13.328	13.140	13.513
ProbeTrack15	5	ProbeTrack	15.0	SCS215a	20120207.124109	20120207.124515	8	0.013328	60	10	60-180	60	125	GapExp	SmallFlash	0	41	2	3	0	distractor	1	466	767	230956	13.328	13.197	13.437
ProbeTrack15	5	ProbeTrack	15.0	SCS215a	20120207.124109	20120207.124521	8	0.013328	60	10	60-180	60	160	GapExp	SmallFlash	0	42	2	30	0	distractor	1	343	829	231785	13.328	12.853	13.804
ProbeTrack15	5	ProbeTrack	15.0	SCS215a	20120207.124109	20120207.124528	8	0.013328	60	10	60-180	60	74	GapExp	SmallFlash	0	43	2	1	1	target	1	447	777	232562	13.328	13.032	13.617
ProbeTrack15	5	ProbeTrack	15.0	SCS215a	20120207.124109	20120207.124534	8	0.013328	60	10	60-180	60	87	GapExp	SmallFlash	0	44	2	0	1	target	1	385	808	233370	13.328	13.014	13.642
ProbeTrack15	5	ProbeTrack	15.0	SCS215a	20120207.124109	20120207.124539	8	0.013328	60	10	60-180	60	131	GapExp	SmallFlash	0	45	2	0	0	distractor	1	476	762	234132	13.328	13.106	13.550
ProbeTrack15	5	ProbeTrack	15.0	SCS215a	20120207.124109	20120207.124545	8	0.013328	60	10	60-180	60	122	GapExp	SmallFlash	0	46	2	3	1	target	1	292	854	234986	13.328	13.307	13.349
ProbeTrack15	5	ProbeTrack	15.0	SCS215a	20120207.124109	20120207.124550	8	0.013328	60	10	60-180	60	63	GapExp	SmallFlash	0	47	2	3	0	distractor	1	376	812	235798	13.328	13.308	13.347
ProbeTrack15	5	ProbeTrack	15.0	SCS215a	20120207.124109	20120207.124555	8	0.013328	60	10	60-180	60	137	GapExp	SmallFlash	0	48	2	1	1	target	1	320	840	236638	13.328	13.084	13.555
ProbeTrack15	5	ProbeTrack	15.0	SCS215a	20120207.124109	20120207.124602	8	0.013328	60	10	60-180	60	106	GapExp	SmallFlash	0	49	2	0	0	distractor	1	515	743	237381	13.328	13.308	13.343
ProbeTrack15	5	ProbeTrack	15.0	SCS215a	20120207.124109	20120207.124608	8	0.013328	60	10	60-180	60	122	GapExp	SmallFlash	0	50	2	30	0	distractor	1	402	799	238180	13.328	13.104	13.564
ProbeTrack15	5	ProbeTrack	15.0	SCS215a	20120207.124109	20120207.124614	8	0.013328	60	10	60-180	60	78	GapExp	SmallFlash	0	51	2	1	1	target	1	341	830	239010	13.328	13.097	13.547
ProbeTrack15	5	ProbeTrack	15.0	SCS215a	20120207.124109	20120207.124619	8	0.013328	60	10	60-180	60	152	GapExp	SmallFlash	0	52	2	0	1	target	1	342	829	239839	13.328	13.163	13.495
ProbeTrack15	5	ProbeTrack	15.0	SCS215a	20120207.124109	20120207.124625	8	0.013328	60	10	60-180	60	62	GapExp	SmallFlash	0	53	2	3	0	distractor	1	451	775	240614	13.328	12.871	13.777
ProbeTrack15	5	ProbeTrack	15.0	SCS215a	20120207.124109	20120207.124631	8	0.013328	60	10	60-180	60	123	GapExp	SmallFlash	0	54	2	3	1	target	1	300	850	241464	13.328	12.849	13.771
ProbeTrack15	5	ProbeTrack	15.0	SCS215a	20120207.124109	20120207.124637	8	0.013328	60	10	60-180	60	134	GapExp	SmallFlash	0	55	2	30	0	distractor	1	315	843	242307	13.328	13.098	13.563
ProbeTrack15	5	ProbeTrack	15.0	SCS215a	20120207.124109	20120207.124643	8	0.013328	60	10	60-180	60	89	GapExp	SmallFlash	0	56	2	3	1	target	1	334	833	243140	13.328	12.860	13.621
ProbeTrack15	5	ProbeTrack	15.0	SCS215a	20120207.124109	20120207.124649	8	0.013328	60	10	60-180	60	62	GapExp	SmallFlash	0	57	2	3	0	distractor	1	373	814	243954	13.328	12.955	13.706
ProbeTrack15	5	ProbeTrack	15.0	SCS215a	20120207.124109	20120207.124653	8	0.013328	60	10	60-180	60	161	GapExp	SmallFlash	0	58	2	3	1	target	1	348	826	244780	13.328	13.276	13.386
ProbeTrack15	5	ProbeTrack	15.0	SCS215a	20120207.124109	20120207.124700	8	0.013328	60	10	60-180	60	138	GapExp	SmallFlash	0	59	2	1	0	distractor	1	379	811	245591	13.328	12.896	13.778
ProbeTrack15	5	ProbeTrack	15.0	SCS215a	20120207.124109	20120207.124706	8	0.013328	60	10	60-180	60	100	GapExp	SmallFlash	0	60	2	30	0	distractor	1	341	830	246421	13.328	13.077	13.566
ProbeTrack15	5	ProbeTrack	15.0	SCS215a	20120207.124109	20120207.124712	8	0.013328	60	10	60-180	60	85	GapExp	SmallFlash	0	61	2	30	1	target	1	275	863	247284	13.328	12.851	13.821
ProbeTrack15	5	ProbeTrack	15.0	SCS215a	20120207.124109	20120207.124718	8	0.013328	60	10	60-180	60	138	GapExp	SmallFlash	0	62	2	0	1	target	1	345	828	248112	13.328	12.845	13.811
ProbeTrack15	5	ProbeTrack	15.0	SCS215a	20120207.124109	20120207.124724	8	0.013328	60	10	60-180	60	135	GapExp	SmallFlash	0	63	2	30	1	target	1	275	863	248975	13.328	13.000	13.669
ProbeTrack15	5	ProbeTrack	15.0	SCS215a	20120207.124109	20120207.124730	8	0.013328	60	10	60-180	60	176	GapExp	SmallFlash	0	64	2	3	0	distractor	1	319	841	249816	13.328	12.927	13.713
ProbeTrack15	5	ProbeTrack	15.0	SCS215a	20120207.124109	20120207.124736	8	0.013328	60	10	60-180	60	175	GapExp	SmallFlash	0	65	2	30	0	distractor	1	267	867	250683	13.328	13.073	13.584
ProbeTrack15	5	ProbeTrack	15.0	SCS215a	20120207.124109	20120207.124743	8	0.013328	60	10	60-180	60	76	GapExp	SmallFlash	0	66	2	30	0	distractor	1	285	858	251541	13.328	13.309	13.348
ProbeTrack15	5	ProbeTrack	15.0	SCS215a	20120207.124109	20120207.124749	8	0.013328	60	10	60-180	60	139	GapExp	SmallFlash	0	67	2	3	0	distractor	1	388	806	252347	13.328	13.254	13.402
ProbeTrack15	5	ProbeTrack	15.0	SCS215a	20120207.124109	20120207.124755	8	0.013328	60	10	60-180	60	129	GapExp	SmallFlash	0	68	2	1	1	target	1	314	843	253190	13.328	13.103	13.551
ProbeTrack15	5	ProbeTrack	15.0	SCS215a	20120207.124109	20120207.124800	8	0.013328	60	10	60-180	60	92	GapExp	SmallFlash	0	69	2	3	1	target	1	463	769	253959	13.328	13.176	13.503
ProbeTrack15	5	ProbeTrack	15.0	SCS215a	20120207.124109	20120207.124806	8	0.013328	60	10	60-180	60	103	GapExp	SmallFlash	0	70	2	3	1	target	1	282	859	254818	13.328	13.202	13.454
ProbeTrack15	5	ProbeTrack	15.0	SCS215a	20120207.124109	20120207.124811	8	0.013328	60	10	60-180	60	180	GapExp	SmallFlash	0	71	2	1	0	distractor	1	369	816	255634	13.328	12.850	13.818
ProbeTrack15	5	ProbeTrack	15.0	SCS215a	20120207.124109	20120207.124818	8	0.013328	60	10	60-180	60	72	GapExp	SmallFlash	0	72	2	0	1	target	1	301	850	256484	13.328	13.309	13.350
ProbeTrack15	5	ProbeTrack	15.0	SCS215a	20120207.124109	20120207.124823	8	0.013328	60	10	60-180	60	111	GapExp	SmallFlash	0	73	2	0	1	target	1	282	859	257343	13.328	13.308	13.348
ProbeTrack15	5	ProbeTrack	15.0	SCS215a	20120207.124109	20120207.124828	8	0.013328	60	10	60-180	60	64	GapExp	SmallFlash	0	74	2	1	0	distractor	1	449	776	258119	13.328	13.111	13.545
ProbeTrack15	5	ProbeTrack	15.0	SCS215a	20120207.124109	20120207.124833	8	0.013328	60	10	60-180	60	145	GapExp	SmallFlash	0	75	2	3	1	target	1	297	852	258971	13.328	13.105	13.551
ProbeTrack15	5	ProbeTrack	15.0	SCS215a	20120207.124109	20120207.124840	8	0.013328	60	10	60-180	60	107	GapExp	SmallFlash	0	76	2	0	1	target	1	297	852	259823	13.328	12.882	13.791
ProbeTrack15	5	ProbeTrack	15.0	SCS215a	20120207.124109	20120207.124845	8	0.013328	60	10	60-180	60	71	GapExp	SmallFlash	0	77	2	3	1	target	1	287	857	260680	13.328	13.301	13.355
ProbeTrack15	5	ProbeTrack	15.0	SCS215a	20120207.124109	20120207.124850	8	0.013328	60	10	60-180	60	134	GapExp	SmallFlash	0	78	2	1	0	distractor	1	349	826	261506	13.328	12.931	13.722
ProbeTrack15	5	ProbeTrack	15.0	SCS215a	20120207.124109	20120207.124856	8	0.013328	60	10	60-180	60	130	GapExp	SmallFlash	0	79	2	0	0	target	0	295	-1000	260506	13.328	13.104	13.551
ProbeTrack15	5	ProbeTrack	15.0	SCS215a	20120207.124109	20120207.124902	8	0.013328	60	10	60-180	60	91	GapExp	SmallFlash	0	80	2	3	0	distractor	1	393	804	261310	13.328	13.312	13.344
ProbeTrack15	5	ProbeTrack	15.0	SCS215a	20120207.124109	20120207.124908	8	0.013328	60	10	60-180	60	170	GapExp	SmallFlash	0	81	2	30	0	distractor	1	290	855	262165	13.328	13.306	13.346
ProbeTrack15	5	ProbeTrack	15.0	SCS215a	20120207.124109	20120207.124914	8	0.013328	60	10	60-180	60	135	GapExp	SmallFlash	0	82	2	3	0	distractor	1	389	806	262971	13.328	13.056	13.610
ProbeTrack15	5	ProbeTrack	15.0	SCS215a	20120207.124109	20120207.124920	8	0.013328	60	10	60-180	60	177	GapExp	SmallFlash	0	83	2	3	1	target	1	319	841	263812	13.328	12.852	13.802
ProbeTrack15	5	ProbeTrack	15.0	SCS215a	20120207.124109	20120207.124927	8	0.013328	60	10	60-180	60	151	GapExp	SmallFlash	0	84	2	0	0	distractor	1	397	802	264614	13.328	13.308	13.347
ProbeTrack15	5	ProbeTrack	15.0	SCS215a	20120207.124109	20120207.124933	8	0.013328	60	10	60-180	60	102	GapExp	SmallFlash	0	85	2	0	1	target	1	330	835	265449	13.328	12.884	13.800
ProbeTrack15	5	ProbeTrack	15.0	SCS215a	20120207.124109	20120207.124939	8	0.013328	60	10	60-180	60	142	GapExp	SmallFlash	0	86	2	30	0	distractor	1	336	832	266281	13.328	12.888	13.754
ProbeTrack15	5	ProbeTrack	15.0	SCS215a	20120207.124109	20120207.124945	8	0.013328	60	10	60-180	60	68	GapExp	SmallFlash	0	87	2	1	1	target	1	296	852	267133	13.328	13.098	13.537
ProbeTrack15	5	ProbeTrack	15.0	SCS215a	20120207.124109	20120207.124950	8	0.013328	60	10	60-180	60	163	GapExp	SmallFlash	0	88	2	0	1	target	1	299	851	267984	13.328	13.106	13.557
ProbeTrack15	5	ProbeTrack	15.0	SCS215a	20120207.124109	20120207.124957	8	0.013328	60	10	60-180	60	124	GapExp	SmallFlash	0	89	2	0	0	distractor	1	402	799	268783	13.328	12.910	13.785
ProbeTrack15	5	ProbeTrack	15.0	SCS215a	20120207.124109	20120207.125003	8	0.013328	60	10	60-180	60	121	GapExp	SmallFlash	0	90	2	1	0	distractor	1	400	800	269583	13.328	13.308	13.345
ProbeTrack15	5	ProbeTrack	15.0	SCS215a	20120207.124109	20120207.125008	8	0.013328	60	10	60-180	60	85	GapExp	SmallFlash	0	91	2	0	0	distractor	1	460	770	270353	13.328	12.926	13.744
ProbeTrack15	5	ProbeTrack	15.0	SCS215a	20120207.124109	20120207.125014	8	0.013328	60	10	60-180	60	154	GapExp	SmallFlash	0	92	2	1	1	target	1	283	859	271212	13.328	13.289	13.367
ProbeTrack15	5	ProbeTrack	15.0	SCS215a	20120207.124109	20120207.125020	8	0.013328	60	10	60-180	60	134	GapExp	SmallFlash	0	93	2	30	1	target	1	313	844	272056	13.328	12.970	13.682
ProbeTrack15	5	ProbeTrack	15.0	SCS215a	20120207.124109	20120207.125026	8	0.013328	60	10	60-180	60	150	GapExp	SmallFlash	0	94	2	0	0	distractor	1	426	787	272843	13.328	12.882	13.795
ProbeTrack15	5	ProbeTrack	15.0	SCS215a	20120207.124109	20120207.125032	8	0.013328	60	10	60-180	60	151	GapExp	SmallFlash	0	95	2	1	1	target	1	420	790	273633	13.328	13.307	13.349
ProbeTrack15	5	ProbeTrack	15.0	SCS215a	20120207.124109	20120207.125039	8	0.013328	60	10	60-180	60	131	GapExp	SmallFlash	0	96	2	3	0	distractor	1	429	786	274419	13.328	12.900	13.748
ProbeTrack15	5	ProbeTrack	15.0	SCS215a	20120207.124109	20120207.125045	8	0.013328	60	10	60-180	60	147	GapExp	SmallFlash	0	97	2	3	0	distractor	1	390	805	275224	13.328	13.303	13.361
ProbeTrack15	5	ProbeTrack	15.0	SCS215a	20120207.124109	20120207.125051	8	0.013328	60	10	60-180	60	105	GapExp	SmallFlash	0	98	2	3	1	target	1	312	844	276068	13.328	13.296	13.347
ProbeTrack15	5	ProbeTrack	15.0	SCS215a	20120207.124109	20120207.125056	8	0.013328	60	10	60-180	60	168	GapExp	SmallFlash	0	99	2	30	0	distractor	1	329	836	276904	13.328	13.099	13.551
ProbeTrack15	5	ProbeTrack	15.0	SCS215a	20120207.124109	20120207.125103	8	0.013328	60	10	60-180	60	163	GapExp	SmallFlash	0	100	2	3	1	target	1	338	831	277735	13.328	13.098	13.544
ProbeTrack15	5	ProbeTrack	15.0	SCS215a	20120207.124109	20120207.125110	8	0.013328	60	10	60-180	60	62	GapExp	SmallFlash	0	101	2	3	1	target	1	323	839	278574	13.328	12.858	13.792
ProbeTrack15	5	ProbeTrack	15.0	SCS215a	20120207.124109	20120207.125115	8	0.013328	60	10	60-180	60	166	GapExp	SmallFlash	0	102	2	1	0	distractor	1	377	812	279386	13.328	13.304	13.343
ProbeTrack15	5	ProbeTrack	15.0	SCS215a	20120207.124109	20120207.125121	8	0.013328	60	10	60-180	60	112	GapExp	SmallFlash	0	103	2	1	1	target	1	328	836	280222	13.328	12.946	13.717
ProbeTrack15	5	ProbeTrack	15.0	SCS215a	20120207.124109	20120207.125127	8	0.013328	60	10	60-180	60	97	GapExp	SmallFlash	0	104	2	3	1	target	1	310	845	281067	13.328	13.306	13.350
ProbeTrack15	5	ProbeTrack	15.0	SCS215a	20120207.124109	20120207.125132	8	0.013328	60	10	60-180	60	118	GapExp	SmallFlash	0	105	2	30	0	distractor	1	377	812	281879	13.328	12.906	13.754
ProbeTrack15	5	ProbeTrack	15.0	SCS215a	20120207.124109	20120207.125138	8	0.013328	60	10	60-180	60	132	GapExp	SmallFlash	0	106	2	30	0	distractor	1	335	833	282712	13.328	13.106	13.550
ProbeTrack15	5	ProbeTrack	15.0	SCS215a	20120207.124109	20120207.125145	8	0.013328	60	10	60-180	60	180	GapExp	SmallFlash	0	107	2	0	0	distractor	1	377	812	283524	13.328	12.862	13.800
ProbeTrack15	5	ProbeTrack	15.0	SCS215a	20120207.124109	20120207.125151	8	0.013328	60	10	60-180	60	96	GapExp	SmallFlash	0	108	2	30	0	distractor	1	311	845	284369	13.328	12.879	13.775
ProbeTrack15	5	ProbeTrack	15.0	SCS215a	20120207.124109	20120207.125157	8	0.013328	60	10	60-180	60	76	GapExp	SmallFlash	0	109	2	30	0	distractor	1	304	848	285217	13.328	13.307	13.348
ProbeTrack15	5	ProbeTrack	15.0	SCS215a	20120207.124109	20120207.125202	8	0.013328	60	10	60-180	60	118	GapExp	SmallFlash	0	110	2	30	1	target	1	470	765	285982	13.328	13.304	13.359
ProbeTrack15	5	ProbeTrack	15.0	SCS215a	20120207.124109	20120207.125209	8	0.013328	60	10	60-180	60	63	GapExp	SmallFlash	0	111	2	30	1	target	1	362	819	286801	13.328	13.293	13.350
ProbeTrack15	5	ProbeTrack	15.0	SCS215a	20120207.124109	20120207.125214	8	0.013328	60	10	60-180	60	63	GapExp	SmallFlash	0	112	2	3	0	distractor	1	418	791	287592	13.328	12.940	13.697
ProbeTrack15	5	ProbeTrack	15.0	SCS215a	20120207.124109	20120207.125219	8	0.013328	60	10	60-180	60	164	GapExp	SmallFlash	0	113	2	1	0	distractor	1	420	790	288382	13.328	13.102	13.540
ProbeTrack15	5	ProbeTrack	15.0	SCS215a	20120207.124109	20120207.125226	8	0.013328	60	10	60-180	60	73	GapExp	SmallFlash	0	114	2	0	0	target	0	571	-1000	287382	13.328	13.293	13.349
ProbeTrack15	5	ProbeTrack	15.0	SCS215a	20120207.124109	20120207.125231	8	0.013328	60	10	60-180	60	143	GapExp	SmallFlash	0	115	2	3	1	target	1	273	864	288246	13.328	13.307	13.353
ProbeTrack15	5	ProbeTrack	15.0	SCS215a	20120207.124109	20120207.125237	8	0.013328	60	10	60-180	60	119	GapExp	SmallFlash	0	116	2	1	0	distractor	1	415	793	289039	13.328	13.307	13.345
ProbeTrack15	5	ProbeTrack	15.0	SCS215a	20120207.124109	20120207.125243	8	0.013328	60	10	60-180	60	85	GapExp	SmallFlash	0	117	2	30	1	target	1	271	865	289904	13.328	12.895	13.775
ProbeTrack15	5	ProbeTrack	15.0	SCS215a	20120207.124109	20120207.125248	8	0.013328	60	10	60-180	60	168	GapExp	SmallFlash	0	118	2	3	0	distractor	1	413	794	290698	13.328	12.995	13.648
ProbeTrack15	5	ProbeTrack	15.0	SCS215a	20120207.124109	20120207.125255	8	0.013328	60	10	60-180	60	142	GapExp	SmallFlash	0	119	2	30	1	distractor	0	286	-1000	289698	13.328	13.092	13.569
ProbeTrack15	5	ProbeTrack	15.0	SCS215a	20120207.124109	20120207.125302	8	0.013328	60	10	60-180	60	83	GapExp	SmallFlash	0	120	2	1	1	target	1	316	842	290540	13.328	13.297	13.352
ProbeTrack15	5	ProbeTrack	15.0	SCS215a	20120207.124109	20120207.125307	8	0.013328	60	10	60-180	60	125	GapExp	SmallFlash	0	121	2	0	0	distractor	1	450	775	291315	13.328	13.099	13.551
ProbeTrack15	5	ProbeTrack	15.0	SCS215a	20120207.124109	20120207.125313	8	0.013328	60	10	60-180	60	132	GapExp	SmallFlash	0	122	2	3	0	distractor	1	366	817	292132	13.328	13.025	13.645
ProbeTrack15	5	ProbeTrack	15.0	SCS215a	20120207.124109	20120207.125319	8	0.013328	60	10	60-180	60	67	GapExp	SmallFlash	0	123	2	3	1	target	1	331	835	292967	13.328	13.312	13.346
ProbeTrack15	5	ProbeTrack	15.0	SCS215a	20120207.124109	20120207.125324	8	0.013328	60	10	60-180	60	63	GapExp	SmallFlash	0	124	2	0	0	distractor	1	372	814	293781	13.328	13.048	13.617
ProbeTrack15	5	ProbeTrack	15.0	SCS215a	20120207.124109	20120207.125329	8	0.013328	60	10	60-180	60	131	GapExp	SmallFlash	0	125	2	0	1	target	1	298	851	294632	13.328	12.915	13.738
ProbeTrack15	5	ProbeTrack	15.0	SCS215a	20120207.124109	20120207.125335	8	0.013328	60	10	60-180	60	64	GapExp	SmallFlash	0	126	2	0	1	target	1	275	863	295495	13.328	13.306	13.345
ProbeTrack15	5	ProbeTrack	15.0	SCS215a	20120207.124109	20120207.125339	8	0.013328	60	10	60-180	60	86	GapExp	SmallFlash	0	127	2	30	0	distractor	1	264	868	296363	13.328	12.935	13.715
ProbeTrack15	5	ProbeTrack	15.0	SCS215a	20120207.124109	20120207.125345	8	0.013328	60	10	60-180	60	125	GapExp	SmallFlash	0	128	2	30	0	distractor	1	418	791	297154	13.328	13.085	13.565
ProbeTrack15	5	ProbeTrack	15.0	SCS215a	20120207.124109	20120207.125351	8	0.013328	60	10	60-180	60	153	GapExp	SmallFlash	0	129	2	1	1	target	1	287	857	298011	13.328	13.091	13.564
ProbeTrack15	5	ProbeTrack	15.0	SCS215a	20120207.124109	20120207.125357	8	0.013328	60	10	60-180	60	122	GapExp	SmallFlash	0	130	2	0	0	distractor	1	376	812	298823	13.328	13.107	13.548
ProbeTrack15	5	ProbeTrack	15.0	SCS215a	20120207.124109	20120207.125403	8	0.013328	60	10	60-180	60	129	GapExp	SmallFlash	0	131	2	30	1	target	1	315	843	299666	13.328	13.309	13.346
ProbeTrack15	5	ProbeTrack	15.0	SCS215a	20120207.124109	20120207.125409	8	0.013328	60	10	60-180	60	141	GapExp	SmallFlash	0	132	2	3	0	distractor	1	325	838	300504	13.328	13.308	13.343
ProbeTrack15	5	ProbeTrack	15.0	SCS215a	20120207.124109	20120207.125415	8	0.013328	60	10	60-180	60	171	GapExp	SmallFlash	0	133	2	30	0	distractor	1	374	813	301317	13.328	12.856	13.800
ProbeTrack15	5	ProbeTrack	15.0	SCS215a	20120207.124109	20120207.125422	8	0.013328	60	10	60-180	60	132	GapExp	SmallFlash	0	134	2	0	0	distractor	1	366	817	302134	13.328	13.195	13.475
ProbeTrack15	5	ProbeTrack	15.0	SCS215a	20120207.124109	20120207.125428	8	0.013328	60	10	60-180	60	71	GapExp	SmallFlash	0	135	2	0	0	distractor	1	800	600	302734	13.328	13.306	13.346
ProbeTrack15	5	ProbeTrack	15.0	SCS215a	20120207.124109	20120207.125433	8	0.013328	60	10	60-180	60	88	GapExp	SmallFlash	0	136	2	3	1	target	1	375	813	303547	13.328	13.095	13.561
ProbeTrack15	5	ProbeTrack	15.0	SCS215a	20120207.124109	20120207.125439	8	0.013328	60	10	60-180	60	130	GapExp	SmallFlash	0	137	2	0	1	target	1	327	837	304384	13.328	13.307	13.347
ProbeTrack15	5	ProbeTrack	15.0	SCS215a	20120207.124109	20120207.125444	8	0.013328	60	10	60-180	60	134	GapExp	SmallFlash	0	138	2	0	1	target	1	352	824	305208	13.328	13.106	13.565
ProbeTrack15	5	ProbeTrack	15.0	SCS215a	20120207.124109	20120207.125451	8	0.013328	60	10	60-180	60	104	GapExp	SmallFlash	0	139	2	30	0	distractor	1	313	844	306052	13.328	13.019	13.647
ProbeTrack15	5	ProbeTrack	15.0	SCS215a	20120207.124109	20120207.125456	8	0.013328	60	10	60-180	60	126	GapExp	SmallFlash	0	140	2	0	0	distractor	1	466	767	306819	13.328	13.307	13.343
ProbeTrack15	5	ProbeTrack	15.0	SCS215a	20120207.124109	20120207.125502	8	0.013328	60	10	60-180	60	111	GapExp	SmallFlash	0	141	2	1	0	distractor	1	386	807	307626	13.328	12.962	13.681
ProbeTrack15	5	ProbeTrack	15.0	SCS215a	20120207.124109	20120207.125508	8	0.013328	60	10	60-180	60	175	GapExp	SmallFlash	0	142	2	1	0	distractor	1	369	816	308442	13.328	13.102	13.572
ProbeTrack15	5	ProbeTrack	15.0	SCS215a	20120207.124109	20120207.125515	8	0.013328	60	10	60-180	60	159	GapExp	SmallFlash	0	143	2	0	1	target	1	313	844	309286	13.328	13.307	13.352
ProbeTrack15	5	ProbeTrack	15.0	SCS215a	20120207.124109	20120207.125521	8	0.013328	60	10	60-180	60	113	GapExp	SmallFlash	0	144	2	0	1	target	1	317	842	310128	13.328	13.025	13.642
ProbeTrack15	5	ProbeTrack	15.0	SCS215a	20120207.124109	20120207.125526	8	0.013328	60	10	60-180	60	134	GapExp	SmallFlash	0	145	2	3	0	distractor	1	395	803	310931	13.328	13.305	13.347
ProbeTrack15	5	ProbeTrack	15.0	SCS215a	20120207.124109	20120207.125532	8	0.013328	60	10	60-180	60	154	GapExp	SmallFlash	0	146	2	0	0	distractor	1	409	796	311727	13.328	12.920	13.738
ProbeTrack15	5	ProbeTrack	15.0	SCS215a	20120207.124109	20120207.125538	8	0.013328	60	10	60-180	60	160	GapExp	SmallFlash	0	147	2	3	1	target	1	306	847	312574	13.328	13.306	13.348
ProbeTrack15	5	ProbeTrack	15.0	SCS215a	20120207.124109	20120207.125545	8	0.013328	60	10	60-180	60	82	GapExp	SmallFlash	0	148	2	0	0	distractor	1	410	795	313369	13.328	13.275	13.382
ProbeTrack15	5	ProbeTrack	15.0	SCS215a	20120207.124109	20120207.125550	8	0.013328	60	10	60-180	60	75	GapExp	SmallFlash	0	149	2	0	1	target	1	394	803	314172	13.328	13.098	13.551
ProbeTrack15	5	ProbeTrack	15.0	SCS215a	20120207.124109	20120207.125555	8	0.013328	60	10	60-180	60	110	GapExp	SmallFlash	0	150	2	30	1	target	1	424	788	314960	13.328	12.944	13.712
ProbeTrack15	5	ProbeTrack	15.0	SCS215a	20120207.124109	20120207.125601	8	0.013328	60	10	60-180	60	130	GapExp	SmallFlash	0	151	2	30	1	target	1	243	879	315839	13.328	12.891	13.761
ProbeTrack15	5	ProbeTrack	15.0	SCS215a	20120207.124109	20120207.125607	8	0.013328	60	10	60-180	60	165	GapExp	SmallFlash	0	152	2	1	1	target	1	354	823	316662	13.328	12.888	13.767
ProbeTrack15	5	ProbeTrack	15.0	SCS215a	20120207.124109	20120207.125614	8	0.013328	60	10	60-180	60	85	GapExp	SmallFlash	0	153	2	3	1	target	1	300	850	317512	13.328	13.140	13.524
ProbeTrack15	5	ProbeTrack	15.0	SCS215a	20120207.124109	20120207.125619	8	0.013328	60	10	60-180	60	165	GapExp	SmallFlash	0	154	2	3	0	distractor	1	434	783	318295	13.328	13.305	13.343
ProbeTrack15	5	ProbeTrack	15.0	SCS215a	20120207.124109	20120207.125625	8	0.013328	60	10	60-180	60	153	GapExp	SmallFlash	0	155	2	0	1	target	1	359	821	319116	13.328	12.846	13.792
ProbeTrack15	5	ProbeTrack	15.0	SCS215a	20120207.124109	20120207.125631	8	0.013328	60	10	60-180	60	75	GapExp	SmallFlash	0	156	2	0	1	target	1	306	847	319963	13.328	12.910	13.752
ProbeTrack15	5	ProbeTrack	15.0	SCS215a	20120207.124109	20120207.125636	8	0.013328	60	10	60-180	60	149	GapExp	SmallFlash	0	157	2	0	1	target	1	490	755	320718	13.328	12.959	13.700
ProbeTrack15	5	ProbeTrack	15.0	SCS215a	20120207.124109	20120207.125643	8	0.013328	60	10	60-180	60	135	GapExp	SmallFlash	0	158	2	30	0	distractor	1	438	781	321499	13.328	13.305	13.350
ProbeTrack15	5	ProbeTrack	15.0	SCS215a	20120207.124109	20120207.125649	8	0.013328	60	10	60-180	60	76	GapExp	SmallFlash	0	159	2	1	1	target	1	630	685	322184	13.328	13.301	13.347
ProbeTrack15	5	ProbeTrack	15.0	SCS215a	20120207.124109	20120207.125655	8	0.013328	60	10	60-180	60	137	GapExp	SmallFlash	0	160	2	0	0	distractor	1	390	805	322989	13.328	12.848	13.802
ProbeTrack15	5	ProbeTrack	15.0	SCS215a	20120207.124109	20120207.125701	8	0.013328	60	10	60-180	60	154	GapExp	SmallFlash	0	161	2	1	1	target	1	286	857	323846	13.328	13.093	13.571
ProbeTrack15	5	ProbeTrack	15.0	SCS215a	20120207.124109	20120207.125707	8	0.013328	60	10	60-180	60	132	GapExp	SmallFlash	0	162	2	30	1	target	1	268	866	324712	13.328	12.871	13.784
ProbeTrack15	5	ProbeTrack	15.0	SCS215a	20120207.124109	20120207.125713	8	0.013328	60	10	60-180	60	68	GapExp	SmallFlash	0	163	2	30	1	target	1	247	877	325589	13.328	13.098	13.550
ProbeTrack15	5	ProbeTrack	15.0	SCS215a	20120207.124109	20120207.125718	8	0.013328	60	10	60-180	60	76	GapExp	SmallFlash	0	164	2	0	1	target	1	338	831	326420	13.328	13.309	13.343
ProbeTrack15	5	ProbeTrack	15.0	SCS215a	20120207.124109	20120207.125724	8	0.013328	60	10	60-180	60	152	GapExp	SmallFlash	0	165	2	0	0	distractor	1	418	791	327211	13.328	12.950	13.706
ProbeTrack15	5	ProbeTrack	15.0	SCS215a	20120207.124109	20120207.125730	8	0.013328	60	10	60-180	60	163	GapExp	SmallFlash	0	166	2	1	0	distractor	1	359	821	328032	13.328	13.301	13.350
ProbeTrack15	5	ProbeTrack	15.0	SCS215a	20120207.124109	20120207.125736	8	0.013328	60	10	60-180	60	70	GapExp	SmallFlash	0	167	2	30	1	target	1	272	864	328896	13.328	13.308	13.353
ProbeTrack15	5	ProbeTrack	15.0	SCS215a	20120207.124109	20120207.125742	8	0.013328	60	10	60-180	60	146	GapExp	SmallFlash	0	168	2	30	1	target	1	270	865	329761	13.328	13.118	13.551
ProbeTrack15	5	ProbeTrack	15.0	SCS215a	20120207.124109	20120207.125748	8	0.013328	60	10	60-180	60	92	GapExp	SmallFlash	0	169	2	1	1	target	1	328	836	330597	13.328	12.874	13.781
ProbeTrack15	5	ProbeTrack	15.0	SCS215a	20120207.124109	20120207.125753	8	0.013328	60	10	60-180	60	164	GapExp	SmallFlash	0	170	2	30	0	distractor	1	311	845	331442	13.328	13.088	13.561
ProbeTrack15	5	ProbeTrack	15.0	SCS215a	20120207.124109	20120207.125800	8	0.013328	60	10	60-180	60	168	GapExp	SmallFlash	0	171	2	30	1	target	1	258	871	332313	13.328	13.015	13.642
ProbeTrack15	5	ProbeTrack	15.0	SCS215a	20120207.124109	20120207.125807	8	0.013328	60	10	60-180	60	67	GapExp	SmallFlash	0	172	2	30	0	distractor	1	458	771	333084	13.328	13.309	13.347
ProbeTrack15	5	ProbeTrack	15.0	SCS215a	20120207.124109	20120207.125813	8	0.013328	60	10	60-180	60	132	GapExp	SmallFlash	0	173	2	3	0	distractor	1	397	802	333886	13.328	12.987	13.656
ProbeTrack15	5	ProbeTrack	15.0	SCS215a	20120207.124109	20120207.125818	8	0.013328	60	10	60-180	60	175	GapExp	SmallFlash	0	174	2	3	1	target	1	290	855	334741	13.328	13.300	13.357
ProbeTrack15	5	ProbeTrack	15.0	SCS215a	20120207.124109	20120207.125825	8	0.013328	60	10	60-180	60	115	GapExp	SmallFlash	0	175	2	3	0	distractor	1	367	817	335558	13.328	13.091	13.564
ProbeTrack15	5	ProbeTrack	15.0	SCS215a	20120207.124109	20120207.125831	8	0.013328	60	10	60-180	60	136	GapExp	SmallFlash	0	176	2	3	0	distractor	1	401	800	336358	13.328	13.307	13.350
ProbeTrack15	5	ProbeTrack	15.0	SCS215a	20120207.124109	20120207.125836	8	0.013328	60	10	60-180	60	142	GapExp	SmallFlash	0	177	2	30	1	target	1	250	875	337233	13.328	12.889	13.776
ProbeTrack15	5	ProbeTrack	15.0	SCS215a	20120207.124109	20120207.125843	8	0.013328	60	10	60-180	60	101	GapExp	SmallFlash	0	178	2	3	0	distractor	1	412	794	338027	13.328	13.305	13.357
ProbeTrack15	5	ProbeTrack	15.0	SCS215a	20120207.124109	20120207.125848	8	0.013328	60	10	60-180	60	120	GapExp	SmallFlash	0	179	2	30	0	distractor	1	395	803	338830	13.328	13.045	13.614
ProbeTrack15	5	ProbeTrack	15.0	SCS215a	20120207.124109	20120207.125854	8	0.013328	60	10	60-180	60	143	GapExp	SmallFlash	0	180	2	3	1	target	1	324	838	339668	13.328	13.310	13.345
ProbeTrack15	5	ProbeTrack	15.0	SCS215a	20120207.124109	20120207.125900	8	0.013328	60	10	60-180	60	105	GapExp	SmallFlash	0	181	2	1	1	target	1	358	821	340489	13.328	13.305	13.345
ProbeTrack15	5	ProbeTrack	15.0	SCS215a	20120207.124109	20120207.125906	8	0.013328	60	10	60-180	60	161	GapExp	SmallFlash	0	182	2	1	0	distractor	1	384	808	341297	13.328	13.274	13.403
ProbeTrack15	5	ProbeTrack	15.0	SCS215a	20120207.124109	20120207.125912	8	0.013328	60	10	60-180	60	103	GapExp	SmallFlash	0	183	2	1	1	target	1	318	841	342138	13.328	13.106	13.543
ProbeTrack15	5	ProbeTrack	15.0	SCS215a	20120207.124109	20120207.125918	8	0.013328	60	10	60-180	60	98	GapExp	SmallFlash	0	184	2	30	1	target	1	262	869	343007	13.328	13.305	13.345
ProbeTrack15	5	ProbeTrack	15.0	SCS215a	20120207.124109	20120207.125923	8	0.013328	60	10	60-180	60	105	GapExp	SmallFlash	0	185	2	3	0	distractor	1	358	821	343828	13.328	13.301	13.348
ProbeTrack15	5	ProbeTrack	15.0	SCS215a	20120207.124109	20120207.125929	8	0.013328	60	10	60-180	60	66	GapExp	SmallFlash	0	186	2	1	0	distractor	1	418	791	344619	13.328	13.306	13.348
ProbeTrack15	5	ProbeTrack	15.0	SCS215a	20120207.124109	20120207.125934	8	0.013328	60	10	60-180	60	112	GapExp	SmallFlash	0	187	2	0	1	target	1	337	832	345451	13.328	13.086	13.556
ProbeTrack15	5	ProbeTrack	15.0	SCS215a	20120207.124109	20120207.125940	8	0.013328	60	10	60-180	60	68	GapExp	SmallFlash	0	188	2	3	0	distractor	1	347	827	346278	13.328	13.303	13.344
ProbeTrack15	5	ProbeTrack	15.0	SCS215a	20120207.124109	20120207.125945	8	0.013328	60	10	60-180	60	164	GapExp	SmallFlash	0	189	2	0	0	distractor	1	351	825	347103	13.328	13.065	13.593
ProbeTrack15	5	ProbeTrack	15.0	SCS215a	20120207.124109	20120207.125951	8	0.013328	60	10	60-180	60	108	GapExp	SmallFlash	0	190	2	3	1	target	1	353	824	347927	13.328	13.303	13.351
ProbeTrack15	5	ProbeTrack	15.0	SCS215a	20120207.124109	20120207.125956	8	0.013328	60	10	60-180	60	174	GapExp	SmallFlash	0	191	2	30	1	distractor	0	282	-1000	346927	13.328	13.066	13.576
ProbeTrack15	5	ProbeTrack	15.0	SCS215a	20120207.124109	20120207.130003	8	0.013328	60	10	60-180	60	149	GapExp	SmallFlash	0	192	2	1	0	target	0	399	-1000	345927	13.328	12.881	13.761
ProbeTrack15	5	ProbeTrack	15.0	SCS215a	20120207.124109	20120207.130009	8	0.013328	60	10	60-180	60	105	GapExp	SmallFlash	0	193	2	1	1	target	1	367	817	346744	13.328	12.887	13.782
ProbeTrack15	5	ProbeTrack	15.0	SCS215a	20120207.124109	20120207.130016	8	0.013328	60	10	60-180	60	135	GapExp	SmallFlash	0	194	2	3	0	distractor	1	406	797	347541	13.328	13.123	13.552
ProbeTrack15	5	ProbeTrack	15.0	SCS215a	20120207.124109	20120207.130021	8	0.013328	60	10	60-180	60	89	GapExp	SmallFlash	0	195	2	0	0	distractor	1	399	801	348342	13.328	12.860	13.802
ProbeTrack15	5	ProbeTrack	15.0	SCS215a	20120207.124109	20120207.130027	8	0.013328	60	10	60-180	60	78	GapExp	SmallFlash	0	196	2	30	0	distractor	1	357	822	349164	13.328	13.296	13.351
ProbeTrack15	5	ProbeTrack	15.0	SCS215a	20120207.124109	20120207.130032	8	0.013328	60	10	60-180	60	159	GapExp	SmallFlash	0	197	2	3	1	target	1	312	844	350008	13.328	13.124	13.654
ProbeTrack15	5	ProbeTrack	15.0	SCS215a	20120207.124109	20120207.130039	8	0.013328	60	10	60-180	60	117	GapExp	SmallFlash	0	198	2	1	1	target	1	386	807	350815	13.328	13.295	13.361
ProbeTrack15	5	ProbeTrack	15.0	SCS215a	20120207.124109	20120207.130044	8	0.013328	60	10	60-180	60	147	GapExp	SmallFlash	0	199	2	30	1	target	1	340	830	351645	13.328	13.305	13.348
ProbeTrack15	5	ProbeTrack	15.0	SCS215a	20120207.124109	20120207.130051	8	0.013328	60	10	60-180	60	95	GapExp	SmallFlash	0	200	2	1	1	target	1	317	842	352487	13.328	13.105	13.558
ProbeTrack15	5	ProbeTrack	15.0	SCS215a	20120207.130641	20120207.130648	8	0.013323	60	10	60-180	60	61	GapPrac	Blank	1	1	2	3	0	distractor	1	487	757	353244	13.399	13.099	13.556
ProbeTrack15	5	ProbeTrack	15.0	SCS215a	20120207.130641	20120207.130654	8	0.013323	60	10	60-180	60	85	GapPrac	Blank	1	2	2	1	1	target	1	379	811	354055	13.328	13.299	13.351
ProbeTrack15	5	ProbeTrack	15.0	SCS215a	20120207.130641	20120207.130700	8	0.013323	60	10	60-180	60	71	GapPrac	Blank	1	3	2	1	0	target	0	343	-1000	353055	13.328	13.309	13.346
ProbeTrack15	5	ProbeTrack	15.0	SCS215a	20120207.130641	20120207.130705	8	0.013323	60	10	60-180	60	105	GapPrac	Blank	1	4	2	0	1	target	1	308	846	353901	13.328	13.286	13.363
ProbeTrack15	5	ProbeTrack	15.0	SCS215a	20120207.130641	20120207.130710	8	0.013323	60	10	60-180	60	86	GapPrac	Blank	1	5	2	0	1	target	1	268	866	354767	13.328	12.180	14.480
ProbeTrack15	5	ProbeTrack	15.0	SCS215a	20120207.130641	20120207.130716	8	0.013323	60	10	60-180	60	146	GapPrac	Blank	1	6	2	3	0	distractor	1	365	818	355585	13.328	13.109	13.564
ProbeTrack15	5	ProbeTrack	15.0	SCS215a	20120207.130641	20120207.130722	8	0.013323	60	10	60-180	60	171	GapPrac	Blank	1	7	2	30	0	distractor	1	411	795	356380	13.328	13.093	13.568
ProbeTrack15	5	ProbeTrack	15.0	SCS215a	20120207.130641	20120207.130729	8	0.013323	60	10	60-180	60	116	GapPrac	Blank	1	8	2	0	1	target	1	361	820	357200	13.328	13.100	13.556
ProbeTrack15	5	ProbeTrack	15.0	SCS215a	20120207.130641	20120207.130734	8	0.013323	60	10	60-180	60	162	GapPrac	Blank	1	9	2	1	0	target	0	380	-1000	356200	13.328	13.100	13.551
ProbeTrack15	5	ProbeTrack	15.0	SCS215a	20120207.130641	20120207.130741	8	0.013323	60	10	60-180	60	126	GapPrac	Blank	1	10	2	3	1	target	1	293	854	357054	13.328	8.684	17.983
ProbeTrack15	5	ProbeTrack	15.0	SCS215a	20120207.130641	20120207.130747	8	0.013323	60	10	60-180	60	93	GapPrac	Blank	1	11	2	1	0	distractor	1	438	781	357835	13.328	13.311	13.350
ProbeTrack15	5	ProbeTrack	15.0	SCS215a	20120207.130641	20120207.130752	8	0.013323	60	10	60-180	60	110	GapPrac	Blank	1	12	2	30	1	target	1	337	832	358667	13.328	13.301	13.355
ProbeTrack15	5	ProbeTrack	15.0	SCS215a	20120207.130641	20120207.130800	8	0.013323	60	10	60-180	60	125	GapPrac	Blank	1	13	2	30	1	target	1	271	865	359532	13.328	13.279	13.381
ProbeTrack15	5	ProbeTrack	15.0	SCS215a	20120207.130641	20120207.130806	8	0.013323	60	10	60-180	60	106	GapPrac	Blank	1	14	2	1	1	target	1	292	854	360386	13.328	13.308	13.349
ProbeTrack15	5	ProbeTrack	15.0	SCS215a	20120207.130641	20120207.130812	8	0.013323	60	10	60-180	60	104	GapPrac	Blank	1	15	2	30	0	distractor	1	423	789	361175	13.328	7.943	18.722
ProbeTrack15	5	ProbeTrack	15.0	SCS215a	20120207.130641	20120207.130817	8	0.013323	60	10	60-180	60	150	GapPrac	Blank	1	16	2	1	1	target	1	289	856	362031	13.328	13.115	13.541
ProbeTrack15	5	ProbeTrack	15.0	SCS215a	20120207.130641	20120207.130824	8	0.013323	60	10	60-180	60	113	GapPrac	Blank	1	17	2	0	0	distractor	1	363	819	362850	13.328	13.305	13.344
ProbeTrack15	5	ProbeTrack	15.0	SCS215a	20120207.130641	20120207.130829	8	0.013323	60	10	60-180	60	112	GapPrac	Blank	1	18	2	0	0	distractor	1	430	785	363635	13.328	11.602	15.056
ProbeTrack15	5	ProbeTrack	15.0	SCS215a	20120207.130641	20120207.130835	8	0.013323	60	10	60-180	60	146	GapPrac	Blank	1	19	2	3	0	distractor	1	330	835	364470	13.328	12.851	13.807
ProbeTrack15	5	ProbeTrack	15.0	SCS215a	20120207.130641	20120207.130841	8	0.013323	60	10	60-180	60	83	GapPrac	Blank	1	20	2	3	1	target	1	329	836	365306	13.328	13.033	13.633
ProbeTrack15	5	ProbeTrack	15.0	SCS215a	20120207.130909	20120207.130914	8	0.013328	60	10	60-180	60	103	GapExp	Blank	1	1	2	0	0	distractor	1	395	803	366109	13.389	13.107	13.557
ProbeTrack15	5	ProbeTrack	15.0	SCS215a	20120207.130909	20120207.130922	8	0.013328	60	10	60-180	60	177	GapExp	Blank	1	2	2	1	1	target	1	309	846	366955	13.328	11.254	15.397
ProbeTrack15	5	ProbeTrack	15.0	SCS215a	20120207.130909	20120207.130928	8	0.013328	60	10	60-180	60	164	GapExp	Blank	1	3	2	1	0	distractor	1	383	809	367764	13.328	13.094	13.571
ProbeTrack15	5	ProbeTrack	15.0	SCS215a	20120207.130909	20120207.130934	8	0.013328	60	10	60-180	60	88	GapExp	Blank	1	4	2	3	1	target	1	323	839	368603	13.328	13.303	13.358
ProbeTrack15	5	ProbeTrack	15.0	SCS215a	20120207.130909	20120207.130939	8	0.013328	60	10	60-180	60	106	GapExp	Blank	1	5	2	30	0	distractor	1	352	824	369427	13.328	13.307	13.355
ProbeTrack15	5	ProbeTrack	15.0	SCS215a	20120207.130909	20120207.130945	8	0.013328	60	10	60-180	60	87	GapExp	Blank	1	6	2	3	0	distractor	1	406	797	370224	13.328	13.281	13.375
ProbeTrack15	5	ProbeTrack	15.0	SCS215a	20120207.130909	20120207.130953	8	0.013328	60	10	60-180	60	77	GapExp	Blank	1	7	2	0	1	target	1	333	834	371058	13.328	13.306	13.344
ProbeTrack15	5	ProbeTrack	15.0	SCS215a	20120207.130909	20120207.130957	8	0.013328	60	10	60-180	60	100	GapExp	Blank	1	8	2	30	1	target	1	258	871	371929	13.328	13.100	13.550
ProbeTrack15	5	ProbeTrack	15.0	SCS215a	20120207.130909	20120207.131003	8	0.013328	60	10	60-180	60	132	GapExp	Blank	0	9	2	30	0	distractor	1	454	773	372702	13.328	10.465	16.191
ProbeTrack15	5	ProbeTrack	15.0	SCS215a	20120207.130909	20120207.131009	8	0.013328	60	10	60-180	60	119	GapExp	Blank	0	10	2	3	0	distractor	1	372	814	373516	13.328	13.300	13.357
ProbeTrack15	5	ProbeTrack	15.0	SCS215a	20120207.130909	20120207.131015	8	0.013328	60	10	60-180	60	150	GapExp	Blank	0	11	2	3	1	target	1	298	851	374367	13.328	10.361	16.285
ProbeTrack15	5	ProbeTrack	15.0	SCS215a	20120207.130909	20120207.131021	8	0.013328	60	10	60-180	60	122	GapExp	Blank	0	12	2	0	1	target	1	330	835	375202	13.328	8.560	18.094
ProbeTrack15	5	ProbeTrack	15.0	SCS215a	20120207.130909	20120207.131027	8	0.013328	60	10	60-180	60	78	GapExp	Blank	0	13	2	1	1	target	1	369	816	376018	13.328	13.309	13.346
ProbeTrack15	5	ProbeTrack	15.0	SCS215a	20120207.130909	20120207.131032	8	0.013328	60	10	60-180	60	135	GapExp	Blank	0	14	2	0	0	distractor	1	609	696	376714	13.328	13.091	13.553
ProbeTrack15	5	ProbeTrack	15.0	SCS215a	20120207.130909	20120207.131038	8	0.013328	60	10	60-180	60	126	GapExp	Blank	0	15	2	1	0	distractor	1	604	698	377412	13.328	12.258	14.401
ProbeTrack15	5	ProbeTrack	15.0	SCS215a	20120207.130909	20120207.131044	8	0.013328	60	10	60-180	60	62	GapExp	Blank	0	16	2	1	0	target	0	494	-1000	376412	13.328	13.289	13.364
ProbeTrack15	5	ProbeTrack	15.0	SCS215a	20120207.130909	20120207.131049	8	0.013328	60	10	60-180	60	142	GapExp	Blank	0	17	2	1	1	distractor	0	373	-1000	375412	13.328	13.300	13.357
ProbeTrack15	5	ProbeTrack	15.0	SCS215a	20120207.130909	20120207.131055	8	0.013328	60	10	60-180	60	126	GapExp	Blank	0	18	2	0	1	target	1	301	850	376262	13.336	13.307	15.211
ProbeTrack15	5	ProbeTrack	15.0	SCS215a	20120207.130909	20120207.131101	8	0.013328	60	10	60-180	60	129	GapExp	Blank	0	19	2	3	1	target	1	332	834	377096	13.328	13.299	13.346
ProbeTrack15	5	ProbeTrack	15.0	SCS215a	20120207.130909	20120207.131107	8	0.013328	60	10	60-180	60	98	GapExp	Blank	0	20	2	3	1	target	1	346	827	377923	13.328	12.757	13.892
ProbeTrack15	5	ProbeTrack	15.0	SCS215a	20120207.130909	20120207.131112	8	0.013328	60	10	60-180	60	155	GapExp	Blank	0	21	2	0	0	distractor	1	446	777	378700	13.328	5.270	21.379
ProbeTrack15	5	ProbeTrack	15.0	SCS215a	20120207.130909	20120207.131118	8	0.013328	60	10	60-180	60	101	GapExp	Blank	0	22	2	1	0	distractor	1	370	815	379515	13.328	13.305	13.353
ProbeTrack15	5	ProbeTrack	15.0	SCS215a	20120207.130909	20120207.131124	8	0.013328	60	10	60-180	60	114	GapExp	Blank	0	23	2	3	0	distractor	1	333	834	380349	13.328	12.315	14.348
ProbeTrack15	5	ProbeTrack	15.0	SCS215a	20120207.130909	20120207.131129	8	0.013328	60	10	60-180	60	79	GapExp	Blank	0	24	2	30	1	target	1	374	813	381162	13.328	13.311	13.344
ProbeTrack15	5	ProbeTrack	15.0	SCS215a	20120207.130909	20120207.131135	8	0.013328	60	10	60-180	60	140	GapExp	Blank	0	25	2	30	0	distractor	1	400	800	381962	13.328	13.100	13.565
ProbeTrack15	5	ProbeTrack	15.0	SCS215a	20120207.130909	20120207.131142	8	0.013328	60	10	60-180	60	153	GapExp	Blank	0	26	2	0	0	distractor	1	418	791	382753	13.328	13.100	13.544
ProbeTrack15	5	ProbeTrack	15.0	SCS215a	20120207.130909	20120207.131148	8	0.013328	60	10	60-180	60	140	GapExp	Blank	0	27	2	30	0	distractor	1	358	821	383574	13.328	13.114	13.550
ProbeTrack15	5	ProbeTrack	15.0	SCS215a	20120207.130909	20120207.131154	8	0.013328	60	10	60-180	60	117	GapExp	Blank	0	28	2	3	0	distractor	1	355	823	384397	13.328	13.306	13.355
ProbeTrack15	5	ProbeTrack	15.0	SCS215a	20120207.130909	20120207.131200	8	0.013328	60	10	60-180	60	93	GapExp	Blank	0	29	2	0	0	distractor	1	368	816	385213	13.328	8.819	17.849
ProbeTrack15	5	ProbeTrack	15.0	SCS215a	20120207.130909	20120207.131205	8	0.013328	60	10	60-180	60	88	GapExp	Blank	0	30	2	1	1	target	1	343	829	386042	13.328	13.278	13.370
ProbeTrack15	5	ProbeTrack	15.0	SCS215a	20120207.130909	20120207.131210	8	0.013328	60	10	60-180	60	106	GapExp	Blank	0	31	2	0	0	distractor	1	395	803	386845	13.328	13.100	13.550
ProbeTrack15	5	ProbeTrack	15.0	SCS215a	20120207.130909	20120207.131216	8	0.013328	60	10	60-180	60	137	GapExp	Blank	0	32	2	30	0	distractor	1	608	696	387541	13.328	13.101	13.559
ProbeTrack15	5	ProbeTrack	15.0	SCS215a	20120207.130909	20120207.131222	8	0.013328	60	10	60-180	60	115	GapExp	Blank	0	33	2	0	0	distractor	1	389	806	388347	13.328	12.392	14.258
ProbeTrack15	5	ProbeTrack	15.0	SCS215a	20120207.130909	20120207.131228	8	0.013328	60	10	60-180	60	135	GapExp	Blank	0	34	2	0	0	target	0	361	-1000	387347	13.328	13.306	13.351
ProbeTrack15	5	ProbeTrack	15.0	SCS215a	20120207.130909	20120207.131234	8	0.013328	60	10	60-180	60	141	GapExp	Blank	0	35	2	1	0	distractor	1	345	828	388175	13.328	11.642	15.003
ProbeTrack15	5	ProbeTrack	15.0	SCS215a	20120207.130909	20120207.131240	8	0.013328	60	10	60-180	60	64	GapExp	Blank	0	36	2	1	1	target	1	320	840	389015	13.328	10.662	15.977
ProbeTrack15	5	ProbeTrack	15.0	SCS215a	20120207.130909	20120207.131245	8	0.013328	60	10	60-180	60	164	GapExp	Blank	0	37	2	3	0	distractor	1	367	817	389832	13.328	8.311	18.346
ProbeTrack15	5	ProbeTrack	15.0	SCS215a	20120207.130909	20120207.131251	8	0.013328	60	10	60-180	60	127	GapExp	Blank	0	38	2	30	1	distractor	0	262	-1000	388832	13.328	6.521	20.127
ProbeTrack15	5	ProbeTrack	15.0	SCS215a	20120207.130909	20120207.131257	8	0.013328	60	10	60-180	60	165	GapExp	Blank	0	39	2	3	0	distractor	1	347	827	389659	13.328	13.305	13.346
ProbeTrack15	5	ProbeTrack	15.0	SCS215a	20120207.130909	20120207.131303	8	0.013328	60	10	60-180	60	77	GapExp	Blank	0	40	2	0	1	target	1	367	817	390476	13.328	13.309	13.352
ProbeTrack15	5	ProbeTrack	15.0	SCS215a	20120207.130909	20120207.131308	8	0.013328	60	10	60-180	60	96	GapExp	Blank	0	41	2	30	1	target	1	274	863	391339	13.328	9.897	16.752
ProbeTrack15	5	ProbeTrack	15.0	SCS215a	20120207.130909	20120207.131314	8	0.013328	60	10	60-180	60	91	GapExp	Blank	0	42	2	0	0	distractor	1	435	783	392122	13.328	13.126	13.555
ProbeTrack15	5	ProbeTrack	15.0	SCS215a	20120207.130909	20120207.131320	8	0.013328	60	10	60-180	60	102	GapExp	Blank	0	43	2	3	1	target	1	407	797	392919	13.328	13.106	13.545
ProbeTrack15	5	ProbeTrack	15.0	SCS215a	20120207.130909	20120207.131325	8	0.013328	60	10	60-180	60	81	GapExp	Blank	0	44	2	1	0	distractor	1	367	817	393736	13.328	13.222	13.434
ProbeTrack15	5	ProbeTrack	15.0	SCS215a	20120207.130909	20120207.131330	8	0.013328	60	10	60-180	60	148	GapExp	Blank	0	45	2	1	1	distractor	0	356	-1000	392736	13.328	10.139	16.524
ProbeTrack15	5	ProbeTrack	15.0	SCS215a	20120207.130909	20120207.131336	8	0.013328	60	10	60-180	60	126	GapExp	Blank	0	46	2	1	1	target	1	304	848	393584	13.303	7.590	13.349
ProbeTrack15	5	ProbeTrack	15.0	SCS215a	20120207.130909	20120207.131342	8	0.013328	60	10	60-180	60	131	GapExp	Blank	0	47	2	1	1	target	1	264	868	394452	13.328	5.335	21.316
ProbeTrack15	5	ProbeTrack	15.0	SCS215a	20120207.130909	20120207.131348	8	0.013328	60	10	60-180	60	178	GapExp	Blank	0	48	2	1	0	distractor	1	417	792	395244	13.417	10.980	29.802
ProbeTrack15	5	ProbeTrack	15.0	SCS215a	20120207.130909	20120207.131356	8	0.013328	60	10	60-180	60	139	GapExp	Blank	0	49	2	1	1	target	1	330	835	396079	13.328	11.040	15.612
ProbeTrack15	5	ProbeTrack	15.0	SCS215a	20120207.130909	20120207.131401	8	0.013328	60	10	60-180	60	76	GapExp	Blank	0	50	2	1	0	distractor	1	357	822	396901	13.328	6.982	19.668
ProbeTrack15	5	ProbeTrack	15.0	SCS215a	20120207.130909	20120207.131407	8	0.013328	60	10	60-180	60	102	GapExp	Blank	0	51	2	1	0	distractor	1	398	801	397702	13.328	10.144	16.520
ProbeTrack15	5	ProbeTrack	15.0	SCS215a	20120207.130909	20120207.131412	8	0.013328	60	10	60-180	60	77	GapExp	Blank	0	52	2	0	0	distractor	1	389	806	398508	13.328	11.131	15.535
ProbeTrack15	5	ProbeTrack	15.0	SCS215a	20120207.130909	20120207.131417	8	0.013328	60	10	60-180	60	124	GapExp	Blank	0	53	2	1	1	target	1	406	797	399305	13.328	7.377	19.274
ProbeTrack15	5	ProbeTrack	15.0	SCS215a	20120207.130909	20120207.131423	8	0.013328	60	10	60-180	60	108	GapExp	Blank	0	54	2	1	0	distractor	1	369	816	400121	13.328	12.485	14.153
ProbeTrack15	5	ProbeTrack	15.0	SCS215a	20120207.130909	20120207.131428	8	0.013328	60	10	60-180	60	168	GapExp	Blank	0	55	2	30	0	distractor	1	319	841	400962	13.328	8.961	17.737
ProbeTrack15	5	ProbeTrack	15.0	SCS215a	20120207.130909	20120207.131435	8	0.013328	60	10	60-180	60	134	GapExp	Blank	0	56	2	0	1	target	1	327	837	401799	13.328	13.037	13.615
ProbeTrack15	5	ProbeTrack	15.0	SCS215a	20120207.130909	20120207.131441	8	0.013328	60	10	60-180	60	95	GapExp	Blank	0	57	2	0	1	target	1	315	843	402642	13.328	9.597	17.057
ProbeTrack15	5	ProbeTrack	15.0	SCS215a	20120207.130909	20120207.131446	8	0.013328	60	10	60-180	60	102	GapExp	Blank	0	58	2	3	0	distractor	1	381	810	403452	13.328	13.309	13.347
ProbeTrack15	5	ProbeTrack	15.0	SCS215a	20120207.130909	20120207.131451	8	0.013328	60	10	60-180	60	98	GapExp	Blank	0	59	2	0	0	distractor	1	399	801	404253	13.328	8.128	18.530
ProbeTrack15	5	ProbeTrack	15.0	SCS215a	20120207.130909	20120207.131457	8	0.013328	60	10	60-180	60	73	GapExp	Blank	0	60	2	0	1	target	1	297	852	405105	13.328	9.693	16.957
ProbeTrack15	5	ProbeTrack	15.0	SCS215a	20120207.130909	20120207.131502	8	0.013328	60	10	60-180	60	132	GapExp	Blank	0	61	2	30	1	target	1	250	875	405980	13.328	11.896	14.748
ProbeTrack15	5	ProbeTrack	15.0	SCS215a	20120207.130909	20120207.131508	8	0.013328	60	10	60-180	60	93	GapExp	Blank	0	62	2	1	0	distractor	1	471	765	406745	13.328	13.164	13.466
ProbeTrack15	5	ProbeTrack	15.0	SCS215a	20120207.130909	20120207.131514	8	0.013328	60	10	60-180	60	72	GapExp	Blank	0	63	2	3	0	distractor	1	466	767	407512	13.328	10.094	16.563
ProbeTrack15	5	ProbeTrack	15.0	SCS215a	20120207.130909	20120207.131519	8	0.013328	60	10	60-180	60	78	GapExp	Blank	0	64	2	3	1	target	1	285	858	408370	13.328	13.111	13.560
ProbeTrack15	5	ProbeTrack	15.0	SCS215a	20120207.130909	20120207.131524	8	0.013328	60	10	60-180	60	105	GapExp	Blank	0	65	2	1	1	distractor	0	284	-1000	407370	13.328	8.014	18.633
ProbeTrack15	5	ProbeTrack	15.0	SCS215a	20120207.130909	20120207.131530	8	0.013328	60	10	60-180	60	162	GapExp	Blank	0	66	2	1	0	target	0	415	-1000	406370	13.328	11.230	15.419
ProbeTrack15	5	ProbeTrack	15.0	SCS215a	20120207.130909	20120207.131536	8	0.013328	60	10	60-180	60	142	GapExp	Blank	0	67	2	30	1	target	1	291	855	407225	13.328	13.217	13.438
