exp	sub	code	rev	comp	runtime	trialtime	nstim	refreshdur	cuedur	gapdur	gapOnsetRange	durPostProbe	gapOnsetTime	blocktype	prac	trial	ntargets	soa	probeTarget	resp	acc	rt	meanFrameDur	minFrameDur	maxFrameDur
ProbeTrack7	5	ProbeTrack	1404	SCS215a	733709.410141	733709.410573	8	0.013327	60	0	60-180	60	137	NoGap	1	1	4	96	0	distractor	1	1573	13.328	13.293	13.363
ProbeTrack7	5	ProbeTrack	1404	SCS215a	733709.410141	733709.411064	8	0.013327	60	0	60-180	60	93	NoGap	1	2	4	3	1	target	1	973	13.328	13.293	13.369
ProbeTrack7	5	ProbeTrack	1404	SCS215a	733709.410141	733709.411373	8	0.013327	60	0	60-180	60	67	NoGap	1	3	4	96	1	target	1	693	13.328	13.293	13.363
ProbeTrack7	5	ProbeTrack	1404	SCS215a	733709.410141	733709.411447	8	0.013327	60	0	60-180	60	123	NoGap	1	4	4	6	0	distractor	1	747	13.328	13.293	13.363
ProbeTrack7	5	ProbeTrack	1404	SCS215a	733709.410141	733709.411517	8	0.013327	60	0	60-180	60	75	NoGap	1	5	4	0	0	target	0	533	13.328	13.285	13.363
ProbeTrack7	5	ProbeTrack	1404	SCS215a	733709.410141	733709.411574	8	0.013327	60	0	60-180	60	80	NoGap	1	6	4	96	1	target	1	787	13.328	13.293	13.363
ProbeTrack7	5	ProbeTrack	1404	SCS215a	733709.410141	733709.411658	8	0.013327	60	0	60-180	60	86	NoGap	1	7	4	6	0	distractor	1	827	13.328	13.293	13.363
ProbeTrack7	5	ProbeTrack	1404	SCS215a	733709.410141	733709.411719	8	0.013327	60	0	60-180	60	177	NoGap	1	8	4	96	0	distractor	1	867	13.328	13.293	13.363
ProbeTrack7	5	ProbeTrack	1404	SCS215a	733709.410141	733709.411809	8	0.013327	60	0	60-180	60	100	NoGap	1	9	4	3	1	target	1	773	13.328	13.293	13.363
ProbeTrack7	5	ProbeTrack	1404	SCS215a	733709.410141	733709.411872	8	0.013327	60	0	60-180	60	77	NoGap	1	10	4	3	0	distractor	1	640	13.328	13.293	13.366
ProbeTrack7	5	ProbeTrack	1404	SCS215a	733709.410141	733709.411927	8	0.013327	60	0	60-180	60	143	NoGap	1	11	4	96	1	distractor	0	973	13.328	13.293	13.363
ProbeTrack7	5	ProbeTrack	1404	SCS215a	733709.410141	733709.412012	8	0.013327	60	0	60-180	60	89	NoGap	1	12	4	6	1	target	1	747	13.327	13.293	13.363
ProbeTrack7	5	ProbeTrack	1404	SCS215a	733709.410141	733709.412074	8	0.013327	60	0	60-180	60	70	NoGap	1	13	4	6	0	target	0	547	13.328	13.292	13.363
ProbeTrack7	5	ProbeTrack	1404	SCS215a	733709.410141	733709.412129	8	0.013327	60	0	60-180	60	160	NoGap	1	14	4	3	1	target	1	613	13.328	13.293	13.363
ProbeTrack7	5	ProbeTrack	1404	SCS215a	733709.410141	733709.412229	8	0.013327	60	0	60-180	60	169	NoGap	1	15	4	96	1	target	1	507	13.328	13.292	13.363
ProbeTrack7	5	ProbeTrack	1404	SCS215a	733709.410141	733709.412313	8	0.013327	60	0	60-180	60	65	NoGap	1	16	4	96	1	target	1	933	13.328	13.293	13.370
ProbeTrack7	5	ProbeTrack	1404	SCS215a	733709.410141	733709.412384	8	0.013327	60	0	60-180	60	140	NoGap	1	17	4	6	1	target	1	720	13.328	13.293	13.363
ProbeTrack7	5	ProbeTrack	1404	SCS215a	733709.410141	733709.412450	8	0.013327	60	0	60-180	60	139	NoGap	1	18	4	96	1	distractor	0	747	13.328	13.293	13.363
ProbeTrack7	5	ProbeTrack	1404	SCS215a	733709.410141	733709.412530	8	0.013327	60	0	60-180	60	97	NoGap	1	19	4	96	1	target	1	627	13.328	13.293	13.364
ProbeTrack7	5	ProbeTrack	1404	SCS215a	733709.410141	733709.412609	8	0.013327	60	0	60-180	60	148	NoGap	1	20	4	3	1	target	1	560	13.328	13.287	13.367
ProbeTrack7	5	ProbeTrack	1404	SCS215a	733709.410141	733709.412675	8	0.013327	60	0	60-180	60	98	NoGap	1	21	4	6	0	distractor	1	760	13.328	13.293	13.363
ProbeTrack7	5	ProbeTrack	1404	SCS215a	733709.410141	733709.412735	8	0.013327	60	0	60-180	60	71	NoGap	1	22	4	0	1	target	1	507	13.328	13.293	13.363
ProbeTrack7	5	ProbeTrack	1404	SCS215a	733709.410141	733709.412802	8	0.013327	60	0	60-180	60	109	NoGap	1	23	4	6	1	target	1	640	13.328	13.293	13.363
ProbeTrack7	5	ProbeTrack	1404	SCS215a	733709.410141	733709.412863	8	0.013327	60	0	60-180	60	152	NoGap	1	24	4	96	0	distractor	1	707	13.328	13.293	13.363
ProbeTrack7	5	ProbeTrack	1404	SCS215a	733709.410141	733709.412945	8	0.013327	60	0	60-180	60	76	NoGap	1	25	4	0	1	target	1	600	13.328	13.293	13.363
ProbeTrack7	5	ProbeTrack	1404	SCS215a	733709.410141	733709.413011	8	0.013327	60	0	60-180	60	135	NoGap	1	26	4	3	0	distractor	1	627	13.328	13.293	13.363
ProbeTrack7	5	ProbeTrack	1404	SCS215a	733709.410141	733709.413081	8	0.013327	60	0	60-180	60	143	NoGap	1	27	4	6	0	distractor	1	947	13.328	13.293	13.363
ProbeTrack7	5	ProbeTrack	1404	SCS215a	733709.410141	733709.413154	8	0.013327	60	0	60-180	60	138	NoGap	1	28	4	3	1	target	1	600	13.328	13.290	13.365
ProbeTrack7	5	ProbeTrack	1404	SCS215a	733709.410141	733709.413221	8	0.013327	60	0	60-180	60	67	NoGap	1	29	4	6	0	distractor	1	614	13.328	13.293	13.363
ProbeTrack7	5	ProbeTrack	1404	SCS215a	733709.410141	733709.413278	8	0.013327	60	0	60-180	60	146	NoGap	1	30	4	3	0	distractor	1	760	13.328	13.293	13.363
ProbeTrack7	5	ProbeTrack	1404	SCS215a	733709.410141	733709.413347	8	0.013327	60	0	60-180	60	93	NoGap	1	31	4	3	1	distractor	0	560	13.328	13.293	13.363
ProbeTrack7	5	ProbeTrack	1404	SCS215a	733709.410141	733709.413406	8	0.013327	60	0	60-180	60	62	NoGap	1	32	4	0	1	target	1	440	13.328	13.293	13.362
ProbeTrack7	5	ProbeTrack	1404	SCS215a	733709.410141	733709.413457	8	0.013327	60	0	60-180	60	80	NoGap	1	33	4	0	0	distractor	1	613	13.328	13.293	13.363
ProbeTrack7	5	ProbeTrack	1404	SCS215a	733709.410141	733709.413512	8	0.013327	60	0	60-180	60	114	NoGap	1	34	4	96	0	distractor	1	853	13.328	13.293	13.363
ProbeTrack7	5	ProbeTrack	1404	SCS215a	733709.410141	733709.413591	8	0.013327	60	0	60-180	60	154	NoGap	1	35	4	6	1	target	1	1133	13.328	13.293	13.363
ProbeTrack7	5	ProbeTrack	1404	SCS215a	733709.410141	733709.413664	8	0.013327	60	0	60-180	60	105	NoGap	1	36	4	3	1	target	1	427	13.327	13.293	13.363
ProbeTrack7	5	ProbeTrack	1404	SCS215a	733709.410141	733709.413724	8	0.013327	60	0	60-180	60	175	NoGap	1	37	4	0	0	distractor	1	667	13.328	13.290	13.366
ProbeTrack7	5	ProbeTrack	1404	SCS215a	733709.410141	733709.413795	8	0.013327	60	0	60-180	60	134	NoGap	1	38	4	0	1	target	1	467	13.328	13.293	13.363
ProbeTrack7	5	ProbeTrack	1404	SCS215a	733709.410141	733709.413858	8	0.013327	60	0	60-180	60	151	NoGap	1	39	4	0	0	distractor	1	627	13.328	13.293	13.363
ProbeTrack7	5	ProbeTrack	1404	SCS215a	733709.410141	733709.413923	8	0.013327	60	0	60-180	60	180	NoGap	1	40	4	3	0	distractor	1	627	13.328	13.293	13.363
ProbeTrack7	5	ProbeTrack	1404	SCS215a	733709.410141	733709.413995	8	0.013327	60	0	60-180	60	160	NoGap	1	41	4	3	0	distractor	1	640	13.328	13.293	13.363
ProbeTrack7	5	ProbeTrack	1404	SCS215a	733709.410141	733709.414064	8	0.013327	60	0	60-180	60	76	NoGap	1	42	4	0	0	distractor	1	787	13.328	13.293	13.363
ProbeTrack7	5	ProbeTrack	1404	SCS215a	733709.410141	733709.414115	8	0.013327	60	0	60-180	60	85	NoGap	1	43	4	6	1	target	1	440	13.328	13.293	13.363
ProbeTrack7	5	ProbeTrack	1404	SCS215a	733709.410141	733709.414165	8	0.013327	60	0	60-180	60	67	NoGap	1	44	4	96	0	distractor	1	1040	13.328	13.293	13.363
ProbeTrack7	5	ProbeTrack	1404	SCS215a	733709.410141	733709.414240	8	0.013327	60	0	60-180	60	148	NoGap	1	45	4	0	0	target	0	533	13.328	13.293	13.363
ProbeTrack7	5	ProbeTrack	1404	SCS215a	733709.410141	733709.414306	8	0.013327	60	0	60-180	60	123	NoGap	1	46	4	0	1	target	1	427	13.328	13.293	13.362
ProbeTrack7	5	ProbeTrack	1404	SCS215a	733709.410141	733709.414367	8	0.013327	60	0	60-180	60	71	NoGap	1	47	4	96	0	distractor	1	653	13.328	13.292	13.363
ProbeTrack7	5	ProbeTrack	1404	SCS215a	733709.410141	733709.414434	8	0.013327	60	0	60-180	60	81	NoGap	1	48	4	6	0	distractor	1	600	13.327	13.292	13.363
ProbeTrack7	5	ProbeTrack	1404	SCS215a	733709.410141	733709.414490	8	0.013327	60	0	60-180	60	100	NoGap	1	49	4	3	0	distractor	1	627	13.328	13.293	13.363
ProbeTrack7	5	ProbeTrack	1404	SCS215a	733709.410141	733709.414546	8	0.013327	60	0	60-180	60	155	NoGap	1	50	4	96	0	distractor	1	787	13.328	13.293	13.363
ProbeTrack7	5	ProbeTrack	1404	SCS215a	733709.418610	733709.419031	8	0.013328	60	10	60-180	60	108	GapPrac	1	1	3	0	0	distractor	1	853	13.328	13.293	13.363
ProbeTrack7	5	ProbeTrack	1404	SCS215a	733709.418610	733709.419220	8	0.013328	60	10	60-180	60	62	GapPrac	1	2	3	0	1	target	1	600	13.328	13.293	13.362
ProbeTrack7	5	ProbeTrack	1404	SCS215a	733709.418610	733709.419332	8	0.013328	60	10	60-180	60	95	GapPrac	1	3	3	96	0	distractor	1	507	13.328	13.293	13.363
ProbeTrack7	5	ProbeTrack	1404	SCS215a	733709.418610	733709.419407	8	0.013328	60	10	60-180	60	103	GapPrac	1	4	3	3	1	distractor	0	640	13.327	13.292	13.363
ProbeTrack7	5	ProbeTrack	1404	SCS215a	733709.418610	733709.419471	8	0.013328	60	10	60-180	60	149	GapPrac	1	5	3	6	0	target	0	693	13.328	13.293	13.363
ProbeTrack7	5	ProbeTrack	1404	SCS215a	733709.418610	733709.419541	8	0.013328	60	10	60-180	60	167	GapPrac	1	6	3	96	0	distractor	1	680	13.328	13.293	13.363
ProbeTrack7	5	ProbeTrack	1404	SCS215a	733709.418610	733709.419630	8	0.013328	60	10	60-180	60	174	GapPrac	1	7	3	96	1	target	1	480	13.328	13.293	13.363
ProbeTrack7	5	ProbeTrack	1404	SCS215a	733709.418610	733709.419716	8	0.013328	60	10	60-180	60	142	GapPrac	1	8	3	3	0	target	0	867	13.328	13.293	13.363
ProbeTrack7	5	ProbeTrack	1404	SCS215a	733709.418610	733709.419780	8	0.013328	60	10	60-180	60	165	GapPrac	1	9	3	0	1	target	1	773	13.328	13.293	13.363
ProbeTrack7	5	ProbeTrack	1404	SCS215a	733709.418610	733709.419850	8	0.013328	60	10	60-180	60	170	GapPrac	1	10	3	3	0	distractor	1	707	13.328	13.142	13.546
ProbeTrack7	5	ProbeTrack	1404	SCS215a	733709.418610	733709.419922	8	0.013328	60	10	60-180	60	136	GapPrac	1	11	3	96	0	distractor	1	613	13.328	13.293	13.363
ProbeTrack7	5	ProbeTrack	1404	SCS215a	733709.418610	733709.420003	8	0.013328	60	10	60-180	60	89	GapPrac	1	12	3	6	1	target	1	627	13.328	13.293	13.362
ProbeTrack7	5	ProbeTrack	1404	SCS215a	733709.418610	733709.420056	8	0.013328	60	10	60-180	60	132	GapPrac	1	13	3	96	1	target	1	507	13.328	13.293	13.363
ProbeTrack7	5	ProbeTrack	1404	SCS215a	733709.418610	733709.420134	8	0.013328	60	10	60-180	60	159	GapPrac	1	14	3	6	1	target	1	480	13.328	13.293	13.363
ProbeTrack7	5	ProbeTrack	1404	SCS215a	733709.418610	733709.420203	8	0.013328	60	10	60-180	60	173	GapPrac	1	15	3	3	1	target	1	547	13.328	13.293	13.363
ProbeTrack7	5	ProbeTrack	1404	SCS215a	733709.418610	733709.420269	8	0.013328	60	10	60-180	60	83	GapPrac	1	16	3	0	0	target	0	547	13.328	13.293	13.363
ProbeTrack7	5	ProbeTrack	1404	SCS215a	733709.418610	733709.420325	8	0.013328	60	10	60-180	60	150	GapPrac	1	17	3	0	1	target	1	480	13.328	13.293	13.363
ProbeTrack7	5	ProbeTrack	1404	SCS215a	733709.418610	733709.420390	8	0.013328	60	10	60-180	60	115	GapPrac	1	18	3	3	1	distractor	0	840	13.328	13.293	13.363
ProbeTrack7	5	ProbeTrack	1404	SCS215a	733709.418610	733709.420456	8	0.013328	60	10	60-180	60	128	GapPrac	1	19	3	6	0	distractor	1	720	13.328	13.293	13.363
ProbeTrack7	5	ProbeTrack	1404	SCS215a	733709.418610	733709.420520	8	0.013328	60	10	60-180	60	73	GapPrac	1	20	3	0	0	target	0	494	13.328	13.293	13.366
ProbeTrack7	5	ProbeTrack	1404	SCS215a	733709.421084	733709.421138	8	0.013328	60	10	60-180	60	180	GapPrac	1	1	3	3	0	distractor	1	627	13.328	13.293	13.365
ProbeTrack7	5	ProbeTrack	1404	SCS215a	733709.421084	733709.421222	8	0.013328	60	10	60-180	60	111	GapPrac	1	2	3	0	0	distractor	1	787	13.328	13.293	13.363
ProbeTrack7	5	ProbeTrack	1404	SCS215a	733709.421084	733709.421317	8	0.013328	60	10	60-180	60	72	GapPrac	1	3	3	96	1	target	1	613	13.328	13.293	13.363
ProbeTrack7	5	ProbeTrack	1404	SCS215a	733709.421084	733709.421391	8	0.013328	60	10	60-180	60	179	GapPrac	1	4	3	6	1	target	1	680	13.328	13.293	13.363
ProbeTrack7	5	ProbeTrack	1404	SCS215a	733709.421084	733709.421466	8	0.013328	60	10	60-180	60	135	GapPrac	1	5	3	0	1	target	1	573	13.328	13.293	13.364
ProbeTrack7	5	ProbeTrack	1404	SCS215a	733709.421084	733709.421533	8	0.013328	60	10	60-180	60	89	GapPrac	1	6	3	96	1	target	1	600	13.328	13.293	13.363
ProbeTrack7	5	ProbeTrack	1404	SCS215a	733709.421084	733709.421609	8	0.013328	60	10	60-180	60	131	GapPrac	1	7	3	3	1	target	1	560	13.328	13.293	13.363
ProbeTrack7	5	ProbeTrack	1404	SCS215a	733709.421084	733709.421675	8	0.013328	60	10	60-180	60	155	GapPrac	1	8	3	3	1	target	1	493	13.328	13.293	13.363
ProbeTrack7	5	ProbeTrack	1404	SCS215a	733709.421084	733709.421743	8	0.013328	60	10	60-180	60	176	GapPrac	1	9	3	96	0	distractor	1	613	13.328	13.293	13.363
ProbeTrack7	5	ProbeTrack	1404	SCS215a	733709.421084	733709.421831	8	0.013328	60	10	60-180	60	167	GapPrac	1	10	3	0	0	distractor	1	627	13.328	13.293	13.363
ProbeTrack7	5	ProbeTrack	1404	SCS215a	733709.421084	733709.421906	8	0.013328	60	10	60-180	60	121	GapPrac	1	11	3	0	1	target	1	920	13.328	13.293	13.363
ProbeTrack7	5	ProbeTrack	1404	SCS215a	733709.421084	733709.421972	8	0.013328	60	10	60-180	60	132	GapPrac	1	12	3	0	0	distractor	1	640	13.328	13.293	13.363
ProbeTrack7	5	ProbeTrack	1404	SCS215a	733709.421084	733709.422037	8	0.013328	60	10	60-180	60	173	GapPrac	1	13	3	6	1	distractor	0	680	13.328	13.293	13.363
ProbeTrack7	5	ProbeTrack	1404	SCS215a	733709.421084	733709.422119	8	0.013328	60	10	60-180	60	82	GapPrac	1	14	3	96	1	distractor	0	613	13.328	13.289	13.363
ProbeTrack7	5	ProbeTrack	1404	SCS215a	733709.421084	733709.422192	8	0.013328	60	10	60-180	60	172	GapPrac	1	15	3	3	0	target	0	920	13.328	13.293	13.363
ProbeTrack7	5	ProbeTrack	1404	SCS215a	733709.421084	733709.422268	8	0.013328	60	10	60-180	60	164	GapPrac	1	16	3	3	0	distractor	1	627	13.328	13.293	13.363
ProbeTrack7	5	ProbeTrack	1404	SCS215a	733709.421084	733709.422337	8	0.013328	60	10	60-180	60	170	GapPrac	1	17	3	6	0	distractor	1	547	13.328	13.293	13.363
ProbeTrack7	5	ProbeTrack	1404	SCS215a	733709.421084	733709.422409	8	0.013328	60	10	60-180	60	92	GapPrac	1	18	3	96	0	distractor	1	733	13.328	13.292	13.363
ProbeTrack7	5	ProbeTrack	1404	SCS215a	733709.421084	733709.422486	8	0.013328	60	10	60-180	60	99	GapPrac	1	19	3	6	0	distractor	1	627	13.328	13.293	13.365
ProbeTrack7	5	ProbeTrack	1404	SCS215a	733709.421084	733709.422546	8	0.013328	60	10	60-180	60	84	GapPrac	1	20	3	6	1	target	1	667	13.328	13.293	13.363
ProbeTrack7	5	ProbeTrack	1404	SCS215a	733709.423334	733709.423388	8	0.013327	60	10	60-180	60	151	GapExp	1	1	3	6	1	distractor	0	653	13.328	13.293	13.363
ProbeTrack7	5	ProbeTrack	1404	SCS215a	733709.423334	733709.423556	8	0.013327	60	10	60-180	60	111	GapExp	1	2	3	3	0	distractor	1	667	13.328	13.293	13.363
ProbeTrack7	5	ProbeTrack	1404	SCS215a	733709.423334	733709.423689	8	0.013327	60	10	60-180	60	128	GapExp	1	3	3	96	0	target	0	733	13.328	13.293	13.363
ProbeTrack7	5	ProbeTrack	1404	SCS215a	733709.423334	733709.423810	8	0.013327	60	10	60-180	60	171	GapExp	1	4	3	3	1	target	1	640	13.328	13.293	13.363
ProbeTrack7	5	ProbeTrack	1404	SCS215a	733709.423334	733709.423883	8	0.013327	60	10	60-180	60	136	GapExp	1	5	3	96	1	distractor	0	667	13.328	13.293	13.366
ProbeTrack7	5	ProbeTrack	1404	SCS215a	733709.423334	733709.423967	8	0.013327	60	10	60-180	60	140	GapExp	0	6	3	3	1	target	1	654	13.328	13.293	13.363
ProbeTrack7	5	ProbeTrack	1404	SCS215a	733709.423334	733709.424040	8	0.013327	60	10	60-180	60	120	GapExp	0	7	3	3	1	target	1	653	13.328	13.293	13.362
ProbeTrack7	5	ProbeTrack	1404	SCS215a	733709.423334	733709.424104	8	0.013327	60	10	60-180	60	149	GapExp	0	8	3	3	0	distractor	1	720	13.328	13.293	13.363
ProbeTrack7	5	ProbeTrack	1404	SCS215a	733709.423334	733709.424172	8	0.013327	60	10	60-180	60	85	GapExp	0	9	3	0	1	target	1	693	13.328	13.293	13.363
ProbeTrack7	5	ProbeTrack	1404	SCS215a	733709.423334	733709.424229	8	0.013327	60	10	60-180	60	105	GapExp	0	10	3	6	1	target	1	600	13.327	13.293	13.362
ProbeTrack7	5	ProbeTrack	1404	SCS215a	733709.423334	733709.424290	8	0.013327	60	10	60-180	60	136	GapExp	0	11	3	6	0	distractor	1	560	13.328	13.293	13.363
ProbeTrack7	5	ProbeTrack	1404	SCS215a	733709.423334	733709.424366	8	0.013327	60	10	60-180	60	74	GapExp	0	12	3	6	1	target	1	507	13.328	13.293	13.363
ProbeTrack7	5	ProbeTrack	1404	SCS215a	733709.423334	733709.424421	8	0.013327	60	10	60-180	60	101	GapExp	0	13	3	0	0	target	0	773	13.328	13.293	13.363
ProbeTrack7	5	ProbeTrack	1404	SCS215a	733709.423334	733709.424483	8	0.013327	60	10	60-180	60	132	GapExp	0	14	3	3	0	distractor	1	827	13.328	13.289	13.366
ProbeTrack7	5	ProbeTrack	1404	SCS215a	733709.423334	733709.424550	8	0.013327	60	10	60-180	60	109	GapExp	0	15	3	3	0	target	0	800	13.328	13.293	13.364
ProbeTrack7	5	ProbeTrack	1404	SCS215a	733709.423334	733709.424614	8	0.013327	60	10	60-180	60	153	GapExp	0	16	3	96	1	target	1	733	13.328	13.293	13.363
ProbeTrack7	5	ProbeTrack	1404	SCS215a	733709.423334	733709.424697	8	0.013327	60	10	60-180	60	116	GapExp	0	17	3	0	0	distractor	1	853	13.328	13.293	13.363
ProbeTrack7	5	ProbeTrack	1404	SCS215a	733709.423334	733709.424761	8	0.013327	60	10	60-180	60	137	GapExp	0	18	3	3	1	target	1	827	13.328	13.290	13.365
ProbeTrack7	5	ProbeTrack	1404	SCS215a	733709.423334	733709.424829	8	0.013327	60	10	60-180	60	124	GapExp	0	19	3	6	0	distractor	1	600	13.328	13.293	13.363
ProbeTrack7	5	ProbeTrack	1404	SCS215a	733709.423334	733709.424894	8	0.013327	60	10	60-180	60	159	GapExp	0	20	3	6	0	target	0	747	13.328	13.291	13.363
ProbeTrack7	5	ProbeTrack	1404	SCS215a	733709.423334	733709.424967	8	0.013327	60	10	60-180	60	118	GapExp	0	21	3	6	0	distractor	1	1000	13.328	13.293	13.363
ProbeTrack7	5	ProbeTrack	1404	SCS215a	733709.423334	733709.425036	8	0.013327	60	10	60-180	60	163	GapExp	0	22	3	6	1	target	1	560	13.328	13.293	13.364
ProbeTrack7	5	ProbeTrack	1404	SCS215a	733709.423334	733709.425107	8	0.013327	60	10	60-180	60	115	GapExp	0	23	3	3	0	distractor	1	773	13.328	13.293	13.363
ProbeTrack7	5	ProbeTrack	1404	SCS215a	733709.423334	733709.425171	8	0.013327	60	10	60-180	60	133	GapExp	0	24	3	3	0	distractor	1	733	13.328	13.289	13.363
ProbeTrack7	5	ProbeTrack	1404	SCS215a	733709.423334	733709.425238	8	0.013327	60	10	60-180	60	125	GapExp	0	25	3	3	1	target	1	627	13.328	13.293	13.363
ProbeTrack7	5	ProbeTrack	1404	SCS215a	733709.423334	733709.425303	8	0.013327	60	10	60-180	60	122	GapExp	0	26	3	0	1	target	1	600	13.328	13.293	13.363
ProbeTrack7	5	ProbeTrack	1404	SCS215a	733709.423334	733709.425364	8	0.013327	60	10	60-180	60	121	GapExp	0	27	3	3	1	target	1	613	13.328	13.292	13.363
ProbeTrack7	5	ProbeTrack	1404	SCS215a	733709.423334	733709.425428	8	0.013327	60	10	60-180	60	97	GapExp	0	28	3	96	1	target	1	387	13.328	13.293	13.363
ProbeTrack7	5	ProbeTrack	1404	SCS215a	733709.423334	733709.425498	8	0.013327	60	10	60-180	60	78	GapExp	0	29	3	0	1	target	1	587	13.328	13.293	13.363
ProbeTrack7	5	ProbeTrack	1404	SCS215a	733709.423334	733709.425599	8	0.013327	60	10	60-180	60	84	GapExp	0	30	3	0	0	target	0	853	13.328	13.292	13.365
ProbeTrack7	5	ProbeTrack	1404	SCS215a	733709.423334	733709.425671	8	0.013327	60	10	60-180	60	77	GapExp	0	31	3	96	1	target	1	600	13.328	13.293	13.363
ProbeTrack7	5	ProbeTrack	1404	SCS215a	733709.423334	733709.425743	8	0.013327	60	10	60-180	60	113	GapExp	0	32	3	0	1	target	1	613	13.328	13.293	13.363
ProbeTrack7	5	ProbeTrack	1404	SCS215a	733709.423334	733709.425808	8	0.013327	60	10	60-180	60	158	GapExp	0	33	3	0	1	target	1	520	13.328	13.293	13.363
ProbeTrack7	5	ProbeTrack	1404	SCS215a	733709.423334	733709.425876	8	0.013327	60	10	60-180	60	171	GapExp	0	34	3	6	0	distractor	1	640	13.328	13.288	13.363
ProbeTrack7	5	ProbeTrack	1404	SCS215a	733709.423334	733709.425948	8	0.013327	60	10	60-180	60	70	GapExp	0	35	3	0	0	distractor	1	573	13.328	13.293	13.363
ProbeTrack7	5	ProbeTrack	1404	SCS215a	733709.423334	733709.426002	8	0.013327	60	10	60-180	60	176	GapExp	0	36	3	0	0	distractor	1	573	13.328	13.292	13.366
ProbeTrack7	5	ProbeTrack	1404	SCS215a	733709.423334	733709.426073	8	0.013327	60	10	60-180	60	156	GapExp	0	37	3	3	1	target	1	653	13.328	13.293	13.363
ProbeTrack7	5	ProbeTrack	1404	SCS215a	733709.423334	733709.426197	8	0.013327	60	10	60-180	60	176	GapExp	0	38	3	0	0	distractor	1	480	13.328	13.292	13.364
ProbeTrack7	5	ProbeTrack	1404	SCS215a	733709.423334	733709.426272	8	0.013327	60	10	60-180	60	141	GapExp	0	39	3	6	0	distractor	1	480	13.328	13.293	13.363
ProbeTrack7	5	ProbeTrack	1404	SCS215a	733709.423334	733709.426339	8	0.013327	60	10	60-180	60	108	GapExp	0	40	3	96	1	target	1	720	13.328	13.293	13.363
ProbeTrack7	5	ProbeTrack	1404	SCS215a	733709.423334	733709.426416	8	0.013327	60	10	60-180	60	80	GapExp	0	41	3	0	0	distractor	1	587	13.328	13.293	13.363
ProbeTrack7	5	ProbeTrack	1404	SCS215a	733709.423334	733709.426475	8	0.013327	60	10	60-180	60	110	GapExp	0	42	3	96	0	distractor	1	680	13.328	13.293	13.363
ProbeTrack7	5	ProbeTrack	1404	SCS215a	733709.423334	733709.426554	8	0.013327	60	10	60-180	60	70	GapExp	0	43	3	96	0	distractor	1	453	13.328	13.289	13.363
ProbeTrack7	5	ProbeTrack	1404	SCS215a	733709.423334	733709.426628	8	0.013327	60	10	60-180	60	169	GapExp	0	44	3	0	1	target	1	560	13.328	13.293	13.363
ProbeTrack7	5	ProbeTrack	1404	SCS215a	733709.423334	733709.426700	8	0.013327	60	10	60-180	60	151	GapExp	0	45	3	0	1	target	1	560	13.328	13.293	13.363
ProbeTrack7	5	ProbeTrack	1404	SCS215a	733709.423334	733709.426767	8	0.013327	60	10	60-180	60	68	GapExp	0	46	3	3	1	target	1	547	13.328	13.293	13.363
ProbeTrack7	5	ProbeTrack	1404	SCS215a	733709.423334	733709.426822	8	0.013327	60	10	60-180	60	110	GapExp	0	47	3	0	0	distractor	1	600	13.328	13.293	13.363
ProbeTrack7	5	ProbeTrack	1404	SCS215a	733709.423334	733709.426883	8	0.013327	60	10	60-180	60	96	GapExp	0	48	3	3	0	distractor	1	507	13.327	13.293	13.363
ProbeTrack7	5	ProbeTrack	1404	SCS215a	733709.423334	733709.426943	8	0.013327	60	10	60-180	60	66	GapExp	0	49	3	96	0	distractor	1	733	13.328	13.293	13.363
ProbeTrack7	5	ProbeTrack	1404	SCS215a	733709.423334	733709.427015	8	0.013327	60	10	60-180	60	130	GapExp	0	50	3	6	1	distractor	0	533	13.328	13.293	13.363
ProbeTrack7	5	ProbeTrack	1404	SCS215a	733709.423334	733709.427079	8	0.013327	60	10	60-180	60	168	GapExp	0	51	3	0	1	target	1	587	13.328	13.293	13.363
ProbeTrack7	5	ProbeTrack	1404	SCS215a	733709.423334	733709.427150	8	0.013327	60	10	60-180	60	163	GapExp	0	52	3	96	0	distractor	1	613	13.328	13.292	13.363
ProbeTrack7	5	ProbeTrack	1404	SCS215a	733709.423334	733709.427235	8	0.013327	60	10	60-180	60	180	GapExp	0	53	3	96	1	target	1	680	13.328	13.293	13.363
ProbeTrack7	5	ProbeTrack	1404	SCS215a	733709.423334	733709.427322	8	0.013327	60	10	60-180	60	67	GapExp	0	54	3	0	0	target	0	600	13.327	13.293	13.363
ProbeTrack7	5	ProbeTrack	1404	SCS215a	733709.423334	733709.427376	8	0.013327	60	10	60-180	60	78	GapExp	0	55	3	3	1	target	1	707	13.327	13.293	13.363
ProbeTrack7	5	ProbeTrack	1404	SCS215a	733709.423334	733709.427433	8	0.013327	60	10	60-180	60	81	GapExp	0	56	3	6	1	target	1	573	13.328	13.292	13.363
ProbeTrack7	5	ProbeTrack	1404	SCS215a	733709.423334	733709.427492	8	0.013327	60	10	60-180	60	97	GapExp	0	57	3	3	1	target	1	520	13.328	13.293	13.363
ProbeTrack7	5	ProbeTrack	1404	SCS215a	733709.423334	733709.427550	8	0.013327	60	10	60-180	60	140	GapExp	0	58	3	3	1	target	1	520	13.328	13.293	13.363
ProbeTrack7	5	ProbeTrack	1404	SCS215a	733709.423334	733709.427621	8	0.013327	60	10	60-180	60	167	GapExp	0	59	3	3	1	target	1	387	13.328	13.293	13.363
ProbeTrack7	5	ProbeTrack	1404	SCS215a	733709.423334	733709.427690	8	0.013327	60	10	60-180	60	97	GapExp	0	60	3	3	1	target	1	413	13.328	13.293	13.363
ProbeTrack7	5	ProbeTrack	1404	SCS215a	733709.423334	733709.427746	8	0.013327	60	10	60-180	60	149	GapExp	0	61	3	6	0	distractor	1	493	13.328	13.293	13.363
ProbeTrack7	5	ProbeTrack	1404	SCS215a	733709.423334	733709.427811	8	0.013327	60	10	60-180	60	68	GapExp	0	62	3	96	0	distractor	1	507	13.328	13.293	13.363
ProbeTrack7	5	ProbeTrack	1404	SCS215a	733709.423334	733709.427878	8	0.013327	60	10	60-180	60	164	GapExp	0	63	3	6	0	distractor	1	453	13.328	13.293	13.363
ProbeTrack7	5	ProbeTrack	1404	SCS215a	733709.423334	733709.427946	8	0.013327	60	10	60-180	60	170	GapExp	0	64	3	6	1	target	1	653	13.328	13.293	13.363
ProbeTrack7	5	ProbeTrack	1404	SCS215a	733709.423334	733709.428016	8	0.013327	60	10	60-180	60	78	GapExp	0	65	3	96	1	target	1	627	13.328	13.293	13.363
ProbeTrack7	5	ProbeTrack	1404	SCS215a	733709.423334	733709.428087	8	0.013327	60	10	60-180	60	144	GapExp	0	66	3	3	0	distractor	1	587	13.328	13.289	13.366
ProbeTrack7	5	ProbeTrack	1404	SCS215a	733709.423334	733709.428155	8	0.013327	60	10	60-180	60	173	GapExp	0	67	3	96	0	distractor	1	640	13.328	13.291	13.363
ProbeTrack7	5	ProbeTrack	1404	SCS215a	733709.423334	733709.428243	8	0.013327	60	10	60-180	60	68	GapExp	0	68	3	96	0	distractor	1	507	13.328	13.292	13.363
ProbeTrack7	5	ProbeTrack	1404	SCS215a	733709.423334	733709.428314	8	0.013327	60	10	60-180	60	151	GapExp	0	69	3	3	0	distractor	1	693	13.328	13.289	13.363
ProbeTrack7	5	ProbeTrack	1404	SCS215a	733709.423334	733709.428382	8	0.013327	60	10	60-180	60	81	GapExp	0	70	3	6	1	target	1	653	13.328	13.293	13.363
ProbeTrack7	5	ProbeTrack	1404	SCS215a	733709.423334	733709.428439	8	0.013327	60	10	60-180	60	149	GapExp	0	71	3	96	1	target	1	640	13.328	13.292	13.378
ProbeTrack7	5	ProbeTrack	1404	SCS215a	733709.423334	733709.428520	8	0.013327	60	10	60-180	60	179	GapExp	0	72	3	6	1	target	1	400	13.328	13.293	13.363
ProbeTrack7	5	ProbeTrack	1404	SCS215a	733709.423334	733709.428589	8	0.013327	60	10	60-180	60	63	GapExp	0	73	3	0	0	distractor	1	507	13.327	13.288	13.368
ProbeTrack7	5	ProbeTrack	1404	SCS215a	733709.423334	733709.428655	8	0.013327	60	10	60-180	60	101	GapExp	0	74	3	0	0	distractor	1	600	13.328	13.293	13.363
ProbeTrack7	5	ProbeTrack	1404	SCS215a	733709.423334	733709.428712	8	0.013327	60	10	60-180	60	87	GapExp	0	75	3	6	0	distractor	1	547	13.327	13.292	13.363
ProbeTrack7	5	ProbeTrack	1404	SCS215a	733709.423334	733709.428770	8	0.013327	60	10	60-180	60	91	GapExp	0	76	3	3	0	distractor	1	547	13.328	13.291	13.363
ProbeTrack7	5	ProbeTrack	1404	SCS215a	733709.423334	733709.428829	8	0.013327	60	10	60-180	60	63	GapExp	0	77	3	3	0	distractor	1	627	13.328	13.293	13.363
ProbeTrack7	5	ProbeTrack	1404	SCS215a	733709.423334	733709.428883	8	0.013327	60	10	60-180	60	126	GapExp	0	78	3	0	1	target	1	693	13.328	13.293	13.363
ProbeTrack7	5	ProbeTrack	1404	SCS215a	733709.423334	733709.428949	8	0.013327	60	10	60-180	60	168	GapExp	0	79	3	6	0	target	0	773	13.328	13.293	13.363
ProbeTrack7	5	ProbeTrack	1404	SCS215a	733709.423334	733709.429025	8	0.013327	60	10	60-180	60	108	GapExp	0	80	3	96	1	target	1	640	13.328	13.293	13.363
ProbeTrack7	5	ProbeTrack	1404	SCS215a	733709.423334	733709.429101	8	0.013327	60	10	60-180	60	97	GapExp	0	81	3	6	1	target	1	547	13.328	13.293	13.363
ProbeTrack7	5	ProbeTrack	1404	SCS215a	733709.423334	733709.429161	8	0.013327	60	10	60-180	60	100	GapExp	0	82	3	0	0	target	0	467	13.328	13.292	13.363
ProbeTrack7	5	ProbeTrack	1404	SCS215a	733709.423334	733709.429218	8	0.013327	60	10	60-180	60	84	GapExp	0	83	3	96	1	distractor	0	653	13.328	13.293	13.364
ProbeTrack7	5	ProbeTrack	1404	SCS215a	733709.423334	733709.429292	8	0.013327	60	10	60-180	60	170	GapExp	0	84	3	96	1	distractor	0	653	13.328	13.292	13.363
ProbeTrack7	5	ProbeTrack	1404	SCS215a	733709.423334	733709.429380	8	0.013327	60	10	60-180	60	79	GapExp	0	85	3	3	0	distractor	1	773	13.328	13.293	13.363
ProbeTrack7	5	ProbeTrack	1404	SCS215a	733709.423334	733709.429525	8	0.013327	60	10	60-180	60	92	GapExp	0	86	3	3	0	target	0	747	13.328	13.293	13.362
ProbeTrack7	5	ProbeTrack	1404	SCS215a	733709.423334	733709.429586	8	0.013327	60	10	60-180	60	147	GapExp	0	87	3	6	1	target	1	640	13.328	13.293	13.363
ProbeTrack7	5	ProbeTrack	1404	SCS215a	733709.423334	733709.429652	8	0.013327	60	10	60-180	60	76	GapExp	0	88	3	96	0	target	0	867	13.328	13.293	13.363
ProbeTrack7	5	ProbeTrack	1404	SCS215a	733709.423334	733709.429726	8	0.013327	60	10	60-180	60	144	GapExp	0	89	3	6	0	distractor	1	627	13.328	13.292	13.363
ProbeTrack7	5	ProbeTrack	1404	SCS215a	733709.423334	733709.429794	8	0.013327	60	10	60-180	60	141	GapExp	0	90	3	96	0	distractor	1	627	13.328	13.289	13.363
ProbeTrack7	5	ProbeTrack	1404	SCS215a	733709.423334	733709.429874	8	0.013327	60	10	60-180	60	139	GapExp	0	91	3	6	0	distractor	1	893	13.328	13.292	13.363
ProbeTrack7	5	ProbeTrack	1404	SCS215a	733709.423334	733709.429954	8	0.013327	60	10	60-180	60	131	GapExp	0	92	3	96	1	target	1	547	13.328	13.292	13.363
ProbeTrack7	5	ProbeTrack	1404	SCS215a	733709.423334	733709.430030	8	0.013327	60	10	60-180	60	71	GapExp	0	93	3	0	1	target	1	467	13.328	13.293	13.363
ProbeTrack7	5	ProbeTrack	1404	SCS215a	733709.423334	733709.430083	8	0.013327	60	10	60-180	60	83	GapExp	0	94	3	96	0	target	0	1053	13.328	13.293	13.363
ProbeTrack7	5	ProbeTrack	1404	SCS215a	733709.423334	733709.430158	8	0.013327	60	10	60-180	60	132	GapExp	0	95	3	0	1	target	1	547	13.328	13.293	13.363
ProbeTrack7	5	ProbeTrack	1404	SCS215a	733709.423334	733709.430221	8	0.013327	60	10	60-180	60	65	GapExp	0	96	3	0	0	distractor	1	653	13.328	13.293	13.362
ProbeTrack7	5	ProbeTrack	1404	SCS215a	733709.423334	733709.430276	8	0.013327	60	10	60-180	60	173	GapExp	0	97	3	96	0	target	0	986	13.328	13.290	13.363
ProbeTrack7	5	ProbeTrack	1404	SCS215a	733709.423334	733709.430366	8	0.013327	60	10	60-180	60	125	GapExp	0	98	3	3	1	target	1	587	13.328	13.293	13.363
ProbeTrack7	5	ProbeTrack	1404	SCS215a	733709.423334	733709.430424	8	0.013327	60	10	60-180	60	148	GapExp	0	99	3	0	1	target	1	387	13.328	13.293	13.363
ProbeTrack7	5	ProbeTrack	1404	SCS215a	733709.423334	733709.430486	8	0.013327	60	10	60-180	60	146	GapExp	0	100	3	96	1	target	1	534	13.328	13.293	13.363
ProbeTrack7	5	ProbeTrack	1404	SCS215a	733709.423334	733709.430567	8	0.013327	60	10	60-180	60	66	GapExp	0	101	3	0	1	target	1	520	13.327	13.293	13.389
ProbeTrack7	5	ProbeTrack	1404	SCS215a	733709.423334	733709.430620	8	0.013327	60	10	60-180	60	109	GapExp	0	102	3	96	0	distractor	1	640	13.328	13.293	13.364
ProbeTrack7	5	ProbeTrack	1404	SCS215a	733709.423334	733709.430695	8	0.013327	60	10	60-180	60	143	GapExp	0	103	3	3	1	target	1	800	13.328	13.293	13.363
ProbeTrack7	5	ProbeTrack	1404	SCS215a	733709.423334	733709.430764	8	0.013327	60	10	60-180	60	170	GapExp	0	104	3	96	1	target	1	560	13.328	13.293	13.363
ProbeTrack7	5	ProbeTrack	1404	SCS215a	733709.423334	733709.430849	8	0.013327	60	10	60-180	60	142	GapExp	0	105	3	96	0	distractor	1	800	13.328	13.293	13.365
ProbeTrack7	5	ProbeTrack	1404	SCS215a	733709.423334	733709.430932	8	0.013327	60	10	60-180	60	171	GapExp	0	106	3	6	1	target	1	654	13.328	13.293	13.363
ProbeTrack7	5	ProbeTrack	1404	SCS215a	733709.423334	733709.431038	8	0.013327	60	10	60-180	60	120	GapExp	0	107	3	0	1	target	1	453	13.328	13.293	13.363
ProbeTrack7	5	ProbeTrack	1404	SCS215a	733709.423334	733709.431099	8	0.013327	60	10	60-180	60	98	GapExp	0	108	3	96	1	target	1	480	13.328	13.293	13.363
ProbeTrack7	5	ProbeTrack	1404	SCS215a	733709.423334	733709.431175	8	0.013327	60	10	60-180	60	141	GapExp	0	109	3	6	1	target	1	413	13.328	13.293	13.363
ProbeTrack7	5	ProbeTrack	1404	SCS215a	733709.423334	733709.431251	8	0.013327	60	10	60-180	60	121	GapExp	0	110	3	3	0	distractor	1	680	13.328	13.292	13.363
ProbeTrack7	5	ProbeTrack	1404	SCS215a	733709.423334	733709.431319	8	0.013327	60	10	60-180	60	87	GapExp	0	111	3	0	0	distractor	1	587	13.328	13.293	13.363
ProbeTrack7	5	ProbeTrack	1404	SCS215a	733709.423334	733709.431376	8	0.013327	60	10	60-180	60	144	GapExp	0	112	3	0	0	distractor	1	493	13.328	13.293	13.363
ProbeTrack7	5	ProbeTrack	1404	SCS215a	733709.423334	733709.431440	8	0.013327	60	10	60-180	60	161	GapExp	0	113	3	0	1	target	1	560	13.328	13.293	13.363
ProbeTrack7	5	ProbeTrack	1404	SCS215a	733709.423334	733709.431508	8	0.013327	60	10	60-180	60	106	GapExp	0	114	3	96	0	distractor	1	547	13.328	13.293	13.363
ProbeTrack7	5	ProbeTrack	1404	SCS215a	733709.423334	733709.431583	8	0.013327	60	10	60-180	60	140	GapExp	0	115	3	6	1	target	1	573	13.328	13.292	13.363
ProbeTrack7	5	ProbeTrack	1404	SCS215a	733709.423334	733709.431649	8	0.013327	60	10	60-180	60	136	GapExp	0	116	3	6	1	target	1	493	13.328	13.292	13.363
ProbeTrack7	5	ProbeTrack	1404	SCS215a	733709.423334	733709.431713	8	0.013327	60	10	60-180	60	146	GapExp	0	117	3	3	0	distractor	1	480	13.328	13.293	13.363
ProbeTrack7	5	ProbeTrack	1404	SCS215a	733709.423334	733709.431778	8	0.013327	60	10	60-180	60	136	GapExp	0	118	3	96	1	target	1	360	13.328	13.293	13.363
ProbeTrack7	5	ProbeTrack	1404	SCS215a	733709.423334	733709.431856	8	0.013327	60	10	60-180	60	141	GapExp	0	119	3	96	0	distractor	1	560	13.328	13.293	13.363
ProbeTrack7	5	ProbeTrack	1404	SCS215a	733709.423334	733709.431936	8	0.013327	60	10	60-180	60	124	GapExp	0	120	3	3	1	target	1	880	13.328	13.292	13.363
ProbeTrack7	5	ProbeTrack	1404	SCS215a	733709.423334	733709.432012	8	0.013327	60	10	60-180	60	74	GapExp	0	121	3	6	0	distractor	1	467	13.328	13.293	13.363
ProbeTrack7	5	ProbeTrack	1404	SCS215a	733709.423334	733709.432067	8	0.013327	60	10	60-180	60	62	GapExp	0	122	3	6	1	target	1	440	13.328	13.293	13.362
ProbeTrack7	5	ProbeTrack	1404	SCS215a	733709.423334	733709.432118	8	0.013327	60	10	60-180	60	78	GapExp	0	123	3	3	0	distractor	1	387	13.327	13.293	13.363
ProbeTrack7	5	ProbeTrack	1404	SCS215a	733709.423334	733709.432172	8	0.013327	60	10	60-180	60	157	GapExp	0	124	3	6	0	distractor	1	440	13.328	13.293	13.363
ProbeTrack7	5	ProbeTrack	1404	SCS215a	733709.423334	733709.432239	8	0.013327	60	10	60-180	60	147	GapExp	0	125	3	6	0	target	0	440	13.328	13.293	13.364
ProbeTrack7	5	ProbeTrack	1404	SCS215a	733709.432908	733709.432952	8	0.013328	60	10	60-180	60	104	GapPrac	1	1	4	6	0	distractor	1	653	13.328	13.293	13.363
ProbeTrack7	5	ProbeTrack	1404	SCS215a	733709.432908	733709.433297	8	0.013328	60	10	60-180	60	171	GapPrac	1	2	4	0	0	distractor	1	413	13.328	13.293	13.363
ProbeTrack7	5	ProbeTrack	1404	SCS215a	733709.432908	733709.433369	8	0.013328	60	10	60-180	60	161	GapPrac	1	3	4	3	0	distractor	1	520	13.328	13.293	13.363
ProbeTrack7	5	ProbeTrack	1404	SCS215a	733709.432908	733709.433439	8	0.013328	60	10	60-180	60	138	GapPrac	1	4	4	3	1	target	1	480	13.328	13.293	13.362
ProbeTrack7	5	ProbeTrack	1404	SCS215a	733709.432908	733709.433506	8	0.013328	60	10	60-180	60	151	GapPrac	1	5	4	3	0	distractor	1	534	13.328	13.288	13.367
ProbeTrack7	5	ProbeTrack	1404	SCS215a	733709.432908	733709.433574	8	0.013328	60	10	60-180	60	165	GapPrac	1	6	4	0	1	target	1	467	13.328	13.293	13.363
ProbeTrack7	5	ProbeTrack	1404	SCS215a	733709.432908	733709.433642	8	0.013328	60	10	60-180	60	135	GapPrac	1	7	4	3	0	target	0	387	13.328	13.293	13.363
ProbeTrack7	5	ProbeTrack	1404	SCS215a	733709.432908	733709.433707	8	0.013328	60	10	60-180	60	151	GapPrac	1	8	4	96	1	target	1	440	13.328	13.293	13.363
ProbeTrack7	5	ProbeTrack	1404	SCS215a	733709.432908	733709.433791	8	0.013328	60	10	60-180	60	144	GapPrac	1	9	4	0	0	target	0	427	13.328	13.293	13.363
ProbeTrack7	5	ProbeTrack	1404	SCS215a	733709.432908	733709.433854	8	0.013328	60	10	60-180	60	142	GapPrac	1	10	4	0	0	target	0	547	13.328	13.293	13.363
ProbeTrack7	5	ProbeTrack	1404	SCS215a	733709.432908	733709.433917	8	0.013328	60	10	60-180	60	131	GapPrac	1	11	4	6	1	target	1	573	13.328	13.293	13.362
ProbeTrack7	5	ProbeTrack	1404	SCS215a	733709.432908	733709.433980	8	0.013328	60	10	60-180	60	94	GapPrac	1	12	4	96	1	target	1	480	13.328	13.290	13.362
ProbeTrack7	5	ProbeTrack	1404	SCS215a	733709.432908	733709.434052	8	0.013328	60	10	60-180	60	61	GapPrac	1	13	4	0	1	target	1	427	13.328	13.293	13.363
ProbeTrack7	5	ProbeTrack	1404	SCS215a	733709.432908	733709.434102	8	0.013328	60	10	60-180	60	101	GapPrac	1	14	4	96	0	distractor	1	467	13.328	13.293	13.363
ProbeTrack7	5	ProbeTrack	1404	SCS215a	733709.432908	733709.434170	8	0.013328	60	10	60-180	60	74	GapPrac	1	15	4	3	1	target	1	387	13.328	13.293	13.362
ProbeTrack7	5	ProbeTrack	1404	SCS215a	733709.432908	733709.434221	8	0.013328	60	10	60-180	60	179	GapPrac	1	16	4	96	0	target	0	467	13.328	13.293	13.363
ProbeTrack7	5	ProbeTrack	1404	SCS215a	733709.432908	733709.434307	8	0.013328	60	10	60-180	60	130	GapPrac	1	17	4	3	1	target	1	387	13.328	13.293	13.363
ProbeTrack7	5	ProbeTrack	1404	SCS215a	733709.432908	733709.434368	8	0.013328	60	10	60-180	60	105	GapPrac	1	18	4	6	0	distractor	1	480	13.328	13.293	13.363
ProbeTrack7	5	ProbeTrack	1404	SCS215a	733709.432908	733709.434426	8	0.013328	60	10	60-180	60	149	GapPrac	1	19	4	6	1	target	1	533	13.328	13.293	13.363
ProbeTrack7	5	ProbeTrack	1404	SCS215a	733709.432908	733709.434493	8	0.013328	60	10	60-180	60	114	GapPrac	1	20	4	6	0	target	0	507	13.328	13.293	13.363
ProbeTrack7	5	ProbeTrack	1404	SCS215a	733709.434930	733709.434967	8	0.013328	60	10	60-180	60	61	GapPrac	1	1	4	3	0	distractor	1	600	13.328	13.293	13.363
ProbeTrack7	5	ProbeTrack	1404	SCS215a	733709.434930	733709.435087	8	0.013328	60	10	60-180	60	94	GapPrac	1	2	4	3	1	target	1	520	13.327	13.293	13.362
ProbeTrack7	5	ProbeTrack	1404	SCS215a	733709.434930	733709.435144	8	0.013328	60	10	60-180	60	153	GapPrac	1	3	4	0	1	target	1	347	13.328	13.290	13.366
ProbeTrack7	5	ProbeTrack	1404	SCS215a	733709.434930	733709.435209	8	0.013328	60	10	60-180	60	168	GapPrac	1	4	4	0	0	distractor	1	560	13.328	13.293	13.363
ProbeTrack7	5	ProbeTrack	1404	SCS215a	733709.434930	733709.435277	8	0.013328	60	10	60-180	60	117	GapPrac	1	5	4	6	0	distractor	1	573	13.328	13.293	13.363
ProbeTrack7	5	ProbeTrack	1404	SCS215a	733709.434930	733709.435340	8	0.013328	60	10	60-180	60	105	GapPrac	1	6	4	0	0	target	0	667	13.328	13.293	13.363
ProbeTrack7	5	ProbeTrack	1404	SCS215a	733709.434930	733709.435402	8	0.013328	60	10	60-180	60	125	GapPrac	1	7	4	96	1	target	1	373	13.328	13.289	13.363
ProbeTrack7	5	ProbeTrack	1404	SCS215a	733709.434930	733709.435476	8	0.013328	60	10	60-180	60	100	GapPrac	1	8	4	3	0	distractor	1	440	13.328	13.293	13.363
ProbeTrack7	5	ProbeTrack	1404	SCS215a	733709.434930	733709.435532	8	0.013328	60	10	60-180	60	74	GapPrac	1	9	4	96	0	distractor	1	613	13.328	13.293	13.363
ProbeTrack7	5	ProbeTrack	1404	SCS215a	733709.434930	733709.435603	8	0.013328	60	10	60-180	60	112	GapPrac	1	10	4	96	0	distractor	1	453	13.328	13.293	13.363
ProbeTrack7	5	ProbeTrack	1404	SCS215a	733709.434930	733709.435678	8	0.013328	60	10	60-180	60	82	GapPrac	1	11	4	3	1	distractor	0	573	13.328	13.293	13.363
ProbeTrack7	5	ProbeTrack	1404	SCS215a	733709.434930	733709.435734	8	0.013328	60	10	60-180	60	150	GapPrac	1	12	4	0	1	target	1	667	13.328	13.293	13.363
ProbeTrack7	5	ProbeTrack	1404	SCS215a	733709.434930	733709.435800	8	0.013328	60	10	60-180	60	70	GapPrac	1	13	4	3	1	target	1	600	13.328	13.293	13.362
ProbeTrack7	5	ProbeTrack	1404	SCS215a	733709.434930	733709.435855	8	0.013328	60	10	60-180	60	75	GapPrac	1	14	4	96	1	target	1	374	13.328	13.293	13.363
ProbeTrack7	5	ProbeTrack	1404	SCS215a	733709.434930	733709.435921	8	0.013328	60	10	60-180	60	61	GapPrac	1	15	4	0	1	target	1	493	13.328	13.293	13.363
ProbeTrack7	5	ProbeTrack	1404	SCS215a	733709.434930	733709.435971	8	0.013328	60	10	60-180	60	173	GapPrac	1	16	4	0	0	target	0	454	13.328	13.292	13.363
ProbeTrack7	5	ProbeTrack	1404	SCS215a	733709.434930	733709.436039	8	0.013328	60	10	60-180	60	177	GapPrac	1	17	4	6	1	target	1	507	13.328	13.293	13.363
ProbeTrack7	5	ProbeTrack	1404	SCS215a	733709.434930	733709.436113	8	0.013328	60	10	60-180	60	62	GapPrac	1	18	4	6	1	target	1	387	13.328	13.293	13.362
ProbeTrack7	5	ProbeTrack	1404	SCS215a	733709.434930	733709.436162	8	0.013328	60	10	60-180	60	174	GapPrac	1	19	4	3	0	distractor	1	480	13.328	13.293	13.363
ProbeTrack7	5	ProbeTrack	1404	SCS215a	733709.434930	733709.436231	8	0.013328	60	10	60-180	60	62	GapPrac	1	20	4	6	0	distractor	1	680	13.328	13.293	13.363
ProbeTrack7	5	ProbeTrack	1404	SCS215a	733709.436805	733709.437389	8	0.013327	60	10	60-180	60	138	GapExp	1	1	4	3	0	distractor	1	733	13.328	13.293	13.363
ProbeTrack7	5	ProbeTrack	1404	SCS215a	733709.436805	733709.437496	8	0.013327	60	10	60-180	60	103	GapExp	1	2	4	3	1	target	1	480	13.327	13.293	13.366
ProbeTrack7	5	ProbeTrack	1404	SCS215a	733709.436805	733709.437556	8	0.013327	60	10	60-180	60	108	GapExp	1	3	4	96	1	target	1	533	13.328	13.293	13.363
ProbeTrack7	5	ProbeTrack	1404	SCS215a	733709.436805	733709.437632	8	0.013327	60	10	60-180	60	142	GapExp	1	4	4	0	0	target	0	493	13.328	13.293	13.363
ProbeTrack7	5	ProbeTrack	1404	SCS215a	733709.436805	733709.437697	8	0.013327	60	10	60-180	60	112	GapExp	1	5	4	96	0	distractor	1	507	13.328	13.293	13.363
ProbeTrack7	5	ProbeTrack	1404	SCS215a	733709.436805	733709.437782	8	0.013327	60	10	60-180	60	113	GapExp	0	6	4	3	1	target	1	640	13.328	13.293	13.363
ProbeTrack7	5	ProbeTrack	1404	SCS215a	733709.436805	733709.437843	8	0.013327	60	10	60-180	60	63	GapExp	0	7	4	96	1	target	1	507	13.328	13.292	13.363
ProbeTrack7	5	ProbeTrack	1404	SCS215a	733709.436805	733709.437910	8	0.013327	60	10	60-180	60	179	GapExp	0	8	4	3	1	target	1	587	13.328	13.293	13.363
ProbeTrack7	5	ProbeTrack	1404	SCS215a	733709.436805	733709.437986	8	0.013327	60	10	60-180	60	69	GapExp	0	9	4	96	1	target	1	414	13.328	13.293	13.363
ProbeTrack7	5	ProbeTrack	1404	SCS215a	733709.436805	733709.438055	8	0.013327	60	10	60-180	60	164	GapExp	0	10	4	96	0	distractor	1	440	13.328	13.293	13.363
ProbeTrack7	5	ProbeTrack	1404	SCS215a	733709.436805	733709.438137	8	0.013327	60	10	60-180	60	86	GapExp	0	11	4	0	1	target	1	493	13.328	13.293	13.363
ProbeTrack7	5	ProbeTrack	1404	SCS215a	733709.436805	733709.438201	8	0.013327	60	10	60-180	60	164	GapExp	0	12	4	3	0	target	0	427	13.328	13.293	13.363
ProbeTrack7	5	ProbeTrack	1404	SCS215a	733709.436805	733709.438274	8	0.013327	60	10	60-180	60	150	GapExp	0	13	4	6	0	distractor	1	547	13.328	13.293	13.363
ProbeTrack7	5	ProbeTrack	1404	SCS215a	733709.436805	733709.438341	8	0.013327	60	10	60-180	60	98	GapExp	0	14	4	0	0	distractor	1	493	13.328	13.293	13.362
ProbeTrack7	5	ProbeTrack	1404	SCS215a	733709.436805	733709.438400	8	0.013327	60	10	60-180	60	72	GapExp	0	15	4	96	1	distractor	0	493	13.328	13.293	13.363
ProbeTrack7	5	ProbeTrack	1404	SCS215a	733709.436805	733709.438468	8	0.013327	60	10	60-180	60	86	GapExp	0	16	4	0	1	target	1	480	13.328	13.293	13.363
ProbeTrack7	5	ProbeTrack	1404	SCS215a	733709.436805	733709.438522	8	0.013327	60	10	60-180	60	88	GapExp	0	17	4	3	0	distractor	1	520	13.328	13.292	13.363
ProbeTrack7	5	ProbeTrack	1404	SCS215a	733709.436805	733709.438582	8	0.013327	60	10	60-180	60	136	GapExp	0	18	4	6	1	target	1	533	13.328	13.291	13.363
ProbeTrack7	5	ProbeTrack	1404	SCS215a	733709.436805	733709.438646	8	0.013327	60	10	60-180	60	134	GapExp	0	19	4	96	0	target	0	640	13.328	13.293	13.363
ProbeTrack7	5	ProbeTrack	1404	SCS215a	733709.436805	733709.438726	8	0.013327	60	10	60-180	60	125	GapExp	0	20	4	6	1	target	1	453	13.328	13.293	13.362
ProbeTrack7	5	ProbeTrack	1404	SCS215a	733709.436805	733709.438787	8	0.013327	60	10	60-180	60	96	GapExp	0	21	4	96	1	target	1	374	13.328	13.293	13.363
ProbeTrack7	5	ProbeTrack	1404	SCS215a	733709.436805	733709.438857	8	0.013327	60	10	60-180	60	101	GapExp	0	22	4	3	1	target	1	387	13.327	13.293	13.363
ProbeTrack7	5	ProbeTrack	1404	SCS215a	733709.436805	733709.438913	8	0.013327	60	10	60-180	60	134	GapExp	0	23	4	96	1	target	1	373	13.328	13.293	13.363
ProbeTrack7	5	ProbeTrack	1404	SCS215a	733709.436805	733709.438990	8	0.013327	60	10	60-180	60	120	GapExp	0	24	4	96	0	distractor	1	520	13.328	13.293	13.363
ProbeTrack7	5	ProbeTrack	1404	SCS215a	733709.436805	733709.439074	8	0.013327	60	10	60-180	60	93	GapExp	0	25	4	6	1	target	1	467	13.328	13.290	13.363
ProbeTrack7	5	ProbeTrack	1404	SCS215a	733709.436805	733709.439134	8	0.013327	60	10	60-180	60	110	GapExp	0	26	4	6	0	distractor	1	440	13.328	13.293	13.363
ProbeTrack7	5	ProbeTrack	1404	SCS215a	733709.436805	733709.439199	8	0.013327	60	10	60-180	60	96	GapExp	0	27	4	3	0	distractor	1	587	13.328	13.290	13.363
ProbeTrack7	5	ProbeTrack	1404	SCS215a	733709.436805	733709.439263	8	0.013327	60	10	60-180	60	78	GapExp	0	28	4	6	1	target	1	373	13.327	13.293	13.363
ProbeTrack7	5	ProbeTrack	1404	SCS215a	733709.436805	733709.439317	8	0.013327	60	10	60-180	60	172	GapExp	0	29	4	96	1	target	1	453	13.328	13.293	13.365
ProbeTrack7	5	ProbeTrack	1404	SCS215a	733709.436805	733709.439401	8	0.013327	60	10	60-180	60	80	GapExp	0	30	4	0	1	target	1	427	13.327	13.293	13.363
ProbeTrack7	5	ProbeTrack	1404	SCS215a	733709.436805	733709.439457	8	0.013327	60	10	60-180	60	116	GapExp	0	31	4	0	0	target	0	440	13.328	13.293	13.363
ProbeTrack7	5	ProbeTrack	1404	SCS215a	733709.436805	733709.439527	8	0.013327	60	10	60-180	60	173	GapExp	0	32	4	0	1	target	1	387	13.328	13.290	13.366
ProbeTrack7	5	ProbeTrack	1404	SCS215a	733709.436805	733709.439632	8	0.013327	60	10	60-180	60	172	GapExp	0	33	4	6	0	distractor	1	427	13.328	13.293	13.363
ProbeTrack7	5	ProbeTrack	1404	SCS215a	733709.436805	733709.439703	8	0.013327	60	10	60-180	60	96	GapExp	0	34	4	3	0	target	0	707	13.327	13.292	13.363
ProbeTrack7	5	ProbeTrack	1404	SCS215a	733709.436805	733709.439849	8	0.013327	60	10	60-180	60	115	GapExp	0	35	4	3	0	target	0	413	13.328	13.293	13.362
ProbeTrack7	5	ProbeTrack	1404	SCS215a	733709.436805	733709.439908	8	0.013327	60	10	60-180	60	118	GapExp	0	36	4	0	1	target	1	427	13.327	13.293	13.363
ProbeTrack7	5	ProbeTrack	1404	SCS215a	733709.436805	733709.439964	8	0.013327	60	10	60-180	60	118	GapExp	0	37	4	96	1	distractor	0	480	13.328	13.293	13.363
ProbeTrack7	5	ProbeTrack	1404	SCS215a	733709.436805	733709.440039	8	0.013327	60	10	60-180	60	79	GapExp	0	38	4	3	0	distractor	1	533	13.328	13.293	13.362
ProbeTrack7	5	ProbeTrack	1404	SCS215a	733709.436805	733709.440095	8	0.013327	60	10	60-180	60	116	GapExp	0	39	4	96	0	distractor	1	680	13.328	13.293	13.363
ProbeTrack7	5	ProbeTrack	1404	SCS215a	733709.436805	733709.440173	8	0.013327	60	10	60-180	60	104	GapExp	0	40	4	0	1	target	1	414	13.328	13.293	13.363
ProbeTrack7	5	ProbeTrack	1404	SCS215a	733709.436805	733709.440233	8	0.013327	60	10	60-180	60	117	GapExp	0	41	4	3	1	distractor	0	560	13.328	13.293	13.363
ProbeTrack7	5	ProbeTrack	1404	SCS215a	733709.436805	733709.440294	8	0.013327	60	10	60-180	60	129	GapExp	0	42	4	6	1	target	1	387	13.328	13.293	13.363
ProbeTrack7	5	ProbeTrack	1404	SCS215a	733709.436805	733709.440355	8	0.013327	60	10	60-180	60	83	GapExp	0	43	4	3	1	target	1	387	13.327	13.293	13.363
ProbeTrack7	5	ProbeTrack	1404	SCS215a	733709.436805	733709.440408	8	0.013327	60	10	60-180	60	65	GapExp	0	44	4	6	0	distractor	1	707	13.328	13.293	13.363
ProbeTrack7	5	ProbeTrack	1404	SCS215a	733709.436805	733709.440462	8	0.013327	60	10	60-180	60	159	GapExp	0	45	4	96	1	target	1	360	13.328	13.293	13.363
ProbeTrack7	5	ProbeTrack	1404	SCS215a	733709.436805	733709.440542	8	0.013327	60	10	60-180	60	172	GapExp	0	46	4	96	0	distractor	1	773	13.328	13.289	13.392
ProbeTrack7	5	ProbeTrack	1404	SCS215a	733709.436805	733709.440628	8	0.013327	60	10	60-180	60	82	GapExp	0	47	4	96	0	distractor	1	533	13.328	13.293	13.363
ProbeTrack7	5	ProbeTrack	1404	SCS215a	733709.436805	733709.440700	8	0.013327	60	10	60-180	60	172	GapExp	0	48	4	6	0	distractor	1	667	13.328	13.292	13.365
ProbeTrack7	5	ProbeTrack	1404	SCS215a	733709.436805	733709.440774	8	0.013327	60	10	60-180	60	136	GapExp	0	49	4	3	1	target	1	587	13.328	13.293	13.366
ProbeTrack7	5	ProbeTrack	1404	SCS215a	733709.436805	733709.440853	8	0.013327	60	10	60-180	60	132	GapExp	0	50	4	3	0	target	0	533	13.328	13.293	13.363
ProbeTrack7	5	ProbeTrack	1404	SCS215a	733709.436805	733709.440937	8	0.013327	60	10	60-180	60	165	GapExp	0	51	4	6	1	target	1	480	13.328	13.293	13.364
ProbeTrack7	5	ProbeTrack	1404	SCS215a	733709.436805	733709.441005	8	0.013327	60	10	60-180	60	180	GapExp	0	52	4	0	0	distractor	1	733	13.328	13.289	13.363
ProbeTrack7	5	ProbeTrack	1404	SCS215a	733709.436805	733709.441075	8	0.013327	60	10	60-180	60	89	GapExp	0	53	4	6	1	target	1	413	13.328	13.293	13.363
ProbeTrack7	5	ProbeTrack	1404	SCS215a	733709.436805	733709.441130	8	0.013327	60	10	60-180	60	64	GapExp	0	54	4	0	1	target	1	400	13.328	13.292	13.363
ProbeTrack7	5	ProbeTrack	1404	SCS215a	733709.436805	733709.441181	8	0.013327	60	10	60-180	60	107	GapExp	0	55	4	0	1	target	1	413	13.328	13.292	13.363
ProbeTrack7	5	ProbeTrack	1404	SCS215a	733709.436805	733709.441239	8	0.013327	60	10	60-180	60	143	GapExp	0	56	4	6	0	distractor	1	653	13.328	13.293	13.363
ProbeTrack7	5	ProbeTrack	1404	SCS215a	733709.436805	733709.441306	8	0.013327	60	10	60-180	60	154	GapExp	0	57	4	96	0	distractor	1	560	13.328	13.293	13.363
ProbeTrack7	5	ProbeTrack	1404	SCS215a	733709.436805	733709.441392	8	0.013327	60	10	60-180	60	66	GapExp	0	58	4	0	0	target	0	627	13.328	13.293	13.363
ProbeTrack7	5	ProbeTrack	1404	SCS215a	733709.436805	733709.441447	8	0.013327	60	10	60-180	60	140	GapExp	0	59	4	96	0	distractor	1	507	13.328	13.293	13.363
ProbeTrack7	5	ProbeTrack	1404	SCS215a	733709.436805	733709.441525	8	0.013327	60	10	60-180	60	89	GapExp	0	60	4	6	1	target	1	520	13.327	13.293	13.363
ProbeTrack7	5	ProbeTrack	1404	SCS215a	733709.436805	733709.441582	8	0.013327	60	10	60-180	60	116	GapExp	0	61	4	96	1	target	1	440	13.328	13.293	13.363
ProbeTrack7	5	ProbeTrack	1404	SCS215a	733709.436805	733709.441659	8	0.013327	60	10	60-180	60	137	GapExp	0	62	4	96	0	distractor	1	480	13.328	13.292	13.363
ProbeTrack7	5	ProbeTrack	1404	SCS215a	733709.436805	733709.441736	8	0.013327	60	10	60-180	60	160	GapExp	0	63	4	0	0	distractor	1	520	13.328	13.293	13.363
ProbeTrack7	5	ProbeTrack	1404	SCS215a	733709.436805	733709.441804	8	0.013327	60	10	60-180	60	134	GapExp	0	64	4	0	0	distractor	1	627	13.328	13.292	13.363
ProbeTrack7	5	ProbeTrack	1404	SCS215a	733709.436805	733709.441868	8	0.013327	60	10	60-180	60	92	GapExp	0	65	4	0	1	target	1	600	13.328	13.293	13.363
ProbeTrack7	5	ProbeTrack	1404	SCS215a	733709.436805	733709.441925	8	0.013327	60	10	60-180	60	78	GapExp	0	66	4	6	0	distractor	1	773	13.327	13.293	13.363
ProbeTrack7	5	ProbeTrack	1404	SCS215a	733709.436805	733709.441985	8	0.013327	60	10	60-180	60	166	GapExp	0	67	4	96	1	target	1	587	13.328	13.293	13.363
ProbeTrack7	5	ProbeTrack	1404	SCS215a	733709.436805	733709.442070	8	0.013327	60	10	60-180	60	142	GapExp	0	68	4	96	1	target	1	587	13.328	13.293	13.366
ProbeTrack7	5	ProbeTrack	1404	SCS215a	733709.436805	733709.442149	8	0.013327	60	10	60-180	60	69	GapExp	0	69	4	0	0	distractor	1	533	13.328	13.293	13.363
ProbeTrack7	5	ProbeTrack	1404	SCS215a	733709.436805	733709.442203	8	0.013327	60	10	60-180	60	130	GapExp	0	70	4	6	1	target	1	467	13.328	13.293	13.363
ProbeTrack7	5	ProbeTrack	1404	SCS215a	733709.436805	733709.442266	8	0.013327	60	10	60-180	60	66	GapExp	0	71	4	6	1	target	1	413	13.328	13.293	13.363
ProbeTrack7	5	ProbeTrack	1404	SCS215a	733709.436805	733709.442317	8	0.013327	60	10	60-180	60	62	GapExp	0	72	4	3	0	target	0	560	13.327	13.293	13.363
ProbeTrack7	5	ProbeTrack	1404	SCS215a	733709.436805	733709.442374	8	0.013327	60	10	60-180	60	80	GapExp	0	73	4	3	1	target	1	480	13.328	13.293	13.363
ProbeTrack7	5	ProbeTrack	1404	SCS215a	733709.436805	733709.442427	8	0.013327	60	10	60-180	60	79	GapExp	0	74	4	3	0	target	0	467	13.328	13.293	13.363
ProbeTrack7	5	ProbeTrack	1404	SCS215a	733709.436805	733709.442481	8	0.013327	60	10	60-180	60	112	GapExp	0	75	4	0	1	target	1	374	13.328	13.293	13.363
ProbeTrack7	5	ProbeTrack	1404	SCS215a	733709.436805	733709.442534	8	0.013327	60	10	60-180	60	101	GapExp	0	76	4	3	1	distractor	0	680	13.328	13.293	13.363
ProbeTrack7	5	ProbeTrack	1404	SCS215a	733709.436805	733709.442594	8	0.013327	60	10	60-180	60	124	GapExp	0	77	4	96	0	distractor	1	480	13.328	13.293	13.363
ProbeTrack7	5	ProbeTrack	1404	SCS215a	733709.436805	733709.442670	8	0.013327	60	10	60-180	60	169	GapExp	0	78	4	96	1	target	1	373	13.328	13.293	13.363
ProbeTrack7	5	ProbeTrack	1404	SCS215a	733709.436805	733709.442751	8	0.013327	60	10	60-180	60	150	GapExp	0	79	4	0	1	target	1	427	13.328	13.293	13.363
ProbeTrack7	5	ProbeTrack	1404	SCS215a	733709.436805	733709.442814	8	0.013327	60	10	60-180	60	104	GapExp	0	80	4	3	0	distractor	1	493	13.328	13.293	13.363
ProbeTrack7	5	ProbeTrack	1404	SCS215a	733709.436805	733709.442871	8	0.013327	60	10	60-180	60	178	GapExp	0	81	4	6	1	target	1	400	13.328	13.293	13.363
ProbeTrack7	5	ProbeTrack	1404	SCS215a	733709.436805	733709.442939	8	0.013327	60	10	60-180	60	75	GapExp	0	82	4	96	1	target	1	640	13.328	13.293	13.365
ProbeTrack7	5	ProbeTrack	1404	SCS215a	733709.436805	733709.443009	8	0.013327	60	10	60-180	60	134	GapExp	0	83	4	6	0	distractor	1	667	13.328	13.293	13.362
ProbeTrack7	5	ProbeTrack	1404	SCS215a	733709.436805	733709.443077	8	0.013327	60	10	60-180	60	170	GapExp	0	84	4	3	1	target	1	560	13.328	13.293	13.363
ProbeTrack7	5	ProbeTrack	1404	SCS215a	733709.436805	733709.443149	8	0.013327	60	10	60-180	60	70	GapExp	0	85	4	6	0	target	0	400	13.327	13.293	13.362
ProbeTrack7	5	ProbeTrack	1404	SCS215a	733709.436805	733709.443205	8	0.013327	60	10	60-180	60	72	GapExp	0	86	4	3	1	target	1	467	13.328	13.293	13.363
ProbeTrack7	5	ProbeTrack	1404	SCS215a	733709.436805	733709.443346	8	0.013327	60	10	60-180	60	158	GapExp	0	87	4	0	0	target	0	587	13.328	13.293	13.363
ProbeTrack7	5	ProbeTrack	1404	SCS215a	733709.436805	733709.443414	8	0.013327	60	10	60-180	60	79	GapExp	0	88	4	3	1	target	1	440	13.328	13.291	13.363
ProbeTrack7	5	ProbeTrack	1404	SCS215a	733709.436805	733709.443466	8	0.013327	60	10	60-180	60	137	GapExp	0	89	4	3	0	distractor	1	573	13.328	13.293	13.362
ProbeTrack7	5	ProbeTrack	1404	SCS215a	733709.436805	733709.443530	8	0.013327	60	10	60-180	60	106	GapExp	0	90	4	96	1	target	1	374	13.328	13.293	13.363
ProbeTrack7	5	ProbeTrack	1404	SCS215a	733709.436805	733709.443601	8	0.013327	60	10	60-180	60	136	GapExp	0	91	4	6	1	target	1	600	13.328	13.293	13.363
ProbeTrack7	5	ProbeTrack	1404	SCS215a	733709.436805	733709.443667	8	0.013327	60	10	60-180	60	131	GapExp	0	92	4	0	0	target	0	453	13.328	13.293	13.363
ProbeTrack7	5	ProbeTrack	1404	SCS215a	733709.436805	733709.443941	8	0.013327	60	10	60-180	60	74	GapExp	0	93	4	6	1	target	1	533	13.328	13.293	13.362
ProbeTrack7	5	ProbeTrack	1404	SCS215a	733709.436805	733709.443995	8	0.013327	60	10	60-180	60	83	GapExp	0	94	4	0	1	target	1	400	13.328	13.293	13.363
ProbeTrack7	5	ProbeTrack	1404	SCS215a	733709.436805	733709.444048	8	0.013327	60	10	60-180	60	90	GapExp	0	95	4	0	0	target	0	720	13.328	13.293	13.363
ProbeTrack7	5	ProbeTrack	1404	SCS215a	733709.436805	733709.444106	8	0.013327	60	10	60-180	60	86	GapExp	0	96	4	3	1	target	1	373	13.328	13.293	13.363
ProbeTrack7	5	ProbeTrack	1404	SCS215a	733709.436805	733709.444159	8	0.013327	60	10	60-180	60	131	GapExp	0	97	4	3	0	distractor	1	427	13.328	13.293	13.363
ProbeTrack7	5	ProbeTrack	1404	SCS215a	733709.436805	733709.444219	8	0.013327	60	10	60-180	60	98	GapExp	0	98	4	96	0	distractor	1	667	13.328	13.293	13.363
ProbeTrack7	5	ProbeTrack	1404	SCS215a	733709.436805	733709.444295	8	0.013327	60	10	60-180	60	87	GapExp	0	99	4	3	0	target	0	427	13.328	13.293	13.363
ProbeTrack7	5	ProbeTrack	1404	SCS215a	733709.436805	733709.444351	8	0.013327	60	10	60-180	60	146	GapExp	0	100	4	3	1	target	1	400	13.328	13.293	13.363
ProbeTrack7	5	ProbeTrack	1404	SCS215a	733709.436805	733709.444419	8	0.013327	60	10	60-180	60	104	GapExp	0	101	4	96	1	target	1	520	13.328	13.293	13.363
ProbeTrack7	5	ProbeTrack	1404	SCS215a	733709.436805	733709.444492	8	0.013327	60	10	60-180	60	124	GapExp	0	102	4	0	0	target	0	334	13.328	13.293	13.363
ProbeTrack7	5	ProbeTrack	1404	SCS215a	733709.436805	733709.444552	8	0.013327	60	10	60-180	60	144	GapExp	0	103	4	6	1	target	1	400	13.328	13.293	13.363
ProbeTrack7	5	ProbeTrack	1404	SCS215a	733709.436805	733709.444622	8	0.013327	60	10	60-180	60	107	GapExp	0	104	4	0	1	target	1	320	13.328	13.291	13.363
ProbeTrack7	5	ProbeTrack	1404	SCS215a	733709.436805	733709.444693	8	0.013327	60	10	60-180	60	177	GapExp	0	105	4	3	1	target	1	453	13.328	13.293	13.363
ProbeTrack7	5	ProbeTrack	1404	SCS215a	733709.436805	733709.444762	8	0.013327	60	10	60-180	60	157	GapExp	0	106	4	6	0	distractor	1	533	13.328	13.293	13.363
ProbeTrack7	5	ProbeTrack	1404	SCS215a	733709.436805	733709.444829	8	0.013327	60	10	60-180	60	168	GapExp	0	107	4	3	0	distractor	1	560	13.328	13.293	13.363
ProbeTrack7	5	ProbeTrack	1404	SCS215a	733709.436805	733709.444910	8	0.013327	60	10	60-180	60	165	GapExp	0	108	4	3	0	distractor	1	520	13.328	13.293	13.363
ProbeTrack7	5	ProbeTrack	1404	SCS215a	733709.436805	733709.444979	8	0.013327	60	10	60-180	60	129	GapExp	0	109	4	6	0	distractor	1	453	13.328	13.293	13.363
ProbeTrack7	5	ProbeTrack	1404	SCS215a	733709.436805	733709.445042	8	0.013327	60	10	60-180	60	143	GapExp	0	110	4	0	0	distractor	1	560	13.328	13.293	13.363
ProbeTrack7	5	ProbeTrack	1404	SCS215a	733709.436805	733709.445106	8	0.013327	60	10	60-180	60	147	GapExp	0	111	4	0	1	target	1	467	13.328	13.293	13.367
ProbeTrack7	5	ProbeTrack	1404	SCS215a	733709.436805	733709.445168	8	0.013327	60	10	60-180	60	167	GapExp	0	112	4	96	0	distractor	1	480	13.328	13.292	13.363
ProbeTrack7	5	ProbeTrack	1404	SCS215a	733709.436805	733709.445250	8	0.013327	60	10	60-180	60	94	GapExp	0	113	4	96	0	distractor	1	787	13.328	13.291	13.363
ProbeTrack7	5	ProbeTrack	1404	SCS215a	733709.436805	733709.445326	8	0.013327	60	10	60-180	60	160	GapExp	0	114	4	0	1	target	1	400	13.328	13.293	13.363
ProbeTrack7	5	ProbeTrack	1404	SCS215a	733709.436805	733709.445391	8	0.013327	60	10	60-180	60	109	GapExp	0	115	4	6	0	target	0	400	13.328	13.293	13.362
ProbeTrack7	5	ProbeTrack	1404	SCS215a	733709.436805	733709.445449	8	0.013327	60	10	60-180	60	96	GapExp	0	116	4	96	0	distractor	1	493	13.328	13.293	13.363
ProbeTrack7	5	ProbeTrack	1404	SCS215a	733709.436805	733709.445552	8	0.013327	60	10	60-180	60	69	GapExp	0	117	4	6	1	target	1	347	13.328	13.293	13.363
ProbeTrack7	5	ProbeTrack	1404	SCS215a	733709.436805	733709.445602	8	0.013327	60	10	60-180	60	145	GapExp	0	118	4	6	0	distractor	1	467	13.328	13.290	13.366
ProbeTrack7	5	ProbeTrack	1404	SCS215a	733709.436805	733709.445667	8	0.013327	60	10	60-180	60	139	GapExp	0	119	4	0	0	target	0	480	13.328	13.293	13.362
ProbeTrack7	5	ProbeTrack	1404	SCS215a	733709.436805	733709.445731	8	0.013327	60	10	60-180	60	133	GapExp	0	120	4	3	1	target	1	360	13.328	13.293	13.363
ProbeTrack7	5	ProbeTrack	1404	SCS215a	733709.436805	733709.445809	8	0.013327	60	10	60-180	60	101	GapExp	0	121	4	0	0	target	0	400	13.328	13.293	13.363
ProbeTrack7	5	ProbeTrack	1404	SCS215a	733709.436805	733709.445866	8	0.013327	60	10	60-180	60	161	GapExp	0	122	4	0	0	target	0	480	13.328	13.293	13.363
ProbeTrack7	5	ProbeTrack	1404	SCS215a	733709.436805	733709.445948	8	0.013327	60	10	60-180	60	126	GapExp	0	123	4	6	0	target	0	467	13.328	13.293	13.363
ProbeTrack7	5	ProbeTrack	1404	SCS215a	733709.436805	733709.446007	8	0.013327	60	10	60-180	60	168	GapExp	0	124	4	6	0	distractor	1	693	13.328	13.293	13.363
ProbeTrack7	5	ProbeTrack	1404	SCS215a	733709.436805	733709.446080	8	0.013327	60	10	60-180	60	83	GapExp	0	125	4	96	0	distractor	1	600	13.328	13.293	13.363
