exp	sub	code	rev	comp	runtime	trialtime	nstim	refreshdur	cuedur	gapdur	gapOnsetRange	durPostProbe	gapOnsetTime	blocktype	prac	trial	ntargets	soa	probeTarget	resp	acc	rt	meanFrameDur	minFrameDur	maxFrameDur
ProbeTrack7	26	ProbeTrack	1406	SCS215b	733725.341773	733725.342407	8	0.013328	60	0	60-180	60	151	NoGap	1	1	4	96	1	target	1	4745	13.328	13.293	13.363
ProbeTrack7	26	ProbeTrack	1406	SCS215b	733725.341773	733725.342682	8	0.013328	60	0	60-180	60	143	NoGap	1	2	4	6	1	target	1	787	13.328	13.293	13.363
ProbeTrack7	26	ProbeTrack	1406	SCS215b	733725.341773	733725.342846	8	0.013328	60	0	60-180	60	83	NoGap	1	3	4	96	1	distractor	0	800	13.328	13.292	13.363
ProbeTrack7	26	ProbeTrack	1406	SCS215b	733725.341773	733725.342935	8	0.013328	60	0	60-180	60	143	NoGap	1	4	4	3	1	target	1	467	13.328	13.289	13.368
ProbeTrack7	26	ProbeTrack	1406	SCS215b	733725.341773	733725.343016	8	0.013328	60	0	60-180	60	169	NoGap	1	5	4	6	0	distractor	1	1106	13.328	13.293	13.363
ProbeTrack7	26	ProbeTrack	1406	SCS215b	733725.341773	733725.343112	8	0.013328	60	0	60-180	60	99	NoGap	1	6	4	96	0	distractor	1	760	13.328	13.293	13.363
ProbeTrack7	26	ProbeTrack	1406	SCS215b	733725.341773	733725.343205	8	0.013328	60	0	60-180	60	122	NoGap	1	7	4	96	0	distractor	1	640	13.328	13.293	13.363
ProbeTrack7	26	ProbeTrack	1406	SCS215b	733725.341773	733725.343295	8	0.013328	60	0	60-180	60	132	NoGap	1	8	4	0	1	distractor	0	533	13.328	13.293	13.363
ProbeTrack7	26	ProbeTrack	1406	SCS215b	733725.341773	733725.343374	8	0.013328	60	0	60-180	60	168	NoGap	1	9	4	3	1	target	1	574	13.328	13.293	13.363
ProbeTrack7	26	ProbeTrack	1406	SCS215b	733725.341773	733725.343468	8	0.013328	60	0	60-180	60	96	NoGap	1	10	4	6	0	distractor	1	640	13.328	13.293	13.363
ProbeTrack7	26	ProbeTrack	1406	SCS215b	733725.341773	733725.343542	8	0.013328	60	0	60-180	60	151	NoGap	1	11	4	96	1	distractor	0	760	13.328	13.293	13.364
ProbeTrack7	26	ProbeTrack	1406	SCS215b	733725.341773	733725.343651	8	0.013328	60	0	60-180	60	89	NoGap	1	12	4	0	1	target	1	573	13.328	13.293	13.363
ProbeTrack7	26	ProbeTrack	1406	SCS215b	733725.341773	733725.343717	8	0.013328	60	0	60-180	60	95	NoGap	1	13	4	0	1	target	1	467	13.328	13.293	13.364
ProbeTrack7	26	ProbeTrack	1406	SCS215b	733725.341773	733725.343806	8	0.013328	60	0	60-180	60	95	NoGap	1	14	4	6	0	distractor	1	533	13.328	13.291	13.363
ProbeTrack7	26	ProbeTrack	1406	SCS215b	733725.341773	733725.343881	8	0.013328	60	0	60-180	60	116	NoGap	1	15	4	3	1	target	1	400	13.328	13.293	13.363
ProbeTrack7	26	ProbeTrack	1406	SCS215b	733725.341773	733725.343955	8	0.013328	60	0	60-180	60	178	NoGap	1	16	4	96	1	distractor	0	400	13.328	13.293	13.367
ProbeTrack7	26	ProbeTrack	1406	SCS215b	733725.341773	733725.344053	8	0.013328	60	0	60-180	60	130	NoGap	1	17	4	96	0	distractor	1	760	13.328	13.293	13.364
ProbeTrack7	26	ProbeTrack	1406	SCS215b	733725.341773	733725.344143	8	0.013328	60	0	60-180	60	158	NoGap	1	18	4	0	0	distractor	1	547	13.328	13.293	13.364
ProbeTrack7	26	ProbeTrack	1406	SCS215b	733725.341773	733725.344221	8	0.013328	60	0	60-180	60	173	NoGap	1	19	4	0	0	distractor	1	453	13.328	13.293	13.364
ProbeTrack7	26	ProbeTrack	1406	SCS215b	733725.341773	733725.344297	8	0.013328	60	0	60-180	60	167	NoGap	1	20	4	3	1	target	1	440	13.328	13.293	13.363
ProbeTrack7	26	ProbeTrack	1406	SCS215b	733725.341773	733725.344376	8	0.013328	60	0	60-180	60	172	NoGap	1	21	4	96	0	distractor	1	427	13.328	13.290	13.363
ProbeTrack7	26	ProbeTrack	1406	SCS215b	733725.341773	733725.344468	8	0.013328	60	0	60-180	60	84	NoGap	1	22	4	0	0	distractor	1	573	13.328	13.293	13.363
ProbeTrack7	26	ProbeTrack	1406	SCS215b	733725.341773	733725.344533	8	0.013328	60	0	60-180	60	80	NoGap	1	23	4	6	1	target	1	733	13.328	13.293	13.363
ProbeTrack7	26	ProbeTrack	1406	SCS215b	733725.341773	733725.344599	8	0.013328	60	0	60-180	60	151	NoGap	1	24	4	6	1	distractor	0	480	13.328	13.293	13.363
ProbeTrack7	26	ProbeTrack	1406	SCS215b	733725.341773	733725.344674	8	0.013328	60	0	60-180	60	64	NoGap	1	25	4	96	0	distractor	1	920	13.328	13.293	13.364
ProbeTrack7	26	ProbeTrack	1406	SCS215b	733725.341773	733725.344756	8	0.013328	60	0	60-180	60	155	NoGap	1	26	4	3	0	distractor	1	520	13.328	13.292	13.364
ProbeTrack7	26	ProbeTrack	1406	SCS215b	733725.341773	733725.344841	8	0.013328	60	0	60-180	60	116	NoGap	1	27	4	6	0	distractor	1	613	13.328	13.293	13.363
ProbeTrack7	26	ProbeTrack	1406	SCS215b	733725.341773	733725.344913	8	0.013328	60	0	60-180	60	62	NoGap	1	28	4	0	1	target	1	893	13.328	13.293	13.363
ProbeTrack7	26	ProbeTrack	1406	SCS215b	733725.341773	733725.344977	8	0.013328	60	0	60-180	60	140	NoGap	1	29	4	96	1	target	1	733	13.328	13.293	13.363
ProbeTrack7	26	ProbeTrack	1406	SCS215b	733725.341773	733725.345072	8	0.013328	60	0	60-180	60	136	NoGap	1	30	4	6	0	distractor	1	680	13.328	13.293	13.363
ProbeTrack7	26	ProbeTrack	1406	SCS215b	733725.341773	733725.345147	8	0.013328	60	0	60-180	60	115	NoGap	1	31	4	3	1	target	1	613	13.328	13.293	13.366
ProbeTrack7	26	ProbeTrack	1406	SCS215b	733725.341773	733725.345221	8	0.013328	60	0	60-180	60	74	NoGap	1	32	4	3	0	distractor	1	656	13.328	13.270	13.363
ProbeTrack7	26	ProbeTrack	1406	SCS215b	733725.341773	733725.345284	8	0.013328	60	0	60-180	60	136	NoGap	1	33	4	3	1	target	1	533	13.328	13.293	13.363
ProbeTrack7	26	ProbeTrack	1406	SCS215b	733725.341773	733725.345357	8	0.013328	60	0	60-180	60	130	NoGap	1	34	4	6	0	target	0	533	13.328	13.294	13.363
ProbeTrack7	26	ProbeTrack	1406	SCS215b	733725.341773	733725.345432	8	0.013328	60	0	60-180	60	63	NoGap	1	35	4	96	1	target	1	760	13.328	13.293	13.363
ProbeTrack7	26	ProbeTrack	1406	SCS215b	733725.341773	733725.345511	8	0.013328	60	0	60-180	60	180	NoGap	1	36	4	3	0	distractor	1	760	13.328	13.293	13.363
ProbeTrack7	26	ProbeTrack	1406	SCS215b	733725.341773	733725.345595	8	0.013328	60	0	60-180	60	75	NoGap	1	37	4	0	1	target	1	560	13.328	13.293	13.363
ProbeTrack7	26	ProbeTrack	1406	SCS215b	733725.341773	733725.345655	8	0.013328	60	0	60-180	60	151	NoGap	1	38	4	0	1	target	1	374	13.328	13.293	13.363
ProbeTrack7	26	ProbeTrack	1406	SCS215b	733725.341773	733725.345728	8	0.013328	60	0	60-180	60	135	NoGap	1	39	4	0	0	distractor	1	627	13.328	13.293	13.363
ProbeTrack7	26	ProbeTrack	1406	SCS215b	733725.341773	733725.345800	8	0.013328	60	0	60-180	60	162	NoGap	1	40	4	6	1	target	1	440	13.328	13.293	13.363
ProbeTrack7	26	ProbeTrack	1406	SCS215b	733725.341773	733725.345873	8	0.013328	60	0	60-180	60	140	NoGap	1	41	4	6	1	target	1	454	13.328	13.293	13.363
ProbeTrack7	26	ProbeTrack	1406	SCS215b	733725.341773	733725.345944	8	0.013328	60	0	60-180	60	89	NoGap	1	42	4	96	0	target	0	853	13.328	13.293	13.364
ProbeTrack7	26	ProbeTrack	1406	SCS215b	733725.341773	733725.346025	8	0.013328	60	0	60-180	60	144	NoGap	1	43	4	0	0	distractor	1	653	13.328	13.293	13.363
ProbeTrack7	26	ProbeTrack	1406	SCS215b	733725.341773	733725.346098	8	0.013328	60	0	60-180	60	117	NoGap	1	44	4	6	0	distractor	1	533	13.328	13.293	13.363
ProbeTrack7	26	ProbeTrack	1406	SCS215b	733725.341773	733725.346167	8	0.013328	60	0	60-180	60	128	NoGap	1	45	4	96	0	distractor	1	600	13.328	13.293	13.366
ProbeTrack7	26	ProbeTrack	1406	SCS215b	733725.341773	733725.346255	8	0.013328	60	0	60-180	60	67	NoGap	1	46	4	3	0	target	0	640	13.328	13.293	13.363
ProbeTrack7	26	ProbeTrack	1406	SCS215b	733725.341773	733725.346315	8	0.013328	60	0	60-180	60	161	NoGap	1	47	4	3	1	target	1	440	13.328	13.293	13.363
ProbeTrack7	26	ProbeTrack	1406	SCS215b	733725.341773	733725.346389	8	0.013328	60	0	60-180	60	154	NoGap	1	48	4	6	1	target	1	387	13.328	13.293	13.363
ProbeTrack7	26	ProbeTrack	1406	SCS215b	733725.341773	733725.346488	8	0.013328	60	0	60-180	60	139	NoGap	1	49	4	3	0	distractor	1	547	13.328	13.293	13.364
ProbeTrack7	26	ProbeTrack	1406	SCS215b	733725.341773	733725.346559	8	0.013328	60	0	60-180	60	118	NoGap	1	50	4	96	1	target	1	587	13.328	13.293	13.364
ProbeTrack7	26	ProbeTrack	1406	SCS215b	733725.347913	733725.348022	8	0.013328	60	10	60-180	60	118	GapPrac	1	1	4	3	1	target	1	453	13.328	13.290	13.363
ProbeTrack7	26	ProbeTrack	1406	SCS215b	733725.347913	733725.348127	8	0.013328	60	10	60-180	60	139	GapPrac	1	2	4	3	0	target	0	507	13.328	13.293	13.363
ProbeTrack7	26	ProbeTrack	1406	SCS215b	733725.347913	733725.348203	8	0.013328	60	10	60-180	60	148	GapPrac	1	3	4	6	0	distractor	1	733	13.328	13.289	13.363
ProbeTrack7	26	ProbeTrack	1406	SCS215b	733725.347913	733725.348284	8	0.013328	60	10	60-180	60	169	GapPrac	1	4	4	96	0	distractor	1	720	13.328	13.293	13.363
ProbeTrack7	26	ProbeTrack	1406	SCS215b	733725.347913	733725.348380	8	0.013328	60	10	60-180	60	156	GapPrac	1	5	4	0	0	target	0	467	13.328	13.293	13.364
ProbeTrack7	26	ProbeTrack	1406	SCS215b	733725.347913	733725.348456	8	0.013328	60	10	60-180	60	138	GapPrac	1	6	4	96	1	target	1	720	13.328	13.293	13.363
ProbeTrack7	26	ProbeTrack	1406	SCS215b	733725.347913	733725.348545	8	0.013328	60	10	60-180	60	92	GapPrac	1	7	4	6	1	target	1	533	13.328	13.293	13.364
ProbeTrack7	26	ProbeTrack	1406	SCS215b	733725.347913	733725.348613	8	0.013328	60	10	60-180	60	98	GapPrac	1	8	4	0	1	target	1	693	13.328	13.293	13.363
ProbeTrack7	26	ProbeTrack	1406	SCS215b	733725.347913	733725.348681	8	0.013328	60	10	60-180	60	113	GapPrac	1	9	4	96	1	target	1	733	13.328	13.293	13.363
ProbeTrack7	26	ProbeTrack	1406	SCS215b	733725.347913	733725.348767	8	0.013328	60	10	60-180	60	70	GapPrac	1	10	4	3	0	distractor	1	1067	13.328	13.293	13.363
ProbeTrack7	26	ProbeTrack	1406	SCS215b	733725.347913	733725.348836	8	0.013328	60	10	60-180	60	77	GapPrac	1	11	4	3	1	target	1	400	13.328	13.293	13.363
ProbeTrack7	26	ProbeTrack	1406	SCS215b	733725.347913	733725.348900	8	0.013328	60	10	60-180	60	82	GapPrac	1	12	4	3	1	target	1	454	13.328	13.293	13.364
ProbeTrack7	26	ProbeTrack	1406	SCS215b	733725.347913	733725.348963	8	0.013328	60	10	60-180	60	79	GapPrac	1	13	4	96	0	target	0	653	13.328	13.293	13.363
ProbeTrack7	26	ProbeTrack	1406	SCS215b	733725.347913	733725.349042	8	0.013328	60	10	60-180	60	114	GapPrac	1	14	4	3	0	distractor	1	760	13.328	13.293	13.363
ProbeTrack7	26	ProbeTrack	1406	SCS215b	733725.347913	733725.349115	8	0.013328	60	10	60-180	60	171	GapPrac	1	15	4	6	0	distractor	1	667	13.328	13.293	13.363
ProbeTrack7	26	ProbeTrack	1406	SCS215b	733725.347913	733725.349198	8	0.013328	60	10	60-180	60	153	GapPrac	1	16	4	6	0	target	0	707	13.328	13.293	13.363
ProbeTrack7	26	ProbeTrack	1406	SCS215b	733725.347913	733725.349276	8	0.013328	60	10	60-180	60	137	GapPrac	1	17	4	0	1	target	1	560	13.328	13.293	13.363
ProbeTrack7	26	ProbeTrack	1406	SCS215b	733725.347913	733725.349349	8	0.013328	60	10	60-180	60	107	GapPrac	1	18	4	96	0	distractor	1	760	13.328	13.293	13.363
ProbeTrack7	26	ProbeTrack	1406	SCS215b	733725.347913	733725.349435	8	0.013328	60	10	60-180	60	103	GapPrac	1	19	4	0	0	distractor	1	640	13.328	13.293	13.363
ProbeTrack7	26	ProbeTrack	1406	SCS215b	733725.347913	733725.349505	8	0.013328	60	10	60-180	60	172	GapPrac	1	20	4	6	1	target	1	494	13.328	13.293	13.363
ProbeTrack7	26	ProbeTrack	1406	SCS215b	733725.350268	733725.350359	8	0.013328	60	10	60-180	60	166	GapExp	1	1	4	0	1	target	1	720	13.328	13.293	13.363
ProbeTrack7	26	ProbeTrack	1406	SCS215b	733725.350268	733725.350455	8	0.013328	60	10	60-180	60	169	GapExp	1	2	4	96	1	distractor	0	720	13.328	13.293	13.363
ProbeTrack7	26	ProbeTrack	1406	SCS215b	733725.350268	733725.350551	8	0.013328	60	10	60-180	60	83	GapExp	1	3	4	96	0	distractor	1	747	13.328	13.293	13.364
ProbeTrack7	26	ProbeTrack	1406	SCS215b	733725.350268	733725.350635	8	0.013328	60	10	60-180	60	125	GapExp	1	4	4	0	0	distractor	1	494	13.328	13.293	13.364
ProbeTrack7	26	ProbeTrack	1406	SCS215b	733725.350268	733725.350707	8	0.013328	60	10	60-180	60	95	GapExp	1	5	4	6	0	distractor	1	640	13.328	13.293	13.363
ProbeTrack7	26	ProbeTrack	1406	SCS215b	733725.350268	733725.350775	8	0.013328	60	10	60-180	60	137	GapExp	0	6	4	3	0	distractor	1	587	13.328	13.293	13.365
ProbeTrack7	26	ProbeTrack	1406	SCS215b	733725.350268	733725.350852	8	0.013328	60	10	60-180	60	90	GapExp	0	7	4	0	1	target	1	600	13.328	13.290	13.366
ProbeTrack7	26	ProbeTrack	1406	SCS215b	733725.350268	733725.350917	8	0.013328	60	10	60-180	60	163	GapExp	0	8	4	3	0	target	0	547	13.328	13.293	13.363
ProbeTrack7	26	ProbeTrack	1406	SCS215b	733725.350268	733725.350994	8	0.013328	60	10	60-180	60	169	GapExp	0	9	4	0	0	target	0	533	13.328	13.293	13.363
ProbeTrack7	26	ProbeTrack	1406	SCS215b	733725.350268	733725.351070	8	0.013328	60	10	60-180	60	120	GapExp	0	10	4	3	1	target	1	587	13.328	13.293	13.363
ProbeTrack7	26	ProbeTrack	1406	SCS215b	733725.350268	733725.351140	8	0.013328	60	10	60-180	60	155	GapExp	0	11	4	3	0	distractor	1	520	13.328	13.293	13.363
ProbeTrack7	26	ProbeTrack	1406	SCS215b	733725.350268	733725.351217	8	0.013328	60	10	60-180	60	124	GapExp	0	12	4	0	0	distractor	1	587	13.328	13.293	13.364
ProbeTrack7	26	ProbeTrack	1406	SCS215b	733725.350268	733725.351348	8	0.013328	60	10	60-180	60	110	GapExp	0	13	4	6	0	distractor	1	640	13.328	13.293	13.363
ProbeTrack7	26	ProbeTrack	1406	SCS215b	733725.350268	733725.351419	8	0.013328	60	10	60-180	60	126	GapExp	0	14	4	3	1	distractor	0	627	13.328	13.293	13.363
ProbeTrack7	26	ProbeTrack	1406	SCS215b	733725.350268	733725.351490	8	0.013328	60	10	60-180	60	179	GapExp	0	15	4	3	0	target	0	827	13.328	13.293	13.364
ProbeTrack7	26	ProbeTrack	1406	SCS215b	733725.350268	733725.351593	8	0.013328	60	10	60-180	60	150	GapExp	0	16	4	6	0	target	0	733	13.328	13.293	13.363
ProbeTrack7	26	ProbeTrack	1406	SCS215b	733725.350268	733725.351672	8	0.013328	60	10	60-180	60	107	GapExp	0	17	4	0	1	target	1	600	13.328	13.293	13.363
ProbeTrack7	26	ProbeTrack	1406	SCS215b	733725.350268	733725.351748	8	0.013328	60	10	60-180	60	62	GapExp	0	18	4	0	1	distractor	0	627	13.328	13.293	13.363
ProbeTrack7	26	ProbeTrack	1406	SCS215b	733725.350268	733725.351813	8	0.013328	60	10	60-180	60	131	GapExp	0	19	4	6	1	target	1	520	13.328	13.292	13.363
ProbeTrack7	26	ProbeTrack	1406	SCS215b	733725.350268	733725.351886	8	0.013328	60	10	60-180	60	117	GapExp	0	20	4	0	0	distractor	1	787	13.328	13.293	13.363
ProbeTrack7	26	ProbeTrack	1406	SCS215b	733725.350268	733725.351976	8	0.013328	60	10	60-180	60	96	GapExp	0	21	4	96	0	target	0	840	13.328	13.293	13.364
ProbeTrack7	26	ProbeTrack	1406	SCS215b	733725.350268	733725.352061	8	0.013328	60	10	60-180	60	161	GapExp	0	22	4	96	1	target	1	547	13.328	13.293	13.364
ProbeTrack7	26	ProbeTrack	1406	SCS215b	733725.350268	733725.352154	8	0.013328	60	10	60-180	60	72	GapExp	0	23	4	3	0	distractor	1	827	13.328	13.289	13.363
ProbeTrack7	26	ProbeTrack	1406	SCS215b	733725.350268	733725.352332	8	0.013328	60	10	60-180	60	90	GapExp	0	24	4	96	0	distractor	1	1200	13.328	13.293	13.363
ProbeTrack7	26	ProbeTrack	1406	SCS215b	733725.350268	733725.352420	8	0.013328	60	10	60-180	60	123	GapExp	0	25	4	0	1	distractor	0	693	13.328	13.293	13.363
ProbeTrack7	26	ProbeTrack	1406	SCS215b	733725.350268	733725.352494	8	0.013328	60	10	60-180	60	175	GapExp	0	26	4	0	0	distractor	1	773	13.328	13.293	13.364
ProbeTrack7	26	ProbeTrack	1406	SCS215b	733725.350268	733725.352577	8	0.013328	60	10	60-180	60	168	GapExp	0	27	4	3	0	target	0	480	13.328	13.293	13.363
ProbeTrack7	26	ProbeTrack	1406	SCS215b	733725.350268	733725.352657	8	0.013328	60	10	60-180	60	100	GapExp	0	28	4	96	1	target	1	733	13.328	13.293	13.363
ProbeTrack7	26	ProbeTrack	1406	SCS215b	733725.350268	733725.352740	8	0.013328	60	10	60-180	60	148	GapExp	0	29	4	96	0	target	0	707	13.328	13.293	13.363
ProbeTrack7	26	ProbeTrack	1406	SCS215b	733725.350268	733725.352834	8	0.013328	60	10	60-180	60	149	GapExp	0	30	4	0	0	target	0	613	13.328	13.293	13.363
ProbeTrack7	26	ProbeTrack	1406	SCS215b	733725.350268	733725.352910	8	0.013328	60	10	60-180	60	86	GapExp	0	31	4	6	1	distractor	0	787	13.328	13.293	13.363
ProbeTrack7	26	ProbeTrack	1406	SCS215b	733725.350268	733725.352980	8	0.013328	60	10	60-180	60	98	GapExp	0	32	4	6	0	target	0	613	13.328	13.293	13.363
ProbeTrack7	26	ProbeTrack	1406	SCS215b	733725.350268	733725.353051	8	0.013328	60	10	60-180	60	72	GapExp	0	33	4	3	1	target	1	720	13.328	13.293	13.364
ProbeTrack7	26	ProbeTrack	1406	SCS215b	733725.350268	733725.353117	8	0.013328	60	10	60-180	60	113	GapExp	0	34	4	6	0	target	0	667	13.328	13.293	13.364
ProbeTrack7	26	ProbeTrack	1406	SCS215b	733725.350268	733725.353401	8	0.013328	60	10	60-180	60	113	GapExp	0	35	4	3	1	target	1	307	13.328	13.292	13.364
ProbeTrack7	26	ProbeTrack	1406	SCS215b	733725.350268	733725.353472	8	0.013328	60	10	60-180	60	134	GapExp	0	36	4	3	1	target	1	467	13.328	13.293	13.363
ProbeTrack7	26	ProbeTrack	1406	SCS215b	733725.350268	733725.353545	8	0.013328	60	10	60-180	60	72	GapExp	0	37	4	6	1	distractor	0	400	13.328	13.293	13.363
ProbeTrack7	26	ProbeTrack	1406	SCS215b	733725.350268	733725.353606	8	0.013328	60	10	60-180	60	174	GapExp	0	38	4	6	0	distractor	1	627	13.328	13.293	13.363
ProbeTrack7	26	ProbeTrack	1406	SCS215b	733725.350268	733725.353688	8	0.013328	60	10	60-180	60	178	GapExp	0	39	4	96	1	distractor	0	747	13.328	13.293	13.363
ProbeTrack7	26	ProbeTrack	1406	SCS215b	733725.350268	733725.353784	8	0.013328	60	10	60-180	60	97	GapExp	0	40	4	3	0	distractor	1	720	13.328	13.293	13.364
ProbeTrack7	26	ProbeTrack	1406	SCS215b	733725.350268	733725.353855	8	0.013328	60	10	60-180	60	65	GapExp	0	41	4	96	1	target	1	773	13.328	13.293	13.363
ProbeTrack7	26	ProbeTrack	1406	SCS215b	733725.350268	733725.353954	8	0.013328	60	10	60-180	60	132	GapExp	0	42	4	0	1	target	1	773	13.328	13.293	13.363
ProbeTrack7	26	ProbeTrack	1406	SCS215b	733725.350268	733725.354030	8	0.013328	60	10	60-180	60	105	GapExp	0	43	4	0	0	target	0	640	13.328	13.293	13.363
ProbeTrack7	26	ProbeTrack	1406	SCS215b	733725.350268	733725.354100	8	0.013328	60	10	60-180	60	132	GapExp	0	44	4	6	0	target	0	587	13.328	13.293	13.363
ProbeTrack7	26	ProbeTrack	1406	SCS215b	733725.350268	733725.354173	8	0.013328	60	10	60-180	60	147	GapExp	0	45	4	3	0	distractor	1	747	13.328	13.292	13.363
ProbeTrack7	26	ProbeTrack	1406	SCS215b	733725.350268	733725.354259	8	0.013328	60	10	60-180	60	110	GapExp	0	46	4	96	0	target	0	813	13.328	13.292	13.363
ProbeTrack7	26	ProbeTrack	1406	SCS215b	733725.350268	733725.354349	8	0.013328	60	10	60-180	60	104	GapExp	0	47	4	3	0	target	0	987	13.328	13.293	13.363
ProbeTrack7	26	ProbeTrack	1406	SCS215b	733725.350268	733725.354422	8	0.013328	60	10	60-180	60	112	GapExp	0	48	4	0	1	target	1	733	13.328	13.293	13.363
ProbeTrack7	26	ProbeTrack	1406	SCS215b	733725.350268	733725.354493	8	0.013328	60	10	60-180	60	166	GapExp	0	49	4	0	0	distractor	1	947	13.328	13.293	13.363
ProbeTrack7	26	ProbeTrack	1406	SCS215b	733725.350268	733725.354581	8	0.013328	60	10	60-180	60	147	GapExp	0	50	4	96	0	distractor	1	787	13.328	13.293	13.364
ProbeTrack7	26	ProbeTrack	1406	SCS215b	733725.350268	733725.354675	8	0.013328	60	10	60-180	60	162	GapExp	0	51	4	0	0	target	0	1027	13.328	13.292	13.364
ProbeTrack7	26	ProbeTrack	1406	SCS215b	733725.350268	733725.354760	8	0.013328	60	10	60-180	60	130	GapExp	0	52	4	6	0	distractor	1	653	13.328	13.293	13.368
ProbeTrack7	26	ProbeTrack	1406	SCS215b	733725.350268	733725.354835	8	0.013328	60	10	60-180	60	133	GapExp	0	53	4	6	1	target	1	653	13.328	13.293	13.364
ProbeTrack7	26	ProbeTrack	1406	SCS215b	733725.350268	733725.354914	8	0.013328	60	10	60-180	60	105	GapExp	0	54	4	96	1	target	1	653	13.328	13.293	13.363
ProbeTrack7	26	ProbeTrack	1406	SCS215b	733725.350268	733725.354999	8	0.013328	60	10	60-180	60	83	GapExp	0	55	4	3	0	distractor	1	733	13.328	13.293	13.363
ProbeTrack7	26	ProbeTrack	1406	SCS215b	733725.350268	733725.355066	8	0.013328	60	10	60-180	60	77	GapExp	0	56	4	6	1	target	1	653	13.328	13.292	13.364
ProbeTrack7	26	ProbeTrack	1406	SCS215b	733725.350268	733725.355131	8	0.013328	60	10	60-180	60	122	GapExp	0	57	4	96	0	distractor	1	1320	13.328	13.293	13.364
ProbeTrack7	26	ProbeTrack	1406	SCS215b	733725.350268	733725.355227	8	0.013328	60	10	60-180	60	95	GapExp	0	58	4	0	1	target	1	520	13.328	13.293	13.363
ProbeTrack7	26	ProbeTrack	1406	SCS215b	733725.350268	733725.355292	8	0.013328	60	10	60-180	60	86	GapExp	0	59	4	0	1	target	1	600	13.328	13.293	13.363
ProbeTrack7	26	ProbeTrack	1406	SCS215b	733725.350268	733725.355358	8	0.013328	60	10	60-180	60	174	GapExp	0	60	4	3	1	target	1	507	13.328	13.290	13.363
ProbeTrack7	26	ProbeTrack	1406	SCS215b	733725.350268	733725.355453	8	0.013328	60	10	60-180	60	127	GapExp	0	61	4	96	0	distractor	1	1000	13.328	13.293	13.363
ProbeTrack7	26	ProbeTrack	1406	SCS215b	733725.350268	733725.355559	8	0.013328	60	10	60-180	60	65	GapExp	0	62	4	6	0	distractor	1	1186	13.328	13.293	13.363
ProbeTrack7	26	ProbeTrack	1406	SCS215b	733725.350268	733725.355630	8	0.013328	60	10	60-180	60	163	GapExp	0	63	4	3	1	target	1	920	13.328	13.293	13.363
ProbeTrack7	26	ProbeTrack	1406	SCS215b	733725.350268	733725.355712	8	0.013328	60	10	60-180	60	115	GapExp	0	64	4	96	1	target	1	547	13.328	13.293	13.363
ProbeTrack7	26	ProbeTrack	1406	SCS215b	733725.350268	733725.355796	8	0.013328	60	10	60-180	60	172	GapExp	0	65	4	0	0	target	0	494	13.328	13.293	13.363
ProbeTrack7	26	ProbeTrack	1406	SCS215b	733725.350268	733725.355875	8	0.013328	60	10	60-180	60	126	GapExp	0	66	4	6	1	target	1	374	13.328	13.293	13.367
ProbeTrack7	26	ProbeTrack	1406	SCS215b	733725.350268	733725.355945	8	0.013328	60	10	60-180	60	145	GapExp	0	67	4	96	1	target	1	507	13.328	13.292	13.364
ProbeTrack7	26	ProbeTrack	1406	SCS215b	733725.350268	733725.356033	8	0.013328	60	10	60-180	60	174	GapExp	0	68	4	0	1	target	1	427	13.328	13.293	13.363
ProbeTrack7	26	ProbeTrack	1406	SCS215b	733725.350268	733725.356112	8	0.013328	60	10	60-180	60	78	GapExp	0	69	4	0	0	target	0	614	13.328	13.293	13.363
ProbeTrack7	26	ProbeTrack	1406	SCS215b	733725.350268	733725.356178	8	0.013328	60	10	60-180	60	155	GapExp	0	70	4	96	1	distractor	0	520	13.328	13.293	13.364
ProbeTrack7	26	ProbeTrack	1406	SCS215b	733725.350268	733725.356268	8	0.013328	60	10	60-180	60	158	GapExp	0	71	4	0	0	target	0	667	13.328	13.290	13.363
ProbeTrack7	26	ProbeTrack	1406	SCS215b	733725.350268	733725.356345	8	0.013328	60	10	60-180	60	97	GapExp	0	72	4	0	0	target	0	613	13.328	13.293	13.363
ProbeTrack7	26	ProbeTrack	1406	SCS215b	733725.350268	733725.356412	8	0.013328	60	10	60-180	60	137	GapExp	0	73	4	0	0	target	0	547	13.328	13.293	13.367
ProbeTrack7	26	ProbeTrack	1406	SCS215b	733725.350268	733725.356485	8	0.013328	60	10	60-180	60	125	GapExp	0	74	4	6	0	distractor	1	627	13.328	13.293	13.363
ProbeTrack7	26	ProbeTrack	1406	SCS215b	733725.350268	733725.356558	8	0.013328	60	10	60-180	60	180	GapExp	0	75	4	6	1	distractor	0	1040	13.328	13.293	13.363
ProbeTrack7	26	ProbeTrack	1406	SCS215b	733725.350268	733725.356648	8	0.013328	60	10	60-180	60	112	GapExp	0	76	4	6	1	target	1	920	13.328	13.291	13.366
ProbeTrack7	26	ProbeTrack	1406	SCS215b	733725.350268	733725.356721	8	0.013328	60	10	60-180	60	166	GapExp	0	77	4	0	0	target	0	627	13.328	13.293	13.363
ProbeTrack7	26	ProbeTrack	1406	SCS215b	733725.350268	733725.356799	8	0.013328	60	10	60-180	60	133	GapExp	0	78	4	3	0	distractor	1	720	13.328	13.293	13.363
ProbeTrack7	26	ProbeTrack	1406	SCS215b	733725.350268	733725.356873	8	0.013328	60	10	60-180	60	82	GapExp	0	79	4	3	1	target	1	2346	13.328	13.293	13.363
ProbeTrack7	26	ProbeTrack	1406	SCS215b	733725.350268	733725.356961	8	0.013328	60	10	60-180	60	146	GapExp	0	80	4	6	1	target	1	853	13.328	13.293	13.364
ProbeTrack7	26	ProbeTrack	1406	SCS215b	733725.350268	733725.357059	8	0.013328	60	10	60-180	60	97	GapExp	0	81	4	3	0	target	0	454	13.328	13.293	13.363
ProbeTrack7	26	ProbeTrack	1406	SCS215b	733725.350268	733725.357534	8	0.013328	60	10	60-180	60	123	GapExp	0	82	4	6	1	distractor	0	627	13.328	13.293	13.364
ProbeTrack7	26	ProbeTrack	1406	SCS215b	733725.350268	733725.357605	8	0.013328	60	10	60-180	60	129	GapExp	0	83	4	96	1	target	1	440	13.328	13.293	13.363
ProbeTrack7	26	ProbeTrack	1406	SCS215b	733725.350268	733725.357691	8	0.013328	60	10	60-180	60	119	GapExp	0	84	4	96	1	distractor	0	880	13.328	13.292	13.363
ProbeTrack7	26	ProbeTrack	1406	SCS215b	733725.350268	733725.357782	8	0.013328	60	10	60-180	60	134	GapExp	0	85	4	6	0	target	0	533	13.328	13.293	13.363
ProbeTrack7	26	ProbeTrack	1406	SCS215b	733725.350268	733725.357855	8	0.013328	60	10	60-180	60	91	GapExp	0	86	4	96	1	target	1	374	13.328	13.293	13.364
ProbeTrack7	26	ProbeTrack	1406	SCS215b	733725.350268	733725.357933	8	0.013328	60	10	60-180	60	104	GapExp	0	87	4	96	1	target	1	507	13.328	13.289	13.363
ProbeTrack7	26	ProbeTrack	1406	SCS215b	733725.350268	733725.358016	8	0.013328	60	10	60-180	60	144	GapExp	0	88	4	3	1	target	1	600	13.328	13.293	13.363
ProbeTrack7	26	ProbeTrack	1406	SCS215b	733725.350268	733725.358123	8	0.013328	60	10	60-180	60	159	GapExp	0	89	4	3	1	target	1	520	13.328	13.293	13.367
ProbeTrack7	26	ProbeTrack	1406	SCS215b	733725.350268	733725.358262	8	0.013328	60	10	60-180	60	104	GapExp	0	90	4	0	1	distractor	0	760	13.328	13.293	13.363
ProbeTrack7	26	ProbeTrack	1406	SCS215b	733725.350268	733725.358333	8	0.013328	60	10	60-180	60	89	GapExp	0	91	4	3	1	target	1	493	13.328	13.293	13.363
ProbeTrack7	26	ProbeTrack	1406	SCS215b	733725.350268	733725.358398	8	0.013328	60	10	60-180	60	73	GapExp	0	92	4	96	0	distractor	1	733	13.328	13.293	13.363
ProbeTrack7	26	ProbeTrack	1406	SCS215b	733725.350268	733725.358478	8	0.013328	60	10	60-180	60	86	GapExp	0	93	4	96	0	target	0	667	13.328	13.291	13.364
ProbeTrack7	26	ProbeTrack	1406	SCS215b	733725.350268	733725.358618	8	0.013328	60	10	60-180	60	102	GapExp	0	94	4	3	1	target	1	493	13.328	13.293	13.366
ProbeTrack7	26	ProbeTrack	1406	SCS215b	733725.350268	733725.358684	8	0.013328	60	10	60-180	60	158	GapExp	0	95	4	0	0	target	0	613	13.328	13.293	13.363
ProbeTrack7	26	ProbeTrack	1406	SCS215b	733725.350268	733725.358762	8	0.013328	60	10	60-180	60	98	GapExp	0	96	4	0	1	target	1	547	13.328	13.293	13.363
ProbeTrack7	26	ProbeTrack	1406	SCS215b	733725.350268	733725.358828	8	0.013328	60	10	60-180	60	76	GapExp	0	97	4	6	0	target	0	653	13.328	13.293	13.363
ProbeTrack7	26	ProbeTrack	1406	SCS215b	733725.350268	733725.358902	8	0.013328	60	10	60-180	60	93	GapExp	0	98	4	96	1	target	1	1013	13.328	13.293	13.363
ProbeTrack7	26	ProbeTrack	1406	SCS215b	733725.350268	733725.358989	8	0.013328	60	10	60-180	60	149	GapExp	0	99	4	96	0	target	0	533	13.328	13.293	13.363
ProbeTrack7	26	ProbeTrack	1406	SCS215b	733725.350268	733725.359079	8	0.013328	60	10	60-180	60	138	GapExp	0	100	4	96	0	target	0	773	13.328	13.293	13.363
ProbeTrack7	26	ProbeTrack	1406	SCS215b	733725.350268	733725.359170	8	0.013328	60	10	60-180	60	176	GapExp	0	101	4	3	0	target	0	733	13.328	13.293	13.363
ProbeTrack7	26	ProbeTrack	1406	SCS215b	733725.350268	733725.359252	8	0.013328	60	10	60-180	60	169	GapExp	0	102	4	3	1	target	1	613	13.328	13.293	13.363
ProbeTrack7	26	ProbeTrack	1406	SCS215b	733725.350268	733725.359330	8	0.013328	60	10	60-180	60	167	GapExp	0	103	4	96	0	target	0	573	13.328	13.293	13.363
ProbeTrack7	26	ProbeTrack	1406	SCS215b	733725.350268	733725.359424	8	0.013328	60	10	60-180	60	78	GapExp	0	104	4	96	1	target	1	1280	13.328	13.293	13.364
ProbeTrack7	26	ProbeTrack	1406	SCS215b	733725.350268	733725.359511	8	0.013328	60	10	60-180	60	156	GapExp	0	105	4	6	0	target	0	613	13.328	13.293	13.364
ProbeTrack7	26	ProbeTrack	1406	SCS215b	733725.350268	733725.359610	8	0.013328	60	10	60-180	60	123	GapExp	0	106	4	3	0	distractor	1	653	13.328	13.293	13.363
ProbeTrack7	26	ProbeTrack	1406	SCS215b	733725.350268	733725.359682	8	0.013328	60	10	60-180	60	72	GapExp	0	107	4	0	1	distractor	0	720	13.328	13.293	13.364
ProbeTrack7	26	ProbeTrack	1406	SCS215b	733725.350268	733725.359935	8	0.013328	60	10	60-180	60	117	GapExp	0	108	4	3	0	target	0	787	13.328	13.293	13.363
ProbeTrack7	26	ProbeTrack	1406	SCS215b	733725.350268	733725.360038	8	0.013328	60	10	60-180	60	108	GapExp	0	109	4	96	1	target	1	693	13.328	13.293	13.363
ProbeTrack7	26	ProbeTrack	1406	SCS215b	733725.350268	733725.360122	8	0.013328	60	10	60-180	60	88	GapExp	0	110	4	3	1	target	1	1027	13.328	13.293	13.363
ProbeTrack7	26	ProbeTrack	1406	SCS215b	733725.350268	733725.360193	8	0.013328	60	10	60-180	60	75	GapExp	0	111	4	6	1	target	1	1186	13.328	13.293	13.366
ProbeTrack7	26	ProbeTrack	1406	SCS215b	733725.350268	733725.360266	8	0.013328	60	10	60-180	60	114	GapExp	0	112	4	96	0	distractor	1	720	13.328	13.293	13.363
ProbeTrack7	26	ProbeTrack	1406	SCS215b	733725.350268	733725.360353	8	0.013328	60	10	60-180	60	159	GapExp	0	113	4	96	0	distractor	1	1000	13.328	13.293	13.363
ProbeTrack7	26	ProbeTrack	1406	SCS215b	733725.350268	733725.360452	8	0.013328	60	10	60-180	60	63	GapExp	0	114	4	6	1	target	1	760	13.328	13.293	13.363
ProbeTrack7	26	ProbeTrack	1406	SCS215b	733725.350268	733725.360517	8	0.013328	60	10	60-180	60	126	GapExp	0	115	4	6	0	distractor	1	613	13.328	13.293	13.363
ProbeTrack7	26	ProbeTrack	1406	SCS215b	733725.350268	733725.360590	8	0.013328	60	10	60-180	60	126	GapExp	0	116	4	6	0	distractor	1	600	13.328	13.293	13.363
ProbeTrack7	26	ProbeTrack	1406	SCS215b	733725.350268	733725.360664	8	0.013328	60	10	60-180	60	146	GapExp	0	117	4	6	1	distractor	0	533	13.328	13.293	13.363
ProbeTrack7	26	ProbeTrack	1406	SCS215b	733725.350268	733725.360744	8	0.013328	60	10	60-180	60	132	GapExp	0	118	4	96	0	distractor	1	1120	13.328	13.293	13.363
ProbeTrack7	26	ProbeTrack	1406	SCS215b	733725.350268	733725.360840	8	0.013328	60	10	60-180	60	142	GapExp	0	119	4	6	1	target	1	1306	13.328	13.293	13.363
ProbeTrack7	26	ProbeTrack	1406	SCS215b	733725.350268	733725.360984	8	0.013328	60	10	60-180	60	155	GapExp	0	120	4	3	1	distractor	0	813	13.328	13.293	13.363
ProbeTrack7	26	ProbeTrack	1406	SCS215b	733725.350268	733725.361067	8	0.013328	60	10	60-180	60	172	GapExp	0	121	4	6	0	distractor	1	613	13.328	13.293	13.363
ProbeTrack7	26	ProbeTrack	1406	SCS215b	733725.350268	733725.361251	8	0.013328	60	10	60-180	60	100	GapExp	0	122	4	6	1	target	1	534	13.328	13.293	13.363
ProbeTrack7	26	ProbeTrack	1406	SCS215b	733725.350268	733725.361323	8	0.013328	60	10	60-180	60	110	GapExp	0	123	4	0	1	target	1	627	13.328	13.293	13.364
ProbeTrack7	26	ProbeTrack	1406	SCS215b	733725.350268	733725.361395	8	0.013328	60	10	60-180	60	108	GapExp	0	124	4	0	1	target	1	667	13.328	13.293	13.364
ProbeTrack7	26	ProbeTrack	1406	SCS215b	733725.350268	733725.361465	8	0.013328	60	10	60-180	60	83	GapExp	0	125	4	0	1	target	1	480	13.328	13.292	13.366
ProbeTrack7	26	ProbeTrack	1406	SCS215b	733725.363255	733725.363362	8	0.013328	60	10	60-180	60	64	GapPrac	1	1	3	96	1	target	1	827	13.328	13.292	13.364
ProbeTrack7	26	ProbeTrack	1406	SCS215b	733725.363255	733725.363457	8	0.013328	60	10	60-180	60	145	GapPrac	1	2	3	6	0	distractor	1	853	13.328	13.293	13.363
ProbeTrack7	26	ProbeTrack	1406	SCS215b	733725.363255	733725.363537	8	0.013328	60	10	60-180	60	75	GapPrac	1	3	3	0	0	distractor	1	667	13.328	13.293	13.363
ProbeTrack7	26	ProbeTrack	1406	SCS215b	733725.363255	733725.363604	8	0.013328	60	10	60-180	60	120	GapPrac	1	4	3	6	1	distractor	0	560	13.328	13.293	13.363
ProbeTrack7	26	ProbeTrack	1406	SCS215b	733725.363255	733725.363679	8	0.013328	60	10	60-180	60	176	GapPrac	1	5	3	3	0	target	0	653	13.328	13.293	13.363
ProbeTrack7	26	ProbeTrack	1406	SCS215b	733725.363255	733725.363759	8	0.013328	60	10	60-180	60	135	GapPrac	1	6	3	0	1	target	1	880	13.328	13.293	13.364
ProbeTrack7	26	ProbeTrack	1406	SCS215b	733725.363255	733725.363834	8	0.013328	60	10	60-180	60	87	GapPrac	1	7	3	6	0	distractor	1	707	13.328	13.291	13.363
ProbeTrack7	26	ProbeTrack	1406	SCS215b	733725.363255	733725.363902	8	0.013328	60	10	60-180	60	114	GapPrac	1	8	3	6	1	target	1	693	13.328	13.293	13.363
ProbeTrack7	26	ProbeTrack	1406	SCS215b	733725.363255	733725.363976	8	0.013328	60	10	60-180	60	148	GapPrac	1	9	3	96	0	distractor	1	573	13.328	13.290	13.367
ProbeTrack7	26	ProbeTrack	1406	SCS215b	733725.363255	733725.364067	8	0.013328	60	10	60-180	60	88	GapPrac	1	10	3	3	1	target	1	574	13.328	13.293	13.363
ProbeTrack7	26	ProbeTrack	1406	SCS215b	733725.363255	733725.364134	8	0.013328	60	10	60-180	60	120	GapPrac	1	11	3	6	1	target	1	667	13.328	13.293	13.363
ProbeTrack7	26	ProbeTrack	1406	SCS215b	733725.363255	733725.364206	8	0.013328	60	10	60-180	60	144	GapPrac	1	12	3	96	1	target	1	547	13.328	13.293	13.363
ProbeTrack7	26	ProbeTrack	1406	SCS215b	733725.363255	733725.364297	8	0.013328	60	10	60-180	60	177	GapPrac	1	13	3	0	0	target	0	627	13.328	13.293	13.366
ProbeTrack7	26	ProbeTrack	1406	SCS215b	733725.363255	733725.364377	8	0.013328	60	10	60-180	60	105	GapPrac	1	14	3	0	0	distractor	1	693	13.328	13.293	13.363
ProbeTrack7	26	ProbeTrack	1406	SCS215b	733725.363255	733725.364450	8	0.013328	60	10	60-180	60	71	GapPrac	1	15	3	96	0	distractor	1	653	13.328	13.293	13.364
ProbeTrack7	26	ProbeTrack	1406	SCS215b	733725.363255	733725.364530	8	0.013328	60	10	60-180	60	73	GapPrac	1	16	3	0	1	target	1	653	13.328	13.293	13.364
ProbeTrack7	26	ProbeTrack	1406	SCS215b	733725.363255	733725.364597	8	0.013328	60	10	60-180	60	63	GapPrac	1	17	3	6	0	distractor	1	1053	13.328	13.293	13.367
ProbeTrack7	26	ProbeTrack	1406	SCS215b	733725.363255	733725.364667	8	0.013328	60	10	60-180	60	64	GapPrac	1	18	3	3	0	distractor	1	600	13.328	13.293	13.363
ProbeTrack7	26	ProbeTrack	1406	SCS215b	733725.363255	733725.364730	8	0.013328	60	10	60-180	60	156	GapPrac	1	19	3	3	1	target	1	533	13.328	13.290	13.363
ProbeTrack7	26	ProbeTrack	1406	SCS215b	733725.363255	733725.364806	8	0.013328	60	10	60-180	60	164	GapPrac	1	20	3	96	1	target	1	613	13.328	13.293	13.364
ProbeTrack7	26	ProbeTrack	1406	SCS215b	733725.365795	733725.365902	8	0.013328	60	10	60-180	60	111	GapExp	1	1	3	0	1	target	1	747	13.328	13.293	13.363
ProbeTrack7	26	ProbeTrack	1406	SCS215b	733725.365795	733725.365982	8	0.013328	60	10	60-180	60	176	GapExp	1	2	3	96	1	target	1	600	13.328	13.293	13.363
ProbeTrack7	26	ProbeTrack	1406	SCS215b	733725.365795	733725.366077	8	0.013328	60	10	60-180	60	107	GapExp	1	3	3	0	0	target	0	1266	13.328	13.293	13.363
ProbeTrack7	26	ProbeTrack	1406	SCS215b	733725.365795	733725.366163	8	0.013328	60	10	60-180	60	79	GapExp	1	4	3	3	1	target	1	573	13.328	13.293	13.363
ProbeTrack7	26	ProbeTrack	1406	SCS215b	733725.365795	733725.366260	8	0.013328	60	10	60-180	60	165	GapExp	1	5	3	3	0	target	0	560	13.328	13.293	13.365
ProbeTrack7	26	ProbeTrack	1406	SCS215b	733725.365795	733725.366341	8	0.013328	60	10	60-180	60	163	GapExp	0	6	3	0	1	distractor	0	773	13.328	13.293	13.363
ProbeTrack7	26	ProbeTrack	1406	SCS215b	733725.365795	733725.366509	8	0.013328	60	10	60-180	60	125	GapExp	0	7	3	0	0	distractor	1	640	13.328	13.293	13.364
ProbeTrack7	26	ProbeTrack	1406	SCS215b	733725.365795	733725.366582	8	0.013328	60	10	60-180	60	73	GapExp	0	8	3	6	1	target	1	587	13.328	13.293	13.363
ProbeTrack7	26	ProbeTrack	1406	SCS215b	733725.365795	733725.366647	8	0.013328	60	10	60-180	60	126	GapExp	0	9	3	96	1	target	1	587	13.328	13.292	13.363
ProbeTrack7	26	ProbeTrack	1406	SCS215b	733725.365795	733725.366737	8	0.013328	60	10	60-180	60	140	GapExp	0	10	3	96	0	distractor	1	627	13.328	13.293	13.363
ProbeTrack7	26	ProbeTrack	1406	SCS215b	733725.365795	733725.366828	8	0.013328	60	10	60-180	60	108	GapExp	0	11	3	96	1	target	1	613	13.328	13.293	13.363
ProbeTrack7	26	ProbeTrack	1406	SCS215b	733725.365795	733725.366916	8	0.013328	60	10	60-180	60	122	GapExp	0	12	3	3	1	target	1	600	13.328	13.293	13.364
ProbeTrack7	26	ProbeTrack	1406	SCS215b	733725.365795	733725.366989	8	0.013328	60	10	60-180	60	118	GapExp	0	13	3	0	0	distractor	1	1080	13.328	13.293	13.364
ProbeTrack7	26	ProbeTrack	1406	SCS215b	733725.365795	733725.367066	8	0.013328	60	10	60-180	60	133	GapExp	0	14	3	96	0	distractor	1	640	13.328	13.293	13.363
ProbeTrack7	26	ProbeTrack	1406	SCS215b	733725.365795	733725.367157	8	0.013328	60	10	60-180	60	81	GapExp	0	15	3	6	0	target	0	600	13.328	13.293	13.363
ProbeTrack7	26	ProbeTrack	1406	SCS215b	733725.365795	733725.367224	8	0.013328	60	10	60-180	60	140	GapExp	0	16	3	6	0	target	0	587	13.328	13.293	13.363
ProbeTrack7	26	ProbeTrack	1406	SCS215b	733725.365795	733725.367300	8	0.013328	60	10	60-180	60	175	GapExp	0	17	3	0	1	target	1	867	13.328	13.293	13.364
ProbeTrack7	26	ProbeTrack	1406	SCS215b	733725.365795	733725.367386	8	0.013328	60	10	60-180	60	161	GapExp	0	18	3	96	1	target	1	1040	13.328	13.292	13.364
ProbeTrack7	26	ProbeTrack	1406	SCS215b	733725.365795	733725.367495	8	0.013328	60	10	60-180	60	110	GapExp	0	19	3	3	1	target	1	973	13.328	13.293	13.363
ProbeTrack7	26	ProbeTrack	1406	SCS215b	733725.365795	733725.367571	8	0.013328	60	10	60-180	60	68	GapExp	0	20	3	0	0	target	0	800	13.328	13.293	13.363
ProbeTrack7	26	ProbeTrack	1406	SCS215b	733725.365795	733725.367639	8	0.013328	60	10	60-180	60	146	GapExp	0	21	3	3	1	target	1	627	13.328	13.293	13.363
ProbeTrack7	26	ProbeTrack	1406	SCS215b	733725.365795	733725.367719	8	0.013328	60	10	60-180	60	136	GapExp	0	22	3	3	1	target	1	493	13.328	13.293	13.363
ProbeTrack7	26	ProbeTrack	1406	SCS215b	733725.365795	733725.367796	8	0.013328	60	10	60-180	60	109	GapExp	0	23	3	3	0	target	0	414	13.328	13.293	13.364
ProbeTrack7	26	ProbeTrack	1406	SCS215b	733725.365795	733725.367867	8	0.013328	60	10	60-180	60	150	GapExp	0	24	3	3	1	target	1	493	13.328	13.293	13.363
ProbeTrack7	26	ProbeTrack	1406	SCS215b	733725.365795	733725.367942	8	0.013328	60	10	60-180	60	111	GapExp	0	25	3	0	1	target	1	533	13.328	13.293	13.363
ProbeTrack7	26	ProbeTrack	1406	SCS215b	733725.365795	733725.368011	8	0.013328	60	10	60-180	60	172	GapExp	0	26	3	3	0	distractor	1	627	13.328	13.289	13.368
ProbeTrack7	26	ProbeTrack	1406	SCS215b	733725.365795	733725.368096	8	0.013328	60	10	60-180	60	125	GapExp	0	27	3	6	1	target	1	467	13.328	13.293	13.363
ProbeTrack7	26	ProbeTrack	1406	SCS215b	733725.365795	733725.368180	8	0.013328	60	10	60-180	60	148	GapExp	0	28	3	3	1	distractor	0	613	13.328	13.293	13.363
ProbeTrack7	26	ProbeTrack	1406	SCS215b	733725.365795	733725.368298	8	0.013328	60	10	60-180	60	79	GapExp	0	29	3	6	0	target	0	600	13.328	13.293	13.363
ProbeTrack7	26	ProbeTrack	1406	SCS215b	733725.365795	733725.368366	8	0.013328	60	10	60-180	60	117	GapExp	0	30	3	0	1	target	1	547	13.328	13.293	13.363
ProbeTrack7	26	ProbeTrack	1406	SCS215b	733725.365795	733725.368440	8	0.013328	60	10	60-180	60	144	GapExp	0	31	3	0	1	distractor	0	973	13.328	13.293	13.366
ProbeTrack7	26	ProbeTrack	1406	SCS215b	733725.365795	733725.368521	8	0.013328	60	10	60-180	60	96	GapExp	0	32	3	6	1	target	1	480	13.328	13.293	13.363
ProbeTrack7	26	ProbeTrack	1406	SCS215b	733725.365795	733725.368588	8	0.013328	60	10	60-180	60	90	GapExp	0	33	3	96	0	target	0	827	13.328	13.293	13.363
ProbeTrack7	26	ProbeTrack	1406	SCS215b	733725.365795	733725.368673	8	0.013328	60	10	60-180	60	147	GapExp	0	34	3	6	0	target	0	507	13.328	13.293	13.363
ProbeTrack7	26	ProbeTrack	1406	SCS215b	733725.365795	733725.368747	8	0.013328	60	10	60-180	60	115	GapExp	0	35	3	6	1	target	1	413	13.328	13.293	13.363
ProbeTrack7	26	ProbeTrack	1406	SCS215b	733725.365795	733725.368817	8	0.013328	60	10	60-180	60	158	GapExp	0	36	3	6	0	distractor	1	733	13.328	13.292	13.363
ProbeTrack7	26	ProbeTrack	1406	SCS215b	733725.365795	733725.369526	8	0.013328	60	10	60-180	60	76	GapExp	0	37	3	0	0	target	0	507	13.328	13.293	13.367
ProbeTrack7	26	ProbeTrack	1406	SCS215b	733725.365795	733725.369590	8	0.013328	60	10	60-180	60	68	GapExp	0	38	3	3	0	distractor	1	773	13.328	13.293	13.363
ProbeTrack7	26	ProbeTrack	1406	SCS215b	733725.365795	733725.369662	8	0.013328	60	10	60-180	60	66	GapExp	0	39	3	0	0	target	0	533	13.328	13.293	13.364
ProbeTrack7	26	ProbeTrack	1406	SCS215b	733725.365795	733725.369722	8	0.013328	60	10	60-180	60	160	GapExp	0	40	3	6	1	distractor	0	867	13.328	13.290	13.366
ProbeTrack7	26	ProbeTrack	1406	SCS215b	733725.365795	733725.369806	8	0.013328	60	10	60-180	60	107	GapExp	0	41	3	96	1	target	1	587	13.328	13.293	13.364
ProbeTrack7	26	ProbeTrack	1406	SCS215b	733725.365795	733725.370039	8	0.013328	60	10	60-180	60	118	GapExp	0	42	3	3	0	target	0	933	13.328	13.293	13.363
ProbeTrack7	26	ProbeTrack	1406	SCS215b	733725.365795	733725.370114	8	0.013328	60	10	60-180	60	154	GapExp	0	43	3	96	1	target	1	640	13.328	13.293	13.363
ProbeTrack7	26	ProbeTrack	1406	SCS215b	733725.365795	733725.370204	8	0.013328	60	10	60-180	60	172	GapExp	0	44	3	96	1	target	1	627	13.328	13.293	13.367
ProbeTrack7	26	ProbeTrack	1406	SCS215b	733725.365795	733725.370297	8	0.013328	60	10	60-180	60	147	GapExp	0	45	3	0	1	target	1	573	13.328	13.289	13.363
ProbeTrack7	26	ProbeTrack	1406	SCS215b	733725.365795	733725.370372	8	0.013328	60	10	60-180	60	95	GapExp	0	46	3	3	0	distractor	1	773	13.328	13.293	13.363
ProbeTrack7	26	ProbeTrack	1406	SCS215b	733725.365795	733725.370442	8	0.013328	60	10	60-180	60	113	GapExp	0	47	3	96	1	target	1	480	13.328	13.293	13.363
ProbeTrack7	26	ProbeTrack	1406	SCS215b	733725.365795	733725.370525	8	0.013328	60	10	60-180	60	174	GapExp	0	48	3	96	1	target	1	520	13.328	13.293	13.363
ProbeTrack7	26	ProbeTrack	1406	SCS215b	733725.365795	733725.370617	8	0.013328	60	10	60-180	60	77	GapExp	0	49	3	0	0	target	0	454	13.328	13.293	13.363
ProbeTrack7	26	ProbeTrack	1406	SCS215b	733725.365795	733725.370680	8	0.013328	60	10	60-180	60	67	GapExp	0	50	3	6	1	target	1	374	13.328	13.293	13.363
ProbeTrack7	26	ProbeTrack	1406	SCS215b	733725.365795	733725.370739	8	0.013328	60	10	60-180	60	171	GapExp	0	51	3	6	1	target	1	733	13.328	13.248	13.408
ProbeTrack7	26	ProbeTrack	1406	SCS215b	733725.365795	733725.370821	8	0.013328	60	10	60-180	60	162	GapExp	0	52	3	0	1	target	1	680	13.328	13.293	13.367
ProbeTrack7	26	ProbeTrack	1406	SCS215b	733725.365795	733725.370898	8	0.013328	60	10	60-180	60	108	GapExp	0	53	3	96	1	target	1	587	13.328	13.292	13.363
ProbeTrack7	26	ProbeTrack	1406	SCS215b	733725.365795	733725.370981	8	0.013328	60	10	60-180	60	150	GapExp	0	54	3	0	1	target	1	1160	13.328	13.293	13.363
ProbeTrack7	26	ProbeTrack	1406	SCS215b	733725.365795	733725.371073	8	0.013328	60	10	60-180	60	157	GapExp	0	55	3	0	1	target	1	480	13.328	13.294	13.363
ProbeTrack7	26	ProbeTrack	1406	SCS215b	733725.365795	733725.371147	8	0.013328	60	10	60-180	60	174	GapExp	0	56	3	3	1	target	1	413	13.328	13.293	13.363
ProbeTrack7	26	ProbeTrack	1406	SCS215b	733725.365795	733725.371226	8	0.013328	60	10	60-180	60	91	GapExp	0	57	3	96	0	distractor	1	760	13.328	13.293	13.366
ProbeTrack7	26	ProbeTrack	1406	SCS215b	733725.365795	733725.371309	8	0.013328	60	10	60-180	60	176	GapExp	0	58	3	3	1	target	1	520	13.328	13.293	13.363
ProbeTrack7	26	ProbeTrack	1406	SCS215b	733725.365795	733725.371386	8	0.013328	60	10	60-180	60	166	GapExp	0	59	3	3	0	distractor	1	1173	13.328	13.293	13.363
ProbeTrack7	26	ProbeTrack	1406	SCS215b	733725.365795	733725.371470	8	0.013328	60	10	60-180	60	96	GapExp	0	60	3	96	1	target	1	400	13.328	13.293	13.363
ProbeTrack7	26	ProbeTrack	1406	SCS215b	733725.365795	733725.371549	8	0.013328	60	10	60-180	60	106	GapExp	0	61	3	3	0	distractor	1	693	13.328	13.293	13.364
ProbeTrack7	26	ProbeTrack	1406	SCS215b	733725.365795	733725.371618	8	0.013328	60	10	60-180	60	117	GapExp	0	62	3	96	1	target	1	440	13.328	13.293	13.363
ProbeTrack7	26	ProbeTrack	1406	SCS215b	733725.365795	733725.371701	8	0.013328	60	10	60-180	60	116	GapExp	0	63	3	6	1	target	1	400	13.328	13.290	13.366
ProbeTrack7	26	ProbeTrack	1406	SCS215b	733725.365795	733725.371768	8	0.013328	60	10	60-180	60	122	GapExp	0	64	3	6	0	target	0	453	13.328	13.292	13.363
ProbeTrack7	26	ProbeTrack	1406	SCS215b	733725.365795	733725.371837	8	0.013328	60	10	60-180	60	70	GapExp	0	65	3	0	0	target	0	640	13.328	13.293	13.363
ProbeTrack7	26	ProbeTrack	1406	SCS215b	733725.365795	733725.371899	8	0.013328	60	10	60-180	60	147	GapExp	0	66	3	0	0	target	0	560	13.328	13.293	13.363
ProbeTrack7	26	ProbeTrack	1406	SCS215b	733725.365795	733725.371973	8	0.013328	60	10	60-180	60	180	GapExp	0	67	3	96	1	target	1	613	13.328	13.293	13.363
ProbeTrack7	26	ProbeTrack	1406	SCS215b	733725.365795	733725.372068	8	0.013328	60	10	60-180	60	127	GapExp	0	68	3	0	0	distractor	1	653	13.328	13.293	13.366
ProbeTrack7	26	ProbeTrack	1406	SCS215b	733725.365795	733725.372140	8	0.013328	60	10	60-180	60	88	GapExp	0	69	3	3	0	distractor	1	627	13.328	13.292	13.363
ProbeTrack7	26	ProbeTrack	1406	SCS215b	733725.365795	733725.372206	8	0.013328	60	10	60-180	60	75	GapExp	0	70	3	3	1	target	1	480	13.328	13.293	13.364
ProbeTrack7	26	ProbeTrack	1406	SCS215b	733725.365795	733725.372269	8	0.013328	60	10	60-180	60	101	GapExp	0	71	3	3	0	distractor	1	627	13.328	13.267	13.388
ProbeTrack7	26	ProbeTrack	1406	SCS215b	733725.365795	733725.372337	8	0.013328	60	10	60-180	60	124	GapExp	0	72	3	6	1	target	1	454	13.328	13.293	13.363
ProbeTrack7	26	ProbeTrack	1406	SCS215b	733725.365795	733725.372406	8	0.013328	60	10	60-180	60	144	GapExp	0	73	3	3	0	distractor	1	853	13.328	13.293	13.363
ProbeTrack7	26	ProbeTrack	1406	SCS215b	733725.365795	733725.372484	8	0.013328	60	10	60-180	60	136	GapExp	0	74	3	6	1	target	1	453	13.328	13.293	13.367
ProbeTrack7	26	ProbeTrack	1406	SCS215b	733725.365795	733725.372556	8	0.013328	60	10	60-180	60	172	GapExp	0	75	3	6	0	target	0	547	13.328	13.293	13.363
ProbeTrack7	26	ProbeTrack	1406	SCS215b	733725.365795	733725.372635	8	0.013328	60	10	60-180	60	138	GapExp	0	76	3	3	0	target	0	533	13.328	13.289	13.367
ProbeTrack7	26	ProbeTrack	1406	SCS215b	733725.365795	733725.372708	8	0.013328	60	10	60-180	60	150	GapExp	0	77	3	0	0	distractor	1	494	13.328	13.293	13.363
ProbeTrack7	26	ProbeTrack	1406	SCS215b	733725.365795	733725.372782	8	0.013328	60	10	60-180	60	144	GapExp	0	78	3	3	1	target	1	427	13.328	13.293	13.363
ProbeTrack7	26	ProbeTrack	1406	SCS215b	733725.365795	733725.372854	8	0.013328	60	10	60-180	60	100	GapExp	0	79	3	96	0	distractor	1	653	13.328	13.293	13.363
ProbeTrack7	26	ProbeTrack	1406	SCS215b	733725.365795	733725.372937	8	0.013328	60	10	60-180	60	110	GapExp	0	80	3	96	0	distractor	1	773	13.328	13.293	13.363
ProbeTrack7	26	ProbeTrack	1406	SCS215b	733725.365795	733725.373022	8	0.013328	60	10	60-180	60	96	GapExp	0	81	3	96	1	target	1	467	13.328	13.289	13.366
ProbeTrack7	26	ProbeTrack	1406	SCS215b	733725.365795	733725.373102	8	0.013328	60	10	60-180	60	114	GapExp	0	82	3	3	1	target	1	440	13.328	13.293	13.363
ProbeTrack7	26	ProbeTrack	1406	SCS215b	733725.365795	733725.373171	8	0.013328	60	10	60-180	60	170	GapExp	0	83	3	96	0	distractor	1	627	13.328	13.293	13.364
ProbeTrack7	26	ProbeTrack	1406	SCS215b	733725.365795	733725.373266	8	0.013328	60	10	60-180	60	100	GapExp	0	84	3	96	0	target	0	720	13.328	13.289	13.366
ProbeTrack7	26	ProbeTrack	1406	SCS215b	733725.365795	733725.373387	8	0.013328	60	10	60-180	60	81	GapExp	0	85	3	0	1	target	1	520	13.328	13.293	13.365
ProbeTrack7	26	ProbeTrack	1406	SCS215b	733725.365795	733725.373451	8	0.013328	60	10	60-180	60	150	GapExp	0	86	3	3	1	target	1	507	13.328	13.293	13.364
ProbeTrack7	26	ProbeTrack	1406	SCS215b	733725.365795	733725.373525	8	0.013328	60	10	60-180	60	103	GapExp	0	87	3	3	0	distractor	1	547	13.328	13.293	13.363
ProbeTrack7	26	ProbeTrack	1406	SCS215b	733725.365795	733725.373592	8	0.013328	60	10	60-180	60	70	GapExp	0	88	3	96	0	target	0	467	13.328	13.293	13.363
ProbeTrack7	26	ProbeTrack	1406	SCS215b	733725.365795	733725.373667	8	0.013328	60	10	60-180	60	148	GapExp	0	89	3	6	0	distractor	1	587	13.328	13.293	13.363
ProbeTrack7	26	ProbeTrack	1406	SCS215b	733725.365795	733725.373742	8	0.013328	60	10	60-180	60	128	GapExp	0	90	3	0	1	distractor	0	573	13.328	13.293	13.363
ProbeTrack7	26	ProbeTrack	1406	SCS215b	733725.365795	733725.373813	8	0.013328	60	10	60-180	60	152	GapExp	0	91	3	6	0	distractor	1	640	13.328	13.293	13.364
ProbeTrack7	26	ProbeTrack	1406	SCS215b	733725.365795	733725.373892	8	0.013328	60	10	60-180	60	179	GapExp	0	92	3	96	1	distractor	0	640	13.328	13.293	13.364
ProbeTrack7	26	ProbeTrack	1406	SCS215b	733725.365795	733725.373987	8	0.013328	60	10	60-180	60	88	GapExp	0	93	3	3	0	distractor	1	813	13.328	13.293	13.363
ProbeTrack7	26	ProbeTrack	1406	SCS215b	733725.365795	733725.374055	8	0.013328	60	10	60-180	60	107	GapExp	0	94	3	0	1	target	1	640	13.328	13.293	13.363
ProbeTrack7	26	ProbeTrack	1406	SCS215b	733725.365795	733725.374123	8	0.013328	60	10	60-180	60	110	GapExp	0	95	3	96	0	distractor	1	613	13.328	13.293	13.363
ProbeTrack7	26	ProbeTrack	1406	SCS215b	733725.365795	733725.374207	8	0.013328	60	10	60-180	60	169	GapExp	0	96	3	6	1	target	1	1013	13.328	13.293	13.363
ProbeTrack7	26	ProbeTrack	1406	SCS215b	733725.365795	733725.374290	8	0.013328	60	10	60-180	60	64	GapExp	0	97	3	6	0	distractor	1	640	13.328	13.293	13.363
ProbeTrack7	26	ProbeTrack	1406	SCS215b	733725.365795	733725.374353	8	0.013328	60	10	60-180	60	82	GapExp	0	98	3	6	0	distractor	1	747	13.328	13.293	13.364
ProbeTrack7	26	ProbeTrack	1406	SCS215b	733725.365795	733725.374419	8	0.013328	60	10	60-180	60	148	GapExp	0	99	3	6	1	target	1	454	13.328	13.294	13.363
ProbeTrack7	26	ProbeTrack	1406	SCS215b	733725.365795	733725.374504	8	0.013328	60	10	60-180	60	147	GapExp	0	100	3	3	1	target	1	707	13.328	13.293	13.363
ProbeTrack7	26	ProbeTrack	1406	SCS215b	733725.365795	733725.374581	8	0.013328	60	10	60-180	60	157	GapExp	0	101	3	96	0	distractor	1	840	13.328	13.293	13.363
ProbeTrack7	26	ProbeTrack	1406	SCS215b	733725.365795	733725.374675	8	0.013328	60	10	60-180	60	172	GapExp	0	102	3	0	0	distractor	1	827	13.328	13.291	13.364
ProbeTrack7	26	ProbeTrack	1406	SCS215b	733725.365795	733725.374755	8	0.013328	60	10	60-180	60	143	GapExp	0	103	3	96	0	distractor	1	667	13.328	13.293	13.364
ProbeTrack7	26	ProbeTrack	1406	SCS215b	733725.365795	733725.374853	8	0.013328	60	10	60-180	60	113	GapExp	0	104	3	6	1	distractor	0	773	13.328	13.293	13.363
ProbeTrack7	26	ProbeTrack	1406	SCS215b	733725.365795	733725.374924	8	0.013328	60	10	60-180	60	108	GapExp	0	105	3	6	1	target	1	547	13.328	13.293	13.363
ProbeTrack7	26	ProbeTrack	1406	SCS215b	733725.365795	733725.374993	8	0.013328	60	10	60-180	60	101	GapExp	0	106	3	6	0	distractor	1	773	13.328	13.293	13.363
ProbeTrack7	26	ProbeTrack	1406	SCS215b	733725.365795	733725.375063	8	0.013328	60	10	60-180	60	173	GapExp	0	107	3	6	0	distractor	1	480	13.328	13.290	13.363
ProbeTrack7	26	ProbeTrack	1406	SCS215b	733725.365795	733725.375141	8	0.013328	60	10	60-180	60	124	GapExp	0	108	3	0	0	distractor	1	573	13.328	13.293	13.364
ProbeTrack7	26	ProbeTrack	1406	SCS215b	733725.365795	733725.375211	8	0.013328	60	10	60-180	60	175	GapExp	0	109	3	3	1	target	1	427	13.328	13.293	13.364
ProbeTrack7	26	ProbeTrack	1406	SCS215b	733725.365795	733725.375287	8	0.013328	60	10	60-180	60	143	GapExp	0	110	3	0	0	distractor	1	600	13.328	13.293	13.363
ProbeTrack7	26	ProbeTrack	1406	SCS215b	733725.365795	733725.375376	8	0.013328	60	10	60-180	60	118	GapExp	0	111	3	0	0	distractor	1	627	13.328	13.293	13.364
ProbeTrack7	26	ProbeTrack	1406	SCS215b	733725.365795	733725.375447	8	0.013328	60	10	60-180	60	70	GapExp	0	112	3	0	1	distractor	0	747	13.328	13.293	13.364
ProbeTrack7	26	ProbeTrack	1406	SCS215b	733725.365795	733725.375511	8	0.013328	60	10	60-180	60	62	GapExp	0	113	3	6	0	distractor	1	707	13.328	13.293	13.363
ProbeTrack7	26	ProbeTrack	1406	SCS215b	733725.365795	733725.375574	8	0.013328	60	10	60-180	60	105	GapExp	0	114	3	96	0	distractor	1	533	13.328	13.293	13.364
ProbeTrack7	26	ProbeTrack	1406	SCS215b	733725.365795	733725.375655	8	0.013328	60	10	60-180	60	156	GapExp	0	115	3	3	0	distractor	1	560	13.328	13.293	13.363
ProbeTrack7	26	ProbeTrack	1406	SCS215b	733725.365795	733725.375730	8	0.013328	60	10	60-180	60	146	GapExp	0	116	3	0	1	target	1	1133	13.328	13.293	13.363
ProbeTrack7	26	ProbeTrack	1406	SCS215b	733725.365795	733725.375810	8	0.013328	60	10	60-180	60	168	GapExp	0	117	3	6	0	distractor	1	507	13.328	13.293	13.363
ProbeTrack7	26	ProbeTrack	1406	SCS215b	733725.365795	733725.375888	8	0.013328	60	10	60-180	60	178	GapExp	0	118	3	3	1	target	1	773	13.328	13.293	13.363
ProbeTrack7	26	ProbeTrack	1406	SCS215b	733725.365795	733725.375970	8	0.013328	60	10	60-180	60	120	GapExp	0	119	3	96	0	target	0	707	13.328	13.293	13.364
ProbeTrack7	26	ProbeTrack	1406	SCS215b	733725.365795	733725.376058	8	0.013328	60	10	60-180	60	66	GapExp	0	120	3	3	0	distractor	1	1146	13.328	13.293	13.363
ProbeTrack7	26	ProbeTrack	1406	SCS215b	733725.365795	733725.376126	8	0.013328	60	10	60-180	60	139	GapExp	0	121	3	96	0	distractor	1	653	13.328	13.293	13.363
ProbeTrack7	26	ProbeTrack	1406	SCS215b	733725.365795	733725.376215	8	0.013328	60	10	60-180	60	74	GapExp	0	122	3	96	1	target	1	667	13.328	13.293	13.363
ProbeTrack7	26	ProbeTrack	1406	SCS215b	733725.365795	733725.376293	8	0.013328	60	10	60-180	60	122	GapExp	0	123	3	6	1	target	1	627	13.328	13.293	13.364
ProbeTrack7	26	ProbeTrack	1406	SCS215b	733725.365795	733725.376365	8	0.013328	60	10	60-180	60	114	GapExp	0	124	3	0	0	distractor	1	560	13.328	13.293	13.363
ProbeTrack7	26	ProbeTrack	1406	SCS215b	733725.365795	733725.376435	8	0.013328	60	10	60-180	60	114	GapExp	0	125	3	0	1	target	1	453	13.328	13.293	13.364
