exp	sub	code	rev	comp	runtime	trialtime	nstim	refreshdur	cuedur	gapdur	gapOnsetRange	durPostProbe	gapOnsetTime	blocktype	prac	trial	ntargets	soa	probeTarget	resp	acc	rt	meanFrameDur	minFrameDur	maxFrameDur
ProbeTrack7	7	ProbeTrack	1406	SCS215a	733716.343433	733716.343987	8	0.013327	60	0	60-180	60	161	NoGap	1	1	4	0	1	target	1	933	13.328	13.293	13.363
ProbeTrack7	7	ProbeTrack	1406	SCS215a	733716.343433	733716.344101	8	0.013327	60	0	60-180	60	102	NoGap	1	2	4	6	1	distractor	0	920	13.328	13.293	13.362
ProbeTrack7	7	ProbeTrack	1406	SCS215a	733716.343433	733716.344232	8	0.013327	60	0	60-180	60	115	NoGap	1	3	4	3	1	target	1	493	13.328	13.293	13.363
ProbeTrack7	7	ProbeTrack	1406	SCS215a	733716.343433	733716.344326	8	0.013327	60	0	60-180	60	99	NoGap	1	4	4	3	1	target	1	560	13.328	13.293	13.363
ProbeTrack7	7	ProbeTrack	1406	SCS215a	733716.343433	733716.344425	8	0.013327	60	0	60-180	60	82	NoGap	1	5	4	6	1	target	1	480	13.328	13.289	13.367
ProbeTrack7	7	ProbeTrack	1406	SCS215a	733716.343433	733716.344521	8	0.013327	60	0	60-180	60	118	NoGap	1	6	4	3	0	target	0	360	13.328	13.289	13.365
ProbeTrack7	7	ProbeTrack	1406	SCS215a	733716.343433	733716.344621	8	0.013327	60	0	60-180	60	138	NoGap	1	7	4	96	0	target	0	453	13.328	13.293	13.363
ProbeTrack7	7	ProbeTrack	1406	SCS215a	733716.343433	733716.344712	8	0.013327	60	0	60-180	60	145	NoGap	1	8	4	3	0	distractor	1	760	13.328	13.293	13.363
ProbeTrack7	7	ProbeTrack	1406	SCS215a	733716.343433	733716.344822	8	0.013327	60	0	60-180	60	89	NoGap	1	9	4	96	1	target	1	733	13.328	13.293	13.363
ProbeTrack7	7	ProbeTrack	1406	SCS215a	733716.343433	733716.344906	8	0.013327	60	0	60-180	60	143	NoGap	1	10	4	0	0	distractor	1	520	13.328	13.293	13.363
ProbeTrack7	7	ProbeTrack	1406	SCS215a	733716.343433	733716.344999	8	0.013327	60	0	60-180	60	83	NoGap	1	11	4	3	0	distractor	1	747	13.328	13.293	13.363
ProbeTrack7	7	ProbeTrack	1406	SCS215a	733716.343433	733716.345094	8	0.013327	60	0	60-180	60	89	NoGap	1	12	4	6	1	target	1	613	13.328	13.293	13.363
ProbeTrack7	7	ProbeTrack	1406	SCS215a	733716.343433	733716.345190	8	0.013327	60	0	60-180	60	147	NoGap	1	13	4	0	1	distractor	0	640	13.328	13.293	13.363
ProbeTrack7	7	ProbeTrack	1406	SCS215a	733716.343433	733716.345294	8	0.013327	60	0	60-180	60	176	NoGap	1	14	4	0	1	target	1	520	13.328	13.293	13.363
ProbeTrack7	7	ProbeTrack	1406	SCS215a	733716.343433	733716.345370	8	0.013327	60	0	60-180	60	105	NoGap	1	15	4	3	1	target	1	573	13.328	13.293	13.363
ProbeTrack7	7	ProbeTrack	1406	SCS215a	733716.343433	733716.345446	8	0.013327	60	0	60-180	60	102	NoGap	1	16	4	96	0	distractor	1	693	13.328	13.292	13.363
ProbeTrack7	7	ProbeTrack	1406	SCS215a	733716.343433	733716.345557	8	0.013327	60	0	60-180	60	157	NoGap	1	17	4	0	1	target	1	427	13.328	13.230	13.426
ProbeTrack7	7	ProbeTrack	1406	SCS215a	733716.343433	733716.345656	8	0.013327	60	0	60-180	60	134	NoGap	1	18	4	96	1	distractor	0	600	13.328	13.292	13.363
ProbeTrack7	7	ProbeTrack	1406	SCS215a	733716.343433	733716.345767	8	0.013327	60	0	60-180	60	107	NoGap	1	19	4	0	0	distractor	1	707	13.328	13.293	13.363
ProbeTrack7	7	ProbeTrack	1406	SCS215a	733716.343433	733716.345833	8	0.013327	60	0	60-180	60	125	NoGap	1	20	4	6	0	distractor	1	640	13.328	13.293	13.363
ProbeTrack7	7	ProbeTrack	1406	SCS215a	733716.343433	733716.345930	8	0.013327	60	0	60-180	60	70	NoGap	1	21	4	0	0	target	0	520	13.328	13.293	13.363
ProbeTrack7	7	ProbeTrack	1406	SCS215a	733716.343433	733716.346007	8	0.013327	60	0	60-180	60	165	NoGap	1	22	4	96	0	distractor	1	600	13.328	13.293	13.364
ProbeTrack7	7	ProbeTrack	1406	SCS215a	733716.343433	733716.346104	8	0.013327	60	0	60-180	60	121	NoGap	1	23	4	6	1	distractor	0	520	13.328	13.293	13.363
ProbeTrack7	7	ProbeTrack	1406	SCS215a	733716.343433	733716.346194	8	0.013327	60	0	60-180	60	106	NoGap	1	24	4	6	0	distractor	1	3052	13.328	13.293	13.363
ProbeTrack7	7	ProbeTrack	1406	SCS215a	733716.343433	733716.346304	8	0.013327	60	0	60-180	60	80	NoGap	1	25	4	96	1	target	1	547	13.328	13.293	13.363
ProbeTrack7	7	ProbeTrack	1406	SCS215a	733716.343433	733716.346409	8	0.013327	60	0	60-180	60	153	NoGap	1	26	4	6	0	distractor	1	613	13.328	13.293	13.363
ProbeTrack7	7	ProbeTrack	1406	SCS215a	733716.343433	733716.346506	8	0.013327	60	0	60-180	60	139	NoGap	1	27	4	96	0	target	0	547	13.328	13.293	13.363
ProbeTrack7	7	ProbeTrack	1406	SCS215a	733716.343433	733716.346618	8	0.013327	60	0	60-180	60	130	NoGap	1	28	4	6	1	target	1	773	13.328	13.293	13.363
ProbeTrack7	7	ProbeTrack	1406	SCS215a	733716.343433	733716.346700	8	0.013327	60	0	60-180	60	147	NoGap	1	29	4	96	1	target	1	747	13.328	13.293	13.363
ProbeTrack7	7	ProbeTrack	1406	SCS215a	733716.343433	733716.346820	8	0.013327	60	0	60-180	60	80	NoGap	1	30	4	96	0	distractor	1	534	13.328	13.292	13.363
ProbeTrack7	7	ProbeTrack	1406	SCS215a	733716.343433	733716.346908	8	0.013327	60	0	60-180	60	68	NoGap	1	31	4	0	0	distractor	1	733	13.328	13.293	13.363
ProbeTrack7	7	ProbeTrack	1406	SCS215a	733716.343433	733716.346982	8	0.013327	60	0	60-180	60	136	NoGap	1	32	4	96	0	distractor	1	573	13.328	13.292	13.363
ProbeTrack7	7	ProbeTrack	1406	SCS215a	733716.343433	733716.347077	8	0.013327	60	0	60-180	60	163	NoGap	1	33	4	0	0	distractor	1	573	13.328	13.292	13.367
ProbeTrack7	7	ProbeTrack	1406	SCS215a	733716.343433	733716.347170	8	0.013327	60	0	60-180	60	71	NoGap	1	34	4	6	0	distractor	1	680	13.328	13.293	13.363
ProbeTrack7	7	ProbeTrack	1406	SCS215a	733716.343433	733716.347253	8	0.013327	60	0	60-180	60	147	NoGap	1	35	4	0	1	target	1	480	13.328	13.293	13.363
ProbeTrack7	7	ProbeTrack	1406	SCS215a	733716.343433	733716.347350	8	0.013327	60	0	60-180	60	152	NoGap	1	36	4	3	0	target	0	560	13.328	13.293	13.363
ProbeTrack7	7	ProbeTrack	1406	SCS215a	733716.343433	733716.347428	8	0.013327	60	0	60-180	60	112	NoGap	1	37	4	3	1	target	1	920	13.328	13.292	13.363
ProbeTrack7	7	ProbeTrack	1406	SCS215a	733716.343433	733716.347504	8	0.013327	60	0	60-180	60	91	NoGap	1	38	4	3	1	target	1	507	13.328	13.292	13.363
ProbeTrack7	7	ProbeTrack	1406	SCS215a	733716.343433	733716.347574	8	0.013327	60	0	60-180	60	107	NoGap	1	39	4	6	0	distractor	1	467	13.328	13.293	13.363
ProbeTrack7	7	ProbeTrack	1406	SCS215a	733716.343433	733716.347647	8	0.013327	60	0	60-180	60	146	NoGap	1	40	4	6	1	target	1	733	13.328	13.292	13.363
ProbeTrack7	7	ProbeTrack	1406	SCS215a	733716.343433	733716.347727	8	0.013327	60	0	60-180	60	148	NoGap	1	41	4	3	0	distractor	1	587	13.328	13.293	13.363
ProbeTrack7	7	ProbeTrack	1406	SCS215a	733716.343433	733716.347809	8	0.013327	60	0	60-180	60	114	NoGap	1	42	4	0	0	distractor	1	640	13.328	13.293	13.363
ProbeTrack7	7	ProbeTrack	1406	SCS215a	733716.343433	733716.347888	8	0.013327	60	0	60-180	60	84	NoGap	1	43	4	3	0	distractor	1	733	13.328	13.293	13.363
ProbeTrack7	7	ProbeTrack	1406	SCS215a	733716.343433	733716.347958	8	0.013327	60	0	60-180	60	133	NoGap	1	44	4	96	1	target	1	680	13.328	13.292	13.363
ProbeTrack7	7	ProbeTrack	1406	SCS215a	733716.343433	733716.348054	8	0.013327	60	0	60-180	60	134	NoGap	1	45	4	3	1	target	1	533	13.328	13.293	13.363
ProbeTrack7	7	ProbeTrack	1406	SCS215a	733716.343433	733716.348130	8	0.013327	60	0	60-180	60	122	NoGap	1	46	4	3	1	target	1	453	13.328	13.293	13.363
ProbeTrack7	7	ProbeTrack	1406	SCS215a	733716.343433	733716.348209	8	0.013327	60	0	60-180	60	157	NoGap	1	47	4	0	1	target	1	454	13.328	13.293	13.363
ProbeTrack7	7	ProbeTrack	1406	SCS215a	733716.343433	733716.348286	8	0.013327	60	0	60-180	60	66	NoGap	1	48	4	96	1	distractor	0	427	13.328	13.291	13.363
ProbeTrack7	7	ProbeTrack	1406	SCS215a	733716.343433	733716.348364	8	0.013327	60	0	60-180	60	65	NoGap	1	49	4	6	1	target	1	427	13.328	13.293	13.363
ProbeTrack7	7	ProbeTrack	1406	SCS215a	733716.343433	733716.348426	8	0.013327	60	0	60-180	60	107	NoGap	1	50	4	3	0	target	0	400	13.328	13.293	13.363
ProbeTrack7	7	ProbeTrack	1406	SCS215a	733716.349040	733716.349109	8	0.013327	60	10	60-180	60	135	GapPrac	1	1	3	3	1	target	1	520	13.328	13.293	13.363
ProbeTrack7	7	ProbeTrack	1406	SCS215a	733716.349040	733716.349403	8	0.013327	60	10	60-180	60	125	GapPrac	1	2	3	96	0	target	0	467	13.328	13.289	13.363
ProbeTrack7	7	ProbeTrack	1406	SCS215a	733716.349040	733716.349573	8	0.013327	60	10	60-180	60	115	GapPrac	1	3	3	0	0	target	0	1306	13.328	13.293	13.363
ProbeTrack7	7	ProbeTrack	1406	SCS215a	733716.349040	733716.349656	8	0.013327	60	10	60-180	60	87	GapPrac	1	4	3	6	0	target	0	400	13.328	13.293	13.363
ProbeTrack7	7	ProbeTrack	1406	SCS215a	733716.349040	733716.349737	8	0.013327	60	10	60-180	60	176	GapPrac	1	5	3	3	0	distractor	1	520	13.328	13.293	13.363
ProbeTrack7	7	ProbeTrack	1406	SCS215a	733716.349040	733716.349818	8	0.013327	60	10	60-180	60	176	GapPrac	1	6	3	6	0	distractor	1	694	13.328	13.290	13.364
ProbeTrack7	7	ProbeTrack	1406	SCS215a	733716.349040	733716.349905	8	0.013327	60	10	60-180	60	110	GapPrac	1	7	3	96	1	target	1	653	13.328	13.293	13.363
ProbeTrack7	7	ProbeTrack	1406	SCS215a	733716.349040	733716.349996	8	0.013327	60	10	60-180	60	106	GapPrac	1	8	3	6	1	distractor	0	800	13.328	13.293	13.363
ProbeTrack7	7	ProbeTrack	1406	SCS215a	733716.349040	733716.350071	8	0.013327	60	10	60-180	60	88	GapPrac	1	9	3	6	0	distractor	1	760	13.328	13.292	13.363
ProbeTrack7	7	ProbeTrack	1406	SCS215a	733716.349040	733716.350139	8	0.013327	60	10	60-180	60	121	GapPrac	1	10	3	0	1	target	1	493	13.328	13.289	13.367
ProbeTrack7	7	ProbeTrack	1406	SCS215a	733716.349040	733716.350212	8	0.013327	60	10	60-180	60	180	GapPrac	1	11	3	3	1	target	1	480	13.328	13.293	13.363
ProbeTrack7	7	ProbeTrack	1406	SCS215a	733716.349040	733716.350296	8	0.013327	60	10	60-180	60	95	GapPrac	1	12	3	0	1	target	1	520	13.328	13.293	13.364
ProbeTrack7	7	ProbeTrack	1406	SCS215a	733716.349040	733716.350370	8	0.013327	60	10	60-180	60	126	GapPrac	1	13	3	96	1	target	1	480	13.328	13.293	13.363
ProbeTrack7	7	ProbeTrack	1406	SCS215a	733716.349040	733716.350461	8	0.013327	60	10	60-180	60	62	GapPrac	1	14	3	96	0	target	0	560	13.328	13.289	13.363
ProbeTrack7	7	ProbeTrack	1406	SCS215a	733716.349040	733716.350539	8	0.013327	60	10	60-180	60	131	GapPrac	1	15	3	6	1	target	1	560	13.328	13.293	13.363
ProbeTrack7	7	ProbeTrack	1406	SCS215a	733716.349040	733716.350611	8	0.013327	60	10	60-180	60	78	GapPrac	1	16	3	96	0	distractor	1	640	13.328	13.293	13.363
ProbeTrack7	7	ProbeTrack	1406	SCS215a	733716.349040	733716.350710	8	0.013327	60	10	60-180	60	176	GapPrac	1	17	3	3	0	distractor	1	640	13.328	13.293	13.363
ProbeTrack7	7	ProbeTrack	1406	SCS215a	733716.349040	733716.350801	8	0.013327	60	10	60-180	60	91	GapPrac	1	18	3	0	0	distractor	1	707	13.328	13.293	13.362
ProbeTrack7	7	ProbeTrack	1406	SCS215a	733716.349040	733716.350873	8	0.013327	60	10	60-180	60	86	GapPrac	1	19	3	0	0	target	0	827	13.328	13.292	13.363
ProbeTrack7	7	ProbeTrack	1406	SCS215a	733716.349040	733716.350943	8	0.013327	60	10	60-180	60	100	GapPrac	1	20	3	3	1	distractor	0	693	13.328	13.293	13.363
ProbeTrack7	7	ProbeTrack	1406	SCS215a	733716.352454	733716.352558	8	0.013328	60	10	60-180	60	75	GapExp	1	1	3	0	0	distractor	1	573	13.328	13.293	13.363
ProbeTrack7	7	ProbeTrack	1406	SCS215a	733716.352454	733716.352629	8	0.013328	60	10	60-180	60	70	GapExp	1	2	3	0	1	target	1	533	13.328	13.293	13.363
ProbeTrack7	7	ProbeTrack	1406	SCS215a	733716.352454	733716.352697	8	0.013328	60	10	60-180	60	74	GapExp	1	3	3	6	0	distractor	1	427	13.328	13.293	13.363
ProbeTrack7	7	ProbeTrack	1406	SCS215a	733716.352454	733716.352785	8	0.013328	60	10	60-180	60	128	GapExp	1	4	3	96	1	distractor	0	707	13.328	13.293	13.363
ProbeTrack7	7	ProbeTrack	1406	SCS215a	733716.352454	733716.352885	8	0.013328	60	10	60-180	60	168	GapExp	1	5	3	3	0	distractor	1	653	13.328	13.293	13.367
ProbeTrack7	7	ProbeTrack	1406	SCS215a	733716.352454	733716.352978	8	0.013328	60	10	60-180	60	104	GapExp	0	6	3	0	1	target	1	613	13.328	13.293	13.363
ProbeTrack7	7	ProbeTrack	1406	SCS215a	733716.352454	733716.353053	8	0.013328	60	10	60-180	60	150	GapExp	0	7	3	3	0	distractor	1	587	13.328	13.293	13.363
ProbeTrack7	7	ProbeTrack	1406	SCS215a	733716.352454	733716.353130	8	0.013328	60	10	60-180	60	163	GapExp	0	8	3	3	1	target	1	533	13.328	13.293	13.363
ProbeTrack7	7	ProbeTrack	1406	SCS215a	733716.352454	733716.353208	8	0.013328	60	10	60-180	60	155	GapExp	0	9	3	6	1	target	1	440	13.328	13.293	13.364
ProbeTrack7	7	ProbeTrack	1406	SCS215a	733716.352454	733716.353285	8	0.013328	60	10	60-180	60	163	GapExp	0	10	3	0	1	target	1	480	13.328	13.290	13.363
ProbeTrack7	7	ProbeTrack	1406	SCS215a	733716.352454	733716.353363	8	0.013328	60	10	60-180	60	180	GapExp	0	11	3	96	1	target	1	467	13.328	13.293	13.363
ProbeTrack7	7	ProbeTrack	1406	SCS215a	733716.352454	733716.353464	8	0.013328	60	10	60-180	60	172	GapExp	0	12	3	3	0	distractor	1	560	13.328	13.293	13.366
ProbeTrack7	7	ProbeTrack	1406	SCS215a	733716.352454	733716.353549	8	0.013328	60	10	60-180	60	115	GapExp	0	13	3	0	1	target	1	453	13.328	13.293	13.363
ProbeTrack7	7	ProbeTrack	1406	SCS215a	733716.352454	733716.353626	8	0.013328	60	10	60-180	60	160	GapExp	0	14	3	6	0	target	0	453	13.328	13.293	13.365
ProbeTrack7	7	ProbeTrack	1406	SCS215a	733716.352454	733716.353712	8	0.013328	60	10	60-180	60	164	GapExp	0	15	3	6	1	target	1	533	13.328	13.293	13.363
ProbeTrack7	7	ProbeTrack	1406	SCS215a	733716.352454	733716.353796	8	0.013328	60	10	60-180	60	98	GapExp	0	16	3	3	1	target	1	467	13.328	13.293	13.363
ProbeTrack7	7	ProbeTrack	1406	SCS215a	733716.352454	733716.353905	8	0.013328	60	10	60-180	60	101	GapExp	0	17	3	0	1	distractor	0	667	13.328	13.293	13.363
ProbeTrack7	7	ProbeTrack	1406	SCS215a	733716.352454	733716.353976	8	0.013328	60	10	60-180	60	175	GapExp	0	18	3	3	0	distractor	1	507	13.328	13.292	13.363
ProbeTrack7	7	ProbeTrack	1406	SCS215a	733716.352454	733716.354055	8	0.013328	60	10	60-180	60	170	GapExp	0	19	3	96	0	distractor	1	587	13.328	13.289	13.366
ProbeTrack7	7	ProbeTrack	1406	SCS215a	733716.352454	733716.354150	8	0.013328	60	10	60-180	60	146	GapExp	0	20	3	6	1	target	1	440	13.328	13.293	13.363
ProbeTrack7	7	ProbeTrack	1406	SCS215a	733716.352454	733716.354227	8	0.013328	60	10	60-180	60	157	GapExp	0	21	3	96	1	target	1	507	13.328	13.293	13.367
ProbeTrack7	7	ProbeTrack	1406	SCS215a	733716.352454	733716.354328	8	0.013328	60	10	60-180	60	84	GapExp	0	22	3	3	1	target	1	480	13.328	13.293	13.363
ProbeTrack7	7	ProbeTrack	1406	SCS215a	733716.352454	733716.354395	8	0.013328	60	10	60-180	60	74	GapExp	0	23	3	96	1	target	1	493	13.328	13.288	13.367
ProbeTrack7	7	ProbeTrack	1406	SCS215a	733716.352454	733716.354476	8	0.013328	60	10	60-180	60	138	GapExp	0	24	3	0	1	target	1	480	13.328	13.293	13.363
ProbeTrack7	7	ProbeTrack	1406	SCS215a	733716.352454	733716.354557	8	0.013328	60	10	60-180	60	75	GapExp	0	25	3	96	1	target	1	427	13.328	13.293	13.363
ProbeTrack7	7	ProbeTrack	1406	SCS215a	733716.352454	733716.354643	8	0.013328	60	10	60-180	60	161	GapExp	0	26	3	3	0	distractor	1	840	13.328	13.293	13.363
ProbeTrack7	7	ProbeTrack	1406	SCS215a	733716.352454	733716.354744	8	0.013328	60	10	60-180	60	156	GapExp	0	27	3	3	1	target	1	440	13.328	13.290	13.365
ProbeTrack7	7	ProbeTrack	1406	SCS215a	733716.352454	733716.354831	8	0.013328	60	10	60-180	60	173	GapExp	0	28	3	96	0	distractor	1	600	13.328	13.293	13.363
ProbeTrack7	7	ProbeTrack	1406	SCS215a	733716.352454	733716.354939	8	0.013328	60	10	60-180	60	88	GapExp	0	29	3	6	1	target	1	520	13.328	13.293	13.363
ProbeTrack7	7	ProbeTrack	1406	SCS215a	733716.352454	733716.355012	8	0.013328	60	10	60-180	60	72	GapExp	0	30	3	96	0	distractor	1	507	13.328	13.292	13.363
ProbeTrack7	7	ProbeTrack	1406	SCS215a	733716.352454	733716.355101	8	0.013328	60	10	60-180	60	85	GapExp	0	31	3	0	1	target	1	467	13.328	13.293	13.363
ProbeTrack7	7	ProbeTrack	1406	SCS215a	733716.352454	733716.355168	8	0.013328	60	10	60-180	60	72	GapExp	0	32	3	96	1	distractor	0	507	13.328	13.293	13.363
ProbeTrack7	7	ProbeTrack	1406	SCS215a	733716.352454	733716.355254	8	0.013328	60	10	60-180	60	86	GapExp	0	33	3	3	0	distractor	1	800	13.328	13.289	13.366
ProbeTrack7	7	ProbeTrack	1406	SCS215a	733716.352454	733716.355323	8	0.013328	60	10	60-180	60	157	GapExp	0	34	3	6	0	target	0	640	13.328	13.293	13.363
ProbeTrack7	7	ProbeTrack	1406	SCS215a	733716.352454	733716.355405	8	0.013328	60	10	60-180	60	120	GapExp	0	35	3	3	0	distractor	1	787	13.328	13.292	13.363
ProbeTrack7	7	ProbeTrack	1406	SCS215a	733716.352454	733716.355480	8	0.013328	60	10	60-180	60	113	GapExp	0	36	3	96	0	target	0	560	13.328	13.293	13.363
ProbeTrack7	7	ProbeTrack	1406	SCS215a	733716.352454	733716.355568	8	0.013328	60	10	60-180	60	171	GapExp	0	37	3	96	0	distractor	1	653	13.328	13.290	13.365
ProbeTrack7	7	ProbeTrack	1406	SCS215a	733716.352454	733716.355663	8	0.013328	60	10	60-180	60	151	GapExp	0	38	3	96	0	target	0	587	13.328	13.293	13.363
ProbeTrack7	7	ProbeTrack	1406	SCS215a	733716.352454	733716.355756	8	0.013328	60	10	60-180	60	155	GapExp	0	39	3	6	0	distractor	1	653	13.328	13.289	13.366
ProbeTrack7	7	ProbeTrack	1406	SCS215a	733716.352454	733716.355836	8	0.013328	60	10	60-180	60	153	GapExp	0	40	3	3	1	target	1	1919	13.328	13.293	13.363
ProbeTrack7	7	ProbeTrack	1406	SCS215a	733716.352454	733716.355930	8	0.013328	60	10	60-180	60	167	GapExp	0	41	3	96	0	target	0	747	13.328	13.292	13.363
ProbeTrack7	7	ProbeTrack	1406	SCS215a	733716.352454	733716.356029	8	0.013328	60	10	60-180	60	146	GapExp	0	42	3	6	0	distractor	1	600	13.328	13.293	13.363
ProbeTrack7	7	ProbeTrack	1406	SCS215a	733716.352454	733716.356103	8	0.013328	60	10	60-180	60	103	GapExp	0	43	3	6	1	target	1	493	13.328	13.293	13.363
ProbeTrack7	7	ProbeTrack	1406	SCS215a	733716.352454	733716.356191	8	0.013328	60	10	60-180	60	90	GapExp	0	44	3	6	0	distractor	1	440	13.328	13.285	13.369
ProbeTrack7	7	ProbeTrack	1406	SCS215a	733716.352454	733716.356278	8	0.013328	60	10	60-180	60	131	GapExp	0	45	3	96	1	target	1	560	13.328	13.293	13.363
ProbeTrack7	7	ProbeTrack	1406	SCS215a	733716.352454	733716.356379	8	0.013328	60	10	60-180	60	158	GapExp	0	46	3	0	0	target	0	946	13.328	13.292	13.366
ProbeTrack7	7	ProbeTrack	1406	SCS215a	733716.352454	733716.356471	8	0.013328	60	10	60-180	60	154	GapExp	0	47	3	3	1	target	1	520	13.328	13.293	13.363
ProbeTrack7	7	ProbeTrack	1406	SCS215a	733716.352454	733716.356546	8	0.013328	60	10	60-180	60	133	GapExp	0	48	3	0	0	distractor	1	893	13.328	13.293	13.363
ProbeTrack7	7	ProbeTrack	1406	SCS215a	733716.352454	733716.356625	8	0.013328	60	10	60-180	60	144	GapExp	0	49	3	3	1	target	1	413	13.328	13.293	13.363
ProbeTrack7	7	ProbeTrack	1406	SCS215a	733716.352454	733716.356706	8	0.013328	60	10	60-180	60	142	GapExp	0	50	3	0	0	distractor	1	600	13.328	13.293	13.363
ProbeTrack7	7	ProbeTrack	1406	SCS215a	733716.352454	733716.356806	8	0.013328	60	10	60-180	60	102	GapExp	0	51	3	96	0	distractor	1	454	13.328	13.293	13.363
ProbeTrack7	7	ProbeTrack	1406	SCS215a	733716.352454	733716.356920	8	0.013328	60	10	60-180	60	140	GapExp	0	52	3	3	1	target	1	453	13.328	13.293	13.363
ProbeTrack7	7	ProbeTrack	1406	SCS215a	733716.352454	733716.357012	8	0.013328	60	10	60-180	60	148	GapExp	0	53	3	96	0	target	0	707	13.328	13.292	13.363
ProbeTrack7	7	ProbeTrack	1406	SCS215a	733716.352454	733716.357107	8	0.013328	60	10	60-180	60	88	GapExp	0	54	3	0	0	target	0	507	13.328	13.293	13.363
ProbeTrack7	7	ProbeTrack	1406	SCS215a	733716.352454	733716.357172	8	0.013328	60	10	60-180	60	96	GapExp	0	55	3	6	1	target	1	520	13.328	13.293	13.363
ProbeTrack7	7	ProbeTrack	1406	SCS215a	733716.352454	733716.357238	8	0.013328	60	10	60-180	60	100	GapExp	0	56	3	0	1	target	1	467	13.328	13.293	13.363
ProbeTrack7	7	ProbeTrack	1406	SCS215a	733716.352454	733716.357325	8	0.013328	60	10	60-180	60	172	GapExp	0	57	3	3	0	distractor	1	493	13.328	13.293	13.363
ProbeTrack7	7	ProbeTrack	1406	SCS215a	733716.352454	733716.357407	8	0.013328	60	10	60-180	60	133	GapExp	0	58	3	6	0	target	0	533	13.328	13.293	13.366
ProbeTrack7	7	ProbeTrack	1406	SCS215a	733716.352454	733716.357496	8	0.013328	60	10	60-180	60	145	GapExp	0	59	3	96	0	distractor	1	507	13.328	13.293	13.363
ProbeTrack7	7	ProbeTrack	1406	SCS215a	733716.352454	733716.357586	8	0.013328	60	10	60-180	60	66	GapExp	0	60	3	0	0	target	0	787	13.328	13.293	13.363
ProbeTrack7	7	ProbeTrack	1406	SCS215a	733716.352454	733716.357666	8	0.013328	60	10	60-180	60	157	GapExp	0	61	3	96	1	distractor	0	374	13.328	13.293	13.363
ProbeTrack7	7	ProbeTrack	1406	SCS215a	733716.352454	733716.357758	8	0.013328	60	10	60-180	60	140	GapExp	0	62	3	0	1	target	1	627	13.328	13.292	13.363
ProbeTrack7	7	ProbeTrack	1406	SCS215a	733716.352454	733716.357834	8	0.013328	60	10	60-180	60	70	GapExp	0	63	3	96	1	target	1	560	13.328	13.293	13.363
ProbeTrack7	7	ProbeTrack	1406	SCS215a	733716.352454	733716.357942	8	0.013328	60	10	60-180	60	75	GapExp	0	64	3	96	1	target	1	453	13.328	13.292	13.363
ProbeTrack7	7	ProbeTrack	1406	SCS215a	733716.352454	733716.358045	8	0.013328	60	10	60-180	60	83	GapExp	0	65	3	3	0	distractor	1	520	13.328	13.289	13.366
ProbeTrack7	7	ProbeTrack	1406	SCS215a	733716.352454	733716.358124	8	0.013328	60	10	60-180	60	104	GapExp	0	66	3	0	1	target	1	493	13.328	13.293	13.364
ProbeTrack7	7	ProbeTrack	1406	SCS215a	733716.352454	733716.358212	8	0.013328	60	10	60-180	60	131	GapExp	0	67	3	6	1	target	1	414	13.328	13.293	13.363
ProbeTrack7	7	ProbeTrack	1406	SCS215a	733716.352454	733716.358300	8	0.013328	60	10	60-180	60	129	GapExp	0	68	3	0	1	target	1	547	13.328	13.293	13.363
ProbeTrack7	7	ProbeTrack	1406	SCS215a	733716.352454	733716.358398	8	0.013328	60	10	60-180	60	112	GapExp	0	69	3	6	0	distractor	1	560	13.328	13.293	13.363
ProbeTrack7	7	ProbeTrack	1406	SCS215a	733716.352454	733716.358491	8	0.013328	60	10	60-180	60	97	GapExp	0	70	3	96	1	target	1	440	13.328	13.293	13.363
ProbeTrack7	7	ProbeTrack	1406	SCS215a	733716.352454	733716.358590	8	0.013328	60	10	60-180	60	69	GapExp	0	71	3	96	0	distractor	1	667	13.328	13.293	13.363
ProbeTrack7	7	ProbeTrack	1406	SCS215a	733716.352454	733716.358678	8	0.013328	60	10	60-180	60	64	GapExp	0	72	3	0	0	target	0	587	13.328	13.293	13.363
ProbeTrack7	7	ProbeTrack	1406	SCS215a	733716.352454	733716.358758	8	0.013328	60	10	60-180	60	78	GapExp	0	73	3	6	1	target	1	547	13.328	13.293	13.363
ProbeTrack7	7	ProbeTrack	1406	SCS215a	733716.352454	733716.358827	8	0.013328	60	10	60-180	60	105	GapExp	0	74	3	96	0	target	0	800	13.328	13.293	13.363
ProbeTrack7	7	ProbeTrack	1406	SCS215a	733716.352454	733716.358914	8	0.013328	60	10	60-180	60	123	GapExp	0	75	3	96	1	target	1	493	13.328	13.293	13.363
ProbeTrack7	7	ProbeTrack	1406	SCS215a	733716.352454	733716.359000	8	0.013328	60	10	60-180	60	145	GapExp	0	76	3	6	1	target	1	600	13.328	13.290	13.363
ProbeTrack7	7	ProbeTrack	1406	SCS215a	733716.352454	733716.359102	8	0.013328	60	10	60-180	60	131	GapExp	0	77	3	3	0	target	0	413	13.328	13.293	13.363
ProbeTrack7	7	ProbeTrack	1406	SCS215a	733716.352454	733716.359186	8	0.013328	60	10	60-180	60	156	GapExp	0	78	3	3	0	distractor	1	627	13.328	13.293	13.363
ProbeTrack7	7	ProbeTrack	1406	SCS215a	733716.352454	733716.359275	8	0.013328	60	10	60-180	60	100	GapExp	0	79	3	3	1	target	1	453	13.328	13.293	13.363
ProbeTrack7	7	ProbeTrack	1406	SCS215a	733716.352454	733716.359357	8	0.013328	60	10	60-180	60	101	GapExp	0	80	3	0	1	target	1	427	13.328	13.293	13.363
ProbeTrack7	7	ProbeTrack	1406	SCS215a	733716.352454	733716.359441	8	0.013328	60	10	60-180	60	111	GapExp	0	81	3	6	0	distractor	1	573	13.328	13.293	13.363
ProbeTrack7	7	ProbeTrack	1406	SCS215a	733716.352454	733716.359536	8	0.013328	60	10	60-180	60	77	GapExp	0	82	3	6	0	distractor	1	507	13.328	13.293	13.363
ProbeTrack7	7	ProbeTrack	1406	SCS215a	733716.352454	733716.359622	8	0.013328	60	10	60-180	60	147	GapExp	0	83	3	96	1	target	1	560	13.328	13.293	13.363
ProbeTrack7	7	ProbeTrack	1406	SCS215a	733716.352454	733716.359742	8	0.013328	60	10	60-180	60	168	GapExp	0	84	3	6	1	target	1	440	13.328	13.293	13.363
ProbeTrack7	7	ProbeTrack	1406	SCS215a	733716.352454	733716.359849	8	0.013328	60	10	60-180	60	77	GapExp	0	85	3	3	0	distractor	1	853	13.328	13.293	13.363
ProbeTrack7	7	ProbeTrack	1406	SCS215a	733716.352454	733716.359925	8	0.013328	60	10	60-180	60	156	GapExp	0	86	3	0	1	target	1	440	13.328	13.293	13.364
ProbeTrack7	7	ProbeTrack	1406	SCS215a	733716.352454	733716.360004	8	0.013328	60	10	60-180	60	69	GapExp	0	87	3	0	0	target	0	427	13.328	13.293	13.363
ProbeTrack7	7	ProbeTrack	1406	SCS215a	733716.352454	733716.360087	8	0.013328	60	10	60-180	60	148	GapExp	0	88	3	3	1	target	1	467	13.328	13.291	13.363
ProbeTrack7	7	ProbeTrack	1406	SCS215a	733716.352454	733716.360167	8	0.013328	60	10	60-180	60	84	GapExp	0	89	3	6	1	target	1	547	13.328	13.293	13.363
ProbeTrack7	7	ProbeTrack	1406	SCS215a	733716.352454	733716.360269	8	0.013328	60	10	60-180	60	136	GapExp	0	90	3	3	1	target	1	493	13.328	13.291	13.363
ProbeTrack7	7	ProbeTrack	1406	SCS215a	733716.352454	733716.360369	8	0.013328	60	10	60-180	60	167	GapExp	0	91	3	3	0	distractor	1	880	13.328	13.293	13.363
ProbeTrack7	7	ProbeTrack	1406	SCS215a	733716.352454	733716.360473	8	0.013328	60	10	60-180	60	74	GapExp	0	92	3	0	0	distractor	1	653	13.328	13.293	13.363
ProbeTrack7	7	ProbeTrack	1406	SCS215a	733716.352454	733716.360562	8	0.013328	60	10	60-180	60	109	GapExp	0	93	3	3	1	target	1	520	13.328	13.292	13.363
ProbeTrack7	7	ProbeTrack	1406	SCS215a	733716.352454	733716.360650	8	0.013328	60	10	60-180	60	69	GapExp	0	94	3	6	0	distractor	1	613	13.328	13.293	13.363
ProbeTrack7	7	ProbeTrack	1406	SCS215a	733716.352454	733716.360731	8	0.013328	60	10	60-180	60	118	GapExp	0	95	3	3	0	target	0	493	13.328	13.293	13.363
ProbeTrack7	7	ProbeTrack	1406	SCS215a	733716.352454	733716.360808	8	0.013328	60	10	60-180	60	97	GapExp	0	96	3	3	1	target	1	480	13.328	13.293	13.363
ProbeTrack7	7	ProbeTrack	1406	SCS215a	733716.352454	733716.360877	8	0.013328	60	10	60-180	60	168	GapExp	0	97	3	6	1	distractor	0	547	13.328	13.293	13.363
ProbeTrack7	7	ProbeTrack	1406	SCS215a	733716.352454	733716.360964	8	0.013328	60	10	60-180	60	162	GapExp	0	98	3	0	0	target	0	893	13.328	13.293	13.363
ProbeTrack7	7	ProbeTrack	1406	SCS215a	733716.352454	733716.361054	8	0.013328	60	10	60-180	60	151	GapExp	0	99	3	96	0	target	0	454	13.328	13.293	13.363
ProbeTrack7	7	ProbeTrack	1406	SCS215a	733716.352454	733716.361147	8	0.013328	60	10	60-180	60	166	GapExp	0	100	3	6	0	distractor	1	680	13.328	13.293	13.363
ProbeTrack7	7	ProbeTrack	1406	SCS215a	733716.352454	733716.361227	8	0.013328	60	10	60-180	60	121	GapExp	0	101	3	0	1	target	1	613	13.328	13.293	13.363
ProbeTrack7	7	ProbeTrack	1406	SCS215a	733716.352454	733716.361336	8	0.013328	60	10	60-180	60	162	GapExp	0	102	3	6	1	target	1	587	13.328	13.293	13.363
ProbeTrack7	7	ProbeTrack	1406	SCS215a	733716.352454	733716.361434	8	0.013328	60	10	60-180	60	67	GapExp	0	103	3	0	0	distractor	1	600	13.328	13.293	13.364
ProbeTrack7	7	ProbeTrack	1406	SCS215a	733716.352454	733716.361523	8	0.013328	60	10	60-180	60	62	GapExp	0	104	3	6	1	target	1	454	13.328	13.293	13.365
ProbeTrack7	7	ProbeTrack	1406	SCS215a	733716.352454	733716.361603	8	0.013328	60	10	60-180	60	92	GapExp	0	105	3	96	0	distractor	1	667	13.328	13.293	13.363
ProbeTrack7	7	ProbeTrack	1406	SCS215a	733716.352454	733716.361706	8	0.013328	60	10	60-180	60	96	GapExp	0	106	3	3	1	target	1	653	13.328	13.293	13.363
ProbeTrack7	7	ProbeTrack	1406	SCS215a	733716.352454	733716.361809	8	0.013328	60	10	60-180	60	72	GapExp	0	107	3	3	0	distractor	1	667	13.328	13.293	13.363
ProbeTrack7	7	ProbeTrack	1406	SCS215a	733716.352454	733716.361904	8	0.013328	60	10	60-180	60	98	GapExp	0	108	3	96	1	target	1	627	13.328	13.293	13.363
ProbeTrack7	7	ProbeTrack	1406	SCS215a	733716.352454	733716.362023	8	0.013328	60	10	60-180	60	121	GapExp	0	109	3	6	0	distractor	1	587	13.328	13.293	13.363
ProbeTrack7	7	ProbeTrack	1406	SCS215a	733716.352454	733716.362119	8	0.013328	60	10	60-180	60	84	GapExp	0	110	3	0	1	target	1	507	13.328	13.293	13.363
ProbeTrack7	7	ProbeTrack	1406	SCS215a	733716.352454	733716.362205	8	0.013328	60	10	60-180	60	106	GapExp	0	111	3	96	1	target	1	427	13.328	13.289	13.363
ProbeTrack7	7	ProbeTrack	1406	SCS215a	733716.352454	733716.362307	8	0.013328	60	10	60-180	60	95	GapExp	0	112	3	6	1	target	1	507	13.328	13.293	13.363
ProbeTrack7	7	ProbeTrack	1406	SCS215a	733716.352454	733716.362404	8	0.013328	60	10	60-180	60	71	GapExp	0	113	3	0	0	target	0	440	13.328	13.293	13.363
ProbeTrack7	7	ProbeTrack	1406	SCS215a	733716.352454	733716.362493	8	0.013328	60	10	60-180	60	160	GapExp	0	114	3	6	0	distractor	1	520	13.328	13.293	13.363
ProbeTrack7	7	ProbeTrack	1406	SCS215a	733716.352454	733716.362572	8	0.013328	60	10	60-180	60	131	GapExp	0	115	3	6	0	distractor	1	693	13.328	13.293	13.363
ProbeTrack7	7	ProbeTrack	1406	SCS215a	733716.352454	733716.362682	8	0.013328	60	10	60-180	60	164	GapExp	0	116	3	0	0	distractor	1	653	13.328	13.293	13.363
ProbeTrack7	7	ProbeTrack	1406	SCS215a	733716.352454	733716.362795	8	0.013328	60	10	60-180	60	63	GapExp	0	117	3	0	0	distractor	1	747	13.328	13.290	13.365
ProbeTrack7	7	ProbeTrack	1406	SCS215a	733716.352454	733716.362886	8	0.013328	60	10	60-180	60	80	GapExp	0	118	3	0	0	target	0	507	13.328	13.292	13.363
ProbeTrack7	7	ProbeTrack	1406	SCS215a	733716.352454	733716.362955	8	0.013328	60	10	60-180	60	104	GapExp	0	119	3	3	1	target	1	587	13.328	13.293	13.363
ProbeTrack7	7	ProbeTrack	1406	SCS215a	733716.352454	733716.363025	8	0.013328	60	10	60-180	60	170	GapExp	0	120	3	96	0	target	0	893	13.328	13.293	13.363
ProbeTrack7	7	ProbeTrack	1406	SCS215a	733716.352454	733716.363153	8	0.013328	60	10	60-180	60	152	GapExp	0	121	3	0	0	distractor	1	507	13.328	13.293	13.363
ProbeTrack7	7	ProbeTrack	1406	SCS215a	733716.352454	733716.363235	8	0.013328	60	10	60-180	60	168	GapExp	0	122	3	96	1	target	1	920	13.328	13.292	13.363
ProbeTrack7	7	ProbeTrack	1406	SCS215a	733716.352454	733716.363357	8	0.013328	60	10	60-180	60	62	GapExp	0	123	3	3	0	distractor	1	614	13.328	13.292	13.363
ProbeTrack7	7	ProbeTrack	1406	SCS215a	733716.352454	733716.363453	8	0.013328	60	10	60-180	60	116	GapExp	0	124	3	6	0	target	0	587	13.328	13.293	13.363
ProbeTrack7	7	ProbeTrack	1406	SCS215a	733716.352454	733716.363539	8	0.013328	60	10	60-180	60	141	GapExp	0	125	3	0	1	target	1	560	13.328	13.293	13.363
ProbeTrack7	7	ProbeTrack	1406	SCS215a	733716.364207	733716.364338	8	0.013327	60	10	60-180	60	115	GapPrac	1	1	4	0	1	distractor	0	787	13.328	13.287	13.363
ProbeTrack7	7	ProbeTrack	1406	SCS215a	733716.364207	733716.364429	8	0.013327	60	10	60-180	60	86	GapPrac	1	2	4	0	0	target	0	400	13.328	13.293	13.363
ProbeTrack7	7	ProbeTrack	1406	SCS215a	733716.364207	733716.364516	8	0.013327	60	10	60-180	60	159	GapPrac	1	3	4	3	1	distractor	0	467	13.328	13.293	13.363
ProbeTrack7	7	ProbeTrack	1406	SCS215a	733716.364207	733716.364591	8	0.013327	60	10	60-180	60	176	GapPrac	1	4	4	3	0	target	0	427	13.328	13.293	13.363
ProbeTrack7	7	ProbeTrack	1406	SCS215a	733716.364207	733716.364671	8	0.013327	60	10	60-180	60	72	GapPrac	1	5	4	0	1	target	1	587	13.328	13.293	13.363
ProbeTrack7	7	ProbeTrack	1406	SCS215a	733716.364207	733716.364796	8	0.013327	60	10	60-180	60	109	GapPrac	1	6	4	6	1	target	1	547	13.328	13.285	13.363
ProbeTrack7	7	ProbeTrack	1406	SCS215a	733716.364207	733716.364904	8	0.013327	60	10	60-180	60	87	GapPrac	1	7	4	96	0	distractor	1	654	13.328	13.293	13.363
ProbeTrack7	7	ProbeTrack	1406	SCS215a	733716.364207	733716.365062	8	0.013327	60	10	60-180	60	173	GapPrac	1	8	4	6	0	target	0	853	13.328	13.293	13.363
ProbeTrack7	7	ProbeTrack	1406	SCS215a	733716.364207	733716.365186	8	0.013327	60	10	60-180	60	69	GapPrac	1	9	4	0	1	target	1	973	13.328	13.293	13.363
ProbeTrack7	7	ProbeTrack	1406	SCS215a	733716.364207	733716.365257	8	0.013327	60	10	60-180	60	107	GapPrac	1	10	4	96	1	target	1	614	13.328	13.289	13.366
ProbeTrack7	7	ProbeTrack	1406	SCS215a	733716.364207	733716.365375	8	0.013327	60	10	60-180	60	133	GapPrac	1	11	4	3	0	target	0	707	13.328	13.293	13.363
ProbeTrack7	7	ProbeTrack	1406	SCS215a	733716.364207	733716.365516	8	0.013327	60	10	60-180	60	141	GapPrac	1	12	4	0	0	target	0	627	13.328	13.293	13.363
ProbeTrack7	7	ProbeTrack	1406	SCS215a	733716.364207	733716.365633	8	0.013327	60	10	60-180	60	106	GapPrac	1	13	4	0	0	target	0	627	13.328	13.293	13.363
ProbeTrack7	7	ProbeTrack	1406	SCS215a	733716.364207	733716.365733	8	0.013327	60	10	60-180	60	65	GapPrac	1	14	4	6	1	target	1	573	13.328	13.293	13.363
ProbeTrack7	7	ProbeTrack	1406	SCS215a	733716.364207	733716.365804	8	0.013327	60	10	60-180	60	64	GapPrac	1	15	4	96	0	distractor	1	680	13.328	13.291	13.363
ProbeTrack7	7	ProbeTrack	1406	SCS215a	733716.364207	733716.365906	8	0.013327	60	10	60-180	60	128	GapPrac	1	16	4	96	1	target	1	653	13.328	13.293	13.363
ProbeTrack7	7	ProbeTrack	1406	SCS215a	733716.364207	733716.366012	8	0.013327	60	10	60-180	60	133	GapPrac	1	17	4	6	0	distractor	1	613	13.328	13.293	13.363
ProbeTrack7	7	ProbeTrack	1406	SCS215a	733716.364207	733716.366148	8	0.013327	60	10	60-180	60	165	GapPrac	1	18	4	3	1	target	1	587	13.328	13.293	13.363
ProbeTrack7	7	ProbeTrack	1406	SCS215a	733716.364207	733716.366270	8	0.013327	60	10	60-180	60	78	GapPrac	1	19	4	3	0	target	0	600	13.328	13.293	13.364
ProbeTrack7	7	ProbeTrack	1406	SCS215a	733716.364207	733716.366405	8	0.013327	60	10	60-180	60	66	GapPrac	1	20	4	3	1	target	1	547	13.328	13.291	13.363
ProbeTrack7	7	ProbeTrack	1406	SCS215a	733716.367408	733716.367453	8	0.013327	60	10	60-180	60	140	GapPrac	1	1	4	0	0	target	0	653	13.328	13.293	13.363
ProbeTrack7	7	ProbeTrack	1406	SCS215a	733716.367408	733716.367547	8	0.013327	60	10	60-180	60	168	GapPrac	1	2	4	96	0	target	0	547	13.328	13.293	13.363
ProbeTrack7	7	ProbeTrack	1406	SCS215a	733716.367408	733716.367676	8	0.013327	60	10	60-180	60	168	GapPrac	1	3	4	96	1	target	1	907	13.328	13.292	13.363
ProbeTrack7	7	ProbeTrack	1406	SCS215a	733716.367408	733716.367774	8	0.013327	60	10	60-180	60	73	GapPrac	1	4	4	3	1	target	1	573	13.328	13.293	13.363
ProbeTrack7	7	ProbeTrack	1406	SCS215a	733716.367408	733716.367896	8	0.013327	60	10	60-180	60	95	GapPrac	1	5	4	6	1	target	1	520	13.328	13.293	13.363
ProbeTrack7	7	ProbeTrack	1406	SCS215a	733716.367408	733716.368007	8	0.013327	60	10	60-180	60	165	GapPrac	1	6	4	96	0	target	0	667	13.328	13.293	13.364
ProbeTrack7	7	ProbeTrack	1406	SCS215a	733716.367408	733716.368157	8	0.013327	60	10	60-180	60	80	GapPrac	1	7	4	3	0	target	0	600	13.328	13.293	13.363
ProbeTrack7	7	ProbeTrack	1406	SCS215a	733716.367408	733716.368273	8	0.013327	60	10	60-180	60	100	GapPrac	1	8	4	6	0	target	0	774	13.328	13.293	13.363
ProbeTrack7	7	ProbeTrack	1406	SCS215a	733716.367408	733716.368367	8	0.013327	60	10	60-180	60	115	GapPrac	1	9	4	96	0	target	0	520	13.328	13.293	13.363
ProbeTrack7	7	ProbeTrack	1406	SCS215a	733716.367408	733716.368530	8	0.013327	60	10	60-180	60	109	GapPrac	1	10	4	6	0	target	0	667	13.328	13.293	13.363
ProbeTrack7	7	ProbeTrack	1406	SCS215a	733716.367408	733716.368604	8	0.013327	60	10	60-180	60	62	GapPrac	1	11	4	96	1	target	1	587	13.328	13.293	13.363
ProbeTrack7	7	ProbeTrack	1406	SCS215a	733716.367408	733716.368689	8	0.013327	60	10	60-180	60	91	GapPrac	1	12	4	6	1	target	1	1066	13.328	13.292	13.363
ProbeTrack7	7	ProbeTrack	1406	SCS215a	733716.367408	733716.368783	8	0.013327	60	10	60-180	60	162	GapPrac	1	13	4	0	1	target	1	947	13.328	13.289	13.363
ProbeTrack7	7	ProbeTrack	1406	SCS215a	733716.367408	733716.368995	8	0.013327	60	10	60-180	60	156	GapPrac	1	14	4	0	1	distractor	0	787	13.328	13.291	13.363
ProbeTrack7	7	ProbeTrack	1406	SCS215a	733716.367408	733716.369098	8	0.013327	60	10	60-180	60	85	GapPrac	1	15	4	0	0	distractor	1	547	13.328	13.293	13.363
ProbeTrack7	7	ProbeTrack	1406	SCS215a	733716.367408	733716.369166	8	0.013327	60	10	60-180	60	126	GapPrac	1	16	4	96	1	target	1	467	13.328	13.293	13.366
ProbeTrack7	7	ProbeTrack	1406	SCS215a	733716.367408	733716.369261	8	0.013327	60	10	60-180	60	79	GapPrac	1	17	4	3	1	distractor	0	547	13.328	13.293	13.363
ProbeTrack7	7	ProbeTrack	1406	SCS215a	733716.367408	733716.369357	8	0.013327	60	10	60-180	60	147	GapPrac	1	18	4	0	0	distractor	1	600	13.328	13.290	13.363
ProbeTrack7	7	ProbeTrack	1406	SCS215a	733716.367408	733716.369455	8	0.013327	60	10	60-180	60	160	GapPrac	1	19	4	3	0	distractor	1	573	13.328	13.293	13.363
ProbeTrack7	7	ProbeTrack	1406	SCS215a	733716.367408	733716.369573	8	0.013327	60	10	60-180	60	94	GapPrac	1	20	4	3	1	target	1	480	13.328	13.293	13.381
ProbeTrack7	7	ProbeTrack	1406	SCS215a	733716.370935	733716.370999	8	0.013327	60	10	60-180	60	104	GapPrac	1	1	4	96	1	target	1	547	13.328	13.293	13.363
ProbeTrack7	7	ProbeTrack	1406	SCS215a	733716.370935	733716.371112	8	0.013327	60	10	60-180	60	113	GapPrac	1	2	4	3	1	target	1	507	13.328	13.293	13.363
ProbeTrack7	7	ProbeTrack	1406	SCS215a	733716.370935	733716.371225	8	0.013327	60	10	60-180	60	109	GapPrac	1	3	4	0	1	target	1	480	13.328	13.293	13.363
ProbeTrack7	7	ProbeTrack	1406	SCS215a	733716.370935	733716.371336	8	0.013327	60	10	60-180	60	73	GapPrac	1	4	4	96	0	distractor	1	493	13.328	13.290	13.363
ProbeTrack7	7	ProbeTrack	1406	SCS215a	733716.370935	733716.371466	8	0.013327	60	10	60-180	60	163	GapPrac	1	5	4	96	1	distractor	0	480	13.328	13.293	13.363
ProbeTrack7	7	ProbeTrack	1406	SCS215a	733716.370935	733716.371624	8	0.013327	60	10	60-180	60	140	GapPrac	1	6	4	6	0	distractor	1	574	13.328	13.293	13.363
ProbeTrack7	7	ProbeTrack	1406	SCS215a	733716.370935	733716.371749	8	0.013327	60	10	60-180	60	87	GapPrac	1	7	4	6	1	target	1	467	13.328	13.293	13.363
ProbeTrack7	7	ProbeTrack	1406	SCS215a	733716.370935	733716.371885	8	0.013327	60	10	60-180	60	152	GapPrac	1	8	4	0	1	target	1	414	13.328	13.293	13.364
ProbeTrack7	7	ProbeTrack	1406	SCS215a	733716.370935	733716.372006	8	0.013327	60	10	60-180	60	122	GapPrac	1	9	4	3	1	target	1	440	13.328	13.293	13.363
ProbeTrack7	7	ProbeTrack	1406	SCS215a	733716.370935	733716.372112	8	0.013327	60	10	60-180	60	164	GapPrac	1	10	4	3	1	target	1	400	13.328	13.293	13.363
ProbeTrack7	7	ProbeTrack	1406	SCS215a	733716.370935	733716.372211	8	0.013327	60	10	60-180	60	67	GapPrac	1	11	4	6	0	distractor	1	520	13.328	13.293	13.363
ProbeTrack7	7	ProbeTrack	1406	SCS215a	733716.370935	733716.372276	8	0.013327	60	10	60-180	60	78	GapPrac	1	12	4	3	0	distractor	1	560	13.328	13.293	13.363
ProbeTrack7	7	ProbeTrack	1406	SCS215a	733716.370935	733716.372380	8	0.013327	60	10	60-180	60	64	GapPrac	1	13	4	6	1	distractor	0	627	13.328	13.293	13.363
ProbeTrack7	7	ProbeTrack	1406	SCS215a	733716.370935	733716.372490	8	0.013327	60	10	60-180	60	117	GapPrac	1	14	4	3	0	distractor	1	907	13.328	13.293	13.363
ProbeTrack7	7	ProbeTrack	1406	SCS215a	733716.370935	733716.372602	8	0.013327	60	10	60-180	60	77	GapPrac	1	15	4	96	0	distractor	1	720	13.328	13.293	13.363
ProbeTrack7	7	ProbeTrack	1406	SCS215a	733716.370935	733716.372722	8	0.013327	60	10	60-180	60	166	GapPrac	1	16	4	96	1	target	1	747	13.328	13.293	13.363
ProbeTrack7	7	ProbeTrack	1406	SCS215a	733716.370935	733716.372851	8	0.013327	60	10	60-180	60	130	GapPrac	1	17	4	96	0	target	0	733	13.328	13.293	13.363
ProbeTrack7	7	ProbeTrack	1406	SCS215a	733716.370935	733716.372974	8	0.013327	60	10	60-180	60	155	GapPrac	1	18	4	0	0	target	0	547	13.328	13.292	13.363
ProbeTrack7	7	ProbeTrack	1406	SCS215a	733716.370935	733716.373083	8	0.013327	60	10	60-180	60	108	GapPrac	1	19	4	0	1	target	1	520	13.328	13.293	13.363
ProbeTrack7	7	ProbeTrack	1406	SCS215a	733716.370935	733716.373160	8	0.013327	60	10	60-180	60	175	GapPrac	1	20	4	0	0	target	0	533	13.328	13.292	13.363
ProbeTrack7	7	ProbeTrack	1406	SCS215a	733716.373810	733716.373877	8	0.013327	60	10	60-180	60	163	GapExp	1	1	4	0	0	target	0	547	13.328	13.293	13.363
ProbeTrack7	7	ProbeTrack	1406	SCS215a	733716.373810	733716.373981	8	0.013327	60	10	60-180	60	81	GapExp	1	2	4	3	0	target	0	480	13.328	13.293	13.363
ProbeTrack7	7	ProbeTrack	1406	SCS215a	733716.373810	733716.374103	8	0.013327	60	10	60-180	60	170	GapExp	1	3	4	3	1	target	1	667	13.328	13.293	13.363
ProbeTrack7	7	ProbeTrack	1406	SCS215a	733716.373810	733716.374232	8	0.013327	60	10	60-180	60	169	GapExp	1	4	4	96	1	target	1	813	13.328	13.292	13.363
ProbeTrack7	7	ProbeTrack	1406	SCS215a	733716.373810	733716.374426	8	0.013327	60	10	60-180	60	106	GapExp	1	5	4	0	1	target	1	613	13.328	13.293	13.363
ProbeTrack7	7	ProbeTrack	1406	SCS215a	733716.373810	733716.374562	8	0.013327	60	10	60-180	60	173	GapExp	0	6	4	0	0	target	0	400	13.328	13.293	13.363
ProbeTrack7	7	ProbeTrack	1406	SCS215a	733716.373810	733716.374690	8	0.013327	60	10	60-180	60	75	GapExp	0	7	4	3	1	target	1	427	13.328	13.293	13.363
ProbeTrack7	7	ProbeTrack	1406	SCS215a	733716.373810	733716.374776	8	0.013327	60	10	60-180	60	169	GapExp	0	8	4	6	0	distractor	1	627	13.328	13.293	13.363
ProbeTrack7	7	ProbeTrack	1406	SCS215a	733716.373810	733716.374869	8	0.013327	60	10	60-180	60	123	GapExp	0	9	4	0	0	distractor	1	760	13.328	13.292	13.363
ProbeTrack7	7	ProbeTrack	1406	SCS215a	733716.373810	733716.374982	8	0.013327	60	10	60-180	60	135	GapExp	0	10	4	0	1	target	1	560	13.328	13.290	13.363
ProbeTrack7	7	ProbeTrack	1406	SCS215a	733716.373810	733716.375079	8	0.013327	60	10	60-180	60	161	GapExp	0	11	4	6	0	distractor	1	533	13.328	13.289	13.366
ProbeTrack7	7	ProbeTrack	1406	SCS215a	733716.373810	733716.375216	8	0.013327	60	10	60-180	60	146	GapExp	0	12	4	0	1	target	1	547	13.328	13.292	13.363
ProbeTrack7	7	ProbeTrack	1406	SCS215a	733716.373810	733716.375342	8	0.013327	60	10	60-180	60	140	GapExp	0	13	4	6	1	target	1	587	13.328	13.290	13.363
ProbeTrack7	7	ProbeTrack	1406	SCS215a	733716.373810	733716.375504	8	0.013327	60	10	60-180	60	124	GapExp	0	14	4	96	0	target	0	693	13.328	13.293	13.363
ProbeTrack7	7	ProbeTrack	1406	SCS215a	733716.373810	733716.375671	8	0.013327	60	10	60-180	60	179	GapExp	0	15	4	96	0	distractor	1	787	13.328	13.292	13.363
ProbeTrack7	7	ProbeTrack	1406	SCS215a	733716.373810	733716.375810	8	0.013327	60	10	60-180	60	170	GapExp	0	16	4	0	1	target	1	453	13.328	13.293	13.363
ProbeTrack7	7	ProbeTrack	1406	SCS215a	733716.373810	733716.375916	8	0.013327	60	10	60-180	60	89	GapExp	0	17	4	96	1	target	1	680	13.328	13.293	13.363
ProbeTrack7	7	ProbeTrack	1406	SCS215a	733716.373810	733716.376024	8	0.013327	60	10	60-180	60	149	GapExp	0	18	4	96	1	target	1	667	13.328	13.293	13.363
ProbeTrack7	7	ProbeTrack	1406	SCS215a	733716.373810	733716.376143	8	0.013327	60	10	60-180	60	168	GapExp	0	19	4	96	1	target	1	773	13.328	13.293	13.366
ProbeTrack7	7	ProbeTrack	1406	SCS215a	733716.373810	733716.376289	8	0.013327	60	10	60-180	60	104	GapExp	0	20	4	96	1	distractor	0	880	13.328	13.293	13.363
ProbeTrack7	7	ProbeTrack	1406	SCS215a	733716.373810	733716.376425	8	0.013327	60	10	60-180	60	146	GapExp	0	21	4	0	1	target	1	573	13.328	13.292	13.363
ProbeTrack7	7	ProbeTrack	1406	SCS215a	733716.373810	733716.376534	8	0.013327	60	10	60-180	60	125	GapExp	0	22	4	3	0	target	0	693	13.328	13.293	13.363
ProbeTrack7	7	ProbeTrack	1406	SCS215a	733716.373810	733716.376645	8	0.013327	60	10	60-180	60	162	GapExp	0	23	4	3	1	target	1	520	13.328	13.289	13.363
ProbeTrack7	7	ProbeTrack	1406	SCS215a	733716.373810	733716.376785	8	0.013327	60	10	60-180	60	177	GapExp	0	24	4	6	1	target	1	760	13.328	13.287	13.363
ProbeTrack7	7	ProbeTrack	1406	SCS215a	733716.373810	733716.376943	8	0.013327	60	10	60-180	60	169	GapExp	0	25	4	6	0	target	0	440	13.328	13.293	13.362
ProbeTrack7	7	ProbeTrack	1406	SCS215a	733716.373810	733716.377100	8	0.013327	60	10	60-180	60	112	GapExp	0	26	4	6	1	target	1	720	13.328	13.291	13.364
ProbeTrack7	7	ProbeTrack	1406	SCS215a	733716.373810	733716.377288	8	0.013327	60	10	60-180	60	178	GapExp	0	27	4	6	0	distractor	1	533	13.328	13.293	13.363
ProbeTrack7	7	ProbeTrack	1406	SCS215a	733716.373810	733716.377448	8	0.013327	60	10	60-180	60	176	GapExp	0	28	4	3	1	distractor	0	720	13.328	13.293	13.363
ProbeTrack7	7	ProbeTrack	1406	SCS215a	733716.373810	733716.377589	8	0.013327	60	10	60-180	60	179	GapExp	0	29	4	0	0	target	0	520	13.328	13.293	13.363
ProbeTrack7	7	ProbeTrack	1406	SCS215a	733716.373810	733716.377695	8	0.013327	60	10	60-180	60	111	GapExp	0	30	4	3	0	distractor	1	520	13.328	13.292	13.363
ProbeTrack7	7	ProbeTrack	1406	SCS215a	733716.373810	733716.377823	8	0.013327	60	10	60-180	60	88	GapExp	0	31	4	6	1	target	1	454	13.328	13.293	13.363
ProbeTrack7	7	ProbeTrack	1406	SCS215a	733716.373810	733716.377950	8	0.013327	60	10	60-180	60	145	GapExp	0	32	4	3	1	target	1	400	13.328	13.293	13.364
ProbeTrack7	7	ProbeTrack	1406	SCS215a	733716.373810	733716.378103	8	0.013327	60	10	60-180	60	102	GapExp	0	33	4	3	1	target	1	480	13.328	13.293	13.363
ProbeTrack7	7	ProbeTrack	1406	SCS215a	733716.373810	733716.378212	8	0.013327	60	10	60-180	60	142	GapExp	0	34	4	6	1	target	1	520	13.328	13.293	13.367
ProbeTrack7	7	ProbeTrack	1406	SCS215a	733716.373810	733716.378339	8	0.013327	60	10	60-180	60	153	GapExp	0	35	4	96	0	target	0	414	13.328	13.293	13.363
ProbeTrack7	7	ProbeTrack	1406	SCS215a	733716.373810	733716.378460	8	0.013327	60	10	60-180	60	146	GapExp	0	36	4	96	0	target	0	520	13.328	13.293	13.365
ProbeTrack7	7	ProbeTrack	1406	SCS215a	733716.373810	733716.378589	8	0.013327	60	10	60-180	60	101	GapExp	0	37	4	6	0	distractor	1	787	13.328	13.293	13.363
ProbeTrack7	7	ProbeTrack	1406	SCS215a	733716.373810	733716.378711	8	0.013327	60	10	60-180	60	166	GapExp	0	38	4	96	1	target	1	453	13.328	13.289	13.364
ProbeTrack7	7	ProbeTrack	1406	SCS215a	733716.373810	733716.378846	8	0.013327	60	10	60-180	60	86	GapExp	0	39	4	6	1	target	1	334	13.328	13.293	13.363
ProbeTrack7	7	ProbeTrack	1406	SCS215a	733716.373810	733716.378949	8	0.013327	60	10	60-180	60	99	GapExp	0	40	4	0	0	target	0	440	13.328	13.293	13.363
ProbeTrack7	7	ProbeTrack	1406	SCS215a	733716.373810	733716.379049	8	0.013327	60	10	60-180	60	158	GapExp	0	41	4	96	0	target	0	1040	13.328	13.292	13.363
ProbeTrack7	7	ProbeTrack	1406	SCS215a	733716.373810	733716.379165	8	0.013327	60	10	60-180	60	75	GapExp	0	42	4	6	0	distractor	1	547	13.328	13.293	13.363
ProbeTrack7	7	ProbeTrack	1406	SCS215a	733716.373810	733716.379269	8	0.013327	60	10	60-180	60	75	GapExp	0	43	4	3	0	distractor	1	693	13.328	13.293	13.363
ProbeTrack7	7	ProbeTrack	1406	SCS215a	733716.373810	733716.379402	8	0.013327	60	10	60-180	60	119	GapExp	0	44	4	0	1	target	1	667	13.328	13.293	13.363
ProbeTrack7	7	ProbeTrack	1406	SCS215a	733716.373810	733716.379540	8	0.013327	60	10	60-180	60	69	GapExp	0	45	4	3	0	distractor	1	640	13.328	13.293	13.363
ProbeTrack7	7	ProbeTrack	1406	SCS215a	733716.373810	733716.379659	8	0.013327	60	10	60-180	60	106	GapExp	0	46	4	0	1	distractor	0	640	13.328	13.293	13.363
ProbeTrack7	7	ProbeTrack	1406	SCS215a	733716.373810	733716.379767	8	0.013327	60	10	60-180	60	164	GapExp	0	47	4	3	1	target	1	467	13.328	13.293	13.363
ProbeTrack7	7	ProbeTrack	1406	SCS215a	733716.373810	733716.379906	8	0.013327	60	10	60-180	60	153	GapExp	0	48	4	6	1	distractor	0	653	13.328	13.293	13.363
ProbeTrack7	7	ProbeTrack	1406	SCS215a	733716.373810	733716.380033	8	0.013327	60	10	60-180	60	88	GapExp	0	49	4	3	1	target	1	693	13.328	13.293	13.363
ProbeTrack7	7	ProbeTrack	1406	SCS215a	733716.373810	733716.380138	8	0.013327	60	10	60-180	60	136	GapExp	0	50	4	0	0	target	0	893	13.328	13.293	13.363
ProbeTrack7	7	ProbeTrack	1406	SCS215a	733716.373810	733716.380261	8	0.013327	60	10	60-180	60	93	GapExp	0	51	4	3	1	target	1	507	13.328	13.293	13.363
ProbeTrack7	7	ProbeTrack	1406	SCS215a	733716.373810	733716.380347	8	0.013327	60	10	60-180	60	89	GapExp	0	52	4	6	0	target	0	1320	13.328	13.289	13.363
ProbeTrack7	7	ProbeTrack	1406	SCS215a	733716.373810	733716.380464	8	0.013327	60	10	60-180	60	137	GapExp	0	53	4	3	0	distractor	1	853	13.328	13.293	13.364
ProbeTrack7	7	ProbeTrack	1406	SCS215a	733716.373810	733716.380549	8	0.013327	60	10	60-180	60	98	GapExp	0	54	4	3	0	distractor	1	800	13.328	13.293	13.363
ProbeTrack7	7	ProbeTrack	1406	SCS215a	733716.373810	733716.380653	8	0.013327	60	10	60-180	60	121	GapExp	0	55	4	96	1	distractor	0	827	13.328	13.293	13.363
ProbeTrack7	7	ProbeTrack	1406	SCS215a	733716.373810	733716.380781	8	0.013327	60	10	60-180	60	102	GapExp	0	56	4	3	0	target	0	613	13.328	13.289	13.364
ProbeTrack7	7	ProbeTrack	1406	SCS215a	733716.373810	733716.380867	8	0.013327	60	10	60-180	60	65	GapExp	0	57	4	0	1	target	1	467	13.328	13.293	13.363
ProbeTrack7	7	ProbeTrack	1406	SCS215a	733716.373810	733716.380934	8	0.013327	60	10	60-180	60	166	GapExp	0	58	4	3	0	distractor	1	1093	13.328	13.293	13.363
ProbeTrack7	7	ProbeTrack	1406	SCS215a	733716.373810	733716.381059	8	0.013327	60	10	60-180	60	116	GapExp	0	59	4	3	0	distractor	1	653	13.328	13.292	13.363
ProbeTrack7	7	ProbeTrack	1406	SCS215a	733716.373810	733716.381176	8	0.013327	60	10	60-180	60	118	GapExp	0	60	4	96	0	target	0	800	13.328	13.292	13.363
ProbeTrack7	7	ProbeTrack	1406	SCS215a	733716.373810	733716.381283	8	0.013327	60	10	60-180	60	166	GapExp	0	61	4	6	0	distractor	1	600	13.328	13.293	13.363
ProbeTrack7	7	ProbeTrack	1406	SCS215a	733716.373810	733716.381386	8	0.013327	60	10	60-180	60	142	GapExp	0	62	4	0	1	target	1	440	13.328	13.293	13.363
ProbeTrack7	7	ProbeTrack	1406	SCS215a	733716.373810	733716.381514	8	0.013327	60	10	60-180	60	140	GapExp	0	63	4	96	0	target	0	760	13.328	13.293	13.363
ProbeTrack7	7	ProbeTrack	1406	SCS215a	733716.373810	733716.381659	8	0.013327	60	10	60-180	60	119	GapExp	0	64	4	0	0	target	0	853	13.328	13.293	13.363
ProbeTrack7	7	ProbeTrack	1406	SCS215a	733716.373810	733716.381761	8	0.013327	60	10	60-180	60	148	GapExp	0	65	4	0	1	target	1	493	13.328	13.289	13.363
ProbeTrack7	7	ProbeTrack	1406	SCS215a	733716.373810	733716.382333	8	0.013327	60	10	60-180	60	179	GapExp	0	66	4	96	0	distractor	1	707	13.328	13.293	13.363
ProbeTrack7	7	ProbeTrack	1406	SCS215a	733716.373810	733716.382528	8	0.013327	60	10	60-180	60	131	GapExp	0	67	4	96	1	distractor	0	480	13.328	13.293	13.363
ProbeTrack7	7	ProbeTrack	1406	SCS215a	733716.373810	733716.382667	8	0.013327	60	10	60-180	60	102	GapExp	0	68	4	3	1	target	1	387	13.328	13.293	13.363
ProbeTrack7	7	ProbeTrack	1406	SCS215a	733716.373810	733716.382755	8	0.013327	60	10	60-180	60	135	GapExp	0	69	4	6	1	target	1	360	13.328	13.292	13.363
ProbeTrack7	7	ProbeTrack	1406	SCS215a	733716.373810	733716.382853	8	0.013327	60	10	60-180	60	166	GapExp	0	70	4	3	0	distractor	1	573	13.328	13.289	13.363
ProbeTrack7	7	ProbeTrack	1406	SCS215a	733716.373810	733716.382956	8	0.013327	60	10	60-180	60	117	GapExp	0	71	4	6	0	target	0	387	13.328	13.293	13.363
ProbeTrack7	7	ProbeTrack	1406	SCS215a	733716.373810	733716.383045	8	0.013327	60	10	60-180	60	161	GapExp	0	72	4	96	1	target	1	520	13.328	13.293	13.363
ProbeTrack7	7	ProbeTrack	1406	SCS215a	733716.373810	733716.383155	8	0.013327	60	10	60-180	60	115	GapExp	0	73	4	0	0	distractor	1	587	13.328	13.293	13.363
ProbeTrack7	7	ProbeTrack	1406	SCS215a	733716.373810	733716.383258	8	0.013327	60	10	60-180	60	124	GapExp	0	74	4	3	0	distractor	1	493	13.328	13.293	13.364
ProbeTrack7	7	ProbeTrack	1406	SCS215a	733716.373810	733716.383399	8	0.013327	60	10	60-180	60	180	GapExp	0	75	4	6	1	target	1	467	13.328	13.293	13.363
ProbeTrack7	7	ProbeTrack	1406	SCS215a	733716.373810	733716.383508	8	0.013327	60	10	60-180	60	65	GapExp	0	76	4	0	0	target	0	427	13.328	13.293	13.363
ProbeTrack7	7	ProbeTrack	1406	SCS215a	733716.373810	733716.383623	8	0.013327	60	10	60-180	60	179	GapExp	0	77	4	96	1	target	1	653	13.328	13.293	13.363
ProbeTrack7	7	ProbeTrack	1406	SCS215a	733716.373810	733716.383787	8	0.013327	60	10	60-180	60	135	GapExp	0	78	4	96	1	target	1	440	13.328	13.293	13.363
ProbeTrack7	7	ProbeTrack	1406	SCS215a	733716.373810	733716.383910	8	0.013327	60	10	60-180	60	154	GapExp	0	79	4	0	0	target	0	520	13.328	13.293	13.368
ProbeTrack7	7	ProbeTrack	1406	SCS215a	733716.373810	733716.384023	8	0.013327	60	10	60-180	60	113	GapExp	0	80	4	3	1	target	1	467	13.328	13.290	13.365
ProbeTrack7	7	ProbeTrack	1406	SCS215a	733716.373810	733716.384121	8	0.013327	60	10	60-180	60	148	GapExp	0	81	4	6	1	distractor	0	867	13.328	13.289	13.366
ProbeTrack7	7	ProbeTrack	1406	SCS215a	733716.373810	733716.384239	8	0.013327	60	10	60-180	60	107	GapExp	0	82	4	0	1	target	1	413	13.328	13.293	13.363
ProbeTrack7	7	ProbeTrack	1406	SCS215a	733716.373810	733716.384315	8	0.013327	60	10	60-180	60	89	GapExp	0	83	4	3	1	target	1	467	13.328	13.292	13.363
ProbeTrack7	7	ProbeTrack	1406	SCS215a	733716.373810	733716.384411	8	0.013327	60	10	60-180	60	95	GapExp	0	84	4	96	0	distractor	1	720	13.328	13.293	13.363
ProbeTrack7	7	ProbeTrack	1406	SCS215a	733716.373810	733716.384517	8	0.013327	60	10	60-180	60	103	GapExp	0	85	4	96	0	distractor	1	547	13.328	13.293	13.368
ProbeTrack7	7	ProbeTrack	1406	SCS215a	733716.373810	733716.384631	8	0.013327	60	10	60-180	60	134	GapExp	0	86	4	3	0	distractor	1	587	13.328	13.292	13.363
ProbeTrack7	7	ProbeTrack	1406	SCS215a	733716.373810	733716.384750	8	0.013327	60	10	60-180	60	96	GapExp	0	87	4	0	1	target	1	453	13.328	13.293	13.363
ProbeTrack7	7	ProbeTrack	1406	SCS215a	733716.373810	733716.384853	8	0.013327	60	10	60-180	60	134	GapExp	0	88	4	0	0	distractor	1	613	13.328	13.293	13.366
ProbeTrack7	7	ProbeTrack	1406	SCS215a	733716.373810	733716.384960	8	0.013327	60	10	60-180	60	79	GapExp	0	89	4	0	0	distractor	1	800	13.328	13.293	13.363
ProbeTrack7	7	ProbeTrack	1406	SCS215a	733716.373810	733716.385098	8	0.013327	60	10	60-180	60	159	GapExp	0	90	4	6	1	distractor	0	587	13.328	13.292	13.363
ProbeTrack7	7	ProbeTrack	1406	SCS215a	733716.373810	733716.385206	8	0.013327	60	10	60-180	60	123	GapExp	0	91	4	6	0	distractor	1	613	13.328	13.293	13.363
ProbeTrack7	7	ProbeTrack	1406	SCS215a	733716.373810	733716.385302	8	0.013327	60	10	60-180	60	151	GapExp	0	92	4	0	1	target	1	400	13.328	13.293	13.363
ProbeTrack7	7	ProbeTrack	1406	SCS215a	733716.373810	733716.385401	8	0.013327	60	10	60-180	60	104	GapExp	0	93	4	3	1	distractor	0	707	13.328	13.288	13.367
ProbeTrack7	7	ProbeTrack	1406	SCS215a	733716.373810	733716.385526	8	0.013327	60	10	60-180	60	143	GapExp	0	94	4	96	1	target	1	720	13.328	13.293	13.363
ProbeTrack7	7	ProbeTrack	1406	SCS215a	733716.373810	733716.385642	8	0.013327	60	10	60-180	60	135	GapExp	0	95	4	96	0	distractor	1	520	13.328	13.293	13.363
ProbeTrack7	7	ProbeTrack	1406	SCS215a	733716.373810	733716.385762	8	0.013327	60	10	60-180	60	104	GapExp	0	96	4	3	1	distractor	0	787	13.328	13.293	13.363
ProbeTrack7	7	ProbeTrack	1406	SCS215a	733716.373810	733716.385855	8	0.013327	60	10	60-180	60	96	GapExp	0	97	4	96	0	target	0	693	13.328	13.293	13.363
ProbeTrack7	7	ProbeTrack	1406	SCS215a	733716.373810	733716.385974	8	0.013327	60	10	60-180	60	86	GapExp	0	98	4	0	0	distractor	1	547	13.328	13.292	13.363
ProbeTrack7	7	ProbeTrack	1406	SCS215a	733716.373810	733716.386062	8	0.013327	60	10	60-180	60	150	GapExp	0	99	4	96	1	target	1	573	13.328	13.293	13.363
ProbeTrack7	7	ProbeTrack	1406	SCS215a	733716.373810	733716.386179	8	0.013327	60	10	60-180	60	152	GapExp	0	100	4	0	0	target	0	587	13.328	13.293	13.363
ProbeTrack7	7	ProbeTrack	1406	SCS215a	733716.373810	733716.386282	8	0.013327	60	10	60-180	60	89	GapExp	0	101	4	0	0	distractor	1	494	13.328	13.293	13.363
ProbeTrack7	7	ProbeTrack	1406	SCS215a	733716.373810	733716.386354	8	0.013327	60	10	60-180	60	89	GapExp	0	102	4	96	0	target	0	973	13.328	13.293	13.363
ProbeTrack7	7	ProbeTrack	1406	SCS215a	733716.373810	733716.386492	8	0.013327	60	10	60-180	60	105	GapExp	0	103	4	6	0	distractor	1	693	13.328	13.292	13.363
ProbeTrack7	7	ProbeTrack	1406	SCS215a	733716.373810	733716.386591	8	0.013327	60	10	60-180	60	111	GapExp	0	104	4	96	0	distractor	1	533	13.328	13.293	13.363
ProbeTrack7	7	ProbeTrack	1406	SCS215a	733716.373810	733716.386725	8	0.013327	60	10	60-180	60	117	GapExp	0	105	4	96	1	target	1	453	13.328	13.293	13.363
ProbeTrack7	7	ProbeTrack	1406	SCS215a	733716.373810	733716.386883	8	0.013327	60	10	60-180	60	168	GapExp	0	106	4	96	1	target	1	773	13.328	13.293	13.363
ProbeTrack7	7	ProbeTrack	1406	SCS215a	733716.373810	733716.387035	8	0.013327	60	10	60-180	60	127	GapExp	0	107	4	0	1	target	1	467	13.328	13.293	13.363
ProbeTrack7	7	ProbeTrack	1406	SCS215a	733716.373810	733716.387130	8	0.013327	60	10	60-180	60	105	GapExp	0	108	4	3	1	target	1	373	13.328	13.293	13.363
ProbeTrack7	7	ProbeTrack	1406	SCS215a	733716.373810	733716.387246	8	0.013327	60	10	60-180	60	153	GapExp	0	109	4	3	0	distractor	1	640	13.328	13.293	13.363
ProbeTrack7	7	ProbeTrack	1406	SCS215a	733716.373810	733716.387353	8	0.013327	60	10	60-180	60	123	GapExp	0	110	4	3	0	target	0	827	13.328	13.293	13.363
ProbeTrack7	7	ProbeTrack	1406	SCS215a	733716.373810	733716.387457	8	0.013327	60	10	60-180	60	113	GapExp	0	111	4	0	1	target	1	480	13.328	13.289	13.367
ProbeTrack7	7	ProbeTrack	1406	SCS215a	733716.373810	733716.387546	8	0.013327	60	10	60-180	60	138	GapExp	0	112	4	0	0	target	0	693	13.328	13.293	13.363
ProbeTrack7	7	ProbeTrack	1406	SCS215a	733716.373810	733716.387648	8	0.013327	60	10	60-180	60	78	GapExp	0	113	4	96	0	distractor	1	413	13.328	13.293	13.363
ProbeTrack7	7	ProbeTrack	1406	SCS215a	733716.373810	733716.387750	8	0.013327	60	10	60-180	60	139	GapExp	0	114	4	0	1	target	1	467	13.328	13.293	13.364
ProbeTrack7	7	ProbeTrack	1406	SCS215a	733716.373810	733716.387855	8	0.013327	60	10	60-180	60	132	GapExp	0	115	4	6	1	target	1	307	13.328	13.293	13.363
ProbeTrack7	7	ProbeTrack	1406	SCS215a	733716.373810	733716.387970	8	0.013327	60	10	60-180	60	155	GapExp	0	116	4	6	1	target	1	427	13.328	13.293	13.363
ProbeTrack7	7	ProbeTrack	1406	SCS215a	733716.373810	733716.388087	8	0.013327	60	10	60-180	60	162	GapExp	0	117	4	3	0	distractor	1	507	13.328	13.293	13.363
ProbeTrack7	7	ProbeTrack	1406	SCS215a	733716.373810	733716.388217	8	0.013327	60	10	60-180	60	165	GapExp	0	118	4	96	1	distractor	0	693	13.328	13.290	13.366
ProbeTrack7	7	ProbeTrack	1406	SCS215a	733716.373810	733716.388341	8	0.013327	60	10	60-180	60	123	GapExp	0	119	4	6	0	target	0	587	13.328	13.291	13.364
ProbeTrack7	7	ProbeTrack	1406	SCS215a	733716.373810	733716.388436	8	0.013327	60	10	60-180	60	146	GapExp	0	120	4	6	0	distractor	1	640	13.328	13.292	13.363
ProbeTrack7	7	ProbeTrack	1406	SCS215a	733716.373810	733716.388546	8	0.013327	60	10	60-180	60	77	GapExp	0	121	4	6	1	target	1	640	13.328	13.293	13.363
ProbeTrack7	7	ProbeTrack	1406	SCS215a	733716.373810	733716.388650	8	0.013327	60	10	60-180	60	78	GapExp	0	122	4	6	0	distractor	1	773	13.328	13.293	13.363
ProbeTrack7	7	ProbeTrack	1406	SCS215a	733716.373810	733716.388761	8	0.013327	60	10	60-180	60	148	GapExp	0	123	4	3	1	distractor	0	520	13.328	13.293	13.363
ProbeTrack7	7	ProbeTrack	1406	SCS215a	733716.373810	733716.388874	8	0.013327	60	10	60-180	60	98	GapExp	0	124	4	6	1	target	1	453	13.328	13.293	13.363
ProbeTrack7	7	ProbeTrack	1406	SCS215a	733716.373810	733716.388966	8	0.013327	60	10	60-180	60	97	GapExp	0	125	4	6	0	distractor	1	400	13.328	13.289	13.363
