exp	sub	code	rev	comp	runtime	trialtime	nstim	refreshdur	cuedur	gapdur	gapOnsetRange	durPostProbe	gapOnsetTime	blocktype	prac	trial	ntargets	soa	probeTarget	resp	acc	rt	meanFrameDur	minFrameDur	maxFrameDur
ProbeTrack7	24	ProbeTrack	1406	SCS215f	733725.340136	733725.340567	8	0.013328	60	0	60-180	60	109	NoGap	1	1	4	6	1	target	1	3092	13.328	13.320	13.335
ProbeTrack7	24	ProbeTrack	1406	SCS215f	733725.340136	733725.340733	8	0.013328	60	0	60-180	60	144	NoGap	1	2	4	96	0	distractor	1	573	13.328	13.324	13.333
ProbeTrack7	24	ProbeTrack	1406	SCS215f	733725.340136	733725.341162	8	0.013328	60	0	60-180	60	92	NoGap	1	3	4	6	1	distractor	0	533	13.328	13.316	13.340
ProbeTrack7	24	ProbeTrack	1406	SCS215f	733725.340136	733725.341258	8	0.013328	60	0	60-180	60	79	NoGap	1	4	4	6	0	distractor	1	1026	13.328	13.325	13.331
ProbeTrack7	24	ProbeTrack	1406	SCS215f	733725.340136	733725.341367	8	0.013328	60	0	60-180	60	68	NoGap	1	5	4	0	0	distractor	1	680	13.328	13.323	13.334
ProbeTrack7	24	ProbeTrack	1406	SCS215f	733725.340136	733725.341447	8	0.013328	60	0	60-180	60	93	NoGap	1	6	4	3	1	distractor	0	653	13.328	13.325	13.333
ProbeTrack7	24	ProbeTrack	1406	SCS215f	733725.340136	733725.341532	8	0.013328	60	0	60-180	60	164	NoGap	1	7	4	0	1	target	1	560	13.328	13.324	13.333
ProbeTrack7	24	ProbeTrack	1406	SCS215f	733725.340136	733725.341625	8	0.013328	60	0	60-180	60	79	NoGap	1	8	4	96	1	target	1	507	13.328	13.323	13.333
ProbeTrack7	24	ProbeTrack	1406	SCS215f	733725.340136	733725.341718	8	0.013328	60	0	60-180	60	172	NoGap	1	9	4	0	1	target	1	680	13.328	13.322	13.334
ProbeTrack7	24	ProbeTrack	1406	SCS215f	733725.340136	733725.341805	8	0.013328	60	0	60-180	60	159	NoGap	1	10	4	3	1	target	1	560	13.328	13.324	13.332
ProbeTrack7	24	ProbeTrack	1406	SCS215f	733725.340136	733725.341944	8	0.013328	60	0	60-180	60	73	NoGap	1	11	4	3	0	distractor	1	613	13.328	13.324	13.334
ProbeTrack7	24	ProbeTrack	1406	SCS215f	733725.340136	733725.342024	8	0.013328	60	0	60-180	60	160	NoGap	1	12	4	96	0	distractor	1	760	13.328	13.321	13.336
ProbeTrack7	24	ProbeTrack	1406	SCS215f	733725.340136	733725.342124	8	0.013328	60	0	60-180	60	75	NoGap	1	13	4	6	1	target	1	507	13.328	13.325	13.332
ProbeTrack7	24	ProbeTrack	1406	SCS215f	733725.340136	733725.342194	8	0.013328	60	0	60-180	60	117	NoGap	1	14	4	6	0	distractor	1	533	13.328	13.324	13.333
ProbeTrack7	24	ProbeTrack	1406	SCS215f	733725.340136	733725.342276	8	0.013328	60	0	60-180	60	179	NoGap	1	15	4	0	0	distractor	1	573	13.328	13.321	13.336
ProbeTrack7	24	ProbeTrack	1406	SCS215f	733725.340136	733725.342362	8	0.013328	60	0	60-180	60	139	NoGap	1	16	4	0	0	distractor	1	520	13.328	13.324	13.333
ProbeTrack7	24	ProbeTrack	1406	SCS215f	733725.340136	733725.342453	8	0.013328	60	0	60-180	60	146	NoGap	1	17	4	6	0	distractor	1	720	13.328	13.323	13.334
ProbeTrack7	24	ProbeTrack	1406	SCS215f	733725.340136	733725.342542	8	0.013328	60	0	60-180	60	69	NoGap	1	18	4	3	1	distractor	0	573	13.328	13.324	13.334
ProbeTrack7	24	ProbeTrack	1406	SCS215f	733725.340136	733725.342618	8	0.013328	60	0	60-180	60	79	NoGap	1	19	4	0	1	target	1	347	13.328	13.307	13.348
ProbeTrack7	24	ProbeTrack	1406	SCS215f	733725.340136	733725.342766	8	0.013328	60	0	60-180	60	92	NoGap	1	20	4	6	1	target	1	680	13.328	13.323	13.334
ProbeTrack7	24	ProbeTrack	1406	SCS215f	733725.340136	733725.342861	8	0.013328	60	0	60-180	60	153	NoGap	1	21	4	0	0	distractor	1	533	13.328	13.323	13.334
ProbeTrack7	24	ProbeTrack	1406	SCS215f	733725.340136	733725.342940	8	0.013328	60	0	60-180	60	146	NoGap	1	22	4	6	0	distractor	1	573	13.328	13.322	13.335
ProbeTrack7	24	ProbeTrack	1406	SCS215f	733725.340136	733725.343024	8	0.013328	60	0	60-180	60	64	NoGap	1	23	4	0	1	target	1	813	13.328	13.325	13.330
ProbeTrack7	24	ProbeTrack	1406	SCS215f	733725.340136	733725.343092	8	0.013328	60	0	60-180	60	61	NoGap	1	24	4	3	1	target	1	414	13.328	13.323	13.334
ProbeTrack7	24	ProbeTrack	1406	SCS215f	733725.340136	733725.343165	8	0.013328	60	0	60-180	60	154	NoGap	1	25	4	6	1	target	1	507	13.328	13.320	13.335
ProbeTrack7	24	ProbeTrack	1406	SCS215f	733725.340136	733725.343245	8	0.013328	60	0	60-180	60	64	NoGap	1	26	4	6	0	distractor	1	507	13.328	13.321	13.335
ProbeTrack7	24	ProbeTrack	1406	SCS215f	733725.340136	733725.343333	8	0.013328	60	0	60-180	60	92	NoGap	1	27	4	3	1	target	1	360	13.328	13.323	13.333
ProbeTrack7	24	ProbeTrack	1406	SCS215f	733725.340136	733725.343402	8	0.013328	60	0	60-180	60	101	NoGap	1	28	4	0	0	distractor	1	294	13.328	13.324	13.334
ProbeTrack7	24	ProbeTrack	1406	SCS215f	733725.340136	733725.343468	8	0.013328	60	0	60-180	60	180	NoGap	1	29	4	0	0	target	0	387	13.328	13.321	13.334
ProbeTrack7	24	ProbeTrack	1406	SCS215f	733725.340136	733725.343547	8	0.013328	60	0	60-180	60	67	NoGap	1	30	4	96	0	target	0	747	13.328	13.323	13.333
ProbeTrack7	24	ProbeTrack	1406	SCS215f	733725.340136	733725.343647	8	0.013328	60	0	60-180	60	115	NoGap	1	31	4	6	1	distractor	0	454	13.328	13.320	13.336
ProbeTrack7	24	ProbeTrack	1406	SCS215f	733725.340136	733725.343727	8	0.013328	60	0	60-180	60	64	NoGap	1	32	4	96	0	distractor	1	387	13.328	13.323	13.334
ProbeTrack7	24	ProbeTrack	1406	SCS215f	733725.340136	733725.343862	8	0.013328	60	0	60-180	60	82	NoGap	1	33	4	96	1	distractor	0	627	13.328	13.324	13.332
ProbeTrack7	24	ProbeTrack	1406	SCS215f	733725.340136	733725.343945	8	0.013328	60	0	60-180	60	87	NoGap	1	34	4	6	1	target	1	520	13.328	13.324	13.332
ProbeTrack7	24	ProbeTrack	1406	SCS215f	733725.340136	733725.344020	8	0.013328	60	0	60-180	60	154	NoGap	1	35	4	3	1	target	1	507	13.328	13.324	13.332
ProbeTrack7	24	ProbeTrack	1406	SCS215f	733725.340136	733725.344096	8	0.013328	60	0	60-180	60	141	NoGap	1	36	4	96	1	distractor	0	533	13.328	13.324	13.333
ProbeTrack7	24	ProbeTrack	1406	SCS215f	733725.340136	733725.344192	8	0.013328	60	0	60-180	60	120	NoGap	1	37	4	3	0	target	0	480	13.328	13.324	13.331
ProbeTrack7	24	ProbeTrack	1406	SCS215f	733725.340136	733725.344267	8	0.013328	60	0	60-180	60	108	NoGap	1	38	4	6	0	distractor	1	520	13.328	13.324	13.333
ProbeTrack7	24	ProbeTrack	1406	SCS215f	733725.340136	733725.344331	8	0.013328	60	0	60-180	60	165	NoGap	1	39	4	0	1	target	1	547	13.328	13.326	13.332
ProbeTrack7	24	ProbeTrack	1406	SCS215f	733725.340136	733725.344431	8	0.013328	60	0	60-180	60	66	NoGap	1	40	4	96	1	target	1	533	13.328	13.322	13.334
ProbeTrack7	24	ProbeTrack	1406	SCS215f	733725.340136	733725.344531	8	0.013328	60	0	60-180	60	171	NoGap	1	41	4	96	1	target	1	627	13.328	13.315	13.342
ProbeTrack7	24	ProbeTrack	1406	SCS215f	733725.340136	733725.344633	8	0.013328	60	0	60-180	60	156	NoGap	1	42	4	3	0	distractor	1	560	13.328	13.323	13.334
ProbeTrack7	24	ProbeTrack	1406	SCS215f	733725.340136	733725.344721	8	0.013328	60	0	60-180	60	179	NoGap	1	43	4	3	0	target	0	587	13.328	13.323	13.333
ProbeTrack7	24	ProbeTrack	1406	SCS215f	733725.340136	733725.344810	8	0.013328	60	0	60-180	60	142	NoGap	1	44	4	96	1	distractor	0	733	13.328	13.318	13.338
ProbeTrack7	24	ProbeTrack	1406	SCS215f	733725.340136	733725.344906	8	0.013328	60	0	60-180	60	121	NoGap	1	45	4	3	0	distractor	1	667	13.328	13.325	13.332
ProbeTrack7	24	ProbeTrack	1406	SCS215f	733725.340136	733725.344987	8	0.013328	60	0	60-180	60	95	NoGap	1	46	4	3	1	target	1	560	13.328	13.322	13.335
ProbeTrack7	24	ProbeTrack	1406	SCS215f	733725.340136	733725.345060	8	0.013328	60	0	60-180	60	146	NoGap	1	47	4	0	1	target	1	507	13.328	13.325	13.331
ProbeTrack7	24	ProbeTrack	1406	SCS215f	733725.340136	733725.345138	8	0.013328	60	0	60-180	60	81	NoGap	1	48	4	96	0	distractor	1	547	13.328	13.323	13.334
ProbeTrack7	24	ProbeTrack	1406	SCS215f	733725.340136	733725.345246	8	0.013328	60	0	60-180	60	63	NoGap	1	49	4	96	0	target	0	454	13.328	13.321	13.335
ProbeTrack7	24	ProbeTrack	1406	SCS215f	733725.340136	733725.345339	8	0.013328	60	0	60-180	60	174	NoGap	1	50	4	0	1	target	1	747	13.328	13.323	13.334
ProbeTrack7	24	ProbeTrack	1406	SCS215f	733725.346466	733725.346836	8	0.013328	60	10	60-180	60	153	GapPrac	1	1	4	0	1	target	1	320	13.328	13.324	13.332
ProbeTrack7	24	ProbeTrack	1406	SCS215f	733725.346466	733725.346966	8	0.013328	60	10	60-180	60	172	GapPrac	1	2	4	96	0	distractor	1	680	13.328	13.322	13.334
ProbeTrack7	24	ProbeTrack	1406	SCS215f	733725.346466	733725.347072	8	0.013328	60	10	60-180	60	90	GapPrac	1	3	4	0	0	distractor	1	787	13.328	13.324	13.332
ProbeTrack7	24	ProbeTrack	1406	SCS215f	733725.346466	733725.347156	8	0.013328	60	10	60-180	60	66	GapPrac	1	4	4	6	0	target	0	120	13.328	13.323	13.333
ProbeTrack7	24	ProbeTrack	1406	SCS215f	733725.346466	733725.347225	8	0.013328	60	10	60-180	60	138	GapPrac	1	5	4	0	0	distractor	1	813	13.328	13.324	13.333
ProbeTrack7	24	ProbeTrack	1406	SCS215f	733725.346466	733725.347307	8	0.013328	60	10	60-180	60	107	GapPrac	1	6	4	0	0	distractor	1	493	13.328	13.324	13.333
ProbeTrack7	24	ProbeTrack	1406	SCS215f	733725.346466	733725.347385	8	0.013328	60	10	60-180	60	121	GapPrac	1	7	4	3	0	distractor	1	613	13.328	13.318	13.339
ProbeTrack7	24	ProbeTrack	1406	SCS215f	733725.346466	733725.347465	8	0.013328	60	10	60-180	60	163	GapPrac	1	8	4	0	1	target	1	493	13.328	13.318	13.338
ProbeTrack7	24	ProbeTrack	1406	SCS215f	733725.346466	733725.347544	8	0.013328	60	10	60-180	60	153	GapPrac	1	9	4	96	0	distractor	1	640	13.328	13.315	13.341
ProbeTrack7	24	ProbeTrack	1406	SCS215f	733725.346466	733725.347648	8	0.013328	60	10	60-180	60	174	GapPrac	1	10	4	6	1	target	1	440	13.328	13.322	13.334
ProbeTrack7	24	ProbeTrack	1406	SCS215f	733725.346466	733725.347751	8	0.013328	60	10	60-180	60	100	GapPrac	1	11	4	96	0	distractor	1	640	13.328	13.324	13.332
ProbeTrack7	24	ProbeTrack	1406	SCS215f	733725.346466	733725.347859	8	0.013328	60	10	60-180	60	137	GapPrac	1	12	4	3	1	target	1	493	13.328	13.323	13.334
ProbeTrack7	24	ProbeTrack	1406	SCS215f	733725.346466	733725.347938	8	0.013328	60	10	60-180	60	164	GapPrac	1	13	4	6	1	target	1	613	13.328	13.324	13.332
ProbeTrack7	24	ProbeTrack	1406	SCS215f	733725.346466	733725.348020	8	0.013328	60	10	60-180	60	158	GapPrac	1	14	4	6	0	distractor	1	560	13.328	13.324	13.332
ProbeTrack7	24	ProbeTrack	1406	SCS215f	733725.346466	733725.348196	8	0.013328	60	10	60-180	60	99	GapPrac	1	15	4	6	0	distractor	1	693	13.328	13.323	13.332
ProbeTrack7	24	ProbeTrack	1406	SCS215f	733725.346466	733725.348282	8	0.013328	60	10	60-180	60	81	GapPrac	1	16	4	0	1	target	1	680	13.328	13.323	13.333
ProbeTrack7	24	ProbeTrack	1406	SCS215f	733725.346466	733725.348359	8	0.013328	60	10	60-180	60	131	GapPrac	1	17	4	96	1	target	1	507	13.328	13.325	13.332
ProbeTrack7	24	ProbeTrack	1406	SCS215f	733725.346466	733725.348451	8	0.013328	60	10	60-180	60	152	GapPrac	1	18	4	96	1	target	1	280	13.328	13.324	13.333
ProbeTrack7	24	ProbeTrack	1406	SCS215f	733725.346466	733725.348543	8	0.013328	60	10	60-180	60	64	GapPrac	1	19	4	3	0	target	0	454	13.328	13.323	13.334
ProbeTrack7	24	ProbeTrack	1406	SCS215f	733725.346466	733725.348749	8	0.013328	60	10	60-180	60	140	GapPrac	1	20	4	3	1	target	1	360	13.328	13.322	13.334
ProbeTrack7	24	ProbeTrack	1406	SCS215f	733725.349428	733725.349552	8	0.013328	60	10	60-180	60	119	GapExp	1	1	4	6	1	target	1	254	13.328	13.323	13.332
ProbeTrack7	24	ProbeTrack	1406	SCS215f	733725.349428	733725.349659	8	0.013328	60	10	60-180	60	104	GapExp	1	2	4	6	0	distractor	1	373	13.328	13.323	13.332
ProbeTrack7	24	ProbeTrack	1406	SCS215f	733725.349428	733725.349733	8	0.013328	60	10	60-180	60	108	GapExp	1	3	4	96	1	target	1	507	13.328	13.324	13.333
ProbeTrack7	24	ProbeTrack	1406	SCS215f	733725.349428	733725.349827	8	0.013328	60	10	60-180	60	90	GapExp	1	4	4	0	0	distractor	1	627	13.328	13.314	13.342
ProbeTrack7	24	ProbeTrack	1406	SCS215f	733725.349428	733725.349900	8	0.013328	60	10	60-180	60	79	GapExp	1	5	4	96	0	distractor	1	560	13.328	13.325	13.332
ProbeTrack7	24	ProbeTrack	1406	SCS215f	733725.349428	733725.349984	8	0.013328	60	10	60-180	60	119	GapExp	0	6	4	0	1	distractor	0	694	13.328	13.314	13.341
ProbeTrack7	24	ProbeTrack	1406	SCS215f	733725.349428	733725.350054	8	0.013328	60	10	60-180	60	166	GapExp	0	7	4	96	1	target	1	600	13.328	13.323	13.333
ProbeTrack7	24	ProbeTrack	1406	SCS215f	733725.349428	733725.350155	8	0.013328	60	10	60-180	60	76	GapExp	0	8	4	0	1	target	1	240	13.328	13.323	13.333
ProbeTrack7	24	ProbeTrack	1406	SCS215f	733725.349428	733725.350386	8	0.013328	60	10	60-180	60	88	GapExp	0	9	4	3	1	target	1	480	13.328	13.325	13.332
ProbeTrack7	24	ProbeTrack	1406	SCS215f	733725.349428	733725.350460	8	0.013328	60	10	60-180	60	65	GapExp	0	10	4	96	0	distractor	1	680	13.328	13.322	13.333
ProbeTrack7	24	ProbeTrack	1406	SCS215f	733725.349428	733725.350544	8	0.013328	60	10	60-180	60	76	GapExp	0	11	4	3	0	distractor	1	573	13.328	13.323	13.333
ProbeTrack7	24	ProbeTrack	1406	SCS215f	733725.349428	733725.350606	8	0.013328	60	10	60-180	60	117	GapExp	0	12	4	96	1	target	1	387	13.328	13.323	13.332
ProbeTrack7	24	ProbeTrack	1406	SCS215f	733725.349428	733725.350692	8	0.013328	60	10	60-180	60	152	GapExp	0	13	4	3	1	target	1	1106	13.328	13.319	13.338
ProbeTrack7	24	ProbeTrack	1406	SCS215f	733725.349428	733725.350777	8	0.013328	60	10	60-180	60	142	GapExp	0	14	4	0	0	target	0	320	13.328	13.323	13.332
ProbeTrack7	24	ProbeTrack	1406	SCS215f	733725.349428	733725.350884	8	0.013328	60	10	60-180	60	165	GapExp	0	15	4	0	1	distractor	0	347	13.328	13.322	13.332
ProbeTrack7	24	ProbeTrack	1406	SCS215f	733725.349428	733725.350961	8	0.013328	60	10	60-180	60	131	GapExp	0	16	4	96	0	target	0	360	13.328	13.324	13.332
ProbeTrack7	24	ProbeTrack	1406	SCS215f	733725.349428	733725.351043	8	0.013328	60	10	60-180	60	99	GapExp	0	17	4	96	0	target	0	573	13.328	13.323	13.332
ProbeTrack7	24	ProbeTrack	1406	SCS215f	733725.349428	733725.351136	8	0.013328	60	10	60-180	60	64	GapExp	0	18	4	6	1	distractor	0	373	13.328	13.326	13.332
ProbeTrack7	24	ProbeTrack	1406	SCS215f	733725.349428	733725.351214	8	0.013328	60	10	60-180	60	145	GapExp	0	19	4	6	0	distractor	1	480	13.328	13.324	13.332
ProbeTrack7	24	ProbeTrack	1406	SCS215f	733725.349428	733725.351299	8	0.013328	60	10	60-180	60	97	GapExp	0	20	4	6	0	distractor	1	693	13.328	13.323	13.333
ProbeTrack7	24	ProbeTrack	1406	SCS215f	733725.349428	733725.351374	8	0.013328	60	10	60-180	60	95	GapExp	0	21	4	96	0	target	0	427	13.328	13.323	13.333
ProbeTrack7	24	ProbeTrack	1406	SCS215f	733725.349428	733725.351462	8	0.013328	60	10	60-180	60	80	GapExp	0	22	4	6	0	distractor	1	733	13.328	13.318	13.337
ProbeTrack7	24	ProbeTrack	1406	SCS215f	733725.349428	733725.351531	8	0.013328	60	10	60-180	60	175	GapExp	0	23	4	3	0	target	0	827	13.328	13.319	13.337
ProbeTrack7	24	ProbeTrack	1406	SCS215f	733725.349428	733725.351619	8	0.013328	60	10	60-180	60	125	GapExp	0	24	4	0	1	distractor	0	307	13.328	13.318	13.338
ProbeTrack7	24	ProbeTrack	1406	SCS215f	733725.349428	733725.351693	8	0.013328	60	10	60-180	60	76	GapExp	0	25	4	3	0	distractor	1	587	13.328	13.325	13.331
ProbeTrack7	24	ProbeTrack	1406	SCS215f	733725.349428	733725.351763	8	0.013328	60	10	60-180	60	118	GapExp	0	26	4	6	0	distractor	1	680	13.328	13.325	13.331
ProbeTrack7	24	ProbeTrack	1406	SCS215f	733725.349428	733725.351840	8	0.013328	60	10	60-180	60	139	GapExp	0	27	4	96	0	target	0	480	13.328	13.324	13.334
ProbeTrack7	24	ProbeTrack	1406	SCS215f	733725.349428	733725.351930	8	0.013328	60	10	60-180	60	126	GapExp	0	28	4	0	1	target	1	947	13.328	13.323	13.333
ProbeTrack7	24	ProbeTrack	1406	SCS215f	733725.349428	733725.352009	8	0.013328	60	10	60-180	60	117	GapExp	0	29	4	3	1	target	1	454	13.328	13.323	13.333
ProbeTrack7	24	ProbeTrack	1406	SCS215f	733725.349428	733725.352115	8	0.013328	60	10	60-180	60	137	GapExp	0	30	4	6	1	target	1	387	13.328	13.324	13.333
ProbeTrack7	24	ProbeTrack	1406	SCS215f	733725.349428	733725.352194	8	0.013328	60	10	60-180	60	93	GapExp	0	31	4	0	0	distractor	1	493	13.328	13.326	13.332
ProbeTrack7	24	ProbeTrack	1406	SCS215f	733725.349428	733725.352261	8	0.013328	60	10	60-180	60	158	GapExp	0	32	4	96	1	distractor	0	667	13.328	13.323	13.332
ProbeTrack7	24	ProbeTrack	1406	SCS215f	733725.349428	733725.352359	8	0.013328	60	10	60-180	60	146	GapExp	0	33	4	6	0	target	0	414	13.328	13.325	13.332
ProbeTrack7	24	ProbeTrack	1406	SCS215f	733725.349428	733725.352443	8	0.013328	60	10	60-180	60	80	GapExp	0	34	4	96	0	target	0	653	13.328	13.323	13.333
ProbeTrack7	24	ProbeTrack	1406	SCS215f	733725.349428	733725.352528	8	0.013328	60	10	60-180	60	115	GapExp	0	35	4	96	1	target	1	693	13.328	13.322	13.333
ProbeTrack7	24	ProbeTrack	1406	SCS215f	733725.349428	733725.352619	8	0.013328	60	10	60-180	60	85	GapExp	0	36	4	6	0	distractor	1	627	13.328	13.323	13.334
ProbeTrack7	24	ProbeTrack	1406	SCS215f	733725.349428	733725.352687	8	0.013328	60	10	60-180	60	125	GapExp	0	37	4	0	1	target	1	494	13.328	13.321	13.334
ProbeTrack7	24	ProbeTrack	1406	SCS215f	733725.349428	733725.352759	8	0.013328	60	10	60-180	60	97	GapExp	0	38	4	96	0	distractor	1	480	13.328	13.324	13.332
ProbeTrack7	24	ProbeTrack	1406	SCS215f	733725.349428	733725.352841	8	0.013328	60	10	60-180	60	175	GapExp	0	39	4	0	0	target	0	493	13.328	13.323	13.333
ProbeTrack7	24	ProbeTrack	1406	SCS215f	733725.349428	733725.352921	8	0.013328	60	10	60-180	60	132	GapExp	0	40	4	96	0	distractor	1	467	13.328	13.324	13.331
ProbeTrack7	24	ProbeTrack	1406	SCS215f	733725.349428	733725.353015	8	0.013328	60	10	60-180	60	120	GapExp	0	41	4	96	1	target	1	733	13.328	13.320	13.335
ProbeTrack7	24	ProbeTrack	1406	SCS215f	733725.349428	733725.353108	8	0.013328	60	10	60-180	60	65	GapExp	0	42	4	3	1	target	1	547	13.328	13.323	13.333
ProbeTrack7	24	ProbeTrack	1406	SCS215f	733725.349428	733725.353173	8	0.013328	60	10	60-180	60	106	GapExp	0	43	4	96	0	distractor	1	600	13.328	13.323	13.334
ProbeTrack7	24	ProbeTrack	1406	SCS215f	733725.349428	733725.353260	8	0.013328	60	10	60-180	60	75	GapExp	0	44	4	3	1	distractor	0	414	13.328	13.324	13.333
ProbeTrack7	24	ProbeTrack	1406	SCS215f	733725.349428	733725.353326	8	0.013328	60	10	60-180	60	139	GapExp	0	45	4	6	0	distractor	1	520	13.328	13.321	13.335
ProbeTrack7	24	ProbeTrack	1406	SCS215f	733725.349428	733725.353411	8	0.013328	60	10	60-180	60	143	GapExp	0	46	4	6	0	target	0	400	13.328	13.323	13.332
ProbeTrack7	24	ProbeTrack	1406	SCS215f	733725.349428	733725.353490	8	0.013328	60	10	60-180	60	108	GapExp	0	47	4	0	0	distractor	1	787	13.328	13.324	13.332
ProbeTrack7	24	ProbeTrack	1406	SCS215f	733725.349428	733725.353567	8	0.013328	60	10	60-180	60	96	GapExp	0	48	4	96	0	distractor	1	467	13.328	13.322	13.334
ProbeTrack7	24	ProbeTrack	1406	SCS215f	733725.349428	733725.353796	8	0.013328	60	10	60-180	60	98	GapExp	0	49	4	6	1	target	1	627	13.328	13.319	13.338
ProbeTrack7	24	ProbeTrack	1406	SCS215f	733725.349428	733725.353870	8	0.013328	60	10	60-180	60	158	GapExp	0	50	4	0	1	target	1	453	13.328	13.325	13.331
ProbeTrack7	24	ProbeTrack	1406	SCS215f	733725.349428	733725.353951	8	0.013328	60	10	60-180	60	97	GapExp	0	51	4	0	1	target	1	453	13.328	13.325	13.331
ProbeTrack7	24	ProbeTrack	1406	SCS215f	733725.349428	733725.354017	8	0.013328	60	10	60-180	60	105	GapExp	0	52	4	6	1	target	1	374	13.328	13.323	13.333
ProbeTrack7	24	ProbeTrack	1406	SCS215f	733725.349428	733725.354089	8	0.013328	60	10	60-180	60	166	GapExp	0	53	4	3	1	distractor	0	254	13.328	13.323	13.332
ProbeTrack7	24	ProbeTrack	1406	SCS215f	733725.349428	733725.354166	8	0.013328	60	10	60-180	60	152	GapExp	0	54	4	96	1	target	1	454	13.328	13.324	13.331
ProbeTrack7	24	ProbeTrack	1406	SCS215f	733725.349428	733725.354262	8	0.013328	60	10	60-180	60	164	GapExp	0	55	4	6	0	distractor	1	427	13.328	13.324	13.332
ProbeTrack7	24	ProbeTrack	1406	SCS215f	733725.349428	733725.354342	8	0.013328	60	10	60-180	60	95	GapExp	0	56	4	3	1	distractor	0	307	13.328	13.321	13.334
ProbeTrack7	24	ProbeTrack	1406	SCS215f	733725.349428	733725.354408	8	0.013328	60	10	60-180	60	161	GapExp	0	57	4	6	0	distractor	1	520	13.328	13.323	13.335
ProbeTrack7	24	ProbeTrack	1406	SCS215f	733725.349428	733725.354490	8	0.013328	60	10	60-180	60	135	GapExp	0	58	4	0	0	target	0	627	13.328	13.324	13.334
ProbeTrack7	24	ProbeTrack	1406	SCS215f	733725.349428	733725.354567	8	0.013328	60	10	60-180	60	100	GapExp	0	59	4	0	1	target	1	480	13.328	13.325	13.331
ProbeTrack7	24	ProbeTrack	1406	SCS215f	733725.349428	733725.354635	8	0.013328	60	10	60-180	60	165	GapExp	0	60	4	0	0	distractor	1	454	13.328	13.323	13.333
ProbeTrack7	24	ProbeTrack	1406	SCS215f	733725.349428	733725.354714	8	0.013328	60	10	60-180	60	141	GapExp	0	61	4	96	1	target	1	320	13.328	13.324	13.332
ProbeTrack7	24	ProbeTrack	1406	SCS215f	733725.349428	733725.354816	8	0.013328	60	10	60-180	60	86	GapExp	0	62	4	0	1	target	1	760	13.328	13.321	13.335
ProbeTrack7	24	ProbeTrack	1406	SCS215f	733725.349428	733725.354891	8	0.013328	60	10	60-180	60	117	GapExp	0	63	4	3	0	target	0	493	13.328	13.324	13.331
ProbeTrack7	24	ProbeTrack	1406	SCS215f	733725.349428	733725.354963	8	0.013328	60	10	60-180	60	179	GapExp	0	64	4	3	0	distractor	1	467	13.328	13.323	13.333
ProbeTrack7	24	ProbeTrack	1406	SCS215f	733725.349428	733725.355046	8	0.013328	60	10	60-180	60	179	GapExp	0	65	4	6	0	target	0	3399	13.328	13.324	13.332
ProbeTrack7	24	ProbeTrack	1406	SCS215f	733725.349428	733725.355161	8	0.013328	60	10	60-180	60	61	GapExp	0	66	4	3	0	distractor	1	387	13.328	13.326	13.330
ProbeTrack7	24	ProbeTrack	1406	SCS215f	733725.349428	733725.355268	8	0.013328	60	10	60-180	60	142	GapExp	0	67	4	3	0	target	0	493	13.328	13.325	13.332
ProbeTrack7	24	ProbeTrack	1406	SCS215f	733725.349428	733725.355344	8	0.013328	60	10	60-180	60	141	GapExp	0	68	4	3	0	distractor	1	534	13.328	13.324	13.334
ProbeTrack7	24	ProbeTrack	1406	SCS215f	733725.349428	733725.355417	8	0.013328	60	10	60-180	60	93	GapExp	0	69	4	0	0	target	0	467	13.328	13.318	13.338
ProbeTrack7	24	ProbeTrack	1406	SCS215f	733725.349428	733725.355486	8	0.013328	60	10	60-180	60	116	GapExp	0	70	4	0	0	distractor	1	827	13.328	13.320	13.335
ProbeTrack7	24	ProbeTrack	1406	SCS215f	733725.349428	733725.355561	8	0.013328	60	10	60-180	60	76	GapExp	0	71	4	96	1	distractor	0	813	13.328	13.322	13.334
ProbeTrack7	24	ProbeTrack	1406	SCS215f	733725.349428	733725.355646	8	0.013328	60	10	60-180	60	84	GapExp	0	72	4	96	1	target	1	573	13.328	13.323	13.333
ProbeTrack7	24	ProbeTrack	1406	SCS215f	733725.349428	733725.355723	8	0.013328	60	10	60-180	60	169	GapExp	0	73	4	6	1	target	1	533	13.328	13.316	13.341
ProbeTrack7	24	ProbeTrack	1406	SCS215f	733725.349428	733725.355802	8	0.013328	60	10	60-180	60	68	GapExp	0	74	4	96	1	target	1	454	13.328	13.322	13.333
ProbeTrack7	24	ProbeTrack	1406	SCS215f	733725.349428	733725.355878	8	0.013328	60	10	60-180	60	71	GapExp	0	75	4	0	0	target	0	493	13.328	13.323	13.332
ProbeTrack7	24	ProbeTrack	1406	SCS215f	733725.349428	733725.355938	8	0.013328	60	10	60-180	60	99	GapExp	0	76	4	96	1	target	1	547	13.328	13.322	13.334
ProbeTrack7	24	ProbeTrack	1406	SCS215f	733725.349428	733725.356021	8	0.013328	60	10	60-180	60	163	GapExp	0	77	4	3	1	target	1	453	13.328	13.323	13.333
ProbeTrack7	24	ProbeTrack	1406	SCS215f	733725.349428	733725.356099	8	0.013328	60	10	60-180	60	99	GapExp	0	78	4	96	1	target	1	467	13.328	13.324	13.332
ProbeTrack7	24	ProbeTrack	1406	SCS215f	733725.349428	733725.356308	8	0.013328	60	10	60-180	60	139	GapExp	0	79	4	3	0	distractor	1	533	13.328	13.325	13.332
ProbeTrack7	24	ProbeTrack	1406	SCS215f	733725.349428	733725.356385	8	0.013328	60	10	60-180	60	100	GapExp	0	80	4	6	1	target	1	787	13.328	13.323	13.335
ProbeTrack7	24	ProbeTrack	1406	SCS215f	733725.349428	733725.356459	8	0.013328	60	10	60-180	60	111	GapExp	0	81	4	3	0	target	0	414	13.328	13.319	13.336
ProbeTrack7	24	ProbeTrack	1406	SCS215f	733725.349428	733725.356527	8	0.013328	60	10	60-180	60	171	GapExp	0	82	4	96	0	target	0	613	13.328	13.323	13.333
ProbeTrack7	24	ProbeTrack	1406	SCS215f	733725.349428	733725.356625	8	0.013328	60	10	60-180	60	83	GapExp	0	83	4	6	0	distractor	1	480	13.328	13.326	13.330
ProbeTrack7	24	ProbeTrack	1406	SCS215f	733725.349428	733725.356690	8	0.013328	60	10	60-180	60	86	GapExp	0	84	4	6	1	target	1	440	13.328	13.324	13.334
ProbeTrack7	24	ProbeTrack	1406	SCS215f	733725.349428	733725.356755	8	0.013328	60	10	60-180	60	155	GapExp	0	85	4	3	1	target	1	400	13.328	13.323	13.333
ProbeTrack7	24	ProbeTrack	1406	SCS215f	733725.349428	733725.356834	8	0.013328	60	10	60-180	60	180	GapExp	0	86	4	3	1	target	1	400	13.328	13.321	13.335
ProbeTrack7	24	ProbeTrack	1406	SCS215f	733725.349428	733725.356914	8	0.013328	60	10	60-180	60	102	GapExp	0	87	4	6	1	target	1	400	13.328	13.322	13.333
ProbeTrack7	24	ProbeTrack	1406	SCS215f	733725.349428	733725.356981	8	0.013328	60	10	60-180	60	64	GapExp	0	88	4	0	0	target	0	587	13.328	13.326	13.331
ProbeTrack7	24	ProbeTrack	1406	SCS215f	733725.349428	733725.357044	8	0.013328	60	10	60-180	60	131	GapExp	0	89	4	3	1	distractor	0	360	13.328	13.324	13.333
ProbeTrack7	24	ProbeTrack	1406	SCS215f	733725.349428	733725.357122	8	0.013328	60	10	60-180	60	137	GapExp	0	90	4	0	0	target	0	494	13.328	13.324	13.331
ProbeTrack7	24	ProbeTrack	1406	SCS215f	733725.349428	733725.357196	8	0.013328	60	10	60-180	60	95	GapExp	0	91	4	3	0	distractor	1	827	13.328	13.322	13.333
ProbeTrack7	24	ProbeTrack	1406	SCS215f	733725.349428	733725.357267	8	0.013328	60	10	60-180	60	176	GapExp	0	92	4	3	0	target	0	374	13.328	13.325	13.332
ProbeTrack7	24	ProbeTrack	1406	SCS215f	733725.349428	733725.357346	8	0.013328	60	10	60-180	60	74	GapExp	0	93	4	96	0	distractor	1	640	13.328	13.314	13.342
ProbeTrack7	24	ProbeTrack	1406	SCS215f	733725.349428	733725.357494	8	0.013328	60	10	60-180	60	73	GapExp	0	94	4	3	1	target	1	414	13.328	13.323	13.333
ProbeTrack7	24	ProbeTrack	1406	SCS215f	733725.349428	733725.357560	8	0.013328	60	10	60-180	60	92	GapExp	0	95	4	96	1	distractor	0	560	13.328	13.322	13.333
ProbeTrack7	24	ProbeTrack	1406	SCS215f	733725.349428	733725.357644	8	0.013328	60	10	60-180	60	61	GapExp	0	96	4	6	1	distractor	0	693	13.328	13.324	13.333
ProbeTrack7	24	ProbeTrack	1406	SCS215f	733725.349428	733725.357709	8	0.013328	60	10	60-180	60	164	GapExp	0	97	4	96	0	distractor	1	720	13.328	13.324	13.334
ProbeTrack7	24	ProbeTrack	1406	SCS215f	733725.349428	733725.357806	8	0.013328	60	10	60-180	60	70	GapExp	0	98	4	6	1	target	1	667	13.328	13.323	13.334
ProbeTrack7	24	ProbeTrack	1406	SCS215f	733725.349428	733725.357872	8	0.013328	60	10	60-180	60	138	GapExp	0	99	4	3	0	distractor	1	454	13.328	13.321	13.337
ProbeTrack7	24	ProbeTrack	1406	SCS215f	733725.349428	733725.357948	8	0.013328	60	10	60-180	60	175	GapExp	0	100	4	0	1	target	1	813	13.328	13.323	13.334
ProbeTrack7	24	ProbeTrack	1406	SCS215f	733725.349428	733725.358046	8	0.013328	60	10	60-180	60	167	GapExp	0	101	4	0	1	target	1	587	13.328	13.323	13.332
ProbeTrack7	24	ProbeTrack	1406	SCS215f	733725.349428	733725.358192	8	0.013328	60	10	60-180	60	138	GapExp	0	102	4	0	0	distractor	1	427	13.328	13.324	13.331
ProbeTrack7	24	ProbeTrack	1406	SCS215f	733725.349428	733725.358264	8	0.013328	60	10	60-180	60	107	GapExp	0	103	4	6	1	target	1	480	13.328	13.323	13.333
ProbeTrack7	24	ProbeTrack	1406	SCS215f	733725.349428	733725.358348	8	0.013328	60	10	60-180	60	76	GapExp	0	104	4	96	1	target	1	320	13.328	13.323	13.334
ProbeTrack7	24	ProbeTrack	1406	SCS215f	733725.349428	733725.358569	8	0.013328	60	10	60-180	60	174	GapExp	0	105	4	3	1	distractor	0	454	13.328	13.323	13.334
ProbeTrack7	24	ProbeTrack	1406	SCS215f	733725.349428	733725.358650	8	0.013328	60	10	60-180	60	117	GapExp	0	106	4	0	0	distractor	1	507	13.328	13.323	13.334
ProbeTrack7	24	ProbeTrack	1406	SCS215f	733725.349428	733725.358720	8	0.013328	60	10	60-180	60	141	GapExp	0	107	4	6	0	distractor	1	520	13.328	13.326	13.331
ProbeTrack7	24	ProbeTrack	1406	SCS215f	733725.349428	733725.358795	8	0.013328	60	10	60-180	60	130	GapExp	0	108	4	0	1	target	1	627	13.328	13.326	13.330
ProbeTrack7	24	ProbeTrack	1406	SCS215f	733725.349428	733725.358870	8	0.013328	60	10	60-180	60	126	GapExp	0	109	4	0	0	target	0	374	13.328	13.324	13.331
ProbeTrack7	24	ProbeTrack	1406	SCS215f	733725.349428	733725.358942	8	0.013328	60	10	60-180	60	83	GapExp	0	110	4	96	0	target	0	374	13.328	13.324	13.332
ProbeTrack7	24	ProbeTrack	1406	SCS215f	733725.349428	733725.359159	8	0.013328	60	10	60-180	60	172	GapExp	0	111	4	96	1	target	1	520	13.328	13.323	13.334
ProbeTrack7	24	ProbeTrack	1406	SCS215f	733725.349428	733725.359336	8	0.013328	60	10	60-180	60	131	GapExp	0	112	4	3	1	target	1	174	13.328	13.322	13.335
ProbeTrack7	24	ProbeTrack	1406	SCS215f	733725.349428	733725.359404	8	0.013328	60	10	60-180	60	125	GapExp	0	113	4	6	0	distractor	1	427	13.328	13.323	13.332
ProbeTrack7	24	ProbeTrack	1406	SCS215f	733725.349428	733725.359474	8	0.013328	60	10	60-180	60	61	GapExp	0	114	4	3	1	target	1	320	13.328	13.326	13.330
ProbeTrack7	24	ProbeTrack	1406	SCS215f	733725.349428	733725.359531	8	0.013328	60	10	60-180	60	149	GapExp	0	115	4	6	1	target	1	613	13.328	13.322	13.333
ProbeTrack7	24	ProbeTrack	1406	SCS215f	733725.349428	733725.359608	8	0.013328	60	10	60-180	60	164	GapExp	0	116	4	3	0	target	0	414	13.328	13.324	13.332
ProbeTrack7	24	ProbeTrack	1406	SCS215f	733725.349428	733725.359683	8	0.013328	60	10	60-180	60	107	GapExp	0	117	4	3	0	distractor	1	480	13.328	13.323	13.334
ProbeTrack7	24	ProbeTrack	1406	SCS215f	733725.349428	733725.359753	8	0.013328	60	10	60-180	60	103	GapExp	0	118	4	6	0	32	-3	427	13.328	13.324	13.331
ProbeTrack7	24	ProbeTrack	1406	SCS215f	733725.349428	733725.359822	8	0.013328	60	10	60-180	60	117	GapExp	0	119	4	96	0	target	0	374	13.328	13.324	13.332
ProbeTrack7	24	ProbeTrack	1406	SCS215f	733725.349428	733725.359911	8	0.013328	60	10	60-180	60	73	GapExp	0	120	4	6	1	target	1	493	13.328	13.324	13.332
ProbeTrack7	24	ProbeTrack	1406	SCS215f	733725.349428	733725.360021	8	0.013328	60	10	60-180	60	132	GapExp	0	121	4	0	0	target	0	520	13.328	13.323	13.334
ProbeTrack7	24	ProbeTrack	1406	SCS215f	733725.349428	733725.360097	8	0.013328	60	10	60-180	60	69	GapExp	0	122	4	6	1	distractor	0	374	13.328	13.325	13.332
ProbeTrack7	24	ProbeTrack	1406	SCS215f	733725.349428	733725.360162	8	0.013328	60	10	60-180	60	109	GapExp	0	123	4	6	1	target	1	294	13.328	13.323	13.332
ProbeTrack7	24	ProbeTrack	1406	SCS215f	733725.349428	733725.360227	8	0.013328	60	10	60-180	60	121	GapExp	0	124	4	0	1	target	1	320	13.328	13.324	13.333
ProbeTrack7	24	ProbeTrack	1406	SCS215f	733725.349428	733725.360293	8	0.013328	60	10	60-180	60	172	GapExp	0	125	4	0	1	target	1	493	13.328	13.323	13.333
ProbeTrack7	24	ProbeTrack	1406	SCS215f	733725.360946	733725.361017	8	0.013328	60	10	60-180	60	162	GapPrac	1	1	3	0	0	target	0	480	13.328	13.324	13.333
ProbeTrack7	24	ProbeTrack	1406	SCS215f	733725.360946	733725.361115	8	0.013328	60	10	60-180	60	72	GapPrac	1	2	3	0	1	target	1	493	13.328	13.323	13.332
ProbeTrack7	24	ProbeTrack	1406	SCS215f	733725.360946	733725.361174	8	0.013328	60	10	60-180	60	178	GapPrac	1	3	3	3	0	distractor	1	400	13.328	13.323	13.332
ProbeTrack7	24	ProbeTrack	1406	SCS215f	733725.360946	733725.361298	8	0.013328	60	10	60-180	60	81	GapPrac	1	4	3	96	1	target	1	480	13.328	13.324	13.333
ProbeTrack7	24	ProbeTrack	1406	SCS215f	733725.360946	733725.361376	8	0.013328	60	10	60-180	60	93	GapPrac	1	5	3	3	1	target	1	347	13.328	13.325	13.333
ProbeTrack7	24	ProbeTrack	1406	SCS215f	733725.360946	733725.361446	8	0.013328	60	10	60-180	60	119	GapPrac	1	6	3	6	1	target	1	400	13.328	13.315	13.341
ProbeTrack7	24	ProbeTrack	1406	SCS215f	733725.360946	733725.361517	8	0.013328	60	10	60-180	60	61	GapPrac	1	7	3	0	0	distractor	1	374	13.328	13.323	13.333
ProbeTrack7	24	ProbeTrack	1406	SCS215f	733725.360946	733725.361579	8	0.013328	60	10	60-180	60	178	GapPrac	1	8	3	6	1	target	1	414	13.328	13.323	13.332
ProbeTrack7	24	ProbeTrack	1406	SCS215f	733725.360946	733725.361655	8	0.013328	60	10	60-180	60	102	GapPrac	1	9	3	0	1	target	1	320	13.328	13.324	13.333
ProbeTrack7	24	ProbeTrack	1406	SCS215f	733725.360946	733725.361724	8	0.013328	60	10	60-180	60	174	GapPrac	1	10	3	0	1	target	1	467	13.328	13.323	13.334
ProbeTrack7	24	ProbeTrack	1406	SCS215f	733725.360946	733725.361810	8	0.013328	60	10	60-180	60	121	GapPrac	1	11	3	6	0	distractor	1	507	13.328	13.322	13.333
ProbeTrack7	24	ProbeTrack	1406	SCS215f	733725.360946	733725.361882	8	0.013328	60	10	60-180	60	128	GapPrac	1	12	3	0	0	target	0	307	13.328	13.323	13.334
ProbeTrack7	24	ProbeTrack	1406	SCS215f	733725.360946	733725.361952	8	0.013328	60	10	60-180	60	102	GapPrac	1	13	3	3	1	target	1	360	13.328	13.324	13.333
ProbeTrack7	24	ProbeTrack	1406	SCS215f	733725.360946	733725.362023	8	0.013328	60	10	60-180	60	135	GapPrac	1	14	3	96	1	target	1	480	13.328	13.317	13.340
ProbeTrack7	24	ProbeTrack	1406	SCS215f	733725.360946	733725.362114	8	0.013328	60	10	60-180	60	76	GapPrac	1	15	3	6	0	distractor	1	520	13.328	13.324	13.332
ProbeTrack7	24	ProbeTrack	1406	SCS215f	733725.360946	733725.362180	8	0.013328	60	10	60-180	60	78	GapPrac	1	16	3	3	0	distractor	1	494	13.328	13.323	13.332
ProbeTrack7	24	ProbeTrack	1406	SCS215f	733725.360946	733725.362243	8	0.013328	60	10	60-180	60	110	GapPrac	1	17	3	3	0	target	0	400	13.328	13.324	13.333
ProbeTrack7	24	ProbeTrack	1406	SCS215f	733725.360946	733725.362315	8	0.013328	60	10	60-180	60	146	GapPrac	1	18	3	96	0	target	0	587	13.328	13.322	13.333
ProbeTrack7	24	ProbeTrack	1406	SCS215f	733725.360946	733725.362406	8	0.013328	60	10	60-180	60	127	GapPrac	1	19	3	96	0	distractor	1	533	13.328	13.322	13.333
ProbeTrack7	24	ProbeTrack	1406	SCS215f	733725.360946	733725.362491	8	0.013328	60	10	60-180	60	92	GapPrac	1	20	3	96	1	distractor	0	653	13.328	13.323	13.333
ProbeTrack7	24	ProbeTrack	1406	SCS215f	733725.363536	733725.363581	8	0.013328	60	10	60-180	60	129	GapExp	1	1	3	3	0	distractor	1	453	13.328	13.322	13.333
ProbeTrack7	24	ProbeTrack	1406	SCS215f	733725.363536	733725.363703	8	0.013328	60	10	60-180	60	172	GapExp	1	2	3	0	0	distractor	1	640	13.328	13.323	13.333
ProbeTrack7	24	ProbeTrack	1406	SCS215f	733725.363536	733725.363780	8	0.013328	60	10	60-180	60	144	GapExp	1	3	3	0	1	target	1	587	13.328	13.323	13.333
ProbeTrack7	24	ProbeTrack	1406	SCS215f	733725.363536	733725.363880	8	0.013328	60	10	60-180	60	170	GapExp	1	4	3	96	0	target	0	640	13.328	13.324	13.332
ProbeTrack7	24	ProbeTrack	1406	SCS215f	733725.363536	733725.363981	8	0.013328	60	10	60-180	60	173	GapExp	1	5	3	96	1	target	1	533	13.328	13.324	13.332
ProbeTrack7	24	ProbeTrack	1406	SCS215f	733725.363536	733725.364077	8	0.013328	60	10	60-180	60	70	GapExp	0	6	3	6	0	distractor	1	560	13.328	13.322	13.333
ProbeTrack7	24	ProbeTrack	1406	SCS215f	733725.363536	733725.364153	8	0.013328	60	10	60-180	60	120	GapExp	0	7	3	0	1	target	1	320	13.328	13.318	13.337
ProbeTrack7	24	ProbeTrack	1406	SCS215f	733725.363536	733725.364354	8	0.013328	60	10	60-180	60	105	GapExp	0	8	3	6	1	target	1	507	13.328	13.323	13.332
ProbeTrack7	24	ProbeTrack	1406	SCS215f	733725.363536	733725.364441	8	0.013328	60	10	60-180	60	129	GapExp	0	9	3	0	1	target	1	320	13.328	13.324	13.333
ProbeTrack7	24	ProbeTrack	1406	SCS215f	733725.363536	733725.364511	8	0.013328	60	10	60-180	60	64	GapExp	0	10	3	0	0	target	0	280	13.328	13.324	13.332
ProbeTrack7	24	ProbeTrack	1406	SCS215f	733725.363536	733725.364567	8	0.013328	60	10	60-180	60	88	GapExp	0	11	3	6	0	distractor	1	387	13.328	13.323	13.334
ProbeTrack7	24	ProbeTrack	1406	SCS215f	733725.363536	733725.364628	8	0.013328	60	10	60-180	60	63	GapExp	0	12	3	0	1	target	1	453	13.328	13.325	13.332
ProbeTrack7	24	ProbeTrack	1406	SCS215f	733725.363536	733725.364689	8	0.013328	60	10	60-180	60	143	GapExp	0	13	3	0	0	distractor	1	533	13.328	13.324	13.333
ProbeTrack7	24	ProbeTrack	1406	SCS215f	733725.363536	733725.364764	8	0.013328	60	10	60-180	60	147	GapExp	0	14	3	96	1	distractor	0	520	13.328	13.316	13.339
ProbeTrack7	24	ProbeTrack	1406	SCS215f	733725.363536	733725.364854	8	0.013328	60	10	60-180	60	150	GapExp	0	15	3	3	1	target	1	387	13.328	13.324	13.331
ProbeTrack7	24	ProbeTrack	1406	SCS215f	733725.363536	733725.364930	8	0.013328	60	10	60-180	60	118	GapExp	0	16	3	3	0	distractor	1	573	13.328	13.324	13.332
ProbeTrack7	24	ProbeTrack	1406	SCS215f	733725.363536	733725.365005	8	0.013328	60	10	60-180	60	68	GapExp	0	17	3	6	0	distractor	1	493	13.328	13.323	13.333
ProbeTrack7	24	ProbeTrack	1406	SCS215f	733725.363536	733725.365071	8	0.013328	60	10	60-180	60	174	GapExp	0	18	3	6	1	target	1	454	13.328	13.323	13.333
ProbeTrack7	24	ProbeTrack	1406	SCS215f	733725.363536	733725.365149	8	0.013328	60	10	60-180	60	98	GapExp	0	19	3	3	1	target	1	520	13.328	13.315	13.340
ProbeTrack7	24	ProbeTrack	1406	SCS215f	733725.363536	733725.365218	8	0.013328	60	10	60-180	60	154	GapExp	0	20	3	0	0	distractor	1	760	13.328	13.324	13.333
ProbeTrack7	24	ProbeTrack	1406	SCS215f	733725.363536	733725.365301	8	0.013328	60	10	60-180	60	81	GapExp	0	21	3	96	1	target	1	547	13.328	13.324	13.332
ProbeTrack7	24	ProbeTrack	1406	SCS215f	733725.363536	733725.365385	8	0.013328	60	10	60-180	60	67	GapExp	0	22	3	0	1	target	1	374	13.328	13.324	13.332
ProbeTrack7	24	ProbeTrack	1406	SCS215f	733725.363536	733725.365448	8	0.013328	60	10	60-180	60	114	GapExp	0	23	3	6	0	distractor	1	480	13.328	13.324	13.332
ProbeTrack7	24	ProbeTrack	1406	SCS215f	733725.363536	733725.365522	8	0.013328	60	10	60-180	60	118	GapExp	0	24	3	96	0	target	0	560	13.328	13.323	13.334
ProbeTrack7	24	ProbeTrack	1406	SCS215f	733725.363536	733725.365608	8	0.013328	60	10	60-180	60	101	GapExp	0	25	3	96	1	target	1	693	13.328	13.323	13.333
ProbeTrack7	24	ProbeTrack	1406	SCS215f	733725.363536	733725.365718	8	0.013328	60	10	60-180	60	71	GapExp	0	26	3	6	0	distractor	1	667	13.328	13.323	13.332
ProbeTrack7	24	ProbeTrack	1406	SCS215f	733725.363536	733725.365842	8	0.013328	60	10	60-180	60	180	GapExp	0	27	3	0	1	target	1	320	13.328	13.323	13.332
ProbeTrack7	24	ProbeTrack	1406	SCS215f	733725.363536	733725.365919	8	0.013328	60	10	60-180	60	66	GapExp	0	28	3	3	0	target	0	454	13.328	13.326	13.331
ProbeTrack7	24	ProbeTrack	1406	SCS215f	733725.363536	733725.365981	8	0.013328	60	10	60-180	60	158	GapExp	0	29	3	0	1	target	1	480	13.328	13.324	13.333
ProbeTrack7	24	ProbeTrack	1406	SCS215f	733725.363536	733725.366059	8	0.013328	60	10	60-180	60	121	GapExp	0	30	3	0	1	target	1	280	13.328	13.324	13.333
ProbeTrack7	24	ProbeTrack	1406	SCS215f	733725.363536	733725.366130	8	0.013328	60	10	60-180	60	99	GapExp	0	31	3	6	0	target	0	360	13.328	13.323	13.332
ProbeTrack7	24	ProbeTrack	1406	SCS215f	733725.363536	733725.366198	8	0.013328	60	10	60-180	60	153	GapExp	0	32	3	0	0	target	0	414	13.328	13.323	13.332
ProbeTrack7	24	ProbeTrack	1406	SCS215f	733725.363536	733725.366276	8	0.013328	60	10	60-180	60	134	GapExp	0	33	3	6	0	target	0	520	13.328	13.324	13.332
ProbeTrack7	24	ProbeTrack	1406	SCS215f	733725.363536	733725.366352	8	0.013328	60	10	60-180	60	70	GapExp	0	34	3	96	1	distractor	0	480	13.328	13.325	13.332
ProbeTrack7	24	ProbeTrack	1406	SCS215f	733725.363536	733725.366429	8	0.013328	60	10	60-180	60	94	GapExp	0	35	3	3	0	distractor	1	560	13.328	13.322	13.334
ProbeTrack7	24	ProbeTrack	1406	SCS215f	733725.363536	733725.366496	8	0.013328	60	10	60-180	60	161	GapExp	0	36	3	96	1	target	1	440	13.328	13.324	13.331
ProbeTrack7	24	ProbeTrack	1406	SCS215f	733725.363536	733725.366589	8	0.013328	60	10	60-180	60	124	GapExp	0	37	3	96	0	distractor	1	520	13.328	13.323	13.333
ProbeTrack7	24	ProbeTrack	1406	SCS215f	733725.363536	733725.366832	8	0.013328	60	10	60-180	60	140	GapExp	0	38	3	3	1	target	1	813	13.328	13.324	13.331
ProbeTrack7	24	ProbeTrack	1406	SCS215f	733725.363536	733725.367328	8	0.013328	60	10	60-180	60	176	GapExp	0	39	3	3	1	target	1	400	13.328	13.324	13.333
ProbeTrack7	24	ProbeTrack	1406	SCS215f	733725.363536	733725.367406	8	0.013328	60	10	60-180	60	158	GapExp	0	40	3	0	0	distractor	1	547	13.328	13.323	13.333
ProbeTrack7	24	ProbeTrack	1406	SCS215f	733725.363536	733725.367485	8	0.013328	60	10	60-180	60	150	GapExp	0	41	3	0	0	distractor	1	520	13.328	13.323	13.333
ProbeTrack7	24	ProbeTrack	1406	SCS215f	733725.363536	733725.367561	8	0.013328	60	10	60-180	60	141	GapExp	0	42	3	6	1	target	1	440	13.328	13.316	13.340
ProbeTrack7	24	ProbeTrack	1406	SCS215f	733725.363536	733725.367633	8	0.013328	60	10	60-180	60	128	GapExp	0	43	3	3	1	distractor	0	867	13.328	13.324	13.332
ProbeTrack7	24	ProbeTrack	1406	SCS215f	733725.363536	733725.367738	8	0.013328	60	10	60-180	60	114	GapExp	0	44	3	0	0	target	0	640	13.328	13.323	13.334
ProbeTrack7	24	ProbeTrack	1406	SCS215f	733725.363536	733725.367820	8	0.013328	60	10	60-180	60	71	GapExp	0	45	3	3	1	target	1	374	13.328	13.326	13.330
ProbeTrack7	24	ProbeTrack	1406	SCS215f	733725.363536	733725.367881	8	0.013328	60	10	60-180	60	124	GapExp	0	46	3	96	0	target	0	587	13.328	13.324	13.332
ProbeTrack7	24	ProbeTrack	1406	SCS215f	733725.363536	733725.367966	8	0.013328	60	10	60-180	60	171	GapExp	0	47	3	0	1	target	1	600	13.328	13.325	13.331
ProbeTrack7	24	ProbeTrack	1406	SCS215f	733725.363536	733725.368047	8	0.013328	60	10	60-180	60	160	GapExp	0	48	3	3	1	target	1	667	13.328	13.324	13.332
ProbeTrack7	24	ProbeTrack	1406	SCS215f	733725.363536	733725.368133	8	0.013328	60	10	60-180	60	87	GapExp	0	49	3	6	1	target	1	400	13.328	13.326	13.330
ProbeTrack7	24	ProbeTrack	1406	SCS215f	733725.363536	733725.368198	8	0.013328	60	10	60-180	60	69	GapExp	0	50	3	0	1	target	1	414	13.328	13.326	13.330
ProbeTrack7	24	ProbeTrack	1406	SCS215f	733725.363536	733725.368260	8	0.013328	60	10	60-180	60	145	GapExp	0	51	3	6	1	target	1	374	13.328	13.324	13.333
ProbeTrack7	24	ProbeTrack	1406	SCS215f	733725.363536	733725.368332	8	0.013328	60	10	60-180	60	61	GapExp	0	52	3	6	0	target	0	387	13.328	13.326	13.329
ProbeTrack7	24	ProbeTrack	1406	SCS215f	733725.363536	733725.368481	8	0.013328	60	10	60-180	60	164	GapExp	0	53	3	3	1	target	1	307	13.328	13.323	13.332
ProbeTrack7	24	ProbeTrack	1406	SCS215f	733725.363536	733725.368556	8	0.013328	60	10	60-180	60	145	GapExp	0	54	3	6	1	distractor	0	347	13.328	13.324	13.332
ProbeTrack7	24	ProbeTrack	1406	SCS215f	733725.363536	733725.368633	8	0.013328	60	10	60-180	60	90	GapExp	0	55	3	96	1	target	1	387	13.328	13.323	13.333
ProbeTrack7	24	ProbeTrack	1406	SCS215f	733725.363536	733725.369042	8	0.013328	60	10	60-180	60	169	GapExp	0	56	3	3	1	target	1	294	13.328	13.325	13.331
ProbeTrack7	24	ProbeTrack	1406	SCS215f	733725.363536	733725.369122	8	0.013328	60	10	60-180	60	154	GapExp	0	57	3	3	0	target	0	280	13.328	13.320	13.336
ProbeTrack7	24	ProbeTrack	1406	SCS215f	733725.363536	733725.369297	8	0.013328	60	10	60-180	60	75	GapExp	0	58	3	0	0	distractor	1	560	13.328	13.326	13.330
ProbeTrack7	24	ProbeTrack	1406	SCS215f	733725.363536	733725.369364	8	0.013328	60	10	60-180	60	85	GapExp	0	59	3	6	1	target	1	440	13.328	13.326	13.330
ProbeTrack7	24	ProbeTrack	1406	SCS215f	733725.363536	733725.369425	8	0.013328	60	10	60-180	60	169	GapExp	0	60	3	96	1	target	1	520	13.328	13.323	13.334
ProbeTrack7	24	ProbeTrack	1406	SCS215f	733725.363536	733725.369521	8	0.013328	60	10	60-180	60	78	GapExp	0	61	3	6	0	distractor	1	520	13.328	13.323	13.333
ProbeTrack7	24	ProbeTrack	1406	SCS215f	733725.363536	733725.369590	8	0.013328	60	10	60-180	60	142	GapExp	0	62	3	0	0	distractor	1	600	13.328	13.323	13.334
ProbeTrack7	24	ProbeTrack	1406	SCS215f	733725.363536	733725.370092	8	0.013328	60	10	60-180	60	61	GapExp	0	63	3	6	0	distractor	1	680	13.328	13.323	13.332
ProbeTrack7	24	ProbeTrack	1406	SCS215f	733725.363536	733725.370156	8	0.013328	60	10	60-180	60	157	GapExp	0	64	3	0	1	target	1	360	13.328	13.323	13.332
ProbeTrack7	24	ProbeTrack	1406	SCS215f	733725.363536	733725.370230	8	0.013328	60	10	60-180	60	114	GapExp	0	65	3	3	1	target	1	374	13.328	13.323	13.332
ProbeTrack7	24	ProbeTrack	1406	SCS215f	733725.363536	733725.370301	8	0.013328	60	10	60-180	60	168	GapExp	0	66	3	96	0	distractor	1	507	13.328	13.323	13.332
ProbeTrack7	24	ProbeTrack	1406	SCS215f	733725.363536	733725.370394	8	0.013328	60	10	60-180	60	154	GapExp	0	67	3	3	1	target	1	280	13.328	13.324	13.332
ProbeTrack7	24	ProbeTrack	1406	SCS215f	733725.363536	733725.370471	8	0.013328	60	10	60-180	60	133	GapExp	0	68	3	3	0	target	0	413	13.328	13.323	13.333
ProbeTrack7	24	ProbeTrack	1406	SCS215f	733725.363536	733725.370600	8	0.013328	60	10	60-180	60	159	GapExp	0	69	3	0	0	target	0	387	13.328	13.323	13.332
ProbeTrack7	24	ProbeTrack	1406	SCS215f	733725.363536	733725.370680	8	0.013328	60	10	60-180	60	157	GapExp	0	70	3	3	1	target	1	573	13.328	13.324	13.334
ProbeTrack7	24	ProbeTrack	1406	SCS215f	733725.363536	733725.370756	8	0.013328	60	10	60-180	60	84	GapExp	0	71	3	0	1	target	1	520	13.328	13.322	13.333
ProbeTrack7	24	ProbeTrack	1406	SCS215f	733725.363536	733725.370819	8	0.013328	60	10	60-180	60	166	GapExp	0	72	3	96	1	target	1	414	13.328	13.321	13.336
ProbeTrack7	24	ProbeTrack	1406	SCS215f	733725.363536	733725.370912	8	0.013328	60	10	60-180	60	157	GapExp	0	73	3	6	1	target	1	400	13.328	13.316	13.341
ProbeTrack7	24	ProbeTrack	1406	SCS215f	733725.363536	733725.371055	8	0.013328	60	10	60-180	60	65	GapExp	0	74	3	96	0	target	0	1040	13.328	13.322	13.333
ProbeTrack7	24	ProbeTrack	1406	SCS215f	733725.363536	733725.371143	8	0.013328	60	10	60-180	60	160	GapExp	0	75	3	3	0	target	0	387	13.328	13.324	13.333
ProbeTrack7	24	ProbeTrack	1406	SCS215f	733725.363536	733725.371219	8	0.013328	60	10	60-180	60	162	GapExp	0	76	3	0	1	target	1	427	13.328	13.315	13.341
ProbeTrack7	24	ProbeTrack	1406	SCS215f	733725.363536	733725.371298	8	0.013328	60	10	60-180	60	85	GapExp	0	77	3	96	0	target	0	653	13.328	13.323	13.332
ProbeTrack7	24	ProbeTrack	1406	SCS215f	733725.363536	733725.371379	8	0.013328	60	10	60-180	60	98	GapExp	0	78	3	0	0	target	0	654	13.328	13.324	13.332
ProbeTrack7	24	ProbeTrack	1406	SCS215f	733725.363536	733725.371447	8	0.013328	60	10	60-180	60	72	GapExp	0	79	3	3	0	target	0	360	13.328	13.325	13.330
ProbeTrack7	24	ProbeTrack	1406	SCS215f	733725.363536	733725.371506	8	0.013328	60	10	60-180	60	88	GapExp	0	80	3	96	0	distractor	1	454	13.328	13.317	13.340
ProbeTrack7	24	ProbeTrack	1406	SCS215f	733725.363536	733725.371588	8	0.013328	60	10	60-180	60	114	GapExp	0	81	3	96	1	target	1	347	13.328	13.324	13.331
ProbeTrack7	24	ProbeTrack	1406	SCS215f	733725.363536	733725.372026	8	0.013328	60	10	60-180	60	176	GapExp	0	82	3	96	0	distractor	1	533	13.328	13.319	13.338
ProbeTrack7	24	ProbeTrack	1406	SCS215f	733725.363536	733725.372122	8	0.013328	60	10	60-180	60	73	GapExp	0	83	3	96	0	target	0	573	13.328	13.324	13.332
ProbeTrack7	24	ProbeTrack	1406	SCS215f	733725.363536	733725.372203	8	0.013328	60	10	60-180	60	64	GapExp	0	84	3	6	1	target	1	467	13.328	13.325	13.332
ProbeTrack7	24	ProbeTrack	1406	SCS215f	733725.363536	733725.372269	8	0.013328	60	10	60-180	60	83	GapExp	0	85	3	6	0	target	0	400	13.328	13.324	13.332
ProbeTrack7	24	ProbeTrack	1406	SCS215f	733725.363536	733725.372335	8	0.013328	60	10	60-180	60	174	GapExp	0	86	3	6	0	target	0	880	13.328	13.323	13.332
ProbeTrack7	24	ProbeTrack	1406	SCS215f	733725.363536	733725.372426	8	0.013328	60	10	60-180	60	161	GapExp	0	87	3	96	0	target	0	613	13.328	13.324	13.333
ProbeTrack7	24	ProbeTrack	1406	SCS215f	733725.363536	733725.372537	8	0.013328	60	10	60-180	60	80	GapExp	0	88	3	3	1	distractor	0	414	13.328	13.323	13.332
ProbeTrack7	24	ProbeTrack	1406	SCS215f	733725.363536	733725.372604	8	0.013328	60	10	60-180	60	93	GapExp	0	89	3	96	1	target	1	587	13.328	13.324	13.332
ProbeTrack7	24	ProbeTrack	1406	SCS215f	733725.363536	733725.372794	8	0.013328	60	10	60-180	60	64	GapExp	0	90	3	96	1	target	1	414	13.328	13.326	13.330
ProbeTrack7	24	ProbeTrack	1406	SCS215f	733725.363536	733725.372872	8	0.013328	60	10	60-180	60	179	GapExp	0	91	3	0	0	distractor	1	493	13.328	13.322	13.333
ProbeTrack7	24	ProbeTrack	1406	SCS215f	733725.363536	733725.372949	8	0.013328	60	10	60-180	60	173	GapExp	0	92	3	6	1	target	1	334	13.328	13.323	13.333
ProbeTrack7	24	ProbeTrack	1406	SCS215f	733725.363536	733725.373025	8	0.013328	60	10	60-180	60	109	GapExp	0	93	3	0	0	distractor	1	600	13.328	13.323	13.333
ProbeTrack7	24	ProbeTrack	1406	SCS215f	733725.363536	733725.373100	8	0.013328	60	10	60-180	60	180	GapExp	0	94	3	3	0	target	0	440	13.328	13.324	13.333
ProbeTrack7	24	ProbeTrack	1406	SCS215f	733725.363536	733725.373227	8	0.013328	60	10	60-180	60	71	GapExp	0	95	3	3	0	distractor	1	547	13.328	13.321	13.335
ProbeTrack7	24	ProbeTrack	1406	SCS215f	733725.363536	733725.373292	8	0.013328	60	10	60-180	60	117	GapExp	0	96	3	3	0	distractor	1	493	13.328	13.323	13.333
ProbeTrack7	24	ProbeTrack	1406	SCS215f	733725.363536	733725.373360	8	0.013328	60	10	60-180	60	81	GapExp	0	97	3	3	1	distractor	0	493	13.328	13.327	13.332
ProbeTrack7	24	ProbeTrack	1406	SCS215f	733725.363536	733725.373423	8	0.013328	60	10	60-180	60	171	GapExp	0	98	3	6	1	target	1	547	13.328	13.323	13.332
ProbeTrack7	24	ProbeTrack	1406	SCS215f	733725.363536	733725.373502	8	0.013328	60	10	60-180	60	134	GapExp	0	99	3	96	0	distractor	1	627	13.328	13.324	13.332
ProbeTrack7	24	ProbeTrack	1406	SCS215f	733725.363536	733725.373600	8	0.013328	60	10	60-180	60	113	GapExp	0	100	3	96	0	target	0	507	13.328	13.324	13.332
ProbeTrack7	24	ProbeTrack	1406	SCS215f	733725.363536	733725.373681	8	0.013328	60	10	60-180	60	171	GapExp	0	101	3	0	1	target	1	467	13.328	13.317	13.341
ProbeTrack7	24	ProbeTrack	1406	SCS215f	733725.363536	733725.373761	8	0.013328	60	10	60-180	60	162	GapExp	0	102	3	0	0	distractor	1	613	13.328	13.322	13.334
ProbeTrack7	24	ProbeTrack	1406	SCS215f	733725.363536	733725.373841	8	0.013328	60	10	60-180	60	87	GapExp	0	103	3	3	0	target	0	533	13.328	13.323	13.332
ProbeTrack7	24	ProbeTrack	1406	SCS215f	733725.363536	733725.373910	8	0.013328	60	10	60-180	60	91	GapExp	0	104	3	6	0	distractor	1	507	13.328	13.322	13.333
ProbeTrack7	24	ProbeTrack	1406	SCS215f	733725.363536	733725.373980	8	0.013328	60	10	60-180	60	156	GapExp	0	105	3	6	0	distractor	1	427	13.328	13.323	13.333
ProbeTrack7	24	ProbeTrack	1406	SCS215f	733725.363536	733725.374056	8	0.013328	60	10	60-180	60	171	GapExp	0	106	3	3	0	distractor	1	494	13.328	13.324	13.334
ProbeTrack7	24	ProbeTrack	1406	SCS215f	733725.363536	733725.374137	8	0.013328	60	10	60-180	60	67	GapExp	0	107	3	96	0	target	0	560	13.328	13.322	13.335
ProbeTrack7	24	ProbeTrack	1406	SCS215f	733725.363536	733725.374212	8	0.013328	60	10	60-180	60	168	GapExp	0	108	3	96	0	distractor	1	520	13.328	13.321	13.335
ProbeTrack7	24	ProbeTrack	1406	SCS215f	733725.363536	733725.374304	8	0.013328	60	10	60-180	60	155	GapExp	0	109	3	0	0	distractor	1	547	13.328	13.320	13.336
ProbeTrack7	24	ProbeTrack	1406	SCS215f	733725.363536	733725.374383	8	0.013328	60	10	60-180	60	126	GapExp	0	110	3	6	0	target	0	507	13.328	13.323	13.332
ProbeTrack7	24	ProbeTrack	1406	SCS215f	733725.363536	733725.374457	8	0.013328	60	10	60-180	60	158	GapExp	0	111	3	96	1	target	1	573	13.328	13.323	13.334
ProbeTrack7	24	ProbeTrack	1406	SCS215f	733725.363536	733725.374552	8	0.013328	60	10	60-180	60	73	GapExp	0	112	3	3	0	distractor	1	600	13.328	13.326	13.330
ProbeTrack7	24	ProbeTrack	1406	SCS215f	733725.363536	733725.374621	8	0.013328	60	10	60-180	60	114	GapExp	0	113	3	96	1	target	1	653	13.328	13.323	13.333
ProbeTrack7	24	ProbeTrack	1406	SCS215f	733725.363536	733725.374708	8	0.013328	60	10	60-180	60	82	GapExp	0	114	3	96	0	distractor	1	560	13.328	13.325	13.331
ProbeTrack7	24	ProbeTrack	1406	SCS215f	733725.363536	733725.374791	8	0.013328	60	10	60-180	60	146	GapExp	0	115	3	0	1	distractor	0	720	13.328	13.319	13.337
ProbeTrack7	24	ProbeTrack	1406	SCS215f	733725.363536	733725.374867	8	0.013328	60	10	60-180	60	69	GapExp	0	116	3	96	1	target	1	520	13.328	13.323	13.332
ProbeTrack7	24	ProbeTrack	1406	SCS215f	733725.363536	733725.374947	8	0.013328	60	10	60-180	60	141	GapExp	0	117	3	96	1	target	1	493	13.328	13.323	13.332
ProbeTrack7	24	ProbeTrack	1406	SCS215f	733725.363536	733725.375032	8	0.013328	60	10	60-180	60	90	GapExp	0	118	3	3	0	distractor	1	533	13.328	13.323	13.332
ProbeTrack7	24	ProbeTrack	1406	SCS215f	733725.363536	733725.375097	8	0.013328	60	10	60-180	60	66	GapExp	0	119	3	3	0	distractor	1	640	13.328	13.326	13.331
ProbeTrack7	24	ProbeTrack	1406	SCS215f	733725.363536	733725.375175	8	0.013328	60	10	60-180	60	170	GapExp	0	120	3	0	1	target	1	733	13.328	13.323	13.333
ProbeTrack7	24	ProbeTrack	1406	SCS215f	733725.363536	733725.375259	8	0.013328	60	10	60-180	60	165	GapExp	0	121	3	6	1	distractor	0	560	13.328	13.322	13.332
ProbeTrack7	24	ProbeTrack	1406	SCS215f	733725.363536	733725.375337	8	0.013328	60	10	60-180	60	86	GapExp	0	122	3	6	1	target	1	427	13.328	13.322	13.333
ProbeTrack7	24	ProbeTrack	1406	SCS215f	733725.363536	733725.375402	8	0.013328	60	10	60-180	60	77	GapExp	0	123	3	3	1	target	1	454	13.328	13.326	13.330
ProbeTrack7	24	ProbeTrack	1406	SCS215f	733725.363536	733725.375465	8	0.013328	60	10	60-180	60	142	GapExp	0	124	3	6	1	target	1	347	13.328	13.322	13.333
ProbeTrack7	24	ProbeTrack	1406	SCS215f	733725.363536	733725.375536	8	0.013328	60	10	60-180	60	142	GapExp	0	125	3	6	1	target	1	374	13.328	13.323	13.333
