exp	sub	code	rev	comp	runtime	trialtime	nstim	refreshdur	cuedur	gapdur	gapOnsetRange	durPostProbe	gapOnsetTime	blocktype	prac	trial	ntargets	soa	probeTarget	resp	acc	rt	meanFrameDur	minFrameDur	maxFrameDur
ProbeTrack7	10	ProbeTrack	1406	SCS215b	733716.388042	733716.388397	8	0.013309	60	0	60-180	60	70	NoGap	1	1	4	0	0	distractor	1	1186	13.328	13.293	13.362
ProbeTrack7	10	ProbeTrack	1406	SCS215b	733716.388042	733716.388499	8	0.013309	60	0	60-180	60	114	NoGap	1	2	4	3	1	target	1	627	13.328	13.293	13.363
ProbeTrack7	10	ProbeTrack	1406	SCS215b	733716.388042	733716.388766	8	0.013309	60	0	60-180	60	69	NoGap	1	3	4	3	0	target	0	427	13.328	13.290	13.367
ProbeTrack7	10	ProbeTrack	1406	SCS215b	733716.388042	733716.389484	8	0.013309	60	0	60-180	60	61	NoGap	1	4	4	3	1	target	1	440	13.328	13.293	13.363
ProbeTrack7	10	ProbeTrack	1406	SCS215b	733716.388042	733716.389561	8	0.013309	60	0	60-180	60	103	NoGap	1	5	4	96	1	distractor	0	440	13.328	13.293	13.363
ProbeTrack7	10	ProbeTrack	1406	SCS215b	733716.388042	733716.389649	8	0.013309	60	0	60-180	60	172	NoGap	1	6	4	0	1	target	1	387	13.328	13.293	13.363
ProbeTrack7	10	ProbeTrack	1406	SCS215b	733716.388042	733716.389733	8	0.013309	60	0	60-180	60	125	NoGap	1	7	4	6	1	distractor	0	440	13.328	13.293	13.363
ProbeTrack7	10	ProbeTrack	1406	SCS215b	733716.388042	733716.389810	8	0.013309	60	0	60-180	60	112	NoGap	1	8	4	0	0	distractor	1	640	13.328	13.293	13.363
ProbeTrack7	10	ProbeTrack	1406	SCS215b	733716.388042	733716.389884	8	0.013309	60	0	60-180	60	89	NoGap	1	9	4	6	1	distractor	0	347	13.328	13.293	13.363
ProbeTrack7	10	ProbeTrack	1406	SCS215b	733716.388042	733716.389947	8	0.013309	60	0	60-180	60	162	NoGap	1	10	4	0	1	target	1	320	13.328	13.293	13.363
ProbeTrack7	10	ProbeTrack	1406	SCS215b	733716.388042	733716.390020	8	0.013309	60	0	60-180	60	63	NoGap	1	11	4	3	0	distractor	1	573	13.328	13.293	13.363
ProbeTrack7	10	ProbeTrack	1406	SCS215b	733716.388042	733716.390086	8	0.013309	60	0	60-180	60	62	NoGap	1	12	4	96	0	distractor	1	600	13.328	13.293	13.363
ProbeTrack7	10	ProbeTrack	1406	SCS215b	733716.388042	733716.390167	8	0.013309	60	0	60-180	60	150	NoGap	1	13	4	0	0	distractor	1	560	13.328	13.293	13.363
ProbeTrack7	10	ProbeTrack	1406	SCS215b	733716.388042	733716.390241	8	0.013309	60	0	60-180	60	72	NoGap	1	14	4	0	1	target	1	387	13.328	13.293	13.363
ProbeTrack7	10	ProbeTrack	1406	SCS215b	733716.388042	733716.390301	8	0.013309	60	0	60-180	60	159	NoGap	1	15	4	3	0	target	0	294	13.328	13.207	13.449
ProbeTrack7	10	ProbeTrack	1406	SCS215b	733716.388042	733716.390377	8	0.013309	60	0	60-180	60	163	NoGap	1	16	4	6	0	distractor	1	454	13.328	13.292	13.363
ProbeTrack7	10	ProbeTrack	1406	SCS215b	733716.388042	733716.390455	8	0.013309	60	0	60-180	60	169	NoGap	1	17	4	0	0	distractor	1	560	13.328	13.289	13.367
ProbeTrack7	10	ProbeTrack	1406	SCS215b	733716.388042	733716.390535	8	0.013309	60	0	60-180	60	98	NoGap	1	18	4	3	1	target	1	334	13.328	13.293	13.363
ProbeTrack7	10	ProbeTrack	1406	SCS215b	733716.388042	733716.390601	8	0.013309	60	0	60-180	60	153	NoGap	1	19	4	6	0	distractor	1	440	13.328	13.293	13.363
ProbeTrack7	10	ProbeTrack	1406	SCS215b	733716.388042	733716.390675	8	0.013309	60	0	60-180	60	170	NoGap	1	20	4	96	0	target	0	414	13.328	13.293	13.363
ProbeTrack7	10	ProbeTrack	1406	SCS215b	733716.388042	733716.390768	8	0.013309	60	0	60-180	60	61	NoGap	1	21	4	6	1	target	1	587	13.328	13.293	13.363
ProbeTrack7	10	ProbeTrack	1406	SCS215b	733716.388042	733716.390831	8	0.013309	60	0	60-180	60	162	NoGap	1	22	4	6	0	distractor	1	600	13.328	13.293	13.363
ProbeTrack7	10	ProbeTrack	1406	SCS215b	733716.388042	733716.390906	8	0.013309	60	0	60-180	60	136	NoGap	1	23	4	3	0	distractor	1	573	13.328	13.293	13.363
ProbeTrack7	10	ProbeTrack	1406	SCS215b	733716.388042	733716.390978	8	0.013309	60	0	60-180	60	86	NoGap	1	24	4	6	0	distractor	1	507	13.328	13.290	13.363
ProbeTrack7	10	ProbeTrack	1406	SCS215b	733716.388042	733716.391051	8	0.013309	60	0	60-180	60	166	NoGap	1	25	4	96	1	distractor	0	320	13.328	13.293	13.363
ProbeTrack7	10	ProbeTrack	1406	SCS215b	733716.388042	733716.391140	8	0.013309	60	0	60-180	60	105	NoGap	1	26	4	6	1	target	1	414	13.328	13.293	13.363
ProbeTrack7	10	ProbeTrack	1406	SCS215b	733716.388042	733716.391215	8	0.013309	60	0	60-180	60	172	NoGap	1	27	4	0	0	distractor	1	533	13.328	13.293	13.364
ProbeTrack7	10	ProbeTrack	1406	SCS215b	733716.388042	733716.391295	8	0.013309	60	0	60-180	60	142	NoGap	1	28	4	3	1	distractor	0	440	13.328	13.293	13.363
ProbeTrack7	10	ProbeTrack	1406	SCS215b	733716.388042	733716.391371	8	0.013309	60	0	60-180	60	103	NoGap	1	29	4	0	0	distractor	1	547	13.328	13.293	13.363
ProbeTrack7	10	ProbeTrack	1406	SCS215b	733716.388042	733716.391442	8	0.013309	60	0	60-180	60	129	NoGap	1	30	4	6	0	target	0	347	13.328	13.293	13.363
ProbeTrack7	10	ProbeTrack	1406	SCS215b	733716.388042	733716.391514	8	0.013309	60	0	60-180	60	133	NoGap	1	31	4	0	1	target	1	280	13.328	13.289	13.363
ProbeTrack7	10	ProbeTrack	1406	SCS215b	733716.388042	733716.391589	8	0.013309	60	0	60-180	60	162	NoGap	1	32	4	96	0	distractor	1	440	13.328	13.293	13.363
ProbeTrack7	10	ProbeTrack	1406	SCS215b	733716.388042	733716.391682	8	0.013309	60	0	60-180	60	150	NoGap	1	33	4	0	0	target	0	414	13.328	13.293	13.363
ProbeTrack7	10	ProbeTrack	1406	SCS215b	733716.388042	733716.391759	8	0.013309	60	0	60-180	60	171	NoGap	1	34	4	96	1	target	1	387	13.328	13.293	13.363
ProbeTrack7	10	ProbeTrack	1406	SCS215b	733716.388042	733716.391853	8	0.013309	60	0	60-180	60	95	NoGap	1	35	4	6	1	target	1	453	13.328	13.293	13.363
ProbeTrack7	10	ProbeTrack	1406	SCS215b	733716.388042	733716.391921	8	0.013309	60	0	60-180	60	151	NoGap	1	36	4	3	0	target	0	294	13.328	13.293	13.363
ProbeTrack7	10	ProbeTrack	1406	SCS215b	733716.388042	733716.392001	8	0.013309	60	0	60-180	60	61	NoGap	1	37	4	3	0	target	0	467	13.328	13.293	13.363
ProbeTrack7	10	ProbeTrack	1406	SCS215b	733716.388042	733716.392062	8	0.013309	60	0	60-180	60	71	NoGap	1	38	4	3	1	target	1	294	13.328	13.293	13.363
ProbeTrack7	10	ProbeTrack	1406	SCS215b	733716.388042	733716.392124	8	0.013309	60	0	60-180	60	78	NoGap	1	39	4	0	1	target	1	280	13.328	13.293	13.363
ProbeTrack7	10	ProbeTrack	1406	SCS215b	733716.388042	733716.392187	8	0.013309	60	0	60-180	60	91	NoGap	1	40	4	96	0	distractor	1	440	13.328	13.293	13.363
ProbeTrack7	10	ProbeTrack	1406	SCS215b	733716.388042	733716.392263	8	0.013309	60	0	60-180	60	114	NoGap	1	41	4	3	1	target	1	347	13.328	13.293	13.363
ProbeTrack7	10	ProbeTrack	1406	SCS215b	733716.388042	733716.392334	8	0.013309	60	0	60-180	60	129	NoGap	1	42	4	96	1	distractor	0	307	13.328	13.292	13.363
ProbeTrack7	10	ProbeTrack	1406	SCS215b	733716.388042	733716.392420	8	0.013309	60	0	60-180	60	86	NoGap	1	43	4	96	0	distractor	1	653	13.328	13.293	13.363
ProbeTrack7	10	ProbeTrack	1406	SCS215b	733716.388042	733716.392505	8	0.013309	60	0	60-180	60	108	NoGap	1	44	4	6	1	target	1	520	13.328	13.293	13.363
ProbeTrack7	10	ProbeTrack	1406	SCS215b	733716.388042	733716.392576	8	0.013309	60	0	60-180	60	125	NoGap	1	45	4	3	1	target	1	320	13.328	13.289	13.364
ProbeTrack7	10	ProbeTrack	1406	SCS215b	733716.388042	733716.392649	8	0.013309	60	0	60-180	60	116	NoGap	1	46	4	96	1	target	1	254	13.328	13.293	13.363
ProbeTrack7	10	ProbeTrack	1406	SCS215b	733716.388042	733716.392728	8	0.013309	60	0	60-180	60	71	NoGap	1	47	4	6	1	target	1	320	13.328	13.293	13.363
ProbeTrack7	10	ProbeTrack	1406	SCS215b	733716.388042	733716.392858	8	0.013309	60	0	60-180	60	163	NoGap	1	48	4	96	1	target	1	267	13.328	13.292	13.363
ProbeTrack7	10	ProbeTrack	1406	SCS215b	733716.388042	733716.392951	8	0.013309	60	0	60-180	60	74	NoGap	1	49	4	0	1	target	1	320	13.328	13.293	13.363
ProbeTrack7	10	ProbeTrack	1406	SCS215b	733716.388042	733716.393021	8	0.013309	60	0	60-180	60	67	NoGap	1	50	4	0	1	target	1	933	13.328	13.293	13.363
ProbeTrack7	10	ProbeTrack	1406	SCS215b	733716.394374	733716.394659	8	0.013328	60	10	60-180	60	106	GapPrac	1	1	4	96	0	target	0	333	13.328	13.293	13.363
ProbeTrack7	10	ProbeTrack	1406	SCS215b	733716.394374	733716.394755	8	0.013328	60	10	60-180	60	179	GapPrac	1	2	4	3	1	distractor	0	560	13.328	13.290	13.363
ProbeTrack7	10	ProbeTrack	1406	SCS215b	733716.394374	733716.394860	8	0.013328	60	10	60-180	60	135	GapPrac	1	3	4	3	0	target	0	387	13.328	13.293	13.363
ProbeTrack7	10	ProbeTrack	1406	SCS215b	733716.394374	733716.394946	8	0.013328	60	10	60-180	60	173	GapPrac	1	4	4	6	1	target	1	334	13.328	13.292	13.363
ProbeTrack7	10	ProbeTrack	1406	SCS215b	733716.394374	733716.395048	8	0.013328	60	10	60-180	60	163	GapPrac	1	5	4	0	1	target	1	467	13.328	13.293	13.363
ProbeTrack7	10	ProbeTrack	1406	SCS215b	733716.394374	733716.395133	8	0.013328	60	10	60-180	60	119	GapPrac	1	6	4	0	1	target	1	427	13.328	13.289	13.363
ProbeTrack7	10	ProbeTrack	1406	SCS215b	733716.394374	733716.395206	8	0.013328	60	10	60-180	60	130	GapPrac	1	7	4	6	1	32	-3	453	13.328	13.292	13.363
ProbeTrack7	10	ProbeTrack	1406	SCS215b	733716.394374	733716.395280	8	0.013328	60	10	60-180	60	134	GapPrac	1	8	4	3	0	target	0	507	13.328	13.293	13.363
ProbeTrack7	10	ProbeTrack	1406	SCS215b	733716.394374	733716.395359	8	0.013328	60	10	60-180	60	62	GapPrac	1	9	4	96	1	32	-3	467	13.328	13.293	13.363
ProbeTrack7	10	ProbeTrack	1406	SCS215b	733716.394374	733716.395437	8	0.013328	60	10	60-180	60	132	GapPrac	1	10	4	96	0	target	0	240	13.328	13.290	13.363
ProbeTrack7	10	ProbeTrack	1406	SCS215b	733716.394374	733716.395531	8	0.013328	60	10	60-180	60	180	GapPrac	1	11	4	6	1	target	1	440	13.328	13.293	13.365
ProbeTrack7	10	ProbeTrack	1406	SCS215b	733716.394374	733716.395616	8	0.013328	60	10	60-180	60	74	GapPrac	1	12	4	3	1	distractor	0	467	13.328	13.293	13.363
ProbeTrack7	10	ProbeTrack	1406	SCS215b	733716.394374	733716.395682	8	0.013328	60	10	60-180	60	170	GapPrac	1	13	4	6	0	target	0	320	13.328	13.293	13.366
ProbeTrack7	10	ProbeTrack	1406	SCS215b	733716.394374	733716.395764	8	0.013328	60	10	60-180	60	78	GapPrac	1	14	4	3	0	distractor	1	733	13.328	13.293	13.363
ProbeTrack7	10	ProbeTrack	1406	SCS215b	733716.394374	733716.395833	8	0.013328	60	10	60-180	60	108	GapPrac	1	15	4	0	0	distractor	1	667	13.328	13.292	13.364
ProbeTrack7	10	ProbeTrack	1406	SCS215b	733716.394374	733716.395908	8	0.013328	60	10	60-180	60	175	GapPrac	1	16	4	3	1	target	1	387	13.328	13.293	13.363
ProbeTrack7	10	ProbeTrack	1406	SCS215b	733716.394374	733716.395989	8	0.013328	60	10	60-180	60	175	GapPrac	1	17	4	96	0	target	0	280	13.328	13.293	13.363
ProbeTrack7	10	ProbeTrack	1406	SCS215b	733716.394374	733716.396083	8	0.013328	60	10	60-180	60	177	GapPrac	1	18	4	0	0	target	0	440	13.328	13.290	13.365
ProbeTrack7	10	ProbeTrack	1406	SCS215b	733716.394374	733716.396163	8	0.013328	60	10	60-180	60	168	GapPrac	1	19	4	96	1	target	1	240	13.328	13.292	13.364
ProbeTrack7	10	ProbeTrack	1406	SCS215b	733716.394374	733716.396261	8	0.013328	60	10	60-180	60	125	GapPrac	1	20	4	6	0	distractor	1	587	13.328	13.293	13.364
ProbeTrack7	10	ProbeTrack	1406	SCS215b	733716.397077	733716.397145	8	0.013328	60	10	60-180	60	80	GapPrac	1	1	4	3	1	target	1	360	13.328	13.293	13.363
ProbeTrack7	10	ProbeTrack	1406	SCS215b	733716.397077	733716.397245	8	0.013328	60	10	60-180	60	156	GapPrac	1	2	4	3	0	distractor	1	573	13.328	13.293	13.363
ProbeTrack7	10	ProbeTrack	1406	SCS215b	733716.397077	733716.397337	8	0.013328	60	10	60-180	60	63	GapPrac	1	3	4	0	0	target	0	520	13.328	13.293	13.363
ProbeTrack7	10	ProbeTrack	1406	SCS215b	733716.397077	733716.397412	8	0.013328	60	10	60-180	60	175	GapPrac	1	4	4	6	0	distractor	1	653	13.328	13.293	13.363
ProbeTrack7	10	ProbeTrack	1406	SCS215b	733716.397077	733716.397512	8	0.013328	60	10	60-180	60	134	GapPrac	1	5	4	3	1	target	1	507	13.328	13.293	13.363
ProbeTrack7	10	ProbeTrack	1406	SCS215b	733716.397077	733716.397596	8	0.013328	60	10	60-180	60	67	GapPrac	1	6	4	6	1	target	1	307	13.328	13.293	13.363
ProbeTrack7	10	ProbeTrack	1406	SCS215b	733716.397077	733716.397961	8	0.013328	60	10	60-180	60	178	GapPrac	1	7	4	3	0	83	-3	427	13.328	13.290	13.363
ProbeTrack7	10	ProbeTrack	1406	SCS215b	733716.397077	733716.398056	8	0.013328	60	10	60-180	60	89	GapPrac	1	8	4	6	1	target	1	360	13.328	13.289	13.366
ProbeTrack7	10	ProbeTrack	1406	SCS215b	733716.397077	733716.398133	8	0.013328	60	10	60-180	60	119	GapPrac	1	9	4	96	0	target	0	374	13.328	13.293	13.363
ProbeTrack7	10	ProbeTrack	1406	SCS215b	733716.397077	733716.398237	8	0.013328	60	10	60-180	60	121	GapPrac	1	10	4	0	1	target	1	373	13.328	13.293	13.363
ProbeTrack7	10	ProbeTrack	1406	SCS215b	733716.397077	733716.398317	8	0.013328	60	10	60-180	60	102	GapPrac	1	11	4	0	1	target	1	493	13.328	13.293	13.363
ProbeTrack7	10	ProbeTrack	1406	SCS215b	733716.397077	733716.398397	8	0.013328	60	10	60-180	60	169	GapPrac	1	12	4	6	0	distractor	1	560	13.328	13.292	13.363
ProbeTrack7	10	ProbeTrack	1406	SCS215b	733716.397077	733716.398528	8	0.013328	60	10	60-180	60	145	GapPrac	1	13	4	3	0	target	0	573	13.328	13.293	13.363
ProbeTrack7	10	ProbeTrack	1406	SCS215b	733716.397077	733716.398628	8	0.013328	60	10	60-180	60	91	GapPrac	1	14	4	96	1	target	1	280	13.328	13.293	13.363
ProbeTrack7	10	ProbeTrack	1406	SCS215b	733716.397077	733716.398719	8	0.013328	60	10	60-180	60	153	GapPrac	1	15	4	6	0	distractor	1	547	13.328	13.293	13.363
ProbeTrack7	10	ProbeTrack	1406	SCS215b	733716.397077	733716.398826	8	0.013328	60	10	60-180	60	73	GapPrac	1	16	4	0	0	distractor	1	533	13.328	13.293	13.363
ProbeTrack7	10	ProbeTrack	1406	SCS215b	733716.397077	733716.398916	8	0.013328	60	10	60-180	60	81	GapPrac	1	17	4	96	1	target	1	320	13.328	13.293	13.363
ProbeTrack7	10	ProbeTrack	1406	SCS215b	733716.397077	733716.399031	8	0.013328	60	10	60-180	60	67	GapPrac	1	18	4	96	0	distractor	1	360	13.328	13.293	13.363
ProbeTrack7	10	ProbeTrack	1406	SCS215b	733716.397077	733716.399132	8	0.013328	60	10	60-180	60	111	GapPrac	1	19	4	0	0	distractor	1	400	13.328	13.293	13.363
ProbeTrack7	10	ProbeTrack	1406	SCS215b	733716.397077	733716.399216	8	0.013328	60	10	60-180	60	154	GapPrac	1	20	4	3	1	target	1	454	13.328	13.293	13.363
ProbeTrack7	10	ProbeTrack	1406	SCS215b	733716.399470	733716.400139	8	0.013328	60	10	60-180	60	153	GapExp	1	1	4	0	0	target	0	307	13.328	13.293	13.363
ProbeTrack7	10	ProbeTrack	1406	SCS215b	733716.399470	733716.400226	8	0.013328	60	10	60-180	60	97	GapExp	1	2	4	6	0	target	0	680	13.328	13.293	13.363
ProbeTrack7	10	ProbeTrack	1406	SCS215b	733716.399470	733716.400304	8	0.013328	60	10	60-180	60	107	GapExp	1	3	4	3	0	distractor	1	454	13.328	13.293	13.363
ProbeTrack7	10	ProbeTrack	1406	SCS215b	733716.399470	733716.400382	8	0.013328	60	10	60-180	60	99	GapExp	1	4	4	3	1	target	1	507	13.328	13.293	13.363
ProbeTrack7	10	ProbeTrack	1406	SCS215b	733716.399470	733716.400454	8	0.013328	60	10	60-180	60	126	GapExp	1	5	4	0	1	target	1	680	13.328	13.293	13.363
ProbeTrack7	10	ProbeTrack	1406	SCS215b	733716.399470	733716.400538	8	0.013328	60	10	60-180	60	171	GapExp	0	6	4	96	1	target	1	613	13.328	13.293	13.363
ProbeTrack7	10	ProbeTrack	1406	SCS215b	733716.399470	733716.400643	8	0.013328	60	10	60-180	60	66	GapExp	0	7	4	0	0	target	0	1200	13.328	13.293	13.363
ProbeTrack7	10	ProbeTrack	1406	SCS215b	733716.399470	733716.400718	8	0.013328	60	10	60-180	60	141	GapExp	0	8	4	0	0	distractor	1	627	13.328	13.289	13.363
ProbeTrack7	10	ProbeTrack	1406	SCS215b	733716.399470	733716.400836	8	0.013328	60	10	60-180	60	62	GapExp	0	9	4	0	1	target	1	360	13.328	13.293	13.363
ProbeTrack7	10	ProbeTrack	1406	SCS215b	733716.399470	733716.401125	8	0.013328	60	10	60-180	60	129	GapExp	0	10	4	6	1	target	1	427	13.328	13.293	13.363
ProbeTrack7	10	ProbeTrack	1406	SCS215b	733716.399470	733716.401769	8	0.013328	60	10	60-180	60	120	GapExp	0	11	4	96	0	distractor	1	560	13.328	13.293	13.364
ProbeTrack7	10	ProbeTrack	1406	SCS215b	733716.399470	733716.402244	8	0.013328	60	10	60-180	60	97	GapExp	0	12	4	6	0	target	0	493	13.328	13.293	13.363
ProbeTrack7	10	ProbeTrack	1406	SCS215b	733716.399470	733716.402313	8	0.013328	60	10	60-180	60	73	GapExp	0	13	4	96	1	target	1	374	13.328	13.293	13.363
ProbeTrack7	10	ProbeTrack	1406	SCS215b	733716.399470	733716.402387	8	0.013328	60	10	60-180	60	65	GapExp	0	14	4	96	1	target	1	347	13.328	13.293	13.363
ProbeTrack7	10	ProbeTrack	1406	SCS215b	733716.399470	733716.402458	8	0.013328	60	10	60-180	60	109	GapExp	0	15	4	96	1	target	1	320	13.328	13.288	13.363
ProbeTrack7	10	ProbeTrack	1406	SCS215b	733716.399470	733716.402538	8	0.013328	60	10	60-180	60	140	GapExp	0	16	4	6	0	distractor	1	373	13.328	13.288	13.363
ProbeTrack7	10	ProbeTrack	1406	SCS215b	733716.399470	733716.402608	8	0.013328	60	10	60-180	60	115	GapExp	0	17	4	96	0	distractor	1	440	13.328	13.293	13.364
ProbeTrack7	10	ProbeTrack	1406	SCS215b	733716.399470	733716.402693	8	0.013328	60	10	60-180	60	154	GapExp	0	18	4	96	0	distractor	1	387	13.328	13.293	13.363
ProbeTrack7	10	ProbeTrack	1406	SCS215b	733716.399470	733716.402780	8	0.013328	60	10	60-180	60	141	GapExp	0	19	4	96	0	distractor	1	493	13.328	13.293	13.363
ProbeTrack7	10	ProbeTrack	1406	SCS215b	733716.399470	733716.402867	8	0.013328	60	10	60-180	60	98	GapExp	0	20	4	0	0	target	0	653	13.328	13.293	13.363
ProbeTrack7	10	ProbeTrack	1406	SCS215b	733716.399470	733716.402936	8	0.013328	60	10	60-180	60	91	GapExp	0	21	4	0	1	target	1	294	13.328	13.293	13.363
ProbeTrack7	10	ProbeTrack	1406	SCS215b	733716.399470	733716.403000	8	0.013328	60	10	60-180	60	171	GapExp	0	22	4	6	0	target	0	440	13.328	13.293	13.363
ProbeTrack7	10	ProbeTrack	1406	SCS215b	733716.399470	733716.403100	8	0.013328	60	10	60-180	60	138	GapExp	0	23	4	0	1	target	1	507	13.328	13.293	13.364
ProbeTrack7	10	ProbeTrack	1406	SCS215b	733716.399470	733716.403171	8	0.013328	60	10	60-180	60	91	GapExp	0	24	4	96	0	distractor	1	573	13.328	13.293	13.363
ProbeTrack7	10	ProbeTrack	1406	SCS215b	733716.399470	733716.403250	8	0.013328	60	10	60-180	60	106	GapExp	0	25	4	0	1	target	1	400	13.328	13.293	13.363
ProbeTrack7	10	ProbeTrack	1406	SCS215b	733716.399470	733716.403318	8	0.013328	60	10	60-180	60	125	GapExp	0	26	4	0	0	distractor	1	627	13.328	13.293	13.363
ProbeTrack7	10	ProbeTrack	1406	SCS215b	733716.399470	733716.403395	8	0.013328	60	10	60-180	60	74	GapExp	0	27	4	6	0	target	0	467	13.328	13.293	13.363
ProbeTrack7	10	ProbeTrack	1406	SCS215b	733716.399470	733716.403458	8	0.013328	60	10	60-180	60	145	GapExp	0	28	4	3	0	distractor	1	507	13.328	13.293	13.363
ProbeTrack7	10	ProbeTrack	1406	SCS215b	733716.399470	733716.403534	8	0.013328	60	10	60-180	60	106	GapExp	0	29	4	6	1	target	1	640	13.328	13.293	13.364
ProbeTrack7	10	ProbeTrack	1406	SCS215b	733716.399470	733716.403604	8	0.013328	60	10	60-180	60	78	GapExp	0	30	4	3	1	target	1	627	13.328	13.293	13.363
ProbeTrack7	10	ProbeTrack	1406	SCS215b	733716.399470	733716.403672	8	0.013328	60	10	60-180	60	110	GapExp	0	31	4	6	0	distractor	1	507	13.328	13.293	13.363
ProbeTrack7	10	ProbeTrack	1406	SCS215b	733716.399470	733716.403743	8	0.013328	60	10	60-180	60	77	GapExp	0	32	4	6	0	distractor	1	347	13.328	13.293	13.364
ProbeTrack7	10	ProbeTrack	1406	SCS215b	733716.399470	733716.403840	8	0.013328	60	10	60-180	60	126	GapExp	0	33	4	3	1	target	1	334	13.328	13.290	13.363
ProbeTrack7	10	ProbeTrack	1406	SCS215b	733716.399470	733716.403908	8	0.013328	60	10	60-180	60	147	GapExp	0	34	4	0	0	distractor	1	453	13.328	13.293	13.363
ProbeTrack7	10	ProbeTrack	1406	SCS215b	733716.399470	733716.403982	8	0.013328	60	10	60-180	60	150	GapExp	0	35	4	96	0	target	0	507	13.328	13.293	13.366
ProbeTrack7	10	ProbeTrack	1406	SCS215b	733716.399470	733716.404070	8	0.013328	60	10	60-180	60	80	GapExp	0	36	4	6	0	distractor	1	627	13.328	13.293	13.363
ProbeTrack7	10	ProbeTrack	1406	SCS215b	733716.399470	733716.404136	8	0.013328	60	10	60-180	60	107	GapExp	0	37	4	6	1	target	1	453	13.328	13.293	13.363
ProbeTrack7	10	ProbeTrack	1406	SCS215b	733716.399470	733716.404206	8	0.013328	60	10	60-180	60	104	GapExp	0	38	4	0	1	target	1	360	13.328	13.292	13.363
ProbeTrack7	10	ProbeTrack	1406	SCS215b	733716.399470	733716.404273	8	0.013328	60	10	60-180	60	108	GapExp	0	39	4	3	1	target	1	347	13.328	13.293	13.363
ProbeTrack7	10	ProbeTrack	1406	SCS215b	733716.399470	733716.404338	8	0.013328	60	10	60-180	60	178	GapExp	0	40	4	3	0	target	0	360	13.328	13.293	13.363
ProbeTrack7	10	ProbeTrack	1406	SCS215b	733716.399470	733716.404416	8	0.013328	60	10	60-180	60	99	GapExp	0	41	4	96	1	target	1	387	13.328	13.293	13.363
ProbeTrack7	10	ProbeTrack	1406	SCS215b	733716.399470	733716.404492	8	0.013328	60	10	60-180	60	91	GapExp	0	42	4	6	1	target	1	374	13.328	13.293	13.364
ProbeTrack7	10	ProbeTrack	1406	SCS215b	733716.399470	733716.404555	8	0.013328	60	10	60-180	60	142	GapExp	0	43	4	3	0	distractor	1	440	13.328	13.293	13.363
ProbeTrack7	10	ProbeTrack	1406	SCS215b	733716.399470	733716.404627	8	0.013328	60	10	60-180	60	65	GapExp	0	44	4	0	1	target	1	400	13.328	13.293	13.363
ProbeTrack7	10	ProbeTrack	1406	SCS215b	733716.399470	733716.404683	8	0.013328	60	10	60-180	60	103	GapExp	0	45	4	96	0	distractor	1	507	13.328	13.293	13.363
ProbeTrack7	10	ProbeTrack	1406	SCS215b	733716.399470	733716.404762	8	0.013328	60	10	60-180	60	63	GapExp	0	46	4	96	0	target	0	360	13.328	13.293	13.363
ProbeTrack7	10	ProbeTrack	1406	SCS215b	733716.399470	733716.404835	8	0.013328	60	10	60-180	60	163	GapExp	0	47	4	0	0	distractor	1	653	13.328	13.289	13.363
ProbeTrack7	10	ProbeTrack	1406	SCS215b	733716.399470	733716.404911	8	0.013328	60	10	60-180	60	86	GapExp	0	48	4	3	0	target	0	400	13.328	13.293	13.363
ProbeTrack7	10	ProbeTrack	1406	SCS215b	733716.399470	733716.404978	8	0.013328	60	10	60-180	60	68	GapExp	0	49	4	0	1	target	1	560	13.328	13.293	13.363
ProbeTrack7	10	ProbeTrack	1406	SCS215b	733716.399470	733716.405041	8	0.013328	60	10	60-180	60	157	GapExp	0	50	4	6	1	target	1	507	13.328	13.293	13.364
ProbeTrack7	10	ProbeTrack	1406	SCS215b	733716.399470	733716.405120	8	0.013328	60	10	60-180	60	77	GapExp	0	51	4	96	1	distractor	0	400	13.328	13.293	13.363
ProbeTrack7	10	ProbeTrack	1406	SCS215b	733716.399470	733716.405194	8	0.013328	60	10	60-180	60	150	GapExp	0	52	4	3	0	target	0	693	13.328	13.292	13.363
ProbeTrack7	10	ProbeTrack	1406	SCS215b	733716.399470	733716.405273	8	0.013328	60	10	60-180	60	103	GapExp	0	53	4	96	1	target	1	427	13.328	13.293	13.365
ProbeTrack7	10	ProbeTrack	1406	SCS215b	733716.399470	733716.405360	8	0.013328	60	10	60-180	60	156	GapExp	0	54	4	6	1	target	1	453	13.328	13.293	13.366
ProbeTrack7	10	ProbeTrack	1406	SCS215b	733716.399470	733716.405441	8	0.013328	60	10	60-180	60	137	GapExp	0	55	4	3	0	distractor	1	533	13.328	13.293	13.363
ProbeTrack7	10	ProbeTrack	1406	SCS215b	733716.399470	733716.405513	8	0.013328	60	10	60-180	60	154	GapExp	0	56	4	3	1	target	1	480	13.328	13.293	13.363
ProbeTrack7	10	ProbeTrack	1406	SCS215b	733716.399470	733716.405594	8	0.013328	60	10	60-180	60	121	GapExp	0	57	4	0	1	distractor	0	520	13.328	13.293	13.363
ProbeTrack7	10	ProbeTrack	1406	SCS215b	733716.399470	733716.405674	8	0.013328	60	10	60-180	60	177	GapExp	0	58	4	3	1	target	1	427	13.328	13.293	13.363
ProbeTrack7	10	ProbeTrack	1406	SCS215b	733716.399470	733716.405760	8	0.013328	60	10	60-180	60	130	GapExp	0	59	4	96	0	target	0	254	13.328	13.293	13.363
ProbeTrack7	10	ProbeTrack	1406	SCS215b	733716.399470	733716.405850	8	0.013328	60	10	60-180	60	110	GapExp	0	60	4	96	1	target	1	347	13.328	13.293	13.363
ProbeTrack7	10	ProbeTrack	1406	SCS215b	733716.399470	733716.405936	8	0.013328	60	10	60-180	60	84	GapExp	0	61	4	6	1	target	1	494	13.328	13.293	13.363
ProbeTrack7	10	ProbeTrack	1406	SCS215b	733716.399470	733716.406007	8	0.013328	60	10	60-180	60	129	GapExp	0	62	4	3	0	distractor	1	454	13.328	13.293	13.363
ProbeTrack7	10	ProbeTrack	1406	SCS215b	733716.399470	733716.406083	8	0.013328	60	10	60-180	60	105	GapExp	0	63	4	96	0	distractor	1	320	13.328	13.293	13.363
ProbeTrack7	10	ProbeTrack	1406	SCS215b	733716.399470	733716.406162	8	0.013328	60	10	60-180	60	66	GapExp	0	64	4	3	0	target	0	360	13.328	13.293	13.363
ProbeTrack7	10	ProbeTrack	1406	SCS215b	733716.399470	733716.406225	8	0.013328	60	10	60-180	60	105	GapExp	0	65	4	6	1	target	1	413	13.328	13.293	13.363
ProbeTrack7	10	ProbeTrack	1406	SCS215b	733716.399470	733716.406292	8	0.013328	60	10	60-180	60	123	GapExp	0	66	4	3	1	distractor	0	387	13.328	13.293	13.363
ProbeTrack7	10	ProbeTrack	1406	SCS215b	733716.399470	733716.406365	8	0.013328	60	10	60-180	60	103	GapExp	0	67	4	3	0	target	0	400	13.328	13.290	13.363
ProbeTrack7	10	ProbeTrack	1406	SCS215b	733716.399470	733716.406478	8	0.013328	60	10	60-180	60	163	GapExp	0	68	4	0	1	target	1	387	13.328	13.293	13.363
ProbeTrack7	10	ProbeTrack	1406	SCS215b	733716.399470	733716.406555	8	0.013328	60	10	60-180	60	169	GapExp	0	69	4	3	0	distractor	1	693	13.328	13.293	13.363
ProbeTrack7	10	ProbeTrack	1406	SCS215b	733716.399470	733716.406638	8	0.013328	60	10	60-180	60	145	GapExp	0	70	4	0	1	target	1	520	13.328	13.293	13.363
ProbeTrack7	10	ProbeTrack	1406	SCS215b	733716.399470	733716.406712	8	0.013328	60	10	60-180	60	67	GapExp	0	71	4	3	0	distractor	1	533	13.328	13.293	13.363
ProbeTrack7	10	ProbeTrack	1406	SCS215b	733716.399470	733716.406774	8	0.013328	60	10	60-180	60	115	GapExp	0	72	4	6	0	distractor	1	427	13.328	13.293	13.363
ProbeTrack7	10	ProbeTrack	1406	SCS215b	733716.399470	733716.406842	8	0.013328	60	10	60-180	60	111	GapExp	0	73	4	3	1	target	1	533	13.328	13.293	13.363
ProbeTrack7	10	ProbeTrack	1406	SCS215b	733716.399470	733716.406910	8	0.013328	60	10	60-180	60	105	GapExp	0	74	4	96	1	target	1	373	13.328	13.293	13.364
ProbeTrack7	10	ProbeTrack	1406	SCS215b	733716.399470	733716.406990	8	0.013328	60	10	60-180	60	170	GapExp	0	75	4	3	1	target	1	413	13.328	13.293	13.363
ProbeTrack7	10	ProbeTrack	1406	SCS215b	733716.399470	733716.407069	8	0.013328	60	10	60-180	60	66	GapExp	0	76	4	0	0	distractor	1	520	13.328	13.293	13.363
ProbeTrack7	10	ProbeTrack	1406	SCS215b	733716.399470	733716.407136	8	0.013328	60	10	60-180	60	126	GapExp	0	77	4	6	0	distractor	1	547	13.328	13.289	13.366
ProbeTrack7	10	ProbeTrack	1406	SCS215b	733716.399470	733716.407208	8	0.013328	60	10	60-180	60	102	GapExp	0	78	4	6	0	distractor	1	480	13.328	13.293	13.363
ProbeTrack7	10	ProbeTrack	1406	SCS215b	733716.399470	733716.407275	8	0.013328	60	10	60-180	60	121	GapExp	0	79	4	96	0	target	0	773	13.328	13.293	13.363
ProbeTrack7	10	ProbeTrack	1406	SCS215b	733716.399470	733716.407365	8	0.013328	60	10	60-180	60	136	GapExp	0	80	4	3	0	distractor	1	520	13.328	13.293	13.363
ProbeTrack7	10	ProbeTrack	1406	SCS215b	733716.399470	733716.407446	8	0.013328	60	10	60-180	60	145	GapExp	0	81	4	96	0	target	0	387	13.328	13.293	13.363
ProbeTrack7	10	ProbeTrack	1406	SCS215b	733716.399470	733716.407539	8	0.013328	60	10	60-180	60	81	GapExp	0	82	4	3	0	target	0	400	13.328	13.293	13.363
ProbeTrack7	10	ProbeTrack	1406	SCS215b	733716.399470	733716.407603	8	0.013328	60	10	60-180	60	96	GapExp	0	83	4	0	1	target	1	374	13.328	13.293	13.363
ProbeTrack7	10	ProbeTrack	1406	SCS215b	733716.399470	733716.407674	8	0.013328	60	10	60-180	60	87	GapExp	0	84	4	6	1	target	1	440	13.328	13.293	13.363
ProbeTrack7	10	ProbeTrack	1406	SCS215b	733716.399470	733716.407743	8	0.013328	60	10	60-180	60	146	GapExp	0	85	4	0	0	target	0	480	13.328	13.293	13.364
ProbeTrack7	10	ProbeTrack	1406	SCS215b	733716.399470	733716.407818	8	0.013328	60	10	60-180	60	150	GapExp	0	86	4	3	1	target	1	347	13.328	13.293	13.363
ProbeTrack7	10	ProbeTrack	1406	SCS215b	733716.399470	733716.407892	8	0.013328	60	10	60-180	60	92	GapExp	0	87	4	96	1	target	1	627	13.328	13.293	13.363
ProbeTrack7	10	ProbeTrack	1406	SCS215b	733716.399470	733716.407975	8	0.013328	60	10	60-180	60	101	GapExp	0	88	4	3	1	target	1	347	13.328	13.293	13.363
ProbeTrack7	10	ProbeTrack	1406	SCS215b	733716.399470	733716.408048	8	0.013328	60	10	60-180	60	171	GapExp	0	89	4	6	1	target	1	387	13.328	13.293	13.363
ProbeTrack7	10	ProbeTrack	1406	SCS215b	733716.399470	733716.408129	8	0.013328	60	10	60-180	60	111	GapExp	0	90	4	3	0	target	0	320	13.328	13.293	13.363
ProbeTrack7	10	ProbeTrack	1406	SCS215b	733716.399470	733716.408200	8	0.013328	60	10	60-180	60	121	GapExp	0	91	4	3	1	target	1	413	13.328	13.293	13.363
ProbeTrack7	10	ProbeTrack	1406	SCS215b	733716.399470	733716.408270	8	0.013328	60	10	60-180	60	75	GapExp	0	92	4	6	0	target	0	387	13.328	13.293	13.363
ProbeTrack7	10	ProbeTrack	1406	SCS215b	733716.399470	733716.408333	8	0.013328	60	10	60-180	60	64	GapExp	0	93	4	6	0	distractor	1	493	13.328	13.293	13.363
ProbeTrack7	10	ProbeTrack	1406	SCS215b	733716.399470	733716.408395	8	0.013328	60	10	60-180	60	67	GapExp	0	94	4	6	0	distractor	1	520	13.328	13.293	13.363
ProbeTrack7	10	ProbeTrack	1406	SCS215b	733716.399470	733716.408460	8	0.013328	60	10	60-180	60	126	GapExp	0	95	4	0	0	distractor	1	480	13.328	13.289	13.363
ProbeTrack7	10	ProbeTrack	1406	SCS215b	733716.399470	733716.408532	8	0.013328	60	10	60-180	60	128	GapExp	0	96	4	6	1	target	1	587	13.328	13.293	13.363
ProbeTrack7	10	ProbeTrack	1406	SCS215b	733716.399470	733716.408606	8	0.013328	60	10	60-180	60	81	GapExp	0	97	4	6	1	distractor	0	427	13.328	13.293	13.363
ProbeTrack7	10	ProbeTrack	1406	SCS215b	733716.399470	733716.408677	8	0.013328	60	10	60-180	60	112	GapExp	0	98	4	96	0	target	0	347	13.328	13.293	13.363
ProbeTrack7	10	ProbeTrack	1406	SCS215b	733716.399470	733716.408760	8	0.013328	60	10	60-180	60	173	GapExp	0	99	4	96	1	target	1	360	13.328	13.292	13.363
ProbeTrack7	10	ProbeTrack	1406	SCS215b	733716.399470	733716.408852	8	0.013328	60	10	60-180	60	178	GapExp	0	100	4	96	0	distractor	1	480	13.328	13.293	13.366
ProbeTrack7	10	ProbeTrack	1406	SCS215b	733716.399470	733716.408948	8	0.013328	60	10	60-180	60	97	GapExp	0	101	4	3	0	target	0	360	13.328	13.293	13.363
ProbeTrack7	10	ProbeTrack	1406	SCS215b	733716.399470	733716.409015	8	0.013328	60	10	60-180	60	106	GapExp	0	102	4	0	1	distractor	0	414	13.328	13.293	13.366
ProbeTrack7	10	ProbeTrack	1406	SCS215b	733716.399470	733716.409082	8	0.013328	60	10	60-180	60	66	GapExp	0	103	4	0	1	target	1	653	13.328	13.293	13.363
ProbeTrack7	10	ProbeTrack	1406	SCS215b	733716.399470	733716.409147	8	0.013328	60	10	60-180	60	93	GapExp	0	104	4	6	1	target	1	400	13.328	13.292	13.363
ProbeTrack7	10	ProbeTrack	1406	SCS215b	733716.399470	733716.409212	8	0.013328	60	10	60-180	60	134	GapExp	0	105	4	0	0	target	0	334	13.328	13.293	13.363
ProbeTrack7	10	ProbeTrack	1406	SCS215b	733716.399470	733716.409281	8	0.013328	60	10	60-180	60	85	GapExp	0	106	4	6	1	target	1	427	13.328	13.293	13.363
ProbeTrack7	10	ProbeTrack	1406	SCS215b	733716.399470	733716.409345	8	0.013328	60	10	60-180	60	162	GapExp	0	107	4	0	0	target	0	373	13.328	13.293	13.363
ProbeTrack7	10	ProbeTrack	1406	SCS215b	733716.399470	733716.409419	8	0.013328	60	10	60-180	60	108	GapExp	0	108	4	0	0	target	0	667	13.328	13.293	13.363
ProbeTrack7	10	ProbeTrack	1406	SCS215b	733716.399470	733716.409488	8	0.013328	60	10	60-180	60	99	GapExp	0	109	4	96	0	distractor	1	507	13.328	13.293	13.363
ProbeTrack7	10	ProbeTrack	1406	SCS215b	733716.399470	733716.409570	8	0.013328	60	10	60-180	60	64	GapExp	0	110	4	0	0	distractor	1	400	13.328	13.293	13.363
ProbeTrack7	10	ProbeTrack	1406	SCS215b	733716.399470	733716.409630	8	0.013328	60	10	60-180	60	152	GapExp	0	111	4	96	1	distractor	0	427	13.328	13.293	13.363
ProbeTrack7	10	ProbeTrack	1406	SCS215b	733716.399470	733716.409721	8	0.013328	60	10	60-180	60	92	GapExp	0	112	4	3	1	target	1	347	13.328	13.293	13.364
ProbeTrack7	10	ProbeTrack	1406	SCS215b	733716.399470	733716.409786	8	0.013328	60	10	60-180	60	145	GapExp	0	113	4	6	0	target	0	387	13.328	13.293	13.363
ProbeTrack7	10	ProbeTrack	1406	SCS215b	733716.399470	733716.409859	8	0.013328	60	10	60-180	60	118	GapExp	0	114	4	3	1	target	1	320	13.328	13.293	13.363
ProbeTrack7	10	ProbeTrack	1406	SCS215b	733716.399470	733716.409927	8	0.013328	60	10	60-180	60	106	GapExp	0	115	4	0	0	distractor	1	520	13.328	13.293	13.363
ProbeTrack7	10	ProbeTrack	1406	SCS215b	733716.399470	733716.409997	8	0.013328	60	10	60-180	60	149	GapExp	0	116	4	3	1	distractor	0	587	13.328	13.293	13.363
ProbeTrack7	10	ProbeTrack	1406	SCS215b	733716.399470	733716.410070	8	0.013328	60	10	60-180	60	82	GapExp	0	117	4	3	1	target	1	400	13.328	13.292	13.363
ProbeTrack7	10	ProbeTrack	1406	SCS215b	733716.399470	733716.410132	8	0.013328	60	10	60-180	60	147	GapExp	0	118	4	0	1	distractor	0	454	13.328	13.293	13.363
ProbeTrack7	10	ProbeTrack	1406	SCS215b	733716.399470	733716.410207	8	0.013328	60	10	60-180	60	162	GapExp	0	119	4	96	1	target	1	307	13.328	13.293	13.363
ProbeTrack7	10	ProbeTrack	1406	SCS215b	733716.399470	733716.410299	8	0.013328	60	10	60-180	60	115	GapExp	0	120	4	96	1	distractor	0	320	13.328	13.293	13.363
ProbeTrack7	10	ProbeTrack	1406	SCS215b	733716.399470	733716.410397	8	0.013328	60	10	60-180	60	141	GapExp	0	121	4	0	0	distractor	1	587	13.328	13.292	13.363
ProbeTrack7	10	ProbeTrack	1406	SCS215b	733716.399470	733716.410468	8	0.013328	60	10	60-180	60	116	GapExp	0	122	4	6	0	target	0	400	13.328	13.293	13.363
ProbeTrack7	10	ProbeTrack	1406	SCS215b	733716.399470	733716.410536	8	0.013328	60	10	60-180	60	112	GapExp	0	123	4	6	1	target	1	360	13.328	13.292	13.363
ProbeTrack7	10	ProbeTrack	1406	SCS215b	733716.399470	733716.410606	8	0.013328	60	10	60-180	60	90	GapExp	0	124	4	96	1	distractor	0	294	13.328	13.290	13.366
ProbeTrack7	10	ProbeTrack	1406	SCS215b	733716.399470	733716.410689	8	0.013328	60	10	60-180	60	86	GapExp	0	125	4	0	1	target	1	360	13.328	13.290	13.363
ProbeTrack7	10	ProbeTrack	1406	SCS215b	733716.411301	733716.411344	8	0.013328	60	10	60-180	60	90	GapPrac	1	1	3	0	0	distractor	1	453	13.328	13.293	13.363
ProbeTrack7	10	ProbeTrack	1406	SCS215b	733716.411301	733716.411428	8	0.013328	60	10	60-180	60	95	GapPrac	1	2	3	6	0	distractor	1	480	13.328	13.293	13.363
ProbeTrack7	10	ProbeTrack	1406	SCS215b	733716.411301	733716.411496	8	0.013328	60	10	60-180	60	113	GapPrac	1	3	3	0	1	target	1	307	13.328	13.293	13.363
ProbeTrack7	10	ProbeTrack	1406	SCS215b	733716.411301	733716.411563	8	0.013328	60	10	60-180	60	169	GapPrac	1	4	3	96	1	target	1	374	13.328	13.293	13.365
ProbeTrack7	10	ProbeTrack	1406	SCS215b	733716.411301	733716.411655	8	0.013328	60	10	60-180	60	116	GapPrac	1	5	3	96	1	target	1	374	13.328	13.285	13.370
ProbeTrack7	10	ProbeTrack	1406	SCS215b	733716.411301	733716.411735	8	0.013328	60	10	60-180	60	125	GapPrac	1	6	3	96	1	target	1	280	13.328	13.293	13.363
ProbeTrack7	10	ProbeTrack	1406	SCS215b	733716.411301	733716.411829	8	0.013328	60	10	60-180	60	128	GapPrac	1	7	3	6	1	distractor	0	307	13.328	13.293	13.363
ProbeTrack7	10	ProbeTrack	1406	SCS215b	733716.411301	733716.411906	8	0.013328	60	10	60-180	60	166	GapPrac	1	8	3	6	0	distractor	1	600	13.328	13.293	13.363
ProbeTrack7	10	ProbeTrack	1406	SCS215b	733716.411301	733716.411987	8	0.013328	60	10	60-180	60	101	GapPrac	1	9	3	3	1	target	1	494	13.328	13.293	13.363
ProbeTrack7	10	ProbeTrack	1406	SCS215b	733716.411301	733716.412054	8	0.013328	60	10	60-180	60	158	GapPrac	1	10	3	6	0	distractor	1	440	13.328	13.293	13.363
ProbeTrack7	10	ProbeTrack	1406	SCS215b	733716.411301	733716.412133	8	0.013328	60	10	60-180	60	79	GapPrac	1	11	3	6	1	target	1	374	13.328	13.293	13.363
ProbeTrack7	10	ProbeTrack	1406	SCS215b	733716.411301	733716.412196	8	0.013328	60	10	60-180	60	176	GapPrac	1	12	3	0	1	target	1	280	13.328	13.293	13.363
ProbeTrack7	10	ProbeTrack	1406	SCS215b	733716.411301	733716.412272	8	0.013328	60	10	60-180	60	73	GapPrac	1	13	3	96	0	target	0	360	13.328	13.293	13.363
ProbeTrack7	10	ProbeTrack	1406	SCS215b	733716.411301	733716.412345	8	0.013328	60	10	60-180	60	73	GapPrac	1	14	3	3	0	distractor	1	533	13.328	13.291	13.365
ProbeTrack7	10	ProbeTrack	1406	SCS215b	733716.411301	733716.412408	8	0.013328	60	10	60-180	60	113	GapPrac	1	15	3	3	0	distractor	1	453	13.328	13.292	13.363
ProbeTrack7	10	ProbeTrack	1406	SCS215b	733716.411301	733716.412476	8	0.013328	60	10	60-180	60	95	GapPrac	1	16	3	96	0	distractor	1	480	13.328	13.293	13.363
ProbeTrack7	10	ProbeTrack	1406	SCS215b	733716.411301	733716.412557	8	0.013328	60	10	60-180	60	171	GapPrac	1	17	3	0	0	distractor	1	374	13.328	13.284	13.364
ProbeTrack7	10	ProbeTrack	1406	SCS215b	733716.411301	733716.412643	8	0.013328	60	10	60-180	60	167	GapPrac	1	18	3	0	0	distractor	1	467	13.328	13.292	13.363
ProbeTrack7	10	ProbeTrack	1406	SCS215b	733716.411301	733716.412720	8	0.013328	60	10	60-180	60	156	GapPrac	1	19	3	3	1	target	1	427	13.328	13.293	13.363
ProbeTrack7	10	ProbeTrack	1406	SCS215b	733716.411301	733716.412793	8	0.013328	60	10	60-180	60	139	GapPrac	1	20	3	0	1	target	1	387	13.328	13.293	13.363
ProbeTrack7	10	ProbeTrack	1406	SCS215b	733716.413139	733716.413204	8	0.013328	60	10	60-180	60	119	GapExp	1	1	3	6	0	distractor	1	507	13.328	13.289	13.367
ProbeTrack7	10	ProbeTrack	1406	SCS215b	733716.413139	733716.413277	8	0.013328	60	10	60-180	60	71	GapExp	1	2	3	96	1	target	1	267	13.328	13.293	13.363
ProbeTrack7	10	ProbeTrack	1406	SCS215b	733716.413139	733716.413350	8	0.013328	60	10	60-180	60	127	GapExp	1	3	3	3	0	distractor	1	480	13.328	13.293	13.363
ProbeTrack7	10	ProbeTrack	1406	SCS215b	733716.413139	733716.413418	8	0.013328	60	10	60-180	60	160	GapExp	1	4	3	6	1	target	1	307	13.328	13.293	13.363
ProbeTrack7	10	ProbeTrack	1406	SCS215b	733716.413139	733716.413490	8	0.013328	60	10	60-180	60	133	GapExp	1	5	3	96	0	distractor	1	387	13.328	13.293	13.365
ProbeTrack7	10	ProbeTrack	1406	SCS215b	733716.413139	733716.413586	8	0.013328	60	10	60-180	60	164	GapExp	0	6	3	0	1	target	1	294	13.328	13.293	13.363
ProbeTrack7	10	ProbeTrack	1406	SCS215b	733716.413139	733716.413657	8	0.013328	60	10	60-180	60	61	GapExp	0	7	3	3	0	target	0	307	13.328	13.293	13.363
ProbeTrack7	10	ProbeTrack	1406	SCS215b	733716.413139	733716.413713	8	0.013328	60	10	60-180	60	146	GapExp	0	8	3	0	0	target	0	427	13.328	13.293	13.363
ProbeTrack7	10	ProbeTrack	1406	SCS215b	733716.413139	733716.413782	8	0.013328	60	10	60-180	60	99	GapExp	0	9	3	0	0	distractor	1	387	13.328	13.293	13.363
ProbeTrack7	10	ProbeTrack	1406	SCS215b	733716.413139	733716.413845	8	0.013328	60	10	60-180	60	86	GapExp	0	10	3	96	1	distractor	0	400	13.328	13.293	13.363
ProbeTrack7	10	ProbeTrack	1406	SCS215b	733716.413139	733716.413921	8	0.013328	60	10	60-180	60	140	GapExp	0	11	3	0	1	target	1	400	13.328	13.293	13.363
ProbeTrack7	10	ProbeTrack	1406	SCS215b	733716.413139	733716.413990	8	0.013328	60	10	60-180	60	107	GapExp	0	12	3	0	0	target	0	453	13.328	13.293	13.363
ProbeTrack7	10	ProbeTrack	1406	SCS215b	733716.413139	733716.414054	8	0.013328	60	10	60-180	60	134	GapExp	0	13	3	3	0	distractor	1	440	13.328	13.293	13.363
ProbeTrack7	10	ProbeTrack	1406	SCS215b	733716.413139	733716.414123	8	0.013328	60	10	60-180	60	177	GapExp	0	14	3	3	1	target	1	387	13.328	13.292	13.364
ProbeTrack7	10	ProbeTrack	1406	SCS215b	733716.413139	733716.414202	8	0.013328	60	10	60-180	60	101	GapExp	0	15	3	96	1	target	1	307	13.328	13.293	13.363
ProbeTrack7	10	ProbeTrack	1406	SCS215b	733716.413139	733716.414280	8	0.013328	60	10	60-180	60	99	GapExp	0	16	3	96	0	target	0	427	13.328	13.293	13.363
ProbeTrack7	10	ProbeTrack	1406	SCS215b	733716.413139	733716.414357	8	0.013328	60	10	60-180	60	121	GapExp	0	17	3	3	0	target	0	427	13.328	13.293	13.363
ProbeTrack7	10	ProbeTrack	1406	SCS215b	733716.413139	733716.414424	8	0.013328	60	10	60-180	60	114	GapExp	0	18	3	6	0	target	0	493	13.328	13.292	13.363
ProbeTrack7	10	ProbeTrack	1406	SCS215b	733716.413139	733716.414490	8	0.013328	60	10	60-180	60	80	GapExp	0	19	3	0	1	target	1	800	13.328	13.293	13.363
ProbeTrack7	10	ProbeTrack	1406	SCS215b	733716.413139	733716.414556	8	0.013328	60	10	60-180	60	140	GapExp	0	20	3	3	0	distractor	1	387	13.328	13.292	13.363
ProbeTrack7	10	ProbeTrack	1406	SCS215b	733716.413139	733716.414628	8	0.013328	60	10	60-180	60	136	GapExp	0	21	3	0	0	target	0	547	13.328	13.289	13.367
ProbeTrack7	10	ProbeTrack	1406	SCS215b	733716.413139	733716.414699	8	0.013328	60	10	60-180	60	91	GapExp	0	22	3	96	1	target	1	387	13.328	13.293	13.363
ProbeTrack7	10	ProbeTrack	1406	SCS215b	733716.413139	733716.414775	8	0.013328	60	10	60-180	60	160	GapExp	0	23	3	96	0	target	0	387	13.328	13.293	13.363
ProbeTrack7	10	ProbeTrack	1406	SCS215b	733716.413139	733716.414888	8	0.013328	60	10	60-180	60	129	GapExp	0	24	3	3	0	target	0	387	13.328	13.293	13.363
ProbeTrack7	10	ProbeTrack	1406	SCS215b	733716.413139	733716.414956	8	0.013328	60	10	60-180	60	166	GapExp	0	25	3	0	0	target	0	427	13.328	13.293	13.363
ProbeTrack7	10	ProbeTrack	1406	SCS215b	733716.413139	733716.415098	8	0.013328	60	10	60-180	60	125	GapExp	0	26	3	3	1	target	1	493	13.328	13.293	13.363
ProbeTrack7	10	ProbeTrack	1406	SCS215b	733716.413139	733716.415169	8	0.013328	60	10	60-180	60	95	GapExp	0	27	3	6	0	distractor	1	560	13.328	13.293	13.363
ProbeTrack7	10	ProbeTrack	1406	SCS215b	733716.413139	733716.415235	8	0.013328	60	10	60-180	60	71	GapExp	0	28	3	3	0	distractor	1	533	13.328	13.293	13.363
ProbeTrack7	10	ProbeTrack	1406	SCS215b	733716.413139	733716.415296	8	0.013328	60	10	60-180	60	88	GapExp	0	29	3	96	0	distractor	1	573	13.328	13.293	13.363
ProbeTrack7	10	ProbeTrack	1406	SCS215b	733716.413139	733716.415373	8	0.013328	60	10	60-180	60	71	GapExp	0	30	3	3	1	distractor	0	453	13.328	13.292	13.364
ProbeTrack7	10	ProbeTrack	1406	SCS215b	733716.413139	733716.415435	8	0.013328	60	10	60-180	60	110	GapExp	0	31	3	96	1	target	1	360	13.328	13.293	13.363
ProbeTrack7	10	ProbeTrack	1406	SCS215b	733716.413139	733716.415514	8	0.013328	60	10	60-180	60	99	GapExp	0	32	3	96	1	target	1	334	13.328	13.293	13.368
ProbeTrack7	10	ProbeTrack	1406	SCS215b	733716.413139	733716.415590	8	0.013328	60	10	60-180	60	98	GapExp	0	33	3	6	0	distractor	1	480	13.328	13.289	13.363
ProbeTrack7	10	ProbeTrack	1406	SCS215b	733716.413139	733716.415655	8	0.013328	60	10	60-180	60	153	GapExp	0	34	3	6	0	distractor	1	387	13.328	13.293	13.363
ProbeTrack7	10	ProbeTrack	1406	SCS215b	733716.413139	733716.415730	8	0.013328	60	10	60-180	60	68	GapExp	0	35	3	96	1	target	1	453	13.328	13.293	13.363
ProbeTrack7	10	ProbeTrack	1406	SCS215b	733716.413139	733716.415805	8	0.013328	60	10	60-180	60	85	GapExp	0	36	3	3	0	distractor	1	427	13.328	13.293	13.363
ProbeTrack7	10	ProbeTrack	1406	SCS215b	733716.413139	733716.415867	8	0.013328	60	10	60-180	60	63	GapExp	0	37	3	96	0	distractor	1	560	13.328	13.293	13.363
ProbeTrack7	10	ProbeTrack	1406	SCS215b	733716.413139	733716.415941	8	0.013328	60	10	60-180	60	104	GapExp	0	38	3	3	1	target	1	480	13.328	13.293	13.366
ProbeTrack7	10	ProbeTrack	1406	SCS215b	733716.413139	733716.416007	8	0.013328	60	10	60-180	60	108	GapExp	0	39	3	3	0	distractor	1	387	13.328	13.293	13.363
ProbeTrack7	10	ProbeTrack	1406	SCS215b	733716.413139	733716.416085	8	0.013328	60	10	60-180	60	94	GapExp	0	40	3	6	1	target	1	400	13.328	13.290	13.363
ProbeTrack7	10	ProbeTrack	1406	SCS215b	733716.413139	733716.416152	8	0.013328	60	10	60-180	60	159	GapExp	0	41	3	3	1	target	1	334	13.328	13.293	13.367
ProbeTrack7	10	ProbeTrack	1406	SCS215b	733716.413139	733716.416224	8	0.013328	60	10	60-180	60	83	GapExp	0	42	3	0	1	target	1	480	13.328	13.293	13.363
ProbeTrack7	10	ProbeTrack	1406	SCS215b	733716.413139	733716.416285	8	0.013328	60	10	60-180	60	93	GapExp	0	43	3	6	0	target	0	387	13.328	13.293	13.364
ProbeTrack7	10	ProbeTrack	1406	SCS215b	733716.413139	733716.416350	8	0.013328	60	10	60-180	60	105	GapExp	0	44	3	6	0	distractor	1	467	13.328	13.293	13.363
ProbeTrack7	10	ProbeTrack	1406	SCS215b	733716.413139	733716.416416	8	0.013328	60	10	60-180	60	92	GapExp	0	45	3	6	1	target	1	493	13.328	13.293	13.363
ProbeTrack7	10	ProbeTrack	1406	SCS215b	733716.413139	733716.416482	8	0.013328	60	10	60-180	60	137	GapExp	0	46	3	0	0	target	0	747	13.328	13.293	13.363
ProbeTrack7	10	ProbeTrack	1406	SCS215b	733716.413139	733716.416556	8	0.013328	60	10	60-180	60	108	GapExp	0	47	3	6	1	target	1	374	13.328	13.289	13.363
ProbeTrack7	10	ProbeTrack	1406	SCS215b	733716.413139	733716.416624	8	0.013328	60	10	60-180	60	171	GapExp	0	48	3	0	1	target	1	387	13.328	13.293	13.363
ProbeTrack7	10	ProbeTrack	1406	SCS215b	733716.413139	733716.416701	8	0.013328	60	10	60-180	60	77	GapExp	0	49	3	3	0	distractor	1	520	13.328	13.293	13.363
ProbeTrack7	10	ProbeTrack	1406	SCS215b	733716.413139	733716.416763	8	0.013328	60	10	60-180	60	112	GapExp	0	50	3	3	1	distractor	0	520	13.328	13.292	13.363
ProbeTrack7	10	ProbeTrack	1406	SCS215b	733716.413139	733716.416832	8	0.013328	60	10	60-180	60	64	GapExp	0	51	3	3	0	distractor	1	573	13.328	13.293	13.363
ProbeTrack7	10	ProbeTrack	1406	SCS215b	733716.413139	733716.416894	8	0.013328	60	10	60-180	60	96	GapExp	0	52	3	0	1	target	1	440	13.328	13.293	13.363
ProbeTrack7	10	ProbeTrack	1406	SCS215b	733716.413139	733716.416961	8	0.013328	60	10	60-180	60	147	GapExp	0	53	3	3	1	target	1	880	13.328	13.293	13.363
ProbeTrack7	10	ProbeTrack	1406	SCS215b	733716.413139	733716.417040	8	0.013328	60	10	60-180	60	124	GapExp	0	54	3	0	0	distractor	1	454	13.328	13.276	13.380
ProbeTrack7	10	ProbeTrack	1406	SCS215b	733716.413139	733716.417110	8	0.013328	60	10	60-180	60	109	GapExp	0	55	3	96	1	target	1	347	13.328	13.293	13.363
ProbeTrack7	10	ProbeTrack	1406	SCS215b	733716.413139	733716.417192	8	0.013328	60	10	60-180	60	127	GapExp	0	56	3	3	0	target	0	280	13.328	13.293	13.363
ProbeTrack7	10	ProbeTrack	1406	SCS215b	733716.413139	733716.417262	8	0.013328	60	10	60-180	60	98	GapExp	0	57	3	0	1	target	1	347	13.328	13.293	13.363
ProbeTrack7	10	ProbeTrack	1406	SCS215b	733716.413139	733716.417327	8	0.013328	60	10	60-180	60	87	GapExp	0	58	3	6	0	distractor	1	413	13.328	13.293	13.363
ProbeTrack7	10	ProbeTrack	1406	SCS215b	733716.413139	733716.417390	8	0.013328	60	10	60-180	60	115	GapExp	0	59	3	6	1	distractor	0	440	13.328	13.293	13.363
ProbeTrack7	10	ProbeTrack	1406	SCS215b	733716.413139	733716.417456	8	0.013328	60	10	60-180	60	89	GapExp	0	60	3	96	0	distractor	1	453	13.328	13.293	13.363
ProbeTrack7	10	ProbeTrack	1406	SCS215b	733716.413139	733716.417534	8	0.013328	60	10	60-180	60	98	GapExp	0	61	3	0	0	distractor	1	520	13.328	13.293	13.363
ProbeTrack7	10	ProbeTrack	1406	SCS215b	733716.413139	733716.417599	8	0.013328	60	10	60-180	60	173	GapExp	0	62	3	6	1	target	1	347	13.328	13.293	13.363
ProbeTrack7	10	ProbeTrack	1406	SCS215b	733716.413139	733716.417675	8	0.013328	60	10	60-180	60	162	GapExp	0	63	3	0	0	distractor	1	613	13.328	13.293	13.364
ProbeTrack7	10	ProbeTrack	1406	SCS215b	733716.413139	733716.417751	8	0.013328	60	10	60-180	60	114	GapExp	0	64	3	96	0	target	0	520	13.328	13.292	13.363
ProbeTrack7	10	ProbeTrack	1406	SCS215b	733716.413139	733716.417833	8	0.013328	60	10	60-180	60	136	GapExp	0	65	3	3	1	target	1	360	13.328	13.293	13.363
ProbeTrack7	10	ProbeTrack	1406	SCS215b	733716.413139	733716.417903	8	0.013328	60	10	60-180	60	177	GapExp	0	66	3	96	1	target	1	480	13.328	13.293	13.364
ProbeTrack7	10	ProbeTrack	1406	SCS215b	733716.413139	733716.417995	8	0.013328	60	10	60-180	60	121	GapExp	0	67	3	3	0	target	0	573	13.328	13.290	13.366
ProbeTrack7	10	ProbeTrack	1406	SCS215b	733716.413139	733716.418063	8	0.013328	60	10	60-180	60	130	GapExp	0	68	3	6	1	target	1	427	13.328	13.289	13.366
ProbeTrack7	10	ProbeTrack	1406	SCS215b	733716.413139	733716.418131	8	0.013328	60	10	60-180	60	117	GapExp	0	69	3	0	0	distractor	1	640	13.328	13.289	13.367
ProbeTrack7	10	ProbeTrack	1406	SCS215b	733716.413139	733716.418250	8	0.013328	60	10	60-180	60	147	GapExp	0	70	3	6	0	distractor	1	547	13.328	13.292	13.363
ProbeTrack7	10	ProbeTrack	1406	SCS215b	733716.413139	733716.418327	8	0.013328	60	10	60-180	60	79	GapExp	0	71	3	0	1	target	1	360	13.328	13.293	13.363
ProbeTrack7	10	ProbeTrack	1406	SCS215b	733716.413139	733716.418390	8	0.013328	60	10	60-180	60	177	GapExp	0	72	3	0	0	target	0	374	13.328	13.293	13.363
ProbeTrack7	10	ProbeTrack	1406	SCS215b	733716.413139	733716.418465	8	0.013328	60	10	60-180	60	78	GapExp	0	73	3	0	1	target	1	334	13.328	13.293	13.363
ProbeTrack7	10	ProbeTrack	1406	SCS215b	733716.413139	733716.418522	8	0.013328	60	10	60-180	60	164	GapExp	0	74	3	6	1	target	1	294	13.328	13.293	13.363
ProbeTrack7	10	ProbeTrack	1406	SCS215b	733716.413139	733716.418595	8	0.013328	60	10	60-180	60	82	GapExp	0	75	3	6	1	target	1	347	13.328	13.293	13.363
ProbeTrack7	10	ProbeTrack	1406	SCS215b	733716.413139	733716.418656	8	0.013328	60	10	60-180	60	116	GapExp	0	76	3	96	1	target	1	347	13.328	13.293	13.363
ProbeTrack7	10	ProbeTrack	1406	SCS215b	733716.413139	733716.418749	8	0.013328	60	10	60-180	60	86	GapExp	0	77	3	6	1	target	1	334	13.328	13.293	13.366
ProbeTrack7	10	ProbeTrack	1406	SCS215b	733716.413139	733716.418813	8	0.013328	60	10	60-180	60	100	GapExp	0	78	3	3	0	target	0	320	13.328	13.293	13.363
ProbeTrack7	10	ProbeTrack	1406	SCS215b	733716.413139	733716.418875	8	0.013328	60	10	60-180	60	86	GapExp	0	79	3	96	0	distractor	1	640	13.328	13.293	13.363
ProbeTrack7	10	ProbeTrack	1406	SCS215b	733716.413139	733716.418961	8	0.013328	60	10	60-180	60	166	GapExp	0	80	3	6	1	distractor	0	414	13.328	13.293	13.363
ProbeTrack7	10	ProbeTrack	1406	SCS215b	733716.413139	733716.419038	8	0.013328	60	10	60-180	60	121	GapExp	0	81	3	96	1	target	1	360	13.328	13.293	13.363
ProbeTrack7	10	ProbeTrack	1406	SCS215b	733716.413139	733716.419119	8	0.013328	60	10	60-180	60	83	GapExp	0	82	3	3	1	target	1	360	13.328	13.293	13.363
ProbeTrack7	10	ProbeTrack	1406	SCS215b	733716.413139	733716.419180	8	0.013328	60	10	60-180	60	126	GapExp	0	83	3	96	1	target	1	334	13.328	13.293	13.363
ProbeTrack7	10	ProbeTrack	1406	SCS215b	733716.413139	733716.419261	8	0.013328	60	10	60-180	60	141	GapExp	0	84	3	3	1	target	1	254	13.328	13.293	13.364
ProbeTrack7	10	ProbeTrack	1406	SCS215b	733716.413139	733716.419329	8	0.013328	60	10	60-180	60	121	GapExp	0	85	3	0	1	target	1	307	13.328	13.293	13.363
ProbeTrack7	10	ProbeTrack	1406	SCS215b	733716.413139	733716.419394	8	0.013328	60	10	60-180	60	144	GapExp	0	86	3	0	0	distractor	1	493	13.328	13.293	13.363
ProbeTrack7	10	ProbeTrack	1406	SCS215b	733716.413139	733716.419465	8	0.013328	60	10	60-180	60	95	GapExp	0	87	3	6	0	distractor	1	533	13.328	13.293	13.364
ProbeTrack7	10	ProbeTrack	1406	SCS215b	733716.413139	733716.419528	8	0.013328	60	10	60-180	60	62	GapExp	0	88	3	3	0	distractor	1	507	13.328	13.293	13.363
ProbeTrack7	10	ProbeTrack	1406	SCS215b	733716.413139	733716.419585	8	0.013328	60	10	60-180	60	158	GapExp	0	89	3	96	1	target	1	507	13.328	13.293	13.364
ProbeTrack7	10	ProbeTrack	1406	SCS215b	733716.413139	733716.419673	8	0.013328	60	10	60-180	60	89	GapExp	0	90	3	3	1	target	1	347	13.328	13.293	13.363
ProbeTrack7	10	ProbeTrack	1406	SCS215b	733716.413139	733716.419749	8	0.013328	60	10	60-180	60	105	GapExp	0	91	3	0	1	target	1	347	13.328	13.293	13.363
ProbeTrack7	10	ProbeTrack	1406	SCS215b	733716.413139	733716.419812	8	0.013328	60	10	60-180	60	106	GapExp	0	92	3	3	1	target	1	307	13.328	13.292	13.363
ProbeTrack7	10	ProbeTrack	1406	SCS215b	733716.413139	733716.419875	8	0.013328	60	10	60-180	60	130	GapExp	0	93	3	96	0	distractor	1	533	13.328	13.292	13.363
ProbeTrack7	10	ProbeTrack	1406	SCS215b	733716.413139	733716.419958	8	0.013328	60	10	60-180	60	158	GapExp	0	94	3	6	1	target	1	360	13.328	13.293	13.363
ProbeTrack7	10	ProbeTrack	1406	SCS215b	733716.413139	733716.420031	8	0.013328	60	10	60-180	60	124	GapExp	0	95	3	6	0	target	0	493	13.328	13.293	13.363
ProbeTrack7	10	ProbeTrack	1406	SCS215b	733716.413139	733716.420098	8	0.013328	60	10	60-180	60	167	GapExp	0	96	3	0	1	target	1	453	13.328	13.293	13.363
ProbeTrack7	10	ProbeTrack	1406	SCS215b	733716.413139	733716.420171	8	0.013328	60	10	60-180	60	139	GapExp	0	97	3	96	1	target	1	307	13.328	13.293	13.363
ProbeTrack7	10	ProbeTrack	1406	SCS215b	733716.413139	733716.420254	8	0.013328	60	10	60-180	60	133	GapExp	0	98	3	96	0	target	0	360	13.328	13.293	13.363
ProbeTrack7	10	ProbeTrack	1406	SCS215b	733716.413139	733716.420336	8	0.013328	60	10	60-180	60	106	GapExp	0	99	3	96	0	distractor	1	573	13.328	13.293	13.363
ProbeTrack7	10	ProbeTrack	1406	SCS215b	733716.413139	733716.420417	8	0.013328	60	10	60-180	60	66	GapExp	0	100	3	3	1	target	1	440	13.328	13.293	13.363
ProbeTrack7	10	ProbeTrack	1406	SCS215b	733716.413139	733716.420477	8	0.013328	60	10	60-180	60	109	GapExp	0	101	3	96	0	target	0	480	13.328	13.293	13.363
ProbeTrack7	10	ProbeTrack	1406	SCS215b	733716.413139	733716.420559	8	0.013328	60	10	60-180	60	61	GapExp	0	102	3	0	0	distractor	1	507	13.328	13.293	13.363
ProbeTrack7	10	ProbeTrack	1406	SCS215b	733716.413139	733716.420619	8	0.013328	60	10	60-180	60	75	GapExp	0	103	3	6	0	distractor	1	907	13.328	13.293	13.364
ProbeTrack7	10	ProbeTrack	1406	SCS215b	733716.413139	733716.420686	8	0.013328	60	10	60-180	60	165	GapExp	0	104	3	3	1	target	1	320	13.328	13.291	13.363
ProbeTrack7	10	ProbeTrack	1406	SCS215b	733716.413139	733716.420762	8	0.013328	60	10	60-180	60	142	GapExp	0	105	3	6	0	distractor	1	480	13.328	13.293	13.363
ProbeTrack7	10	ProbeTrack	1406	SCS215b	733716.413139	733716.420836	8	0.013328	60	10	60-180	60	89	GapExp	0	106	3	0	0	distractor	1	547	13.328	13.293	13.364
ProbeTrack7	10	ProbeTrack	1406	SCS215b	733716.413139	733716.420899	8	0.013328	60	10	60-180	60	148	GapExp	0	107	3	0	1	target	1	480	13.328	13.293	13.363
ProbeTrack7	10	ProbeTrack	1406	SCS215b	733716.413139	733716.420971	8	0.013328	60	10	60-180	60	122	GapExp	0	108	3	96	1	target	1	374	13.328	13.293	13.363
ProbeTrack7	10	ProbeTrack	1406	SCS215b	733716.413139	733716.421052	8	0.013328	60	10	60-180	60	64	GapExp	0	109	3	6	1	target	1	374	13.328	13.293	13.363
ProbeTrack7	10	ProbeTrack	1406	SCS215b	733716.413139	733716.421122	8	0.013328	60	10	60-180	60	141	GapExp	0	110	3	3	0	target	0	320	13.328	13.293	13.364
ProbeTrack7	10	ProbeTrack	1406	SCS215b	733716.413139	733716.421192	8	0.013328	60	10	60-180	60	89	GapExp	0	111	3	6	1	target	1	547	13.328	13.293	13.363
ProbeTrack7	10	ProbeTrack	1406	SCS215b	733716.413139	733716.421257	8	0.013328	60	10	60-180	60	98	GapExp	0	112	3	6	0	target	0	440	13.328	13.293	13.363
ProbeTrack7	10	ProbeTrack	1406	SCS215b	733716.413139	733716.421322	8	0.013328	60	10	60-180	60	162	GapExp	0	113	3	6	1	target	1	334	13.328	13.293	13.363
ProbeTrack7	10	ProbeTrack	1406	SCS215b	733716.413139	733716.421395	8	0.013328	60	10	60-180	60	114	GapExp	0	114	3	6	0	distractor	1	560	13.328	13.293	13.363
ProbeTrack7	10	ProbeTrack	1406	SCS215b	733716.413139	733716.421464	8	0.013328	60	10	60-180	60	72	GapExp	0	115	3	96	0	target	0	360	13.328	13.293	13.363
ProbeTrack7	10	ProbeTrack	1406	SCS215b	733716.413139	733716.421538	8	0.013328	60	10	60-180	60	98	GapExp	0	116	3	0	1	target	1	414	13.328	13.293	13.363
ProbeTrack7	10	ProbeTrack	1406	SCS215b	733716.413139	733716.421601	8	0.013328	60	10	60-180	60	165	GapExp	0	117	3	3	1	distractor	0	520	13.328	13.293	13.363
ProbeTrack7	10	ProbeTrack	1406	SCS215b	733716.413139	733716.421679	8	0.013328	60	10	60-180	60	160	GapExp	0	118	3	96	0	distractor	1	520	13.328	13.293	13.363
ProbeTrack7	10	ProbeTrack	1406	SCS215b	733716.413139	733716.421770	8	0.013328	60	10	60-180	60	136	GapExp	0	119	3	0	0	distractor	1	547	13.328	13.293	13.363
ProbeTrack7	10	ProbeTrack	1406	SCS215b	733716.413139	733716.421842	8	0.013328	60	10	60-180	60	124	GapExp	0	120	3	6	1	target	1	360	13.328	13.293	13.363
ProbeTrack7	10	ProbeTrack	1406	SCS215b	733716.413139	733716.421914	8	0.013328	60	10	60-180	60	116	GapExp	0	121	3	0	1	target	1	334	13.328	13.293	13.363
ProbeTrack7	10	ProbeTrack	1406	SCS215b	733716.413139	733716.421981	8	0.013328	60	10	60-180	60	177	GapExp	0	122	3	96	0	distractor	1	640	13.328	13.290	13.363
ProbeTrack7	10	ProbeTrack	1406	SCS215b	733716.413139	733716.422074	8	0.013328	60	10	60-180	60	91	GapExp	0	123	3	6	0	distractor	1	573	13.328	13.293	13.363
ProbeTrack7	10	ProbeTrack	1406	SCS215b	733716.413139	733716.422140	8	0.013328	60	10	60-180	60	150	GapExp	0	124	3	96	0	distractor	1	667	13.328	13.293	13.363
ProbeTrack7	10	ProbeTrack	1406	SCS215b	733716.413139	733716.422231	8	0.013328	60	10	60-180	60	110	GapExp	0	125	3	96	1	target	1	347	13.328	13.293	13.368
