exp	sub	code	rev	comp	runtime	trialtime	nstim	refreshdur	cuedur	gapdur	gapOnsetRange	durPostProbe	gapOnsetTime	blocktype	prac	trial	ntargets	soa	probeTarget	resp	acc	rt	meanFrameDur	minFrameDur	maxFrameDur
ProbeTrack7	18	ProbeTrack	1406	SCS215a	733718.389121	733718.390322	8	0.013328	60	0	60-180	60	86	NoGap	1	1	4	0	1	target	1	5278	13.328	13.293	13.363
ProbeTrack7	18	ProbeTrack	1406	SCS215a	733718.389121	733718.391000	8	0.013328	60	0	60-180	60	74	NoGap	1	2	4	6	0	distractor	1	2039	13.328	13.293	13.363
ProbeTrack7	18	ProbeTrack	1406	SCS215a	733718.389121	733718.391268	8	0.013328	60	0	60-180	60	168	NoGap	1	3	4	0	0	distractor	1	960	13.328	13.293	13.363
ProbeTrack7	18	ProbeTrack	1406	SCS215a	733718.389121	733718.391477	8	0.013328	60	0	60-180	60	142	NoGap	1	4	4	96	0	distractor	1	1013	13.328	13.293	13.364
ProbeTrack7	18	ProbeTrack	1406	SCS215a	733718.389121	733718.391826	8	0.013328	60	0	60-180	60	179	NoGap	1	5	4	96	0	distractor	1	613	13.328	13.293	13.363
ProbeTrack7	18	ProbeTrack	1406	SCS215a	733718.389121	733718.391961	8	0.013328	60	0	60-180	60	123	NoGap	1	6	4	3	1	distractor	0	747	13.328	13.293	13.363
ProbeTrack7	18	ProbeTrack	1406	SCS215a	733718.389121	733718.392044	8	0.013328	60	0	60-180	60	115	NoGap	1	7	4	0	0	distractor	1	920	13.328	13.293	13.363
ProbeTrack7	18	ProbeTrack	1406	SCS215a	733718.389121	733718.392128	8	0.013328	60	0	60-180	60	168	NoGap	1	8	4	6	1	target	1	893	13.328	13.293	13.363
ProbeTrack7	18	ProbeTrack	1406	SCS215a	733718.389121	733718.392215	8	0.013328	60	0	60-180	60	174	NoGap	1	9	4	3	0	target	0	480	13.328	13.293	13.363
ProbeTrack7	18	ProbeTrack	1406	SCS215a	733718.389121	733718.392300	8	0.013328	60	0	60-180	60	158	NoGap	1	10	4	6	0	distractor	1	960	13.328	13.293	13.363
ProbeTrack7	18	ProbeTrack	1406	SCS215a	733718.389121	733718.392389	8	0.013328	60	0	60-180	60	180	NoGap	1	11	4	3	1	target	1	693	13.328	13.293	13.363
ProbeTrack7	18	ProbeTrack	1406	SCS215a	733718.389121	733718.392474	8	0.013328	60	0	60-180	60	113	NoGap	1	12	4	0	1	distractor	0	827	13.328	13.291	13.363
ProbeTrack7	18	ProbeTrack	1406	SCS215a	733718.389121	733718.392552	8	0.013328	60	0	60-180	60	167	NoGap	1	13	4	0	1	target	1	627	13.328	13.293	13.363
ProbeTrack7	18	ProbeTrack	1406	SCS215a	733718.389121	733718.392633	8	0.013328	60	0	60-180	60	133	NoGap	1	14	4	3	0	distractor	1	840	13.328	13.289	13.367
ProbeTrack7	18	ProbeTrack	1406	SCS215a	733718.389121	733718.392723	8	0.013328	60	0	60-180	60	149	NoGap	1	15	4	0	1	target	1	760	13.328	13.290	13.366
ProbeTrack7	18	ProbeTrack	1406	SCS215a	733718.389121	733718.392803	8	0.013328	60	0	60-180	60	132	NoGap	1	16	4	96	0	distractor	1	680	13.328	13.293	13.363
ProbeTrack7	18	ProbeTrack	1406	SCS215a	733718.389121	733718.392895	8	0.013328	60	0	60-180	60	114	NoGap	1	17	4	96	1	target	1	653	13.328	13.293	13.363
ProbeTrack7	18	ProbeTrack	1406	SCS215a	733718.389121	733718.392981	8	0.013328	60	0	60-180	60	95	NoGap	1	18	4	6	1	target	1	733	13.328	13.089	13.568
ProbeTrack7	18	ProbeTrack	1406	SCS215a	733718.389121	733718.393052	8	0.013328	60	0	60-180	60	106	NoGap	1	19	4	6	0	distractor	1	760	13.328	13.293	13.363
ProbeTrack7	18	ProbeTrack	1406	SCS215a	733718.389121	733718.393125	8	0.013328	60	0	60-180	60	86	NoGap	1	20	4	3	1	target	1	613	13.328	13.293	13.363
ProbeTrack7	18	ProbeTrack	1406	SCS215a	733718.389121	733718.393201	8	0.013328	60	0	60-180	60	164	NoGap	1	21	4	96	0	distractor	1	893	13.328	13.293	13.363
ProbeTrack7	18	ProbeTrack	1406	SCS215a	733718.389121	733718.393301	8	0.013328	60	0	60-180	60	113	NoGap	1	22	4	6	1	target	1	667	13.328	13.293	13.363
ProbeTrack7	18	ProbeTrack	1406	SCS215a	733718.389121	733718.393375	8	0.013328	60	0	60-180	60	89	NoGap	1	23	4	96	1	target	1	587	13.328	13.293	13.363
ProbeTrack7	18	ProbeTrack	1406	SCS215a	733718.389121	733718.393458	8	0.013328	60	0	60-180	60	102	NoGap	1	24	4	6	0	distractor	1	733	13.328	13.292	13.363
ProbeTrack7	18	ProbeTrack	1406	SCS215a	733718.389121	733718.393532	8	0.013328	60	0	60-180	60	120	NoGap	1	25	4	0	0	distractor	1	840	13.328	13.293	13.363
ProbeTrack7	18	ProbeTrack	1406	SCS215a	733718.389121	733718.393607	8	0.013328	60	0	60-180	60	118	NoGap	1	26	4	3	0	distractor	1	747	13.328	13.293	13.363
ProbeTrack7	18	ProbeTrack	1406	SCS215a	733718.389121	733718.393682	8	0.013328	60	0	60-180	60	160	NoGap	1	27	4	96	0	distractor	1	653	13.328	13.293	13.363
ProbeTrack7	18	ProbeTrack	1406	SCS215a	733718.389121	733718.393779	8	0.013328	60	0	60-180	60	134	NoGap	1	28	4	96	0	distractor	1	613	13.328	13.293	13.363
ProbeTrack7	18	ProbeTrack	1406	SCS215a	733718.389121	733718.393878	8	0.013328	60	0	60-180	60	159	NoGap	1	29	4	0	1	distractor	0	773	13.328	13.293	13.363
ProbeTrack7	18	ProbeTrack	1406	SCS215a	733718.389121	733718.393960	8	0.013328	60	0	60-180	60	70	NoGap	1	30	4	96	1	target	1	693	13.328	13.293	13.364
ProbeTrack7	18	ProbeTrack	1406	SCS215a	733718.389121	733718.394042	8	0.013328	60	0	60-180	60	174	NoGap	1	31	4	6	0	distractor	1	1000	13.328	13.292	13.363
ProbeTrack7	18	ProbeTrack	1406	SCS215a	733718.389121	733718.394131	8	0.013328	60	0	60-180	60	174	NoGap	1	32	4	0	0	distractor	1	760	13.328	13.293	13.363
ProbeTrack7	18	ProbeTrack	1406	SCS215a	733718.389121	733718.394216	8	0.013328	60	0	60-180	60	119	NoGap	1	33	4	96	0	distractor	1	760	13.328	13.289	13.366
ProbeTrack7	18	ProbeTrack	1406	SCS215a	733718.389121	733718.394307	8	0.013328	60	0	60-180	60	88	NoGap	1	34	4	6	1	target	1	707	13.328	13.290	13.363
ProbeTrack7	18	ProbeTrack	1406	SCS215a	733718.389121	733718.394380	8	0.013328	60	0	60-180	60	144	NoGap	1	35	4	0	0	distractor	1	787	13.328	13.293	13.363
ProbeTrack7	18	ProbeTrack	1406	SCS215a	733718.389121	733718.394459	8	0.013328	60	0	60-180	60	174	NoGap	1	36	4	6	0	distractor	1	747	13.328	13.293	13.363
ProbeTrack7	18	ProbeTrack	1406	SCS215a	733718.389121	733718.394544	8	0.013328	60	0	60-180	60	153	NoGap	1	37	4	3	1	target	1	707	13.328	13.293	13.363
ProbeTrack7	18	ProbeTrack	1406	SCS215a	733718.389121	733718.394626	8	0.013328	60	0	60-180	60	113	NoGap	1	38	4	0	0	distractor	1	720	13.328	13.293	13.363
ProbeTrack7	18	ProbeTrack	1406	SCS215a	733718.389121	733718.394701	8	0.013328	60	0	60-180	60	84	NoGap	1	39	4	0	1	target	1	667	13.328	13.293	13.363
ProbeTrack7	18	ProbeTrack	1406	SCS215a	733718.389121	733718.394769	8	0.013328	60	0	60-180	60	128	NoGap	1	40	4	0	0	distractor	1	800	13.328	13.293	13.364
ProbeTrack7	18	ProbeTrack	1406	SCS215a	733718.389121	733718.394848	8	0.013328	60	0	60-180	60	161	NoGap	1	41	4	6	0	distractor	1	587	13.328	13.293	13.363
ProbeTrack7	18	ProbeTrack	1406	SCS215a	733718.389121	733718.394928	8	0.013328	60	0	60-180	60	142	NoGap	1	42	4	3	1	target	1	627	13.328	13.293	13.363
ProbeTrack7	18	ProbeTrack	1406	SCS215a	733718.389121	733718.395007	8	0.013328	60	0	60-180	60	155	NoGap	1	43	4	3	1	target	1	760	13.328	13.293	13.363
ProbeTrack7	18	ProbeTrack	1406	SCS215a	733718.389121	733718.395090	8	0.013328	60	0	60-180	60	80	NoGap	1	44	4	3	0	distractor	1	733	13.328	13.293	13.363
ProbeTrack7	18	ProbeTrack	1406	SCS215a	733718.389121	733718.395161	8	0.013328	60	0	60-180	60	166	NoGap	1	45	4	3	0	distractor	1	693	13.328	13.288	13.363
ProbeTrack7	18	ProbeTrack	1406	SCS215a	733718.389121	733718.395242	8	0.013328	60	0	60-180	60	118	NoGap	1	46	4	96	1	target	1	720	13.328	13.292	13.364
ProbeTrack7	18	ProbeTrack	1406	SCS215a	733718.389121	733718.395332	8	0.013328	60	0	60-180	60	130	NoGap	1	47	4	96	1	target	1	627	13.328	13.292	13.363
ProbeTrack7	18	ProbeTrack	1406	SCS215a	733718.389121	733718.395422	8	0.013328	60	0	60-180	60	128	NoGap	1	48	4	6	1	target	1	613	13.328	13.293	13.363
ProbeTrack7	18	ProbeTrack	1406	SCS215a	733718.389121	733718.395500	8	0.013328	60	0	60-180	60	71	NoGap	1	49	4	3	0	distractor	1	800	13.328	13.293	13.363
ProbeTrack7	18	ProbeTrack	1406	SCS215a	733718.389121	733718.395569	8	0.013328	60	0	60-180	60	142	NoGap	1	50	4	6	1	target	1	573	13.328	13.293	13.363
ProbeTrack7	18	ProbeTrack	1406	SCS215a	733718.396509	733718.396583	8	0.013328	60	10	60-180	60	144	GapPrac	1	1	3	0	1	target	1	2173	13.328	13.293	13.363
ProbeTrack7	18	ProbeTrack	1406	SCS215a	733718.396509	733718.396812	8	0.013328	60	10	60-180	60	120	GapPrac	1	2	3	6	0	distractor	1	867	13.328	13.293	13.363
ProbeTrack7	18	ProbeTrack	1406	SCS215a	733718.396509	733718.396986	8	0.013328	60	10	60-180	60	80	GapPrac	1	3	3	3	0	distractor	1	693	13.328	13.293	13.363
ProbeTrack7	18	ProbeTrack	1406	SCS215a	733718.396509	733718.397211	8	0.013328	60	10	60-180	60	84	GapPrac	1	4	3	0	0	distractor	1	1013	13.328	13.293	13.363
ProbeTrack7	18	ProbeTrack	1406	SCS215a	733718.396509	733718.397285	8	0.013328	60	10	60-180	60	111	GapPrac	1	5	3	6	0	distractor	1	933	13.328	13.293	13.363
ProbeTrack7	18	ProbeTrack	1406	SCS215a	733718.396509	733718.397364	8	0.013328	60	10	60-180	60	125	GapPrac	1	6	3	3	0	distractor	1	613	13.328	13.293	13.363
ProbeTrack7	18	ProbeTrack	1406	SCS215a	733718.396509	733718.397442	8	0.013328	60	10	60-180	60	158	GapPrac	1	7	3	3	1	target	1	947	13.328	13.292	13.363
ProbeTrack7	18	ProbeTrack	1406	SCS215a	733718.396509	733718.397527	8	0.013328	60	10	60-180	60	70	GapPrac	1	8	3	6	1	target	1	694	13.328	13.293	13.363
ProbeTrack7	18	ProbeTrack	1406	SCS215a	733718.396509	733718.397596	8	0.013328	60	10	60-180	60	174	GapPrac	1	9	3	6	1	target	1	680	13.328	13.293	13.363
ProbeTrack7	18	ProbeTrack	1406	SCS215a	733718.396509	733718.397680	8	0.013328	60	10	60-180	60	62	GapPrac	1	10	3	3	0	distractor	1	920	13.328	13.289	13.365
ProbeTrack7	18	ProbeTrack	1406	SCS215a	733718.396509	733718.397750	8	0.013328	60	10	60-180	60	77	GapPrac	1	11	3	96	1	target	1	720	13.328	13.293	13.363
ProbeTrack7	18	ProbeTrack	1406	SCS215a	733718.396509	733718.397868	8	0.013328	60	10	60-180	60	97	GapPrac	1	12	3	0	0	distractor	1	840	13.328	13.292	13.363
ProbeTrack7	18	ProbeTrack	1406	SCS215a	733718.396509	733718.397941	8	0.013328	60	10	60-180	60	100	GapPrac	1	13	3	6	0	target	0	573	13.328	13.292	13.363
ProbeTrack7	18	ProbeTrack	1406	SCS215a	733718.396509	733718.398012	8	0.013328	60	10	60-180	60	61	GapPrac	1	14	3	0	1	target	1	560	13.328	13.289	13.363
ProbeTrack7	18	ProbeTrack	1406	SCS215a	733718.396509	733718.398077	8	0.013328	60	10	60-180	60	176	GapPrac	1	15	3	0	0	target	0	787	13.328	13.292	13.363
ProbeTrack7	18	ProbeTrack	1406	SCS215a	733718.396509	733718.398163	8	0.013328	60	10	60-180	60	117	GapPrac	1	16	3	3	1	target	1	613	13.328	13.293	13.363
ProbeTrack7	18	ProbeTrack	1406	SCS215a	733718.396509	733718.398236	8	0.013328	60	10	60-180	60	127	GapPrac	1	17	3	96	0	distractor	1	0	13.328	13.293	13.363
ProbeTrack7	18	ProbeTrack	1406	SCS215a	733718.396509	733718.398321	8	0.013328	60	10	60-180	60	145	GapPrac	1	18	3	96	1	distractor	0	400	13.328	13.291	13.363
ProbeTrack7	18	ProbeTrack	1406	SCS215a	733718.396509	733718.398413	8	0.013328	60	10	60-180	60	152	GapPrac	1	19	3	0	1	target	1	800	13.328	13.293	13.363
ProbeTrack7	18	ProbeTrack	1406	SCS215a	733718.396509	733718.398494	8	0.013328	60	10	60-180	60	153	GapPrac	1	20	3	96	0	target	0	813	13.328	13.293	13.363
ProbeTrack7	18	ProbeTrack	1406	SCS215a	733718.399874	733718.399905	8	0.013328	60	10	60-180	60	152	GapPrac	1	1	4	3	0	target	0	693	13.328	13.293	13.363
ProbeTrack7	18	ProbeTrack	1406	SCS215a	733718.399874	733718.400206	8	0.013328	60	10	60-180	60	170	GapPrac	1	2	4	6	1	target	1	600	13.328	13.293	13.366
ProbeTrack7	18	ProbeTrack	1406	SCS215a	733718.399874	733718.400289	8	0.013328	60	10	60-180	60	164	GapPrac	1	3	4	96	1	distractor	0	1066	13.328	13.289	13.366
ProbeTrack7	18	ProbeTrack	1406	SCS215a	733718.399874	733718.400391	8	0.013328	60	10	60-180	60	115	GapPrac	1	4	4	0	1	target	1	613	13.328	13.293	13.363
ProbeTrack7	18	ProbeTrack	1406	SCS215a	733718.399874	733718.400463	8	0.013328	60	10	60-180	60	112	GapPrac	1	5	4	6	1	target	1	493	13.328	13.293	13.363
ProbeTrack7	18	ProbeTrack	1406	SCS215a	733718.399874	733718.400539	8	0.013328	60	10	60-180	60	88	GapPrac	1	6	4	96	1	target	1	573	13.328	13.288	13.367
ProbeTrack7	18	ProbeTrack	1406	SCS215a	733718.399874	733718.400621	8	0.013328	60	10	60-180	60	179	GapPrac	1	7	4	6	0	target	0	880	13.328	13.293	13.363
ProbeTrack7	18	ProbeTrack	1406	SCS215a	733718.399874	733718.400707	8	0.013328	60	10	60-180	60	149	GapPrac	1	8	4	3	1	target	1	613	13.328	13.293	13.363
ProbeTrack7	18	ProbeTrack	1406	SCS215a	733718.399874	733718.400785	8	0.013328	60	10	60-180	60	154	GapPrac	1	9	4	0	1	target	1	653	13.328	13.289	13.366
ProbeTrack7	18	ProbeTrack	1406	SCS215a	733718.399874	733718.400864	8	0.013328	60	10	60-180	60	178	GapPrac	1	10	4	0	0	distractor	1	667	13.328	13.292	13.363
ProbeTrack7	18	ProbeTrack	1406	SCS215a	733718.399874	733718.400946	8	0.013328	60	10	60-180	60	68	GapPrac	1	11	4	96	0	distractor	1	707	13.328	13.293	13.363
ProbeTrack7	18	ProbeTrack	1406	SCS215a	733718.399874	733718.401027	8	0.013328	60	10	60-180	60	86	GapPrac	1	12	4	6	1	target	1	613	13.328	13.289	13.363
ProbeTrack7	18	ProbeTrack	1406	SCS215a	733718.399874	733718.401100	8	0.013328	60	10	60-180	60	62	GapPrac	1	13	4	3	1	target	1	893	13.328	13.293	13.363
ProbeTrack7	18	ProbeTrack	1406	SCS215a	733718.399874	733718.401168	8	0.013328	60	10	60-180	60	158	GapPrac	1	14	4	96	1	target	1	827	13.328	13.290	13.366
ProbeTrack7	18	ProbeTrack	1406	SCS215a	733718.399874	733718.401264	8	0.013328	60	10	60-180	60	78	GapPrac	1	15	4	0	0	distractor	1	893	13.328	13.293	13.363
ProbeTrack7	18	ProbeTrack	1406	SCS215a	733718.399874	733718.401335	8	0.013328	60	10	60-180	60	119	GapPrac	1	16	4	96	0	target	0	1120	13.328	13.293	13.363
ProbeTrack7	18	ProbeTrack	1406	SCS215a	733718.399874	733718.401430	8	0.013328	60	10	60-180	60	103	GapPrac	1	17	4	3	0	distractor	1	893	13.328	13.293	13.363
ProbeTrack7	18	ProbeTrack	1406	SCS215a	733718.399874	733718.401504	8	0.013328	60	10	60-180	60	119	GapPrac	1	18	4	6	0	target	0	907	13.328	13.293	13.363
ProbeTrack7	18	ProbeTrack	1406	SCS215a	733718.399874	733718.401581	8	0.013328	60	10	60-180	60	64	GapPrac	1	19	4	3	0	distractor	1	680	13.328	13.293	13.363
ProbeTrack7	18	ProbeTrack	1406	SCS215a	733718.399874	733718.401646	8	0.013328	60	10	60-180	60	120	GapPrac	1	20	4	0	1	distractor	0	587	13.328	13.293	13.363
ProbeTrack7	18	ProbeTrack	1406	SCS215a	733718.402110	733718.402200	8	0.013328	60	10	60-180	60	129	GapExp	1	1	4	3	1	target	1	693	13.328	13.293	13.363
ProbeTrack7	18	ProbeTrack	1406	SCS215a	733718.402110	733718.402792	8	0.013328	60	10	60-180	60	109	GapExp	1	2	4	96	1	target	1	627	13.328	13.290	13.365
ProbeTrack7	18	ProbeTrack	1406	SCS215a	733718.402110	733718.402880	8	0.013328	60	10	60-180	60	90	GapExp	1	3	4	0	0	distractor	1	933	13.328	13.293	13.363
ProbeTrack7	18	ProbeTrack	1406	SCS215a	733718.402110	733718.402952	8	0.013328	60	10	60-180	60	153	GapExp	1	4	4	6	1	distractor	0	800	13.328	13.293	13.363
ProbeTrack7	18	ProbeTrack	1406	SCS215a	733718.402110	733718.403032	8	0.013328	60	10	60-180	60	64	GapExp	1	5	4	6	0	distractor	1	800	13.328	13.293	13.364
ProbeTrack7	18	ProbeTrack	1406	SCS215a	733718.402110	733718.403100	8	0.013328	60	10	60-180	60	73	GapExp	0	6	4	96	1	target	1	547	13.328	13.293	13.366
ProbeTrack7	18	ProbeTrack	1406	SCS215a	733718.402110	733718.403179	8	0.013328	60	10	60-180	60	99	GapExp	0	7	4	96	0	distractor	1	773	13.328	13.293	13.363
ProbeTrack7	18	ProbeTrack	1406	SCS215a	733718.402110	733718.403267	8	0.013328	60	10	60-180	60	167	GapExp	0	8	4	96	0	distractor	1	827	13.328	13.289	13.367
ProbeTrack7	18	ProbeTrack	1406	SCS215a	733718.402110	733718.403365	8	0.013328	60	10	60-180	60	120	GapExp	0	9	4	3	0	distractor	1	907	13.328	13.293	13.363
ProbeTrack7	18	ProbeTrack	1406	SCS215a	733718.402110	733718.403441	8	0.013328	60	10	60-180	60	91	GapExp	0	10	4	96	1	target	1	600	13.328	13.293	13.363
ProbeTrack7	18	ProbeTrack	1406	SCS215a	733718.402110	733718.403527	8	0.013328	60	10	60-180	60	68	GapExp	0	11	4	6	1	target	1	627	13.328	13.293	13.363
ProbeTrack7	18	ProbeTrack	1406	SCS215a	733718.402110	733718.403593	8	0.013328	60	10	60-180	60	102	GapExp	0	12	4	96	1	target	1	480	13.328	13.292	13.363
ProbeTrack7	18	ProbeTrack	1406	SCS215a	733718.402110	733718.403678	8	0.013328	60	10	60-180	60	170	GapExp	0	13	4	0	1	target	1	627	13.328	13.288	13.368
ProbeTrack7	18	ProbeTrack	1406	SCS215a	733718.402110	733718.403757	8	0.013328	60	10	60-180	60	141	GapExp	0	14	4	0	0	target	0	813	13.328	13.293	13.363
ProbeTrack7	18	ProbeTrack	1406	SCS215a	733718.402110	733718.403836	8	0.013328	60	10	60-180	60	72	GapExp	0	15	4	0	0	distractor	1	773	13.328	13.293	13.363
ProbeTrack7	18	ProbeTrack	1406	SCS215a	733718.402110	733718.403901	8	0.013328	60	10	60-180	60	116	GapExp	0	16	4	6	0	distractor	1	640	13.328	13.292	13.363
ProbeTrack7	18	ProbeTrack	1406	SCS215a	733718.402110	733718.403975	8	0.013328	60	10	60-180	60	159	GapExp	0	17	4	96	1	target	1	640	13.328	13.292	13.366
ProbeTrack7	18	ProbeTrack	1406	SCS215a	733718.402110	733718.404070	8	0.013328	60	10	60-180	60	142	GapExp	0	18	4	0	1	target	1	813	13.328	13.293	13.363
ProbeTrack7	18	ProbeTrack	1406	SCS215a	733718.402110	733718.404148	8	0.013328	60	10	60-180	60	101	GapExp	0	19	4	6	0	distractor	1	773	13.328	13.293	13.363
ProbeTrack7	18	ProbeTrack	1406	SCS215a	733718.402110	733718.404220	8	0.013328	60	10	60-180	60	129	GapExp	0	20	4	0	0	distractor	1	907	13.328	13.290	13.366
ProbeTrack7	18	ProbeTrack	1406	SCS215a	733718.402110	733718.404296	8	0.013328	60	10	60-180	60	134	GapExp	0	21	4	3	0	target	0	867	13.328	13.293	13.363
ProbeTrack7	18	ProbeTrack	1406	SCS215a	733718.402110	733718.404375	8	0.013328	60	10	60-180	60	175	GapExp	0	22	4	0	1	target	1	733	13.328	13.291	13.363
ProbeTrack7	18	ProbeTrack	1406	SCS215a	733718.402110	733718.404459	8	0.013328	60	10	60-180	60	177	GapExp	0	23	4	3	1	distractor	0	1106	13.328	13.293	13.363
ProbeTrack7	18	ProbeTrack	1406	SCS215a	733718.402110	733718.404546	8	0.013328	60	10	60-180	60	61	GapExp	0	24	4	6	1	target	1	547	13.328	13.293	13.363
ProbeTrack7	18	ProbeTrack	1406	SCS215a	733718.402110	733718.404609	8	0.013328	60	10	60-180	60	75	GapExp	0	25	4	6	1	target	1	560	13.328	13.293	13.363
ProbeTrack7	18	ProbeTrack	1406	SCS215a	733718.402110	733718.404676	8	0.013328	60	10	60-180	60	133	GapExp	0	26	4	0	0	distractor	1	853	13.328	13.293	13.363
ProbeTrack7	18	ProbeTrack	1406	SCS215a	733718.402110	733718.404753	8	0.013328	60	10	60-180	60	160	GapExp	0	27	4	3	1	target	1	467	13.328	13.293	13.363
ProbeTrack7	18	ProbeTrack	1406	SCS215a	733718.402110	733718.404830	8	0.013328	60	10	60-180	60	180	GapExp	0	28	4	3	0	distractor	1	933	13.328	13.292	13.364
ProbeTrack7	18	ProbeTrack	1406	SCS215a	733718.402110	733718.404915	8	0.013328	60	10	60-180	60	166	GapExp	0	29	4	96	1	target	1	627	13.328	13.293	13.363
ProbeTrack7	18	ProbeTrack	1406	SCS215a	733718.402110	733718.405009	8	0.013328	60	10	60-180	60	85	GapExp	0	30	4	96	1	target	1	627	13.328	13.293	13.363
ProbeTrack7	18	ProbeTrack	1406	SCS215a	733718.402110	733718.405091	8	0.013328	60	10	60-180	60	166	GapExp	0	31	4	6	0	distractor	1	680	13.328	13.293	13.363
ProbeTrack7	18	ProbeTrack	1406	SCS215a	733718.402110	733718.405172	8	0.013328	60	10	60-180	60	163	GapExp	0	32	4	3	0	distractor	1	707	13.328	13.289	13.366
ProbeTrack7	18	ProbeTrack	1406	SCS215a	733718.402110	733718.405254	8	0.013328	60	10	60-180	60	156	GapExp	0	33	4	96	0	distractor	1	680	13.328	13.289	13.363
ProbeTrack7	18	ProbeTrack	1406	SCS215a	733718.402110	733718.405348	8	0.013328	60	10	60-180	60	63	GapExp	0	34	4	3	1	target	1	613	13.328	13.293	13.363
ProbeTrack7	18	ProbeTrack	1406	SCS215a	733718.402110	733718.405412	8	0.013328	60	10	60-180	60	175	GapExp	0	35	4	3	1	target	1	733	13.328	13.293	13.363
ProbeTrack7	18	ProbeTrack	1406	SCS215a	733718.402110	733718.405727	8	0.013328	60	10	60-180	60	173	GapExp	0	36	4	6	1	target	1	627	13.328	13.293	13.363
ProbeTrack7	18	ProbeTrack	1406	SCS215a	733718.402110	733718.405810	8	0.013328	60	10	60-180	60	105	GapExp	0	37	4	6	1	target	1	520	13.328	13.293	13.363
ProbeTrack7	18	ProbeTrack	1406	SCS215a	733718.402110	733718.405878	8	0.013328	60	10	60-180	60	121	GapExp	0	38	4	0	0	distractor	1	613	13.328	13.293	13.365
ProbeTrack7	18	ProbeTrack	1406	SCS215a	733718.402110	733718.405950	8	0.013328	60	10	60-180	60	146	GapExp	0	39	4	3	1	target	1	533	13.328	13.293	13.363
ProbeTrack7	18	ProbeTrack	1406	SCS215a	733718.402110	733718.406025	8	0.013328	60	10	60-180	60	87	GapExp	0	40	4	6	0	target	0	573	13.328	13.293	13.363
ProbeTrack7	18	ProbeTrack	1406	SCS215a	733718.402110	733718.406094	8	0.013328	60	10	60-180	60	174	GapExp	0	41	4	96	1	target	1	787	13.328	13.293	13.363
ProbeTrack7	18	ProbeTrack	1406	SCS215a	733718.402110	733718.406191	8	0.013328	60	10	60-180	60	156	GapExp	0	42	4	96	0	distractor	1	773	13.328	13.293	13.367
ProbeTrack7	18	ProbeTrack	1406	SCS215a	733718.402110	733718.406285	8	0.013328	60	10	60-180	60	97	GapExp	0	43	4	3	0	target	0	893	13.328	13.293	13.363
ProbeTrack7	18	ProbeTrack	1406	SCS215a	733718.402110	733718.406369	8	0.013328	60	10	60-180	60	165	GapExp	0	44	4	3	1	target	1	867	13.328	13.293	13.363
ProbeTrack7	18	ProbeTrack	1406	SCS215a	733718.402110	733718.406450	8	0.013328	60	10	60-180	60	127	GapExp	0	45	4	96	0	target	0	840	13.328	13.293	13.363
ProbeTrack7	18	ProbeTrack	1406	SCS215a	733718.402110	733718.406545	8	0.013328	60	10	60-180	60	67	GapExp	0	46	4	6	1	target	1	627	13.328	13.293	13.363
ProbeTrack7	18	ProbeTrack	1406	SCS215a	733718.402110	733718.406612	8	0.013328	60	10	60-180	60	168	GapExp	0	47	4	0	1	target	1	627	13.328	13.293	13.363
ProbeTrack7	18	ProbeTrack	1406	SCS215a	733718.402110	733718.406690	8	0.013328	60	10	60-180	60	80	GapExp	0	48	4	96	1	target	1	733	13.328	13.293	13.363
ProbeTrack7	18	ProbeTrack	1406	SCS215a	733718.402110	733718.406780	8	0.013328	60	10	60-180	60	165	GapExp	0	49	4	3	0	distractor	1	853	13.328	13.293	13.363
ProbeTrack7	18	ProbeTrack	1406	SCS215a	733718.402110	733718.406866	8	0.013328	60	10	60-180	60	90	GapExp	0	50	4	3	1	target	1	733	13.328	13.290	13.363
ProbeTrack7	18	ProbeTrack	1406	SCS215a	733718.402110	733718.406935	8	0.013328	60	10	60-180	60	170	GapExp	0	51	4	3	0	target	0	1173	13.328	13.293	13.363
ProbeTrack7	18	ProbeTrack	1406	SCS215a	733718.402110	733718.407024	8	0.013328	60	10	60-180	60	79	GapExp	0	52	4	96	0	target	0	787	13.328	13.293	13.363
ProbeTrack7	18	ProbeTrack	1406	SCS215a	733718.402110	733718.407135	8	0.013328	60	10	60-180	60	144	GapExp	0	53	4	96	0	distractor	1	493	13.328	13.293	13.363
ProbeTrack7	18	ProbeTrack	1406	SCS215a	733718.402110	733718.407223	8	0.013328	60	10	60-180	60	175	GapExp	0	54	4	6	0	distractor	1	693	13.328	13.293	13.363
ProbeTrack7	18	ProbeTrack	1406	SCS215a	733718.402110	733718.407306	8	0.013328	60	10	60-180	60	61	GapExp	0	55	4	0	1	target	1	613	13.328	13.293	13.363
ProbeTrack7	18	ProbeTrack	1406	SCS215a	733718.402110	733718.407367	8	0.013328	60	10	60-180	60	177	GapExp	0	56	4	6	1	target	1	653	13.328	13.293	13.363
ProbeTrack7	18	ProbeTrack	1406	SCS215a	733718.402110	733718.407448	8	0.013328	60	10	60-180	60	76	GapExp	0	57	4	96	0	target	0	640	13.328	13.293	13.363
ProbeTrack7	18	ProbeTrack	1406	SCS215a	733718.402110	733718.407528	8	0.013328	60	10	60-180	60	131	GapExp	0	58	4	3	1	distractor	0	893	13.328	13.293	13.365
ProbeTrack7	18	ProbeTrack	1406	SCS215a	733718.402110	733718.407622	8	0.013328	60	10	60-180	60	87	GapExp	0	59	4	6	0	target	0	880	13.328	13.293	13.363
ProbeTrack7	18	ProbeTrack	1406	SCS215a	733718.402110	733718.407694	8	0.013328	60	10	60-180	60	65	GapExp	0	60	4	96	0	target	0	853	13.328	13.293	13.364
ProbeTrack7	18	ProbeTrack	1406	SCS215a	733718.402110	733718.407776	8	0.013328	60	10	60-180	60	97	GapExp	0	61	4	96	1	target	1	667	13.328	13.293	13.363
ProbeTrack7	18	ProbeTrack	1406	SCS215a	733718.402110	733718.408005	8	0.013328	60	10	60-180	60	151	GapExp	0	62	4	0	0	distractor	1	880	13.328	13.293	13.363
ProbeTrack7	18	ProbeTrack	1406	SCS215a	733718.402110	733718.408085	8	0.013328	60	10	60-180	60	70	GapExp	0	63	4	0	1	target	1	613	13.328	13.291	13.363
ProbeTrack7	18	ProbeTrack	1406	SCS215a	733718.402110	733718.408148	8	0.013328	60	10	60-180	60	150	GapExp	0	64	4	96	1	target	1	587	13.328	13.291	13.365
ProbeTrack7	18	ProbeTrack	1406	SCS215a	733718.402110	733718.408239	8	0.013328	60	10	60-180	60	133	GapExp	0	65	4	6	0	distractor	1	720	13.328	13.293	13.363
ProbeTrack7	18	ProbeTrack	1406	SCS215a	733718.402110	733718.408315	8	0.013328	60	10	60-180	60	61	GapExp	0	66	4	6	0	target	0	693	13.328	13.293	13.363
ProbeTrack7	18	ProbeTrack	1406	SCS215a	733718.402110	733718.408380	8	0.013328	60	10	60-180	60	171	GapExp	0	67	4	0	0	distractor	1	800	13.328	13.293	13.367
ProbeTrack7	18	ProbeTrack	1406	SCS215a	733718.402110	733718.408464	8	0.013328	60	10	60-180	60	131	GapExp	0	68	4	96	0	distractor	1	627	13.328	13.289	13.363
ProbeTrack7	18	ProbeTrack	1406	SCS215a	733718.402110	733718.408553	8	0.013328	60	10	60-180	60	76	GapExp	0	69	4	6	0	distractor	1	840	13.328	13.293	13.363
ProbeTrack7	18	ProbeTrack	1406	SCS215a	733718.402110	733718.408640	8	0.013328	60	10	60-180	60	152	GapExp	0	70	4	3	1	target	1	733	13.328	13.293	13.365
ProbeTrack7	18	ProbeTrack	1406	SCS215a	733718.402110	733718.408717	8	0.013328	60	10	60-180	60	178	GapExp	0	71	4	96	0	distractor	1	733	13.328	13.293	13.362
ProbeTrack7	18	ProbeTrack	1406	SCS215a	733718.402110	733718.408815	8	0.013328	60	10	60-180	60	153	GapExp	0	72	4	0	0	target	0	813	13.328	13.293	13.363
ProbeTrack7	18	ProbeTrack	1406	SCS215a	733718.402110	733718.408895	8	0.013328	60	10	60-180	60	141	GapExp	0	73	4	0	1	target	1	653	13.328	13.293	13.367
ProbeTrack7	18	ProbeTrack	1406	SCS215a	733718.402110	733718.408974	8	0.013328	60	10	60-180	60	84	GapExp	0	74	4	6	0	distractor	1	720	13.328	13.292	13.363
ProbeTrack7	18	ProbeTrack	1406	SCS215a	733718.402110	733718.409042	8	0.013328	60	10	60-180	60	65	GapExp	0	75	4	0	1	target	1	667	13.328	13.293	13.363
ProbeTrack7	18	ProbeTrack	1406	SCS215a	733718.402110	733718.409117	8	0.013328	60	10	60-180	60	105	GapExp	0	76	4	96	0	distractor	1	693	13.328	13.293	13.363
ProbeTrack7	18	ProbeTrack	1406	SCS215a	733718.402110	733718.409212	8	0.013328	60	10	60-180	60	88	GapExp	0	77	4	0	1	target	1	587	13.328	13.293	13.363
ProbeTrack7	18	ProbeTrack	1406	SCS215a	733718.402110	733718.409278	8	0.013328	60	10	60-180	60	168	GapExp	0	78	4	6	1	target	1	640	13.328	13.293	13.363
ProbeTrack7	18	ProbeTrack	1406	SCS215a	733718.402110	733718.409357	8	0.013328	60	10	60-180	60	99	GapExp	0	79	4	6	1	target	1	680	13.328	13.292	13.363
ProbeTrack7	18	ProbeTrack	1406	SCS215a	733718.402110	733718.409427	8	0.013328	60	10	60-180	60	166	GapExp	0	80	4	0	0	distractor	1	747	13.328	13.293	13.363
ProbeTrack7	18	ProbeTrack	1406	SCS215a	733718.402110	733718.409508	8	0.013328	60	10	60-180	60	70	GapExp	0	81	4	3	1	target	1	600	13.328	13.293	13.363
ProbeTrack7	18	ProbeTrack	1406	SCS215a	733718.402110	733718.409571	8	0.013328	60	10	60-180	60	120	GapExp	0	82	4	0	1	target	1	587	13.328	13.290	13.365
ProbeTrack7	18	ProbeTrack	1406	SCS215a	733718.402110	733718.409642	8	0.013328	60	10	60-180	60	119	GapExp	0	83	4	96	0	distractor	1	1013	13.328	13.293	13.363
ProbeTrack7	18	ProbeTrack	1406	SCS215a	733718.402110	733718.409738	8	0.013328	60	10	60-180	60	91	GapExp	0	84	4	3	0	target	0	1106	13.328	13.293	13.363
ProbeTrack7	18	ProbeTrack	1406	SCS215a	733718.402110	733718.409810	8	0.013328	60	10	60-180	60	153	GapExp	0	85	4	3	1	target	1	653	13.328	13.293	13.363
ProbeTrack7	18	ProbeTrack	1406	SCS215a	733718.402110	733718.409888	8	0.013328	60	10	60-180	60	160	GapExp	0	86	4	6	0	target	0	840	13.328	13.293	13.363
ProbeTrack7	18	ProbeTrack	1406	SCS215a	733718.402110	733718.409969	8	0.013328	60	10	60-180	60	143	GapExp	0	87	4	6	1	target	1	587	13.328	13.290	13.363
ProbeTrack7	18	ProbeTrack	1406	SCS215a	733718.402110	733718.410043	8	0.013328	60	10	60-180	60	153	GapExp	0	88	4	0	0	target	0	840	13.328	13.293	13.366
ProbeTrack7	18	ProbeTrack	1406	SCS215a	733718.402110	733718.410122	8	0.013328	60	10	60-180	60	97	GapExp	0	89	4	0	1	target	1	600	13.328	13.293	13.363
ProbeTrack7	18	ProbeTrack	1406	SCS215a	733718.402110	733718.410189	8	0.013328	60	10	60-180	60	123	GapExp	0	90	4	6	1	target	1	680	13.328	13.293	13.363
ProbeTrack7	18	ProbeTrack	1406	SCS215a	733718.402110	733718.410263	8	0.013328	60	10	60-180	60	99	GapExp	0	91	4	3	0	distractor	1	760	13.328	13.293	13.363
ProbeTrack7	18	ProbeTrack	1406	SCS215a	733718.402110	733718.410338	8	0.013328	60	10	60-180	60	141	GapExp	0	92	4	6	1	target	1	600	13.328	13.291	13.364
ProbeTrack7	18	ProbeTrack	1406	SCS215a	733718.402110	733718.410413	8	0.013328	60	10	60-180	60	145	GapExp	0	93	4	6	0	target	0	773	13.328	13.293	13.363
ProbeTrack7	18	ProbeTrack	1406	SCS215a	733718.402110	733718.410490	8	0.013328	60	10	60-180	60	145	GapExp	0	94	4	96	1	target	1	733	13.328	13.293	13.363
ProbeTrack7	18	ProbeTrack	1406	SCS215a	733718.402110	733718.410581	8	0.013328	60	10	60-180	60	106	GapExp	0	95	4	6	1	target	1	600	13.328	13.293	13.363
ProbeTrack7	18	ProbeTrack	1406	SCS215a	733718.402110	733718.410654	8	0.013328	60	10	60-180	60	135	GapExp	0	96	4	0	0	distractor	1	853	13.328	13.293	13.363
ProbeTrack7	18	ProbeTrack	1406	SCS215a	733718.402110	733718.410730	8	0.013328	60	10	60-180	60	94	GapExp	0	97	4	96	1	target	1	640	13.328	13.293	13.363
ProbeTrack7	18	ProbeTrack	1406	SCS215a	733718.402110	733718.410822	8	0.013328	60	10	60-180	60	85	GapExp	0	98	4	3	1	target	1	507	13.328	13.293	13.363
ProbeTrack7	18	ProbeTrack	1406	SCS215a	733718.402110	733718.410888	8	0.013328	60	10	60-180	60	162	GapExp	0	99	4	6	0	distractor	1	640	13.328	13.293	13.363
ProbeTrack7	18	ProbeTrack	1406	SCS215a	733718.402110	733718.410966	8	0.013328	60	10	60-180	60	179	GapExp	0	100	4	6	1	target	1	973	13.328	13.290	13.367
ProbeTrack7	18	ProbeTrack	1406	SCS215a	733718.402110	733718.411050	8	0.013328	60	10	60-180	60	180	GapExp	0	101	4	3	0	distractor	1	720	13.328	13.293	13.363
ProbeTrack7	18	ProbeTrack	1406	SCS215a	733718.402110	733718.411133	8	0.013328	60	10	60-180	60	138	GapExp	0	102	4	6	1	distractor	0	1200	13.328	13.293	13.364
ProbeTrack7	18	ProbeTrack	1406	SCS215a	733718.402110	733718.411215	8	0.013328	60	10	60-180	60	122	GapExp	0	103	4	6	0	distractor	1	613	13.328	13.292	13.366
ProbeTrack7	18	ProbeTrack	1406	SCS215a	733718.402110	733718.411288	8	0.013328	60	10	60-180	60	137	GapExp	0	104	4	96	1	target	1	547	13.328	13.293	13.363
ProbeTrack7	18	ProbeTrack	1406	SCS215a	733718.402110	733718.411378	8	0.013328	60	10	60-180	60	144	GapExp	0	105	4	3	0	target	0	760	13.328	13.293	13.366
ProbeTrack7	18	ProbeTrack	1406	SCS215a	733718.402110	733718.411454	8	0.013328	60	10	60-180	60	100	GapExp	0	106	4	3	1	target	1	600	13.328	13.293	13.363
ProbeTrack7	18	ProbeTrack	1406	SCS215a	733718.402110	733718.411523	8	0.013328	60	10	60-180	60	131	GapExp	0	107	4	3	1	target	1	653	13.328	13.292	13.364
ProbeTrack7	18	ProbeTrack	1406	SCS215a	733718.402110	733718.411598	8	0.013328	60	10	60-180	60	64	GapExp	0	108	4	3	0	distractor	1	627	13.328	13.293	13.367
ProbeTrack7	18	ProbeTrack	1406	SCS215a	733718.402110	733718.411660	8	0.013328	60	10	60-180	60	93	GapExp	0	109	4	6	0	distractor	1	840	13.328	13.293	13.363
ProbeTrack7	18	ProbeTrack	1406	SCS215a	733718.402110	733718.411731	8	0.013328	60	10	60-180	60	171	GapExp	0	110	4	96	1	target	1	600	13.328	13.293	13.363
ProbeTrack7	18	ProbeTrack	1406	SCS215a	733718.402110	733718.411824	8	0.013328	60	10	60-180	60	132	GapExp	0	111	4	0	0	target	0	573	13.328	13.293	13.363
ProbeTrack7	18	ProbeTrack	1406	SCS215a	733718.402110	733718.411910	8	0.013328	60	10	60-180	60	97	GapExp	0	112	4	0	0	distractor	1	707	13.328	13.293	13.363
ProbeTrack7	18	ProbeTrack	1406	SCS215a	733718.402110	733718.411978	8	0.013328	60	10	60-180	60	157	GapExp	0	113	4	0	1	target	1	667	13.328	13.292	13.363
ProbeTrack7	18	ProbeTrack	1406	SCS215a	733718.402110	733718.412078	8	0.013328	60	10	60-180	60	87	GapExp	0	114	4	96	0	distractor	1	693	13.328	13.273	13.381
ProbeTrack7	18	ProbeTrack	1406	SCS215a	733718.402110	733718.412161	8	0.013328	60	10	60-180	60	83	GapExp	0	115	4	3	0	distractor	1	747	13.328	13.292	13.363
ProbeTrack7	18	ProbeTrack	1406	SCS215a	733718.402110	733718.412228	8	0.013328	60	10	60-180	60	63	GapExp	0	116	4	3	0	target	0	547	13.328	13.293	13.363
ProbeTrack7	18	ProbeTrack	1406	SCS215a	733718.402110	733718.412291	8	0.013328	60	10	60-180	60	67	GapExp	0	117	4	96	0	distractor	1	720	13.328	13.293	13.363
ProbeTrack7	18	ProbeTrack	1406	SCS215a	733718.402110	733718.412372	8	0.013328	60	10	60-180	60	166	GapExp	0	118	4	3	0	target	0	627	13.328	13.290	13.364
ProbeTrack7	18	ProbeTrack	1406	SCS215a	733718.402110	733718.412451	8	0.013328	60	10	60-180	60	98	GapExp	0	119	4	3	1	target	1	493	13.328	13.292	13.363
ProbeTrack7	18	ProbeTrack	1406	SCS215a	733718.402110	733718.412519	8	0.013328	60	10	60-180	60	113	GapExp	0	120	4	96	1	target	1	640	13.328	13.293	13.364
ProbeTrack7	18	ProbeTrack	1406	SCS215a	733718.402110	733718.412605	8	0.013328	60	10	60-180	60	128	GapExp	0	121	4	0	0	distractor	1	667	13.328	13.293	13.363
ProbeTrack7	18	ProbeTrack	1406	SCS215a	733718.402110	733718.412678	8	0.013328	60	10	60-180	60	64	GapExp	0	122	4	0	1	target	1	600	13.328	13.293	13.363
ProbeTrack7	18	ProbeTrack	1406	SCS215a	733718.402110	733718.412739	8	0.013328	60	10	60-180	60	71	GapExp	0	123	4	0	0	distractor	1	640	13.328	13.293	13.363
ProbeTrack7	18	ProbeTrack	1406	SCS215a	733718.402110	733718.412803	8	0.013328	60	10	60-180	60	137	GapExp	0	124	4	0	1	target	1	573	13.328	13.293	13.366
ProbeTrack7	18	ProbeTrack	1406	SCS215a	733718.402110	733718.412876	8	0.013328	60	10	60-180	60	130	GapExp	0	125	4	0	1	distractor	0	667	13.328	13.293	13.363
ProbeTrack7	18	ProbeTrack	1406	SCS215a	733718.415369	733718.415419	8	0.013328	60	10	60-180	60	125	GapExp	1	1	3	0	0	distractor	1	680	13.328	13.293	13.363
ProbeTrack7	18	ProbeTrack	1406	SCS215a	733718.415369	733718.416064	8	0.013328	60	10	60-180	60	104	GapExp	1	2	3	6	0	distractor	1	733	13.328	13.293	13.368
ProbeTrack7	18	ProbeTrack	1406	SCS215a	733718.415369	733718.416137	8	0.013328	60	10	60-180	60	98	GapExp	1	3	3	96	0	distractor	1	680	13.328	13.293	13.363
ProbeTrack7	18	ProbeTrack	1406	SCS215a	733718.415369	733718.416221	8	0.013328	60	10	60-180	60	92	GapExp	1	4	3	3	1	target	1	693	13.328	13.293	13.363
ProbeTrack7	18	ProbeTrack	1406	SCS215a	733718.415369	733718.416290	8	0.013328	60	10	60-180	60	93	GapExp	1	5	3	0	1	target	1	653	13.328	13.293	13.364
ProbeTrack7	18	ProbeTrack	1406	SCS215a	733718.415369	733718.416362	8	0.013328	60	10	60-180	60	115	GapExp	0	6	3	6	1	target	1	693	13.328	13.290	13.364
ProbeTrack7	18	ProbeTrack	1406	SCS215a	733718.415369	733718.416435	8	0.013328	60	10	60-180	60	179	GapExp	0	7	3	3	0	distractor	1	760	13.328	13.289	13.363
ProbeTrack7	18	ProbeTrack	1406	SCS215a	733718.415369	733718.416519	8	0.013328	60	10	60-180	60	155	GapExp	0	8	3	6	1	target	1	480	13.328	13.293	13.363
ProbeTrack7	18	ProbeTrack	1406	SCS215a	733718.415369	733718.416597	8	0.013328	60	10	60-180	60	104	GapExp	0	9	3	96	0	distractor	1	720	13.328	13.293	13.363
ProbeTrack7	18	ProbeTrack	1406	SCS215a	733718.415369	733718.416683	8	0.013328	60	10	60-180	60	147	GapExp	0	10	3	0	0	target	0	827	13.328	13.293	13.363
ProbeTrack7	18	ProbeTrack	1406	SCS215a	733718.415369	733718.416761	8	0.013328	60	10	60-180	60	75	GapExp	0	11	3	3	1	target	1	573	13.328	13.293	13.364
ProbeTrack7	18	ProbeTrack	1406	SCS215a	733718.415369	733718.416827	8	0.013328	60	10	60-180	60	97	GapExp	0	12	3	0	1	target	1	720	13.328	13.290	13.366
ProbeTrack7	18	ProbeTrack	1406	SCS215a	733718.415369	733718.416896	8	0.013328	60	10	60-180	60	74	GapExp	0	13	3	96	1	distractor	0	707	13.328	13.293	13.363
ProbeTrack7	18	ProbeTrack	1406	SCS215a	733718.415369	733718.416975	8	0.013328	60	10	60-180	60	135	GapExp	0	14	3	6	1	target	1	533	13.328	13.293	13.363
ProbeTrack7	18	ProbeTrack	1406	SCS215a	733718.415369	733718.417050	8	0.013328	60	10	60-180	60	128	GapExp	0	15	3	0	1	target	1	547	13.328	13.293	13.363
ProbeTrack7	18	ProbeTrack	1406	SCS215a	733718.415369	733718.417124	8	0.013328	60	10	60-180	60	85	GapExp	0	16	3	96	0	distractor	1	720	13.328	13.292	13.363
ProbeTrack7	18	ProbeTrack	1406	SCS215a	733718.415369	733718.417206	8	0.013328	60	10	60-180	60	97	GapExp	0	17	3	0	1	target	1	680	13.328	13.289	13.364
ProbeTrack7	18	ProbeTrack	1406	SCS215a	733718.415369	733718.417274	8	0.013328	60	10	60-180	60	148	GapExp	0	18	3	6	1	target	1	693	13.328	13.291	13.363
ProbeTrack7	18	ProbeTrack	1406	SCS215a	733718.415369	733718.417352	8	0.013328	60	10	60-180	60	79	GapExp	0	19	3	96	0	distractor	1	733	13.328	13.293	13.363
ProbeTrack7	18	ProbeTrack	1406	SCS215a	733718.415369	733718.417433	8	0.013328	60	10	60-180	60	177	GapExp	0	20	3	96	0	distractor	1	893	13.328	13.291	13.366
ProbeTrack7	18	ProbeTrack	1406	SCS215a	733718.415369	733718.417531	8	0.013328	60	10	60-180	60	89	GapExp	0	21	3	6	1	target	1	653	13.328	13.287	13.369
ProbeTrack7	18	ProbeTrack	1406	SCS215a	733718.415369	733718.417599	8	0.013328	60	10	60-180	60	83	GapExp	0	22	3	96	0	distractor	1	680	13.328	13.289	13.368
ProbeTrack7	18	ProbeTrack	1406	SCS215a	733718.415369	733718.417681	8	0.013328	60	10	60-180	60	69	GapExp	0	23	3	0	0	target	0	587	13.328	13.293	13.363
ProbeTrack7	18	ProbeTrack	1406	SCS215a	733718.415369	733718.417745	8	0.013328	60	10	60-180	60	95	GapExp	0	24	3	6	0	distractor	1	640	13.328	13.293	13.366
ProbeTrack7	18	ProbeTrack	1406	SCS215a	733718.415369	733718.417815	8	0.013328	60	10	60-180	60	113	GapExp	0	25	3	6	1	target	1	547	13.328	13.293	13.363
ProbeTrack7	18	ProbeTrack	1406	SCS215a	733718.415369	733718.417889	8	0.013328	60	10	60-180	60	165	GapExp	0	26	3	6	0	target	0	827	13.328	13.293	13.363
ProbeTrack7	18	ProbeTrack	1406	SCS215a	733718.415369	733718.417971	8	0.013328	60	10	60-180	60	177	GapExp	0	27	3	96	0	distractor	1	693	13.328	13.293	13.363
ProbeTrack7	18	ProbeTrack	1406	SCS215a	733718.415369	733718.418067	8	0.013328	60	10	60-180	60	135	GapExp	0	28	3	6	0	target	0	680	13.328	13.292	13.363
ProbeTrack7	18	ProbeTrack	1406	SCS215a	733718.415369	733718.418143	8	0.013328	60	10	60-180	60	144	GapExp	0	29	3	6	0	distractor	1	747	13.328	13.293	13.363
ProbeTrack7	18	ProbeTrack	1406	SCS215a	733718.415369	733718.418220	8	0.013328	60	10	60-180	60	79	GapExp	0	30	3	96	0	distractor	1	693	13.328	13.293	13.363
ProbeTrack7	18	ProbeTrack	1406	SCS215a	733718.415369	733718.418302	8	0.013328	60	10	60-180	60	147	GapExp	0	31	3	3	1	target	1	640	13.328	13.293	13.363
ProbeTrack7	18	ProbeTrack	1406	SCS215a	733718.415369	733718.418381	8	0.013328	60	10	60-180	60	179	GapExp	0	32	3	3	0	target	0	560	13.328	13.293	13.363
ProbeTrack7	18	ProbeTrack	1406	SCS215a	733718.415369	733718.418461	8	0.013328	60	10	60-180	60	61	GapExp	0	33	3	0	0	distractor	1	787	13.328	13.293	13.363
ProbeTrack7	18	ProbeTrack	1406	SCS215a	733718.415369	733718.418526	8	0.013328	60	10	60-180	60	91	GapExp	0	34	3	3	0	distractor	1	720	13.328	13.292	13.363
ProbeTrack7	18	ProbeTrack	1406	SCS215a	733718.415369	733718.418596	8	0.013328	60	10	60-180	60	120	GapExp	0	35	3	3	1	target	1	533	13.328	13.293	13.363
ProbeTrack7	18	ProbeTrack	1406	SCS215a	733718.415369	733718.418666	8	0.013328	60	10	60-180	60	77	GapExp	0	36	3	0	1	target	1	573	13.328	13.293	13.363
ProbeTrack7	18	ProbeTrack	1406	SCS215a	733718.415369	733718.418731	8	0.013328	60	10	60-180	60	180	GapExp	0	37	3	6	1	target	1	547	13.328	13.293	13.363
ProbeTrack7	18	ProbeTrack	1406	SCS215a	733718.415369	733718.418811	8	0.013328	60	10	60-180	60	164	GapExp	0	38	3	96	1	target	1	573	13.328	13.291	13.363
ProbeTrack7	18	ProbeTrack	1406	SCS215a	733718.415369	733718.418944	8	0.013328	60	10	60-180	60	126	GapExp	0	39	3	3	1	target	1	600	13.328	13.293	13.364
ProbeTrack7	18	ProbeTrack	1406	SCS215a	733718.415369	733718.419016	8	0.013328	60	10	60-180	60	150	GapExp	0	40	3	3	1	target	1	480	13.328	13.290	13.365
ProbeTrack7	18	ProbeTrack	1406	SCS215a	733718.415369	733718.419108	8	0.013328	60	10	60-180	60	176	GapExp	0	41	3	3	0	distractor	1	733	13.328	13.293	13.367
ProbeTrack7	18	ProbeTrack	1406	SCS215a	733718.415369	733718.419189	8	0.013328	60	10	60-180	60	92	GapExp	0	42	3	0	0	distractor	1	853	13.328	13.293	13.363
ProbeTrack7	18	ProbeTrack	1406	SCS215a	733718.415369	733718.419264	8	0.013328	60	10	60-180	60	88	GapExp	0	43	3	96	1	target	1	680	13.328	13.293	13.363
ProbeTrack7	18	ProbeTrack	1406	SCS215a	733718.415369	733718.419347	8	0.013328	60	10	60-180	60	146	GapExp	0	44	3	3	0	distractor	1	627	13.328	13.293	13.363
ProbeTrack7	18	ProbeTrack	1406	SCS215a	733718.415369	733718.419422	8	0.013328	60	10	60-180	60	158	GapExp	0	45	3	96	1	target	1	587	13.328	13.293	13.363
ProbeTrack7	18	ProbeTrack	1406	SCS215a	733718.415369	733718.419515	8	0.013328	60	10	60-180	60	137	GapExp	0	46	3	6	0	distractor	1	640	13.328	13.293	13.363
ProbeTrack7	18	ProbeTrack	1406	SCS215a	733718.415369	733718.419590	8	0.013328	60	10	60-180	60	100	GapExp	0	47	3	0	1	target	1	520	13.328	13.293	13.363
ProbeTrack7	18	ProbeTrack	1406	SCS215a	733718.415369	733718.419660	8	0.013328	60	10	60-180	60	173	GapExp	0	48	3	3	1	target	1	787	13.328	13.293	13.363
ProbeTrack7	18	ProbeTrack	1406	SCS215a	733718.415369	733718.419745	8	0.013328	60	10	60-180	60	118	GapExp	0	49	3	6	1	target	1	654	13.328	13.293	13.363
ProbeTrack7	18	ProbeTrack	1406	SCS215a	733718.415369	733718.419817	8	0.013328	60	10	60-180	60	69	GapExp	0	50	3	6	0	distractor	1	547	13.328	13.289	13.366
ProbeTrack7	18	ProbeTrack	1406	SCS215a	733718.415369	733718.419881	8	0.013328	60	10	60-180	60	114	GapExp	0	51	3	96	1	target	1	520	13.328	13.293	13.363
ProbeTrack7	18	ProbeTrack	1406	SCS215a	733718.415369	733718.419965	8	0.013328	60	10	60-180	60	90	GapExp	0	52	3	3	0	distractor	1	627	13.328	13.293	13.363
ProbeTrack7	18	ProbeTrack	1406	SCS215a	733718.415369	733718.420033	8	0.013328	60	10	60-180	60	79	GapExp	0	53	3	0	0	target	0	880	13.328	13.293	13.363
ProbeTrack7	18	ProbeTrack	1406	SCS215a	733718.415369	733718.420101	8	0.013328	60	10	60-180	60	70	GapExp	0	54	3	0	0	target	0	813	13.328	13.293	13.363
ProbeTrack7	18	ProbeTrack	1406	SCS215a	733718.415369	733718.420167	8	0.013328	60	10	60-180	60	125	GapExp	0	55	3	3	0	target	0	827	13.328	13.293	13.363
ProbeTrack7	18	ProbeTrack	1406	SCS215a	733718.415369	733718.420241	8	0.013328	60	10	60-180	60	158	GapExp	0	56	3	6	0	distractor	1	560	13.328	13.293	13.363
ProbeTrack7	18	ProbeTrack	1406	SCS215a	733718.415369	733718.420318	8	0.013328	60	10	60-180	60	156	GapExp	0	57	3	6	0	target	0	827	13.328	13.292	13.363
ProbeTrack7	18	ProbeTrack	1406	SCS215a	733718.415369	733718.420400	8	0.013328	60	10	60-180	60	132	GapExp	0	58	3	96	0	distractor	1	813	13.328	13.293	13.363
ProbeTrack7	18	ProbeTrack	1406	SCS215a	733718.415369	733718.420491	8	0.013328	60	10	60-180	60	95	GapExp	0	59	3	3	0	distractor	1	627	13.328	13.293	13.363
ProbeTrack7	18	ProbeTrack	1406	SCS215a	733718.415369	733718.420564	8	0.013328	60	10	60-180	60	74	GapExp	0	60	3	3	1	target	1	547	13.328	13.293	13.363
ProbeTrack7	18	ProbeTrack	1406	SCS215a	733718.415369	733718.420628	8	0.013328	60	10	60-180	60	114	GapExp	0	61	3	6	0	distractor	1	627	13.328	13.293	13.363
ProbeTrack7	18	ProbeTrack	1406	SCS215a	733718.415369	733718.420699	8	0.013328	60	10	60-180	60	85	GapExp	0	62	3	3	0	distractor	1	720	13.328	13.292	13.363
ProbeTrack7	18	ProbeTrack	1406	SCS215a	733718.415369	733718.420855	8	0.013328	60	10	60-180	60	153	GapExp	0	63	3	96	1	target	1	613	13.328	13.289	13.363
ProbeTrack7	18	ProbeTrack	1406	SCS215a	733718.415369	733718.420947	8	0.013328	60	10	60-180	60	142	GapExp	0	64	3	6	1	target	1	547	13.328	13.293	13.363
ProbeTrack7	18	ProbeTrack	1406	SCS215a	733718.415369	733718.421022	8	0.013328	60	10	60-180	60	70	GapExp	0	65	3	3	1	target	1	453	13.328	13.293	13.363
ProbeTrack7	18	ProbeTrack	1406	SCS215a	733718.415369	733718.421083	8	0.013328	60	10	60-180	60	82	GapExp	0	66	3	6	0	distractor	1	587	13.328	13.292	13.363
ProbeTrack7	18	ProbeTrack	1406	SCS215a	733718.415369	733718.421149	8	0.013328	60	10	60-180	60	113	GapExp	0	67	3	96	1	target	1	547	13.328	13.293	13.363
ProbeTrack7	18	ProbeTrack	1406	SCS215a	733718.415369	733718.421233	8	0.013328	60	10	60-180	60	72	GapExp	0	68	3	0	0	target	0	640	13.328	13.293	13.363
ProbeTrack7	18	ProbeTrack	1406	SCS215a	733718.415369	733718.421297	8	0.013328	60	10	60-180	60	86	GapExp	0	69	3	96	0	distractor	1	694	13.328	13.291	13.363
ProbeTrack7	18	ProbeTrack	1406	SCS215a	733718.415369	733718.421379	8	0.013328	60	10	60-180	60	73	GapExp	0	70	3	3	1	target	1	587	13.328	13.293	13.363
ProbeTrack7	18	ProbeTrack	1406	SCS215a	733718.415369	733718.421443	8	0.013328	60	10	60-180	60	152	GapExp	0	71	3	96	0	target	0	640	13.328	13.291	13.363
ProbeTrack7	18	ProbeTrack	1406	SCS215a	733718.415369	733718.421538	8	0.013328	60	10	60-180	60	159	GapExp	0	72	3	6	1	target	1	640	13.328	13.293	13.363
ProbeTrack7	18	ProbeTrack	1406	SCS215a	733718.415369	733718.421616	8	0.013328	60	10	60-180	60	129	GapExp	0	73	3	6	0	target	0	520	13.328	13.289	13.364
ProbeTrack7	18	ProbeTrack	1406	SCS215a	733718.415369	733718.421688	8	0.013328	60	10	60-180	60	78	GapExp	0	74	3	3	0	target	0	627	13.328	13.293	13.363
ProbeTrack7	18	ProbeTrack	1406	SCS215a	733718.415369	733718.421754	8	0.013328	60	10	60-180	60	149	GapExp	0	75	3	3	1	target	1	627	13.328	13.293	13.363
ProbeTrack7	18	ProbeTrack	1406	SCS215a	733718.415369	733718.421831	8	0.013328	60	10	60-180	60	85	GapExp	0	76	3	96	1	target	1	587	13.328	13.293	13.363
ProbeTrack7	18	ProbeTrack	1406	SCS215a	733718.415369	733718.421986	8	0.013328	60	10	60-180	60	179	GapExp	0	77	3	96	1	target	1	613	13.328	13.293	13.363
ProbeTrack7	18	ProbeTrack	1406	SCS215a	733718.415369	733718.422082	8	0.013328	60	10	60-180	60	89	GapExp	0	78	3	0	1	target	1	627	13.328	13.293	13.363
ProbeTrack7	18	ProbeTrack	1406	SCS215a	733718.415369	733718.422158	8	0.013328	60	10	60-180	60	103	GapExp	0	79	3	6	0	distractor	1	680	13.328	13.293	13.363
ProbeTrack7	18	ProbeTrack	1406	SCS215a	733718.415369	733718.422228	8	0.013328	60	10	60-180	60	168	GapExp	0	80	3	0	1	target	1	613	13.328	13.293	13.363
ProbeTrack7	18	ProbeTrack	1406	SCS215a	733718.415369	733718.422306	8	0.013328	60	10	60-180	60	89	GapExp	0	81	3	96	0	distractor	1	613	13.328	13.293	13.366
ProbeTrack7	18	ProbeTrack	1406	SCS215a	733718.415369	733718.422388	8	0.013328	60	10	60-180	60	93	GapExp	0	82	3	3	0	distractor	1	773	13.328	13.293	13.363
ProbeTrack7	18	ProbeTrack	1406	SCS215a	733718.415369	733718.422456	8	0.013328	60	10	60-180	60	118	GapExp	0	83	3	96	0	distractor	1	667	13.328	13.292	13.363
ProbeTrack7	18	ProbeTrack	1406	SCS215a	733718.415369	733718.422543	8	0.013328	60	10	60-180	60	118	GapExp	0	84	3	96	1	distractor	0	747	13.328	13.293	13.363
ProbeTrack7	18	ProbeTrack	1406	SCS215a	733718.415369	733718.422631	8	0.013328	60	10	60-180	60	170	GapExp	0	85	3	0	0	distractor	1	707	13.328	13.293	13.363
ProbeTrack7	18	ProbeTrack	1406	SCS215a	733718.415369	733718.422712	8	0.013328	60	10	60-180	60	114	GapExp	0	86	3	6	1	target	1	693	13.328	13.293	13.363
ProbeTrack7	18	ProbeTrack	1406	SCS215a	733718.415369	733718.422784	8	0.013328	60	10	60-180	60	176	GapExp	0	87	3	3	1	target	1	480	13.328	13.293	13.363
ProbeTrack7	18	ProbeTrack	1406	SCS215a	733718.415369	733718.422863	8	0.013328	60	10	60-180	60	138	GapExp	0	88	3	6	1	target	1	467	13.328	13.293	13.363
ProbeTrack7	18	ProbeTrack	1406	SCS215a	733718.415369	733718.422935	8	0.013328	60	10	60-180	60	117	GapExp	0	89	3	0	0	distractor	1	467	13.328	13.293	13.363
ProbeTrack7	18	ProbeTrack	1406	SCS215a	733718.415369	733718.423002	8	0.013328	60	10	60-180	60	120	GapExp	0	90	3	0	1	target	1	507	13.328	13.292	13.363
ProbeTrack7	18	ProbeTrack	1406	SCS215a	733718.415369	733718.423071	8	0.013328	60	10	60-180	60	159	GapExp	0	91	3	6	1	target	1	547	13.328	13.293	13.363
ProbeTrack7	18	ProbeTrack	1406	SCS215a	733718.415369	733718.423149	8	0.013328	60	10	60-180	60	156	GapExp	0	92	3	3	0	distractor	1	667	13.328	13.293	13.363
ProbeTrack7	18	ProbeTrack	1406	SCS215a	733718.415369	733718.423226	8	0.013328	60	10	60-180	60	167	GapExp	0	93	3	3	1	distractor	0	880	13.328	13.293	13.363
ProbeTrack7	18	ProbeTrack	1406	SCS215a	733718.415369	733718.423307	8	0.013328	60	10	60-180	60	95	GapExp	0	94	3	96	0	distractor	1	747	13.328	13.293	13.363
ProbeTrack7	18	ProbeTrack	1406	SCS215a	733718.415369	733718.423391	8	0.013328	60	10	60-180	60	129	GapExp	0	95	3	0	0	distractor	1	827	13.328	13.293	13.363
ProbeTrack7	18	ProbeTrack	1406	SCS215a	733718.415369	733718.423465	8	0.013328	60	10	60-180	60	167	GapExp	0	96	3	3	1	target	1	467	13.328	13.293	13.363
ProbeTrack7	18	ProbeTrack	1406	SCS215a	733718.415369	733718.423543	8	0.013328	60	10	60-180	60	81	GapExp	0	97	3	0	1	target	1	520	13.328	13.293	13.363
ProbeTrack7	18	ProbeTrack	1406	SCS215a	733718.415369	733718.423633	8	0.013328	60	10	60-180	60	159	GapExp	0	98	3	6	0	distractor	1	547	13.328	13.292	13.363
ProbeTrack7	18	ProbeTrack	1406	SCS215a	733718.415369	733718.423710	8	0.013328	60	10	60-180	60	139	GapExp	0	99	3	0	1	target	1	627	13.328	13.293	13.363
ProbeTrack7	18	ProbeTrack	1406	SCS215a	733718.415369	733718.423790	8	0.013328	60	10	60-180	60	65	GapExp	0	100	3	0	1	target	1	627	13.328	13.293	13.363
ProbeTrack7	18	ProbeTrack	1406	SCS215a	733718.415369	733718.423853	8	0.013328	60	10	60-180	60	165	GapExp	0	101	3	3	1	target	1	680	13.328	13.293	13.365
ProbeTrack7	18	ProbeTrack	1406	SCS215a	733718.415369	733718.423932	8	0.013328	60	10	60-180	60	131	GapExp	0	102	3	0	0	target	0	693	13.328	13.293	13.363
ProbeTrack7	18	ProbeTrack	1406	SCS215a	733718.415369	733718.424006	8	0.013328	60	10	60-180	60	130	GapExp	0	103	3	0	0	distractor	1	720	13.328	13.293	13.366
ProbeTrack7	18	ProbeTrack	1406	SCS215a	733718.415369	733718.424103	8	0.013328	60	10	60-180	60	175	GapExp	0	104	3	0	1	target	1	693	13.328	13.293	13.363
ProbeTrack7	18	ProbeTrack	1406	SCS215a	733718.415369	733718.424183	8	0.013328	60	10	60-180	60	109	GapExp	0	105	3	96	0	distractor	1	760	13.328	13.293	13.366
ProbeTrack7	18	ProbeTrack	1406	SCS215a	733718.415369	733718.424270	8	0.013328	60	10	60-180	60	167	GapExp	0	106	3	3	0	distractor	1	640	13.328	13.292	13.364
ProbeTrack7	18	ProbeTrack	1406	SCS215a	733718.415369	733718.424349	8	0.013328	60	10	60-180	60	107	GapExp	0	107	3	0	0	distractor	1	640	13.328	13.293	13.363
ProbeTrack7	18	ProbeTrack	1406	SCS215a	733718.415369	733718.424418	8	0.013328	60	10	60-180	60	103	GapExp	0	108	3	0	0	distractor	1	613	13.328	13.293	13.365
ProbeTrack7	18	ProbeTrack	1406	SCS215a	733718.415369	733718.424489	8	0.013328	60	10	60-180	60	81	GapExp	0	109	3	6	0	distractor	1	600	13.328	13.293	13.363
ProbeTrack7	18	ProbeTrack	1406	SCS215a	733718.415369	733718.424574	8	0.013328	60	10	60-180	60	176	GapExp	0	110	3	3	0	distractor	1	680	13.328	13.293	13.363
ProbeTrack7	18	ProbeTrack	1406	SCS215a	733718.415369	733718.424655	8	0.013328	60	10	60-180	60	102	GapExp	0	111	3	3	0	distractor	1	613	13.328	13.290	13.363
ProbeTrack7	18	ProbeTrack	1406	SCS215a	733718.415369	733718.424726	8	0.013328	60	10	60-180	60	139	GapExp	0	112	3	96	0	distractor	1	680	13.328	13.291	13.364
ProbeTrack7	18	ProbeTrack	1406	SCS215a	733718.415369	733718.424816	8	0.013328	60	10	60-180	60	88	GapExp	0	113	3	96	1	target	1	560	13.328	13.293	13.363
ProbeTrack7	18	ProbeTrack	1406	SCS215a	733718.415369	733718.424896	8	0.013328	60	10	60-180	60	86	GapExp	0	114	3	0	1	distractor	0	720	13.328	13.293	13.363
ProbeTrack7	18	ProbeTrack	1406	SCS215a	733718.415369	733718.424963	8	0.013328	60	10	60-180	60	62	GapExp	0	115	3	96	1	target	1	440	13.328	13.293	13.363
ProbeTrack7	18	ProbeTrack	1406	SCS215a	733718.415369	733718.425065	8	0.013328	60	10	60-180	60	126	GapExp	0	116	3	96	1	target	1	467	13.328	13.292	13.364
ProbeTrack7	18	ProbeTrack	1406	SCS215a	733718.415369	733718.425152	8	0.013328	60	10	60-180	60	158	GapExp	0	117	3	3	1	target	1	600	13.328	13.293	13.363
ProbeTrack7	18	ProbeTrack	1406	SCS215a	733718.415369	733718.425286	8	0.013328	60	10	60-180	60	101	GapExp	0	118	3	96	1	target	1	587	13.328	13.293	13.364
ProbeTrack7	18	ProbeTrack	1406	SCS215a	733718.415369	733718.425372	8	0.013328	60	10	60-180	60	107	GapExp	0	119	3	0	0	distractor	1	560	13.328	13.293	13.363
ProbeTrack7	18	ProbeTrack	1406	SCS215a	733718.415369	733718.425440	8	0.013328	60	10	60-180	60	170	GapExp	0	120	3	6	1	target	1	480	13.328	13.293	13.363
ProbeTrack7	18	ProbeTrack	1406	SCS215a	733718.415369	733718.425517	8	0.013328	60	10	60-180	60	95	GapExp	0	121	3	6	1	target	1	480	13.328	13.293	13.364
ProbeTrack7	18	ProbeTrack	1406	SCS215a	733718.415369	733718.425583	8	0.013328	60	10	60-180	60	132	GapExp	0	122	3	96	1	target	1	467	13.328	13.293	13.363
ProbeTrack7	18	ProbeTrack	1406	SCS215a	733718.415369	733718.425669	8	0.013328	60	10	60-180	60	163	GapExp	0	123	3	6	0	target	0	733	13.328	13.293	13.363
ProbeTrack7	18	ProbeTrack	1406	SCS215a	733718.415369	733718.425748	8	0.013328	60	10	60-180	60	157	GapExp	0	124	3	0	1	distractor	0	773	13.328	13.293	13.363
ProbeTrack7	18	ProbeTrack	1406	SCS215a	733718.415369	733718.425847	8	0.013328	60	10	60-180	60	129	GapExp	0	125	3	0	1	target	1	453	13.328	13.293	13.363
