exp	sub	code	rev	comp	runtime	trialtime	nstim	refreshdur	cuedur	gapdur	gapOnsetRange	durPostProbe	gapOnsetTime	blocktype	prac	trial	ntargets	soa	probeTarget	resp	acc	rt	meanFrameDur	minFrameDur	maxFrameDur
ProbeTrack7	2	ProbeTrack	1404	SCS215f	733709.363329	733709.363416	8	0.013328	60	0	60-180	60	138	NoGap	1	1	4	0	0	distractor	1	600	13.328	13.324	13.331
ProbeTrack7	2	ProbeTrack	1404	SCS215f	733709.363329	733709.363495	8	0.013328	60	0	60-180	60	62	NoGap	1	2	4	6	1	distractor	0	627	13.328	13.325	13.330
ProbeTrack7	2	ProbeTrack	1404	SCS215f	733709.363329	733709.363620	8	0.013328	60	0	60-180	60	106	NoGap	1	3	4	96	0	distractor	1	600	13.328	13.326	13.330
ProbeTrack7	2	ProbeTrack	1404	SCS215f	733709.363329	733709.363707	8	0.013328	60	0	60-180	60	141	NoGap	1	4	4	3	0	distractor	1	653	13.328	13.323	13.331
ProbeTrack7	2	ProbeTrack	1404	SCS215f	733709.363329	733709.363780	8	0.013328	60	0	60-180	60	98	NoGap	1	5	4	0	1	distractor	0	573	13.328	13.322	13.333
ProbeTrack7	2	ProbeTrack	1404	SCS215f	733709.363329	733709.363844	8	0.013328	60	0	60-180	60	140	NoGap	1	6	4	0	1	distractor	0	573	13.328	13.324	13.331
ProbeTrack7	2	ProbeTrack	1404	SCS215f	733709.363329	733709.363913	8	0.013328	60	0	60-180	60	150	NoGap	1	7	4	6	0	distractor	1	520	13.328	13.322	13.334
ProbeTrack7	2	ProbeTrack	1404	SCS215f	733709.363329	733709.363979	8	0.013328	60	0	60-180	60	158	NoGap	1	8	4	96	1	target	1	480	13.328	13.322	13.333
ProbeTrack7	2	ProbeTrack	1404	SCS215f	733709.363329	733709.364062	8	0.013328	60	0	60-180	60	125	NoGap	1	9	4	3	1	target	1	547	13.328	13.315	13.342
ProbeTrack7	2	ProbeTrack	1404	SCS215f	733709.363329	733709.364129	8	0.013328	60	0	60-180	60	136	NoGap	1	10	4	6	0	distractor	1	440	13.328	13.324	13.332
ProbeTrack7	2	ProbeTrack	1404	SCS215f	733709.363329	733709.364201	8	0.013328	60	0	60-180	60	169	NoGap	1	11	4	6	0	target	0	467	13.328	13.326	13.330
ProbeTrack7	2	ProbeTrack	1404	SCS215f	733709.363329	733709.364272	8	0.013328	60	0	60-180	60	89	NoGap	1	12	4	0	1	target	1	427	13.328	13.324	13.332
ProbeTrack7	2	ProbeTrack	1404	SCS215f	733709.363329	733709.364323	8	0.013328	60	0	60-180	60	155	NoGap	1	13	4	96	0	distractor	1	520	13.328	13.322	13.333
ProbeTrack7	2	ProbeTrack	1404	SCS215f	733709.363329	733709.364404	8	0.013328	60	0	60-180	60	159	NoGap	1	14	4	96	0	distractor	1	493	13.328	13.322	13.334
ProbeTrack7	2	ProbeTrack	1404	SCS215f	733709.363329	733709.364511	8	0.013328	60	0	60-180	60	152	NoGap	1	15	4	0	1	target	1	454	13.328	13.300	13.355
ProbeTrack7	2	ProbeTrack	1404	SCS215f	733709.363329	733709.364575	8	0.013328	60	0	60-180	60	67	NoGap	1	16	4	0	0	distractor	1	600	13.328	13.326	13.330
ProbeTrack7	2	ProbeTrack	1404	SCS215f	733709.363329	733709.364639	8	0.013328	60	0	60-180	60	165	NoGap	1	17	4	0	0	distractor	1	520	13.328	13.325	13.330
ProbeTrack7	2	ProbeTrack	1404	SCS215f	733709.363329	733709.364711	8	0.013328	60	0	60-180	60	78	NoGap	1	18	4	3	1	distractor	0	493	13.328	13.322	13.334
ProbeTrack7	2	ProbeTrack	1404	SCS215f	733709.363329	733709.364779	8	0.013328	60	0	60-180	60	94	NoGap	1	19	4	0	1	target	1	440	13.328	13.323	13.332
ProbeTrack7	2	ProbeTrack	1404	SCS215f	733709.363329	733709.364840	8	0.013328	60	0	60-180	60	99	NoGap	1	20	4	96	0	distractor	1	414	13.328	13.323	13.332
ProbeTrack7	2	ProbeTrack	1404	SCS215f	733709.363329	733709.364929	8	0.013328	60	0	60-180	60	138	NoGap	1	21	4	0	1	target	1	400	13.328	13.326	13.330
ProbeTrack7	2	ProbeTrack	1404	SCS215f	733709.363329	733709.365001	8	0.013328	60	0	60-180	60	107	NoGap	1	22	4	3	0	distractor	1	560	13.328	13.322	13.333
ProbeTrack7	2	ProbeTrack	1404	SCS215f	733709.363329	733709.365075	8	0.013328	60	0	60-180	60	100	NoGap	1	23	4	3	1	distractor	0	360	13.328	13.323	13.332
ProbeTrack7	2	ProbeTrack	1404	SCS215f	733709.363329	733709.365132	8	0.013328	60	0	60-180	60	124	NoGap	1	24	4	6	0	distractor	1	307	13.328	13.322	13.333
ProbeTrack7	2	ProbeTrack	1404	SCS215f	733709.363329	733709.365210	8	0.013328	60	0	60-180	60	118	NoGap	1	25	4	3	1	target	1	440	13.328	13.325	13.330
ProbeTrack7	2	ProbeTrack	1404	SCS215f	733709.363329	733709.365277	8	0.013328	60	0	60-180	60	129	NoGap	1	26	4	3	0	distractor	1	493	13.328	13.318	13.337
ProbeTrack7	2	ProbeTrack	1404	SCS215f	733709.363329	733709.365352	8	0.013328	60	0	60-180	60	140	NoGap	1	27	4	6	0	distractor	1	613	13.328	13.321	13.336
ProbeTrack7	2	ProbeTrack	1404	SCS215f	733709.363329	733709.365427	8	0.013328	60	0	60-180	60	165	NoGap	1	28	4	0	0	distractor	1	294	13.328	13.322	13.332
ProbeTrack7	2	ProbeTrack	1404	SCS215f	733709.363329	733709.365493	8	0.013328	60	0	60-180	60	69	NoGap	1	29	4	6	1	distractor	0	547	13.328	13.324	13.333
ProbeTrack7	2	ProbeTrack	1404	SCS215f	733709.363329	733709.365562	8	0.013328	60	0	60-180	60	175	NoGap	1	30	4	96	1	distractor	0	427	13.328	13.323	13.331
ProbeTrack7	2	ProbeTrack	1404	SCS215f	733709.363329	733709.365642	8	0.013328	60	0	60-180	60	124	NoGap	1	31	4	3	1	target	1	427	13.328	13.323	13.333
ProbeTrack7	2	ProbeTrack	1404	SCS215f	733709.363329	733709.365699	8	0.013328	60	0	60-180	60	154	NoGap	1	32	4	96	0	target	0	573	13.328	13.314	13.341
ProbeTrack7	2	ProbeTrack	1404	SCS215f	733709.363329	733709.365790	8	0.013328	60	0	60-180	60	123	NoGap	1	33	4	96	1	distractor	0	507	13.328	13.322	13.334
ProbeTrack7	2	ProbeTrack	1404	SCS215f	733709.363329	733709.365865	8	0.013328	60	0	60-180	60	61	NoGap	1	34	4	3	1	target	1	494	13.328	13.326	13.330
ProbeTrack7	2	ProbeTrack	1404	SCS215f	733709.363329	733709.365916	8	0.013328	60	0	60-180	60	151	NoGap	1	35	4	6	1	target	1	347	13.328	13.323	13.333
ProbeTrack7	2	ProbeTrack	1404	SCS215f	733709.363329	733709.365982	8	0.013328	60	0	60-180	60	106	NoGap	1	36	4	96	1	target	1	400	13.328	13.321	13.333
ProbeTrack7	2	ProbeTrack	1404	SCS215f	733709.363329	733709.366058	8	0.013328	60	0	60-180	60	163	NoGap	1	37	4	6	1	target	1	334	13.328	13.037	13.617
ProbeTrack7	2	ProbeTrack	1404	SCS215f	733709.363329	733709.366128	8	0.013328	60	0	60-180	60	160	NoGap	1	38	4	6	0	target	0	347	13.328	13.322	13.334
ProbeTrack7	2	ProbeTrack	1404	SCS215f	733709.363329	733709.366200	8	0.013328	60	0	60-180	60	137	NoGap	1	39	4	96	0	target	0	533	13.328	13.322	13.334
ProbeTrack7	2	ProbeTrack	1404	SCS215f	733709.363329	733709.366287	8	0.013328	60	0	60-180	60	143	NoGap	1	40	4	6	1	target	1	400	13.328	13.323	13.333
ProbeTrack7	2	ProbeTrack	1404	SCS215f	733709.363329	733709.366358	8	0.013328	60	0	60-180	60	133	NoGap	1	41	4	96	1	target	1	347	13.328	13.323	13.333
ProbeTrack7	2	ProbeTrack	1404	SCS215f	733709.363329	733709.366435	8	0.013328	60	0	60-180	60	147	NoGap	1	42	4	3	0	distractor	1	587	13.328	13.326	13.330
ProbeTrack7	2	ProbeTrack	1404	SCS215f	733709.363329	733709.366504	8	0.013328	60	0	60-180	60	69	NoGap	1	43	4	3	0	distractor	1	613	13.328	13.324	13.332
ProbeTrack7	2	ProbeTrack	1404	SCS215f	733709.363329	733709.366570	8	0.013328	60	0	60-180	60	114	NoGap	1	44	4	6	0	distractor	1	467	13.328	13.324	13.332
ProbeTrack7	2	ProbeTrack	1404	SCS215f	733709.363329	733709.366643	8	0.013328	60	0	60-180	60	67	NoGap	1	45	4	0	0	distractor	1	454	13.328	13.326	13.330
ProbeTrack7	2	ProbeTrack	1404	SCS215f	733709.363329	733709.366702	8	0.013328	60	0	60-180	60	105	NoGap	1	46	4	3	0	distractor	1	307	13.328	13.326	13.330
ProbeTrack7	2	ProbeTrack	1404	SCS215f	733709.363329	733709.366759	8	0.013328	60	0	60-180	60	130	NoGap	1	47	4	96	1	target	1	467	13.328	13.322	13.333
ProbeTrack7	2	ProbeTrack	1404	SCS215f	733709.363329	733709.366853	8	0.013328	60	0	60-180	60	61	NoGap	1	48	4	6	1	target	1	520	13.328	13.321	13.334
ProbeTrack7	2	ProbeTrack	1404	SCS215f	733709.363329	733709.367091	8	0.013328	60	0	60-180	60	81	NoGap	1	49	4	0	0	distractor	1	414	13.328	13.324	13.332
ProbeTrack7	2	ProbeTrack	1404	SCS215f	733709.363329	733709.367171	8	0.013328	60	0	60-180	60	97	NoGap	1	50	4	0	1	target	1	507	13.328	13.325	13.331
ProbeTrack7	2	ProbeTrack	1404	SCS215f	733709.373386	733709.373517	8	0.013328	60	10	60-180	60	93	GapPrac	1	1	4	0	1	target	1	627	13.328	13.326	13.330
ProbeTrack7	2	ProbeTrack	1404	SCS215f	733709.373386	733709.373587	8	0.013328	60	10	60-180	60	116	GapPrac	1	2	4	3	1	distractor	0	360	13.328	13.326	13.330
ProbeTrack7	2	ProbeTrack	1404	SCS215f	733709.373386	733709.373666	8	0.013328	60	10	60-180	60	105	GapPrac	1	3	4	96	0	target	0	400	13.328	13.324	13.331
ProbeTrack7	2	ProbeTrack	1404	SCS215f	733709.373386	733709.373773	8	0.013328	60	10	60-180	60	68	GapPrac	1	4	4	6	0	target	0	414	13.328	13.316	13.338
ProbeTrack7	2	ProbeTrack	1404	SCS215f	733709.373386	733709.373841	8	0.013328	60	10	60-180	60	68	GapPrac	1	5	4	96	0	distractor	1	374	13.328	13.324	13.331
ProbeTrack7	2	ProbeTrack	1404	SCS215f	733709.373386	733709.373925	8	0.013328	60	10	60-180	60	152	GapPrac	1	6	4	0	0	distractor	1	613	13.328	13.322	13.334
ProbeTrack7	2	ProbeTrack	1404	SCS215f	733709.373386	733709.374049	8	0.013328	60	10	60-180	60	107	GapPrac	1	7	4	96	1	distractor	0	573	13.328	13.319	13.336
ProbeTrack7	2	ProbeTrack	1404	SCS215f	733709.373386	733709.374129	8	0.013328	60	10	60-180	60	156	GapPrac	1	8	4	6	1	target	1	720	13.328	13.326	13.330
ProbeTrack7	2	ProbeTrack	1404	SCS215f	733709.373386	733709.374196	8	0.013328	60	10	60-180	60	125	GapPrac	1	9	4	96	0	distractor	1	374	13.328	13.323	13.332
ProbeTrack7	2	ProbeTrack	1404	SCS215f	733709.373386	733709.374297	8	0.013328	60	10	60-180	60	126	GapPrac	1	10	4	3	0	distractor	1	267	13.328	13.324	13.331
ProbeTrack7	2	ProbeTrack	1404	SCS215f	733709.373386	733709.374507	8	0.013328	60	10	60-180	60	77	GapPrac	1	11	4	3	1	distractor	0	627	13.328	13.322	13.333
ProbeTrack7	2	ProbeTrack	1404	SCS215f	733709.373386	733709.374672	8	0.013328	60	10	60-180	60	78	GapPrac	1	12	4	96	1	distractor	0	374	13.328	13.314	13.341
ProbeTrack7	2	ProbeTrack	1404	SCS215f	733709.373386	733709.374744	8	0.013328	60	10	60-180	60	144	GapPrac	1	13	4	6	0	distractor	1	533	13.328	13.323	13.333
ProbeTrack7	2	ProbeTrack	1404	SCS215f	733709.373386	733709.374817	8	0.013328	60	10	60-180	60	120	GapPrac	1	14	4	3	0	target	0	374	13.328	13.323	13.333
ProbeTrack7	2	ProbeTrack	1404	SCS215f	733709.373386	733709.374888	8	0.013328	60	10	60-180	60	174	GapPrac	1	15	4	6	1	target	1	747	13.328	13.323	13.333
ProbeTrack7	2	ProbeTrack	1404	SCS215f	733709.373386	733709.374961	8	0.013328	60	10	60-180	60	101	GapPrac	1	16	4	0	0	distractor	1	494	13.328	13.323	13.332
ProbeTrack7	2	ProbeTrack	1404	SCS215f	733709.373386	733709.375052	8	0.013328	60	10	60-180	60	162	GapPrac	1	17	4	0	1	target	1	427	13.328	13.325	13.330
ProbeTrack7	2	ProbeTrack	1404	SCS215f	733709.373386	733709.375132	8	0.013328	60	10	60-180	60	155	GapPrac	1	18	4	6	0	distractor	1	374	13.328	13.324	13.332
ProbeTrack7	2	ProbeTrack	1404	SCS215f	733709.373386	733709.375364	8	0.013328	60	10	60-180	60	114	GapPrac	1	19	4	0	1	distractor	0	400	13.328	13.318	13.336
ProbeTrack7	2	ProbeTrack	1404	SCS215f	733709.373386	733709.375437	8	0.013328	60	10	60-180	60	114	GapPrac	1	20	4	3	1	distractor	0	507	13.328	13.323	13.333
ProbeTrack7	2	ProbeTrack	1404	SCS215f	733709.376745	733709.376806	8	0.013328	60	10	60-180	60	76	GapPrac	1	1	4	96	0	distractor	1	480	13.328	13.303	13.352
ProbeTrack7	2	ProbeTrack	1404	SCS215f	733709.376745	733709.376959	8	0.013328	60	10	60-180	60	130	GapPrac	1	2	4	3	0	distractor	1	533	13.328	13.325	13.330
ProbeTrack7	2	ProbeTrack	1404	SCS215f	733709.376745	733709.377038	8	0.013328	60	10	60-180	60	108	GapPrac	1	3	4	96	1	target	1	360	13.328	13.324	13.332
ProbeTrack7	2	ProbeTrack	1404	SCS215f	733709.376745	733709.377142	8	0.013328	60	10	60-180	60	170	GapPrac	1	4	4	3	1	distractor	0	493	13.328	13.323	13.332
ProbeTrack7	2	ProbeTrack	1404	SCS215f	733709.376745	733709.377231	8	0.013328	60	10	60-180	60	99	GapPrac	1	5	4	3	0	target	0	600	13.328	13.324	13.332
ProbeTrack7	2	ProbeTrack	1404	SCS215f	733709.376745	733709.377333	8	0.013328	60	10	60-180	60	122	GapPrac	1	6	4	0	0	distractor	1	507	13.328	13.325	13.330
ProbeTrack7	2	ProbeTrack	1404	SCS215f	733709.376745	733709.377425	8	0.013328	60	10	60-180	60	137	GapPrac	1	7	4	6	1	target	1	627	13.328	13.323	13.331
ProbeTrack7	2	ProbeTrack	1404	SCS215f	733709.376745	733709.377518	8	0.013328	60	10	60-180	60	124	GapPrac	1	8	4	3	1	target	1	733	13.328	13.325	13.330
ProbeTrack7	2	ProbeTrack	1404	SCS215f	733709.376745	733709.377598	8	0.013328	60	10	60-180	60	174	GapPrac	1	9	4	3	1	target	1	600	13.328	13.324	13.332
ProbeTrack7	2	ProbeTrack	1404	SCS215f	733709.376745	733709.377673	8	0.013328	60	10	60-180	60	92	GapPrac	1	10	4	96	1	target	1	427	13.328	13.320	13.336
ProbeTrack7	2	ProbeTrack	1404	SCS215f	733709.376745	733709.377753	8	0.013328	60	10	60-180	60	144	GapPrac	1	11	4	0	0	distractor	1	600	13.328	13.321	13.334
ProbeTrack7	2	ProbeTrack	1404	SCS215f	733709.376745	733709.377845	8	0.013328	60	10	60-180	60	167	GapPrac	1	12	4	96	0	distractor	1	520	13.328	13.324	13.332
ProbeTrack7	2	ProbeTrack	1404	SCS215f	733709.376745	733709.377944	8	0.013328	60	10	60-180	60	82	GapPrac	1	13	4	0	1	distractor	0	613	13.328	13.322	13.333
ProbeTrack7	2	ProbeTrack	1404	SCS215f	733709.376745	733709.378005	8	0.013328	60	10	60-180	60	61	GapPrac	1	14	4	96	0	target	0	414	13.328	13.327	13.330
ProbeTrack7	2	ProbeTrack	1404	SCS215f	733709.376745	733709.378075	8	0.013328	60	10	60-180	60	137	GapPrac	1	15	4	6	0	distractor	1	494	13.328	13.324	13.331
ProbeTrack7	2	ProbeTrack	1404	SCS215f	733709.376745	733709.378149	8	0.013328	60	10	60-180	60	102	GapPrac	1	16	4	3	0	distractor	1	507	13.328	13.326	13.330
ProbeTrack7	2	ProbeTrack	1404	SCS215f	733709.376745	733709.378223	8	0.013328	60	10	60-180	60	77	GapPrac	1	17	4	96	1	target	1	614	13.328	13.316	13.340
ProbeTrack7	2	ProbeTrack	1404	SCS215f	733709.376745	733709.378313	8	0.013328	60	10	60-180	60	158	GapPrac	1	18	4	6	1	target	1	720	13.328	13.324	13.332
ProbeTrack7	2	ProbeTrack	1404	SCS215f	733709.376745	733709.378388	8	0.013328	60	10	60-180	60	63	GapPrac	1	19	4	0	1	target	1	454	13.328	13.324	13.331
ProbeTrack7	2	ProbeTrack	1404	SCS215f	733709.376745	733709.378508	8	0.013328	60	10	60-180	60	127	GapPrac	1	20	4	6	0	distractor	1	414	13.328	13.326	13.329
ProbeTrack7	2	ProbeTrack	1404	SCS215f	733709.378960	733709.379127	8	0.013328	60	10	60-180	60	149	GapExp	1	1	4	0	0	target	0	573	13.328	13.325	13.330
ProbeTrack7	2	ProbeTrack	1404	SCS215f	733709.378960	733709.379206	8	0.013328	60	10	60-180	60	74	GapExp	1	2	4	3	1	distractor	0	507	13.328	13.324	13.331
ProbeTrack7	2	ProbeTrack	1404	SCS215f	733709.378960	733709.379277	8	0.013328	60	10	60-180	60	135	GapExp	1	3	4	3	0	distractor	1	454	13.328	13.325	13.331
ProbeTrack7	2	ProbeTrack	1404	SCS215f	733709.378960	733709.379347	8	0.013328	60	10	60-180	60	103	GapExp	1	4	4	96	0	distractor	1	600	13.328	13.322	13.333
ProbeTrack7	2	ProbeTrack	1404	SCS215f	733709.378960	733709.379437	8	0.013328	60	10	60-180	60	160	GapExp	1	5	4	96	1	target	1	480	13.328	13.324	13.332
ProbeTrack7	2	ProbeTrack	1404	SCS215f	733709.378960	733709.379535	8	0.013328	60	10	60-180	60	144	GapExp	0	6	4	3	1	target	1	480	13.328	13.324	13.332
ProbeTrack7	2	ProbeTrack	1404	SCS215f	733709.378960	733709.379607	8	0.013328	60	10	60-180	60	86	GapExp	0	7	4	3	1	target	1	360	13.328	13.305	13.350
ProbeTrack7	2	ProbeTrack	1404	SCS215f	733709.378960	733709.379665	8	0.013328	60	10	60-180	60	76	GapExp	0	8	4	0	1	target	1	454	13.328	13.320	13.335
ProbeTrack7	2	ProbeTrack	1404	SCS215f	733709.378960	733709.379723	8	0.013328	60	10	60-180	60	63	GapExp	0	9	4	0	0	distractor	1	400	13.328	13.325	13.330
ProbeTrack7	2	ProbeTrack	1404	SCS215f	733709.378960	733709.379776	8	0.013328	60	10	60-180	60	128	GapExp	0	10	4	0	1	target	1	334	13.328	13.325	13.330
ProbeTrack7	2	ProbeTrack	1404	SCS215f	733709.378960	733709.379840	8	0.013328	60	10	60-180	60	156	GapExp	0	11	4	3	1	distractor	0	387	13.328	13.323	13.332
ProbeTrack7	2	ProbeTrack	1404	SCS215f	733709.378960	733709.379909	8	0.013328	60	10	60-180	60	117	GapExp	0	12	4	3	0	target	0	613	13.328	13.324	13.331
ProbeTrack7	2	ProbeTrack	1404	SCS215f	733709.378960	733709.379984	8	0.013328	60	10	60-180	60	129	GapExp	0	13	4	6	1	target	1	454	13.328	13.325	13.330
ProbeTrack7	2	ProbeTrack	1404	SCS215f	733709.378960	733709.380048	8	0.013328	60	10	60-180	60	76	GapExp	0	14	4	6	0	distractor	1	507	13.328	13.325	13.331
ProbeTrack7	2	ProbeTrack	1404	SCS215f	733709.378960	733709.380107	8	0.013328	60	10	60-180	60	171	GapExp	0	15	4	0	1	target	1	400	13.328	13.322	13.333
ProbeTrack7	2	ProbeTrack	1404	SCS215f	733709.378960	733709.380192	8	0.013328	60	10	60-180	60	85	GapExp	0	16	4	6	1	target	1	454	13.328	13.326	13.330
ProbeTrack7	2	ProbeTrack	1404	SCS215f	733709.378960	733709.380262	8	0.013328	60	10	60-180	60	83	GapExp	0	17	4	6	0	distractor	1	374	13.328	13.323	13.332
ProbeTrack7	2	ProbeTrack	1404	SCS215f	733709.378960	733709.380323	8	0.013328	60	10	60-180	60	62	GapExp	0	18	4	96	0	distractor	1	507	13.328	13.324	13.331
ProbeTrack7	2	ProbeTrack	1404	SCS215f	733709.378960	733709.380396	8	0.013328	60	10	60-180	60	176	GapExp	0	19	4	96	1	distractor	0	334	13.328	13.323	13.332
ProbeTrack7	2	ProbeTrack	1404	SCS215f	733709.378960	733709.380481	8	0.013328	60	10	60-180	60	91	GapExp	0	20	4	96	1	target	1	480	13.328	13.322	13.332
ProbeTrack7	2	ProbeTrack	1404	SCS215f	733709.378960	733709.380560	8	0.013328	60	10	60-180	60	180	GapExp	0	21	4	96	0	target	0	587	13.328	13.320	13.334
ProbeTrack7	2	ProbeTrack	1404	SCS215f	733709.378960	733709.380660	8	0.013328	60	10	60-180	60	61	GapExp	0	22	4	0	0	distractor	1	507	13.328	13.326	13.331
ProbeTrack7	2	ProbeTrack	1404	SCS215f	733709.378960	733709.380728	8	0.013328	60	10	60-180	60	142	GapExp	0	23	4	96	1	target	1	653	13.328	13.322	13.333
ProbeTrack7	2	ProbeTrack	1404	SCS215f	733709.378960	733709.380823	8	0.013328	60	10	60-180	60	69	GapExp	0	24	4	96	0	distractor	1	480	13.328	13.326	13.330
ProbeTrack7	2	ProbeTrack	1404	SCS215f	733709.378960	733709.380898	8	0.013328	60	10	60-180	60	67	GapExp	0	25	4	0	0	target	0	613	13.328	13.323	13.332
ProbeTrack7	2	ProbeTrack	1404	SCS215f	733709.378960	733709.380956	8	0.013328	60	10	60-180	60	148	GapExp	0	26	4	0	0	distractor	1	587	13.328	13.324	13.331
ProbeTrack7	2	ProbeTrack	1404	SCS215f	733709.378960	733709.381026	8	0.013328	60	10	60-180	60	158	GapExp	0	27	4	6	1	distractor	0	360	13.328	13.324	13.332
ProbeTrack7	2	ProbeTrack	1404	SCS215f	733709.378960	733709.381103	8	0.013328	60	10	60-180	60	130	GapExp	0	28	4	0	1	target	1	467	13.328	13.324	13.331
ProbeTrack7	2	ProbeTrack	1404	SCS215f	733709.378960	733709.381180	8	0.013328	60	10	60-180	60	138	GapExp	0	29	4	3	1	target	1	307	13.328	13.325	13.331
ProbeTrack7	2	ProbeTrack	1404	SCS215f	733709.378960	733709.381249	8	0.013328	60	10	60-180	60	112	GapExp	0	30	4	3	0	distractor	1	480	13.328	13.326	13.330
ProbeTrack7	2	ProbeTrack	1404	SCS215f	733709.378960	733709.381329	8	0.013328	60	10	60-180	60	71	GapExp	0	31	4	0	1	target	1	547	13.328	13.325	13.330
ProbeTrack7	2	ProbeTrack	1404	SCS215f	733709.378960	733709.381403	8	0.013328	60	10	60-180	60	170	GapExp	0	32	4	0	1	target	1	400	13.328	13.324	13.332
ProbeTrack7	2	ProbeTrack	1404	SCS215f	733709.378960	733709.381493	8	0.013328	60	10	60-180	60	144	GapExp	0	33	4	6	1	target	1	400	13.328	13.323	13.332
ProbeTrack7	2	ProbeTrack	1404	SCS215f	733709.378960	733709.381557	8	0.013328	60	10	60-180	60	73	GapExp	0	34	4	96	0	distractor	1	533	13.328	13.305	13.350
ProbeTrack7	2	ProbeTrack	1404	SCS215f	733709.378960	733709.381644	8	0.013328	60	10	60-180	60	133	GapExp	0	35	4	3	0	target	0	427	13.328	13.326	13.330
ProbeTrack7	2	ProbeTrack	1404	SCS215f	733709.378960	733709.381708	8	0.013328	60	10	60-180	60	165	GapExp	0	36	4	3	1	target	1	493	13.328	13.320	13.335
ProbeTrack7	2	ProbeTrack	1404	SCS215f	733709.378960	733709.381776	8	0.013328	60	10	60-180	60	140	GapExp	0	37	4	6	0	distractor	1	440	13.328	13.325	13.330
ProbeTrack7	2	ProbeTrack	1404	SCS215f	733709.378960	733709.381843	8	0.013328	60	10	60-180	60	83	GapExp	0	38	4	6	1	distractor	0	533	13.328	13.324	13.331
ProbeTrack7	2	ProbeTrack	1404	SCS215f	733709.378960	733709.381907	8	0.013328	60	10	60-180	60	126	GapExp	0	39	4	3	0	distractor	1	414	13.328	13.321	13.334
ProbeTrack7	2	ProbeTrack	1404	SCS215f	733709.378960	733709.381975	8	0.013328	60	10	60-180	60	74	GapExp	0	40	4	0	0	distractor	1	547	13.328	13.326	13.329
ProbeTrack7	2	ProbeTrack	1404	SCS215f	733709.378960	733709.382046	8	0.013328	60	10	60-180	60	73	GapExp	0	41	4	3	0	distractor	1	454	13.328	13.324	13.333
ProbeTrack7	2	ProbeTrack	1404	SCS215f	733709.378960	733709.382107	8	0.013328	60	10	60-180	60	75	GapExp	0	42	4	0	1	target	1	507	13.328	13.326	13.330
ProbeTrack7	2	ProbeTrack	1404	SCS215f	733709.378960	733709.382182	8	0.013328	60	10	60-180	60	131	GapExp	0	43	4	0	0	distractor	1	360	13.328	13.322	13.333
ProbeTrack7	2	ProbeTrack	1404	SCS215f	733709.378960	733709.382252	8	0.013328	60	10	60-180	60	128	GapExp	0	44	4	3	1	target	1	360	13.328	13.325	13.330
ProbeTrack7	2	ProbeTrack	1404	SCS215f	733709.378960	733709.382320	8	0.013328	60	10	60-180	60	130	GapExp	0	45	4	6	0	distractor	1	453	13.328	13.324	13.331
ProbeTrack7	2	ProbeTrack	1404	SCS215f	733709.378960	733709.382422	8	0.013328	60	10	60-180	60	86	GapExp	0	46	4	3	0	distractor	1	400	13.328	13.324	13.331
ProbeTrack7	2	ProbeTrack	1404	SCS215f	733709.378960	733709.382488	8	0.013328	60	10	60-180	60	71	GapExp	0	47	4	96	1	target	1	440	13.328	13.323	13.333
ProbeTrack7	2	ProbeTrack	1404	SCS215f	733709.378960	733709.382552	8	0.013328	60	10	60-180	60	176	GapExp	0	48	4	96	1	target	1	427	13.328	13.321	13.336
ProbeTrack7	2	ProbeTrack	1404	SCS215f	733709.378960	733709.382639	8	0.013328	60	10	60-180	60	125	GapExp	0	49	4	96	0	distractor	1	493	13.328	13.324	13.332
ProbeTrack7	2	ProbeTrack	1404	SCS215f	733709.378960	733709.382716	8	0.013328	60	10	60-180	60	178	GapExp	0	50	4	3	0	target	0	374	13.328	13.323	13.333
ProbeTrack7	2	ProbeTrack	1404	SCS215f	733709.378960	733709.382793	8	0.013328	60	10	60-180	60	117	GapExp	0	51	4	0	1	target	1	387	13.328	13.326	13.329
ProbeTrack7	2	ProbeTrack	1404	SCS215f	733709.378960	733709.382855	8	0.013328	60	10	60-180	60	100	GapExp	0	52	4	6	0	distractor	1	653	13.328	13.321	13.334
ProbeTrack7	2	ProbeTrack	1404	SCS215f	733709.378960	733709.382919	8	0.013328	60	10	60-180	60	78	GapExp	0	53	4	0	1	target	1	520	13.328	13.325	13.331
ProbeTrack7	2	ProbeTrack	1404	SCS215f	733709.378960	733709.382977	8	0.013328	60	10	60-180	60	124	GapExp	0	54	4	6	1	target	1	440	13.328	13.325	13.331
ProbeTrack7	2	ProbeTrack	1404	SCS215f	733709.378960	733709.383040	8	0.013328	60	10	60-180	60	180	GapExp	0	55	4	0	0	distractor	1	427	13.328	13.322	13.333
ProbeTrack7	2	ProbeTrack	1404	SCS215f	733709.378960	733709.383114	8	0.013328	60	10	60-180	60	144	GapExp	0	56	4	96	1	target	1	440	13.328	13.323	13.332
ProbeTrack7	2	ProbeTrack	1404	SCS215f	733709.378960	733709.383202	8	0.013328	60	10	60-180	60	145	GapExp	0	57	4	96	1	target	1	467	13.328	13.323	13.332
ProbeTrack7	2	ProbeTrack	1404	SCS215f	733709.378960	733709.383281	8	0.013328	60	10	60-180	60	178	GapExp	0	58	4	3	1	target	1	427	13.328	13.321	13.335
ProbeTrack7	2	ProbeTrack	1404	SCS215f	733709.378960	733709.383364	8	0.013328	60	10	60-180	60	66	GapExp	0	59	4	6	0	distractor	1	414	13.328	13.317	13.339
ProbeTrack7	2	ProbeTrack	1404	SCS215f	733709.378960	733709.383421	8	0.013328	60	10	60-180	60	174	GapExp	0	60	4	6	1	target	1	360	13.328	13.323	13.332
ProbeTrack7	2	ProbeTrack	1404	SCS215f	733709.378960	733709.383494	8	0.013328	60	10	60-180	60	85	GapExp	0	61	4	3	0	target	0	480	13.328	13.313	13.342
ProbeTrack7	2	ProbeTrack	1404	SCS215f	733709.378960	733709.383552	8	0.013328	60	10	60-180	60	96	GapExp	0	62	4	0	0	distractor	1	507	13.328	13.317	13.338
ProbeTrack7	2	ProbeTrack	1404	SCS215f	733709.378960	733709.383614	8	0.013328	60	10	60-180	60	169	GapExp	0	63	4	96	0	target	0	467	13.328	13.323	13.332
ProbeTrack7	2	ProbeTrack	1404	SCS215f	733709.378960	733709.383699	8	0.013328	60	10	60-180	60	155	GapExp	0	64	4	6	1	target	1	454	13.328	13.324	13.331
ProbeTrack7	2	ProbeTrack	1404	SCS215f	733709.378960	733709.383769	8	0.013328	60	10	60-180	60	79	GapExp	0	65	4	3	1	target	1	400	13.328	13.326	13.330
ProbeTrack7	2	ProbeTrack	1404	SCS215f	733709.378960	733709.383824	8	0.013328	60	10	60-180	60	94	GapExp	0	66	4	3	1	target	1	360	13.328	13.326	13.329
ProbeTrack7	2	ProbeTrack	1404	SCS215f	733709.378960	733709.383882	8	0.013328	60	10	60-180	60	143	GapExp	0	67	4	0	1	target	1	387	13.328	13.324	13.333
ProbeTrack7	2	ProbeTrack	1404	SCS215f	733709.378960	733709.383955	8	0.013328	60	10	60-180	60	138	GapExp	0	68	4	3	0	distractor	1	653	13.328	13.323	13.333
ProbeTrack7	2	ProbeTrack	1404	SCS215f	733709.378960	733709.384035	8	0.013328	60	10	60-180	60	138	GapExp	0	69	4	6	0	distractor	1	613	13.328	13.320	13.334
ProbeTrack7	2	ProbeTrack	1404	SCS215f	733709.378960	733709.384112	8	0.013328	60	10	60-180	60	83	GapExp	0	70	4	3	1	target	1	347	13.328	13.323	13.332
ProbeTrack7	2	ProbeTrack	1404	SCS215f	733709.378960	733709.384170	8	0.013328	60	10	60-180	60	121	GapExp	0	71	4	3	1	target	1	360	13.328	13.323	13.331
ProbeTrack7	2	ProbeTrack	1404	SCS215f	733709.378960	733709.384233	8	0.013328	60	10	60-180	60	160	GapExp	0	72	4	6	1	target	1	387	13.328	13.323	13.332
ProbeTrack7	2	ProbeTrack	1404	SCS215f	733709.378960	733709.384302	8	0.013328	60	10	60-180	60	159	GapExp	0	73	4	96	0	distractor	1	494	13.328	13.322	13.334
ProbeTrack7	2	ProbeTrack	1404	SCS215f	733709.378960	733709.384388	8	0.013328	60	10	60-180	60	134	GapExp	0	74	4	96	0	distractor	1	414	13.328	13.323	13.332
ProbeTrack7	2	ProbeTrack	1404	SCS215f	733709.378960	733709.384471	8	0.013328	60	10	60-180	60	156	GapExp	0	75	4	3	1	target	1	360	13.328	13.323	13.332
ProbeTrack7	2	ProbeTrack	1404	SCS215f	733709.378960	733709.384542	8	0.013328	60	10	60-180	60	147	GapExp	0	76	4	6	0	distractor	1	440	13.328	13.324	13.332
ProbeTrack7	2	ProbeTrack	1404	SCS215f	733709.378960	733709.384610	8	0.013328	60	10	60-180	60	108	GapExp	0	77	4	6	0	distractor	1	427	13.328	13.326	13.330
ProbeTrack7	2	ProbeTrack	1404	SCS215f	733709.378960	733709.384668	8	0.013328	60	10	60-180	60	159	GapExp	0	78	4	6	0	distractor	1	533	13.328	13.322	13.334
ProbeTrack7	2	ProbeTrack	1404	SCS215f	733709.378960	733709.384745	8	0.013328	60	10	60-180	60	168	GapExp	0	79	4	6	0	distractor	1	400	13.328	13.322	13.333
ProbeTrack7	2	ProbeTrack	1404	SCS215f	733709.378960	733709.384817	8	0.013328	60	10	60-180	60	163	GapExp	0	80	4	96	1	target	1	507	13.328	13.324	13.332
ProbeTrack7	2	ProbeTrack	1404	SCS215f	733709.378960	733709.384913	8	0.013328	60	10	60-180	60	126	GapExp	0	81	4	6	0	target	0	520	13.328	13.324	13.330
ProbeTrack7	2	ProbeTrack	1404	SCS215f	733709.378960	733709.384979	8	0.013328	60	10	60-180	60	117	GapExp	0	82	4	0	0	distractor	1	467	13.328	13.323	13.333
ProbeTrack7	2	ProbeTrack	1404	SCS215f	733709.378960	733709.385041	8	0.013328	60	10	60-180	60	78	GapExp	0	83	4	3	0	distractor	1	427	13.328	13.319	13.337
ProbeTrack7	2	ProbeTrack	1404	SCS215f	733709.378960	733709.385110	8	0.013328	60	10	60-180	60	76	GapExp	0	84	4	0	0	distractor	1	427	13.328	13.326	13.329
ProbeTrack7	2	ProbeTrack	1404	SCS215f	733709.378960	733709.385170	8	0.013328	60	10	60-180	60	70	GapExp	0	85	4	0	1	target	1	547	13.328	13.323	13.332
ProbeTrack7	2	ProbeTrack	1404	SCS215f	733709.378960	733709.385239	8	0.013328	60	10	60-180	60	72	GapExp	0	86	4	6	1	target	1	307	13.328	13.326	13.330
ProbeTrack7	2	ProbeTrack	1404	SCS215f	733709.378960	733709.385295	8	0.013328	60	10	60-180	60	123	GapExp	0	87	4	96	0	distractor	1	547	13.328	13.323	13.333
ProbeTrack7	2	ProbeTrack	1404	SCS215f	733709.378960	733709.385381	8	0.013328	60	10	60-180	60	86	GapExp	0	88	4	96	0	distractor	1	427	13.328	13.325	13.332
ProbeTrack7	2	ProbeTrack	1404	SCS215f	733709.378960	733709.385453	8	0.013328	60	10	60-180	60	167	GapExp	0	89	4	96	1	target	1	427	13.328	13.323	13.332
ProbeTrack7	2	ProbeTrack	1404	SCS215f	733709.378960	733709.385540	8	0.013328	60	10	60-180	60	74	GapExp	0	90	4	3	1	target	1	480	13.328	13.314	13.342
ProbeTrack7	2	ProbeTrack	1404	SCS215f	733709.378960	733709.385599	8	0.013328	60	10	60-180	60	148	GapExp	0	91	4	6	1	target	1	507	13.328	13.309	13.346
ProbeTrack7	2	ProbeTrack	1404	SCS215f	733709.378960	733709.385680	8	0.013328	60	10	60-180	60	133	GapExp	0	92	4	96	1	target	1	374	13.328	13.315	13.340
ProbeTrack7	2	ProbeTrack	1404	SCS215f	733709.378960	733709.385769	8	0.013328	60	10	60-180	60	89	GapExp	0	93	4	96	1	target	1	467	13.328	13.323	13.331
ProbeTrack7	2	ProbeTrack	1404	SCS215f	733709.378960	733709.385844	8	0.013328	60	10	60-180	60	110	GapExp	0	94	4	3	0	target	0	320	13.328	13.326	13.330
ProbeTrack7	2	ProbeTrack	1404	SCS215f	733709.378960	733709.385910	8	0.013328	60	10	60-180	60	155	GapExp	0	95	4	96	1	distractor	0	387	13.328	13.324	13.332
ProbeTrack7	2	ProbeTrack	1404	SCS215f	733709.378960	733709.385997	8	0.013328	60	10	60-180	60	173	GapExp	0	96	4	0	0	target	0	374	13.328	13.325	13.330
ProbeTrack7	2	ProbeTrack	1404	SCS215f	733709.378960	733709.386086	8	0.013328	60	10	60-180	60	159	GapExp	0	97	4	0	1	target	1	480	13.328	13.319	13.337
ProbeTrack7	2	ProbeTrack	1404	SCS215f	733709.378960	733709.386166	8	0.013328	60	10	60-180	60	121	GapExp	0	98	4	96	1	distractor	0	334	13.328	13.325	13.331
ProbeTrack7	2	ProbeTrack	1404	SCS215f	733709.378960	733709.386254	8	0.013328	60	10	60-180	60	91	GapExp	0	99	4	3	0	distractor	1	547	13.328	13.326	13.330
ProbeTrack7	2	ProbeTrack	1404	SCS215f	733709.378960	733709.386316	8	0.013328	60	10	60-180	60	165	GapExp	0	100	4	6	1	target	1	440	13.328	13.320	13.337
ProbeTrack7	2	ProbeTrack	1404	SCS215f	733709.378960	733709.386421	8	0.013328	60	10	60-180	60	156	GapExp	0	101	4	6	1	target	1	414	13.328	13.326	13.330
ProbeTrack7	2	ProbeTrack	1404	SCS215f	733709.378960	733709.386500	8	0.013328	60	10	60-180	60	77	GapExp	0	102	4	3	1	target	1	360	13.328	13.326	13.330
ProbeTrack7	2	ProbeTrack	1404	SCS215f	733709.378960	733709.386583	8	0.013328	60	10	60-180	60	164	GapExp	0	103	4	3	1	target	1	374	13.328	13.322	13.333
ProbeTrack7	2	ProbeTrack	1404	SCS215f	733709.378960	733709.386659	8	0.013328	60	10	60-180	60	90	GapExp	0	104	4	96	0	target	0	507	13.328	13.323	13.332
ProbeTrack7	2	ProbeTrack	1404	SCS215f	733709.378960	733709.386753	8	0.013328	60	10	60-180	60	163	GapExp	0	105	4	6	1	target	1	374	13.328	13.322	13.332
ProbeTrack7	2	ProbeTrack	1404	SCS215f	733709.378960	733709.386845	8	0.013328	60	10	60-180	60	163	GapExp	0	106	4	96	1	target	1	494	13.328	13.325	13.332
ProbeTrack7	2	ProbeTrack	1404	SCS215f	733709.378960	733709.386933	8	0.013328	60	10	60-180	60	93	GapExp	0	107	4	3	0	target	0	547	13.328	13.325	13.330
ProbeTrack7	2	ProbeTrack	1404	SCS215f	733709.378960	733709.386999	8	0.013328	60	10	60-180	60	110	GapExp	0	108	4	0	1	target	1	400	13.328	13.323	13.332
ProbeTrack7	2	ProbeTrack	1404	SCS215f	733709.378960	733709.387066	8	0.013328	60	10	60-180	60	128	GapExp	0	109	4	96	1	target	1	453	13.328	13.314	13.341
ProbeTrack7	2	ProbeTrack	1404	SCS215f	733709.378960	733709.387150	8	0.013328	60	10	60-180	60	175	GapExp	0	110	4	0	0	distractor	1	547	13.328	13.323	13.332
ProbeTrack7	2	ProbeTrack	1404	SCS215f	733709.378960	733709.387257	8	0.013328	60	10	60-180	60	70	GapExp	0	111	4	0	1	target	1	414	13.328	13.326	13.330
ProbeTrack7	2	ProbeTrack	1404	SCS215f	733709.378960	733709.387331	8	0.013328	60	10	60-180	60	116	GapExp	0	112	4	3	0	distractor	1	520	13.328	13.324	13.331
ProbeTrack7	2	ProbeTrack	1404	SCS215f	733709.378960	733709.387399	8	0.013328	60	10	60-180	60	138	GapExp	0	113	4	96	0	distractor	1	454	13.328	13.324	13.331
ProbeTrack7	2	ProbeTrack	1404	SCS215f	733709.378960	733709.387486	8	0.013328	60	10	60-180	60	177	GapExp	0	114	4	0	1	target	1	507	13.328	13.325	13.331
ProbeTrack7	2	ProbeTrack	1404	SCS215f	733709.378960	733709.387558	8	0.013328	60	10	60-180	60	85	GapExp	0	115	4	96	0	distractor	1	560	13.328	13.322	13.332
ProbeTrack7	2	ProbeTrack	1404	SCS215f	733709.378960	733709.387649	8	0.013328	60	10	60-180	60	81	GapExp	0	116	4	0	0	target	0	613	13.328	13.326	13.330
ProbeTrack7	2	ProbeTrack	1404	SCS215f	733709.378960	733709.387710	8	0.013328	60	10	60-180	60	64	GapExp	0	117	4	3	0	distractor	1	400	13.328	13.326	13.330
ProbeTrack7	2	ProbeTrack	1404	SCS215f	733709.378960	733709.387772	8	0.013328	60	10	60-180	60	104	GapExp	0	118	4	6	0	distractor	1	374	13.328	13.301	13.356
ProbeTrack7	2	ProbeTrack	1404	SCS215f	733709.378960	733709.387850	8	0.013328	60	10	60-180	60	70	GapExp	0	119	4	6	0	distractor	1	440	13.328	13.318	13.337
ProbeTrack7	2	ProbeTrack	1404	SCS215f	733709.378960	733709.387921	8	0.013328	60	10	60-180	60	169	GapExp	0	120	4	0	0	distractor	1	533	13.328	13.322	13.333
ProbeTrack7	2	ProbeTrack	1404	SCS215f	733709.378960	733709.388010	8	0.013328	60	10	60-180	60	61	GapExp	0	121	4	96	0	distractor	1	707	13.328	13.322	13.332
ProbeTrack7	2	ProbeTrack	1404	SCS215f	733709.378960	733709.388090	8	0.013328	60	10	60-180	60	87	GapExp	0	122	4	6	0	distractor	1	573	13.328	13.314	13.341
ProbeTrack7	2	ProbeTrack	1404	SCS215f	733709.378960	733709.388165	8	0.013328	60	10	60-180	60	76	GapExp	0	123	4	0	0	distractor	1	440	13.328	13.324	13.330
ProbeTrack7	2	ProbeTrack	1404	SCS215f	733709.378960	733709.388222	8	0.013328	60	10	60-180	60	100	GapExp	0	124	4	96	0	distractor	1	507	13.328	13.324	13.332
ProbeTrack7	2	ProbeTrack	1404	SCS215f	733709.378960	733709.388309	8	0.013328	60	10	60-180	60	114	GapExp	0	125	4	6	1	target	1	547	13.328	13.326	13.330
ProbeTrack7	2	ProbeTrack	1404	SCS215f	733709.389426	733709.389525	8	0.013328	60	10	60-180	60	160	GapPrac	1	1	3	3	1	distractor	0	360	13.328	13.325	13.331
ProbeTrack7	2	ProbeTrack	1404	SCS215f	733709.389426	733709.389611	8	0.013328	60	10	60-180	60	81	GapPrac	1	2	3	96	1	target	1	453	13.328	13.324	13.332
ProbeTrack7	2	ProbeTrack	1404	SCS215f	733709.389426	733709.389697	8	0.013328	60	10	60-180	60	133	GapPrac	1	3	3	0	1	target	1	547	13.328	13.323	13.332
ProbeTrack7	2	ProbeTrack	1404	SCS215f	733709.389426	733709.389806	8	0.013328	60	10	60-180	60	127	GapPrac	1	4	3	0	0	target	0	440	13.328	13.323	13.332
ProbeTrack7	2	ProbeTrack	1404	SCS215f	733709.389426	733709.389872	8	0.013328	60	10	60-180	60	86	GapPrac	1	5	3	3	0	distractor	1	400	13.328	13.326	13.330
ProbeTrack7	2	ProbeTrack	1404	SCS215f	733709.389426	733709.389929	8	0.013328	60	10	60-180	60	166	GapPrac	1	6	3	96	1	target	1	613	13.328	13.323	13.332
ProbeTrack7	2	ProbeTrack	1404	SCS215f	733709.389426	733709.390019	8	0.013328	60	10	60-180	60	68	GapPrac	1	7	3	0	1	target	1	480	13.328	13.323	13.333
ProbeTrack7	2	ProbeTrack	1404	SCS215f	733709.389426	733709.390073	8	0.013328	60	10	60-180	60	174	GapPrac	1	8	3	6	1	target	1	414	13.328	13.323	13.332
ProbeTrack7	2	ProbeTrack	1404	SCS215f	733709.389426	733709.390148	8	0.013328	60	10	60-180	60	76	GapPrac	1	9	3	96	1	target	1	533	13.328	13.322	13.333
ProbeTrack7	2	ProbeTrack	1404	SCS215f	733709.389426	733709.390219	8	0.013328	60	10	60-180	60	176	GapPrac	1	10	3	6	0	distractor	1	507	13.328	13.320	13.332
ProbeTrack7	2	ProbeTrack	1404	SCS215f	733709.389426	733709.390335	8	0.013328	60	10	60-180	60	63	GapPrac	1	11	3	6	0	distractor	1	507	13.328	13.323	13.333
ProbeTrack7	2	ProbeTrack	1404	SCS215f	733709.389426	733709.390397	8	0.013328	60	10	60-180	60	105	GapPrac	1	12	3	3	1	target	1	440	13.328	13.325	13.330
ProbeTrack7	2	ProbeTrack	1404	SCS215f	733709.389426	733709.390466	8	0.013328	60	10	60-180	60	81	GapPrac	1	13	3	0	1	target	1	453	13.328	13.326	13.330
ProbeTrack7	2	ProbeTrack	1404	SCS215f	733709.389426	733709.390524	8	0.013328	60	10	60-180	60	140	GapPrac	1	14	3	3	1	target	1	414	13.328	13.323	13.331
ProbeTrack7	2	ProbeTrack	1404	SCS215f	733709.389426	733709.390601	8	0.013328	60	10	60-180	60	155	GapPrac	1	15	3	0	0	distractor	1	454	13.328	13.324	13.332
ProbeTrack7	2	ProbeTrack	1404	SCS215f	733709.389426	733709.390675	8	0.013328	60	10	60-180	60	172	GapPrac	1	16	3	6	1	target	1	427	13.328	13.322	13.333
ProbeTrack7	2	ProbeTrack	1404	SCS215f	733709.389426	733709.390750	8	0.013328	60	10	60-180	60	105	GapPrac	1	17	3	96	0	distractor	1	520	13.328	13.323	13.331
ProbeTrack7	2	ProbeTrack	1404	SCS215f	733709.389426	733709.390827	8	0.013328	60	10	60-180	60	141	GapPrac	1	18	3	0	0	distractor	1	467	13.328	13.324	13.332
ProbeTrack7	2	ProbeTrack	1404	SCS215f	733709.389426	733709.390893	8	0.013328	60	10	60-180	60	166	GapPrac	1	19	3	3	0	distractor	1	640	13.328	13.324	13.331
ProbeTrack7	2	ProbeTrack	1404	SCS215f	733709.389426	733709.390984	8	0.013328	60	10	60-180	60	131	GapPrac	1	20	3	96	0	distractor	1	533	13.328	13.322	13.333
ProbeTrack7	2	ProbeTrack	1404	SCS215f	733709.391815	733709.391860	8	0.013328	60	10	60-180	60	83	GapExp	1	1	3	6	0	distractor	1	360	13.328	13.326	13.330
ProbeTrack7	2	ProbeTrack	1404	SCS215f	733709.391815	733709.391951	8	0.013328	60	10	60-180	60	127	GapExp	1	2	3	96	0	distractor	1	507	13.328	13.324	13.332
ProbeTrack7	2	ProbeTrack	1404	SCS215f	733709.391815	733709.392040	8	0.013328	60	10	60-180	60	142	GapExp	1	3	3	3	0	distractor	1	773	13.328	13.323	13.334
ProbeTrack7	2	ProbeTrack	1404	SCS215f	733709.391815	733709.392112	8	0.013328	60	10	60-180	60	127	GapExp	1	4	3	0	0	target	0	414	13.328	13.326	13.330
ProbeTrack7	2	ProbeTrack	1404	SCS215f	733709.391815	733709.392181	8	0.013328	60	10	60-180	60	146	GapExp	1	5	3	96	1	target	1	533	13.328	13.323	13.333
ProbeTrack7	2	ProbeTrack	1404	SCS215f	733709.391815	733709.392280	8	0.013328	60	10	60-180	60	161	GapExp	0	6	3	96	0	distractor	1	533	13.328	13.324	13.332
ProbeTrack7	2	ProbeTrack	1404	SCS215f	733709.391815	733709.392368	8	0.013328	60	10	60-180	60	107	GapExp	0	7	3	3	0	target	0	747	13.328	13.322	13.333
ProbeTrack7	2	ProbeTrack	1404	SCS215f	733709.391815	733709.392433	8	0.013328	60	10	60-180	60	173	GapExp	0	8	3	0	1	target	1	547	13.328	13.323	13.330
ProbeTrack7	2	ProbeTrack	1404	SCS215f	733709.391815	733709.392511	8	0.013328	60	10	60-180	60	174	GapExp	0	9	3	96	0	distractor	1	560	13.328	13.318	13.337
ProbeTrack7	2	ProbeTrack	1404	SCS215f	733709.391815	733709.392598	8	0.013328	60	10	60-180	60	76	GapExp	0	10	3	3	1	target	1	493	13.328	13.325	13.331
ProbeTrack7	2	ProbeTrack	1404	SCS215f	733709.391815	733709.392656	8	0.013328	60	10	60-180	60	97	GapExp	0	11	3	96	0	distractor	1	560	13.328	13.324	13.332
ProbeTrack7	2	ProbeTrack	1404	SCS215f	733709.391815	733709.392738	8	0.013328	60	10	60-180	60	97	GapExp	0	12	3	3	0	distractor	1	693	13.328	13.324	13.332
ProbeTrack7	2	ProbeTrack	1404	SCS215f	733709.391815	733709.392811	8	0.013328	60	10	60-180	60	81	GapExp	0	13	3	3	0	target	0	374	13.328	13.326	13.330
ProbeTrack7	2	ProbeTrack	1404	SCS215f	733709.391815	733709.392874	8	0.013328	60	10	60-180	60	68	GapExp	0	14	3	6	0	distractor	1	573	13.328	13.323	13.332
ProbeTrack7	2	ProbeTrack	1404	SCS215f	733709.391815	733709.392943	8	0.013328	60	10	60-180	60	128	GapExp	0	15	3	6	0	distractor	1	453	13.328	13.323	13.331
ProbeTrack7	2	ProbeTrack	1404	SCS215f	733709.391815	733709.393043	8	0.013328	60	10	60-180	60	167	GapExp	0	16	3	6	0	distractor	1	347	13.328	13.321	13.334
ProbeTrack7	2	ProbeTrack	1404	SCS215f	733709.391815	733709.393135	8	0.013328	60	10	60-180	60	69	GapExp	0	17	3	6	0	distractor	1	440	13.328	13.326	13.330
ProbeTrack7	2	ProbeTrack	1404	SCS215f	733709.391815	733709.393234	8	0.013328	60	10	60-180	60	64	GapExp	0	18	3	6	1	target	1	414	13.328	13.325	13.332
ProbeTrack7	2	ProbeTrack	1404	SCS215f	733709.391815	733709.393309	8	0.013328	60	10	60-180	60	110	GapExp	0	19	3	6	0	target	0	387	13.328	13.323	13.332
ProbeTrack7	2	ProbeTrack	1404	SCS215f	733709.391815	733709.393401	8	0.013328	60	10	60-180	60	150	GapExp	0	20	3	3	1	target	1	387	13.328	13.326	13.330
ProbeTrack7	2	ProbeTrack	1404	SCS215f	733709.391815	733709.393473	8	0.013328	60	10	60-180	60	68	GapExp	0	21	3	96	0	distractor	1	493	13.328	13.326	13.330
ProbeTrack7	2	ProbeTrack	1404	SCS215f	733709.391815	733709.393579	8	0.013328	60	10	60-180	60	128	GapExp	0	22	3	6	1	target	1	467	13.328	13.324	13.332
ProbeTrack7	2	ProbeTrack	1404	SCS215f	733709.391815	733709.393666	8	0.013328	60	10	60-180	60	138	GapExp	0	23	3	6	0	distractor	1	613	13.328	13.322	13.333
ProbeTrack7	2	ProbeTrack	1404	SCS215f	733709.391815	733709.393741	8	0.013328	60	10	60-180	60	135	GapExp	0	24	3	96	0	target	0	453	13.328	13.322	13.333
ProbeTrack7	2	ProbeTrack	1404	SCS215f	733709.391815	733709.393828	8	0.013328	60	10	60-180	60	161	GapExp	0	25	3	0	0	distractor	1	560	13.328	13.324	13.332
ProbeTrack7	2	ProbeTrack	1404	SCS215f	733709.391815	733709.393904	8	0.013328	60	10	60-180	60	95	GapExp	0	26	3	96	1	target	1	667	13.328	13.322	13.333
ProbeTrack7	2	ProbeTrack	1404	SCS215f	733709.391815	733709.394063	8	0.013328	60	10	60-180	60	167	GapExp	0	27	3	96	1	target	1	440	13.328	13.324	13.332
ProbeTrack7	2	ProbeTrack	1404	SCS215f	733709.391815	733709.394196	8	0.013328	60	10	60-180	60	118	GapExp	0	28	3	3	0	distractor	1	600	13.328	13.322	13.333
ProbeTrack7	2	ProbeTrack	1404	SCS215f	733709.391815	733709.394278	8	0.013328	60	10	60-180	60	173	GapExp	0	29	3	96	1	target	1	400	13.328	13.323	13.334
ProbeTrack7	2	ProbeTrack	1404	SCS215f	733709.391815	733709.394365	8	0.013328	60	10	60-180	60	168	GapExp	0	30	3	0	0	distractor	1	547	13.328	13.323	13.332
ProbeTrack7	2	ProbeTrack	1404	SCS215f	733709.391815	733709.394445	8	0.013328	60	10	60-180	60	153	GapExp	0	31	3	96	1	target	1	427	13.328	13.323	13.333
ProbeTrack7	2	ProbeTrack	1404	SCS215f	733709.391815	733709.394560	8	0.013328	60	10	60-180	60	103	GapExp	0	32	3	6	1	target	1	387	13.328	13.322	13.332
ProbeTrack7	2	ProbeTrack	1404	SCS215f	733709.391815	733709.394625	8	0.013328	60	10	60-180	60	119	GapExp	0	33	3	96	0	distractor	1	547	13.328	13.323	13.332
ProbeTrack7	2	ProbeTrack	1404	SCS215f	733709.391815	733709.394759	8	0.013328	60	10	60-180	60	65	GapExp	0	34	3	0	0	distractor	1	600	13.328	13.326	13.335
ProbeTrack7	2	ProbeTrack	1404	SCS215f	733709.391815	733709.394822	8	0.013328	60	10	60-180	60	120	GapExp	0	35	3	96	0	distractor	1	573	13.328	13.325	13.330
ProbeTrack7	2	ProbeTrack	1404	SCS215f	733709.391815	733709.395013	8	0.013328	60	10	60-180	60	130	GapExp	0	36	3	3	0	distractor	1	440	13.328	13.323	13.332
ProbeTrack7	2	ProbeTrack	1404	SCS215f	733709.391815	733709.395085	8	0.013328	60	10	60-180	60	155	GapExp	0	37	3	3	1	target	1	360	13.328	13.323	13.334
ProbeTrack7	2	ProbeTrack	1404	SCS215f	733709.391815	733709.395175	8	0.013328	60	10	60-180	60	131	GapExp	0	38	3	0	1	target	1	400	13.328	13.325	13.331
ProbeTrack7	2	ProbeTrack	1404	SCS215f	733709.391815	733709.395268	8	0.013328	60	10	60-180	60	121	GapExp	0	39	3	96	0	distractor	1	480	13.328	13.325	13.331
ProbeTrack7	2	ProbeTrack	1404	SCS215f	733709.391815	733709.395685	8	0.013328	60	10	60-180	60	153	GapExp	0	40	3	96	0	distractor	1	507	13.328	13.322	13.333
ProbeTrack7	2	ProbeTrack	1404	SCS215f	733709.391815	733709.395782	8	0.013328	60	10	60-180	60	126	GapExp	0	41	3	0	1	target	1	414	13.328	13.323	13.333
ProbeTrack7	2	ProbeTrack	1404	SCS215f	733709.391815	733709.395871	8	0.013328	60	10	60-180	60	139	GapExp	0	42	3	0	0	target	0	587	13.328	13.325	13.330
ProbeTrack7	2	ProbeTrack	1404	SCS215f	733709.391815	733709.395945	8	0.013328	60	10	60-180	60	147	GapExp	0	43	3	6	1	target	1	480	13.328	13.323	13.333
ProbeTrack7	2	ProbeTrack	1404	SCS215f	733709.391815	733709.396016	8	0.013328	60	10	60-180	60	123	GapExp	0	44	3	6	1	target	1	347	13.328	13.324	13.332
ProbeTrack7	2	ProbeTrack	1404	SCS215f	733709.391815	733709.396084	8	0.013328	60	10	60-180	60	124	GapExp	0	45	3	6	0	distractor	1	520	13.328	13.326	13.330
ProbeTrack7	2	ProbeTrack	1404	SCS215f	733709.391815	733709.396154	8	0.013328	60	10	60-180	60	115	GapExp	0	46	3	6	0	distractor	1	547	13.328	13.323	13.331
ProbeTrack7	2	ProbeTrack	1404	SCS215f	733709.391815	733709.396219	8	0.013328	60	10	60-180	60	155	GapExp	0	47	3	3	1	target	1	533	13.328	13.323	13.331
ProbeTrack7	2	ProbeTrack	1404	SCS215f	733709.391815	733709.396297	8	0.013328	60	10	60-180	60	142	GapExp	0	48	3	0	0	distractor	1	680	13.328	13.324	13.331
ProbeTrack7	2	ProbeTrack	1404	SCS215f	733709.391815	733709.396370	8	0.013328	60	10	60-180	60	64	GapExp	0	49	3	0	0	target	0	760	13.328	13.325	13.331
ProbeTrack7	2	ProbeTrack	1404	SCS215f	733709.391815	733709.396432	8	0.013328	60	10	60-180	60	134	GapExp	0	50	3	6	1	target	1	533	13.328	13.325	13.331
ProbeTrack7	2	ProbeTrack	1404	SCS215f	733709.391815	733709.396499	8	0.013328	60	10	60-180	60	156	GapExp	0	51	3	0	1	target	1	414	13.328	13.321	13.336
ProbeTrack7	2	ProbeTrack	1404	SCS215f	733709.391815	733709.396588	8	0.013328	60	10	60-180	60	125	GapExp	0	52	3	0	1	target	1	400	13.328	13.313	13.330
ProbeTrack7	2	ProbeTrack	1404	SCS215f	733709.391815	733709.396676	8	0.013328	60	10	60-180	60	152	GapExp	0	53	3	0	0	distractor	1	627	13.328	13.318	13.338
ProbeTrack7	2	ProbeTrack	1404	SCS215f	733709.391815	733709.396822	8	0.013328	60	10	60-180	60	155	GapExp	0	54	3	6	1	target	1	387	13.328	13.322	13.334
ProbeTrack7	2	ProbeTrack	1404	SCS215f	733709.391815	733709.396920	8	0.013328	60	10	60-180	60	175	GapExp	0	55	3	96	0	distractor	1	573	13.328	13.323	13.332
ProbeTrack7	2	ProbeTrack	1404	SCS215f	733709.391815	733709.397050	8	0.013328	60	10	60-180	60	175	GapExp	0	56	3	6	1	target	1	453	13.328	13.324	13.333
ProbeTrack7	2	ProbeTrack	1404	SCS215f	733709.391815	733709.397122	8	0.013328	60	10	60-180	60	127	GapExp	0	57	3	6	0	distractor	1	627	13.328	13.324	13.332
ProbeTrack7	2	ProbeTrack	1404	SCS215f	733709.391815	733709.397195	8	0.013328	60	10	60-180	60	81	GapExp	0	58	3	0	1	target	1	414	13.328	13.323	13.332
ProbeTrack7	2	ProbeTrack	1404	SCS215f	733709.391815	733709.397258	8	0.013328	60	10	60-180	60	142	GapExp	0	59	3	3	0	distractor	1	414	13.328	13.317	13.340
ProbeTrack7	2	ProbeTrack	1404	SCS215f	733709.391815	733709.397327	8	0.013328	60	10	60-180	60	66	GapExp	0	60	3	0	0	distractor	1	533	13.328	13.326	13.330
ProbeTrack7	2	ProbeTrack	1404	SCS215f	733709.391815	733709.397387	8	0.013328	60	10	60-180	60	106	GapExp	0	61	3	3	0	distractor	1	560	13.328	13.325	13.332
ProbeTrack7	2	ProbeTrack	1404	SCS215f	733709.391815	733709.397455	8	0.013328	60	10	60-180	60	97	GapExp	0	62	3	3	1	target	1	467	13.328	13.322	13.334
ProbeTrack7	2	ProbeTrack	1404	SCS215f	733709.391815	733709.397522	8	0.013328	60	10	60-180	60	80	GapExp	0	63	3	6	0	distractor	1	547	13.328	13.323	13.332
ProbeTrack7	2	ProbeTrack	1404	SCS215f	733709.391815	733709.397587	8	0.013328	60	10	60-180	60	84	GapExp	0	64	3	3	1	target	1	653	13.328	13.324	13.332
ProbeTrack7	2	ProbeTrack	1404	SCS215f	733709.391815	733709.397729	8	0.013328	60	10	60-180	60	180	GapExp	0	65	3	0	1	target	1	427	13.328	13.323	13.333
ProbeTrack7	2	ProbeTrack	1404	SCS215f	733709.391815	733709.397813	8	0.013328	60	10	60-180	60	100	GapExp	0	66	3	96	1	target	1	467	13.328	13.325	13.331
ProbeTrack7	2	ProbeTrack	1404	SCS215f	733709.391815	733709.397890	8	0.013328	60	10	60-180	60	108	GapExp	0	67	3	6	1	target	1	453	13.328	13.325	13.330
ProbeTrack7	2	ProbeTrack	1404	SCS215f	733709.391815	733709.397957	8	0.013328	60	10	60-180	60	147	GapExp	0	68	3	96	0	distractor	1	440	13.328	13.303	13.352
ProbeTrack7	2	ProbeTrack	1404	SCS215f	733709.391815	733709.398039	8	0.013328	60	10	60-180	60	80	GapExp	0	69	3	96	1	target	1	480	13.328	13.324	13.331
ProbeTrack7	2	ProbeTrack	1404	SCS215f	733709.391815	733709.398110	8	0.013328	60	10	60-180	60	85	GapExp	0	70	3	0	1	target	1	440	13.328	13.323	13.331
ProbeTrack7	2	ProbeTrack	1404	SCS215f	733709.391815	733709.398183	8	0.013328	60	10	60-180	60	74	GapExp	0	71	3	0	1	target	1	387	13.328	13.320	13.335
ProbeTrack7	2	ProbeTrack	1404	SCS215f	733709.391815	733709.398238	8	0.013328	60	10	60-180	60	163	GapExp	0	72	3	3	1	target	1	347	13.328	13.318	13.337
ProbeTrack7	2	ProbeTrack	1404	SCS215f	733709.391815	733709.398315	8	0.013328	60	10	60-180	60	134	GapExp	0	73	3	3	1	target	1	374	13.328	13.324	13.332
ProbeTrack7	2	ProbeTrack	1404	SCS215f	733709.391815	733709.398381	8	0.013328	60	10	60-180	60	117	GapExp	0	74	3	96	1	target	1	414	13.328	13.325	13.332
ProbeTrack7	2	ProbeTrack	1404	SCS215f	733709.391815	733709.398463	8	0.013328	60	10	60-180	60	130	GapExp	0	75	3	0	0	distractor	1	573	13.328	13.326	13.330
ProbeTrack7	2	ProbeTrack	1404	SCS215f	733709.391815	733709.398536	8	0.013328	60	10	60-180	60	122	GapExp	0	76	3	3	0	distractor	1	520	13.328	13.325	13.331
ProbeTrack7	2	ProbeTrack	1404	SCS215f	733709.391815	733709.398606	8	0.013328	60	10	60-180	60	149	GapExp	0	77	3	3	1	target	1	520	13.328	13.324	13.331
ProbeTrack7	2	ProbeTrack	1404	SCS215f	733709.391815	733709.398679	8	0.013328	60	10	60-180	60	76	GapExp	0	78	3	96	1	target	1	440	13.328	13.324	13.333
ProbeTrack7	2	ProbeTrack	1404	SCS215f	733709.391815	733709.398755	8	0.013328	60	10	60-180	60	162	GapExp	0	79	3	96	1	target	1	414	13.328	13.322	13.333
ProbeTrack7	2	ProbeTrack	1404	SCS215f	733709.391815	733709.398857	8	0.013328	60	10	60-180	60	127	GapExp	0	80	3	6	1	target	1	427	13.328	13.323	13.332
ProbeTrack7	2	ProbeTrack	1404	SCS215f	733709.391815	733709.398933	8	0.013328	60	10	60-180	60	64	GapExp	0	81	3	3	0	distractor	1	627	13.328	13.327	13.330
ProbeTrack7	2	ProbeTrack	1404	SCS215f	733709.391815	733709.399000	8	0.013328	60	10	60-180	60	148	GapExp	0	82	3	96	1	target	1	480	13.328	13.323	13.332
ProbeTrack7	2	ProbeTrack	1404	SCS215f	733709.391815	733709.399095	8	0.013328	60	10	60-180	60	171	GapExp	0	83	3	0	0	distractor	1	640	13.328	13.324	13.332
ProbeTrack7	2	ProbeTrack	1404	SCS215f	733709.391815	733709.399176	8	0.013328	60	10	60-180	60	122	GapExp	0	84	3	6	1	target	1	414	13.328	13.324	13.331
ProbeTrack7	2	ProbeTrack	1404	SCS215f	733709.391815	733709.399334	8	0.013328	60	10	60-180	60	176	GapExp	0	85	3	96	1	target	1	414	13.328	13.321	13.335
ProbeTrack7	2	ProbeTrack	1404	SCS215f	733709.391815	733709.399462	8	0.013328	60	10	60-180	60	165	GapExp	0	86	3	96	0	distractor	1	534	13.328	13.324	13.332
ProbeTrack7	2	ProbeTrack	1404	SCS215f	733709.391815	733709.399552	8	0.013328	60	10	60-180	60	147	GapExp	0	87	3	3	1	target	1	587	13.328	13.326	13.331
ProbeTrack7	2	ProbeTrack	1404	SCS215f	733709.391815	733709.399623	8	0.013328	60	10	60-180	60	131	GapExp	0	88	3	6	0	distractor	1	560	13.328	13.324	13.332
ProbeTrack7	2	ProbeTrack	1404	SCS215f	733709.391815	733709.399698	8	0.013328	60	10	60-180	60	153	GapExp	0	89	3	6	1	target	1	360	13.328	13.318	13.336
ProbeTrack7	2	ProbeTrack	1404	SCS215f	733709.391815	733709.399776	8	0.013328	60	10	60-180	60	130	GapExp	0	90	3	3	0	distractor	1	467	13.328	13.323	13.332
ProbeTrack7	2	ProbeTrack	1404	SCS215f	733709.391815	733709.399845	8	0.013328	60	10	60-180	60	82	GapExp	0	91	3	3	0	distractor	1	480	13.328	13.326	13.330
ProbeTrack7	2	ProbeTrack	1404	SCS215f	733709.391815	733709.399908	8	0.013328	60	10	60-180	60	71	GapExp	0	92	3	0	0	distractor	1	467	13.328	13.321	13.336
ProbeTrack7	2	ProbeTrack	1404	SCS215f	733709.391815	733709.399973	8	0.013328	60	10	60-180	60	80	GapExp	0	93	3	3	1	distractor	0	414	13.328	13.326	13.330
ProbeTrack7	2	ProbeTrack	1404	SCS215f	733709.391815	733709.400035	8	0.013328	60	10	60-180	60	72	GapExp	0	94	3	0	1	target	1	360	13.328	13.326	13.329
ProbeTrack7	2	ProbeTrack	1404	SCS215f	733709.391815	733709.400093	8	0.013328	60	10	60-180	60	118	GapExp	0	95	3	0	0	distractor	1	520	13.328	13.315	13.341
ProbeTrack7	2	ProbeTrack	1404	SCS215f	733709.391815	733709.400165	8	0.013328	60	10	60-180	60	62	GapExp	0	96	3	3	0	distractor	1	467	13.328	13.325	13.330
ProbeTrack7	2	ProbeTrack	1404	SCS215f	733709.391815	733709.400220	8	0.013328	60	10	60-180	60	166	GapExp	0	97	3	6	1	target	1	414	13.328	13.325	13.330
ProbeTrack7	2	ProbeTrack	1404	SCS215f	733709.391815	733709.400295	8	0.013328	60	10	60-180	60	131	GapExp	0	98	3	0	1	target	1	427	13.328	13.322	13.333
ProbeTrack7	2	ProbeTrack	1404	SCS215f	733709.391815	733709.400359	8	0.013328	60	10	60-180	60	82	GapExp	0	99	3	0	0	distractor	1	533	13.328	13.326	13.329
ProbeTrack7	2	ProbeTrack	1404	SCS215f	733709.391815	733709.400422	8	0.013328	60	10	60-180	60	167	GapExp	0	100	3	0	0	distractor	1	560	13.328	13.323	13.333
ProbeTrack7	2	ProbeTrack	1404	SCS215f	733709.391815	733709.400499	8	0.013328	60	10	60-180	60	124	GapExp	0	101	3	3	0	distractor	1	533	13.328	13.323	13.332
ProbeTrack7	2	ProbeTrack	1404	SCS215f	733709.391815	733709.400585	8	0.013328	60	10	60-180	60	147	GapExp	0	102	3	3	1	target	1	387	13.328	13.324	13.332
ProbeTrack7	2	ProbeTrack	1404	SCS215f	733709.391815	733709.400651	8	0.013328	60	10	60-180	60	86	GapExp	0	103	3	96	1	target	1	427	13.328	13.324	13.331
ProbeTrack7	2	ProbeTrack	1404	SCS215f	733709.391815	733709.400722	8	0.013328	60	10	60-180	60	146	GapExp	0	104	3	6	1	target	1	374	13.328	13.321	13.335
ProbeTrack7	2	ProbeTrack	1404	SCS215f	733709.391815	733709.400788	8	0.013328	60	10	60-180	60	139	GapExp	0	105	3	0	0	target	0	800	13.328	13.326	13.330
ProbeTrack7	2	ProbeTrack	1404	SCS215f	733709.391815	733709.400859	8	0.013328	60	10	60-180	60	76	GapExp	0	106	3	3	1	target	1	387	13.328	13.322	13.334
ProbeTrack7	2	ProbeTrack	1404	SCS215f	733709.391815	733709.400912	8	0.013328	60	10	60-180	60	89	GapExp	0	107	3	3	0	distractor	1	453	13.328	13.310	13.345
ProbeTrack7	2	ProbeTrack	1404	SCS215f	733709.391815	733709.400990	8	0.013328	60	10	60-180	60	97	GapExp	0	108	3	3	1	target	1	374	13.328	13.313	13.343
ProbeTrack7	2	ProbeTrack	1404	SCS215f	733709.391815	733709.401065	8	0.013328	60	10	60-180	60	73	GapExp	0	109	3	96	0	distractor	1	600	13.328	13.324	13.332
ProbeTrack7	2	ProbeTrack	1404	SCS215f	733709.391815	733709.401137	8	0.013328	60	10	60-180	60	152	GapExp	0	110	3	0	1	target	1	400	13.328	13.323	13.331
ProbeTrack7	2	ProbeTrack	1404	SCS215f	733709.391815	733709.401203	8	0.013328	60	10	60-180	60	88	GapExp	0	111	3	0	1	target	1	427	13.328	13.325	13.330
ProbeTrack7	2	ProbeTrack	1404	SCS215f	733709.391815	733709.401260	8	0.013328	60	10	60-180	60	175	GapExp	0	112	3	0	1	target	1	374	13.328	13.322	13.333
ProbeTrack7	2	ProbeTrack	1404	SCS215f	733709.391815	733709.401338	8	0.013328	60	10	60-180	60	97	GapExp	0	113	3	6	1	distractor	0	667	13.328	13.322	13.334
ProbeTrack7	2	ProbeTrack	1404	SCS215f	733709.391815	733709.401398	8	0.013328	60	10	60-180	60	136	GapExp	0	114	3	6	0	distractor	1	520	13.328	13.326	13.330
ProbeTrack7	2	ProbeTrack	1404	SCS215f	733709.391815	733709.401465	8	0.013328	60	10	60-180	60	138	GapExp	0	115	3	96	0	distractor	1	547	13.328	13.316	13.339
ProbeTrack7	2	ProbeTrack	1404	SCS215f	733709.391815	733709.401551	8	0.013328	60	10	60-180	60	102	GapExp	0	116	3	96	1	target	1	493	13.328	13.315	13.340
ProbeTrack7	2	ProbeTrack	1404	SCS215f	733709.391815	733709.401636	8	0.013328	60	10	60-180	60	114	GapExp	0	117	3	6	0	distractor	1	547	13.328	13.326	13.329
ProbeTrack7	2	ProbeTrack	1404	SCS215f	733709.391815	733709.401701	8	0.013328	60	10	60-180	60	110	GapExp	0	118	3	3	0	distractor	1	573	13.328	13.322	13.334
ProbeTrack7	2	ProbeTrack	1404	SCS215f	733709.391815	733709.401783	8	0.013328	60	10	60-180	60	104	GapExp	0	119	3	0	1	target	1	600	13.328	13.323	13.333
ProbeTrack7	2	ProbeTrack	1404	SCS215f	733709.391815	733709.401847	8	0.013328	60	10	60-180	60	73	GapExp	0	120	3	96	1	target	1	467	13.328	13.321	13.336
ProbeTrack7	2	ProbeTrack	1404	SCS215f	733709.391815	733709.401923	8	0.013328	60	10	60-180	60	162	GapExp	0	121	3	6	0	distractor	1	520	13.328	13.322	13.334
ProbeTrack7	2	ProbeTrack	1404	SCS215f	733709.391815	733709.402009	8	0.013328	60	10	60-180	60	87	GapExp	0	122	3	3	1	target	1	400	13.328	13.325	13.330
ProbeTrack7	2	ProbeTrack	1404	SCS215f	733709.391815	733709.402066	8	0.013328	60	10	60-180	60	84	GapExp	0	123	3	6	0	target	0	667	13.328	13.326	13.330
ProbeTrack7	2	ProbeTrack	1404	SCS215f	733709.391815	733709.402127	8	0.013328	60	10	60-180	60	106	GapExp	0	124	3	96	1	target	1	533	13.328	13.318	13.337
ProbeTrack7	2	ProbeTrack	1404	SCS215f	733709.391815	733709.402200	8	0.013328	60	10	60-180	60	152	GapExp	0	125	3	96	0	distractor	1	600	13.328	13.324	13.331
