exp	sub	code	rev	comp	runtime	trialtime	nstim	refreshdur	cuedur	gapdur	gapOnsetRange	durPostProbe	gapOnsetTime	blocktype	prac	trial	ntargets	soa	probeTarget	resp	acc	rt	meanFrameDur	minFrameDur	maxFrameDur
ProbeTrack7	21	ProbeTrack	1406	SCS215f	733718.440198	733718.440233	8	0.013328	60	0	60-180	60	157	NoGap	1	1	4	0	1	target	1	3359	13.328	13.313	13.342
ProbeTrack7	21	ProbeTrack	1406	SCS215f	733718.440198	733718.441244	8	0.013328	60	0	60-180	60	117	NoGap	1	2	4	96	1	distractor	0	1280	13.328	13.326	13.330
ProbeTrack7	21	ProbeTrack	1406	SCS215f	733718.440198	733718.441396	8	0.013328	60	0	60-180	60	95	NoGap	1	3	4	3	0	distractor	1	1253	13.328	13.326	13.330
ProbeTrack7	21	ProbeTrack	1406	SCS215f	733718.440198	733718.441490	8	0.013328	60	0	60-180	60	163	NoGap	1	4	4	6	0	target	0	1093	13.328	13.325	13.332
ProbeTrack7	21	ProbeTrack	1406	SCS215f	733718.440198	733718.441588	8	0.013328	60	0	60-180	60	94	NoGap	1	5	4	96	0	distractor	1	1400	13.328	13.324	13.333
ProbeTrack7	21	ProbeTrack	1406	SCS215f	733718.440198	733718.441726	8	0.013328	60	0	60-180	60	72	NoGap	1	6	4	0	1	target	1	1000	13.328	13.322	13.335
ProbeTrack7	21	ProbeTrack	1406	SCS215f	733718.440198	733718.441807	8	0.013328	60	0	60-180	60	135	NoGap	1	7	4	0	0	distractor	1	1120	13.328	13.324	13.333
ProbeTrack7	21	ProbeTrack	1406	SCS215f	733718.440198	733718.441896	8	0.013328	60	0	60-180	60	140	NoGap	1	8	4	96	1	distractor	0	960	13.328	13.322	13.334
ProbeTrack7	21	ProbeTrack	1406	SCS215f	733718.440198	733718.441993	8	0.013328	60	0	60-180	60	173	NoGap	1	9	4	6	1	target	1	640	13.328	13.321	13.334
ProbeTrack7	21	ProbeTrack	1406	SCS215f	733718.440198	733718.442076	8	0.013328	60	0	60-180	60	174	NoGap	1	10	4	96	0	distractor	1	893	13.328	13.324	13.331
ProbeTrack7	21	ProbeTrack	1406	SCS215f	733718.440198	733718.442180	8	0.013328	60	0	60-180	60	145	NoGap	1	11	4	96	1	target	1	467	13.328	13.322	13.334
ProbeTrack7	21	ProbeTrack	1406	SCS215f	733718.440198	733718.442277	8	0.013328	60	0	60-180	60	122	NoGap	1	12	4	6	0	distractor	1	973	13.328	13.323	13.332
ProbeTrack7	21	ProbeTrack	1406	SCS215f	733718.440198	733718.442354	8	0.013328	60	0	60-180	60	95	NoGap	1	13	4	3	0	distractor	1	960	13.328	13.318	13.339
ProbeTrack7	21	ProbeTrack	1406	SCS215f	733718.440198	733718.442433	8	0.013328	60	0	60-180	60	129	NoGap	1	14	4	96	1	distractor	0	640	13.328	13.326	13.330
ProbeTrack7	21	ProbeTrack	1406	SCS215f	733718.440198	733718.442518	8	0.013328	60	0	60-180	60	173	NoGap	1	15	4	3	1	target	1	613	13.328	13.322	13.334
ProbeTrack7	21	ProbeTrack	1406	SCS215f	733718.440198	733718.442600	8	0.013328	60	0	60-180	60	98	NoGap	1	16	4	3	1	target	1	733	13.328	13.326	13.330
ProbeTrack7	21	ProbeTrack	1406	SCS215f	733718.440198	733718.442675	8	0.013328	60	0	60-180	60	171	NoGap	1	17	4	96	0	target	0	880	13.328	13.322	13.334
ProbeTrack7	21	ProbeTrack	1406	SCS215f	733718.440198	733718.442777	8	0.013328	60	0	60-180	60	73	NoGap	1	18	4	0	1	distractor	0	640	13.328	13.326	13.330
ProbeTrack7	21	ProbeTrack	1406	SCS215f	733718.440198	733718.442845	8	0.013328	60	0	60-180	60	126	NoGap	1	19	4	0	1	target	1	533	13.328	13.323	13.334
ProbeTrack7	21	ProbeTrack	1406	SCS215f	733718.440198	733718.442918	8	0.013328	60	0	60-180	60	73	NoGap	1	20	4	6	1	target	1	347	13.328	13.326	13.330
ProbeTrack7	21	ProbeTrack	1406	SCS215f	733718.440198	733718.442984	8	0.013328	60	0	60-180	60	129	NoGap	1	21	4	96	0	distractor	1	600	13.328	13.325	13.331
ProbeTrack7	21	ProbeTrack	1406	SCS215f	733718.440198	733718.443074	8	0.013328	60	0	60-180	60	100	NoGap	1	22	4	0	0	distractor	1	573	13.328	13.326	13.330
ProbeTrack7	21	ProbeTrack	1406	SCS215f	733718.440198	733718.443145	8	0.013328	60	0	60-180	60	129	NoGap	1	23	4	0	1	target	1	600	13.328	13.325	13.331
ProbeTrack7	21	ProbeTrack	1406	SCS215f	733718.440198	733718.443218	8	0.013328	60	0	60-180	60	122	NoGap	1	24	4	0	1	distractor	0	493	13.328	13.322	13.333
ProbeTrack7	21	ProbeTrack	1406	SCS215f	733718.440198	733718.443289	8	0.013328	60	0	60-180	60	129	NoGap	1	25	4	3	0	distractor	1	933	13.328	13.307	13.348
ProbeTrack7	21	ProbeTrack	1406	SCS215f	733718.440198	733718.443367	8	0.013328	60	0	60-180	60	95	NoGap	1	26	4	3	0	distractor	1	600	13.328	13.322	13.333
ProbeTrack7	21	ProbeTrack	1406	SCS215f	733718.440198	733718.443446	8	0.013328	60	0	60-180	60	114	NoGap	1	27	4	96	1	target	1	760	13.328	13.325	13.332
ProbeTrack7	21	ProbeTrack	1406	SCS215f	733718.440198	733718.443535	8	0.013328	60	0	60-180	60	98	NoGap	1	28	4	3	1	target	1	827	13.328	13.324	13.331
ProbeTrack7	21	ProbeTrack	1406	SCS215f	733718.440198	733718.443611	8	0.013328	60	0	60-180	60	145	NoGap	1	29	4	3	1	target	1	693	13.328	13.318	13.336
ProbeTrack7	21	ProbeTrack	1406	SCS215f	733718.440198	733718.443694	8	0.013328	60	0	60-180	60	80	NoGap	1	30	4	0	0	distractor	1	667	13.328	13.325	13.331
ProbeTrack7	21	ProbeTrack	1406	SCS215f	733718.440198	733718.443760	8	0.013328	60	0	60-180	60	71	NoGap	1	31	4	6	0	distractor	1	627	13.328	13.325	13.331
ProbeTrack7	21	ProbeTrack	1406	SCS215f	733718.440198	733718.443828	8	0.013328	60	0	60-180	60	85	NoGap	1	32	4	6	0	distractor	1	573	13.328	13.324	13.333
ProbeTrack7	21	ProbeTrack	1406	SCS215f	733718.440198	733718.443897	8	0.013328	60	0	60-180	60	170	NoGap	1	33	4	0	1	target	1	693	13.328	13.321	13.334
ProbeTrack7	21	ProbeTrack	1406	SCS215f	733718.440198	733718.443976	8	0.013328	60	0	60-180	60	124	NoGap	1	34	4	6	0	distractor	1	547	13.328	13.323	13.333
ProbeTrack7	21	ProbeTrack	1406	SCS215f	733718.440198	733718.444050	8	0.013328	60	0	60-180	60	108	NoGap	1	35	4	96	0	distractor	1	453	13.328	13.312	13.343
ProbeTrack7	21	ProbeTrack	1406	SCS215f	733718.440198	733718.444139	8	0.013328	60	0	60-180	60	104	NoGap	1	36	4	6	1	target	1	667	13.328	13.324	13.333
ProbeTrack7	21	ProbeTrack	1406	SCS215f	733718.440198	733718.444214	8	0.013328	60	0	60-180	60	177	NoGap	1	37	4	96	0	distractor	1	627	13.328	13.322	13.334
ProbeTrack7	21	ProbeTrack	1406	SCS215f	733718.440198	733718.444313	8	0.013328	60	0	60-180	60	157	NoGap	1	38	4	0	0	target	0	733	13.328	13.314	13.341
ProbeTrack7	21	ProbeTrack	1406	SCS215f	733718.440198	733718.444399	8	0.013328	60	0	60-180	60	159	NoGap	1	39	4	6	1	target	1	534	13.328	13.323	13.333
ProbeTrack7	21	ProbeTrack	1406	SCS215f	733718.440198	733718.444479	8	0.013328	60	0	60-180	60	168	NoGap	1	40	4	96	1	distractor	0	1466	13.328	13.320	13.336
ProbeTrack7	21	ProbeTrack	1406	SCS215f	733718.440198	733718.444590	8	0.013328	60	0	60-180	60	172	NoGap	1	41	4	6	0	distractor	1	533	13.328	13.322	13.333
ProbeTrack7	21	ProbeTrack	1406	SCS215f	733718.440198	733718.444672	8	0.013328	60	0	60-180	60	155	NoGap	1	42	4	6	1	target	1	613	13.328	13.324	13.331
ProbeTrack7	21	ProbeTrack	1406	SCS215f	733718.440198	733718.444754	8	0.013328	60	0	60-180	60	145	NoGap	1	43	4	0	0	distractor	1	867	13.328	13.325	13.331
ProbeTrack7	21	ProbeTrack	1406	SCS215f	733718.440198	733718.444830	8	0.013328	60	0	60-180	60	85	NoGap	1	44	4	6	1	target	1	653	13.328	13.325	13.332
ProbeTrack7	21	ProbeTrack	1406	SCS215f	733718.440198	733718.444899	8	0.013328	60	0	60-180	60	77	NoGap	1	45	4	3	1	target	1	587	13.328	13.324	13.331
ProbeTrack7	21	ProbeTrack	1406	SCS215f	733718.440198	733718.444967	8	0.013328	60	0	60-180	60	109	NoGap	1	46	4	96	1	target	1	613	13.328	13.324	13.331
ProbeTrack7	21	ProbeTrack	1406	SCS215f	733718.440198	733718.445055	8	0.013328	60	0	60-180	60	155	NoGap	1	47	4	3	0	distractor	1	747	13.328	13.325	13.330
ProbeTrack7	21	ProbeTrack	1406	SCS215f	733718.440198	733718.445135	8	0.013328	60	0	60-180	60	125	NoGap	1	48	4	0	0	distractor	1	507	13.328	13.318	13.339
ProbeTrack7	21	ProbeTrack	1406	SCS215f	733718.440198	733718.445209	8	0.013328	60	0	60-180	60	73	NoGap	1	49	4	3	0	distractor	1	733	13.328	13.325	13.330
ProbeTrack7	21	ProbeTrack	1406	SCS215f	733718.440198	733718.445273	8	0.013328	60	0	60-180	60	87	NoGap	1	50	4	96	0	distractor	1	560	13.328	13.325	13.330
ProbeTrack7	21	ProbeTrack	1406	SCS215f	733718.446483	733718.446555	8	0.013328	60	10	60-180	60	165	GapPrac	1	1	3	96	0	distractor	1	907	13.328	13.325	13.332
ProbeTrack7	21	ProbeTrack	1406	SCS215f	733718.446483	733718.446769	8	0.013328	60	10	60-180	60	152	GapPrac	1	2	3	0	0	distractor	1	733	13.328	13.310	13.345
ProbeTrack7	21	ProbeTrack	1406	SCS215f	733718.446483	733718.446874	8	0.013328	60	10	60-180	60	79	GapPrac	1	3	3	96	1	target	1	760	13.328	13.326	13.330
ProbeTrack7	21	ProbeTrack	1406	SCS215f	733718.446483	733718.446964	8	0.013328	60	10	60-180	60	68	GapPrac	1	4	3	3	1	distractor	0	587	13.328	13.326	13.330
ProbeTrack7	21	ProbeTrack	1406	SCS215f	733718.446483	733718.447035	8	0.013328	60	10	60-180	60	84	GapPrac	1	5	3	6	1	target	1	627	13.328	13.322	13.334
ProbeTrack7	21	ProbeTrack	1406	SCS215f	733718.446483	733718.447106	8	0.013328	60	10	60-180	60	96	GapPrac	1	6	3	0	0	distractor	1	720	13.328	13.322	13.333
ProbeTrack7	21	ProbeTrack	1406	SCS215f	733718.446483	733718.447182	8	0.013328	60	10	60-180	60	172	GapPrac	1	7	3	0	1	target	1	533	13.328	13.322	13.333
ProbeTrack7	21	ProbeTrack	1406	SCS215f	733718.446483	733718.447265	8	0.013328	60	10	60-180	60	76	GapPrac	1	8	3	3	0	distractor	1	587	13.328	13.326	13.330
ProbeTrack7	21	ProbeTrack	1406	SCS215f	733718.446483	733718.447334	8	0.013328	60	10	60-180	60	62	GapPrac	1	9	3	0	0	distractor	1	533	13.328	13.324	13.332
ProbeTrack7	21	ProbeTrack	1406	SCS215f	733718.446483	733718.447398	8	0.013328	60	10	60-180	60	107	GapPrac	1	10	3	6	0	distractor	1	733	13.328	13.322	13.333
ProbeTrack7	21	ProbeTrack	1406	SCS215f	733718.446483	733718.447473	8	0.013328	60	10	60-180	60	92	GapPrac	1	11	3	6	1	target	1	587	13.328	13.324	13.331
ProbeTrack7	21	ProbeTrack	1406	SCS215f	733718.446483	733718.447544	8	0.013328	60	10	60-180	60	70	GapPrac	1	12	3	3	1	target	1	707	13.328	13.326	13.330
ProbeTrack7	21	ProbeTrack	1406	SCS215f	733718.446483	733718.447610	8	0.013328	60	10	60-180	60	171	GapPrac	1	13	3	3	0	distractor	1	693	13.328	13.323	13.333
ProbeTrack7	21	ProbeTrack	1406	SCS215f	733718.446483	733718.447695	8	0.013328	60	10	60-180	60	64	GapPrac	1	14	3	3	1	target	1	613	13.328	13.325	13.332
ProbeTrack7	21	ProbeTrack	1406	SCS215f	733718.446483	733718.447762	8	0.013328	60	10	60-180	60	156	GapPrac	1	15	3	0	1	target	1	773	13.328	13.324	13.333
ProbeTrack7	21	ProbeTrack	1406	SCS215f	733718.446483	733718.447844	8	0.013328	60	10	60-180	60	68	GapPrac	1	16	3	96	1	target	1	480	13.328	13.324	13.332
ProbeTrack7	21	ProbeTrack	1406	SCS215f	733718.446483	733718.447923	8	0.013328	60	10	60-180	60	174	GapPrac	1	17	3	96	0	distractor	1	640	13.328	13.322	13.333
ProbeTrack7	21	ProbeTrack	1406	SCS215f	733718.446483	733718.448020	8	0.013328	60	10	60-180	60	140	GapPrac	1	18	3	96	1	target	1	520	13.328	13.318	13.338
ProbeTrack7	21	ProbeTrack	1406	SCS215f	733718.446483	733718.448109	8	0.013328	60	10	60-180	60	169	GapPrac	1	19	3	6	0	distractor	1	573	13.328	13.325	13.332
ProbeTrack7	21	ProbeTrack	1406	SCS215f	733718.446483	733718.448200	8	0.013328	60	10	60-180	60	129	GapPrac	1	20	3	96	0	distractor	1	493	13.328	13.323	13.333
ProbeTrack7	21	ProbeTrack	1406	SCS215f	733718.448769	733718.448821	8	0.013328	60	10	60-180	60	80	GapExp	1	1	3	6	1	target	1	560	13.328	13.325	13.332
ProbeTrack7	21	ProbeTrack	1406	SCS215f	733718.448769	733718.449327	8	0.013328	60	10	60-180	60	70	GapExp	1	2	3	0	0	target	0	760	13.328	13.323	13.333
ProbeTrack7	21	ProbeTrack	1406	SCS215f	733718.448769	733718.449397	8	0.013328	60	10	60-180	60	76	GapExp	1	3	3	0	1	target	1	627	13.328	13.323	13.333
ProbeTrack7	21	ProbeTrack	1406	SCS215f	733718.448769	733718.449463	8	0.013328	60	10	60-180	60	119	GapExp	1	4	3	96	1	target	1	467	13.328	13.323	13.332
ProbeTrack7	21	ProbeTrack	1406	SCS215f	733718.448769	733718.449549	8	0.013328	60	10	60-180	60	138	GapExp	1	5	3	3	1	target	1	400	13.328	13.322	13.333
ProbeTrack7	21	ProbeTrack	1406	SCS215f	733718.448769	733718.449626	8	0.013328	60	10	60-180	60	176	GapExp	0	6	3	96	0	distractor	1	813	13.328	13.323	13.332
ProbeTrack7	21	ProbeTrack	1406	SCS215f	733718.448769	733718.449725	8	0.013328	60	10	60-180	60	129	GapExp	0	7	3	6	1	target	1	507	13.328	13.324	13.332
ProbeTrack7	21	ProbeTrack	1406	SCS215f	733718.448769	733718.449802	8	0.013328	60	10	60-180	60	173	GapExp	0	8	3	6	1	distractor	0	533	13.328	13.317	13.339
ProbeTrack7	21	ProbeTrack	1406	SCS215f	733718.448769	733718.449884	8	0.013328	60	10	60-180	60	154	GapExp	0	9	3	0	0	target	0	493	13.328	13.323	13.332
ProbeTrack7	21	ProbeTrack	1406	SCS215f	733718.448769	733718.449959	8	0.013328	60	10	60-180	60	130	GapExp	0	10	3	3	0	32	-3	773	13.328	13.324	13.331
ProbeTrack7	21	ProbeTrack	1406	SCS215f	733718.448769	733718.450034	8	0.013328	60	10	60-180	60	72	GapExp	0	11	3	0	0	distractor	1	1000	13.328	13.323	13.332
ProbeTrack7	21	ProbeTrack	1406	SCS215f	733718.448769	733718.450107	8	0.013328	60	10	60-180	60	100	GapExp	0	12	3	6	0	distractor	1	653	13.328	13.326	13.329
ProbeTrack7	21	ProbeTrack	1406	SCS215f	733718.448769	733718.450180	8	0.013328	60	10	60-180	60	171	GapExp	0	13	3	96	1	distractor	0	680	13.328	13.320	13.336
ProbeTrack7	21	ProbeTrack	1406	SCS215f	733718.448769	733718.450277	8	0.013328	60	10	60-180	60	145	GapExp	0	14	3	0	1	target	1	587	13.328	13.324	13.331
ProbeTrack7	21	ProbeTrack	1406	SCS215f	733718.448769	733718.450354	8	0.013328	60	10	60-180	60	125	GapExp	0	15	3	96	1	target	1	520	13.328	13.303	13.352
ProbeTrack7	21	ProbeTrack	1406	SCS215f	733718.448769	733718.450442	8	0.013328	60	10	60-180	60	117	GapExp	0	16	3	3	1	target	1	453	13.328	13.324	13.331
ProbeTrack7	21	ProbeTrack	1406	SCS215f	733718.448769	733718.450516	8	0.013328	60	10	60-180	60	62	GapExp	0	17	3	6	0	distractor	1	587	13.328	13.322	13.333
ProbeTrack7	21	ProbeTrack	1406	SCS215f	733718.448769	733718.450581	8	0.013328	60	10	60-180	60	125	GapExp	0	18	3	6	0	distractor	1	813	13.328	13.322	13.333
ProbeTrack7	21	ProbeTrack	1406	SCS215f	733718.448769	733718.450659	8	0.013328	60	10	60-180	60	170	GapExp	0	19	3	6	1	target	1	520	13.328	13.319	13.336
ProbeTrack7	21	ProbeTrack	1406	SCS215f	733718.448769	733718.450740	8	0.013328	60	10	60-180	60	148	GapExp	0	20	3	6	1	distractor	0	653	13.328	13.324	13.332
ProbeTrack7	21	ProbeTrack	1406	SCS215f	733718.448769	733718.450818	8	0.013328	60	10	60-180	60	87	GapExp	0	21	3	6	1	target	1	493	13.328	13.322	13.333
ProbeTrack7	21	ProbeTrack	1406	SCS215f	733718.448769	733718.450887	8	0.013328	60	10	60-180	60	155	GapExp	0	22	3	6	1	target	1	547	13.328	13.323	13.333
ProbeTrack7	21	ProbeTrack	1406	SCS215f	733718.448769	733718.450963	8	0.013328	60	10	60-180	60	102	GapExp	0	23	3	96	0	distractor	1	640	13.328	13.323	13.332
ProbeTrack7	21	ProbeTrack	1406	SCS215f	733718.448769	733718.451046	8	0.013328	60	10	60-180	60	66	GapExp	0	24	3	6	0	distractor	1	680	13.328	13.324	13.332
ProbeTrack7	21	ProbeTrack	1406	SCS215f	733718.448769	733718.451111	8	0.013328	60	10	60-180	60	153	GapExp	0	25	3	6	0	distractor	1	480	13.328	13.324	13.331
ProbeTrack7	21	ProbeTrack	1406	SCS215f	733718.448769	733718.451189	8	0.013328	60	10	60-180	60	136	GapExp	0	26	3	3	0	distractor	1	573	13.328	13.324	13.332
ProbeTrack7	21	ProbeTrack	1406	SCS215f	733718.448769	733718.451261	8	0.013328	60	10	60-180	60	150	GapExp	0	27	3	3	1	target	1	680	13.328	13.323	13.333
ProbeTrack7	21	ProbeTrack	1406	SCS215f	733718.448769	733718.451340	8	0.013328	60	10	60-180	60	113	GapExp	0	28	3	3	1	target	1	613	13.328	13.324	13.332
ProbeTrack7	21	ProbeTrack	1406	SCS215f	733718.448769	733718.451410	8	0.013328	60	10	60-180	60	71	GapExp	0	29	3	96	1	target	1	760	13.328	13.321	13.336
ProbeTrack7	21	ProbeTrack	1406	SCS215f	733718.448769	733718.451491	8	0.013328	60	10	60-180	60	87	GapExp	0	30	3	0	0	distractor	1	613	13.328	13.323	13.334
ProbeTrack7	21	ProbeTrack	1406	SCS215f	733718.448769	733718.451559	8	0.013328	60	10	60-180	60	80	GapExp	0	31	3	3	0	distractor	1	560	13.328	13.326	13.330
ProbeTrack7	21	ProbeTrack	1406	SCS215f	733718.448769	733718.451626	8	0.013328	60	10	60-180	60	144	GapExp	0	32	3	0	0	distractor	1	533	13.328	13.324	13.332
ProbeTrack7	21	ProbeTrack	1406	SCS215f	733718.448769	733718.451701	8	0.013328	60	10	60-180	60	135	GapExp	0	33	3	6	1	target	1	560	13.328	13.322	13.333
ProbeTrack7	21	ProbeTrack	1406	SCS215f	733718.448769	733718.451777	8	0.013328	60	10	60-180	60	166	GapExp	0	34	3	3	0	target	0	600	13.328	13.324	13.332
ProbeTrack7	21	ProbeTrack	1406	SCS215f	733718.448769	733718.451859	8	0.013328	60	10	60-180	60	118	GapExp	0	35	3	96	0	distractor	1	693	13.328	13.318	13.337
ProbeTrack7	21	ProbeTrack	1406	SCS215f	733718.448769	733718.451943	8	0.013328	60	10	60-180	60	68	GapExp	0	36	3	3	1	target	1	520	13.328	13.326	13.330
ProbeTrack7	21	ProbeTrack	1406	SCS215f	733718.448769	733718.452005	8	0.013328	60	10	60-180	60	68	GapExp	0	37	3	6	1	target	1	440	13.328	13.323	13.331
ProbeTrack7	21	ProbeTrack	1406	SCS215f	733718.448769	733718.452071	8	0.013328	60	10	60-180	60	171	GapExp	0	38	3	96	0	distractor	1	547	13.328	13.322	13.334
ProbeTrack7	21	ProbeTrack	1406	SCS215f	733718.448769	733718.452166	8	0.013328	60	10	60-180	60	70	GapExp	0	39	3	96	0	distractor	1	613	13.328	13.300	13.355
ProbeTrack7	21	ProbeTrack	1406	SCS215f	733718.448769	733718.452243	8	0.013328	60	10	60-180	60	146	GapExp	0	40	3	3	1	distractor	0	693	13.328	13.318	13.337
ProbeTrack7	21	ProbeTrack	1406	SCS215f	733718.448769	733718.452324	8	0.013328	60	10	60-180	60	114	GapExp	0	41	3	6	1	target	1	667	13.328	13.315	13.341
ProbeTrack7	21	ProbeTrack	1406	SCS215f	733718.448769	733718.452399	8	0.013328	60	10	60-180	60	152	GapExp	0	42	3	96	0	distractor	1	627	13.328	13.322	13.333
ProbeTrack7	21	ProbeTrack	1406	SCS215f	733718.448769	733718.452494	8	0.013328	60	10	60-180	60	144	GapExp	0	43	3	3	1	target	1	787	13.328	13.325	13.330
ProbeTrack7	21	ProbeTrack	1406	SCS215f	733718.448769	733718.452576	8	0.013328	60	10	60-180	60	72	GapExp	0	44	3	6	1	target	1	520	13.328	13.324	13.331
ProbeTrack7	21	ProbeTrack	1406	SCS215f	733718.448769	733718.452638	8	0.013328	60	10	60-180	60	133	GapExp	0	45	3	0	1	target	1	414	13.328	13.316	13.341
ProbeTrack7	21	ProbeTrack	1406	SCS215f	733718.448769	733718.452706	8	0.013328	60	10	60-180	60	173	GapExp	0	46	3	96	1	target	1	627	13.328	13.322	13.333
ProbeTrack7	21	ProbeTrack	1406	SCS215f	733718.448769	733718.452799	8	0.013328	60	10	60-180	60	84	GapExp	0	47	3	6	0	distractor	1	600	13.328	13.326	13.329
ProbeTrack7	21	ProbeTrack	1406	SCS215f	733718.448769	733718.452866	8	0.013328	60	10	60-180	60	177	GapExp	0	48	3	96	1	target	1	547	13.328	13.324	13.331
ProbeTrack7	21	ProbeTrack	1406	SCS215f	733718.448769	733718.452966	8	0.013328	60	10	60-180	60	144	GapExp	0	49	3	0	0	distractor	1	587	13.328	13.322	13.333
ProbeTrack7	21	ProbeTrack	1406	SCS215f	733718.448769	733718.453043	8	0.013328	60	10	60-180	60	91	GapExp	0	50	3	96	1	target	1	480	13.328	13.320	13.336
ProbeTrack7	21	ProbeTrack	1406	SCS215f	733718.448769	733718.453124	8	0.013328	60	10	60-180	60	92	GapExp	0	51	3	6	0	distractor	1	533	13.328	13.323	13.333
ProbeTrack7	21	ProbeTrack	1406	SCS215f	733718.448769	733718.453192	8	0.013328	60	10	60-180	60	103	GapExp	0	52	3	96	0	distractor	1	653	13.328	13.323	13.332
ProbeTrack7	21	ProbeTrack	1406	SCS215f	733718.448769	733718.453281	8	0.013328	60	10	60-180	60	87	GapExp	0	53	3	0	1	distractor	0	547	13.328	13.325	13.330
ProbeTrack7	21	ProbeTrack	1406	SCS215f	733718.448769	733718.453348	8	0.013328	60	10	60-180	60	170	GapExp	0	54	3	0	1	target	1	520	13.328	13.323	13.332
ProbeTrack7	21	ProbeTrack	1406	SCS215f	733718.448769	733718.453428	8	0.013328	60	10	60-180	60	171	GapExp	0	55	3	96	0	distractor	1	640	13.328	13.324	13.332
ProbeTrack7	21	ProbeTrack	1406	SCS215f	733718.448769	733718.453522	8	0.013328	60	10	60-180	60	154	GapExp	0	56	3	0	0	distractor	1	573	13.328	13.324	13.331
ProbeTrack7	21	ProbeTrack	1406	SCS215f	733718.448769	733718.453601	8	0.013328	60	10	60-180	60	110	GapExp	0	57	3	0	1	target	1	840	13.328	13.318	13.339
ProbeTrack7	21	ProbeTrack	1406	SCS215f	733718.448769	733718.453674	8	0.013328	60	10	60-180	60	66	GapExp	0	58	3	3	0	distractor	1	600	13.328	13.327	13.330
ProbeTrack7	21	ProbeTrack	1406	SCS215f	733718.448769	733718.453737	8	0.013328	60	10	60-180	60	151	GapExp	0	59	3	0	1	target	1	440	13.328	13.326	13.330
ProbeTrack7	21	ProbeTrack	1406	SCS215f	733718.448769	733718.453813	8	0.013328	60	10	60-180	60	107	GapExp	0	60	3	3	0	distractor	1	400	13.328	13.327	13.329
ProbeTrack7	21	ProbeTrack	1406	SCS215f	733718.448769	733718.453883	8	0.013328	60	10	60-180	60	127	GapExp	0	61	3	96	0	distractor	1	520	13.328	13.322	13.333
ProbeTrack7	21	ProbeTrack	1406	SCS215f	733718.448769	733718.453973	8	0.013328	60	10	60-180	60	174	GapExp	0	62	3	0	0	target	0	787	13.328	13.323	13.333
ProbeTrack7	21	ProbeTrack	1406	SCS215f	733718.448769	733718.454060	8	0.013328	60	10	60-180	60	110	GapExp	0	63	3	0	1	target	1	933	13.328	13.323	13.332
ProbeTrack7	21	ProbeTrack	1406	SCS215f	733718.448769	733718.454134	8	0.013328	60	10	60-180	60	71	GapExp	0	64	3	3	1	distractor	0	653	13.328	13.323	13.332
ProbeTrack7	21	ProbeTrack	1406	SCS215f	733718.448769	733718.454196	8	0.013328	60	10	60-180	60	64	GapExp	0	65	3	6	1	target	1	493	13.328	13.326	13.330
ProbeTrack7	21	ProbeTrack	1406	SCS215f	733718.448769	733718.454259	8	0.013328	60	10	60-180	60	123	GapExp	0	66	3	96	1	target	1	493	13.328	13.320	13.336
ProbeTrack7	21	ProbeTrack	1406	SCS215f	733718.448769	733718.454344	8	0.013328	60	10	60-180	60	128	GapExp	0	67	3	6	0	distractor	1	680	13.328	13.326	13.330
ProbeTrack7	21	ProbeTrack	1406	SCS215f	733718.448769	733718.454420	8	0.013328	60	10	60-180	60	89	GapExp	0	68	3	3	1	target	1	600	13.328	13.324	13.332
ProbeTrack7	21	ProbeTrack	1406	SCS215f	733718.448769	733718.454487	8	0.013328	60	10	60-180	60	74	GapExp	0	69	3	96	0	distractor	1	653	13.328	13.326	13.330
ProbeTrack7	21	ProbeTrack	1406	SCS215f	733718.448769	733718.454568	8	0.013328	60	10	60-180	60	70	GapExp	0	70	3	6	0	distractor	1	573	13.328	13.327	13.330
ProbeTrack7	21	ProbeTrack	1406	SCS215f	733718.448769	733718.454635	8	0.013328	60	10	60-180	60	118	GapExp	0	71	3	3	0	distractor	1	453	13.328	13.325	13.330
ProbeTrack7	21	ProbeTrack	1406	SCS215f	733718.448769	733718.454706	8	0.013328	60	10	60-180	60	128	GapExp	0	72	3	3	0	distractor	1	547	13.328	13.323	13.332
ProbeTrack7	21	ProbeTrack	1406	SCS215f	733718.448769	733718.454782	8	0.013328	60	10	60-180	60	124	GapExp	0	73	3	0	0	target	0	1053	13.328	13.322	13.334
ProbeTrack7	21	ProbeTrack	1406	SCS215f	733718.448769	733718.454861	8	0.013328	60	10	60-180	60	111	GapExp	0	74	3	6	1	distractor	0	640	13.328	13.315	13.340
ProbeTrack7	21	ProbeTrack	1406	SCS215f	733718.448769	733718.454933	8	0.013328	60	10	60-180	60	118	GapExp	0	75	3	3	1	target	1	787	13.328	13.324	13.332
ProbeTrack7	21	ProbeTrack	1406	SCS215f	733718.448769	733718.455008	8	0.013328	60	10	60-180	60	97	GapExp	0	76	3	3	1	target	1	493	13.328	13.323	13.332
ProbeTrack7	21	ProbeTrack	1406	SCS215f	733718.448769	733718.455074	8	0.013328	60	10	60-180	60	105	GapExp	0	77	3	6	0	distractor	1	667	13.328	13.321	13.334
ProbeTrack7	21	ProbeTrack	1406	SCS215f	733718.448769	733718.455146	8	0.013328	60	10	60-180	60	156	GapExp	0	78	3	96	1	target	1	600	13.328	13.323	13.332
ProbeTrack7	21	ProbeTrack	1406	SCS215f	733718.448769	733718.455239	8	0.013328	60	10	60-180	60	138	GapExp	0	79	3	3	1	distractor	0	587	13.328	13.324	13.332
ProbeTrack7	21	ProbeTrack	1406	SCS215f	733718.448769	733718.455315	8	0.013328	60	10	60-180	60	166	GapExp	0	80	3	0	1	target	1	507	13.328	13.321	13.334
ProbeTrack7	21	ProbeTrack	1406	SCS215f	733718.448769	733718.455393	8	0.013328	60	10	60-180	60	122	GapExp	0	81	3	3	1	target	1	667	13.328	13.314	13.342
ProbeTrack7	21	ProbeTrack	1406	SCS215f	733718.448769	733718.455466	8	0.013328	60	10	60-180	60	126	GapExp	0	82	3	6	0	distractor	1	547	13.328	13.322	13.334
ProbeTrack7	21	ProbeTrack	1406	SCS215f	733718.448769	733718.455539	8	0.013328	60	10	60-180	60	117	GapExp	0	83	3	96	0	distractor	1	493	13.328	13.318	13.338
ProbeTrack7	21	ProbeTrack	1406	SCS215f	733718.448769	733718.455626	8	0.013328	60	10	60-180	60	138	GapExp	0	84	3	96	1	target	1	613	13.328	13.324	13.332
ProbeTrack7	21	ProbeTrack	1406	SCS215f	733718.448769	733718.455716	8	0.013328	60	10	60-180	60	66	GapExp	0	85	3	0	1	target	1	520	13.328	13.323	13.332
ProbeTrack7	21	ProbeTrack	1406	SCS215f	733718.448769	733718.455776	8	0.013328	60	10	60-180	60	134	GapExp	0	86	3	96	1	target	1	613	13.328	13.322	13.333
ProbeTrack7	21	ProbeTrack	1406	SCS215f	733718.448769	733718.455865	8	0.013328	60	10	60-180	60	116	GapExp	0	87	3	0	0	distractor	1	667	13.328	13.319	13.338
ProbeTrack7	21	ProbeTrack	1406	SCS215f	733718.448769	733718.455939	8	0.013328	60	10	60-180	60	141	GapExp	0	88	3	96	0	distractor	1	520	13.328	13.323	13.332
ProbeTrack7	21	ProbeTrack	1406	SCS215f	733718.448769	733718.456028	8	0.013328	60	10	60-180	60	69	GapExp	0	89	3	0	0	distractor	1	667	13.328	13.325	13.332
ProbeTrack7	21	ProbeTrack	1406	SCS215f	733718.448769	733718.456093	8	0.013328	60	10	60-180	60	147	GapExp	0	90	3	0	0	distractor	1	680	13.328	13.323	13.333
ProbeTrack7	21	ProbeTrack	1406	SCS215f	733718.448769	733718.456170	8	0.013328	60	10	60-180	60	168	GapExp	0	91	3	3	0	distractor	1	947	13.328	13.323	13.332
ProbeTrack7	21	ProbeTrack	1406	SCS215f	733718.448769	733718.456253	8	0.013328	60	10	60-180	60	86	GapExp	0	92	3	3	0	distractor	1	587	13.328	13.324	13.331
ProbeTrack7	21	ProbeTrack	1406	SCS215f	733718.448769	733718.456320	8	0.013328	60	10	60-180	60	80	GapExp	0	93	3	96	1	target	1	520	13.328	13.322	13.333
ProbeTrack7	21	ProbeTrack	1406	SCS215f	733718.448769	733718.456404	8	0.013328	60	10	60-180	60	85	GapExp	0	94	3	3	1	distractor	0	453	13.328	13.324	13.332
ProbeTrack7	21	ProbeTrack	1406	SCS215f	733718.448769	733718.456472	8	0.013328	60	10	60-180	60	141	GapExp	0	95	3	3	0	distractor	1	520	13.328	13.323	13.333
ProbeTrack7	21	ProbeTrack	1406	SCS215f	733718.448769	733718.456544	8	0.013328	60	10	60-180	60	152	GapExp	0	96	3	96	0	32	-3	760	13.328	13.324	13.333
ProbeTrack7	21	ProbeTrack	1406	SCS215f	733718.448769	733718.456636	8	0.013328	60	10	60-180	60	151	GapExp	0	97	3	0	1	distractor	0	640	13.328	13.323	13.334
ProbeTrack7	21	ProbeTrack	1406	SCS215f	733718.448769	733718.456715	8	0.013328	60	10	60-180	60	160	GapExp	0	98	3	3	0	distractor	1	827	13.328	13.322	13.334
ProbeTrack7	21	ProbeTrack	1406	SCS215f	733718.448769	733718.456797	8	0.013328	60	10	60-180	60	153	GapExp	0	99	3	3	0	distractor	1	533	13.328	13.318	13.337
ProbeTrack7	21	ProbeTrack	1406	SCS215f	733718.448769	733718.456874	8	0.013328	60	10	60-180	60	179	GapExp	0	100	3	0	1	target	1	667	13.328	13.322	13.333
ProbeTrack7	21	ProbeTrack	1406	SCS215f	733718.448769	733718.456957	8	0.013328	60	10	60-180	60	87	GapExp	0	101	3	0	1	target	1	680	13.328	13.323	13.332
ProbeTrack7	21	ProbeTrack	1406	SCS215f	733718.448769	733718.457025	8	0.013328	60	10	60-180	60	169	GapExp	0	102	3	6	1	target	1	827	13.328	13.323	13.332
ProbeTrack7	21	ProbeTrack	1406	SCS215f	733718.448769	733718.457107	8	0.013328	60	10	60-180	60	123	GapExp	0	103	3	6	1	target	1	507	13.328	13.322	13.333
ProbeTrack7	21	ProbeTrack	1406	SCS215f	733718.448769	733718.457181	8	0.013328	60	10	60-180	60	102	GapExp	0	104	3	3	1	target	1	414	13.328	13.322	13.333
ProbeTrack7	21	ProbeTrack	1406	SCS215f	733718.448769	733718.457248	8	0.013328	60	10	60-180	60	87	GapExp	0	105	3	96	0	distractor	1	720	13.328	13.323	13.332
ProbeTrack7	21	ProbeTrack	1406	SCS215f	733718.448769	733718.457333	8	0.013328	60	10	60-180	60	143	GapExp	0	106	3	3	0	distractor	1	627	13.328	13.322	13.333
ProbeTrack7	21	ProbeTrack	1406	SCS215f	733718.448769	733718.457411	8	0.013328	60	10	60-180	60	96	GapExp	0	107	3	6	1	distractor	0	480	13.328	13.326	13.330
ProbeTrack7	21	ProbeTrack	1406	SCS215f	733718.448769	733718.457476	8	0.013328	60	10	60-180	60	154	GapExp	0	108	3	3	0	target	0	467	13.328	13.322	13.333
ProbeTrack7	21	ProbeTrack	1406	SCS215f	733718.448769	733718.457557	8	0.013328	60	10	60-180	60	148	GapExp	0	109	3	0	0	target	0	694	13.328	13.323	13.332
ProbeTrack7	21	ProbeTrack	1406	SCS215f	733718.448769	733718.457640	8	0.013328	60	10	60-180	60	117	GapExp	0	110	3	96	1	target	1	627	13.328	13.323	13.332
ProbeTrack7	21	ProbeTrack	1406	SCS215f	733718.448769	733718.457727	8	0.013328	60	10	60-180	60	163	GapExp	0	111	3	0	1	target	1	533	13.328	13.322	13.333
ProbeTrack7	21	ProbeTrack	1406	SCS215f	733718.448769	733718.457805	8	0.013328	60	10	60-180	60	127	GapExp	0	112	3	96	1	target	1	533	13.328	13.316	13.338
ProbeTrack7	21	ProbeTrack	1406	SCS215f	733718.448769	733718.457895	8	0.013328	60	10	60-180	60	82	GapExp	0	113	3	6	0	distractor	1	693	13.328	13.322	13.334
ProbeTrack7	21	ProbeTrack	1406	SCS215f	733718.448769	733718.457961	8	0.013328	60	10	60-180	60	85	GapExp	0	114	3	96	1	target	1	453	13.328	13.324	13.333
ProbeTrack7	21	ProbeTrack	1406	SCS215f	733718.448769	733718.458045	8	0.013328	60	10	60-180	60	138	GapExp	0	115	3	6	0	distractor	1	613	13.328	13.323	13.332
ProbeTrack7	21	ProbeTrack	1406	SCS215f	733718.448769	733718.458120	8	0.013328	60	10	60-180	60	77	GapExp	0	116	3	0	0	distractor	1	667	13.328	13.326	13.330
ProbeTrack7	21	ProbeTrack	1406	SCS215f	733718.448769	733718.458190	8	0.013328	60	10	60-180	60	100	GapExp	0	117	3	6	0	distractor	1	533	13.328	13.326	13.330
ProbeTrack7	21	ProbeTrack	1406	SCS215f	733718.448769	733718.458260	8	0.013328	60	10	60-180	60	124	GapExp	0	118	3	3	1	target	1	733	13.328	13.320	13.334
ProbeTrack7	21	ProbeTrack	1406	SCS215f	733718.448769	733718.458334	8	0.013328	60	10	60-180	60	162	GapExp	0	119	3	96	0	distractor	1	653	13.328	13.322	13.334
ProbeTrack7	21	ProbeTrack	1406	SCS215f	733718.448769	733718.458429	8	0.013328	60	10	60-180	60	155	GapExp	0	120	3	0	0	distractor	1	600	13.328	13.320	13.335
ProbeTrack7	21	ProbeTrack	1406	SCS215f	733718.448769	733718.458507	8	0.013328	60	10	60-180	60	86	GapExp	0	121	3	0	1	target	1	507	13.328	13.327	13.329
ProbeTrack7	21	ProbeTrack	1406	SCS215f	733718.448769	733718.458572	8	0.013328	60	10	60-180	60	116	GapExp	0	122	3	6	0	distractor	1	493	13.328	13.325	13.330
ProbeTrack7	21	ProbeTrack	1406	SCS215f	733718.448769	733718.458642	8	0.013328	60	10	60-180	60	151	GapExp	0	123	3	0	1	target	1	467	13.328	13.321	13.334
ProbeTrack7	21	ProbeTrack	1406	SCS215f	733718.448769	733718.458719	8	0.013328	60	10	60-180	60	91	GapExp	0	124	3	96	1	target	1	693	13.328	13.320	13.335
ProbeTrack7	21	ProbeTrack	1406	SCS215f	733718.448769	733718.458806	8	0.013328	60	10	60-180	60	69	GapExp	0	125	3	0	0	distractor	1	560	13.328	13.323	13.332
ProbeTrack7	21	ProbeTrack	1406	SCS215f	733718.459442	733718.459511	8	0.013328	60	10	60-180	60	83	GapPrac	1	1	4	3	1	target	1	707	13.328	13.322	13.333
ProbeTrack7	21	ProbeTrack	1406	SCS215f	733718.459442	733718.459706	8	0.013328	60	10	60-180	60	153	GapPrac	1	2	4	0	0	distractor	1	600	13.328	13.325	13.330
ProbeTrack7	21	ProbeTrack	1406	SCS215f	733718.459442	733718.459783	8	0.013328	60	10	60-180	60	157	GapPrac	1	3	4	96	0	distractor	1	667	13.328	13.324	13.333
ProbeTrack7	21	ProbeTrack	1406	SCS215f	733718.459442	733718.459878	8	0.013328	60	10	60-180	60	133	GapPrac	1	4	4	0	1	target	1	400	13.328	13.324	13.331
ProbeTrack7	21	ProbeTrack	1406	SCS215f	733718.459442	733718.459951	8	0.013328	60	10	60-180	60	88	GapPrac	1	5	4	3	0	target	0	520	13.328	13.323	13.332
ProbeTrack7	21	ProbeTrack	1406	SCS215f	733718.459442	733718.460015	8	0.013328	60	10	60-180	60	94	GapPrac	1	6	4	3	1	target	1	493	13.328	13.325	13.330
ProbeTrack7	21	ProbeTrack	1406	SCS215f	733718.459442	733718.460081	8	0.013328	60	10	60-180	60	154	GapPrac	1	7	4	3	1	target	1	467	13.328	13.323	13.333
ProbeTrack7	21	ProbeTrack	1406	SCS215f	733718.459442	733718.460156	8	0.013328	60	10	60-180	60	125	GapPrac	1	8	4	3	0	distractor	1	374	13.328	13.324	13.331
ProbeTrack7	21	ProbeTrack	1406	SCS215f	733718.459442	733718.460231	8	0.013328	60	10	60-180	60	163	GapPrac	1	9	4	96	0	distractor	1	733	13.328	13.322	13.333
ProbeTrack7	21	ProbeTrack	1406	SCS215f	733718.459442	733718.460326	8	0.013328	60	10	60-180	60	111	GapPrac	1	10	4	0	1	target	1	533	13.328	13.323	13.332
ProbeTrack7	21	ProbeTrack	1406	SCS215f	733718.459442	733718.460397	8	0.013328	60	10	60-180	60	99	GapPrac	1	11	4	96	0	target	0	720	13.328	13.314	13.342
ProbeTrack7	21	ProbeTrack	1406	SCS215f	733718.459442	733718.460482	8	0.013328	60	10	60-180	60	98	GapPrac	1	12	4	0	0	distractor	1	613	13.328	13.323	13.332
ProbeTrack7	21	ProbeTrack	1406	SCS215f	733718.459442	733718.460548	8	0.013328	60	10	60-180	60	67	GapPrac	1	13	4	0	0	target	0	853	13.328	13.322	13.333
ProbeTrack7	21	ProbeTrack	1406	SCS215f	733718.459442	733718.460616	8	0.013328	60	10	60-180	60	84	GapPrac	1	14	4	6	1	distractor	0	853	13.328	13.322	13.334
ProbeTrack7	21	ProbeTrack	1406	SCS215f	733718.459442	733718.460687	8	0.013328	60	10	60-180	60	114	GapPrac	1	15	4	6	1	target	1	507	13.328	13.323	13.331
ProbeTrack7	21	ProbeTrack	1406	SCS215f	733718.459442	733718.460757	8	0.013328	60	10	60-180	60	170	GapPrac	1	16	4	6	0	distractor	1	533	13.328	13.325	13.330
ProbeTrack7	21	ProbeTrack	1406	SCS215f	733718.459442	733718.460838	8	0.013328	60	10	60-180	60	88	GapPrac	1	17	4	6	0	distractor	1	1066	13.328	13.321	13.335
ProbeTrack7	21	ProbeTrack	1406	SCS215f	733718.459442	733718.460913	8	0.013328	60	10	60-180	60	65	GapPrac	1	18	4	96	1	target	1	547	13.328	13.320	13.335
ProbeTrack7	21	ProbeTrack	1406	SCS215f	733718.459442	733718.460991	8	0.013328	60	10	60-180	60	143	GapPrac	1	19	4	96	1	target	1	573	13.328	13.326	13.330
ProbeTrack7	21	ProbeTrack	1406	SCS215f	733718.459442	733718.461081	8	0.013328	60	10	60-180	60	151	GapPrac	1	20	4	0	1	target	1	414	13.328	13.323	13.330
ProbeTrack7	21	ProbeTrack	1406	SCS215f	733718.461515	733718.461590	8	0.013328	60	10	60-180	60	164	GapExp	1	1	4	3	1	target	1	667	13.328	13.325	13.332
ProbeTrack7	21	ProbeTrack	1406	SCS215f	733718.461515	733718.461704	8	0.013328	60	10	60-180	60	86	GapExp	1	2	4	0	0	target	0	787	13.328	13.307	13.348
ProbeTrack7	21	ProbeTrack	1406	SCS215f	733718.461515	733718.461775	8	0.013328	60	10	60-180	60	76	GapExp	1	3	4	96	0	distractor	1	800	13.328	13.325	13.331
ProbeTrack7	21	ProbeTrack	1406	SCS215f	733718.461515	733718.461857	8	0.013328	60	10	60-180	60	86	GapExp	1	4	4	0	1	target	1	480	13.328	13.325	13.331
ProbeTrack7	21	ProbeTrack	1406	SCS215f	733718.461515	733718.461921	8	0.013328	60	10	60-180	60	157	GapExp	1	5	4	3	0	target	0	720	13.328	13.323	13.332
ProbeTrack7	21	ProbeTrack	1406	SCS215f	733718.461515	733718.462000	8	0.013328	60	10	60-180	60	118	GapExp	0	6	4	0	1	target	1	480	13.328	13.322	13.333
ProbeTrack7	21	ProbeTrack	1406	SCS215f	733718.461515	733718.462069	8	0.013328	60	10	60-180	60	67	GapExp	0	7	4	96	0	distractor	1	507	13.328	13.322	13.333
ProbeTrack7	21	ProbeTrack	1406	SCS215f	733718.461515	733718.462148	8	0.013328	60	10	60-180	60	99	GapExp	0	8	4	6	0	distractor	1	520	13.328	13.325	13.331
ProbeTrack7	21	ProbeTrack	1406	SCS215f	733718.461515	733718.462218	8	0.013328	60	10	60-180	60	86	GapExp	0	9	4	6	0	target	0	493	13.328	13.326	13.330
ProbeTrack7	21	ProbeTrack	1406	SCS215f	733718.461515	733718.462285	8	0.013328	60	10	60-180	60	136	GapExp	0	10	4	6	1	target	1	467	13.328	13.326	13.330
ProbeTrack7	21	ProbeTrack	1406	SCS215f	733718.461515	733718.462359	8	0.013328	60	10	60-180	60	71	GapExp	0	11	4	3	1	target	1	547	13.328	13.323	13.331
ProbeTrack7	21	ProbeTrack	1406	SCS215f	733718.461515	733718.462424	8	0.013328	60	10	60-180	60	146	GapExp	0	12	4	0	0	distractor	1	707	13.328	13.323	13.332
ProbeTrack7	21	ProbeTrack	1406	SCS215f	733718.461515	733718.462502	8	0.013328	60	10	60-180	60	113	GapExp	0	13	4	96	1	target	1	480	13.328	13.323	13.332
ProbeTrack7	21	ProbeTrack	1406	SCS215f	733718.461515	733718.462587	8	0.013328	60	10	60-180	60	137	GapExp	0	14	4	6	1	target	1	480	13.328	13.322	13.333
ProbeTrack7	21	ProbeTrack	1406	SCS215f	733718.461515	733718.462660	8	0.013328	60	10	60-180	60	172	GapExp	0	15	4	0	0	target	0	573	13.328	13.322	13.332
ProbeTrack7	21	ProbeTrack	1406	SCS215f	733718.461515	733718.462739	8	0.013328	60	10	60-180	60	76	GapExp	0	16	4	6	1	target	1	507	13.328	13.322	13.333
ProbeTrack7	21	ProbeTrack	1406	SCS215f	733718.461515	733718.462807	8	0.013328	60	10	60-180	60	172	GapExp	0	17	4	3	0	distractor	1	587	13.328	13.326	13.330
ProbeTrack7	21	ProbeTrack	1406	SCS215f	733718.461515	733718.462888	8	0.013328	60	10	60-180	60	132	GapExp	0	18	4	96	0	distractor	1	693	13.328	13.323	13.333
ProbeTrack7	21	ProbeTrack	1406	SCS215f	733718.461515	733718.462977	8	0.013328	60	10	60-180	60	95	GapExp	0	19	4	96	1	target	1	507	13.328	13.322	13.333
ProbeTrack7	21	ProbeTrack	1406	SCS215f	733718.461515	733718.463058	8	0.013328	60	10	60-180	60	80	GapExp	0	20	4	96	1	distractor	0	640	13.328	13.323	13.332
ProbeTrack7	21	ProbeTrack	1406	SCS215f	733718.461515	733718.463138	8	0.013328	60	10	60-180	60	98	GapExp	0	21	4	6	1	target	1	493	13.328	13.323	13.331
ProbeTrack7	21	ProbeTrack	1406	SCS215f	733718.461515	733718.463214	8	0.013328	60	10	60-180	60	74	GapExp	0	22	4	96	1	distractor	0	467	13.328	13.318	13.337
ProbeTrack7	21	ProbeTrack	1406	SCS215f	733718.461515	733718.463309	8	0.013328	60	10	60-180	60	89	GapExp	0	23	4	6	0	distractor	1	613	13.328	13.324	13.332
ProbeTrack7	21	ProbeTrack	1406	SCS215f	733718.461515	733718.463375	8	0.013328	60	10	60-180	60	126	GapExp	0	24	4	3	1	distractor	0	627	13.328	13.326	13.330
ProbeTrack7	21	ProbeTrack	1406	SCS215f	733718.461515	733718.463447	8	0.013328	60	10	60-180	60	81	GapExp	0	25	4	3	0	distractor	1	627	13.328	13.326	13.330
ProbeTrack7	21	ProbeTrack	1406	SCS215f	733718.461515	733718.463513	8	0.013328	60	10	60-180	60	101	GapExp	0	26	4	3	1	target	1	573	13.328	13.321	13.335
ProbeTrack7	21	ProbeTrack	1406	SCS215f	733718.461515	733718.463582	8	0.013328	60	10	60-180	60	163	GapExp	0	27	4	96	1	target	1	680	13.328	13.323	13.332
ProbeTrack7	21	ProbeTrack	1406	SCS215f	733718.461515	733718.463677	8	0.013328	60	10	60-180	60	105	GapExp	0	28	4	96	0	target	0	533	13.328	13.324	13.331
ProbeTrack7	21	ProbeTrack	1406	SCS215f	733718.461515	733718.463760	8	0.013328	60	10	60-180	60	73	GapExp	0	29	4	0	1	target	1	560	13.328	13.324	13.332
ProbeTrack7	21	ProbeTrack	1406	SCS215f	733718.461515	733718.463827	8	0.013328	60	10	60-180	60	98	GapExp	0	30	4	6	0	distractor	1	560	13.328	13.315	13.340
ProbeTrack7	21	ProbeTrack	1406	SCS215f	733718.461515	733718.463898	8	0.013328	60	10	60-180	60	125	GapExp	0	31	4	96	0	distractor	1	1053	13.328	13.322	13.333
ProbeTrack7	21	ProbeTrack	1406	SCS215f	733718.461515	733718.463990	8	0.013328	60	10	60-180	60	104	GapExp	0	32	4	96	0	target	0	760	13.328	13.322	13.332
ProbeTrack7	21	ProbeTrack	1406	SCS215f	733718.461515	733718.464077	8	0.013328	60	10	60-180	60	120	GapExp	0	33	4	3	1	target	1	640	13.328	13.322	13.334
ProbeTrack7	21	ProbeTrack	1406	SCS215f	733718.461515	733718.464148	8	0.013328	60	10	60-180	60	128	GapExp	0	34	4	96	1	target	1	627	13.328	13.323	13.333
ProbeTrack7	21	ProbeTrack	1406	SCS215f	733718.461515	733718.464235	8	0.013328	60	10	60-180	60	150	GapExp	0	35	4	3	1	target	1	667	13.328	13.322	13.333
ProbeTrack7	21	ProbeTrack	1406	SCS215f	733718.461515	733718.464313	8	0.013328	60	10	60-180	60	166	GapExp	0	36	4	3	1	target	1	533	13.328	13.323	13.332
ProbeTrack7	21	ProbeTrack	1406	SCS215f	733718.461515	733718.464389	8	0.013328	60	10	60-180	60	99	GapExp	0	37	4	96	0	distractor	1	693	13.328	13.323	13.332
ProbeTrack7	21	ProbeTrack	1406	SCS215f	733718.461515	733718.464474	8	0.013328	60	10	60-180	60	165	GapExp	0	38	4	0	1	target	1	440	13.328	13.323	13.332
ProbeTrack7	21	ProbeTrack	1406	SCS215f	733718.461515	733718.464549	8	0.013328	60	10	60-180	60	115	GapExp	0	39	4	96	1	target	1	573	13.328	13.322	13.334
ProbeTrack7	21	ProbeTrack	1406	SCS215f	733718.461515	733718.464638	8	0.013328	60	10	60-180	60	67	GapExp	0	40	4	0	0	distractor	1	680	13.328	13.323	13.333
ProbeTrack7	21	ProbeTrack	1406	SCS215f	733718.461515	733718.464703	8	0.013328	60	10	60-180	60	82	GapExp	0	41	4	6	1	target	1	653	13.328	13.326	13.330
ProbeTrack7	21	ProbeTrack	1406	SCS215f	733718.461515	733718.464768	8	0.013328	60	10	60-180	60	174	GapExp	0	42	4	3	0	target	0	627	13.328	13.323	13.333
ProbeTrack7	21	ProbeTrack	1406	SCS215f	733718.461515	733718.464849	8	0.013328	60	10	60-180	60	152	GapExp	0	43	4	96	0	target	0	347	13.328	13.324	13.332
ProbeTrack7	21	ProbeTrack	1406	SCS215f	733718.461515	733718.465104	8	0.013328	60	10	60-180	60	63	GapExp	0	44	4	0	1	target	1	627	13.328	13.326	13.330
ProbeTrack7	21	ProbeTrack	1406	SCS215f	733718.461515	733718.465167	8	0.013328	60	10	60-180	60	152	GapExp	0	45	4	96	0	distractor	1	920	13.328	13.325	13.331
ProbeTrack7	21	ProbeTrack	1406	SCS215f	733718.461515	733718.465261	8	0.013328	60	10	60-180	60	76	GapExp	0	46	4	3	1	target	1	507	13.328	13.324	13.330
ProbeTrack7	21	ProbeTrack	1406	SCS215f	733718.461515	733718.465325	8	0.013328	60	10	60-180	60	135	GapExp	0	47	4	0	0	target	0	733	13.328	13.322	13.332
ProbeTrack7	21	ProbeTrack	1406	SCS215f	733718.461515	733718.465401	8	0.013328	60	10	60-180	60	92	GapExp	0	48	4	0	0	distractor	1	787	13.328	13.323	13.334
ProbeTrack7	21	ProbeTrack	1406	SCS215f	733718.461515	733718.465470	8	0.013328	60	10	60-180	60	140	GapExp	0	49	4	0	0	target	0	453	13.328	13.323	13.332
ProbeTrack7	21	ProbeTrack	1406	SCS215f	733718.461515	733718.465543	8	0.013328	60	10	60-180	60	132	GapExp	0	50	4	6	0	distractor	1	573	13.328	13.326	13.330
ProbeTrack7	21	ProbeTrack	1406	SCS215f	733718.461515	733718.465615	8	0.013328	60	10	60-180	60	105	GapExp	0	51	4	6	1	distractor	0	453	13.328	13.326	13.329
ProbeTrack7	21	ProbeTrack	1406	SCS215f	733718.461515	733718.465683	8	0.013328	60	10	60-180	60	124	GapExp	0	52	4	0	0	distractor	1	573	13.328	13.323	13.333
ProbeTrack7	21	ProbeTrack	1406	SCS215f	733718.461515	733718.465756	8	0.013328	60	10	60-180	60	127	GapExp	0	53	4	3	1	target	1	440	13.328	13.323	13.332
ProbeTrack7	21	ProbeTrack	1406	SCS215f	733718.461515	733718.465830	8	0.013328	60	10	60-180	60	127	GapExp	0	54	4	3	0	distractor	1	587	13.328	13.322	13.333
ProbeTrack7	21	ProbeTrack	1406	SCS215f	733718.461515	733718.465902	8	0.013328	60	10	60-180	60	86	GapExp	0	55	4	6	1	distractor	0	533	13.328	13.322	13.334
ProbeTrack7	21	ProbeTrack	1406	SCS215f	733718.461515	733718.465970	8	0.013328	60	10	60-180	60	173	GapExp	0	56	4	3	1	target	1	720	13.328	13.323	13.334
ProbeTrack7	21	ProbeTrack	1406	SCS215f	733718.461515	733718.466062	8	0.013328	60	10	60-180	60	136	GapExp	0	57	4	0	1	target	1	414	13.328	13.323	13.333
ProbeTrack7	21	ProbeTrack	1406	SCS215f	733718.461515	733718.466132	8	0.013328	60	10	60-180	60	166	GapExp	0	58	4	6	0	distractor	1	453	13.328	13.326	13.329
ProbeTrack7	21	ProbeTrack	1406	SCS215f	733718.461515	733718.466206	8	0.013328	60	10	60-180	60	132	GapExp	0	59	4	0	1	target	1	440	13.328	13.326	13.330
ProbeTrack7	21	ProbeTrack	1406	SCS215f	733718.461515	733718.466275	8	0.013328	60	10	60-180	60	174	GapExp	0	60	4	3	0	distractor	1	467	13.328	13.322	13.333
ProbeTrack7	21	ProbeTrack	1406	SCS215f	733718.461515	733718.466353	8	0.013328	60	10	60-180	60	149	GapExp	0	61	4	6	1	target	1	493	13.328	13.323	13.333
ProbeTrack7	21	ProbeTrack	1406	SCS215f	733718.461515	733718.466430	8	0.013328	60	10	60-180	60	65	GapExp	0	62	4	6	1	target	1	573	13.328	13.323	13.333
ProbeTrack7	21	ProbeTrack	1406	SCS215f	733718.461515	733718.466489	8	0.013328	60	10	60-180	60	145	GapExp	0	63	4	0	1	target	1	467	13.328	13.324	13.332
ProbeTrack7	21	ProbeTrack	1406	SCS215f	733718.461515	733718.466560	8	0.013328	60	10	60-180	60	130	GapExp	0	64	4	0	1	target	1	427	13.328	13.326	13.329
ProbeTrack7	21	ProbeTrack	1406	SCS215f	733718.461515	733718.466630	8	0.013328	60	10	60-180	60	137	GapExp	0	65	4	6	1	target	1	480	13.328	13.318	13.337
ProbeTrack7	21	ProbeTrack	1406	SCS215f	733718.461515	733718.466707	8	0.013328	60	10	60-180	60	78	GapExp	0	66	4	0	0	target	0	680	13.328	13.326	13.330
ProbeTrack7	21	ProbeTrack	1406	SCS215f	733718.461515	733718.466783	8	0.013328	60	10	60-180	60	167	GapExp	0	67	4	96	1	target	1	640	13.328	13.321	13.334
ProbeTrack7	21	ProbeTrack	1406	SCS215f	733718.461515	733718.466878	8	0.013328	60	10	60-180	60	104	GapExp	0	68	4	0	1	target	1	440	13.328	13.324	13.332
ProbeTrack7	21	ProbeTrack	1406	SCS215f	733718.461515	733718.466945	8	0.013328	60	10	60-180	60	137	GapExp	0	69	4	6	0	distractor	1	533	13.328	13.324	13.331
ProbeTrack7	21	ProbeTrack	1406	SCS215f	733718.461515	733718.467020	8	0.013328	60	10	60-180	60	147	GapExp	0	70	4	3	0	distractor	1	560	13.328	13.324	13.332
ProbeTrack7	21	ProbeTrack	1406	SCS215f	733718.461515	733718.467097	8	0.013328	60	10	60-180	60	93	GapExp	0	71	4	96	1	target	1	840	13.328	13.323	13.332
ProbeTrack7	21	ProbeTrack	1406	SCS215f	733718.461515	733718.467183	8	0.013328	60	10	60-180	60	87	GapExp	0	72	4	0	1	target	1	667	13.328	13.323	13.332
ProbeTrack7	21	ProbeTrack	1406	SCS215f	733718.461515	733718.467251	8	0.013328	60	10	60-180	60	148	GapExp	0	73	4	3	1	target	1	560	13.328	13.322	13.333
ProbeTrack7	21	ProbeTrack	1406	SCS215f	733718.461515	733718.467325	8	0.013328	60	10	60-180	60	73	GapExp	0	74	4	6	0	distractor	1	547	13.328	13.326	13.330
ProbeTrack7	21	ProbeTrack	1406	SCS215f	733718.461515	733718.467387	8	0.013328	60	10	60-180	60	63	GapExp	0	75	4	6	0	target	0	454	13.328	13.326	13.330
ProbeTrack7	21	ProbeTrack	1406	SCS215f	733718.461515	733718.467451	8	0.013328	60	10	60-180	60	63	GapExp	0	76	4	0	0	distractor	1	547	13.328	13.324	13.332
ProbeTrack7	21	ProbeTrack	1406	SCS215f	733718.461515	733718.467512	8	0.013328	60	10	60-180	60	106	GapExp	0	77	4	96	0	target	0	680	13.328	13.324	13.332
ProbeTrack7	21	ProbeTrack	1406	SCS215f	733718.461515	733718.467596	8	0.013328	60	10	60-180	60	180	GapExp	0	78	4	3	0	distractor	1	547	13.328	13.323	13.333
ProbeTrack7	21	ProbeTrack	1406	SCS215f	733718.461515	733718.467676	8	0.013328	60	10	60-180	60	136	GapExp	0	79	4	96	0	distractor	1	787	13.328	13.324	13.332
ProbeTrack7	21	ProbeTrack	1406	SCS215f	733718.461515	733718.467768	8	0.013328	60	10	60-180	60	61	GapExp	0	80	4	96	0	target	0	573	13.328	13.322	13.334
ProbeTrack7	21	ProbeTrack	1406	SCS215f	733718.461515	733718.467847	8	0.013328	60	10	60-180	60	158	GapExp	0	81	4	3	1	target	1	467	13.328	13.324	13.332
ProbeTrack7	21	ProbeTrack	1406	SCS215f	733718.461515	733718.467927	8	0.013328	60	10	60-180	60	157	GapExp	0	82	4	96	0	distractor	1	720	13.328	13.322	13.333
ProbeTrack7	21	ProbeTrack	1406	SCS215f	733718.461515	733718.468019	8	0.013328	60	10	60-180	60	67	GapExp	0	83	4	3	0	target	0	693	13.328	13.312	13.343
ProbeTrack7	21	ProbeTrack	1406	SCS215f	733718.461515	733718.468084	8	0.013328	60	10	60-180	60	175	GapExp	0	84	4	96	0	distractor	1	627	13.328	13.324	13.332
ProbeTrack7	21	ProbeTrack	1406	SCS215f	733718.461515	733718.468184	8	0.013328	60	10	60-180	60	105	GapExp	0	85	4	3	0	target	0	573	13.328	13.325	13.332
ProbeTrack7	21	ProbeTrack	1406	SCS215f	733718.461515	733718.468283	8	0.013328	60	10	60-180	60	135	GapExp	0	86	4	3	1	target	1	520	13.328	13.311	13.344
ProbeTrack7	21	ProbeTrack	1406	SCS215f	733718.461515	733718.468355	8	0.013328	60	10	60-180	60	98	GapExp	0	87	4	96	1	target	1	653	13.328	13.323	13.332
ProbeTrack7	21	ProbeTrack	1406	SCS215f	733718.461515	733718.468437	8	0.013328	60	10	60-180	60	127	GapExp	0	88	4	6	0	target	0	494	13.328	13.324	13.332
ProbeTrack7	21	ProbeTrack	1406	SCS215f	733718.461515	733718.468511	8	0.013328	60	10	60-180	60	145	GapExp	0	89	4	6	1	target	1	840	13.328	13.323	13.333
ProbeTrack7	21	ProbeTrack	1406	SCS215f	733718.461515	733718.468591	8	0.013328	60	10	60-180	60	121	GapExp	0	90	4	96	1	target	1	747	13.328	13.320	13.336
ProbeTrack7	21	ProbeTrack	1406	SCS215f	733718.461515	733718.468678	8	0.013328	60	10	60-180	60	70	GapExp	0	91	4	96	1	target	1	547	13.328	13.322	13.334
ProbeTrack7	21	ProbeTrack	1406	SCS215f	733718.461515	733718.468758	8	0.013328	60	10	60-180	60	66	GapExp	0	92	4	0	0	target	0	400	13.328	13.323	13.333
ProbeTrack7	21	ProbeTrack	1406	SCS215f	733718.461515	733718.468818	8	0.013328	60	10	60-180	60	157	GapExp	0	93	4	3	0	distractor	1	653	13.328	13.322	13.333
ProbeTrack7	21	ProbeTrack	1406	SCS215f	733718.461515	733718.468935	8	0.013328	60	10	60-180	60	176	GapExp	0	94	4	6	1	target	1	360	13.328	13.323	13.333
ProbeTrack7	21	ProbeTrack	1406	SCS215f	733718.461515	733718.469017	8	0.013328	60	10	60-180	60	117	GapExp	0	95	4	96	1	distractor	0	480	13.328	13.324	13.332
ProbeTrack7	21	ProbeTrack	1406	SCS215f	733718.461515	733718.469104	8	0.013328	60	10	60-180	60	151	GapExp	0	96	4	6	0	distractor	1	480	13.328	13.323	13.334
ProbeTrack7	21	ProbeTrack	1406	SCS215f	733718.461515	733718.469182	8	0.013328	60	10	60-180	60	136	GapExp	0	97	4	0	1	target	1	573	13.328	13.322	13.333
ProbeTrack7	21	ProbeTrack	1406	SCS215f	733718.461515	733718.469259	8	0.013328	60	10	60-180	60	148	GapExp	0	98	4	3	1	target	1	520	13.328	13.323	13.332
ProbeTrack7	21	ProbeTrack	1406	SCS215f	733718.461515	733718.469334	8	0.013328	60	10	60-180	60	65	GapExp	0	99	4	6	0	target	0	520	13.328	13.326	13.330
ProbeTrack7	21	ProbeTrack	1406	SCS215f	733718.461515	733718.469399	8	0.013328	60	10	60-180	60	173	GapExp	0	100	4	3	0	distractor	1	520	13.328	13.323	13.333
ProbeTrack7	21	ProbeTrack	1406	SCS215f	733718.461515	733718.469477	8	0.013328	60	10	60-180	60	89	GapExp	0	101	4	0	1	target	1	507	13.328	13.323	13.332
ProbeTrack7	21	ProbeTrack	1406	SCS215f	733718.461515	733718.469544	8	0.013328	60	10	60-180	60	145	GapExp	0	102	4	96	1	distractor	0	720	13.328	13.322	13.333
ProbeTrack7	21	ProbeTrack	1406	SCS215f	733718.461515	733718.469636	8	0.013328	60	10	60-180	60	73	GapExp	0	103	4	96	1	target	1	374	13.328	13.321	13.335
ProbeTrack7	21	ProbeTrack	1406	SCS215f	733718.461515	733718.469712	8	0.013328	60	10	60-180	60	162	GapExp	0	104	4	6	0	distractor	1	427	13.328	13.322	13.334
ProbeTrack7	21	ProbeTrack	1406	SCS215f	733718.461515	733718.469788	8	0.013328	60	10	60-180	60	151	GapExp	0	105	4	3	0	distractor	1	520	13.328	13.323	13.331
ProbeTrack7	21	ProbeTrack	1406	SCS215f	733718.461515	733718.469863	8	0.013328	60	10	60-180	60	70	GapExp	0	106	4	6	0	distractor	1	507	13.328	13.324	13.333
ProbeTrack7	21	ProbeTrack	1406	SCS215f	733718.461515	733718.469927	8	0.013328	60	10	60-180	60	62	GapExp	0	107	4	0	0	distractor	1	547	13.328	13.324	13.331
ProbeTrack7	21	ProbeTrack	1406	SCS215f	733718.461515	733718.469992	8	0.013328	60	10	60-180	60	120	GapExp	0	108	4	0	1	target	1	520	13.328	13.325	13.330
ProbeTrack7	21	ProbeTrack	1406	SCS215f	733718.461515	733718.470093	8	0.013328	60	10	60-180	60	67	GapExp	0	109	4	6	1	target	1	520	13.328	13.324	13.332
ProbeTrack7	21	ProbeTrack	1406	SCS215f	733718.461515	733718.470157	8	0.013328	60	10	60-180	60	79	GapExp	0	110	4	96	0	distractor	1	693	13.328	13.324	13.332
ProbeTrack7	21	ProbeTrack	1406	SCS215f	733718.461515	733718.470239	8	0.013328	60	10	60-180	60	175	GapExp	0	111	4	0	0	distractor	1	587	13.328	13.323	13.332
ProbeTrack7	21	ProbeTrack	1406	SCS215f	733718.461515	733718.470320	8	0.013328	60	10	60-180	60	149	GapExp	0	112	4	0	1	target	1	1066	13.328	13.324	13.333
ProbeTrack7	21	ProbeTrack	1406	SCS215f	733718.461515	733718.470401	8	0.013328	60	10	60-180	60	84	GapExp	0	113	4	6	1	target	1	1786	13.328	13.314	13.341
ProbeTrack7	21	ProbeTrack	1406	SCS215f	733718.461515	733718.470482	8	0.013328	60	10	60-180	60	114	GapExp	0	114	4	3	0	distractor	1	667	13.328	13.316	13.339
ProbeTrack7	21	ProbeTrack	1406	SCS215f	733718.461515	733718.470553	8	0.013328	60	10	60-180	60	106	GapExp	0	115	4	0	0	target	0	547	13.328	13.326	13.329
ProbeTrack7	21	ProbeTrack	1406	SCS215f	733718.461515	733718.470620	8	0.013328	60	10	60-180	60	78	GapExp	0	116	4	0	1	target	1	600	13.328	13.325	13.331
ProbeTrack7	21	ProbeTrack	1406	SCS215f	733718.461515	733718.470686	8	0.013328	60	10	60-180	60	127	GapExp	0	117	4	6	1	target	1	453	13.328	13.323	13.333
ProbeTrack7	21	ProbeTrack	1406	SCS215f	733718.461515	733718.470761	8	0.013328	60	10	60-180	60	149	GapExp	0	118	4	3	1	target	1	453	13.328	13.323	13.332
ProbeTrack7	21	ProbeTrack	1406	SCS215f	733718.461515	733718.470837	8	0.013328	60	10	60-180	60	149	GapExp	0	119	4	6	0	distractor	1	547	13.328	13.317	13.338
ProbeTrack7	21	ProbeTrack	1406	SCS215f	733718.461515	733718.470917	8	0.013328	60	10	60-180	60	129	GapExp	0	120	4	3	1	target	1	467	13.328	13.323	13.333
ProbeTrack7	21	ProbeTrack	1406	SCS215f	733718.461515	733718.470991	8	0.013328	60	10	60-180	60	132	GapExp	0	121	4	3	0	target	0	414	13.328	13.326	13.329
ProbeTrack7	21	ProbeTrack	1406	SCS215f	733718.461515	733718.471064	8	0.013328	60	10	60-180	60	147	GapExp	0	122	4	96	0	distractor	1	573	13.328	13.317	13.339
ProbeTrack7	21	ProbeTrack	1406	SCS215f	733718.461515	733718.471156	8	0.013328	60	10	60-180	60	177	GapExp	0	123	4	0	0	distractor	1	573	13.328	13.326	13.330
ProbeTrack7	21	ProbeTrack	1406	SCS215f	733718.461515	733718.471239	8	0.013328	60	10	60-180	60	177	GapExp	0	124	4	0	0	target	0	893	13.328	13.320	13.336
ProbeTrack7	21	ProbeTrack	1406	SCS215f	733718.461515	733718.471322	8	0.013328	60	10	60-180	60	175	GapExp	0	125	4	3	0	target	0	1320	13.328	13.324	13.331
