exp	sub	code	rev	comp	runtime	trialtime	nstim	refreshdur	cuedur	gapdur	gapOnsetRange	durPostProbe	gapOnsetTime	blocktype	prac	trial	ntargets	soa	probeTarget	resp	acc	rt	meanFrameDur	minFrameDur	maxFrameDur
ProbeTrack7	28	ProbeTrack	1406	SCS215b	733725.389319	733725.389933	8	0.013328	60	0	60-180	60	113	NoGap	1	1	4	96	1	target	1	1040	13.328	13.293	13.363
ProbeTrack7	28	ProbeTrack	1406	SCS215b	733725.389319	733725.390156	8	0.013328	60	0	60-180	60	162	NoGap	1	2	4	96	1	distractor	0	387	13.328	13.290	13.366
ProbeTrack7	28	ProbeTrack	1406	SCS215b	733725.389319	733725.390383	8	0.013328	60	0	60-180	60	174	NoGap	1	3	4	3	0	target	0	560	13.328	13.293	13.364
ProbeTrack7	28	ProbeTrack	1406	SCS215b	733725.389319	733725.390535	8	0.013328	60	0	60-180	60	143	NoGap	1	4	4	3	1	target	1	760	13.328	13.293	13.363
ProbeTrack7	28	ProbeTrack	1406	SCS215b	733725.389319	733725.390875	8	0.013328	60	0	60-180	60	102	NoGap	1	5	4	96	0	distractor	1	533	13.328	13.293	13.363
ProbeTrack7	28	ProbeTrack	1406	SCS215b	733725.389319	733725.390994	8	0.013328	60	0	60-180	60	139	NoGap	1	6	4	0	0	distractor	1	987	13.328	13.293	13.363
ProbeTrack7	28	ProbeTrack	1406	SCS215b	733725.389319	733725.391137	8	0.013328	60	0	60-180	60	170	NoGap	1	7	4	3	0	target	0	480	13.328	13.293	13.364
ProbeTrack7	28	ProbeTrack	1406	SCS215b	733725.389319	733725.391353	8	0.013328	60	0	60-180	60	114	NoGap	1	8	4	0	0	distractor	1	747	13.328	13.293	13.363
ProbeTrack7	28	ProbeTrack	1406	SCS215b	733725.389319	733725.391589	8	0.013328	60	0	60-180	60	101	NoGap	1	9	4	96	0	target	0	760	13.328	13.293	13.364
ProbeTrack7	28	ProbeTrack	1406	SCS215b	733725.389319	733725.391781	8	0.013328	60	0	60-180	60	157	NoGap	1	10	4	3	1	target	1	680	13.328	13.293	13.364
ProbeTrack7	28	ProbeTrack	1406	SCS215b	733725.389319	733725.391906	8	0.013328	60	0	60-180	60	157	NoGap	1	11	4	3	1	target	1	454	13.328	13.293	13.363
ProbeTrack7	28	ProbeTrack	1406	SCS215b	733725.389319	733725.391989	8	0.013328	60	0	60-180	60	144	NoGap	1	12	4	3	0	target	0	667	13.328	13.293	13.363
ProbeTrack7	28	ProbeTrack	1406	SCS215b	733725.389319	733725.392176	8	0.013328	60	0	60-180	60	103	NoGap	1	13	4	6	0	target	0	760	13.328	13.293	13.363
ProbeTrack7	28	ProbeTrack	1406	SCS215b	733725.389319	733725.392386	8	0.013328	60	0	60-180	60	155	NoGap	1	14	4	96	0	target	0	453	13.328	13.292	13.363
ProbeTrack7	28	ProbeTrack	1406	SCS215b	733725.389319	733725.392522	8	0.013328	60	0	60-180	60	86	NoGap	1	15	4	96	1	target	1	613	13.328	13.293	13.363
ProbeTrack7	28	ProbeTrack	1406	SCS215b	733725.389319	733725.392746	8	0.013328	60	0	60-180	60	127	NoGap	1	16	4	0	1	distractor	0	1106	13.328	13.293	13.363
ProbeTrack7	28	ProbeTrack	1406	SCS215b	733725.389319	733725.392865	8	0.013328	60	0	60-180	60	148	NoGap	1	17	4	6	1	distractor	0	534	13.328	13.293	13.364
ProbeTrack7	28	ProbeTrack	1406	SCS215b	733725.389319	733725.393093	8	0.013328	60	0	60-180	60	66	NoGap	1	18	4	0	0	distractor	1	973	13.328	13.293	13.363
ProbeTrack7	28	ProbeTrack	1406	SCS215b	733725.389319	733725.393309	8	0.013328	60	0	60-180	60	130	NoGap	1	19	4	3	1	distractor	0	427	13.328	13.292	13.364
ProbeTrack7	28	ProbeTrack	1406	SCS215b	733725.389319	733725.393412	8	0.013328	60	0	60-180	60	129	NoGap	1	20	4	6	1	distractor	0	653	13.328	13.291	13.364
ProbeTrack7	28	ProbeTrack	1406	SCS215b	733725.389319	733725.393545	8	0.013328	60	0	60-180	60	152	NoGap	1	21	4	6	1	distractor	0	867	13.328	13.293	13.363
ProbeTrack7	28	ProbeTrack	1406	SCS215b	733725.389319	733725.393690	8	0.013328	60	0	60-180	60	111	NoGap	1	22	4	6	1	distractor	0	840	13.328	13.293	13.364
ProbeTrack7	28	ProbeTrack	1406	SCS215b	733725.389319	733725.393779	8	0.013328	60	0	60-180	60	166	NoGap	1	23	4	0	1	target	1	787	13.328	13.293	13.363
ProbeTrack7	28	ProbeTrack	1406	SCS215b	733725.389319	733725.393873	8	0.013328	60	0	60-180	60	164	NoGap	1	24	4	0	0	distractor	1	454	13.328	13.293	13.363
ProbeTrack7	28	ProbeTrack	1406	SCS215b	733725.389319	733725.393982	8	0.013328	60	0	60-180	60	178	NoGap	1	25	4	96	1	distractor	0	427	13.328	13.293	13.363
ProbeTrack7	28	ProbeTrack	1406	SCS215b	733725.389319	733725.394183	8	0.013328	60	0	60-180	60	155	NoGap	1	26	4	0	0	distractor	1	560	13.328	13.293	13.365
ProbeTrack7	28	ProbeTrack	1406	SCS215b	733725.389319	733725.394334	8	0.013328	60	0	60-180	60	146	NoGap	1	27	4	6	0	distractor	1	747	13.328	13.293	13.363
ProbeTrack7	28	ProbeTrack	1406	SCS215b	733725.389319	733725.394518	8	0.013328	60	0	60-180	60	130	NoGap	1	28	4	0	0	distractor	1	787	13.328	13.293	13.364
ProbeTrack7	28	ProbeTrack	1406	SCS215b	733725.389319	733725.394628	8	0.013328	60	0	60-180	60	131	NoGap	1	29	4	96	0	target	0	453	13.328	13.293	13.364
ProbeTrack7	28	ProbeTrack	1406	SCS215b	733725.389319	733725.394742	8	0.013328	60	0	60-180	60	131	NoGap	1	30	4	6	0	distractor	1	907	13.328	13.293	13.363
ProbeTrack7	28	ProbeTrack	1406	SCS215b	733725.389319	733725.394904	8	0.013328	60	0	60-180	60	88	NoGap	1	31	4	96	0	target	0	387	13.328	13.293	13.363
ProbeTrack7	28	ProbeTrack	1406	SCS215b	733725.389319	733725.395005	8	0.013328	60	0	60-180	60	157	NoGap	1	32	4	96	1	distractor	0	587	13.328	13.293	13.363
ProbeTrack7	28	ProbeTrack	1406	SCS215b	733725.389319	733725.395136	8	0.013328	60	0	60-180	60	88	NoGap	1	33	4	3	0	distractor	1	907	13.328	13.293	13.363
ProbeTrack7	28	ProbeTrack	1406	SCS215b	733725.389319	733725.395222	8	0.013328	60	0	60-180	60	118	NoGap	1	34	4	96	1	target	1	653	13.328	13.293	13.364
ProbeTrack7	28	ProbeTrack	1406	SCS215b	733725.389319	733725.395322	8	0.013328	60	0	60-180	60	164	NoGap	1	35	4	0	0	distractor	1	507	13.328	13.293	13.363
ProbeTrack7	28	ProbeTrack	1406	SCS215b	733725.389319	733725.395486	8	0.013328	60	0	60-180	60	61	NoGap	1	36	4	0	1	target	1	547	13.328	13.293	13.363
ProbeTrack7	28	ProbeTrack	1406	SCS215b	733725.389319	733725.395581	8	0.013328	60	0	60-180	60	157	NoGap	1	37	4	6	1	target	1	427	13.328	13.293	13.363
ProbeTrack7	28	ProbeTrack	1406	SCS215b	733725.389319	733725.395734	8	0.013328	60	0	60-180	60	163	NoGap	1	38	4	3	0	distractor	1	467	13.328	13.291	13.366
ProbeTrack7	28	ProbeTrack	1406	SCS215b	733725.389319	733725.395840	8	0.013328	60	0	60-180	60	131	NoGap	1	39	4	96	0	distractor	1	493	13.328	13.293	13.366
ProbeTrack7	28	ProbeTrack	1406	SCS215b	733725.389319	733725.396068	8	0.013328	60	0	60-180	60	180	NoGap	1	40	4	3	0	distractor	1	627	13.328	13.293	13.363
ProbeTrack7	28	ProbeTrack	1406	SCS215b	733725.389319	733725.396155	8	0.013328	60	0	60-180	60	84	NoGap	1	41	4	3	1	target	1	587	13.328	13.293	13.364
ProbeTrack7	28	ProbeTrack	1406	SCS215b	733725.389319	733725.396238	8	0.013328	60	0	60-180	60	162	NoGap	1	42	4	6	0	distractor	1	400	13.328	13.293	13.363
ProbeTrack7	28	ProbeTrack	1406	SCS215b	733725.389319	733725.396410	8	0.013328	60	0	60-180	60	109	NoGap	1	43	4	96	1	distractor	0	400	13.328	13.293	13.364
ProbeTrack7	28	ProbeTrack	1406	SCS215b	733725.389319	733725.396586	8	0.013328	60	0	60-180	60	74	NoGap	1	44	4	3	0	distractor	1	640	13.328	13.293	13.363
ProbeTrack7	28	ProbeTrack	1406	SCS215b	733725.389319	733725.396673	8	0.013328	60	0	60-180	60	70	NoGap	1	45	4	3	1	distractor	0	520	13.328	13.293	13.363
ProbeTrack7	28	ProbeTrack	1406	SCS215b	733725.389319	733725.396780	8	0.013328	60	0	60-180	60	153	NoGap	1	46	4	3	1	target	1	600	13.328	13.291	13.363
ProbeTrack7	28	ProbeTrack	1406	SCS215b	733725.389319	733725.396915	8	0.013328	60	0	60-180	60	151	NoGap	1	47	4	6	0	target	0	653	13.328	13.289	13.364
ProbeTrack7	28	ProbeTrack	1406	SCS215b	733725.389319	733725.397066	8	0.013328	60	0	60-180	60	87	NoGap	1	48	4	0	1	distractor	0	560	13.328	13.293	13.363
ProbeTrack7	28	ProbeTrack	1406	SCS215b	733725.389319	733725.397173	8	0.013328	60	0	60-180	60	106	NoGap	1	49	4	96	0	target	0	480	13.328	13.292	13.364
ProbeTrack7	28	ProbeTrack	1406	SCS215b	733725.389319	733725.397271	8	0.013328	60	0	60-180	60	144	NoGap	1	50	4	0	1	target	1	693	13.328	13.293	13.363
ProbeTrack7	28	ProbeTrack	1406	SCS215b	733725.398363	733725.398672	8	0.013328	60	10	60-180	60	171	GapPrac	1	1	4	6	0	target	0	387	13.328	13.293	13.363
ProbeTrack7	28	ProbeTrack	1406	SCS215b	733725.398363	733725.398795	8	0.013328	60	10	60-180	60	115	GapPrac	1	2	4	96	1	distractor	0	480	13.328	13.293	13.363
ProbeTrack7	28	ProbeTrack	1406	SCS215b	733725.398363	733725.398969	8	0.013328	60	10	60-180	60	67	GapPrac	1	3	4	3	1	distractor	0	413	13.328	13.293	13.364
ProbeTrack7	28	ProbeTrack	1406	SCS215b	733725.398363	733725.399092	8	0.013328	60	10	60-180	60	157	GapPrac	1	4	4	96	0	target	0	640	13.328	13.293	13.364
ProbeTrack7	28	ProbeTrack	1406	SCS215b	733725.398363	733725.399238	8	0.013328	60	10	60-180	60	161	GapPrac	1	5	4	0	0	target	0	414	13.328	13.293	13.363
ProbeTrack7	28	ProbeTrack	1406	SCS215b	733725.398363	733725.399363	8	0.013328	60	10	60-180	60	71	GapPrac	1	6	4	6	0	distractor	1	600	13.328	13.293	13.363
ProbeTrack7	28	ProbeTrack	1406	SCS215b	733725.398363	733725.399444	8	0.013328	60	10	60-180	60	149	GapPrac	1	7	4	3	0	target	0	400	13.328	13.293	13.363
ProbeTrack7	28	ProbeTrack	1406	SCS215b	733725.398363	733725.399529	8	0.013328	60	10	60-180	60	138	GapPrac	1	8	4	96	1	multi	-2	600	13.328	13.293	13.367
ProbeTrack7	28	ProbeTrack	1406	SCS215b	733725.398363	733725.399648	8	0.013328	60	10	60-180	60	143	GapPrac	1	9	4	3	1	distractor	0	1106	13.328	13.293	13.365
ProbeTrack7	28	ProbeTrack	1406	SCS215b	733725.398363	733725.399769	8	0.013328	60	10	60-180	60	126	GapPrac	1	10	4	96	1	target	1	334	13.328	13.293	13.363
ProbeTrack7	28	ProbeTrack	1406	SCS215b	733725.398363	733725.400067	8	0.013328	60	10	60-180	60	94	GapPrac	1	11	4	6	1	target	1	587	13.328	13.293	13.363
ProbeTrack7	28	ProbeTrack	1406	SCS215b	733725.398363	733725.400158	8	0.013328	60	10	60-180	60	173	GapPrac	1	12	4	6	0	target	0	520	13.328	13.293	13.363
ProbeTrack7	28	ProbeTrack	1406	SCS215b	733725.398363	733725.400260	8	0.013328	60	10	60-180	60	157	GapPrac	1	13	4	0	1	distractor	0	560	13.328	13.293	13.363
ProbeTrack7	28	ProbeTrack	1406	SCS215b	733725.398363	733725.400363	8	0.013328	60	10	60-180	60	167	GapPrac	1	14	4	6	1	target	1	454	13.328	13.293	13.365
ProbeTrack7	28	ProbeTrack	1406	SCS215b	733725.398363	733725.400456	8	0.013328	60	10	60-180	60	75	GapPrac	1	15	4	96	0	target	0	347	13.328	13.293	13.363
ProbeTrack7	28	ProbeTrack	1406	SCS215b	733725.398363	733725.400619	8	0.013328	60	10	60-180	60	72	GapPrac	1	16	4	96	0	distractor	1	400	13.328	13.293	13.364
ProbeTrack7	28	ProbeTrack	1406	SCS215b	733725.398363	733725.400727	8	0.013328	60	10	60-180	60	81	GapPrac	1	17	4	0	0	distractor	1	507	13.328	13.289	13.363
ProbeTrack7	28	ProbeTrack	1406	SCS215b	733725.398363	733725.400806	8	0.013328	60	10	60-180	60	91	GapPrac	1	18	4	3	1	target	1	680	13.328	13.293	13.363
ProbeTrack7	28	ProbeTrack	1406	SCS215b	733725.398363	733725.400901	8	0.013328	60	10	60-180	60	72	GapPrac	1	19	4	0	1	target	1	387	13.328	13.293	13.363
ProbeTrack7	28	ProbeTrack	1406	SCS215b	733725.398363	733725.400983	8	0.013328	60	10	60-180	60	176	GapPrac	1	20	4	3	0	distractor	1	200	13.328	13.293	13.364
ProbeTrack7	28	ProbeTrack	1406	SCS215b	733725.402261	733725.402371	8	0.013328	60	10	60-180	60	117	GapPrac	1	1	4	96	1	distractor	0	360	13.328	13.290	13.364
ProbeTrack7	28	ProbeTrack	1406	SCS215b	733725.402261	733725.402537	8	0.013328	60	10	60-180	60	71	GapPrac	1	2	4	6	1	target	1	174	13.328	13.293	13.363
ProbeTrack7	28	ProbeTrack	1406	SCS215b	733725.402261	733725.402604	8	0.013328	60	10	60-180	60	165	GapPrac	1	3	4	3	0	distractor	1	360	13.328	13.293	13.363
ProbeTrack7	28	ProbeTrack	1406	SCS215b	733725.402261	733725.402698	8	0.013328	60	10	60-180	60	179	GapPrac	1	4	4	0	1	distractor	0	360	13.328	13.293	13.364
ProbeTrack7	28	ProbeTrack	1406	SCS215b	733725.402261	733725.402801	8	0.013328	60	10	60-180	60	101	GapPrac	1	5	4	96	0	target	0	334	13.328	13.293	13.363
ProbeTrack7	28	ProbeTrack	1406	SCS215b	733725.402261	733725.402941	8	0.013328	60	10	60-180	60	92	GapPrac	1	6	4	96	1	distractor	0	494	13.328	13.293	13.364
ProbeTrack7	28	ProbeTrack	1406	SCS215b	733725.402261	733725.403042	8	0.013328	60	10	60-180	60	159	GapPrac	1	7	4	96	1	target	1	454	13.328	13.292	13.368
ProbeTrack7	28	ProbeTrack	1406	SCS215b	733725.402261	733725.403178	8	0.013328	60	10	60-180	60	64	GapPrac	1	8	4	96	0	distractor	1	400	13.328	13.293	13.364
ProbeTrack7	28	ProbeTrack	1406	SCS215b	733725.402261	733725.403282	8	0.013328	60	10	60-180	60	178	GapPrac	1	9	4	3	0	distractor	1	560	13.328	13.293	13.364
ProbeTrack7	28	ProbeTrack	1406	SCS215b	733725.402261	733725.403370	8	0.013328	60	10	60-180	60	132	GapPrac	1	10	4	6	1	target	1	387	13.328	13.290	13.366
ProbeTrack7	28	ProbeTrack	1406	SCS215b	733725.402261	733725.403452	8	0.013328	60	10	60-180	60	129	GapPrac	1	11	4	0	1	target	1	320	13.328	13.293	13.363
ProbeTrack7	28	ProbeTrack	1406	SCS215b	733725.402261	733725.403525	8	0.013328	60	10	60-180	60	132	GapPrac	1	12	4	3	0	distractor	1	374	13.328	13.293	13.363
ProbeTrack7	28	ProbeTrack	1406	SCS215b	733725.402261	733725.403601	8	0.013328	60	10	60-180	60	166	GapPrac	1	13	4	6	1	distractor	0	400	13.328	13.293	13.363
ProbeTrack7	28	ProbeTrack	1406	SCS215b	733725.402261	733725.403720	8	0.013328	60	10	60-180	60	179	GapPrac	1	14	4	6	0	target	0	613	13.328	13.293	13.363
ProbeTrack7	28	ProbeTrack	1406	SCS215b	733725.402261	733725.403820	8	0.013328	60	10	60-180	60	179	GapPrac	1	15	4	3	1	target	1	307	13.328	13.293	13.363
ProbeTrack7	28	ProbeTrack	1406	SCS215b	733725.402261	733725.403962	8	0.013328	60	10	60-180	60	126	GapPrac	1	16	4	6	0	target	0	480	13.328	13.293	13.364
ProbeTrack7	28	ProbeTrack	1406	SCS215b	733725.402261	733725.404107	8	0.013328	60	10	60-180	60	136	GapPrac	1	17	4	3	1	distractor	0	360	13.328	13.293	13.364
ProbeTrack7	28	ProbeTrack	1406	SCS215b	733725.402261	733725.404315	8	0.013328	60	10	60-180	60	121	GapPrac	1	18	4	0	1	target	1	320	13.328	13.292	13.363
ProbeTrack7	28	ProbeTrack	1406	SCS215b	733725.402261	733725.404521	8	0.013328	60	10	60-180	60	90	GapPrac	1	19	4	0	0	90	-3	374	13.328	13.293	13.363
ProbeTrack7	28	ProbeTrack	1406	SCS215b	733725.402261	733725.404599	8	0.013328	60	10	60-180	60	157	GapPrac	1	20	4	0	0	distractor	1	360	13.328	13.293	13.363
ProbeTrack7	28	ProbeTrack	1406	SCS215b	733725.406049	733725.406264	8	0.013328	60	10	60-180	60	145	GapExp	1	1	4	0	0	target	0	507	13.328	13.293	13.363
ProbeTrack7	28	ProbeTrack	1406	SCS215b	733725.406049	733725.406364	8	0.013328	60	10	60-180	60	173	GapExp	1	2	4	6	0	target	0	467	13.328	13.293	13.363
ProbeTrack7	28	ProbeTrack	1406	SCS215b	733725.406049	733725.406448	8	0.013328	60	10	60-180	60	63	GapExp	1	3	4	96	1	target	1	427	13.328	13.291	13.363
ProbeTrack7	28	ProbeTrack	1406	SCS215b	733725.406049	733725.406563	8	0.013328	60	10	60-180	60	133	GapExp	1	4	4	3	1	target	1	480	13.328	13.293	13.363
ProbeTrack7	28	ProbeTrack	1406	SCS215b	733725.406049	733725.406647	8	0.013328	60	10	60-180	60	120	GapExp	1	5	4	3	0	distractor	1	267	13.328	13.293	13.363
ProbeTrack7	28	ProbeTrack	1406	SCS215b	733725.406049	733725.406734	8	0.013328	60	10	60-180	60	176	GapExp	0	6	4	3	0	distractor	1	533	13.328	13.293	13.364
ProbeTrack7	28	ProbeTrack	1406	SCS215b	733725.406049	733725.406837	8	0.013328	60	10	60-180	60	120	GapExp	0	7	4	0	1	target	1	347	13.328	13.291	13.366
ProbeTrack7	28	ProbeTrack	1406	SCS215b	733725.406049	733725.406918	8	0.013328	60	10	60-180	60	112	GapExp	0	8	4	96	0	target	0	494	13.328	13.293	13.363
ProbeTrack7	28	ProbeTrack	1406	SCS215b	733725.406049	733725.407085	8	0.013328	60	10	60-180	60	83	GapExp	0	9	4	96	1	distractor	0	480	13.328	13.293	13.363
ProbeTrack7	28	ProbeTrack	1406	SCS215b	733725.406049	733725.407208	8	0.013328	60	10	60-180	60	96	GapExp	0	10	4	3	1	target	1	587	13.328	13.293	13.363
ProbeTrack7	28	ProbeTrack	1406	SCS215b	733725.406049	733725.407287	8	0.013328	60	10	60-180	60	137	GapExp	0	11	4	6	1	distractor	0	507	13.328	13.293	13.363
ProbeTrack7	28	ProbeTrack	1406	SCS215b	733725.406049	733725.407375	8	0.013328	60	10	60-180	60	66	GapExp	0	12	4	0	0	target	0	347	13.328	13.293	13.363
ProbeTrack7	28	ProbeTrack	1406	SCS215b	733725.406049	733725.407444	8	0.013328	60	10	60-180	60	80	GapExp	0	13	4	3	1	target	1	667	13.328	13.293	13.364
ProbeTrack7	28	ProbeTrack	1406	SCS215b	733725.406049	733725.407529	8	0.013328	60	10	60-180	60	125	GapExp	0	14	4	6	1	target	1	573	13.328	13.293	13.363
ProbeTrack7	28	ProbeTrack	1406	SCS215b	733725.406049	733725.407611	8	0.013328	60	10	60-180	60	105	GapExp	0	15	4	96	1	distractor	0	360	13.328	13.293	13.363
ProbeTrack7	28	ProbeTrack	1406	SCS215b	733725.406049	733725.407704	8	0.013328	60	10	60-180	60	156	GapExp	0	16	4	6	0	target	0	507	13.328	13.293	13.363
ProbeTrack7	28	ProbeTrack	1406	SCS215b	733725.406049	733725.407846	8	0.013328	60	10	60-180	60	64	GapExp	0	17	4	6	0	distractor	1	733	13.328	13.293	13.363
ProbeTrack7	28	ProbeTrack	1406	SCS215b	733725.406049	733725.407916	8	0.013328	60	10	60-180	60	159	GapExp	0	18	4	0	1	target	1	613	13.328	13.293	13.363
ProbeTrack7	28	ProbeTrack	1406	SCS215b	733725.406049	733725.407997	8	0.013328	60	10	60-180	60	167	GapExp	0	19	4	0	0	target	0	467	13.328	13.293	13.363
ProbeTrack7	28	ProbeTrack	1406	SCS215b	733725.406049	733725.408094	8	0.013328	60	10	60-180	60	140	GapExp	0	20	4	6	0	target	0	560	13.328	13.293	13.363
ProbeTrack7	28	ProbeTrack	1406	SCS215b	733725.406049	733725.408186	8	0.013328	60	10	60-180	60	156	GapExp	0	21	4	0	0	distractor	1	307	13.328	13.293	13.364
ProbeTrack7	28	ProbeTrack	1406	SCS215b	733725.406049	733725.408270	8	0.013328	60	10	60-180	60	89	GapExp	0	22	4	0	0	distractor	1	453	13.328	13.291	13.365
ProbeTrack7	28	ProbeTrack	1406	SCS215b	733725.406049	733725.408348	8	0.013328	60	10	60-180	60	157	GapExp	0	23	4	96	1	target	1	453	13.328	13.293	13.363
ProbeTrack7	28	ProbeTrack	1406	SCS215b	733725.406049	733725.408454	8	0.013328	60	10	60-180	60	103	GapExp	0	24	4	3	1	distractor	0	347	13.328	13.293	13.363
ProbeTrack7	28	ProbeTrack	1406	SCS215b	733725.406049	733725.408548	8	0.013328	60	10	60-180	60	102	GapExp	0	25	4	0	1	target	1	800	13.328	13.293	13.363
ProbeTrack7	28	ProbeTrack	1406	SCS215b	733725.406049	733725.408621	8	0.013328	60	10	60-180	60	92	GapExp	0	26	4	6	1	target	1	480	13.328	13.293	13.363
ProbeTrack7	28	ProbeTrack	1406	SCS215b	733725.406049	733725.408718	8	0.013328	60	10	60-180	60	92	GapExp	0	27	4	96	0	distractor	1	347	13.328	13.293	13.364
ProbeTrack7	28	ProbeTrack	1406	SCS215b	733725.406049	733725.408947	8	0.013328	60	10	60-180	60	152	GapExp	0	28	4	3	0	target	0	400	13.328	13.293	13.363
ProbeTrack7	28	ProbeTrack	1406	SCS215b	733725.406049	733725.409056	8	0.013328	60	10	60-180	60	130	GapExp	0	29	4	0	0	target	0	507	13.328	13.293	13.363
ProbeTrack7	28	ProbeTrack	1406	SCS215b	733725.406049	733725.409155	8	0.013328	60	10	60-180	60	101	GapExp	0	30	4	0	1	distractor	0	707	13.328	13.290	13.366
ProbeTrack7	28	ProbeTrack	1406	SCS215b	733725.406049	733725.409228	8	0.013328	60	10	60-180	60	139	GapExp	0	31	4	3	0	target	0	307	13.328	13.293	13.363
ProbeTrack7	28	ProbeTrack	1406	SCS215b	733725.406049	733725.409315	8	0.013328	60	10	60-180	60	121	GapExp	0	32	4	6	1	target	1	693	13.328	13.293	13.363
ProbeTrack7	28	ProbeTrack	1406	SCS215b	733725.406049	733725.409476	8	0.013328	60	10	60-180	60	104	GapExp	0	33	4	0	1	target	1	547	13.328	13.293	13.362
ProbeTrack7	28	ProbeTrack	1406	SCS215b	733725.406049	733725.409553	8	0.013328	60	10	60-180	60	160	GapExp	0	34	4	6	0	distractor	1	627	13.328	13.293	13.364
ProbeTrack7	28	ProbeTrack	1406	SCS215b	733725.406049	733725.409635	8	0.013328	60	10	60-180	60	96	GapExp	0	35	4	96	1	target	1	507	13.328	13.293	13.363
ProbeTrack7	28	ProbeTrack	1406	SCS215b	733725.406049	733725.409734	8	0.013328	60	10	60-180	60	135	GapExp	0	36	4	3	0	distractor	1	587	13.328	13.293	13.363
ProbeTrack7	28	ProbeTrack	1406	SCS215b	733725.406049	733725.409947	8	0.013328	60	10	60-180	60	147	GapExp	0	37	4	3	1	distractor	0	493	13.328	13.293	13.363
ProbeTrack7	28	ProbeTrack	1406	SCS215b	733725.406049	733725.410051	8	0.013328	60	10	60-180	60	171	GapExp	0	38	4	0	1	target	1	307	13.328	13.293	13.363
ProbeTrack7	28	ProbeTrack	1406	SCS215b	733725.406049	733725.410196	8	0.013328	60	10	60-180	60	135	GapExp	0	39	4	0	0	distractor	1	560	13.328	13.293	13.363
ProbeTrack7	28	ProbeTrack	1406	SCS215b	733725.406049	733725.410307	8	0.013328	60	10	60-180	60	170	GapExp	0	40	4	3	1	target	1	493	13.328	13.059	13.598
ProbeTrack7	28	ProbeTrack	1406	SCS215b	733725.406049	733725.410427	8	0.013328	60	10	60-180	60	117	GapExp	0	41	4	96	1	distractor	0	387	13.328	13.290	13.363
ProbeTrack7	28	ProbeTrack	1406	SCS215b	733725.406049	733725.410654	8	0.013328	60	10	60-180	60	67	GapExp	0	42	4	3	0	target	0	507	13.328	13.293	13.366
ProbeTrack7	28	ProbeTrack	1406	SCS215b	733725.406049	733725.410749	8	0.013328	60	10	60-180	60	129	GapExp	0	43	4	0	0	distractor	1	587	13.328	13.293	13.364
ProbeTrack7	28	ProbeTrack	1406	SCS215b	733725.406049	733725.410840	8	0.013328	60	10	60-180	60	173	GapExp	0	44	4	6	0	target	0	680	13.328	13.293	13.363
ProbeTrack7	28	ProbeTrack	1406	SCS215b	733725.406049	733725.410961	8	0.013328	60	10	60-180	60	90	GapExp	0	45	4	96	0	target	0	360	13.328	13.293	13.363
ProbeTrack7	28	ProbeTrack	1406	SCS215b	733725.406049	733725.411058	8	0.013328	60	10	60-180	60	119	GapExp	0	46	4	6	1	target	1	400	13.328	13.289	13.363
ProbeTrack7	28	ProbeTrack	1406	SCS215b	733725.406049	733725.411234	8	0.013328	60	10	60-180	60	74	GapExp	0	47	4	96	0	target	0	400	13.328	13.293	13.363
ProbeTrack7	28	ProbeTrack	1406	SCS215b	733725.406049	733725.411316	8	0.013328	60	10	60-180	60	96	GapExp	0	48	4	0	0	distractor	1	587	13.328	13.293	13.363
ProbeTrack7	28	ProbeTrack	1406	SCS215b	733725.406049	733725.411408	8	0.013328	60	10	60-180	60	84	GapExp	0	49	4	6	0	target	0	427	13.328	13.293	13.363
ProbeTrack7	28	ProbeTrack	1406	SCS215b	733725.406049	733725.411487	8	0.013328	60	10	60-180	60	179	GapExp	0	50	4	0	0	distractor	1	707	13.328	13.293	13.363
ProbeTrack7	28	ProbeTrack	1406	SCS215b	733725.406049	733725.411593	8	0.013328	60	10	60-180	60	75	GapExp	0	51	4	96	1	target	1	627	13.328	13.293	13.363
ProbeTrack7	28	ProbeTrack	1406	SCS215b	733725.406049	733725.411698	8	0.013328	60	10	60-180	60	147	GapExp	0	52	4	6	0	distractor	1	480	13.328	13.293	13.363
ProbeTrack7	28	ProbeTrack	1406	SCS215b	733725.406049	733725.411812	8	0.013328	60	10	60-180	60	158	GapExp	0	53	4	96	0	distractor	1	520	13.328	13.293	13.364
ProbeTrack7	28	ProbeTrack	1406	SCS215b	733725.406049	733725.411983	8	0.013328	60	10	60-180	60	95	GapExp	0	54	4	0	0	target	0	573	13.328	13.293	13.363
ProbeTrack7	28	ProbeTrack	1406	SCS215b	733725.406049	733725.412074	8	0.013328	60	10	60-180	60	123	GapExp	0	55	4	96	1	target	1	360	13.328	13.293	13.366
ProbeTrack7	28	ProbeTrack	1406	SCS215b	733725.406049	733725.412165	8	0.013328	60	10	60-180	60	117	GapExp	0	56	4	96	1	186	-3	414	13.328	13.293	13.363
ProbeTrack7	28	ProbeTrack	1406	SCS215b	733725.406049	733725.412341	8	0.013328	60	10	60-180	60	159	GapExp	0	57	4	3	1	distractor	0	667	13.328	13.293	13.363
ProbeTrack7	28	ProbeTrack	1406	SCS215b	733725.406049	733725.412466	8	0.013328	60	10	60-180	60	118	GapExp	0	58	4	6	1	distractor	0	680	13.328	13.293	13.364
ProbeTrack7	28	ProbeTrack	1406	SCS215b	733725.406049	733725.412540	8	0.013328	60	10	60-180	60	162	GapExp	0	59	4	3	0	distractor	1	667	13.328	13.293	13.364
ProbeTrack7	28	ProbeTrack	1406	SCS215b	733725.406049	733725.412639	8	0.013328	60	10	60-180	60	151	GapExp	0	60	4	6	1	target	1	560	13.328	13.293	13.366
ProbeTrack7	28	ProbeTrack	1406	SCS215b	733725.406049	733725.412749	8	0.013328	60	10	60-180	60	103	GapExp	0	61	4	6	1	target	1	533	13.328	13.293	13.363
ProbeTrack7	28	ProbeTrack	1406	SCS215b	733725.406049	733725.412822	8	0.013328	60	10	60-180	60	177	GapExp	0	62	4	96	1	distractor	0	480	13.328	13.292	13.363
ProbeTrack7	28	ProbeTrack	1406	SCS215b	733725.406049	733725.412935	8	0.013328	60	10	60-180	60	165	GapExp	0	63	4	6	1	target	1	387	13.328	13.293	13.363
ProbeTrack7	28	ProbeTrack	1406	SCS215b	733725.406049	733725.413013	8	0.013328	60	10	60-180	60	159	GapExp	0	64	4	96	0	target	0	480	13.328	13.293	13.363
ProbeTrack7	28	ProbeTrack	1406	SCS215b	733725.406049	733725.413123	8	0.013328	60	10	60-180	60	161	GapExp	0	65	4	96	0	target	0	573	13.328	13.293	13.363
ProbeTrack7	28	ProbeTrack	1406	SCS215b	733725.406049	733725.413226	8	0.013328	60	10	60-180	60	98	GapExp	0	66	4	3	0	target	0	800	13.328	13.293	13.364
ProbeTrack7	28	ProbeTrack	1406	SCS215b	733725.406049	733725.413305	8	0.013328	60	10	60-180	60	128	GapExp	0	67	4	3	1	distractor	0	573	13.328	13.293	13.363
ProbeTrack7	28	ProbeTrack	1406	SCS215b	733725.406049	733725.413421	8	0.013328	60	10	60-180	60	168	GapExp	0	68	4	96	1	target	1	347	13.328	13.293	13.364
ProbeTrack7	28	ProbeTrack	1406	SCS215b	733725.406049	733725.413514	8	0.013328	60	10	60-180	60	90	GapExp	0	69	4	6	1	target	1	454	13.328	13.293	13.363
ProbeTrack7	28	ProbeTrack	1406	SCS215b	733725.406049	733725.413599	8	0.013328	60	10	60-180	60	98	GapExp	0	70	4	6	0	distractor	1	640	13.328	13.293	13.363
ProbeTrack7	28	ProbeTrack	1406	SCS215b	733725.406049	733725.413673	8	0.013328	60	10	60-180	60	110	GapExp	0	71	4	6	0	distractor	1	480	13.328	13.293	13.363
ProbeTrack7	28	ProbeTrack	1406	SCS215b	733725.406049	733725.413758	8	0.013328	60	10	60-180	60	83	GapExp	0	72	4	3	1	target	1	800	13.328	13.289	13.364
ProbeTrack7	28	ProbeTrack	1406	SCS215b	733725.406049	733725.413934	8	0.013328	60	10	60-180	60	130	GapExp	0	73	4	6	0	distractor	1	653	13.328	13.293	13.363
ProbeTrack7	28	ProbeTrack	1406	SCS215b	733725.406049	733725.414059	8	0.013328	60	10	60-180	60	109	GapExp	0	74	4	96	1	distractor	0	467	13.328	13.293	13.363
ProbeTrack7	28	ProbeTrack	1406	SCS215b	733725.406049	733725.414163	8	0.013328	60	10	60-180	60	168	GapExp	0	75	4	6	1	target	1	400	13.328	13.293	13.363
ProbeTrack7	28	ProbeTrack	1406	SCS215b	733725.406049	733725.414241	8	0.013328	60	10	60-180	60	172	GapExp	0	76	4	3	1	target	1	427	13.328	13.293	13.364
ProbeTrack7	28	ProbeTrack	1406	SCS215b	733725.406049	733725.414322	8	0.013328	60	10	60-180	60	81	GapExp	0	77	4	96	0	distractor	1	627	13.328	13.292	13.364
ProbeTrack7	28	ProbeTrack	1406	SCS215b	733725.406049	733725.414434	8	0.013328	60	10	60-180	60	74	GapExp	0	78	4	96	0	target	0	413	13.328	13.292	13.363
ProbeTrack7	28	ProbeTrack	1406	SCS215b	733725.406049	733725.414574	8	0.013328	60	10	60-180	60	90	GapExp	0	79	4	6	1	distractor	0	600	13.328	13.293	13.363
ProbeTrack7	28	ProbeTrack	1406	SCS215b	733725.406049	733725.414648	8	0.013328	60	10	60-180	60	61	GapExp	0	80	4	6	0	target	0	440	13.328	13.293	13.364
ProbeTrack7	28	ProbeTrack	1406	SCS215b	733725.406049	733725.414711	8	0.013328	60	10	60-180	60	163	GapExp	0	81	4	3	1	distractor	0	334	13.328	13.293	13.394
ProbeTrack7	28	ProbeTrack	1406	SCS215b	733725.406049	733725.414866	8	0.013328	60	10	60-180	60	137	GapExp	0	82	4	3	0	distractor	1	680	13.328	13.293	13.363
ProbeTrack7	28	ProbeTrack	1406	SCS215b	733725.406049	733725.415020	8	0.013328	60	10	60-180	60	80	GapExp	0	83	4	6	0	target	0	560	13.328	13.293	13.366
ProbeTrack7	28	ProbeTrack	1406	SCS215b	733725.406049	733725.415090	8	0.013328	60	10	60-180	60	137	GapExp	0	84	4	6	0	distractor	1	573	13.328	13.272	13.363
ProbeTrack7	28	ProbeTrack	1406	SCS215b	733725.406049	733725.415169	8	0.013328	60	10	60-180	60	61	GapExp	0	85	4	6	1	target	1	520	13.328	13.293	13.363
ProbeTrack7	28	ProbeTrack	1406	SCS215b	733725.406049	733725.415272	8	0.013328	60	10	60-180	60	142	GapExp	0	86	4	0	1	target	1	307	13.328	13.294	13.363
ProbeTrack7	28	ProbeTrack	1406	SCS215b	733725.406049	733725.415345	8	0.013328	60	10	60-180	60	85	GapExp	0	87	4	6	1	target	1	533	13.328	13.293	13.363
ProbeTrack7	28	ProbeTrack	1406	SCS215b	733725.406049	733725.415412	8	0.013328	60	10	60-180	60	67	GapExp	0	88	4	0	1	distractor	0	334	13.328	13.293	13.363
ProbeTrack7	28	ProbeTrack	1406	SCS215b	733725.406049	733725.415484	8	0.013328	60	10	60-180	60	118	GapExp	0	89	4	0	1	distractor	0	587	13.328	13.293	13.363
ProbeTrack7	28	ProbeTrack	1406	SCS215b	733725.406049	733725.415560	8	0.013328	60	10	60-180	60	77	GapExp	0	90	4	0	1	distractor	0	307	13.328	13.293	13.364
ProbeTrack7	28	ProbeTrack	1406	SCS215b	733725.406049	733725.415623	8	0.013328	60	10	60-180	60	135	GapExp	0	91	4	96	0	distractor	1	387	13.328	13.293	13.363
ProbeTrack7	28	ProbeTrack	1406	SCS215b	733725.406049	733725.415711	8	0.013328	60	10	60-180	60	163	GapExp	0	92	4	0	0	distractor	1	507	13.328	13.293	13.363
ProbeTrack7	28	ProbeTrack	1406	SCS215b	733725.406049	733725.415799	8	0.013328	60	10	60-180	60	152	GapExp	0	93	4	0	0	distractor	1	400	13.328	13.289	13.366
ProbeTrack7	28	ProbeTrack	1406	SCS215b	733725.406049	733725.415879	8	0.013328	60	10	60-180	60	137	GapExp	0	94	4	0	1	target	1	360	13.328	13.293	13.363
ProbeTrack7	28	ProbeTrack	1406	SCS215b	733725.406049	733725.415952	8	0.013328	60	10	60-180	60	107	GapExp	0	95	4	96	0	target	0	374	13.328	13.293	13.364
ProbeTrack7	28	ProbeTrack	1406	SCS215b	733725.406049	733725.416046	8	0.013328	60	10	60-180	60	109	GapExp	0	96	4	96	1	target	1	360	13.328	13.293	13.363
ProbeTrack7	28	ProbeTrack	1406	SCS215b	733725.406049	733725.416133	8	0.013328	60	10	60-180	60	83	GapExp	0	97	4	3	0	target	0	400	13.328	13.293	13.363
ProbeTrack7	28	ProbeTrack	1406	SCS215b	733725.406049	733725.416203	8	0.013328	60	10	60-180	60	166	GapExp	0	98	4	3	0	target	0	187	13.328	13.293	13.363
ProbeTrack7	28	ProbeTrack	1406	SCS215b	733725.406049	733725.416280	8	0.013328	60	10	60-180	60	63	GapExp	0	99	4	96	1	target	1	627	13.328	13.293	13.364
ProbeTrack7	28	ProbeTrack	1406	SCS215b	733725.406049	733725.416369	8	0.013328	60	10	60-180	60	64	GapExp	0	100	4	96	1	distractor	0	454	13.328	13.288	13.363
ProbeTrack7	28	ProbeTrack	1406	SCS215b	733725.406049	733725.416448	8	0.013328	60	10	60-180	60	176	GapExp	0	101	4	3	1	target	1	573	13.328	13.293	13.363
ProbeTrack7	28	ProbeTrack	1406	SCS215b	733725.406049	733725.416528	8	0.013328	60	10	60-180	60	167	GapExp	0	102	4	3	0	distractor	1	307	13.328	13.293	13.363
ProbeTrack7	28	ProbeTrack	1406	SCS215b	733725.406049	733725.416613	8	0.013328	60	10	60-180	60	76	GapExp	0	103	4	0	1	target	1	360	13.328	13.293	13.363
ProbeTrack7	28	ProbeTrack	1406	SCS215b	733725.406049	733725.416690	8	0.013328	60	10	60-180	60	111	GapExp	0	104	4	0	0	target	0	320	13.328	13.293	13.363
ProbeTrack7	28	ProbeTrack	1406	SCS215b	733725.406049	733725.416765	8	0.013328	60	10	60-180	60	133	GapExp	0	105	4	3	0	target	0	520	13.328	13.293	13.364
ProbeTrack7	28	ProbeTrack	1406	SCS215b	733725.406049	733725.416838	8	0.013328	60	10	60-180	60	74	GapExp	0	106	4	0	1	target	1	720	13.328	13.293	13.363
ProbeTrack7	28	ProbeTrack	1406	SCS215b	733725.406049	733725.416903	8	0.013328	60	10	60-180	60	137	GapExp	0	107	4	96	0	target	0	827	13.328	13.293	13.364
ProbeTrack7	28	ProbeTrack	1406	SCS215b	733725.406049	733725.417008	8	0.013328	60	10	60-180	60	104	GapExp	0	108	4	0	1	distractor	0	733	13.328	13.290	13.363
ProbeTrack7	28	ProbeTrack	1406	SCS215b	733725.406049	733725.417080	8	0.013328	60	10	60-180	60	116	GapExp	0	109	4	3	1	target	1	520	13.328	13.293	13.363
ProbeTrack7	28	ProbeTrack	1406	SCS215b	733725.406049	733725.417150	8	0.013328	60	10	60-180	60	89	GapExp	0	110	4	96	0	target	0	374	13.328	13.293	13.363
ProbeTrack7	28	ProbeTrack	1406	SCS215b	733725.406049	733725.417232	8	0.013328	60	10	60-180	60	125	GapExp	0	111	4	0	0	target	0	320	13.328	13.293	13.364
ProbeTrack7	28	ProbeTrack	1406	SCS215b	733725.406049	733725.417305	8	0.013328	60	10	60-180	60	88	GapExp	0	112	4	0	1	target	1	427	13.328	13.293	13.363
ProbeTrack7	28	ProbeTrack	1406	SCS215b	733725.406049	733725.417370	8	0.013328	60	10	60-180	60	147	GapExp	0	113	4	3	0	target	0	320	13.328	13.293	13.363
ProbeTrack7	28	ProbeTrack	1406	SCS215b	733725.406049	733725.417447	8	0.013328	60	10	60-180	60	137	GapExp	0	114	4	3	1	distractor	0	307	13.328	13.293	13.363
ProbeTrack7	28	ProbeTrack	1406	SCS215b	733725.406049	733725.417518	8	0.013328	60	10	60-180	60	180	GapExp	0	115	4	6	0	target	0	374	13.328	13.293	13.363
ProbeTrack7	28	ProbeTrack	1406	SCS215b	733725.406049	733725.417595	8	0.013328	60	10	60-180	60	138	GapExp	0	116	4	96	1	target	1	480	13.328	13.293	13.363
ProbeTrack7	28	ProbeTrack	1406	SCS215b	733725.406049	733725.417685	8	0.013328	60	10	60-180	60	147	GapExp	0	117	4	0	0	target	0	587	13.328	13.289	13.363
ProbeTrack7	28	ProbeTrack	1406	SCS215b	733725.406049	733725.417824	8	0.013328	60	10	60-180	60	169	GapExp	0	118	4	3	0	distractor	1	613	13.328	13.293	13.365
ProbeTrack7	28	ProbeTrack	1406	SCS215b	733725.406049	733725.417941	8	0.013328	60	10	60-180	60	102	GapExp	0	119	4	3	1	distractor	0	787	13.328	13.293	13.363
ProbeTrack7	28	ProbeTrack	1406	SCS215b	733725.406049	733725.418015	8	0.013328	60	10	60-180	60	122	GapExp	0	120	4	96	0	distractor	1	613	13.328	13.293	13.363
ProbeTrack7	28	ProbeTrack	1406	SCS215b	733725.406049	733725.418122	8	0.013328	60	10	60-180	60	169	GapExp	0	121	4	3	0	target	0	413	13.328	13.293	13.363
ProbeTrack7	28	ProbeTrack	1406	SCS215b	733725.406049	733725.418201	8	0.013328	60	10	60-180	60	167	GapExp	0	122	4	96	0	target	0	587	13.328	13.290	13.366
ProbeTrack7	28	ProbeTrack	1406	SCS215b	733725.406049	733725.418296	8	0.013328	60	10	60-180	60	68	GapExp	0	123	4	6	0	distractor	1	867	13.328	13.293	13.366
ProbeTrack7	28	ProbeTrack	1406	SCS215b	733725.406049	733725.418441	8	0.013328	60	10	60-180	60	112	GapExp	0	124	4	3	1	distractor	0	480	13.328	13.292	13.364
ProbeTrack7	28	ProbeTrack	1406	SCS215b	733725.406049	733725.418513	8	0.013328	60	10	60-180	60	159	GapExp	0	125	4	6	1	13	-3	493	13.328	13.293	13.363
ProbeTrack7	28	ProbeTrack	1406	SCS215b	733725.419577	733725.419746	8	0.013328	60	10	60-180	60	136	GapPrac	1	1	3	0	1	target	1	467	13.328	13.293	13.363
ProbeTrack7	28	ProbeTrack	1406	SCS215b	733725.419577	733725.419849	8	0.013328	60	10	60-180	60	174	GapPrac	1	2	3	96	0	distractor	1	373	13.328	13.293	13.363
ProbeTrack7	28	ProbeTrack	1406	SCS215b	733725.419577	733725.419948	8	0.013328	60	10	60-180	60	139	GapPrac	1	3	3	6	1	76	-3	414	13.328	13.290	13.366
ProbeTrack7	28	ProbeTrack	1406	SCS215b	733725.419577	733725.420078	8	0.013328	60	10	60-180	60	83	GapPrac	1	4	3	3	0	distractor	1	547	13.328	13.293	13.363
ProbeTrack7	28	ProbeTrack	1406	SCS215b	733725.419577	733725.420147	8	0.013328	60	10	60-180	60	156	GapPrac	1	5	3	0	0	distractor	1	440	13.328	13.293	13.363
ProbeTrack7	28	ProbeTrack	1406	SCS215b	733725.419577	733725.420225	8	0.013328	60	10	60-180	60	156	GapPrac	1	6	3	3	0	distractor	1	334	13.328	13.293	13.363
ProbeTrack7	28	ProbeTrack	1406	SCS215b	733725.419577	733725.420316	8	0.013328	60	10	60-180	60	178	GapPrac	1	7	3	96	1	distractor	0	414	13.328	13.293	13.363
ProbeTrack7	28	ProbeTrack	1406	SCS215b	733725.419577	733725.420499	8	0.013328	60	10	60-180	60	160	GapPrac	1	8	3	3	1	target	1	747	13.328	13.293	13.363
ProbeTrack7	28	ProbeTrack	1406	SCS215b	733725.419577	733725.420609	8	0.013328	60	10	60-180	60	163	GapPrac	1	9	3	0	1	target	1	427	13.328	13.293	13.363
ProbeTrack7	28	ProbeTrack	1406	SCS215b	733725.419577	733725.420690	8	0.013328	60	10	60-180	60	70	GapPrac	1	10	3	96	1	distractor	0	640	13.328	13.293	13.364
ProbeTrack7	28	ProbeTrack	1406	SCS215b	733725.419577	733725.420776	8	0.013328	60	10	60-180	60	61	GapPrac	1	11	3	3	1	target	1	560	13.328	13.293	13.363
ProbeTrack7	28	ProbeTrack	1406	SCS215b	733725.419577	733725.420908	8	0.013328	60	10	60-180	60	135	GapPrac	1	12	3	6	1	distractor	0	387	13.328	13.293	13.363
ProbeTrack7	28	ProbeTrack	1406	SCS215b	733725.419577	733725.420981	8	0.013328	60	10	60-180	60	168	GapPrac	1	13	3	6	1	distractor	0	507	13.328	13.293	13.364
ProbeTrack7	28	ProbeTrack	1406	SCS215b	733725.419577	733725.421071	8	0.013328	60	10	60-180	60	159	GapPrac	1	14	3	96	0	distractor	1	720	13.328	13.290	13.363
ProbeTrack7	28	ProbeTrack	1406	SCS215b	733725.419577	733725.421165	8	0.013328	60	10	60-180	60	171	GapPrac	1	15	3	0	0	distractor	1	520	13.328	13.293	13.363
ProbeTrack7	28	ProbeTrack	1406	SCS215b	733725.419577	733725.421246	8	0.013328	60	10	60-180	60	133	GapPrac	1	16	3	3	0	distractor	1	427	13.328	13.293	13.363
ProbeTrack7	28	ProbeTrack	1406	SCS215b	733725.419577	733725.421330	8	0.013328	60	10	60-180	60	75	GapPrac	1	17	3	6	0	distractor	1	493	13.328	13.293	13.363
ProbeTrack7	28	ProbeTrack	1406	SCS215b	733725.419577	733725.421402	8	0.013328	60	10	60-180	60	137	GapPrac	1	18	3	96	0	distractor	1	573	13.328	13.293	13.364
ProbeTrack7	28	ProbeTrack	1406	SCS215b	733725.419577	733725.421517	8	0.013328	60	10	60-180	60	98	GapPrac	1	19	3	6	0	distractor	1	533	13.328	13.293	13.363
ProbeTrack7	28	ProbeTrack	1406	SCS215b	733725.419577	733725.421639	8	0.013328	60	10	60-180	60	136	GapPrac	1	20	3	0	1	distractor	0	467	13.328	13.293	13.367
ProbeTrack7	28	ProbeTrack	1406	SCS215b	733725.422396	733725.422509	8	0.013328	60	10	60-180	60	166	GapPrac	1	1	3	6	0	distractor	1	360	13.328	13.293	13.363
ProbeTrack7	28	ProbeTrack	1406	SCS215b	733725.422396	733725.422603	8	0.013328	60	10	60-180	60	94	GapPrac	1	2	3	0	0	distractor	1	400	13.328	13.293	13.363
ProbeTrack7	28	ProbeTrack	1406	SCS215b	733725.422396	733725.422678	8	0.013328	60	10	60-180	60	145	GapPrac	1	3	3	6	1	target	1	547	13.328	13.293	13.363
ProbeTrack7	28	ProbeTrack	1406	SCS215b	733725.422396	733725.422764	8	0.013328	60	10	60-180	60	147	GapPrac	1	4	3	3	1	target	1	360	13.328	13.293	13.363
ProbeTrack7	28	ProbeTrack	1406	SCS215b	733725.422396	733725.422848	8	0.013328	60	10	60-180	60	111	GapPrac	1	5	3	96	0	distractor	1	507	13.328	13.293	13.367
ProbeTrack7	28	ProbeTrack	1406	SCS215b	733725.422396	733725.422949	8	0.013328	60	10	60-180	60	145	GapPrac	1	6	3	6	1	target	1	414	13.328	13.293	13.364
ProbeTrack7	28	ProbeTrack	1406	SCS215b	733725.422396	733725.423203	8	0.013328	60	10	60-180	60	79	GapPrac	1	7	3	3	0	distractor	1	480	13.328	13.293	13.363
ProbeTrack7	28	ProbeTrack	1406	SCS215b	733725.422396	733725.423280	8	0.013328	60	10	60-180	60	74	GapPrac	1	8	3	96	1	target	1	307	13.328	13.293	13.363
ProbeTrack7	28	ProbeTrack	1406	SCS215b	733725.422396	733725.423373	8	0.013328	60	10	60-180	60	161	GapPrac	1	9	3	6	0	distractor	1	414	13.328	13.293	13.363
ProbeTrack7	28	ProbeTrack	1406	SCS215b	733725.422396	733725.423461	8	0.013328	60	10	60-180	60	121	GapPrac	1	10	3	3	1	distractor	0	507	13.328	13.293	13.363
ProbeTrack7	28	ProbeTrack	1406	SCS215b	733725.422396	733725.423536	8	0.013328	60	10	60-180	60	175	GapPrac	1	11	3	96	1	distractor	0	334	13.328	13.290	13.363
ProbeTrack7	28	ProbeTrack	1406	SCS215b	733725.422396	733725.423644	8	0.013328	60	10	60-180	60	116	GapPrac	1	12	3	96	0	target	0	560	13.328	13.289	13.364
ProbeTrack7	28	ProbeTrack	1406	SCS215b	733725.422396	733725.423772	8	0.013328	60	10	60-180	60	110	GapPrac	1	13	3	0	1	target	1	627	13.328	13.293	13.364
ProbeTrack7	28	ProbeTrack	1406	SCS215b	733725.422396	733725.423936	8	0.013328	60	10	60-180	60	83	GapPrac	1	14	3	0	0	target	0	587	13.328	13.290	13.363
ProbeTrack7	28	ProbeTrack	1406	SCS215b	733725.422396	733725.424026	8	0.013328	60	10	60-180	60	95	GapPrac	1	15	3	0	0	target	0	467	13.328	13.293	13.363
ProbeTrack7	28	ProbeTrack	1406	SCS215b	733725.422396	733725.424154	8	0.013328	60	10	60-180	60	92	GapPrac	1	16	3	6	1	target	1	507	13.328	13.293	13.364
ProbeTrack7	28	ProbeTrack	1406	SCS215b	733725.422396	733725.424348	8	0.013328	60	10	60-180	60	84	GapPrac	1	17	3	0	1	target	1	600	13.328	13.293	13.363
ProbeTrack7	28	ProbeTrack	1406	SCS215b	733725.422396	733725.424426	8	0.013328	60	10	60-180	60	111	GapPrac	1	18	3	6	0	distractor	1	600	13.328	13.293	13.363
ProbeTrack7	28	ProbeTrack	1406	SCS215b	733725.422396	733725.424509	8	0.013328	60	10	60-180	60	123	GapPrac	1	19	3	3	1	target	1	454	13.328	13.292	13.366
ProbeTrack7	28	ProbeTrack	1406	SCS215b	733725.422396	733725.424582	8	0.013328	60	10	60-180	60	109	GapPrac	1	20	3	3	0	distractor	1	614	13.328	13.293	13.363
ProbeTrack7	28	ProbeTrack	1406	SCS215b	733725.425367	733725.425472	8	0.013328	60	10	60-180	60	73	GapExp	1	1	3	0	0	target	0	880	13.328	13.293	13.363
ProbeTrack7	28	ProbeTrack	1406	SCS215b	733725.425367	733725.425578	8	0.013328	60	10	60-180	60	79	GapExp	1	2	3	6	0	distractor	1	533	13.328	13.293	13.363
ProbeTrack7	28	ProbeTrack	1406	SCS215b	733725.425367	733725.425650	8	0.013328	60	10	60-180	60	142	GapExp	1	3	3	96	0	distractor	1	360	13.328	13.293	13.363
ProbeTrack7	28	ProbeTrack	1406	SCS215b	733725.425367	733725.425739	8	0.013328	60	10	60-180	60	76	GapExp	1	4	3	6	1	distractor	0	454	13.328	13.293	13.363
ProbeTrack7	28	ProbeTrack	1406	SCS215b	733725.425367	733725.425823	8	0.013328	60	10	60-180	60	61	GapExp	1	5	3	3	0	distractor	1	573	13.328	13.293	13.363
ProbeTrack7	28	ProbeTrack	1406	SCS215b	733725.425367	733725.425886	8	0.013328	60	10	60-180	60	172	GapExp	0	6	3	96	1	target	1	414	13.328	13.293	13.363
ProbeTrack7	28	ProbeTrack	1406	SCS215b	733725.425367	733725.425981	8	0.013328	60	10	60-180	60	93	GapExp	0	7	3	6	1	target	1	400	13.328	13.293	13.363
ProbeTrack7	28	ProbeTrack	1406	SCS215b	733725.425367	733725.426053	8	0.013328	60	10	60-180	60	151	GapExp	0	8	3	0	1	target	1	427	13.328	13.293	13.363
ProbeTrack7	28	ProbeTrack	1406	SCS215b	733725.425367	733725.426134	8	0.013328	60	10	60-180	60	166	GapExp	0	9	3	3	0	distractor	1	467	13.328	13.293	13.364
ProbeTrack7	28	ProbeTrack	1406	SCS215b	733725.425367	733725.426223	8	0.013328	60	10	60-180	60	136	GapExp	0	10	3	0	0	distractor	1	613	13.328	13.293	13.364
ProbeTrack7	28	ProbeTrack	1406	SCS215b	733725.425367	733725.426306	8	0.013328	60	10	60-180	60	96	GapExp	0	11	3	6	0	distractor	1	427	13.328	13.292	13.363
ProbeTrack7	28	ProbeTrack	1406	SCS215b	733725.425367	733725.426377	8	0.013328	60	10	60-180	60	141	GapExp	0	12	3	96	0	target	0	414	13.328	13.293	13.363
ProbeTrack7	28	ProbeTrack	1406	SCS215b	733725.425367	733725.426467	8	0.013328	60	10	60-180	60	102	GapExp	0	13	3	96	1	target	1	360	13.328	13.293	13.366
ProbeTrack7	28	ProbeTrack	1406	SCS215b	733725.425367	733725.426557	8	0.013328	60	10	60-180	60	136	GapExp	0	14	3	0	1	target	1	493	13.328	13.293	13.364
ProbeTrack7	28	ProbeTrack	1406	SCS215b	733725.425367	733725.426646	8	0.013328	60	10	60-180	60	81	GapExp	0	15	3	3	1	distractor	0	547	13.328	13.293	13.363
ProbeTrack7	28	ProbeTrack	1406	SCS215b	733725.425367	733725.426714	8	0.013328	60	10	60-180	60	137	GapExp	0	16	3	3	1	target	1	427	13.328	13.293	13.366
ProbeTrack7	28	ProbeTrack	1406	SCS215b	733725.425367	733725.426797	8	0.013328	60	10	60-180	60	137	GapExp	0	17	3	96	1	distractor	0	467	13.328	13.290	13.364
ProbeTrack7	28	ProbeTrack	1406	SCS215b	733725.425367	733725.426903	8	0.013328	60	10	60-180	60	144	GapExp	0	18	3	6	0	distractor	1	587	13.328	13.289	13.364
ProbeTrack7	28	ProbeTrack	1406	SCS215b	733725.425367	733725.426980	8	0.013328	60	10	60-180	60	137	GapExp	0	19	3	6	0	target	0	520	13.328	13.293	13.363
ProbeTrack7	28	ProbeTrack	1406	SCS215b	733725.425367	733725.427067	8	0.013328	60	10	60-180	60	143	GapExp	0	20	3	96	0	target	0	413	13.328	13.293	13.363
ProbeTrack7	28	ProbeTrack	1406	SCS215b	733725.425367	733725.427156	8	0.013328	60	10	60-180	60	178	GapExp	0	21	3	96	0	target	0	400	13.328	13.293	13.363
ProbeTrack7	28	ProbeTrack	1406	SCS215b	733725.425367	733725.427250	8	0.013328	60	10	60-180	60	79	GapExp	0	22	3	6	1	target	1	347	13.328	13.293	13.363
ProbeTrack7	28	ProbeTrack	1406	SCS215b	733725.425367	733725.427321	8	0.013328	60	10	60-180	60	167	GapExp	0	23	3	0	0	target	0	667	13.328	13.293	13.363
ProbeTrack7	28	ProbeTrack	1406	SCS215b	733725.425367	733725.427414	8	0.013328	60	10	60-180	60	63	GapExp	0	24	3	6	0	distractor	1	773	13.328	13.293	13.363
ProbeTrack7	28	ProbeTrack	1406	SCS215b	733725.425367	733725.427583	8	0.013328	60	10	60-180	60	70	GapExp	0	25	3	0	0	distractor	1	493	13.328	13.293	13.363
ProbeTrack7	28	ProbeTrack	1406	SCS215b	733725.425367	733725.427650	8	0.013328	60	10	60-180	60	101	GapExp	0	26	3	96	1	distractor	0	334	13.328	13.293	13.364
ProbeTrack7	28	ProbeTrack	1406	SCS215b	733725.425367	733725.427739	8	0.013328	60	10	60-180	60	111	GapExp	0	27	3	96	0	target	0	400	13.328	13.290	13.363
ProbeTrack7	28	ProbeTrack	1406	SCS215b	733725.425367	733725.427824	8	0.013328	60	10	60-180	60	78	GapExp	0	28	3	0	0	target	0	453	13.328	13.292	13.363
ProbeTrack7	28	ProbeTrack	1406	SCS215b	733725.425367	733725.427889	8	0.013328	60	10	60-180	60	152	GapExp	0	29	3	3	1	target	1	587	13.328	13.293	13.363
ProbeTrack7	28	ProbeTrack	1406	SCS215b	733725.425367	733725.427976	8	0.013328	60	10	60-180	60	149	GapExp	0	30	3	6	0	distractor	1	507	13.328	13.293	13.363
ProbeTrack7	28	ProbeTrack	1406	SCS215b	733725.425367	733725.428058	8	0.013328	60	10	60-180	60	119	GapExp	0	31	3	96	1	distractor	0	733	13.328	13.293	13.363
ProbeTrack7	28	ProbeTrack	1406	SCS215b	733725.425367	733725.428149	8	0.013328	60	10	60-180	60	166	GapExp	0	32	3	3	1	distractor	0	480	13.328	13.293	13.363
ProbeTrack7	28	ProbeTrack	1406	SCS215b	733725.425367	733725.428226	8	0.013328	60	10	60-180	60	121	GapExp	0	33	3	3	0	distractor	1	520	13.328	13.293	13.364
ProbeTrack7	28	ProbeTrack	1406	SCS215b	733725.425367	733725.428293	8	0.013328	60	10	60-180	60	171	GapExp	0	34	3	0	0	distractor	1	440	13.328	13.293	13.363
ProbeTrack7	28	ProbeTrack	1406	SCS215b	733725.425367	733725.428380	8	0.013328	60	10	60-180	60	76	GapExp	0	35	3	6	0	distractor	1	640	13.328	13.289	13.363
ProbeTrack7	28	ProbeTrack	1406	SCS215b	733725.425367	733725.428466	8	0.013328	60	10	60-180	60	106	GapExp	0	36	3	96	0	target	0	454	13.328	13.293	13.363
ProbeTrack7	28	ProbeTrack	1406	SCS215b	733725.425367	733725.428550	8	0.013328	60	10	60-180	60	89	GapExp	0	37	3	96	0	distractor	1	427	13.328	13.293	13.364
ProbeTrack7	28	ProbeTrack	1406	SCS215b	733725.425367	733725.428627	8	0.013328	60	10	60-180	60	111	GapExp	0	38	3	0	1	target	1	533	13.328	13.290	13.363
ProbeTrack7	28	ProbeTrack	1406	SCS215b	733725.425367	733725.428703	8	0.013328	60	10	60-180	60	102	GapExp	0	39	3	96	0	target	0	413	13.328	13.291	13.366
ProbeTrack7	28	ProbeTrack	1406	SCS215b	733725.425367	733725.428808	8	0.013328	60	10	60-180	60	172	GapExp	0	40	3	0	1	target	1	533	13.328	13.292	13.363
ProbeTrack7	28	ProbeTrack	1406	SCS215b	733725.425367	733725.428922	8	0.013328	60	10	60-180	60	145	GapExp	0	41	3	96	1	distractor	0	427	13.328	13.290	13.367
ProbeTrack7	28	ProbeTrack	1406	SCS215b	733725.425367	733725.429015	8	0.013328	60	10	60-180	60	86	GapExp	0	42	3	3	1	target	1	467	13.328	13.293	13.363
ProbeTrack7	28	ProbeTrack	1406	SCS215b	733725.425367	733725.429081	8	0.013328	60	10	60-180	60	147	GapExp	0	43	3	6	1	target	1	320	13.328	13.291	13.363
ProbeTrack7	28	ProbeTrack	1406	SCS215b	733725.425367	733725.429157	8	0.013328	60	10	60-180	60	118	GapExp	0	44	3	0	1	target	1	547	13.328	13.293	13.363
ProbeTrack7	28	ProbeTrack	1406	SCS215b	733725.425367	733725.429244	8	0.013328	60	10	60-180	60	66	GapExp	0	45	3	3	0	distractor	1	453	13.328	13.291	13.363
ProbeTrack7	28	ProbeTrack	1406	SCS215b	733725.425367	733725.429344	8	0.013328	60	10	60-180	60	147	GapExp	0	46	3	6	1	distractor	0	307	13.328	13.293	13.363
ProbeTrack7	28	ProbeTrack	1406	SCS215b	733725.425367	733725.429423	8	0.013328	60	10	60-180	60	116	GapExp	0	47	3	0	1	distractor	0	400	13.328	13.293	13.363
ProbeTrack7	28	ProbeTrack	1406	SCS215b	733725.425367	733725.429515	8	0.013328	60	10	60-180	60	62	GapExp	0	48	3	0	1	target	1	440	13.328	13.293	13.363
ProbeTrack7	28	ProbeTrack	1406	SCS215b	733725.425367	733725.429578	8	0.013328	60	10	60-180	60	105	GapExp	0	49	3	3	1	distractor	0	453	13.328	13.293	13.363
ProbeTrack7	28	ProbeTrack	1406	SCS215b	733725.425367	733725.429646	8	0.013328	60	10	60-180	60	155	GapExp	0	50	3	3	1	distractor	0	427	13.328	13.293	13.368
ProbeTrack7	28	ProbeTrack	1406	SCS215b	733725.425367	733725.429721	8	0.013328	60	10	60-180	60	171	GapExp	0	51	3	3	0	distractor	1	533	13.328	13.290	13.366
ProbeTrack7	28	ProbeTrack	1406	SCS215b	733725.425367	733725.429841	8	0.013328	60	10	60-180	60	102	GapExp	0	52	3	6	0	distractor	1	507	13.328	13.293	13.365
ProbeTrack7	28	ProbeTrack	1406	SCS215b	733725.425367	733725.429910	8	0.013328	60	10	60-180	60	153	GapExp	0	53	3	96	1	target	1	600	13.328	13.293	13.364
ProbeTrack7	28	ProbeTrack	1406	SCS215b	733725.425367	733725.430001	8	0.013328	60	10	60-180	60	130	GapExp	0	54	3	3	1	target	1	827	13.328	13.293	13.363
ProbeTrack7	28	ProbeTrack	1406	SCS215b	733725.425367	733725.430077	8	0.013328	60	10	60-180	60	123	GapExp	0	55	3	0	0	distractor	1	494	13.328	13.293	13.363
ProbeTrack7	28	ProbeTrack	1406	SCS215b	733725.425367	733725.430151	8	0.013328	60	10	60-180	60	156	GapExp	0	56	3	6	0	distractor	1	467	13.328	13.293	13.363
ProbeTrack7	28	ProbeTrack	1406	SCS215b	733725.425367	733725.430271	8	0.013328	60	10	60-180	60	86	GapExp	0	57	3	96	0	distractor	1	387	13.328	13.293	13.364
ProbeTrack7	28	ProbeTrack	1406	SCS215b	733725.425367	733725.430352	8	0.013328	60	10	60-180	60	148	GapExp	0	58	3	3	0	target	0	573	13.328	13.293	13.363
ProbeTrack7	28	ProbeTrack	1406	SCS215b	733725.425367	733725.430428	8	0.013328	60	10	60-180	60	104	GapExp	0	59	3	3	0	distractor	1	493	13.328	13.293	13.363
ProbeTrack7	28	ProbeTrack	1406	SCS215b	733725.425367	733725.430498	8	0.013328	60	10	60-180	60	71	GapExp	0	60	3	0	0	distractor	1	547	13.328	13.290	13.363
ProbeTrack7	28	ProbeTrack	1406	SCS215b	733725.425367	733725.430561	8	0.013328	60	10	60-180	60	110	GapExp	0	61	3	96	1	target	1	387	13.328	13.293	13.363
ProbeTrack7	28	ProbeTrack	1406	SCS215b	733725.425367	733725.430642	8	0.013328	60	10	60-180	60	114	GapExp	0	62	3	96	1	13	-3	453	13.328	13.293	13.363
ProbeTrack7	28	ProbeTrack	1406	SCS215b	733725.425367	733725.430735	8	0.013328	60	10	60-180	60	158	GapExp	0	63	3	96	1	target	1	347	13.328	13.293	13.363
ProbeTrack7	28	ProbeTrack	1406	SCS215b	733725.425367	733725.430834	8	0.013328	60	10	60-180	60	135	GapExp	0	64	3	3	0	distractor	1	453	13.328	13.293	13.364
ProbeTrack7	28	ProbeTrack	1406	SCS215b	733725.425367	733725.430930	8	0.013328	60	10	60-180	60	93	GapExp	0	65	3	96	0	distractor	1	720	13.328	13.293	13.363
ProbeTrack7	28	ProbeTrack	1406	SCS215b	733725.425367	733725.431020	8	0.013328	60	10	60-180	60	65	GapExp	0	66	3	6	0	distractor	1	573	13.328	13.293	13.363
ProbeTrack7	28	ProbeTrack	1406	SCS215b	733725.425367	733725.431093	8	0.013328	60	10	60-180	60	92	GapExp	0	67	3	3	1	target	1	573	13.328	13.293	13.363
ProbeTrack7	28	ProbeTrack	1406	SCS215b	733725.425367	733725.431166	8	0.013328	60	10	60-180	60	121	GapExp	0	68	3	6	0	distractor	1	347	13.328	13.293	13.363
ProbeTrack7	28	ProbeTrack	1406	SCS215b	733725.425367	733725.431235	8	0.013328	60	10	60-180	60	150	GapExp	0	69	3	3	1	distractor	0	360	13.328	13.293	13.363
ProbeTrack7	28	ProbeTrack	1406	SCS215b	733725.425367	733725.431311	8	0.013328	60	10	60-180	60	65	GapExp	0	70	3	6	0	distractor	1	467	13.328	13.293	13.363
ProbeTrack7	28	ProbeTrack	1406	SCS215b	733725.425367	733725.431375	8	0.013328	60	10	60-180	60	157	GapExp	0	71	3	96	0	target	0	347	13.328	13.292	13.363
ProbeTrack7	28	ProbeTrack	1406	SCS215b	733725.425367	733725.431468	8	0.013328	60	10	60-180	60	142	GapExp	0	72	3	96	0	target	0	427	13.328	13.293	13.363
ProbeTrack7	28	ProbeTrack	1406	SCS215b	733725.425367	733725.431576	8	0.013328	60	10	60-180	60	172	GapExp	0	73	3	3	0	distractor	1	467	13.328	13.290	13.366
ProbeTrack7	28	ProbeTrack	1406	SCS215b	733725.425367	733725.431657	8	0.013328	60	10	60-180	60	94	GapExp	0	74	3	3	1	distractor	0	613	13.328	13.290	13.363
ProbeTrack7	28	ProbeTrack	1406	SCS215b	733725.425367	733725.431728	8	0.013328	60	10	60-180	60	106	GapExp	0	75	3	3	0	distractor	1	787	13.328	13.293	13.363
ProbeTrack7	28	ProbeTrack	1406	SCS215b	733725.425367	733725.431804	8	0.013328	60	10	60-180	60	114	GapExp	0	76	3	3	1	distractor	0	467	13.328	13.293	13.363
ProbeTrack7	28	ProbeTrack	1406	SCS215b	733725.425367	733725.431912	8	0.013328	60	10	60-180	60	161	GapExp	0	77	3	0	0	distractor	1	600	13.328	13.293	13.363
ProbeTrack7	28	ProbeTrack	1406	SCS215b	733725.425367	733725.431990	8	0.013328	60	10	60-180	60	169	GapExp	0	78	3	6	1	target	1	480	13.328	13.293	13.363
ProbeTrack7	28	ProbeTrack	1406	SCS215b	733725.425367	733725.432074	8	0.013328	60	10	60-180	60	74	GapExp	0	79	3	3	0	distractor	1	533	13.328	13.293	13.365
ProbeTrack7	28	ProbeTrack	1406	SCS215b	733725.425367	733725.432140	8	0.013328	60	10	60-180	60	98	GapExp	0	80	3	96	0	target	0	387	13.328	13.291	13.363
ProbeTrack7	28	ProbeTrack	1406	SCS215b	733725.425367	733725.432222	8	0.013328	60	10	60-180	60	156	GapExp	0	81	3	96	0	distractor	1	613	13.328	13.293	13.363
ProbeTrack7	28	ProbeTrack	1406	SCS215b	733725.425367	733725.432316	8	0.013328	60	10	60-180	60	61	GapExp	0	82	3	96	1	target	1	493	13.328	13.283	13.363
ProbeTrack7	28	ProbeTrack	1406	SCS215b	733725.425367	733725.432406	8	0.013328	60	10	60-180	60	140	GapExp	0	83	3	96	1	target	1	493	13.328	13.292	13.363
ProbeTrack7	28	ProbeTrack	1406	SCS215b	733725.425367	733725.432497	8	0.013328	60	10	60-180	60	64	GapExp	0	84	3	0	0	distractor	1	507	13.328	13.293	13.363
ProbeTrack7	28	ProbeTrack	1406	SCS215b	733725.425367	733725.432568	8	0.013328	60	10	60-180	60	79	GapExp	0	85	3	6	1	distractor	0	307	13.328	13.293	13.363
ProbeTrack7	28	ProbeTrack	1406	SCS215b	733725.425367	733725.432632	8	0.013328	60	10	60-180	60	135	GapExp	0	86	3	96	0	distractor	1	387	13.328	13.293	13.364
ProbeTrack7	28	ProbeTrack	1406	SCS215b	733725.425367	733725.432798	8	0.013328	60	10	60-180	60	152	GapExp	0	87	3	6	0	distractor	1	640	13.328	13.293	13.364
ProbeTrack7	28	ProbeTrack	1406	SCS215b	733725.425367	733725.432876	8	0.013328	60	10	60-180	60	180	GapExp	0	88	3	0	0	distractor	1	600	13.328	13.293	13.363
ProbeTrack7	28	ProbeTrack	1406	SCS215b	733725.425367	733725.432958	8	0.013328	60	10	60-180	60	96	GapExp	0	89	3	6	1	target	1	480	13.328	13.293	13.363
ProbeTrack7	28	ProbeTrack	1406	SCS215b	733725.425367	733725.433028	8	0.013328	60	10	60-180	60	108	GapExp	0	90	3	0	1	target	1	533	13.328	13.293	13.363
ProbeTrack7	28	ProbeTrack	1406	SCS215b	733725.425367	733725.433099	8	0.013328	60	10	60-180	60	173	GapExp	0	91	3	0	1	target	1	573	13.328	13.292	13.364
ProbeTrack7	28	ProbeTrack	1406	SCS215b	733725.425367	733725.433181	8	0.013328	60	10	60-180	60	161	GapExp	0	92	3	0	0	distractor	1	467	13.328	13.293	13.363
ProbeTrack7	28	ProbeTrack	1406	SCS215b	733725.425367	733725.433261	8	0.013328	60	10	60-180	60	169	GapExp	0	93	3	3	0	target	0	400	13.328	13.293	13.364
ProbeTrack7	28	ProbeTrack	1406	SCS215b	733725.425367	733725.433342	8	0.013328	60	10	60-180	60	175	GapExp	0	94	3	3	0	distractor	1	480	13.328	13.293	13.368
ProbeTrack7	28	ProbeTrack	1406	SCS215b	733725.425367	733725.433434	8	0.013328	60	10	60-180	60	164	GapExp	0	95	3	0	1	distractor	0	627	13.328	13.292	13.363
ProbeTrack7	28	ProbeTrack	1406	SCS215b	733725.425367	733725.433516	8	0.013328	60	10	60-180	60	85	GapExp	0	96	3	0	1	target	1	653	13.328	13.293	13.365
ProbeTrack7	28	ProbeTrack	1406	SCS215b	733725.425367	733725.433584	8	0.013328	60	10	60-180	60	72	GapExp	0	97	3	3	0	distractor	1	453	13.328	13.293	13.363
ProbeTrack7	28	ProbeTrack	1406	SCS215b	733725.425367	733725.433656	8	0.013328	60	10	60-180	60	114	GapExp	0	98	3	6	1	target	1	560	13.328	13.293	13.363
ProbeTrack7	28	ProbeTrack	1406	SCS215b	733725.425367	733725.433737	8	0.013328	60	10	60-180	60	147	GapExp	0	99	3	96	0	distractor	1	454	13.328	13.293	13.366
ProbeTrack7	28	ProbeTrack	1406	SCS215b	733725.425367	733725.433827	8	0.013328	60	10	60-180	60	110	GapExp	0	100	3	0	1	distractor	0	520	13.328	13.293	13.364
ProbeTrack7	28	ProbeTrack	1406	SCS215b	733725.425367	733725.433914	8	0.013328	60	10	60-180	60	69	GapExp	0	101	3	6	1	target	1	507	13.328	13.289	13.368
ProbeTrack7	28	ProbeTrack	1406	SCS215b	733725.425367	733725.433981	8	0.013328	60	10	60-180	60	84	GapExp	0	102	3	6	1	target	1	533	13.328	13.288	13.368
ProbeTrack7	28	ProbeTrack	1406	SCS215b	733725.425367	733725.434051	8	0.013328	60	10	60-180	60	88	GapExp	0	103	3	0	0	distractor	1	507	13.328	13.293	13.364
ProbeTrack7	28	ProbeTrack	1406	SCS215b	733725.425367	733725.434117	8	0.013328	60	10	60-180	60	86	GapExp	0	104	3	6	0	distractor	1	480	13.328	13.289	13.363
ProbeTrack7	28	ProbeTrack	1406	SCS215b	733725.425367	733725.434183	8	0.013328	60	10	60-180	60	92	GapExp	0	105	3	6	1	distractor	0	573	13.328	13.293	13.368
ProbeTrack7	28	ProbeTrack	1406	SCS215b	733725.425367	733725.434255	8	0.013328	60	10	60-180	60	101	GapExp	0	106	3	96	1	distractor	0	480	13.328	13.290	13.366
ProbeTrack7	28	ProbeTrack	1406	SCS215b	733725.425367	733725.434340	8	0.013328	60	10	60-180	60	143	GapExp	0	107	3	3	0	target	0	627	13.328	13.293	13.366
ProbeTrack7	28	ProbeTrack	1406	SCS215b	733725.425367	733725.434416	8	0.013328	60	10	60-180	60	85	GapExp	0	108	3	3	1	distractor	0	387	13.328	13.293	13.363
ProbeTrack7	28	ProbeTrack	1406	SCS215b	733725.425367	733725.434480	8	0.013328	60	10	60-180	60	117	GapExp	0	109	3	96	1	distractor	0	573	13.328	13.289	13.364
ProbeTrack7	28	ProbeTrack	1406	SCS215b	733725.425367	733725.434572	8	0.013328	60	10	60-180	60	66	GapExp	0	110	3	6	0	target	0	640	13.328	13.293	13.363
ProbeTrack7	28	ProbeTrack	1406	SCS215b	733725.425367	733725.434638	8	0.013328	60	10	60-180	60	171	GapExp	0	111	3	0	0	distractor	1	520	13.328	13.287	13.363
ProbeTrack7	28	ProbeTrack	1406	SCS215b	733725.425367	733725.434718	8	0.013328	60	10	60-180	60	121	GapExp	0	112	3	3	0	distractor	1	414	13.328	13.293	13.363
ProbeTrack7	28	ProbeTrack	1406	SCS215b	733725.425367	733725.434791	8	0.013328	60	10	60-180	60	154	GapExp	0	113	3	3	1	target	1	387	13.328	13.293	13.363
ProbeTrack7	28	ProbeTrack	1406	SCS215b	733725.425367	733725.434868	8	0.013328	60	10	60-180	60	78	GapExp	0	114	3	0	0	target	0	467	13.328	13.293	13.363
ProbeTrack7	28	ProbeTrack	1406	SCS215b	733725.425367	733725.434933	8	0.013328	60	10	60-180	60	130	GapExp	0	115	3	0	1	distractor	0	507	13.328	13.293	13.364
ProbeTrack7	28	ProbeTrack	1406	SCS215b	733725.425367	733725.435010	8	0.013328	60	10	60-180	60	178	GapExp	0	116	3	0	1	target	1	467	13.328	13.293	13.363
ProbeTrack7	28	ProbeTrack	1406	SCS215b	733725.425367	733725.435090	8	0.013328	60	10	60-180	60	101	GapExp	0	117	3	6	1	target	1	507	13.328	13.293	13.363
ProbeTrack7	28	ProbeTrack	1406	SCS215b	733725.425367	733725.435157	8	0.013328	60	10	60-180	60	145	GapExp	0	118	3	0	1	distractor	0	334	13.328	13.293	13.363
ProbeTrack7	28	ProbeTrack	1406	SCS215b	733725.425367	733725.435230	8	0.013328	60	10	60-180	60	114	GapExp	0	119	3	0	0	target	0	520	13.328	13.293	13.363
ProbeTrack7	28	ProbeTrack	1406	SCS215b	733725.425367	733725.435300	8	0.013328	60	10	60-180	60	136	GapExp	0	120	3	6	1	distractor	0	493	13.328	13.287	13.369
ProbeTrack7	28	ProbeTrack	1406	SCS215b	733725.425367	733725.435373	8	0.013328	60	10	60-180	60	177	GapExp	0	121	3	3	1	target	1	387	13.328	13.293	13.364
ProbeTrack7	28	ProbeTrack	1406	SCS215b	733725.425367	733725.435452	8	0.013328	60	10	60-180	60	83	GapExp	0	122	3	6	0	distractor	1	640	13.328	13.293	13.364
ProbeTrack7	28	ProbeTrack	1406	SCS215b	733725.425367	733725.435522	8	0.013328	60	10	60-180	60	81	GapExp	0	123	3	6	1	distractor	0	560	13.328	13.293	13.363
ProbeTrack7	28	ProbeTrack	1406	SCS215b	733725.425367	733725.435591	8	0.013328	60	10	60-180	60	162	GapExp	0	124	3	96	1	target	1	360	13.328	13.293	13.369
ProbeTrack7	28	ProbeTrack	1406	SCS215b	733725.425367	733725.435683	8	0.013328	60	10	60-180	60	67	GapExp	0	125	3	6	1	distractor	0	627	13.328	13.293	13.364
