exp	sub	code	rev	comp	runtime	trialtime	nstim	refreshdur	cuedur	gapdur	gapOnsetRange	durPostProbe	gapOnsetTime	blocktype	prac	trial	ntargets	soa	probeTarget	resp	acc	rt	meanFrameDur	minFrameDur	maxFrameDur
ProbeTrack7	25	ProbeTrack	1406	SCS215g	733725.337526	733725.337683	8	0.013328	60	0	60-180	60	168	NoGap	1	1	4	0	0	distractor	1	1373	13.328	13.322	13.334
ProbeTrack7	25	ProbeTrack	1406	SCS215g	733725.337526	733725.337799	8	0.013328	60	0	60-180	60	125	NoGap	1	2	4	0	1	distractor	0	413	13.328	13.327	13.330
ProbeTrack7	25	ProbeTrack	1406	SCS215g	733725.337526	733725.337920	8	0.013328	60	0	60-180	60	174	NoGap	1	3	4	6	0	distractor	1	587	13.328	13.323	13.333
ProbeTrack7	25	ProbeTrack	1406	SCS215g	733725.337526	733725.338024	8	0.013328	60	0	60-180	60	131	NoGap	1	4	4	96	0	target	0	600	13.328	13.325	13.333
ProbeTrack7	25	ProbeTrack	1406	SCS215g	733725.337526	733725.338114	8	0.013328	60	0	60-180	60	74	NoGap	1	5	4	96	0	distractor	1	507	13.328	13.323	13.333
ProbeTrack7	25	ProbeTrack	1406	SCS215g	733725.337526	733725.338197	8	0.013328	60	0	60-180	60	174	NoGap	1	6	4	3	1	target	1	547	13.328	13.318	13.340
ProbeTrack7	25	ProbeTrack	1406	SCS215g	733725.337526	733725.338280	8	0.013328	60	0	60-180	60	118	NoGap	1	7	4	3	0	distractor	1	533	13.328	13.326	13.332
ProbeTrack7	25	ProbeTrack	1406	SCS215g	733725.337526	733725.338352	8	0.013328	60	0	60-180	60	113	NoGap	1	8	4	6	1	target	1	760	13.328	13.325	13.333
ProbeTrack7	25	ProbeTrack	1406	SCS215g	733725.337526	733725.338426	8	0.013328	60	0	60-180	60	77	NoGap	1	9	4	6	0	distractor	1	680	13.328	13.324	13.331
ProbeTrack7	25	ProbeTrack	1406	SCS215g	733725.337526	733725.338501	8	0.013328	60	0	60-180	60	180	NoGap	1	10	4	96	1	target	1	627	13.328	13.324	13.334
ProbeTrack7	25	ProbeTrack	1406	SCS215g	733725.337526	733725.338599	8	0.013328	60	0	60-180	60	98	NoGap	1	11	4	6	0	distractor	1	707	13.328	13.316	13.342
ProbeTrack7	25	ProbeTrack	1406	SCS215g	733725.337526	733725.338677	8	0.013328	60	0	60-180	60	116	NoGap	1	12	4	96	1	target	1	707	13.328	13.324	13.334
ProbeTrack7	25	ProbeTrack	1406	SCS215g	733725.337526	733725.338768	8	0.013328	60	0	60-180	60	162	NoGap	1	13	4	3	0	distractor	1	640	13.328	13.323	13.333
ProbeTrack7	25	ProbeTrack	1406	SCS215g	733725.337526	733725.338852	8	0.013328	60	0	60-180	60	101	NoGap	1	14	4	0	1	target	1	733	13.328	13.323	13.334
ProbeTrack7	25	ProbeTrack	1406	SCS215g	733725.337526	733725.338923	8	0.013328	60	0	60-180	60	142	NoGap	1	15	4	96	1	distractor	0	680	13.328	13.317	13.338
ProbeTrack7	25	ProbeTrack	1406	SCS215g	733725.337526	733725.339017	8	0.013328	60	0	60-180	60	151	NoGap	1	16	4	96	1	target	1	613	13.328	13.324	13.332
ProbeTrack7	25	ProbeTrack	1406	SCS215g	733725.337526	733725.339111	8	0.013328	60	0	60-180	60	78	NoGap	1	17	4	96	1	target	1	560	13.328	13.322	13.333
ProbeTrack7	25	ProbeTrack	1406	SCS215g	733725.337526	733725.339192	8	0.013328	60	0	60-180	60	133	NoGap	1	18	4	96	0	distractor	1	533	13.328	13.324	13.333
ProbeTrack7	25	ProbeTrack	1406	SCS215g	733725.337526	733725.339283	8	0.013328	60	0	60-180	60	78	NoGap	1	19	4	3	1	target	1	573	13.328	13.324	13.333
ProbeTrack7	25	ProbeTrack	1406	SCS215g	733725.337526	733725.339351	8	0.013328	60	0	60-180	60	178	NoGap	1	20	4	0	0	distractor	1	573	13.328	13.324	13.334
ProbeTrack7	25	ProbeTrack	1406	SCS215g	733725.337526	733725.339433	8	0.013328	60	0	60-180	60	151	NoGap	1	21	4	0	0	distractor	1	600	13.328	13.323	13.334
ProbeTrack7	25	ProbeTrack	1406	SCS215g	733725.337526	733725.339511	8	0.013328	60	0	60-180	60	108	NoGap	1	22	4	3	0	distractor	1	1640	13.328	13.324	13.334
ProbeTrack7	25	ProbeTrack	1406	SCS215g	733725.337526	733725.339673	8	0.013328	60	0	60-180	60	81	NoGap	1	23	4	0	0	distractor	1	773	13.328	13.327	13.330
ProbeTrack7	25	ProbeTrack	1406	SCS215g	733725.337526	733725.339743	8	0.013328	60	0	60-180	60	118	NoGap	1	24	4	3	0	target	0	600	13.328	13.325	13.333
ProbeTrack7	25	ProbeTrack	1406	SCS215g	733725.337526	733725.339823	8	0.013328	60	0	60-180	60	134	NoGap	1	25	4	3	1	target	1	547	13.328	13.323	13.334
ProbeTrack7	25	ProbeTrack	1406	SCS215g	733725.337526	733725.339898	8	0.013328	60	0	60-180	60	140	NoGap	1	26	4	6	0	distractor	1	773	13.328	13.320	13.337
ProbeTrack7	25	ProbeTrack	1406	SCS215g	733725.337526	733725.339976	8	0.013328	60	0	60-180	60	62	NoGap	1	27	4	96	1	target	1	573	13.328	13.323	13.334
ProbeTrack7	25	ProbeTrack	1406	SCS215g	733725.337526	733725.340055	8	0.013328	60	0	60-180	60	147	NoGap	1	28	4	6	0	distractor	1	693	13.328	13.325	13.332
ProbeTrack7	25	ProbeTrack	1406	SCS215g	733725.337526	733725.340135	8	0.013328	60	0	60-180	60	78	NoGap	1	29	4	6	1	target	1	880	13.328	13.327	13.330
ProbeTrack7	25	ProbeTrack	1406	SCS215g	733725.337526	733725.340205	8	0.013328	60	0	60-180	60	124	NoGap	1	30	4	6	1	target	1	547	13.328	13.324	13.333
ProbeTrack7	25	ProbeTrack	1406	SCS215g	733725.337526	733725.340279	8	0.013328	60	0	60-180	60	61	NoGap	1	31	4	6	1	distractor	0	720	13.328	13.325	13.331
ProbeTrack7	25	ProbeTrack	1406	SCS215g	733725.337526	733725.340347	8	0.013328	60	0	60-180	60	107	NoGap	1	32	4	3	0	distractor	1	733	13.328	13.325	13.332
ProbeTrack7	25	ProbeTrack	1406	SCS215g	733725.337526	733725.340417	8	0.013328	60	0	60-180	60	167	NoGap	1	33	4	0	1	target	1	613	13.328	13.323	13.333
ProbeTrack7	25	ProbeTrack	1406	SCS215g	733725.337526	733725.340498	8	0.013328	60	0	60-180	60	96	NoGap	1	34	4	6	1	target	1	600	13.328	13.322	13.333
ProbeTrack7	25	ProbeTrack	1406	SCS215g	733725.337526	733725.340567	8	0.013328	60	0	60-180	60	176	NoGap	1	35	4	6	0	distractor	1	587	13.328	13.319	13.338
ProbeTrack7	25	ProbeTrack	1406	SCS215g	733725.337526	733725.340648	8	0.013328	60	0	60-180	60	87	NoGap	1	36	4	0	1	target	1	573	13.328	13.324	13.333
ProbeTrack7	25	ProbeTrack	1406	SCS215g	733725.337526	733725.340716	8	0.013328	60	0	60-180	60	96	NoGap	1	37	4	3	1	target	1	534	13.328	13.323	13.335
ProbeTrack7	25	ProbeTrack	1406	SCS215g	733725.337526	733725.340786	8	0.013328	60	0	60-180	60	134	NoGap	1	38	4	6	0	distractor	1	533	13.328	13.315	13.341
ProbeTrack7	25	ProbeTrack	1406	SCS215g	733725.337526	733725.340860	8	0.013328	60	0	60-180	60	93	NoGap	1	39	4	0	0	distractor	1	653	13.328	13.325	13.333
ProbeTrack7	25	ProbeTrack	1406	SCS215g	733725.337526	733725.340931	8	0.013328	60	0	60-180	60	78	NoGap	1	40	4	0	1	target	1	613	13.328	13.323	13.334
ProbeTrack7	25	ProbeTrack	1406	SCS215g	733725.337526	733725.340997	8	0.013328	60	0	60-180	60	159	NoGap	1	41	4	96	0	distractor	1	613	13.328	13.315	13.342
ProbeTrack7	25	ProbeTrack	1406	SCS215g	733725.337526	733725.341090	8	0.013328	60	0	60-180	60	61	NoGap	1	42	4	96	0	distractor	1	587	13.328	13.324	13.334
ProbeTrack7	25	ProbeTrack	1406	SCS215g	733725.337526	733725.341167	8	0.013328	60	0	60-180	60	172	NoGap	1	43	4	0	1	target	1	680	13.328	13.321	13.335
ProbeTrack7	25	ProbeTrack	1406	SCS215g	733725.337526	733725.341247	8	0.013328	60	0	60-180	60	176	NoGap	1	44	4	6	1	target	1	600	13.328	13.309	13.347
ProbeTrack7	25	ProbeTrack	1406	SCS215g	733725.337526	733725.341331	8	0.013328	60	0	60-180	60	109	NoGap	1	45	4	0	0	distractor	1	573	13.328	13.324	13.332
ProbeTrack7	25	ProbeTrack	1406	SCS215g	733725.337526	733725.341400	8	0.013328	60	0	60-180	60	93	NoGap	1	46	4	3	1	target	1	573	13.328	13.319	13.338
ProbeTrack7	25	ProbeTrack	1406	SCS215g	733725.337526	733725.341468	8	0.013328	60	0	60-180	60	69	NoGap	1	47	4	3	0	distractor	1	547	13.328	13.315	13.341
ProbeTrack7	25	ProbeTrack	1406	SCS215g	733725.337526	733725.341530	8	0.013328	60	0	60-180	60	101	NoGap	1	48	4	3	1	target	1	573	13.328	13.325	13.332
ProbeTrack7	25	ProbeTrack	1406	SCS215g	733725.337526	733725.341600	8	0.013328	60	0	60-180	60	151	NoGap	1	49	4	96	0	distractor	1	627	13.328	13.323	13.333
ProbeTrack7	25	ProbeTrack	1406	SCS215g	733725.337526	733725.341692	8	0.013328	60	0	60-180	60	92	NoGap	1	50	4	96	0	distractor	1	573	13.328	13.323	13.335
ProbeTrack7	25	ProbeTrack	1406	SCS215g	733725.342722	733725.342848	8	0.013328	60	10	60-180	60	180	GapPrac	1	1	3	0	0	186	-3	1386	13.328	13.322	13.334
ProbeTrack7	25	ProbeTrack	1406	SCS215g	733725.342722	733725.342945	8	0.013328	60	10	60-180	60	123	GapPrac	1	2	3	96	1	target	1	960	13.328	13.323	13.334
ProbeTrack7	25	ProbeTrack	1406	SCS215g	733725.342722	733725.343041	8	0.013328	60	10	60-180	60	150	GapPrac	1	3	3	6	1	distractor	0	640	13.328	13.321	13.336
ProbeTrack7	25	ProbeTrack	1406	SCS215g	733725.342722	733725.343144	8	0.013328	60	10	60-180	60	72	GapPrac	1	4	3	96	0	distractor	1	573	13.328	13.321	13.335
ProbeTrack7	25	ProbeTrack	1406	SCS215g	733725.342722	733725.343224	8	0.013328	60	10	60-180	60	92	GapPrac	1	5	3	3	0	distractor	1	1306	13.328	13.323	13.335
ProbeTrack7	25	ProbeTrack	1406	SCS215g	733725.342722	733725.343304	8	0.013328	60	10	60-180	60	85	GapPrac	1	6	3	96	1	target	1	760	13.328	13.323	13.333
ProbeTrack7	25	ProbeTrack	1406	SCS215g	733725.342722	733725.343389	8	0.013328	60	10	60-180	60	86	GapPrac	1	7	3	6	1	target	1	707	13.328	13.323	13.334
ProbeTrack7	25	ProbeTrack	1406	SCS215g	733725.342722	733725.343459	8	0.013328	60	10	60-180	60	161	GapPrac	1	8	3	96	1	target	1	534	13.328	13.314	13.342
ProbeTrack7	25	ProbeTrack	1406	SCS215g	733725.342722	733725.343553	8	0.013328	60	10	60-180	60	172	GapPrac	1	9	3	3	0	distractor	1	733	13.328	13.323	13.333
ProbeTrack7	25	ProbeTrack	1406	SCS215g	733725.342722	733725.343637	8	0.013328	60	10	60-180	60	129	GapPrac	1	10	3	3	1	target	1	613	13.328	13.324	13.332
ProbeTrack7	25	ProbeTrack	1406	SCS215g	733725.342722	733725.343710	8	0.013328	60	10	60-180	60	112	GapPrac	1	11	3	0	0	target	0	720	13.328	13.320	13.335
ProbeTrack7	25	ProbeTrack	1406	SCS215g	733725.342722	733725.343781	8	0.013328	60	10	60-180	60	101	GapPrac	1	12	3	0	1	target	1	613	13.328	13.324	13.333
ProbeTrack7	25	ProbeTrack	1406	SCS215g	733725.342722	733725.343849	8	0.013328	60	10	60-180	60	76	GapPrac	1	13	3	0	0	distractor	1	640	13.328	13.316	13.342
ProbeTrack7	25	ProbeTrack	1406	SCS215g	733725.342722	733725.343918	8	0.013328	60	10	60-180	60	176	GapPrac	1	14	3	0	1	target	1	827	13.328	13.323	13.333
ProbeTrack7	25	ProbeTrack	1406	SCS215g	733725.342722	733725.344003	8	0.013328	60	10	60-180	60	131	GapPrac	1	15	3	6	1	distractor	0	653	13.328	13.315	13.341
ProbeTrack7	25	ProbeTrack	1406	SCS215g	733725.342722	733725.344081	8	0.013328	60	10	60-180	60	159	GapPrac	1	16	3	3	1	target	1	600	13.328	13.324	13.334
ProbeTrack7	25	ProbeTrack	1406	SCS215g	733725.342722	733725.344157	8	0.013328	60	10	60-180	60	85	GapPrac	1	17	3	96	0	distractor	1	680	13.328	13.326	13.331
ProbeTrack7	25	ProbeTrack	1406	SCS215g	733725.342722	733725.344239	8	0.013328	60	10	60-180	60	103	GapPrac	1	18	3	6	0	distractor	1	747	13.328	13.324	13.334
ProbeTrack7	25	ProbeTrack	1406	SCS215g	733725.342722	733725.344310	8	0.013328	60	10	60-180	60	180	GapPrac	1	19	3	6	0	distractor	1	693	13.328	13.324	13.334
ProbeTrack7	25	ProbeTrack	1406	SCS215g	733725.342722	733725.344394	8	0.013328	60	10	60-180	60	107	GapPrac	1	20	3	96	0	distractor	1	640	13.328	13.322	13.335
ProbeTrack7	25	ProbeTrack	1406	SCS215g	733725.344951	733725.345152	8	0.013328	60	10	60-180	60	93	GapExp	1	1	3	96	1	target	1	560	13.328	13.315	13.341
ProbeTrack7	25	ProbeTrack	1406	SCS215g	733725.344951	733725.345255	8	0.013328	60	10	60-180	60	64	GapExp	1	2	3	96	0	distractor	1	560	13.328	13.323	13.334
ProbeTrack7	25	ProbeTrack	1406	SCS215g	733725.344951	733725.345333	8	0.013328	60	10	60-180	60	171	GapExp	1	3	3	3	0	target	0	773	13.328	13.324	13.334
ProbeTrack7	25	ProbeTrack	1406	SCS215g	733725.344951	733725.345415	8	0.013328	60	10	60-180	60	91	GapExp	1	4	3	3	1	target	1	613	13.328	13.319	13.338
ProbeTrack7	25	ProbeTrack	1406	SCS215g	733725.344951	733725.345485	8	0.013328	60	10	60-180	60	116	GapExp	1	5	3	0	1	target	1	533	13.328	13.166	13.491
ProbeTrack7	25	ProbeTrack	1406	SCS215g	733725.344951	733725.345555	8	0.013328	60	10	60-180	60	171	GapExp	0	6	3	96	0	distractor	1	640	13.328	13.318	13.337
ProbeTrack7	25	ProbeTrack	1406	SCS215g	733725.344951	733725.345649	8	0.013328	60	10	60-180	60	70	GapExp	0	7	3	96	0	target	0	627	13.328	13.325	13.333
ProbeTrack7	25	ProbeTrack	1406	SCS215g	733725.344951	733725.345728	8	0.013328	60	10	60-180	60	116	GapExp	0	8	3	3	0	distractor	1	587	13.328	13.325	13.331
ProbeTrack7	25	ProbeTrack	1406	SCS215g	733725.344951	733725.345803	8	0.013328	60	10	60-180	60	77	GapExp	0	9	3	3	0	distractor	1	667	13.328	13.323	13.334
ProbeTrack7	25	ProbeTrack	1406	SCS215g	733725.344951	733725.345869	8	0.013328	60	10	60-180	60	133	GapExp	0	10	3	6	1	target	1	520	13.328	13.324	13.333
ProbeTrack7	25	ProbeTrack	1406	SCS215g	733725.344951	733725.345942	8	0.013328	60	10	60-180	60	72	GapExp	0	11	3	0	0	distractor	1	653	13.328	13.322	13.335
ProbeTrack7	25	ProbeTrack	1406	SCS215g	733725.344951	733725.346007	8	0.013328	60	10	60-180	60	150	GapExp	0	12	3	96	1	target	1	520	13.328	13.324	13.334
ProbeTrack7	25	ProbeTrack	1406	SCS215g	733725.344951	733725.346097	8	0.013328	60	10	60-180	60	107	GapExp	0	13	3	6	0	distractor	1	613	13.328	13.322	13.336
ProbeTrack7	25	ProbeTrack	1406	SCS215g	733725.344951	733725.346169	8	0.013328	60	10	60-180	60	77	GapExp	0	14	3	0	0	target	0	627	13.328	13.315	13.342
ProbeTrack7	25	ProbeTrack	1406	SCS215g	733725.344951	733725.346233	8	0.013328	60	10	60-180	60	85	GapExp	0	15	3	3	1	target	1	653	13.328	13.323	13.334
ProbeTrack7	25	ProbeTrack	1406	SCS215g	733725.344951	733725.346303	8	0.013328	60	10	60-180	60	64	GapExp	0	16	3	6	0	distractor	1	640	13.328	13.323	13.334
ProbeTrack7	25	ProbeTrack	1406	SCS215g	733725.344951	733725.346369	8	0.013328	60	10	60-180	60	141	GapExp	0	17	3	3	0	distractor	1	414	13.328	13.324	13.334
ProbeTrack7	25	ProbeTrack	1406	SCS215g	733725.344951	733725.346443	8	0.013328	60	10	60-180	60	125	GapExp	0	18	3	3	0	target	0	667	13.328	13.324	13.333
ProbeTrack7	25	ProbeTrack	1406	SCS215g	733725.344951	733725.346519	8	0.013328	60	10	60-180	60	108	GapExp	0	19	3	96	0	distractor	1	680	13.328	13.320	13.338
ProbeTrack7	25	ProbeTrack	1406	SCS215g	733725.344951	733725.346606	8	0.013328	60	10	60-180	60	69	GapExp	0	20	3	96	0	distractor	1	600	13.328	13.324	13.334
ProbeTrack7	25	ProbeTrack	1406	SCS215g	733725.344951	733725.346686	8	0.013328	60	10	60-180	60	167	GapExp	0	21	3	0	0	distractor	1	454	13.328	13.324	13.333
ProbeTrack7	25	ProbeTrack	1406	SCS215g	733725.344951	733725.346766	8	0.013328	60	10	60-180	60	124	GapExp	0	22	3	0	1	distractor	0	507	13.328	13.325	13.332
ProbeTrack7	25	ProbeTrack	1406	SCS215g	733725.344951	733725.346838	8	0.013328	60	10	60-180	60	167	GapExp	0	23	3	96	0	distractor	1	627	13.328	13.324	13.333
ProbeTrack7	25	ProbeTrack	1406	SCS215g	733725.344951	733725.346933	8	0.013328	60	10	60-180	60	127	GapExp	0	24	3	6	0	distractor	1	520	13.328	13.318	13.340
ProbeTrack7	25	ProbeTrack	1406	SCS215g	733725.344951	733725.347009	8	0.013328	60	10	60-180	60	180	GapExp	0	25	3	3	0	target	0	693	13.328	13.324	13.334
ProbeTrack7	25	ProbeTrack	1406	SCS215g	733725.344951	733725.347091	8	0.013328	60	10	60-180	60	138	GapExp	0	26	3	3	1	target	1	613	13.328	13.323	13.334
ProbeTrack7	25	ProbeTrack	1406	SCS215g	733725.344951	733725.347169	8	0.013328	60	10	60-180	60	152	GapExp	0	27	3	3	1	target	1	587	13.328	13.317	13.340
ProbeTrack7	25	ProbeTrack	1406	SCS215g	733725.344951	733725.347246	8	0.013328	60	10	60-180	60	128	GapExp	0	28	3	0	1	target	1	547	13.328	13.325	13.333
ProbeTrack7	25	ProbeTrack	1406	SCS215g	733725.344951	733725.347319	8	0.013328	60	10	60-180	60	88	GapExp	0	29	3	0	1	target	1	493	13.328	13.322	13.335
ProbeTrack7	25	ProbeTrack	1406	SCS215g	733725.344951	733725.347384	8	0.013328	60	10	60-180	60	63	GapExp	0	30	3	6	1	target	1	587	13.328	13.324	13.332
ProbeTrack7	25	ProbeTrack	1406	SCS215g	733725.344951	733725.347447	8	0.013328	60	10	60-180	60	154	GapExp	0	31	3	0	0	target	0	494	13.328	13.323	13.334
ProbeTrack7	25	ProbeTrack	1406	SCS215g	733725.344951	733725.347526	8	0.013328	60	10	60-180	60	171	GapExp	0	32	3	0	0	distractor	1	547	13.328	13.324	13.334
ProbeTrack7	25	ProbeTrack	1406	SCS215g	733725.344951	733725.347608	8	0.013328	60	10	60-180	60	61	GapExp	0	33	3	3	1	target	1	507	13.328	13.324	13.333
ProbeTrack7	25	ProbeTrack	1406	SCS215g	733725.344951	733725.347671	8	0.013328	60	10	60-180	60	110	GapExp	0	34	3	0	1	target	1	400	13.328	13.317	13.340
ProbeTrack7	25	ProbeTrack	1406	SCS215g	733725.344951	733725.347740	8	0.013328	60	10	60-180	60	135	GapExp	0	35	3	0	1	target	1	414	13.328	13.323	13.334
ProbeTrack7	25	ProbeTrack	1406	SCS215g	733725.344951	733725.347810	8	0.013328	60	10	60-180	60	155	GapExp	0	36	3	6	0	distractor	1	573	13.328	13.318	13.339
ProbeTrack7	25	ProbeTrack	1406	SCS215g	733725.344951	733725.347888	8	0.013328	60	10	60-180	60	147	GapExp	0	37	3	6	1	target	1	454	13.328	13.324	13.333
ProbeTrack7	25	ProbeTrack	1406	SCS215g	733725.344951	733725.347967	8	0.013328	60	10	60-180	60	170	GapExp	0	38	3	0	0	distractor	1	547	13.328	13.324	13.334
ProbeTrack7	25	ProbeTrack	1406	SCS215g	733725.344951	733725.348046	8	0.013328	60	10	60-180	60	155	GapExp	0	39	3	0	0	target	0	493	13.328	13.324	13.333
ProbeTrack7	25	ProbeTrack	1406	SCS215g	733725.344951	733725.348125	8	0.013328	60	10	60-180	60	175	GapExp	0	40	3	6	0	distractor	1	573	13.328	13.324	13.334
ProbeTrack7	25	ProbeTrack	1406	SCS215g	733725.344951	733725.348205	8	0.013328	60	10	60-180	60	142	GapExp	0	41	3	3	0	distractor	1	520	13.328	13.323	13.334
ProbeTrack7	25	ProbeTrack	1406	SCS215g	733725.344951	733725.348281	8	0.013328	60	10	60-180	60	100	GapExp	0	42	3	6	1	target	1	587	13.328	13.324	13.332
ProbeTrack7	25	ProbeTrack	1406	SCS215g	733725.344951	733725.348350	8	0.013328	60	10	60-180	60	63	GapExp	0	43	3	0	0	distractor	1	640	13.328	13.324	13.334
ProbeTrack7	25	ProbeTrack	1406	SCS215g	733725.344951	733725.348412	8	0.013328	60	10	60-180	60	106	GapExp	0	44	3	96	1	distractor	0	707	13.328	13.313	13.343
ProbeTrack7	25	ProbeTrack	1406	SCS215g	733725.344951	733725.348497	8	0.013328	60	10	60-180	60	125	GapExp	0	45	3	96	1	distractor	0	600	13.328	13.324	13.334
ProbeTrack7	25	ProbeTrack	1406	SCS215g	733725.344951	733725.348584	8	0.013328	60	10	60-180	60	152	GapExp	0	46	3	6	1	target	1	627	13.328	13.323	13.332
ProbeTrack7	25	ProbeTrack	1406	SCS215g	733725.344951	733725.348663	8	0.013328	60	10	60-180	60	178	GapExp	0	47	3	0	1	target	1	600	13.328	13.323	13.333
ProbeTrack7	25	ProbeTrack	1406	SCS215g	733725.344951	733725.348744	8	0.013328	60	10	60-180	60	124	GapExp	0	48	3	3	0	distractor	1	613	13.328	13.324	13.333
ProbeTrack7	25	ProbeTrack	1406	SCS215g	733725.344951	733725.348817	8	0.013328	60	10	60-180	60	145	GapExp	0	49	3	96	1	distractor	0	533	13.328	13.324	13.334
ProbeTrack7	25	ProbeTrack	1406	SCS215g	733725.344951	733725.348906	8	0.013328	60	10	60-180	60	118	GapExp	0	50	3	96	1	target	1	573	13.328	13.322	13.335
ProbeTrack7	25	ProbeTrack	1406	SCS215g	733725.344951	733725.348996	8	0.013328	60	10	60-180	60	77	GapExp	0	51	3	3	1	target	1	560	13.328	13.327	13.330
ProbeTrack7	25	ProbeTrack	1406	SCS215g	733725.344951	733725.349060	8	0.013328	60	10	60-180	60	171	GapExp	0	52	3	0	0	distractor	1	533	13.328	13.324	13.333
ProbeTrack7	25	ProbeTrack	1406	SCS215g	733725.344951	733725.349138	8	0.013328	60	10	60-180	60	111	GapExp	0	53	3	96	1	target	1	640	13.328	13.321	13.335
ProbeTrack7	25	ProbeTrack	1406	SCS215g	733725.344951	733725.349224	8	0.013328	60	10	60-180	60	67	GapExp	0	54	3	3	1	target	1	493	13.328	13.323	13.334
ProbeTrack7	25	ProbeTrack	1406	SCS215g	733725.344951	733725.349287	8	0.013328	60	10	60-180	60	114	GapExp	0	55	3	3	1	target	1	427	13.328	13.325	13.333
ProbeTrack7	25	ProbeTrack	1406	SCS215g	733725.344951	733725.349355	8	0.013328	60	10	60-180	60	92	GapExp	0	56	3	0	1	target	1	347	13.328	13.324	13.333
ProbeTrack7	25	ProbeTrack	1406	SCS215g	733725.344951	733725.349418	8	0.013328	60	10	60-180	60	161	GapExp	0	57	3	0	0	distractor	1	494	13.328	13.323	13.333
ProbeTrack7	25	ProbeTrack	1406	SCS215g	733725.344951	733725.349494	8	0.013328	60	10	60-180	60	176	GapExp	0	58	3	3	0	target	0	587	13.328	13.324	13.332
ProbeTrack7	25	ProbeTrack	1406	SCS215g	733725.344951	733725.349574	8	0.013328	60	10	60-180	60	132	GapExp	0	59	3	0	1	target	1	533	13.328	13.323	13.332
ProbeTrack7	25	ProbeTrack	1406	SCS215g	733725.344951	733725.349645	8	0.013328	60	10	60-180	60	120	GapExp	0	60	3	96	0	distractor	1	387	13.328	13.324	13.333
ProbeTrack7	25	ProbeTrack	1406	SCS215g	733725.344951	733725.349729	8	0.013328	60	10	60-180	60	103	GapExp	0	61	3	96	1	target	1	440	13.328	13.323	13.334
ProbeTrack7	25	ProbeTrack	1406	SCS215g	733725.344951	733725.349808	8	0.013328	60	10	60-180	60	171	GapExp	0	62	3	96	1	target	1	520	13.328	13.324	13.333
ProbeTrack7	25	ProbeTrack	1406	SCS215g	733725.344951	733725.349900	8	0.013328	60	10	60-180	60	70	GapExp	0	63	3	0	1	target	1	400	13.328	13.326	13.332
ProbeTrack7	25	ProbeTrack	1406	SCS215g	733725.344951	733725.349961	8	0.013328	60	10	60-180	60	90	GapExp	0	64	3	6	0	distractor	1	494	13.328	13.322	13.334
ProbeTrack7	25	ProbeTrack	1406	SCS215g	733725.344951	733725.350027	8	0.013328	60	10	60-180	60	127	GapExp	0	65	3	3	1	distractor	0	427	13.328	13.321	13.336
ProbeTrack7	25	ProbeTrack	1406	SCS215g	733725.344951	733725.350095	8	0.013328	60	10	60-180	60	68	GapExp	0	66	3	96	0	distractor	1	627	13.328	13.324	13.334
ProbeTrack7	25	ProbeTrack	1406	SCS215g	733725.344951	733725.350173	8	0.013328	60	10	60-180	60	136	GapExp	0	67	3	0	0	target	0	400	13.328	13.324	13.334
ProbeTrack7	25	ProbeTrack	1406	SCS215g	733725.344951	733725.350242	8	0.013328	60	10	60-180	60	86	GapExp	0	68	3	3	0	distractor	1	507	13.328	13.325	13.333
ProbeTrack7	25	ProbeTrack	1406	SCS215g	733725.344951	733725.350307	8	0.013328	60	10	60-180	60	87	GapExp	0	69	3	3	0	distractor	1	533	13.328	13.324	13.334
ProbeTrack7	25	ProbeTrack	1406	SCS215g	733725.344951	733725.350372	8	0.013328	60	10	60-180	60	105	GapExp	0	70	3	6	0	distractor	1	533	13.328	13.324	13.333
ProbeTrack7	25	ProbeTrack	1406	SCS215g	733725.344951	733725.350442	8	0.013328	60	10	60-180	60	67	GapExp	0	71	3	6	0	distractor	1	453	13.328	13.327	13.330
ProbeTrack7	25	ProbeTrack	1406	SCS215g	733725.344951	733725.350503	8	0.013328	60	10	60-180	60	161	GapExp	0	72	3	0	1	distractor	0	494	13.328	13.324	13.333
ProbeTrack7	25	ProbeTrack	1406	SCS215g	733725.344951	733725.350582	8	0.013328	60	10	60-180	60	105	GapExp	0	73	3	6	1	target	1	507	13.328	13.324	13.333
ProbeTrack7	25	ProbeTrack	1406	SCS215g	733725.344951	733725.350653	8	0.013328	60	10	60-180	60	129	GapExp	0	74	3	0	1	target	1	320	13.328	13.324	13.333
ProbeTrack7	25	ProbeTrack	1406	SCS215g	733725.344951	733725.350722	8	0.013328	60	10	60-180	60	155	GapExp	0	75	3	3	1	target	1	360	13.328	13.323	13.334
ProbeTrack7	25	ProbeTrack	1406	SCS215g	733725.344951	733725.350796	8	0.013328	60	10	60-180	60	175	GapExp	0	76	3	0	1	target	1	307	13.328	13.323	13.333
ProbeTrack7	25	ProbeTrack	1406	SCS215g	733725.344951	733725.350873	8	0.013328	60	10	60-180	60	140	GapExp	0	77	3	0	0	distractor	1	480	13.328	13.318	13.339
ProbeTrack7	25	ProbeTrack	1406	SCS215g	733725.344951	733725.350943	8	0.013328	60	10	60-180	60	133	GapExp	0	78	3	6	0	distractor	1	640	13.328	13.323	13.335
ProbeTrack7	25	ProbeTrack	1406	SCS215g	733725.344951	733725.351020	8	0.013328	60	10	60-180	60	64	GapExp	0	79	3	96	0	distractor	1	493	13.328	13.324	13.332
ProbeTrack7	25	ProbeTrack	1406	SCS215g	733725.344951	733725.351095	8	0.013328	60	10	60-180	60	165	GapExp	0	80	3	3	0	distractor	1	427	13.328	13.319	13.339
ProbeTrack7	25	ProbeTrack	1406	SCS215g	733725.344951	733725.351171	8	0.013328	60	10	60-180	60	88	GapExp	0	81	3	6	1	target	1	613	13.328	13.324	13.331
ProbeTrack7	25	ProbeTrack	1406	SCS215g	733725.344951	733725.351239	8	0.013328	60	10	60-180	60	124	GapExp	0	82	3	6	0	distractor	1	494	13.328	13.324	13.332
ProbeTrack7	25	ProbeTrack	1406	SCS215g	733725.344951	733725.351309	8	0.013328	60	10	60-180	60	67	GapExp	0	83	3	0	0	distractor	1	587	13.328	13.319	13.338
ProbeTrack7	25	ProbeTrack	1406	SCS215g	733725.344951	733725.351372	8	0.013328	60	10	60-180	60	77	GapExp	0	84	3	96	0	distractor	1	560	13.328	13.324	13.340
ProbeTrack7	25	ProbeTrack	1406	SCS215g	733725.344951	733725.351451	8	0.013328	60	10	60-180	60	77	GapExp	0	85	3	6	1	target	1	587	13.328	13.324	13.333
ProbeTrack7	25	ProbeTrack	1406	SCS215g	733725.344951	733725.351519	8	0.013328	60	10	60-180	60	128	GapExp	0	86	3	96	1	target	1	507	13.328	13.324	13.334
ProbeTrack7	25	ProbeTrack	1406	SCS215g	733725.344951	733725.351605	8	0.013328	60	10	60-180	60	151	GapExp	0	87	3	3	0	distractor	1	414	13.328	13.322	13.334
ProbeTrack7	25	ProbeTrack	1406	SCS215g	733725.344951	733725.351678	8	0.013328	60	10	60-180	60	120	GapExp	0	88	3	96	1	distractor	0	533	13.328	13.324	13.334
ProbeTrack7	25	ProbeTrack	1406	SCS215g	733725.344951	733725.351763	8	0.013328	60	10	60-180	60	129	GapExp	0	89	3	96	1	target	1	587	13.328	13.323	13.334
ProbeTrack7	25	ProbeTrack	1406	SCS215g	733725.344951	733725.351869	8	0.013328	60	10	60-180	60	68	GapExp	0	90	3	3	0	distractor	1	454	13.328	13.325	13.332
ProbeTrack7	25	ProbeTrack	1406	SCS215g	733725.344951	733725.351937	8	0.013328	60	10	60-180	60	75	GapExp	0	91	3	3	1	target	1	440	13.328	13.323	13.334
ProbeTrack7	25	ProbeTrack	1406	SCS215g	733725.344951	733725.351998	8	0.013328	60	10	60-180	60	117	GapExp	0	92	3	3	0	distractor	1	454	13.328	13.322	13.333
ProbeTrack7	25	ProbeTrack	1406	SCS215g	733725.344951	733725.352071	8	0.013328	60	10	60-180	60	64	GapExp	0	93	3	6	0	distractor	1	560	13.328	13.326	13.330
ProbeTrack7	25	ProbeTrack	1406	SCS215g	733725.344951	733725.352133	8	0.013328	60	10	60-180	60	90	GapExp	0	94	3	96	0	target	0	587	13.328	13.320	13.336
ProbeTrack7	25	ProbeTrack	1406	SCS215g	733725.344951	733725.352215	8	0.013328	60	10	60-180	60	151	GapExp	0	95	3	6	0	distractor	1	520	13.328	13.319	13.337
ProbeTrack7	25	ProbeTrack	1406	SCS215g	733725.344951	733725.352292	8	0.013328	60	10	60-180	60	122	GapExp	0	96	3	0	1	target	1	533	13.328	13.324	13.333
ProbeTrack7	25	ProbeTrack	1406	SCS215g	733725.344951	733725.352362	8	0.013328	60	10	60-180	60	124	GapExp	0	97	3	6	1	target	1	467	13.328	13.323	13.333
ProbeTrack7	25	ProbeTrack	1406	SCS215g	733725.344951	733725.352434	8	0.013328	60	10	60-180	60	135	GapExp	0	98	3	96	0	distractor	1	600	13.328	13.323	13.335
ProbeTrack7	25	ProbeTrack	1406	SCS215g	733725.344951	733725.352523	8	0.013328	60	10	60-180	60	157	GapExp	0	99	3	3	0	distractor	1	640	13.328	13.324	13.333
ProbeTrack7	25	ProbeTrack	1406	SCS215g	733725.344951	733725.352604	8	0.013328	60	10	60-180	60	169	GapExp	0	100	3	6	0	distractor	1	440	13.328	13.324	13.334
ProbeTrack7	25	ProbeTrack	1406	SCS215g	733725.344951	733725.352680	8	0.013328	60	10	60-180	60	76	GapExp	0	101	3	3	1	target	1	653	13.328	13.323	13.333
ProbeTrack7	25	ProbeTrack	1406	SCS215g	733725.344951	733725.352745	8	0.013328	60	10	60-180	60	86	GapExp	0	102	3	0	0	target	0	507	13.328	13.316	13.342
ProbeTrack7	25	ProbeTrack	1406	SCS215g	733725.344951	733725.352810	8	0.013328	60	10	60-180	60	172	GapExp	0	103	3	6	0	distractor	1	587	13.328	13.322	13.335
ProbeTrack7	25	ProbeTrack	1406	SCS215g	733725.344951	733725.352889	8	0.013328	60	10	60-180	60	91	GapExp	0	104	3	96	0	distractor	1	627	13.328	13.324	13.332
ProbeTrack7	25	ProbeTrack	1406	SCS215g	733725.344951	733725.352970	8	0.013328	60	10	60-180	60	141	GapExp	0	105	3	96	0	distractor	1	587	13.328	13.323	13.334
ProbeTrack7	25	ProbeTrack	1406	SCS215g	733725.344951	733725.353062	8	0.013328	60	10	60-180	60	120	GapExp	0	106	3	3	1	target	1	733	13.328	13.325	13.332
ProbeTrack7	25	ProbeTrack	1406	SCS215g	733725.344951	733725.353144	8	0.013328	60	10	60-180	60	74	GapExp	0	107	3	96	1	target	1	547	13.328	13.324	13.334
ProbeTrack7	25	ProbeTrack	1406	SCS215g	733725.344951	733725.353227	8	0.013328	60	10	60-180	60	82	GapExp	0	108	3	3	1	target	1	520	13.328	13.327	13.330
ProbeTrack7	25	ProbeTrack	1406	SCS215g	733725.344951	733725.353293	8	0.013328	60	10	60-180	60	172	GapExp	0	109	3	3	1	target	1	400	13.328	13.323	13.334
ProbeTrack7	25	ProbeTrack	1406	SCS215g	733725.344951	733725.353369	8	0.013328	60	10	60-180	60	141	GapExp	0	110	3	96	0	distractor	1	494	13.328	13.322	13.333
ProbeTrack7	25	ProbeTrack	1406	SCS215g	733725.344951	733725.353458	8	0.013328	60	10	60-180	60	149	GapExp	0	111	3	96	0	distractor	1	560	13.328	13.305	13.352
ProbeTrack7	25	ProbeTrack	1406	SCS215g	733725.344951	733725.353549	8	0.013328	60	10	60-180	60	120	GapExp	0	112	3	6	1	target	1	467	13.328	13.324	13.334
ProbeTrack7	25	ProbeTrack	1406	SCS215g	733725.344951	733725.353619	8	0.013328	60	10	60-180	60	177	GapExp	0	113	3	6	1	target	1	427	13.328	13.309	13.349
ProbeTrack7	25	ProbeTrack	1406	SCS215g	733725.344951	733725.353698	8	0.013328	60	10	60-180	60	174	GapExp	0	114	3	6	0	distractor	1	440	13.328	13.323	13.334
ProbeTrack7	25	ProbeTrack	1406	SCS215g	733725.344951	733725.353777	8	0.013328	60	10	60-180	60	98	GapExp	0	115	3	3	1	target	1	414	13.328	13.324	13.333
ProbeTrack7	25	ProbeTrack	1406	SCS215g	733725.344951	733725.353843	8	0.013328	60	10	60-180	60	158	GapExp	0	116	3	6	1	distractor	0	547	13.328	13.325	13.333
ProbeTrack7	25	ProbeTrack	1406	SCS215g	733725.344951	733725.353922	8	0.013328	60	10	60-180	60	61	GapExp	0	117	3	6	1	target	1	494	13.328	13.323	13.333
ProbeTrack7	25	ProbeTrack	1406	SCS215g	733725.344951	733725.353981	8	0.013328	60	10	60-180	60	99	GapExp	0	118	3	96	1	distractor	0	560	13.328	13.324	13.334
ProbeTrack7	25	ProbeTrack	1406	SCS215g	733725.344951	733725.354063	8	0.013328	60	10	60-180	60	117	GapExp	0	119	3	0	0	distractor	1	627	13.328	13.324	13.333
ProbeTrack7	25	ProbeTrack	1406	SCS215g	733725.344951	733725.354138	8	0.013328	60	10	60-180	60	170	GapExp	0	120	3	6	1	target	1	427	13.328	13.324	13.333
ProbeTrack7	25	ProbeTrack	1406	SCS215g	733725.344951	733725.354217	8	0.013328	60	10	60-180	60	81	GapExp	0	121	3	96	1	target	1	440	13.328	13.324	13.333
ProbeTrack7	25	ProbeTrack	1406	SCS215g	733725.344951	733725.354297	8	0.013328	60	10	60-180	60	138	GapExp	0	122	3	6	1	target	1	334	13.328	13.324	13.334
ProbeTrack7	25	ProbeTrack	1406	SCS215g	733725.344951	733725.354369	8	0.013328	60	10	60-180	60	154	GapExp	0	123	3	0	1	target	1	347	13.328	13.317	13.339
ProbeTrack7	25	ProbeTrack	1406	SCS215g	733725.344951	733725.354444	8	0.013328	60	10	60-180	60	130	GapExp	0	124	3	96	1	target	1	334	13.328	13.324	13.334
ProbeTrack7	25	ProbeTrack	1406	SCS215g	733725.344951	733725.354529	8	0.013328	60	10	60-180	60	95	GapExp	0	125	3	0	1	target	1	347	13.328	13.306	13.351
ProbeTrack7	25	ProbeTrack	1406	SCS215g	733725.355125	733725.355212	8	0.013328	60	10	60-180	60	104	GapPrac	1	1	4	96	1	target	1	533	13.328	13.323	13.333
ProbeTrack7	25	ProbeTrack	1406	SCS215g	733725.355125	733725.355305	8	0.013328	60	10	60-180	60	113	GapPrac	1	2	4	3	1	target	1	414	13.328	13.318	13.338
ProbeTrack7	25	ProbeTrack	1406	SCS215g	733725.355125	733725.355374	8	0.013328	60	10	60-180	60	109	GapPrac	1	3	4	0	1	target	1	360	13.328	13.314	13.342
ProbeTrack7	25	ProbeTrack	1406	SCS215g	733725.355125	733725.355444	8	0.013328	60	10	60-180	60	73	GapPrac	1	4	4	96	0	distractor	1	547	13.328	13.308	13.348
ProbeTrack7	25	ProbeTrack	1406	SCS215g	733725.355125	733725.355522	8	0.013328	60	10	60-180	60	163	GapPrac	1	5	4	96	1	target	1	454	13.328	13.324	13.333
ProbeTrack7	25	ProbeTrack	1406	SCS215g	733725.355125	733725.355614	8	0.013328	60	10	60-180	60	140	GapPrac	1	6	4	6	0	distractor	1	533	13.328	13.322	13.335
ProbeTrack7	25	ProbeTrack	1406	SCS215g	733725.355125	733725.355689	8	0.013328	60	10	60-180	60	87	GapPrac	1	7	4	6	1	target	1	467	13.328	13.322	13.334
ProbeTrack7	25	ProbeTrack	1406	SCS215g	733725.355125	733725.355758	8	0.013328	60	10	60-180	60	152	GapPrac	1	8	4	0	1	target	1	387	13.328	13.321	13.335
ProbeTrack7	25	ProbeTrack	1406	SCS215g	733725.355125	733725.355841	8	0.013328	60	10	60-180	60	122	GapPrac	1	9	4	3	1	distractor	0	667	13.328	13.323	13.333
ProbeTrack7	25	ProbeTrack	1406	SCS215g	733725.355125	733725.355923	8	0.013328	60	10	60-180	60	164	GapPrac	1	10	4	3	1	target	1	400	13.328	13.325	13.332
ProbeTrack7	25	ProbeTrack	1406	SCS215g	733725.355125	733725.356001	8	0.013328	60	10	60-180	60	67	GapPrac	1	11	4	6	0	distractor	1	454	13.328	13.322	13.334
ProbeTrack7	25	ProbeTrack	1406	SCS215g	733725.355125	733725.356063	8	0.013328	60	10	60-180	60	78	GapPrac	1	12	4	3	0	distractor	1	533	13.328	13.320	13.337
ProbeTrack7	25	ProbeTrack	1406	SCS215g	733725.355125	733725.356127	8	0.013328	60	10	60-180	60	64	GapPrac	1	13	4	6	1	target	1	493	13.328	13.325	13.333
ProbeTrack7	25	ProbeTrack	1406	SCS215g	733725.355125	733725.356190	8	0.013328	60	10	60-180	60	117	GapPrac	1	14	4	3	0	distractor	1	480	13.328	13.322	13.333
ProbeTrack7	25	ProbeTrack	1406	SCS215g	733725.355125	733725.356261	8	0.013328	60	10	60-180	60	77	GapPrac	1	15	4	96	0	distractor	1	400	13.328	13.322	13.334
ProbeTrack7	25	ProbeTrack	1406	SCS215g	733725.355125	733725.356337	8	0.013328	60	10	60-180	60	166	GapPrac	1	16	4	96	1	target	1	573	13.328	13.325	13.332
ProbeTrack7	25	ProbeTrack	1406	SCS215g	733725.355125	733725.356434	8	0.013328	60	10	60-180	60	130	GapPrac	1	17	4	96	0	distractor	1	427	13.328	13.323	13.333
ProbeTrack7	25	ProbeTrack	1406	SCS215g	733725.355125	733725.356521	8	0.013328	60	10	60-180	60	155	GapPrac	1	18	4	0	0	distractor	1	454	13.328	13.323	13.333
ProbeTrack7	25	ProbeTrack	1406	SCS215g	733725.355125	733725.356595	8	0.013328	60	10	60-180	60	108	GapPrac	1	19	4	0	1	target	1	427	13.328	13.321	13.334
ProbeTrack7	25	ProbeTrack	1406	SCS215g	733725.355125	733725.356664	8	0.013328	60	10	60-180	60	175	GapPrac	1	20	4	0	0	distractor	1	520	13.328	13.322	13.334
ProbeTrack7	25	ProbeTrack	1406	SCS215g	733725.357285	733725.357392	8	0.013328	60	10	60-180	60	165	GapExp	1	1	4	96	1	target	1	573	13.328	13.324	13.333
ProbeTrack7	25	ProbeTrack	1406	SCS215g	733725.357285	733725.357499	8	0.013328	60	10	60-180	60	153	GapExp	1	2	4	6	1	target	1	507	13.328	13.317	13.340
ProbeTrack7	25	ProbeTrack	1406	SCS215g	733725.357285	733725.357578	8	0.013328	60	10	60-180	60	74	GapExp	1	3	4	6	0	distractor	1	494	13.328	13.323	13.332
ProbeTrack7	25	ProbeTrack	1406	SCS215g	733725.357285	733725.357643	8	0.013328	60	10	60-180	60	63	GapExp	1	4	4	0	1	target	1	427	13.328	13.324	13.334
ProbeTrack7	25	ProbeTrack	1406	SCS215g	733725.357285	733725.357704	8	0.013328	60	10	60-180	60	93	GapExp	1	5	4	0	0	distractor	1	520	13.328	13.325	13.332
ProbeTrack7	25	ProbeTrack	1406	SCS215g	733725.357285	733725.357773	8	0.013328	60	10	60-180	60	90	GapExp	0	6	4	6	0	distractor	1	600	13.328	13.323	13.332
ProbeTrack7	25	ProbeTrack	1406	SCS215g	733725.357285	733725.357843	8	0.013328	60	10	60-180	60	150	GapExp	0	7	4	96	1	distractor	0	480	13.328	13.324	13.333
ProbeTrack7	25	ProbeTrack	1406	SCS215g	733725.357285	733725.357952	8	0.013328	60	10	60-180	60	176	GapExp	0	8	4	0	1	distractor	0	573	13.328	13.314	13.341
ProbeTrack7	25	ProbeTrack	1406	SCS215g	733725.357285	733725.358042	8	0.013328	60	10	60-180	60	70	GapExp	0	9	4	96	1	target	1	560	13.328	13.325	13.332
ProbeTrack7	25	ProbeTrack	1406	SCS215g	733725.357285	733725.358156	8	0.013328	60	10	60-180	60	175	GapExp	0	10	4	3	1	target	1	387	13.328	13.320	13.336
ProbeTrack7	25	ProbeTrack	1406	SCS215g	733725.357285	733725.358241	8	0.013328	60	10	60-180	60	158	GapExp	0	11	4	96	1	target	1	414	13.328	13.325	13.332
ProbeTrack7	25	ProbeTrack	1406	SCS215g	733725.357285	733725.358331	8	0.013328	60	10	60-180	60	170	GapExp	0	12	4	0	0	distractor	1	440	13.328	13.325	13.331
ProbeTrack7	25	ProbeTrack	1406	SCS215g	733725.357285	733725.358411	8	0.013328	60	10	60-180	60	93	GapExp	0	13	4	96	0	distractor	1	507	13.328	13.323	13.333
ProbeTrack7	25	ProbeTrack	1406	SCS215g	733725.357285	733725.358496	8	0.013328	60	10	60-180	60	134	GapExp	0	14	4	6	0	distractor	1	547	13.328	13.325	13.333
ProbeTrack7	25	ProbeTrack	1406	SCS215g	733725.357285	733725.358580	8	0.013328	60	10	60-180	60	154	GapExp	0	15	4	0	0	distractor	1	667	13.328	13.323	13.332
ProbeTrack7	25	ProbeTrack	1406	SCS215g	733725.357285	733725.358660	8	0.013328	60	10	60-180	60	145	GapExp	0	16	4	3	1	target	1	400	13.328	13.316	13.339
ProbeTrack7	25	ProbeTrack	1406	SCS215g	733725.357285	733725.358746	8	0.013328	60	10	60-180	60	125	GapExp	0	17	4	0	0	distractor	1	440	13.328	13.303	13.353
ProbeTrack7	25	ProbeTrack	1406	SCS215g	733725.357285	733725.358816	8	0.013328	60	10	60-180	60	111	GapExp	0	18	4	0	1	target	1	480	13.328	13.323	13.332
ProbeTrack7	25	ProbeTrack	1406	SCS215g	733725.357285	733725.358885	8	0.013328	60	10	60-180	60	112	GapExp	0	19	4	3	0	distractor	1	467	13.328	13.325	13.332
ProbeTrack7	25	ProbeTrack	1406	SCS215g	733725.357285	733725.358956	8	0.013328	60	10	60-180	60	139	GapExp	0	20	4	96	1	target	1	427	13.328	13.319	13.337
ProbeTrack7	25	ProbeTrack	1406	SCS215g	733725.357285	733725.359047	8	0.013328	60	10	60-180	60	115	GapExp	0	21	4	0	1	target	1	440	13.328	13.323	13.334
ProbeTrack7	25	ProbeTrack	1406	SCS215g	733725.357285	733725.359118	8	0.013328	60	10	60-180	60	150	GapExp	0	22	4	96	1	target	1	454	13.328	13.323	13.332
ProbeTrack7	25	ProbeTrack	1406	SCS215g	733725.357285	733725.359211	8	0.013328	60	10	60-180	60	122	GapExp	0	23	4	0	1	target	1	560	13.328	13.323	13.334
ProbeTrack7	25	ProbeTrack	1406	SCS215g	733725.357285	733725.359283	8	0.013328	60	10	60-180	60	93	GapExp	0	24	4	6	1	target	1	454	13.328	13.325	13.331
ProbeTrack7	25	ProbeTrack	1406	SCS215g	733725.357285	733725.359352	8	0.013328	60	10	60-180	60	140	GapExp	0	25	4	96	0	distractor	1	507	13.328	13.323	13.333
ProbeTrack7	25	ProbeTrack	1406	SCS215g	733725.357285	733725.359441	8	0.013328	60	10	60-180	60	67	GapExp	0	26	4	96	1	distractor	0	493	13.328	13.323	13.333
ProbeTrack7	25	ProbeTrack	1406	SCS215g	733725.357285	733725.359548	8	0.013328	60	10	60-180	60	68	GapExp	0	27	4	0	1	target	1	387	13.328	13.323	13.334
ProbeTrack7	25	ProbeTrack	1406	SCS215g	733725.357285	733725.359613	8	0.013328	60	10	60-180	60	133	GapExp	0	28	4	96	1	target	1	360	13.328	13.324	13.332
ProbeTrack7	25	ProbeTrack	1406	SCS215g	733725.357285	733725.359700	8	0.013328	60	10	60-180	60	135	GapExp	0	29	4	6	0	distractor	1	480	13.328	13.325	13.333
ProbeTrack7	25	ProbeTrack	1406	SCS215g	733725.357285	733725.359776	8	0.013328	60	10	60-180	60	139	GapExp	0	30	4	96	1	target	1	360	13.328	13.312	13.344
ProbeTrack7	25	ProbeTrack	1406	SCS215g	733725.357285	733725.359861	8	0.013328	60	10	60-180	60	122	GapExp	0	31	4	6	0	distractor	1	427	13.328	13.325	13.332
ProbeTrack7	25	ProbeTrack	1406	SCS215g	733725.357285	733725.359930	8	0.013328	60	10	60-180	60	92	GapExp	0	32	4	3	0	target	0	387	13.328	13.324	13.332
ProbeTrack7	25	ProbeTrack	1406	SCS215g	733725.357285	733725.359992	8	0.013328	60	10	60-180	60	119	GapExp	0	33	4	0	1	target	1	400	13.328	13.323	13.335
ProbeTrack7	25	ProbeTrack	1406	SCS215g	733725.357285	733725.360060	8	0.013328	60	10	60-180	60	85	GapExp	0	34	4	6	1	target	1	520	13.328	13.323	13.333
ProbeTrack7	25	ProbeTrack	1406	SCS215g	733725.357285	733725.360127	8	0.013328	60	10	60-180	60	67	GapExp	0	35	4	96	1	distractor	0	360	13.328	13.313	13.342
ProbeTrack7	25	ProbeTrack	1406	SCS215g	733725.357285	733725.360201	8	0.013328	60	10	60-180	60	126	GapExp	0	36	4	0	0	distractor	1	467	13.328	13.317	13.339
ProbeTrack7	25	ProbeTrack	1406	SCS215g	733725.357285	733725.360271	8	0.013328	60	10	60-180	60	115	GapExp	0	37	4	6	0	distractor	1	467	13.328	13.324	13.334
ProbeTrack7	25	ProbeTrack	1406	SCS215g	733725.357285	733725.360341	8	0.013328	60	10	60-180	60	86	GapExp	0	38	4	3	0	target	0	400	13.328	13.323	13.334
ProbeTrack7	25	ProbeTrack	1406	SCS215g	733725.357285	733725.360406	8	0.013328	60	10	60-180	60	93	GapExp	0	39	4	3	1	distractor	0	347	13.328	13.322	13.333
ProbeTrack7	25	ProbeTrack	1406	SCS215g	733725.357285	733725.360469	8	0.013328	60	10	60-180	60	119	GapExp	0	40	4	0	0	distractor	1	493	13.328	13.322	13.334
ProbeTrack7	25	ProbeTrack	1406	SCS215g	733725.357285	733725.360609	8	0.013328	60	10	60-180	60	160	GapExp	0	41	4	6	0	target	0	547	13.328	13.324	13.332
ProbeTrack7	25	ProbeTrack	1406	SCS215g	733725.357285	733725.360693	8	0.013328	60	10	60-180	60	154	GapExp	0	42	4	3	0	target	0	680	13.328	13.325	13.332
ProbeTrack7	25	ProbeTrack	1406	SCS215g	733725.357285	733725.360769	8	0.013328	60	10	60-180	60	160	GapExp	0	43	4	0	0	distractor	1	547	13.328	13.325	13.332
ProbeTrack7	25	ProbeTrack	1406	SCS215g	733725.357285	733725.360889	8	0.013328	60	10	60-180	60	86	GapExp	0	44	4	3	1	target	1	560	13.328	13.323	13.333
ProbeTrack7	25	ProbeTrack	1406	SCS215g	733725.357285	733725.360957	8	0.013328	60	10	60-180	60	108	GapExp	0	45	4	6	0	distractor	1	1253	13.328	13.324	13.333
ProbeTrack7	25	ProbeTrack	1406	SCS215g	733725.357285	733725.361035	8	0.013328	60	10	60-180	60	105	GapExp	0	46	4	3	1	target	1	467	13.328	13.319	13.337
ProbeTrack7	25	ProbeTrack	1406	SCS215g	733725.357285	733725.361103	8	0.013328	60	10	60-180	60	76	GapExp	0	47	4	6	0	distractor	1	507	13.328	13.323	13.334
ProbeTrack7	25	ProbeTrack	1406	SCS215g	733725.357285	733725.361169	8	0.013328	60	10	60-180	60	90	GapExp	0	48	4	6	1	target	1	400	13.328	13.322	13.333
ProbeTrack7	25	ProbeTrack	1406	SCS215g	733725.357285	733725.361234	8	0.013328	60	10	60-180	60	96	GapExp	0	49	4	0	0	distractor	1	440	13.328	13.322	13.334
ProbeTrack7	25	ProbeTrack	1406	SCS215g	733725.357285	733725.361299	8	0.013328	60	10	60-180	60	173	GapExp	0	50	4	0	0	distractor	1	427	13.328	13.324	13.331
ProbeTrack7	25	ProbeTrack	1406	SCS215g	733725.357285	733725.361376	8	0.013328	60	10	60-180	60	111	GapExp	0	51	4	6	1	target	1	507	13.328	13.324	13.331
ProbeTrack7	25	ProbeTrack	1406	SCS215g	733725.357285	733725.361447	8	0.013328	60	10	60-180	60	156	GapExp	0	52	4	6	1	target	1	454	13.328	13.323	13.334
ProbeTrack7	25	ProbeTrack	1406	SCS215g	733725.357285	733725.361523	8	0.013328	60	10	60-180	60	75	GapExp	0	53	4	96	1	target	1	680	13.328	13.322	13.336
ProbeTrack7	25	ProbeTrack	1406	SCS215g	733725.357285	733725.361601	8	0.013328	60	10	60-180	60	143	GapExp	0	54	4	3	1	target	1	493	13.328	13.318	13.338
ProbeTrack7	25	ProbeTrack	1406	SCS215g	733725.357285	733725.361675	8	0.013328	60	10	60-180	60	179	GapExp	0	55	4	3	1	target	1	374	13.328	13.324	13.333
ProbeTrack7	25	ProbeTrack	1406	SCS215g	733725.357285	733725.361754	8	0.013328	60	10	60-180	60	160	GapExp	0	56	4	6	1	target	1	494	13.328	13.324	13.333
ProbeTrack7	25	ProbeTrack	1406	SCS215g	733725.357285	733725.361831	8	0.013328	60	10	60-180	60	132	GapExp	0	57	4	3	0	distractor	1	493	13.328	13.323	13.333
ProbeTrack7	25	ProbeTrack	1406	SCS215g	733725.357285	733725.361903	8	0.013328	60	10	60-180	60	118	GapExp	0	58	4	3	1	distractor	0	907	13.328	13.316	13.339
ProbeTrack7	25	ProbeTrack	1406	SCS215g	733725.357285	733725.361979	8	0.013328	60	10	60-180	60	95	GapExp	0	59	4	3	0	target	0	480	13.328	13.319	13.339
ProbeTrack7	25	ProbeTrack	1406	SCS215g	733725.357285	733725.362047	8	0.013328	60	10	60-180	60	86	GapExp	0	60	4	6	1	distractor	0	627	13.328	13.322	13.334
ProbeTrack7	25	ProbeTrack	1406	SCS215g	733725.357285	733725.362118	8	0.013328	60	10	60-180	60	157	GapExp	0	61	4	96	1	target	1	493	13.328	13.323	13.333
ProbeTrack7	25	ProbeTrack	1406	SCS215g	733725.357285	733725.362208	8	0.013328	60	10	60-180	60	111	GapExp	0	62	4	0	1	target	1	467	13.328	13.324	13.333
ProbeTrack7	25	ProbeTrack	1406	SCS215g	733725.357285	733725.362308	8	0.013328	60	10	60-180	60	114	GapExp	0	63	4	3	0	distractor	1	427	13.328	13.324	13.332
ProbeTrack7	25	ProbeTrack	1406	SCS215g	733725.357285	733725.362378	8	0.013328	60	10	60-180	60	98	GapExp	0	64	4	3	1	target	1	573	13.328	13.308	13.349
ProbeTrack7	25	ProbeTrack	1406	SCS215g	733725.357285	733725.362448	8	0.013328	60	10	60-180	60	89	GapExp	0	65	4	3	0	distractor	1	493	13.328	13.325	13.332
ProbeTrack7	25	ProbeTrack	1406	SCS215g	733725.357285	733725.362539	8	0.013328	60	10	60-180	60	108	GapExp	0	66	4	0	0	distractor	1	573	13.328	13.324	13.333
ProbeTrack7	25	ProbeTrack	1406	SCS215g	733725.357285	733725.362609	8	0.013328	60	10	60-180	60	70	GapExp	0	67	4	96	1	distractor	0	400	13.328	13.324	13.333
ProbeTrack7	25	ProbeTrack	1406	SCS215g	733725.357285	733725.362684	8	0.013328	60	10	60-180	60	128	GapExp	0	68	4	3	1	target	1	414	13.328	13.324	13.333
ProbeTrack7	25	ProbeTrack	1406	SCS215g	733725.357285	733725.362754	8	0.013328	60	10	60-180	60	78	GapExp	0	69	4	0	1	target	1	493	13.328	13.325	13.332
ProbeTrack7	25	ProbeTrack	1406	SCS215g	733725.357285	733725.362821	8	0.013328	60	10	60-180	60	67	GapExp	0	70	4	6	0	distractor	1	520	13.328	13.316	13.339
ProbeTrack7	25	ProbeTrack	1406	SCS215g	733725.357285	733725.362885	8	0.013328	60	10	60-180	60	94	GapExp	0	71	4	0	0	distractor	1	573	13.328	13.326	13.332
ProbeTrack7	25	ProbeTrack	1406	SCS215g	733725.357285	733725.362953	8	0.013328	60	10	60-180	60	141	GapExp	0	72	4	0	1	target	1	653	13.328	13.325	13.333
ProbeTrack7	25	ProbeTrack	1406	SCS215g	733725.357285	733725.363028	8	0.013328	60	10	60-180	60	158	GapExp	0	73	4	96	0	distractor	1	547	13.328	13.324	13.333
ProbeTrack7	25	ProbeTrack	1406	SCS215g	733725.357285	733725.363120	8	0.013328	60	10	60-180	60	100	GapExp	0	74	4	6	1	target	1	440	13.328	13.324	13.332
ProbeTrack7	25	ProbeTrack	1406	SCS215g	733725.357285	733725.363189	8	0.013328	60	10	60-180	60	104	GapExp	0	75	4	0	0	distractor	1	507	13.328	13.325	13.332
ProbeTrack7	25	ProbeTrack	1406	SCS215g	733725.357285	733725.363257	8	0.013328	60	10	60-180	60	111	GapExp	0	76	4	96	0	distractor	1	627	13.328	13.322	13.334
ProbeTrack7	25	ProbeTrack	1406	SCS215g	733725.357285	733725.363342	8	0.013328	60	10	60-180	60	100	GapExp	0	77	4	3	1	target	1	560	13.328	13.324	13.331
ProbeTrack7	25	ProbeTrack	1406	SCS215g	733725.357285	733725.363409	8	0.013328	60	10	60-180	60	149	GapExp	0	78	4	3	0	distractor	1	440	13.328	13.324	13.332
ProbeTrack7	25	ProbeTrack	1406	SCS215g	733725.357285	733725.363483	8	0.013328	60	10	60-180	60	179	GapExp	0	79	4	96	0	distractor	1	440	13.328	13.324	13.334
ProbeTrack7	25	ProbeTrack	1406	SCS215g	733725.357285	733725.363603	8	0.013328	60	10	60-180	60	61	GapExp	0	80	4	96	0	distractor	1	653	13.328	13.323	13.334
ProbeTrack7	25	ProbeTrack	1406	SCS215g	733725.357285	733725.363683	8	0.013328	60	10	60-180	60	90	GapExp	0	81	4	96	1	target	1	547	13.328	13.324	13.332
ProbeTrack7	25	ProbeTrack	1406	SCS215g	733725.357285	733725.363763	8	0.013328	60	10	60-180	60	135	GapExp	0	82	4	6	1	target	1	414	13.328	13.323	13.333
ProbeTrack7	25	ProbeTrack	1406	SCS215g	733725.357285	733725.363836	8	0.013328	60	10	60-180	60	101	GapExp	0	83	4	6	0	distractor	1	600	13.328	13.319	13.337
ProbeTrack7	25	ProbeTrack	1406	SCS215g	733725.357285	733725.363909	8	0.013328	60	10	60-180	60	128	GapExp	0	84	4	96	0	distractor	1	573	13.328	13.323	13.334
ProbeTrack7	25	ProbeTrack	1406	SCS215g	733725.357285	733725.363998	8	0.013328	60	10	60-180	60	91	GapExp	0	85	4	3	0	distractor	1	667	13.328	13.306	13.350
ProbeTrack7	25	ProbeTrack	1406	SCS215g	733725.357285	733725.364068	8	0.013328	60	10	60-180	60	160	GapExp	0	86	4	6	1	target	1	454	13.328	13.325	13.333
ProbeTrack7	25	ProbeTrack	1406	SCS215g	733725.357285	733725.364144	8	0.013328	60	10	60-180	60	90	GapExp	0	87	4	0	1	distractor	0	427	13.328	13.326	13.330
ProbeTrack7	25	ProbeTrack	1406	SCS215g	733725.357285	733725.364208	8	0.013328	60	10	60-180	60	95	GapExp	0	88	4	3	1	target	1	387	13.328	13.325	13.332
ProbeTrack7	25	ProbeTrack	1406	SCS215g	733725.357285	733725.364275	8	0.013328	60	10	60-180	60	148	GapExp	0	89	4	0	1	target	1	387	13.328	13.323	13.334
ProbeTrack7	25	ProbeTrack	1406	SCS215g	733725.357285	733725.364348	8	0.013328	60	10	60-180	60	154	GapExp	0	90	4	0	0	target	0	454	13.328	13.323	13.333
ProbeTrack7	25	ProbeTrack	1406	SCS215g	733725.357285	733725.364423	8	0.013328	60	10	60-180	60	121	GapExp	0	91	4	0	1	target	1	547	13.328	13.322	13.333
ProbeTrack7	25	ProbeTrack	1406	SCS215g	733725.357285	733725.364494	8	0.013328	60	10	60-180	60	131	GapExp	0	92	4	6	1	distractor	0	440	13.328	13.307	13.350
ProbeTrack7	25	ProbeTrack	1406	SCS215g	733725.357285	733725.364572	8	0.013328	60	10	60-180	60	127	GapExp	0	93	4	6	0	distractor	1	494	13.328	13.315	13.341
ProbeTrack7	25	ProbeTrack	1406	SCS215g	733725.357285	733725.364644	8	0.013328	60	10	60-180	60	95	GapExp	0	94	4	96	0	distractor	1	733	13.328	13.324	13.331
ProbeTrack7	25	ProbeTrack	1406	SCS215g	733725.357285	733725.364730	8	0.013328	60	10	60-180	60	113	GapExp	0	95	4	0	1	target	1	613	13.328	13.312	13.343
ProbeTrack7	25	ProbeTrack	1406	SCS215g	733725.357285	733725.364799	8	0.013328	60	10	60-180	60	113	GapExp	0	96	4	6	1	target	1	440	13.328	13.322	13.334
ProbeTrack7	25	ProbeTrack	1406	SCS215g	733725.357285	733725.364868	8	0.013328	60	10	60-180	60	67	GapExp	0	97	4	3	0	distractor	1	547	13.328	13.326	13.332
ProbeTrack7	25	ProbeTrack	1406	SCS215g	733725.357285	733725.364932	8	0.013328	60	10	60-180	60	132	GapExp	0	98	4	3	0	distractor	1	600	13.328	13.324	13.331
ProbeTrack7	25	ProbeTrack	1406	SCS215g	733725.357285	733725.365006	8	0.013328	60	10	60-180	60	150	GapExp	0	99	4	3	0	distractor	1	440	13.328	13.324	13.332
ProbeTrack7	25	ProbeTrack	1406	SCS215g	733725.357285	733725.365081	8	0.013328	60	10	60-180	60	87	GapExp	0	100	4	96	1	target	1	480	13.328	13.325	13.333
ProbeTrack7	25	ProbeTrack	1406	SCS215g	733725.357285	733725.365177	8	0.013328	60	10	60-180	60	117	GapExp	0	101	4	6	0	target	0	707	13.328	13.321	13.336
ProbeTrack7	25	ProbeTrack	1406	SCS215g	733725.357285	733725.365249	8	0.013328	60	10	60-180	60	92	GapExp	0	102	4	96	1	distractor	0	467	13.328	13.324	13.332
ProbeTrack7	25	ProbeTrack	1406	SCS215g	733725.357285	733725.365328	8	0.013328	60	10	60-180	60	177	GapExp	0	103	4	6	0	distractor	1	547	13.328	13.324	13.333
ProbeTrack7	25	ProbeTrack	1406	SCS215g	733725.357285	733725.365489	8	0.013328	60	10	60-180	60	73	GapExp	0	104	4	96	0	distractor	1	667	13.328	13.324	13.333
ProbeTrack7	25	ProbeTrack	1406	SCS215g	733725.357285	733725.365570	8	0.013328	60	10	60-180	60	107	GapExp	0	105	4	0	0	distractor	1	440	13.328	13.327	13.330
ProbeTrack7	25	ProbeTrack	1406	SCS215g	733725.357285	733725.365638	8	0.013328	60	10	60-180	60	163	GapExp	0	106	4	6	1	distractor	0	454	13.328	13.312	13.344
ProbeTrack7	25	ProbeTrack	1406	SCS215g	733725.357285	733725.365716	8	0.013328	60	10	60-180	60	133	GapExp	0	107	4	3	1	target	1	480	13.328	13.324	13.331
ProbeTrack7	25	ProbeTrack	1406	SCS215g	733725.357285	733725.365788	8	0.013328	60	10	60-180	60	147	GapExp	0	108	4	3	0	distractor	1	454	13.328	13.324	13.332
ProbeTrack7	25	ProbeTrack	1406	SCS215g	733725.357285	733725.365860	8	0.013328	60	10	60-180	60	156	GapExp	0	109	4	3	1	target	1	320	13.328	13.324	13.332
ProbeTrack7	25	ProbeTrack	1406	SCS215g	733725.357285	733725.365933	8	0.013328	60	10	60-180	60	111	GapExp	0	110	4	0	1	target	1	414	13.328	13.325	13.332
ProbeTrack7	25	ProbeTrack	1406	SCS215g	733725.357285	733725.366001	8	0.013328	60	10	60-180	60	123	GapExp	0	111	4	6	0	target	0	360	13.328	13.323	13.334
ProbeTrack7	25	ProbeTrack	1406	SCS215g	733725.357285	733725.366070	8	0.013328	60	10	60-180	60	103	GapExp	0	112	4	0	0	distractor	1	454	13.328	13.324	13.333
ProbeTrack7	25	ProbeTrack	1406	SCS215g	733725.357285	733725.366135	8	0.013328	60	10	60-180	60	113	GapExp	0	113	4	96	0	distractor	1	427	13.328	13.324	13.334
ProbeTrack7	25	ProbeTrack	1406	SCS215g	733725.357285	733725.366220	8	0.013328	60	10	60-180	60	79	GapExp	0	114	4	96	0	distractor	1	400	13.328	13.313	13.343
ProbeTrack7	25	ProbeTrack	1406	SCS215g	733725.357285	733725.366311	8	0.013328	60	10	60-180	60	157	GapExp	0	115	4	96	0	distractor	1	467	13.328	13.320	13.336
ProbeTrack7	25	ProbeTrack	1406	SCS215g	733725.357285	733725.366405	8	0.013328	60	10	60-180	60	103	GapExp	0	116	4	96	0	distractor	1	493	13.328	13.323	13.333
ProbeTrack7	25	ProbeTrack	1406	SCS215g	733725.357285	733725.366490	8	0.013328	60	10	60-180	60	90	GapExp	0	117	4	6	1	distractor	0	480	13.328	13.325	13.332
ProbeTrack7	25	ProbeTrack	1406	SCS215g	733725.357285	733725.366556	8	0.013328	60	10	60-180	60	78	GapExp	0	118	4	96	0	target	0	560	13.328	13.324	13.331
ProbeTrack7	25	ProbeTrack	1406	SCS215g	733725.357285	733725.366635	8	0.013328	60	10	60-180	60	97	GapExp	0	119	4	3	0	distractor	1	427	13.328	13.323	13.334
ProbeTrack7	25	ProbeTrack	1406	SCS215g	733725.357285	733725.366719	8	0.013328	60	10	60-180	60	88	GapExp	0	120	4	6	1	target	1	453	13.328	13.325	13.332
ProbeTrack7	25	ProbeTrack	1406	SCS215g	733725.357285	733725.366787	8	0.013328	60	10	60-180	60	64	GapExp	0	121	4	6	0	distractor	1	427	13.328	13.317	13.339
ProbeTrack7	25	ProbeTrack	1406	SCS215g	733725.357285	733725.366849	8	0.013328	60	10	60-180	60	82	GapExp	0	122	4	96	0	distractor	1	587	13.328	13.316	13.341
ProbeTrack7	25	ProbeTrack	1406	SCS215g	733725.357285	733725.366929	8	0.013328	60	10	60-180	60	71	GapExp	0	123	4	0	0	distractor	1	573	13.328	13.324	13.332
ProbeTrack7	25	ProbeTrack	1406	SCS215g	733725.357285	733725.366991	8	0.013328	60	10	60-180	60	108	GapExp	0	124	4	0	1	target	1	680	13.328	13.323	13.333
ProbeTrack7	25	ProbeTrack	1406	SCS215g	733725.357285	733725.367060	8	0.013328	60	10	60-180	60	125	GapExp	0	125	4	3	1	target	1	454	13.328	13.324	13.333
