exp	sub	code	rev	comp	runtime	trialtime	nstim	refreshdur	cuedur	gapdur	gapOnsetRange	durPostProbe	gapOnsetTime	blocktype	prac	trial	ntargets	soa	probeTarget	resp	acc	rt	meanFrameDur	minFrameDur	maxFrameDur
ProbeTrack7	14	ProbeTrack	1406	SCS215a	733716.442971	733716.443134	8	0.013328	60	0	60-180	60	141	NoGap	1	1	4	6	0	distractor	1	1799	13.328	13.293	13.363
ProbeTrack7	14	ProbeTrack	1406	SCS215a	733716.442971	733716.443626	8	0.013328	60	0	60-180	60	126	NoGap	1	2	4	3	0	distractor	1	1226	13.328	13.293	13.364
ProbeTrack7	14	ProbeTrack	1406	SCS215a	733716.442971	733716.443833	8	0.013328	60	0	60-180	60	69	NoGap	1	3	4	96	1	target	1	480	13.328	13.293	13.363
ProbeTrack7	14	ProbeTrack	1406	SCS215a	733716.442971	733716.443950	8	0.013328	60	0	60-180	60	143	NoGap	1	4	4	3	1	target	1	733	13.328	13.293	13.363
ProbeTrack7	14	ProbeTrack	1406	SCS215a	733716.442971	733716.444076	8	0.013328	60	0	60-180	60	165	NoGap	1	5	4	6	1	target	1	680	13.328	13.289	13.363
ProbeTrack7	14	ProbeTrack	1406	SCS215a	733716.442971	733716.444182	8	0.013328	60	0	60-180	60	79	NoGap	1	6	4	96	1	target	1	707	13.328	13.293	13.363
ProbeTrack7	14	ProbeTrack	1406	SCS215a	733716.442971	733716.444274	8	0.013328	60	0	60-180	60	115	NoGap	1	7	4	0	0	distractor	1	467	13.328	13.290	13.366
ProbeTrack7	14	ProbeTrack	1406	SCS215a	733716.442971	733716.444354	8	0.013328	60	0	60-180	60	167	NoGap	1	8	4	96	0	target	0	520	13.328	13.293	13.363
ProbeTrack7	14	ProbeTrack	1406	SCS215a	733716.442971	733716.444453	8	0.013328	60	0	60-180	60	130	NoGap	1	9	4	0	0	target	0	613	13.328	13.293	13.363
ProbeTrack7	14	ProbeTrack	1406	SCS215a	733716.442971	733716.444543	8	0.013328	60	0	60-180	60	164	NoGap	1	10	4	6	0	distractor	1	653	13.328	13.293	13.363
ProbeTrack7	14	ProbeTrack	1406	SCS215a	733716.442971	733716.444637	8	0.013328	60	0	60-180	60	152	NoGap	1	11	4	96	0	distractor	1	973	13.328	13.293	13.363
ProbeTrack7	14	ProbeTrack	1406	SCS215a	733716.442971	733716.444740	8	0.013328	60	0	60-180	60	104	NoGap	1	12	4	0	0	distractor	1	707	13.328	13.293	13.363
ProbeTrack7	14	ProbeTrack	1406	SCS215a	733716.442971	733716.444828	8	0.013328	60	0	60-180	60	153	NoGap	1	13	4	3	1	target	1	987	13.328	13.293	13.363
ProbeTrack7	14	ProbeTrack	1406	SCS215a	733716.442971	733716.444922	8	0.013328	60	0	60-180	60	162	NoGap	1	14	4	96	1	distractor	0	613	13.328	13.292	13.366
ProbeTrack7	14	ProbeTrack	1406	SCS215a	733716.442971	733716.445022	8	0.013328	60	0	60-180	60	113	NoGap	1	15	4	3	0	distractor	1	867	13.328	13.293	13.363
ProbeTrack7	14	ProbeTrack	1406	SCS215a	733716.442971	733716.445109	8	0.013328	60	0	60-180	60	113	NoGap	1	16	4	96	1	target	1	893	13.328	13.293	13.363
ProbeTrack7	14	ProbeTrack	1406	SCS215a	733716.442971	733716.445204	8	0.013328	60	0	60-180	60	163	NoGap	1	17	4	6	0	distractor	1	480	13.328	13.293	13.363
ProbeTrack7	14	ProbeTrack	1406	SCS215a	733716.442971	733716.445286	8	0.013328	60	0	60-180	60	116	NoGap	1	18	4	6	0	distractor	1	747	13.328	13.293	13.363
ProbeTrack7	14	ProbeTrack	1406	SCS215a	733716.442971	733716.445362	8	0.013328	60	0	60-180	60	61	NoGap	1	19	4	0	1	target	1	680	13.328	13.293	13.363
ProbeTrack7	14	ProbeTrack	1406	SCS215a	733716.442971	733716.445428	8	0.013328	60	0	60-180	60	156	NoGap	1	20	4	0	1	target	1	520	13.328	13.292	13.370
ProbeTrack7	14	ProbeTrack	1406	SCS215a	733716.442971	733716.445509	8	0.013328	60	0	60-180	60	175	NoGap	1	21	4	0	1	target	1	573	13.328	13.293	13.363
ProbeTrack7	14	ProbeTrack	1406	SCS215a	733716.442971	733716.445593	8	0.013328	60	0	60-180	60	161	NoGap	1	22	4	0	0	distractor	1	747	13.328	13.288	13.368
ProbeTrack7	14	ProbeTrack	1406	SCS215a	733716.442971	733716.445676	8	0.013328	60	0	60-180	60	97	NoGap	1	23	4	0	1	target	1	627	13.328	13.293	13.363
ProbeTrack7	14	ProbeTrack	1406	SCS215a	733716.442971	733716.445755	8	0.013328	60	0	60-180	60	170	NoGap	1	24	4	96	1	target	1	534	13.328	13.293	13.363
ProbeTrack7	14	ProbeTrack	1406	SCS215a	733716.442971	733716.445853	8	0.013328	60	0	60-180	60	97	NoGap	1	25	4	96	1	target	1	840	13.328	13.292	13.363
ProbeTrack7	14	ProbeTrack	1406	SCS215a	733716.442971	733716.445953	8	0.013328	60	0	60-180	60	137	NoGap	1	26	4	3	0	distractor	1	520	13.328	13.293	13.363
ProbeTrack7	14	ProbeTrack	1406	SCS215a	733716.442971	733716.446033	8	0.013328	60	0	60-180	60	99	NoGap	1	27	4	0	1	target	1	613	13.328	13.293	13.363
ProbeTrack7	14	ProbeTrack	1406	SCS215a	733716.442971	733716.446103	8	0.013328	60	0	60-180	60	147	NoGap	1	28	4	3	1	target	1	560	13.328	13.293	13.363
ProbeTrack7	14	ProbeTrack	1406	SCS215a	733716.442971	733716.446183	8	0.013328	60	0	60-180	60	150	NoGap	1	29	4	6	1	target	1	560	13.328	13.293	13.363
ProbeTrack7	14	ProbeTrack	1406	SCS215a	733716.442971	733716.446258	8	0.013328	60	0	60-180	60	148	NoGap	1	30	4	3	1	target	1	560	13.328	13.291	13.363
ProbeTrack7	14	ProbeTrack	1406	SCS215a	733716.442971	733716.446334	8	0.013328	60	0	60-180	60	97	NoGap	1	31	4	0	0	distractor	1	693	13.328	13.292	13.363
ProbeTrack7	14	ProbeTrack	1406	SCS215a	733716.442971	733716.446401	8	0.013328	60	0	60-180	60	175	NoGap	1	32	4	6	1	target	1	613	13.328	13.293	13.363
ProbeTrack7	14	ProbeTrack	1406	SCS215a	733716.442971	733716.446479	8	0.013328	60	0	60-180	60	135	NoGap	1	33	4	3	1	target	1	573	13.328	13.293	13.363
ProbeTrack7	14	ProbeTrack	1406	SCS215a	733716.442971	733716.446553	8	0.013328	60	0	60-180	60	104	NoGap	1	34	4	6	0	distractor	1	640	13.328	13.293	13.362
ProbeTrack7	14	ProbeTrack	1406	SCS215a	733716.442971	733716.446626	8	0.013328	60	0	60-180	60	159	NoGap	1	35	4	6	1	target	1	587	13.328	13.293	13.363
ProbeTrack7	14	ProbeTrack	1406	SCS215a	733716.442971	733716.446706	8	0.013328	60	0	60-180	60	96	NoGap	1	36	4	3	1	target	1	547	13.328	13.292	13.363
ProbeTrack7	14	ProbeTrack	1406	SCS215a	733716.442971	733716.446771	8	0.013328	60	0	60-180	60	84	NoGap	1	37	4	6	1	target	1	467	13.328	13.287	13.364
ProbeTrack7	14	ProbeTrack	1406	SCS215a	733716.442971	733716.446835	8	0.013328	60	0	60-180	60	125	NoGap	1	38	4	3	0	distractor	1	507	13.328	13.293	13.363
ProbeTrack7	14	ProbeTrack	1406	SCS215a	733716.442971	733716.446909	8	0.013328	60	0	60-180	60	180	NoGap	1	39	4	3	0	distractor	1	627	13.328	13.293	13.363
ProbeTrack7	14	ProbeTrack	1406	SCS215a	733716.442971	733716.446989	8	0.013328	60	0	60-180	60	111	NoGap	1	40	4	3	0	distractor	1	733	13.328	13.292	13.363
ProbeTrack7	14	ProbeTrack	1406	SCS215a	733716.442971	733716.447058	8	0.013328	60	0	60-180	60	92	NoGap	1	41	4	96	0	distractor	1	1013	13.328	13.293	13.363
ProbeTrack7	14	ProbeTrack	1406	SCS215a	733716.442971	733716.447142	8	0.013328	60	0	60-180	60	93	NoGap	1	42	4	6	0	distractor	1	1400	13.328	13.293	13.363
ProbeTrack7	14	ProbeTrack	1406	SCS215a	733716.442971	733716.447222	8	0.013328	60	0	60-180	60	139	NoGap	1	43	4	0	0	distractor	1	653	13.328	13.293	13.363
ProbeTrack7	14	ProbeTrack	1406	SCS215a	733716.442971	733716.447299	8	0.013328	60	0	60-180	60	101	NoGap	1	44	4	0	0	distractor	1	653	13.328	13.293	13.363
ProbeTrack7	14	ProbeTrack	1406	SCS215a	733716.442971	733716.447369	8	0.013328	60	0	60-180	60	148	NoGap	1	45	4	96	0	distractor	1	653	13.328	13.293	13.363
ProbeTrack7	14	ProbeTrack	1406	SCS215a	733716.442971	733716.447464	8	0.013328	60	0	60-180	60	86	NoGap	1	46	4	6	1	target	1	587	13.328	13.293	13.363
ProbeTrack7	14	ProbeTrack	1406	SCS215a	733716.442971	733716.447534	8	0.013328	60	0	60-180	60	69	NoGap	1	47	4	96	0	distractor	1	480	13.328	13.292	13.363
ProbeTrack7	14	ProbeTrack	1406	SCS215a	733716.442971	733716.447612	8	0.013328	60	0	60-180	60	118	NoGap	1	48	4	96	1	32	-3	414	13.328	13.293	13.367
ProbeTrack7	14	ProbeTrack	1406	SCS215a	733716.442971	733716.447698	8	0.013328	60	0	60-180	60	87	NoGap	1	49	4	96	0	distractor	1	573	13.328	13.293	13.363
ProbeTrack7	14	ProbeTrack	1406	SCS215a	733716.442971	733716.447784	8	0.013328	60	0	60-180	60	179	NoGap	1	50	4	6	0	distractor	1	533	13.328	13.290	13.363
ProbeTrack7	14	ProbeTrack	1406	SCS215a	733716.448400	733716.448504	8	0.013327	60	10	60-180	60	76	GapPrac	1	1	4	6	1	distractor	0	2879	13.328	13.293	13.363
ProbeTrack7	14	ProbeTrack	1406	SCS215a	733716.448400	733716.448626	8	0.013327	60	10	60-180	60	157	GapPrac	1	2	4	96	0	target	0	507	13.328	13.293	13.363
ProbeTrack7	14	ProbeTrack	1406	SCS215a	733716.448400	733716.448789	8	0.013327	60	10	60-180	60	152	GapPrac	1	3	4	3	0	distractor	1	787	13.328	13.293	13.363
ProbeTrack7	14	ProbeTrack	1406	SCS215a	733716.448400	733716.448915	8	0.013327	60	10	60-180	60	103	GapPrac	1	4	4	0	0	target	0	773	13.328	13.292	13.363
ProbeTrack7	14	ProbeTrack	1406	SCS215a	733716.448400	733716.449007	8	0.013327	60	10	60-180	60	126	GapPrac	1	5	4	0	0	distractor	1	413	13.328	13.292	13.363
ProbeTrack7	14	ProbeTrack	1406	SCS215a	733716.448400	733716.449100	8	0.013327	60	10	60-180	60	132	GapPrac	1	6	4	96	0	target	0	493	13.328	13.289	13.363
ProbeTrack7	14	ProbeTrack	1406	SCS215a	733716.448400	733716.449230	8	0.013327	60	10	60-180	60	94	GapPrac	1	7	4	6	0	target	0	507	13.328	13.292	13.363
ProbeTrack7	14	ProbeTrack	1406	SCS215a	733716.448400	733716.449303	8	0.013327	60	10	60-180	60	164	GapPrac	1	8	4	6	0	distractor	1	920	13.328	13.292	13.363
ProbeTrack7	14	ProbeTrack	1406	SCS215a	733716.448400	733716.449390	8	0.013327	60	10	60-180	60	116	GapPrac	1	9	4	0	1	distractor	0	667	13.328	13.293	13.363
ProbeTrack7	14	ProbeTrack	1406	SCS215a	733716.448400	733716.449466	8	0.013327	60	10	60-180	60	94	GapPrac	1	10	4	3	1	target	1	720	13.328	13.292	13.363
ProbeTrack7	14	ProbeTrack	1406	SCS215a	733716.448400	733716.449540	8	0.013327	60	10	60-180	60	97	GapPrac	1	11	4	96	0	distractor	1	680	13.328	13.293	13.363
ProbeTrack7	14	ProbeTrack	1406	SCS215a	733716.448400	733716.449628	8	0.013327	60	10	60-180	60	69	GapPrac	1	12	4	96	1	target	1	480	13.328	13.292	13.365
ProbeTrack7	14	ProbeTrack	1406	SCS215a	733716.448400	733716.449704	8	0.013327	60	10	60-180	60	165	GapPrac	1	13	4	6	1	target	1	733	13.328	13.293	13.367
ProbeTrack7	14	ProbeTrack	1406	SCS215a	733716.448400	733716.449788	8	0.013327	60	10	60-180	60	161	GapPrac	1	14	4	6	1	target	1	547	13.328	13.289	13.366
ProbeTrack7	14	ProbeTrack	1406	SCS215a	733716.448400	733716.449870	8	0.013327	60	10	60-180	60	102	GapPrac	1	15	4	3	0	distractor	1	547	13.328	13.293	13.363
ProbeTrack7	14	ProbeTrack	1406	SCS215a	733716.448400	733716.449941	8	0.013327	60	10	60-180	60	180	GapPrac	1	16	4	0	1	target	1	400	13.328	13.293	13.363
ProbeTrack7	14	ProbeTrack	1406	SCS215a	733716.448400	733716.450023	8	0.013327	60	10	60-180	60	149	GapPrac	1	17	4	96	1	distractor	0	320	13.328	13.293	13.363
ProbeTrack7	14	ProbeTrack	1406	SCS215a	733716.448400	733716.450117	8	0.013327	60	10	60-180	60	77	GapPrac	1	18	4	3	0	distractor	1	640	13.328	13.288	13.368
ProbeTrack7	14	ProbeTrack	1406	SCS215a	733716.448400	733716.450201	8	0.013327	60	10	60-180	60	77	GapPrac	1	19	4	3	1	target	1	613	13.328	13.090	13.598
ProbeTrack7	14	ProbeTrack	1406	SCS215a	733716.448400	733716.450271	8	0.013327	60	10	60-180	60	165	GapPrac	1	20	4	0	0	target	0	827	13.328	13.292	13.363
ProbeTrack7	14	ProbeTrack	1406	SCS215a	733716.451006	733716.451062	8	0.013327	60	10	60-180	60	125	GapPrac	1	1	4	96	1	distractor	0	667	13.328	13.293	13.365
ProbeTrack7	14	ProbeTrack	1406	SCS215a	733716.451006	733716.451156	8	0.013327	60	10	60-180	60	93	GapPrac	1	2	4	6	0	distractor	1	653	13.328	13.293	13.363
ProbeTrack7	14	ProbeTrack	1406	SCS215a	733716.451006	733716.451229	8	0.013327	60	10	60-180	60	124	GapPrac	1	3	4	96	0	target	0	733	13.328	13.293	13.363
ProbeTrack7	14	ProbeTrack	1406	SCS215a	733716.451006	733716.451325	8	0.013327	60	10	60-180	60	127	GapPrac	1	4	4	3	0	target	0	933	13.328	13.293	13.366
ProbeTrack7	14	ProbeTrack	1406	SCS215a	733716.451006	733716.451405	8	0.013327	60	10	60-180	60	159	GapPrac	1	5	4	0	1	distractor	0	2812	13.328	13.292	13.363
ProbeTrack7	14	ProbeTrack	1406	SCS215a	733716.451006	733716.451512	8	0.013327	60	10	60-180	60	63	GapPrac	1	6	4	96	1	target	1	667	13.328	13.292	13.363
ProbeTrack7	14	ProbeTrack	1406	SCS215a	733716.451006	733716.451594	8	0.013327	60	10	60-180	60	115	GapPrac	1	7	4	6	1	target	1	773	13.328	13.293	13.363
ProbeTrack7	14	ProbeTrack	1406	SCS215a	733716.451006	733716.451671	8	0.013327	60	10	60-180	60	167	GapPrac	1	8	4	96	1	target	1	653	13.328	13.292	13.363
ProbeTrack7	14	ProbeTrack	1406	SCS215a	733716.451006	733716.451768	8	0.013327	60	10	60-180	60	176	GapPrac	1	9	4	0	0	target	0	680	13.328	13.291	13.365
ProbeTrack7	14	ProbeTrack	1406	SCS215a	733716.451006	733716.451853	8	0.013327	60	10	60-180	60	161	GapPrac	1	10	4	6	0	distractor	1	747	13.328	13.292	13.363
ProbeTrack7	14	ProbeTrack	1406	SCS215a	733716.451006	733716.451937	8	0.013327	60	10	60-180	60	68	GapPrac	1	11	4	3	0	distractor	1	893	13.328	13.293	13.363
ProbeTrack7	14	ProbeTrack	1406	SCS215a	733716.451006	733716.452008	8	0.013327	60	10	60-180	60	151	GapPrac	1	12	4	6	0	target	0	1093	13.328	13.293	13.363
ProbeTrack7	14	ProbeTrack	1406	SCS215a	733716.451006	733716.452095	8	0.013327	60	10	60-180	60	100	GapPrac	1	13	4	3	1	distractor	0	933	13.328	13.107	13.548
ProbeTrack7	14	ProbeTrack	1406	SCS215a	733716.451006	733716.452174	8	0.013327	60	10	60-180	60	90	GapPrac	1	14	4	96	0	target	0	973	13.328	13.282	13.372
ProbeTrack7	14	ProbeTrack	1406	SCS215a	733716.451006	733716.452266	8	0.013327	60	10	60-180	60	128	GapPrac	1	15	4	0	1	target	1	1080	13.328	13.293	13.363
ProbeTrack7	14	ProbeTrack	1406	SCS215a	733716.451006	733716.452350	8	0.013327	60	10	60-180	60	161	GapPrac	1	16	4	0	0	target	0	1053	13.328	13.292	13.363
ProbeTrack7	14	ProbeTrack	1406	SCS215a	733716.451006	733716.452437	8	0.013327	60	10	60-180	60	139	GapPrac	1	17	4	96	0	target	0	947	13.328	13.293	13.363
ProbeTrack7	14	ProbeTrack	1406	SCS215a	733716.451006	733716.452534	8	0.013327	60	10	60-180	60	180	GapPrac	1	18	4	6	1	target	1	693	13.328	13.293	13.363
ProbeTrack7	14	ProbeTrack	1406	SCS215a	733716.451006	733716.452620	8	0.013327	60	10	60-180	60	73	GapPrac	1	19	4	3	0	target	0	1146	13.328	13.293	13.362
ProbeTrack7	14	ProbeTrack	1406	SCS215a	733716.451006	733716.452694	8	0.013327	60	10	60-180	60	147	GapPrac	1	20	4	3	1	distractor	0	693	13.328	13.293	13.363
ProbeTrack7	14	ProbeTrack	1406	SCS215a	733716.453782	733716.454062	8	0.013327	60	10	60-180	60	140	GapExp	1	1	4	3	1	distractor	0	1106	13.328	13.293	13.363
ProbeTrack7	14	ProbeTrack	1406	SCS215a	733716.453782	733716.454186	8	0.013327	60	10	60-180	60	158	GapExp	1	2	4	6	0	distractor	1	773	13.328	13.290	13.365
ProbeTrack7	14	ProbeTrack	1406	SCS215a	733716.453782	733716.454273	8	0.013327	60	10	60-180	60	136	GapExp	1	3	4	96	0	distractor	1	720	13.328	13.293	13.363
ProbeTrack7	14	ProbeTrack	1406	SCS215a	733716.453782	733716.454367	8	0.013327	60	10	60-180	60	174	GapExp	1	4	4	6	1	target	1	813	13.328	13.293	13.363
ProbeTrack7	14	ProbeTrack	1406	SCS215a	733716.453782	733716.454453	8	0.013327	60	10	60-180	60	129	GapExp	1	5	4	0	0	target	0	960	13.328	13.293	13.363
ProbeTrack7	14	ProbeTrack	1406	SCS215a	733716.453782	733716.454532	8	0.013327	60	10	60-180	60	168	GapExp	0	6	4	96	0	distractor	1	1586	13.328	13.292	13.365
ProbeTrack7	14	ProbeTrack	1406	SCS215a	733716.453782	733716.454720	8	0.013327	60	10	60-180	60	121	GapExp	0	7	4	6	0	target	0	733	13.328	13.293	13.363
ProbeTrack7	14	ProbeTrack	1406	SCS215a	733716.453782	733716.454797	8	0.013327	60	10	60-180	60	81	GapExp	0	8	4	0	1	target	1	773	13.328	13.291	13.363
ProbeTrack7	14	ProbeTrack	1406	SCS215a	733716.453782	733716.454870	8	0.013327	60	10	60-180	60	100	GapExp	0	9	4	96	0	target	0	1693	13.328	13.292	13.363
ProbeTrack7	14	ProbeTrack	1406	SCS215a	733716.453782	733716.454968	8	0.013327	60	10	60-180	60	92	GapExp	0	10	4	6	0	target	0	1026	13.328	13.291	13.363
ProbeTrack7	14	ProbeTrack	1406	SCS215a	733716.453782	733716.455043	8	0.013327	60	10	60-180	60	173	GapExp	0	11	4	3	0	distractor	1	1560	13.328	13.293	13.363
ProbeTrack7	14	ProbeTrack	1406	SCS215a	733716.453782	733716.455136	8	0.013327	60	10	60-180	60	96	GapExp	0	12	4	0	0	distractor	1	1200	13.328	13.292	13.367
ProbeTrack7	14	ProbeTrack	1406	SCS215a	733716.453782	733716.455213	8	0.013327	60	10	60-180	60	98	GapExp	0	13	4	96	1	target	1	773	13.328	13.293	13.363
ProbeTrack7	14	ProbeTrack	1406	SCS215a	733716.453782	733716.455300	8	0.013327	60	10	60-180	60	71	GapExp	0	14	4	3	0	distractor	1	1160	13.328	13.293	13.363
ProbeTrack7	14	ProbeTrack	1406	SCS215a	733716.453782	733716.455379	8	0.013327	60	10	60-180	60	175	GapExp	0	15	4	6	1	target	1	853	13.328	13.293	13.363
ProbeTrack7	14	ProbeTrack	1406	SCS215a	733716.453782	733716.455465	8	0.013327	60	10	60-180	60	91	GapExp	0	16	4	96	0	distractor	1	1306	13.328	13.293	13.363
ProbeTrack7	14	ProbeTrack	1406	SCS215a	733716.453782	733716.455559	8	0.013327	60	10	60-180	60	142	GapExp	0	17	4	96	1	target	1	2279	13.328	13.293	13.363
ProbeTrack7	14	ProbeTrack	1406	SCS215a	733716.453782	733716.455669	8	0.013327	60	10	60-180	60	114	GapExp	0	18	4	96	1	target	1	920	13.328	13.293	13.363
ProbeTrack7	14	ProbeTrack	1406	SCS215a	733716.453782	733716.455761	8	0.013327	60	10	60-180	60	73	GapExp	0	19	4	96	0	distractor	1	760	13.328	13.293	13.363
ProbeTrack7	14	ProbeTrack	1406	SCS215a	733716.453782	733716.455844	8	0.013327	60	10	60-180	60	107	GapExp	0	20	4	0	0	distractor	1	1346	13.328	13.292	13.363
ProbeTrack7	14	ProbeTrack	1406	SCS215a	733716.453782	733716.455922	8	0.013327	60	10	60-180	60	91	GapExp	0	21	4	0	1	target	1	773	13.328	13.293	13.363
ProbeTrack7	14	ProbeTrack	1406	SCS215a	733716.453782	733716.455989	8	0.013327	60	10	60-180	60	124	GapExp	0	22	4	6	1	distractor	0	653	13.328	13.293	13.363
ProbeTrack7	14	ProbeTrack	1406	SCS215a	733716.453782	733716.456061	8	0.013327	60	10	60-180	60	153	GapExp	0	23	4	96	0	distractor	1	733	13.328	13.293	13.363
ProbeTrack7	14	ProbeTrack	1406	SCS215a	733716.453782	733716.456153	8	0.013327	60	10	60-180	60	151	GapExp	0	24	4	96	1	target	1	1453	13.328	13.293	13.363
ProbeTrack7	14	ProbeTrack	1406	SCS215a	733716.453782	733716.456256	8	0.013327	60	10	60-180	60	167	GapExp	0	25	4	96	1	distractor	0	840	13.328	13.290	13.366
ProbeTrack7	14	ProbeTrack	1406	SCS215a	733716.453782	733716.456353	8	0.013327	60	10	60-180	60	73	GapExp	0	26	4	3	1	target	1	880	13.328	13.286	13.369
ProbeTrack7	14	ProbeTrack	1406	SCS215a	733716.453782	733716.456419	8	0.013327	60	10	60-180	60	109	GapExp	0	27	4	96	0	distractor	1	587	13.328	13.293	13.363
ProbeTrack7	14	ProbeTrack	1406	SCS215a	733716.453782	733716.456506	8	0.013327	60	10	60-180	60	146	GapExp	0	28	4	3	0	distractor	1	693	13.328	13.293	13.363
ProbeTrack7	14	ProbeTrack	1406	SCS215a	733716.453782	733716.456584	8	0.013327	60	10	60-180	60	112	GapExp	0	29	4	6	0	distractor	1	760	13.328	13.292	13.364
ProbeTrack7	14	ProbeTrack	1406	SCS215a	733716.453782	733716.456657	8	0.013327	60	10	60-180	60	148	GapExp	0	30	4	96	1	target	1	933	13.328	13.292	13.363
ProbeTrack7	14	ProbeTrack	1406	SCS215a	733716.453782	733716.456758	8	0.013327	60	10	60-180	60	128	GapExp	0	31	4	96	1	distractor	0	1186	13.328	13.293	13.363
ProbeTrack7	14	ProbeTrack	1406	SCS215a	733716.453782	733716.456851	8	0.013327	60	10	60-180	60	165	GapExp	0	32	4	96	0	target	0	787	13.328	13.293	13.363
ProbeTrack7	14	ProbeTrack	1406	SCS215a	733716.453782	733716.456947	8	0.013327	60	10	60-180	60	104	GapExp	0	33	4	3	0	target	0	853	13.328	13.293	13.365
ProbeTrack7	14	ProbeTrack	1406	SCS215a	733716.453782	733716.457019	8	0.013327	60	10	60-180	60	89	GapExp	0	34	4	0	0	distractor	1	1520	13.328	13.293	13.366
ProbeTrack7	14	ProbeTrack	1406	SCS215a	733716.453782	733716.457098	8	0.013327	60	10	60-180	60	62	GapExp	0	35	4	3	0	target	0	907	13.328	13.293	13.363
ProbeTrack7	14	ProbeTrack	1406	SCS215a	733716.453782	733716.457164	8	0.013327	60	10	60-180	60	168	GapExp	0	36	4	6	0	distractor	1	1040	13.328	13.292	13.363
ProbeTrack7	14	ProbeTrack	1406	SCS215a	733716.453782	733716.457250	8	0.013327	60	10	60-180	60	157	GapExp	0	37	4	3	1	target	1	707	13.328	13.293	13.365
ProbeTrack7	14	ProbeTrack	1406	SCS215a	733716.453782	733716.457328	8	0.013327	60	10	60-180	60	126	GapExp	0	38	4	96	0	distractor	1	787	13.328	13.292	13.363
ProbeTrack7	14	ProbeTrack	1406	SCS215a	733716.453782	733716.457416	8	0.013327	60	10	60-180	60	164	GapExp	0	39	4	96	0	distractor	1	720	13.328	13.292	13.363
ProbeTrack7	14	ProbeTrack	1406	SCS215a	733716.453782	733716.457511	8	0.013327	60	10	60-180	60	72	GapExp	0	40	4	6	1	target	1	1000	13.328	13.293	13.363
ProbeTrack7	14	ProbeTrack	1406	SCS215a	733716.453782	733716.457582	8	0.013327	60	10	60-180	60	138	GapExp	0	41	4	96	1	target	1	560	13.328	13.288	13.368
ProbeTrack7	14	ProbeTrack	1406	SCS215a	733716.453782	733716.457671	8	0.013327	60	10	60-180	60	62	GapExp	0	42	4	3	0	distractor	1	1080	13.328	13.293	13.364
ProbeTrack7	14	ProbeTrack	1406	SCS215a	733716.453782	733716.457737	8	0.013327	60	10	60-180	60	108	GapExp	0	43	4	3	0	distractor	1	627	13.328	13.289	13.366
ProbeTrack7	14	ProbeTrack	1406	SCS215a	733716.453782	733716.457807	8	0.013327	60	10	60-180	60	166	GapExp	0	44	4	0	1	distractor	0	853	13.328	13.291	13.363
ProbeTrack7	14	ProbeTrack	1406	SCS215a	733716.453782	733716.457890	8	0.013327	60	10	60-180	60	85	GapExp	0	45	4	96	1	target	1	813	13.328	13.293	13.363
ProbeTrack7	14	ProbeTrack	1406	SCS215a	733716.453782	733716.457974	8	0.013327	60	10	60-180	60	99	GapExp	0	46	4	0	0	target	0	1026	13.328	13.293	13.363
ProbeTrack7	14	ProbeTrack	1406	SCS215a	733716.453782	733716.458046	8	0.013327	60	10	60-180	60	157	GapExp	0	47	4	0	1	target	1	747	13.328	13.293	13.363
ProbeTrack7	14	ProbeTrack	1406	SCS215a	733716.453782	733716.458127	8	0.013327	60	10	60-180	60	165	GapExp	0	48	4	0	1	target	1	640	13.328	13.293	13.363
ProbeTrack7	14	ProbeTrack	1406	SCS215a	733716.453782	733716.458213	8	0.013327	60	10	60-180	60	74	GapExp	0	49	4	96	1	target	1	547	13.328	13.291	13.363
ProbeTrack7	14	ProbeTrack	1406	SCS215a	733716.453782	733716.458295	8	0.013327	60	10	60-180	60	114	GapExp	0	50	4	6	0	distractor	1	627	13.328	13.293	13.363
ProbeTrack7	14	ProbeTrack	1406	SCS215a	733716.453782	733716.458370	8	0.013327	60	10	60-180	60	147	GapExp	0	51	4	0	1	target	1	733	13.328	13.293	13.363
ProbeTrack7	14	ProbeTrack	1406	SCS215a	733716.453782	733716.458446	8	0.013327	60	10	60-180	60	124	GapExp	0	52	4	96	1	target	1	587	13.328	13.293	13.363
ProbeTrack7	14	ProbeTrack	1406	SCS215a	733716.453782	733716.458532	8	0.013327	60	10	60-180	60	177	GapExp	0	53	4	0	0	distractor	1	760	13.328	13.293	13.363
ProbeTrack7	14	ProbeTrack	1406	SCS215a	733716.453782	733716.458613	8	0.013327	60	10	60-180	60	70	GapExp	0	54	4	3	1	target	1	573	13.328	13.293	13.363
ProbeTrack7	14	ProbeTrack	1406	SCS215a	733716.453782	733716.458681	8	0.013327	60	10	60-180	60	71	GapExp	0	55	4	3	0	distractor	1	454	13.328	13.293	13.363
ProbeTrack7	14	ProbeTrack	1406	SCS215a	733716.453782	733716.458817	8	0.013327	60	10	60-180	60	102	GapExp	0	56	4	3	1	distractor	0	520	13.328	13.293	13.363
ProbeTrack7	14	ProbeTrack	1406	SCS215a	733716.453782	733716.458888	8	0.013327	60	10	60-180	60	94	GapExp	0	57	4	3	1	target	1	787	13.328	13.293	13.363
ProbeTrack7	14	ProbeTrack	1406	SCS215a	733716.453782	733716.458956	8	0.013327	60	10	60-180	60	109	GapExp	0	58	4	0	0	distractor	1	760	13.328	13.293	13.363
ProbeTrack7	14	ProbeTrack	1406	SCS215a	733716.453782	733716.459027	8	0.013327	60	10	60-180	60	68	GapExp	0	59	4	6	1	target	1	560	13.328	13.293	13.363
ProbeTrack7	14	ProbeTrack	1406	SCS215a	733716.453782	733716.459090	8	0.013327	60	10	60-180	60	140	GapExp	0	60	4	6	1	target	1	627	13.328	13.288	13.368
ProbeTrack7	14	ProbeTrack	1406	SCS215a	733716.453782	733716.459166	8	0.013327	60	10	60-180	60	127	GapExp	0	61	4	0	0	distractor	1	574	13.328	13.292	13.363
ProbeTrack7	14	ProbeTrack	1406	SCS215a	733716.453782	733716.459238	8	0.013327	60	10	60-180	60	89	GapExp	0	62	4	0	0	distractor	1	680	13.328	13.293	13.363
ProbeTrack7	14	ProbeTrack	1406	SCS215a	733716.453782	733716.459306	8	0.013327	60	10	60-180	60	172	GapExp	0	63	4	3	1	target	1	813	13.328	13.293	13.363
ProbeTrack7	14	ProbeTrack	1406	SCS215a	733716.453782	733716.459387	8	0.013327	60	10	60-180	60	70	GapExp	0	64	4	6	1	target	1	507	13.328	13.293	13.363
ProbeTrack7	14	ProbeTrack	1406	SCS215a	733716.453782	733716.459448	8	0.013327	60	10	60-180	60	94	GapExp	0	65	4	6	1	target	1	414	13.328	13.292	13.362
ProbeTrack7	14	ProbeTrack	1406	SCS215a	733716.453782	733716.459513	8	0.013327	60	10	60-180	60	168	GapExp	0	66	4	6	1	target	1	334	13.328	13.293	13.363
ProbeTrack7	14	ProbeTrack	1406	SCS215a	733716.453782	733716.459588	8	0.013327	60	10	60-180	60	111	GapExp	0	67	4	6	1	target	1	454	13.328	13.293	13.363
ProbeTrack7	14	ProbeTrack	1406	SCS215a	733716.453782	733716.459655	8	0.013327	60	10	60-180	60	119	GapExp	0	68	4	6	0	distractor	1	520	13.328	13.292	13.364
ProbeTrack7	14	ProbeTrack	1406	SCS215a	733716.453782	733716.459724	8	0.013327	60	10	60-180	60	170	GapExp	0	69	4	3	0	target	0	507	13.328	13.293	13.363
ProbeTrack7	14	ProbeTrack	1406	SCS215a	733716.453782	733716.459803	8	0.013327	60	10	60-180	60	159	GapExp	0	70	4	6	0	target	0	573	13.328	13.293	13.363
ProbeTrack7	14	ProbeTrack	1406	SCS215a	733716.453782	733716.459880	8	0.013327	60	10	60-180	60	166	GapExp	0	71	4	6	0	distractor	1	613	13.328	13.293	13.363
ProbeTrack7	14	ProbeTrack	1406	SCS215a	733716.453782	733716.459962	8	0.013327	60	10	60-180	60	62	GapExp	0	72	4	0	1	target	1	733	13.328	13.293	13.363
ProbeTrack7	14	ProbeTrack	1406	SCS215a	733716.453782	733716.460027	8	0.013327	60	10	60-180	60	80	GapExp	0	73	4	96	1	target	1	427	13.328	13.292	13.363
ProbeTrack7	14	ProbeTrack	1406	SCS215a	733716.453782	733716.460103	8	0.013327	60	10	60-180	60	76	GapExp	0	74	4	96	0	distractor	1	534	13.328	13.293	13.363
ProbeTrack7	14	ProbeTrack	1406	SCS215a	733716.453782	733716.460180	8	0.013327	60	10	60-180	60	124	GapExp	0	75	4	3	1	target	1	653	13.328	13.293	13.363
ProbeTrack7	14	ProbeTrack	1406	SCS215a	733716.453782	733716.460386	8	0.013327	60	10	60-180	60	102	GapExp	0	76	4	6	1	target	1	587	13.328	13.290	13.363
ProbeTrack7	14	ProbeTrack	1406	SCS215a	733716.453782	733716.460460	8	0.013327	60	10	60-180	60	119	GapExp	0	77	4	96	0	target	0	533	13.328	13.290	13.363
ProbeTrack7	14	ProbeTrack	1406	SCS215a	733716.453782	733716.460543	8	0.013327	60	10	60-180	60	165	GapExp	0	78	4	0	1	target	1	613	13.328	13.293	13.363
ProbeTrack7	14	ProbeTrack	1406	SCS215a	733716.453782	733716.460624	8	0.013327	60	10	60-180	60	93	GapExp	0	79	4	6	1	target	1	653	13.328	13.293	13.363
ProbeTrack7	14	ProbeTrack	1406	SCS215a	733716.453782	733716.460690	8	0.013327	60	10	60-180	60	129	GapExp	0	80	4	96	1	target	1	547	13.328	13.292	13.368
ProbeTrack7	14	ProbeTrack	1406	SCS215a	733716.453782	733716.460779	8	0.013327	60	10	60-180	60	161	GapExp	0	81	4	3	0	distractor	1	560	13.328	13.293	13.363
ProbeTrack7	14	ProbeTrack	1406	SCS215a	733716.453782	733716.460856	8	0.013327	60	10	60-180	60	78	GapExp	0	82	4	0	0	distractor	1	680	13.328	13.291	13.364
ProbeTrack7	14	ProbeTrack	1406	SCS215a	733716.453782	733716.460920	8	0.013327	60	10	60-180	60	180	GapExp	0	83	4	6	0	target	0	627	13.328	13.293	13.363
ProbeTrack7	14	ProbeTrack	1406	SCS215a	733716.453782	733716.461002	8	0.013327	60	10	60-180	60	164	GapExp	0	84	4	6	0	distractor	1	987	13.328	13.293	13.363
ProbeTrack7	14	ProbeTrack	1406	SCS215a	733716.453782	733716.461084	8	0.013327	60	10	60-180	60	93	GapExp	0	85	4	6	0	distractor	1	667	13.328	13.292	13.364
ProbeTrack7	14	ProbeTrack	1406	SCS215a	733716.453782	733716.461154	8	0.013327	60	10	60-180	60	169	GapExp	0	86	4	3	1	distractor	0	600	13.328	13.293	13.363
ProbeTrack7	14	ProbeTrack	1406	SCS215a	733716.453782	733716.461236	8	0.013327	60	10	60-180	60	101	GapExp	0	87	4	96	0	target	0	347	13.328	13.293	13.363
ProbeTrack7	14	ProbeTrack	1406	SCS215a	733716.453782	733716.461314	8	0.013327	60	10	60-180	60	77	GapExp	0	88	4	96	0	distractor	1	560	13.328	13.291	13.363
ProbeTrack7	14	ProbeTrack	1406	SCS215a	733716.453782	733716.461393	8	0.013327	60	10	60-180	60	91	GapExp	0	89	4	0	1	target	1	760	13.328	13.292	13.363
ProbeTrack7	14	ProbeTrack	1406	SCS215a	733716.453782	733716.461463	8	0.013327	60	10	60-180	60	126	GapExp	0	90	4	3	0	distractor	1	534	13.328	13.293	13.363
ProbeTrack7	14	ProbeTrack	1406	SCS215a	733716.453782	733716.461533	8	0.013327	60	10	60-180	60	171	GapExp	0	91	4	0	0	distractor	1	827	13.328	13.290	13.363
ProbeTrack7	14	ProbeTrack	1406	SCS215a	733716.453782	733716.461631	8	0.013327	60	10	60-180	60	84	GapExp	0	92	4	0	0	distractor	1	613	13.328	13.293	13.363
ProbeTrack7	14	ProbeTrack	1406	SCS215a	733716.453782	733716.461696	8	0.013327	60	10	60-180	60	137	GapExp	0	93	4	3	1	distractor	0	640	13.328	13.293	13.363
ProbeTrack7	14	ProbeTrack	1406	SCS215a	733716.453782	733716.461774	8	0.013327	60	10	60-180	60	166	GapExp	0	94	4	6	0	distractor	1	533	13.328	13.293	13.363
ProbeTrack7	14	ProbeTrack	1406	SCS215a	733716.453782	733716.461851	8	0.013327	60	10	60-180	60	97	GapExp	0	95	4	0	0	distractor	1	627	13.328	13.293	13.363
ProbeTrack7	14	ProbeTrack	1406	SCS215a	733716.453782	733716.461917	8	0.013327	60	10	60-180	60	168	GapExp	0	96	4	0	0	distractor	1	600	13.328	13.291	13.364
ProbeTrack7	14	ProbeTrack	1406	SCS215a	733716.453782	733716.461995	8	0.013327	60	10	60-180	60	70	GapExp	0	97	4	3	1	target	1	707	13.328	13.292	13.366
ProbeTrack7	14	ProbeTrack	1406	SCS215a	733716.453782	733716.462059	8	0.013327	60	10	60-180	60	136	GapExp	0	98	4	96	0	distractor	1	613	13.328	13.293	13.364
ProbeTrack7	14	ProbeTrack	1406	SCS215a	733716.453782	733716.462147	8	0.013327	60	10	60-180	60	101	GapExp	0	99	4	0	1	target	1	707	13.328	13.291	13.366
ProbeTrack7	14	ProbeTrack	1406	SCS215a	733716.453782	733716.462217	8	0.013327	60	10	60-180	60	118	GapExp	0	100	4	6	1	target	1	747	13.328	13.293	13.363
ProbeTrack7	14	ProbeTrack	1406	SCS215a	733716.453782	733716.462288	8	0.013327	60	10	60-180	60	67	GapExp	0	101	4	6	1	target	1	600	13.328	13.289	13.363
ProbeTrack7	14	ProbeTrack	1406	SCS215a	733716.453782	733716.462350	8	0.013327	60	10	60-180	60	110	GapExp	0	102	4	0	1	target	1	547	13.328	13.292	13.363
ProbeTrack7	14	ProbeTrack	1406	SCS215a	733716.453782	733716.462420	8	0.013327	60	10	60-180	60	98	GapExp	0	103	4	0	1	target	1	427	13.328	13.292	13.363
ProbeTrack7	14	ProbeTrack	1406	SCS215a	733716.453782	733716.462492	8	0.013327	60	10	60-180	60	130	GapExp	0	104	4	3	0	distractor	1	547	13.328	13.290	13.363
ProbeTrack7	14	ProbeTrack	1406	SCS215a	733716.453782	733716.462564	8	0.013327	60	10	60-180	60	62	GapExp	0	105	4	3	1	distractor	0	560	13.328	13.293	13.363
ProbeTrack7	14	ProbeTrack	1406	SCS215a	733716.453782	733716.462624	8	0.013327	60	10	60-180	60	141	GapExp	0	106	4	3	1	target	1	787	13.328	13.292	13.363
ProbeTrack7	14	ProbeTrack	1406	SCS215a	733716.453782	733716.462700	8	0.013327	60	10	60-180	60	150	GapExp	0	107	4	0	0	distractor	1	1000	13.328	13.289	13.364
ProbeTrack7	14	ProbeTrack	1406	SCS215a	733716.453782	733716.462780	8	0.013327	60	10	60-180	60	63	GapExp	0	108	4	96	1	distractor	0	427	13.328	13.293	13.363
ProbeTrack7	14	ProbeTrack	1406	SCS215a	733716.453782	733716.462854	8	0.013327	60	10	60-180	60	117	GapExp	0	109	4	6	1	target	1	693	13.328	13.291	13.364
ProbeTrack7	14	ProbeTrack	1406	SCS215a	733716.453782	733716.462926	8	0.013327	60	10	60-180	60	120	GapExp	0	110	4	6	0	distractor	1	480	13.328	13.293	13.363
ProbeTrack7	14	ProbeTrack	1406	SCS215a	733716.453782	733716.463000	8	0.013327	60	10	60-180	60	171	GapExp	0	111	4	3	0	distractor	1	587	13.328	13.293	13.364
ProbeTrack7	14	ProbeTrack	1406	SCS215a	733716.453782	733716.463079	8	0.013327	60	10	60-180	60	137	GapExp	0	112	4	6	1	distractor	0	707	13.328	13.292	13.363
ProbeTrack7	14	ProbeTrack	1406	SCS215a	733716.453782	733716.463155	8	0.013327	60	10	60-180	60	75	GapExp	0	113	4	96	1	distractor	0	467	13.328	13.292	13.363
ProbeTrack7	14	ProbeTrack	1406	SCS215a	733716.453782	733716.463231	8	0.013327	60	10	60-180	60	141	GapExp	0	114	4	6	0	target	0	587	13.328	13.293	13.364
ProbeTrack7	14	ProbeTrack	1406	SCS215a	733716.453782	733716.463307	8	0.013327	60	10	60-180	60	108	GapExp	0	115	4	3	1	target	1	613	13.328	13.292	13.363
ProbeTrack7	14	ProbeTrack	1406	SCS215a	733716.453782	733716.463376	8	0.013327	60	10	60-180	60	93	GapExp	0	116	4	6	0	distractor	1	507	13.328	13.293	13.363
ProbeTrack7	14	ProbeTrack	1406	SCS215a	733716.453782	733716.463447	8	0.013327	60	10	60-180	60	130	GapExp	0	117	4	96	0	distractor	1	507	13.328	13.293	13.363
ProbeTrack7	14	ProbeTrack	1406	SCS215a	733716.453782	733716.463532	8	0.013327	60	10	60-180	60	157	GapExp	0	118	4	3	1	target	1	773	13.328	13.288	13.367
ProbeTrack7	14	ProbeTrack	1406	SCS215a	733716.453782	733716.463610	8	0.013327	60	10	60-180	60	71	GapExp	0	119	4	0	1	target	1	573	13.328	13.293	13.363
ProbeTrack7	14	ProbeTrack	1406	SCS215a	733716.453782	733716.463674	8	0.013327	60	10	60-180	60	160	GapExp	0	120	4	0	0	distractor	1	733	13.328	13.292	13.363
ProbeTrack7	14	ProbeTrack	1406	SCS215a	733716.453782	733716.463753	8	0.013327	60	10	60-180	60	92	GapExp	0	121	4	3	0	distractor	1	640	13.328	13.289	13.363
ProbeTrack7	14	ProbeTrack	1406	SCS215a	733716.453782	733716.463823	8	0.013327	60	10	60-180	60	122	GapExp	0	122	4	0	1	distractor	0	920	13.328	13.289	13.365
ProbeTrack7	14	ProbeTrack	1406	SCS215a	733716.453782	733716.463901	8	0.013327	60	10	60-180	60	156	GapExp	0	123	4	3	0	distractor	1	733	13.328	13.293	13.366
ProbeTrack7	14	ProbeTrack	1406	SCS215a	733716.453782	733716.463979	8	0.013327	60	10	60-180	60	114	GapExp	0	124	4	3	1	target	1	1693	13.328	13.292	13.363
ProbeTrack7	14	ProbeTrack	1406	SCS215a	733716.453782	733716.464065	8	0.013327	60	10	60-180	60	68	GapExp	0	125	4	0	1	target	1	747	13.328	13.293	13.364
ProbeTrack7	14	ProbeTrack	1406	SCS215a	733716.464682	733716.464751	8	0.013328	60	10	60-180	60	130	GapPrac	1	1	3	0	0	distractor	1	627	13.328	13.293	13.366
ProbeTrack7	14	ProbeTrack	1406	SCS215a	733716.464682	733716.464835	8	0.013328	60	10	60-180	60	161	GapPrac	1	2	3	6	1	distractor	0	613	13.328	13.292	13.363
ProbeTrack7	14	ProbeTrack	1406	SCS215a	733716.464682	733716.464914	8	0.013328	60	10	60-180	60	117	GapPrac	1	3	3	3	1	target	1	720	13.328	13.293	13.363
ProbeTrack7	14	ProbeTrack	1406	SCS215a	733716.464682	733716.464988	8	0.013328	60	10	60-180	60	173	GapPrac	1	4	3	6	0	distractor	1	693	13.328	13.293	13.363
ProbeTrack7	14	ProbeTrack	1406	SCS215a	733716.464682	733716.465069	8	0.013328	60	10	60-180	60	94	GapPrac	1	5	3	6	0	distractor	1	600	13.328	13.291	13.363
ProbeTrack7	14	ProbeTrack	1406	SCS215a	733716.464682	733716.465135	8	0.013328	60	10	60-180	60	80	GapPrac	1	6	3	96	1	target	1	587	13.328	13.292	13.363
ProbeTrack7	14	ProbeTrack	1406	SCS215a	733716.464682	733716.465215	8	0.013328	60	10	60-180	60	83	GapPrac	1	7	3	3	1	distractor	0	693	13.328	13.293	13.365
ProbeTrack7	14	ProbeTrack	1406	SCS215a	733716.464682	733716.465280	8	0.013328	60	10	60-180	60	150	GapPrac	1	8	3	96	0	distractor	1	547	13.328	13.293	13.363
ProbeTrack7	14	ProbeTrack	1406	SCS215a	733716.464682	733716.465369	8	0.013328	60	10	60-180	60	115	GapPrac	1	9	3	6	1	target	1	920	13.328	13.293	13.363
ProbeTrack7	14	ProbeTrack	1406	SCS215a	733716.464682	733716.465443	8	0.013328	60	10	60-180	60	140	GapPrac	1	10	3	0	0	distractor	1	653	13.328	13.293	13.364
ProbeTrack7	14	ProbeTrack	1406	SCS215a	733716.464682	733716.465516	8	0.013328	60	10	60-180	60	62	GapPrac	1	11	3	6	0	distractor	1	680	13.328	13.293	13.363
ProbeTrack7	14	ProbeTrack	1406	SCS215a	733716.464682	733716.465581	8	0.013328	60	10	60-180	60	99	GapPrac	1	12	3	0	0	distractor	1	627	13.328	13.292	13.363
ProbeTrack7	14	ProbeTrack	1406	SCS215a	733716.464682	733716.465648	8	0.013328	60	10	60-180	60	141	GapPrac	1	13	3	0	1	target	1	667	13.328	13.292	13.363
ProbeTrack7	14	ProbeTrack	1406	SCS215a	733716.464682	733716.465722	8	0.013328	60	10	60-180	60	160	GapPrac	1	14	3	0	1	target	1	520	13.328	13.293	13.363
ProbeTrack7	14	ProbeTrack	1406	SCS215a	733716.464682	733716.465798	8	0.013328	60	10	60-180	60	168	GapPrac	1	15	3	6	1	target	1	467	13.328	13.293	13.363
ProbeTrack7	14	ProbeTrack	1406	SCS215a	733716.464682	733716.465879	8	0.013328	60	10	60-180	60	161	GapPrac	1	16	3	3	0	distractor	1	467	13.328	13.293	13.363
ProbeTrack7	14	ProbeTrack	1406	SCS215a	733716.464682	733716.465955	8	0.013328	60	10	60-180	60	165	GapPrac	1	17	3	3	0	target	0	600	13.328	13.288	13.363
ProbeTrack7	14	ProbeTrack	1406	SCS215a	733716.464682	733716.466032	8	0.013328	60	10	60-180	60	123	GapPrac	1	18	3	3	1	target	1	1040	13.328	13.290	13.363
ProbeTrack7	14	ProbeTrack	1406	SCS215a	733716.464682	733716.466108	8	0.013328	60	10	60-180	60	89	GapPrac	1	19	3	96	1	target	1	547	13.328	13.293	13.363
ProbeTrack7	14	ProbeTrack	1406	SCS215a	733716.464682	733716.466193	8	0.013328	60	10	60-180	60	157	GapPrac	1	20	3	96	0	distractor	1	573	13.328	13.293	13.363
ProbeTrack7	14	ProbeTrack	1406	SCS215a	733716.466716	733716.466783	8	0.013327	60	10	60-180	60	139	GapExp	1	1	3	6	0	distractor	1	440	13.328	13.292	13.363
ProbeTrack7	14	ProbeTrack	1406	SCS215a	733716.466716	733716.466886	8	0.013327	60	10	60-180	60	136	GapExp	1	2	3	3	1	target	1	467	13.328	13.293	13.366
ProbeTrack7	14	ProbeTrack	1406	SCS215a	733716.466716	733716.466961	8	0.013327	60	10	60-180	60	129	GapExp	1	3	3	6	1	target	1	533	13.328	13.293	13.366
ProbeTrack7	14	ProbeTrack	1406	SCS215a	733716.466716	733716.467032	8	0.013327	60	10	60-180	60	107	GapExp	1	4	3	96	1	target	1	653	13.328	13.293	13.363
ProbeTrack7	14	ProbeTrack	1406	SCS215a	733716.466716	733716.467115	8	0.013327	60	10	60-180	60	82	GapExp	1	5	3	0	0	target	0	840	13.328	13.293	13.363
ProbeTrack7	14	ProbeTrack	1406	SCS215a	733716.466716	733716.467181	8	0.013327	60	10	60-180	60	126	GapExp	0	6	3	3	1	distractor	0	853	13.328	13.293	13.363
ProbeTrack7	14	ProbeTrack	1406	SCS215a	733716.466716	733716.467256	8	0.013327	60	10	60-180	60	151	GapExp	0	7	3	6	1	distractor	0	760	13.328	13.293	13.363
ProbeTrack7	14	ProbeTrack	1406	SCS215a	733716.466716	733716.467335	8	0.013327	60	10	60-180	60	87	GapExp	0	8	3	6	1	distractor	0	880	13.328	13.293	13.363
ProbeTrack7	14	ProbeTrack	1406	SCS215a	733716.466716	733716.467405	8	0.013327	60	10	60-180	60	74	GapExp	0	9	3	0	0	distractor	1	707	13.328	13.293	13.363
ProbeTrack7	14	ProbeTrack	1406	SCS215a	733716.466716	733716.467470	8	0.013327	60	10	60-180	60	177	GapExp	0	10	3	0	0	distractor	1	787	13.328	13.293	13.363
ProbeTrack7	14	ProbeTrack	1406	SCS215a	733716.466716	733716.467571	8	0.013327	60	10	60-180	60	77	GapExp	0	11	3	6	0	distractor	1	1733	13.328	13.293	13.366
ProbeTrack7	14	ProbeTrack	1406	SCS215a	733716.466716	733716.467651	8	0.013327	60	10	60-180	60	151	GapExp	0	12	3	0	1	target	1	573	13.328	13.293	13.363
ProbeTrack7	14	ProbeTrack	1406	SCS215a	733716.466716	733716.467727	8	0.013327	60	10	60-180	60	61	GapExp	0	13	3	96	1	target	1	733	13.328	13.292	13.364
ProbeTrack7	14	ProbeTrack	1406	SCS215a	733716.466716	733716.467805	8	0.013327	60	10	60-180	60	112	GapExp	0	14	3	96	1	target	1	467	13.328	13.292	13.363
ProbeTrack7	14	ProbeTrack	1406	SCS215a	733716.466716	733716.467887	8	0.013327	60	10	60-180	60	91	GapExp	0	15	3	0	0	target	0	533	13.328	13.292	13.363
ProbeTrack7	14	ProbeTrack	1406	SCS215a	733716.466716	733716.467951	8	0.013327	60	10	60-180	60	173	GapExp	0	16	3	96	1	target	1	560	13.328	13.289	13.363
ProbeTrack7	14	ProbeTrack	1406	SCS215a	733716.466716	733716.468044	8	0.013327	60	10	60-180	60	92	GapExp	0	17	3	6	0	distractor	1	507	13.328	13.292	13.363
ProbeTrack7	14	ProbeTrack	1406	SCS215a	733716.466716	733716.468111	8	0.013327	60	10	60-180	60	148	GapExp	0	18	3	3	0	target	0	680	13.328	13.293	13.364
ProbeTrack7	14	ProbeTrack	1406	SCS215a	733716.466716	733716.468190	8	0.013327	60	10	60-180	60	160	GapExp	0	19	3	96	0	distractor	1	480	13.328	13.289	13.363
ProbeTrack7	14	ProbeTrack	1406	SCS215a	733716.466716	733716.468283	8	0.013327	60	10	60-180	60	164	GapExp	0	20	3	0	1	distractor	0	1453	13.328	13.293	13.363
ProbeTrack7	14	ProbeTrack	1406	SCS215a	733716.466716	733716.468377	8	0.013327	60	10	60-180	60	97	GapExp	0	21	3	0	0	distractor	1	1067	13.328	13.293	13.363
ProbeTrack7	14	ProbeTrack	1406	SCS215a	733716.466716	733716.468450	8	0.013327	60	10	60-180	60	137	GapExp	0	22	3	3	1	target	1	1000	13.328	13.290	13.363
ProbeTrack7	14	ProbeTrack	1406	SCS215a	733716.466716	733716.468536	8	0.013327	60	10	60-180	60	133	GapExp	0	23	3	0	0	target	0	1106	13.328	13.291	13.364
ProbeTrack7	14	ProbeTrack	1406	SCS215a	733716.466716	733716.468616	8	0.013327	60	10	60-180	60	114	GapExp	0	24	3	6	1	target	1	547	13.328	13.290	13.367
ProbeTrack7	14	ProbeTrack	1406	SCS215a	733716.466716	733716.468687	8	0.013327	60	10	60-180	60	99	GapExp	0	25	3	96	1	target	1	560	13.328	13.293	13.363
ProbeTrack7	14	ProbeTrack	1406	SCS215a	733716.466716	733716.468768	8	0.013327	60	10	60-180	60	93	GapExp	0	26	3	3	0	target	0	600	13.328	13.292	13.363
ProbeTrack7	14	ProbeTrack	1406	SCS215a	733716.466716	733716.468834	8	0.013327	60	10	60-180	60	146	GapExp	0	27	3	3	1	target	1	587	13.328	13.292	13.363
ProbeTrack7	14	ProbeTrack	1406	SCS215a	733716.466716	733716.468907	8	0.013327	60	10	60-180	60	123	GapExp	0	28	3	3	0	target	0	720	13.328	13.292	13.364
ProbeTrack7	14	ProbeTrack	1406	SCS215a	733716.466716	733716.468979	8	0.013327	60	10	60-180	60	104	GapExp	0	29	3	6	0	distractor	1	600	13.328	13.289	13.363
ProbeTrack7	14	ProbeTrack	1406	SCS215a	733716.466716	733716.469048	8	0.013327	60	10	60-180	60	64	GapExp	0	30	3	96	0	distractor	1	667	13.328	13.292	13.363
ProbeTrack7	14	ProbeTrack	1406	SCS215a	733716.466716	733716.469129	8	0.013327	60	10	60-180	60	149	GapExp	0	31	3	3	1	target	1	627	13.328	13.293	13.363
ProbeTrack7	14	ProbeTrack	1406	SCS215a	733716.466716	733716.469210	8	0.013327	60	10	60-180	60	173	GapExp	0	32	3	0	1	target	1	707	13.328	13.292	13.366
ProbeTrack7	14	ProbeTrack	1406	SCS215a	733716.466716	733716.469289	8	0.013327	60	10	60-180	60	111	GapExp	0	33	3	96	1	target	1	520	13.328	13.293	13.363
ProbeTrack7	14	ProbeTrack	1406	SCS215a	733716.466716	733716.469371	8	0.013327	60	10	60-180	60	84	GapExp	0	34	3	0	0	distractor	1	747	13.328	13.293	13.363
ProbeTrack7	14	ProbeTrack	1406	SCS215a	733716.466716	733716.469437	8	0.013327	60	10	60-180	60	126	GapExp	0	35	3	0	1	target	1	680	13.328	13.293	13.363
ProbeTrack7	14	ProbeTrack	1406	SCS215a	733716.466716	733716.469508	8	0.013327	60	10	60-180	60	141	GapExp	0	36	3	3	1	target	1	600	13.328	13.293	13.363
ProbeTrack7	14	ProbeTrack	1406	SCS215a	733716.466716	733716.469581	8	0.013327	60	10	60-180	60	71	GapExp	0	37	3	96	0	distractor	1	480	13.328	13.293	13.367
ProbeTrack7	14	ProbeTrack	1406	SCS215a	733716.466716	733716.469655	8	0.013327	60	10	60-180	60	159	GapExp	0	38	3	6	1	target	1	467	13.328	13.293	13.363
ProbeTrack7	14	ProbeTrack	1406	SCS215a	733716.466716	733716.469740	8	0.013327	60	10	60-180	60	129	GapExp	0	39	3	3	1	target	1	480	13.328	13.291	13.365
ProbeTrack7	14	ProbeTrack	1406	SCS215a	733716.466716	733716.469810	8	0.013327	60	10	60-180	60	118	GapExp	0	40	3	96	0	distractor	1	427	13.328	13.292	13.363
ProbeTrack7	14	ProbeTrack	1406	SCS215a	733716.466716	733716.469891	8	0.013327	60	10	60-180	60	85	GapExp	0	41	3	6	0	distractor	1	600	13.328	13.293	13.363
ProbeTrack7	14	ProbeTrack	1406	SCS215a	733716.466716	733716.469956	8	0.013327	60	10	60-180	60	159	GapExp	0	42	3	6	0	distractor	1	547	13.328	13.292	13.363
ProbeTrack7	14	ProbeTrack	1406	SCS215a	733716.466716	733716.470034	8	0.013327	60	10	60-180	60	153	GapExp	0	43	3	0	0	distractor	1	907	13.328	13.293	13.363
ProbeTrack7	14	ProbeTrack	1406	SCS215a	733716.466716	733716.470113	8	0.013327	60	10	60-180	60	118	GapExp	0	44	3	6	0	distractor	1	907	13.328	13.293	13.363
ProbeTrack7	14	ProbeTrack	1406	SCS215a	733716.466716	733716.470187	8	0.013327	60	10	60-180	60	86	GapExp	0	45	3	0	1	target	1	600	13.328	13.293	13.363
ProbeTrack7	14	ProbeTrack	1406	SCS215a	733716.466716	733716.470251	8	0.013327	60	10	60-180	60	143	GapExp	0	46	3	96	1	target	1	547	13.328	13.293	13.367
ProbeTrack7	14	ProbeTrack	1406	SCS215a	733716.466716	733716.470337	8	0.013327	60	10	60-180	60	153	GapExp	0	47	3	0	0	distractor	1	733	13.328	13.293	13.363
ProbeTrack7	14	ProbeTrack	1406	SCS215a	733716.466716	733716.470413	8	0.013327	60	10	60-180	60	138	GapExp	0	48	3	3	1	distractor	0	667	13.328	13.293	13.363
ProbeTrack7	14	ProbeTrack	1406	SCS215a	733716.466716	733716.470486	8	0.013327	60	10	60-180	60	135	GapExp	0	49	3	0	1	target	1	533	13.328	13.293	13.363
ProbeTrack7	14	ProbeTrack	1406	SCS215a	733716.466716	733716.470556	8	0.013327	60	10	60-180	60	99	GapExp	0	50	3	0	0	target	0	680	13.328	13.293	13.363
ProbeTrack7	14	ProbeTrack	1406	SCS215a	733716.466716	733716.470622	8	0.013327	60	10	60-180	60	141	GapExp	0	51	3	0	0	distractor	1	787	13.328	13.293	13.363
ProbeTrack7	14	ProbeTrack	1406	SCS215a	733716.466716	733716.470697	8	0.013327	60	10	60-180	60	165	GapExp	0	52	3	6	1	target	1	747	13.328	13.292	13.363
ProbeTrack7	14	ProbeTrack	1406	SCS215a	733716.466716	733716.470777	8	0.013327	60	10	60-180	60	169	GapExp	0	53	3	0	0	target	0	573	13.328	13.293	13.363
ProbeTrack7	14	ProbeTrack	1406	SCS215a	733716.466716	733716.470853	8	0.013327	60	10	60-180	60	139	GapExp	0	54	3	6	0	distractor	1	707	13.328	13.289	13.366
ProbeTrack7	14	ProbeTrack	1406	SCS215a	733716.466716	733716.470927	8	0.013327	60	10	60-180	60	174	GapExp	0	55	3	3	1	target	1	600	13.328	13.288	13.363
ProbeTrack7	14	ProbeTrack	1406	SCS215a	733716.466716	733716.471005	8	0.013327	60	10	60-180	60	180	GapExp	0	56	3	0	1	target	1	480	13.328	13.292	13.364
ProbeTrack7	14	ProbeTrack	1406	SCS215a	733716.466716	733716.471082	8	0.013327	60	10	60-180	60	78	GapExp	0	57	3	0	1	target	1	467	13.328	13.293	13.363
ProbeTrack7	14	ProbeTrack	1406	SCS215a	733716.466716	733716.471143	8	0.013327	60	10	60-180	60	79	GapExp	0	58	3	3	0	distractor	1	560	13.328	13.291	13.363
ProbeTrack7	14	ProbeTrack	1406	SCS215a	733716.466716	733716.471208	8	0.013327	60	10	60-180	60	149	GapExp	0	59	3	96	1	distractor	0	507	13.328	13.291	13.366
ProbeTrack7	14	ProbeTrack	1406	SCS215a	733716.466716	733716.471296	8	0.013327	60	10	60-180	60	170	GapExp	0	60	3	6	0	distractor	1	733	13.328	13.284	13.364
ProbeTrack7	14	ProbeTrack	1406	SCS215a	733716.466716	733716.471375	8	0.013327	60	10	60-180	60	165	GapExp	0	61	3	6	0	distractor	1	720	13.328	13.289	13.363
ProbeTrack7	14	ProbeTrack	1406	SCS215a	733716.466716	733716.471459	8	0.013327	60	10	60-180	60	163	GapExp	0	62	3	3	0	distractor	1	454	13.328	13.292	13.363
ProbeTrack7	14	ProbeTrack	1406	SCS215a	733716.466716	733716.471534	8	0.013327	60	10	60-180	60	124	GapExp	0	63	3	0	0	target	0	547	13.328	13.292	13.364
ProbeTrack7	14	ProbeTrack	1406	SCS215a	733716.466716	733716.471602	8	0.013327	60	10	60-180	60	171	GapExp	0	64	3	96	0	distractor	1	547	13.328	13.292	13.363
ProbeTrack7	14	ProbeTrack	1406	SCS215a	733716.466716	733716.471697	8	0.013327	60	10	60-180	60	154	GapExp	0	65	3	96	1	distractor	0	600	13.328	13.292	13.363
ProbeTrack7	14	ProbeTrack	1406	SCS215a	733716.466716	733716.471790	8	0.013327	60	10	60-180	60	83	GapExp	0	66	3	96	0	distractor	1	600	13.328	13.293	13.363
ProbeTrack7	14	ProbeTrack	1406	SCS215a	733716.466716	733716.471872	8	0.013327	60	10	60-180	60	142	GapExp	0	67	3	0	1	target	1	587	13.328	13.292	13.363
ProbeTrack7	14	ProbeTrack	1406	SCS215a	733716.466716	733716.471952	8	0.013327	60	10	60-180	60	136	GapExp	0	68	3	0	0	81	-3	560	13.328	13.293	13.363
ProbeTrack7	14	ProbeTrack	1406	SCS215a	733716.466716	733716.472025	8	0.013327	60	10	60-180	60	88	GapExp	0	69	3	96	0	target	0	787	13.328	13.293	13.363
ProbeTrack7	14	ProbeTrack	1406	SCS215a	733716.466716	733716.472121	8	0.013327	60	10	60-180	60	126	GapExp	0	70	3	0	1	target	1	640	13.328	13.293	13.363
ProbeTrack7	14	ProbeTrack	1406	SCS215a	733716.466716	733716.472195	8	0.013327	60	10	60-180	60	68	GapExp	0	71	3	3	0	target	0	1586	13.328	13.293	13.363
ProbeTrack7	14	ProbeTrack	1406	SCS215a	733716.466716	733716.472269	8	0.013327	60	10	60-180	60	178	GapExp	0	72	3	3	0	target	0	1120	13.328	13.290	13.363
ProbeTrack7	14	ProbeTrack	1406	SCS215a	733716.466716	733716.472356	8	0.013327	60	10	60-180	60	104	GapExp	0	73	3	6	1	target	1	560	13.328	13.293	13.363
ProbeTrack7	14	ProbeTrack	1406	SCS215a	733716.466716	733716.472422	8	0.013327	60	10	60-180	60	152	GapExp	0	74	3	6	0	distractor	1	680	13.328	13.293	13.363
ProbeTrack7	14	ProbeTrack	1406	SCS215a	733716.466716	733716.472500	8	0.013327	60	10	60-180	60	137	GapExp	0	75	3	96	1	target	1	693	13.328	13.293	13.363
ProbeTrack7	14	ProbeTrack	1406	SCS215a	733716.466716	733716.472589	8	0.013327	60	10	60-180	60	141	GapExp	0	76	3	96	0	distractor	1	627	13.328	13.292	13.363
ProbeTrack7	14	ProbeTrack	1406	SCS215a	733716.466716	733716.472678	8	0.013327	60	10	60-180	60	151	GapExp	0	77	3	96	0	distractor	1	627	13.328	13.292	13.363
ProbeTrack7	14	ProbeTrack	1406	SCS215a	733716.466716	733716.472768	8	0.013327	60	10	60-180	60	71	GapExp	0	78	3	96	1	target	1	507	13.328	13.292	13.363
ProbeTrack7	14	ProbeTrack	1406	SCS215a	733716.466716	733716.472844	8	0.013327	60	10	60-180	60	144	GapExp	0	79	3	6	1	target	1	573	13.328	13.104	13.552
ProbeTrack7	14	ProbeTrack	1406	SCS215a	733716.466716	733716.472920	8	0.013327	60	10	60-180	60	68	GapExp	0	80	3	0	1	target	1	573	13.328	13.293	13.364
ProbeTrack7	14	ProbeTrack	1406	SCS215a	733716.466716	733716.472981	8	0.013327	60	10	60-180	60	141	GapExp	0	81	3	3	1	distractor	0	1027	13.328	13.293	13.363
ProbeTrack7	14	ProbeTrack	1406	SCS215a	733716.466716	733716.473060	8	0.013327	60	10	60-180	60	180	GapExp	0	82	3	0	0	distractor	1	720	13.328	13.293	13.363
ProbeTrack7	14	ProbeTrack	1406	SCS215a	733716.466716	733716.473143	8	0.013327	60	10	60-180	60	91	GapExp	0	83	3	3	0	distractor	1	733	13.328	13.293	13.363
ProbeTrack7	14	ProbeTrack	1406	SCS215a	733716.466716	733716.473241	8	0.013327	60	10	60-180	60	67	GapExp	0	84	3	3	1	target	1	880	13.328	13.293	13.363
ProbeTrack7	14	ProbeTrack	1406	SCS215a	733716.466716	733716.473307	8	0.013327	60	10	60-180	60	100	GapExp	0	85	3	0	0	distractor	1	680	13.328	13.293	13.363
ProbeTrack7	14	ProbeTrack	1406	SCS215a	733716.466716	733716.473374	8	0.013327	60	10	60-180	60	147	GapExp	0	86	3	96	0	distractor	1	560	13.328	13.293	13.363
ProbeTrack7	14	ProbeTrack	1406	SCS215a	733716.466716	733716.473464	8	0.013327	60	10	60-180	60	168	GapExp	0	87	3	96	0	distractor	1	773	13.328	13.292	13.363
ProbeTrack7	14	ProbeTrack	1406	SCS215a	733716.466716	733716.473559	8	0.013327	60	10	60-180	60	144	GapExp	0	88	3	3	1	target	1	1226	13.328	13.292	13.363
ProbeTrack7	14	ProbeTrack	1406	SCS215a	733716.466716	733716.473641	8	0.013327	60	10	60-180	60	132	GapExp	0	89	3	3	1	distractor	0	640	13.328	13.293	13.363
ProbeTrack7	14	ProbeTrack	1406	SCS215a	733716.466716	733716.473716	8	0.013327	60	10	60-180	60	168	GapExp	0	90	3	96	1	target	1	467	13.328	13.289	13.366
ProbeTrack7	14	ProbeTrack	1406	SCS215a	733716.466716	733716.473807	8	0.013327	60	10	60-180	60	84	GapExp	0	91	3	6	0	distractor	1	547	13.328	13.293	13.363
ProbeTrack7	14	ProbeTrack	1406	SCS215a	733716.466716	733716.473870	8	0.013327	60	10	60-180	60	77	GapExp	0	92	3	0	1	target	1	707	13.328	13.293	13.363
ProbeTrack7	14	ProbeTrack	1406	SCS215a	733716.466716	733716.473935	8	0.013327	60	10	60-180	60	140	GapExp	0	93	3	6	1	target	1	520	13.328	13.293	13.363
ProbeTrack7	14	ProbeTrack	1406	SCS215a	733716.466716	733716.474007	8	0.013327	60	10	60-180	60	128	GapExp	0	94	3	3	1	target	1	440	13.328	13.293	13.363
ProbeTrack7	14	ProbeTrack	1406	SCS215a	733716.466716	733716.474077	8	0.013327	60	10	60-180	60	62	GapExp	0	95	3	3	0	target	0	493	13.328	13.293	13.363
ProbeTrack7	14	ProbeTrack	1406	SCS215a	733716.466716	733716.474140	8	0.013327	60	10	60-180	60	136	GapExp	0	96	3	96	1	target	1	600	13.328	13.293	13.363
ProbeTrack7	14	ProbeTrack	1406	SCS215a	733716.466716	733716.474229	8	0.013327	60	10	60-180	60	121	GapExp	0	97	3	0	1	target	1	587	13.328	13.293	13.363
ProbeTrack7	14	ProbeTrack	1406	SCS215a	733716.466716	733716.474299	8	0.013327	60	10	60-180	60	151	GapExp	0	98	3	6	1	target	1	707	13.328	13.293	13.363
ProbeTrack7	14	ProbeTrack	1406	SCS215a	733716.466716	733716.474376	8	0.013327	60	10	60-180	60	152	GapExp	0	99	3	96	1	distractor	0	427	13.328	13.291	13.363
ProbeTrack7	14	ProbeTrack	1406	SCS215a	733716.466716	733716.474465	8	0.013327	60	10	60-180	60	112	GapExp	0	100	3	3	0	distractor	1	760	13.328	13.289	13.363
ProbeTrack7	14	ProbeTrack	1406	SCS215a	733716.466716	733716.474535	8	0.013327	60	10	60-180	60	103	GapExp	0	101	3	96	1	target	1	707	13.328	13.293	13.363
ProbeTrack7	14	ProbeTrack	1406	SCS215a	733716.466716	733716.474619	8	0.013327	60	10	60-180	60	89	GapExp	0	102	3	6	1	target	1	640	13.328	13.293	13.363
ProbeTrack7	14	ProbeTrack	1406	SCS215a	733716.466716	733716.474687	8	0.013327	60	10	60-180	60	180	GapExp	0	103	3	6	0	distractor	1	547	13.328	13.293	13.363
ProbeTrack7	14	ProbeTrack	1406	SCS215a	733716.466716	733716.474770	8	0.013327	60	10	60-180	60	90	GapExp	0	104	3	3	0	distractor	1	600	13.328	13.293	13.363
ProbeTrack7	14	ProbeTrack	1406	SCS215a	733716.466716	733716.474836	8	0.013327	60	10	60-180	60	87	GapExp	0	105	3	6	0	distractor	1	640	13.328	13.292	13.363
ProbeTrack7	14	ProbeTrack	1406	SCS215a	733716.466716	733716.474903	8	0.013327	60	10	60-180	60	78	GapExp	0	106	3	3	0	distractor	1	773	13.328	13.293	13.363
ProbeTrack7	14	ProbeTrack	1406	SCS215a	733716.466716	733716.474970	8	0.013327	60	10	60-180	60	73	GapExp	0	107	3	96	0	distractor	1	680	13.328	13.292	13.363
ProbeTrack7	14	ProbeTrack	1406	SCS215a	733716.466716	733716.475047	8	0.013327	60	10	60-180	60	74	GapExp	0	108	3	6	0	target	0	720	13.328	13.293	13.363
ProbeTrack7	14	ProbeTrack	1406	SCS215a	733716.466716	733716.475111	8	0.013327	60	10	60-180	60	127	GapExp	0	109	3	3	0	distractor	1	733	13.328	13.292	13.363
ProbeTrack7	14	ProbeTrack	1406	SCS215a	733716.466716	733716.475184	8	0.013327	60	10	60-180	60	104	GapExp	0	110	3	6	0	distractor	1	1080	13.328	13.293	13.363
ProbeTrack7	14	ProbeTrack	1406	SCS215a	733716.466716	733716.475257	8	0.013327	60	10	60-180	60	150	GapExp	0	111	3	96	0	distractor	1	720	13.328	13.293	13.366
ProbeTrack7	14	ProbeTrack	1406	SCS215a	733716.466716	733716.475349	8	0.013327	60	10	60-180	60	61	GapExp	0	112	3	96	0	distractor	1	707	13.328	13.293	13.363
ProbeTrack7	14	ProbeTrack	1406	SCS215a	733716.466716	733716.475426	8	0.013327	60	10	60-180	60	146	GapExp	0	113	3	6	1	target	1	720	13.328	13.293	13.363
ProbeTrack7	14	ProbeTrack	1406	SCS215a	733716.466716	733716.475501	8	0.013327	60	10	60-180	60	132	GapExp	0	114	3	6	1	target	1	480	13.328	13.289	13.363
ProbeTrack7	14	ProbeTrack	1406	SCS215a	733716.466716	733716.475572	8	0.013327	60	10	60-180	60	73	GapExp	0	115	3	3	1	distractor	0	867	13.328	13.293	13.363
ProbeTrack7	14	ProbeTrack	1406	SCS215a	733716.466716	733716.475640	8	0.013327	60	10	60-180	60	64	GapExp	0	116	3	6	1	distractor	0	733	13.328	13.293	13.363
ProbeTrack7	14	ProbeTrack	1406	SCS215a	733716.466716	733716.475703	8	0.013327	60	10	60-180	60	125	GapExp	0	117	3	6	1	target	1	454	13.328	13.293	13.363
ProbeTrack7	14	ProbeTrack	1406	SCS215a	733716.466716	733716.475772	8	0.013327	60	10	60-180	60	100	GapExp	0	118	3	3	0	distractor	1	587	13.328	13.293	13.363
ProbeTrack7	14	ProbeTrack	1406	SCS215a	733716.466716	733716.475838	8	0.013327	60	10	60-180	60	94	GapExp	0	119	3	0	1	target	1	680	13.328	13.293	13.366
ProbeTrack7	14	ProbeTrack	1406	SCS215a	733716.466716	733716.475908	8	0.013327	60	10	60-180	60	167	GapExp	0	120	3	3	1	target	1	533	13.328	13.293	13.363
ProbeTrack7	14	ProbeTrack	1406	SCS215a	733716.466716	733716.475984	8	0.013327	60	10	60-180	60	139	GapExp	0	121	3	6	1	target	1	493	13.328	13.293	13.366
ProbeTrack7	14	ProbeTrack	1406	SCS215a	733716.466716	733716.476056	8	0.013327	60	10	60-180	60	111	GapExp	0	122	3	0	1	target	1	587	13.328	13.293	13.363
ProbeTrack7	14	ProbeTrack	1406	SCS215a	733716.466716	733716.476126	8	0.013327	60	10	60-180	60	141	GapExp	0	123	3	3	0	distractor	1	600	13.328	13.291	13.363
ProbeTrack7	14	ProbeTrack	1406	SCS215a	733716.466716	733716.476199	8	0.013327	60	10	60-180	60	116	GapExp	0	124	3	96	0	distractor	1	547	13.328	13.293	13.363
ProbeTrack7	14	ProbeTrack	1406	SCS215a	733716.466716	733716.476285	8	0.013327	60	10	60-180	60	165	GapExp	0	125	3	96	1	distractor	0	693	13.328	13.289	13.367
