exp	sub	code	rev	comp	runtime	trialtime	nstim	refreshdur	cuedur	gapdur	gapOnsetRange	durPostProbe	gapOnsetTime	blocktype	prac	trial	ntargets	soa	probeTarget	resp	acc	rt	meanFrameDur	minFrameDur	maxFrameDur
ProbeTrack7	1	ProbeTrack	1404	SCS215g	733709.358603	733709.359455	8	0.013328	60	0	60-180	60	144	NoGap	1	1	4	96	0	target	0	1120	13.328	13.324	13.332
ProbeTrack7	1	ProbeTrack	1404	SCS215g	733709.358603	733709.359724	8	0.013328	60	0	60-180	60	162	NoGap	1	2	4	6	0	distractor	1	800	13.328	13.324	13.333
ProbeTrack7	1	ProbeTrack	1404	SCS215g	733709.358603	733709.360203	8	0.013328	60	0	60-180	60	64	NoGap	1	3	4	96	0	distractor	1	667	13.328	13.325	13.332
ProbeTrack7	1	ProbeTrack	1404	SCS215g	733709.358603	733709.360513	8	0.013328	60	0	60-180	60	61	NoGap	1	4	4	0	1	target	1	1080	13.328	13.327	13.330
ProbeTrack7	1	ProbeTrack	1404	SCS215g	733709.358603	733709.360566	8	0.013328	60	0	60-180	60	74	NoGap	1	5	4	3	0	distractor	1	600	13.328	13.324	13.333
ProbeTrack7	1	ProbeTrack	1404	SCS215g	733709.358603	733709.360630	8	0.013328	60	0	60-180	60	151	NoGap	1	6	4	96	1	target	1	667	13.328	13.324	13.331
ProbeTrack7	1	ProbeTrack	1404	SCS215g	733709.358603	733709.360711	8	0.013328	60	0	60-180	60	107	NoGap	1	7	4	0	1	distractor	0	613	13.328	13.323	13.334
ProbeTrack7	1	ProbeTrack	1404	SCS215g	733709.358603	733709.360782	8	0.013328	60	0	60-180	60	173	NoGap	1	8	4	3	1	target	1	1040	13.328	13.321	13.336
ProbeTrack7	1	ProbeTrack	1404	SCS215g	733709.358603	733709.360860	8	0.013328	60	0	60-180	60	101	NoGap	1	9	4	96	1	distractor	0	534	13.328	13.322	13.330
ProbeTrack7	1	ProbeTrack	1404	SCS215g	733709.358603	733709.360965	8	0.013328	60	0	60-180	60	180	NoGap	1	10	4	3	1	target	1	613	13.328	13.323	13.333
ProbeTrack7	1	ProbeTrack	1404	SCS215g	733709.358603	733709.361038	8	0.013328	60	0	60-180	60	138	NoGap	1	11	4	0	1	distractor	0	547	13.328	13.327	13.330
ProbeTrack7	1	ProbeTrack	1404	SCS215g	733709.358603	733709.361115	8	0.013328	60	0	60-180	60	119	NoGap	1	12	4	0	0	target	0	1720	13.328	13.325	13.333
ProbeTrack7	1	ProbeTrack	1404	SCS215g	733709.358603	733709.361187	8	0.013328	60	0	60-180	60	126	NoGap	1	13	4	96	1	target	1	733	13.328	13.324	13.332
ProbeTrack7	1	ProbeTrack	1404	SCS215g	733709.358603	733709.361275	8	0.013328	60	0	60-180	60	61	NoGap	1	14	4	96	0	distractor	1	733	13.328	13.323	13.333
ProbeTrack7	1	ProbeTrack	1404	SCS215g	733709.358603	733709.361347	8	0.013328	60	0	60-180	60	165	NoGap	1	15	4	3	0	distractor	1	520	13.328	13.323	13.332
ProbeTrack7	1	ProbeTrack	1404	SCS215g	733709.358603	733709.361419	8	0.013328	60	0	60-180	60	67	NoGap	1	16	4	96	0	distractor	1	640	13.328	13.325	13.332
ProbeTrack7	1	ProbeTrack	1404	SCS215g	733709.358603	733709.361485	8	0.013328	60	0	60-180	60	63	NoGap	1	17	4	3	0	distractor	1	840	13.328	13.327	13.330
ProbeTrack7	1	ProbeTrack	1404	SCS215g	733709.358603	733709.361538	8	0.013328	60	0	60-180	60	127	NoGap	1	18	4	3	1	distractor	0	680	13.328	13.322	13.333
ProbeTrack7	1	ProbeTrack	1404	SCS215g	733709.358603	733709.361613	8	0.013328	60	0	60-180	60	103	NoGap	1	19	4	3	1	target	1	773	13.328	13.323	13.334
ProbeTrack7	1	ProbeTrack	1404	SCS215g	733709.358603	733709.361683	8	0.013328	60	0	60-180	60	173	NoGap	1	20	4	96	1	target	1	720	13.328	13.324	13.332
ProbeTrack7	1	ProbeTrack	1404	SCS215g	733709.358603	733709.361765	8	0.013328	60	0	60-180	60	105	NoGap	1	21	4	6	1	target	1	693	13.328	13.323	13.333
ProbeTrack7	1	ProbeTrack	1404	SCS215g	733709.358603	733709.361840	8	0.013328	60	0	60-180	60	85	NoGap	1	22	4	6	1	target	1	720	13.328	13.326	13.330
ProbeTrack7	1	ProbeTrack	1404	SCS215g	733709.358603	733709.361932	8	0.013328	60	0	60-180	60	132	NoGap	1	23	4	96	1	target	1	480	13.328	13.325	13.333
ProbeTrack7	1	ProbeTrack	1404	SCS215g	733709.358603	733709.362008	8	0.013328	60	0	60-180	60	93	NoGap	1	24	4	3	0	distractor	1	653	13.328	13.324	13.333
ProbeTrack7	1	ProbeTrack	1404	SCS215g	733709.358603	733709.362070	8	0.013328	60	0	60-180	60	105	NoGap	1	25	4	3	0	distractor	1	813	13.328	13.325	13.332
ProbeTrack7	1	ProbeTrack	1404	SCS215g	733709.358603	733709.362135	8	0.013328	60	0	60-180	60	103	NoGap	1	26	4	6	1	target	1	827	13.328	13.327	13.330
ProbeTrack7	1	ProbeTrack	1404	SCS215g	733709.358603	733709.362203	8	0.013328	60	0	60-180	60	93	NoGap	1	27	4	0	0	distractor	1	867	13.328	13.327	13.330
ProbeTrack7	1	ProbeTrack	1404	SCS215g	733709.358603	733709.362267	8	0.013328	60	0	60-180	60	68	NoGap	1	28	4	6	0	distractor	1	560	13.328	13.327	13.330
ProbeTrack7	1	ProbeTrack	1404	SCS215g	733709.358603	733709.362323	8	0.013328	60	0	60-180	60	90	NoGap	1	29	4	6	1	target	1	573	13.328	13.323	13.334
ProbeTrack7	1	ProbeTrack	1404	SCS215g	733709.358603	733709.362387	8	0.013328	60	0	60-180	60	102	NoGap	1	30	4	96	0	distractor	1	613	13.328	13.323	13.334
ProbeTrack7	1	ProbeTrack	1404	SCS215g	733709.358603	733709.362464	8	0.013328	60	0	60-180	60	136	NoGap	1	31	4	6	0	distractor	1	773	13.328	13.323	13.333
ProbeTrack7	1	ProbeTrack	1404	SCS215g	733709.358603	733709.362535	8	0.013328	60	0	60-180	60	82	NoGap	1	32	4	0	0	distractor	1	707	13.328	13.327	13.330
ProbeTrack7	1	ProbeTrack	1404	SCS215g	733709.358603	733709.362596	8	0.013328	60	0	60-180	60	128	NoGap	1	33	4	96	1	target	1	747	13.328	13.323	13.333
ProbeTrack7	1	ProbeTrack	1404	SCS215g	733709.358603	733709.362671	8	0.013328	60	0	60-180	60	94	NoGap	1	34	4	96	0	target	0	693	13.328	13.323	13.333
ProbeTrack7	1	ProbeTrack	1404	SCS215g	733709.358603	733709.362755	8	0.013328	60	0	60-180	60	150	NoGap	1	35	4	6	0	distractor	1	987	13.328	13.325	13.332
ProbeTrack7	1	ProbeTrack	1404	SCS215g	733709.358603	733709.362828	8	0.013328	60	0	60-180	60	175	NoGap	1	36	4	0	0	distractor	1	560	13.328	13.318	13.338
ProbeTrack7	1	ProbeTrack	1404	SCS215g	733709.358603	733709.362915	8	0.013328	60	0	60-180	60	101	NoGap	1	37	4	6	0	distractor	1	774	13.328	13.324	13.333
ProbeTrack7	1	ProbeTrack	1404	SCS215g	733709.358603	733709.362978	8	0.013328	60	0	60-180	60	148	NoGap	1	38	4	0	1	target	1	800	13.328	13.326	13.331
ProbeTrack7	1	ProbeTrack	1404	SCS215g	733709.358603	733709.363057	8	0.013328	60	0	60-180	60	67	NoGap	1	39	4	0	0	distractor	1	533	13.328	13.319	13.337
ProbeTrack7	1	ProbeTrack	1404	SCS215g	733709.358603	733709.363113	8	0.013328	60	0	60-180	60	173	NoGap	1	40	4	3	1	target	1	800	13.328	13.323	13.334
ProbeTrack7	1	ProbeTrack	1404	SCS215g	733709.358603	733709.363185	8	0.013328	60	0	60-180	60	151	NoGap	1	41	4	96	0	distractor	1	560	13.328	13.322	13.335
ProbeTrack7	1	ProbeTrack	1404	SCS215g	733709.358603	733709.363268	8	0.013328	60	0	60-180	60	114	NoGap	1	42	4	96	1	distractor	0	573	13.328	13.324	13.333
ProbeTrack7	1	ProbeTrack	1404	SCS215g	733709.358603	733709.363350	8	0.013328	60	0	60-180	60	68	NoGap	1	43	4	3	1	distractor	0	920	13.328	13.326	13.330
ProbeTrack7	1	ProbeTrack	1404	SCS215g	733709.358603	733709.363404	8	0.013328	60	0	60-180	60	169	NoGap	1	44	4	0	1	target	1	600	13.328	13.324	13.333
ProbeTrack7	1	ProbeTrack	1404	SCS215g	733709.358603	733709.363477	8	0.013328	60	0	60-180	60	116	NoGap	1	45	4	0	1	target	1	707	13.328	13.323	13.332
ProbeTrack7	1	ProbeTrack	1404	SCS215g	733709.358603	733709.363542	8	0.013328	60	0	60-180	60	85	NoGap	1	46	4	3	1	target	1	613	13.328	13.327	13.330
ProbeTrack7	1	ProbeTrack	1404	SCS215g	733709.358603	733709.363596	8	0.013328	60	0	60-180	60	159	NoGap	1	47	4	0	1	target	1	560	13.328	13.318	13.339
ProbeTrack7	1	ProbeTrack	1404	SCS215g	733709.358603	733709.363661	8	0.013328	60	0	60-180	60	70	NoGap	1	48	4	6	1	distractor	0	747	13.328	13.327	13.330
ProbeTrack7	1	ProbeTrack	1404	SCS215g	733709.358603	733709.363720	8	0.013328	60	0	60-180	60	73	NoGap	1	49	4	3	0	distractor	1	773	13.328	13.323	13.334
ProbeTrack7	1	ProbeTrack	1404	SCS215g	733709.358603	733709.363815	8	0.013328	60	0	60-180	60	81	NoGap	1	50	4	6	0	distractor	1	520	13.328	13.326	13.330
ProbeTrack7	1	ProbeTrack	1404	SCS215g	733709.364461	733709.364542	8	0.013328	60	10	60-180	60	166	GapPrac	1	1	3	3	0	distractor	1	747	13.328	13.324	13.332
ProbeTrack7	1	ProbeTrack	1404	SCS215g	733709.364461	733709.364635	8	0.013328	60	10	60-180	60	148	GapPrac	1	2	3	6	1	distractor	0	667	13.328	13.305	13.351
ProbeTrack7	1	ProbeTrack	1404	SCS215g	733709.364461	733709.364744	8	0.013328	60	10	60-180	60	66	GapPrac	1	3	3	0	0	distractor	1	827	13.328	13.327	13.330
ProbeTrack7	1	ProbeTrack	1404	SCS215g	733709.364461	733709.364811	8	0.013328	60	10	60-180	60	128	GapPrac	1	4	3	3	1	distractor	0	494	13.328	13.325	13.332
ProbeTrack7	1	ProbeTrack	1404	SCS215g	733709.364461	733709.364886	8	0.013328	60	10	60-180	60	94	GapPrac	1	5	3	96	0	distractor	1	813	13.328	13.322	13.333
ProbeTrack7	1	ProbeTrack	1404	SCS215g	733709.364461	733709.364986	8	0.013328	60	10	60-180	60	82	GapPrac	1	6	3	3	1	target	1	587	13.328	13.326	13.330
ProbeTrack7	1	ProbeTrack	1404	SCS215g	733709.364461	733709.365120	8	0.013328	60	10	60-180	60	68	GapPrac	1	7	3	3	0	distractor	1	640	13.328	13.325	13.332
ProbeTrack7	1	ProbeTrack	1404	SCS215g	733709.364461	733709.365209	8	0.013328	60	10	60-180	60	118	GapPrac	1	8	3	3	1	target	1	627	13.328	13.327	13.330
ProbeTrack7	1	ProbeTrack	1404	SCS215g	733709.364461	733709.365301	8	0.013328	60	10	60-180	60	134	GapPrac	1	9	3	96	0	distractor	1	587	13.328	13.325	13.331
ProbeTrack7	1	ProbeTrack	1404	SCS215g	733709.364461	733709.365405	8	0.013328	60	10	60-180	60	119	GapPrac	1	10	3	96	1	target	1	507	13.328	13.323	13.334
ProbeTrack7	1	ProbeTrack	1404	SCS215g	733709.364461	733709.365505	8	0.013328	60	10	60-180	60	158	GapPrac	1	11	3	6	1	target	1	587	13.328	13.323	13.333
ProbeTrack7	1	ProbeTrack	1404	SCS215g	733709.364461	733709.365579	8	0.013328	60	10	60-180	60	128	GapPrac	1	12	3	96	1	target	1	573	13.328	13.320	13.338
ProbeTrack7	1	ProbeTrack	1404	SCS215g	733709.364461	733709.365671	8	0.013328	60	10	60-180	60	158	GapPrac	1	13	3	0	1	target	1	547	13.328	13.324	13.333
ProbeTrack7	1	ProbeTrack	1404	SCS215g	733709.364461	733709.365750	8	0.013328	60	10	60-180	60	81	GapPrac	1	14	3	3	0	distractor	1	560	13.328	13.324	13.333
ProbeTrack7	1	ProbeTrack	1404	SCS215g	733709.364461	733709.365810	8	0.013328	60	10	60-180	60	85	GapPrac	1	15	3	0	0	target	0	613	13.328	13.325	13.334
ProbeTrack7	1	ProbeTrack	1404	SCS215g	733709.364461	733709.365872	8	0.013328	60	10	60-180	60	91	GapPrac	1	16	3	6	0	distractor	1	507	13.328	13.326	13.331
ProbeTrack7	1	ProbeTrack	1404	SCS215g	733709.364461	733709.365944	8	0.013328	60	10	60-180	60	83	GapPrac	1	17	3	6	0	target	0	827	13.328	13.324	13.334
ProbeTrack7	1	ProbeTrack	1404	SCS215g	733709.364461	733709.366024	8	0.013328	60	10	60-180	60	163	GapPrac	1	18	3	6	1	target	1	667	13.328	13.324	13.331
ProbeTrack7	1	ProbeTrack	1404	SCS215g	733709.364461	733709.366095	8	0.013328	60	10	60-180	60	63	GapPrac	1	19	3	0	1	target	1	640	13.328	13.326	13.330
ProbeTrack7	1	ProbeTrack	1404	SCS215g	733709.364461	733709.366154	8	0.013328	60	10	60-180	60	112	GapPrac	1	20	3	0	0	distractor	1	760	13.328	13.325	13.333
ProbeTrack7	1	ProbeTrack	1404	SCS215g	733709.376247	733709.376370	8	0.013328	60	10	60-180	60	180	GapExp	1	1	3	96	1	target	1	640	13.328	13.319	13.336
ProbeTrack7	1	ProbeTrack	1404	SCS215g	733709.376247	733709.376477	8	0.013328	60	10	60-180	60	76	GapExp	1	2	3	3	1	target	1	800	13.328	13.323	13.332
ProbeTrack7	1	ProbeTrack	1404	SCS215g	733709.376247	733709.376552	8	0.013328	60	10	60-180	60	164	GapExp	1	3	3	3	0	distractor	1	760	13.328	13.132	13.525
ProbeTrack7	1	ProbeTrack	1404	SCS215g	733709.376247	733709.376633	8	0.013328	60	10	60-180	60	140	GapExp	1	4	3	0	1	target	1	560	13.328	13.326	13.330
ProbeTrack7	1	ProbeTrack	1404	SCS215g	733709.376247	733709.376709	8	0.013328	60	10	60-180	60	115	GapExp	1	5	3	0	0	distractor	1	587	13.328	13.327	13.330
ProbeTrack7	1	ProbeTrack	1404	SCS215g	733709.376247	733709.376771	8	0.013328	60	10	60-180	60	110	GapExp	0	6	3	96	1	target	1	387	13.328	13.324	13.332
ProbeTrack7	1	ProbeTrack	1404	SCS215g	733709.376247	733709.376846	8	0.013328	60	10	60-180	60	171	GapExp	0	7	3	6	0	distractor	1	507	13.328	13.324	13.332
ProbeTrack7	1	ProbeTrack	1404	SCS215g	733709.376247	733709.376918	8	0.013328	60	10	60-180	60	118	GapExp	0	8	3	0	0	distractor	1	613	13.328	13.327	13.330
ProbeTrack7	1	ProbeTrack	1404	SCS215g	733709.376247	733709.376988	8	0.013328	60	10	60-180	60	101	GapExp	0	9	3	0	0	distractor	1	653	13.328	13.323	13.332
ProbeTrack7	1	ProbeTrack	1404	SCS215g	733709.376247	733709.377053	8	0.013328	60	10	60-180	60	87	GapExp	0	10	3	0	0	distractor	1	653	13.328	13.324	13.333
ProbeTrack7	1	ProbeTrack	1404	SCS215g	733709.376247	733709.377113	8	0.013328	60	10	60-180	60	129	GapExp	0	11	3	6	0	distractor	1	573	13.328	13.324	13.332
ProbeTrack7	1	ProbeTrack	1404	SCS215g	733709.376247	733709.377186	8	0.013328	60	10	60-180	60	123	GapExp	0	12	3	0	0	target	0	840	13.328	13.323	13.332
ProbeTrack7	1	ProbeTrack	1404	SCS215g	733709.376247	733709.377256	8	0.013328	60	10	60-180	60	78	GapExp	0	13	3	6	1	distractor	0	693	13.328	13.327	13.330
ProbeTrack7	1	ProbeTrack	1404	SCS215g	733709.376247	733709.377314	8	0.013328	60	10	60-180	60	76	GapExp	0	14	3	96	1	target	1	653	13.328	13.324	13.332
ProbeTrack7	1	ProbeTrack	1404	SCS215g	733709.376247	733709.377386	8	0.013328	60	10	60-180	60	131	GapExp	0	15	3	0	0	distractor	1	680	13.328	13.326	13.330
ProbeTrack7	1	ProbeTrack	1404	SCS215g	733709.376247	733709.377452	8	0.013328	60	10	60-180	60	122	GapExp	0	16	3	3	1	distractor	0	733	13.328	13.305	13.351
ProbeTrack7	1	ProbeTrack	1404	SCS215g	733709.376247	733709.377521	8	0.013328	60	10	60-180	60	157	GapExp	0	17	3	0	1	target	1	733	13.328	13.326	13.330
ProbeTrack7	1	ProbeTrack	1404	SCS215g	733709.376247	733709.377607	8	0.013328	60	10	60-180	60	168	GapExp	0	18	3	3	1	target	1	547	13.328	13.322	13.333
ProbeTrack7	1	ProbeTrack	1404	SCS215g	733709.376247	733709.377687	8	0.013328	60	10	60-180	60	87	GapExp	0	19	3	3	0	distractor	1	667	13.328	13.325	13.332
ProbeTrack7	1	ProbeTrack	1404	SCS215g	733709.376247	733709.377746	8	0.013328	60	10	60-180	60	167	GapExp	0	20	3	0	0	distractor	1	720	13.328	13.308	13.348
ProbeTrack7	1	ProbeTrack	1404	SCS215g	733709.376247	733709.377822	8	0.013328	60	10	60-180	60	158	GapExp	0	21	3	6	0	target	0	987	13.328	13.323	13.333
ProbeTrack7	1	ProbeTrack	1404	SCS215g	733709.376247	733709.377897	8	0.013328	60	10	60-180	60	112	GapExp	0	22	3	6	0	distractor	1	933	13.328	13.325	13.331
ProbeTrack7	1	ProbeTrack	1404	SCS215g	733709.376247	733709.377962	8	0.013328	60	10	60-180	60	76	GapExp	0	23	3	0	1	target	1	520	13.328	13.324	13.333
ProbeTrack7	1	ProbeTrack	1404	SCS215g	733709.376247	733709.378039	8	0.013328	60	10	60-180	60	131	GapExp	0	24	3	96	0	target	0	560	13.328	13.323	13.332
ProbeTrack7	1	ProbeTrack	1404	SCS215g	733709.376247	733709.378124	8	0.013328	60	10	60-180	60	96	GapExp	0	25	3	3	0	distractor	1	693	13.328	13.326	13.331
ProbeTrack7	1	ProbeTrack	1404	SCS215g	733709.376247	733709.378250	8	0.013328	60	10	60-180	60	157	GapExp	0	26	3	0	0	distractor	1	893	13.328	13.321	13.334
ProbeTrack7	1	ProbeTrack	1404	SCS215g	733709.376247	733709.378321	8	0.013328	60	10	60-180	60	137	GapExp	0	27	3	6	1	target	1	787	13.328	13.325	13.331
ProbeTrack7	1	ProbeTrack	1404	SCS215g	733709.376247	733709.378391	8	0.013328	60	10	60-180	60	177	GapExp	0	28	3	96	1	target	1	667	13.328	13.325	13.332
ProbeTrack7	1	ProbeTrack	1404	SCS215g	733709.376247	733709.378482	8	0.013328	60	10	60-180	60	123	GapExp	0	29	3	0	1	target	1	920	13.328	13.322	13.333
ProbeTrack7	1	ProbeTrack	1404	SCS215g	733709.376247	733709.378554	8	0.013328	60	10	60-180	60	145	GapExp	0	30	3	96	1	target	1	414	13.328	13.324	13.332
ProbeTrack7	1	ProbeTrack	1404	SCS215g	733709.376247	733709.378634	8	0.013328	60	10	60-180	60	83	GapExp	0	31	3	96	0	distractor	1	507	13.328	13.324	13.333
ProbeTrack7	1	ProbeTrack	1404	SCS215g	733709.376247	733709.378710	8	0.013328	60	10	60-180	60	99	GapExp	0	32	3	3	0	distractor	1	667	13.328	13.325	13.331
ProbeTrack7	1	ProbeTrack	1404	SCS215g	733709.376247	733709.378772	8	0.013328	60	10	60-180	60	122	GapExp	0	33	3	0	1	target	1	667	13.328	13.324	13.332
ProbeTrack7	1	ProbeTrack	1404	SCS215g	733709.376247	733709.378839	8	0.013328	60	10	60-180	60	85	GapExp	0	34	3	96	1	target	1	493	13.328	13.324	13.332
ProbeTrack7	1	ProbeTrack	1404	SCS215g	733709.376247	733709.378908	8	0.013328	60	10	60-180	60	149	GapExp	0	35	3	96	1	distractor	0	587	13.328	13.325	13.331
ProbeTrack7	1	ProbeTrack	1404	SCS215g	733709.376247	733709.378985	8	0.013328	60	10	60-180	60	75	GapExp	0	36	3	3	0	target	0	800	13.328	13.323	13.332
ProbeTrack7	1	ProbeTrack	1404	SCS215g	733709.376247	733709.379081	8	0.013328	60	10	60-180	60	68	GapExp	0	37	3	0	0	distractor	1	760	13.328	13.326	13.331
ProbeTrack7	1	ProbeTrack	1404	SCS215g	733709.376247	733709.379194	8	0.013328	60	10	60-180	60	96	GapExp	0	38	3	0	1	target	1	680	13.328	13.324	13.332
ProbeTrack7	1	ProbeTrack	1404	SCS215g	733709.376247	733709.379268	8	0.013328	60	10	60-180	60	136	GapExp	0	39	3	6	1	target	1	400	13.328	13.324	13.332
ProbeTrack7	1	ProbeTrack	1404	SCS215g	733709.376247	733709.379343	8	0.013328	60	10	60-180	60	78	GapExp	0	40	3	6	1	target	1	360	13.328	13.323	13.332
ProbeTrack7	1	ProbeTrack	1404	SCS215g	733709.376247	733709.379400	8	0.013328	60	10	60-180	60	165	GapExp	0	41	3	6	1	target	1	427	13.328	13.323	13.334
ProbeTrack7	1	ProbeTrack	1404	SCS215g	733709.376247	733709.379472	8	0.013328	60	10	60-180	60	128	GapExp	0	42	3	6	0	distractor	1	467	13.328	13.325	13.331
ProbeTrack7	1	ProbeTrack	1404	SCS215g	733709.376247	733709.379541	8	0.013328	60	10	60-180	60	169	GapExp	0	43	3	6	1	target	1	360	13.328	13.325	13.332
ProbeTrack7	1	ProbeTrack	1404	SCS215g	733709.376247	733709.379621	8	0.013328	60	10	60-180	60	79	GapExp	0	44	3	6	1	target	1	600	13.328	13.327	13.330
ProbeTrack7	1	ProbeTrack	1404	SCS215g	733709.376247	733709.379685	8	0.013328	60	10	60-180	60	100	GapExp	0	45	3	96	1	target	1	507	13.328	13.326	13.331
ProbeTrack7	1	ProbeTrack	1404	SCS215g	733709.376247	733709.379763	8	0.013328	60	10	60-180	60	101	GapExp	0	46	3	0	0	target	0	787	13.328	13.323	13.334
ProbeTrack7	1	ProbeTrack	1404	SCS215g	733709.376247	733709.379844	8	0.013328	60	10	60-180	60	105	GapExp	0	47	3	0	1	target	1	613	13.328	13.323	13.333
ProbeTrack7	1	ProbeTrack	1404	SCS215g	733709.376247	733709.379915	8	0.013328	60	10	60-180	60	61	GapExp	0	48	3	96	0	distractor	1	680	13.328	13.325	13.332
ProbeTrack7	1	ProbeTrack	1404	SCS215g	733709.376247	733709.379990	8	0.013328	60	10	60-180	60	152	GapExp	0	49	3	6	0	target	0	560	13.328	13.324	13.332
ProbeTrack7	1	ProbeTrack	1404	SCS215g	733709.376247	733709.380065	8	0.013328	60	10	60-180	60	124	GapExp	0	50	3	3	0	distractor	1	760	13.328	13.323	13.332
ProbeTrack7	1	ProbeTrack	1404	SCS215g	733709.376247	733709.380129	8	0.013328	60	10	60-180	60	105	GapExp	0	51	3	0	0	distractor	1	707	13.328	13.326	13.330
ProbeTrack7	1	ProbeTrack	1404	SCS215g	733709.376247	733709.380193	8	0.013328	60	10	60-180	60	63	GapExp	0	52	3	96	1	target	1	520	13.328	13.324	13.332
ProbeTrack7	1	ProbeTrack	1404	SCS215g	733709.376247	733709.380275	8	0.013328	60	10	60-180	60	169	GapExp	0	53	3	6	0	distractor	1	627	13.328	13.324	13.333
ProbeTrack7	1	ProbeTrack	1404	SCS215g	733709.376247	733709.380365	8	0.013328	60	10	60-180	60	151	GapExp	0	54	3	6	1	target	1	733	13.328	13.324	13.332
ProbeTrack7	1	ProbeTrack	1404	SCS215g	733709.376247	733709.380442	8	0.013328	60	10	60-180	60	111	GapExp	0	55	3	0	0	distractor	1	667	13.328	13.325	13.332
ProbeTrack7	1	ProbeTrack	1404	SCS215g	733709.376247	733709.380513	8	0.013328	60	10	60-180	60	129	GapExp	0	56	3	96	0	distractor	1	720	13.328	13.323	13.334
ProbeTrack7	1	ProbeTrack	1404	SCS215g	733709.376247	733709.380622	8	0.013328	60	10	60-180	60	119	GapExp	0	57	3	6	0	distractor	1	667	13.328	13.324	13.333
ProbeTrack7	1	ProbeTrack	1404	SCS215g	733709.376247	733709.380691	8	0.013328	60	10	60-180	60	149	GapExp	0	58	3	96	1	target	1	547	13.328	13.324	13.332
ProbeTrack7	1	ProbeTrack	1404	SCS215g	733709.376247	733709.380772	8	0.013328	60	10	60-180	60	75	GapExp	0	59	3	3	0	distractor	1	733	13.328	13.323	13.334
ProbeTrack7	1	ProbeTrack	1404	SCS215g	733709.376247	733709.380834	8	0.013328	60	10	60-180	60	141	GapExp	0	60	3	96	1	distractor	0	640	13.328	13.324	13.333
ProbeTrack7	1	ProbeTrack	1404	SCS215g	733709.376247	733709.380927	8	0.013328	60	10	60-180	60	121	GapExp	0	61	3	6	0	distractor	1	587	13.328	13.327	13.330
ProbeTrack7	1	ProbeTrack	1404	SCS215g	733709.376247	733709.381004	8	0.013328	60	10	60-180	60	153	GapExp	0	62	3	0	1	target	1	720	13.328	13.323	13.334
ProbeTrack7	1	ProbeTrack	1404	SCS215g	733709.376247	733709.381136	8	0.013328	60	10	60-180	60	161	GapExp	0	63	3	3	0	distractor	1	733	13.328	13.321	13.336
ProbeTrack7	1	ProbeTrack	1404	SCS215g	733709.376247	733709.381211	8	0.013328	60	10	60-180	60	160	GapExp	0	64	3	96	0	distractor	1	747	13.328	13.323	13.334
ProbeTrack7	1	ProbeTrack	1404	SCS215g	733709.376247	733709.381298	8	0.013328	60	10	60-180	60	85	GapExp	0	65	3	3	0	distractor	1	653	13.328	13.326	13.330
ProbeTrack7	1	ProbeTrack	1404	SCS215g	733709.376247	733709.381356	8	0.013328	60	10	60-180	60	150	GapExp	0	66	3	3	1	target	1	707	13.328	13.317	13.338
ProbeTrack7	1	ProbeTrack	1404	SCS215g	733709.376247	733709.381425	8	0.013328	60	10	60-180	60	160	GapExp	0	67	3	3	1	target	1	747	13.328	13.324	13.332
ProbeTrack7	1	ProbeTrack	1404	SCS215g	733709.376247	733709.381511	8	0.013328	60	10	60-180	60	73	GapExp	0	68	3	0	1	target	1	653	13.328	13.324	13.333
ProbeTrack7	1	ProbeTrack	1404	SCS215g	733709.376247	733709.381579	8	0.013328	60	10	60-180	60	89	GapExp	0	69	3	3	1	target	1	454	13.328	13.324	13.332
ProbeTrack7	1	ProbeTrack	1404	SCS215g	733709.376247	733709.381661	8	0.013328	60	10	60-180	60	104	GapExp	0	70	3	0	0	distractor	1	627	13.328	13.323	13.333
ProbeTrack7	1	ProbeTrack	1404	SCS215g	733709.376247	733709.381725	8	0.013328	60	10	60-180	60	154	GapExp	0	71	3	6	1	target	1	600	13.328	13.322	13.334
ProbeTrack7	1	ProbeTrack	1404	SCS215g	733709.376247	733709.381822	8	0.013328	60	10	60-180	60	82	GapExp	0	72	3	96	1	distractor	0	507	13.328	13.325	13.330
ProbeTrack7	1	ProbeTrack	1404	SCS215g	733709.376247	733709.381897	8	0.013328	60	10	60-180	60	87	GapExp	0	73	3	3	0	distractor	1	680	13.328	13.318	13.340
ProbeTrack7	1	ProbeTrack	1404	SCS215g	733709.376247	733709.381989	8	0.013328	60	10	60-180	60	81	GapExp	0	74	3	6	1	target	1	614	13.328	13.324	13.334
ProbeTrack7	1	ProbeTrack	1404	SCS215g	733709.376247	733709.382055	8	0.013328	60	10	60-180	60	116	GapExp	0	75	3	0	1	target	1	494	13.328	13.323	13.333
ProbeTrack7	1	ProbeTrack	1404	SCS215g	733709.376247	733709.382118	8	0.013328	60	10	60-180	60	79	GapExp	0	76	3	0	1	target	1	454	13.328	13.323	13.333
ProbeTrack7	1	ProbeTrack	1404	SCS215g	733709.376247	733709.382188	8	0.013328	60	10	60-180	60	85	GapExp	0	77	3	96	1	target	1	440	13.328	13.323	13.333
ProbeTrack7	1	ProbeTrack	1404	SCS215g	733709.376247	733709.382289	8	0.013328	60	10	60-180	60	141	GapExp	0	78	3	0	1	target	1	547	13.328	13.323	13.332
ProbeTrack7	1	ProbeTrack	1404	SCS215g	733709.376247	733709.382380	8	0.013328	60	10	60-180	60	134	GapExp	0	79	3	96	0	distractor	1	640	13.328	13.323	13.334
ProbeTrack7	1	ProbeTrack	1404	SCS215g	733709.376247	733709.382468	8	0.013328	60	10	60-180	60	141	GapExp	0	80	3	3	0	distractor	1	720	13.328	13.324	13.333
ProbeTrack7	1	ProbeTrack	1404	SCS215g	733709.376247	733709.382540	8	0.013328	60	10	60-180	60	119	GapExp	0	81	3	6	0	distractor	1	600	13.328	13.324	13.333
ProbeTrack7	1	ProbeTrack	1404	SCS215g	733709.376247	733709.382609	8	0.013328	60	10	60-180	60	107	GapExp	0	82	3	6	0	distractor	1	800	13.328	13.327	13.333
ProbeTrack7	1	ProbeTrack	1404	SCS215g	733709.376247	733709.382711	8	0.013328	60	10	60-180	60	124	GapExp	0	83	3	3	1	distractor	0	787	13.328	13.324	13.331
ProbeTrack7	1	ProbeTrack	1404	SCS215g	733709.376247	733709.382778	8	0.013328	60	10	60-180	60	145	GapExp	0	84	3	0	1	target	1	867	13.328	13.327	13.330
ProbeTrack7	1	ProbeTrack	1404	SCS215g	733709.376247	733709.382853	8	0.013328	60	10	60-180	60	105	GapExp	0	85	3	96	1	target	1	547	13.328	13.324	13.332
ProbeTrack7	1	ProbeTrack	1404	SCS215g	733709.376247	733709.382951	8	0.013328	60	10	60-180	60	175	GapExp	0	86	3	6	0	distractor	1	667	13.328	13.323	13.334
ProbeTrack7	1	ProbeTrack	1404	SCS215g	733709.376247	733709.383026	8	0.013328	60	10	60-180	60	113	GapExp	0	87	3	3	1	target	1	560	13.328	13.323	13.333
ProbeTrack7	1	ProbeTrack	1404	SCS215g	733709.376247	733709.383138	8	0.013328	60	10	60-180	60	100	GapExp	0	88	3	0	0	distractor	1	760	13.328	13.324	13.332
ProbeTrack7	1	ProbeTrack	1404	SCS215g	733709.376247	733709.383217	8	0.013328	60	10	60-180	60	142	GapExp	0	89	3	96	0	distractor	1	533	13.328	13.324	13.333
ProbeTrack7	1	ProbeTrack	1404	SCS215g	733709.376247	733709.383307	8	0.013328	60	10	60-180	60	88	GapExp	0	90	3	96	0	distractor	1	533	13.328	13.325	13.332
ProbeTrack7	1	ProbeTrack	1404	SCS215g	733709.376247	733709.383398	8	0.013328	60	10	60-180	60	102	GapExp	0	91	3	96	0	distractor	1	560	13.328	13.323	13.332
ProbeTrack7	1	ProbeTrack	1404	SCS215g	733709.376247	733709.383486	8	0.013328	60	10	60-180	60	166	GapExp	0	92	3	0	1	target	1	640	13.328	13.323	13.335
ProbeTrack7	1	ProbeTrack	1404	SCS215g	733709.376247	733709.383571	8	0.013328	60	10	60-180	60	166	GapExp	0	93	3	3	1	target	1	574	13.328	13.322	13.333
ProbeTrack7	1	ProbeTrack	1404	SCS215g	733709.376247	733709.383645	8	0.013328	60	10	60-180	60	72	GapExp	0	94	3	96	0	distractor	1	627	13.328	13.324	13.333
ProbeTrack7	1	ProbeTrack	1404	SCS215g	733709.376247	733709.383717	8	0.013328	60	10	60-180	60	100	GapExp	0	95	3	6	1	target	1	587	13.328	13.324	13.332
ProbeTrack7	1	ProbeTrack	1404	SCS215g	733709.376247	733709.383785	8	0.013328	60	10	60-180	60	161	GapExp	0	96	3	6	0	distractor	1	613	13.328	13.324	13.332
ProbeTrack7	1	ProbeTrack	1404	SCS215g	733709.376247	733709.383860	8	0.013328	60	10	60-180	60	133	GapExp	0	97	3	3	1	target	1	494	13.328	13.324	13.332
ProbeTrack7	1	ProbeTrack	1404	SCS215g	733709.376247	733709.383929	8	0.013328	60	10	60-180	60	122	GapExp	0	98	3	3	0	distractor	1	547	13.328	13.323	13.333
ProbeTrack7	1	ProbeTrack	1404	SCS215g	733709.376247	733709.384003	8	0.013328	60	10	60-180	60	143	GapExp	0	99	3	3	1	target	1	440	13.328	13.324	13.332
ProbeTrack7	1	ProbeTrack	1404	SCS215g	733709.376247	733709.384072	8	0.013328	60	10	60-180	60	144	GapExp	0	100	3	3	1	target	1	427	13.328	13.322	13.335
ProbeTrack7	1	ProbeTrack	1404	SCS215g	733709.376247	733709.384147	8	0.013328	60	10	60-180	60	65	GapExp	0	101	3	0	0	target	0	760	13.328	13.326	13.330
ProbeTrack7	1	ProbeTrack	1404	SCS215g	733709.376247	733709.384218	8	0.013328	60	10	60-180	60	149	GapExp	0	102	3	3	1	target	1	600	13.328	13.324	13.331
ProbeTrack7	1	ProbeTrack	1404	SCS215g	733709.376247	733709.384289	8	0.013328	60	10	60-180	60	82	GapExp	0	103	3	3	0	distractor	1	773	13.328	13.325	13.332
ProbeTrack7	1	ProbeTrack	1404	SCS215g	733709.376247	733709.384359	8	0.013328	60	10	60-180	60	158	GapExp	0	104	3	6	1	target	1	707	13.328	13.325	13.333
ProbeTrack7	1	ProbeTrack	1404	SCS215g	733709.376247	733709.384438	8	0.013328	60	10	60-180	60	125	GapExp	0	105	3	96	0	distractor	1	693	13.328	13.321	13.334
ProbeTrack7	1	ProbeTrack	1404	SCS215g	733709.376247	733709.384546	8	0.013328	60	10	60-180	60	92	GapExp	0	106	3	3	0	distractor	1	707	13.328	13.327	13.330
ProbeTrack7	1	ProbeTrack	1404	SCS215g	733709.376247	733709.384611	8	0.013328	60	10	60-180	60	148	GapExp	0	107	3	6	0	distractor	1	733	13.328	13.323	13.332
ProbeTrack7	1	ProbeTrack	1404	SCS215g	733709.376247	733709.384685	8	0.013328	60	10	60-180	60	128	GapExp	0	108	3	6	1	target	1	547	13.328	13.324	13.333
ProbeTrack7	1	ProbeTrack	1404	SCS215g	733709.376247	733709.384761	8	0.013328	60	10	60-180	60	143	GapExp	0	109	3	96	1	target	1	653	13.328	13.323	13.334
ProbeTrack7	1	ProbeTrack	1404	SCS215g	733709.376247	733709.384861	8	0.013328	60	10	60-180	60	170	GapExp	0	110	3	0	0	target	0	907	13.328	13.324	13.332
ProbeTrack7	1	ProbeTrack	1404	SCS215g	733709.376247	733709.384942	8	0.013328	60	10	60-180	60	174	GapExp	0	111	3	96	0	distractor	1	587	13.328	13.314	13.343
ProbeTrack7	1	ProbeTrack	1404	SCS215g	733709.376247	733709.385044	8	0.013328	60	10	60-180	60	158	GapExp	0	112	3	96	1	target	1	454	13.328	13.325	13.331
ProbeTrack7	1	ProbeTrack	1404	SCS215g	733709.376247	733709.385131	8	0.013328	60	10	60-180	60	91	GapExp	0	113	3	96	0	distractor	1	720	13.328	13.324	13.331
ProbeTrack7	1	ProbeTrack	1404	SCS215g	733709.376247	733709.385233	8	0.013328	60	10	60-180	60	61	GapExp	0	114	3	3	1	target	1	507	13.328	13.326	13.330
ProbeTrack7	1	ProbeTrack	1404	SCS215g	733709.376247	733709.385320	8	0.013328	60	10	60-180	60	138	GapExp	0	115	3	6	0	distractor	1	707	13.328	13.327	13.331
ProbeTrack7	1	ProbeTrack	1404	SCS215g	733709.376247	733709.385394	8	0.013328	60	10	60-180	60	117	GapExp	0	116	3	3	0	distractor	1	733	13.328	13.325	13.331
ProbeTrack7	1	ProbeTrack	1404	SCS215g	733709.376247	733709.385465	8	0.013328	60	10	60-180	60	80	GapExp	0	117	3	0	1	distractor	0	667	13.328	13.324	13.332
ProbeTrack7	1	ProbeTrack	1404	SCS215g	733709.376247	733709.385536	8	0.013328	60	10	60-180	60	75	GapExp	0	118	3	0	1	target	1	827	13.328	13.324	13.332
ProbeTrack7	1	ProbeTrack	1404	SCS215g	733709.376247	733709.385595	8	0.013328	60	10	60-180	60	150	GapExp	0	119	3	3	1	target	1	627	13.328	13.320	13.336
ProbeTrack7	1	ProbeTrack	1404	SCS215g	733709.376247	733709.385675	8	0.013328	60	10	60-180	60	64	GapExp	0	120	3	3	1	target	1	587	13.328	13.326	13.331
ProbeTrack7	1	ProbeTrack	1404	SCS215g	733709.376247	733709.385733	8	0.013328	60	10	60-180	60	174	GapExp	0	121	3	6	1	target	1	720	13.328	13.323	13.332
ProbeTrack7	1	ProbeTrack	1404	SCS215g	733709.376247	733709.385818	8	0.013328	60	10	60-180	60	142	GapExp	0	122	3	3	0	distractor	1	907	13.328	13.323	13.333
ProbeTrack7	1	ProbeTrack	1404	SCS215g	733709.376247	733709.385895	8	0.013328	60	10	60-180	60	89	GapExp	0	123	3	96	0	distractor	1	613	13.328	13.313	13.343
ProbeTrack7	1	ProbeTrack	1404	SCS215g	733709.376247	733709.385984	8	0.013328	60	10	60-180	60	141	GapExp	0	124	3	96	0	distractor	1	600	13.328	13.325	13.332
ProbeTrack7	1	ProbeTrack	1404	SCS215g	733709.376247	733709.386107	8	0.013328	60	10	60-180	60	138	GapExp	0	125	3	6	1	target	1	600	13.328	13.327	13.330
ProbeTrack7	1	ProbeTrack	1404	SCS215g	733709.388998	733709.389117	8	0.013328	60	10	60-180	60	65	GapPrac	1	1	4	96	0	distractor	1	413	13.328	13.326	13.331
ProbeTrack7	1	ProbeTrack	1404	SCS215g	733709.388998	733709.389203	8	0.013328	60	10	60-180	60	98	GapPrac	1	2	4	6	1	target	1	640	13.328	13.326	13.330
ProbeTrack7	1	ProbeTrack	1404	SCS215g	733709.388998	733709.389293	8	0.013328	60	10	60-180	60	118	GapPrac	1	3	4	3	1	target	1	533	13.328	13.325	13.332
ProbeTrack7	1	ProbeTrack	1404	SCS215g	733709.388998	733709.389367	8	0.013328	60	10	60-180	60	128	GapPrac	1	4	4	96	1	distractor	0	707	13.328	13.324	13.332
ProbeTrack7	1	ProbeTrack	1404	SCS215g	733709.388998	733709.389459	8	0.013328	60	10	60-180	60	102	GapPrac	1	5	4	96	1	target	1	454	13.328	13.322	13.333
ProbeTrack7	1	ProbeTrack	1404	SCS215g	733709.388998	733709.389546	8	0.013328	60	10	60-180	60	72	GapPrac	1	6	4	6	1	distractor	0	600	13.328	13.326	13.330
ProbeTrack7	1	ProbeTrack	1404	SCS215g	733709.388998	733709.389626	8	0.013328	60	10	60-180	60	143	GapPrac	1	7	4	96	0	distractor	1	693	13.328	13.324	13.332
ProbeTrack7	1	ProbeTrack	1404	SCS215g	733709.388998	733709.389738	8	0.013328	60	10	60-180	60	140	GapPrac	1	8	4	6	0	distractor	1	573	13.328	13.323	13.334
ProbeTrack7	1	ProbeTrack	1404	SCS215g	733709.388998	733709.389842	8	0.013328	60	10	60-180	60	134	GapPrac	1	9	4	3	0	distractor	1	653	13.328	13.324	13.332
ProbeTrack7	1	ProbeTrack	1404	SCS215g	733709.388998	733709.389936	8	0.013328	60	10	60-180	60	86	GapPrac	1	10	4	96	0	distractor	1	747	13.328	13.324	13.332
ProbeTrack7	1	ProbeTrack	1404	SCS215g	733709.388998	733709.390035	8	0.013328	60	10	60-180	60	98	GapPrac	1	11	4	0	0	distractor	1	747	13.328	13.326	13.330
ProbeTrack7	1	ProbeTrack	1404	SCS215g	733709.388998	733709.390138	8	0.013328	60	10	60-180	60	101	GapPrac	1	12	4	6	0	distractor	1	493	13.328	13.323	13.333
ProbeTrack7	1	ProbeTrack	1404	SCS215g	733709.388998	733709.390212	8	0.013328	60	10	60-180	60	63	GapPrac	1	13	4	0	0	distractor	1	707	13.328	13.326	13.331
ProbeTrack7	1	ProbeTrack	1404	SCS215g	733709.388998	733709.390281	8	0.013328	60	10	60-180	60	61	GapPrac	1	14	4	0	1	target	1	587	13.328	13.325	13.332
ProbeTrack7	1	ProbeTrack	1404	SCS215g	733709.388998	733709.390349	8	0.013328	60	10	60-180	60	180	GapPrac	1	15	4	3	0	distractor	1	653	13.328	13.317	13.339
ProbeTrack7	1	ProbeTrack	1404	SCS215g	733709.388998	733709.390425	8	0.013328	60	10	60-180	60	65	GapPrac	1	16	4	3	1	target	1	587	13.328	13.325	13.331
ProbeTrack7	1	ProbeTrack	1404	SCS215g	733709.388998	733709.390485	8	0.013328	60	10	60-180	60	69	GapPrac	1	17	4	6	1	distractor	0	640	13.328	13.327	13.330
ProbeTrack7	1	ProbeTrack	1404	SCS215g	733709.388998	733709.390547	8	0.013328	60	10	60-180	60	87	GapPrac	1	18	4	96	1	target	1	587	13.328	13.314	13.342
ProbeTrack7	1	ProbeTrack	1404	SCS215g	733709.388998	733709.390622	8	0.013328	60	10	60-180	60	121	GapPrac	1	19	4	0	1	target	1	560	13.328	13.324	13.334
ProbeTrack7	1	ProbeTrack	1404	SCS215g	733709.388998	733709.390692	8	0.013328	60	10	60-180	60	168	GapPrac	1	20	4	3	1	distractor	0	840	13.328	13.320	13.336
ProbeTrack7	1	ProbeTrack	1404	SCS215g	733709.391782	733709.391902	8	0.013328	60	10	60-180	60	90	GapExp	1	1	4	0	1	target	1	600	13.328	13.327	13.330
ProbeTrack7	1	ProbeTrack	1404	SCS215g	733709.391782	733709.391982	8	0.013328	60	10	60-180	60	63	GapExp	1	2	4	3	1	target	1	587	13.328	13.324	13.332
ProbeTrack7	1	ProbeTrack	1404	SCS215g	733709.391782	733709.392063	8	0.013328	60	10	60-180	60	155	GapExp	1	3	4	96	0	distractor	1	640	13.328	13.316	13.340
ProbeTrack7	1	ProbeTrack	1404	SCS215g	733709.391782	733709.392151	8	0.013328	60	10	60-180	60	178	GapExp	1	4	4	0	0	target	0	627	13.328	13.323	13.332
ProbeTrack7	1	ProbeTrack	1404	SCS215g	733709.391782	733709.392229	8	0.013328	60	10	60-180	60	105	GapExp	1	5	4	3	0	distractor	1	600	13.328	13.326	13.331
ProbeTrack7	1	ProbeTrack	1404	SCS215g	733709.391782	733709.392294	8	0.013328	60	10	60-180	60	65	GapExp	0	6	4	6	0	target	0	653	13.328	13.326	13.330
ProbeTrack7	1	ProbeTrack	1404	SCS215g	733709.391782	733709.392359	8	0.013328	60	10	60-180	60	138	GapExp	0	7	4	3	0	target	0	653	13.328	13.324	13.333
ProbeTrack7	1	ProbeTrack	1404	SCS215g	733709.391782	733709.392434	8	0.013328	60	10	60-180	60	132	GapExp	0	8	4	0	0	target	0	613	13.328	13.323	13.333
ProbeTrack7	1	ProbeTrack	1404	SCS215g	733709.391782	733709.392559	8	0.013328	60	10	60-180	60	173	GapExp	0	9	4	6	0	distractor	1	907	13.328	13.323	13.333
ProbeTrack7	1	ProbeTrack	1404	SCS215g	733709.391782	733709.392700	8	0.013328	60	10	60-180	60	98	GapExp	0	10	4	3	1	target	1	760	13.328	13.323	13.332
ProbeTrack7	1	ProbeTrack	1404	SCS215g	733709.391782	733709.392828	8	0.013328	60	10	60-180	60	141	GapExp	0	11	4	96	1	target	1	787	13.328	13.324	13.334
ProbeTrack7	1	ProbeTrack	1404	SCS215g	733709.391782	733709.392926	8	0.013328	60	10	60-180	60	105	GapExp	0	12	4	96	1	target	1	893	13.328	13.320	13.336
ProbeTrack7	1	ProbeTrack	1404	SCS215g	733709.391782	733709.393047	8	0.013328	60	10	60-180	60	166	GapExp	0	13	4	6	0	target	0	627	13.328	13.324	13.333
ProbeTrack7	1	ProbeTrack	1404	SCS215g	733709.391782	733709.393143	8	0.013328	60	10	60-180	60	95	GapExp	0	14	4	3	0	distractor	1	680	13.328	13.325	13.332
ProbeTrack7	1	ProbeTrack	1404	SCS215g	733709.391782	733709.393217	8	0.013328	60	10	60-180	60	112	GapExp	0	15	4	0	1	target	1	667	13.328	13.323	13.332
ProbeTrack7	1	ProbeTrack	1404	SCS215g	733709.391782	733709.393306	8	0.013328	60	10	60-180	60	97	GapExp	0	16	4	3	1	target	1	587	13.328	13.324	13.332
ProbeTrack7	1	ProbeTrack	1404	SCS215g	733709.391782	733709.393389	8	0.013328	60	10	60-180	60	101	GapExp	0	17	4	6	0	target	0	733	13.328	13.326	13.330
ProbeTrack7	1	ProbeTrack	1404	SCS215g	733709.391782	733709.393477	8	0.013328	60	10	60-180	60	164	GapExp	0	18	4	6	0	target	0	520	13.328	13.325	13.331
ProbeTrack7	1	ProbeTrack	1404	SCS215g	733709.391782	733709.393553	8	0.013328	60	10	60-180	60	104	GapExp	0	19	4	96	0	target	0	587	13.328	13.324	13.332
ProbeTrack7	1	ProbeTrack	1404	SCS215g	733709.391782	733709.393630	8	0.013328	60	10	60-180	60	103	GapExp	0	20	4	96	1	target	1	920	13.328	13.323	13.333
ProbeTrack7	1	ProbeTrack	1404	SCS215g	733709.391782	733709.393818	8	0.013328	60	10	60-180	60	67	GapExp	0	21	4	0	1	target	1	613	13.328	13.327	13.330
ProbeTrack7	1	ProbeTrack	1404	SCS215g	733709.391782	733709.393889	8	0.013328	60	10	60-180	60	97	GapExp	0	22	4	96	1	target	1	693	13.328	13.323	13.333
ProbeTrack7	1	ProbeTrack	1404	SCS215g	733709.391782	733709.394050	8	0.013328	60	10	60-180	60	123	GapExp	0	23	4	96	1	target	1	680	13.328	13.323	13.333
ProbeTrack7	1	ProbeTrack	1404	SCS215g	733709.391782	733709.394200	8	0.013328	60	10	60-180	60	78	GapExp	0	24	4	96	0	target	0	547	13.328	13.324	13.332
ProbeTrack7	1	ProbeTrack	1404	SCS215g	733709.391782	733709.394288	8	0.013328	60	10	60-180	60	84	GapExp	0	25	4	3	0	distractor	1	573	13.328	13.325	13.332
ProbeTrack7	1	ProbeTrack	1404	SCS215g	733709.391782	733709.394366	8	0.013328	60	10	60-180	60	140	GapExp	0	26	4	6	0	multi	-2	693	13.328	13.324	13.333
ProbeTrack7	1	ProbeTrack	1404	SCS215g	733709.391782	733709.394479	8	0.013328	60	10	60-180	60	107	GapExp	0	27	4	3	1	target	1	587	13.328	13.324	13.331
ProbeTrack7	1	ProbeTrack	1404	SCS215g	733709.391782	733709.394694	8	0.013328	60	10	60-180	60	64	GapExp	0	28	4	3	0	distractor	1	813	13.328	13.327	13.330
ProbeTrack7	1	ProbeTrack	1404	SCS215g	733709.391782	733709.394782	8	0.013328	60	10	60-180	60	87	GapExp	0	29	4	6	1	target	1	573	13.328	13.327	13.330
ProbeTrack7	1	ProbeTrack	1404	SCS215g	733709.391782	733709.394861	8	0.013328	60	10	60-180	60	172	GapExp	0	30	4	6	1	target	1	427	13.328	13.325	13.333
ProbeTrack7	1	ProbeTrack	1404	SCS215g	733709.391782	733709.395038	8	0.013328	60	10	60-180	60	119	GapExp	0	31	4	96	1	target	1	534	13.328	13.324	13.333
ProbeTrack7	1	ProbeTrack	1404	SCS215g	733709.391782	733709.395169	8	0.013328	60	10	60-180	60	85	GapExp	0	32	4	6	1	target	1	520	13.328	13.324	13.332
ProbeTrack7	1	ProbeTrack	1404	SCS215g	733709.391782	733709.395282	8	0.013328	60	10	60-180	60	102	GapExp	0	33	4	0	1	target	1	414	13.328	13.322	13.333
ProbeTrack7	1	ProbeTrack	1404	SCS215g	733709.391782	733709.395354	8	0.013328	60	10	60-180	60	66	GapExp	0	34	4	0	0	target	0	587	13.328	13.323	13.333
ProbeTrack7	1	ProbeTrack	1404	SCS215g	733709.391782	733709.395515	8	0.013328	60	10	60-180	60	107	GapExp	0	35	4	0	0	target	0	800	13.328	13.325	13.331
ProbeTrack7	1	ProbeTrack	1404	SCS215g	733709.391782	733709.395607	8	0.013328	60	10	60-180	60	74	GapExp	0	36	4	3	0	target	0	427	13.328	13.327	13.330
ProbeTrack7	1	ProbeTrack	1404	SCS215g	733709.391782	733709.395715	8	0.013328	60	10	60-180	60	125	GapExp	0	37	4	0	1	target	1	560	13.328	13.324	13.333
ProbeTrack7	1	ProbeTrack	1404	SCS215g	733709.391782	733709.395787	8	0.013328	60	10	60-180	60	92	GapExp	0	38	4	0	1	target	1	973	13.328	13.325	13.331
ProbeTrack7	1	ProbeTrack	1404	SCS215g	733709.391782	733709.395973	8	0.013328	60	10	60-180	60	79	GapExp	0	39	4	96	0	target	0	587	13.328	13.325	13.331
ProbeTrack7	1	ProbeTrack	1404	SCS215g	733709.391782	733709.396070	8	0.013328	60	10	60-180	60	79	GapExp	0	40	4	6	1	distractor	0	707	13.328	13.324	13.331
ProbeTrack7	1	ProbeTrack	1404	SCS215g	733709.391782	733709.396139	8	0.013328	60	10	60-180	60	137	GapExp	0	41	4	96	1	target	1	667	13.328	13.320	13.338
ProbeTrack7	1	ProbeTrack	1404	SCS215g	733709.391782	733709.396225	8	0.013328	60	10	60-180	60	177	GapExp	0	42	4	0	0	distractor	1	613	13.328	13.320	13.337
ProbeTrack7	1	ProbeTrack	1404	SCS215g	733709.391782	733709.396353	8	0.013328	60	10	60-180	60	113	GapExp	0	43	4	3	0	distractor	1	707	13.328	13.326	13.331
ProbeTrack7	1	ProbeTrack	1404	SCS215g	733709.391782	733709.396449	8	0.013328	60	10	60-180	60	91	GapExp	0	44	4	96	0	distractor	1	533	13.328	13.324	13.333
ProbeTrack7	1	ProbeTrack	1404	SCS215g	733709.391782	733709.396561	8	0.013328	60	10	60-180	60	128	GapExp	0	45	4	0	0	distractor	1	653	13.328	13.324	13.330
ProbeTrack7	1	ProbeTrack	1404	SCS215g	733709.391782	733709.396662	8	0.013328	60	10	60-180	60	105	GapExp	0	46	4	3	1	target	1	560	13.328	13.323	13.330
ProbeTrack7	1	ProbeTrack	1404	SCS215g	733709.391782	733709.396763	8	0.013328	60	10	60-180	60	74	GapExp	0	47	4	0	1	target	1	547	13.328	13.322	13.336
ProbeTrack7	1	ProbeTrack	1404	SCS215g	733709.391782	733709.396833	8	0.013328	60	10	60-180	60	153	GapExp	0	48	4	3	1	distractor	0	667	13.328	13.322	13.334
ProbeTrack7	1	ProbeTrack	1404	SCS215g	733709.391782	733709.396916	8	0.013328	60	10	60-180	60	135	GapExp	0	49	4	0	0	target	0	613	13.328	13.325	13.332
ProbeTrack7	1	ProbeTrack	1404	SCS215g	733709.391782	733709.396992	8	0.013328	60	10	60-180	60	162	GapExp	0	50	4	0	1	target	1	560	13.328	13.325	13.331
ProbeTrack7	1	ProbeTrack	1404	SCS215g	733709.391782	733709.397137	8	0.013328	60	10	60-180	60	83	GapExp	0	51	4	6	1	target	1	587	13.328	13.327	13.330
ProbeTrack7	1	ProbeTrack	1404	SCS215g	733709.391782	733709.397308	8	0.013328	60	10	60-180	60	178	GapExp	0	52	4	96	1	target	1	573	13.328	13.323	13.333
ProbeTrack7	1	ProbeTrack	1404	SCS215g	733709.391782	733709.397403	8	0.013328	60	10	60-180	60	110	GapExp	0	53	4	0	0	distractor	1	600	13.328	13.323	13.335
ProbeTrack7	1	ProbeTrack	1404	SCS215g	733709.391782	733709.397476	8	0.013328	60	10	60-180	60	99	GapExp	0	54	4	3	1	target	1	774	13.328	13.317	13.340
ProbeTrack7	1	ProbeTrack	1404	SCS215g	733709.391782	733709.397590	8	0.013328	60	10	60-180	60	81	GapExp	0	55	4	6	1	target	1	587	13.328	13.322	13.334
ProbeTrack7	1	ProbeTrack	1404	SCS215g	733709.391782	733709.397708	8	0.013328	60	10	60-180	60	117	GapExp	0	56	4	6	0	distractor	1	680	13.328	13.325	13.331
ProbeTrack7	1	ProbeTrack	1404	SCS215g	733709.391782	733709.397792	8	0.013328	60	10	60-180	60	126	GapExp	0	57	4	3	0	distractor	1	520	13.328	13.325	13.331
ProbeTrack7	1	ProbeTrack	1404	SCS215g	733709.391782	733709.397866	8	0.013328	60	10	60-180	60	104	GapExp	0	58	4	6	0	distractor	1	520	13.328	13.324	13.332
ProbeTrack7	1	ProbeTrack	1404	SCS215g	733709.391782	733709.397933	8	0.013328	60	10	60-180	60	123	GapExp	0	59	4	0	1	distractor	0	627	13.328	13.324	13.333
ProbeTrack7	1	ProbeTrack	1404	SCS215g	733709.391782	733709.398032	8	0.013328	60	10	60-180	60	90	GapExp	0	60	4	3	0	target	0	693	13.328	13.324	13.332
ProbeTrack7	1	ProbeTrack	1404	SCS215g	733709.391782	733709.398099	8	0.013328	60	10	60-180	60	174	GapExp	0	61	4	3	0	target	0	587	13.328	13.324	13.332
ProbeTrack7	1	ProbeTrack	1404	SCS215g	733709.391782	733709.398213	8	0.013328	60	10	60-180	60	93	GapExp	0	62	4	96	0	distractor	1	693	13.328	13.324	13.332
ProbeTrack7	1	ProbeTrack	1404	SCS215g	733709.391782	733709.398353	8	0.013328	60	10	60-180	60	92	GapExp	0	63	4	6	0	distractor	1	640	13.328	13.326	13.331
ProbeTrack7	1	ProbeTrack	1404	SCS215g	733709.391782	733709.398422	8	0.013328	60	10	60-180	60	111	GapExp	0	64	4	3	1	distractor	0	613	13.328	13.327	13.330
ProbeTrack7	1	ProbeTrack	1404	SCS215g	733709.391782	733709.398569	8	0.013328	60	10	60-180	60	161	GapExp	0	65	4	96	0	distractor	1	627	13.328	13.323	13.334
ProbeTrack7	1	ProbeTrack	1404	SCS215g	733709.391782	733709.398667	8	0.013328	60	10	60-180	60	168	GapExp	0	66	4	3	1	distractor	0	573	13.328	13.323	13.332
ProbeTrack7	1	ProbeTrack	1404	SCS215g	733709.391782	733709.398802	8	0.013328	60	10	60-180	60	164	GapExp	0	67	4	3	1	target	1	627	13.328	13.325	13.331
ProbeTrack7	1	ProbeTrack	1404	SCS215g	733709.391782	733709.398889	8	0.013328	60	10	60-180	60	66	GapExp	0	68	4	96	0	target	0	587	13.328	13.324	13.332
ProbeTrack7	1	ProbeTrack	1404	SCS215g	733709.391782	733709.398997	8	0.013328	60	10	60-180	60	176	GapExp	0	69	4	3	1	target	1	640	13.328	13.326	13.331
ProbeTrack7	1	ProbeTrack	1404	SCS215g	733709.391782	733709.399185	8	0.013328	60	10	60-180	60	120	GapExp	0	70	4	3	1	target	1	560	13.328	13.323	13.335
ProbeTrack7	1	ProbeTrack	1404	SCS215g	733709.391782	733709.399332	8	0.013328	60	10	60-180	60	93	GapExp	0	71	4	0	0	target	0	853	13.328	13.325	13.330
ProbeTrack7	1	ProbeTrack	1404	SCS215g	733709.391782	733709.399438	8	0.013328	60	10	60-180	60	172	GapExp	0	72	4	0	1	target	1	640	13.328	13.324	13.332
ProbeTrack7	1	ProbeTrack	1404	SCS215g	733709.391782	733709.399513	8	0.013328	60	10	60-180	60	159	GapExp	0	73	4	6	1	target	1	573	13.328	13.323	13.333
ProbeTrack7	1	ProbeTrack	1404	SCS215g	733709.391782	733709.399660	8	0.013328	60	10	60-180	60	140	GapExp	0	74	4	0	1	target	1	467	13.328	13.324	13.332
ProbeTrack7	1	ProbeTrack	1404	SCS215g	733709.391782	733709.399739	8	0.013328	60	10	60-180	60	74	GapExp	0	75	4	96	0	distractor	1	667	13.328	13.324	13.332
ProbeTrack7	1	ProbeTrack	1404	SCS215g	733709.391782	733709.399828	8	0.013328	60	10	60-180	60	103	GapExp	0	76	4	6	1	target	1	414	13.328	13.318	13.338
ProbeTrack7	1	ProbeTrack	1404	SCS215g	733709.391782	733709.399897	8	0.013328	60	10	60-180	60	98	GapExp	0	77	4	3	0	distractor	1	667	13.328	13.324	13.334
ProbeTrack7	1	ProbeTrack	1404	SCS215g	733709.391782	733709.399990	8	0.013328	60	10	60-180	60	177	GapExp	0	78	4	0	0	distractor	1	573	13.328	13.326	13.332
ProbeTrack7	1	ProbeTrack	1404	SCS215g	733709.391782	733709.400079	8	0.013328	60	10	60-180	60	105	GapExp	0	79	4	0	0	target	0	640	13.328	13.327	13.330
ProbeTrack7	1	ProbeTrack	1404	SCS215g	733709.391782	733709.400197	8	0.013328	60	10	60-180	60	111	GapExp	0	80	4	96	1	target	1	533	13.328	13.324	13.331
ProbeTrack7	1	ProbeTrack	1404	SCS215g	733709.391782	733709.400286	8	0.013328	60	10	60-180	60	82	GapExp	0	81	4	96	1	target	1	653	13.328	13.325	13.331
ProbeTrack7	1	ProbeTrack	1404	SCS215g	733709.391782	733709.400387	8	0.013328	60	10	60-180	60	67	GapExp	0	82	4	96	1	distractor	0	574	13.328	13.324	13.332
ProbeTrack7	1	ProbeTrack	1404	SCS215g	733709.391782	733709.400537	8	0.013328	60	10	60-180	60	71	GapExp	0	83	4	96	0	distractor	1	507	13.328	13.323	13.334
ProbeTrack7	1	ProbeTrack	1404	SCS215g	733709.391782	733709.400628	8	0.013328	60	10	60-180	60	91	GapExp	0	84	4	0	0	distractor	1	733	13.328	13.325	13.333
ProbeTrack7	1	ProbeTrack	1404	SCS215g	733709.391782	733709.400717	8	0.013328	60	10	60-180	60	169	GapExp	0	85	4	96	0	distractor	1	667	13.328	13.322	13.334
ProbeTrack7	1	ProbeTrack	1404	SCS215g	733709.391782	733709.400828	8	0.013328	60	10	60-180	60	69	GapExp	0	86	4	96	0	distractor	1	733	13.328	13.323	13.333
ProbeTrack7	1	ProbeTrack	1404	SCS215g	733709.391782	733709.400939	8	0.013328	60	10	60-180	60	111	GapExp	0	87	4	0	0	target	0	1027	13.328	13.325	13.331
ProbeTrack7	1	ProbeTrack	1404	SCS215g	733709.391782	733709.401019	8	0.013328	60	10	60-180	60	169	GapExp	0	88	4	0	0	distractor	1	760	13.328	13.325	13.331
ProbeTrack7	1	ProbeTrack	1404	SCS215g	733709.391782	733709.401146	8	0.013328	60	10	60-180	60	129	GapExp	0	89	4	6	0	distractor	1	693	13.328	13.313	13.342
ProbeTrack7	1	ProbeTrack	1404	SCS215g	733709.391782	733709.401296	8	0.013328	60	10	60-180	60	98	GapExp	0	90	4	96	1	target	1	600	13.328	13.323	13.333
ProbeTrack7	1	ProbeTrack	1404	SCS215g	733709.391782	733709.401417	8	0.013328	60	10	60-180	60	94	GapExp	0	91	4	96	0	distractor	1	440	13.328	13.324	13.333
ProbeTrack7	1	ProbeTrack	1404	SCS215g	733709.391782	733709.401518	8	0.013328	60	10	60-180	60	97	GapExp	0	92	4	96	0	distractor	1	547	13.328	13.321	13.335
ProbeTrack7	1	ProbeTrack	1404	SCS215g	733709.391782	733709.401608	8	0.013328	60	10	60-180	60	114	GapExp	0	93	4	3	1	target	1	707	13.328	13.324	13.333
ProbeTrack7	1	ProbeTrack	1404	SCS215g	733709.391782	733709.401705	8	0.013328	60	10	60-180	60	173	GapExp	0	94	4	0	1	target	1	494	13.328	13.323	13.334
ProbeTrack7	1	ProbeTrack	1404	SCS215g	733709.391782	733709.401810	8	0.013328	60	10	60-180	60	123	GapExp	0	95	4	3	1	target	1	533	13.328	13.321	13.336
ProbeTrack7	1	ProbeTrack	1404	SCS215g	733709.391782	733709.401890	8	0.013328	60	10	60-180	60	104	GapExp	0	96	4	0	1	target	1	454	13.328	13.324	13.333
ProbeTrack7	1	ProbeTrack	1404	SCS215g	733709.391782	733709.401968	8	0.013328	60	10	60-180	60	157	GapExp	0	97	4	96	1	target	1	693	13.328	13.323	13.333
ProbeTrack7	1	ProbeTrack	1404	SCS215g	733709.391782	733709.402080	8	0.013328	60	10	60-180	60	62	GapExp	0	98	4	96	1	target	1	600	13.328	13.324	13.332
ProbeTrack7	1	ProbeTrack	1404	SCS215g	733709.391782	733709.402178	8	0.013328	60	10	60-180	60	152	GapExp	0	99	4	3	0	target	0	613	13.328	13.325	13.332
ProbeTrack7	1	ProbeTrack	1404	SCS215g	733709.391782	733709.402283	8	0.013328	60	10	60-180	60	100	GapExp	0	100	4	6	0	distractor	1	733	13.328	13.323	13.335
ProbeTrack7	1	ProbeTrack	1404	SCS215g	733709.391782	733709.402363	8	0.013328	60	10	60-180	60	112	GapExp	0	101	4	3	0	target	0	667	13.328	13.327	13.330
ProbeTrack7	1	ProbeTrack	1404	SCS215g	733709.391782	733709.402435	8	0.013328	60	10	60-180	60	158	GapExp	0	102	4	3	0	distractor	1	587	13.328	13.324	13.333
ProbeTrack7	1	ProbeTrack	1404	SCS215g	733709.391782	733709.402522	8	0.013328	60	10	60-180	60	131	GapExp	0	103	4	96	1	distractor	0	667	13.328	13.324	13.332
ProbeTrack7	1	ProbeTrack	1404	SCS215g	733709.391782	733709.402634	8	0.013328	60	10	60-180	60	136	GapExp	0	104	4	3	1	target	1	573	13.328	13.326	13.332
ProbeTrack7	1	ProbeTrack	1404	SCS215g	733709.391782	733709.402710	8	0.013328	60	10	60-180	60	160	GapExp	0	105	4	0	0	target	0	627	13.328	13.324	13.332
ProbeTrack7	1	ProbeTrack	1404	SCS215g	733709.391782	733709.402814	8	0.013328	60	10	60-180	60	166	GapExp	0	106	4	6	1	target	1	467	13.328	13.324	13.333
ProbeTrack7	1	ProbeTrack	1404	SCS215g	733709.391782	733709.402910	8	0.013328	60	10	60-180	60	180	GapExp	0	107	4	96	0	distractor	1	573	13.328	13.324	13.333
ProbeTrack7	1	ProbeTrack	1404	SCS215g	733709.391782	733709.403053	8	0.013328	60	10	60-180	60	86	GapExp	0	108	4	0	1	target	1	587	13.328	13.326	13.330
ProbeTrack7	1	ProbeTrack	1404	SCS215g	733709.391782	733709.403178	8	0.013328	60	10	60-180	60	176	GapExp	0	109	4	96	0	target	0	600	13.328	13.323	13.334
ProbeTrack7	1	ProbeTrack	1404	SCS215g	733709.391782	733709.403311	8	0.013328	60	10	60-180	60	127	GapExp	0	110	4	6	1	target	1	627	13.328	13.324	13.332
ProbeTrack7	1	ProbeTrack	1404	SCS215g	733709.391782	733709.403391	8	0.013328	60	10	60-180	60	83	GapExp	0	111	4	6	1	target	1	454	13.328	13.324	13.333
ProbeTrack7	1	ProbeTrack	1404	SCS215g	733709.391782	733709.403468	8	0.013328	60	10	60-180	60	104	GapExp	0	112	4	6	1	target	1	414	13.328	13.327	13.330
ProbeTrack7	1	ProbeTrack	1404	SCS215g	733709.391782	733709.403551	8	0.013328	60	10	60-180	60	68	GapExp	0	113	4	6	1	target	1	587	13.328	13.327	13.330
ProbeTrack7	1	ProbeTrack	1404	SCS215g	733709.391782	733709.403620	8	0.013328	60	10	60-180	60	72	GapExp	0	114	4	0	1	target	1	467	13.328	13.324	13.331
ProbeTrack7	1	ProbeTrack	1404	SCS215g	733709.391782	733709.403708	8	0.013328	60	10	60-180	60	140	GapExp	0	115	4	3	1	target	1	587	13.328	13.325	13.330
ProbeTrack7	1	ProbeTrack	1404	SCS215g	733709.391782	733709.403791	8	0.013328	60	10	60-180	60	86	GapExp	0	116	4	0	1	target	1	467	13.328	13.323	13.333
ProbeTrack7	1	ProbeTrack	1404	SCS215g	733709.391782	733709.403872	8	0.013328	60	10	60-180	60	178	GapExp	0	117	4	6	0	distractor	1	507	13.328	13.311	13.345
ProbeTrack7	1	ProbeTrack	1404	SCS215g	733709.391782	733709.403970	8	0.013328	60	10	60-180	60	120	GapExp	0	118	4	6	1	target	1	427	13.328	13.324	13.332
ProbeTrack7	1	ProbeTrack	1404	SCS215g	733709.391782	733709.404046	8	0.013328	60	10	60-180	60	94	GapExp	0	119	4	0	0	distractor	1	747	13.328	13.323	13.333
ProbeTrack7	1	ProbeTrack	1404	SCS215g	733709.391782	733709.404113	8	0.013328	60	10	60-180	60	177	GapExp	0	120	4	3	0	target	0	547	13.328	13.323	13.333
ProbeTrack7	1	ProbeTrack	1404	SCS215g	733709.391782	733709.404196	8	0.013328	60	10	60-180	60	126	GapExp	0	121	4	6	0	distractor	1	520	13.328	13.323	13.332
ProbeTrack7	1	ProbeTrack	1404	SCS215g	733709.391782	733709.404271	8	0.013328	60	10	60-180	60	73	GapExp	0	122	4	3	0	distractor	1	720	13.328	13.326	13.331
ProbeTrack7	1	ProbeTrack	1404	SCS215g	733709.391782	733709.404369	8	0.013328	60	10	60-180	60	74	GapExp	0	123	4	6	0	distractor	1	667	13.328	13.324	13.332
ProbeTrack7	1	ProbeTrack	1404	SCS215g	733709.391782	733709.404440	8	0.013328	60	10	60-180	60	147	GapExp	0	124	4	6	0	distractor	1	480	13.328	13.325	13.331
ProbeTrack7	1	ProbeTrack	1404	SCS215g	733709.391782	733709.404519	8	0.013328	60	10	60-180	60	125	GapExp	0	125	4	6	1	target	1	600	13.328	13.324	13.332
