exp	sub	code	rev	comp	runtime	trialtime	nstim	refreshdur	cuedur	gapdur	gapOnsetRange	durPostProbe	gapOnsetTime	blocktype	prac	trial	ntargets	soa	probeTarget	resp	acc	rt	pts	tpts	meanFrameDur	minFrameDur	maxFrameDur
ProbeTrack10	12	ProbeTrack	10.1	SCS215a	20100208.115136	20100208.115153	8	0.013324	60	0	60-180	60	103	NoGap	1	1	3	1	0	distractor	1	787	607	607	13.328	13.114	13.574
ProbeTrack10	12	ProbeTrack	10.1	SCS215a	20100208.115136	20100208.115219	8	0.013324	60	0	60-180	60	83	NoGap	1	2	3	2	1	target	1	440	780	1387	13.328	13.246	13.410
ProbeTrack10	12	ProbeTrack	10.1	SCS215a	20100208.115136	20100208.115229	8	0.013324	60	0	60-180	60	68	NoGap	1	3	3	2	1	distractor	0	507	-1000	387	13.328	13.036	13.619
ProbeTrack10	12	ProbeTrack	10.1	SCS215a	20100208.115136	20100208.115235	8	0.013324	60	0	60-180	60	72	NoGap	1	4	3	75	0	distractor	1	654	673	1060	13.328	13.262	13.393
ProbeTrack10	12	ProbeTrack	10.1	SCS215a	20100208.115136	20100208.115242	8	0.013324	60	0	60-180	60	66	NoGap	1	5	3	4	1	target	1	747	627	1687	13.328	13.141	13.480
ProbeTrack10	12	ProbeTrack	10.1	SCS215a	20100208.115136	20100208.115248	8	0.013324	60	0	60-180	60	70	NoGap	1	6	3	75	0	distractor	1	540	730	2417	13.328	13.049	13.573
ProbeTrack10	12	ProbeTrack	10.1	SCS215a	20100208.115136	20100208.115255	8	0.013324	60	0	60-180	60	98	NoGap	1	7	3	0	1	target	1	574	713	3130	13.328	13.286	13.373
ProbeTrack10	12	ProbeTrack	10.1	SCS215a	20100208.115136	20100208.115301	8	0.013324	60	0	60-180	60	168	NoGap	1	8	3	75	0	distractor	1	680	660	3790	13.328	13.281	13.410
ProbeTrack10	12	ProbeTrack	10.1	SCS215a	20100208.115136	20100208.115309	8	0.013324	60	0	60-180	60	80	NoGap	1	9	3	2	1	target	1	640	680	4470	13.328	13.046	13.608
ProbeTrack10	12	ProbeTrack	10.1	SCS215a	20100208.115136	20100208.115315	8	0.013324	60	0	60-180	60	84	NoGap	1	10	3	2	0	distractor	1	653	674	5144	13.328	12.996	13.659
ProbeTrack10	12	ProbeTrack	10.1	SCS215a	20100208.115136	20100208.115321	8	0.013324	60	0	60-180	60	107	NoGap	1	11	3	2	0	32	-3	694	-1000	4144	13.328	13.285	13.370
ProbeTrack10	12	ProbeTrack	10.1	SCS215a	20100208.115136	20100208.115327	8	0.013324	60	0	60-180	60	137	NoGap	1	12	3	4	1	target	1	680	660	4804	13.328	13.173	13.505
ProbeTrack10	12	ProbeTrack	10.1	SCS215a	20100208.115136	20100208.115334	8	0.013324	60	0	60-180	60	138	NoGap	1	13	3	0	1	target	1	680	660	5464	13.328	12.939	13.715
ProbeTrack10	12	ProbeTrack	10.1	SCS215a	20100208.115136	20100208.115341	8	0.013324	60	0	60-180	60	162	NoGap	1	14	3	75	1	target	1	787	607	6071	13.328	12.955	13.699
ProbeTrack10	12	ProbeTrack	10.1	SCS215a	20100208.115136	20100208.115349	8	0.013324	60	0	60-180	60	85	NoGap	1	15	3	0	0	distractor	1	1013	494	6565	13.328	12.933	13.721
ProbeTrack10	12	ProbeTrack	10.1	SCS215a	20100208.115136	20100208.115356	8	0.013324	60	0	60-180	60	167	NoGap	1	16	3	0	1	target	1	693	654	7219	13.328	13.192	13.432
ProbeTrack10	12	ProbeTrack	10.1	SCS215a	20100208.115136	20100208.115403	8	0.013324	60	0	60-180	60	62	NoGap	1	17	3	4	0	target	0	640	-1000	6219	13.328	13.283	13.373
ProbeTrack10	12	ProbeTrack	10.1	SCS215a	20100208.115136	20100208.115409	8	0.013324	60	0	60-180	60	130	NoGap	1	18	3	4	1	target	1	654	673	6892	13.328	13.127	13.528
ProbeTrack10	12	ProbeTrack	10.1	SCS215a	20100208.115136	20100208.115415	8	0.013324	60	0	60-180	60	167	NoGap	1	19	3	0	0	distractor	1	600	700	7592	13.328	13.076	13.612
ProbeTrack10	12	ProbeTrack	10.1	SCS215a	20100208.115136	20100208.115423	8	0.013324	60	0	60-180	60	136	NoGap	1	20	3	1	1	target	1	654	673	8265	13.328	13.150	13.505
ProbeTrack10	12	ProbeTrack	10.1	SCS215a	20100208.115136	20100208.115430	8	0.013324	60	0	60-180	60	177	NoGap	1	21	3	4	0	distractor	1	654	673	8938	13.328	12.962	13.694
ProbeTrack10	12	ProbeTrack	10.1	SCS215a	20100208.115136	20100208.115437	8	0.013324	60	0	60-180	60	84	NoGap	1	22	3	1	0	distractor	1	893	554	9492	13.328	13.098	13.524
ProbeTrack10	12	ProbeTrack	10.1	SCS215a	20100208.115136	20100208.115443	8	0.013324	60	0	60-180	60	178	NoGap	1	23	3	0	0	distractor	1	614	693	10185	13.328	13.177	13.512
ProbeTrack10	12	ProbeTrack	10.1	SCS215a	20100208.115136	20100208.115451	8	0.013324	60	0	60-180	60	92	NoGap	1	24	3	75	1	target	1	773	614	10799	13.328	13.102	13.553
ProbeTrack10	12	ProbeTrack	10.1	SCS215a	20100208.115136	20100208.115459	8	0.013324	60	0	60-180	60	100	NoGap	1	25	3	2	0	distractor	1	667	667	11466	13.327	13.090	13.586
ProbeTrack10	12	ProbeTrack	10.1	SCS215a	20100208.115136	20100208.115505	8	0.013324	60	0	60-180	60	78	NoGap	1	26	3	2	1	target	1	600	700	12166	13.327	13.223	13.399
ProbeTrack10	12	ProbeTrack	10.1	SCS215a	20100208.115136	20100208.115510	8	0.013324	60	0	60-180	60	162	NoGap	1	27	3	75	1	distractor	0	427	-1000	11166	13.328	13.289	13.366
ProbeTrack10	12	ProbeTrack	10.1	SCS215a	20100208.115136	20100208.115518	8	0.013324	60	0	60-180	60	149	NoGap	1	28	3	0	1	target	1	574	713	11879	13.328	13.087	13.601
ProbeTrack10	12	ProbeTrack	10.1	SCS215a	20100208.115136	20100208.115525	8	0.013324	60	0	60-180	60	104	NoGap	1	29	3	1	1	target	1	547	727	12606	13.328	13.057	13.598
ProbeTrack10	12	ProbeTrack	10.1	SCS215a	20100208.115136	20100208.115531	8	0.013324	60	0	60-180	60	81	NoGap	1	30	3	1	1	target	1	574	713	13319	13.328	12.968	13.688
ProbeTrack10	12	ProbeTrack	10.1	SCS215a	20100208.115136	20100208.115537	8	0.013324	60	0	60-180	60	105	NoGap	1	31	3	75	0	distractor	1	640	680	13999	13.328	12.944	13.711
ProbeTrack10	12	ProbeTrack	10.1	SCS215a	20100208.115136	20100208.115544	8	0.013324	60	0	60-180	60	148	NoGap	1	32	3	4	0	distractor	1	600	700	14699	13.328	13.293	13.377
ProbeTrack10	12	ProbeTrack	10.1	SCS215a	20100208.115136	20100208.115551	8	0.013324	60	0	60-180	60	102	NoGap	1	33	3	1	0	target	0	640	-1000	13699	13.328	13.293	13.371
ProbeTrack10	12	ProbeTrack	10.1	SCS215a	20100208.115136	20100208.115557	8	0.013324	60	0	60-180	60	127	NoGap	1	34	3	2	0	target	0	747	-1000	12699	13.328	13.277	13.378
ProbeTrack10	12	ProbeTrack	10.1	SCS215a	20100208.115136	20100208.115604	8	0.013324	60	0	60-180	60	115	NoGap	1	35	3	4	0	distractor	1	574	713	13412	13.328	13.293	13.367
ProbeTrack10	12	ProbeTrack	10.1	SCS215a	20100208.115136	20100208.115611	8	0.013324	60	0	60-180	60	141	NoGap	1	36	3	1	0	distractor	1	787	607	14019	13.328	13.210	13.413
ProbeTrack10	12	ProbeTrack	10.1	SCS215a	20100208.115136	20100208.115617	8	0.013324	60	0	60-180	60	78	NoGap	1	37	3	4	1	target	1	720	640	14659	13.328	13.262	13.427
ProbeTrack10	12	ProbeTrack	10.1	SCS215a	20100208.115136	20100208.115623	8	0.013324	60	0	60-180	60	74	NoGap	1	38	3	1	1	target	1	720	640	15299	13.328	13.293	13.367
ProbeTrack10	12	ProbeTrack	10.1	SCS215a	20100208.115136	20100208.115629	8	0.013324	60	0	60-180	60	122	NoGap	1	39	3	0	0	distractor	1	427	787	16086	13.328	13.289	13.365
ProbeTrack10	12	ProbeTrack	10.1	SCS215a	20100208.115136	20100208.115636	8	0.013324	60	0	60-180	60	73	NoGap	1	40	3	75	1	target	1	480	760	16846	13.328	13.292	13.362
ProbeTrack10	12	ProbeTrack	10.1	SCS215a	20100208.115736	20100208.115742	8	0.013327	60	10	60-180	60	155	GapPrac	1	1	3	4	1	distractor	0	867	-1000	15846	13.328	13.135	13.553
ProbeTrack10	12	ProbeTrack	10.1	SCS215a	20100208.115736	20100208.115751	8	0.013327	60	10	60-180	60	148	GapPrac	1	2	3	2	0	distractor	1	720	640	16486	13.328	13.293	13.363
ProbeTrack10	12	ProbeTrack	10.1	SCS215a	20100208.115736	20100208.115759	8	0.013327	60	10	60-180	60	147	GapPrac	1	3	3	4	0	distractor	1	747	627	17113	13.328	13.140	13.549
ProbeTrack10	12	ProbeTrack	10.1	SCS215a	20100208.115736	20100208.115806	8	0.013327	60	10	60-180	60	96	GapPrac	1	4	3	2	1	target	1	760	620	17733	13.328	13.062	13.560
ProbeTrack10	12	ProbeTrack	10.1	SCS215a	20100208.115736	20100208.115812	8	0.013327	60	10	60-180	60	143	GapPrac	1	5	3	4	1	target	1	613	694	18427	13.328	13.290	13.363
ProbeTrack10	12	ProbeTrack	10.1	SCS215a	20100208.115736	20100208.115819	8	0.013327	60	10	60-180	60	122	GapPrac	1	6	3	0	0	target	0	773	-1000	17427	13.328	13.293	13.363
ProbeTrack10	12	ProbeTrack	10.1	SCS215a	20100208.115736	20100208.115827	8	0.013327	60	10	60-180	60	169	GapPrac	1	7	3	1	1	target	1	573	714	18141	13.328	13.216	13.406
ProbeTrack10	12	ProbeTrack	10.1	SCS215a	20100208.115736	20100208.115834	8	0.013327	60	10	60-180	60	162	GapPrac	1	8	3	2	1	target	1	653	674	18815	13.328	13.293	13.362
ProbeTrack10	12	ProbeTrack	10.1	SCS215a	20100208.115736	20100208.115841	8	0.013327	60	10	60-180	60	64	GapPrac	1	9	3	1	0	distractor	1	680	660	19475	13.328	13.217	13.404
ProbeTrack10	12	ProbeTrack	10.1	SCS215a	20100208.115736	20100208.115847	8	0.013327	60	10	60-180	60	116	GapPrac	1	10	3	2	0	target	0	560	-1000	18475	13.328	13.077	13.579
ProbeTrack10	12	ProbeTrack	10.1	SCS215a	20100208.115736	20100208.115853	8	0.013327	60	10	60-180	60	118	GapPrac	1	11	3	4	0	target	0	720	-1000	17475	13.328	13.256	13.400
ProbeTrack10	12	ProbeTrack	10.1	SCS215a	20100208.115736	20100208.115901	8	0.013327	60	10	60-180	60	152	GapPrac	1	12	3	0	1	target	1	880	560	18035	13.328	13.277	13.363
ProbeTrack10	12	ProbeTrack	10.1	SCS215a	20100208.115736	20100208.115908	8	0.013327	60	10	60-180	60	103	GapPrac	1	13	3	75	0	distractor	1	773	614	18649	13.328	13.078	13.611
ProbeTrack10	12	ProbeTrack	10.1	SCS215a	20100208.115736	20100208.115915	8	0.013327	60	10	60-180	60	178	GapPrac	1	14	3	0	0	distractor	1	760	620	19269	13.328	13.293	13.363
ProbeTrack10	12	ProbeTrack	10.1	SCS215a	20100208.115736	20100208.115923	8	0.013327	60	10	60-180	60	162	GapPrac	1	15	3	75	0	distractor	1	573	714	19983	13.328	13.185	13.505
ProbeTrack10	12	ProbeTrack	10.1	SCS215a	20100208.115736	20100208.115931	8	0.013327	60	10	60-180	60	100	GapPrac	1	16	3	1	1	target	1	693	654	20637	13.328	13.293	13.363
ProbeTrack10	12	ProbeTrack	10.1	SCS215a	20100208.115736	20100208.115938	8	0.013327	60	10	60-180	60	111	GapPrac	1	17	3	75	1	distractor	0	733	-1000	19637	13.328	13.236	13.420
ProbeTrack10	12	ProbeTrack	10.1	SCS215a	20100208.115736	20100208.115945	8	0.013327	60	10	60-180	60	69	GapPrac	1	18	3	0	1	target	1	627	687	20324	13.328	13.293	13.363
ProbeTrack10	12	ProbeTrack	10.1	SCS215a	20100208.115736	20100208.115951	8	0.013327	60	10	60-180	60	151	GapPrac	1	19	3	75	1	distractor	0	573	-1000	19324	13.328	13.262	13.394
ProbeTrack10	12	ProbeTrack	10.1	SCS215a	20100208.115736	20100208.115958	8	0.013327	60	10	60-180	60	162	GapPrac	1	20	3	1	0	distractor	1	733	634	19958	13.328	13.293	13.362
ProbeTrack10	12	ProbeTrack	10.1	SCS215a	20100208.120053	20100208.120106	8	0.013328	60	10	60-180	60	109	GapExp	1	1	3	4	1	target	1	640	680	20638	13.328	13.205	13.450
ProbeTrack10	12	ProbeTrack	10.1	SCS215a	20100208.120053	20100208.120113	8	0.013328	60	10	60-180	60	163	GapExp	1	2	3	75	1	distractor	0	480	-1000	19638	13.328	13.290	13.367
ProbeTrack10	12	ProbeTrack	10.1	SCS215a	20100208.120053	20100208.120121	8	0.013328	60	10	60-180	60	97	GapExp	1	3	3	2	0	target	0	600	-1000	18638	13.501	13.087	53.276
ProbeTrack10	12	ProbeTrack	10.1	SCS215a	20100208.120053	20100208.120127	8	0.013328	60	10	60-180	60	70	GapExp	1	4	3	0	1	target	1	870	565	19203	13.389	13.033	26.366
ProbeTrack10	12	ProbeTrack	10.1	SCS215a	20100208.120053	20100208.120133	8	0.013328	60	10	60-180	60	168	GapExp	1	5	3	0	0	distractor	1	613	694	19897	13.328	13.057	13.564
ProbeTrack10	12	ProbeTrack	10.1	SCS215a	20100208.120053	20100208.120141	8	0.013328	60	10	60-180	60	95	GapExp	1	6	3	1	0	distractor	1	640	680	20577	13.328	13.293	13.363
ProbeTrack10	12	ProbeTrack	10.1	SCS215a	20100208.120053	20100208.120147	8	0.013328	60	10	60-180	60	131	GapExp	1	7	3	75	0	distractor	1	547	727	21304	13.408	12.866	26.621
ProbeTrack10	12	ProbeTrack	10.1	SCS215a	20100208.120053	20100208.120154	8	0.013328	60	10	60-180	60	107	GapExp	1	8	3	2	1	distractor	0	627	-1000	20304	13.328	13.260	13.363
ProbeTrack10	12	ProbeTrack	10.1	SCS215a	20100208.120053	20100208.120201	8	0.013328	60	10	60-180	60	154	GapExp	1	9	3	1	1	target	1	547	727	21031	13.328	13.215	13.407
ProbeTrack10	12	ProbeTrack	10.1	SCS215a	20100208.120053	20100208.120207	8	0.013328	60	10	60-180	60	102	GapExp	1	10	3	4	0	distractor	1	640	680	21711	13.328	13.292	13.363
ProbeTrack10	12	ProbeTrack	10.1	SCS215a	20100208.120053	20100208.120213	8	0.013328	60	10	60-180	60	134	GapExp	0	11	3	2	1	target	1	600	700	22411	13.328	13.293	13.364
ProbeTrack10	12	ProbeTrack	10.1	SCS215a	20100208.120053	20100208.120220	8	0.013328	60	10	60-180	60	122	GapExp	0	12	3	0	1	target	1	827	587	22998	13.328	13.137	13.489
ProbeTrack10	12	ProbeTrack	10.1	SCS215a	20100208.120053	20100208.120226	8	0.013328	60	10	60-180	60	63	GapExp	0	13	3	75	1	target	1	454	773	23771	13.328	13.292	13.363
ProbeTrack10	12	ProbeTrack	10.1	SCS215a	20100208.120053	20100208.120232	8	0.013328	60	10	60-180	60	134	GapExp	0	14	3	4	1	distractor	0	507	-1000	22771	13.328	13.176	13.479
ProbeTrack10	12	ProbeTrack	10.1	SCS215a	20100208.120053	20100208.120239	8	0.013328	60	10	60-180	60	180	GapExp	0	15	3	1	0	target	0	907	-1000	21771	13.328	13.293	13.363
ProbeTrack10	12	ProbeTrack	10.1	SCS215a	20100208.120053	20100208.120246	8	0.013328	60	10	60-180	60	109	GapExp	0	16	3	0	1	target	1	627	687	22458	13.328	13.036	13.654
ProbeTrack10	12	ProbeTrack	10.1	SCS215a	20100208.120053	20100208.120253	8	0.013328	60	10	60-180	60	162	GapExp	0	17	3	0	1	distractor	0	667	-1000	21458	13.328	13.293	13.372
ProbeTrack10	12	ProbeTrack	10.1	SCS215a	20100208.120053	20100208.120300	8	0.013328	60	10	60-180	60	77	GapExp	0	18	3	2	0	target	0	613	-1000	20458	13.327	13.293	13.363
ProbeTrack10	12	ProbeTrack	10.1	SCS215a	20100208.120053	20100208.120305	8	0.013328	60	10	60-180	60	147	GapExp	0	19	3	2	0	distractor	1	600	700	21158	13.328	13.050	13.604
ProbeTrack10	12	ProbeTrack	10.1	SCS215a	20100208.120053	20100208.120312	8	0.013328	60	10	60-180	60	119	GapExp	0	20	3	0	0	distractor	1	667	667	21825	13.328	13.180	13.475
ProbeTrack10	12	ProbeTrack	10.1	SCS215a	20100208.120053	20100208.120318	8	0.013328	60	10	60-180	60	78	GapExp	0	21	3	4	1	target	1	520	740	22565	13.328	13.231	13.425
ProbeTrack10	12	ProbeTrack	10.1	SCS215a	20100208.120053	20100208.120324	8	0.013328	60	10	60-180	60	157	GapExp	0	22	3	2	1	target	1	653	674	23239	13.328	13.293	13.364
ProbeTrack10	12	ProbeTrack	10.1	SCS215a	20100208.120053	20100208.120331	8	0.013328	60	10	60-180	60	164	GapExp	0	23	3	75	1	target	1	627	687	23926	13.328	13.250	13.405
ProbeTrack10	12	ProbeTrack	10.1	SCS215a	20100208.120053	20100208.120339	8	0.013328	60	10	60-180	60	139	GapExp	0	24	3	1	0	target	0	653	-1000	22926	13.328	13.293	13.363
ProbeTrack10	12	ProbeTrack	10.1	SCS215a	20100208.120053	20100208.120345	8	0.013328	60	10	60-180	60	116	GapExp	0	25	3	75	1	distractor	0	280	-1000	21926	13.328	13.095	13.561
ProbeTrack10	12	ProbeTrack	10.1	SCS215a	20100208.120053	20100208.120352	8	0.013328	60	10	60-180	60	167	GapExp	0	26	3	4	0	distractor	1	600	700	22626	13.328	13.271	13.365
ProbeTrack10	12	ProbeTrack	10.1	SCS215a	20100208.120053	20100208.120359	8	0.013328	60	10	60-180	60	92	GapExp	0	27	3	4	1	target	1	587	707	23333	13.328	13.293	13.363
ProbeTrack10	12	ProbeTrack	10.1	SCS215a	20100208.120053	20100208.120404	8	0.013328	60	10	60-180	60	91	GapExp	0	28	3	4	0	target	0	667	-1000	22333	13.328	13.089	13.599
ProbeTrack10	12	ProbeTrack	10.1	SCS215a	20100208.120053	20100208.120410	8	0.013328	60	10	60-180	60	102	GapExp	0	29	3	75	0	distractor	1	454	773	23106	13.328	13.257	13.431
ProbeTrack10	12	ProbeTrack	10.1	SCS215a	20100208.120053	20100208.120417	8	0.013328	60	10	60-180	60	63	GapExp	0	30	3	0	1	target	1	520	740	23846	13.328	13.292	13.362
ProbeTrack10	12	ProbeTrack	10.1	SCS215a	20100208.120053	20100208.120422	8	0.013328	60	10	60-180	60	115	GapExp	0	31	3	2	0	distractor	1	507	747	24593	13.328	13.286	13.404
ProbeTrack10	12	ProbeTrack	10.1	SCS215a	20100208.120053	20100208.120428	8	0.013328	60	10	60-180	60	123	GapExp	0	32	3	4	1	target	1	480	760	25353	13.328	13.273	13.383
ProbeTrack10	12	ProbeTrack	10.1	SCS215a	20100208.120053	20100208.120434	8	0.013328	60	10	60-180	60	94	GapExp	0	33	3	75	0	distractor	1	427	787	26140	13.328	13.219	13.437
ProbeTrack10	12	ProbeTrack	10.1	SCS215a	20100208.120053	20100208.120441	8	0.013328	60	10	60-180	60	160	GapExp	0	34	3	0	1	target	1	653	674	26814	13.328	13.085	13.603
ProbeTrack10	12	ProbeTrack	10.1	SCS215a	20100208.120053	20100208.120447	8	0.013328	60	10	60-180	60	116	GapExp	0	35	3	2	1	target	1	520	740	27554	13.328	13.095	13.526
ProbeTrack10	12	ProbeTrack	10.1	SCS215a	20100208.120053	20100208.120453	8	0.013328	60	10	60-180	60	167	GapExp	0	36	3	1	1	target	1	640	680	28234	13.328	13.293	13.363
ProbeTrack10	12	ProbeTrack	10.1	SCS215a	20100208.120053	20100208.120500	8	0.013328	60	10	60-180	60	135	GapExp	0	37	3	75	0	distractor	1	454	773	29007	13.328	13.273	13.382
ProbeTrack10	12	ProbeTrack	10.1	SCS215a	20100208.120053	20100208.120507	8	0.013328	60	10	60-180	60	168	GapExp	0	38	3	0	0	target	0	627	-1000	28007	13.328	13.292	13.363
ProbeTrack10	12	ProbeTrack	10.1	SCS215a	20100208.120053	20100208.120514	8	0.013328	60	10	60-180	60	71	GapExp	0	39	3	1	0	distractor	1	480	760	28767	13.328	13.293	13.363
ProbeTrack10	12	ProbeTrack	10.1	SCS215a	20100208.120053	20100208.120520	8	0.013328	60	10	60-180	60	142	GapExp	0	40	3	1	1	target	1	600	700	29467	13.328	13.293	13.363
ProbeTrack10	12	ProbeTrack	10.1	SCS215a	20100208.120053	20100208.120527	8	0.013328	60	10	60-180	60	88	GapExp	0	41	3	75	0	distractor	1	480	760	30227	13.328	13.099	13.554
ProbeTrack10	12	ProbeTrack	10.1	SCS215a	20100208.120053	20100208.120533	8	0.013328	60	10	60-180	60	68	GapExp	0	42	3	0	0	target	0	587	-1000	29227	13.328	13.293	13.363
ProbeTrack10	12	ProbeTrack	10.1	SCS215a	20100208.120053	20100208.120539	8	0.013328	60	10	60-180	60	172	GapExp	0	43	3	75	1	target	1	680	660	29887	13.328	13.101	13.554
ProbeTrack10	12	ProbeTrack	10.1	SCS215a	20100208.120053	20100208.120547	8	0.013328	60	10	60-180	60	98	GapExp	0	44	3	75	1	distractor	0	467	-1000	28887	13.328	13.265	13.421
ProbeTrack10	12	ProbeTrack	10.1	SCS215a	20100208.120053	20100208.120554	8	0.013328	60	10	60-180	60	178	GapExp	0	45	3	1	0	distractor	1	907	547	29434	13.328	13.241	13.381
ProbeTrack10	12	ProbeTrack	10.1	SCS215a	20100208.120053	20100208.120601	8	0.013328	60	10	60-180	60	137	GapExp	0	46	3	2	1	target	1	573	714	30148	13.328	13.157	13.498
ProbeTrack10	12	ProbeTrack	10.1	SCS215a	20100208.120053	20100208.120608	8	0.013328	60	10	60-180	60	169	GapExp	0	47	3	1	0	target	0	640	-1000	29148	13.328	13.293	13.363
ProbeTrack10	12	ProbeTrack	10.1	SCS215a	20100208.120053	20100208.120615	8	0.013328	60	10	60-180	60	119	GapExp	0	48	3	4	1	target	1	534	733	29881	13.328	13.293	13.363
ProbeTrack10	12	ProbeTrack	10.1	SCS215a	20100208.120053	20100208.120621	8	0.013328	60	10	60-180	60	115	GapExp	0	49	3	75	0	distractor	1	267	867	30748	13.328	13.257	13.364
ProbeTrack10	12	ProbeTrack	10.1	SCS215a	20100208.120053	20100208.120628	8	0.013328	60	10	60-180	60	167	GapExp	0	50	3	75	1	distractor	0	440	-1000	29748	13.328	13.216	13.406
ProbeTrack10	12	ProbeTrack	10.1	SCS215a	20100208.120053	20100208.120636	8	0.013328	60	10	60-180	60	172	GapExp	0	51	3	4	1	target	1	494	753	30501	13.328	13.291	13.363
ProbeTrack10	12	ProbeTrack	10.1	SCS215a	20100208.120053	20100208.120642	8	0.013328	60	10	60-180	60	151	GapExp	0	52	3	0	1	target	1	454	773	31274	13.328	13.189	13.434
ProbeTrack10	12	ProbeTrack	10.1	SCS215a	20100208.120053	20100208.120649	8	0.013328	60	10	60-180	60	125	GapExp	0	53	3	75	1	distractor	0	454	-1000	30274	13.328	13.120	13.535
ProbeTrack10	12	ProbeTrack	10.1	SCS215a	20100208.120053	20100208.120656	8	0.013328	60	10	60-180	60	117	GapExp	0	54	3	0	0	target	0	507	-1000	29274	13.328	13.244	13.377
ProbeTrack10	12	ProbeTrack	10.1	SCS215a	20100208.120053	20100208.120702	8	0.013328	60	10	60-180	60	82	GapExp	0	55	3	75	1	distractor	0	320	-1000	28274	13.328	13.122	13.566
ProbeTrack10	12	ProbeTrack	10.1	SCS215a	20100208.120053	20100208.120708	8	0.013328	60	10	60-180	60	121	GapExp	0	56	3	2	0	distractor	1	773	614	28888	13.328	13.104	13.551
ProbeTrack10	12	ProbeTrack	10.1	SCS215a	20100208.120053	20100208.120715	8	0.013328	60	10	60-180	60	99	GapExp	0	57	3	1	1	target	1	573	714	29602	13.327	13.293	13.363
ProbeTrack10	12	ProbeTrack	10.1	SCS215a	20100208.120053	20100208.120721	8	0.013328	60	10	60-180	60	172	GapExp	0	58	3	4	0	target	0	573	-1000	28602	13.328	13.187	13.502
ProbeTrack10	12	ProbeTrack	10.1	SCS215a	20100208.120053	20100208.120727	8	0.013328	60	10	60-180	60	130	GapExp	0	59	3	0	1	target	1	627	687	29289	13.328	13.284	13.363
ProbeTrack10	12	ProbeTrack	10.1	SCS215a	20100208.120053	20100208.120734	8	0.013328	60	10	60-180	60	103	GapExp	0	60	3	2	0	target	0	693	-1000	28289	13.328	13.293	13.363
ProbeTrack10	12	ProbeTrack	10.1	SCS215a	20100208.120053	20100208.120740	8	0.013328	60	10	60-180	60	70	GapExp	0	61	3	75	1	target	1	467	767	29056	13.328	13.198	13.423
ProbeTrack10	12	ProbeTrack	10.1	SCS215a	20100208.120053	20100208.120746	8	0.013328	60	10	60-180	60	166	GapExp	0	62	3	0	1	distractor	0	800	-1000	28056	13.328	13.289	13.365
ProbeTrack10	12	ProbeTrack	10.1	SCS215a	20100208.120053	20100208.120753	8	0.013328	60	10	60-180	60	135	GapExp	0	63	3	4	0	distractor	1	574	713	28769	13.328	13.172	13.483
ProbeTrack10	12	ProbeTrack	10.1	SCS215a	20100208.120053	20100208.120759	8	0.013328	60	10	60-180	60	69	GapExp	0	64	3	1	1	target	1	480	760	29529	13.327	13.138	13.516
ProbeTrack10	12	ProbeTrack	10.1	SCS215a	20100208.120053	20100208.120804	8	0.013328	60	10	60-180	60	173	GapExp	0	65	3	1	1	target	1	507	747	30276	13.328	13.133	13.522
ProbeTrack10	12	ProbeTrack	10.1	SCS215a	20100208.120053	20100208.120811	8	0.013328	60	10	60-180	60	96	GapExp	0	66	3	2	1	distractor	0	574	-1000	29276	13.327	13.188	13.467
ProbeTrack10	12	ProbeTrack	10.1	SCS215a	20100208.120053	20100208.120817	8	0.013328	60	10	60-180	60	121	GapExp	0	67	3	2	1	target	1	587	707	29983	13.328	13.093	13.528
ProbeTrack10	12	ProbeTrack	10.1	SCS215a	20100208.120053	20100208.120823	8	0.013328	60	10	60-180	60	71	GapExp	0	68	3	4	0	distractor	1	480	760	30743	13.395	12.934	26.973
ProbeTrack10	12	ProbeTrack	10.1	SCS215a	20100208.120053	20100208.120828	8	0.013328	60	10	60-180	60	131	GapExp	0	69	3	1	0	distractor	1	693	654	31397	13.328	13.203	13.483
ProbeTrack10	12	ProbeTrack	10.1	SCS215a	20100208.120053	20100208.120834	8	0.013328	60	10	60-180	60	64	GapExp	0	70	3	2	0	target	0	534	-1000	30397	13.327	13.025	13.597
ProbeTrack10	12	ProbeTrack	10.1	SCS215a	20100208.120053	20100208.120840	8	0.013328	60	10	60-180	60	80	GapExp	0	71	3	0	0	distractor	1	427	787	31184	13.328	13.024	13.631
ProbeTrack10	12	ProbeTrack	10.1	SCS215a	20100208.120053	20100208.120845	8	0.013328	60	10	60-180	60	113	GapExp	0	72	3	0	1	target	1	694	653	31837	13.328	13.219	13.437
ProbeTrack10	12	ProbeTrack	10.1	SCS215a	20100208.120053	20100208.120851	8	0.013328	60	10	60-180	60	178	GapExp	0	73	3	0	0	distractor	1	560	720	32557	13.328	13.257	13.398
ProbeTrack10	12	ProbeTrack	10.1	SCS215a	20100208.120053	20100208.120858	8	0.013328	60	10	60-180	60	80	GapExp	0	74	3	1	0	distractor	1	573	714	33271	13.328	13.201	13.454
ProbeTrack10	12	ProbeTrack	10.1	SCS215a	20100208.120053	20100208.120904	8	0.013328	60	10	60-180	60	70	GapExp	0	75	3	1	1	target	1	613	694	33965	13.328	12.998	13.657
ProbeTrack10	12	ProbeTrack	10.1	SCS215a	20100208.120053	20100208.120909	8	0.013328	60	10	60-180	60	143	GapExp	0	76	3	1	0	distractor	1	587	707	34672	13.328	13.272	13.363
ProbeTrack10	12	ProbeTrack	10.1	SCS215a	20100208.120053	20100208.120915	8	0.013328	60	10	60-180	60	150	GapExp	0	77	3	75	0	distractor	1	347	827	35499	13.328	13.002	13.652
ProbeTrack10	12	ProbeTrack	10.1	SCS215a	20100208.120053	20100208.120923	8	0.013328	60	10	60-180	60	100	GapExp	0	78	3	75	1	distractor	0	387	-1000	34499	13.328	13.123	13.498
ProbeTrack10	12	ProbeTrack	10.1	SCS215a	20100208.120053	20100208.120930	8	0.013328	60	10	60-180	60	126	GapExp	0	79	3	4	1	target	1	574	713	35212	13.328	13.179	13.476
ProbeTrack10	12	ProbeTrack	10.1	SCS215a	20100208.120053	20100208.120936	8	0.013328	60	10	60-180	60	125	GapExp	0	80	3	4	1	target	1	573	714	35926	13.328	13.249	13.374
ProbeTrack10	12	ProbeTrack	10.1	SCS215a	20100208.120053	20100208.120942	8	0.013328	60	10	60-180	60	166	GapExp	0	81	3	1	1	target	1	573	714	36640	13.328	13.177	13.479
ProbeTrack10	12	ProbeTrack	10.1	SCS215a	20100208.120053	20100208.120949	8	0.013328	60	10	60-180	60	102	GapExp	0	82	3	2	1	target	1	573	714	37354	13.328	13.293	13.363
ProbeTrack10	12	ProbeTrack	10.1	SCS215a	20100208.120053	20100208.120957	8	0.013328	60	10	60-180	60	127	GapExp	0	83	3	75	1	target	1	440	780	38134	13.328	13.144	13.512
ProbeTrack10	12	ProbeTrack	10.1	SCS215a	20100208.120053	20100208.121004	8	0.013328	60	10	60-180	60	100	GapExp	0	84	3	2	0	target	0	560	-1000	37134	13.328	13.114	13.540
ProbeTrack10	12	ProbeTrack	10.1	SCS215a	20100208.120053	20100208.121009	8	0.013328	60	10	60-180	60	81	GapExp	0	85	3	75	0	distractor	1	387	807	37941	13.328	13.293	13.375
ProbeTrack10	12	ProbeTrack	10.1	SCS215a	20100208.120053	20100208.121016	8	0.013328	60	10	60-180	60	105	GapExp	0	86	3	1	1	target	1	680	660	38601	13.328	13.089	13.532
ProbeTrack10	12	ProbeTrack	10.1	SCS215a	20100208.120053	20100208.121022	8	0.013328	60	10	60-180	60	78	GapExp	0	87	3	75	1	target	1	427	787	39388	13.328	13.293	13.362
ProbeTrack10	12	ProbeTrack	10.1	SCS215a	20100208.120053	20100208.121028	8	0.013328	60	10	60-180	60	126	GapExp	0	88	3	4	0	distractor	1	547	727	40115	13.328	13.094	13.528
ProbeTrack10	12	ProbeTrack	10.1	SCS215a	20100208.120053	20100208.121034	8	0.013328	60	10	60-180	60	170	GapExp	0	89	3	1	0	distractor	1	667	667	40782	13.328	13.293	13.366
ProbeTrack10	12	ProbeTrack	10.1	SCS215a	20100208.120053	20100208.121041	8	0.013328	60	10	60-180	60	164	GapExp	0	90	3	4	0	32	-3	720	-1000	39782	13.328	13.290	13.366
ProbeTrack10	12	ProbeTrack	10.1	SCS215a	20100208.120053	20100208.121048	8	0.013328	60	10	60-180	60	168	GapExp	0	91	3	4	0	distractor	1	680	660	40442	13.328	13.269	13.386
ProbeTrack10	12	ProbeTrack	10.1	SCS215a	20100208.120053	20100208.121055	8	0.013328	60	10	60-180	60	172	GapExp	0	92	3	4	1	distractor	0	560	-1000	39442	13.328	13.214	13.442
ProbeTrack10	12	ProbeTrack	10.1	SCS215a	20100208.120053	20100208.121102	8	0.013328	60	10	60-180	60	79	GapExp	0	93	3	0	1	distractor	0	600	-1000	38442	13.328	13.191	13.463
ProbeTrack10	12	ProbeTrack	10.1	SCS215a	20100208.120053	20100208.121108	8	0.013328	60	10	60-180	60	61	GapExp	0	94	3	0	0	target	0	520	-1000	37442	13.328	13.181	13.474
ProbeTrack10	12	ProbeTrack	10.1	SCS215a	20100208.120053	20100208.121113	8	0.013328	60	10	60-180	60	68	GapExp	0	95	3	1	0	distractor	1	640	680	38122	13.328	13.293	13.363
ProbeTrack10	12	ProbeTrack	10.1	SCS215a	20100208.120053	20100208.121119	8	0.013328	60	10	60-180	60	153	GapExp	0	96	3	2	1	target	1	507	747	38869	13.328	13.196	13.459
ProbeTrack10	12	ProbeTrack	10.1	SCS215a	20100208.120053	20100208.121126	8	0.013328	60	10	60-180	60	76	GapExp	0	97	3	2	0	distractor	1	573	714	39583	13.328	13.159	13.497
ProbeTrack10	12	ProbeTrack	10.1	SCS215a	20100208.120053	20100208.121131	8	0.013328	60	10	60-180	60	136	GapExp	0	98	3	75	0	distractor	1	520	740	40323	13.328	13.134	13.522
ProbeTrack10	12	ProbeTrack	10.1	SCS215a	20100208.120053	20100208.121139	8	0.013328	60	10	60-180	60	100	GapExp	0	99	3	0	0	distractor	1	720	640	40963	13.328	13.293	13.363
ProbeTrack10	12	ProbeTrack	10.1	SCS215a	20100208.120053	20100208.121145	8	0.013328	60	10	60-180	60	160	GapExp	0	100	3	1	0	distractor	1	720	640	41603	13.328	13.293	13.363
ProbeTrack10	12	ProbeTrack	10.1	SCS215a	20100208.120053	20100208.121152	8	0.013328	60	10	60-180	60	145	GapExp	0	101	3	2	1	target	1	667	667	42270	13.328	13.293	13.363
ProbeTrack10	12	ProbeTrack	10.1	SCS215a	20100208.120053	20100208.121158	8	0.013328	60	10	60-180	60	123	GapExp	0	102	3	0	1	target	1	534	733	43003	13.328	13.006	13.616
ProbeTrack10	12	ProbeTrack	10.1	SCS215a	20100208.120053	20100208.121205	8	0.013328	60	10	60-180	60	118	GapExp	0	103	3	75	0	distractor	1	600	700	43703	13.328	13.141	13.482
ProbeTrack10	12	ProbeTrack	10.1	SCS215a	20100208.120053	20100208.121212	8	0.013328	60	10	60-180	60	149	GapExp	0	104	3	2	1	target	1	480	760	44463	13.328	13.289	13.366
ProbeTrack10	12	ProbeTrack	10.1	SCS215a	20100208.120053	20100208.121218	8	0.013328	60	10	60-180	60	71	GapExp	0	105	3	2	1	target	1	600	700	45163	13.328	13.201	13.456
ProbeTrack10	12	ProbeTrack	10.1	SCS215a	20100208.120053	20100208.121223	8	0.013328	60	10	60-180	60	123	GapExp	0	106	3	4	1	target	1	547	727	45890	13.328	13.292	13.363
ProbeTrack10	12	ProbeTrack	10.1	SCS215a	20100208.120053	20100208.121229	8	0.013328	60	10	60-180	60	137	GapExp	0	107	3	2	0	distractor	1	387	807	46697	13.328	13.202	13.419
ProbeTrack10	12	ProbeTrack	10.1	SCS215a	20100208.120053	20100208.121236	8	0.013328	60	10	60-180	60	155	GapExp	0	108	3	4	1	target	1	494	753	47450	13.328	13.062	13.593
ProbeTrack10	12	ProbeTrack	10.1	SCS215a	20100208.120053	20100208.121242	8	0.013328	60	10	60-180	60	112	GapExp	0	109	3	4	0	distractor	1	627	687	48137	13.328	13.259	13.430
ProbeTrack10	12	ProbeTrack	10.1	SCS215a	20100208.120053	20100208.121248	8	0.013328	60	10	60-180	60	104	GapExp	0	110	3	4	0	target	0	693	-1000	47137	13.328	13.134	13.521
ProbeTrack10	12	ProbeTrack	10.1	SCS215a	20100208.120053	20100208.121254	8	0.013328	60	10	60-180	60	161	GapExp	0	111	3	0	0	target	0	680	-1000	46137	13.328	13.076	13.580
ProbeTrack10	12	ProbeTrack	10.1	SCS215a	20100208.120053	20100208.121301	8	0.013328	60	10	60-180	60	92	GapExp	0	112	3	1	1	target	1	720	640	46777	13.328	13.293	13.363
ProbeTrack10	12	ProbeTrack	10.1	SCS215a	20100208.120053	20100208.121307	8	0.013328	60	10	60-180	60	176	GapExp	0	113	3	0	0	distractor	1	840	580	47357	13.328	13.282	13.366
ProbeTrack10	12	ProbeTrack	10.1	SCS215a	20100208.120053	20100208.121314	8	0.013328	60	10	60-180	60	124	GapExp	0	114	3	4	1	target	1	587	707	48064	13.328	13.293	13.363
ProbeTrack10	12	ProbeTrack	10.1	SCS215a	20100208.120053	20100208.121321	8	0.013328	60	10	60-180	60	177	GapExp	0	115	3	75	1	target	1	560	720	48784	13.328	13.165	13.491
ProbeTrack10	12	ProbeTrack	10.1	SCS215a	20100208.120053	20100208.121328	8	0.013328	60	10	60-180	60	61	GapExp	0	116	3	2	0	distractor	1	614	693	49477	13.328	13.176	13.480
ProbeTrack10	12	ProbeTrack	10.1	SCS215a	20100208.120053	20100208.121334	8	0.013328	60	10	60-180	60	64	GapExp	0	117	3	2	0	distractor	1	627	687	50164	13.328	13.292	13.364
ProbeTrack10	12	ProbeTrack	10.1	SCS215a	20100208.120053	20100208.121339	8	0.013328	60	10	60-180	60	135	GapExp	0	118	3	75	0	distractor	1	680	660	50824	13.328	13.261	13.393
ProbeTrack10	12	ProbeTrack	10.1	SCS215a	20100208.120053	20100208.121346	8	0.013328	60	10	60-180	60	142	GapExp	0	119	3	2	0	distractor	1	560	720	51544	13.328	13.293	13.363
ProbeTrack10	12	ProbeTrack	10.1	SCS215a	20100208.120053	20100208.121353	8	0.013328	60	10	60-180	60	165	GapExp	0	120	3	1	1	distractor	0	707	-1000	50544	13.328	12.947	13.675
ProbeTrack10	12	ProbeTrack	10.1	SCS215a	20100208.120053	20100208.121359	8	0.013328	60	10	60-180	60	104	GapExp	0	121	3	4	0	distractor	1	574	713	51257	13.328	13.293	13.363
ProbeTrack10	12	ProbeTrack	10.1	SCS215a	20100208.120053	20100208.121405	8	0.013328	60	10	60-180	60	83	GapExp	0	122	3	4	1	target	1	653	674	51931	13.327	13.293	13.363
ProbeTrack10	12	ProbeTrack	10.1	SCS215a	20100208.120053	20100208.121411	8	0.013328	60	10	60-180	60	71	GapExp	0	123	3	0	1	target	1	560	720	52651	13.328	13.293	13.363
ProbeTrack10	12	ProbeTrack	10.1	SCS215a	20100208.120053	20100208.121417	8	0.013328	60	10	60-180	60	112	GapExp	0	124	3	2	1	target	1	600	700	53351	13.328	13.252	13.404
ProbeTrack10	12	ProbeTrack	10.1	SCS215a	20100208.120053	20100208.121423	8	0.013328	60	10	60-180	60	101	GapExp	0	125	3	1	0	distractor	1	627	687	54038	13.327	13.293	13.363
ProbeTrack10	12	ProbeTrack	10.1	SCS215a	20100208.120053	20100208.121429	8	0.013328	60	10	60-180	60	117	GapExp	0	126	3	0	1	target	1	520	740	54778	13.328	13.003	13.687
ProbeTrack10	12	ProbeTrack	10.1	SCS215a	20100208.120053	20100208.121435	8	0.013328	60	10	60-180	60	121	GapExp	0	127	3	0	0	distractor	1	507	747	55525	13.328	13.027	13.630
ProbeTrack10	12	ProbeTrack	10.1	SCS215a	20100208.120053	20100208.121441	8	0.013328	60	10	60-180	60	93	GapExp	0	128	3	0	0	target	0	707	-1000	54525	13.328	13.078	13.576
ProbeTrack10	12	ProbeTrack	10.1	SCS215a	20100208.120053	20100208.121447	8	0.013328	60	10	60-180	60	176	GapExp	0	129	3	0	1	target	1	534	733	55258	13.328	13.293	13.363
ProbeTrack10	12	ProbeTrack	10.1	SCS215a	20100208.120053	20100208.121454	8	0.013328	60	10	60-180	60	128	GapExp	0	130	3	1	0	distractor	1	507	747	56005	13.328	13.263	13.393
ProbeTrack10	12	ProbeTrack	10.1	SCS215a	20100208.120053	20100208.121500	8	0.013328	60	10	60-180	60	66	GapExp	0	131	3	4	1	target	1	427	787	56792	13.328	13.293	13.362
ProbeTrack10	12	ProbeTrack	10.1	SCS215a	20100208.120053	20100208.121506	8	0.013328	60	10	60-180	60	144	GapExp	0	132	3	2	0	distractor	1	507	747	57539	13.426	13.031	26.656
ProbeTrack10	12	ProbeTrack	10.1	SCS215a	20100208.120053	20100208.121512	8	0.013328	60	10	60-180	60	179	GapExp	0	133	3	75	0	distractor	1	467	767	58306	13.328	13.267	13.389
ProbeTrack10	12	ProbeTrack	10.1	SCS215a	20100208.120053	20100208.121520	8	0.013328	60	10	60-180	60	126	GapExp	0	134	3	75	1	distractor	0	653	-1000	57306	13.328	13.128	13.528
ProbeTrack10	12	ProbeTrack	10.1	SCS215a	20100208.120053	20100208.121527	8	0.013328	60	10	60-180	60	118	GapExp	0	135	3	2	0	distractor	1	787	607	57913	13.328	13.171	13.483
ProbeTrack10	12	ProbeTrack	10.1	SCS215a	20100208.120053	20100208.121534	8	0.013328	60	10	60-180	60	73	GapExp	0	136	3	1	0	distractor	1	547	727	58640	13.328	13.225	13.410
ProbeTrack10	12	ProbeTrack	10.1	SCS215a	20100208.120053	20100208.121539	8	0.013328	60	10	60-180	60	62	GapExp	0	137	3	2	0	distractor	1	533	734	59374	13.328	13.292	13.363
ProbeTrack10	12	ProbeTrack	10.1	SCS215a	20100208.120053	20100208.121545	8	0.013328	60	10	60-180	60	150	GapExp	0	138	3	75	0	distractor	1	627	687	60061	13.328	13.252	13.404
ProbeTrack10	12	ProbeTrack	10.1	SCS215a	20100208.120053	20100208.121552	8	0.013328	60	10	60-180	60	172	GapExp	0	139	3	0	1	target	1	653	674	60735	13.371	13.017	26.684
ProbeTrack10	12	ProbeTrack	10.1	SCS215a	20100208.120053	20100208.121559	8	0.013328	60	10	60-180	60	127	GapExp	0	140	3	1	1	target	1	907	547	61282	13.328	13.293	13.362
ProbeTrack10	12	ProbeTrack	10.1	SCS215a	20100208.120053	20100208.121606	8	0.013328	60	10	60-180	60	161	GapExp	0	141	3	0	0	target	0	547	-1000	60282	13.328	13.154	13.500
ProbeTrack10	12	ProbeTrack	10.1	SCS215a	20100208.120053	20100208.121612	8	0.013328	60	10	60-180	60	100	GapExp	0	142	3	4	1	target	1	454	773	61055	13.327	13.101	13.555
ProbeTrack10	12	ProbeTrack	10.1	SCS215a	20100208.120053	20100208.121618	8	0.013328	60	10	60-180	60	77	GapExp	0	143	3	75	0	target	0	547	-1000	60055	13.328	13.105	13.583
ProbeTrack10	12	ProbeTrack	10.1	SCS215a	20100208.120053	20100208.121626	8	0.013328	60	10	60-180	60	179	GapExp	0	144	3	4	1	target	1	573	714	60769	13.328	13.289	13.379
ProbeTrack10	12	ProbeTrack	10.1	SCS215a	20100208.120053	20100208.121633	8	0.013328	60	10	60-180	60	129	GapExp	0	145	3	2	1	target	1	574	713	61482	13.328	13.150	13.538
ProbeTrack10	12	ProbeTrack	10.1	SCS215a	20100208.120053	20100208.121639	8	0.013328	60	10	60-180	60	68	GapExp	0	146	3	1	1	target	1	440	780	62262	13.328	13.163	13.493
ProbeTrack10	12	ProbeTrack	10.1	SCS215a	20100208.120053	20100208.121644	8	0.013328	60	10	60-180	60	143	GapExp	0	147	3	4	1	target	1	534	733	62995	13.328	13.172	13.484
ProbeTrack10	12	ProbeTrack	10.1	SCS215a	20100208.120053	20100208.121650	8	0.013328	60	10	60-180	60	110	GapExp	0	148	3	4	0	distractor	1	600	700	63695	13.328	13.293	13.363
ProbeTrack10	12	ProbeTrack	10.1	SCS215a	20100208.120053	20100208.121657	8	0.013328	60	10	60-180	60	65	GapExp	0	149	3	75	1	target	1	494	753	64448	13.328	13.292	13.380
ProbeTrack10	12	ProbeTrack	10.1	SCS215a	20100208.120053	20100208.121703	8	0.013328	60	10	60-180	60	160	GapExp	0	150	3	1	1	target	1	574	713	65161	13.328	13.092	13.530
ProbeTrack10	12	ProbeTrack	10.1	SCS215a	20100208.120053	20100208.121710	8	0.013328	60	10	60-180	60	110	GapExp	0	151	3	75	0	distractor	1	587	707	65868	13.328	13.100	13.555
ProbeTrack10	12	ProbeTrack	10.1	SCS215a	20100208.120053	20100208.121717	8	0.013328	60	10	60-180	60	144	GapExp	0	152	3	2	0	distractor	1	574	713	66581	13.328	13.293	13.362
ProbeTrack10	12	ProbeTrack	10.1	SCS215a	20100208.120053	20100208.121723	8	0.013328	60	10	60-180	60	139	GapExp	0	153	3	0	0	target	0	480	-1000	65581	13.328	13.288	13.367
ProbeTrack10	12	ProbeTrack	10.1	SCS215a	20100208.120053	20100208.121729	8	0.013328	60	10	60-180	60	177	GapExp	0	154	3	1	1	target	1	733	634	66215	13.328	13.167	13.521
ProbeTrack10	12	ProbeTrack	10.1	SCS215a	20100208.120053	20100208.121736	8	0.013328	60	10	60-180	60	165	GapExp	0	155	3	0	0	distractor	1	760	620	66835	13.328	13.113	13.508
ProbeTrack10	12	ProbeTrack	10.1	SCS215a	20100208.120053	20100208.121743	8	0.013328	60	10	60-180	60	99	GapExp	0	156	3	0	1	target	1	574	713	67548	13.327	13.293	13.363
ProbeTrack10	12	ProbeTrack	10.1	SCS215a	20100208.120053	20100208.121748	8	0.013328	60	10	60-180	60	157	GapExp	0	157	3	75	0	distractor	1	574	713	68261	13.328	13.071	13.584
ProbeTrack10	12	ProbeTrack	10.1	SCS215a	20100208.120053	20100208.121756	8	0.013328	60	10	60-180	60	146	GapExp	0	158	3	4	1	target	1	507	747	69008	13.328	13.192	13.497
ProbeTrack10	12	ProbeTrack	10.1	SCS215a	20100208.120053	20100208.121802	8	0.013328	60	10	60-180	60	67	GapExp	0	159	3	2	1	target	1	520	740	69748	13.328	13.292	13.365
ProbeTrack10	12	ProbeTrack	10.1	SCS215a	20100208.120053	20100208.121808	8	0.013328	60	10	60-180	60	177	GapExp	0	160	3	1	1	target	1	640	680	70428	13.328	13.098	13.524
ProbeTrack10	12	ProbeTrack	10.1	SCS215a	20100208.120053	20100208.121814	8	0.013328	60	10	60-180	60	78	GapExp	0	161	3	0	1	target	1	467	767	71195	13.328	13.233	13.423
ProbeTrack10	12	ProbeTrack	10.1	SCS215a	20100208.120053	20100208.121820	8	0.013328	60	10	60-180	60	64	GapExp	0	162	3	0	1	target	1	494	753	71948	13.328	13.089	13.599
ProbeTrack10	12	ProbeTrack	10.1	SCS215a	20100208.120053	20100208.121825	8	0.013328	60	10	60-180	60	121	GapExp	0	163	3	1	1	distractor	0	813	-1000	70948	13.328	13.144	13.478
ProbeTrack10	12	ProbeTrack	10.1	SCS215a	20100208.120053	20100208.121831	8	0.013328	60	10	60-180	60	127	GapExp	0	164	3	75	0	distractor	1	414	793	71741	13.328	13.158	13.496
ProbeTrack10	12	ProbeTrack	10.1	SCS215a	20100208.120053	20100208.121838	8	0.013328	60	10	60-180	60	179	GapExp	0	165	3	1	1	target	1	507	747	72488	13.328	13.228	13.393
ProbeTrack10	12	ProbeTrack	10.1	SCS215a	20100208.120053	20100208.121845	8	0.013328	60	10	60-180	60	105	GapExp	0	166	3	4	1	target	1	480	760	73248	13.328	13.280	13.376
ProbeTrack10	12	ProbeTrack	10.1	SCS215a	20100208.120053	20100208.121850	8	0.013328	60	10	60-180	60	105	GapExp	0	167	3	0	0	distractor	1	600	700	73948	13.329	13.287	13.368
ProbeTrack10	12	ProbeTrack	10.1	SCS215a	20100208.120053	20100208.121856	8	0.013328	60	10	60-180	60	151	GapExp	0	168	3	75	0	distractor	1	587	707	74655	13.328	13.234	13.454
ProbeTrack10	12	ProbeTrack	10.1	SCS215a	20100208.120053	20100208.121904	8	0.013328	60	10	60-180	60	140	GapExp	0	169	3	1	1	target	1	507	747	75402	13.328	13.293	13.391
ProbeTrack10	12	ProbeTrack	10.1	SCS215a	20100208.120053	20100208.121910	8	0.013328	60	10	60-180	60	82	GapExp	0	170	3	4	1	target	1	494	753	76155	13.328	12.975	13.647
ProbeTrack10	12	ProbeTrack	10.1	SCS215a	20100208.120053	20100208.121916	8	0.013328	60	10	60-180	60	169	GapExp	0	171	3	1	0	target	0	600	-1000	75155	13.328	13.088	13.533
ProbeTrack10	12	ProbeTrack	10.1	SCS215a	20100208.120053	20100208.121922	8	0.013328	60	10	60-180	60	124	GapExp	0	172	3	4	0	target	0	467	-1000	74155	13.328	13.292	13.363
ProbeTrack10	12	ProbeTrack	10.1	SCS215a	20100208.120053	20100208.121928	8	0.013328	60	10	60-180	60	99	GapExp	0	173	3	1	1	target	1	520	740	74895	13.328	13.066	13.581
ProbeTrack10	12	ProbeTrack	10.1	SCS215a	20100208.120053	20100208.121934	8	0.013328	60	10	60-180	60	116	GapExp	0	174	3	0	1	target	1	720	640	75535	13.328	13.293	13.363
ProbeTrack10	12	ProbeTrack	10.1	SCS215a	20100208.120053	20100208.121940	8	0.013328	60	10	60-180	60	117	GapExp	0	175	3	2	1	distractor	0	400	-1000	74535	13.327	13.124	13.531
ProbeTrack10	12	ProbeTrack	10.1	SCS215a	20100208.120053	20100208.121946	8	0.013328	60	10	60-180	60	77	GapExp	0	176	3	0	0	target	0	480	-1000	73535	13.328	13.293	13.363
ProbeTrack10	12	ProbeTrack	10.1	SCS215a	20100208.120053	20100208.121951	8	0.013328	60	10	60-180	60	64	GapExp	0	177	3	0	1	target	1	574	713	74248	13.328	13.129	13.525
ProbeTrack10	12	ProbeTrack	10.1	SCS215a	20100208.120053	20100208.121957	8	0.013328	60	10	60-180	60	174	GapExp	0	178	3	2	1	target	1	613	694	74942	13.328	13.275	13.380
ProbeTrack10	12	ProbeTrack	10.1	SCS215a	20100208.120053	20100208.122003	8	0.013328	60	10	60-180	60	129	GapExp	0	179	3	1	0	distractor	1	520	740	75682	13.328	13.267	13.389
ProbeTrack10	12	ProbeTrack	10.1	SCS215a	20100208.120053	20100208.122009	8	0.013328	60	10	60-180	60	71	GapExp	0	180	3	2	1	target	1	440	780	76462	13.328	13.091	13.597
ProbeTrack10	12	ProbeTrack	10.1	SCS215a	20100208.120053	20100208.122015	8	0.013328	60	10	60-180	60	75	GapExp	0	181	3	2	1	target	1	494	753	77215	13.328	13.237	13.419
ProbeTrack10	12	ProbeTrack	10.1	SCS215a	20100208.120053	20100208.122020	8	0.013328	60	10	60-180	60	61	GapExp	0	182	3	2	0	distractor	1	547	727	77942	13.327	13.292	13.363
ProbeTrack10	12	ProbeTrack	10.1	SCS215a	20100208.120053	20100208.122025	8	0.013328	60	10	60-180	60	112	GapExp	0	183	3	1	0	distractor	1	560	720	78662	13.328	13.025	13.597
ProbeTrack10	12	ProbeTrack	10.1	SCS215a	20100208.120053	20100208.122031	8	0.013328	60	10	60-180	60	178	GapExp	0	184	3	2	1	distractor	0	587	-1000	77662	13.328	13.012	13.676
ProbeTrack10	12	ProbeTrack	10.1	SCS215a	20100208.120053	20100208.122038	8	0.013328	60	10	60-180	60	86	GapExp	0	185	3	75	1	distractor	0	600	-1000	76662	13.328	13.293	13.363
ProbeTrack10	12	ProbeTrack	10.1	SCS215a	20100208.120053	20100208.122045	8	0.013328	60	10	60-180	60	176	GapExp	0	186	3	2	0	distractor	1	600	700	77362	13.328	13.258	13.429
ProbeTrack10	12	ProbeTrack	10.1	SCS215a	20100208.120053	20100208.122052	8	0.013328	60	10	60-180	60	155	GapExp	0	187	3	4	0	target	0	733	-1000	76362	13.328	13.151	13.471
ProbeTrack10	12	ProbeTrack	10.1	SCS215a	20100208.120053	20100208.122058	8	0.013328	60	10	60-180	60	92	GapExp	0	188	3	75	1	target	1	600	700	77062	13.327	13.263	13.415
ProbeTrack10	12	ProbeTrack	10.1	SCS215a	20100208.120053	20100208.122105	8	0.013328	60	10	60-180	60	151	GapExp	0	189	3	0	0	target	0	680	-1000	76062	13.328	13.293	13.363
ProbeTrack10	12	ProbeTrack	10.1	SCS215a	20100208.120053	20100208.122111	8	0.013328	60	10	60-180	60	157	GapExp	0	190	3	75	0	target	0	534	-1000	75062	13.328	13.289	13.363
ProbeTrack10	12	ProbeTrack	10.1	SCS215a	20100208.120053	20100208.122119	8	0.013328	60	10	60-180	60	125	GapExp	0	191	3	0	0	distractor	1	614	693	75755	13.328	13.293	13.363
ProbeTrack10	12	ProbeTrack	10.1	SCS215a	20100208.120053	20100208.122125	8	0.013328	60	10	60-180	60	138	GapExp	0	192	3	4	0	target	0	468	-1000	74755	13.328	13.218	13.437
ProbeTrack10	12	ProbeTrack	10.1	SCS215a	20100208.120053	20100208.122132	8	0.013328	60	10	60-180	60	155	GapExp	0	193	3	75	0	distractor	1	587	707	75462	13.401	13.134	39.890
ProbeTrack10	12	ProbeTrack	10.1	SCS215a	20100208.120053	20100208.122139	8	0.013328	60	10	60-180	60	64	GapExp	0	194	3	75	1	distractor	0	560	-1000	74462	13.328	13.288	13.368
ProbeTrack10	12	ProbeTrack	10.1	SCS215a	20100208.120053	20100208.122146	8	0.013328	60	10	60-180	60	107	GapExp	0	195	3	75	1	distractor	0	494	-1000	73462	13.328	13.253	13.404
ProbeTrack10	12	ProbeTrack	10.1	SCS215a	20100208.120053	20100208.122153	8	0.013328	60	10	60-180	60	164	GapExp	0	196	3	2	1	target	1	494	753	74215	13.328	13.293	13.366
ProbeTrack10	12	ProbeTrack	10.1	SCS215a	20100208.120053	20100208.122159	8	0.013328	60	10	60-180	60	87	GapExp	0	197	3	1	0	distractor	1	547	727	74942	13.328	13.057	13.599
ProbeTrack10	12	ProbeTrack	10.1	SCS215a	20100208.120053	20100208.122205	8	0.013328	60	10	60-180	60	93	GapExp	0	198	3	1	1	target	1	547	727	75669	13.328	13.277	13.378
ProbeTrack10	12	ProbeTrack	10.1	SCS215a	20100208.120053	20100208.122210	8	0.013328	60	10	60-180	60	101	GapExp	0	199	3	4	0	distractor	1	440	780	76449	13.328	13.134	13.556
ProbeTrack10	12	ProbeTrack	10.1	SCS215a	20100208.120053	20100208.122216	8	0.013328	60	10	60-180	60	63	GapExp	0	200	3	4	0	target	0	549	-1000	75449	13.328	13.273	13.383
ProbeTrack10	12	ProbeTrack	10.1	SCS215a	20100208.120053	20100208.122222	8	0.013328	60	10	60-180	60	74	GapExp	0	201	3	4	0	distractor	1	520	740	76189	13.328	13.293	13.363
ProbeTrack10	12	ProbeTrack	10.1	SCS215a	20100208.120053	20100208.122227	8	0.013328	60	10	60-180	60	162	GapExp	0	202	3	0	0	distractor	1	467	767	76956	13.328	13.293	13.363
ProbeTrack10	12	ProbeTrack	10.1	SCS215a	20100208.120053	20100208.122234	8	0.013328	60	10	60-180	60	73	GapExp	0	203	3	2	0	distractor	1	440	780	77736	13.328	13.293	13.362
ProbeTrack10	12	ProbeTrack	10.1	SCS215a	20100208.120053	20100208.122239	8	0.013328	60	10	60-180	60	77	GapExp	0	204	3	75	1	target	1	587	707	78443	13.328	13.238	13.384
ProbeTrack10	12	ProbeTrack	10.1	SCS215a	20100208.120053	20100208.122246	8	0.013328	60	10	60-180	60	168	GapExp	0	205	3	2	0	target	0	494	-1000	77443	13.328	13.192	13.462
ProbeTrack10	12	ProbeTrack	10.1	SCS215a	20100208.120053	20100208.122253	8	0.013328	60	10	60-180	60	120	GapExp	0	206	3	4	0	distractor	1	480	760	78203	13.328	13.283	13.363
ProbeTrack10	12	ProbeTrack	10.1	SCS215a	20100208.120053	20100208.122259	8	0.013328	60	10	60-180	60	98	GapExp	0	207	3	1	0	distractor	1	574	713	78916	13.327	13.088	13.599
ProbeTrack10	12	ProbeTrack	10.1	SCS215a	20100208.120053	20100208.122305	8	0.013328	60	10	60-180	60	88	GapExp	0	208	3	1	0	distractor	1	400	800	79716	13.328	13.293	13.362
ProbeTrack10	12	ProbeTrack	10.1	SCS215a	20100208.120053	20100208.122310	8	0.013328	60	10	60-180	60	143	GapExp	0	209	3	4	0	distractor	1	587	707	80423	13.328	13.293	13.363
ProbeTrack10	12	ProbeTrack	10.1	SCS215a	20100208.120053	20100208.122318	8	0.013328	60	10	60-180	60	125	GapExp	0	210	3	75	0	distractor	1	440	780	81203	13.328	13.190	13.498
