exp	sub	code	rev	comp	runtime	trialtime	nstim	refreshdur	cuedur	gapdur	gapOnsetRange	durPostProbe	gapOnsetTime	blocktype	prac	trial	ntargets	soa	probeTarget	resp	acc	rt	pts	tpts	meanFrameDur	minFrameDur	maxFrameDur
ProbeTrack10	8	ProbeTrack	10.1	SCS215a	20090813.110546	20090813.110656	8	0.013328	60	0	60-180	60	119	NoGap	1	1	3	4	1	target	1	987	507	507	13.328	13.293	13.363
ProbeTrack10	8	ProbeTrack	10.1	SCS215a	20090813.110546	20090813.110731	8	0.013328	60	0	60-180	60	162	NoGap	1	2	3	75	0	distractor	1	1253	374	881	13.328	13.293	13.363
ProbeTrack10	8	ProbeTrack	10.1	SCS215a	20090813.110546	20090813.110837	8	0.013328	60	0	60-180	60	115	NoGap	1	3	3	2	1	target	1	613	694	1575	13.328	13.293	13.363
ProbeTrack10	8	ProbeTrack	10.1	SCS215a	20090813.110546	20090813.110900	8	0.013328	60	0	60-180	60	146	NoGap	1	4	3	4	0	target	0	480	-1000	575	13.328	13.293	13.363
ProbeTrack10	8	ProbeTrack	10.1	SCS215a	20090813.110546	20090813.110908	8	0.013328	60	0	60-180	60	72	NoGap	1	5	3	2	0	target	0	600	-1000	-425	13.328	13.293	13.363
ProbeTrack10	8	ProbeTrack	10.1	SCS215a	20090813.110546	20090813.110914	8	0.013328	60	0	60-180	60	140	NoGap	1	6	3	0	1	distractor	0	400	-1000	-1425	13.328	13.293	13.363
ProbeTrack10	8	ProbeTrack	10.1	SCS215a	20090813.110546	20090813.110923	8	0.013328	60	0	60-180	60	106	NoGap	1	7	3	0	1	target	1	627	687	-738	13.328	13.293	13.363
ProbeTrack10	8	ProbeTrack	10.1	SCS215a	20090813.110546	20090813.110930	8	0.013328	60	0	60-180	60	93	NoGap	1	8	3	1	0	distractor	1	627	687	-51	13.328	13.293	13.363
ProbeTrack10	8	ProbeTrack	10.1	SCS215a	20090813.110546	20090813.110936	8	0.013328	60	0	60-180	60	139	NoGap	1	9	3	75	0	distractor	1	534	733	682	13.328	13.293	13.363
ProbeTrack10	8	ProbeTrack	10.1	SCS215a	20090813.110546	20090813.110944	8	0.013328	60	0	60-180	60	156	NoGap	1	10	3	2	1	distractor	0	414	-1000	-318	13.328	13.293	13.363
ProbeTrack10	8	ProbeTrack	10.1	SCS215a	20090813.110546	20090813.110951	8	0.013328	60	0	60-180	60	106	NoGap	1	11	3	0	0	distractor	1	667	667	349	13.328	13.293	13.363
ProbeTrack10	8	ProbeTrack	10.1	SCS215a	20090813.110546	20090813.110957	8	0.013328	60	0	60-180	60	165	NoGap	1	12	3	0	1	distractor	0	627	-1000	-651	13.328	13.293	13.363
ProbeTrack10	8	ProbeTrack	10.1	SCS215a	20090813.110546	20090813.111005	8	0.013328	60	0	60-180	60	66	NoGap	1	13	3	1	1	target	1	440	780	129	13.328	13.293	13.363
ProbeTrack10	8	ProbeTrack	10.1	SCS215a	20090813.110546	20090813.111010	8	0.013328	60	0	60-180	60	135	NoGap	1	14	3	4	0	distractor	1	494	753	882	13.328	13.293	13.368
ProbeTrack10	8	ProbeTrack	10.1	SCS215a	20090813.110546	20090813.111017	8	0.013328	60	0	60-180	60	109	NoGap	1	15	3	75	1	target	1	520	740	1622	13.328	13.293	13.363
ProbeTrack10	8	ProbeTrack	10.1	SCS215a	20090813.110546	20090813.111024	8	0.013328	60	0	60-180	60	74	NoGap	1	16	3	4	0	distractor	1	600	700	2322	13.328	13.293	13.362
ProbeTrack10	8	ProbeTrack	10.1	SCS215a	20090813.110546	20090813.111030	8	0.013328	60	0	60-180	60	96	NoGap	1	17	3	2	0	distractor	1	454	773	3095	13.328	13.293	13.363
ProbeTrack10	8	ProbeTrack	10.1	SCS215a	20090813.110546	20090813.111036	8	0.013328	60	0	60-180	60	109	NoGap	1	18	3	1	0	distractor	1	640	680	3775	13.328	13.293	13.363
ProbeTrack10	8	ProbeTrack	10.1	SCS215a	20090813.110546	20090813.111043	8	0.013328	60	0	60-180	60	70	NoGap	1	19	3	0	0	distractor	1	600	700	4475	13.328	13.293	13.363
ProbeTrack10	8	ProbeTrack	10.1	SCS215a	20090813.110546	20090813.111049	8	0.013328	60	0	60-180	60	94	NoGap	1	20	3	75	1	target	1	667	667	5142	13.328	13.293	13.363
ProbeTrack10	8	ProbeTrack	10.1	SCS215a	20090813.110546	20090813.111056	8	0.013328	60	0	60-180	60	66	NoGap	1	21	3	2	1	target	1	547	727	5869	13.328	13.293	13.363
ProbeTrack10	8	ProbeTrack	10.1	SCS215a	20090813.110546	20090813.111102	8	0.013328	60	0	60-180	60	142	NoGap	1	22	3	2	0	distractor	1	454	773	6642	13.328	13.293	13.363
ProbeTrack10	8	ProbeTrack	10.1	SCS215a	20090813.110546	20090813.111108	8	0.013328	60	0	60-180	60	156	NoGap	1	23	3	4	1	target	1	534	733	7375	13.328	13.293	13.363
ProbeTrack10	8	ProbeTrack	10.1	SCS215a	20090813.110546	20090813.111115	8	0.013328	60	0	60-180	60	148	NoGap	1	24	3	75	0	distractor	1	587	707	8082	13.328	13.293	13.363
ProbeTrack10	8	ProbeTrack	10.1	SCS215a	20090813.110546	20090813.111123	8	0.013328	60	0	60-180	60	113	NoGap	1	25	3	2	1	target	1	520	740	8822	13.328	13.293	13.363
ProbeTrack10	8	ProbeTrack	10.1	SCS215a	20090813.110546	20090813.111129	8	0.013328	60	0	60-180	60	67	NoGap	1	26	3	1	1	distractor	0	480	-1000	7822	13.328	13.293	13.363
ProbeTrack10	8	ProbeTrack	10.1	SCS215a	20090813.110546	20090813.111134	8	0.013328	60	0	60-180	60	152	NoGap	1	27	3	1	1	target	1	547	727	8549	13.328	13.293	13.363
ProbeTrack10	8	ProbeTrack	10.1	SCS215a	20090813.110546	20090813.111141	8	0.013328	60	0	60-180	60	120	NoGap	1	28	3	75	0	distractor	1	587	707	9256	13.328	13.293	13.363
ProbeTrack10	8	ProbeTrack	10.1	SCS215a	20090813.110546	20090813.111148	8	0.013328	60	0	60-180	60	168	NoGap	1	29	3	4	1	target	1	467	767	10023	13.328	13.293	13.363
ProbeTrack10	8	ProbeTrack	10.1	SCS215a	20090813.110546	20090813.111155	8	0.013328	60	0	60-180	60	170	NoGap	1	30	3	0	0	distractor	1	653	674	10697	13.328	13.293	13.363
ProbeTrack10	8	ProbeTrack	10.1	SCS215a	20090813.110546	20090813.111202	8	0.013328	60	0	60-180	60	121	NoGap	1	31	3	0	0	distractor	1	893	554	11251	13.328	13.293	13.363
ProbeTrack10	8	ProbeTrack	10.1	SCS215a	20090813.110546	20090813.111208	8	0.013328	60	0	60-180	60	93	NoGap	1	32	3	4	1	target	1	520	740	11991	13.328	13.293	13.366
ProbeTrack10	8	ProbeTrack	10.1	SCS215a	20090813.110546	20090813.111214	8	0.013328	60	0	60-180	60	100	NoGap	1	33	3	75	1	target	1	454	773	12764	13.328	13.293	13.363
ProbeTrack10	8	ProbeTrack	10.1	SCS215a	20090813.110546	20090813.111221	8	0.013328	60	0	60-180	60	179	NoGap	1	34	3	0	1	target	1	547	727	13491	13.328	13.293	13.363
ProbeTrack10	8	ProbeTrack	10.1	SCS215a	20090813.110546	20090813.111228	8	0.013328	60	0	60-180	60	156	NoGap	1	35	3	1	1	target	1	440	780	14271	13.328	13.293	13.363
ProbeTrack10	8	ProbeTrack	10.1	SCS215a	20090813.110546	20090813.111235	8	0.013328	60	0	60-180	60	93	NoGap	1	36	3	1	0	distractor	1	600	700	14971	13.328	13.293	13.363
ProbeTrack10	8	ProbeTrack	10.1	SCS215a	20090813.110546	20090813.111241	8	0.013328	60	0	60-180	60	81	NoGap	1	37	3	2	0	distractor	1	440	780	15751	13.328	13.293	13.363
ProbeTrack10	8	ProbeTrack	10.1	SCS215a	20090813.110546	20090813.111246	8	0.013328	60	0	60-180	60	141	NoGap	1	38	3	1	0	distractor	1	573	714	16465	13.328	13.293	13.363
ProbeTrack10	8	ProbeTrack	10.1	SCS215a	20090813.110546	20090813.111253	8	0.013328	60	0	60-180	60	66	NoGap	1	39	3	75	1	distractor	0	867	-1000	15465	13.328	13.293	13.363
ProbeTrack10	8	ProbeTrack	10.1	SCS215a	20090813.110546	20090813.111300	8	0.013328	60	0	60-180	60	91	NoGap	1	40	3	4	0	distractor	1	813	594	16059	13.328	13.293	13.363
ProbeTrack10	8	ProbeTrack	10.1	SCS215a	20090813.111340	20090813.111407	8	0.013327	60	10	60-180	60	97	GapPrac	1	1	3	0	1	target	1	760	620	16679	13.328	13.293	13.363
ProbeTrack10	8	ProbeTrack	10.1	SCS215a	20090813.111340	20090813.111414	8	0.013327	60	10	60-180	60	158	GapPrac	1	2	3	1	1	target	1	680	660	17339	13.328	13.293	13.363
ProbeTrack10	8	ProbeTrack	10.1	SCS215a	20090813.111340	20090813.111432	8	0.013327	60	10	60-180	60	115	GapPrac	1	3	3	0	0	distractor	1	707	647	17986	13.328	13.293	13.363
ProbeTrack10	8	ProbeTrack	10.1	SCS215a	20090813.111340	20090813.111438	8	0.013327	60	10	60-180	60	130	GapPrac	1	4	3	75	1	target	1	507	747	18733	13.328	13.293	13.363
ProbeTrack10	8	ProbeTrack	10.1	SCS215a	20090813.111340	20090813.111446	8	0.013327	60	10	60-180	60	148	GapPrac	1	5	3	75	1	distractor	0	827	-1000	17733	13.328	13.293	13.363
ProbeTrack10	8	ProbeTrack	10.1	SCS215a	20090813.111340	20090813.111454	8	0.013327	60	10	60-180	60	146	GapPrac	1	6	3	1	0	target	0	880	-1000	16733	13.328	13.288	13.366
ProbeTrack10	8	ProbeTrack	10.1	SCS215a	20090813.111340	20090813.111501	8	0.013327	60	10	60-180	60	170	GapPrac	1	7	3	4	0	distractor	1	787	607	17340	13.328	13.289	13.367
ProbeTrack10	8	ProbeTrack	10.1	SCS215a	20090813.111340	20090813.111509	8	0.013327	60	10	60-180	60	180	GapPrac	1	8	3	4	1	distractor	0	547	-1000	16340	13.328	13.293	13.363
ProbeTrack10	8	ProbeTrack	10.1	SCS215a	20090813.111340	20090813.111516	8	0.013327	60	10	60-180	60	119	GapPrac	1	9	3	75	0	target	0	574	-1000	15340	13.328	13.293	13.363
ProbeTrack10	8	ProbeTrack	10.1	SCS215a	20090813.111340	20090813.111524	8	0.013327	60	10	60-180	60	156	GapPrac	1	10	3	1	1	distractor	0	867	-1000	14340	13.328	13.293	13.363
ProbeTrack10	8	ProbeTrack	10.1	SCS215a	20090813.111340	20090813.111531	8	0.013327	60	10	60-180	60	129	GapPrac	1	11	3	2	1	target	1	467	767	15107	13.328	13.293	13.363
ProbeTrack10	8	ProbeTrack	10.1	SCS215a	20090813.111340	20090813.111538	8	0.013327	60	10	60-180	60	177	GapPrac	1	12	3	0	1	target	1	440	780	15887	13.328	13.290	13.365
ProbeTrack10	8	ProbeTrack	10.1	SCS215a	20090813.111340	20090813.111545	8	0.013327	60	10	60-180	60	107	GapPrac	1	13	3	4	1	target	1	440	780	16667	13.328	13.293	13.363
ProbeTrack10	8	ProbeTrack	10.1	SCS215a	20090813.111340	20090813.111551	8	0.013327	60	10	60-180	60	110	GapPrac	1	14	3	0	0	target	0	454	-1000	15667	13.328	13.293	13.363
ProbeTrack10	8	ProbeTrack	10.1	SCS215a	20090813.111340	20090813.111557	8	0.013327	60	10	60-180	60	107	GapPrac	1	15	3	75	0	distractor	1	560	720	16387	13.328	13.293	13.363
ProbeTrack10	8	ProbeTrack	10.1	SCS215a	20090813.111340	20090813.111604	8	0.013327	60	10	60-180	60	108	GapPrac	1	16	3	2	0	distractor	1	747	627	17014	13.328	13.293	13.366
ProbeTrack10	8	ProbeTrack	10.1	SCS215a	20090813.111340	20090813.111611	8	0.013327	60	10	60-180	60	175	GapPrac	1	17	3	2	0	distractor	1	680	660	17674	13.328	13.289	13.363
ProbeTrack10	8	ProbeTrack	10.1	SCS215a	20090813.111340	20090813.111618	8	0.013327	60	10	60-180	60	95	GapPrac	1	18	3	4	0	distractor	1	587	707	18381	13.328	13.292	13.363
ProbeTrack10	8	ProbeTrack	10.1	SCS215a	20090813.111340	20090813.111625	8	0.013327	60	10	60-180	60	154	GapPrac	1	19	3	1	0	distractor	1	733	634	19015	13.328	13.293	13.363
ProbeTrack10	8	ProbeTrack	10.1	SCS215a	20090813.111340	20090813.111632	8	0.013327	60	10	60-180	60	139	GapPrac	1	20	3	2	1	target	1	454	773	19788	13.328	13.293	13.363
ProbeTrack10	8	ProbeTrack	10.1	SCS215a	20090813.111717	20090813.111751	8	0.013328	60	10	60-180	60	155	GapExp	1	1	3	4	1	target	1	547	727	20515	13.328	13.293	13.363
ProbeTrack10	8	ProbeTrack	10.1	SCS215a	20090813.111717	20090813.111811	8	0.013328	60	10	60-180	60	89	GapExp	1	2	3	1	1	target	1	360	820	21335	13.328	13.293	13.363
ProbeTrack10	8	ProbeTrack	10.1	SCS215a	20090813.111717	20090813.111817	8	0.013328	60	10	60-180	60	84	GapExp	1	3	3	2	0	distractor	1	587	707	22042	13.328	13.293	13.364
ProbeTrack10	8	ProbeTrack	10.1	SCS215a	20090813.111717	20090813.111823	8	0.013328	60	10	60-180	60	180	GapExp	1	4	3	75	1	target	1	560	720	22762	13.328	13.289	13.363
ProbeTrack10	8	ProbeTrack	10.1	SCS215a	20090813.111717	20090813.111832	8	0.013328	60	10	60-180	60	110	GapExp	1	5	3	0	1	target	1	507	747	23509	13.328	13.293	13.363
ProbeTrack10	8	ProbeTrack	10.1	SCS215a	20090813.111717	20090813.111838	8	0.013328	60	10	60-180	60	65	GapExp	1	6	3	4	0	target	0	480	-1000	22509	13.328	13.293	13.363
ProbeTrack10	8	ProbeTrack	10.1	SCS215a	20090813.111717	20090813.111843	8	0.013328	60	10	60-180	60	112	GapExp	1	7	3	75	0	distractor	1	653	674	23183	13.328	13.283	13.363
ProbeTrack10	8	ProbeTrack	10.1	SCS215a	20090813.111717	20090813.111851	8	0.013328	60	10	60-180	60	77	GapExp	1	8	3	1	0	distractor	1	760	620	23803	13.328	13.293	13.363
ProbeTrack10	8	ProbeTrack	10.1	SCS215a	20090813.111717	20090813.111857	8	0.013328	60	10	60-180	60	126	GapExp	1	9	3	0	0	distractor	1	680	660	24463	13.328	13.293	13.363
ProbeTrack10	8	ProbeTrack	10.1	SCS215a	20090813.111717	20090813.111903	8	0.013328	60	10	60-180	60	174	GapExp	1	10	3	2	1	target	1	467	767	25230	13.328	13.293	13.363
ProbeTrack10	8	ProbeTrack	10.1	SCS215a	20090813.111717	20090813.111910	8	0.013328	60	10	60-180	60	127	GapExp	0	11	3	0	1	target	1	507	747	25977	13.328	13.293	13.363
ProbeTrack10	8	ProbeTrack	10.1	SCS215a	20090813.111717	20090813.111917	8	0.013328	60	10	60-180	60	180	GapExp	0	12	3	1	1	target	1	480	760	26737	13.328	13.293	13.363
ProbeTrack10	8	ProbeTrack	10.1	SCS215a	20090813.111717	20090813.111924	8	0.013328	60	10	60-180	60	84	GapExp	0	13	3	1	1	target	1	400	800	27537	13.328	13.293	13.365
ProbeTrack10	8	ProbeTrack	10.1	SCS215a	20090813.111717	20090813.111929	8	0.013328	60	10	60-180	60	82	GapExp	0	14	3	4	0	distractor	1	734	633	28170	13.328	13.293	13.363
ProbeTrack10	8	ProbeTrack	10.1	SCS215a	20090813.111717	20090813.111935	8	0.013328	60	10	60-180	60	118	GapExp	0	15	3	1	0	target	0	587	-1000	27170	13.328	13.293	13.363
ProbeTrack10	8	ProbeTrack	10.1	SCS215a	20090813.111717	20090813.111942	8	0.013328	60	10	60-180	60	137	GapExp	0	16	3	0	0	distractor	1	787	607	27777	13.328	13.293	13.363
ProbeTrack10	8	ProbeTrack	10.1	SCS215a	20090813.111717	20090813.111949	8	0.013328	60	10	60-180	60	97	GapExp	0	17	3	75	0	target	0	587	-1000	26777	13.328	13.293	13.363
ProbeTrack10	8	ProbeTrack	10.1	SCS215a	20090813.111717	20090813.111956	8	0.013328	60	10	60-180	60	87	GapExp	0	18	3	0	0	target	0	773	-1000	25777	13.328	13.293	13.363
ProbeTrack10	8	ProbeTrack	10.1	SCS215a	20090813.111717	20090813.112003	8	0.013328	60	10	60-180	60	63	GapExp	0	19	3	4	0	distractor	1	627	687	26464	13.328	13.293	13.363
ProbeTrack10	8	ProbeTrack	10.1	SCS215a	20090813.111717	20090813.112008	8	0.013328	60	10	60-180	60	101	GapExp	0	20	3	0	1	target	1	494	753	27217	13.328	13.293	13.363
ProbeTrack10	8	ProbeTrack	10.1	SCS215a	20090813.111717	20090813.112014	8	0.013328	60	10	60-180	60	140	GapExp	0	21	3	2	1	target	1	467	767	27984	13.328	13.293	13.363
ProbeTrack10	8	ProbeTrack	10.1	SCS215a	20090813.111717	20090813.112021	8	0.013328	60	10	60-180	60	65	GapExp	0	22	3	4	0	distractor	1	587	707	28691	13.328	13.293	13.363
ProbeTrack10	8	ProbeTrack	10.1	SCS215a	20090813.111717	20090813.112027	8	0.013328	60	10	60-180	60	103	GapExp	0	23	3	75	0	distractor	1	640	680	29371	13.328	13.289	13.367
ProbeTrack10	8	ProbeTrack	10.1	SCS215a	20090813.111717	20090813.112034	8	0.013328	60	10	60-180	60	167	GapExp	0	24	3	4	0	distractor	1	587	707	30078	13.328	13.293	13.363
ProbeTrack10	8	ProbeTrack	10.1	SCS215a	20090813.111717	20090813.112041	8	0.013328	60	10	60-180	60	106	GapExp	0	25	3	4	1	target	1	494	753	30831	13.328	13.293	13.363
ProbeTrack10	8	ProbeTrack	10.1	SCS215a	20090813.111717	20090813.112047	8	0.013328	60	10	60-180	60	162	GapExp	0	26	3	2	1	distractor	0	414	-1000	29831	13.328	13.293	13.363
ProbeTrack10	8	ProbeTrack	10.1	SCS215a	20090813.111717	20090813.112054	8	0.013328	60	10	60-180	60	81	GapExp	0	27	3	4	1	target	1	454	773	30604	13.328	13.293	13.363
ProbeTrack10	8	ProbeTrack	10.1	SCS215a	20090813.111717	20090813.112059	8	0.013328	60	10	60-180	60	105	GapExp	0	28	3	1	0	target	0	693	-1000	29604	13.328	13.293	13.363
ProbeTrack10	8	ProbeTrack	10.1	SCS215a	20090813.111717	20090813.112106	8	0.013328	60	10	60-180	60	171	GapExp	0	29	3	1	0	distractor	1	600	700	30304	13.328	13.288	13.366
ProbeTrack10	8	ProbeTrack	10.1	SCS215a	20090813.111717	20090813.112113	8	0.013328	60	10	60-180	60	161	GapExp	0	30	3	0	1	target	1	1013	494	30798	13.328	13.293	13.363
ProbeTrack10	8	ProbeTrack	10.1	SCS215a	20090813.111717	20090813.112120	8	0.013328	60	10	60-180	60	114	GapExp	0	31	3	0	1	target	1	480	760	31558	13.328	13.290	13.363
ProbeTrack10	8	ProbeTrack	10.1	SCS215a	20090813.111717	20090813.112127	8	0.013328	60	10	60-180	60	74	GapExp	0	32	3	4	0	distractor	1	573	714	32272	13.328	13.290	13.365
ProbeTrack10	8	ProbeTrack	10.1	SCS215a	20090813.111717	20090813.112133	8	0.013328	60	10	60-180	60	163	GapExp	0	33	3	4	0	distractor	1	494	753	33025	13.328	13.293	13.363
ProbeTrack10	8	ProbeTrack	10.1	SCS215a	20090813.111717	20090813.112140	8	0.013328	60	10	60-180	60	90	GapExp	0	34	3	75	0	distractor	1	467	767	33792	13.328	13.293	13.363
ProbeTrack10	8	ProbeTrack	10.1	SCS215a	20090813.111717	20090813.112147	8	0.013328	60	10	60-180	60	82	GapExp	0	35	3	4	0	distractor	1	573	714	34506	13.328	13.292	13.363
ProbeTrack10	8	ProbeTrack	10.1	SCS215a	20090813.111717	20090813.112153	8	0.013328	60	10	60-180	60	137	GapExp	0	36	3	0	1	target	1	653	674	35180	13.328	13.289	13.363
ProbeTrack10	8	ProbeTrack	10.1	SCS215a	20090813.111717	20090813.112159	8	0.013328	60	10	60-180	60	72	GapExp	0	37	3	75	0	distractor	1	534	733	35913	13.328	13.291	13.366
ProbeTrack10	8	ProbeTrack	10.1	SCS215a	20090813.111717	20090813.112206	8	0.013328	60	10	60-180	60	162	GapExp	0	38	3	75	1	distractor	0	720	-1000	34913	13.328	13.293	13.363
ProbeTrack10	8	ProbeTrack	10.1	SCS215a	20090813.111717	20090813.112214	8	0.013328	60	10	60-180	60	70	GapExp	0	39	3	2	0	distractor	1	760	620	35533	13.328	13.293	13.363
ProbeTrack10	8	ProbeTrack	10.1	SCS215a	20090813.111717	20090813.112220	8	0.013328	60	10	60-180	60	97	GapExp	0	40	3	4	1	target	1	520	740	36273	13.328	13.293	13.363
ProbeTrack10	8	ProbeTrack	10.1	SCS215a	20090813.111717	20090813.112226	8	0.013328	60	10	60-180	60	93	GapExp	0	41	3	0	0	distractor	1	547	727	37000	13.328	13.293	13.363
ProbeTrack10	8	ProbeTrack	10.1	SCS215a	20090813.111717	20090813.112232	8	0.013328	60	10	60-180	60	88	GapExp	0	42	3	75	0	distractor	1	507	747	37747	13.328	13.293	13.363
ProbeTrack10	8	ProbeTrack	10.1	SCS215a	20090813.111717	20090813.112239	8	0.013328	60	10	60-180	60	71	GapExp	0	43	3	75	1	target	1	480	760	38507	13.328	13.293	13.363
ProbeTrack10	8	ProbeTrack	10.1	SCS215a	20090813.111717	20090813.112246	8	0.013328	60	10	60-180	60	64	GapExp	0	44	3	4	1	target	1	400	800	39307	13.328	13.289	13.365
ProbeTrack10	8	ProbeTrack	10.1	SCS215a	20090813.111717	20090813.112251	8	0.013328	60	10	60-180	60	160	GapExp	0	45	3	1	0	distractor	1	440	780	40087	13.328	13.293	13.363
ProbeTrack10	8	ProbeTrack	10.1	SCS215a	20090813.111717	20090813.112258	8	0.013328	60	10	60-180	60	102	GapExp	0	46	3	2	1	target	1	334	833	40920	13.328	13.293	13.363
ProbeTrack10	8	ProbeTrack	10.1	SCS215a	20090813.111717	20090813.112304	8	0.013328	60	10	60-180	60	70	GapExp	0	47	3	0	0	distractor	1	494	753	41673	13.328	13.293	13.363
ProbeTrack10	8	ProbeTrack	10.1	SCS215a	20090813.111717	20090813.112310	8	0.013328	60	10	60-180	60	95	GapExp	0	48	3	75	0	distractor	1	520	740	42413	13.328	13.293	13.363
ProbeTrack10	8	ProbeTrack	10.1	SCS215a	20090813.111717	20090813.112317	8	0.013328	60	10	60-180	60	109	GapExp	0	49	3	1	1	target	1	387	807	43220	13.328	13.293	13.363
ProbeTrack10	8	ProbeTrack	10.1	SCS215a	20090813.111717	20090813.112323	8	0.013328	60	10	60-180	60	91	GapExp	0	50	3	2	0	target	0	640	-1000	42220	13.328	13.289	13.367
ProbeTrack10	8	ProbeTrack	10.1	SCS215a	20090813.111717	20090813.112329	8	0.013328	60	10	60-180	60	176	GapExp	0	51	3	4	0	distractor	1	520	740	42960	13.328	13.290	13.363
ProbeTrack10	8	ProbeTrack	10.1	SCS215a	20090813.111717	20090813.112336	8	0.013328	60	10	60-180	60	64	GapExp	0	52	3	75	0	distractor	1	587	707	43667	13.328	13.293	13.363
ProbeTrack10	8	ProbeTrack	10.1	SCS215a	20090813.111717	20090813.112343	8	0.013328	60	10	60-180	60	149	GapExp	0	53	3	1	1	target	1	494	753	44420	13.328	13.293	13.363
ProbeTrack10	8	ProbeTrack	10.1	SCS215a	20090813.111717	20090813.112350	8	0.013328	60	10	60-180	60	67	GapExp	0	54	3	2	1	target	1	427	787	45207	13.328	13.293	13.363
ProbeTrack10	8	ProbeTrack	10.1	SCS215a	20090813.111717	20090813.112356	8	0.013328	60	10	60-180	60	115	GapExp	0	55	3	0	0	distractor	1	587	707	45914	13.328	13.293	13.363
ProbeTrack10	8	ProbeTrack	10.1	SCS215a	20090813.111717	20090813.112402	8	0.013328	60	10	60-180	60	173	GapExp	0	56	3	0	1	target	1	400	800	46714	13.328	13.293	13.363
ProbeTrack10	8	ProbeTrack	10.1	SCS215a	20090813.111717	20090813.112409	8	0.013328	60	10	60-180	60	90	GapExp	0	57	3	75	1	distractor	0	427	-1000	45714	13.328	13.290	13.363
ProbeTrack10	8	ProbeTrack	10.1	SCS215a	20090813.111717	20090813.112416	8	0.013328	60	10	60-180	60	157	GapExp	0	58	3	2	1	target	1	467	767	46481	13.328	13.293	13.367
ProbeTrack10	8	ProbeTrack	10.1	SCS215a	20090813.111717	20090813.112424	8	0.013328	60	10	60-180	60	129	GapExp	0	59	3	2	0	target	0	400	-1000	45481	13.328	13.290	13.366
ProbeTrack10	8	ProbeTrack	10.1	SCS215a	20090813.111717	20090813.112431	8	0.013328	60	10	60-180	60	125	GapExp	0	60	3	2	0	distractor	1	520	740	46221	13.328	13.290	13.366
ProbeTrack10	8	ProbeTrack	10.1	SCS215a	20090813.111717	20090813.112437	8	0.013328	60	10	60-180	60	74	GapExp	0	61	3	75	0	distractor	1	454	773	46994	13.328	13.293	13.363
ProbeTrack10	8	ProbeTrack	10.1	SCS215a	20090813.111717	20090813.112444	8	0.013328	60	10	60-180	60	74	GapExp	0	62	3	4	1	distractor	0	640	-1000	45994	13.328	13.293	13.363
ProbeTrack10	8	ProbeTrack	10.1	SCS215a	20090813.111717	20090813.112450	8	0.013328	60	10	60-180	60	176	GapExp	0	63	3	2	0	distractor	1	653	674	46668	13.328	13.293	13.363
ProbeTrack10	8	ProbeTrack	10.1	SCS215a	20090813.111717	20090813.112457	8	0.013328	60	10	60-180	60	171	GapExp	0	64	3	2	0	target	0	494	-1000	45668	13.328	13.293	13.363
ProbeTrack10	8	ProbeTrack	10.1	SCS215a	20090813.111717	20090813.112504	8	0.013328	60	10	60-180	60	120	GapExp	0	65	3	0	0	distractor	1	547	727	46395	13.328	13.293	13.363
ProbeTrack10	8	ProbeTrack	10.1	SCS215a	20090813.111717	20090813.112510	8	0.013328	60	10	60-180	60	174	GapExp	0	66	3	75	1	target	1	534	733	47128	13.328	13.293	13.368
ProbeTrack10	8	ProbeTrack	10.1	SCS215a	20090813.111717	20090813.112518	8	0.013328	60	10	60-180	60	153	GapExp	0	67	3	2	0	distractor	1	454	773	47901	13.328	13.293	13.363
ProbeTrack10	8	ProbeTrack	10.1	SCS215a	20090813.111717	20090813.112525	8	0.013328	60	10	60-180	60	74	GapExp	0	68	3	1	0	target	0	454	-1000	46901	13.328	13.293	13.363
ProbeTrack10	8	ProbeTrack	10.1	SCS215a	20090813.111717	20090813.112530	8	0.013328	60	10	60-180	60	154	GapExp	0	69	3	1	1	target	1	653	674	47575	13.328	13.293	13.363
ProbeTrack10	8	ProbeTrack	10.1	SCS215a	20090813.111717	20090813.112537	8	0.013328	60	10	60-180	60	97	GapExp	0	70	3	75	0	distractor	1	387	807	48382	13.328	13.289	13.363
ProbeTrack10	8	ProbeTrack	10.1	SCS215a	20090813.111717	20090813.112544	8	0.013328	60	10	60-180	60	131	GapExp	0	71	3	0	1	target	1	507	747	49129	13.328	13.291	13.363
ProbeTrack10	8	ProbeTrack	10.1	SCS215a	20090813.111717	20090813.112550	8	0.013328	60	10	60-180	60	116	GapExp	0	72	3	0	1	target	1	400	800	49929	13.328	13.293	13.363
ProbeTrack10	8	ProbeTrack	10.1	SCS215a	20090813.111717	20090813.112556	8	0.013328	60	10	60-180	60	68	GapExp	0	73	3	1	1	target	1	374	813	50742	13.328	13.293	13.363
ProbeTrack10	8	ProbeTrack	10.1	SCS215a	20090813.111717	20090813.112602	8	0.013328	60	10	60-180	60	120	GapExp	0	74	3	4	1	target	1	334	833	51575	13.328	13.293	13.363
ProbeTrack10	8	ProbeTrack	10.1	SCS215a	20090813.111717	20090813.112609	8	0.013328	60	10	60-180	60	62	GapExp	0	75	3	1	0	distractor	1	560	720	52295	13.328	13.293	13.366
ProbeTrack10	8	ProbeTrack	10.1	SCS215a	20090813.111717	20090813.112615	8	0.013328	60	10	60-180	60	159	GapExp	0	76	3	75	1	distractor	0	267	-1000	51295	13.328	13.293	13.363
ProbeTrack10	8	ProbeTrack	10.1	SCS215a	20090813.111717	20090813.112623	8	0.013328	60	10	60-180	60	132	GapExp	0	77	3	1	0	distractor	1	467	767	52062	13.328	13.293	13.363
ProbeTrack10	8	ProbeTrack	10.1	SCS215a	20090813.111717	20090813.112629	8	0.013328	60	10	60-180	60	96	GapExp	0	78	3	4	0	distractor	1	573	714	52776	13.328	13.293	13.362
ProbeTrack10	8	ProbeTrack	10.1	SCS215a	20090813.111717	20090813.112635	8	0.013328	60	10	60-180	60	115	GapExp	0	79	3	75	1	distractor	0	600	-1000	51776	13.328	13.291	13.365
ProbeTrack10	8	ProbeTrack	10.1	SCS215a	20090813.111717	20090813.112642	8	0.013328	60	10	60-180	60	169	GapExp	0	80	3	75	0	distractor	1	573	714	52490	13.328	13.293	13.363
ProbeTrack10	8	ProbeTrack	10.1	SCS215a	20090813.111717	20090813.112650	8	0.013328	60	10	60-180	60	134	GapExp	0	81	3	1	0	distractor	1	507	747	53237	13.328	13.291	13.363
ProbeTrack10	8	ProbeTrack	10.1	SCS215a	20090813.111717	20090813.112657	8	0.013328	60	10	60-180	60	157	GapExp	0	82	3	1	0	distractor	1	520	740	53977	13.328	13.293	13.363
ProbeTrack10	8	ProbeTrack	10.1	SCS215a	20090813.111717	20090813.112704	8	0.013328	60	10	60-180	60	116	GapExp	0	83	3	75	0	distractor	1	600	700	54677	13.328	13.293	13.363
ProbeTrack10	8	ProbeTrack	10.1	SCS215a	20090813.111717	20090813.112711	8	0.013328	60	10	60-180	60	174	GapExp	0	84	3	1	0	distractor	1	467	767	55444	13.328	13.293	13.363
ProbeTrack10	8	ProbeTrack	10.1	SCS215a	20090813.111717	20090813.112718	8	0.013328	60	10	60-180	60	134	GapExp	0	85	3	1	0	distractor	1	574	713	56157	13.328	13.293	13.363
ProbeTrack10	8	ProbeTrack	10.1	SCS215a	20090813.111717	20090813.112725	8	0.013328	60	10	60-180	60	86	GapExp	0	86	3	2	0	distractor	1	454	773	56930	13.328	13.293	13.362
ProbeTrack10	8	ProbeTrack	10.1	SCS215a	20090813.111717	20090813.112730	8	0.013328	60	10	60-180	60	71	GapExp	0	87	3	4	0	distractor	1	547	727	57657	13.328	13.293	13.363
ProbeTrack10	8	ProbeTrack	10.1	SCS215a	20090813.111717	20090813.112736	8	0.013328	60	10	60-180	60	128	GapExp	0	88	3	2	0	distractor	1	440	780	58437	13.328	13.293	13.363
ProbeTrack10	8	ProbeTrack	10.1	SCS215a	20090813.111717	20090813.112743	8	0.013328	60	10	60-180	60	179	GapExp	0	89	3	2	0	target	0	653	-1000	57437	13.328	13.293	13.365
ProbeTrack10	8	ProbeTrack	10.1	SCS215a	20090813.111717	20090813.112750	8	0.013328	60	10	60-180	60	162	GapExp	0	90	3	2	1	target	1	467	767	58204	13.328	13.293	13.363
ProbeTrack10	8	ProbeTrack	10.1	SCS215a	20090813.111717	20090813.112756	8	0.013328	60	10	60-180	60	92	GapExp	0	91	3	75	1	target	1	440	780	58984	13.328	13.293	13.363
ProbeTrack10	8	ProbeTrack	10.1	SCS215a	20090813.111717	20090813.112803	8	0.013328	60	10	60-180	60	150	GapExp	0	92	3	75	1	target	1	494	753	59737	13.328	13.292	13.363
ProbeTrack10	8	ProbeTrack	10.1	SCS215a	20090813.111717	20090813.112811	8	0.013328	60	10	60-180	60	80	GapExp	0	93	3	75	1	target	1	374	813	60550	13.328	13.293	13.367
ProbeTrack10	8	ProbeTrack	10.1	SCS215a	20090813.111717	20090813.112818	8	0.013328	60	10	60-180	60	153	GapExp	0	94	3	0	0	target	0	427	-1000	59550	13.328	13.293	13.363
ProbeTrack10	8	ProbeTrack	10.1	SCS215a	20090813.111717	20090813.112825	8	0.013328	60	10	60-180	60	159	GapExp	0	95	3	2	1	target	1	480	760	60310	13.328	13.293	13.366
ProbeTrack10	8	ProbeTrack	10.1	SCS215a	20090813.111717	20090813.112831	8	0.013328	60	10	60-180	60	80	GapExp	0	96	3	75	1	target	1	600	700	61010	13.328	13.290	13.365
ProbeTrack10	8	ProbeTrack	10.1	SCS215a	20090813.111717	20090813.112839	8	0.013328	60	10	60-180	60	171	GapExp	0	97	3	0	0	target	0	534	-1000	60010	13.328	13.290	13.363
ProbeTrack10	8	ProbeTrack	10.1	SCS215a	20090813.111717	20090813.112846	8	0.013328	60	10	60-180	60	148	GapExp	0	98	3	4	1	target	1	440	780	60790	13.328	13.292	13.363
ProbeTrack10	8	ProbeTrack	10.1	SCS215a	20090813.111717	20090813.112853	8	0.013328	60	10	60-180	60	101	GapExp	0	99	3	2	1	target	1	427	787	61577	13.328	13.293	13.363
ProbeTrack10	8	ProbeTrack	10.1	SCS215a	20090813.111717	20090813.112900	8	0.013328	60	10	60-180	60	89	GapExp	0	100	3	0	1	target	1	534	733	62310	13.328	13.293	13.363
ProbeTrack10	8	ProbeTrack	10.1	SCS215a	20090813.111717	20090813.112905	8	0.013328	60	10	60-180	60	166	GapExp	0	101	3	2	1	target	1	574	713	63023	13.328	13.293	13.363
ProbeTrack10	8	ProbeTrack	10.1	SCS215a	20090813.111717	20090813.112912	8	0.013328	60	10	60-180	60	93	GapExp	0	102	3	4	1	target	1	414	793	63816	13.328	13.293	13.363
ProbeTrack10	8	ProbeTrack	10.1	SCS215a	20090813.111717	20090813.112918	8	0.013328	60	10	60-180	60	145	GapExp	0	103	3	0	0	target	0	400	-1000	62816	13.328	13.293	13.366
ProbeTrack10	8	ProbeTrack	10.1	SCS215a	20090813.111717	20090813.112925	8	0.013328	60	10	60-180	60	64	GapExp	0	104	3	4	0	distractor	1	507	747	63563	13.328	13.293	13.364
ProbeTrack10	8	ProbeTrack	10.1	SCS215a	20090813.111717	20090813.112931	8	0.013328	60	10	60-180	60	136	GapExp	0	105	3	4	0	distractor	1	560	720	64283	13.328	13.293	13.363
ProbeTrack10	8	ProbeTrack	10.1	SCS215a	20090813.111717	20090813.112937	8	0.013328	60	10	60-180	60	163	GapExp	0	106	3	75	0	distractor	1	440	780	65063	13.328	13.293	13.363
ProbeTrack10	8	ProbeTrack	10.1	SCS215a	20090813.111717	20090813.112945	8	0.013328	60	10	60-180	60	164	GapExp	0	107	3	0	0	target	0	627	-1000	64063	13.328	13.293	13.363
ProbeTrack10	8	ProbeTrack	10.1	SCS215a	20090813.111717	20090813.112952	8	0.013328	60	10	60-180	60	84	GapExp	0	108	3	2	1	distractor	0	440	-1000	63063	13.328	13.293	13.365
ProbeTrack10	8	ProbeTrack	10.1	SCS215a	20090813.111717	20090813.112958	8	0.013328	60	10	60-180	60	93	GapExp	0	109	3	75	1	distractor	0	427	-1000	62063	13.328	13.293	13.363
ProbeTrack10	8	ProbeTrack	10.1	SCS215a	20090813.111717	20090813.113004	8	0.013328	60	10	60-180	60	80	GapExp	0	110	3	0	0	distractor	1	587	707	62770	13.328	13.293	13.362
ProbeTrack10	8	ProbeTrack	10.1	SCS215a	20090813.111717	20090813.113010	8	0.013328	60	10	60-180	60	133	GapExp	0	111	3	0	1	target	1	414	793	63563	13.328	13.293	13.363
ProbeTrack10	8	ProbeTrack	10.1	SCS215a	20090813.111717	20090813.113017	8	0.013328	60	10	60-180	60	68	GapExp	0	112	3	4	1	target	1	454	773	64336	13.328	13.293	13.363
ProbeTrack10	8	ProbeTrack	10.1	SCS215a	20090813.111717	20090813.113022	8	0.013328	60	10	60-180	60	79	GapExp	0	113	3	4	0	distractor	1	534	733	65069	13.328	13.293	13.363
ProbeTrack10	8	ProbeTrack	10.1	SCS215a	20090813.111717	20090813.113028	8	0.013328	60	10	60-180	60	79	GapExp	0	114	3	0	1	target	1	600	700	65769	13.328	13.293	13.363
ProbeTrack10	8	ProbeTrack	10.1	SCS215a	20090813.111717	20090813.113034	8	0.013328	60	10	60-180	60	75	GapExp	0	115	3	75	0	distractor	1	587	707	66476	13.328	13.293	13.363
ProbeTrack10	8	ProbeTrack	10.1	SCS215a	20090813.111717	20090813.113041	8	0.013328	60	10	60-180	60	144	GapExp	0	116	3	2	0	distractor	1	653	674	67150	13.328	13.293	13.363
ProbeTrack10	8	ProbeTrack	10.1	SCS215a	20090813.111717	20090813.113048	8	0.013328	60	10	60-180	60	71	GapExp	0	117	3	1	1	distractor	0	614	-1000	66150	13.328	13.293	13.363
ProbeTrack10	8	ProbeTrack	10.1	SCS215a	20090813.111717	20090813.113053	8	0.013328	60	10	60-180	60	124	GapExp	0	118	3	75	1	target	1	507	747	66897	13.328	13.293	13.363
ProbeTrack10	8	ProbeTrack	10.1	SCS215a	20090813.111717	20090813.113101	8	0.013328	60	10	60-180	60	137	GapExp	0	119	3	0	1	target	1	507	747	67644	13.328	13.293	13.363
ProbeTrack10	8	ProbeTrack	10.1	SCS215a	20090813.111717	20090813.113112	8	0.013328	60	10	60-180	60	85	GapExp	0	120	3	4	1	distractor	0	707	-1000	66644	13.328	13.293	13.362
ProbeTrack10	8	ProbeTrack	10.1	SCS215a	20090813.111717	20090813.113119	8	0.013328	60	10	60-180	60	123	GapExp	0	121	3	1	1	target	1	400	800	67444	13.328	13.293	13.365
ProbeTrack10	8	ProbeTrack	10.1	SCS215a	20090813.111717	20090813.113125	8	0.013328	60	10	60-180	60	158	GapExp	0	122	3	2	0	distractor	1	494	753	68197	13.328	13.293	13.363
ProbeTrack10	8	ProbeTrack	10.1	SCS215a	20090813.111717	20090813.113132	8	0.013328	60	10	60-180	60	150	GapExp	0	123	3	0	0	distractor	1	600	700	68897	13.328	13.293	13.365
ProbeTrack10	8	ProbeTrack	10.1	SCS215a	20090813.111717	20090813.113139	8	0.013328	60	10	60-180	60	151	GapExp	0	124	3	75	0	distractor	1	520	740	69637	13.328	13.293	13.363
ProbeTrack10	8	ProbeTrack	10.1	SCS215a	20090813.111717	20090813.113146	8	0.013328	60	10	60-180	60	114	GapExp	0	125	3	4	1	distractor	0	600	-1000	68637	13.328	13.293	13.362
ProbeTrack10	8	ProbeTrack	10.1	SCS215a	20090813.111717	20090813.113153	8	0.013328	60	10	60-180	60	92	GapExp	0	126	3	75	0	distractor	1	387	807	69444	13.328	13.293	13.366
ProbeTrack10	8	ProbeTrack	10.1	SCS215a	20090813.111717	20090813.113200	8	0.013328	60	10	60-180	60	95	GapExp	0	127	3	0	1	target	1	640	680	70124	13.328	13.293	13.365
ProbeTrack10	8	ProbeTrack	10.1	SCS215a	20090813.111717	20090813.113206	8	0.013328	60	10	60-180	60	86	GapExp	0	128	3	4	1	target	1	414	793	70917	13.328	13.293	13.363
ProbeTrack10	8	ProbeTrack	10.1	SCS215a	20090813.111717	20090813.113212	8	0.013328	60	10	60-180	60	75	GapExp	0	129	3	2	1	target	1	414	793	71710	13.328	13.293	13.363
ProbeTrack10	8	ProbeTrack	10.1	SCS215a	20090813.111717	20090813.113218	8	0.013328	60	10	60-180	60	70	GapExp	0	130	3	2	1	target	1	387	807	72517	13.328	13.293	13.363
ProbeTrack10	8	ProbeTrack	10.1	SCS215a	20090813.111717	20090813.113224	8	0.013328	60	10	60-180	60	94	GapExp	0	131	3	2	1	target	1	427	787	73304	13.328	13.293	13.363
ProbeTrack10	8	ProbeTrack	10.1	SCS215a	20090813.111717	20090813.113231	8	0.013328	60	10	60-180	60	167	GapExp	0	132	3	4	1	target	1	387	807	74111	13.328	13.293	13.363
ProbeTrack10	8	ProbeTrack	10.1	SCS215a	20090813.111717	20090813.113241	8	0.013328	60	10	60-180	60	169	GapExp	0	133	3	0	0	distractor	1	600	700	74811	13.328	13.293	13.366
ProbeTrack10	8	ProbeTrack	10.1	SCS215a	20090813.111717	20090813.113248	8	0.013328	60	10	60-180	60	134	GapExp	0	134	3	4	1	target	1	427	787	75598	13.328	13.293	13.362
ProbeTrack10	8	ProbeTrack	10.1	SCS215a	20090813.111717	20090813.113255	8	0.013328	60	10	60-180	60	77	GapExp	0	135	3	1	0	distractor	1	494	753	76351	13.328	13.292	13.363
ProbeTrack10	8	ProbeTrack	10.1	SCS215a	20090813.111717	20090813.113301	8	0.013328	60	10	60-180	60	98	GapExp	0	136	3	1	0	target	0	374	-1000	75351	13.328	13.293	13.363
ProbeTrack10	8	ProbeTrack	10.1	SCS215a	20090813.111717	20090813.113307	8	0.013328	60	10	60-180	60	154	GapExp	0	137	3	1	1	target	1	440	780	76131	13.328	13.293	13.363
ProbeTrack10	8	ProbeTrack	10.1	SCS215a	20090813.111717	20090813.113313	8	0.013328	60	10	60-180	60	159	GapExp	0	138	3	2	0	distractor	1	494	753	76884	13.328	13.293	13.363
ProbeTrack10	8	ProbeTrack	10.1	SCS215a	20090813.111717	20090813.113320	8	0.013328	60	10	60-180	60	174	GapExp	0	139	3	75	0	distractor	1	454	773	77657	13.328	13.293	13.363
ProbeTrack10	8	ProbeTrack	10.1	SCS215a	20090813.111717	20090813.113328	8	0.013328	60	10	60-180	60	70	GapExp	0	140	3	75	1	distractor	0	414	-1000	76657	13.328	13.293	13.363
ProbeTrack10	8	ProbeTrack	10.1	SCS215a	20090813.111717	20090813.113335	8	0.013328	60	10	60-180	60	156	GapExp	0	141	3	75	1	target	1	374	813	77470	13.328	13.293	13.363
ProbeTrack10	8	ProbeTrack	10.1	SCS215a	20090813.111717	20090813.113342	8	0.013328	60	10	60-180	60	168	GapExp	0	142	3	0	0	distractor	1	640	680	78150	13.328	13.293	13.363
ProbeTrack10	8	ProbeTrack	10.1	SCS215a	20090813.111717	20090813.113349	8	0.013328	60	10	60-180	60	164	GapExp	0	143	3	0	0	target	0	480	-1000	77150	13.328	13.293	13.363
ProbeTrack10	8	ProbeTrack	10.1	SCS215a	20090813.111717	20090813.113356	8	0.013328	60	10	60-180	60	85	GapExp	0	144	3	4	0	distractor	1	520	740	77890	13.328	13.293	13.363
ProbeTrack10	8	ProbeTrack	10.1	SCS215a	20090813.111717	20090813.113402	8	0.013328	60	10	60-180	60	111	GapExp	0	145	3	0	1	distractor	0	693	-1000	76890	13.328	13.293	13.363
ProbeTrack10	8	ProbeTrack	10.1	SCS215a	20090813.111717	20090813.113414	8	0.013328	60	10	60-180	60	69	GapExp	0	146	3	4	1	target	1	494	753	77643	13.328	13.290	13.366
ProbeTrack10	8	ProbeTrack	10.1	SCS215a	20090813.111717	20090813.113420	8	0.013328	60	10	60-180	60	85	GapExp	0	147	3	1	1	target	1	374	813	78456	13.328	13.290	13.363
ProbeTrack10	8	ProbeTrack	10.1	SCS215a	20090813.111717	20090813.113425	8	0.013328	60	10	60-180	60	113	GapExp	0	148	3	1	1	target	1	387	807	79263	13.328	13.292	13.363
ProbeTrack10	8	ProbeTrack	10.1	SCS215a	20090813.111717	20090813.113432	8	0.013328	60	10	60-180	60	116	GapExp	0	149	3	1	1	target	1	347	827	80090	13.328	13.293	13.363
ProbeTrack10	8	ProbeTrack	10.1	SCS215a	20090813.111717	20090813.113438	8	0.013328	60	10	60-180	60	70	GapExp	0	150	3	0	0	distractor	1	480	760	80850	13.328	13.293	13.363
ProbeTrack10	8	ProbeTrack	10.1	SCS215a	20090813.111717	20090813.113443	8	0.013328	60	10	60-180	60	61	GapExp	0	151	3	4	0	distractor	1	534	733	81583	13.328	13.293	13.363
ProbeTrack10	8	ProbeTrack	10.1	SCS215a	20090813.111717	20090813.113448	8	0.013328	60	10	60-180	60	127	GapExp	0	152	3	1	1	target	1	374	813	82396	13.328	13.289	13.367
ProbeTrack10	8	ProbeTrack	10.1	SCS215a	20090813.111717	20090813.113455	8	0.013328	60	10	60-180	60	92	GapExp	0	153	3	75	0	distractor	1	560	720	83116	13.328	13.293	13.363
ProbeTrack10	8	ProbeTrack	10.1	SCS215a	20090813.111717	20090813.113502	8	0.013328	60	10	60-180	60	63	GapExp	0	154	3	2	1	target	1	427	787	83903	13.328	13.293	13.363
ProbeTrack10	8	ProbeTrack	10.1	SCS215a	20090813.111717	20090813.113507	8	0.013328	60	10	60-180	60	160	GapExp	0	155	3	0	1	target	1	440	780	84683	13.328	13.293	13.363
ProbeTrack10	8	ProbeTrack	10.1	SCS215a	20090813.111717	20090813.113514	8	0.013328	60	10	60-180	60	61	GapExp	0	156	3	4	1	target	1	374	813	85496	13.328	13.293	13.363
ProbeTrack10	8	ProbeTrack	10.1	SCS215a	20090813.111717	20090813.113519	8	0.013328	60	10	60-180	60	98	GapExp	0	157	3	2	0	distractor	1	454	773	86269	13.328	13.293	13.363
ProbeTrack10	8	ProbeTrack	10.1	SCS215a	20090813.111717	20090813.113525	8	0.013328	60	10	60-180	60	129	GapExp	0	158	3	1	0	distractor	1	454	773	87042	13.328	13.293	13.363
ProbeTrack10	8	ProbeTrack	10.1	SCS215a	20090813.111717	20090813.113531	8	0.013328	60	10	60-180	60	167	GapExp	0	159	3	2	0	distractor	1	414	793	87835	13.328	13.293	13.363
ProbeTrack10	8	ProbeTrack	10.1	SCS215a	20090813.111717	20090813.113538	8	0.013328	60	10	60-180	60	170	GapExp	0	160	3	0	1	target	1	520	740	88575	13.328	13.293	13.363
ProbeTrack10	8	ProbeTrack	10.1	SCS215a	20090813.111717	20090813.113545	8	0.013328	60	10	60-180	60	86	GapExp	0	161	3	75	1	target	1	334	833	89408	13.328	13.290	13.363
ProbeTrack10	8	ProbeTrack	10.1	SCS215a	20090813.111717	20090813.113551	8	0.013328	60	10	60-180	60	161	GapExp	0	162	3	2	1	target	1	387	807	90215	13.328	13.293	13.363
ProbeTrack10	8	ProbeTrack	10.1	SCS215a	20090813.111717	20090813.113558	8	0.013328	60	10	60-180	60	144	GapExp	0	163	3	75	1	target	1	374	813	91028	13.328	13.289	13.366
ProbeTrack10	8	ProbeTrack	10.1	SCS215a	20090813.111717	20090813.113611	8	0.013328	60	10	60-180	60	120	GapExp	0	164	3	75	0	target	0	494	-1000	90028	13.328	13.293	13.363
ProbeTrack10	8	ProbeTrack	10.1	SCS215a	20090813.111717	20090813.113619	8	0.013328	60	10	60-180	60	163	GapExp	0	165	3	4	1	target	1	547	727	90755	13.328	13.293	13.363
ProbeTrack10	8	ProbeTrack	10.1	SCS215a	20090813.111717	20090813.113625	8	0.013328	60	10	60-180	60	161	GapExp	0	166	3	2	1	target	1	520	740	91495	13.328	13.293	13.363
ProbeTrack10	8	ProbeTrack	10.1	SCS215a	20090813.111717	20090813.113632	8	0.013328	60	10	60-180	60	120	GapExp	0	167	3	0	0	distractor	1	467	767	92262	13.328	13.293	13.363
ProbeTrack10	8	ProbeTrack	10.1	SCS215a	20090813.111717	20090813.113639	8	0.013328	60	10	60-180	60	111	GapExp	0	168	3	1	0	target	0	534	-1000	91262	13.328	13.293	13.363
ProbeTrack10	8	ProbeTrack	10.1	SCS215a	20090813.111717	20090813.113645	8	0.013328	60	10	60-180	60	138	GapExp	0	169	3	2	0	distractor	1	347	827	92089	13.328	13.293	13.363
ProbeTrack10	8	ProbeTrack	10.1	SCS215a	20090813.111717	20090813.113651	8	0.013328	60	10	60-180	60	149	GapExp	0	170	3	0	1	distractor	0	480	-1000	91089	13.328	13.293	13.363
ProbeTrack10	8	ProbeTrack	10.1	SCS215a	20090813.111717	20090813.113659	8	0.013328	60	10	60-180	60	82	GapExp	0	171	3	75	0	distractor	1	480	760	91849	13.328	13.293	13.363
ProbeTrack10	8	ProbeTrack	10.1	SCS215a	20090813.111717	20090813.113706	8	0.013328	60	10	60-180	60	151	GapExp	0	172	3	0	0	target	0	454	-1000	90849	13.328	13.293	13.363
ProbeTrack10	8	ProbeTrack	10.1	SCS215a	20090813.111717	20090813.113713	8	0.013328	60	10	60-180	60	172	GapExp	0	173	3	2	0	distractor	1	494	753	91602	13.328	13.293	13.363
ProbeTrack10	8	ProbeTrack	10.1	SCS215a	20090813.111717	20090813.113720	8	0.013328	60	10	60-180	60	96	GapExp	0	174	3	1	0	distractor	1	507	747	92349	13.328	13.293	13.363
ProbeTrack10	8	ProbeTrack	10.1	SCS215a	20090813.111717	20090813.113726	8	0.013328	60	10	60-180	60	112	GapExp	0	175	3	1	1	distractor	0	467	-1000	91349	13.328	13.293	13.363
ProbeTrack10	8	ProbeTrack	10.1	SCS215a	20090813.111717	20090813.113732	8	0.013328	60	10	60-180	60	115	GapExp	0	176	3	1	0	distractor	1	480	760	92109	13.328	13.293	13.363
ProbeTrack10	8	ProbeTrack	10.1	SCS215a	20090813.111717	20090813.113738	8	0.013328	60	10	60-180	60	94	GapExp	0	177	3	4	0	distractor	1	800	600	92709	13.328	13.293	13.363
ProbeTrack10	8	ProbeTrack	10.1	SCS215a	20090813.111717	20090813.113745	8	0.013328	60	10	60-180	60	75	GapExp	0	178	3	1	0	distractor	1	374	813	93522	13.328	13.293	13.363
ProbeTrack10	8	ProbeTrack	10.1	SCS215a	20090813.111717	20090813.113810	8	0.013328	60	10	60-180	60	177	GapExp	0	179	3	75	0	distractor	1	400	800	94322	13.328	13.293	13.363
ProbeTrack10	8	ProbeTrack	10.1	SCS215a	20090813.111717	20090813.113818	8	0.013328	60	10	60-180	60	111	GapExp	0	180	3	1	0	target	0	440	-1000	93322	13.328	13.293	13.363
ProbeTrack10	8	ProbeTrack	10.1	SCS215a	20090813.111717	20090813.113825	8	0.013328	60	10	60-180	60	141	GapExp	0	181	3	4	1	distractor	0	667	-1000	92322	13.328	13.293	13.363
ProbeTrack10	8	ProbeTrack	10.1	SCS215a	20090813.111717	20090813.113832	8	0.013328	60	10	60-180	60	72	GapExp	0	182	3	1	1	target	1	440	780	93102	13.328	13.293	13.363
ProbeTrack10	8	ProbeTrack	10.1	SCS215a	20090813.111717	20090813.113837	8	0.013328	60	10	60-180	60	176	GapExp	0	183	3	1	1	target	1	400	800	93902	13.328	13.293	13.363
ProbeTrack10	8	ProbeTrack	10.1	SCS215a	20090813.111717	20090813.113845	8	0.013328	60	10	60-180	60	166	GapExp	0	184	3	4	0	distractor	1	480	760	94662	13.328	13.293	13.363
ProbeTrack10	8	ProbeTrack	10.1	SCS215a	20090813.111717	20090813.113852	8	0.013328	60	10	60-180	60	136	GapExp	0	185	3	2	0	distractor	1	507	747	95409	13.328	13.293	13.363
ProbeTrack10	8	ProbeTrack	10.1	SCS215a	20090813.111717	20090813.113858	8	0.013328	60	10	60-180	60	120	GapExp	0	186	3	1	1	target	1	374	813	96222	13.328	13.293	13.363
ProbeTrack10	8	ProbeTrack	10.1	SCS215a	20090813.111717	20090813.113904	8	0.013328	60	10	60-180	60	164	GapExp	0	187	3	0	0	distractor	1	400	800	97022	13.328	13.293	13.365
ProbeTrack10	8	ProbeTrack	10.1	SCS215a	20090813.111717	20090813.113911	8	0.013328	60	10	60-180	60	72	GapExp	0	188	3	1	1	target	1	440	780	97802	13.328	13.293	13.363
ProbeTrack10	8	ProbeTrack	10.1	SCS215a	20090813.111717	20090813.113917	8	0.013328	60	10	60-180	60	177	GapExp	0	189	3	2	1	target	1	587	707	98509	13.328	13.264	13.391
ProbeTrack10	8	ProbeTrack	10.1	SCS215a	20090813.111717	20090813.113924	8	0.013328	60	10	60-180	60	94	GapExp	0	190	3	75	1	distractor	0	467	-1000	97509	13.328	13.293	13.363
ProbeTrack10	8	ProbeTrack	10.1	SCS215a	20090813.111717	20090813.113938	8	0.013328	60	10	60-180	60	78	GapExp	0	191	3	4	1	target	1	440	780	98289	13.328	13.293	13.363
ProbeTrack10	8	ProbeTrack	10.1	SCS215a	20090813.111717	20090813.113947	8	0.013328	60	10	60-180	60	154	GapExp	0	192	3	4	1	target	1	374	813	99102	13.328	13.293	13.362
ProbeTrack10	8	ProbeTrack	10.1	SCS215a	20090813.111717	20090813.113953	8	0.013328	60	10	60-180	60	154	GapExp	0	193	3	2	1	target	1	320	840	99942	13.328	13.293	13.363
ProbeTrack10	8	ProbeTrack	10.1	SCS215a	20090813.111717	20090813.114000	8	0.013328	60	10	60-180	60	95	GapExp	0	194	3	1	1	target	1	400	800	100742	13.328	13.293	13.363
ProbeTrack10	8	ProbeTrack	10.1	SCS215a	20090813.111717	20090813.114007	8	0.013328	60	10	60-180	60	121	GapExp	0	195	3	0	1	target	1	507	747	101489	13.328	13.293	13.363
ProbeTrack10	8	ProbeTrack	10.1	SCS215a	20090813.111717	20090813.114014	8	0.013328	60	10	60-180	60	138	GapExp	0	196	3	1	1	target	1	374	813	102302	13.328	13.293	13.363
ProbeTrack10	8	ProbeTrack	10.1	SCS215a	20090813.111717	20090813.114028	8	0.013328	60	10	60-180	60	104	GapExp	0	197	3	4	0	distractor	1	467	767	103069	13.328	13.293	13.363
ProbeTrack10	8	ProbeTrack	10.1	SCS215a	20090813.111717	20090813.114035	8	0.013328	60	10	60-180	60	167	GapExp	0	198	3	75	1	distractor	0	400	-1000	102069	13.328	13.291	13.363
ProbeTrack10	8	ProbeTrack	10.1	SCS215a	20090813.111717	20090813.114043	8	0.013328	60	10	60-180	60	140	GapExp	0	199	3	2	0	distractor	1	707	647	102716	13.328	13.289	13.366
ProbeTrack10	8	ProbeTrack	10.1	SCS215a	20090813.111717	20090813.114049	8	0.013328	60	10	60-180	60	150	GapExp	0	200	3	0	0	distractor	1	547	727	103443	13.328	13.293	13.363
ProbeTrack10	8	ProbeTrack	10.1	SCS215a	20090813.111717	20090813.114056	8	0.013328	60	10	60-180	60	150	GapExp	0	201	3	75	1	target	1	494	753	104196	13.328	13.293	13.363
ProbeTrack10	8	ProbeTrack	10.1	SCS215a	20090813.111717	20090813.114117	8	0.013328	60	10	60-180	60	74	GapExp	0	202	3	2	1	target	1	414	793	104989	13.328	13.289	13.363
ProbeTrack10	8	ProbeTrack	10.1	SCS215a	20090813.111717	20090813.114125	8	0.013328	60	10	60-180	60	90	GapExp	0	203	3	4	0	distractor	1	547	727	105716	13.328	13.292	13.363
ProbeTrack10	8	ProbeTrack	10.1	SCS215a	20090813.111717	20090813.114131	8	0.013328	60	10	60-180	60	98	GapExp	0	204	3	2	1	target	1	427	787	106503	13.328	13.293	13.363
ProbeTrack10	8	ProbeTrack	10.1	SCS215a	20090813.111717	20090813.114145	8	0.013328	60	10	60-180	60	92	GapExp	0	205	3	4	0	distractor	1	400	800	107303	13.328	13.293	13.363
ProbeTrack10	8	ProbeTrack	10.1	SCS215a	20090813.111717	20090813.114151	8	0.013328	60	10	60-180	60	171	GapExp	0	206	3	1	0	distractor	1	507	747	108050	13.328	13.293	13.363
ProbeTrack10	8	ProbeTrack	10.1	SCS215a	20090813.111717	20090813.114159	8	0.013328	60	10	60-180	60	72	GapExp	0	207	3	0	1	target	1	400	800	108850	13.328	13.293	13.363
ProbeTrack10	8	ProbeTrack	10.1	SCS215a	20090813.111717	20090813.114204	8	0.013328	60	10	60-180	60	101	GapExp	0	208	3	75	1	distractor	0	307	-1000	107850	13.328	13.293	13.362
ProbeTrack10	8	ProbeTrack	10.1	SCS215a	20090813.111717	20090813.114217	8	0.013328	60	10	60-180	60	176	GapExp	0	209	3	2	0	target	0	520	-1000	106850	13.328	13.293	13.363
ProbeTrack10	8	ProbeTrack	10.1	SCS215a	20090813.111717	20090813.114225	8	0.013328	60	10	60-180	60	117	GapExp	0	210	3	0	1	target	1	387	807	107657	13.328	13.293	13.363
