exp	sub	code	rev	comp	runtime	trialtime	nstim	refreshdur	cuedur	gapdur	gapOnsetRange	durPostProbe	gapOnsetTime	blocktype	prac	trial	ntargets	soa	probeTarget	resp	acc	rt	pts	tpts	meanFrameDur	minFrameDur	maxFrameDur
ProbeTrack10	14	ProbeTrack	10.1	SCS215a	20100217.110242	20100217.110258	8	0.013328	60	0	60-180	60	101	NoGap	1	1	3	4	1	target	1	6984	0	0	13.328	13.292	13.363
ProbeTrack10	14	ProbeTrack	10.1	SCS215a	20100217.110242	20100217.110319	8	0.013328	60	0	60-180	60	91	NoGap	1	2	3	4	1	target	1	9730	0	0	13.328	13.280	13.375
ProbeTrack10	14	ProbeTrack	10.1	SCS215a	20100217.110242	20100217.110338	8	0.013328	60	0	60-180	60	135	NoGap	1	3	3	2	0	target	0	4452	-1000	-1000	13.475	13.231	26.689
ProbeTrack10	14	ProbeTrack	10.1	SCS215a	20100217.110242	20100217.110349	8	0.013328	60	0	60-180	60	82	NoGap	1	4	3	1	0	distractor	1	1027	487	-513	13.328	13.293	13.363
ProbeTrack10	14	ProbeTrack	10.1	SCS215a	20100217.110242	20100217.110357	8	0.013328	60	0	60-180	60	132	NoGap	1	5	3	4	0	distractor	1	880	560	47	13.328	13.292	13.363
ProbeTrack10	14	ProbeTrack	10.1	SCS215a	20100217.110242	20100217.110408	8	0.013328	60	0	60-180	60	179	NoGap	1	6	3	1	0	distractor	1	4112	0	47	13.328	13.216	13.439
ProbeTrack10	14	ProbeTrack	10.1	SCS215a	20100217.110242	20100217.110419	8	0.013328	60	0	60-180	60	77	NoGap	1	7	3	75	1	target	1	3372	0	47	13.328	13.204	13.447
ProbeTrack10	14	ProbeTrack	10.1	SCS215a	20100217.110242	20100217.110428	8	0.013328	60	0	60-180	60	65	NoGap	1	8	3	0	1	target	1	1000	500	547	13.328	13.155	13.500
ProbeTrack10	14	ProbeTrack	10.1	SCS215a	20100217.110242	20100217.110434	8	0.013328	60	0	60-180	60	123	NoGap	1	9	3	4	0	distractor	1	853	574	1121	13.328	13.194	13.495
ProbeTrack10	14	ProbeTrack	10.1	SCS215a	20100217.110242	20100217.110442	8	0.013328	60	0	60-180	60	163	NoGap	1	10	3	0	0	distractor	1	867	567	1688	14.938	12.825	173.295
ProbeTrack10	14	ProbeTrack	10.1	SCS215a	20100217.110242	20100217.110450	8	0.013328	60	0	60-180	60	173	NoGap	1	11	3	1	1	target	1	720	640	2328	13.328	13.293	13.363
ProbeTrack10	14	ProbeTrack	10.1	SCS215a	20100217.110242	20100217.110458	8	0.013328	60	0	60-180	60	142	NoGap	1	12	3	2	0	distractor	1	920	540	2868	13.328	13.293	13.362
ProbeTrack10	14	ProbeTrack	10.1	SCS215a	20100217.110242	20100217.110505	8	0.013328	60	0	60-180	60	126	NoGap	1	13	3	2	1	target	1	654	673	3541	13.328	13.292	13.363
ProbeTrack10	14	ProbeTrack	10.1	SCS215a	20100217.110242	20100217.110511	8	0.013328	60	0	60-180	60	152	NoGap	1	14	3	4	1	target	1	720	640	4181	13.328	13.292	13.363
ProbeTrack10	14	ProbeTrack	10.1	SCS215a	20100217.110242	20100217.110520	8	0.013328	60	0	60-180	60	158	NoGap	1	15	3	0	1	target	1	653	674	4855	13.328	13.293	13.364
ProbeTrack10	14	ProbeTrack	10.1	SCS215a	20100217.110242	20100217.110526	8	0.013328	60	0	60-180	60	174	NoGap	1	16	3	4	0	distractor	1	773	614	5469	13.328	13.213	13.443
ProbeTrack10	14	ProbeTrack	10.1	SCS215a	20100217.110242	20100217.110535	8	0.013328	60	0	60-180	60	75	NoGap	1	17	3	0	0	distractor	1	867	567	6036	13.328	13.293	13.363
ProbeTrack10	14	ProbeTrack	10.1	SCS215a	20100217.110242	20100217.110541	8	0.013328	60	0	60-180	60	130	NoGap	1	18	3	2	0	distractor	1	667	667	6703	13.328	13.292	13.363
ProbeTrack10	14	ProbeTrack	10.1	SCS215a	20100217.110242	20100217.110547	8	0.013328	60	0	60-180	60	180	NoGap	1	19	3	75	0	distractor	1	867	567	7270	13.328	13.293	13.363
ProbeTrack10	14	ProbeTrack	10.1	SCS215a	20100217.110242	20100217.110557	8	0.013328	60	0	60-180	60	62	NoGap	1	20	3	0	1	target	1	640	680	7950	13.328	13.293	13.363
ProbeTrack10	14	ProbeTrack	10.1	SCS215a	20100217.110242	20100217.110603	8	0.013328	60	0	60-180	60	120	NoGap	1	21	3	2	1	target	1	680	660	8610	13.328	13.292	13.363
ProbeTrack10	14	ProbeTrack	10.1	SCS215a	20100217.110242	20100217.110609	8	0.013328	60	0	60-180	60	96	NoGap	1	22	3	4	1	target	1	574	713	9323	13.328	13.292	13.364
ProbeTrack10	14	ProbeTrack	10.1	SCS215a	20100217.110242	20100217.110615	8	0.013328	60	0	60-180	60	112	NoGap	1	23	3	0	0	distractor	1	534	733	10056	13.328	13.290	13.366
ProbeTrack10	14	ProbeTrack	10.1	SCS215a	20100217.110242	20100217.110621	8	0.013328	60	0	60-180	60	142	NoGap	1	24	3	75	1	target	1	560	720	10776	13.328	13.235	13.388
ProbeTrack10	14	ProbeTrack	10.1	SCS215a	20100217.110242	20100217.110629	8	0.013328	60	0	60-180	60	114	NoGap	1	25	3	2	1	target	1	547	727	11503	13.328	13.293	13.363
ProbeTrack10	14	ProbeTrack	10.1	SCS215a	20100217.110242	20100217.110635	8	0.013328	60	0	60-180	60	67	NoGap	1	26	3	2	0	distractor	1	600	700	12203	13.328	13.293	13.363
ProbeTrack10	14	ProbeTrack	10.1	SCS215a	20100217.110242	20100217.110640	8	0.013328	60	0	60-180	60	109	NoGap	1	27	3	75	0	distractor	1	454	773	12976	13.328	13.293	13.363
ProbeTrack10	14	ProbeTrack	10.1	SCS215a	20100217.110242	20100217.110647	8	0.013328	60	0	60-180	60	62	NoGap	1	28	3	0	1	distractor	0	600	-1000	11976	13.328	13.292	13.386
ProbeTrack10	14	ProbeTrack	10.1	SCS215a	20100217.110242	20100217.110653	8	0.013328	60	0	60-180	60	78	NoGap	1	29	3	1	0	distractor	1	560	720	12696	13.328	13.284	13.374
ProbeTrack10	14	ProbeTrack	10.1	SCS215a	20100217.110242	20100217.110659	8	0.013328	60	0	60-180	60	72	NoGap	1	30	3	1	1	target	1	614	693	13389	13.328	13.289	13.366
ProbeTrack10	14	ProbeTrack	10.1	SCS215a	20100217.110242	20100217.110705	8	0.013328	60	0	60-180	60	104	NoGap	1	31	3	1	1	target	1	587	707	14096	13.328	13.293	13.363
ProbeTrack10	14	ProbeTrack	10.1	SCS215a	20100217.110242	20100217.110710	8	0.013328	60	0	60-180	60	92	NoGap	1	32	3	75	0	distractor	1	747	627	14723	13.328	13.292	13.363
ProbeTrack10	14	ProbeTrack	10.1	SCS215a	20100217.110242	20100217.110717	8	0.013328	60	0	60-180	60	147	NoGap	1	33	3	75	1	target	1	534	733	15456	13.328	13.293	13.363
ProbeTrack10	14	ProbeTrack	10.1	SCS215a	20100217.110242	20100217.110725	8	0.013328	60	0	60-180	60	164	NoGap	1	34	3	1	0	target	0	600	-1000	14456	13.328	13.293	13.363
ProbeTrack10	14	ProbeTrack	10.1	SCS215a	20100217.110242	20100217.110731	8	0.013328	60	0	60-180	60	64	NoGap	1	35	3	0	0	distractor	1	587	707	15163	13.328	13.293	13.363
ProbeTrack10	14	ProbeTrack	10.1	SCS215a	20100217.110242	20100217.110737	8	0.013328	60	0	60-180	60	71	NoGap	1	36	3	2	1	target	1	893	554	15717	13.328	13.293	13.363
ProbeTrack10	14	ProbeTrack	10.1	SCS215a	20100217.110242	20100217.110742	8	0.013328	60	0	60-180	60	86	NoGap	1	37	3	75	1	target	1	547	727	16444	13.328	13.293	13.363
ProbeTrack10	14	ProbeTrack	10.1	SCS215a	20100217.110242	20100217.110749	8	0.013328	60	0	60-180	60	178	NoGap	1	38	3	4	0	distractor	1	440	780	17224	13.328	13.292	13.364
ProbeTrack10	14	ProbeTrack	10.1	SCS215a	20100217.110242	20100217.110755	8	0.013328	60	0	60-180	60	117	NoGap	1	39	3	1	1	target	1	520	740	17964	13.328	13.293	13.363
ProbeTrack10	14	ProbeTrack	10.1	SCS215a	20100217.110242	20100217.110801	8	0.013328	60	0	60-180	60	114	NoGap	1	40	3	75	0	distractor	1	494	753	18717	13.328	13.293	13.363
ProbeTrack10	14	ProbeTrack	10.1	SCS215a	20100217.110854	20100217.110900	8	0.013328	60	10	60-180	60	100	GapPrac	1	1	3	75	1	target	1	947	527	19244	13.328	13.289	13.366
ProbeTrack10	14	ProbeTrack	10.1	SCS215a	20100217.110854	20100217.110909	8	0.013328	60	10	60-180	60	67	GapPrac	1	2	3	1	0	distractor	1	720	640	19884	13.328	13.293	13.363
ProbeTrack10	14	ProbeTrack	10.1	SCS215a	20100217.110854	20100217.110919	8	0.013328	60	10	60-180	60	65	GapPrac	1	3	3	2	0	distractor	1	547	727	20611	13.328	13.293	13.363
ProbeTrack10	14	ProbeTrack	10.1	SCS215a	20100217.110854	20100217.110924	8	0.013328	60	10	60-180	60	95	GapPrac	1	4	3	1	0	distractor	1	1093	454	21065	13.328	13.293	13.363
ProbeTrack10	14	ProbeTrack	10.1	SCS215a	20100217.110854	20100217.110934	8	0.013328	60	10	60-180	60	94	GapPrac	1	5	3	4	0	distractor	1	800	600	21665	13.328	13.293	13.363
ProbeTrack10	14	ProbeTrack	10.1	SCS215a	20100217.110854	20100217.110940	8	0.013328	60	10	60-180	60	117	GapPrac	1	6	3	75	1	distractor	0	933	-1000	20665	13.328	13.293	13.363
ProbeTrack10	14	ProbeTrack	10.1	SCS215a	20100217.110854	20100217.110948	8	0.013328	60	10	60-180	60	156	GapPrac	1	7	3	2	1	target	1	773	614	21279	13.328	13.293	13.363
ProbeTrack10	14	ProbeTrack	10.1	SCS215a	20100217.110854	20100217.110955	8	0.013328	60	10	60-180	60	71	GapPrac	1	8	3	0	0	target	0	760	-1000	20279	13.328	13.293	13.363
ProbeTrack10	14	ProbeTrack	10.1	SCS215a	20100217.110854	20100217.111000	8	0.013328	60	10	60-180	60	170	GapPrac	1	9	3	75	0	distractor	1	667	667	20946	13.328	13.293	13.363
ProbeTrack10	14	ProbeTrack	10.1	SCS215a	20100217.110854	20100217.111008	8	0.013328	60	10	60-180	60	132	GapPrac	1	10	3	0	0	distractor	1	1000	500	21446	13.328	13.293	13.363
ProbeTrack10	14	ProbeTrack	10.1	SCS215a	20100217.110854	20100217.111015	8	0.013328	60	10	60-180	60	155	GapPrac	1	11	3	4	1	target	1	574	713	22159	13.328	13.293	13.363
ProbeTrack10	14	ProbeTrack	10.1	SCS215a	20100217.110854	20100217.111021	8	0.013328	60	10	60-180	60	156	GapPrac	1	12	3	0	1	target	1	694	653	22812	13.328	13.292	13.364
ProbeTrack10	14	ProbeTrack	10.1	SCS215a	20100217.110854	20100217.111028	8	0.013328	60	10	60-180	60	159	GapPrac	1	13	3	2	0	distractor	1	1187	407	23219	13.328	13.293	13.363
ProbeTrack10	14	ProbeTrack	10.1	SCS215a	20100217.110854	20100217.111035	8	0.013328	60	10	60-180	60	102	GapPrac	1	14	3	4	0	target	0	627	-1000	22219	13.328	13.292	13.363
ProbeTrack10	14	ProbeTrack	10.1	SCS215a	20100217.110854	20100217.111041	8	0.013328	60	10	60-180	60	90	GapPrac	1	15	3	1	1	target	1	747	627	22846	13.328	13.293	13.363
ProbeTrack10	14	ProbeTrack	10.1	SCS215a	20100217.110854	20100217.111047	8	0.013328	60	10	60-180	60	143	GapPrac	1	16	3	2	1	target	1	813	594	23440	13.328	13.291	13.363
ProbeTrack10	14	ProbeTrack	10.1	SCS215a	20100217.110854	20100217.111054	8	0.013328	60	10	60-180	60	86	GapPrac	1	17	3	0	1	target	1	787	607	24047	13.328	13.293	13.363
ProbeTrack10	14	ProbeTrack	10.1	SCS215a	20100217.110854	20100217.111059	8	0.013328	60	10	60-180	60	153	GapPrac	1	18	3	4	1	target	1	587	707	24754	13.328	13.262	13.365
ProbeTrack10	14	ProbeTrack	10.1	SCS215a	20100217.110854	20100217.111106	8	0.013328	60	10	60-180	60	161	GapPrac	1	19	3	1	1	target	1	574	713	25467	13.328	13.205	13.484
ProbeTrack10	14	ProbeTrack	10.1	SCS215a	20100217.110854	20100217.111112	8	0.013328	60	10	60-180	60	98	GapPrac	1	20	3	75	0	distractor	1	627	687	26154	13.328	13.293	13.364
ProbeTrack10	14	ProbeTrack	10.1	SCS215a	20100217.111208	20100217.111233	8	0.013328	60	10	60-180	60	138	GapExp	1	1	3	0	0	target	0	853	-1000	25154	13.328	13.293	13.363
ProbeTrack10	14	ProbeTrack	10.1	SCS215a	20100217.111208	20100217.111242	8	0.013328	60	10	60-180	60	137	GapExp	1	2	3	1	1	distractor	0	840	-1000	24154	13.328	13.293	13.363
ProbeTrack10	14	ProbeTrack	10.1	SCS215a	20100217.111208	20100217.111249	8	0.013328	60	10	60-180	60	137	GapExp	1	3	3	4	0	target	0	840	-1000	23154	13.328	13.293	13.367
ProbeTrack10	14	ProbeTrack	10.1	SCS215a	20100217.111208	20100217.111256	8	0.013328	60	10	60-180	60	74	GapExp	1	4	3	4	1	target	1	707	647	23801	13.328	13.293	13.363
ProbeTrack10	14	ProbeTrack	10.1	SCS215a	20100217.111208	20100217.111301	8	0.013328	60	10	60-180	60	117	GapExp	1	5	3	1	0	distractor	1	587	707	24508	13.328	13.293	13.364
ProbeTrack10	14	ProbeTrack	10.1	SCS215a	20100217.111208	20100217.111308	8	0.013328	60	10	60-180	60	65	GapExp	1	6	3	0	1	target	1	720	640	25148	13.328	13.293	13.363
ProbeTrack10	14	ProbeTrack	10.1	SCS215a	20100217.111208	20100217.111314	8	0.013328	60	10	60-180	60	164	GapExp	1	7	3	2	0	distractor	1	853	574	25722	13.328	13.056	13.600
ProbeTrack10	14	ProbeTrack	10.1	SCS215a	20100217.111208	20100217.111321	8	0.013328	60	10	60-180	60	78	GapExp	1	8	3	75	0	distractor	1	840	580	26302	13.328	13.293	13.363
ProbeTrack10	14	ProbeTrack	10.1	SCS215a	20100217.111208	20100217.111328	8	0.013328	60	10	60-180	60	139	GapExp	1	9	3	2	1	target	1	654	673	26975	13.328	13.268	13.391
ProbeTrack10	14	ProbeTrack	10.1	SCS215a	20100217.111208	20100217.111334	8	0.013328	60	10	60-180	60	111	GapExp	1	10	3	75	1	distractor	0	707	-1000	25975	13.328	13.270	13.386
ProbeTrack10	14	ProbeTrack	10.1	SCS215a	20100217.111208	20100217.111342	8	0.013328	60	10	60-180	60	114	GapExp	0	11	3	4	0	distractor	1	867	567	26542	13.328	13.292	13.363
ProbeTrack10	14	ProbeTrack	10.1	SCS215a	20100217.111208	20100217.111348	8	0.013328	60	10	60-180	60	116	GapExp	0	12	3	4	0	target	0	867	-1000	25542	13.328	13.293	13.364
ProbeTrack10	14	ProbeTrack	10.1	SCS215a	20100217.111208	20100217.111354	8	0.013328	60	10	60-180	60	142	GapExp	0	13	3	1	0	target	0	694	-1000	24542	13.328	13.293	13.363
ProbeTrack10	14	ProbeTrack	10.1	SCS215a	20100217.111208	20100217.111401	8	0.013328	60	10	60-180	60	74	GapExp	0	14	3	1	1	target	1	1013	494	25036	13.328	13.293	13.364
ProbeTrack10	14	ProbeTrack	10.1	SCS215a	20100217.111208	20100217.111407	8	0.013328	60	10	60-180	60	109	GapExp	0	15	3	4	1	distractor	0	947	-1000	24036	13.328	13.293	13.384
ProbeTrack10	14	ProbeTrack	10.1	SCS215a	20100217.111208	20100217.111413	8	0.013328	60	10	60-180	60	132	GapExp	0	16	3	1	1	distractor	0	787	-1000	23036	13.328	13.293	13.363
ProbeTrack10	14	ProbeTrack	10.1	SCS215a	20100217.111208	20100217.111420	8	0.013328	60	10	60-180	60	164	GapExp	0	17	3	2	1	target	1	680	660	23696	13.328	13.293	13.363
ProbeTrack10	14	ProbeTrack	10.1	SCS215a	20100217.111208	20100217.111427	8	0.013328	60	10	60-180	60	95	GapExp	0	18	3	75	1	target	1	520	740	24436	13.328	13.293	13.363
ProbeTrack10	14	ProbeTrack	10.1	SCS215a	20100217.111208	20100217.111433	8	0.013328	60	10	60-180	60	81	GapExp	0	19	3	1	1	target	1	587	707	25143	13.328	13.293	13.363
ProbeTrack10	14	ProbeTrack	10.1	SCS215a	20100217.111208	20100217.111439	8	0.013328	60	10	60-180	60	105	GapExp	0	20	3	75	0	distractor	1	654	673	25816	13.328	13.288	13.369
ProbeTrack10	14	ProbeTrack	10.1	SCS215a	20100217.111208	20100217.111446	8	0.013328	60	10	60-180	60	161	GapExp	0	21	3	75	0	distractor	1	694	653	26469	13.328	13.293	13.364
ProbeTrack10	14	ProbeTrack	10.1	SCS215a	20100217.111208	20100217.111453	8	0.013328	60	10	60-180	60	155	GapExp	0	22	3	2	1	target	1	680	660	27129	13.328	13.293	13.363
ProbeTrack10	14	ProbeTrack	10.1	SCS215a	20100217.111208	20100217.111500	8	0.013328	60	10	60-180	60	150	GapExp	0	23	3	1	1	target	1	707	647	27776	13.328	13.293	13.363
ProbeTrack10	14	ProbeTrack	10.1	SCS215a	20100217.111208	20100217.111507	8	0.013328	60	10	60-180	60	99	GapExp	0	24	3	0	1	target	1	614	693	28469	13.328	13.293	13.363
ProbeTrack10	14	ProbeTrack	10.1	SCS215a	20100217.111208	20100217.111513	8	0.013328	60	10	60-180	60	164	GapExp	0	25	3	1	0	target	0	640	-1000	27469	13.328	13.293	13.363
ProbeTrack10	14	ProbeTrack	10.1	SCS215a	20100217.111208	20100217.111520	8	0.013328	60	10	60-180	60	134	GapExp	0	26	3	2	0	target	0	560	-1000	26469	13.328	13.293	13.363
ProbeTrack10	14	ProbeTrack	10.1	SCS215a	20100217.111208	20100217.111526	8	0.013328	60	10	60-180	60	133	GapExp	0	27	3	0	0	distractor	1	840	580	27049	13.328	13.293	13.363
ProbeTrack10	14	ProbeTrack	10.1	SCS215a	20100217.111208	20100217.111533	8	0.013328	60	10	60-180	60	153	GapExp	0	28	3	0	1	target	1	640	680	27729	13.328	13.292	13.363
ProbeTrack10	14	ProbeTrack	10.1	SCS215a	20100217.111208	20100217.111539	8	0.013328	60	10	60-180	60	81	GapExp	0	29	3	4	0	distractor	1	654	673	28402	14.655	13.292	93.261
ProbeTrack10	14	ProbeTrack	10.1	SCS215a	20100217.111208	20100217.111545	8	0.013328	60	10	60-180	60	132	GapExp	0	30	3	4	1	target	1	534	733	29135	13.429	13.117	40.017
ProbeTrack10	14	ProbeTrack	10.1	SCS215a	20100217.111208	20100217.111551	8	0.013328	60	10	60-180	60	153	GapExp	0	31	3	4	1	target	1	654	673	29808	13.328	13.218	13.439
ProbeTrack10	14	ProbeTrack	10.1	SCS215a	20100217.111208	20100217.111733	8	0.013328	60	10	60-180	60	137	GapExp	0	32	3	0	0	target	0	867	-1000	28808	13.328	13.293	13.372
ProbeTrack10	14	ProbeTrack	10.1	SCS215a	20100217.111208	20100217.111741	8	0.013328	60	10	60-180	60	180	GapExp	0	33	3	75	1	distractor	0	640	-1000	27808	13.328	13.293	13.362
ProbeTrack10	14	ProbeTrack	10.1	SCS215a	20100217.111208	20100217.111749	8	0.013328	60	10	60-180	60	137	GapExp	0	34	3	1	1	target	1	654	673	28481	13.328	13.293	13.363
ProbeTrack10	14	ProbeTrack	10.1	SCS215a	20100217.111208	20100217.111755	8	0.013328	60	10	60-180	60	131	GapExp	0	35	3	0	1	target	1	694	653	29134	13.328	13.293	13.365
ProbeTrack10	14	ProbeTrack	10.1	SCS215a	20100217.111208	20100217.111801	8	0.013328	60	10	60-180	60	100	GapExp	0	36	3	75	0	distractor	1	520	740	29874	13.328	13.293	13.363
ProbeTrack10	14	ProbeTrack	10.1	SCS215a	20100217.111208	20100217.111808	8	0.013328	60	10	60-180	60	129	GapExp	0	37	3	0	0	distractor	1	1480	260	30134	13.328	13.293	13.363
ProbeTrack10	14	ProbeTrack	10.1	SCS215a	20100217.111208	20100217.111815	8	0.013328	60	10	60-180	60	141	GapExp	0	38	3	4	1	target	1	587	707	30841	13.328	13.293	13.363
ProbeTrack10	14	ProbeTrack	10.1	SCS215a	20100217.111208	20100217.111821	8	0.013328	60	10	60-180	60	66	GapExp	0	39	3	75	1	target	1	507	747	31588	13.328	13.293	13.363
ProbeTrack10	14	ProbeTrack	10.1	SCS215a	20100217.111208	20100217.111827	8	0.013328	60	10	60-180	60	84	GapExp	0	40	3	0	1	target	1	560	720	32308	13.328	13.290	13.363
ProbeTrack10	14	ProbeTrack	10.1	SCS215a	20100217.111208	20100217.111833	8	0.013328	60	10	60-180	60	146	GapExp	0	41	3	1	1	target	1	667	667	32975	13.328	13.293	13.363
ProbeTrack10	14	ProbeTrack	10.1	SCS215a	20100217.111208	20100217.111839	8	0.013328	60	10	60-180	60	119	GapExp	0	42	3	2	1	target	1	560	720	33695	13.328	13.292	13.363
ProbeTrack10	14	ProbeTrack	10.1	SCS215a	20100217.111208	20100217.111845	8	0.013328	60	10	60-180	60	69	GapExp	0	43	3	0	0	target	0	654	-1000	32695	13.328	13.293	13.364
ProbeTrack10	14	ProbeTrack	10.1	SCS215a	20100217.111208	20100217.111850	8	0.013328	60	10	60-180	60	165	GapExp	0	44	3	4	1	distractor	0	893	-1000	31695	13.328	13.289	13.371
ProbeTrack10	14	ProbeTrack	10.1	SCS215a	20100217.111208	20100217.111857	8	0.013328	60	10	60-180	60	122	GapExp	0	45	3	4	0	distractor	1	760	620	32315	13.328	13.293	13.363
ProbeTrack10	14	ProbeTrack	10.1	SCS215a	20100217.111208	20100217.111904	8	0.013328	60	10	60-180	60	81	GapExp	0	46	3	4	1	target	1	627	687	33002	13.328	13.293	13.363
ProbeTrack10	14	ProbeTrack	10.1	SCS215a	20100217.111208	20100217.111909	8	0.013328	60	10	60-180	60	86	GapExp	0	47	3	4	1	target	1	560	720	33722	13.328	13.293	13.363
ProbeTrack10	14	ProbeTrack	10.1	SCS215a	20100217.111208	20100217.111914	8	0.013328	60	10	60-180	60	163	GapExp	0	48	3	75	0	target	0	1933	-1000	32722	13.328	13.293	13.376
ProbeTrack10	14	ProbeTrack	10.1	SCS215a	20100217.111208	20100217.111923	8	0.013328	60	10	60-180	60	105	GapExp	0	49	3	75	0	distractor	1	400	800	33522	13.328	13.293	13.363
ProbeTrack10	14	ProbeTrack	10.1	SCS215a	20100217.111208	20100217.111930	8	0.013328	60	10	60-180	60	141	GapExp	0	50	3	1	1	target	1	694	653	34175	13.565	13.293	39.983
ProbeTrack10	14	ProbeTrack	10.1	SCS215a	20100217.111208	20100217.111938	8	0.013328	60	10	60-180	60	99	GapExp	0	51	3	75	1	target	1	534	733	34908	13.372	13.173	26.522
ProbeTrack10	14	ProbeTrack	10.1	SCS215a	20100217.111208	20100217.111944	8	0.013328	60	10	60-180	60	117	GapExp	0	52	3	1	0	distractor	1	933	534	35442	13.328	13.293	13.363
ProbeTrack10	14	ProbeTrack	10.1	SCS215a	20100217.111208	20100217.112146	8	0.013328	60	10	60-180	60	180	GapExp	0	53	3	2	1	target	1	654	673	36115	13.328	13.292	13.363
ProbeTrack10	14	ProbeTrack	10.1	SCS215a	20100217.111208	20100217.112153	8	0.013328	60	10	60-180	60	126	GapExp	0	54	3	0	1	target	1	813	594	36709	13.328	13.293	13.363
ProbeTrack10	14	ProbeTrack	10.1	SCS215a	20100217.111208	20100217.112159	8	0.013328	60	10	60-180	60	128	GapExp	0	55	3	2	0	target	0	734	-1000	35709	13.328	13.292	13.364
ProbeTrack10	14	ProbeTrack	10.1	SCS215a	20100217.111208	20100217.112205	8	0.013328	60	10	60-180	60	64	GapExp	0	56	3	1	0	distractor	1	720	640	36349	13.328	13.292	13.363
ProbeTrack10	14	ProbeTrack	10.1	SCS215a	20100217.111208	20100217.112211	8	0.013328	60	10	60-180	60	83	GapExp	0	57	3	75	1	target	1	534	733	37082	13.328	13.293	13.363
ProbeTrack10	14	ProbeTrack	10.1	SCS215a	20100217.111208	20100217.112217	8	0.013328	60	10	60-180	60	160	GapExp	0	58	3	75	0	distractor	1	627	687	37769	13.328	13.274	13.382
ProbeTrack10	14	ProbeTrack	10.1	SCS215a	20100217.111208	20100217.112225	8	0.013328	60	10	60-180	60	138	GapExp	0	59	3	0	1	target	1	880	560	38329	13.328	13.293	13.363
ProbeTrack10	14	ProbeTrack	10.1	SCS215a	20100217.111208	20100217.112231	8	0.013328	60	10	60-180	60	125	GapExp	0	60	3	4	0	distractor	1	893	554	38883	13.328	13.289	13.373
ProbeTrack10	14	ProbeTrack	10.1	SCS215a	20100217.111208	20100217.112238	8	0.013328	60	10	60-180	60	162	GapExp	0	61	3	75	1	target	1	560	720	39603	13.328	13.293	13.363
ProbeTrack10	14	ProbeTrack	10.1	SCS215a	20100217.111208	20100217.112245	8	0.013328	60	10	60-180	60	105	GapExp	0	62	3	4	1	target	1	574	713	40316	13.384	12.946	26.623
ProbeTrack10	14	ProbeTrack	10.1	SCS215a	20100217.111208	20100217.112251	8	0.013328	60	10	60-180	60	165	GapExp	0	63	3	1	0	distractor	1	574	713	41029	13.328	13.292	13.364
ProbeTrack10	14	ProbeTrack	10.1	SCS215a	20100217.111208	20100217.112257	8	0.013328	60	10	60-180	60	85	GapExp	0	64	3	1	0	distractor	1	813	594	41623	13.328	13.293	13.364
ProbeTrack10	14	ProbeTrack	10.1	SCS215a	20100217.111208	20100217.112304	8	0.013328	60	10	60-180	60	80	GapExp	0	65	3	0	1	target	1	694	653	42276	13.510	13.293	39.950
ProbeTrack10	14	ProbeTrack	10.1	SCS215a	20100217.111208	20100217.112309	8	0.013328	60	10	60-180	60	95	GapExp	0	66	3	75	1	distractor	0	627	-1000	41276	13.328	13.125	13.531
ProbeTrack10	14	ProbeTrack	10.1	SCS215a	20100217.111208	20100217.112316	8	0.013328	60	10	60-180	60	127	GapExp	0	67	3	75	0	distractor	1	694	653	41929	13.328	13.293	13.363
ProbeTrack10	14	ProbeTrack	10.1	SCS215a	20100217.111208	20100217.112323	8	0.013328	60	10	60-180	60	136	GapExp	0	68	3	1	0	target	0	587	-1000	40929	13.328	13.293	13.363
ProbeTrack10	14	ProbeTrack	10.1	SCS215a	20100217.111208	20100217.112331	8	0.013328	60	10	60-180	60	137	GapExp	0	69	3	4	1	target	1	574	713	41642	13.328	13.293	13.364
ProbeTrack10	14	ProbeTrack	10.1	SCS215a	20100217.111208	20100217.112339	8	0.013328	60	10	60-180	60	109	GapExp	0	70	3	0	1	target	1	507	747	42389	13.328	13.187	13.470
ProbeTrack10	14	ProbeTrack	10.1	SCS215a	20100217.111208	20100217.112344	8	0.013328	60	10	60-180	60	101	GapExp	0	71	3	4	1	target	1	680	660	43049	13.328	13.293	13.381
ProbeTrack10	14	ProbeTrack	10.1	SCS215a	20100217.111208	20100217.112350	8	0.013328	60	10	60-180	60	174	GapExp	0	72	3	75	1	distractor	0	707	-1000	42049	13.328	12.936	13.686
ProbeTrack10	14	ProbeTrack	10.1	SCS215a	20100217.111208	20100217.112358	8	0.013328	60	10	60-180	60	178	GapExp	0	73	3	2	1	target	1	640	680	42729	13.793	12.861	53.312
ProbeTrack10	14	ProbeTrack	10.1	SCS215a	20100217.111208	20100217.112405	8	0.013328	60	10	60-180	60	80	GapExp	0	74	3	2	1	target	1	520	740	43469	13.328	13.287	13.363
ProbeTrack10	14	ProbeTrack	10.1	SCS215a	20100217.111208	20100217.112411	8	0.013328	60	10	60-180	60	115	GapExp	0	75	3	0	0	distractor	1	907	547	44016	14.280	10.950	106.623
ProbeTrack10	14	ProbeTrack	10.1	SCS215a	20100217.111208	20100217.112417	8	0.013328	60	10	60-180	60	78	GapExp	0	76	3	4	0	distractor	1	659	671	44687	13.511	12.987	53.310
ProbeTrack10	14	ProbeTrack	10.1	SCS215a	20100217.111208	20100217.112422	8	0.013328	60	10	60-180	60	105	GapExp	0	77	3	0	0	distractor	1	800	600	45287	13.434	13.293	39.984
ProbeTrack10	14	ProbeTrack	10.1	SCS215a	20100217.111208	20100217.112428	8	0.013328	60	10	60-180	60	126	GapExp	0	78	3	0	1	target	1	547	727	46014	13.328	13.185	13.459
ProbeTrack10	14	ProbeTrack	10.1	SCS215a	20100217.111208	20100217.112434	8	0.013328	60	10	60-180	60	132	GapExp	0	79	3	4	0	distractor	1	627	687	46701	13.328	13.291	13.364
ProbeTrack10	14	ProbeTrack	10.1	SCS215a	20100217.111208	20100217.112441	8	0.013328	60	10	60-180	60	156	GapExp	0	80	3	4	0	distractor	1	747	627	47328	13.328	13.293	13.364
ProbeTrack10	14	ProbeTrack	10.1	SCS215a	20100217.111208	20100217.112447	8	0.013328	60	10	60-180	60	145	GapExp	0	81	3	2	0	distractor	1	734	633	47961	13.328	13.293	13.363
ProbeTrack10	14	ProbeTrack	10.1	SCS215a	20100217.111208	20100217.112454	8	0.013328	60	10	60-180	60	67	GapExp	0	82	3	1	0	target	0	734	-1000	46961	13.328	13.293	13.363
ProbeTrack10	14	ProbeTrack	10.1	SCS215a	20100217.111208	20100217.112459	8	0.013328	60	10	60-180	60	77	GapExp	0	83	3	0	1	target	1	774	613	47574	13.328	13.292	13.363
ProbeTrack10	14	ProbeTrack	10.1	SCS215a	20100217.111208	20100217.112505	8	0.013328	60	10	60-180	60	87	GapExp	0	84	3	75	1	target	1	508	746	48320	13.374	13.293	26.690
ProbeTrack10	14	ProbeTrack	10.1	SCS215a	20100217.111208	20100217.112511	8	0.013328	60	10	60-180	60	62	GapExp	0	85	3	4	0	distractor	1	947	527	48847	13.328	13.293	13.364
ProbeTrack10	14	ProbeTrack	10.1	SCS215a	20100217.111208	20100217.112517	8	0.013328	60	10	60-180	60	97	GapExp	0	86	3	0	0	distractor	1	893	554	49401	13.328	13.257	13.383
ProbeTrack10	14	ProbeTrack	10.1	SCS215a	20100217.111208	20100217.112523	8	0.013328	60	10	60-180	60	102	GapExp	0	87	3	1	1	distractor	0	827	-1000	48401	13.328	13.258	13.376
ProbeTrack10	14	ProbeTrack	10.1	SCS215a	20100217.111208	20100217.112529	8	0.013328	60	10	60-180	60	116	GapExp	0	88	3	75	0	distractor	1	680	660	49061	13.328	13.222	13.436
ProbeTrack10	14	ProbeTrack	10.1	SCS215a	20100217.111208	20100217.112536	8	0.013328	60	10	60-180	60	90	GapExp	0	89	3	2	1	target	1	680	660	49721	13.386	13.292	26.643
ProbeTrack10	14	ProbeTrack	10.1	SCS215a	20100217.111208	20100217.112542	8	0.013328	60	10	60-180	60	82	GapExp	0	90	3	2	0	distractor	1	640	680	50401	13.328	13.292	13.363
ProbeTrack10	14	ProbeTrack	10.1	SCS215a	20100217.111208	20100217.112547	8	0.013328	60	10	60-180	60	163	GapExp	0	91	3	4	0	distractor	1	587	707	51108	13.328	13.293	13.363
ProbeTrack10	14	ProbeTrack	10.1	SCS215a	20100217.111208	20100217.112554	8	0.013328	60	10	60-180	60	96	GapExp	0	92	3	75	1	target	1	440	780	51888	13.328	13.289	13.366
ProbeTrack10	14	ProbeTrack	10.1	SCS215a	20100217.111208	20100217.112604	8	0.013328	60	10	60-180	60	106	GapExp	0	93	3	2	0	distractor	1	800	600	52488	13.328	13.293	13.363
ProbeTrack10	14	ProbeTrack	10.1	SCS215a	20100217.111208	20100217.112610	8	0.013328	60	10	60-180	60	63	GapExp	0	94	3	2	1	target	1	547	727	53215	13.328	13.293	13.363
ProbeTrack10	14	ProbeTrack	10.1	SCS215a	20100217.111208	20100217.112615	8	0.013328	60	10	60-180	60	62	GapExp	0	95	3	2	0	distractor	1	600	700	53915	13.328	13.293	13.381
ProbeTrack10	14	ProbeTrack	10.1	SCS215a	20100217.111208	20100217.112620	8	0.013328	60	10	60-180	60	101	GapExp	0	96	3	2	0	distractor	1	574	713	54628	13.328	13.293	13.363
ProbeTrack10	14	ProbeTrack	10.1	SCS215a	20100217.111208	20100217.112628	8	0.013328	60	10	60-180	60	128	GapExp	0	97	3	0	0	distractor	1	587	707	55335	13.328	13.293	13.363
ProbeTrack10	14	ProbeTrack	10.1	SCS215a	20100217.111208	20100217.112634	8	0.013328	60	10	60-180	60	150	GapExp	0	98	3	4	0	target	0	787	-1000	54335	13.328	13.289	13.366
ProbeTrack10	14	ProbeTrack	10.1	SCS215a	20100217.111208	20100217.112641	8	0.013328	60	10	60-180	60	115	GapExp	0	99	3	1	1	target	1	814	593	54928	13.379	13.293	26.654
ProbeTrack10	14	ProbeTrack	10.1	SCS215a	20100217.111208	20100217.112647	8	0.013328	60	10	60-180	60	130	GapExp	0	100	3	2	1	target	1	587	707	55635	13.328	13.292	13.364
ProbeTrack10	14	ProbeTrack	10.1	SCS215a	20100217.111208	20100217.112653	8	0.013328	60	10	60-180	60	173	GapExp	0	101	3	2	1	target	1	547	727	56362	13.372	13.261	26.658
ProbeTrack10	14	ProbeTrack	10.1	SCS215a	20100217.111208	20100217.112700	8	0.013328	60	10	60-180	60	179	GapExp	0	102	3	0	1	target	1	480	760	57122	13.328	13.292	13.364
ProbeTrack10	14	ProbeTrack	10.1	SCS215a	20100217.111208	20100217.112707	8	0.013328	60	10	60-180	60	175	GapExp	0	103	3	0	1	target	1	454	773	57895	13.328	13.106	13.517
ProbeTrack10	14	ProbeTrack	10.1	SCS215a	20100217.111208	20100217.112713	8	0.013328	60	10	60-180	60	92	GapExp	0	104	3	2	1	target	1	427	787	58682	13.328	13.293	13.363
ProbeTrack10	14	ProbeTrack	10.1	SCS215a	20100217.111208	20100217.112719	8	0.013328	60	10	60-180	60	138	GapExp	0	105	3	2	1	target	1	473	764	59446	13.328	12.969	13.687
ProbeTrack10	14	ProbeTrack	10.1	SCS215a	20100217.111208	20100217.112848	8	0.013328	60	10	60-180	60	143	GapExp	0	106	3	4	1	distractor	0	507	-1000	58446	13.327	12.963	13.363
ProbeTrack10	14	ProbeTrack	10.1	SCS215a	20100217.111208	20100217.112855	8	0.013328	60	10	60-180	60	129	GapExp	0	107	3	1	0	distractor	1	1013	494	58940	13.328	13.292	13.364
ProbeTrack10	14	ProbeTrack	10.1	SCS215a	20100217.111208	20100217.112901	8	0.013328	60	10	60-180	60	119	GapExp	0	108	3	2	0	distractor	1	654	673	59613	13.328	13.293	13.366
ProbeTrack10	14	ProbeTrack	10.1	SCS215a	20100217.111208	20100217.112907	8	0.013328	60	10	60-180	60	179	GapExp	0	109	3	4	0	distractor	1	627	687	60300	13.328	13.257	13.365
ProbeTrack10	14	ProbeTrack	10.1	SCS215a	20100217.111208	20100217.112914	8	0.013328	60	10	60-180	60	77	GapExp	0	110	3	2	1	distractor	0	2426	-1000	59300	13.328	12.975	13.681
ProbeTrack10	14	ProbeTrack	10.1	SCS215a	20100217.111208	20100217.112921	8	0.013328	60	10	60-180	60	117	GapExp	0	111	3	4	0	distractor	1	467	767	60067	13.328	13.293	13.363
ProbeTrack10	14	ProbeTrack	10.1	SCS215a	20100217.111208	20100217.112927	8	0.013328	60	10	60-180	60	152	GapExp	0	112	3	0	1	target	1	760	620	60687	13.328	12.938	13.684
ProbeTrack10	14	ProbeTrack	10.1	SCS215a	20100217.111208	20100217.112934	8	0.013328	60	10	60-180	60	128	GapExp	0	113	3	2	1	target	1	600	700	61387	13.328	13.285	13.370
ProbeTrack10	14	ProbeTrack	10.1	SCS215a	20100217.111208	20100217.112940	8	0.013328	60	10	60-180	60	155	GapExp	0	114	3	0	1	target	1	427	787	62174	13.328	13.292	13.363
ProbeTrack10	14	ProbeTrack	10.1	SCS215a	20100217.111208	20100217.112946	8	0.013328	60	10	60-180	60	61	GapExp	0	115	3	4	0	target	0	414	-1000	61174	13.328	13.289	13.366
ProbeTrack10	14	ProbeTrack	10.1	SCS215a	20100217.111208	20100217.112951	8	0.013328	60	10	60-180	60	179	GapExp	0	116	3	1	1	target	1	467	767	61941	13.328	13.290	13.363
ProbeTrack10	14	ProbeTrack	10.1	SCS215a	20100217.111208	20100217.112958	8	0.013328	60	10	60-180	60	64	GapExp	0	117	3	2	0	target	0	658	-1000	60941	13.328	13.293	13.363
ProbeTrack10	14	ProbeTrack	10.1	SCS215a	20100217.111208	20100217.113111	8	0.013328	60	10	60-180	60	86	GapExp	0	118	3	1	0	distractor	1	480	760	61701	13.328	13.293	13.363
ProbeTrack10	14	ProbeTrack	10.1	SCS215a	20100217.111208	20100217.113116	8	0.013328	60	10	60-180	60	82	GapExp	0	119	3	75	1	target	1	827	587	62288	13.328	12.982	13.673
ProbeTrack10	14	ProbeTrack	10.1	SCS215a	20100217.111208	20100217.113123	8	0.013328	60	10	60-180	60	168	GapExp	0	120	3	4	0	target	0	494	-1000	61288	13.328	13.285	13.371
ProbeTrack10	14	ProbeTrack	10.1	SCS215a	20100217.111208	20100217.113129	8	0.013328	60	10	60-180	60	173	GapExp	0	121	3	4	1	target	1	600	700	61988	13.932	13.292	106.830
ProbeTrack10	14	ProbeTrack	10.1	SCS215a	20100217.111208	20100217.113136	8	0.013328	60	10	60-180	60	76	GapExp	0	122	3	75	0	distractor	1	627	687	62675	13.328	13.279	13.406
ProbeTrack10	14	ProbeTrack	10.1	SCS215a	20100217.111208	20100217.113143	8	0.013328	60	10	60-180	60	169	GapExp	0	123	3	0	0	distractor	1	707	647	63322	13.544	13.262	79.968
ProbeTrack10	14	ProbeTrack	10.1	SCS215a	20100217.111208	20100217.113149	8	0.013328	60	10	60-180	60	76	GapExp	0	124	3	2	0	distractor	1	574	713	64035	13.456	13.293	26.655
ProbeTrack10	14	ProbeTrack	10.1	SCS215a	20100217.111208	20100217.113155	8	0.013328	60	10	60-180	60	88	GapExp	0	125	3	75	0	distractor	1	360	820	64855	13.328	13.191	13.451
ProbeTrack10	14	ProbeTrack	10.1	SCS215a	20100217.111208	20100217.113201	8	0.013328	60	10	60-180	60	177	GapExp	0	126	3	0	0	distractor	1	627	687	65542	13.328	13.293	13.363
ProbeTrack10	14	ProbeTrack	10.1	SCS215a	20100217.111208	20100217.113208	8	0.013328	60	10	60-180	60	101	GapExp	0	127	3	4	0	distractor	1	520	740	66282	13.328	13.293	13.363
ProbeTrack10	14	ProbeTrack	10.1	SCS215a	20100217.111208	20100217.113214	8	0.013328	60	10	60-180	60	115	GapExp	0	128	3	1	1	distractor	0	427	-1000	65282	13.328	13.293	13.363
ProbeTrack10	14	ProbeTrack	10.1	SCS215a	20100217.111208	20100217.113219	8	0.013328	60	10	60-180	60	132	GapExp	0	129	3	4	1	distractor	0	427	-1000	64282	13.328	13.293	13.363
ProbeTrack10	14	ProbeTrack	10.1	SCS215a	20100217.111208	20100217.113225	8	0.013328	60	10	60-180	60	173	GapExp	0	130	3	75	1	target	1	454	773	65055	13.364	13.292	26.656
ProbeTrack10	14	ProbeTrack	10.1	SCS215a	20100217.111208	20100217.113233	8	0.013328	60	10	60-180	60	179	GapExp	0	131	3	75	0	distractor	1	520	740	65795	13.328	13.293	13.363
ProbeTrack10	14	ProbeTrack	10.1	SCS215a	20100217.111208	20100217.113241	8	0.013328	60	10	60-180	60	122	GapExp	0	132	3	4	1	target	1	547	727	66522	13.328	13.293	13.363
ProbeTrack10	14	ProbeTrack	10.1	SCS215a	20100217.111208	20100217.113247	8	0.013328	60	10	60-180	60	86	GapExp	0	133	3	1	1	target	1	441	780	67302	13.328	13.063	13.559
ProbeTrack10	14	ProbeTrack	10.1	SCS215a	20100217.111208	20100217.113252	8	0.013328	60	10	60-180	60	134	GapExp	0	134	3	0	0	distractor	1	560	720	68022	13.328	13.292	13.363
ProbeTrack10	14	ProbeTrack	10.1	SCS215a	20100217.111208	20100217.113258	8	0.013328	60	10	60-180	60	82	GapExp	0	135	3	4	1	distractor	0	440	-1000	67022	13.328	13.293	13.363
ProbeTrack10	14	ProbeTrack	10.1	SCS215a	20100217.111208	20100217.113304	8	0.013328	60	10	60-180	60	167	GapExp	0	136	3	0	0	distractor	1	733	634	67656	13.328	13.130	13.542
ProbeTrack10	14	ProbeTrack	10.1	SCS215a	20100217.111208	20100217.113311	8	0.013328	60	10	60-180	60	62	GapExp	0	137	3	4	1	target	1	520	740	68396	13.328	13.293	13.363
ProbeTrack10	14	ProbeTrack	10.1	SCS215a	20100217.111208	20100217.113316	8	0.013328	60	10	60-180	60	125	GapExp	0	138	3	2	1	target	1	547	727	69123	13.328	13.293	13.363
ProbeTrack10	14	ProbeTrack	10.1	SCS215a	20100217.111208	20100217.113322	8	0.013328	60	10	60-180	60	117	GapExp	0	139	3	0	0	distractor	1	600	700	69823	13.328	13.290	13.363
ProbeTrack10	14	ProbeTrack	10.1	SCS215a	20100217.111208	20100217.113328	8	0.013328	60	10	60-180	60	106	GapExp	0	140	3	75	0	distractor	1	400	800	70623	13.328	13.293	13.363
ProbeTrack10	14	ProbeTrack	10.1	SCS215a	20100217.111208	20100217.113335	8	0.013328	60	10	60-180	60	144	GapExp	0	141	3	75	0	distractor	1	787	607	71230	13.328	13.292	13.363
ProbeTrack10	14	ProbeTrack	10.1	SCS215a	20100217.111208	20100217.113343	8	0.013328	60	10	60-180	60	165	GapExp	0	142	3	1	0	distractor	1	587	707	71937	13.328	13.293	13.364
ProbeTrack10	14	ProbeTrack	10.1	SCS215a	20100217.111208	20100217.113350	8	0.013328	60	10	60-180	60	152	GapExp	0	143	3	75	0	distractor	1	440	780	72717	13.328	13.151	13.504
ProbeTrack10	14	ProbeTrack	10.1	SCS215a	20100217.111208	20100217.113357	8	0.013328	60	10	60-180	60	121	GapExp	0	144	3	1	1	distractor	0	480	-1000	71717	13.328	13.287	13.363
ProbeTrack10	14	ProbeTrack	10.1	SCS215a	20100217.111208	20100217.113403	8	0.013328	60	10	60-180	60	128	GapExp	0	145	3	0	1	distractor	0	547	-1000	70717	13.328	13.293	13.363
ProbeTrack10	14	ProbeTrack	10.1	SCS215a	20100217.111208	20100217.113409	8	0.013328	60	10	60-180	60	116	GapExp	0	146	3	1	0	target	0	734	-1000	69717	13.328	13.293	13.363
ProbeTrack10	14	ProbeTrack	10.1	SCS215a	20100217.111208	20100217.113415	8	0.013328	60	10	60-180	60	98	GapExp	0	147	3	1	0	distractor	1	640	680	70397	13.328	13.293	13.366
ProbeTrack10	14	ProbeTrack	10.1	SCS215a	20100217.111208	20100217.113421	8	0.013328	60	10	60-180	60	71	GapExp	0	148	3	2	1	target	1	907	547	70944	13.328	13.293	13.363
ProbeTrack10	14	ProbeTrack	10.1	SCS215a	20100217.111208	20100217.113427	8	0.013328	60	10	60-180	60	138	GapExp	0	149	3	75	0	distractor	1	467	767	71711	13.487	13.105	66.770
ProbeTrack10	14	ProbeTrack	10.1	SCS215a	20100217.111208	20100217.113434	8	0.013328	60	10	60-180	60	98	GapExp	0	150	3	75	1	target	1	787	607	72318	13.328	13.144	13.479
ProbeTrack10	14	ProbeTrack	10.1	SCS215a	20100217.111208	20100217.113441	8	0.013328	60	10	60-180	60	70	GapExp	0	151	3	4	0	distractor	1	694	653	72971	13.328	13.293	13.363
ProbeTrack10	14	ProbeTrack	10.1	SCS215a	20100217.111208	20100217.113446	8	0.013328	60	10	60-180	60	77	GapExp	0	152	3	2	0	distractor	1	733	634	73605	13.328	13.293	13.363
ProbeTrack10	14	ProbeTrack	10.1	SCS215a	20100217.111208	20100217.113452	8	0.013328	60	10	60-180	60	138	GapExp	0	153	3	0	0	target	0	787	-1000	72605	13.328	13.289	13.363
ProbeTrack10	14	ProbeTrack	10.1	SCS215a	20100217.111208	20100217.113458	8	0.013328	60	10	60-180	60	148	GapExp	0	154	3	1	1	target	1	574	713	73318	13.328	13.293	13.364
ProbeTrack10	14	ProbeTrack	10.1	SCS215a	20100217.111208	20100217.113505	8	0.013328	60	10	60-180	60	169	GapExp	0	155	3	75	1	target	1	400	800	74118	13.328	13.292	13.363
ProbeTrack10	14	ProbeTrack	10.1	SCS215a	20100217.111208	20100217.113512	8	0.013328	60	10	60-180	60	174	GapExp	0	156	3	0	1	target	1	454	773	74891	13.328	13.293	13.364
ProbeTrack10	14	ProbeTrack	10.1	SCS215a	20100217.111208	20100217.113519	8	0.013328	60	10	60-180	60	180	GapExp	0	157	3	4	1	target	1	427	787	75678	13.328	13.292	13.363
ProbeTrack10	14	ProbeTrack	10.1	SCS215a	20100217.111208	20100217.113526	8	0.013328	60	10	60-180	60	71	GapExp	0	158	3	2	1	target	1	480	760	76438	13.328	13.293	13.363
ProbeTrack10	14	ProbeTrack	10.1	SCS215a	20100217.111208	20100217.113531	8	0.013328	60	10	60-180	60	152	GapExp	0	159	3	0	0	target	0	574	-1000	75438	13.328	13.210	13.425
ProbeTrack10	14	ProbeTrack	10.1	SCS215a	20100217.111208	20100217.113537	8	0.013328	60	10	60-180	60	64	GapExp	0	160	3	1	1	target	1	520	740	76178	13.328	13.293	13.363
ProbeTrack10	14	ProbeTrack	10.1	SCS215a	20100217.111208	20100217.113543	8	0.013328	60	10	60-180	60	141	GapExp	0	161	3	1	0	distractor	1	547	727	76905	13.377	13.292	26.655
ProbeTrack10	14	ProbeTrack	10.1	SCS215a	20100217.111208	20100217.113549	8	0.013328	60	10	60-180	60	72	GapExp	0	162	3	2	0	target	0	574	-1000	75905	13.328	13.293	13.363
ProbeTrack10	14	ProbeTrack	10.1	SCS215a	20100217.111208	20100217.113554	8	0.013328	60	10	60-180	60	63	GapExp	0	163	3	0	1	target	1	574	713	76618	13.328	13.293	13.363
ProbeTrack10	14	ProbeTrack	10.1	SCS215a	20100217.111208	20100217.113559	8	0.013328	60	10	60-180	60	172	GapExp	0	164	3	0	1	target	1	640	680	77298	13.328	13.291	13.363
ProbeTrack10	14	ProbeTrack	10.1	SCS215a	20100217.111208	20100217.113606	8	0.013328	60	10	60-180	60	175	GapExp	0	165	3	2	0	target	0	507	-1000	76298	13.328	13.293	13.363
ProbeTrack10	14	ProbeTrack	10.1	SCS215a	20100217.111208	20100217.113613	8	0.013328	60	10	60-180	60	171	GapExp	0	166	3	2	0	target	0	467	-1000	75298	13.328	13.292	13.365
ProbeTrack10	14	ProbeTrack	10.1	SCS215a	20100217.111208	20100217.113619	8	0.013328	60	10	60-180	60	142	GapExp	0	167	3	75	1	target	1	427	787	76085	13.328	13.205	13.450
ProbeTrack10	14	ProbeTrack	10.1	SCS215a	20100217.111208	20100217.113626	8	0.013328	60	10	60-180	60	75	GapExp	0	168	3	1	0	target	0	640	-1000	75085	13.328	13.293	13.363
ProbeTrack10	14	ProbeTrack	10.1	SCS215a	20100217.111208	20100217.113632	8	0.013328	60	10	60-180	60	159	GapExp	0	169	3	4	0	target	0	574	-1000	74085	13.328	13.293	13.363
ProbeTrack10	14	ProbeTrack	10.1	SCS215a	20100217.111208	20100217.113638	8	0.013328	60	10	60-180	60	96	GapExp	0	170	3	4	1	target	1	574	713	74798	13.386	13.289	26.655
ProbeTrack10	14	ProbeTrack	10.1	SCS215a	20100217.111208	20100217.113644	8	0.013328	60	10	60-180	60	166	GapExp	0	171	3	1	0	distractor	1	560	720	75518	13.328	13.293	13.364
ProbeTrack10	14	ProbeTrack	10.1	SCS215a	20100217.111208	20100217.113651	8	0.013328	60	10	60-180	60	69	GapExp	0	172	3	75	0	distractor	1	720	640	76158	13.328	13.293	13.363
ProbeTrack10	14	ProbeTrack	10.1	SCS215a	20100217.111208	20100217.113657	8	0.013328	60	10	60-180	60	157	GapExp	0	173	3	75	1	distractor	0	840	-1000	75158	13.328	13.292	13.365
ProbeTrack10	14	ProbeTrack	10.1	SCS215a	20100217.111208	20100217.113705	8	0.013328	60	10	60-180	60	125	GapExp	0	174	3	75	1	target	1	480	760	75918	13.452	13.218	53.311
ProbeTrack10	14	ProbeTrack	10.1	SCS215a	20100217.111208	20100217.113712	8	0.013328	60	10	60-180	60	114	GapExp	0	175	3	1	1	target	1	560	720	76638	13.328	13.292	13.364
ProbeTrack10	14	ProbeTrack	10.1	SCS215a	20100217.111208	20100217.113717	8	0.013328	60	10	60-180	60	104	GapExp	0	176	3	2	1	target	1	534	733	77371	13.328	13.293	13.363
ProbeTrack10	14	ProbeTrack	10.1	SCS215a	20100217.111208	20100217.113902	8	0.013328	60	10	60-180	60	95	GapExp	0	177	3	0	0	distractor	1	800	600	77971	13.328	13.293	13.364
ProbeTrack10	14	ProbeTrack	10.1	SCS215a	20100217.111208	20100217.113908	8	0.013328	60	10	60-180	60	159	GapExp	0	178	3	0	0	distractor	1	667	667	78638	13.328	13.293	13.364
ProbeTrack10	14	ProbeTrack	10.1	SCS215a	20100217.111208	20100217.113916	8	0.013328	60	10	60-180	60	142	GapExp	0	179	3	2	1	target	1	587	707	79345	13.376	13.293	26.656
ProbeTrack10	14	ProbeTrack	10.1	SCS215a	20100217.111208	20100217.113922	8	0.013328	60	10	60-180	60	172	GapExp	0	180	3	2	0	distractor	1	654	673	80018	13.328	13.126	13.498
ProbeTrack10	14	ProbeTrack	10.1	SCS215a	20100217.111208	20100217.113929	8	0.013328	60	10	60-180	60	129	GapExp	0	181	3	75	0	distractor	1	387	807	80825	13.328	13.061	13.629
ProbeTrack10	14	ProbeTrack	10.1	SCS215a	20100217.111208	20100217.113936	8	0.013328	60	10	60-180	60	128	GapExp	0	182	3	0	1	target	1	560	720	81545	13.328	13.293	13.363
ProbeTrack10	14	ProbeTrack	10.1	SCS215a	20100217.111208	20100217.113942	8	0.013328	60	10	60-180	60	85	GapExp	0	183	3	4	0	distractor	1	560	720	82265	13.328	13.293	13.363
ProbeTrack10	14	ProbeTrack	10.1	SCS215a	20100217.111208	20100217.113948	8	0.013328	60	10	60-180	60	176	GapExp	0	184	3	4	0	distractor	1	667	667	82932	13.328	13.293	13.363
ProbeTrack10	14	ProbeTrack	10.1	SCS215a	20100217.111208	20100217.113955	8	0.013328	60	10	60-180	60	85	GapExp	0	185	3	1	0	distractor	1	747	627	83559	13.328	13.288	13.369
ProbeTrack10	14	ProbeTrack	10.1	SCS215a	20100217.111208	20100217.114001	8	0.013328	60	10	60-180	60	84	GapExp	0	186	3	0	0	distractor	1	720	640	84199	13.328	13.293	13.364
ProbeTrack10	14	ProbeTrack	10.1	SCS215a	20100217.111208	20100217.114006	8	0.013328	60	10	60-180	60	62	GapExp	0	187	3	2	0	distractor	1	640	680	84879	13.328	13.293	13.363
ProbeTrack10	14	ProbeTrack	10.1	SCS215a	20100217.111208	20100217.114011	8	0.013328	60	10	60-180	60	170	GapExp	0	188	3	0	0	distractor	1	614	693	85572	13.328	13.260	13.395
ProbeTrack10	14	ProbeTrack	10.1	SCS215a	20100217.111208	20100217.114018	8	0.013328	60	10	60-180	60	159	GapExp	0	189	3	1	1	target	1	627	687	86259	13.328	13.061	13.594
ProbeTrack10	14	ProbeTrack	10.1	SCS215a	20100217.111208	20100217.114024	8	0.013328	60	10	60-180	60	159	GapExp	0	190	3	4	1	target	1	427	787	87046	13.375	13.293	26.656
ProbeTrack10	14	ProbeTrack	10.1	SCS215a	20100217.111208	20100217.114031	8	0.013328	60	10	60-180	60	122	GapExp	0	191	3	0	1	target	1	587	707	87753	13.328	13.293	13.363
ProbeTrack10	14	ProbeTrack	10.1	SCS215a	20100217.111208	20100217.114037	8	0.013328	60	10	60-180	60	163	GapExp	0	192	3	2	1	target	1	534	733	88486	13.328	13.170	13.520
ProbeTrack10	14	ProbeTrack	10.1	SCS215a	20100217.111208	20100217.114043	8	0.013328	60	10	60-180	60	149	GapExp	0	193	3	2	0	target	0	520	-1000	87486	13.328	13.172	13.484
ProbeTrack10	14	ProbeTrack	10.1	SCS215a	20100217.111208	20100217.114049	8	0.013328	60	10	60-180	60	86	GapExp	0	194	3	75	0	distractor	1	454	773	88259	13.470	13.293	40.017
ProbeTrack10	14	ProbeTrack	10.1	SCS215a	20100217.111208	20100217.114056	8	0.013328	60	10	60-180	60	64	GapExp	0	195	3	75	1	target	1	440	780	89039	13.328	13.293	13.363
ProbeTrack10	14	ProbeTrack	10.1	SCS215a	20100217.111208	20100217.114102	8	0.013328	60	10	60-180	60	113	GapExp	0	196	3	1	1	target	1	534	733	89772	13.328	13.293	13.363
ProbeTrack10	14	ProbeTrack	10.1	SCS215a	20100217.111208	20100217.114108	8	0.013328	60	10	60-180	60	125	GapExp	0	197	3	4	1	target	1	454	773	90545	13.328	13.290	13.366
ProbeTrack10	14	ProbeTrack	10.1	SCS215a	20100217.111208	20100217.114114	8	0.013328	60	10	60-180	60	92	GapExp	0	198	3	75	0	distractor	1	507	747	91292	13.328	13.293	13.363
ProbeTrack10	14	ProbeTrack	10.1	SCS215a	20100217.111208	20100217.114120	8	0.013328	60	10	60-180	60	101	GapExp	0	199	3	1	0	distractor	1	627	687	91979	13.328	13.293	13.363
ProbeTrack10	14	ProbeTrack	10.1	SCS215a	20100217.111208	20100217.114126	8	0.013328	60	10	60-180	60	126	GapExp	0	200	3	1	1	target	1	640	680	92659	13.328	12.932	13.724
ProbeTrack10	14	ProbeTrack	10.1	SCS215a	20100217.111208	20100217.114132	8	0.013328	60	10	60-180	60	67	GapExp	0	201	3	1	0	distractor	1	640	680	93339	13.328	13.084	13.606
ProbeTrack10	14	ProbeTrack	10.1	SCS215a	20100217.111208	20100217.114137	8	0.013328	60	10	60-180	60	99	GapExp	0	202	3	75	1	target	1	547	727	94066	13.328	13.125	13.564
ProbeTrack10	14	ProbeTrack	10.1	SCS215a	20100217.111208	20100217.114144	8	0.013328	60	10	60-180	60	75	GapExp	0	203	3	0	0	target	0	800	-1000	93066	13.328	13.089	13.533
ProbeTrack10	14	ProbeTrack	10.1	SCS215a	20100217.111208	20100217.114149	8	0.013328	60	10	60-180	60	154	GapExp	0	204	3	1	1	target	1	547	727	93793	13.328	13.292	13.363
ProbeTrack10	14	ProbeTrack	10.1	SCS215a	20100217.111208	20100217.114156	8	0.013328	60	10	60-180	60	136	GapExp	0	205	3	2	0	target	0	787	-1000	92793	13.328	13.287	13.370
ProbeTrack10	14	ProbeTrack	10.1	SCS215a	20100217.111208	20100217.114202	8	0.013328	60	10	60-180	60	161	GapExp	0	206	3	75	0	distractor	1	507	747	93540	14.103	13.111	79.966
ProbeTrack10	14	ProbeTrack	10.1	SCS215a	20100217.111208	20100217.114210	8	0.013328	60	10	60-180	60	84	GapExp	0	207	3	2	0	distractor	1	667	667	94207	13.328	13.293	13.363
ProbeTrack10	14	ProbeTrack	10.1	SCS215a	20100217.111208	20100217.114215	8	0.013328	60	10	60-180	60	89	GapExp	0	208	3	2	0	distractor	1	600	700	94907	13.567	13.293	66.639
ProbeTrack10	14	ProbeTrack	10.1	SCS215a	20100217.111208	20100217.114222	8	0.013328	60	10	60-180	60	71	GapExp	0	209	3	1	0	distractor	1	667	667	95574	13.392	13.205	26.655
ProbeTrack10	14	ProbeTrack	10.1	SCS215a	20100217.111208	20100217.114228	8	0.013328	60	10	60-180	60	77	GapExp	0	210	3	75	1	distractor	0	600	-1000	94574	13.328	13.293	13.363
