exp	sub	code	rev	comp	runtime	trialtime	nstim	refreshdur	cuedur	gapdur	gapOnsetRange	durPostProbe	gapOnsetTime	blocktype	prac	trial	ntargets	soa	probeTarget	resp	acc	rt	pts	tpts	meanFrameDur	minFrameDur	maxFrameDur
ProbeTrack10	16	ProbeTrack	10.1	SCS215a	20100217.125652	20100217.125657	8	0.013327	60	0	60-180	60	74	NoGap	1	1	3	1	1	target	1	547	727	727	13.328	13.293	13.363
ProbeTrack10	16	ProbeTrack	10.1	SCS215a	20100217.125652	20100217.125721	8	0.013327	60	0	60-180	60	114	NoGap	1	2	3	75	0	distractor	1	773	614	1341	13.328	13.118	13.503
ProbeTrack10	16	ProbeTrack	10.1	SCS215a	20100217.125652	20100217.125734	8	0.013327	60	0	60-180	60	98	NoGap	1	3	3	2	0	distractor	1	787	607	1948	13.328	13.293	13.363
ProbeTrack10	16	ProbeTrack	10.1	SCS215a	20100217.125652	20100217.125743	8	0.013327	60	0	60-180	60	115	NoGap	1	4	3	4	0	distractor	1	853	574	2522	13.328	13.293	13.363
ProbeTrack10	16	ProbeTrack	10.1	SCS215a	20100217.125652	20100217.125756	8	0.013327	60	0	60-180	60	130	NoGap	1	5	3	75	1	target	1	707	647	3169	13.328	13.118	13.538
ProbeTrack10	16	ProbeTrack	10.1	SCS215a	20100217.125652	20100217.125805	8	0.013327	60	0	60-180	60	128	NoGap	1	6	3	4	0	distractor	1	693	654	3823	13.328	13.028	13.661
ProbeTrack10	16	ProbeTrack	10.1	SCS215a	20100217.125652	20100217.125812	8	0.013327	60	0	60-180	60	113	NoGap	1	7	3	1	0	distractor	1	640	680	4503	13.328	13.293	13.363
ProbeTrack10	16	ProbeTrack	10.1	SCS215a	20100217.125652	20100217.125819	8	0.013327	60	0	60-180	60	129	NoGap	1	8	3	0	1	distractor	0	613	-1000	3503	13.328	12.937	13.684
ProbeTrack10	16	ProbeTrack	10.1	SCS215a	20100217.125652	20100217.125825	8	0.013327	60	0	60-180	60	71	NoGap	1	9	3	0	0	distractor	1	960	520	4023	13.328	13.291	13.364
ProbeTrack10	16	ProbeTrack	10.1	SCS215a	20100217.125652	20100217.125834	8	0.013327	60	0	60-180	60	74	NoGap	1	10	3	2	0	distractor	1	627	687	4710	13.328	13.203	13.453
ProbeTrack10	16	ProbeTrack	10.1	SCS215a	20100217.125652	20100217.125841	8	0.013327	60	0	60-180	60	71	NoGap	1	11	3	1	0	distractor	1	600	700	5410	13.328	13.003	13.653
ProbeTrack10	16	ProbeTrack	10.1	SCS215a	20100217.125652	20100217.125846	8	0.013327	60	0	60-180	60	136	NoGap	1	12	3	4	1	target	1	1053	474	5884	13.328	13.255	13.400
ProbeTrack10	16	ProbeTrack	10.1	SCS215a	20100217.125652	20100217.125854	8	0.013327	60	0	60-180	60	176	NoGap	1	13	3	4	1	target	1	640	680	6564	13.328	13.293	13.363
ProbeTrack10	16	ProbeTrack	10.1	SCS215a	20100217.125652	20100217.125902	8	0.013327	60	0	60-180	60	99	NoGap	1	14	3	1	1	target	1	600	700	7264	13.328	13.249	13.407
ProbeTrack10	16	ProbeTrack	10.1	SCS215a	20100217.125652	20100217.125909	8	0.013327	60	0	60-180	60	93	NoGap	1	15	3	0	0	distractor	1	667	667	7931	13.328	13.293	13.363
ProbeTrack10	16	ProbeTrack	10.1	SCS215a	20100217.125652	20100217.125915	8	0.013327	60	0	60-180	60	138	NoGap	1	16	3	75	0	target	0	573	-1000	6931	13.328	13.256	13.366
ProbeTrack10	16	ProbeTrack	10.1	SCS215a	20100217.125652	20100217.125923	8	0.013327	60	0	60-180	60	136	NoGap	1	17	3	75	1	target	1	800	600	7531	13.328	13.228	13.427
ProbeTrack10	16	ProbeTrack	10.1	SCS215a	20100217.125652	20100217.125932	8	0.013327	60	0	60-180	60	174	NoGap	1	18	3	4	0	distractor	1	693	654	8185	13.328	13.266	13.390
ProbeTrack10	16	ProbeTrack	10.1	SCS215a	20100217.125652	20100217.125939	8	0.013327	60	0	60-180	60	117	NoGap	1	19	3	1	1	target	1	800	600	8785	13.328	13.293	13.363
ProbeTrack10	16	ProbeTrack	10.1	SCS215a	20100217.125652	20100217.125946	8	0.013327	60	0	60-180	60	62	NoGap	1	20	3	4	0	distractor	1	760	620	9405	13.328	13.292	13.363
ProbeTrack10	16	ProbeTrack	10.1	SCS215a	20100217.125652	20100217.125953	8	0.013327	60	0	60-180	60	109	NoGap	1	21	3	2	0	target	0	720	-1000	8405	13.328	13.293	13.368
ProbeTrack10	16	ProbeTrack	10.1	SCS215a	20100217.125652	20100217.125959	8	0.013327	60	0	60-180	60	169	NoGap	1	22	3	75	0	distractor	1	813	594	8999	13.328	13.059	13.596
ProbeTrack10	16	ProbeTrack	10.1	SCS215a	20100217.125652	20100217.130008	8	0.013327	60	0	60-180	60	63	NoGap	1	23	3	1	0	distractor	1	787	607	9606	13.328	13.233	13.389
ProbeTrack10	16	ProbeTrack	10.1	SCS215a	20100217.125652	20100217.130014	8	0.013327	60	0	60-180	60	145	NoGap	1	24	3	0	0	distractor	1	893	554	10160	13.375	12.863	27.144
ProbeTrack10	16	ProbeTrack	10.1	SCS215a	20100217.125652	20100217.130021	8	0.013327	60	0	60-180	60	140	NoGap	1	25	3	75	1	target	1	773	614	10774	13.404	13.246	26.766
ProbeTrack10	16	ProbeTrack	10.1	SCS215a	20100217.125652	20100217.130029	8	0.013327	60	0	60-180	60	106	NoGap	1	26	3	2	1	target	1	800	600	11374	13.383	13.192	26.656
ProbeTrack10	16	ProbeTrack	10.1	SCS215a	20100217.125652	20100217.130036	8	0.013327	60	0	60-180	60	175	NoGap	1	27	3	0	1	target	1	627	687	12061	13.328	13.286	13.370
ProbeTrack10	16	ProbeTrack	10.1	SCS215a	20100217.125652	20100217.130044	8	0.013327	60	0	60-180	60	175	NoGap	1	28	3	1	1	target	1	627	687	12748	13.328	13.293	13.363
ProbeTrack10	16	ProbeTrack	10.1	SCS215a	20100217.125652	20100217.130051	8	0.013327	60	0	60-180	60	120	NoGap	1	29	3	4	1	target	1	640	680	13428	13.328	13.293	13.364
ProbeTrack10	16	ProbeTrack	10.1	SCS215a	20100217.125652	20100217.130100	8	0.013327	60	0	60-180	60	167	NoGap	1	30	3	2	0	distractor	1	640	680	14108	13.328	13.293	13.363
ProbeTrack10	16	ProbeTrack	10.1	SCS215a	20100217.125652	20100217.130108	8	0.013327	60	0	60-180	60	164	NoGap	1	31	3	0	0	distractor	1	707	647	14755	13.600	12.996	39.938
ProbeTrack10	16	ProbeTrack	10.1	SCS215a	20100217.125652	20100217.130116	8	0.013327	60	0	60-180	60	133	NoGap	1	32	3	0	1	target	1	654	673	15428	13.328	13.290	13.364
ProbeTrack10	16	ProbeTrack	10.1	SCS215a	20100217.125652	20100217.130123	8	0.013327	60	0	60-180	60	72	NoGap	1	33	3	75	1	target	1	680	660	16088	13.328	13.214	13.474
ProbeTrack10	16	ProbeTrack	10.1	SCS215a	20100217.125652	20100217.130130	8	0.013327	60	0	60-180	60	118	NoGap	1	34	3	75	0	distractor	1	747	627	16715	13.328	13.258	13.397
ProbeTrack10	16	ProbeTrack	10.1	SCS215a	20100217.125652	20100217.130138	8	0.013327	60	0	60-180	60	174	NoGap	1	35	3	2	1	target	1	853	574	17289	13.328	13.206	13.440
ProbeTrack10	16	ProbeTrack	10.1	SCS215a	20100217.125652	20100217.130146	8	0.013327	60	0	60-180	60	115	NoGap	1	36	3	2	1	target	1	987	507	17796	13.328	13.221	13.470
ProbeTrack10	16	ProbeTrack	10.1	SCS215a	20100217.125652	20100217.130153	8	0.013327	60	0	60-180	60	130	NoGap	1	37	3	0	1	target	1	627	687	18483	13.328	13.293	13.363
ProbeTrack10	16	ProbeTrack	10.1	SCS215a	20100217.125652	20100217.130159	8	0.013327	60	0	60-180	60	107	NoGap	1	38	3	4	1	target	1	693	654	19137	13.328	13.293	13.363
ProbeTrack10	16	ProbeTrack	10.1	SCS215a	20100217.125652	20100217.130206	8	0.013327	60	0	60-180	60	93	NoGap	1	39	3	1	0	distractor	1	520	740	19877	13.328	13.247	13.409
ProbeTrack10	16	ProbeTrack	10.1	SCS215a	20100217.125652	20100217.130212	8	0.013327	60	0	60-180	60	127	NoGap	1	40	3	2	1	target	1	640	680	20557	13.328	13.040	13.649
ProbeTrack10	16	ProbeTrack	10.1	SCS215a	20100217.130303	20100217.130314	8	0.013327	60	10	60-180	60	173	GapPrac	1	1	3	0	1	target	1	3985	0	20557	13.328	13.293	13.363
ProbeTrack10	16	ProbeTrack	10.1	SCS215a	20100217.130303	20100217.130328	8	0.013327	60	10	60-180	60	120	GapPrac	1	2	3	75	0	distractor	1	573	714	21271	13.328	13.293	13.363
ProbeTrack10	16	ProbeTrack	10.1	SCS215a	20100217.130303	20100217.130337	8	0.013327	60	10	60-180	60	129	GapPrac	1	3	3	4	1	target	1	627	687	21958	13.328	13.084	13.573
ProbeTrack10	16	ProbeTrack	10.1	SCS215a	20100217.130303	20100217.130344	8	0.013327	60	10	60-180	60	77	GapPrac	1	4	3	1	1	target	1	627	687	22645	13.328	13.293	13.363
ProbeTrack10	16	ProbeTrack	10.1	SCS215a	20100217.130303	20100217.130349	8	0.013327	60	10	60-180	60	166	GapPrac	1	5	3	2	0	distractor	1	573	714	23359	13.328	13.148	13.475
ProbeTrack10	16	ProbeTrack	10.1	SCS215a	20100217.130303	20100217.130356	8	0.013327	60	10	60-180	60	116	GapPrac	1	6	3	75	0	distractor	1	680	660	24019	13.328	13.133	13.490
ProbeTrack10	16	ProbeTrack	10.1	SCS215a	20100217.130303	20100217.130403	8	0.013327	60	10	60-180	60	168	GapPrac	1	7	3	4	0	distractor	1	653	674	24693	13.328	13.215	13.433
ProbeTrack10	16	ProbeTrack	10.1	SCS215a	20100217.130303	20100217.130411	8	0.013327	60	10	60-180	60	167	GapPrac	1	8	3	4	0	distractor	1	574	713	25406	13.328	13.293	13.363
ProbeTrack10	16	ProbeTrack	10.1	SCS215a	20100217.130303	20100217.130418	8	0.013327	60	10	60-180	60	123	GapPrac	1	9	3	75	1	target	1	587	707	26113	13.449	13.092	26.985
ProbeTrack10	16	ProbeTrack	10.1	SCS215a	20100217.130303	20100217.130425	8	0.013327	60	10	60-180	60	159	GapPrac	1	10	3	1	0	distractor	1	427	787	26900	13.328	13.095	13.528
ProbeTrack10	16	ProbeTrack	10.1	SCS215a	20100217.130303	20100217.130431	8	0.013327	60	10	60-180	60	124	GapPrac	1	11	3	2	1	target	1	534	733	27633	13.328	12.930	13.725
ProbeTrack10	16	ProbeTrack	10.1	SCS215a	20100217.130303	20100217.130438	8	0.013327	60	10	60-180	60	105	GapPrac	1	12	3	0	0	distractor	1	667	667	28300	13.328	13.293	13.363
ProbeTrack10	16	ProbeTrack	10.1	SCS215a	20100217.130303	20100217.130444	8	0.013327	60	10	60-180	60	79	GapPrac	1	13	3	1	1	target	1	733	634	28934	13.328	13.293	13.363
ProbeTrack10	16	ProbeTrack	10.1	SCS215a	20100217.130303	20100217.130450	8	0.013327	60	10	60-180	60	175	GapPrac	1	14	3	1	0	distractor	1	680	660	29594	13.328	13.248	13.374
ProbeTrack10	16	ProbeTrack	10.1	SCS215a	20100217.130303	20100217.130457	8	0.013327	60	10	60-180	60	138	GapPrac	1	15	3	2	0	distractor	1	560	720	30314	13.328	13.088	13.539
ProbeTrack10	16	ProbeTrack	10.1	SCS215a	20100217.130303	20100217.130503	8	0.013327	60	10	60-180	60	95	GapPrac	1	16	3	2	1	target	1	494	753	31067	13.328	13.246	13.377
ProbeTrack10	16	ProbeTrack	10.1	SCS215a	20100217.130303	20100217.130509	8	0.013327	60	10	60-180	60	166	GapPrac	1	17	3	0	1	distractor	0	693	-1000	30067	13.328	13.226	13.425
ProbeTrack10	16	ProbeTrack	10.1	SCS215a	20100217.130303	20100217.130516	8	0.013327	60	10	60-180	60	77	GapPrac	1	18	3	0	0	distractor	1	640	680	30747	13.328	13.235	13.454
ProbeTrack10	16	ProbeTrack	10.1	SCS215a	20100217.130303	20100217.130522	8	0.013327	60	10	60-180	60	77	GapPrac	1	19	3	4	1	target	1	520	740	31487	13.328	13.293	13.363
ProbeTrack10	16	ProbeTrack	10.1	SCS215a	20100217.130303	20100217.130527	8	0.013327	60	10	60-180	60	66	GapPrac	1	20	3	75	1	target	1	653	674	32161	13.328	13.139	13.517
ProbeTrack10	16	ProbeTrack	10.1	SCS215a	20100217.130617	20100217.130625	8	0.013328	60	10	60-180	60	180	GapExp	1	1	3	1	1	target	1	1040	480	32641	13.328	13.133	13.526
ProbeTrack10	16	ProbeTrack	10.1	SCS215a	20100217.130617	20100217.130634	8	0.013328	60	10	60-180	60	135	GapExp	1	2	3	0	0	distractor	1	480	760	33401	13.328	13.160	13.529
ProbeTrack10	16	ProbeTrack	10.1	SCS215a	20100217.130617	20100217.130640	8	0.013328	60	10	60-180	60	66	GapExp	1	3	3	4	1	target	1	627	687	34088	13.328	13.293	13.363
ProbeTrack10	16	ProbeTrack	10.1	SCS215a	20100217.130617	20100217.130646	8	0.013328	60	10	60-180	60	97	GapExp	1	4	3	75	0	distractor	1	494	753	34841	13.328	13.201	13.453
ProbeTrack10	16	ProbeTrack	10.1	SCS215a	20100217.130617	20100217.130653	8	0.013328	60	10	60-180	60	150	GapExp	1	5	3	4	0	distractor	1	720	640	35481	13.328	13.113	13.543
ProbeTrack10	16	ProbeTrack	10.1	SCS215a	20100217.130617	20100217.130700	8	0.013328	60	10	60-180	60	98	GapExp	1	6	3	2	0	distractor	1	600	700	36181	13.328	13.152	13.505
ProbeTrack10	16	ProbeTrack	10.1	SCS215a	20100217.130617	20100217.130705	8	0.013328	60	10	60-180	60	162	GapExp	1	7	3	1	0	distractor	1	574	713	36894	13.328	13.228	13.394
ProbeTrack10	16	ProbeTrack	10.1	SCS215a	20100217.130617	20100217.130714	8	0.013328	60	10	60-180	60	138	GapExp	1	8	3	75	1	target	1	494	753	37647	13.328	13.179	13.477
ProbeTrack10	16	ProbeTrack	10.1	SCS215a	20100217.130617	20100217.130722	8	0.013328	60	10	60-180	60	98	GapExp	1	9	3	0	1	target	1	667	667	38314	13.328	13.293	13.363
ProbeTrack10	16	ProbeTrack	10.1	SCS215a	20100217.130617	20100217.130728	8	0.013328	60	10	60-180	60	124	GapExp	1	10	3	2	1	target	1	613	694	39008	13.328	13.293	13.363
ProbeTrack10	16	ProbeTrack	10.1	SCS215a	20100217.130617	20100217.130735	8	0.013328	60	10	60-180	60	79	GapExp	0	11	3	1	1	target	1	574	713	39721	13.328	13.293	13.363
ProbeTrack10	16	ProbeTrack	10.1	SCS215a	20100217.130617	20100217.130740	8	0.013328	60	10	60-180	60	71	GapExp	0	12	3	2	0	distractor	1	600	700	40421	13.328	13.293	13.363
ProbeTrack10	16	ProbeTrack	10.1	SCS215a	20100217.130617	20100217.130746	8	0.013328	60	10	60-180	60	140	GapExp	0	13	3	1	0	distractor	1	640	680	41101	13.328	13.293	13.363
ProbeTrack10	16	ProbeTrack	10.1	SCS215a	20100217.130617	20100217.130753	8	0.013328	60	10	60-180	60	75	GapExp	0	14	3	75	1	target	1	693	654	41755	13.328	13.293	13.363
ProbeTrack10	16	ProbeTrack	10.1	SCS215a	20100217.130617	20100217.130800	8	0.013328	60	10	60-180	60	164	GapExp	0	15	3	4	1	target	1	494	753	42508	13.328	13.293	13.363
ProbeTrack10	16	ProbeTrack	10.1	SCS215a	20100217.130617	20100217.130807	8	0.013328	60	10	60-180	60	97	GapExp	0	16	3	2	0	distractor	1	574	713	43221	13.328	13.293	13.363
ProbeTrack10	16	ProbeTrack	10.1	SCS215a	20100217.130617	20100217.130813	8	0.013328	60	10	60-180	60	68	GapExp	0	17	3	0	1	target	1	600	700	43921	13.328	13.293	13.363
ProbeTrack10	16	ProbeTrack	10.1	SCS215a	20100217.130617	20100217.130818	8	0.013328	60	10	60-180	60	98	GapExp	0	18	3	75	0	distractor	1	520	740	44661	13.328	13.293	13.363
ProbeTrack10	16	ProbeTrack	10.1	SCS215a	20100217.130617	20100217.130825	8	0.013328	60	10	60-180	60	113	GapExp	0	19	3	2	0	distractor	1	600	700	45361	13.328	13.135	13.488
ProbeTrack10	16	ProbeTrack	10.1	SCS215a	20100217.130617	20100217.130832	8	0.013328	60	10	60-180	60	64	GapExp	0	20	3	0	0	distractor	1	787	607	45968	13.328	13.066	13.623
ProbeTrack10	16	ProbeTrack	10.1	SCS215a	20100217.130617	20100217.130837	8	0.013328	60	10	60-180	60	88	GapExp	0	21	3	2	0	distractor	1	627	687	46655	13.328	13.293	13.363
ProbeTrack10	16	ProbeTrack	10.1	SCS215a	20100217.130617	20100217.130846	8	0.013328	60	10	60-180	60	81	GapExp	0	22	3	4	0	distractor	1	707	647	47302	13.328	13.293	13.363
ProbeTrack10	16	ProbeTrack	10.1	SCS215a	20100217.130617	20100217.130852	8	0.013328	60	10	60-180	60	78	GapExp	0	23	3	1	1	target	1	640	680	47982	13.328	13.293	13.363
ProbeTrack10	16	ProbeTrack	10.1	SCS215a	20100217.130617	20100217.130858	8	0.013328	60	10	60-180	60	90	GapExp	0	24	3	4	0	distractor	1	520	740	48722	13.328	13.293	13.363
ProbeTrack10	16	ProbeTrack	10.1	SCS215a	20100217.130617	20100217.130904	8	0.013328	60	10	60-180	60	150	GapExp	0	25	3	0	0	distractor	1	667	667	49389	13.328	13.290	13.365
ProbeTrack10	16	ProbeTrack	10.1	SCS215a	20100217.130617	20100217.130911	8	0.013328	60	10	60-180	60	113	GapExp	0	26	3	0	1	target	1	800	600	49989	13.328	13.289	13.367
ProbeTrack10	16	ProbeTrack	10.1	SCS215a	20100217.130617	20100217.130917	8	0.013328	60	10	60-180	60	97	GapExp	0	27	3	1	1	distractor	0	680	-1000	48989	13.328	13.293	13.363
ProbeTrack10	16	ProbeTrack	10.1	SCS215a	20100217.130617	20100217.130923	8	0.013328	60	10	60-180	60	73	GapExp	0	28	3	2	0	distractor	1	574	713	49702	13.328	13.293	13.393
ProbeTrack10	16	ProbeTrack	10.1	SCS215a	20100217.130617	20100217.130929	8	0.013328	60	10	60-180	60	117	GapExp	0	29	3	2	0	distractor	1	920	540	50242	13.328	13.293	13.363
ProbeTrack10	16	ProbeTrack	10.1	SCS215a	20100217.130617	20100217.130936	8	0.013328	60	10	60-180	60	109	GapExp	0	30	3	4	1	target	1	733	634	50876	13.328	13.293	13.363
ProbeTrack10	16	ProbeTrack	10.1	SCS215a	20100217.130617	20100217.130942	8	0.013328	60	10	60-180	60	140	GapExp	0	31	3	2	1	target	1	560	720	51596	13.328	13.259	13.431
ProbeTrack10	16	ProbeTrack	10.1	SCS215a	20100217.130617	20100217.130949	8	0.013328	60	10	60-180	60	128	GapExp	0	32	3	2	1	target	1	600	700	52296	13.328	13.104	13.552
ProbeTrack10	16	ProbeTrack	10.1	SCS215a	20100217.130617	20100217.130955	8	0.013328	60	10	60-180	60	103	GapExp	0	33	3	2	0	distractor	1	1440	280	52576	13.328	13.276	13.413
ProbeTrack10	16	ProbeTrack	10.1	SCS215a	20100217.130617	20100217.131002	8	0.013328	60	10	60-180	60	91	GapExp	0	34	3	1	0	distractor	1	800	600	53176	13.328	13.293	13.363
ProbeTrack10	16	ProbeTrack	10.1	SCS215a	20100217.130617	20100217.131009	8	0.013328	60	10	60-180	60	114	GapExp	0	35	3	0	0	distractor	1	534	733	53909	13.328	13.149	13.507
ProbeTrack10	16	ProbeTrack	10.1	SCS215a	20100217.130617	20100217.131016	8	0.013328	60	10	60-180	60	133	GapExp	0	36	3	75	0	distractor	1	773	614	54523	13.328	13.052	13.605
ProbeTrack10	16	ProbeTrack	10.1	SCS215a	20100217.130617	20100217.131023	8	0.013328	60	10	60-180	60	92	GapExp	0	37	3	75	1	target	1	853	574	55097	13.328	13.293	13.391
ProbeTrack10	16	ProbeTrack	10.1	SCS215a	20100217.130617	20100217.131030	8	0.013328	60	10	60-180	60	110	GapExp	0	38	3	75	1	target	1	654	673	55770	13.328	13.293	13.363
ProbeTrack10	16	ProbeTrack	10.1	SCS215a	20100217.130617	20100217.131038	8	0.013328	60	10	60-180	60	169	GapExp	0	39	3	4	0	distractor	1	520	740	56510	13.328	13.293	13.363
ProbeTrack10	16	ProbeTrack	10.1	SCS215a	20100217.130617	20100217.131045	8	0.013328	60	10	60-180	60	121	GapExp	0	40	3	0	0	distractor	1	734	633	57143	13.328	13.293	13.363
ProbeTrack10	16	ProbeTrack	10.1	SCS215a	20100217.130617	20100217.131051	8	0.013328	60	10	60-180	60	91	GapExp	0	41	3	4	0	distractor	1	534	733	57876	13.328	13.029	13.626
ProbeTrack10	16	ProbeTrack	10.1	SCS215a	20100217.130617	20100217.131057	8	0.013328	60	10	60-180	60	67	GapExp	0	42	3	2	1	target	1	560	720	58596	13.328	13.293	13.363
ProbeTrack10	16	ProbeTrack	10.1	SCS215a	20100217.130617	20100217.131103	8	0.013328	60	10	60-180	60	156	GapExp	0	43	3	0	1	target	1	680	660	59256	13.328	13.293	13.363
ProbeTrack10	16	ProbeTrack	10.1	SCS215a	20100217.130617	20100217.131109	8	0.013328	60	10	60-180	60	77	GapExp	0	44	3	4	1	target	1	454	773	60029	13.328	13.293	13.363
ProbeTrack10	16	ProbeTrack	10.1	SCS215a	20100217.130617	20100217.131115	8	0.013328	60	10	60-180	60	133	GapExp	0	45	3	0	0	distractor	1	520	740	60769	13.379	12.954	26.621
ProbeTrack10	16	ProbeTrack	10.1	SCS215a	20100217.130617	20100217.131123	8	0.013328	60	10	60-180	60	84	GapExp	0	46	3	0	1	distractor	0	467	-1000	59769	13.328	13.217	13.439
ProbeTrack10	16	ProbeTrack	10.1	SCS215a	20100217.130617	20100217.131129	8	0.013328	60	10	60-180	60	112	GapExp	0	47	3	1	1	distractor	0	640	-1000	58769	13.599	12.794	39.984
ProbeTrack10	16	ProbeTrack	10.1	SCS215a	20100217.130617	20100217.131135	8	0.013328	60	10	60-180	60	162	GapExp	0	48	3	4	0	distractor	1	560	720	59489	13.328	13.293	13.363
ProbeTrack10	16	ProbeTrack	10.1	SCS215a	20100217.130617	20100217.131142	8	0.013328	60	10	60-180	60	139	GapExp	0	49	3	75	1	target	1	587	707	60196	13.328	13.010	13.645
ProbeTrack10	16	ProbeTrack	10.1	SCS215a	20100217.130617	20100217.131150	8	0.013328	60	10	60-180	60	79	GapExp	0	50	3	75	0	distractor	1	614	693	60889	13.328	13.293	13.363
ProbeTrack10	16	ProbeTrack	10.1	SCS215a	20100217.130617	20100217.131157	8	0.013328	60	10	60-180	60	146	GapExp	0	51	3	0	1	target	1	494	753	61642	13.328	13.209	13.497
ProbeTrack10	16	ProbeTrack	10.1	SCS215a	20100217.130617	20100217.131203	8	0.013328	60	10	60-180	60	140	GapExp	0	52	3	75	0	distractor	1	480	760	62402	13.328	13.135	13.488
ProbeTrack10	16	ProbeTrack	10.1	SCS215a	20100217.130617	20100217.131211	8	0.013328	60	10	60-180	60	170	GapExp	0	53	3	75	1	target	1	560	720	63122	13.328	13.293	13.363
ProbeTrack10	16	ProbeTrack	10.1	SCS215a	20100217.130617	20100217.131219	8	0.013328	60	10	60-180	60	94	GapExp	0	54	3	75	1	target	1	467	767	63889	13.328	13.293	13.363
ProbeTrack10	16	ProbeTrack	10.1	SCS215a	20100217.130617	20100217.131225	8	0.013328	60	10	60-180	60	136	GapExp	0	55	3	75	0	distractor	1	587	707	64596	13.328	13.293	13.364
ProbeTrack10	16	ProbeTrack	10.1	SCS215a	20100217.130617	20100217.131233	8	0.013328	60	10	60-180	60	164	GapExp	0	56	3	1	1	target	1	494	753	65349	13.328	13.292	13.396
ProbeTrack10	16	ProbeTrack	10.1	SCS215a	20100217.130617	20100217.131240	8	0.013328	60	10	60-180	60	122	GapExp	0	57	3	4	1	target	1	494	753	66102	13.328	13.122	13.535
ProbeTrack10	16	ProbeTrack	10.1	SCS215a	20100217.130617	20100217.131246	8	0.013328	60	10	60-180	60	113	GapExp	0	58	3	2	1	target	1	534	733	66835	13.328	13.293	13.363
ProbeTrack10	16	ProbeTrack	10.1	SCS215a	20100217.130617	20100217.131252	8	0.013328	60	10	60-180	60	143	GapExp	0	59	3	4	1	target	1	494	753	67588	13.328	13.009	13.624
ProbeTrack10	16	ProbeTrack	10.1	SCS215a	20100217.130617	20100217.131258	8	0.013328	60	10	60-180	60	125	GapExp	0	60	3	4	1	target	1	440	780	68368	13.329	13.090	13.534
ProbeTrack10	16	ProbeTrack	10.1	SCS215a	20100217.130617	20100217.131304	8	0.013328	60	10	60-180	60	179	GapExp	0	61	3	75	1	target	1	587	707	69075	13.328	13.249	13.407
ProbeTrack10	16	ProbeTrack	10.1	SCS215a	20100217.130617	20100217.131312	8	0.013328	60	10	60-180	60	163	GapExp	0	62	3	0	1	target	1	520	740	69815	13.328	13.227	13.428
ProbeTrack10	16	ProbeTrack	10.1	SCS215a	20100217.130617	20100217.131319	8	0.013328	60	10	60-180	60	172	GapExp	0	63	3	4	0	target	0	787	-1000	68815	13.328	13.293	13.363
ProbeTrack10	16	ProbeTrack	10.1	SCS215a	20100217.130617	20100217.131326	8	0.013328	60	10	60-180	60	163	GapExp	0	64	3	4	0	distractor	1	574	713	69528	13.328	13.293	13.363
ProbeTrack10	16	ProbeTrack	10.1	SCS215a	20100217.130617	20100217.131333	8	0.013328	60	10	60-180	60	74	GapExp	0	65	3	75	0	distractor	1	800	600	70128	13.328	13.111	13.578
ProbeTrack10	16	ProbeTrack	10.1	SCS215a	20100217.130617	20100217.131340	8	0.013328	60	10	60-180	60	101	GapExp	0	66	3	2	0	distractor	1	640	680	70808	13.328	13.293	13.363
ProbeTrack10	16	ProbeTrack	10.1	SCS215a	20100217.130617	20100217.131346	8	0.013328	60	10	60-180	60	118	GapExp	0	67	3	1	0	distractor	1	627	687	71495	13.328	13.266	13.363
ProbeTrack10	16	ProbeTrack	10.1	SCS215a	20100217.130617	20100217.131352	8	0.013328	60	10	60-180	60	113	GapExp	0	68	3	1	1	target	1	560	720	72215	13.328	13.102	13.554
ProbeTrack10	16	ProbeTrack	10.1	SCS215a	20100217.130617	20100217.131358	8	0.013328	60	10	60-180	60	152	GapExp	0	69	3	4	0	distractor	1	534	733	72948	13.328	13.293	13.363
ProbeTrack10	16	ProbeTrack	10.1	SCS215a	20100217.130617	20100217.131404	8	0.013328	60	10	60-180	60	136	GapExp	0	70	3	0	1	target	1	720	640	73588	13.328	13.293	13.363
ProbeTrack10	16	ProbeTrack	10.1	SCS215a	20100217.130617	20100217.131411	8	0.013328	60	10	60-180	60	166	GapExp	0	71	3	75	1	target	1	467	767	74355	13.328	13.250	13.407
ProbeTrack10	16	ProbeTrack	10.1	SCS215a	20100217.130617	20100217.131419	8	0.013328	60	10	60-180	60	119	GapExp	0	72	3	4	0	distractor	1	534	733	75088	13.328	13.293	13.363
ProbeTrack10	16	ProbeTrack	10.1	SCS215a	20100217.130617	20100217.131425	8	0.013328	60	10	60-180	60	115	GapExp	0	73	3	0	0	distractor	1	614	693	75781	13.328	13.033	13.657
ProbeTrack10	16	ProbeTrack	10.1	SCS215a	20100217.130617	20100217.131431	8	0.013328	60	10	60-180	60	135	GapExp	0	74	3	2	0	distractor	1	640	680	76461	13.328	13.073	13.589
ProbeTrack10	16	ProbeTrack	10.1	SCS215a	20100217.130617	20100217.131437	8	0.013328	60	10	60-180	60	176	GapExp	0	75	3	4	1	target	1	694	653	77114	13.328	13.133	13.489
ProbeTrack10	16	ProbeTrack	10.1	SCS215a	20100217.130617	20100217.131445	8	0.013328	60	10	60-180	60	177	GapExp	0	76	3	0	0	distractor	1	760	620	77734	13.328	13.293	13.363
ProbeTrack10	16	ProbeTrack	10.1	SCS215a	20100217.130617	20100217.131453	8	0.013328	60	10	60-180	60	158	GapExp	0	77	3	2	0	distractor	1	787	607	78341	13.328	13.200	13.431
ProbeTrack10	16	ProbeTrack	10.1	SCS215a	20100217.130617	20100217.131459	8	0.013328	60	10	60-180	60	85	GapExp	0	78	3	75	1	target	1	640	680	79021	13.373	13.289	26.497
ProbeTrack10	16	ProbeTrack	10.1	SCS215a	20100217.130617	20100217.131506	8	0.013328	60	10	60-180	60	72	GapExp	0	79	3	4	0	distractor	1	654	673	79694	13.328	13.291	13.363
ProbeTrack10	16	ProbeTrack	10.1	SCS215a	20100217.130617	20100217.131512	8	0.013328	60	10	60-180	60	119	GapExp	0	80	3	2	0	distractor	1	560	720	80414	13.328	13.293	13.367
ProbeTrack10	16	ProbeTrack	10.1	SCS215a	20100217.130617	20100217.131518	8	0.013328	60	10	60-180	60	83	GapExp	0	81	3	2	1	target	1	547	727	81141	13.328	13.246	13.377
ProbeTrack10	16	ProbeTrack	10.1	SCS215a	20100217.130617	20100217.131523	8	0.013328	60	10	60-180	60	98	GapExp	0	82	3	75	0	distractor	1	547	727	81868	13.549	12.833	27.109
ProbeTrack10	16	ProbeTrack	10.1	SCS215a	20100217.130617	20100217.131530	8	0.013328	60	10	60-180	60	70	GapExp	0	83	3	75	0	distractor	1	630	685	82553	13.375	12.867	26.674
ProbeTrack10	16	ProbeTrack	10.1	SCS215a	20100217.130617	20100217.131537	8	0.013328	60	10	60-180	60	91	GapExp	0	84	3	0	0	distractor	1	614	693	83246	13.328	13.026	13.595
ProbeTrack10	16	ProbeTrack	10.1	SCS215a	20100217.130617	20100217.131543	8	0.013328	60	10	60-180	60	178	GapExp	0	85	3	0	1	target	1	560	720	83966	13.328	12.945	13.711
ProbeTrack10	16	ProbeTrack	10.1	SCS215a	20100217.130617	20100217.131550	8	0.013328	60	10	60-180	60	98	GapExp	0	86	3	0	1	target	1	534	733	84699	13.506	12.810	27.131
ProbeTrack10	16	ProbeTrack	10.1	SCS215a	20100217.130617	20100217.131556	8	0.013328	60	10	60-180	60	169	GapExp	0	87	3	4	0	distractor	1	560	720	85419	13.550	12.927	26.657
ProbeTrack10	16	ProbeTrack	10.1	SCS215a	20100217.130617	20100217.131602	8	0.013328	60	10	60-180	60	160	GapExp	0	88	3	4	1	target	1	427	787	86206	13.375	13.149	26.621
ProbeTrack10	16	ProbeTrack	10.1	SCS215a	20100217.130617	20100217.131609	8	0.013328	60	10	60-180	60	72	GapExp	0	89	3	2	1	target	1	480	760	86966	13.328	13.293	13.363
ProbeTrack10	16	ProbeTrack	10.1	SCS215a	20100217.130617	20100217.131614	8	0.013328	60	10	60-180	60	142	GapExp	0	90	3	4	1	distractor	0	733	-1000	85966	13.328	13.293	13.363
ProbeTrack10	16	ProbeTrack	10.1	SCS215a	20100217.130617	20100217.131621	8	0.013328	60	10	60-180	60	153	GapExp	0	91	3	2	1	target	1	534	733	86699	13.328	13.262	13.427
ProbeTrack10	16	ProbeTrack	10.1	SCS215a	20100217.130617	20100217.131628	8	0.013328	60	10	60-180	60	158	GapExp	0	92	3	4	1	target	1	654	673	87372	13.328	13.287	13.371
ProbeTrack10	16	ProbeTrack	10.1	SCS215a	20100217.130617	20100217.131635	8	0.013328	60	10	60-180	60	148	GapExp	0	93	3	2	1	target	1	480	760	88132	13.328	13.277	13.413
ProbeTrack10	16	ProbeTrack	10.1	SCS215a	20100217.130617	20100217.131642	8	0.013328	60	10	60-180	60	143	GapExp	0	94	3	1	1	target	1	507	747	88879	13.328	13.293	13.363
ProbeTrack10	16	ProbeTrack	10.1	SCS215a	20100217.130617	20100217.131648	8	0.013328	60	10	60-180	60	98	GapExp	0	95	3	4	0	distractor	1	534	733	89612	13.328	13.293	13.363
ProbeTrack10	16	ProbeTrack	10.1	SCS215a	20100217.130617	20100217.131654	8	0.013328	60	10	60-180	60	164	GapExp	0	96	3	75	1	target	1	494	753	90365	13.328	13.290	13.366
ProbeTrack10	16	ProbeTrack	10.1	SCS215a	20100217.130617	20100217.131701	8	0.013328	60	10	60-180	60	142	GapExp	0	97	3	4	1	target	1	480	760	91125	13.328	13.293	13.371
ProbeTrack10	16	ProbeTrack	10.1	SCS215a	20100217.130617	20100217.131707	8	0.013328	60	10	60-180	60	145	GapExp	0	98	3	1	0	distractor	1	627	687	91812	13.328	13.074	13.614
ProbeTrack10	16	ProbeTrack	10.1	SCS215a	20100217.130617	20100217.131714	8	0.013328	60	10	60-180	60	146	GapExp	0	99	3	4	1	target	1	773	614	92426	13.328	13.116	13.574
ProbeTrack10	16	ProbeTrack	10.1	SCS215a	20100217.130617	20100217.131721	8	0.013328	60	10	60-180	60	161	GapExp	0	100	3	1	0	distractor	1	507	747	93173	13.328	13.293	13.363
ProbeTrack10	16	ProbeTrack	10.1	SCS215a	20100217.130617	20100217.131727	8	0.013328	60	10	60-180	60	64	GapExp	0	101	3	75	1	target	1	454	773	93946	13.328	13.293	13.363
ProbeTrack10	16	ProbeTrack	10.1	SCS215a	20100217.130617	20100217.131734	8	0.013328	60	10	60-180	60	162	GapExp	0	102	3	1	0	distractor	1	480	760	94706	13.328	13.195	13.427
ProbeTrack10	16	ProbeTrack	10.1	SCS215a	20100217.130617	20100217.131745	8	0.013328	60	10	60-180	60	158	GapExp	0	103	3	2	1	target	1	813	594	95300	13.328	13.293	13.363
ProbeTrack10	16	ProbeTrack	10.1	SCS215a	20100217.130617	20100217.131752	8	0.013328	60	10	60-180	60	75	GapExp	0	104	3	1	0	distractor	1	534	733	96033	13.328	13.293	13.363
ProbeTrack10	16	ProbeTrack	10.1	SCS215a	20100217.130617	20100217.131758	8	0.013328	60	10	60-180	60	178	GapExp	0	105	3	0	0	distractor	1	747	627	96660	13.328	13.293	13.363
ProbeTrack10	16	ProbeTrack	10.1	SCS215a	20100217.130617	20100217.131805	8	0.013328	60	10	60-180	60	147	GapExp	0	106	3	0	0	distractor	1	773	614	97274	13.556	12.984	40.321
ProbeTrack10	16	ProbeTrack	10.1	SCS215a	20100217.130617	20100217.131813	8	0.013328	60	10	60-180	60	102	GapExp	0	107	3	2	0	distractor	1	653	674	97948	13.328	13.281	13.376
ProbeTrack10	16	ProbeTrack	10.1	SCS215a	20100217.130617	20100217.131819	8	0.013328	60	10	60-180	60	100	GapExp	0	108	3	75	1	target	1	547	727	98675	13.328	13.197	13.424
ProbeTrack10	16	ProbeTrack	10.1	SCS215a	20100217.130617	20100217.131825	8	0.013328	60	10	60-180	60	131	GapExp	0	109	3	1	0	target	0	1613	-1000	97675	13.328	13.250	13.372
ProbeTrack10	16	ProbeTrack	10.1	SCS215a	20100217.130617	20100217.131833	8	0.013328	60	10	60-180	60	145	GapExp	0	110	3	1	0	distractor	1	787	607	98282	13.328	13.253	13.408
ProbeTrack10	16	ProbeTrack	10.1	SCS215a	20100217.130617	20100217.131840	8	0.013328	60	10	60-180	60	131	GapExp	0	111	3	75	1	target	1	573	714	98996	13.328	13.292	13.364
ProbeTrack10	16	ProbeTrack	10.1	SCS215a	20100217.130617	20100217.131848	8	0.013328	60	10	60-180	60	148	GapExp	0	112	3	4	1	target	1	494	753	99749	13.328	13.174	13.515
ProbeTrack10	16	ProbeTrack	10.1	SCS215a	20100217.130617	20100217.131854	8	0.013328	60	10	60-180	60	159	GapExp	0	113	3	0	1	target	1	534	733	100482	13.328	13.289	13.367
ProbeTrack10	16	ProbeTrack	10.1	SCS215a	20100217.130617	20100217.131901	8	0.013328	60	10	60-180	60	128	GapExp	0	114	3	1	1	target	1	480	760	101242	13.328	13.293	13.363
ProbeTrack10	16	ProbeTrack	10.1	SCS215a	20100217.130617	20100217.131907	8	0.013328	60	10	60-180	60	81	GapExp	0	115	3	0	0	distractor	1	547	727	101969	13.328	13.242	13.447
ProbeTrack10	16	ProbeTrack	10.1	SCS215a	20100217.130617	20100217.131912	8	0.013328	60	10	60-180	60	116	GapExp	0	116	3	2	0	distractor	1	667	667	102636	13.328	13.293	13.363
ProbeTrack10	16	ProbeTrack	10.1	SCS215a	20100217.130617	20100217.131919	8	0.013328	60	10	60-180	60	158	GapExp	0	117	3	4	0	distractor	1	733	634	103270	13.328	13.293	13.363
ProbeTrack10	16	ProbeTrack	10.1	SCS215a	20100217.130617	20100217.131925	8	0.013328	60	10	60-180	60	89	GapExp	0	118	3	75	0	distractor	1	653	674	103944	13.328	13.292	13.363
ProbeTrack10	16	ProbeTrack	10.1	SCS215a	20100217.130617	20100217.131932	8	0.013328	60	10	60-180	60	152	GapExp	0	119	3	1	0	distractor	1	720	640	104584	13.328	13.168	13.487
ProbeTrack10	16	ProbeTrack	10.1	SCS215a	20100217.130617	20100217.131939	8	0.013328	60	10	60-180	60	121	GapExp	0	120	3	75	0	target	0	667	-1000	103584	13.328	13.293	13.363
ProbeTrack10	16	ProbeTrack	10.1	SCS215a	20100217.130617	20100217.131946	8	0.013328	60	10	60-180	60	81	GapExp	0	121	3	2	1	target	1	534	733	104317	13.328	13.167	13.490
ProbeTrack10	16	ProbeTrack	10.1	SCS215a	20100217.130617	20100217.131952	8	0.013328	60	10	60-180	60	98	GapExp	0	122	3	75	0	distractor	1	600	700	105017	13.328	13.141	13.548
ProbeTrack10	16	ProbeTrack	10.1	SCS215a	20100217.130617	20100217.131959	8	0.013328	60	10	60-180	60	172	GapExp	0	123	3	4	1	distractor	0	560	-1000	104017	13.328	13.293	13.363
ProbeTrack10	16	ProbeTrack	10.1	SCS215a	20100217.130617	20100217.132005	8	0.013328	60	10	60-180	60	147	GapExp	0	124	3	0	1	target	1	440	780	104797	13.328	13.208	13.449
ProbeTrack10	16	ProbeTrack	10.1	SCS215a	20100217.130617	20100217.132012	8	0.013328	60	10	60-180	60	158	GapExp	0	125	3	1	1	target	1	520	740	105537	13.328	12.839	13.850
ProbeTrack10	16	ProbeTrack	10.1	SCS215a	20100217.130617	20100217.132019	8	0.013328	60	10	60-180	60	70	GapExp	0	126	3	2	1	target	1	827	587	106124	13.328	13.259	13.396
ProbeTrack10	16	ProbeTrack	10.1	SCS215a	20100217.130617	20100217.132024	8	0.013328	60	10	60-180	60	146	GapExp	0	127	3	4	1	target	1	613	694	106818	13.328	13.247	13.409
ProbeTrack10	16	ProbeTrack	10.1	SCS215a	20100217.130617	20100217.132031	8	0.013328	60	10	60-180	60	117	GapExp	0	128	3	0	0	distractor	1	440	780	107598	13.328	13.286	13.367
ProbeTrack10	16	ProbeTrack	10.1	SCS215a	20100217.130617	20100217.132037	8	0.013328	60	10	60-180	60	138	GapExp	0	129	3	75	0	distractor	1	907	547	108145	13.328	13.290	13.363
ProbeTrack10	16	ProbeTrack	10.1	SCS215a	20100217.130617	20100217.132044	8	0.013328	60	10	60-180	60	129	GapExp	0	130	3	0	1	target	1	560	720	108865	13.328	13.274	13.381
ProbeTrack10	16	ProbeTrack	10.1	SCS215a	20100217.130617	20100217.132051	8	0.013328	60	10	60-180	60	152	GapExp	0	131	3	1	0	distractor	1	427	787	109652	13.328	13.105	13.551
ProbeTrack10	16	ProbeTrack	10.1	SCS215a	20100217.130617	20100217.132057	8	0.013328	60	10	60-180	60	121	GapExp	0	132	3	2	1	target	1	494	753	110405	13.328	13.191	13.431
ProbeTrack10	16	ProbeTrack	10.1	SCS215a	20100217.130617	20100217.132103	8	0.013328	60	10	60-180	60	142	GapExp	0	133	3	2	0	distractor	1	734	633	111038	13.328	13.273	13.383
ProbeTrack10	16	ProbeTrack	10.1	SCS215a	20100217.130617	20100217.132110	8	0.013328	60	10	60-180	60	67	GapExp	0	134	3	1	1	target	1	520	740	111778	13.328	13.284	13.390
ProbeTrack10	16	ProbeTrack	10.1	SCS215a	20100217.130617	20100217.132115	8	0.013328	60	10	60-180	60	111	GapExp	0	135	3	0	1	target	1	574	713	112491	13.328	13.192	13.463
ProbeTrack10	16	ProbeTrack	10.1	SCS215a	20100217.130617	20100217.132121	8	0.013328	60	10	60-180	60	74	GapExp	0	136	3	1	0	distractor	1	600	700	113191	13.328	13.293	13.364
ProbeTrack10	16	ProbeTrack	10.1	SCS215a	20100217.130617	20100217.132126	8	0.013328	60	10	60-180	60	144	GapExp	0	137	3	0	0	distractor	1	534	733	113924	13.328	13.293	13.363
ProbeTrack10	16	ProbeTrack	10.1	SCS215a	20100217.130617	20100217.132133	8	0.013328	60	10	60-180	60	178	GapExp	0	138	3	2	0	distractor	1	520	740	114664	13.328	13.293	13.363
ProbeTrack10	16	ProbeTrack	10.1	SCS215a	20100217.130617	20100217.132140	8	0.013328	60	10	60-180	60	82	GapExp	0	139	3	0	1	target	1	1906	47	114711	13.328	13.293	13.363
ProbeTrack10	16	ProbeTrack	10.1	SCS215a	20100217.130617	20100217.132147	8	0.013328	60	10	60-180	60	100	GapExp	0	140	3	75	1	target	1	387	807	115518	13.328	13.292	13.363
ProbeTrack10	16	ProbeTrack	10.1	SCS215a	20100217.130617	20100217.132154	8	0.013328	60	10	60-180	60	65	GapExp	0	141	3	2	1	distractor	0	867	-1000	114518	13.328	13.291	13.365
ProbeTrack10	16	ProbeTrack	10.1	SCS215a	20100217.130617	20100217.132200	8	0.013328	60	10	60-180	60	171	GapExp	0	142	3	1	0	target	0	454	-1000	113518	13.328	13.254	13.437
ProbeTrack10	16	ProbeTrack	10.1	SCS215a	20100217.130617	20100217.132208	8	0.013328	60	10	60-180	60	173	GapExp	0	143	3	1	1	target	1	693	654	114172	13.328	13.293	13.363
ProbeTrack10	16	ProbeTrack	10.1	SCS215a	20100217.130617	20100217.132215	8	0.013328	60	10	60-180	60	81	GapExp	0	144	3	4	0	distractor	1	534	733	114905	13.328	13.044	13.578
ProbeTrack10	16	ProbeTrack	10.1	SCS215a	20100217.130617	20100217.132221	8	0.013328	60	10	60-180	60	146	GapExp	0	145	3	75	0	distractor	1	480	760	115665	13.328	13.293	13.363
ProbeTrack10	16	ProbeTrack	10.1	SCS215a	20100217.130617	20100217.132228	8	0.013328	60	10	60-180	60	124	GapExp	0	146	3	75	0	distractor	1	893	554	116219	13.328	13.293	13.363
ProbeTrack10	16	ProbeTrack	10.1	SCS215a	20100217.130617	20100217.132236	8	0.013328	60	10	60-180	60	166	GapExp	0	147	3	1	0	distractor	1	654	673	116892	13.328	13.293	13.363
ProbeTrack10	16	ProbeTrack	10.1	SCS215a	20100217.130617	20100217.132243	8	0.013328	60	10	60-180	60	132	GapExp	0	148	3	4	0	distractor	1	640	680	117572	13.328	13.201	13.488
ProbeTrack10	16	ProbeTrack	10.1	SCS215a	20100217.130617	20100217.132250	8	0.013328	60	10	60-180	60	93	GapExp	0	149	3	1	1	target	1	640	680	118252	13.328	13.293	13.363
ProbeTrack10	16	ProbeTrack	10.1	SCS215a	20100217.130617	20100217.132255	8	0.013328	60	10	60-180	60	159	GapExp	0	150	3	2	1	target	1	600	700	118952	13.328	13.293	13.363
ProbeTrack10	16	ProbeTrack	10.1	SCS215a	20100217.130617	20100217.132302	8	0.013328	60	10	60-180	60	143	GapExp	0	151	3	4	0	distractor	1	534	733	119685	13.328	13.293	13.363
ProbeTrack10	16	ProbeTrack	10.1	SCS215a	20100217.130617	20100217.132309	8	0.013328	60	10	60-180	60	99	GapExp	0	152	3	0	1	target	1	560	720	120405	13.328	13.293	13.363
ProbeTrack10	16	ProbeTrack	10.1	SCS215a	20100217.130617	20100217.132315	8	0.013328	60	10	60-180	60	176	GapExp	0	153	3	2	1	target	1	387	807	121212	13.328	13.293	13.363
ProbeTrack10	16	ProbeTrack	10.1	SCS215a	20100217.130617	20100217.132322	8	0.013328	60	10	60-180	60	111	GapExp	0	154	3	0	1	target	1	734	633	121845	13.328	13.279	13.378
ProbeTrack10	16	ProbeTrack	10.1	SCS215a	20100217.130617	20100217.132328	8	0.013328	60	10	60-180	60	156	GapExp	0	155	3	1	1	target	1	614	693	122538	13.328	13.133	13.523
ProbeTrack10	16	ProbeTrack	10.1	SCS215a	20100217.130617	20100217.132335	8	0.013328	60	10	60-180	60	151	GapExp	0	156	3	4	0	distractor	1	547	727	123265	13.328	13.272	13.397
ProbeTrack10	16	ProbeTrack	10.1	SCS215a	20100217.130617	20100217.132341	8	0.013328	60	10	60-180	60	61	GapExp	0	157	3	75	1	target	1	600	700	123965	13.328	13.290	13.363
ProbeTrack10	16	ProbeTrack	10.1	SCS215a	20100217.130617	20100217.132348	8	0.013328	60	10	60-180	60	68	GapExp	0	158	3	75	1	target	1	507	747	124712	13.328	13.132	13.525
ProbeTrack10	16	ProbeTrack	10.1	SCS215a	20100217.130617	20100217.132354	8	0.013328	60	10	60-180	60	76	GapExp	0	159	3	1	1	target	1	494	753	125465	13.328	13.272	13.418
ProbeTrack10	16	ProbeTrack	10.1	SCS215a	20100217.130617	20100217.132400	8	0.013328	60	10	60-180	60	113	GapExp	0	160	3	1	0	distractor	1	454	773	126238	13.328	13.125	13.497
ProbeTrack10	16	ProbeTrack	10.1	SCS215a	20100217.130617	20100217.132406	8	0.013328	60	10	60-180	60	118	GapExp	0	161	3	4	0	distractor	1	520	740	126978	13.328	13.290	13.363
ProbeTrack10	16	ProbeTrack	10.1	SCS215a	20100217.130617	20100217.132412	8	0.013328	60	10	60-180	60	82	GapExp	0	162	3	1	1	distractor	0	680	-1000	125978	13.328	13.293	13.363
ProbeTrack10	16	ProbeTrack	10.1	SCS215a	20100217.130617	20100217.132418	8	0.013328	60	10	60-180	60	107	GapExp	0	163	3	75	1	target	1	454	773	126751	13.328	13.293	13.363
ProbeTrack10	16	ProbeTrack	10.1	SCS215a	20100217.130617	20100217.132425	8	0.013328	60	10	60-180	60	170	GapExp	0	164	3	1	1	target	1	467	767	127518	13.328	13.293	13.365
ProbeTrack10	16	ProbeTrack	10.1	SCS215a	20100217.130617	20100217.132431	8	0.013328	60	10	60-180	60	72	GapExp	0	165	3	4	1	target	1	507	747	128265	13.328	13.002	13.653
ProbeTrack10	16	ProbeTrack	10.1	SCS215a	20100217.130617	20100217.132437	8	0.013328	60	10	60-180	60	156	GapExp	0	166	3	1	0	distractor	1	507	747	129012	13.328	13.293	13.363
ProbeTrack10	16	ProbeTrack	10.1	SCS215a	20100217.130617	20100217.132443	8	0.013328	60	10	60-180	60	152	GapExp	0	167	3	4	0	distractor	1	494	753	129765	13.328	13.293	13.363
ProbeTrack10	16	ProbeTrack	10.1	SCS215a	20100217.130617	20100217.132450	8	0.013328	60	10	60-180	60	164	GapExp	0	168	3	0	0	target	0	454	-1000	128765	13.328	13.098	13.592
ProbeTrack10	16	ProbeTrack	10.1	SCS215a	20100217.130617	20100217.132456	8	0.013328	60	10	60-180	60	87	GapExp	0	169	3	75	0	distractor	1	694	653	129418	13.328	13.267	13.389
ProbeTrack10	16	ProbeTrack	10.1	SCS215a	20100217.130617	20100217.132506	8	0.013328	60	10	60-180	60	84	GapExp	0	170	3	75	1	target	1	680	660	130078	13.328	13.293	13.364
ProbeTrack10	16	ProbeTrack	10.1	SCS215a	20100217.130617	20100217.132512	8	0.013328	60	10	60-180	60	62	GapExp	0	171	3	4	1	target	1	560	720	130798	13.328	13.190	13.432
ProbeTrack10	16	ProbeTrack	10.1	SCS215a	20100217.130617	20100217.132518	8	0.013328	60	10	60-180	60	65	GapExp	0	172	3	1	0	distractor	1	587	707	131505	13.328	13.039	13.616
ProbeTrack10	16	ProbeTrack	10.1	SCS215a	20100217.130617	20100217.132523	8	0.013328	60	10	60-180	60	171	GapExp	0	173	3	2	1	target	1	507	747	132252	13.328	13.167	13.525
ProbeTrack10	16	ProbeTrack	10.1	SCS215a	20100217.130617	20100217.132530	8	0.013328	60	10	60-180	60	166	GapExp	0	174	3	0	1	target	1	557	722	132974	13.328	12.887	13.769
ProbeTrack10	16	ProbeTrack	10.1	SCS215a	20100217.130617	20100217.132536	8	0.013328	60	10	60-180	60	79	GapExp	0	175	3	75	0	distractor	1	547	727	133701	13.328	13.176	13.481
ProbeTrack10	16	ProbeTrack	10.1	SCS215a	20100217.130617	20100217.132543	8	0.013328	60	10	60-180	60	155	GapExp	0	176	3	2	0	distractor	1	667	667	134368	13.328	13.021	13.636
ProbeTrack10	16	ProbeTrack	10.1	SCS215a	20100217.130617	20100217.132550	8	0.013328	60	10	60-180	60	146	GapExp	0	177	3	4	1	target	1	560	720	135088	13.328	13.131	13.501
ProbeTrack10	16	ProbeTrack	10.1	SCS215a	20100217.130617	20100217.132556	8	0.013328	60	10	60-180	60	174	GapExp	0	178	3	1	1	target	1	653	674	135762	13.328	13.293	13.367
ProbeTrack10	16	ProbeTrack	10.1	SCS215a	20100217.130617	20100217.132603	8	0.013328	60	10	60-180	60	111	GapExp	0	179	3	1	1	distractor	0	414	-1000	134762	13.328	13.158	13.497
ProbeTrack10	16	ProbeTrack	10.1	SCS215a	20100217.130617	20100217.132609	8	0.013328	60	10	60-180	60	140	GapExp	0	180	3	0	0	target	0	1027	-1000	133762	13.328	13.293	13.365
ProbeTrack10	16	ProbeTrack	10.1	SCS215a	20100217.130617	20100217.132616	8	0.013328	60	10	60-180	60	108	GapExp	0	181	3	0	0	distractor	1	614	693	134455	13.328	13.218	13.452
ProbeTrack10	16	ProbeTrack	10.1	SCS215a	20100217.130617	20100217.132622	8	0.013328	60	10	60-180	60	166	GapExp	0	182	3	0	0	distractor	1	653	674	135129	13.328	13.293	13.363
ProbeTrack10	16	ProbeTrack	10.1	SCS215a	20100217.130617	20100217.132630	8	0.013328	60	10	60-180	60	109	GapExp	0	183	3	2	0	distractor	1	787	607	135736	13.328	13.293	13.363
ProbeTrack10	16	ProbeTrack	10.1	SCS215a	20100217.130617	20100217.132636	8	0.013328	60	10	60-180	60	87	GapExp	0	184	3	2	1	target	1	600	700	136436	13.328	13.163	13.493
ProbeTrack10	16	ProbeTrack	10.1	SCS215a	20100217.130617	20100217.132641	8	0.013328	60	10	60-180	60	155	GapExp	0	185	3	2	1	target	1	387	807	137243	13.328	13.200	13.461
ProbeTrack10	16	ProbeTrack	10.1	SCS215a	20100217.130617	20100217.132648	8	0.013328	60	10	60-180	60	123	GapExp	0	186	3	2	0	distractor	1	480	760	138003	13.328	13.293	13.363
ProbeTrack10	16	ProbeTrack	10.1	SCS215a	20100217.130617	20100217.132654	8	0.013328	60	10	60-180	60	76	GapExp	0	187	3	0	0	distractor	1	587	707	138710	13.328	13.270	13.386
ProbeTrack10	16	ProbeTrack	10.1	SCS215a	20100217.130617	20100217.132659	8	0.013328	60	10	60-180	60	103	GapExp	0	188	3	1	0	distractor	1	507	747	139457	13.328	13.282	13.374
ProbeTrack10	16	ProbeTrack	10.1	SCS215a	20100217.130617	20100217.132705	8	0.013328	60	10	60-180	60	62	GapExp	0	189	3	75	0	distractor	1	600	700	140157	13.328	13.278	13.379
ProbeTrack10	16	ProbeTrack	10.1	SCS215a	20100217.130617	20100217.132712	8	0.013328	60	10	60-180	60	121	GapExp	0	190	3	75	1	target	1	520	740	140897	13.328	13.293	13.363
ProbeTrack10	16	ProbeTrack	10.1	SCS215a	20100217.130617	20100217.132719	8	0.013328	60	10	60-180	60	81	GapExp	0	191	3	1	1	target	1	534	733	141630	13.328	12.966	13.655
ProbeTrack10	16	ProbeTrack	10.1	SCS215a	20100217.130617	20100217.132725	8	0.013328	60	10	60-180	60	170	GapExp	0	192	3	0	1	target	1	947	527	142157	13.328	13.167	13.456
ProbeTrack10	16	ProbeTrack	10.1	SCS215a	20100217.130617	20100217.132732	8	0.013328	60	10	60-180	60	96	GapExp	0	193	3	75	0	distractor	1	547	727	142884	13.328	13.286	13.371
ProbeTrack10	16	ProbeTrack	10.1	SCS215a	20100217.130617	20100217.132739	8	0.013328	60	10	60-180	60	127	GapExp	0	194	3	2	1	target	1	520	740	143624	13.328	13.293	13.363
ProbeTrack10	16	ProbeTrack	10.1	SCS215a	20100217.130617	20100217.132745	8	0.013328	60	10	60-180	60	133	GapExp	0	195	3	0	1	target	1	587	707	144331	13.328	13.293	13.363
ProbeTrack10	16	ProbeTrack	10.1	SCS215a	20100217.130617	20100217.132752	8	0.013328	60	10	60-180	60	86	GapExp	0	196	3	4	1	target	1	454	773	145104	13.328	13.292	13.363
ProbeTrack10	16	ProbeTrack	10.1	SCS215a	20100217.130617	20100217.132802	8	0.013328	60	10	60-180	60	61	GapExp	0	197	3	1	0	distractor	1	707	647	145751	13.328	13.293	13.364
ProbeTrack10	16	ProbeTrack	10.1	SCS215a	20100217.130617	20100217.132807	8	0.013328	60	10	60-180	60	85	GapExp	0	198	3	1	0	distractor	1	640	680	146431	13.328	13.293	13.363
ProbeTrack10	16	ProbeTrack	10.1	SCS215a	20100217.130617	20100217.132813	8	0.013328	60	10	60-180	60	128	GapExp	0	199	3	75	0	distractor	1	654	673	147104	13.328	13.252	13.371
ProbeTrack10	16	ProbeTrack	10.1	SCS215a	20100217.130617	20100217.132821	8	0.013328	60	10	60-180	60	138	GapExp	0	200	3	0	1	target	1	547	727	147831	13.328	13.149	13.505
ProbeTrack10	16	ProbeTrack	10.1	SCS215a	20100217.130617	20100217.132827	8	0.013328	60	10	60-180	60	166	GapExp	0	201	3	0	0	distractor	1	534	733	148564	13.328	13.172	13.518
ProbeTrack10	16	ProbeTrack	10.1	SCS215a	20100217.130617	20100217.132834	8	0.013328	60	10	60-180	60	107	GapExp	0	202	3	2	0	distractor	1	440	780	149344	13.328	13.292	13.364
ProbeTrack10	16	ProbeTrack	10.1	SCS215a	20100217.130617	20100217.132840	8	0.013328	60	10	60-180	60	76	GapExp	0	203	3	1	1	target	1	507	747	150091	13.328	13.223	13.466
ProbeTrack10	16	ProbeTrack	10.1	SCS215a	20100217.130617	20100217.132846	8	0.013328	60	10	60-180	60	158	GapExp	0	204	3	2	0	distractor	1	507	747	150838	13.328	13.293	13.363
ProbeTrack10	16	ProbeTrack	10.1	SCS215a	20100217.130617	20100217.132853	8	0.013328	60	10	60-180	60	84	GapExp	0	205	3	0	0	distractor	1	440	780	151618	13.328	13.293	13.363
ProbeTrack10	16	ProbeTrack	10.1	SCS215a	20100217.130617	20100217.132858	8	0.013328	60	10	60-180	60	93	GapExp	0	206	3	4	1	target	1	454	773	152391	13.328	13.293	13.363
ProbeTrack10	16	ProbeTrack	10.1	SCS215a	20100217.130617	20100217.132904	8	0.013328	60	10	60-180	60	82	GapExp	0	207	3	4	0	distractor	1	600	700	153091	13.328	13.206	13.420
ProbeTrack10	16	ProbeTrack	10.1	SCS215a	20100217.130617	20100217.132910	8	0.013328	60	10	60-180	60	63	GapExp	0	208	3	2	1	target	1	507	747	153838	13.328	13.285	13.369
ProbeTrack10	16	ProbeTrack	10.1	SCS215a	20100217.130617	20100217.132915	8	0.013328	60	10	60-180	60	155	GapExp	0	209	3	75	1	target	1	494	753	154591	13.328	13.272	13.363
ProbeTrack10	16	ProbeTrack	10.1	SCS215a	20100217.130617	20100217.132923	8	0.013328	60	10	60-180	60	86	GapExp	0	210	3	75	0	distractor	1	520	740	155331	13.328	13.234	13.422
