exp	sub	code	rev	comp	runtime	trialtime	nstim	refreshdur	cuedur	gapdur	gapOnsetRange	durPostProbe	gapOnsetTime	blocktype	prac	trial	ntargets	soa	probeTarget	resp	acc	rt	pts	tpts	meanFrameDur	minFrameDur	maxFrameDur
ProbeTrack10	11	ProbeTrack	10.1	SCS215b	20100208.110553	20100208.110626	8	0.013328	60	0	60-180	60	112	NoGap	1	1	3	75	0	distractor	1	2159	0	0	13.328	13.238	13.384
ProbeTrack10	11	ProbeTrack	10.1	SCS215b	20100208.110553	20100208.110704	8	0.013328	60	0	60-180	60	157	NoGap	1	2	3	0	1	target	1	2799	0	0	13.374	13.293	26.656
ProbeTrack10	11	ProbeTrack	10.1	SCS215b	20100208.110553	20100208.110730	8	0.013328	60	0	60-180	60	118	NoGap	1	3	3	4	1	target	1	3652	0	0	13.432	13.250	39.984
ProbeTrack10	11	ProbeTrack	10.1	SCS215b	20100208.110553	20100208.110750	8	0.013328	60	0	60-180	60	83	NoGap	1	4	3	4	1	target	1	3292	0	0	13.328	13.234	13.394
ProbeTrack10	11	ProbeTrack	10.1	SCS215b	20100208.110553	20100208.110802	8	0.013328	60	0	60-180	60	140	NoGap	1	5	3	75	0	distractor	1	1800	100	100	13.328	13.087	13.535
ProbeTrack10	11	ProbeTrack	10.1	SCS215b	20100208.110553	20100208.110815	8	0.013328	60	0	60-180	60	168	NoGap	1	6	3	75	0	distractor	1	1760	120	220	13.328	13.204	13.417
ProbeTrack10	11	ProbeTrack	10.1	SCS215b	20100208.110553	20100208.110825	8	0.013328	60	0	60-180	60	76	NoGap	1	7	3	75	0	distractor	1	1813	94	314	13.328	13.034	13.657
ProbeTrack10	11	ProbeTrack	10.1	SCS215b	20100208.110553	20100208.110837	8	0.013328	60	0	60-180	60	69	NoGap	1	8	3	0	1	target	1	1626	187	501	13.328	12.982	13.673
ProbeTrack10	11	ProbeTrack	10.1	SCS215b	20100208.110553	20100208.110846	8	0.013328	60	0	60-180	60	62	NoGap	1	9	3	0	0	distractor	1	1706	147	648	13.328	13.217	13.454
ProbeTrack10	11	ProbeTrack	10.1	SCS215b	20100208.110553	20100208.110854	8	0.013328	60	0	60-180	60	91	NoGap	1	10	3	2	1	target	1	2599	0	648	13.328	12.931	13.692
ProbeTrack10	11	ProbeTrack	10.1	SCS215b	20100208.110553	20100208.110912	8	0.013328	60	0	60-180	60	112	NoGap	1	11	3	1	0	distractor	1	2319	0	648	13.328	12.974	13.649
ProbeTrack10	11	ProbeTrack	10.1	SCS215b	20100208.110553	20100208.110921	8	0.013328	60	0	60-180	60	149	NoGap	1	12	3	1	1	target	1	1573	214	862	13.328	13.071	13.552
ProbeTrack10	11	ProbeTrack	10.1	SCS215b	20100208.110553	20100208.110929	8	0.013328	60	0	60-180	60	121	NoGap	1	13	3	2	0	distractor	1	2119	0	862	13.328	13.160	13.463
ProbeTrack10	11	ProbeTrack	10.1	SCS215b	20100208.110553	20100208.110938	8	0.013328	60	0	60-180	60	101	NoGap	1	14	3	2	0	distractor	1	1640	180	1042	13.328	13.055	13.626
ProbeTrack10	11	ProbeTrack	10.1	SCS215b	20100208.110553	20100208.110945	8	0.013328	60	0	60-180	60	141	NoGap	1	15	3	2	0	distractor	1	1600	200	1242	13.328	13.126	13.530
ProbeTrack10	11	ProbeTrack	10.1	SCS215b	20100208.110553	20100208.110955	8	0.013328	60	0	60-180	60	150	NoGap	1	16	3	1	0	distractor	1	1840	80	1322	13.328	13.016	13.640
ProbeTrack10	11	ProbeTrack	10.1	SCS215b	20100208.110553	20100208.111005	8	0.013328	60	0	60-180	60	137	NoGap	1	17	3	0	0	distractor	1	1706	147	1469	13.328	12.969	13.719
ProbeTrack10	11	ProbeTrack	10.1	SCS215b	20100208.110553	20100208.111016	8	0.013328	60	0	60-180	60	103	NoGap	1	18	3	75	1	target	1	1626	187	1656	13.328	13.064	13.593
ProbeTrack10	11	ProbeTrack	10.1	SCS215b	20100208.110553	20100208.111028	8	0.013328	60	0	60-180	60	155	NoGap	1	19	3	2	1	target	1	1933	34	1690	13.328	13.089	13.573
ProbeTrack10	11	ProbeTrack	10.1	SCS215b	20100208.110553	20100208.111037	8	0.013328	60	0	60-180	60	109	NoGap	1	20	3	0	0	distractor	1	3172	0	1690	13.328	13.205	13.451
ProbeTrack10	11	ProbeTrack	10.1	SCS215b	20100208.110553	20100208.111050	8	0.013328	60	0	60-180	60	147	NoGap	1	21	3	4	0	distractor	1	1960	20	1710	13.328	13.153	13.536
ProbeTrack10	11	ProbeTrack	10.1	SCS215b	20100208.110553	20100208.111058	8	0.013328	60	0	60-180	60	105	NoGap	1	22	3	75	1	target	1	2133	0	1710	13.328	12.949	13.742
ProbeTrack10	11	ProbeTrack	10.1	SCS215b	20100208.110553	20100208.111110	8	0.013328	60	0	60-180	60	152	NoGap	1	23	3	0	1	target	1	2853	0	1710	13.328	13.216	13.439
ProbeTrack10	11	ProbeTrack	10.1	SCS215b	20100208.110553	20100208.111121	8	0.013328	60	0	60-180	60	146	NoGap	1	24	3	75	1	target	1	2773	0	1710	13.328	13.015	13.605
ProbeTrack10	11	ProbeTrack	10.1	SCS215b	20100208.110553	20100208.111131	8	0.013328	60	0	60-180	60	89	NoGap	1	25	3	0	0	distractor	1	2599	0	1710	13.328	13.060	13.630
ProbeTrack10	11	ProbeTrack	10.1	SCS215b	20100208.110553	20100208.111139	8	0.013328	60	0	60-180	60	65	NoGap	1	26	3	4	1	target	1	1507	247	1957	13.328	13.120	13.571
ProbeTrack10	11	ProbeTrack	10.1	SCS215b	20100208.110553	20100208.111146	8	0.013328	60	0	60-180	60	108	NoGap	1	27	3	1	0	distractor	1	1720	140	2097	13.328	12.997	13.659
ProbeTrack10	11	ProbeTrack	10.1	SCS215b	20100208.110553	20100208.111155	8	0.013328	60	0	60-180	60	98	NoGap	1	28	3	75	1	target	1	1706	147	2244	13.328	13.090	13.531
ProbeTrack10	11	ProbeTrack	10.1	SCS215b	20100208.110553	20100208.111203	8	0.013328	60	0	60-180	60	63	NoGap	1	29	3	1	0	distractor	1	2213	0	2244	13.328	12.346	14.311
ProbeTrack10	11	ProbeTrack	10.1	SCS215b	20100208.110553	20100208.111211	8	0.013328	60	0	60-180	60	131	NoGap	1	30	3	4	1	target	1	2120	0	2244	13.328	12.958	13.698
ProbeTrack10	11	ProbeTrack	10.1	SCS215b	20100208.110553	20100208.111221	8	0.013328	60	0	60-180	60	80	NoGap	1	31	3	2	0	distractor	1	1533	234	2478	13.328	13.052	13.604
ProbeTrack10	11	ProbeTrack	10.1	SCS215b	20100208.110553	20100208.111228	8	0.013328	60	0	60-180	60	96	NoGap	1	32	3	2	1	target	1	1826	87	2565	13.328	12.980	13.709
ProbeTrack10	11	ProbeTrack	10.1	SCS215b	20100208.110553	20100208.111236	8	0.013328	60	0	60-180	60	66	NoGap	1	33	3	4	0	distractor	1	1733	134	2699	13.328	13.195	13.425
ProbeTrack10	11	ProbeTrack	10.1	SCS215b	20100208.110553	20100208.111242	8	0.013328	60	0	60-180	60	142	NoGap	1	34	3	4	0	distractor	1	1453	274	2973	13.375	13.168	26.816
ProbeTrack10	11	ProbeTrack	10.1	SCS215b	20100208.110553	20100208.111250	8	0.013328	60	0	60-180	60	153	NoGap	1	35	3	1	1	target	1	1813	94	3067	13.328	13.028	13.594
ProbeTrack10	11	ProbeTrack	10.1	SCS215b	20100208.110553	20100208.111258	8	0.013328	60	0	60-180	60	70	NoGap	1	36	3	0	1	target	1	1426	287	3354	13.328	13.015	13.640
ProbeTrack10	11	ProbeTrack	10.1	SCS215b	20100208.110553	20100208.111305	8	0.013328	60	0	60-180	60	125	NoGap	1	37	3	1	1	target	1	1906	47	3401	13.328	13.127	13.563
ProbeTrack10	11	ProbeTrack	10.1	SCS215b	20100208.110553	20100208.111313	8	0.013328	60	0	60-180	60	93	NoGap	1	38	3	1	1	target	1	1640	180	3581	13.619	13.098	40.017
ProbeTrack10	11	ProbeTrack	10.1	SCS215b	20100208.110553	20100208.111320	8	0.013328	60	0	60-180	60	118	NoGap	1	39	3	2	1	target	1	1453	274	3855	13.328	13.021	13.636
ProbeTrack10	11	ProbeTrack	10.1	SCS215b	20100208.110553	20100208.111327	8	0.013328	60	0	60-180	60	123	NoGap	1	40	3	4	0	distractor	1	1706	147	4002	13.429	13.074	26.725
ProbeTrack10	11	ProbeTrack	10.1	SCS215b	20100208.111443	20100208.111513	8	0.013324	60	10	60-180	60	108	GapPrac	1	1	3	2	0	distractor	1	2839	0	4002	13.328	13.025	13.597
ProbeTrack10	11	ProbeTrack	10.1	SCS215b	20100208.111443	20100208.111523	8	0.013324	60	10	60-180	60	71	GapPrac	1	2	3	2	1	target	1	6091	0	4002	13.328	13.102	13.555
ProbeTrack10	11	ProbeTrack	10.1	SCS215b	20100208.111443	20100208.111553	8	0.013324	60	10	60-180	60	140	GapPrac	1	3	3	4	1	target	1	5145	0	4002	13.328	13.065	13.591
ProbeTrack10	11	ProbeTrack	10.1	SCS215b	20100208.111443	20100208.111611	8	0.013324	60	10	60-180	60	75	GapPrac	1	4	3	75	0	distractor	1	2026	0	4002	13.328	13.114	13.508
ProbeTrack10	11	ProbeTrack	10.1	SCS215b	20100208.111443	20100208.111621	8	0.013324	60	10	60-180	60	176	GapPrac	1	5	3	0	0	distractor	1	2439	0	4002	13.328	13.198	13.486
ProbeTrack10	11	ProbeTrack	10.1	SCS215b	20100208.111443	20100208.111632	8	0.013324	60	10	60-180	60	69	GapPrac	1	6	3	1	0	distractor	1	3466	0	4002	13.328	13.041	13.614
ProbeTrack10	11	ProbeTrack	10.1	SCS215b	20100208.111443	20100208.111642	8	0.013324	60	10	60-180	60	165	GapPrac	1	7	3	1	1	target	1	5012	0	4002	13.328	13.072	13.584
ProbeTrack10	11	ProbeTrack	10.1	SCS215b	20100208.111443	20100208.111653	8	0.013324	60	10	60-180	60	145	GapPrac	1	8	3	4	1	target	1	2026	0	4002	13.328	13.187	13.468
ProbeTrack10	11	ProbeTrack	10.1	SCS215b	20100208.111443	20100208.111702	8	0.013324	60	10	60-180	60	159	GapPrac	1	9	3	0	1	target	1	2093	0	4002	13.328	13.047	13.608
ProbeTrack10	11	ProbeTrack	10.1	SCS215b	20100208.111443	20100208.111711	8	0.013324	60	10	60-180	60	180	GapPrac	1	10	3	2	1	target	1	2333	0	4002	13.328	13.161	13.527
ProbeTrack10	11	ProbeTrack	10.1	SCS215b	20100208.111443	20100208.111720	8	0.013324	60	10	60-180	60	69	GapPrac	1	11	3	2	0	distractor	1	1680	160	4162	13.328	13.212	13.444
ProbeTrack10	11	ProbeTrack	10.1	SCS215b	20100208.111443	20100208.111727	8	0.013324	60	10	60-180	60	110	GapPrac	1	12	3	1	0	distractor	1	1786	107	4269	13.328	13.043	13.646
ProbeTrack10	11	ProbeTrack	10.1	SCS215b	20100208.111443	20100208.111735	8	0.013324	60	10	60-180	60	145	GapPrac	1	13	3	75	1	target	1	1626	187	4456	13.328	12.966	13.691
ProbeTrack10	11	ProbeTrack	10.1	SCS215b	20100208.111443	20100208.111746	8	0.013324	60	10	60-180	60	154	GapPrac	1	14	3	4	0	distractor	1	1760	120	4576	13.328	12.957	13.733
ProbeTrack10	11	ProbeTrack	10.1	SCS215b	20100208.111443	20100208.111754	8	0.013324	60	10	60-180	60	175	GapPrac	1	15	3	0	0	distractor	1	2852	0	4576	13.328	13.191	13.455
ProbeTrack10	11	ProbeTrack	10.1	SCS215b	20100208.111443	20100208.111804	8	0.013324	60	10	60-180	60	178	GapPrac	1	16	3	75	1	distractor	0	2013	-1000	3576	13.328	13.074	13.548
ProbeTrack10	11	ProbeTrack	10.1	SCS215b	20100208.111443	20100208.111814	8	0.013324	60	10	60-180	60	95	GapPrac	1	17	3	0	1	target	1	2546	0	3576	13.328	13.024	13.665
ProbeTrack10	11	ProbeTrack	10.1	SCS215b	20100208.111443	20100208.111823	8	0.013324	60	10	60-180	60	75	GapPrac	1	18	3	4	0	distractor	1	1533	234	3810	13.328	12.980	13.676
ProbeTrack10	11	ProbeTrack	10.1	SCS215b	20100208.111443	20100208.111831	8	0.013324	60	10	60-180	60	97	GapPrac	1	19	3	75	0	distractor	1	2213	0	3810	13.327	13.145	13.511
ProbeTrack10	11	ProbeTrack	10.1	SCS215b	20100208.111443	20100208.111840	8	0.013324	60	10	60-180	60	166	GapPrac	1	20	3	1	1	target	1	1666	167	3977	13.328	13.136	13.517
ProbeTrack10	11	ProbeTrack	10.1	SCS215b	20100208.111942	20100208.111955	8	0.013328	60	10	60-180	60	151	GapExp	1	1	3	0	0	distractor	1	2106	0	3977	13.328	12.992	13.663
ProbeTrack10	11	ProbeTrack	10.1	SCS215b	20100208.111942	20100208.112022	8	0.013328	60	10	60-180	60	70	GapExp	1	2	3	1	1	distractor	0	1866	-1000	2977	13.328	13.074	13.547
ProbeTrack10	11	ProbeTrack	10.1	SCS215b	20100208.111942	20100208.112031	8	0.013328	60	10	60-180	60	80	GapExp	1	3	3	4	1	target	1	2260	0	2977	13.327	13.131	13.557
ProbeTrack10	11	ProbeTrack	10.1	SCS215b	20100208.111942	20100208.112040	8	0.013328	60	10	60-180	60	160	GapExp	1	4	3	0	1	target	1	1160	420	3397	13.328	13.036	13.654
ProbeTrack10	11	ProbeTrack	10.1	SCS215b	20100208.111942	20100208.112048	8	0.013328	60	10	60-180	60	130	GapExp	1	5	3	75	1	target	1	787	607	4004	13.328	13.012	13.609
ProbeTrack10	11	ProbeTrack	10.1	SCS215b	20100208.111942	20100208.112056	8	0.013328	60	10	60-180	60	158	GapExp	1	6	3	2	0	distractor	1	1533	234	4238	13.328	13.037	13.653
ProbeTrack10	11	ProbeTrack	10.1	SCS215b	20100208.111942	20100208.112104	8	0.013328	60	10	60-180	60	105	GapExp	1	7	3	1	0	distractor	1	1200	400	4638	13.328	12.985	13.705
ProbeTrack10	11	ProbeTrack	10.1	SCS215b	20100208.111942	20100208.112110	8	0.013328	60	10	60-180	60	96	GapExp	1	8	3	2	1	target	1	1200	400	5038	13.328	12.937	13.684
ProbeTrack10	11	ProbeTrack	10.1	SCS215b	20100208.111942	20100208.112119	8	0.013328	60	10	60-180	60	145	GapExp	1	9	3	4	0	distractor	1	1067	467	5505	13.328	12.974	13.649
ProbeTrack10	11	ProbeTrack	10.1	SCS215b	20100208.111942	20100208.112128	8	0.013328	60	10	60-180	60	150	GapExp	1	10	3	75	0	distractor	1	893	554	6059	13.328	13.293	13.366
ProbeTrack10	11	ProbeTrack	10.1	SCS215b	20100208.111942	20100208.112138	8	0.013328	60	10	60-180	60	84	GapExp	0	11	3	1	1	target	1	1093	454	6513	13.328	12.963	13.691
ProbeTrack10	11	ProbeTrack	10.1	SCS215b	20100208.111942	20100208.112145	8	0.013328	60	10	60-180	60	152	GapExp	0	12	3	2	0	distractor	1	1133	434	6947	14.175	13.033	66.882
ProbeTrack10	11	ProbeTrack	10.1	SCS215b	20100208.111942	20100208.112153	8	0.013328	60	10	60-180	60	162	GapExp	0	13	3	75	0	distractor	1	827	587	7534	13.398	13.065	26.952
ProbeTrack10	11	ProbeTrack	10.1	SCS215b	20100208.111942	20100208.112201	8	0.013328	60	10	60-180	60	133	GapExp	0	14	3	2	1	target	1	1426	287	7821	13.328	13.185	13.438
ProbeTrack10	11	ProbeTrack	10.1	SCS215b	20100208.111942	20100208.112209	8	0.013328	60	10	60-180	60	163	GapExp	0	15	3	2	1	target	1	1533	234	8055	13.328	11.274	15.349
ProbeTrack10	11	ProbeTrack	10.1	SCS215b	20100208.111942	20100208.112219	8	0.013328	60	10	60-180	60	158	GapExp	0	16	3	2	0	distractor	1	1067	467	8522	13.328	13.023	13.668
ProbeTrack10	11	ProbeTrack	10.1	SCS215b	20100208.111942	20100208.112227	8	0.013328	60	10	60-180	60	151	GapExp	0	17	3	0	1	target	1	1800	100	8622	13.373	12.912	27.009
ProbeTrack10	11	ProbeTrack	10.1	SCS215b	20100208.111942	20100208.112237	8	0.013328	60	10	60-180	60	100	GapExp	0	18	3	75	0	distractor	1	1293	354	8976	13.328	12.930	13.759
ProbeTrack10	11	ProbeTrack	10.1	SCS215b	20100208.111942	20100208.112247	8	0.013328	60	10	60-180	60	148	GapExp	0	19	3	0	1	target	1	1680	160	9136	20.197	13.067	239.780
ProbeTrack10	11	ProbeTrack	10.1	SCS215b	20100208.111942	20100208.112257	8	0.013328	60	10	60-180	60	82	GapExp	0	20	3	2	0	distractor	1	1600	200	9336	13.328	12.924	13.698
ProbeTrack10	11	ProbeTrack	10.1	SCS215b	20100208.111942	20100208.112305	8	0.013328	60	10	60-180	60	73	GapExp	0	21	3	4	0	distractor	1	1226	387	9723	13.508	13.293	53.311
ProbeTrack10	11	ProbeTrack	10.1	SCS215b	20100208.111942	20100208.112312	8	0.013328	60	10	60-180	60	92	GapExp	0	22	3	1	0	distractor	1	1120	440	10163	13.328	13.243	13.446
ProbeTrack10	11	ProbeTrack	10.1	SCS215b	20100208.111942	20100208.112318	8	0.013328	60	10	60-180	60	70	GapExp	0	23	3	75	0	distractor	1	1173	414	10577	13.420	13.089	26.862
ProbeTrack10	11	ProbeTrack	10.1	SCS215b	20100208.111942	20100208.112326	8	0.013328	60	10	60-180	60	161	GapExp	0	24	3	1	0	distractor	1	1600	200	10777	41.199	12.841	279.868
ProbeTrack10	11	ProbeTrack	10.1	SCS215b	20100208.111942	20100208.112343	8	0.013328	60	10	60-180	60	111	GapExp	0	25	3	4	0	distractor	1	1734	133	10910	13.328	13.277	13.363
ProbeTrack10	11	ProbeTrack	10.1	SCS215b	20100208.111942	20100208.112351	8	0.013328	60	10	60-180	60	99	GapExp	0	26	3	2	1	target	1	1693	154	11064	13.328	13.293	13.363
ProbeTrack10	11	ProbeTrack	10.1	SCS215b	20100208.111942	20100208.112358	8	0.013328	60	10	60-180	60	148	GapExp	0	27	3	75	0	distractor	1	1080	460	11524	13.328	13.293	13.363
ProbeTrack10	11	ProbeTrack	10.1	SCS215b	20100208.111942	20100208.112406	8	0.013328	60	10	60-180	60	119	GapExp	0	28	3	1	1	target	1	1200	400	11924	13.479	13.140	26.811
ProbeTrack10	11	ProbeTrack	10.1	SCS215b	20100208.111942	20100208.112413	8	0.013328	60	10	60-180	60	177	GapExp	0	29	3	0	1	target	1	934	533	12457	13.700	12.959	39.971
ProbeTrack10	11	ProbeTrack	10.1	SCS215b	20100208.111942	20100208.112421	8	0.013328	60	10	60-180	60	62	GapExp	0	30	3	75	0	distractor	1	920	540	12997	14.131	13.128	79.839
ProbeTrack10	11	ProbeTrack	10.1	SCS215b	20100208.111942	20100208.112430	8	0.013328	60	10	60-180	60	62	GapExp	0	31	3	2	1	target	1	1933	34	13031	13.456	13.104	26.655
ProbeTrack10	11	ProbeTrack	10.1	SCS215b	20100208.111942	20100208.112440	8	0.013328	60	10	60-180	60	126	GapExp	0	32	3	75	0	distractor	1	1067	467	13498	13.829	13.057	173.499
ProbeTrack10	11	ProbeTrack	10.1	SCS215b	20100208.111942	20100208.112449	8	0.013328	60	10	60-180	60	138	GapExp	0	33	3	2	1	target	1	1107	447	13945	13.328	13.040	13.617
ProbeTrack10	11	ProbeTrack	10.1	SCS215b	20100208.111942	20100208.112457	8	0.013328	60	10	60-180	60	127	GapExp	0	34	3	75	0	distractor	1	987	507	14452	13.328	13.044	13.612
ProbeTrack10	11	ProbeTrack	10.1	SCS215b	20100208.111942	20100208.112505	8	0.013328	60	10	60-180	60	105	GapExp	0	35	3	0	1	target	1	1213	394	14846	13.328	13.227	13.460
ProbeTrack10	11	ProbeTrack	10.1	SCS215b	20100208.111942	20100208.112512	8	0.013328	60	10	60-180	60	98	GapExp	0	36	3	75	1	target	1	880	560	15406	13.328	12.957	13.699
ProbeTrack10	11	ProbeTrack	10.1	SCS215b	20100208.111942	20100208.112521	8	0.013328	60	10	60-180	60	61	GapExp	0	37	3	0	0	target	0	1133	-1000	14406	13.328	13.203	13.453
ProbeTrack10	11	ProbeTrack	10.1	SCS215b	20100208.111942	20100208.112527	8	0.013328	60	10	60-180	60	121	GapExp	0	38	3	75	0	distractor	1	1080	460	14866	13.328	13.141	13.549
ProbeTrack10	11	ProbeTrack	10.1	SCS215b	20100208.111942	20100208.112536	8	0.013328	60	10	60-180	60	139	GapExp	0	39	3	75	0	target	0	1720	-1000	13866	13.328	12.960	13.697
ProbeTrack10	11	ProbeTrack	10.1	SCS215b	20100208.111942	20100208.112545	8	0.013328	60	10	60-180	60	136	GapExp	0	40	3	0	1	target	1	2199	0	13866	13.328	13.041	13.581
ProbeTrack10	11	ProbeTrack	10.1	SCS215b	20100208.111942	20100208.112555	8	0.013328	60	10	60-180	60	172	GapExp	0	41	3	75	0	distractor	1	2013	0	13866	13.328	12.967	13.722
ProbeTrack10	11	ProbeTrack	10.1	SCS215b	20100208.111942	20100208.112605	8	0.013328	60	10	60-180	60	68	GapExp	0	42	3	0	0	distractor	1	2426	0	13866	13.328	13.109	13.514
ProbeTrack10	11	ProbeTrack	10.1	SCS215b	20100208.111942	20100208.112613	8	0.013328	60	10	60-180	60	161	GapExp	0	43	3	1	1	target	1	1173	414	14280	13.327	13.052	13.604
ProbeTrack10	11	ProbeTrack	10.1	SCS215b	20100208.111942	20100208.112623	8	0.013328	60	10	60-180	60	152	GapExp	0	44	3	2	0	distractor	1	1120	440	14720	13.328	13.153	13.469
ProbeTrack10	11	ProbeTrack	10.1	SCS215b	20100208.111942	20100208.112630	8	0.013328	60	10	60-180	60	130	GapExp	0	45	3	2	0	distractor	1	947	527	15247	13.328	13.211	13.477
ProbeTrack10	11	ProbeTrack	10.1	SCS215b	20100208.111942	20100208.112637	8	0.013328	60	10	60-180	60	61	GapExp	0	46	3	4	1	target	1	1053	474	15721	13.328	13.142	13.535
ProbeTrack10	11	ProbeTrack	10.1	SCS215b	20100208.111942	20100208.112643	8	0.013328	60	10	60-180	60	93	GapExp	0	47	3	0	0	distractor	1	1160	420	16141	13.328	13.144	13.541
ProbeTrack10	11	ProbeTrack	10.1	SCS215b	20100208.111942	20100208.112650	8	0.013328	60	10	60-180	60	139	GapExp	0	48	3	4	0	distractor	1	1346	327	16468	13.328	13.128	13.528
ProbeTrack10	11	ProbeTrack	10.1	SCS215b	20100208.111942	20100208.112658	8	0.013328	60	10	60-180	60	95	GapExp	0	49	3	0	1	target	1	1053	474	16942	13.328	13.158	13.497
ProbeTrack10	11	ProbeTrack	10.1	SCS215b	20100208.111942	20100208.112708	8	0.013328	60	10	60-180	60	143	GapExp	0	50	3	2	1	target	1	787	607	17549	13.328	13.086	13.569
ProbeTrack10	11	ProbeTrack	10.1	SCS215b	20100208.111942	20100208.112715	8	0.013328	60	10	60-180	60	61	GapExp	0	51	3	1	0	distractor	1	1093	454	18003	13.328	13.089	13.567
ProbeTrack10	11	ProbeTrack	10.1	SCS215b	20100208.111942	20100208.112722	8	0.013328	60	10	60-180	60	159	GapExp	0	52	3	4	1	target	1	1073	464	18467	13.328	13.241	13.397
ProbeTrack10	11	ProbeTrack	10.1	SCS215b	20100208.111942	20100208.112729	8	0.013328	60	10	60-180	60	178	GapExp	0	53	3	2	0	distractor	1	1120	440	18907	13.328	12.968	13.721
ProbeTrack10	11	ProbeTrack	10.1	SCS215b	20100208.111942	20100208.112737	8	0.013328	60	10	60-180	60	111	GapExp	0	54	3	0	1	target	1	1067	467	19374	13.328	12.999	13.691
ProbeTrack10	11	ProbeTrack	10.1	SCS215b	20100208.111942	20100208.112744	8	0.013328	60	10	60-180	60	140	GapExp	0	55	3	1	0	distractor	1	1653	174	19548	13.328	13.039	13.651
ProbeTrack10	11	ProbeTrack	10.1	SCS215b	20100208.111942	20100208.112752	8	0.013328	60	10	60-180	60	66	GapExp	0	56	3	2	1	target	1	987	507	20055	13.328	13.119	13.570
ProbeTrack10	11	ProbeTrack	10.1	SCS215b	20100208.111942	20100208.112758	8	0.013328	60	10	60-180	60	173	GapExp	0	57	3	1	0	distractor	1	1133	434	20489	13.328	13.023	13.599
ProbeTrack10	11	ProbeTrack	10.1	SCS215b	20100208.111942	20100208.112816	8	0.013328	60	10	60-180	60	153	GapExp	0	58	3	4	1	target	1	987	507	20996	13.328	13.050	13.605
ProbeTrack10	11	ProbeTrack	10.1	SCS215b	20100208.111942	20100208.112824	8	0.013328	60	10	60-180	60	109	GapExp	0	59	3	1	1	target	1	933	534	21530	13.328	13.001	13.655
ProbeTrack10	11	ProbeTrack	10.1	SCS215b	20100208.111942	20100208.112831	8	0.013328	60	10	60-180	60	90	GapExp	0	60	3	4	0	distractor	1	1080	460	21990	13.328	13.175	13.481
ProbeTrack10	11	ProbeTrack	10.1	SCS215b	20100208.111942	20100208.112838	8	0.013328	60	10	60-180	60	152	GapExp	0	61	3	4	0	distractor	1	1693	154	22144	13.328	13.226	13.430
ProbeTrack10	11	ProbeTrack	10.1	SCS215b	20100208.111942	20100208.112854	8	0.013328	60	10	60-180	60	116	GapExp	0	62	3	75	0	distractor	1	1147	427	22571	13.328	13.037	13.652
ProbeTrack10	11	ProbeTrack	10.1	SCS215b	20100208.111942	20100208.112903	8	0.013328	60	10	60-180	60	128	GapExp	0	63	3	4	0	distractor	1	1346	327	22898	13.328	13.151	13.504
ProbeTrack10	11	ProbeTrack	10.1	SCS215b	20100208.111942	20100208.112911	8	0.013328	60	10	60-180	60	144	GapExp	0	64	3	75	1	target	1	1107	447	23345	13.328	12.927	13.727
ProbeTrack10	11	ProbeTrack	10.1	SCS215b	20100208.111942	20100208.112920	8	0.013328	60	10	60-180	60	136	GapExp	0	65	3	2	1	distractor	0	1480	-1000	22345	13.328	13.254	13.368
ProbeTrack10	11	ProbeTrack	10.1	SCS215b	20100208.111942	20100208.112928	8	0.013328	60	10	60-180	60	158	GapExp	0	66	3	2	1	target	1	947	527	22872	13.328	13.018	13.638
ProbeTrack10	11	ProbeTrack	10.1	SCS215b	20100208.111942	20100208.112938	8	0.013328	60	10	60-180	60	124	GapExp	0	67	3	75	0	distractor	1	2413	0	22872	13.367	12.964	26.820
ProbeTrack10	11	ProbeTrack	10.1	SCS215b	20100208.111942	20100208.112948	8	0.013328	60	10	60-180	60	127	GapExp	0	68	3	1	1	target	1	1147	427	23299	13.328	12.950	13.706
ProbeTrack10	11	ProbeTrack	10.1	SCS215b	20100208.111942	20100208.112955	8	0.013328	60	10	60-180	60	172	GapExp	0	69	3	75	1	target	1	1346	327	23626	13.328	12.994	13.662
ProbeTrack10	11	ProbeTrack	10.1	SCS215b	20100208.111942	20100208.113005	8	0.013328	60	10	60-180	60	154	GapExp	0	70	3	2	0	distractor	1	1840	80	23706	13.328	13.094	13.553
ProbeTrack10	11	ProbeTrack	10.1	SCS215b	20100208.111942	20100208.113014	8	0.013328	60	10	60-180	60	123	GapExp	0	71	3	1	1	target	1	933	534	24240	13.328	12.954	13.703
ProbeTrack10	11	ProbeTrack	10.1	SCS215b	20100208.111942	20100208.113021	8	0.013328	60	10	60-180	60	130	GapExp	0	72	3	75	0	distractor	1	1120	440	24680	13.328	13.172	13.484
ProbeTrack10	11	ProbeTrack	10.1	SCS215b	20100208.111942	20100208.113030	8	0.013328	60	10	60-180	60	141	GapExp	0	73	3	2	1	target	1	1826	87	24767	13.328	13.049	13.606
ProbeTrack10	11	ProbeTrack	10.1	SCS215b	20100208.111942	20100208.113038	8	0.013328	60	10	60-180	60	94	GapExp	0	74	3	4	0	distractor	1	1813	94	24861	13.328	12.974	13.715
ProbeTrack10	11	ProbeTrack	10.1	SCS215b	20100208.111942	20100208.113045	8	0.013328	60	10	60-180	60	120	GapExp	0	75	3	1	0	distractor	1	1680	160	25021	13.328	12.979	13.709
ProbeTrack10	11	ProbeTrack	10.1	SCS215b	20100208.111942	20100208.113054	8	0.013328	60	10	60-180	60	173	GapExp	0	76	3	0	0	distractor	1	1293	354	25375	13.328	13.006	13.684
ProbeTrack10	11	ProbeTrack	10.1	SCS215b	20100208.111942	20100208.113102	8	0.013328	60	10	60-180	60	97	GapExp	0	77	3	75	0	distractor	1	2080	0	25375	13.328	12.965	13.691
ProbeTrack10	11	ProbeTrack	10.1	SCS215b	20100208.111942	20100208.113112	8	0.013328	60	10	60-180	60	172	GapExp	0	78	3	75	1	distractor	0	1067	-1000	24375	13.328	12.995	13.660
ProbeTrack10	11	ProbeTrack	10.1	SCS215b	20100208.111942	20100208.113120	8	0.013328	60	10	60-180	60	136	GapExp	0	79	3	75	0	distractor	1	1560	220	24595	13.328	12.920	13.703
ProbeTrack10	11	ProbeTrack	10.1	SCS215b	20100208.111942	20100208.113157	8	0.013328	60	10	60-180	60	162	GapExp	0	80	3	1	1	target	1	2279	0	24595	13.328	12.958	13.698
ProbeTrack10	11	ProbeTrack	10.1	SCS215b	20100208.111942	20100208.113205	8	0.013328	60	10	60-180	60	97	GapExp	0	81	3	1	0	distractor	1	1506	247	24842	13.328	13.293	13.374
ProbeTrack10	11	ProbeTrack	10.1	SCS215b	20100208.111942	20100208.113213	8	0.013328	60	10	60-180	60	110	GapExp	0	82	3	4	0	distractor	1	1506	247	25089	13.328	13.114	13.577
ProbeTrack10	11	ProbeTrack	10.1	SCS215b	20100208.111942	20100208.113220	8	0.013328	60	10	60-180	60	134	GapExp	0	83	3	0	1	distractor	0	1147	-1000	24089	13.328	13.055	13.601
ProbeTrack10	11	ProbeTrack	10.1	SCS215b	20100208.111942	20100208.113227	8	0.013328	60	10	60-180	60	89	GapExp	0	84	3	1	1	target	1	2093	0	24089	13.328	13.109	13.542
ProbeTrack10	11	ProbeTrack	10.1	SCS215b	20100208.111942	20100208.113243	8	0.013328	60	10	60-180	60	138	GapExp	0	85	3	1	1	target	1	1227	387	24476	13.328	13.062	13.560
ProbeTrack10	11	ProbeTrack	10.1	SCS215b	20100208.111942	20100208.113257	8	0.013328	60	10	60-180	60	106	GapExp	0	86	3	0	0	distractor	1	1346	327	24803	13.328	12.989	13.667
ProbeTrack10	11	ProbeTrack	10.1	SCS215b	20100208.111942	20100208.113304	8	0.013328	60	10	60-180	60	137	GapExp	0	87	3	1	1	target	1	1120	440	25243	13.328	13.074	13.616
ProbeTrack10	11	ProbeTrack	10.1	SCS215b	20100208.111942	20100208.113312	8	0.013328	60	10	60-180	60	161	GapExp	0	88	3	1	1	target	1	1160	420	25663	13.328	12.986	13.670
ProbeTrack10	11	ProbeTrack	10.1	SCS215b	20100208.111942	20100208.113319	8	0.013328	60	10	60-180	60	142	GapExp	0	89	3	4	1	target	1	1226	387	26050	13.328	13.140	13.483
ProbeTrack10	11	ProbeTrack	10.1	SCS215b	20100208.111942	20100208.113327	8	0.013328	60	10	60-180	60	139	GapExp	0	90	3	2	0	distractor	1	1600	200	26250	13.328	13.143	13.480
ProbeTrack10	11	ProbeTrack	10.1	SCS215b	20100208.111942	20100208.113337	8	0.013328	60	10	60-180	60	80	GapExp	0	91	3	75	1	target	1	1933	34	26284	13.328	13.097	13.558
ProbeTrack10	11	ProbeTrack	10.1	SCS215b	20100208.111942	20100208.113346	8	0.013328	60	10	60-180	60	64	GapExp	0	92	3	0	1	target	1	1200	400	26684	13.328	13.053	13.602
ProbeTrack10	11	ProbeTrack	10.1	SCS215b	20100208.111942	20100208.113353	8	0.013328	60	10	60-180	60	120	GapExp	0	93	3	1	0	distractor	1	1626	187	26871	13.328	13.185	13.503
ProbeTrack10	11	ProbeTrack	10.1	SCS215b	20100208.111942	20100208.113400	8	0.013328	60	10	60-180	60	178	GapExp	0	94	3	0	0	distractor	1	1586	207	27078	13.328	13.238	13.402
ProbeTrack10	11	ProbeTrack	10.1	SCS215b	20100208.111942	20100208.113409	8	0.013328	60	10	60-180	60	108	GapExp	0	95	3	0	1	distractor	0	1400	-1000	26078	13.328	13.079	13.576
ProbeTrack10	11	ProbeTrack	10.1	SCS215b	20100208.111942	20100208.113424	8	0.013328	60	10	60-180	60	144	GapExp	0	96	3	75	1	distractor	0	1360	-1000	25078	13.328	13.045	13.610
ProbeTrack10	11	ProbeTrack	10.1	SCS215b	20100208.111942	20100208.113441	8	0.013328	60	10	60-180	60	159	GapExp	0	97	3	2	1	distractor	0	1053	-1000	24078	13.328	13.139	13.550
ProbeTrack10	11	ProbeTrack	10.1	SCS215b	20100208.111942	20100208.113449	8	0.013328	60	10	60-180	60	115	GapExp	0	98	3	4	0	distractor	1	1640	180	24258	13.328	13.032	13.623
ProbeTrack10	11	ProbeTrack	10.1	SCS215b	20100208.111942	20100208.113456	8	0.013328	60	10	60-180	60	109	GapExp	0	99	3	4	1	target	1	1706	147	24405	13.328	12.985	13.704
ProbeTrack10	11	ProbeTrack	10.1	SCS215b	20100208.111942	20100208.113504	8	0.013328	60	10	60-180	60	119	GapExp	0	100	3	1	1	target	1	2359	0	24405	13.328	12.986	13.637
ProbeTrack10	11	ProbeTrack	10.1	SCS215b	20100208.111942	20100208.113513	8	0.013328	60	10	60-180	60	113	GapExp	0	101	3	2	1	target	1	1320	340	24745	13.328	13.145	13.482
ProbeTrack10	11	ProbeTrack	10.1	SCS215b	20100208.111942	20100208.113525	8	0.013328	60	10	60-180	60	111	GapExp	0	102	3	2	0	distractor	1	2266	0	24745	13.328	13.142	13.513
ProbeTrack10	11	ProbeTrack	10.1	SCS215b	20100208.111942	20100208.113534	8	0.013328	60	10	60-180	60	177	GapExp	0	103	3	2	0	distractor	1	1200	400	25145	13.328	12.999	13.656
ProbeTrack10	11	ProbeTrack	10.1	SCS215b	20100208.111942	20100208.113542	8	0.013328	60	10	60-180	60	74	GapExp	0	104	3	75	1	distractor	0	1173	-1000	24145	13.328	7.137	19.485
ProbeTrack10	11	ProbeTrack	10.1	SCS215b	20100208.111942	20100208.113549	8	0.013328	60	10	60-180	60	172	GapExp	0	105	3	4	0	distractor	1	1133	434	24579	13.328	12.991	13.700
ProbeTrack10	11	ProbeTrack	10.1	SCS215b	20100208.111942	20100208.113557	8	0.013328	60	10	60-180	60	89	GapExp	0	106	3	4	1	target	1	1506	247	24826	13.328	13.289	13.366
ProbeTrack10	11	ProbeTrack	10.1	SCS215b	20100208.111942	20100208.113604	8	0.013328	60	10	60-180	60	174	GapExp	0	107	3	1	1	target	1	1382	309	25135	13.328	13.200	13.456
ProbeTrack10	11	ProbeTrack	10.1	SCS215b	20100208.111942	20100208.113612	8	0.013328	60	10	60-180	60	147	GapExp	0	108	3	1	1	target	1	1440	280	25415	13.328	12.960	13.696
ProbeTrack10	11	ProbeTrack	10.1	SCS215b	20100208.111942	20100208.113620	8	0.013328	60	10	60-180	60	121	GapExp	0	109	3	1	0	distractor	1	1507	247	25662	13.328	12.988	13.667
ProbeTrack10	11	ProbeTrack	10.1	SCS215b	20100208.111942	20100208.113629	8	0.013328	60	10	60-180	60	101	GapExp	0	110	3	0	0	distractor	1	1107	447	26109	13.328	13.196	13.494
ProbeTrack10	11	ProbeTrack	10.1	SCS215b	20100208.111942	20100208.113636	8	0.013328	60	10	60-180	60	143	GapExp	0	111	3	0	1	target	1	1200	400	26509	13.328	13.050	13.606
ProbeTrack10	11	ProbeTrack	10.1	SCS215b	20100208.111942	20100208.113643	8	0.013328	60	10	60-180	60	128	GapExp	0	112	3	4	1	target	1	1240	380	26889	13.328	13.117	13.504
ProbeTrack10	11	ProbeTrack	10.1	SCS215b	20100208.111942	20100208.113651	8	0.013328	60	10	60-180	60	106	GapExp	0	113	3	0	1	target	1	1027	487	27376	13.328	12.972	13.650
ProbeTrack10	11	ProbeTrack	10.1	SCS215b	20100208.111942	20100208.113710	8	0.013328	60	10	60-180	60	133	GapExp	0	114	3	1	1	target	1	1253	374	27750	13.328	13.086	13.571
ProbeTrack10	11	ProbeTrack	10.1	SCS215b	20100208.111942	20100208.113717	8	0.013328	60	10	60-180	60	151	GapExp	0	115	3	75	1	target	1	1373	314	28064	13.328	12.959	13.698
ProbeTrack10	11	ProbeTrack	10.1	SCS215b	20100208.111942	20100208.113726	8	0.013328	60	10	60-180	60	63	GapExp	0	116	3	4	1	target	1	2596	0	28064	13.328	13.037	13.618
ProbeTrack10	11	ProbeTrack	10.1	SCS215b	20100208.111942	20100208.113733	8	0.013328	60	10	60-180	60	149	GapExp	0	117	3	2	1	target	1	1493	254	28318	13.328	12.987	13.703
ProbeTrack10	11	ProbeTrack	10.1	SCS215b	20100208.111942	20100208.113742	8	0.013328	60	10	60-180	60	145	GapExp	0	118	3	0	0	distractor	1	2293	0	28318	13.328	13.027	13.645
ProbeTrack10	11	ProbeTrack	10.1	SCS215b	20100208.111942	20100208.113750	8	0.013328	60	10	60-180	60	114	GapExp	0	119	3	0	0	distractor	1	1093	454	28772	13.328	13.118	13.505
ProbeTrack10	11	ProbeTrack	10.1	SCS215b	20100208.111942	20100208.113757	8	0.013328	60	10	60-180	60	159	GapExp	0	120	3	1	0	distractor	1	1107	447	29219	13.372	12.997	26.892
ProbeTrack10	11	ProbeTrack	10.1	SCS215b	20100208.111942	20100208.113804	8	0.013328	60	10	60-180	60	114	GapExp	0	121	3	1	0	distractor	1	1960	20	29239	13.328	13.027	13.628
ProbeTrack10	11	ProbeTrack	10.1	SCS215b	20100208.111942	20100208.113812	8	0.013328	60	10	60-180	60	132	GapExp	0	122	3	75	1	target	1	2394	0	29239	13.328	13.035	13.621
ProbeTrack10	11	ProbeTrack	10.1	SCS215b	20100208.111942	20100208.113821	8	0.013328	60	10	60-180	60	148	GapExp	0	123	3	75	0	target	0	3492	-1000	28239	13.907	13.138	80.162
ProbeTrack10	11	ProbeTrack	10.1	SCS215b	20100208.111942	20100208.113832	8	0.013328	60	10	60-180	60	128	GapExp	0	124	3	4	1	target	1	1520	240	28479	14.627	12.883	173.472
ProbeTrack10	11	ProbeTrack	10.1	SCS215b	20100208.111942	20100208.113843	8	0.013328	60	10	60-180	60	157	GapExp	0	125	3	4	0	distractor	1	2653	0	28479	13.720	13.075	39.949
ProbeTrack10	11	ProbeTrack	10.1	SCS215b	20100208.111942	20100208.113852	8	0.013328	60	10	60-180	60	176	GapExp	0	126	3	0	1	target	1	1053	474	28953	13.328	13.293	13.363
ProbeTrack10	11	ProbeTrack	10.1	SCS215b	20100208.111942	20100208.113900	8	0.013328	60	10	60-180	60	85	GapExp	0	127	3	75	1	target	1	2119	0	28953	13.328	13.284	13.363
ProbeTrack10	11	ProbeTrack	10.1	SCS215b	20100208.111942	20100208.113908	8	0.013328	60	10	60-180	60	73	GapExp	0	128	3	0	0	distractor	1	1307	347	29300	13.328	13.264	13.402
ProbeTrack10	11	ProbeTrack	10.1	SCS215b	20100208.111942	20100208.113915	8	0.013328	60	10	60-180	60	112	GapExp	0	129	3	0	0	target	0	1333	-1000	28300	13.328	13.213	13.435
ProbeTrack10	11	ProbeTrack	10.1	SCS215b	20100208.111942	20100208.113922	8	0.013328	60	10	60-180	60	162	GapExp	0	130	3	0	0	distractor	1	1200	400	28700	13.328	12.935	13.721
ProbeTrack10	11	ProbeTrack	10.1	SCS215b	20100208.111942	20100208.113929	8	0.013328	60	10	60-180	60	115	GapExp	0	131	3	2	1	target	1	1293	354	29054	13.328	13.267	13.363
ProbeTrack10	11	ProbeTrack	10.1	SCS215b	20100208.111942	20100208.113943	8	0.013328	60	10	60-180	60	106	GapExp	0	132	3	2	0	target	0	1706	-1000	28054	13.328	13.182	13.462
ProbeTrack10	11	ProbeTrack	10.1	SCS215b	20100208.111942	20100208.113951	8	0.013328	60	10	60-180	60	82	GapExp	0	133	3	4	0	distractor	1	1613	194	28248	13.328	13.071	13.549
ProbeTrack10	11	ProbeTrack	10.1	SCS215b	20100208.111942	20100208.113958	8	0.013328	60	10	60-180	60	104	GapExp	0	134	3	1	1	distractor	0	1306	-1000	27248	13.328	13.036	13.586
ProbeTrack10	11	ProbeTrack	10.1	SCS215b	20100208.111942	20100208.114006	8	0.013328	60	10	60-180	60	165	GapExp	0	135	3	0	1	distractor	0	2653	-1000	26248	13.328	12.932	13.689
ProbeTrack10	11	ProbeTrack	10.1	SCS215b	20100208.111942	20100208.114015	8	0.013328	60	10	60-180	60	61	GapExp	0	136	3	2	1	target	1	1147	427	26675	13.328	13.058	13.630
ProbeTrack10	11	ProbeTrack	10.1	SCS215b	20100208.111942	20100208.114022	8	0.013328	60	10	60-180	60	137	GapExp	0	137	3	0	0	distractor	1	1626	187	26862	13.328	12.962	13.692
ProbeTrack10	11	ProbeTrack	10.1	SCS215b	20100208.111942	20100208.114030	8	0.013328	60	10	60-180	60	165	GapExp	0	138	3	4	1	target	1	1173	414	27276	13.328	13.049	13.606
ProbeTrack10	11	ProbeTrack	10.1	SCS215b	20100208.111942	20100208.114037	8	0.013328	60	10	60-180	60	74	GapExp	0	139	3	2	0	distractor	1	1626	187	27463	13.328	13.186	13.470
ProbeTrack10	11	ProbeTrack	10.1	SCS215b	20100208.111942	20100208.114044	8	0.013328	60	10	60-180	60	134	GapExp	0	140	3	4	1	target	1	1413	294	27757	13.328	13.038	13.652
ProbeTrack10	11	ProbeTrack	10.1	SCS215b	20100208.111942	20100208.114051	8	0.013328	60	10	60-180	60	172	GapExp	0	141	3	75	0	distractor	1	1133	434	28191	13.328	12.958	13.731
ProbeTrack10	11	ProbeTrack	10.1	SCS215b	20100208.111942	20100208.114100	8	0.013328	60	10	60-180	60	126	GapExp	0	142	3	1	0	target	0	3745	-1000	27191	13.328	13.073	13.583
ProbeTrack10	11	ProbeTrack	10.1	SCS215b	20100208.111942	20100208.114110	8	0.013328	60	10	60-180	60	100	GapExp	0	143	3	4	1	target	1	1120	440	27631	13.328	13.136	13.520
ProbeTrack10	11	ProbeTrack	10.1	SCS215b	20100208.111942	20100208.114117	8	0.013328	60	10	60-180	60	71	GapExp	0	144	3	4	0	distractor	1	1560	220	27851	13.328	13.131	13.491
ProbeTrack10	11	ProbeTrack	10.1	SCS215b	20100208.111942	20100208.114124	8	0.013328	60	10	60-180	60	163	GapExp	0	145	3	0	0	distractor	1	3546	0	27851	13.328	13.084	13.572
ProbeTrack10	11	ProbeTrack	10.1	SCS215b	20100208.111942	20100208.114134	8	0.013328	60	10	60-180	60	176	GapExp	0	146	3	0	1	target	1	1293	354	28205	13.328	13.032	13.623
ProbeTrack10	11	ProbeTrack	10.1	SCS215b	20100208.111942	20100208.114142	8	0.013328	60	10	60-180	60	93	GapExp	0	147	3	4	0	distractor	1	2146	0	28205	13.328	13.236	13.433
ProbeTrack10	11	ProbeTrack	10.1	SCS215b	20100208.111942	20100208.114149	8	0.013328	60	10	60-180	60	152	GapExp	0	148	3	75	1	target	1	1426	287	28492	13.328	13.062	13.627
ProbeTrack10	11	ProbeTrack	10.1	SCS215b	20100208.111942	20100208.114158	8	0.013328	60	10	60-180	60	180	GapExp	0	149	3	0	0	distractor	1	1866	67	28559	13.328	13.182	13.473
ProbeTrack10	11	ProbeTrack	10.1	SCS215b	20100208.111942	20100208.114206	8	0.013328	60	10	60-180	60	134	GapExp	0	150	3	75	0	distractor	1	1413	294	28853	13.328	13.187	13.435
ProbeTrack10	11	ProbeTrack	10.1	SCS215b	20100208.111942	20100208.114214	8	0.013328	60	10	60-180	60	165	GapExp	0	151	3	0	1	target	1	1520	240	29093	13.328	13.245	13.444
ProbeTrack10	11	ProbeTrack	10.1	SCS215b	20100208.111942	20100208.114222	8	0.013328	60	10	60-180	60	177	GapExp	0	152	3	0	0	target	0	4399	-1000	28093	13.328	12.963	13.693
ProbeTrack10	11	ProbeTrack	10.1	SCS215b	20100208.111942	20100208.114233	8	0.013328	60	10	60-180	60	151	GapExp	0	153	3	0	0	distractor	1	1480	260	28353	13.328	13.046	13.576
ProbeTrack10	11	ProbeTrack	10.1	SCS215b	20100208.111942	20100208.114252	8	0.013328	60	10	60-180	60	103	GapExp	0	154	3	1	1	target	1	1226	387	28740	13.328	12.999	13.657
ProbeTrack10	11	ProbeTrack	10.1	SCS215b	20100208.111942	20100208.114259	8	0.013328	60	10	60-180	60	150	GapExp	0	155	3	75	1	target	1	1174	413	29153	13.328	12.991	13.665
ProbeTrack10	11	ProbeTrack	10.1	SCS215b	20100208.111942	20100208.114307	8	0.013328	60	10	60-180	60	117	GapExp	0	156	3	4	1	target	1	1187	407	29560	13.478	13.066	39.536
ProbeTrack10	11	ProbeTrack	10.1	SCS215b	20100208.111942	20100208.114314	8	0.013328	60	10	60-180	60	155	GapExp	0	157	3	4	1	target	1	1440	280	29840	17.142	12.848	173.190
ProbeTrack10	11	ProbeTrack	10.1	SCS215b	20100208.111942	20100208.114323	8	0.013328	60	10	60-180	60	122	GapExp	0	158	3	1	0	distractor	1	1560	220	30060	13.477	12.958	53.681
ProbeTrack10	11	ProbeTrack	10.1	SCS215b	20100208.111942	20100208.114330	8	0.013328	60	10	60-180	60	139	GapExp	0	159	3	1	0	distractor	1	1760	120	30180	13.328	13.128	13.561
ProbeTrack10	11	ProbeTrack	10.1	SCS215b	20100208.111942	20100208.114358	8	0.013328	60	10	60-180	60	111	GapExp	0	160	3	75	0	distractor	1	1293	354	30534	13.328	12.947	13.709
ProbeTrack10	11	ProbeTrack	10.1	SCS215b	20100208.111942	20100208.114407	8	0.013328	60	10	60-180	60	164	GapExp	0	161	3	4	1	target	1	1213	394	30928	13.328	13.049	13.574
ProbeTrack10	11	ProbeTrack	10.1	SCS215b	20100208.111942	20100208.114415	8	0.013328	60	10	60-180	60	171	GapExp	0	162	3	4	0	distractor	1	1853	74	31002	13.328	13.264	13.398
ProbeTrack10	11	ProbeTrack	10.1	SCS215b	20100208.111942	20100208.114423	8	0.013328	60	10	60-180	60	91	GapExp	0	163	3	4	0	distractor	1	1266	367	31369	13.328	13.063	13.597
ProbeTrack10	11	ProbeTrack	10.1	SCS215b	20100208.111942	20100208.114430	8	0.013328	60	10	60-180	60	167	GapExp	0	164	3	1	1	target	1	1240	380	31749	13.328	12.935	13.687
ProbeTrack10	11	ProbeTrack	10.1	SCS215b	20100208.111942	20100208.114438	8	0.013328	60	10	60-180	60	178	GapExp	0	165	3	2	1	target	1	1067	467	32216	13.328	13.141	13.515
ProbeTrack10	11	ProbeTrack	10.1	SCS215b	20100208.111942	20100208.114446	8	0.013328	60	10	60-180	60	90	GapExp	0	166	3	1	1	target	1	1147	427	32643	13.328	13.230	13.460
ProbeTrack10	11	ProbeTrack	10.1	SCS215b	20100208.111942	20100208.114452	8	0.013328	60	10	60-180	60	64	GapExp	0	167	3	2	0	distractor	1	1306	347	32990	13.328	13.109	13.514
ProbeTrack10	11	ProbeTrack	10.1	SCS215b	20100208.111942	20100208.114458	8	0.013328	60	10	60-180	60	86	GapExp	0	168	3	1	0	distractor	1	2279	0	32990	13.328	12.996	13.693
ProbeTrack10	11	ProbeTrack	10.1	SCS215b	20100208.111942	20100208.114506	8	0.013328	60	10	60-180	60	152	GapExp	0	169	3	75	1	distractor	0	1866	-1000	31990	13.328	13.026	13.664
ProbeTrack10	11	ProbeTrack	10.1	SCS215b	20100208.111942	20100208.114515	8	0.013328	60	10	60-180	60	85	GapExp	0	170	3	0	0	target	0	2146	-1000	30990	13.328	12.994	13.628
ProbeTrack10	11	ProbeTrack	10.1	SCS215b	20100208.111942	20100208.114524	8	0.013328	60	10	60-180	60	131	GapExp	0	171	3	75	0	distractor	1	1813	94	31084	13.328	12.950	13.672
ProbeTrack10	11	ProbeTrack	10.1	SCS215b	20100208.111942	20100208.114533	8	0.013328	60	10	60-180	60	159	GapExp	0	172	3	0	0	distractor	1	880	560	31644	13.328	13.058	13.631
ProbeTrack10	11	ProbeTrack	10.1	SCS215b	20100208.111942	20100208.114543	8	0.013328	60	10	60-180	60	92	GapExp	0	173	3	1	1	target	1	1227	387	32031	13.328	12.994	13.626
ProbeTrack10	11	ProbeTrack	10.1	SCS215b	20100208.111942	20100208.114550	8	0.013328	60	10	60-180	60	109	GapExp	0	174	3	1	0	distractor	1	1040	480	32511	13.328	13.024	13.597
ProbeTrack10	11	ProbeTrack	10.1	SCS215b	20100208.111942	20100208.114557	8	0.013328	60	10	60-180	60	94	GapExp	0	175	3	4	0	distractor	1	2386	0	32511	13.328	13.274	13.382
ProbeTrack10	11	ProbeTrack	10.1	SCS215b	20100208.111942	20100208.114611	8	0.013328	60	10	60-180	60	156	GapExp	0	176	3	1	0	distractor	1	1120	440	32951	14.519	13.214	119.848
ProbeTrack10	11	ProbeTrack	10.1	SCS215b	20100208.111942	20100208.114620	8	0.013328	60	10	60-180	60	96	GapExp	0	177	3	4	0	distractor	1	1093	454	33405	13.328	13.208	13.448
ProbeTrack10	11	ProbeTrack	10.1	SCS215b	20100208.111942	20100208.114626	8	0.013328	60	10	60-180	60	127	GapExp	0	178	3	2	1	target	1	1080	460	33865	13.328	12.992	13.631
ProbeTrack10	11	ProbeTrack	10.1	SCS215b	20100208.111942	20100208.114633	8	0.013328	60	10	60-180	60	97	GapExp	0	179	3	4	1	target	1	1107	447	34312	13.328	13.188	13.444
ProbeTrack10	11	ProbeTrack	10.1	SCS215b	20100208.111942	20100208.114640	8	0.013328	60	10	60-180	60	153	GapExp	0	180	3	0	1	target	1	773	614	34926	13.328	13.020	13.602
ProbeTrack10	11	ProbeTrack	10.1	SCS215b	20100208.111942	20100208.114647	8	0.013328	60	10	60-180	60	139	GapExp	0	181	3	75	1	target	1	1253	374	35300	13.328	12.943	13.714
ProbeTrack10	11	ProbeTrack	10.1	SCS215b	20100208.111942	20100208.114656	8	0.013328	60	10	60-180	60	155	GapExp	0	182	3	75	1	target	1	1160	420	35720	13.328	12.966	13.689
ProbeTrack10	11	ProbeTrack	10.1	SCS215b	20100208.111942	20100208.114704	8	0.013328	60	10	60-180	60	78	GapExp	0	183	3	2	1	target	1	5132	0	35720	13.328	13.227	13.463
ProbeTrack10	11	ProbeTrack	10.1	SCS215b	20100208.111942	20100208.114714	8	0.013328	60	10	60-180	60	155	GapExp	0	184	3	75	1	target	1	1080	460	36180	13.328	13.053	13.604
ProbeTrack10	11	ProbeTrack	10.1	SCS215b	20100208.111942	20100208.114722	8	0.013328	60	10	60-180	60	78	GapExp	0	185	3	75	1	distractor	0	3372	-1000	35180	13.328	11.385	15.271
ProbeTrack10	11	ProbeTrack	10.1	SCS215b	20100208.111942	20100208.114736	8	0.013328	60	10	60-180	60	179	GapExp	0	186	3	4	1	target	1	1400	300	35480	13.328	13.223	13.467
ProbeTrack10	11	ProbeTrack	10.1	SCS215b	20100208.111942	20100208.114745	8	0.013328	60	10	60-180	60	123	GapExp	0	187	3	2	1	target	1	1093	454	35934	13.328	13.031	13.592
ProbeTrack10	11	ProbeTrack	10.1	SCS215b	20100208.111942	20100208.114752	8	0.013328	60	10	60-180	60	78	GapExp	0	188	3	2	0	distractor	1	1746	127	36061	13.328	12.980	13.676
ProbeTrack10	11	ProbeTrack	10.1	SCS215b	20100208.111942	20100208.114801	8	0.013328	60	10	60-180	60	87	GapExp	0	189	3	75	1	target	1	1013	494	36555	13.328	13.071	13.618
ProbeTrack10	11	ProbeTrack	10.1	SCS215b	20100208.111942	20100208.114808	8	0.013328	60	10	60-180	60	174	GapExp	0	190	3	1	0	distractor	1	4345	0	36555	13.328	13.162	13.528
ProbeTrack10	11	ProbeTrack	10.1	SCS215b	20100208.111942	20100208.114819	8	0.013328	60	10	60-180	60	78	GapExp	0	191	3	4	0	distractor	1	1346	327	36882	13.328	13.181	13.475
ProbeTrack10	11	ProbeTrack	10.1	SCS215b	20100208.111942	20100208.114826	8	0.013328	60	10	60-180	60	100	GapExp	0	192	3	4	0	distractor	1	1093	454	37336	13.328	13.258	13.397
ProbeTrack10	11	ProbeTrack	10.1	SCS215b	20100208.111942	20100208.114833	8	0.013328	60	10	60-180	60	93	GapExp	0	193	3	75	1	target	1	1093	454	37790	13.328	13.178	13.444
ProbeTrack10	11	ProbeTrack	10.1	SCS215b	20100208.111942	20100208.114840	8	0.013328	60	10	60-180	60	159	GapExp	0	194	3	0	1	distractor	0	2653	-1000	36790	13.328	13.075	13.582
ProbeTrack10	11	ProbeTrack	10.1	SCS215b	20100208.111942	20100208.114850	8	0.013328	60	10	60-180	60	72	GapExp	0	195	3	4	1	target	1	1000	500	37290	13.328	13.063	13.626
ProbeTrack10	11	ProbeTrack	10.1	SCS215b	20100208.111942	20100208.114857	8	0.013328	60	10	60-180	60	151	GapExp	0	196	3	2	0	distractor	1	1453	274	37564	13.328	13.142	13.547
ProbeTrack10	11	ProbeTrack	10.1	SCS215b	20100208.111942	20100208.114905	8	0.013328	60	10	60-180	60	177	GapExp	0	197	3	4	1	target	1	1000	500	38064	13.328	13.015	13.675
ProbeTrack10	11	ProbeTrack	10.1	SCS215b	20100208.111942	20100208.114913	8	0.013328	60	10	60-180	60	135	GapExp	0	198	3	2	0	distractor	1	2573	0	38064	13.328	12.981	13.643
ProbeTrack10	11	ProbeTrack	10.1	SCS215b	20100208.111942	20100208.114922	8	0.013328	60	10	60-180	60	110	GapExp	0	199	3	0	1	target	1	3279	0	38064	13.329	12.994	13.645
ProbeTrack10	11	ProbeTrack	10.1	SCS215b	20100208.111942	20100208.114931	8	0.013328	60	10	60-180	60	117	GapExp	0	200	3	1	0	distractor	1	1626	187	38251	13.328	13.161	13.527
ProbeTrack10	11	ProbeTrack	10.1	SCS215b	20100208.111942	20100208.114939	8	0.013328	60	10	60-180	60	80	GapExp	0	201	3	2	0	distractor	1	1720	140	38391	13.328	12.966	13.723
ProbeTrack10	11	ProbeTrack	10.1	SCS215b	20100208.111942	20100208.115047	8	0.013328	60	10	60-180	60	139	GapExp	0	202	3	4	1	target	1	1546	227	38618	13.328	13.241	13.382
ProbeTrack10	11	ProbeTrack	10.1	SCS215b	20100208.111942	20100208.115056	8	0.013328	60	10	60-180	60	150	GapExp	0	203	3	0	1	target	1	1280	360	38978	13.328	13.272	13.412
ProbeTrack10	11	ProbeTrack	10.1	SCS215b	20100208.111942	20100208.115103	8	0.013328	60	10	60-180	60	75	GapExp	0	204	3	0	0	distractor	1	2599	0	38978	13.328	12.957	13.698
ProbeTrack10	11	ProbeTrack	10.1	SCS215b	20100208.111942	20100208.115111	8	0.013328	60	10	60-180	60	173	GapExp	0	205	3	75	1	distractor	0	1346	-1000	37978	13.328	13.032	13.623
ProbeTrack10	11	ProbeTrack	10.1	SCS215b	20100208.111942	20100208.115121	8	0.013328	60	10	60-180	60	158	GapExp	0	206	3	1	0	distractor	1	1586	207	38185	13.328	12.916	13.706
ProbeTrack10	11	ProbeTrack	10.1	SCS215b	20100208.111942	20100208.115129	8	0.013328	60	10	60-180	60	180	GapExp	0	207	3	2	0	target	0	640	-1000	37185	13.328	13.196	13.461
ProbeTrack10	11	ProbeTrack	10.1	SCS215b	20100208.111942	20100208.115136	8	0.013328	60	10	60-180	60	134	GapExp	0	208	3	2	1	target	1	1440	280	37465	13.328	12.947	13.741
ProbeTrack10	11	ProbeTrack	10.1	SCS215b	20100208.111942	20100208.115144	8	0.013328	60	10	60-180	60	94	GapExp	0	209	3	2	0	distractor	1	2533	0	37465	13.328	13.007	13.649
ProbeTrack10	11	ProbeTrack	10.1	SCS215b	20100208.111942	20100208.115153	8	0.013328	60	10	60-180	60	147	GapExp	0	210	3	2	0	multi	-2	2119	-1000	36465	13.328	13.066	13.589
