exp	sub	code	rev	comp	runtime	trialtime	nstim	refreshdur	cuedur	gapdur	gapOnsetRange	durPostProbe	gapOnsetTime	blocktype	prac	trial	ntargets	soa	probeTarget	resp	acc	rt	pts	tpts	meanFrameDur	minFrameDur	maxFrameDur
ProbeTrack10	15	ProbeTrack	10.1	SCS215a	20100217.121541	20100217.121555	8	0.013328	60	0	60-180	60	109	NoGap	1	1	3	0	0	distractor	1	2066	0	0	13.328	13.084	13.571
ProbeTrack10	15	ProbeTrack	10.1	SCS215a	20100217.121541	20100217.121622	8	0.013328	60	0	60-180	60	114	NoGap	1	2	3	4	1	target	1	987	507	507	13.328	12.969	13.652
ProbeTrack10	15	ProbeTrack	10.1	SCS215a	20100217.121541	20100217.121647	8	0.013328	60	0	60-180	60	76	NoGap	1	3	3	0	1	target	1	733	634	1141	13.328	13.000	13.622
ProbeTrack10	15	ProbeTrack	10.1	SCS215a	20100217.121541	20100217.121653	8	0.013328	60	0	60-180	60	139	NoGap	1	4	3	75	1	target	1	600	700	1841	13.328	12.990	13.666
ProbeTrack10	15	ProbeTrack	10.1	SCS215a	20100217.121541	20100217.121702	8	0.013328	60	0	60-180	60	71	NoGap	1	5	3	0	1	target	1	534	733	2574	13.328	13.047	13.575
ProbeTrack10	15	ProbeTrack	10.1	SCS215a	20100217.121541	20100217.121711	8	0.013328	60	0	60-180	60	99	NoGap	1	6	3	2	0	distractor	1	907	547	3121	13.328	13.114	13.541
ProbeTrack10	15	ProbeTrack	10.1	SCS215a	20100217.121541	20100217.121718	8	0.013328	60	0	60-180	60	151	NoGap	1	7	3	4	1	target	1	853	574	3695	14.017	12.821	40.377
ProbeTrack10	15	ProbeTrack	10.1	SCS215a	20100217.121541	20100217.121728	8	0.013328	60	0	60-180	60	118	NoGap	1	8	3	75	1	target	1	560	720	4415	13.413	13.027	40.012
ProbeTrack10	15	ProbeTrack	10.1	SCS215a	20100217.121541	20100217.121736	8	0.013328	60	0	60-180	60	86	NoGap	1	9	3	1	1	target	1	574	713	5128	13.521	13.199	26.570
ProbeTrack10	15	ProbeTrack	10.1	SCS215a	20100217.121541	20100217.121745	8	0.013328	60	0	60-180	60	175	NoGap	1	10	3	4	0	distractor	1	787	607	5735	13.328	12.907	13.749
ProbeTrack10	15	ProbeTrack	10.1	SCS215a	20100217.121541	20100217.121756	8	0.013328	60	0	60-180	60	88	NoGap	1	11	3	1	0	distractor	1	933	534	6269	13.328	13.254	13.370
ProbeTrack10	15	ProbeTrack	10.1	SCS215a	20100217.121541	20100217.121803	8	0.013328	60	0	60-180	60	167	NoGap	1	12	3	4	0	target	0	640	-1000	5269	13.328	13.293	13.363
ProbeTrack10	15	ProbeTrack	10.1	SCS215a	20100217.121541	20100217.121812	8	0.013328	60	0	60-180	60	115	NoGap	1	13	3	75	0	distractor	1	827	587	5856	13.328	13.156	13.534
ProbeTrack10	15	ProbeTrack	10.1	SCS215a	20100217.121541	20100217.121823	8	0.013328	60	0	60-180	60	67	NoGap	1	14	3	1	1	target	1	787	607	6463	13.328	13.293	13.363
ProbeTrack10	15	ProbeTrack	10.1	SCS215a	20100217.121541	20100217.121830	8	0.013328	60	0	60-180	60	107	NoGap	1	15	3	75	0	distractor	1	653	674	7137	13.328	13.215	13.442
ProbeTrack10	15	ProbeTrack	10.1	SCS215a	20100217.121541	20100217.121839	8	0.013328	60	0	60-180	60	126	NoGap	1	16	3	0	1	target	1	800	600	7737	13.328	13.187	13.468
ProbeTrack10	15	ProbeTrack	10.1	SCS215a	20100217.121541	20100217.121848	8	0.013328	60	0	60-180	60	161	NoGap	1	17	3	0	0	distractor	1	734	633	8370	13.373	13.280	26.200
ProbeTrack10	15	ProbeTrack	10.1	SCS215a	20100217.121541	20100217.121857	8	0.013328	60	0	60-180	60	149	NoGap	1	18	3	1	1	target	1	627	687	9057	13.328	13.123	13.531
ProbeTrack10	15	ProbeTrack	10.1	SCS215a	20100217.121541	20100217.121904	8	0.013328	60	0	60-180	60	112	NoGap	1	19	3	2	1	target	1	627	687	9744	13.328	13.209	13.446
ProbeTrack10	15	ProbeTrack	10.1	SCS215a	20100217.121541	20100217.121912	8	0.013328	60	0	60-180	60	68	NoGap	1	20	3	2	1	target	1	627	687	10431	13.328	13.271	13.385
ProbeTrack10	15	ProbeTrack	10.1	SCS215a	20100217.121541	20100217.121918	8	0.013328	60	0	60-180	60	114	NoGap	1	21	3	4	0	distractor	1	680	660	11091	13.328	13.249	13.407
ProbeTrack10	15	ProbeTrack	10.1	SCS215a	20100217.121541	20100217.121926	8	0.013328	60	0	60-180	60	78	NoGap	1	22	3	75	1	target	1	587	707	11798	13.328	13.289	13.367
ProbeTrack10	15	ProbeTrack	10.1	SCS215a	20100217.121541	20100217.121934	8	0.013328	60	0	60-180	60	76	NoGap	1	23	3	1	1	target	1	600	700	12498	13.328	13.161	13.494
ProbeTrack10	15	ProbeTrack	10.1	SCS215a	20100217.121541	20100217.121940	8	0.013328	60	0	60-180	60	146	NoGap	1	24	3	2	1	target	1	534	733	13231	13.328	13.270	13.385
ProbeTrack10	15	ProbeTrack	10.1	SCS215a	20100217.121541	20100217.121947	8	0.013328	60	0	60-180	60	87	NoGap	1	25	3	75	0	distractor	1	560	720	13951	13.328	13.192	13.489
ProbeTrack10	15	ProbeTrack	10.1	SCS215a	20100217.121541	20100217.121954	8	0.013328	60	0	60-180	60	137	NoGap	1	26	3	75	1	target	1	680	660	14611	13.328	13.016	13.640
ProbeTrack10	15	ProbeTrack	10.1	SCS215a	20100217.121541	20100217.122002	8	0.013328	60	0	60-180	60	80	NoGap	1	27	3	4	0	distractor	1	600	700	15311	13.328	13.293	13.363
ProbeTrack10	15	ProbeTrack	10.1	SCS215a	20100217.121541	20100217.122009	8	0.013328	60	0	60-180	60	138	NoGap	1	28	3	2	1	target	1	627	687	15998	13.328	13.276	13.379
ProbeTrack10	15	ProbeTrack	10.1	SCS215a	20100217.121541	20100217.122016	8	0.013328	60	0	60-180	60	162	NoGap	1	29	3	2	0	distractor	1	507	747	16745	13.328	13.135	13.521
ProbeTrack10	15	ProbeTrack	10.1	SCS215a	20100217.121541	20100217.122024	8	0.013328	60	0	60-180	60	127	NoGap	1	30	3	75	0	distractor	1	1067	467	17212	13.328	13.289	13.366
ProbeTrack10	15	ProbeTrack	10.1	SCS215a	20100217.121541	20100217.122032	8	0.013328	60	0	60-180	60	165	NoGap	1	31	3	4	1	target	1	653	674	17886	13.418	13.198	26.576
ProbeTrack10	15	ProbeTrack	10.1	SCS215a	20100217.121541	20100217.122041	8	0.013328	60	0	60-180	60	129	NoGap	1	32	3	0	1	target	1	507	747	18633	13.328	13.292	13.397
ProbeTrack10	15	ProbeTrack	10.1	SCS215a	20100217.121541	20100217.122048	8	0.013328	60	0	60-180	60	73	NoGap	1	33	3	1	0	distractor	1	653	674	19307	13.328	13.254	13.402
ProbeTrack10	15	ProbeTrack	10.1	SCS215a	20100217.121541	20100217.122054	8	0.013328	60	0	60-180	60	93	NoGap	1	34	3	1	0	distractor	1	547	727	20034	13.328	13.104	13.585
ProbeTrack10	15	ProbeTrack	10.1	SCS215a	20100217.121541	20100217.122101	8	0.013328	60	0	60-180	60	98	NoGap	1	35	3	0	0	distractor	1	507	747	20781	13.328	12.990	13.665
ProbeTrack10	15	ProbeTrack	10.1	SCS215a	20100217.121541	20100217.122108	8	0.013328	60	0	60-180	60	89	NoGap	1	36	3	2	0	distractor	1	560	720	21501	13.328	13.235	13.455
ProbeTrack10	15	ProbeTrack	10.1	SCS215a	20100217.121541	20100217.122117	8	0.013328	60	0	60-180	60	174	NoGap	1	37	3	0	0	distractor	1	494	753	22254	13.328	13.293	13.363
ProbeTrack10	15	ProbeTrack	10.1	SCS215a	20100217.121541	20100217.122127	8	0.013328	60	0	60-180	60	172	NoGap	1	38	3	1	0	distractor	1	534	733	22987	13.328	13.293	13.363
ProbeTrack10	15	ProbeTrack	10.1	SCS215a	20100217.121541	20100217.122134	8	0.013328	60	0	60-180	60	141	NoGap	1	39	3	2	0	distractor	1	427	787	23774	13.328	13.004	13.661
ProbeTrack10	15	ProbeTrack	10.1	SCS215a	20100217.121541	20100217.122141	8	0.013328	60	0	60-180	60	89	NoGap	1	40	3	4	1	target	1	827	587	24361	13.328	13.151	13.470
ProbeTrack10	15	ProbeTrack	10.1	SCS215a	20100217.122228	20100217.122246	8	0.013328	60	10	60-180	60	67	GapPrac	1	1	3	2	0	distractor	1	947	527	24888	13.390	13.121	26.658
ProbeTrack10	15	ProbeTrack	10.1	SCS215a	20100217.122228	20100217.122300	8	0.013328	60	10	60-180	60	93	GapPrac	1	2	3	0	0	distractor	1	800	600	25488	13.328	13.039	13.650
ProbeTrack10	15	ProbeTrack	10.1	SCS215a	20100217.122228	20100217.122307	8	0.013328	60	10	60-180	60	61	GapPrac	1	3	3	75	1	distractor	0	733	-1000	24488	13.328	12.843	13.814
ProbeTrack10	15	ProbeTrack	10.1	SCS215a	20100217.122228	20100217.122315	8	0.013328	60	10	60-180	60	116	GapPrac	1	4	3	0	1	target	1	1053	474	24962	13.328	13.129	13.563
ProbeTrack10	15	ProbeTrack	10.1	SCS215a	20100217.122228	20100217.122323	8	0.013328	60	10	60-180	60	109	GapPrac	1	5	3	2	0	distractor	1	640	680	25642	13.328	13.119	13.569
ProbeTrack10	15	ProbeTrack	10.1	SCS215a	20100217.122228	20100217.122331	8	0.013328	60	10	60-180	60	166	GapPrac	1	6	3	75	0	distractor	1	640	680	26322	13.399	13.119	26.312
ProbeTrack10	15	ProbeTrack	10.1	SCS215a	20100217.122228	20100217.122339	8	0.013328	60	10	60-180	60	115	GapPrac	1	7	3	1	0	distractor	1	654	673	26995	13.328	13.012	13.573
ProbeTrack10	15	ProbeTrack	10.1	SCS215a	20100217.122228	20100217.122345	8	0.013328	60	10	60-180	60	131	GapPrac	1	8	3	1	1	distractor	0	1120	-1000	25995	13.376	13.183	26.548
ProbeTrack10	15	ProbeTrack	10.1	SCS215a	20100217.122228	20100217.122353	8	0.013328	60	10	60-180	60	88	GapPrac	1	9	3	0	1	target	1	933	534	26529	13.328	13.010	13.646
ProbeTrack10	15	ProbeTrack	10.1	SCS215a	20100217.122228	20100217.122400	8	0.013328	60	10	60-180	60	75	GapPrac	1	10	3	75	1	target	1	800	600	27129	13.328	12.865	13.824
ProbeTrack10	15	ProbeTrack	10.1	SCS215a	20100217.122228	20100217.122407	8	0.013328	60	10	60-180	60	86	GapPrac	1	11	3	2	1	target	1	747	627	27756	13.328	12.918	13.737
ProbeTrack10	15	ProbeTrack	10.1	SCS215a	20100217.122228	20100217.122414	8	0.013328	60	10	60-180	60	136	GapPrac	1	12	3	1	1	target	1	720	640	28396	13.376	13.119	26.274
ProbeTrack10	15	ProbeTrack	10.1	SCS215a	20100217.122228	20100217.122422	8	0.013328	60	10	60-180	60	98	GapPrac	1	13	3	2	1	target	1	707	647	29043	13.384	12.884	26.852
ProbeTrack10	15	ProbeTrack	10.1	SCS215a	20100217.122228	20100217.122429	8	0.013328	60	10	60-180	60	105	GapPrac	1	14	3	0	0	distractor	1	733	634	29677	13.328	12.820	13.836
ProbeTrack10	15	ProbeTrack	10.1	SCS215a	20100217.122228	20100217.122436	8	0.013328	60	10	60-180	60	149	GapPrac	1	15	3	4	1	target	1	733	634	30311	13.328	12.866	13.822
ProbeTrack10	15	ProbeTrack	10.1	SCS215a	20100217.122228	20100217.122443	8	0.013328	60	10	60-180	60	130	GapPrac	1	16	3	4	0	distractor	1	773	614	30925	13.328	12.990	13.642
ProbeTrack10	15	ProbeTrack	10.1	SCS215a	20100217.122228	20100217.122451	8	0.013328	60	10	60-180	60	121	GapPrac	1	17	3	75	0	distractor	1	987	507	31432	13.406	12.830	27.189
ProbeTrack10	15	ProbeTrack	10.1	SCS215a	20100217.122228	20100217.122500	8	0.013328	60	10	60-180	60	88	GapPrac	1	18	3	1	0	target	0	1107	-1000	30432	13.328	13.259	13.414
ProbeTrack10	15	ProbeTrack	10.1	SCS215a	20100217.122228	20100217.122507	8	0.013328	60	10	60-180	60	106	GapPrac	1	19	3	4	1	target	1	733	634	31066	13.328	12.981	13.676
ProbeTrack10	15	ProbeTrack	10.1	SCS215a	20100217.122228	20100217.122513	8	0.013328	60	10	60-180	60	170	GapPrac	1	20	3	4	0	target	0	693	-1000	30066	13.328	12.953	13.703
ProbeTrack10	15	ProbeTrack	10.1	SCS215a	20100217.122605	20100217.122629	8	0.013328	60	10	60-180	60	145	GapExp	1	1	3	4	0	distractor	1	693	654	30720	13.605	12.928	26.690
ProbeTrack10	15	ProbeTrack	10.1	SCS215a	20100217.122605	20100217.122637	8	0.013328	60	10	60-180	60	176	GapExp	1	2	3	4	1	distractor	0	867	-1000	29720	13.328	13.094	13.562
ProbeTrack10	15	ProbeTrack	10.1	SCS215a	20100217.122605	20100217.122645	8	0.013328	60	10	60-180	60	135	GapExp	1	3	3	75	0	distractor	1	773	614	30334	13.328	13.046	13.611
ProbeTrack10	15	ProbeTrack	10.1	SCS215a	20100217.122605	20100217.122655	8	0.013328	60	10	60-180	60	179	GapExp	1	4	3	1	1	target	1	627	687	31021	13.328	13.011	13.645
ProbeTrack10	15	ProbeTrack	10.1	SCS215a	20100217.122605	20100217.122702	8	0.013328	60	10	60-180	60	82	GapExp	1	5	3	75	1	distractor	0	760	-1000	30021	13.328	13.051	13.638
ProbeTrack10	15	ProbeTrack	10.1	SCS215a	20100217.122605	20100217.122711	8	0.013328	60	10	60-180	60	120	GapExp	1	6	3	0	0	distractor	1	747	627	30648	13.328	12.902	13.719
ProbeTrack10	15	ProbeTrack	10.1	SCS215a	20100217.122605	20100217.122718	8	0.013328	60	10	60-180	60	105	GapExp	1	7	3	1	0	target	0	787	-1000	29648	13.593	12.841	53.283
ProbeTrack10	15	ProbeTrack	10.1	SCS215a	20100217.122605	20100217.122725	8	0.013328	60	10	60-180	60	132	GapExp	1	8	3	0	1	target	1	680	660	30308	13.377	12.813	26.883
ProbeTrack10	15	ProbeTrack	10.1	SCS215a	20100217.122605	20100217.122731	8	0.013328	60	10	60-180	60	132	GapExp	1	9	3	2	1	target	1	694	653	30961	13.377	12.927	26.302
ProbeTrack10	15	ProbeTrack	10.1	SCS215a	20100217.122605	20100217.122738	8	0.013328	60	10	60-180	60	172	GapExp	1	10	3	2	0	distractor	1	720	640	31601	13.539	12.835	39.955
ProbeTrack10	15	ProbeTrack	10.1	SCS215a	20100217.122605	20100217.122745	8	0.013328	60	10	60-180	60	100	GapExp	0	11	3	75	1	target	1	827	587	32188	13.619	12.819	27.160
ProbeTrack10	15	ProbeTrack	10.1	SCS215a	20100217.122605	20100217.122753	8	0.013328	60	10	60-180	60	127	GapExp	0	12	3	0	1	target	1	534	733	32921	13.328	12.978	13.678
ProbeTrack10	15	ProbeTrack	10.1	SCS215a	20100217.122605	20100217.122759	8	0.013328	60	10	60-180	60	100	GapExp	0	13	3	2	0	target	0	534	-1000	31921	13.328	13.290	13.363
ProbeTrack10	15	ProbeTrack	10.1	SCS215a	20100217.122605	20100217.122806	8	0.013328	60	10	60-180	60	108	GapExp	0	14	3	1	0	distractor	1	960	520	32441	13.328	13.290	13.363
ProbeTrack10	15	ProbeTrack	10.1	SCS215a	20100217.122605	20100217.122812	8	0.013328	60	10	60-180	60	172	GapExp	0	15	3	0	0	distractor	1	3079	0	32441	13.328	13.256	13.425
ProbeTrack10	15	ProbeTrack	10.1	SCS215a	20100217.122605	20100217.122822	8	0.013328	60	10	60-180	60	169	GapExp	0	16	3	1	1	distractor	0	1466	-1000	31441	13.328	13.084	13.570
ProbeTrack10	15	ProbeTrack	10.1	SCS215a	20100217.122605	20100217.122830	8	0.013328	60	10	60-180	60	111	GapExp	0	17	3	4	0	distractor	1	680	660	32101	13.328	13.293	13.363
ProbeTrack10	15	ProbeTrack	10.1	SCS215a	20100217.122605	20100217.122840	8	0.013328	60	10	60-180	60	103	GapExp	0	18	3	4	1	target	1	627	687	32788	13.328	13.293	13.363
ProbeTrack10	15	ProbeTrack	10.1	SCS215a	20100217.122605	20100217.122846	8	0.013328	60	10	60-180	60	158	GapExp	0	19	3	2	1	target	1	707	647	33435	13.328	13.200	13.456
ProbeTrack10	15	ProbeTrack	10.1	SCS215a	20100217.122605	20100217.122854	8	0.013328	60	10	60-180	60	65	GapExp	0	20	3	2	1	target	1	507	747	34182	13.328	13.293	13.363
ProbeTrack10	15	ProbeTrack	10.1	SCS215a	20100217.122605	20100217.122859	8	0.013328	60	10	60-180	60	147	GapExp	0	21	3	2	1	target	1	427	787	34969	13.328	13.151	13.539
ProbeTrack10	15	ProbeTrack	10.1	SCS215a	20100217.122605	20100217.122906	8	0.013328	60	10	60-180	60	141	GapExp	0	22	3	1	1	target	1	414	793	35762	13.328	13.105	13.517
ProbeTrack10	15	ProbeTrack	10.1	SCS215a	20100217.122605	20100217.122912	8	0.013328	60	10	60-180	60	96	GapExp	0	23	3	1	0	distractor	1	720	640	36402	13.328	13.023	13.668
ProbeTrack10	15	ProbeTrack	10.1	SCS215a	20100217.122605	20100217.122919	8	0.013328	60	10	60-180	60	161	GapExp	0	24	3	0	1	target	1	867	567	36969	13.328	13.095	13.528
ProbeTrack10	15	ProbeTrack	10.1	SCS215a	20100217.122605	20100217.122926	8	0.013328	60	10	60-180	60	112	GapExp	0	25	3	1	0	distractor	1	627	687	37656	13.328	13.167	13.489
ProbeTrack10	15	ProbeTrack	10.1	SCS215a	20100217.122605	20100217.122933	8	0.013328	60	10	60-180	60	89	GapExp	0	26	3	4	1	target	1	573	714	38370	13.328	13.293	13.363
ProbeTrack10	15	ProbeTrack	10.1	SCS215a	20100217.122605	20100217.122939	8	0.013328	60	10	60-180	60	100	GapExp	0	27	3	0	0	distractor	1	1067	467	38837	13.328	13.293	13.363
ProbeTrack10	15	ProbeTrack	10.1	SCS215a	20100217.122605	20100217.122947	8	0.013328	60	10	60-180	60	70	GapExp	0	28	3	75	1	target	1	947	527	39364	13.328	12.899	13.723
ProbeTrack10	15	ProbeTrack	10.1	SCS215a	20100217.122605	20100217.122954	8	0.013328	60	10	60-180	60	166	GapExp	0	29	3	1	0	distractor	1	867	567	39931	13.328	12.914	13.706
ProbeTrack10	15	ProbeTrack	10.1	SCS215a	20100217.122605	20100217.123002	8	0.013328	60	10	60-180	60	132	GapExp	0	30	3	0	0	distractor	1	853	574	40505	13.328	13.081	13.575
ProbeTrack10	15	ProbeTrack	10.1	SCS215a	20100217.122605	20100217.123009	8	0.013328	60	10	60-180	60	172	GapExp	0	31	3	75	0	target	0	2239	-1000	39505	13.328	13.293	13.383
ProbeTrack10	15	ProbeTrack	10.1	SCS215a	20100217.122605	20100217.123020	8	0.013328	60	10	60-180	60	148	GapExp	0	32	3	4	0	distractor	1	640	680	40185	13.328	13.053	13.638
ProbeTrack10	15	ProbeTrack	10.1	SCS215a	20100217.122605	20100217.123026	8	0.013328	60	10	60-180	60	173	GapExp	0	33	3	2	0	distractor	1	1866	67	40252	13.328	13.243	13.447
ProbeTrack10	15	ProbeTrack	10.1	SCS215a	20100217.122605	20100217.123035	8	0.013328	60	10	60-180	60	74	GapExp	0	34	3	1	0	distractor	1	680	660	40912	13.328	13.187	13.436
ProbeTrack10	15	ProbeTrack	10.1	SCS215a	20100217.122605	20100217.123042	8	0.013328	60	10	60-180	60	90	GapExp	0	35	3	4	1	target	1	627	687	41599	13.328	13.158	13.465
ProbeTrack10	15	ProbeTrack	10.1	SCS215a	20100217.122605	20100217.123048	8	0.013328	60	10	60-180	60	159	GapExp	0	36	3	0	1	target	1	573	714	42313	13.328	13.109	13.581
ProbeTrack10	15	ProbeTrack	10.1	SCS215a	20100217.122605	20100217.123055	8	0.013328	60	10	60-180	60	119	GapExp	0	37	3	4	1	target	1	480	760	43073	13.328	13.293	13.363
ProbeTrack10	15	ProbeTrack	10.1	SCS215a	20100217.122605	20100217.123102	8	0.013328	60	10	60-180	60	114	GapExp	0	38	3	2	0	distractor	1	667	667	43740	13.328	13.149	13.541
ProbeTrack10	15	ProbeTrack	10.1	SCS215a	20100217.122605	20100217.123109	8	0.013328	60	10	60-180	60	155	GapExp	0	39	3	75	0	distractor	1	387	807	44547	13.328	13.139	13.484
ProbeTrack10	15	ProbeTrack	10.1	SCS215a	20100217.122605	20100217.123116	8	0.013328	60	10	60-180	60	93	GapExp	0	40	3	1	1	target	1	800	600	45147	13.328	13.147	13.543
ProbeTrack10	15	ProbeTrack	10.1	SCS215a	20100217.122605	20100217.123122	8	0.013328	60	10	60-180	60	71	GapExp	0	41	3	2	0	distractor	1	600	700	45847	13.328	13.228	13.393
ProbeTrack10	15	ProbeTrack	10.1	SCS215a	20100217.122605	20100217.123128	8	0.013328	60	10	60-180	60	96	GapExp	0	42	3	1	1	target	1	454	773	46620	13.328	13.250	13.374
ProbeTrack10	15	ProbeTrack	10.1	SCS215a	20100217.122605	20100217.123134	8	0.013328	60	10	60-180	60	165	GapExp	0	43	3	0	1	target	1	480	760	47380	13.328	13.204	13.487
ProbeTrack10	15	ProbeTrack	10.1	SCS215a	20100217.122605	20100217.123142	8	0.013328	60	10	60-180	60	83	GapExp	0	44	3	4	0	distractor	1	680	660	48040	13.387	13.293	26.286
ProbeTrack10	15	ProbeTrack	10.1	SCS215a	20100217.122605	20100217.123148	8	0.013328	60	10	60-180	60	78	GapExp	0	45	3	2	0	target	0	1093	-1000	47040	13.328	13.090	13.600
ProbeTrack10	15	ProbeTrack	10.1	SCS215a	20100217.122605	20100217.123154	8	0.013328	60	10	60-180	60	102	GapExp	0	46	3	4	0	distractor	1	680	660	47700	13.328	13.129	13.527
ProbeTrack10	15	ProbeTrack	10.1	SCS215a	20100217.122605	20100217.123201	8	0.013328	60	10	60-180	60	138	GapExp	0	47	3	4	0	distractor	1	1067	467	48167	13.328	13.180	13.475
ProbeTrack10	15	ProbeTrack	10.1	SCS215a	20100217.122605	20100217.123209	8	0.013328	60	10	60-180	60	102	GapExp	0	48	3	0	0	target	0	614	-1000	47167	13.328	13.189	13.466
ProbeTrack10	15	ProbeTrack	10.1	SCS215a	20100217.122605	20100217.123215	8	0.013328	60	10	60-180	60	64	GapExp	0	49	3	1	1	target	1	1346	327	47494	13.328	13.215	13.440
ProbeTrack10	15	ProbeTrack	10.1	SCS215a	20100217.122605	20100217.123221	8	0.013328	60	10	60-180	60	106	GapExp	0	50	3	2	1	target	1	494	753	48247	13.328	13.293	13.363
ProbeTrack10	15	ProbeTrack	10.1	SCS215a	20100217.122605	20100217.123227	8	0.013328	60	10	60-180	60	104	GapExp	0	51	3	75	1	target	1	374	813	49060	13.328	13.139	13.550
ProbeTrack10	15	ProbeTrack	10.1	SCS215a	20100217.122605	20100217.123241	8	0.013328	60	10	60-180	60	160	GapExp	0	52	3	0	1	target	1	494	753	49813	13.328	13.146	13.475
ProbeTrack10	15	ProbeTrack	10.1	SCS215a	20100217.122605	20100217.123248	8	0.013328	60	10	60-180	60	81	GapExp	0	53	3	2	1	target	1	494	753	50566	13.328	13.140	13.516
ProbeTrack10	15	ProbeTrack	10.1	SCS215a	20100217.122605	20100217.123254	8	0.013328	60	10	60-180	60	126	GapExp	0	54	3	4	1	target	1	360	820	51386	13.328	13.193	13.464
ProbeTrack10	15	ProbeTrack	10.1	SCS215a	20100217.122605	20100217.123300	8	0.013328	60	10	60-180	60	172	GapExp	0	55	3	2	0	target	0	467	-1000	50386	13.328	13.288	13.369
ProbeTrack10	15	ProbeTrack	10.1	SCS215a	20100217.122605	20100217.123307	8	0.013328	60	10	60-180	60	169	GapExp	0	56	3	1	0	83	-3	947	-1000	49386	13.328	13.218	13.472
ProbeTrack10	15	ProbeTrack	10.1	SCS215a	20100217.122605	20100217.123315	8	0.013328	60	10	60-180	60	105	GapExp	0	57	3	0	1	target	1	454	773	50159	13.328	12.985	13.638
ProbeTrack10	15	ProbeTrack	10.1	SCS215a	20100217.122605	20100217.123320	8	0.013328	60	10	60-180	60	61	GapExp	0	58	3	1	1	target	1	480	760	50919	13.328	13.211	13.477
ProbeTrack10	15	ProbeTrack	10.1	SCS215a	20100217.122605	20100217.123326	8	0.013328	60	10	60-180	60	98	GapExp	0	59	3	1	0	83	-3	853	-1000	49919	13.328	13.099	13.558
ProbeTrack10	15	ProbeTrack	10.1	SCS215a	20100217.122605	20100217.123333	8	0.013328	60	10	60-180	60	118	GapExp	0	60	3	0	0	target	0	480	-1000	48919	13.328	13.293	13.363
ProbeTrack10	15	ProbeTrack	10.1	SCS215a	20100217.122605	20100217.123340	8	0.013328	60	10	60-180	60	116	GapExp	0	61	3	4	0	83	-3	947	-1000	47919	13.328	13.292	13.398
ProbeTrack10	15	ProbeTrack	10.1	SCS215a	20100217.122605	20100217.123347	8	0.013328	60	10	60-180	60	129	GapExp	0	62	3	1	1	target	1	654	673	48592	13.328	13.174	13.480
ProbeTrack10	15	ProbeTrack	10.1	SCS215a	20100217.122605	20100217.123357	8	0.013328	60	10	60-180	60	130	GapExp	0	63	3	75	1	target	1	627	687	49279	13.328	13.072	13.550
ProbeTrack10	15	ProbeTrack	10.1	SCS215a	20100217.122605	20100217.123406	8	0.013328	60	10	60-180	60	91	GapExp	0	64	3	1	1	target	1	400	800	50079	13.328	13.289	13.363
ProbeTrack10	15	ProbeTrack	10.1	SCS215a	20100217.122605	20100217.123411	8	0.013328	60	10	60-180	60	94	GapExp	0	65	3	4	0	target	0	374	-1000	49079	13.328	13.293	13.365
ProbeTrack10	15	ProbeTrack	10.1	SCS215a	20100217.122605	20100217.123417	8	0.013328	60	10	60-180	60	130	GapExp	0	66	3	1	0	distractor	1	880	560	49639	13.328	13.214	13.476
ProbeTrack10	15	ProbeTrack	10.1	SCS215a	20100217.122605	20100217.123424	8	0.013328	60	10	60-180	60	95	GapExp	0	67	3	75	1	distractor	0	2693	-1000	48639	13.328	13.230	13.458
ProbeTrack10	15	ProbeTrack	10.1	SCS215a	20100217.122605	20100217.123433	8	0.013328	60	10	60-180	60	89	GapExp	0	68	3	0	1	target	1	514	743	49382	13.328	13.039	13.583
ProbeTrack10	15	ProbeTrack	10.1	SCS215a	20100217.122605	20100217.123439	8	0.013328	60	10	60-180	60	88	GapExp	0	69	3	4	1	target	1	480	760	50142	13.328	13.293	13.363
ProbeTrack10	15	ProbeTrack	10.1	SCS215a	20100217.122605	20100217.123445	8	0.013328	60	10	60-180	60	178	GapExp	0	70	3	0	0	distractor	1	773	614	50756	13.328	13.290	13.367
ProbeTrack10	15	ProbeTrack	10.1	SCS215a	20100217.122605	20100217.123453	8	0.013328	60	10	60-180	60	82	GapExp	0	71	3	75	0	target	0	907	-1000	49756	13.328	13.062	13.594
ProbeTrack10	15	ProbeTrack	10.1	SCS215a	20100217.122605	20100217.123500	8	0.013328	60	10	60-180	60	61	GapExp	0	72	3	0	0	distractor	1	760	620	50376	13.328	13.293	13.363
ProbeTrack10	15	ProbeTrack	10.1	SCS215a	20100217.122605	20100217.123523	8	0.013328	60	10	60-180	60	178	GapExp	0	73	3	0	1	target	1	573	714	51090	13.328	13.020	13.619
ProbeTrack10	15	ProbeTrack	10.1	SCS215a	20100217.122605	20100217.123530	8	0.013328	60	10	60-180	60	138	GapExp	0	74	3	1	0	distractor	1	627	687	51777	13.328	13.293	13.363
ProbeTrack10	15	ProbeTrack	10.1	SCS215a	20100217.122605	20100217.123537	8	0.013328	60	10	60-180	60	128	GapExp	0	75	3	1	1	distractor	0	680	-1000	50777	13.328	13.170	13.501
ProbeTrack10	15	ProbeTrack	10.1	SCS215a	20100217.122605	20100217.123543	8	0.013328	60	10	60-180	60	161	GapExp	0	76	3	1	1	target	1	587	707	51484	13.328	13.293	13.363
ProbeTrack10	15	ProbeTrack	10.1	SCS215a	20100217.122605	20100217.123550	8	0.013328	60	10	60-180	60	174	GapExp	0	77	3	1	1	target	1	533	734	52218	13.328	13.144	13.498
ProbeTrack10	15	ProbeTrack	10.1	SCS215a	20100217.122605	20100217.123557	8	0.013328	60	10	60-180	60	103	GapExp	0	78	3	75	1	target	1	387	807	53025	13.328	13.267	13.373
ProbeTrack10	15	ProbeTrack	10.1	SCS215a	20100217.122605	20100217.123604	8	0.013328	60	10	60-180	60	164	GapExp	0	79	3	4	0	distractor	1	747	627	53652	13.328	13.284	13.372
ProbeTrack10	15	ProbeTrack	10.1	SCS215a	20100217.122605	20100217.123611	8	0.013328	60	10	60-180	60	71	GapExp	0	80	3	75	0	distractor	1	733	634	54286	13.328	13.225	13.431
ProbeTrack10	15	ProbeTrack	10.1	SCS215a	20100217.122605	20100217.123617	8	0.013328	60	10	60-180	60	92	GapExp	0	81	3	2	0	target	0	547	-1000	53286	13.328	13.242	13.448
ProbeTrack10	15	ProbeTrack	10.1	SCS215a	20100217.122605	20100217.123623	8	0.013328	60	10	60-180	60	121	GapExp	0	82	3	0	0	distractor	1	1013	494	53780	13.328	13.290	13.368
ProbeTrack10	15	ProbeTrack	10.1	SCS215a	20100217.122605	20100217.123630	8	0.013328	60	10	60-180	60	162	GapExp	0	83	3	0	0	distractor	1	653	674	54454	13.328	12.886	13.803
ProbeTrack10	15	ProbeTrack	10.1	SCS215a	20100217.122605	20100217.123637	8	0.013328	60	10	60-180	60	128	GapExp	0	84	3	0	0	distractor	1	720	640	55094	13.328	13.233	13.391
ProbeTrack10	15	ProbeTrack	10.1	SCS215a	20100217.122605	20100217.123644	8	0.013328	60	10	60-180	60	89	GapExp	0	85	3	2	0	distractor	1	667	667	55761	13.328	13.293	13.363
ProbeTrack10	15	ProbeTrack	10.1	SCS215a	20100217.122605	20100217.123650	8	0.013328	60	10	60-180	60	85	GapExp	0	86	3	0	1	target	1	853	574	56335	13.328	13.228	13.394
ProbeTrack10	15	ProbeTrack	10.1	SCS215a	20100217.122605	20100217.123656	8	0.013328	60	10	60-180	60	140	GapExp	0	87	3	0	1	target	1	560	720	57055	13.328	13.292	13.363
ProbeTrack10	15	ProbeTrack	10.1	SCS215a	20100217.122605	20100217.123703	8	0.013328	60	10	60-180	60	68	GapExp	0	88	3	2	0	distractor	1	720	640	57695	13.328	13.293	13.363
ProbeTrack10	15	ProbeTrack	10.1	SCS215a	20100217.122605	20100217.123708	8	0.013328	60	10	60-180	60	91	GapExp	0	89	3	4	0	distractor	1	574	713	58408	13.328	13.162	13.510
ProbeTrack10	15	ProbeTrack	10.1	SCS215a	20100217.122605	20100217.123714	8	0.013328	60	10	60-180	60	158	GapExp	0	90	3	75	1	target	1	1187	407	58815	13.328	13.293	13.363
ProbeTrack10	15	ProbeTrack	10.1	SCS215a	20100217.122605	20100217.123723	8	0.013328	60	10	60-180	60	124	GapExp	0	91	3	1	1	target	1	592	704	59519	13.328	13.141	13.548
ProbeTrack10	15	ProbeTrack	10.1	SCS215a	20100217.122605	20100217.123729	8	0.013328	60	10	60-180	60	142	GapExp	0	92	3	1	1	target	1	400	800	60319	13.379	12.830	26.674
ProbeTrack10	15	ProbeTrack	10.1	SCS215a	20100217.122605	20100217.123735	8	0.013328	60	10	60-180	60	123	GapExp	0	93	3	2	0	distractor	1	987	507	60826	13.328	13.155	13.534
ProbeTrack10	15	ProbeTrack	10.1	SCS215a	20100217.122605	20100217.123742	8	0.013328	60	10	60-180	60	118	GapExp	0	94	3	4	1	target	1	387	807	61633	13.328	13.245	13.377
ProbeTrack10	15	ProbeTrack	10.1	SCS215a	20100217.122605	20100217.123748	8	0.013328	60	10	60-180	60	65	GapExp	0	95	3	4	1	target	1	494	753	62386	13.328	13.260	13.364
ProbeTrack10	15	ProbeTrack	10.1	SCS215a	20100217.122605	20100217.123753	8	0.013328	60	10	60-180	60	76	GapExp	0	96	3	1	1	target	1	427	787	63173	13.328	13.293	13.363
ProbeTrack10	15	ProbeTrack	10.1	SCS215a	20100217.122605	20100217.123759	8	0.013328	60	10	60-180	60	141	GapExp	0	97	3	75	0	target	0	427	-1000	62173	13.328	13.293	13.380
ProbeTrack10	15	ProbeTrack	10.1	SCS215a	20100217.122605	20100217.123807	8	0.013328	60	10	60-180	60	134	GapExp	0	98	3	0	1	distractor	0	1093	-1000	61173	13.328	13.243	13.414
ProbeTrack10	15	ProbeTrack	10.1	SCS215a	20100217.122605	20100217.123814	8	0.013328	60	10	60-180	60	136	GapExp	0	99	3	4	0	distractor	1	827	587	61760	13.328	12.981	13.643
ProbeTrack10	15	ProbeTrack	10.1	SCS215a	20100217.122605	20100217.123821	8	0.013328	60	10	60-180	60	116	GapExp	0	100	3	1	1	186	-3	347	-1000	60760	13.328	13.293	13.363
ProbeTrack10	15	ProbeTrack	10.1	SCS215a	20100217.122605	20100217.123852	8	0.013328	60	10	60-180	60	137	GapExp	0	101	3	0	1	target	1	360	820	61580	13.328	13.293	13.363
ProbeTrack10	15	ProbeTrack	10.1	SCS215a	20100217.122605	20100217.123859	8	0.013328	60	10	60-180	60	125	GapExp	0	102	3	0	0	target	0	1040	-1000	60580	13.328	12.945	13.679
ProbeTrack10	15	ProbeTrack	10.1	SCS215a	20100217.122605	20100217.123905	8	0.013328	60	10	60-180	60	95	GapExp	0	103	3	4	0	target	0	613	-1000	59580	13.328	13.191	13.435
ProbeTrack10	15	ProbeTrack	10.1	SCS215a	20100217.122605	20100217.123912	8	0.013328	60	10	60-180	60	119	GapExp	0	104	3	75	1	target	1	520	740	60320	13.328	13.098	13.524
ProbeTrack10	15	ProbeTrack	10.1	SCS215a	20100217.122605	20100217.123919	8	0.013328	60	10	60-180	60	71	GapExp	0	105	3	1	1	target	1	507	747	61067	13.328	13.293	13.363
ProbeTrack10	15	ProbeTrack	10.1	SCS215a	20100217.122605	20100217.123925	8	0.013328	60	10	60-180	60	167	GapExp	0	106	3	75	0	distractor	1	613	694	61761	13.435	13.025	39.920
ProbeTrack10	15	ProbeTrack	10.1	SCS215a	20100217.122605	20100217.123933	8	0.013328	60	10	60-180	60	168	GapExp	0	107	3	2	0	distractor	1	800	600	62361	13.328	13.293	13.363
ProbeTrack10	15	ProbeTrack	10.1	SCS215a	20100217.122605	20100217.123940	8	0.013328	60	10	60-180	60	112	GapExp	0	108	3	75	0	distractor	1	2239	0	62361	13.328	13.278	13.377
ProbeTrack10	15	ProbeTrack	10.1	SCS215a	20100217.122605	20100217.123949	8	0.013328	60	10	60-180	60	167	GapExp	0	109	3	1	0	distractor	1	667	667	63028	13.328	13.190	13.466
ProbeTrack10	15	ProbeTrack	10.1	SCS215a	20100217.122605	20100217.123956	8	0.013328	60	10	60-180	60	146	GapExp	0	110	3	2	1	target	1	1920	40	63068	13.328	13.240	13.417
ProbeTrack10	15	ProbeTrack	10.1	SCS215a	20100217.122605	20100217.124004	8	0.013328	60	10	60-180	60	86	GapExp	0	111	3	2	1	target	1	507	747	63815	13.328	13.217	13.472
ProbeTrack10	15	ProbeTrack	10.1	SCS215a	20100217.122605	20100217.124010	8	0.013328	60	10	60-180	60	115	GapExp	0	112	3	75	1	target	1	853	574	64389	13.328	13.293	13.363
ProbeTrack10	15	ProbeTrack	10.1	SCS215a	20100217.122605	20100217.124017	8	0.013328	60	10	60-180	60	123	GapExp	0	113	3	75	1	distractor	0	1360	-1000	63389	13.328	13.293	13.363
ProbeTrack10	15	ProbeTrack	10.1	SCS215a	20100217.122605	20100217.124026	8	0.013328	60	10	60-180	60	123	GapExp	0	114	3	1	0	target	0	680	-1000	62389	13.328	13.293	13.363
ProbeTrack10	15	ProbeTrack	10.1	SCS215a	20100217.122605	20100217.124032	8	0.013328	60	10	60-180	60	168	GapExp	0	115	3	2	0	distractor	1	813	594	62983	13.370	12.907	26.645
ProbeTrack10	15	ProbeTrack	10.1	SCS215a	20100217.122605	20100217.124039	8	0.013328	60	10	60-180	60	117	GapExp	0	116	3	4	1	target	1	1200	400	63383	13.328	13.293	13.363
ProbeTrack10	15	ProbeTrack	10.1	SCS215a	20100217.122605	20100217.124046	8	0.013328	60	10	60-180	60	113	GapExp	0	117	3	75	1	target	1	1000	500	63883	13.328	13.180	13.509
ProbeTrack10	15	ProbeTrack	10.1	SCS215a	20100217.122605	20100217.124057	8	0.013328	60	10	60-180	60	175	GapExp	0	118	3	1	1	target	1	640	680	64563	13.328	13.293	13.363
ProbeTrack10	15	ProbeTrack	10.1	SCS215a	20100217.122605	20100217.124104	8	0.013328	60	10	60-180	60	136	GapExp	0	119	3	75	0	distractor	1	640	680	65243	13.328	13.109	13.547
ProbeTrack10	15	ProbeTrack	10.1	SCS215a	20100217.122605	20100217.124112	8	0.013328	60	10	60-180	60	155	GapExp	0	120	3	4	0	distractor	1	587	707	65950	13.328	13.036	13.621
ProbeTrack10	15	ProbeTrack	10.1	SCS215a	20100217.122605	20100217.124118	8	0.013328	60	10	60-180	60	68	GapExp	0	121	3	2	0	distractor	1	667	667	66617	13.328	13.293	13.363
ProbeTrack10	15	ProbeTrack	10.1	SCS215a	20100217.122605	20100217.124124	8	0.013328	60	10	60-180	60	68	GapExp	0	122	3	2	1	target	1	587	707	67324	13.328	13.073	13.549
ProbeTrack10	15	ProbeTrack	10.1	SCS215a	20100217.122605	20100217.124130	8	0.013328	60	10	60-180	60	72	GapExp	0	123	3	2	1	target	1	627	687	68011	13.328	13.293	13.363
ProbeTrack10	15	ProbeTrack	10.1	SCS215a	20100217.122605	20100217.124135	8	0.013328	60	10	60-180	60	101	GapExp	0	124	3	2	0	distractor	1	760	620	68631	13.328	13.293	13.363
ProbeTrack10	15	ProbeTrack	10.1	SCS215a	20100217.122605	20100217.124142	8	0.013328	60	10	60-180	60	130	GapExp	0	125	3	4	1	target	1	494	753	69384	13.328	13.293	13.363
ProbeTrack10	15	ProbeTrack	10.1	SCS215a	20100217.122605	20100217.124148	8	0.013328	60	10	60-180	60	63	GapExp	0	126	3	1	0	distractor	1	547	727	70111	13.328	13.293	13.363
ProbeTrack10	15	ProbeTrack	10.1	SCS215a	20100217.122605	20100217.124154	8	0.013328	60	10	60-180	60	106	GapExp	0	127	3	0	1	distractor	0	1520	-1000	69111	13.328	12.951	13.705
ProbeTrack10	15	ProbeTrack	10.1	SCS215a	20100217.122605	20100217.124207	8	0.013328	60	10	60-180	60	123	GapExp	0	128	3	1	0	distractor	1	587	707	69818	13.328	13.293	13.363
ProbeTrack10	15	ProbeTrack	10.1	SCS215a	20100217.122605	20100217.124214	8	0.013328	60	10	60-180	60	152	GapExp	0	129	3	2	0	distractor	1	2080	0	69818	13.328	13.293	13.363
ProbeTrack10	15	ProbeTrack	10.1	SCS215a	20100217.122605	20100217.124223	8	0.013328	60	10	60-180	60	91	GapExp	0	130	3	75	0	target	0	680	-1000	68818	13.328	13.273	13.384
ProbeTrack10	15	ProbeTrack	10.1	SCS215a	20100217.122605	20100217.124230	8	0.013328	60	10	60-180	60	92	GapExp	0	131	3	1	0	distractor	1	1293	354	69172	13.328	12.921	13.734
ProbeTrack10	15	ProbeTrack	10.1	SCS215a	20100217.122605	20100217.124237	8	0.013328	60	10	60-180	60	95	GapExp	0	132	3	0	0	distractor	1	693	654	69826	13.328	13.293	13.363
ProbeTrack10	15	ProbeTrack	10.1	SCS215a	20100217.122605	20100217.124243	8	0.013328	60	10	60-180	60	138	GapExp	0	133	3	4	0	distractor	1	720	640	70466	13.328	13.226	13.428
ProbeTrack10	15	ProbeTrack	10.1	SCS215a	20100217.122605	20100217.124250	8	0.013328	60	10	60-180	60	161	GapExp	0	134	3	0	0	distractor	1	1440	280	70746	13.328	13.293	13.363
ProbeTrack10	15	ProbeTrack	10.1	SCS215a	20100217.122605	20100217.124257	8	0.013328	60	10	60-180	60	100	GapExp	0	135	3	1	0	distractor	1	587	707	71453	13.328	13.271	13.385
ProbeTrack10	15	ProbeTrack	10.1	SCS215a	20100217.122605	20100217.124305	8	0.013328	60	10	60-180	60	179	GapExp	0	136	3	75	1	target	1	494	753	72206	13.328	13.132	13.491
ProbeTrack10	15	ProbeTrack	10.1	SCS215a	20100217.122605	20100217.124313	8	0.013328	60	10	60-180	60	124	GapExp	0	137	3	75	1	target	1	507	747	72953	13.328	13.279	13.363
ProbeTrack10	15	ProbeTrack	10.1	SCS215a	20100217.122605	20100217.124320	8	0.013328	60	10	60-180	60	167	GapExp	0	138	3	1	0	distractor	1	667	667	73620	13.328	13.293	13.363
ProbeTrack10	15	ProbeTrack	10.1	SCS215a	20100217.122605	20100217.124327	8	0.013328	60	10	60-180	60	69	GapExp	0	139	3	0	0	distractor	1	627	687	74307	13.328	13.270	13.402
ProbeTrack10	15	ProbeTrack	10.1	SCS215a	20100217.122605	20100217.124333	8	0.013328	60	10	60-180	60	113	GapExp	0	140	3	1	0	distractor	1	840	580	74887	13.637	12.831	26.991
ProbeTrack10	15	ProbeTrack	10.1	SCS215a	20100217.122605	20100217.124339	8	0.013328	60	10	60-180	60	89	GapExp	0	141	3	0	0	distractor	1	520	740	75627	13.328	13.293	13.364
ProbeTrack10	15	ProbeTrack	10.1	SCS215a	20100217.122605	20100217.124346	8	0.013328	60	10	60-180	60	165	GapExp	0	142	3	75	0	distractor	1	547	727	76354	13.400	13.172	26.465
ProbeTrack10	15	ProbeTrack	10.1	SCS215a	20100217.122605	20100217.124354	8	0.013328	60	10	60-180	60	102	GapExp	0	143	3	75	1	distractor	0	760	-1000	75354	13.328	13.293	13.363
ProbeTrack10	15	ProbeTrack	10.1	SCS215a	20100217.122605	20100217.124401	8	0.013328	60	10	60-180	60	98	GapExp	0	144	3	4	1	target	1	667	667	76021	13.328	13.293	13.363
ProbeTrack10	15	ProbeTrack	10.1	SCS215a	20100217.122605	20100217.124411	8	0.013328	60	10	60-180	60	103	GapExp	0	145	3	4	0	target	0	880	-1000	75021	13.328	13.234	13.422
ProbeTrack10	15	ProbeTrack	10.1	SCS215a	20100217.122605	20100217.124418	8	0.013328	60	10	60-180	60	126	GapExp	0	146	3	75	1	target	1	667	667	75688	13.328	13.147	13.510
ProbeTrack10	15	ProbeTrack	10.1	SCS215a	20100217.122605	20100217.124425	8	0.013328	60	10	60-180	60	97	GapExp	0	147	3	0	1	target	1	587	707	76395	13.328	13.246	13.410
ProbeTrack10	15	ProbeTrack	10.1	SCS215a	20100217.122605	20100217.124434	8	0.013328	60	10	60-180	60	150	GapExp	0	148	3	4	1	target	1	467	767	77162	13.328	13.293	13.363
ProbeTrack10	15	ProbeTrack	10.1	SCS215a	20100217.122605	20100217.124440	8	0.013328	60	10	60-180	60	116	GapExp	0	149	3	4	1	target	1	467	767	77929	13.328	13.293	13.363
ProbeTrack10	15	ProbeTrack	10.1	SCS215a	20100217.122605	20100217.124446	8	0.013328	60	10	60-180	60	84	GapExp	0	150	3	75	0	distractor	1	920	540	78469	13.328	13.293	13.363
ProbeTrack10	15	ProbeTrack	10.1	SCS215a	20100217.122605	20100217.124455	8	0.013328	60	10	60-180	60	125	GapExp	0	151	3	0	0	target	0	573	-1000	77469	13.328	13.293	13.363
ProbeTrack10	15	ProbeTrack	10.1	SCS215a	20100217.122605	20100217.124502	8	0.013328	60	10	60-180	60	127	GapExp	0	152	3	75	1	target	1	1213	394	77863	13.328	13.293	13.363
ProbeTrack10	15	ProbeTrack	10.1	SCS215a	20100217.122605	20100217.124510	8	0.013328	60	10	60-180	60	151	GapExp	0	153	3	75	1	distractor	0	2040	-1000	76863	13.328	13.175	13.514
ProbeTrack10	15	ProbeTrack	10.1	SCS215a	20100217.122605	20100217.124519	8	0.013328	60	10	60-180	60	118	GapExp	0	154	3	75	1	target	1	520	740	77603	13.328	13.265	13.391
ProbeTrack10	15	ProbeTrack	10.1	SCS215a	20100217.122605	20100217.124526	8	0.013328	60	10	60-180	60	85	GapExp	0	155	3	0	0	distractor	1	960	520	78123	13.328	12.985	13.671
ProbeTrack10	15	ProbeTrack	10.1	SCS215a	20100217.122605	20100217.124532	8	0.013328	60	10	60-180	60	62	GapExp	0	156	3	75	1	distractor	0	960	-1000	77123	13.328	13.292	13.363
ProbeTrack10	15	ProbeTrack	10.1	SCS215a	20100217.122605	20100217.124539	8	0.013328	60	10	60-180	60	139	GapExp	0	157	3	75	0	distractor	1	507	747	77870	13.328	13.231	13.426
ProbeTrack10	15	ProbeTrack	10.1	SCS215a	20100217.122605	20100217.124546	8	0.013328	60	10	60-180	60	104	GapExp	0	158	3	4	1	target	1	760	620	78490	13.328	13.191	13.465
ProbeTrack10	15	ProbeTrack	10.1	SCS215a	20100217.122605	20100217.124553	8	0.013328	60	10	60-180	60	111	GapExp	0	159	3	4	1	target	1	813	594	79084	13.328	13.280	13.409
ProbeTrack10	15	ProbeTrack	10.1	SCS215a	20100217.122605	20100217.124559	8	0.013328	60	10	60-180	60	157	GapExp	0	160	3	4	0	distractor	1	680	660	79744	13.328	13.112	13.543
ProbeTrack10	15	ProbeTrack	10.1	SCS215a	20100217.122605	20100217.124606	8	0.013328	60	10	60-180	60	132	GapExp	0	161	3	0	0	distractor	1	1266	367	80111	13.328	12.999	13.658
ProbeTrack10	15	ProbeTrack	10.1	SCS215a	20100217.122605	20100217.124613	8	0.013328	60	10	60-180	60	148	GapExp	0	162	3	4	0	distractor	1	560	720	80831	13.328	13.051	13.604
ProbeTrack10	15	ProbeTrack	10.1	SCS215a	20100217.122605	20100217.124620	8	0.013328	60	10	60-180	60	108	GapExp	0	163	3	4	0	distractor	1	653	674	81505	13.328	13.293	13.363
ProbeTrack10	15	ProbeTrack	10.1	SCS215a	20100217.122605	20100217.124626	8	0.013328	60	10	60-180	60	151	GapExp	0	164	3	0	0	distractor	1	507	747	82252	13.328	13.293	13.363
ProbeTrack10	15	ProbeTrack	10.1	SCS215a	20100217.122605	20100217.124633	8	0.013328	60	10	60-180	60	83	GapExp	0	165	3	2	1	target	1	1053	474	82726	13.328	13.293	13.363
ProbeTrack10	15	ProbeTrack	10.1	SCS215a	20100217.122605	20100217.124639	8	0.013328	60	10	60-180	60	101	GapExp	0	166	3	0	1	target	1	605	698	83424	13.328	13.037	13.652
ProbeTrack10	15	ProbeTrack	10.1	SCS215a	20100217.122605	20100217.124646	8	0.013328	60	10	60-180	60	112	GapExp	0	167	3	2	1	distractor	0	987	-1000	82424	13.534	13.236	39.904
ProbeTrack10	15	ProbeTrack	10.1	SCS215a	20100217.122605	20100217.124653	8	0.013328	60	10	60-180	60	168	GapExp	0	168	3	75	0	distractor	1	480	760	83184	13.328	13.289	13.365
ProbeTrack10	15	ProbeTrack	10.1	SCS215a	20100217.122605	20100217.124701	8	0.013328	60	10	60-180	60	111	GapExp	0	169	3	0	1	target	1	573	714	83898	13.328	13.293	13.363
ProbeTrack10	15	ProbeTrack	10.1	SCS215a	20100217.122605	20100217.124707	8	0.013328	60	10	60-180	60	172	GapExp	0	170	3	75	0	distractor	1	414	793	84691	13.364	13.000	26.635
ProbeTrack10	15	ProbeTrack	10.1	SCS215a	20100217.122605	20100217.124718	8	0.013328	60	10	60-180	60	170	GapExp	0	171	3	2	1	target	1	1213	394	85085	13.370	12.830	27.154
ProbeTrack10	15	ProbeTrack	10.1	SCS215a	20100217.122605	20100217.124726	8	0.013328	60	10	60-180	60	142	GapExp	0	172	3	0	1	target	1	520	740	85825	13.477	12.820	39.571
ProbeTrack10	15	ProbeTrack	10.1	SCS215a	20100217.122605	20100217.124732	8	0.013328	60	10	60-180	60	72	GapExp	0	173	3	4	1	target	1	453	774	86599	13.601	12.863	27.129
ProbeTrack10	15	ProbeTrack	10.1	SCS215a	20100217.122605	20100217.124738	8	0.013328	60	10	60-180	60	158	GapExp	0	174	3	75	0	distractor	1	680	660	87259	13.581	12.828	27.156
ProbeTrack10	15	ProbeTrack	10.1	SCS215a	20100217.122605	20100217.124746	8	0.013328	60	10	60-180	60	69	GapExp	0	175	3	1	1	distractor	0	813	-1000	86259	13.328	13.015	13.635
ProbeTrack10	15	ProbeTrack	10.1	SCS215a	20100217.122605	20100217.124752	8	0.013328	60	10	60-180	60	179	GapExp	0	176	3	2	0	target	0	1147	-1000	85259	13.328	12.989	13.503
ProbeTrack10	15	ProbeTrack	10.1	SCS215a	20100217.122605	20100217.124759	8	0.013328	60	10	60-180	60	74	GapExp	0	177	3	4	1	distractor	0	827	-1000	84259	13.328	13.293	13.363
ProbeTrack10	15	ProbeTrack	10.1	SCS215a	20100217.122605	20100217.124805	8	0.013328	60	10	60-180	60	174	GapExp	0	178	3	4	0	distractor	1	454	773	85032	13.328	13.135	13.521
ProbeTrack10	15	ProbeTrack	10.1	SCS215a	20100217.122605	20100217.124838	8	0.013328	60	10	60-180	60	142	GapExp	0	179	3	75	0	target	0	600	-1000	84032	13.328	13.229	13.394
ProbeTrack10	15	ProbeTrack	10.1	SCS215a	20100217.122605	20100217.124845	8	0.013328	60	10	60-180	60	174	GapExp	0	180	3	75	0	target	0	733	-1000	83032	13.328	12.985	13.704
ProbeTrack10	15	ProbeTrack	10.1	SCS215a	20100217.122605	20100217.124853	8	0.013328	60	10	60-180	60	107	GapExp	0	181	3	2	0	distractor	1	653	674	83706	13.328	13.293	13.363
ProbeTrack10	15	ProbeTrack	10.1	SCS215a	20100217.122605	20100217.124900	8	0.013328	60	10	60-180	60	106	GapExp	0	182	3	4	0	distractor	1	733	634	84340	13.328	13.293	13.363
ProbeTrack10	15	ProbeTrack	10.1	SCS215a	20100217.122605	20100217.124906	8	0.013328	60	10	60-180	60	158	GapExp	0	183	3	2	0	distractor	1	2453	0	84340	13.328	13.214	13.475
ProbeTrack10	15	ProbeTrack	10.1	SCS215a	20100217.122605	20100217.124915	8	0.013328	60	10	60-180	60	63	GapExp	0	184	3	2	1	target	1	534	733	85073	13.397	13.293	26.655
ProbeTrack10	15	ProbeTrack	10.1	SCS215a	20100217.122605	20100217.124921	8	0.013328	60	10	60-180	60	110	GapExp	0	185	3	0	0	target	0	653	-1000	84073	13.328	13.130	13.558
ProbeTrack10	15	ProbeTrack	10.1	SCS215a	20100217.122605	20100217.124928	8	0.013328	60	10	60-180	60	120	GapExp	0	186	3	2	1	target	1	653	674	84747	13.379	12.831	27.100
ProbeTrack10	15	ProbeTrack	10.1	SCS215a	20100217.122605	20100217.124934	8	0.013328	60	10	60-180	60	88	GapExp	0	187	3	0	1	target	1	521	740	85487	13.582	12.963	26.667
ProbeTrack10	15	ProbeTrack	10.1	SCS215a	20100217.122605	20100217.124940	8	0.013328	60	10	60-180	60	152	GapExp	0	188	3	1	0	target	0	600	-1000	84487	13.422	12.828	26.657
ProbeTrack10	15	ProbeTrack	10.1	SCS215a	20100217.122605	20100217.124947	8	0.013328	60	10	60-180	60	80	GapExp	0	189	3	2	1	target	1	1107	447	84934	13.386	13.100	26.679
ProbeTrack10	15	ProbeTrack	10.1	SCS215a	20100217.122605	20100217.124953	8	0.013328	60	10	60-180	60	127	GapExp	0	190	3	2	1	target	1	494	753	85687	13.328	12.934	13.733
ProbeTrack10	15	ProbeTrack	10.1	SCS215a	20100217.122605	20100217.124959	8	0.013328	60	10	60-180	60	93	GapExp	0	191	3	4	1	target	1	440	780	86467	13.328	13.293	13.363
ProbeTrack10	15	ProbeTrack	10.1	SCS215a	20100217.122605	20100217.125005	8	0.013328	60	10	60-180	60	73	GapExp	0	192	3	4	1	target	1	467	767	87234	13.328	13.209	13.454
ProbeTrack10	15	ProbeTrack	10.1	SCS215a	20100217.122605	20100217.125011	8	0.013328	60	10	60-180	60	164	GapExp	0	193	3	1	0	distractor	1	800	600	87834	13.328	13.293	13.363
ProbeTrack10	15	ProbeTrack	10.1	SCS215a	20100217.122605	20100217.125018	8	0.013328	60	10	60-180	60	117	GapExp	0	194	3	4	0	distractor	1	600	700	88534	13.328	13.125	13.531
ProbeTrack10	15	ProbeTrack	10.1	SCS215a	20100217.122605	20100217.125025	8	0.013328	60	10	60-180	60	161	GapExp	0	195	3	0	1	target	1	520	740	89274	13.328	13.245	13.445
ProbeTrack10	15	ProbeTrack	10.1	SCS215a	20100217.122605	20100217.125031	8	0.013328	60	10	60-180	60	128	GapExp	0	196	3	2	1	distractor	0	800	-1000	88274	13.328	13.293	13.363
ProbeTrack10	15	ProbeTrack	10.1	SCS215a	20100217.122605	20100217.125038	8	0.013328	60	10	60-180	60	124	GapExp	0	197	3	75	1	target	1	467	767	89041	13.328	13.117	13.539
ProbeTrack10	15	ProbeTrack	10.1	SCS215a	20100217.122605	20100217.125045	8	0.013328	60	10	60-180	60	109	GapExp	0	198	3	2	1	target	1	507	747	89788	13.328	13.243	13.412
ProbeTrack10	15	ProbeTrack	10.1	SCS215a	20100217.122605	20100217.125051	8	0.013328	60	10	60-180	60	145	GapExp	0	199	3	1	0	target	0	507	-1000	88788	13.328	12.920	13.718
ProbeTrack10	15	ProbeTrack	10.1	SCS215a	20100217.122605	20100217.125058	8	0.013328	60	10	60-180	60	88	GapExp	0	200	3	75	0	target	0	1013	-1000	87788	13.328	13.246	13.444
ProbeTrack10	15	ProbeTrack	10.1	SCS215a	20100217.122605	20100217.125105	8	0.013328	60	10	60-180	60	112	GapExp	0	201	3	1	1	target	1	733	634	88422	13.328	12.953	13.714
ProbeTrack10	15	ProbeTrack	10.1	SCS215a	20100217.122605	20100217.125112	8	0.013328	60	10	60-180	60	108	GapExp	0	202	3	4	1	target	1	720	640	89062	13.328	13.276	13.377
ProbeTrack10	15	ProbeTrack	10.1	SCS215a	20100217.122605	20100217.125118	8	0.013328	60	10	60-180	60	177	GapExp	0	203	3	2	0	distractor	1	600	700	89762	13.328	13.253	13.380
ProbeTrack10	15	ProbeTrack	10.1	SCS215a	20100217.122605	20100217.125125	8	0.013328	60	10	60-180	60	79	GapExp	0	204	3	1	1	target	1	467	767	90529	13.328	13.293	13.363
ProbeTrack10	15	ProbeTrack	10.1	SCS215a	20100217.122605	20100217.125131	8	0.013328	60	10	60-180	60	119	GapExp	0	205	3	2	1	target	1	720	640	91169	13.328	13.150	13.506
ProbeTrack10	15	ProbeTrack	10.1	SCS215a	20100217.122605	20100217.125137	8	0.013328	60	10	60-180	60	77	GapExp	0	206	3	2	1	target	1	547	727	91896	13.328	13.292	13.363
ProbeTrack10	15	ProbeTrack	10.1	SCS215a	20100217.122605	20100217.125144	8	0.013328	60	10	60-180	60	130	GapExp	0	207	3	0	1	target	1	520	740	92636	13.328	13.290	13.363
ProbeTrack10	15	ProbeTrack	10.1	SCS215a	20100217.122605	20100217.125150	8	0.013328	60	10	60-180	60	159	GapExp	0	208	3	75	0	distractor	1	640	680	93316	13.328	13.293	13.363
ProbeTrack10	15	ProbeTrack	10.1	SCS215a	20100217.122605	20100217.125158	8	0.013328	60	10	60-180	60	107	GapExp	0	209	3	75	0	distractor	1	880	560	93876	13.614	12.865	27.080
ProbeTrack10	15	ProbeTrack	10.1	SCS215a	20100217.122605	20100217.125206	8	0.013328	60	10	60-180	60	116	GapExp	0	210	3	2	0	distractor	1	627	687	94563	13.328	13.263	13.395
