exp	sub	code	rev	comp	runtime	trialtime	nstim	refreshdur	cuedur	gapdur	gapOnsetRange	durPostProbe	gapOnsetTime	blocktype	prac	trial	ntargets	soa	probeTarget	resp	acc	rt	pts	tpts	meanFrameDur	minFrameDur	maxFrameDur
ProbeTrack10	9	ProbeTrack	10.1	SCS215a	20090813.131107	20090813.131112	8	0.013328	60	0	60-180	60	149	NoGap	1	1	3	4	0	target	0	4438	-1000	-1000	13.328	13.293	13.363
ProbeTrack10	9	ProbeTrack	10.1	SCS215a	20090813.131107	20090813.131221	8	0.013328	60	0	60-180	60	174	NoGap	1	2	3	0	0	target	0	1173	-1000	-2000	13.328	13.293	13.363
ProbeTrack10	9	ProbeTrack	10.1	SCS215a	20090813.131107	20090813.131238	8	0.013328	60	0	60-180	60	174	NoGap	1	3	3	75	1	distractor	0	1480	-1000	-3000	13.328	13.293	13.363
ProbeTrack10	9	ProbeTrack	10.1	SCS215a	20090813.131107	20090813.131248	8	0.013328	60	0	60-180	60	67	NoGap	1	4	3	0	1	target	1	1333	334	-2666	13.328	13.293	13.364
ProbeTrack10	9	ProbeTrack	10.1	SCS215a	20090813.131107	20090813.131301	8	0.013328	60	0	60-180	60	144	NoGap	1	5	3	75	1	target	1	560	720	-1946	13.328	13.293	13.363
ProbeTrack10	9	ProbeTrack	10.1	SCS215a	20090813.131107	20090813.131322	8	0.013328	60	0	60-180	60	143	NoGap	1	6	3	4	0	distractor	1	1160	420	-1526	13.328	13.293	13.363
ProbeTrack10	9	ProbeTrack	10.1	SCS215a	20090813.131107	20090813.131438	8	0.013328	60	0	60-180	60	66	NoGap	1	7	3	1	1	distractor	0	1173	-1000	-2526	13.328	13.293	13.363
ProbeTrack10	9	ProbeTrack	10.1	SCS215a	20090813.131107	20090813.131445	8	0.013328	60	0	60-180	60	154	NoGap	1	8	3	75	1	target	1	907	547	-1979	13.328	13.293	13.363
ProbeTrack10	9	ProbeTrack	10.1	SCS215a	20090813.131107	20090813.131453	8	0.013328	60	0	60-180	60	155	NoGap	1	9	3	0	0	distractor	1	867	567	-1412	13.328	13.293	13.363
ProbeTrack10	9	ProbeTrack	10.1	SCS215a	20090813.131107	20090813.131501	8	0.013328	60	0	60-180	60	110	NoGap	1	10	3	75	0	distractor	1	960	520	-892	13.328	13.293	13.363
ProbeTrack10	9	ProbeTrack	10.1	SCS215a	20090813.131107	20090813.131508	8	0.013328	60	0	60-180	60	156	NoGap	1	11	3	2	1	target	1	1067	467	-425	13.328	13.293	13.363
ProbeTrack10	9	ProbeTrack	10.1	SCS215a	20090813.131107	20090813.131515	8	0.013328	60	0	60-180	60	93	NoGap	1	12	3	4	1	target	1	827	587	162	13.328	13.293	13.363
ProbeTrack10	9	ProbeTrack	10.1	SCS215a	20090813.131107	20090813.131522	8	0.013328	60	0	60-180	60	125	NoGap	1	13	3	4	0	distractor	1	787	607	769	13.328	13.293	13.363
ProbeTrack10	9	ProbeTrack	10.1	SCS215a	20090813.131107	20090813.131528	8	0.013328	60	0	60-180	60	175	NoGap	1	14	3	4	1	target	1	853	574	1343	13.328	13.293	13.363
ProbeTrack10	9	ProbeTrack	10.1	SCS215a	20090813.131107	20090813.131536	8	0.013328	60	0	60-180	60	161	NoGap	1	15	3	2	1	target	1	800	600	1943	13.328	13.293	13.363
ProbeTrack10	9	ProbeTrack	10.1	SCS215a	20090813.131107	20090813.131543	8	0.013328	60	0	60-180	60	150	NoGap	1	16	3	4	1	target	1	547	727	2670	13.328	13.293	13.363
ProbeTrack10	9	ProbeTrack	10.1	SCS215a	20090813.131107	20090813.131550	8	0.013328	60	0	60-180	60	103	NoGap	1	17	3	0	0	distractor	1	680	660	3330	13.328	13.292	13.363
ProbeTrack10	9	ProbeTrack	10.1	SCS215a	20090813.131107	20090813.131558	8	0.013328	60	0	60-180	60	86	NoGap	1	18	3	1	1	target	1	574	713	4043	13.328	13.293	13.363
ProbeTrack10	9	ProbeTrack	10.1	SCS215a	20090813.131107	20090813.131604	8	0.013328	60	0	60-180	60	174	NoGap	1	19	3	1	0	distractor	1	414	793	4836	13.328	13.293	13.363
ProbeTrack10	9	ProbeTrack	10.1	SCS215a	20090813.131107	20090813.131610	8	0.013328	60	0	60-180	60	144	NoGap	1	20	3	0	1	target	1	440	780	5616	13.328	13.285	13.369
ProbeTrack10	9	ProbeTrack	10.1	SCS215a	20090813.131107	20090813.131617	8	0.013328	60	0	60-180	60	89	NoGap	1	21	3	0	1	target	1	400	800	6416	13.328	13.293	13.363
ProbeTrack10	9	ProbeTrack	10.1	SCS215a	20090813.131107	20090813.131622	8	0.013328	60	0	60-180	60	152	NoGap	1	22	3	4	0	target	0	387	-1000	5416	13.328	13.293	13.363
ProbeTrack10	9	ProbeTrack	10.1	SCS215a	20090813.131107	20090813.131629	8	0.013328	60	0	60-180	60	62	NoGap	1	23	3	2	1	target	1	574	713	6129	13.328	13.293	13.363
ProbeTrack10	9	ProbeTrack	10.1	SCS215a	20090813.131107	20090813.131636	8	0.013328	60	0	60-180	60	147	NoGap	1	24	3	2	1	target	1	560	720	6849	13.328	13.293	13.363
ProbeTrack10	9	ProbeTrack	10.1	SCS215a	20090813.131107	20090813.131642	8	0.013328	60	0	60-180	60	75	NoGap	1	25	3	1	0	distractor	1	494	753	7602	13.328	13.293	13.363
ProbeTrack10	9	ProbeTrack	10.1	SCS215a	20090813.131107	20090813.131648	8	0.013328	60	0	60-180	60	139	NoGap	1	26	3	1	1	target	1	654	673	8275	13.328	13.293	13.362
ProbeTrack10	9	ProbeTrack	10.1	SCS215a	20090813.131107	20090813.131654	8	0.013328	60	0	60-180	60	113	NoGap	1	27	3	0	1	target	1	400	800	9075	13.328	13.293	13.363
ProbeTrack10	9	ProbeTrack	10.1	SCS215a	20090813.131107	20090813.131700	8	0.013328	60	0	60-180	60	93	NoGap	1	28	3	75	0	distractor	1	480	760	9835	13.328	13.293	13.363
ProbeTrack10	9	ProbeTrack	10.1	SCS215a	20090813.131107	20090813.131706	8	0.013328	60	0	60-180	60	119	NoGap	1	29	3	1	1	target	1	467	767	10602	13.328	13.285	13.370
ProbeTrack10	9	ProbeTrack	10.1	SCS215a	20090813.131107	20090813.131712	8	0.013328	60	0	60-180	60	85	NoGap	1	30	3	2	0	distractor	1	574	713	11315	13.328	13.293	13.363
ProbeTrack10	9	ProbeTrack	10.1	SCS215a	20090813.131107	20090813.131717	8	0.013328	60	0	60-180	60	160	NoGap	1	31	3	2	0	32	-3	507	-1000	10315	13.328	13.293	13.363
ProbeTrack10	9	ProbeTrack	10.1	SCS215a	20090813.131107	20090813.131724	8	0.013328	60	0	60-180	60	153	NoGap	1	32	3	75	0	distractor	1	507	747	11062	13.328	13.293	13.363
ProbeTrack10	9	ProbeTrack	10.1	SCS215a	20090813.131107	20090813.131732	8	0.013328	60	0	60-180	60	179	NoGap	1	33	3	1	0	distractor	1	547	727	11789	13.328	13.293	13.363
ProbeTrack10	9	ProbeTrack	10.1	SCS215a	20090813.131107	20090813.131738	8	0.013328	60	0	60-180	60	77	NoGap	1	34	3	75	1	target	1	427	787	12576	13.328	13.293	13.363
ProbeTrack10	9	ProbeTrack	10.1	SCS215a	20090813.131107	20090813.131745	8	0.013328	60	0	60-180	60	64	NoGap	1	35	3	75	0	distractor	1	640	680	13256	13.328	13.292	13.364
ProbeTrack10	9	ProbeTrack	10.1	SCS215a	20090813.131107	20090813.131751	8	0.013328	60	0	60-180	60	161	NoGap	1	36	3	2	0	distractor	1	547	727	13983	13.328	13.293	13.363
ProbeTrack10	9	ProbeTrack	10.1	SCS215a	20090813.131107	20090813.131758	8	0.013328	60	0	60-180	60	106	NoGap	1	37	3	2	0	distractor	1	627	687	14670	13.328	13.293	13.366
ProbeTrack10	9	ProbeTrack	10.1	SCS215a	20090813.131107	20090813.131804	8	0.013328	60	0	60-180	60	80	NoGap	1	38	3	4	1	target	1	627	687	15357	13.328	13.293	13.363
ProbeTrack10	9	ProbeTrack	10.1	SCS215a	20090813.131107	20090813.131810	8	0.013328	60	0	60-180	60	140	NoGap	1	39	3	1	0	distractor	1	520	740	16097	13.328	13.293	13.363
ProbeTrack10	9	ProbeTrack	10.1	SCS215a	20090813.131107	20090813.131816	8	0.013328	60	0	60-180	60	143	NoGap	1	40	3	0	0	distractor	1	547	727	16824	13.328	13.293	13.363
ProbeTrack10	9	ProbeTrack	10.1	SCS215a	20090813.131849	20090813.131914	8	0.013328	60	10	60-180	60	61	GapPrac	1	1	3	4	1	target	1	747	627	17451	13.328	13.293	13.363
ProbeTrack10	9	ProbeTrack	10.1	SCS215a	20090813.131849	20090813.131921	8	0.013328	60	10	60-180	60	162	GapPrac	1	2	3	75	0	target	0	1986	-1000	16451	13.328	13.293	13.367
ProbeTrack10	9	ProbeTrack	10.1	SCS215a	20090813.131849	20090813.131939	8	0.013328	60	10	60-180	60	173	GapPrac	1	3	3	0	0	distractor	1	1280	360	16811	13.328	13.290	13.366
ProbeTrack10	9	ProbeTrack	10.1	SCS215a	20090813.131849	20090813.131947	8	0.013328	60	10	60-180	60	102	GapPrac	1	4	3	1	1	target	1	1373	314	17125	13.328	13.293	13.363
ProbeTrack10	9	ProbeTrack	10.1	SCS215a	20090813.131849	20090813.131954	8	0.013328	60	10	60-180	60	98	GapPrac	1	5	3	2	1	target	1	867	567	17692	13.328	13.293	13.363
ProbeTrack10	9	ProbeTrack	10.1	SCS215a	20090813.131849	20090813.132001	8	0.013328	60	10	60-180	60	66	GapPrac	1	6	3	0	0	target	0	1280	-1000	16692	13.328	13.293	13.363
ProbeTrack10	9	ProbeTrack	10.1	SCS215a	20090813.131849	20090813.132007	8	0.013328	60	10	60-180	60	95	GapPrac	1	7	3	75	0	target	0	707	-1000	15692	13.328	13.290	13.363
ProbeTrack10	9	ProbeTrack	10.1	SCS215a	20090813.131849	20090813.132013	8	0.013328	60	10	60-180	60	149	GapPrac	1	8	3	0	1	target	1	720	640	16332	13.328	13.293	13.363
ProbeTrack10	9	ProbeTrack	10.1	SCS215a	20090813.131849	20090813.132020	8	0.013328	60	10	60-180	60	111	GapPrac	1	9	3	0	1	distractor	0	973	-1000	15332	13.328	13.293	13.363
ProbeTrack10	9	ProbeTrack	10.1	SCS215a	20090813.131849	20090813.132027	8	0.013328	60	10	60-180	60	78	GapPrac	1	10	3	4	0	target	0	1067	-1000	14332	13.328	13.293	13.363
ProbeTrack10	9	ProbeTrack	10.1	SCS215a	20090813.131849	20090813.132033	8	0.013328	60	10	60-180	60	140	GapPrac	1	11	3	4	1	target	1	587	707	15039	13.328	13.293	13.366
ProbeTrack10	9	ProbeTrack	10.1	SCS215a	20090813.131849	20090813.132040	8	0.013328	60	10	60-180	60	124	GapPrac	1	12	3	1	0	distractor	1	480	760	15799	13.328	13.293	13.363
ProbeTrack10	9	ProbeTrack	10.1	SCS215a	20090813.131849	20090813.132046	8	0.013328	60	10	60-180	60	166	GapPrac	1	13	3	75	1	target	1	707	647	16446	13.328	13.293	13.363
ProbeTrack10	9	ProbeTrack	10.1	SCS215a	20090813.131849	20090813.132054	8	0.013328	60	10	60-180	60	113	GapPrac	1	14	3	2	0	target	0	747	-1000	15446	13.328	13.293	13.363
ProbeTrack10	9	ProbeTrack	10.1	SCS215a	20090813.131849	20090813.132100	8	0.013328	60	10	60-180	60	93	GapPrac	1	15	3	1	0	target	0	640	-1000	14446	13.328	13.293	13.363
ProbeTrack10	9	ProbeTrack	10.1	SCS215a	20090813.131849	20090813.132106	8	0.013328	60	10	60-180	60	173	GapPrac	1	16	3	75	1	target	1	520	740	15186	13.328	13.293	13.363
ProbeTrack10	9	ProbeTrack	10.1	SCS215a	20090813.131849	20090813.132114	8	0.013328	60	10	60-180	60	86	GapPrac	1	17	3	4	0	distractor	1	960	520	15706	13.328	13.289	13.363
ProbeTrack10	9	ProbeTrack	10.1	SCS215a	20090813.131849	20090813.132120	8	0.013328	60	10	60-180	60	102	GapPrac	1	18	3	2	1	target	1	667	667	16373	13.328	13.293	13.363
ProbeTrack10	9	ProbeTrack	10.1	SCS215a	20090813.131849	20090813.132126	8	0.013328	60	10	60-180	60	123	GapPrac	1	19	3	2	0	distractor	1	920	540	16913	13.328	13.293	13.363
ProbeTrack10	9	ProbeTrack	10.1	SCS215a	20090813.131849	20090813.132133	8	0.013328	60	10	60-180	60	154	GapPrac	1	20	3	1	1	distractor	0	1013	-1000	15913	13.328	13.293	13.367
ProbeTrack10	9	ProbeTrack	10.1	SCS215a	20090813.132203	20090813.132217	8	0.013328	60	10	60-180	60	139	GapPrac	1	1	3	4	0	distractor	1	587	707	16620	13.328	13.293	13.363
ProbeTrack10	9	ProbeTrack	10.1	SCS215a	20090813.132203	20090813.132224	8	0.013328	60	10	60-180	60	102	GapPrac	1	2	3	4	1	target	1	720	640	17260	13.328	13.292	13.363
ProbeTrack10	9	ProbeTrack	10.1	SCS215a	20090813.132203	20090813.132232	8	0.013328	60	10	60-180	60	153	GapPrac	1	3	3	2	0	distractor	1	773	614	17874	13.328	13.289	13.366
ProbeTrack10	9	ProbeTrack	10.1	SCS215a	20090813.132203	20090813.132240	8	0.013328	60	10	60-180	60	152	GapPrac	1	4	3	2	0	distractor	1	507	747	18621	13.328	13.293	13.363
ProbeTrack10	9	ProbeTrack	10.1	SCS215a	20090813.132203	20090813.132246	8	0.013328	60	10	60-180	60	153	GapPrac	1	5	3	75	0	distractor	1	1013	494	19115	13.328	13.293	13.367
ProbeTrack10	9	ProbeTrack	10.1	SCS215a	20090813.132203	20090813.132254	8	0.013328	60	10	60-180	60	62	GapPrac	1	6	3	75	1	target	1	627	687	19802	13.328	13.293	13.362
ProbeTrack10	9	ProbeTrack	10.1	SCS215a	20090813.132203	20090813.132301	8	0.013328	60	10	60-180	60	141	GapPrac	1	7	3	0	1	target	1	560	720	20522	13.328	13.293	13.363
ProbeTrack10	9	ProbeTrack	10.1	SCS215a	20090813.132203	20090813.132307	8	0.013328	60	10	60-180	60	177	GapPrac	1	8	3	2	1	target	1	640	680	21202	13.328	13.293	13.368
ProbeTrack10	9	ProbeTrack	10.1	SCS215a	20090813.132203	20090813.132314	8	0.013328	60	10	60-180	60	140	GapPrac	1	9	3	1	1	target	1	573	714	21916	13.328	13.293	13.363
ProbeTrack10	9	ProbeTrack	10.1	SCS215a	20090813.132203	20090813.132320	8	0.013328	60	10	60-180	60	85	GapPrac	1	10	3	0	1	target	1	547	727	22643	13.328	13.293	13.363
ProbeTrack10	9	ProbeTrack	10.1	SCS215a	20090813.132203	20090813.132327	8	0.013328	60	10	60-180	60	86	GapPrac	1	11	3	4	0	distractor	1	560	720	23363	13.328	13.293	13.363
ProbeTrack10	9	ProbeTrack	10.1	SCS215a	20090813.132203	20090813.132333	8	0.013328	60	10	60-180	60	139	GapPrac	1	12	3	0	0	distractor	1	960	520	23883	13.328	13.293	13.363
ProbeTrack10	9	ProbeTrack	10.1	SCS215a	20090813.132203	20090813.132340	8	0.013328	60	10	60-180	60	79	GapPrac	1	13	3	75	1	target	1	427	787	24670	13.328	13.290	13.366
ProbeTrack10	9	ProbeTrack	10.1	SCS215a	20090813.132203	20090813.132346	8	0.013328	60	10	60-180	60	77	GapPrac	1	14	3	1	1	target	1	574	713	25383	13.328	13.293	13.363
ProbeTrack10	9	ProbeTrack	10.1	SCS215a	20090813.132203	20090813.132352	8	0.013328	60	10	60-180	60	113	GapPrac	1	15	3	2	1	target	1	614	693	26076	13.328	13.293	13.363
ProbeTrack10	9	ProbeTrack	10.1	SCS215a	20090813.132203	20090813.132358	8	0.013328	60	10	60-180	60	101	GapPrac	1	16	3	1	0	distractor	1	1200	400	26476	13.328	13.293	13.363
ProbeTrack10	9	ProbeTrack	10.1	SCS215a	20090813.132203	20090813.132405	8	0.013328	60	10	60-180	60	145	GapPrac	1	17	3	75	0	distractor	1	853	574	27050	13.328	13.293	13.363
ProbeTrack10	9	ProbeTrack	10.1	SCS215a	20090813.132203	20090813.132412	8	0.013328	60	10	60-180	60	75	GapPrac	1	18	3	0	0	distractor	1	1067	467	27517	13.328	13.293	13.363
ProbeTrack10	9	ProbeTrack	10.1	SCS215a	20090813.132203	20090813.132418	8	0.013328	60	10	60-180	60	117	GapPrac	1	19	3	4	1	target	1	667	667	28184	13.328	13.293	13.363
ProbeTrack10	9	ProbeTrack	10.1	SCS215a	20090813.132203	20090813.132424	8	0.013328	60	10	60-180	60	92	GapPrac	1	20	3	1	0	target	0	760	-1000	27184	13.328	13.291	13.363
ProbeTrack10	9	ProbeTrack	10.1	SCS215a	20090813.132456	20090813.132532	8	0.013328	60	10	60-180	60	102	GapExp	1	1	3	4	1	target	1	760	620	27804	13.328	13.293	13.366
ProbeTrack10	9	ProbeTrack	10.1	SCS215a	20090813.132456	20090813.132540	8	0.013328	60	10	60-180	60	176	GapExp	1	2	3	4	0	distractor	1	587	707	28511	13.328	13.293	13.363
ProbeTrack10	9	ProbeTrack	10.1	SCS215a	20090813.132456	20090813.132547	8	0.013328	60	10	60-180	60	67	GapExp	1	3	3	1	1	target	1	534	733	29244	13.328	13.293	13.363
ProbeTrack10	9	ProbeTrack	10.1	SCS215a	20090813.132456	20090813.132552	8	0.013328	60	10	60-180	60	82	GapExp	1	4	3	1	0	distractor	1	840	580	29824	13.328	13.293	13.363
ProbeTrack10	9	ProbeTrack	10.1	SCS215a	20090813.132456	20090813.132558	8	0.013328	60	10	60-180	60	168	GapExp	1	5	3	75	1	target	1	653	674	30498	13.328	13.293	13.363
ProbeTrack10	9	ProbeTrack	10.1	SCS215a	20090813.132456	20090813.132606	8	0.013328	60	10	60-180	60	153	GapExp	1	6	3	2	1	target	1	893	554	31052	13.328	13.289	13.363
ProbeTrack10	9	ProbeTrack	10.1	SCS215a	20090813.132456	20090813.132612	8	0.013328	60	10	60-180	60	109	GapExp	1	7	3	0	1	target	1	480	760	31812	13.328	13.293	13.363
ProbeTrack10	9	ProbeTrack	10.1	SCS215a	20090813.132456	20090813.132618	8	0.013328	60	10	60-180	60	91	GapExp	1	8	3	2	0	distractor	1	667	667	32479	13.328	13.293	13.363
ProbeTrack10	9	ProbeTrack	10.1	SCS215a	20090813.132456	20090813.132624	8	0.013328	60	10	60-180	60	65	GapExp	1	9	3	75	0	distractor	1	680	660	33139	13.328	13.293	13.363
ProbeTrack10	9	ProbeTrack	10.1	SCS215a	20090813.132456	20090813.132631	8	0.013328	60	10	60-180	60	140	GapExp	1	10	3	0	0	distractor	1	1466	267	33406	13.328	13.293	13.363
ProbeTrack10	9	ProbeTrack	10.1	SCS215a	20090813.132456	20090813.132638	8	0.013328	60	10	60-180	60	71	GapExp	0	11	3	0	0	distractor	1	840	580	33986	13.328	13.293	13.363
ProbeTrack10	9	ProbeTrack	10.1	SCS215a	20090813.132456	20090813.132644	8	0.013328	60	10	60-180	60	123	GapExp	0	12	3	75	0	distractor	1	893	554	34540	13.328	13.293	13.363
ProbeTrack10	9	ProbeTrack	10.1	SCS215a	20090813.132456	20090813.132652	8	0.013328	60	10	60-180	60	180	GapExp	0	13	3	1	0	distractor	1	613	694	35234	13.328	13.289	13.363
ProbeTrack10	9	ProbeTrack	10.1	SCS215a	20090813.132456	20090813.132659	8	0.013328	60	10	60-180	60	156	GapExp	0	14	3	0	1	target	1	787	607	35841	13.328	13.291	13.365
ProbeTrack10	9	ProbeTrack	10.1	SCS215a	20090813.132456	20090813.132705	8	0.013328	60	10	60-180	60	65	GapExp	0	15	3	2	1	target	1	547	727	36568	13.328	13.293	13.362
ProbeTrack10	9	ProbeTrack	10.1	SCS215a	20090813.132456	20090813.132711	8	0.013328	60	10	60-180	60	175	GapExp	0	16	3	0	0	distractor	1	1413	294	36862	13.328	13.293	13.363
ProbeTrack10	9	ProbeTrack	10.1	SCS215a	20090813.132456	20090813.132719	8	0.013328	60	10	60-180	60	168	GapExp	0	17	3	2	1	target	1	547	727	37589	13.328	13.293	13.363
ProbeTrack10	9	ProbeTrack	10.1	SCS215a	20090813.132456	20090813.132725	8	0.013328	60	10	60-180	60	137	GapExp	0	18	3	2	0	distractor	1	707	647	38236	13.328	13.293	13.363
ProbeTrack10	9	ProbeTrack	10.1	SCS215a	20090813.132456	20090813.132732	8	0.013328	60	10	60-180	60	125	GapExp	0	19	3	75	0	distractor	1	387	807	39043	13.328	13.293	13.363
ProbeTrack10	9	ProbeTrack	10.1	SCS215a	20090813.132456	20090813.132739	8	0.013328	60	10	60-180	60	102	GapExp	0	20	3	4	0	distractor	1	920	540	39583	13.328	13.293	13.363
ProbeTrack10	9	ProbeTrack	10.1	SCS215a	20090813.132456	20090813.132745	8	0.013328	60	10	60-180	60	160	GapExp	0	21	3	1	1	target	1	600	700	40283	13.328	13.293	13.363
ProbeTrack10	9	ProbeTrack	10.1	SCS215a	20090813.132456	20090813.132752	8	0.013328	60	10	60-180	60	101	GapExp	0	22	3	4	0	distractor	1	693	654	40937	13.328	13.293	13.363
ProbeTrack10	9	ProbeTrack	10.1	SCS215a	20090813.132456	20090813.132758	8	0.013328	60	10	60-180	60	159	GapExp	0	23	3	75	1	distractor	0	347	-1000	39937	13.328	13.293	13.363
ProbeTrack10	9	ProbeTrack	10.1	SCS215a	20090813.132456	20090813.132806	8	0.013328	60	10	60-180	60	136	GapExp	0	24	3	4	1	target	1	534	733	40670	13.328	13.293	13.366
ProbeTrack10	9	ProbeTrack	10.1	SCS215a	20090813.132456	20090813.132813	8	0.013328	60	10	60-180	60	83	GapExp	0	25	3	1	0	distractor	1	667	667	41337	13.328	13.293	13.362
ProbeTrack10	9	ProbeTrack	10.1	SCS215a	20090813.132456	20090813.132819	8	0.013328	60	10	60-180	60	131	GapExp	0	26	3	4	1	target	1	560	720	42057	13.328	13.293	13.363
ProbeTrack10	9	ProbeTrack	10.1	SCS215a	20090813.132456	20090813.132825	8	0.013328	60	10	60-180	60	94	GapExp	0	27	3	75	0	distractor	1	600	700	42757	13.328	13.292	13.363
ProbeTrack10	9	ProbeTrack	10.1	SCS215a	20090813.132456	20090813.132832	8	0.013328	60	10	60-180	60	177	GapExp	0	28	3	0	1	target	1	880	560	43317	13.328	13.293	13.363
ProbeTrack10	9	ProbeTrack	10.1	SCS215a	20090813.132456	20090813.132839	8	0.013328	60	10	60-180	60	170	GapExp	0	29	3	1	0	target	0	840	-1000	42317	13.328	13.293	13.366
ProbeTrack10	9	ProbeTrack	10.1	SCS215a	20090813.132456	20090813.132846	8	0.013328	60	10	60-180	60	91	GapExp	0	30	3	75	0	distractor	1	600	700	43017	13.328	13.289	13.367
ProbeTrack10	9	ProbeTrack	10.1	SCS215a	20090813.132456	20090813.132854	8	0.013328	60	10	60-180	60	169	GapExp	0	31	3	1	0	target	0	867	-1000	42017	13.328	13.293	13.363
ProbeTrack10	9	ProbeTrack	10.1	SCS215a	20090813.132456	20090813.132901	8	0.013328	60	10	60-180	60	152	GapExp	0	32	3	0	1	target	1	614	693	42710	13.328	13.293	13.363
ProbeTrack10	9	ProbeTrack	10.1	SCS215a	20090813.132456	20090813.132908	8	0.013328	60	10	60-180	60	120	GapExp	0	33	3	2	1	target	1	507	747	43457	13.328	13.293	13.363
ProbeTrack10	9	ProbeTrack	10.1	SCS215a	20090813.132456	20090813.132914	8	0.013328	60	10	60-180	60	172	GapExp	0	34	3	2	1	target	1	560	720	44177	13.328	13.290	13.366
ProbeTrack10	9	ProbeTrack	10.1	SCS215a	20090813.132456	20090813.132921	8	0.013328	60	10	60-180	60	86	GapExp	0	35	3	0	1	target	1	534	733	44910	13.328	13.293	13.363
ProbeTrack10	9	ProbeTrack	10.1	SCS215a	20090813.132456	20090813.132926	8	0.013328	60	10	60-180	60	121	GapExp	0	36	3	2	0	target	0	520	-1000	43910	13.328	13.293	13.363
ProbeTrack10	9	ProbeTrack	10.1	SCS215a	20090813.132456	20090813.132933	8	0.013328	60	10	60-180	60	124	GapExp	0	37	3	4	0	distractor	1	827	587	44497	13.328	13.293	13.363
ProbeTrack10	9	ProbeTrack	10.1	SCS215a	20090813.132456	20090813.132939	8	0.013328	60	10	60-180	60	155	GapExp	0	38	3	2	0	distractor	1	720	640	45137	13.328	13.289	13.367
ProbeTrack10	9	ProbeTrack	10.1	SCS215a	20090813.132456	20090813.132946	8	0.013328	60	10	60-180	60	61	GapExp	0	39	3	75	0	distractor	1	560	720	45857	13.328	13.293	13.363
ProbeTrack10	9	ProbeTrack	10.1	SCS215a	20090813.132456	20090813.132953	8	0.013328	60	10	60-180	60	176	GapExp	0	40	3	75	0	distractor	1	694	653	46510	13.328	13.293	13.363
ProbeTrack10	9	ProbeTrack	10.1	SCS215a	20090813.132456	20090813.133002	8	0.013328	60	10	60-180	60	129	GapExp	0	41	3	1	0	target	0	640	-1000	45510	13.328	13.292	13.363
ProbeTrack10	9	ProbeTrack	10.1	SCS215a	20090813.132456	20090813.133008	8	0.013328	60	10	60-180	60	138	GapExp	0	42	3	2	0	distractor	1	707	647	46157	13.328	13.293	13.363
ProbeTrack10	9	ProbeTrack	10.1	SCS215a	20090813.132456	20090813.133015	8	0.013328	60	10	60-180	60	115	GapExp	0	43	3	1	1	target	1	667	667	46824	13.328	13.283	13.372
ProbeTrack10	9	ProbeTrack	10.1	SCS215a	20090813.132456	20090813.133021	8	0.013328	60	10	60-180	60	151	GapExp	0	44	3	4	1	distractor	0	867	-1000	45824	13.328	13.293	13.363
ProbeTrack10	9	ProbeTrack	10.1	SCS215a	20090813.132456	20090813.133028	8	0.013328	60	10	60-180	60	135	GapExp	0	45	3	75	1	distractor	0	693	-1000	44824	13.328	13.293	13.363
ProbeTrack10	9	ProbeTrack	10.1	SCS215a	20090813.132456	20090813.133036	8	0.013328	60	10	60-180	60	132	GapExp	0	46	3	75	0	distractor	1	667	667	45491	13.328	13.289	13.363
ProbeTrack10	9	ProbeTrack	10.1	SCS215a	20090813.132456	20090813.133044	8	0.013328	60	10	60-180	60	96	GapExp	0	47	3	75	1	target	1	507	747	46238	13.328	13.291	13.363
ProbeTrack10	9	ProbeTrack	10.1	SCS215a	20090813.132456	20090813.133051	8	0.013328	60	10	60-180	60	103	GapExp	0	48	3	0	1	target	1	547	727	46965	13.328	13.293	13.363
ProbeTrack10	9	ProbeTrack	10.1	SCS215a	20090813.132456	20090813.133058	8	0.013328	60	10	60-180	60	140	GapExp	0	49	3	2	0	distractor	1	520	740	47705	13.328	13.293	13.363
ProbeTrack10	9	ProbeTrack	10.1	SCS215a	20090813.132456	20090813.133104	8	0.013328	60	10	60-180	60	174	GapExp	0	50	3	2	0	distractor	1	893	554	48259	13.328	13.293	13.363
ProbeTrack10	9	ProbeTrack	10.1	SCS215a	20090813.132456	20090813.133112	8	0.013328	60	10	60-180	60	121	GapExp	0	51	3	75	0	distractor	1	627	687	48946	13.328	13.293	13.363
ProbeTrack10	9	ProbeTrack	10.1	SCS215a	20090813.132456	20090813.133119	8	0.013328	60	10	60-180	60	156	GapExp	0	52	3	75	1	distractor	0	680	-1000	47946	13.328	13.293	13.363
ProbeTrack10	9	ProbeTrack	10.1	SCS215a	20090813.132456	20090813.133126	8	0.013328	60	10	60-180	60	180	GapExp	0	53	3	0	1	target	1	720	640	48586	13.328	13.293	13.363
ProbeTrack10	9	ProbeTrack	10.1	SCS215a	20090813.132456	20090813.133133	8	0.013328	60	10	60-180	60	124	GapExp	0	54	3	0	1	target	1	734	633	49219	13.328	13.293	13.363
ProbeTrack10	9	ProbeTrack	10.1	SCS215a	20090813.132456	20090813.133140	8	0.013328	60	10	60-180	60	119	GapExp	0	55	3	2	0	distractor	1	613	694	49913	13.328	13.293	13.363
ProbeTrack10	9	ProbeTrack	10.1	SCS215a	20090813.132456	20090813.133146	8	0.013328	60	10	60-180	60	161	GapExp	0	56	3	1	1	target	1	800	600	50513	13.328	13.293	13.363
ProbeTrack10	9	ProbeTrack	10.1	SCS215a	20090813.132456	20090813.133153	8	0.013328	60	10	60-180	60	122	GapExp	0	57	3	2	0	target	0	494	-1000	49513	13.328	13.293	13.363
ProbeTrack10	9	ProbeTrack	10.1	SCS215a	20090813.132456	20090813.133159	8	0.013328	60	10	60-180	60	141	GapExp	0	58	3	0	0	distractor	1	733	634	50147	13.328	13.293	13.363
ProbeTrack10	9	ProbeTrack	10.1	SCS215a	20090813.132456	20090813.133206	8	0.013328	60	10	60-180	60	137	GapExp	0	59	3	0	0	target	0	560	-1000	49147	13.328	13.293	13.363
ProbeTrack10	9	ProbeTrack	10.1	SCS215a	20090813.132456	20090813.133212	8	0.013328	60	10	60-180	60	139	GapExp	0	60	3	0	0	distractor	1	1027	487	49634	13.328	13.293	13.363
ProbeTrack10	9	ProbeTrack	10.1	SCS215a	20090813.132456	20090813.133219	8	0.013328	60	10	60-180	60	138	GapExp	0	61	3	4	0	distractor	1	800	600	50234	13.328	13.293	13.363
ProbeTrack10	9	ProbeTrack	10.1	SCS215a	20090813.132456	20090813.133226	8	0.013328	60	10	60-180	60	170	GapExp	0	62	3	1	1	target	1	600	700	50934	13.328	13.293	13.363
ProbeTrack10	9	ProbeTrack	10.1	SCS215a	20090813.132456	20090813.133232	8	0.013328	60	10	60-180	60	137	GapExp	0	63	3	0	1	distractor	0	867	-1000	49934	13.328	13.288	13.363
ProbeTrack10	9	ProbeTrack	10.1	SCS215a	20090813.132456	20090813.133239	8	0.013328	60	10	60-180	60	87	GapExp	0	64	3	2	1	target	1	494	753	50687	13.328	13.293	13.363
ProbeTrack10	9	ProbeTrack	10.1	SCS215a	20090813.132456	20090813.133245	8	0.013328	60	10	60-180	60	99	GapExp	0	65	3	4	0	target	0	480	-1000	49687	13.328	13.293	13.363
ProbeTrack10	9	ProbeTrack	10.1	SCS215a	20090813.132456	20090813.133251	8	0.013328	60	10	60-180	60	64	GapExp	0	66	3	4	0	distractor	1	600	700	50387	13.328	13.293	13.363
ProbeTrack10	9	ProbeTrack	10.1	SCS215a	20090813.132456	20090813.133257	8	0.013328	60	10	60-180	60	111	GapExp	0	67	3	4	1	target	1	494	753	51140	13.328	13.293	13.363
ProbeTrack10	9	ProbeTrack	10.1	SCS215a	20090813.132456	20090813.133303	8	0.013328	60	10	60-180	60	140	GapExp	0	68	3	1	1	target	1	574	713	51853	13.328	13.293	13.362
ProbeTrack10	9	ProbeTrack	10.1	SCS215a	20090813.132456	20090813.133309	8	0.013328	60	10	60-180	60	139	GapExp	0	69	3	2	1	target	1	574	713	52566	13.328	13.293	13.363
ProbeTrack10	9	ProbeTrack	10.1	SCS215a	20090813.132456	20090813.133315	8	0.013328	60	10	60-180	60	66	GapExp	0	70	3	1	1	distractor	0	773	-1000	51566	13.328	13.293	13.363
ProbeTrack10	9	ProbeTrack	10.1	SCS215a	20090813.132456	20090813.133321	8	0.013328	60	10	60-180	60	112	GapExp	0	71	3	0	1	target	1	467	767	52333	13.328	13.293	13.363
ProbeTrack10	9	ProbeTrack	10.1	SCS215a	20090813.132456	20090813.133327	8	0.013328	60	10	60-180	60	81	GapExp	0	72	3	75	0	distractor	1	600	700	53033	13.328	13.293	13.363
ProbeTrack10	9	ProbeTrack	10.1	SCS215a	20090813.132456	20090813.133333	8	0.013328	60	10	60-180	60	173	GapExp	0	73	3	0	0	distractor	1	707	647	53680	13.328	13.293	13.363
ProbeTrack10	9	ProbeTrack	10.1	SCS215a	20090813.132456	20090813.133340	8	0.013328	60	10	60-180	60	78	GapExp	0	74	3	2	1	target	1	560	720	54400	13.328	13.293	13.363
ProbeTrack10	9	ProbeTrack	10.1	SCS215a	20090813.132456	20090813.133346	8	0.013328	60	10	60-180	60	171	GapExp	0	75	3	4	0	distractor	1	547	727	55127	13.328	13.293	13.363
ProbeTrack10	9	ProbeTrack	10.1	SCS215a	20090813.132456	20090813.133353	8	0.013328	60	10	60-180	60	122	GapExp	0	76	3	2	0	distractor	1	747	627	55754	13.328	13.293	13.363
ProbeTrack10	9	ProbeTrack	10.1	SCS215a	20090813.132456	20090813.133359	8	0.013328	60	10	60-180	60	127	GapExp	0	77	3	1	1	target	1	534	733	56487	13.328	13.293	13.363
ProbeTrack10	9	ProbeTrack	10.1	SCS215a	20090813.132456	20090813.133405	8	0.013328	60	10	60-180	60	77	GapExp	0	78	3	1	1	target	1	427	787	57274	13.328	13.289	13.366
ProbeTrack10	9	ProbeTrack	10.1	SCS215a	20090813.132456	20090813.133410	8	0.013328	60	10	60-180	60	97	GapExp	0	79	3	4	1	target	1	720	640	57914	13.328	13.290	13.363
ProbeTrack10	9	ProbeTrack	10.1	SCS215a	20090813.132456	20090813.133416	8	0.013328	60	10	60-180	60	73	GapExp	0	80	3	1	0	distractor	1	613	694	58608	13.328	13.293	13.363
ProbeTrack10	9	ProbeTrack	10.1	SCS215a	20090813.132456	20090813.133422	8	0.013328	60	10	60-180	60	176	GapExp	0	81	3	0	0	target	0	547	-1000	57608	13.328	13.293	13.362
ProbeTrack10	9	ProbeTrack	10.1	SCS215a	20090813.132456	20090813.133429	8	0.013328	60	10	60-180	60	122	GapExp	0	82	3	1	1	target	1	680	660	58268	13.328	13.293	13.362
ProbeTrack10	9	ProbeTrack	10.1	SCS215a	20090813.132456	20090813.133435	8	0.013328	60	10	60-180	60	165	GapExp	0	83	3	2	0	distractor	1	627	687	58955	13.328	13.293	13.363
ProbeTrack10	9	ProbeTrack	10.1	SCS215a	20090813.132456	20090813.133442	8	0.013328	60	10	60-180	60	79	GapExp	0	84	3	1	1	target	1	573	714	59669	13.328	13.293	13.363
ProbeTrack10	9	ProbeTrack	10.1	SCS215a	20090813.132456	20090813.133448	8	0.013328	60	10	60-180	60	156	GapExp	0	85	3	4	1	target	1	547	727	60396	13.328	13.293	13.363
ProbeTrack10	9	ProbeTrack	10.1	SCS215a	20090813.132456	20090813.133454	8	0.013328	60	10	60-180	60	130	GapExp	0	86	3	75	0	target	0	494	-1000	59396	13.328	13.293	13.363
ProbeTrack10	9	ProbeTrack	10.1	SCS215a	20090813.132456	20090813.133501	8	0.013328	60	10	60-180	60	63	GapExp	0	87	3	1	0	target	0	720	-1000	58396	13.328	13.293	13.363
ProbeTrack10	9	ProbeTrack	10.1	SCS215a	20090813.132456	20090813.133507	8	0.013328	60	10	60-180	60	84	GapExp	0	88	3	4	0	distractor	1	747	627	59023	13.328	13.293	13.365
ProbeTrack10	9	ProbeTrack	10.1	SCS215a	20090813.132456	20090813.133513	8	0.013328	60	10	60-180	60	81	GapExp	0	89	3	75	0	distractor	1	547	727	59750	13.328	13.293	13.363
ProbeTrack10	9	ProbeTrack	10.1	SCS215a	20090813.132456	20090813.133519	8	0.013328	60	10	60-180	60	156	GapExp	0	90	3	1	0	distractor	1	574	713	60463	13.328	13.293	13.363
ProbeTrack10	9	ProbeTrack	10.1	SCS215a	20090813.132456	20090813.133526	8	0.013328	60	10	60-180	60	159	GapExp	0	91	3	2	1	target	1	587	707	61170	13.328	13.293	13.363
ProbeTrack10	9	ProbeTrack	10.1	SCS215a	20090813.132456	20090813.133532	8	0.013328	60	10	60-180	60	177	GapExp	0	92	3	2	1	target	1	440	780	61950	13.328	13.293	13.363
ProbeTrack10	9	ProbeTrack	10.1	SCS215a	20090813.132456	20090813.133539	8	0.013328	60	10	60-180	60	102	GapExp	0	93	3	75	1	target	1	387	807	62757	13.328	13.293	13.363
ProbeTrack10	9	ProbeTrack	10.1	SCS215a	20090813.132456	20090813.133545	8	0.013328	60	10	60-180	60	173	GapExp	0	94	3	2	1	target	1	494	753	63510	13.328	13.293	13.363
ProbeTrack10	9	ProbeTrack	10.1	SCS215a	20090813.132456	20090813.133552	8	0.013328	60	10	60-180	60	180	GapExp	0	95	3	4	1	target	1	387	807	64317	13.328	13.293	13.363
ProbeTrack10	9	ProbeTrack	10.1	SCS215a	20090813.132456	20090813.133559	8	0.013328	60	10	60-180	60	107	GapExp	0	96	3	1	0	distractor	1	667	667	64984	13.328	13.293	13.363
ProbeTrack10	9	ProbeTrack	10.1	SCS215a	20090813.132456	20090813.133605	8	0.013328	60	10	60-180	60	72	GapExp	0	97	3	2	1	target	1	427	787	65771	13.328	13.293	13.363
ProbeTrack10	9	ProbeTrack	10.1	SCS215a	20090813.132456	20090813.133610	8	0.013328	60	10	60-180	60	116	GapExp	0	98	3	2	0	target	0	480	-1000	64771	13.328	13.293	13.363
ProbeTrack10	9	ProbeTrack	10.1	SCS215a	20090813.132456	20090813.133617	8	0.013328	60	10	60-180	60	69	GapExp	0	99	3	4	1	target	1	480	760	65531	13.328	13.293	13.363
ProbeTrack10	9	ProbeTrack	10.1	SCS215a	20090813.132456	20090813.133623	8	0.013328	60	10	60-180	60	91	GapExp	0	100	3	75	1	target	1	667	667	66198	13.328	13.293	13.363
ProbeTrack10	9	ProbeTrack	10.1	SCS215a	20090813.132456	20090813.133630	8	0.013328	60	10	60-180	60	137	GapExp	0	101	3	4	0	distractor	1	680	660	66858	13.328	13.293	13.363
ProbeTrack10	9	ProbeTrack	10.1	SCS215a	20090813.132456	20090813.133636	8	0.013328	60	10	60-180	60	137	GapExp	0	102	3	4	0	distractor	1	853	574	67432	13.328	13.293	13.363
ProbeTrack10	9	ProbeTrack	10.1	SCS215a	20090813.132456	20090813.133643	8	0.013328	60	10	60-180	60	69	GapExp	0	103	3	4	0	distractor	1	733	634	68066	13.328	13.293	13.362
ProbeTrack10	9	ProbeTrack	10.1	SCS215a	20090813.132456	20090813.133649	8	0.013328	60	10	60-180	60	155	GapExp	0	104	3	4	1	target	1	480	760	68826	13.328	13.293	13.363
ProbeTrack10	9	ProbeTrack	10.1	SCS215a	20090813.132456	20090813.133655	8	0.013328	60	10	60-180	60	137	GapExp	0	105	3	4	0	distractor	1	720	640	69466	13.328	13.293	13.364
ProbeTrack10	9	ProbeTrack	10.1	SCS215a	20090813.132456	20090813.133702	8	0.013328	60	10	60-180	60	109	GapExp	0	106	3	1	1	target	1	507	747	70213	13.328	13.293	13.363
ProbeTrack10	9	ProbeTrack	10.1	SCS215a	20090813.132456	20090813.133707	8	0.013328	60	10	60-180	60	88	GapExp	0	107	3	0	1	target	1	640	680	70893	13.328	13.293	13.362
ProbeTrack10	9	ProbeTrack	10.1	SCS215a	20090813.132456	20090813.133713	8	0.013328	60	10	60-180	60	115	GapExp	0	108	3	1	1	target	1	387	807	71700	13.328	13.293	13.363
ProbeTrack10	9	ProbeTrack	10.1	SCS215a	20090813.132456	20090813.133720	8	0.013328	60	10	60-180	60	98	GapExp	0	109	3	75	0	distractor	1	587	707	72407	13.328	13.293	13.363
ProbeTrack10	9	ProbeTrack	10.1	SCS215a	20090813.132456	20090813.133727	8	0.013328	60	10	60-180	60	135	GapExp	0	110	3	0	0	distractor	1	640	680	73087	13.328	13.293	13.363
ProbeTrack10	9	ProbeTrack	10.1	SCS215a	20090813.132456	20090813.133733	8	0.013328	60	10	60-180	60	171	GapExp	0	111	3	0	0	target	0	547	-1000	72087	13.328	13.290	13.365
ProbeTrack10	9	ProbeTrack	10.1	SCS215a	20090813.132456	20090813.133740	8	0.013328	60	10	60-180	60	118	GapExp	0	112	3	75	1	target	1	773	614	72701	13.328	13.293	13.363
ProbeTrack10	9	ProbeTrack	10.1	SCS215a	20090813.132456	20090813.133748	8	0.013328	60	10	60-180	60	126	GapExp	0	113	3	0	1	target	1	467	767	73468	13.328	13.293	13.363
ProbeTrack10	9	ProbeTrack	10.1	SCS215a	20090813.132456	20090813.133754	8	0.013328	60	10	60-180	60	100	GapExp	0	114	3	75	0	distractor	1	414	793	74261	13.328	13.293	13.363
ProbeTrack10	9	ProbeTrack	10.1	SCS215a	20090813.132456	20090813.133800	8	0.013328	60	10	60-180	60	116	GapExp	0	115	3	4	1	target	1	613	694	74955	13.328	13.293	13.363
ProbeTrack10	9	ProbeTrack	10.1	SCS215a	20090813.132456	20090813.133806	8	0.013328	60	10	60-180	60	73	GapExp	0	116	3	2	1	target	1	440	780	75735	13.328	13.293	13.363
ProbeTrack10	9	ProbeTrack	10.1	SCS215a	20090813.132456	20090813.133812	8	0.013328	60	10	60-180	60	121	GapExp	0	117	3	1	1	target	1	387	807	76542	13.328	13.293	13.363
ProbeTrack10	9	ProbeTrack	10.1	SCS215a	20090813.132456	20090813.133819	8	0.013328	60	10	60-180	60	129	GapExp	0	118	3	1	1	target	1	507	747	77289	13.328	13.293	13.366
ProbeTrack10	9	ProbeTrack	10.1	SCS215a	20090813.132456	20090813.133825	8	0.013328	60	10	60-180	60	138	GapExp	0	119	3	75	0	distractor	1	2346	0	77289	13.328	13.293	13.363
ProbeTrack10	9	ProbeTrack	10.1	SCS215a	20090813.132456	20090813.133835	8	0.013328	60	10	60-180	60	83	GapExp	0	120	3	0	1	target	1	574	713	78002	13.328	13.293	13.363
ProbeTrack10	9	ProbeTrack	10.1	SCS215a	20090813.132456	20090813.133842	8	0.013328	60	10	60-180	60	70	GapExp	0	121	3	2	0	target	0	507	-1000	77002	13.328	13.293	13.363
ProbeTrack10	9	ProbeTrack	10.1	SCS215a	20090813.132456	20090813.133847	8	0.013328	60	10	60-180	60	128	GapExp	0	122	3	4	0	target	0	520	-1000	76002	13.328	13.293	13.363
ProbeTrack10	9	ProbeTrack	10.1	SCS215a	20090813.132456	20090813.133853	8	0.013328	60	10	60-180	60	77	GapExp	0	123	3	1	1	target	1	600	700	76702	13.328	13.293	13.363
ProbeTrack10	9	ProbeTrack	10.1	SCS215a	20090813.132456	20090813.133859	8	0.013328	60	10	60-180	60	96	GapExp	0	124	3	2	0	distractor	1	853	574	77276	13.328	13.293	13.365
ProbeTrack10	9	ProbeTrack	10.1	SCS215a	20090813.132456	20090813.133905	8	0.013328	60	10	60-180	60	178	GapExp	0	125	3	0	1	target	1	494	753	78029	13.328	13.290	13.363
ProbeTrack10	9	ProbeTrack	10.1	SCS215a	20090813.132456	20090813.133911	8	0.013328	60	10	60-180	60	94	GapExp	0	126	3	0	0	target	0	600	-1000	77029	13.328	13.291	13.365
ProbeTrack10	9	ProbeTrack	10.1	SCS215a	20090813.132456	20090813.133918	8	0.013328	60	10	60-180	60	74	GapExp	0	127	3	1	1	target	1	494	753	77782	13.328	13.293	13.363
ProbeTrack10	9	ProbeTrack	10.1	SCS215a	20090813.132456	20090813.133923	8	0.013328	60	10	60-180	60	72	GapExp	0	128	3	4	1	target	1	587	707	78489	13.328	13.293	13.362
ProbeTrack10	9	ProbeTrack	10.1	SCS215a	20090813.132456	20090813.133929	8	0.013328	60	10	60-180	60	165	GapExp	0	129	3	0	0	distractor	1	933	534	79023	13.328	13.293	13.363
ProbeTrack10	9	ProbeTrack	10.1	SCS215a	20090813.132456	20090813.133936	8	0.013328	60	10	60-180	60	79	GapExp	0	130	3	1	0	distractor	1	773	614	79637	13.328	13.293	13.363
ProbeTrack10	9	ProbeTrack	10.1	SCS215a	20090813.132456	20090813.133943	8	0.013328	60	10	60-180	60	146	GapExp	0	131	3	0	1	target	1	574	713	80350	13.328	13.293	13.363
ProbeTrack10	9	ProbeTrack	10.1	SCS215a	20090813.132456	20090813.133949	8	0.013328	60	10	60-180	60	69	GapExp	0	132	3	75	1	target	1	414	793	81143	13.328	13.293	13.363
ProbeTrack10	9	ProbeTrack	10.1	SCS215a	20090813.132456	20090813.133956	8	0.013328	60	10	60-180	60	164	GapExp	0	133	3	2	1	target	1	494	753	81896	13.328	13.293	13.363
ProbeTrack10	9	ProbeTrack	10.1	SCS215a	20090813.132456	20090813.134002	8	0.013328	60	10	60-180	60	138	GapExp	0	134	3	4	0	distractor	1	880	560	82456	13.328	13.293	13.363
ProbeTrack10	9	ProbeTrack	10.1	SCS215a	20090813.132456	20090813.134009	8	0.013328	60	10	60-180	60	107	GapExp	0	135	3	0	0	target	0	480	-1000	81456	13.328	13.293	13.369
ProbeTrack10	9	ProbeTrack	10.1	SCS215a	20090813.132456	20090813.134015	8	0.013328	60	10	60-180	60	164	GapExp	0	136	3	2	0	target	0	587	-1000	80456	13.328	13.288	13.363
ProbeTrack10	9	ProbeTrack	10.1	SCS215a	20090813.132456	20090813.134021	8	0.013328	60	10	60-180	60	158	GapExp	0	137	3	0	0	target	0	494	-1000	79456	13.328	13.293	13.363
ProbeTrack10	9	ProbeTrack	10.1	SCS215a	20090813.132456	20090813.134029	8	0.013328	60	10	60-180	60	73	GapExp	0	138	3	2	1	target	1	507	747	80203	13.328	13.293	13.363
ProbeTrack10	9	ProbeTrack	10.1	SCS215a	20090813.132456	20090813.134034	8	0.013328	60	10	60-180	60	81	GapExp	0	139	3	75	1	target	1	680	660	80863	13.328	13.293	13.363
ProbeTrack10	9	ProbeTrack	10.1	SCS215a	20090813.132456	20090813.134041	8	0.013328	60	10	60-180	60	165	GapExp	0	140	3	4	1	target	1	520	740	81603	13.328	13.293	13.363
ProbeTrack10	9	ProbeTrack	10.1	SCS215a	20090813.132456	20090813.134048	8	0.013328	60	10	60-180	60	168	GapExp	0	141	3	0	0	target	0	640	-1000	80603	13.328	13.293	13.365
ProbeTrack10	9	ProbeTrack	10.1	SCS215a	20090813.132456	20090813.134054	8	0.013328	60	10	60-180	60	91	GapExp	0	142	3	4	0	target	0	480	-1000	79603	13.328	13.291	13.366
ProbeTrack10	9	ProbeTrack	10.1	SCS215a	20090813.132456	20090813.134100	8	0.013328	60	10	60-180	60	128	GapExp	0	143	3	2	0	distractor	1	600	700	80303	13.328	13.293	13.365
ProbeTrack10	9	ProbeTrack	10.1	SCS215a	20090813.132456	20090813.134106	8	0.013328	60	10	60-180	60	148	GapExp	0	144	3	75	0	distractor	1	667	667	80970	13.328	13.293	13.363
ProbeTrack10	9	ProbeTrack	10.1	SCS215a	20090813.132456	20090813.134114	8	0.013328	60	10	60-180	60	137	GapExp	0	145	3	75	0	distractor	1	534	733	81703	13.328	13.293	13.363
ProbeTrack10	9	ProbeTrack	10.1	SCS215a	20090813.132456	20090813.134121	8	0.013328	60	10	60-180	60	97	GapExp	0	146	3	75	1	target	1	627	687	82390	13.328	13.293	13.363
ProbeTrack10	9	ProbeTrack	10.1	SCS215a	20090813.132456	20090813.134128	8	0.013328	60	10	60-180	60	128	GapExp	0	147	3	0	1	target	1	560	720	83110	13.328	13.293	13.363
ProbeTrack10	9	ProbeTrack	10.1	SCS215a	20090813.132456	20090813.134134	8	0.013328	60	10	60-180	60	164	GapExp	0	148	3	0	1	target	1	480	760	83870	13.328	13.293	13.363
ProbeTrack10	9	ProbeTrack	10.1	SCS215a	20090813.132456	20090813.134140	8	0.013328	60	10	60-180	60	133	GapExp	0	149	3	0	1	target	1	494	753	84623	13.328	13.293	13.363
ProbeTrack10	9	ProbeTrack	10.1	SCS215a	20090813.132456	20090813.134146	8	0.013328	60	10	60-180	60	62	GapExp	0	150	3	2	1	target	1	547	727	85350	13.328	13.293	13.363
ProbeTrack10	9	ProbeTrack	10.1	SCS215a	20090813.132456	20090813.134151	8	0.013328	60	10	60-180	60	156	GapExp	0	151	3	0	0	target	0	494	-1000	84350	13.328	13.293	13.363
ProbeTrack10	9	ProbeTrack	10.1	SCS215a	20090813.132456	20090813.134158	8	0.013328	60	10	60-180	60	136	GapExp	0	152	3	4	1	target	1	507	747	85097	13.328	13.293	13.363
ProbeTrack10	9	ProbeTrack	10.1	SCS215a	20090813.132456	20090813.134204	8	0.013328	60	10	60-180	60	179	GapExp	0	153	3	1	0	distractor	1	667	667	85764	13.328	13.293	13.366
ProbeTrack10	9	ProbeTrack	10.1	SCS215a	20090813.132456	20090813.134211	8	0.013328	60	10	60-180	60	108	GapExp	0	154	3	0	0	target	0	560	-1000	84764	13.328	13.293	13.363
ProbeTrack10	9	ProbeTrack	10.1	SCS215a	20090813.132456	20090813.134217	8	0.013328	60	10	60-180	60	85	GapExp	0	155	3	75	1	target	1	427	787	85551	13.328	13.293	13.363
ProbeTrack10	9	ProbeTrack	10.1	SCS215a	20090813.132456	20090813.134223	8	0.013328	60	10	60-180	60	113	GapExp	0	156	3	4	1	target	1	520	740	86291	13.328	13.293	13.363
ProbeTrack10	9	ProbeTrack	10.1	SCS215a	20090813.132456	20090813.134229	8	0.013328	60	10	60-180	60	135	GapExp	0	157	3	75	0	distractor	1	534	733	87024	13.328	13.293	13.363
ProbeTrack10	9	ProbeTrack	10.1	SCS215a	20090813.132456	20090813.134236	8	0.013328	60	10	60-180	60	180	GapExp	0	158	3	2	1	target	1	480	760	87784	13.328	13.293	13.363
ProbeTrack10	9	ProbeTrack	10.1	SCS215a	20090813.132456	20090813.134243	8	0.013328	60	10	60-180	60	156	GapExp	0	159	3	2	1	target	1	640	680	88464	13.328	13.293	13.363
ProbeTrack10	9	ProbeTrack	10.1	SCS215a	20090813.132456	20090813.134250	8	0.013328	60	10	60-180	60	144	GapExp	0	160	3	75	1	target	1	454	773	89237	13.328	13.290	13.363
ProbeTrack10	9	ProbeTrack	10.1	SCS215a	20090813.132456	20090813.134257	8	0.013328	60	10	60-180	60	78	GapExp	0	161	3	4	0	distractor	1	813	594	89831	13.328	13.293	13.363
ProbeTrack10	9	ProbeTrack	10.1	SCS215a	20090813.132456	20090813.134304	8	0.013328	60	10	60-180	60	144	GapExp	0	162	3	1	0	target	0	693	-1000	88831	13.328	13.293	13.363
ProbeTrack10	9	ProbeTrack	10.1	SCS215a	20090813.132456	20090813.134310	8	0.013328	60	10	60-180	60	76	GapExp	0	163	3	4	1	target	1	560	720	89551	13.328	13.293	13.363
ProbeTrack10	9	ProbeTrack	10.1	SCS215a	20090813.132456	20090813.134316	8	0.013328	60	10	60-180	60	164	GapExp	0	164	3	2	1	target	1	534	733	90284	13.328	13.293	13.363
ProbeTrack10	9	ProbeTrack	10.1	SCS215a	20090813.132456	20090813.134322	8	0.013328	60	10	60-180	60	115	GapExp	0	165	3	2	0	distractor	1	560	720	91004	13.328	13.293	13.363
ProbeTrack10	9	ProbeTrack	10.1	SCS215a	20090813.132456	20090813.134328	8	0.013328	60	10	60-180	60	109	GapExp	0	166	3	4	0	distractor	1	813	594	91598	13.328	13.293	13.363
ProbeTrack10	9	ProbeTrack	10.1	SCS215a	20090813.132456	20090813.134335	8	0.013328	60	10	60-180	60	121	GapExp	0	167	3	1	0	distractor	1	653	674	92272	13.328	13.293	13.363
ProbeTrack10	9	ProbeTrack	10.1	SCS215a	20090813.132456	20090813.134341	8	0.013328	60	10	60-180	60	80	GapExp	0	168	3	75	1	target	1	467	767	93039	13.328	13.293	13.363
ProbeTrack10	9	ProbeTrack	10.1	SCS215a	20090813.132456	20090813.134347	8	0.013328	60	10	60-180	60	119	GapExp	0	169	3	1	0	target	0	614	-1000	92039	13.328	13.291	13.363
ProbeTrack10	9	ProbeTrack	10.1	SCS215a	20090813.132456	20090813.134354	8	0.013328	60	10	60-180	60	82	GapExp	0	170	3	4	0	target	0	640	-1000	91039	13.328	13.293	13.363
ProbeTrack10	9	ProbeTrack	10.1	SCS215a	20090813.132456	20090813.134400	8	0.013328	60	10	60-180	60	81	GapExp	0	171	3	0	1	target	1	480	760	91799	13.328	13.293	13.362
ProbeTrack10	9	ProbeTrack	10.1	SCS215a	20090813.132456	20090813.134405	8	0.013328	60	10	60-180	60	77	GapExp	0	172	3	4	1	target	1	574	713	92512	13.328	13.293	13.365
ProbeTrack10	9	ProbeTrack	10.1	SCS215a	20090813.132456	20090813.134411	8	0.013328	60	10	60-180	60	82	GapExp	0	173	3	1	1	target	1	507	747	93259	13.328	13.293	13.363
ProbeTrack10	9	ProbeTrack	10.1	SCS215a	20090813.132456	20090813.134416	8	0.013328	60	10	60-180	60	91	GapExp	0	174	3	0	0	distractor	1	534	733	93992	13.328	13.293	13.363
ProbeTrack10	9	ProbeTrack	10.1	SCS215a	20090813.132456	20090813.134422	8	0.013328	60	10	60-180	60	159	GapExp	0	175	3	1	0	distractor	1	747	627	94619	13.328	13.293	13.363
ProbeTrack10	9	ProbeTrack	10.1	SCS215a	20090813.132456	20090813.134429	8	0.013328	60	10	60-180	60	128	GapExp	0	176	3	75	1	target	1	587	707	95326	13.328	13.293	13.363
ProbeTrack10	9	ProbeTrack	10.1	SCS215a	20090813.132456	20090813.134437	8	0.013328	60	10	60-180	60	114	GapExp	0	177	3	75	1	distractor	0	640	-1000	94326	13.328	13.293	13.363
ProbeTrack10	9	ProbeTrack	10.1	SCS215a	20090813.132456	20090813.134444	8	0.013328	60	10	60-180	60	170	GapExp	0	178	3	0	0	target	0	1493	-1000	93326	13.328	13.293	13.363
ProbeTrack10	9	ProbeTrack	10.1	SCS215a	20090813.132456	20090813.134452	8	0.013328	60	10	60-180	60	90	GapExp	0	179	3	2	0	distractor	1	1400	300	93626	13.328	13.293	13.363
ProbeTrack10	9	ProbeTrack	10.1	SCS215a	20090813.132456	20090813.134459	8	0.013328	60	10	60-180	60	153	GapExp	0	180	3	4	1	target	1	494	753	94379	13.328	13.293	13.363
ProbeTrack10	9	ProbeTrack	10.1	SCS215a	20090813.132456	20090813.134505	8	0.013328	60	10	60-180	60	78	GapExp	0	181	3	2	1	target	1	400	800	95179	13.328	13.293	13.363
ProbeTrack10	9	ProbeTrack	10.1	SCS215a	20090813.132456	20090813.134511	8	0.013328	60	10	60-180	60	148	GapExp	0	182	3	75	1	target	1	360	820	95999	13.328	13.293	13.363
ProbeTrack10	9	ProbeTrack	10.1	SCS215a	20090813.132456	20090813.134518	8	0.013328	60	10	60-180	60	180	GapExp	0	183	3	75	1	distractor	0	600	-1000	94999	13.328	13.293	13.363
ProbeTrack10	9	ProbeTrack	10.1	SCS215a	20090813.132456	20090813.134526	8	0.013328	60	10	60-180	60	179	GapExp	0	184	3	4	1	target	1	414	793	95792	13.328	13.293	13.363
ProbeTrack10	9	ProbeTrack	10.1	SCS215a	20090813.132456	20090813.134533	8	0.013328	60	10	60-180	60	165	GapExp	0	185	3	1	1	target	1	560	720	96512	13.328	13.293	13.363
ProbeTrack10	9	ProbeTrack	10.1	SCS215a	20090813.132456	20090813.134540	8	0.013328	60	10	60-180	60	102	GapExp	0	186	3	2	0	distractor	1	787	607	97119	13.328	13.293	13.363
ProbeTrack10	9	ProbeTrack	10.1	SCS215a	20090813.132456	20090813.134546	8	0.013328	60	10	60-180	60	144	GapExp	0	187	3	0	1	target	1	547	727	97846	13.328	13.293	13.363
ProbeTrack10	9	ProbeTrack	10.1	SCS215a	20090813.132456	20090813.134552	8	0.013328	60	10	60-180	60	106	GapExp	0	188	3	1	1	target	1	547	727	98573	13.328	13.293	13.363
ProbeTrack10	9	ProbeTrack	10.1	SCS215a	20090813.132456	20090813.134558	8	0.013328	60	10	60-180	60	100	GapExp	0	189	3	75	0	distractor	1	627	687	99260	13.328	13.289	13.366
ProbeTrack10	9	ProbeTrack	10.1	SCS215a	20090813.132456	20090813.134605	8	0.013328	60	10	60-180	60	127	GapExp	0	190	3	1	0	distractor	1	653	674	99934	13.328	13.293	13.363
ProbeTrack10	9	ProbeTrack	10.1	SCS215a	20090813.132456	20090813.134611	8	0.013328	60	10	60-180	60	78	GapExp	0	191	3	2	1	target	1	547	727	100661	13.328	13.293	13.363
ProbeTrack10	9	ProbeTrack	10.1	SCS215a	20090813.132456	20090813.134617	8	0.013328	60	10	60-180	60	179	GapExp	0	192	3	0	0	target	0	480	-1000	99661	13.328	13.293	13.363
ProbeTrack10	9	ProbeTrack	10.1	SCS215a	20090813.132456	20090813.134624	8	0.013328	60	10	60-180	60	108	GapExp	0	193	3	1	0	distractor	1	640	680	100341	13.328	13.293	13.363
ProbeTrack10	9	ProbeTrack	10.1	SCS215a	20090813.132456	20090813.134630	8	0.013328	60	10	60-180	60	138	GapExp	0	194	3	2	0	distractor	1	987	507	100848	13.328	13.293	13.363
ProbeTrack10	9	ProbeTrack	10.1	SCS215a	20090813.132456	20090813.134637	8	0.013328	60	10	60-180	60	158	GapExp	0	195	3	2	0	distractor	1	707	647	101495	13.328	13.293	13.363
ProbeTrack10	9	ProbeTrack	10.1	SCS215a	20090813.132456	20090813.134643	8	0.013328	60	10	60-180	60	66	GapExp	0	196	3	75	0	distractor	1	614	693	102188	13.328	13.290	13.365
ProbeTrack10	9	ProbeTrack	10.1	SCS215a	20090813.132456	20090813.134650	8	0.013328	60	10	60-180	60	75	GapExp	0	197	3	4	0	distractor	1	587	707	102895	13.328	13.293	13.363
ProbeTrack10	9	ProbeTrack	10.1	SCS215a	20090813.132456	20090813.134655	8	0.013328	60	10	60-180	60	136	GapExp	0	198	3	0	1	distractor	0	800	-1000	101895	13.328	13.293	13.363
ProbeTrack10	9	ProbeTrack	10.1	SCS215a	20090813.132456	20090813.134702	8	0.013328	60	10	60-180	60	147	GapExp	0	199	3	4	1	target	1	680	660	102555	13.328	13.293	13.366
ProbeTrack10	9	ProbeTrack	10.1	SCS215a	20090813.132456	20090813.134709	8	0.013328	60	10	60-180	60	142	GapExp	0	200	3	75	1	target	1	627	687	103242	13.328	13.289	13.363
ProbeTrack10	9	ProbeTrack	10.1	SCS215a	20090813.132456	20090813.134716	8	0.013328	60	10	60-180	60	171	GapExp	0	201	3	1	0	target	0	600	-1000	102242	13.328	13.293	13.363
ProbeTrack10	9	ProbeTrack	10.1	SCS215a	20090813.132456	20090813.134722	8	0.013328	60	10	60-180	60	93	GapExp	0	202	3	75	0	distractor	1	520	740	102982	13.328	13.293	13.363
ProbeTrack10	9	ProbeTrack	10.1	SCS215a	20090813.132456	20090813.134729	8	0.013328	60	10	60-180	60	73	GapExp	0	203	3	1	1	target	1	480	760	103742	13.328	13.293	13.363
ProbeTrack10	9	ProbeTrack	10.1	SCS215a	20090813.132456	20090813.134735	8	0.013328	60	10	60-180	60	84	GapExp	0	204	3	0	0	distractor	1	773	614	104356	13.328	13.290	13.365
ProbeTrack10	9	ProbeTrack	10.1	SCS215a	20090813.132456	20090813.134740	8	0.013328	60	10	60-180	60	149	GapExp	0	205	3	4	1	target	1	427	787	105143	13.328	13.288	13.363
ProbeTrack10	9	ProbeTrack	10.1	SCS215a	20090813.132456	20090813.134747	8	0.013328	60	10	60-180	60	128	GapExp	0	206	3	75	1	target	1	587	707	105850	13.328	13.289	13.366
ProbeTrack10	9	ProbeTrack	10.1	SCS215a	20090813.132456	20090813.134754	8	0.013328	60	10	60-180	60	142	GapExp	0	207	3	75	1	target	1	480	760	106610	13.328	13.289	13.363
ProbeTrack10	9	ProbeTrack	10.1	SCS215a	20090813.132456	20090813.134801	8	0.013328	60	10	60-180	60	144	GapExp	0	208	3	1	0	target	0	387	-1000	105610	13.328	13.293	13.363
ProbeTrack10	9	ProbeTrack	10.1	SCS215a	20090813.132456	20090813.134807	8	0.013328	60	10	60-180	60	92	GapExp	0	209	3	4	0	target	0	800	-1000	104610	13.328	13.293	13.363
ProbeTrack10	9	ProbeTrack	10.1	SCS215a	20090813.132456	20090813.134813	8	0.013328	60	10	60-180	60	113	GapExp	0	210	3	1	0	target	0	574	-1000	103610	13.328	13.293	13.363
