exp	sub	code	rev	comp	runtime	trialtime	nstim	refreshdur	cuedur	gapdur	gapOnsetRange	durPostProbe	gapOnsetTime	blocktype	prac	trial	ntargets	soa	probeTarget	resp	acc	rt	pts	tpts	meanFrameDur	minFrameDur	maxFrameDur
ProbeTrack10	3	ProbeTrack	10.1	SCS215a	20090810.141844	20090810.141917	8	0.013328	60	0	60-180	60	62	NoGap	1	1	3	2	0	distractor	1	16260	0	0	13.328	13.293	13.363
ProbeTrack10	3	ProbeTrack	10.1	SCS215a	20090810.141844	20090810.141954	8	0.013328	60	0	60-180	60	168	NoGap	1	2	3	0	1	distractor	0	1027	-1000	-1000	13.328	13.293	13.363
ProbeTrack10	3	ProbeTrack	10.1	SCS215a	20090810.141844	20090810.142005	8	0.013328	60	0	60-180	60	135	NoGap	1	3	3	1	0	distractor	1	2706	0	-1000	13.328	13.293	13.364
ProbeTrack10	3	ProbeTrack	10.1	SCS215a	20090810.141844	20090810.142018	8	0.013328	60	0	60-180	60	151	NoGap	1	4	3	1	1	target	1	787	607	-393	13.328	13.293	13.366
ProbeTrack10	3	ProbeTrack	10.1	SCS215a	20090810.141844	20090810.142040	8	0.013328	60	0	60-180	60	84	NoGap	1	5	3	75	0	distractor	1	867	567	174	13.328	13.292	13.363
ProbeTrack10	3	ProbeTrack	10.1	SCS215a	20090810.141844	20090810.142048	8	0.013328	60	0	60-180	60	63	NoGap	1	6	3	0	0	distractor	1	733	634	808	13.328	13.293	13.364
ProbeTrack10	3	ProbeTrack	10.1	SCS215a	20090810.141844	20090810.142053	8	0.013328	60	0	60-180	60	165	NoGap	1	7	3	4	1	target	1	1040	480	1288	13.328	13.293	13.363
ProbeTrack10	3	ProbeTrack	10.1	SCS215a	20090810.141844	20090810.142101	8	0.013328	60	0	60-180	60	180	NoGap	1	8	3	1	1	target	1	574	713	2001	13.328	13.292	13.363
ProbeTrack10	3	ProbeTrack	10.1	SCS215a	20090810.141844	20090810.142108	8	0.013328	60	0	60-180	60	156	NoGap	1	9	3	75	0	distractor	1	707	647	2648	13.328	13.293	13.363
ProbeTrack10	3	ProbeTrack	10.1	SCS215a	20090810.141844	20090810.142117	8	0.013328	60	0	60-180	60	169	NoGap	1	10	3	4	1	target	1	707	647	3295	13.328	13.291	13.363
ProbeTrack10	3	ProbeTrack	10.1	SCS215a	20090810.141844	20090810.142125	8	0.013328	60	0	60-180	60	71	NoGap	1	11	3	75	1	target	1	507	747	4042	13.328	13.293	13.363
ProbeTrack10	3	ProbeTrack	10.1	SCS215a	20090810.141844	20090810.142131	8	0.013328	60	0	60-180	60	62	NoGap	1	12	3	0	0	distractor	1	587	707	4749	13.328	13.292	13.363
ProbeTrack10	3	ProbeTrack	10.1	SCS215a	20090810.141844	20090810.142137	8	0.013328	60	0	60-180	60	100	NoGap	1	13	3	1	0	distractor	1	600	700	5449	13.328	13.293	13.364
ProbeTrack10	3	ProbeTrack	10.1	SCS215a	20090810.141844	20090810.142143	8	0.013328	60	0	60-180	60	153	NoGap	1	14	3	75	1	target	1	574	713	6162	13.328	13.293	13.363
ProbeTrack10	3	ProbeTrack	10.1	SCS215a	20090810.141844	20090810.142152	8	0.013328	60	0	60-180	60	141	NoGap	1	15	3	2	0	distractor	1	693	654	6816	13.328	13.293	13.363
ProbeTrack10	3	ProbeTrack	10.1	SCS215a	20090810.141844	20090810.142159	8	0.013328	60	0	60-180	60	161	NoGap	1	16	3	0	0	distractor	1	534	733	7549	13.328	13.292	13.363
ProbeTrack10	3	ProbeTrack	10.1	SCS215a	20090810.141844	20090810.142206	8	0.013328	60	0	60-180	60	176	NoGap	1	17	3	75	1	target	1	534	733	8282	13.328	13.293	13.364
ProbeTrack10	3	ProbeTrack	10.1	SCS215a	20090810.141844	20090810.142214	8	0.013328	60	0	60-180	60	117	NoGap	1	18	3	0	1	target	1	507	747	9029	13.328	13.293	13.363
ProbeTrack10	3	ProbeTrack	10.1	SCS215a	20090810.141844	20090810.142220	8	0.013328	60	0	60-180	60	159	NoGap	1	19	3	4	0	distractor	1	627	687	9716	13.328	13.293	13.363
ProbeTrack10	3	ProbeTrack	10.1	SCS215a	20090810.141844	20090810.142227	8	0.013328	60	0	60-180	60	132	NoGap	1	20	3	2	1	target	1	680	660	10376	13.328	13.293	13.363
ProbeTrack10	3	ProbeTrack	10.1	SCS215a	20090810.141844	20090810.142234	8	0.013328	60	0	60-180	60	142	NoGap	1	21	3	4	0	distractor	1	720	640	11016	13.328	13.293	13.363
ProbeTrack10	3	ProbeTrack	10.1	SCS215a	20090810.141844	20090810.142241	8	0.013328	60	0	60-180	60	132	NoGap	1	22	3	2	1	target	1	653	674	11690	13.328	13.293	13.363
ProbeTrack10	3	ProbeTrack	10.1	SCS215a	20090810.141844	20090810.142248	8	0.013328	60	0	60-180	60	73	NoGap	1	23	3	1	1	target	1	613	694	12384	13.328	13.292	13.363
ProbeTrack10	3	ProbeTrack	10.1	SCS215a	20090810.141844	20090810.142254	8	0.013328	60	0	60-180	60	126	NoGap	1	24	3	1	1	target	1	494	753	13137	13.328	13.293	13.363
ProbeTrack10	3	ProbeTrack	10.1	SCS215a	20090810.141844	20090810.142300	8	0.013328	60	0	60-180	60	138	NoGap	1	25	3	2	1	target	1	427	787	13924	13.328	13.293	13.363
ProbeTrack10	3	ProbeTrack	10.1	SCS215a	20090810.141844	20090810.142306	8	0.013328	60	0	60-180	60	101	NoGap	1	26	3	2	1	target	1	454	773	14697	13.327	13.293	13.362
ProbeTrack10	3	ProbeTrack	10.1	SCS215a	20090810.141844	20090810.142313	8	0.013328	60	0	60-180	60	161	NoGap	1	27	3	1	0	target	0	560	-1000	13697	13.328	13.293	13.366
ProbeTrack10	3	ProbeTrack	10.1	SCS215a	20090810.141844	20090810.142320	8	0.013328	60	0	60-180	60	107	NoGap	1	28	3	4	0	target	0	520	-1000	12697	13.328	13.293	13.363
ProbeTrack10	3	ProbeTrack	10.1	SCS215a	20090810.141844	20090810.142326	8	0.013328	60	0	60-180	60	122	NoGap	1	29	3	4	0	target	0	707	-1000	11697	13.328	13.293	13.363
ProbeTrack10	3	ProbeTrack	10.1	SCS215a	20090810.141844	20090810.142333	8	0.013328	60	0	60-180	60	139	NoGap	1	30	3	75	0	target	0	600	-1000	10697	13.328	13.289	13.362
ProbeTrack10	3	ProbeTrack	10.1	SCS215a	20090810.141844	20090810.142340	8	0.013328	60	0	60-180	60	162	NoGap	1	31	3	1	0	distractor	1	547	727	11424	13.328	13.293	13.362
ProbeTrack10	3	ProbeTrack	10.1	SCS215a	20090810.141844	20090810.142347	8	0.013328	60	0	60-180	60	107	NoGap	1	32	3	0	1	target	1	627	687	12111	13.328	13.293	13.363
ProbeTrack10	3	ProbeTrack	10.1	SCS215a	20090810.141844	20090810.142352	8	0.013328	60	0	60-180	60	172	NoGap	1	33	3	0	0	target	0	520	-1000	11111	13.328	13.293	13.363
ProbeTrack10	3	ProbeTrack	10.1	SCS215a	20090810.141844	20090810.142400	8	0.013328	60	0	60-180	60	120	NoGap	1	34	3	0	1	target	1	867	567	11678	13.328	13.293	13.365
ProbeTrack10	3	ProbeTrack	10.1	SCS215a	20090810.141844	20090810.142407	8	0.013328	60	0	60-180	60	158	NoGap	1	35	3	2	0	distractor	1	733	634	12312	13.328	13.293	13.363
ProbeTrack10	3	ProbeTrack	10.1	SCS215a	20090810.141844	20090810.142414	8	0.013328	60	0	60-180	60	146	NoGap	1	36	3	75	1	target	1	693	654	12966	13.328	13.292	13.363
ProbeTrack10	3	ProbeTrack	10.1	SCS215a	20090810.141844	20090810.142422	8	0.013328	60	0	60-180	60	97	NoGap	1	37	3	4	1	distractor	0	547	-1000	11966	13.328	13.293	13.363
ProbeTrack10	3	ProbeTrack	10.1	SCS215a	20090810.141844	20090810.142428	8	0.013328	60	0	60-180	60	151	NoGap	1	38	3	2	0	distractor	1	1133	434	12400	13.328	13.289	13.367
ProbeTrack10	3	ProbeTrack	10.1	SCS215a	20090810.141844	20090810.142436	8	0.013328	60	0	60-180	60	110	NoGap	1	39	3	4	1	target	1	534	733	13133	13.328	13.292	13.363
ProbeTrack10	3	ProbeTrack	10.1	SCS215a	20090810.141844	20090810.142442	8	0.013328	60	0	60-180	60	154	NoGap	1	40	3	75	0	distractor	1	693	654	13787	13.328	13.292	13.363
ProbeTrack10	3	ProbeTrack	10.1	SCS215a	20090810.142517	20090810.142551	8	0.013327	60	10	60-180	60	135	GapPrac	1	1	3	0	0	target	0	800	-1000	12787	13.328	13.291	13.363
ProbeTrack10	3	ProbeTrack	10.1	SCS215a	20090810.142517	20090810.142559	8	0.013327	60	10	60-180	60	168	GapPrac	1	2	3	0	1	target	1	853	574	13361	13.328	13.293	13.363
ProbeTrack10	3	ProbeTrack	10.1	SCS215a	20090810.142517	20090810.142607	8	0.013327	60	10	60-180	60	109	GapPrac	1	3	3	1	1	target	1	653	674	14035	13.328	13.293	13.363
ProbeTrack10	3	ProbeTrack	10.1	SCS215a	20090810.142517	20090810.142614	8	0.013327	60	10	60-180	60	65	GapPrac	1	4	3	4	1	target	1	534	733	14768	13.328	13.292	13.363
ProbeTrack10	3	ProbeTrack	10.1	SCS215a	20090810.142517	20090810.142620	8	0.013327	60	10	60-180	60	83	GapPrac	1	5	3	4	1	distractor	0	574	-1000	13768	13.327	13.293	13.363
ProbeTrack10	3	ProbeTrack	10.1	SCS215a	20090810.142517	20090810.142626	8	0.013327	60	10	60-180	60	104	GapPrac	1	6	3	4	0	target	0	587	-1000	12768	13.328	13.292	13.363
ProbeTrack10	3	ProbeTrack	10.1	SCS215a	20090810.142517	20090810.142632	8	0.013327	60	10	60-180	60	137	GapPrac	1	7	3	2	0	target	0	733	-1000	11768	13.328	13.293	13.363
ProbeTrack10	3	ProbeTrack	10.1	SCS215a	20090810.142517	20090810.142639	8	0.013327	60	10	60-180	60	125	GapPrac	1	8	3	4	0	distractor	1	680	660	12428	13.328	13.293	13.363
ProbeTrack10	3	ProbeTrack	10.1	SCS215a	20090810.142517	20090810.142646	8	0.013327	60	10	60-180	60	156	GapPrac	1	9	3	1	0	target	0	627	-1000	11428	13.328	13.292	13.363
ProbeTrack10	3	ProbeTrack	10.1	SCS215a	20090810.142517	20090810.142653	8	0.013327	60	10	60-180	60	152	GapPrac	1	10	3	75	1	target	1	627	687	12115	13.328	13.293	13.366
ProbeTrack10	3	ProbeTrack	10.1	SCS215a	20090810.142517	20090810.142700	8	0.013327	60	10	60-180	60	113	GapPrac	1	11	3	2	1	target	1	573	714	12829	13.328	13.293	13.363
ProbeTrack10	3	ProbeTrack	10.1	SCS215a	20090810.142517	20090810.142707	8	0.013327	60	10	60-180	60	112	GapPrac	1	12	3	1	0	distractor	1	680	660	13489	13.328	13.293	13.363
ProbeTrack10	3	ProbeTrack	10.1	SCS215a	20090810.142517	20090810.142713	8	0.013327	60	10	60-180	60	117	GapPrac	1	13	3	0	0	target	0	827	-1000	12489	13.328	13.293	13.363
ProbeTrack10	3	ProbeTrack	10.1	SCS215a	20090810.142517	20090810.142720	8	0.013327	60	10	60-180	60	175	GapPrac	1	14	3	2	0	distractor	1	627	687	13176	13.328	13.292	13.363
ProbeTrack10	3	ProbeTrack	10.1	SCS215a	20090810.142517	20090810.142727	8	0.013327	60	10	60-180	60	117	GapPrac	1	15	3	2	1	target	1	747	627	13803	13.328	13.293	13.363
ProbeTrack10	3	ProbeTrack	10.1	SCS215a	20090810.142517	20090810.142733	8	0.013327	60	10	60-180	60	167	GapPrac	1	16	3	75	1	target	1	760	620	14423	13.328	13.291	13.363
ProbeTrack10	3	ProbeTrack	10.1	SCS215a	20090810.142517	20090810.142742	8	0.013327	60	10	60-180	60	139	GapPrac	1	17	3	75	0	distractor	1	653	674	15097	13.328	13.293	13.363
ProbeTrack10	3	ProbeTrack	10.1	SCS215a	20090810.142517	20090810.142750	8	0.013327	60	10	60-180	60	70	GapPrac	1	18	3	0	1	distractor	0	707	-1000	14097	13.328	13.293	13.363
ProbeTrack10	3	ProbeTrack	10.1	SCS215a	20090810.142517	20090810.142755	8	0.013327	60	10	60-180	60	95	GapPrac	1	19	3	1	1	target	1	587	707	14804	13.328	13.293	13.363
ProbeTrack10	3	ProbeTrack	10.1	SCS215a	20090810.142517	20090810.142801	8	0.013327	60	10	60-180	60	128	GapPrac	1	20	3	75	0	distractor	1	640	680	15484	13.328	13.292	13.363
ProbeTrack10	3	ProbeTrack	10.1	SCS215a	20090810.142838	20090810.142846	8	0.013328	60	10	60-180	60	99	GapPrac	1	1	3	4	0	distractor	1	627	687	16171	13.327	13.292	13.363
ProbeTrack10	3	ProbeTrack	10.1	SCS215a	20090810.142838	20090810.142853	8	0.013328	60	10	60-180	60	174	GapPrac	1	2	3	75	1	distractor	0	573	-1000	15171	13.328	13.293	13.363
ProbeTrack10	3	ProbeTrack	10.1	SCS215a	20090810.142838	20090810.142901	8	0.013328	60	10	60-180	60	84	GapPrac	1	3	3	0	0	target	0	720	-1000	14171	13.328	13.293	13.363
ProbeTrack10	3	ProbeTrack	10.1	SCS215a	20090810.142838	20090810.142907	8	0.013328	60	10	60-180	60	80	GapPrac	1	4	3	1	0	distractor	1	787	607	14778	13.327	13.293	13.362
ProbeTrack10	3	ProbeTrack	10.1	SCS215a	20090810.142838	20090810.142913	8	0.013328	60	10	60-180	60	105	GapPrac	1	5	3	2	0	distractor	1	667	667	15445	13.328	13.293	13.363
ProbeTrack10	3	ProbeTrack	10.1	SCS215a	20090810.142838	20090810.142920	8	0.013328	60	10	60-180	60	116	GapPrac	1	6	3	0	1	distractor	0	547	-1000	14445	13.328	13.293	13.363
ProbeTrack10	3	ProbeTrack	10.1	SCS215a	20090810.142838	20090810.142927	8	0.013328	60	10	60-180	60	62	GapPrac	1	7	3	4	1	target	1	653	674	15119	13.327	13.292	13.363
ProbeTrack10	3	ProbeTrack	10.1	SCS215a	20090810.142838	20090810.142932	8	0.013328	60	10	60-180	60	157	GapPrac	1	8	3	1	0	distractor	1	613	694	15813	13.328	13.293	13.363
ProbeTrack10	3	ProbeTrack	10.1	SCS215a	20090810.142838	20090810.142939	8	0.013328	60	10	60-180	60	138	GapPrac	1	9	3	0	0	distractor	1	747	627	16440	13.328	13.293	13.363
ProbeTrack10	3	ProbeTrack	10.1	SCS215a	20090810.142838	20090810.142946	8	0.013328	60	10	60-180	60	168	GapPrac	1	10	3	2	0	distractor	1	653	674	17114	13.328	13.293	13.363
ProbeTrack10	3	ProbeTrack	10.1	SCS215a	20090810.142838	20090810.142953	8	0.013328	60	10	60-180	60	155	GapPrac	1	11	3	1	1	distractor	0	547	-1000	16114	13.328	13.293	13.365
ProbeTrack10	3	ProbeTrack	10.1	SCS215a	20090810.142838	20090810.143000	8	0.013328	60	10	60-180	60	167	GapPrac	1	12	3	75	0	target	0	787	-1000	15114	13.328	13.292	13.363
ProbeTrack10	3	ProbeTrack	10.1	SCS215a	20090810.142838	20090810.143008	8	0.013328	60	10	60-180	60	110	GapPrac	1	13	3	4	1	target	1	733	634	15748	13.328	13.293	13.363
ProbeTrack10	3	ProbeTrack	10.1	SCS215a	20090810.142838	20090810.143015	8	0.013328	60	10	60-180	60	81	GapPrac	1	14	3	75	0	target	0	560	-1000	14748	13.328	13.292	13.363
ProbeTrack10	3	ProbeTrack	10.1	SCS215a	20090810.142838	20090810.143021	8	0.013328	60	10	60-180	60	90	GapPrac	1	15	3	0	1	target	1	747	627	15375	13.327	13.292	13.363
ProbeTrack10	3	ProbeTrack	10.1	SCS215a	20090810.142838	20090810.143027	8	0.013328	60	10	60-180	60	64	GapPrac	1	16	3	4	0	distractor	1	627	687	16062	13.328	13.293	13.363
ProbeTrack10	3	ProbeTrack	10.1	SCS215a	20090810.142838	20090810.143033	8	0.013328	60	10	60-180	60	163	GapPrac	1	17	3	2	1	distractor	0	840	-1000	15062	13.328	13.293	13.362
ProbeTrack10	3	ProbeTrack	10.1	SCS215a	20090810.142838	20090810.143040	8	0.013328	60	10	60-180	60	105	GapPrac	1	18	3	75	1	target	1	454	773	15835	13.328	13.293	13.363
ProbeTrack10	3	ProbeTrack	10.1	SCS215a	20090810.142838	20090810.143047	8	0.013328	60	10	60-180	60	82	GapPrac	1	19	3	1	1	target	1	680	660	16495	13.328	13.293	13.363
ProbeTrack10	3	ProbeTrack	10.1	SCS215a	20090810.142838	20090810.143053	8	0.013328	60	10	60-180	60	82	GapPrac	1	20	3	2	1	target	1	494	753	17248	13.328	13.292	13.363
ProbeTrack10	3	ProbeTrack	10.1	SCS215a	20090810.143149	20090810.143222	8	0.013328	60	10	60-180	60	71	GapExp	1	1	3	1	0	distractor	1	653	674	17922	13.328	13.292	13.364
ProbeTrack10	3	ProbeTrack	10.1	SCS215a	20090810.143149	20090810.143230	8	0.013328	60	10	60-180	60	146	GapExp	1	2	3	4	1	target	1	667	667	18589	13.328	13.293	13.363
ProbeTrack10	3	ProbeTrack	10.1	SCS215a	20090810.143149	20090810.143237	8	0.013328	60	10	60-180	60	96	GapExp	1	3	3	2	1	target	1	453	774	19363	13.328	13.292	13.363
ProbeTrack10	3	ProbeTrack	10.1	SCS215a	20090810.143149	20090810.143242	8	0.013328	60	10	60-180	60	92	GapExp	1	4	3	0	0	target	0	627	-1000	18363	13.328	13.293	13.363
ProbeTrack10	3	ProbeTrack	10.1	SCS215a	20090810.143149	20090810.143248	8	0.013328	60	10	60-180	60	108	GapExp	1	5	3	1	1	distractor	0	693	-1000	17363	13.328	13.293	13.363
ProbeTrack10	3	ProbeTrack	10.1	SCS215a	20090810.143149	20090810.143254	8	0.013328	60	10	60-180	60	167	GapExp	1	6	3	4	0	target	0	613	-1000	16363	13.328	13.289	13.363
ProbeTrack10	3	ProbeTrack	10.1	SCS215a	20090810.143149	20090810.143301	8	0.013328	60	10	60-180	60	138	GapExp	1	7	3	2	0	distractor	1	640	680	17043	13.328	13.293	13.364
ProbeTrack10	3	ProbeTrack	10.1	SCS215a	20090810.143149	20090810.143308	8	0.013328	60	10	60-180	60	136	GapExp	1	8	3	0	1	target	1	867	567	17610	13.328	13.293	13.363
ProbeTrack10	3	ProbeTrack	10.1	SCS215a	20090810.143149	20090810.143315	8	0.013328	60	10	60-180	60	160	GapExp	1	9	3	75	0	target	0	573	-1000	16610	13.328	13.286	13.369
ProbeTrack10	3	ProbeTrack	10.1	SCS215a	20090810.143149	20090810.143323	8	0.013328	60	10	60-180	60	61	GapExp	1	10	3	75	1	distractor	0	547	-1000	15610	13.328	13.289	13.363
ProbeTrack10	3	ProbeTrack	10.1	SCS215a	20090810.143149	20090810.143329	8	0.013328	60	10	60-180	60	106	GapExp	0	11	3	1	1	target	1	800	600	16210	13.328	13.290	13.363
ProbeTrack10	3	ProbeTrack	10.1	SCS215a	20090810.143149	20090810.143336	8	0.013328	60	10	60-180	60	61	GapExp	0	12	3	1	1	target	1	507	747	16957	13.328	13.293	13.363
ProbeTrack10	3	ProbeTrack	10.1	SCS215a	20090810.143149	20090810.143341	8	0.013328	60	10	60-180	60	78	GapExp	0	13	3	75	1	distractor	0	747	-1000	15957	13.328	13.293	13.363
ProbeTrack10	3	ProbeTrack	10.1	SCS215a	20090810.143149	20090810.143348	8	0.013328	60	10	60-180	60	69	GapExp	0	14	3	1	1	target	1	680	660	16617	13.328	13.291	13.362
ProbeTrack10	3	ProbeTrack	10.1	SCS215a	20090810.143149	20090810.143354	8	0.013328	60	10	60-180	60	136	GapExp	0	15	3	1	0	distractor	1	640	680	17297	13.328	13.293	13.363
ProbeTrack10	3	ProbeTrack	10.1	SCS215a	20090810.143149	20090810.143400	8	0.013328	60	10	60-180	60	96	GapExp	0	16	3	0	0	distractor	1	787	607	17904	13.328	13.293	13.363
ProbeTrack10	3	ProbeTrack	10.1	SCS215a	20090810.143149	20090810.143406	8	0.013328	60	10	60-180	60	81	GapExp	0	17	3	1	0	target	0	667	-1000	16904	13.328	13.293	13.363
ProbeTrack10	3	ProbeTrack	10.1	SCS215a	20090810.143149	20090810.143412	8	0.013328	60	10	60-180	60	105	GapExp	0	18	3	2	0	distractor	1	520	740	17644	13.327	13.293	13.363
ProbeTrack10	3	ProbeTrack	10.1	SCS215a	20090810.143149	20090810.143418	8	0.013328	60	10	60-180	60	122	GapExp	0	19	3	75	1	distractor	0	600	-1000	16644	13.328	13.293	13.363
ProbeTrack10	3	ProbeTrack	10.1	SCS215a	20090810.143149	20090810.143425	8	0.013328	60	10	60-180	60	178	GapExp	0	20	3	2	0	target	0	707	-1000	15644	13.328	13.293	13.364
ProbeTrack10	3	ProbeTrack	10.1	SCS215a	20090810.143149	20090810.143432	8	0.013328	60	10	60-180	60	134	GapExp	0	21	3	4	0	target	0	893	-1000	14644	13.328	13.289	13.366
ProbeTrack10	3	ProbeTrack	10.1	SCS215a	20090810.143149	20090810.143439	8	0.013328	60	10	60-180	60	140	GapExp	0	22	3	0	0	distractor	1	853	574	15218	13.328	13.292	13.363
ProbeTrack10	3	ProbeTrack	10.1	SCS215a	20090810.143149	20090810.143446	8	0.013328	60	10	60-180	60	136	GapExp	0	23	3	4	1	target	1	733	634	15852	13.328	13.293	13.363
ProbeTrack10	3	ProbeTrack	10.1	SCS215a	20090810.143149	20090810.143453	8	0.013328	60	10	60-180	60	110	GapExp	0	24	3	1	1	target	1	640	680	16532	13.328	13.293	13.366
ProbeTrack10	3	ProbeTrack	10.1	SCS215a	20090810.143149	20090810.143459	8	0.013328	60	10	60-180	60	169	GapExp	0	25	3	2	1	target	1	800	600	17132	13.328	13.292	13.363
ProbeTrack10	3	ProbeTrack	10.1	SCS215a	20090810.143149	20090810.143506	8	0.013328	60	10	60-180	60	171	GapExp	0	26	3	4	1	target	1	653	674	17806	13.328	13.293	13.363
ProbeTrack10	3	ProbeTrack	10.1	SCS215a	20090810.143149	20090810.143513	8	0.013328	60	10	60-180	60	104	GapExp	0	27	3	4	1	target	1	613	694	18500	13.328	13.293	13.363
ProbeTrack10	3	ProbeTrack	10.1	SCS215a	20090810.143149	20090810.143519	8	0.013328	60	10	60-180	60	61	GapExp	0	28	3	2	1	distractor	0	760	-1000	17500	13.328	13.293	13.363
ProbeTrack10	3	ProbeTrack	10.1	SCS215a	20090810.143149	20090810.143525	8	0.013328	60	10	60-180	60	111	GapExp	0	29	3	2	1	target	1	467	767	18267	13.328	13.292	13.364
ProbeTrack10	3	ProbeTrack	10.1	SCS215a	20090810.143149	20090810.143531	8	0.013328	60	10	60-180	60	145	GapExp	0	30	3	75	1	target	1	507	747	19014	13.328	13.293	13.363
ProbeTrack10	3	ProbeTrack	10.1	SCS215a	20090810.143149	20090810.143538	8	0.013328	60	10	60-180	60	111	GapExp	0	31	3	75	0	target	0	587	-1000	18014	13.328	13.293	13.363
ProbeTrack10	3	ProbeTrack	10.1	SCS215a	20090810.143149	20090810.143546	8	0.013328	60	10	60-180	60	167	GapExp	0	32	3	4	1	target	1	587	707	18721	13.328	13.293	13.363
ProbeTrack10	3	ProbeTrack	10.1	SCS215a	20090810.143149	20090810.143552	8	0.013328	60	10	60-180	60	61	GapExp	0	33	3	4	1	distractor	0	787	-1000	17721	13.328	13.293	13.363
ProbeTrack10	3	ProbeTrack	10.1	SCS215a	20090810.143149	20090810.143558	8	0.013328	60	10	60-180	60	99	GapExp	0	34	3	4	0	distractor	1	773	614	18335	13.327	13.293	13.363
ProbeTrack10	3	ProbeTrack	10.1	SCS215a	20090810.143149	20090810.143604	8	0.013328	60	10	60-180	60	151	GapExp	0	35	3	4	1	target	1	560	720	19055	13.328	13.293	13.363
ProbeTrack10	3	ProbeTrack	10.1	SCS215a	20090810.143149	20090810.143611	8	0.013328	60	10	60-180	60	112	GapExp	0	36	3	75	0	target	0	534	-1000	18055	13.328	13.293	13.363
ProbeTrack10	3	ProbeTrack	10.1	SCS215a	20090810.143149	20090810.143618	8	0.013328	60	10	60-180	60	162	GapExp	0	37	3	0	0	distractor	1	627	687	18742	13.328	13.289	13.365
ProbeTrack10	3	ProbeTrack	10.1	SCS215a	20090810.143149	20090810.143625	8	0.013328	60	10	60-180	60	166	GapExp	0	38	3	1	1	target	1	627	687	19429	13.328	13.292	13.363
ProbeTrack10	3	ProbeTrack	10.1	SCS215a	20090810.143149	20090810.143632	8	0.013328	60	10	60-180	60	124	GapExp	0	39	3	75	1	distractor	0	773	-1000	18429	13.328	13.293	13.363
ProbeTrack10	3	ProbeTrack	10.1	SCS215a	20090810.143149	20090810.143639	8	0.013328	60	10	60-180	60	69	GapExp	0	40	3	1	1	target	1	494	753	19182	13.328	13.293	13.363
ProbeTrack10	3	ProbeTrack	10.1	SCS215a	20090810.143149	20090810.143646	8	0.013328	60	10	60-180	60	165	GapExp	0	41	3	75	1	target	1	520	740	19922	13.328	13.293	13.366
ProbeTrack10	3	ProbeTrack	10.1	SCS215a	20090810.143149	20090810.143653	8	0.013328	60	10	60-180	60	161	GapExp	0	42	3	4	0	target	0	613	-1000	18922	13.328	13.293	13.363
ProbeTrack10	3	ProbeTrack	10.1	SCS215a	20090810.143149	20090810.143700	8	0.013328	60	10	60-180	60	179	GapExp	0	43	3	75	1	target	1	560	720	19642	13.328	13.292	13.364
ProbeTrack10	3	ProbeTrack	10.1	SCS215a	20090810.143149	20090810.143708	8	0.013328	60	10	60-180	60	92	GapExp	0	44	3	1	1	target	1	560	720	20362	13.328	13.293	13.363
ProbeTrack10	3	ProbeTrack	10.1	SCS215a	20090810.143149	20090810.143714	8	0.013328	60	10	60-180	60	148	GapExp	0	45	3	4	1	distractor	0	600	-1000	19362	13.328	13.290	13.363
ProbeTrack10	3	ProbeTrack	10.1	SCS215a	20090810.143149	20090810.143721	8	0.013328	60	10	60-180	60	142	GapExp	0	46	3	1	0	target	0	840	-1000	18362	13.328	13.293	13.363
ProbeTrack10	3	ProbeTrack	10.1	SCS215a	20090810.143149	20090810.143728	8	0.013328	60	10	60-180	60	68	GapExp	0	47	3	2	0	target	0	494	-1000	17362	13.327	13.292	13.363
ProbeTrack10	3	ProbeTrack	10.1	SCS215a	20090810.143149	20090810.143733	8	0.013328	60	10	60-180	60	122	GapExp	0	48	3	75	0	target	0	733	-1000	16362	13.328	13.286	13.362
ProbeTrack10	3	ProbeTrack	10.1	SCS215a	20090810.143149	20090810.143741	8	0.013328	60	10	60-180	60	172	GapExp	0	49	3	4	0	distractor	1	574	713	17075	13.328	13.293	13.363
ProbeTrack10	3	ProbeTrack	10.1	SCS215a	20090810.143149	20090810.143748	8	0.013328	60	10	60-180	60	108	GapExp	0	50	3	75	0	distractor	1	507	747	17822	13.328	13.293	13.363
ProbeTrack10	3	ProbeTrack	10.1	SCS215a	20090810.143149	20090810.143755	8	0.013328	60	10	60-180	60	73	GapExp	0	51	3	75	0	target	0	653	-1000	16822	13.328	13.293	13.363
ProbeTrack10	3	ProbeTrack	10.1	SCS215a	20090810.143149	20090810.143802	8	0.013328	60	10	60-180	60	78	GapExp	0	52	3	2	0	target	0	547	-1000	15822	13.328	13.293	13.363
ProbeTrack10	3	ProbeTrack	10.1	SCS215a	20090810.143149	20090810.143808	8	0.013328	60	10	60-180	60	85	GapExp	0	53	3	0	1	distractor	0	760	-1000	14822	13.328	13.292	13.363
ProbeTrack10	3	ProbeTrack	10.1	SCS215a	20090810.143149	20090810.143814	8	0.013328	60	10	60-180	60	138	GapExp	0	54	3	75	0	target	0	427	-1000	13822	13.328	13.293	13.363
ProbeTrack10	3	ProbeTrack	10.1	SCS215a	20090810.143149	20090810.143821	8	0.013328	60	10	60-180	60	115	GapExp	0	55	3	2	1	target	1	573	714	14536	13.328	13.293	13.363
ProbeTrack10	3	ProbeTrack	10.1	SCS215a	20090810.143149	20090810.143827	8	0.013328	60	10	60-180	60	109	GapExp	0	56	3	0	0	target	0	560	-1000	13536	13.327	13.293	13.363
ProbeTrack10	3	ProbeTrack	10.1	SCS215a	20090810.143149	20090810.143833	8	0.013328	60	10	60-180	60	129	GapExp	0	57	3	1	0	distractor	1	680	660	14196	13.328	13.293	13.363
ProbeTrack10	3	ProbeTrack	10.1	SCS215a	20090810.143149	20090810.143840	8	0.013328	60	10	60-180	60	99	GapExp	0	58	3	4	1	target	1	640	680	14876	13.328	13.293	13.363
ProbeTrack10	3	ProbeTrack	10.1	SCS215a	20090810.143149	20090810.143846	8	0.013328	60	10	60-180	60	170	GapExp	0	59	3	2	1	target	1	600	700	15576	13.328	13.293	13.363
ProbeTrack10	3	ProbeTrack	10.1	SCS215a	20090810.143149	20090810.143853	8	0.013328	60	10	60-180	60	161	GapExp	0	60	3	4	1	target	1	560	720	16296	13.328	13.293	13.363
ProbeTrack10	3	ProbeTrack	10.1	SCS215a	20090810.143149	20090810.143900	8	0.013328	60	10	60-180	60	125	GapExp	0	61	3	2	0	target	0	454	-1000	15296	13.328	13.293	13.363
ProbeTrack10	3	ProbeTrack	10.1	SCS215a	20090810.143149	20090810.143906	8	0.013328	60	10	60-180	60	85	GapExp	0	62	3	75	1	target	1	613	694	15990	13.328	13.292	13.363
ProbeTrack10	3	ProbeTrack	10.1	SCS215a	20090810.143149	20090810.143912	8	0.013328	60	10	60-180	60	126	GapExp	0	63	3	1	1	target	1	480	760	16750	13.328	13.293	13.363
ProbeTrack10	3	ProbeTrack	10.1	SCS215a	20090810.143149	20090810.143919	8	0.013328	60	10	60-180	60	98	GapExp	0	64	3	2	0	distractor	1	734	633	17383	13.328	13.293	13.363
ProbeTrack10	3	ProbeTrack	10.1	SCS215a	20090810.143149	20090810.143925	8	0.013328	60	10	60-180	60	177	GapExp	0	65	3	0	1	target	1	760	620	18003	13.328	13.293	13.363
ProbeTrack10	3	ProbeTrack	10.1	SCS215a	20090810.143149	20090810.143935	8	0.013328	60	10	60-180	60	150	GapExp	0	66	3	0	0	distractor	1	614	693	18696	13.328	13.291	13.364
ProbeTrack10	3	ProbeTrack	10.1	SCS215a	20090810.143149	20090810.143941	8	0.013328	60	10	60-180	60	177	GapExp	0	67	3	0	0	distractor	1	614	693	19389	13.328	13.293	13.367
ProbeTrack10	3	ProbeTrack	10.1	SCS215a	20090810.143149	20090810.143949	8	0.013328	60	10	60-180	60	162	GapExp	0	68	3	75	1	target	1	680	660	20049	13.328	13.293	13.363
ProbeTrack10	3	ProbeTrack	10.1	SCS215a	20090810.143149	20090810.143956	8	0.013328	60	10	60-180	60	64	GapExp	0	69	3	0	1	target	1	573	714	20763	13.328	13.291	13.365
ProbeTrack10	3	ProbeTrack	10.1	SCS215a	20090810.143149	20090810.144002	8	0.013328	60	10	60-180	60	151	GapExp	0	70	3	75	0	target	0	587	-1000	19763	13.328	13.281	13.363
ProbeTrack10	3	ProbeTrack	10.1	SCS215a	20090810.143149	20090810.144009	8	0.013328	60	10	60-180	60	149	GapExp	0	71	3	75	1	target	1	520	740	20503	13.328	13.293	13.363
ProbeTrack10	3	ProbeTrack	10.1	SCS215a	20090810.143149	20090810.144017	8	0.013328	60	10	60-180	60	157	GapExp	0	72	3	0	1	target	1	520	740	21243	13.328	13.293	13.363
ProbeTrack10	3	ProbeTrack	10.1	SCS215a	20090810.143149	20090810.144024	8	0.013328	60	10	60-180	60	108	GapExp	0	73	3	2	0	distractor	1	680	660	21903	13.328	13.293	13.363
ProbeTrack10	3	ProbeTrack	10.1	SCS215a	20090810.143149	20090810.144030	8	0.013328	60	10	60-180	60	101	GapExp	0	74	3	4	1	target	1	600	700	22603	13.328	13.293	13.364
ProbeTrack10	3	ProbeTrack	10.1	SCS215a	20090810.143149	20090810.144037	8	0.013328	60	10	60-180	60	104	GapExp	0	75	3	4	1	target	1	507	747	23350	13.328	13.292	13.363
ProbeTrack10	3	ProbeTrack	10.1	SCS215a	20090810.143149	20090810.144043	8	0.013328	60	10	60-180	60	166	GapExp	0	76	3	4	0	target	0	653	-1000	22350	13.328	13.293	13.363
ProbeTrack10	3	ProbeTrack	10.1	SCS215a	20090810.143149	20090810.144050	8	0.013328	60	10	60-180	60	89	GapExp	0	77	3	1	1	target	1	507	747	23097	13.328	13.290	13.363
ProbeTrack10	3	ProbeTrack	10.1	SCS215a	20090810.143149	20090810.144056	8	0.013328	60	10	60-180	60	95	GapExp	0	78	3	0	1	target	1	494	753	23850	13.327	13.293	13.363
ProbeTrack10	3	ProbeTrack	10.1	SCS215a	20090810.143149	20090810.144102	8	0.013328	60	10	60-180	60	171	GapExp	0	79	3	4	0	distractor	1	587	707	24557	13.328	13.293	13.363
ProbeTrack10	3	ProbeTrack	10.1	SCS215a	20090810.143149	20090810.144109	8	0.013328	60	10	60-180	60	103	GapExp	0	80	3	0	0	distractor	1	680	660	25217	13.328	13.293	13.363
ProbeTrack10	3	ProbeTrack	10.1	SCS215a	20090810.143149	20090810.144115	8	0.013328	60	10	60-180	60	142	GapExp	0	81	3	75	1	distractor	0	760	-1000	24217	13.328	13.293	13.363
ProbeTrack10	3	ProbeTrack	10.1	SCS215a	20090810.143149	20090810.144123	8	0.013328	60	10	60-180	60	129	GapExp	0	82	3	75	1	target	1	613	694	24911	13.328	13.290	13.363
ProbeTrack10	3	ProbeTrack	10.1	SCS215a	20090810.143149	20090810.144130	8	0.013328	60	10	60-180	60	111	GapExp	0	83	3	1	1	target	1	560	720	25631	13.328	13.293	13.367
ProbeTrack10	3	ProbeTrack	10.1	SCS215a	20090810.143149	20090810.144136	8	0.013328	60	10	60-180	60	174	GapExp	0	84	3	2	1	target	1	627	687	26318	13.328	13.293	13.363
ProbeTrack10	3	ProbeTrack	10.1	SCS215a	20090810.143149	20090810.144143	8	0.013328	60	10	60-180	60	88	GapExp	0	85	3	1	1	target	1	600	700	27018	13.328	13.293	13.363
ProbeTrack10	3	ProbeTrack	10.1	SCS215a	20090810.143149	20090810.144149	8	0.013328	60	10	60-180	60	149	GapExp	0	86	3	75	0	distractor	1	680	660	27678	13.328	13.293	13.363
ProbeTrack10	3	ProbeTrack	10.1	SCS215a	20090810.143149	20090810.144158	8	0.013328	60	10	60-180	60	72	GapExp	0	87	3	0	1	target	1	693	654	28332	13.328	13.288	13.367
ProbeTrack10	3	ProbeTrack	10.1	SCS215a	20090810.143149	20090810.144203	8	0.013328	60	10	60-180	60	63	GapExp	0	88	3	2	0	distractor	1	640	680	29012	13.327	13.293	13.363
ProbeTrack10	3	ProbeTrack	10.1	SCS215a	20090810.143149	20090810.144209	8	0.013328	60	10	60-180	60	161	GapExp	0	89	3	1	1	target	1	653	674	29686	13.328	13.293	13.364
ProbeTrack10	3	ProbeTrack	10.1	SCS215a	20090810.143149	20090810.144216	8	0.013328	60	10	60-180	60	80	GapExp	0	90	3	1	1	target	1	627	687	30373	13.328	13.289	13.363
ProbeTrack10	3	ProbeTrack	10.1	SCS215a	20090810.143149	20090810.144222	8	0.013328	60	10	60-180	60	91	GapExp	0	91	3	0	0	distractor	1	573	714	31087	13.328	13.292	13.363
ProbeTrack10	3	ProbeTrack	10.1	SCS215a	20090810.143149	20090810.144228	8	0.013328	60	10	60-180	60	146	GapExp	0	92	3	2	0	target	0	574	-1000	30087	13.328	13.293	13.363
ProbeTrack10	3	ProbeTrack	10.1	SCS215a	20090810.143149	20090810.144235	8	0.013328	60	10	60-180	60	63	GapExp	0	93	3	1	1	target	1	587	707	30794	13.327	13.293	13.362
ProbeTrack10	3	ProbeTrack	10.1	SCS215a	20090810.143149	20090810.144241	8	0.013328	60	10	60-180	60	79	GapExp	0	94	3	4	0	distractor	1	813	594	31388	13.327	13.292	13.363
ProbeTrack10	3	ProbeTrack	10.1	SCS215a	20090810.143149	20090810.144247	8	0.013328	60	10	60-180	60	141	GapExp	0	95	3	0	1	target	1	534	733	32121	13.328	13.293	13.363
ProbeTrack10	3	ProbeTrack	10.1	SCS215a	20090810.143149	20090810.144253	8	0.013328	60	10	60-180	60	157	GapExp	0	96	3	1	0	distractor	1	667	667	32788	13.328	13.293	13.363
ProbeTrack10	3	ProbeTrack	10.1	SCS215a	20090810.143149	20090810.144300	8	0.013328	60	10	60-180	60	175	GapExp	0	97	3	75	0	target	0	640	-1000	31788	13.328	13.293	13.363
ProbeTrack10	3	ProbeTrack	10.1	SCS215a	20090810.143149	20090810.144308	8	0.013328	60	10	60-180	60	178	GapExp	0	98	3	4	0	target	0	613	-1000	30788	13.328	13.293	13.365
ProbeTrack10	3	ProbeTrack	10.1	SCS215a	20090810.143149	20090810.144315	8	0.013328	60	10	60-180	60	176	GapExp	0	99	3	1	0	target	0	614	-1000	29788	13.328	13.292	13.363
ProbeTrack10	3	ProbeTrack	10.1	SCS215a	20090810.143149	20090810.144322	8	0.013328	60	10	60-180	60	113	GapExp	0	100	3	0	0	distractor	1	667	667	30455	13.328	13.293	13.363
ProbeTrack10	3	ProbeTrack	10.1	SCS215a	20090810.143149	20090810.144613	8	0.013328	60	10	60-180	60	105	GapExp	0	101	3	0	0	target	0	760	-1000	29455	13.328	13.293	13.363
ProbeTrack10	3	ProbeTrack	10.1	SCS215a	20090810.143149	20090810.144619	8	0.013328	60	10	60-180	60	136	GapExp	0	102	3	4	1	distractor	0	800	-1000	28455	13.328	13.290	13.366
ProbeTrack10	3	ProbeTrack	10.1	SCS215a	20090810.143149	20090810.144626	8	0.013328	60	10	60-180	60	155	GapExp	0	103	3	75	1	target	1	600	700	29155	13.328	13.293	13.364
ProbeTrack10	3	ProbeTrack	10.1	SCS215a	20090810.143149	20090810.144633	8	0.013328	60	10	60-180	60	99	GapExp	0	104	3	1	0	distractor	1	667	667	29822	13.328	13.293	13.363
ProbeTrack10	3	ProbeTrack	10.1	SCS215a	20090810.143149	20090810.144639	8	0.013328	60	10	60-180	60	148	GapExp	0	105	3	2	1	target	1	747	627	30449	13.328	13.293	13.363
ProbeTrack10	3	ProbeTrack	10.1	SCS215a	20090810.143149	20090810.144646	8	0.013328	60	10	60-180	60	103	GapExp	0	106	3	4	1	target	1	720	640	31089	13.328	13.293	13.363
ProbeTrack10	3	ProbeTrack	10.1	SCS215a	20090810.143149	20090810.144652	8	0.013328	60	10	60-180	60	165	GapExp	0	107	3	2	1	target	1	560	720	31809	13.328	13.290	13.367
ProbeTrack10	3	ProbeTrack	10.1	SCS215a	20090810.143149	20090810.144659	8	0.013328	60	10	60-180	60	86	GapExp	0	108	3	4	0	distractor	1	560	720	32529	13.327	13.293	13.363
ProbeTrack10	3	ProbeTrack	10.1	SCS215a	20090810.143149	20090810.144704	8	0.013328	60	10	60-180	60	130	GapExp	0	109	3	2	1	target	1	534	733	33262	13.328	13.290	13.363
ProbeTrack10	3	ProbeTrack	10.1	SCS215a	20090810.143149	20090810.144711	8	0.013328	60	10	60-180	60	104	GapExp	0	110	3	4	0	distractor	1	600	700	33962	13.328	13.293	13.363
ProbeTrack10	3	ProbeTrack	10.1	SCS215a	20090810.143149	20090810.144717	8	0.013328	60	10	60-180	60	167	GapExp	0	111	3	75	1	target	1	574	713	34675	13.328	13.293	13.363
ProbeTrack10	3	ProbeTrack	10.1	SCS215a	20090810.143149	20090810.144724	8	0.013328	60	10	60-180	60	116	GapExp	0	112	3	1	0	distractor	1	653	674	35349	13.328	13.293	13.363
ProbeTrack10	3	ProbeTrack	10.1	SCS215a	20090810.143149	20090810.144731	8	0.013328	60	10	60-180	60	67	GapExp	0	113	3	4	0	distractor	1	587	707	36056	13.328	13.293	13.363
ProbeTrack10	3	ProbeTrack	10.1	SCS215a	20090810.143149	20090810.144736	8	0.013328	60	10	60-180	60	101	GapExp	0	114	3	0	1	target	1	640	680	36736	13.328	13.292	13.363
ProbeTrack10	3	ProbeTrack	10.1	SCS215a	20090810.143149	20090810.144742	8	0.013328	60	10	60-180	60	91	GapExp	0	115	3	2	1	target	1	547	727	37463	13.327	13.293	13.363
ProbeTrack10	3	ProbeTrack	10.1	SCS215a	20090810.143149	20090810.144747	8	0.013328	60	10	60-180	60	128	GapExp	0	116	3	1	0	distractor	1	573	714	38177	13.328	13.291	13.364
ProbeTrack10	3	ProbeTrack	10.1	SCS215a	20090810.143149	20090810.144855	8	0.013328	60	10	60-180	60	156	GapExp	0	117	3	0	0	target	0	720	-1000	37177	13.328	13.293	13.363
ProbeTrack10	3	ProbeTrack	10.1	SCS215a	20090810.143149	20090810.144902	8	0.013328	60	10	60-180	60	119	GapExp	0	118	3	0	0	distractor	1	520	740	37917	13.328	13.293	13.366
ProbeTrack10	3	ProbeTrack	10.1	SCS215a	20090810.143149	20090810.144908	8	0.013328	60	10	60-180	60	97	GapExp	0	119	3	4	1	target	1	627	687	38604	13.328	13.293	13.363
ProbeTrack10	3	ProbeTrack	10.1	SCS215a	20090810.143149	20090810.144914	8	0.013328	60	10	60-180	60	73	GapExp	0	120	3	0	0	distractor	1	507	747	39351	13.328	13.293	13.363
ProbeTrack10	3	ProbeTrack	10.1	SCS215a	20090810.143149	20090810.144920	8	0.013328	60	10	60-180	60	135	GapExp	0	121	3	1	0	distractor	1	600	700	40051	13.328	13.293	13.363
ProbeTrack10	3	ProbeTrack	10.1	SCS215a	20090810.143149	20090810.144927	8	0.013328	60	10	60-180	60	77	GapExp	0	122	3	4	1	target	1	653	674	40725	13.328	13.290	13.363
ProbeTrack10	3	ProbeTrack	10.1	SCS215a	20090810.143149	20090810.144932	8	0.013328	60	10	60-180	60	84	GapExp	0	123	3	2	0	distractor	1	520	740	41465	13.328	13.293	13.362
ProbeTrack10	3	ProbeTrack	10.1	SCS215a	20090810.143149	20090810.144938	8	0.013328	60	10	60-180	60	61	GapExp	0	124	3	2	0	distractor	1	640	680	42145	13.328	13.293	13.363
ProbeTrack10	3	ProbeTrack	10.1	SCS215a	20090810.143149	20090810.144944	8	0.013328	60	10	60-180	60	160	GapExp	0	125	3	0	1	target	1	534	733	42878	13.328	13.293	13.363
ProbeTrack10	3	ProbeTrack	10.1	SCS215a	20090810.143149	20090810.144950	8	0.013328	60	10	60-180	60	157	GapExp	0	126	3	75	0	target	0	480	-1000	41878	13.328	13.292	13.363
ProbeTrack10	3	ProbeTrack	10.1	SCS215a	20090810.143149	20090810.144958	8	0.013328	60	10	60-180	60	63	GapExp	0	127	3	75	1	target	1	534	733	42611	13.328	13.293	13.363
ProbeTrack10	3	ProbeTrack	10.1	SCS215a	20090810.143149	20090810.145004	8	0.013328	60	10	60-180	60	113	GapExp	0	128	3	0	0	target	0	613	-1000	41611	13.328	13.292	13.363
ProbeTrack10	3	ProbeTrack	10.1	SCS215a	20090810.143149	20090810.145010	8	0.013328	60	10	60-180	60	94	GapExp	0	129	3	2	0	distractor	1	653	674	42285	13.328	13.293	13.363
ProbeTrack10	3	ProbeTrack	10.1	SCS215a	20090810.143149	20090810.145016	8	0.013328	60	10	60-180	60	108	GapExp	0	130	3	0	1	target	1	560	720	43005	13.328	13.293	13.363
ProbeTrack10	3	ProbeTrack	10.1	SCS215a	20090810.143149	20090810.145023	8	0.013328	60	10	60-180	60	106	GapExp	0	131	3	4	1	target	1	987	507	43512	13.328	13.293	13.363
ProbeTrack10	3	ProbeTrack	10.1	SCS215a	20090810.143149	20090810.145029	8	0.013328	60	10	60-180	60	137	GapExp	0	132	3	1	0	distractor	1	760	620	44132	13.328	13.293	13.363
ProbeTrack10	3	ProbeTrack	10.1	SCS215a	20090810.143149	20090810.145036	8	0.013328	60	10	60-180	60	107	GapExp	0	133	3	4	0	distractor	1	773	614	44746	13.328	13.293	13.363
ProbeTrack10	3	ProbeTrack	10.1	SCS215a	20090810.143149	20090810.145042	8	0.013328	60	10	60-180	60	70	GapExp	0	134	3	2	0	target	0	680	-1000	43746	13.328	13.293	13.363
ProbeTrack10	3	ProbeTrack	10.1	SCS215a	20090810.143149	20090810.145048	8	0.013328	60	10	60-180	60	159	GapExp	0	135	3	75	0	target	0	534	-1000	42746	13.328	13.293	13.363
ProbeTrack10	3	ProbeTrack	10.1	SCS215a	20090810.143149	20090810.145055	8	0.013328	60	10	60-180	60	156	GapExp	0	136	3	75	0	distractor	1	653	674	43420	13.328	13.292	13.363
ProbeTrack10	3	ProbeTrack	10.1	SCS215a	20090810.143149	20090810.145103	8	0.013328	60	10	60-180	60	172	GapExp	0	137	3	75	0	distractor	1	693	654	44074	13.328	13.293	13.363
ProbeTrack10	3	ProbeTrack	10.1	SCS215a	20090810.143149	20090810.145111	8	0.013328	60	10	60-180	60	113	GapExp	0	138	3	75	1	target	1	813	594	44668	13.328	13.293	13.363
ProbeTrack10	3	ProbeTrack	10.1	SCS215a	20090810.143149	20090810.145119	8	0.013328	60	10	60-180	60	123	GapExp	0	139	3	4	0	distractor	1	720	640	45308	13.328	13.293	13.363
ProbeTrack10	3	ProbeTrack	10.1	SCS215a	20090810.143149	20090810.145126	8	0.013328	60	10	60-180	60	104	GapExp	0	140	3	4	0	distractor	1	613	694	46002	13.327	13.292	13.363
ProbeTrack10	3	ProbeTrack	10.1	SCS215a	20090810.143149	20090810.145132	8	0.013328	60	10	60-180	60	144	GapExp	0	141	3	0	0	distractor	1	667	667	46669	13.328	13.291	13.362
ProbeTrack10	3	ProbeTrack	10.1	SCS215a	20090810.143149	20090810.145139	8	0.013328	60	10	60-180	60	157	GapExp	0	142	3	1	1	target	1	827	587	47256	13.328	13.293	13.363
ProbeTrack10	3	ProbeTrack	10.1	SCS215a	20090810.143149	20090810.145146	8	0.013328	60	10	60-180	60	129	GapExp	0	143	3	75	0	distractor	1	574	713	47969	13.328	13.292	13.363
ProbeTrack10	3	ProbeTrack	10.1	SCS215a	20090810.143149	20090810.145153	8	0.013328	60	10	60-180	60	145	GapExp	0	144	3	1	0	distractor	1	707	647	48616	13.328	13.292	13.363
ProbeTrack10	3	ProbeTrack	10.1	SCS215a	20090810.143149	20090810.145200	8	0.013328	60	10	60-180	60	163	GapExp	0	145	3	75	0	target	0	454	-1000	47616	13.328	13.293	13.363
ProbeTrack10	3	ProbeTrack	10.1	SCS215a	20090810.143149	20090810.145208	8	0.013328	60	10	60-180	60	101	GapExp	0	146	3	4	0	distractor	1	600	700	48316	13.328	13.292	13.363
ProbeTrack10	3	ProbeTrack	10.1	SCS215a	20090810.143149	20090810.145214	8	0.013328	60	10	60-180	60	62	GapExp	0	147	3	0	1	target	1	667	667	48983	13.328	13.293	13.363
ProbeTrack10	3	ProbeTrack	10.1	SCS215a	20090810.143149	20090810.145220	8	0.013328	60	10	60-180	60	153	GapExp	0	148	3	2	0	target	0	667	-1000	47983	13.328	13.293	13.366
ProbeTrack10	3	ProbeTrack	10.1	SCS215a	20090810.143149	20090810.145228	8	0.013328	60	10	60-180	60	102	GapExp	0	149	3	2	1	target	1	374	813	48796	13.328	13.293	13.363
ProbeTrack10	3	ProbeTrack	10.1	SCS215a	20090810.143149	20090810.145234	8	0.013328	60	10	60-180	60	102	GapExp	0	150	3	75	0	target	0	547	-1000	47796	13.328	13.292	13.363
ProbeTrack10	3	ProbeTrack	10.1	SCS215a	20090810.143149	20090810.145253	8	0.013328	60	10	60-180	60	89	GapExp	0	151	3	75	1	target	1	427	787	48583	13.328	13.293	13.363
ProbeTrack10	3	ProbeTrack	10.1	SCS215a	20090810.143149	20090810.145300	8	0.013328	60	10	60-180	60	96	GapExp	0	152	3	2	0	target	0	520	-1000	47583	13.327	13.292	13.365
ProbeTrack10	3	ProbeTrack	10.1	SCS215a	20090810.143149	20090810.145306	8	0.013328	60	10	60-180	60	157	GapExp	0	153	3	2	1	target	1	507	747	48330	13.328	13.289	13.363
ProbeTrack10	3	ProbeTrack	10.1	SCS215a	20090810.143149	20090810.145315	8	0.013328	60	10	60-180	60	145	GapExp	0	154	3	1	0	target	0	547	-1000	47330	13.328	13.287	13.366
ProbeTrack10	3	ProbeTrack	10.1	SCS215a	20090810.143149	20090810.145321	8	0.013328	60	10	60-180	60	158	GapExp	0	155	3	2	1	target	1	547	727	48057	13.328	13.292	13.363
ProbeTrack10	3	ProbeTrack	10.1	SCS215a	20090810.143149	20090810.145328	8	0.013328	60	10	60-180	60	163	GapExp	0	156	3	2	0	distractor	1	880	560	48617	13.328	13.292	13.363
ProbeTrack10	3	ProbeTrack	10.1	SCS215a	20090810.143149	20090810.145335	8	0.013328	60	10	60-180	60	80	GapExp	0	157	3	75	0	target	0	573	-1000	47617	13.328	13.293	13.363
ProbeTrack10	3	ProbeTrack	10.1	SCS215a	20090810.143149	20090810.145341	8	0.013328	60	10	60-180	60	86	GapExp	0	158	3	4	0	distractor	1	587	707	48324	13.328	13.292	13.366
ProbeTrack10	3	ProbeTrack	10.1	SCS215a	20090810.143149	20090810.145347	8	0.013328	60	10	60-180	60	172	GapExp	0	159	3	2	1	distractor	0	760	-1000	47324	13.328	13.293	13.363
ProbeTrack10	3	ProbeTrack	10.1	SCS215a	20090810.143149	20090810.145356	8	0.013328	60	10	60-180	60	80	GapExp	0	160	3	1	0	distractor	1	653	674	47998	13.328	13.293	13.363
ProbeTrack10	3	ProbeTrack	10.1	SCS215a	20090810.143149	20090810.145401	8	0.013328	60	10	60-180	60	93	GapExp	0	161	3	0	1	target	1	667	667	48665	13.327	13.293	13.363
ProbeTrack10	3	ProbeTrack	10.1	SCS215a	20090810.143149	20090810.145407	8	0.013328	60	10	60-180	60	63	GapExp	0	162	3	1	1	target	1	534	733	49398	13.327	13.293	13.363
ProbeTrack10	3	ProbeTrack	10.1	SCS215a	20090810.143149	20090810.145414	8	0.013328	60	10	60-180	60	173	GapExp	0	163	3	0	0	target	0	560	-1000	48398	13.328	13.293	13.363
ProbeTrack10	3	ProbeTrack	10.1	SCS215a	20090810.143149	20090810.145421	8	0.013328	60	10	60-180	60	106	GapExp	0	164	3	4	1	target	1	733	634	49032	13.328	13.293	13.363
ProbeTrack10	3	ProbeTrack	10.1	SCS215a	20090810.143149	20090810.145427	8	0.013328	60	10	60-180	60	167	GapExp	0	165	3	2	1	target	1	707	647	49679	13.328	13.293	13.363
ProbeTrack10	3	ProbeTrack	10.1	SCS215a	20090810.143149	20090810.145435	8	0.013328	60	10	60-180	60	174	GapExp	0	166	3	0	1	target	1	760	620	50299	13.328	13.293	13.366
ProbeTrack10	3	ProbeTrack	10.1	SCS215a	20090810.143149	20090810.145442	8	0.013328	60	10	60-180	60	139	GapExp	0	167	3	2	0	distractor	1	667	667	50966	13.328	13.292	13.363
ProbeTrack10	3	ProbeTrack	10.1	SCS215a	20090810.143149	20090810.145449	8	0.013328	60	10	60-180	60	76	GapExp	0	168	3	1	0	distractor	1	653	674	51640	13.328	13.293	13.364
ProbeTrack10	3	ProbeTrack	10.1	SCS215a	20090810.143149	20090810.145454	8	0.013328	60	10	60-180	60	114	GapExp	0	169	3	1	1	target	1	667	667	52307	13.328	13.293	13.363
ProbeTrack10	3	ProbeTrack	10.1	SCS215a	20090810.143149	20090810.145502	8	0.013328	60	10	60-180	60	69	GapExp	0	170	3	1	0	distractor	1	613	694	53001	13.328	13.293	13.363
ProbeTrack10	3	ProbeTrack	10.1	SCS215a	20090810.143149	20090810.145508	8	0.013328	60	10	60-180	60	166	GapExp	0	171	3	0	1	target	1	613	694	53695	13.328	13.293	13.363
ProbeTrack10	3	ProbeTrack	10.1	SCS215a	20090810.143149	20090810.145515	8	0.013328	60	10	60-180	60	111	GapExp	0	172	3	2	1	target	1	773	614	54309	13.328	13.293	13.363
ProbeTrack10	3	ProbeTrack	10.1	SCS215a	20090810.143149	20090810.145521	8	0.013328	60	10	60-180	60	117	GapExp	0	173	3	1	0	distractor	1	587	707	55016	13.328	13.293	13.363
ProbeTrack10	3	ProbeTrack	10.1	SCS215a	20090810.143149	20090810.145528	8	0.013328	60	10	60-180	60	147	GapExp	0	174	3	4	0	target	0	520	-1000	54016	13.328	13.291	13.364
ProbeTrack10	3	ProbeTrack	10.1	SCS215a	20090810.143149	20090810.145534	8	0.013328	60	10	60-180	60	92	GapExp	0	175	3	75	0	distractor	1	653	674	54690	13.328	13.289	13.363
ProbeTrack10	3	ProbeTrack	10.1	SCS215a	20090810.143149	20090810.145541	8	0.013328	60	10	60-180	60	97	GapExp	0	176	3	2	0	target	0	627	-1000	53690	13.328	13.292	13.363
ProbeTrack10	3	ProbeTrack	10.1	SCS215a	20090810.143149	20090810.145547	8	0.013328	60	10	60-180	60	78	GapExp	0	177	3	75	1	target	1	573	714	54404	13.328	13.293	13.363
ProbeTrack10	3	ProbeTrack	10.1	SCS215a	20090810.143149	20090810.145554	8	0.013328	60	10	60-180	60	129	GapExp	0	178	3	1	1	target	1	480	760	55164	13.328	13.293	13.363
ProbeTrack10	3	ProbeTrack	10.1	SCS215a	20090810.143149	20090810.145600	8	0.013328	60	10	60-180	60	161	GapExp	0	179	3	0	0	distractor	1	680	660	55824	13.328	13.293	13.363
ProbeTrack10	3	ProbeTrack	10.1	SCS215a	20090810.143149	20090810.145607	8	0.013328	60	10	60-180	60	109	GapExp	0	180	3	2	0	target	0	600	-1000	54824	13.328	13.290	13.363
ProbeTrack10	3	ProbeTrack	10.1	SCS215a	20090810.143149	20090810.145613	8	0.013328	60	10	60-180	60	63	GapExp	0	181	3	0	1	target	1	667	667	55491	13.328	13.289	13.363
ProbeTrack10	3	ProbeTrack	10.1	SCS215a	20090810.143149	20090810.145619	8	0.013328	60	10	60-180	60	77	GapExp	0	182	3	0	0	distractor	1	640	680	56171	13.327	13.293	13.363
ProbeTrack10	3	ProbeTrack	10.1	SCS215a	20090810.143149	20090810.145624	8	0.013328	60	10	60-180	60	128	GapExp	0	183	3	1	0	distractor	1	600	700	56871	13.328	13.293	13.363
ProbeTrack10	3	ProbeTrack	10.1	SCS215a	20090810.143149	20090810.145630	8	0.013328	60	10	60-180	60	96	GapExp	0	184	3	1	0	distractor	1	653	674	57545	13.328	13.293	13.363
ProbeTrack10	3	ProbeTrack	10.1	SCS215a	20090810.143149	20090810.145637	8	0.013328	60	10	60-180	60	170	GapExp	0	185	3	0	1	target	1	747	627	58172	13.328	13.293	13.363
ProbeTrack10	3	ProbeTrack	10.1	SCS215a	20090810.143149	20090810.145644	8	0.013328	60	10	60-180	60	141	GapExp	0	186	3	1	1	target	1	600	700	58872	13.328	13.293	13.363
ProbeTrack10	3	ProbeTrack	10.1	SCS215a	20090810.143149	20090810.145650	8	0.013328	60	10	60-180	60	179	GapExp	0	187	3	2	1	target	1	587	707	59579	13.328	13.290	13.363
ProbeTrack10	3	ProbeTrack	10.1	SCS215a	20090810.143149	20090810.145657	8	0.013328	60	10	60-180	60	173	GapExp	0	188	3	75	0	distractor	1	640	680	60259	13.328	13.293	13.363
ProbeTrack10	3	ProbeTrack	10.1	SCS215a	20090810.143149	20090810.145707	8	0.013328	60	10	60-180	60	100	GapExp	0	189	3	4	1	target	1	720	640	60899	13.328	13.293	13.363
ProbeTrack10	3	ProbeTrack	10.1	SCS215a	20090810.143149	20090810.145713	8	0.013328	60	10	60-180	60	72	GapExp	0	190	3	0	1	target	1	667	667	61566	13.327	13.293	13.363
ProbeTrack10	3	ProbeTrack	10.1	SCS215a	20090810.143149	20090810.145718	8	0.013328	60	10	60-180	60	126	GapExp	0	191	3	2	1	target	1	547	727	62293	13.328	13.293	13.363
ProbeTrack10	3	ProbeTrack	10.1	SCS215a	20090810.143149	20090810.145725	8	0.013328	60	10	60-180	60	146	GapExp	0	192	3	0	0	target	0	560	-1000	61293	13.328	13.293	13.363
ProbeTrack10	3	ProbeTrack	10.1	SCS215a	20090810.143149	20090810.145731	8	0.013328	60	10	60-180	60	66	GapExp	0	193	3	75	0	distractor	1	587	707	62000	13.328	13.293	13.363
ProbeTrack10	3	ProbeTrack	10.1	SCS215a	20090810.143149	20090810.145738	8	0.013328	60	10	60-180	60	126	GapExp	0	194	3	4	0	distractor	1	800	600	62600	13.328	13.293	13.363
ProbeTrack10	3	ProbeTrack	10.1	SCS215a	20090810.143149	20090810.145744	8	0.013328	60	10	60-180	60	84	GapExp	0	195	3	2	1	target	1	800	600	63200	13.328	13.293	13.363
ProbeTrack10	3	ProbeTrack	10.1	SCS215a	20090810.143149	20090810.145750	8	0.013328	60	10	60-180	60	92	GapExp	0	196	3	75	1	target	1	534	733	63933	13.328	13.292	13.363
ProbeTrack10	3	ProbeTrack	10.1	SCS215a	20090810.143149	20090810.145757	8	0.013328	60	10	60-180	60	106	GapExp	0	197	3	0	0	target	0	587	-1000	62933	13.328	13.293	13.363
ProbeTrack10	3	ProbeTrack	10.1	SCS215a	20090810.143149	20090810.145804	8	0.013328	60	10	60-180	60	69	GapExp	0	198	3	75	1	target	1	640	680	63613	13.328	13.293	13.363
ProbeTrack10	3	ProbeTrack	10.1	SCS215a	20090810.143149	20090810.145810	8	0.013328	60	10	60-180	60	139	GapExp	0	199	3	4	0	distractor	1	560	720	64333	13.328	13.293	13.363
ProbeTrack10	3	ProbeTrack	10.1	SCS215a	20090810.143149	20090810.145816	8	0.013328	60	10	60-180	60	130	GapExp	0	200	3	1	1	target	1	653	674	65007	13.328	13.293	13.363
ProbeTrack10	3	ProbeTrack	10.1	SCS215a	20090810.143149	20090810.145823	8	0.013328	60	10	60-180	60	81	GapExp	0	201	3	1	0	distractor	1	600	700	65707	13.328	13.291	13.363
ProbeTrack10	3	ProbeTrack	10.1	SCS215a	20090810.143149	20090810.145837	8	0.013328	60	10	60-180	60	164	GapExp	0	202	3	4	0	distractor	1	534	733	66440	13.328	13.293	13.364
ProbeTrack10	3	ProbeTrack	10.1	SCS215a	20090810.143149	20090810.145844	8	0.013328	60	10	60-180	60	134	GapExp	0	203	3	4	1	target	1	773	614	67054	13.328	13.293	13.363
ProbeTrack10	3	ProbeTrack	10.1	SCS215a	20090810.143149	20090810.145850	8	0.013328	60	10	60-180	60	155	GapExp	0	204	3	4	1	target	1	547	727	67781	13.328	13.292	13.363
ProbeTrack10	3	ProbeTrack	10.1	SCS215a	20090810.143149	20090810.145857	8	0.013328	60	10	60-180	60	100	GapExp	0	205	3	0	1	target	1	587	707	68488	13.327	13.293	13.363
ProbeTrack10	3	ProbeTrack	10.1	SCS215a	20090810.143149	20090810.145902	8	0.013328	60	10	60-180	60	106	GapExp	0	206	3	2	1	target	1	574	713	69201	13.328	13.292	13.363
ProbeTrack10	3	ProbeTrack	10.1	SCS215a	20090810.143149	20090810.145908	8	0.013328	60	10	60-180	60	109	GapExp	0	207	3	2	0	distractor	1	627	687	69888	13.328	13.293	13.363
ProbeTrack10	3	ProbeTrack	10.1	SCS215a	20090810.143149	20090810.145915	8	0.013328	60	10	60-180	60	65	GapExp	0	208	3	0	1	target	1	467	767	70655	13.327	13.292	13.364
ProbeTrack10	3	ProbeTrack	10.1	SCS215a	20090810.143149	20090810.145920	8	0.013328	60	10	60-180	60	102	GapExp	0	209	3	0	1	target	1	614	693	71348	13.328	13.292	13.363
ProbeTrack10	3	ProbeTrack	10.1	SCS215a	20090810.143149	20090810.145928	8	0.013328	60	10	60-180	60	119	GapExp	0	210	3	75	1	target	1	507	747	72095	13.328	13.293	13.363
