exp	sub	code	rev	comp	runtime	trialtime	stdt	nstim	refreshdur	cuedur	gapdur	gapOnsetRange	durPostProbe	gapOnsetTime	blocktype	prac	trial	ntargets	soa	probeTarget	resp	acc	rt	pts	tpts	meanFrameDur	minFrameDur	maxFrameDur
TrackDT02	3	TrackDT	2.0	SCS215a	20121203.161708	20121203.161754	single-task	8	0.013328	60	0	60-180	60	101	NoGap	1	1	2	3	1	target	1	772	614	614	13.328	12.881	13.779
TrackDT02	3	TrackDT	2.0	SCS215a	20121203.161708	20121203.161800	single-task	8	0.013328	60	0	60-180	60	136	NoGap	1	2	2	3	0	distractor	1	792	604	1218	13.328	12.877	13.766
TrackDT02	3	TrackDT	2.0	SCS215a	20121203.161708	20121203.161807	single-task	8	0.013328	60	0	60-180	60	68	NoGap	1	3	2	6	1	target	1	742	629	1847	13.328	12.923	13.732
TrackDT02	3	TrackDT	2.0	SCS215a	20121203.161708	20121203.161812	single-task	8	0.013328	60	0	60-180	60	79	NoGap	1	4	2	0	1	target	1	696	652	2499	13.328	13.300	13.349
TrackDT02	3	TrackDT	2.0	SCS215a	20121203.161708	20121203.161817	single-task	8	0.013328	60	0	60-180	60	112	NoGap	1	5	2	6	0	distractor	1	717	642	3141	13.328	12.935	13.714
TrackDT02	3	TrackDT	2.0	SCS215a	20121203.161708	20121203.161822	single-task	8	0.013328	60	0	60-180	60	154	NoGap	1	6	2	6	0	target	0	655	-1000	2141	13.328	12.932	13.724
TrackDT02	3	TrackDT	2.0	SCS215a	20121203.161708	20121203.161829	single-task	8	0.013328	60	0	60-180	60	99	NoGap	1	7	2	30	1	target	1	647	677	2818	13.328	12.987	13.671
TrackDT02	3	TrackDT	2.0	SCS215a	20121203.161708	20121203.161835	single-task	8	0.013328	60	0	60-180	60	165	NoGap	1	8	2	1	1	target	1	499	751	3569	13.328	12.849	13.810
TrackDT02	3	TrackDT	2.0	SCS215a	20121203.161708	20121203.161841	single-task	8	0.013328	60	0	60-180	60	103	NoGap	1	9	2	0	1	target	1	570	715	4284	13.328	12.952	13.693
TrackDT02	3	TrackDT	2.0	SCS215a	20121203.161708	20121203.161846	single-task	8	0.013328	60	0	60-180	60	65	NoGap	1	10	2	3	1	target	1	593	704	4988	13.328	12.929	13.709
TrackDT02	3	TrackDT	2.0	SCS215a	20121203.161708	20121203.161851	single-task	8	0.013328	60	0	60-180	60	108	NoGap	1	11	2	6	1	target	1	458	771	5759	13.328	12.862	13.795
TrackDT02	3	TrackDT	2.0	SCS215a	20121203.161708	20121203.161856	single-task	8	0.013328	60	0	60-180	60	146	NoGap	1	12	2	3	0	target	0	1532	-1000	4759	13.329	12.894	13.775
TrackDT02	3	TrackDT	2.0	SCS215a	20121203.161708	20121203.161903	single-task	8	0.013328	60	0	60-180	60	135	NoGap	1	13	2	1	0	distractor	1	467	767	5526	13.328	13.034	13.631
TrackDT02	3	TrackDT	2.0	SCS215a	20121203.161708	20121203.161909	single-task	8	0.013328	60	0	60-180	60	97	NoGap	1	14	2	6	1	target	1	544	728	6254	13.328	12.859	13.803
TrackDT02	3	TrackDT	2.0	SCS215a	20121203.161708	20121203.161915	single-task	8	0.013328	60	0	60-180	60	160	NoGap	1	15	2	6	0	distractor	1	471	765	7019	13.328	13.304	13.352
TrackDT02	3	TrackDT	2.0	SCS215a	20121203.161708	20121203.161921	single-task	8	0.013328	60	0	60-180	60	82	NoGap	1	16	2	1	1	target	1	510	745	7764	13.328	12.863	13.822
TrackDT02	3	TrackDT	2.0	SCS215a	20121203.161708	20121203.161926	single-task	8	0.013328	60	0	60-180	60	70	NoGap	1	17	2	30	0	distractor	1	598	701	8465	13.328	13.090	13.569
TrackDT02	3	TrackDT	2.0	SCS215a	20121203.161708	20121203.161931	single-task	8	0.013328	60	0	60-180	60	139	NoGap	1	18	2	1	0	distractor	1	443	779	9244	13.328	12.851	13.785
TrackDT02	3	TrackDT	2.0	SCS215a	20121203.161708	20121203.161936	single-task	8	0.013328	60	0	60-180	60	88	NoGap	1	19	2	0	1	target	1	477	762	10006	13.328	13.133	13.517
TrackDT02	3	TrackDT	2.0	SCS215a	20121203.161708	20121203.161942	single-task	8	0.013328	60	0	60-180	60	84	NoGap	1	20	2	6	1	distractor	0	435	-1000	9006	13.328	12.899	13.757
TrackDT02	3	TrackDT	2.0	SCS215a	20121203.161708	20121203.161947	single-task	8	0.013328	60	0	60-180	60	98	NoGap	1	21	2	1	1	target	1	462	769	9775	13.328	12.875	13.794
TrackDT02	3	TrackDT	2.0	SCS215a	20121203.161708	20121203.161952	single-task	8	0.013328	60	0	60-180	60	178	NoGap	1	22	2	3	1	target	1	425	788	10563	13.328	13.256	13.412
TrackDT02	3	TrackDT	2.0	SCS215a	20121203.161708	20121203.161958	single-task	8	0.013328	60	0	60-180	60	143	NoGap	1	23	2	3	1	target	1	352	824	11387	13.328	13.309	13.348
TrackDT02	3	TrackDT	2.0	SCS215a	20121203.161708	20121203.162004	single-task	8	0.013328	60	0	60-180	60	173	NoGap	1	24	2	0	0	distractor	1	601	700	12087	13.328	12.954	13.716
TrackDT02	3	TrackDT	2.0	SCS215a	20121203.161708	20121203.162010	single-task	8	0.013328	60	0	60-180	60	126	NoGap	1	25	2	30	1	distractor	0	419	-1000	11087	13.327	13.088	13.357
TrackDT02	3	TrackDT	2.0	SCS215a	20121203.161708	20121203.162017	single-task	8	0.013328	60	0	60-180	60	108	NoGap	1	26	2	1	1	target	1	562	719	11806	13.328	12.859	13.791
TrackDT02	3	TrackDT	2.0	SCS215a	20121203.161708	20121203.162022	single-task	8	0.013328	60	0	60-180	60	97	NoGap	1	27	2	1	1	target	1	577	712	12518	13.328	12.912	13.747
TrackDT02	3	TrackDT	2.0	SCS215a	20121203.161708	20121203.162027	single-task	8	0.013328	60	0	60-180	60	124	NoGap	1	28	2	0	0	target	0	612	-1000	11518	13.328	13.304	13.348
TrackDT02	3	TrackDT	2.0	SCS215a	20121203.161708	20121203.162033	single-task	8	0.013328	60	0	60-180	60	140	NoGap	1	29	2	6	0	distractor	1	460	770	12288	13.328	12.950	13.698
TrackDT02	3	TrackDT	2.0	SCS215a	20121203.161708	20121203.162039	single-task	8	0.013328	60	0	60-180	60	106	NoGap	1	30	2	0	1	target	1	477	762	13050	13.328	12.923	13.724
TrackDT02	3	TrackDT	2.0	SCS215a	20121203.161708	20121203.162044	single-task	8	0.013328	60	0	60-180	60	90	NoGap	1	31	2	6	0	distractor	1	515	743	13793	13.328	12.990	13.667
TrackDT02	3	TrackDT	2.0	SCS215a	20121203.161708	20121203.162049	single-task	8	0.013328	60	0	60-180	60	140	NoGap	1	32	2	3	1	target	1	380	810	14603	13.328	12.838	13.812
TrackDT02	3	TrackDT	2.0	SCS215a	20121203.161708	20121203.162055	single-task	8	0.013328	60	0	60-180	60	139	NoGap	1	33	2	1	0	distractor	1	513	744	15347	13.328	12.860	13.789
TrackDT02	3	TrackDT	2.0	SCS215a	20121203.161708	20121203.162101	single-task	8	0.013328	60	0	60-180	60	76	NoGap	1	34	2	3	0	distractor	1	507	747	16094	13.328	13.304	13.343
TrackDT02	3	TrackDT	2.0	SCS215a	20121203.161708	20121203.162106	single-task	8	0.013328	60	0	60-180	60	129	NoGap	1	35	2	3	0	distractor	1	442	779	16873	13.328	13.095	13.567
TrackDT02	3	TrackDT	2.0	SCS215a	20121203.161708	20121203.162111	single-task	8	0.013328	60	0	60-180	60	149	NoGap	1	36	2	0	0	distractor	1	545	728	17601	13.328	13.100	13.549
TrackDT02	3	TrackDT	2.0	SCS215a	20121203.161708	20121203.162117	single-task	8	0.013328	60	0	60-180	60	112	NoGap	1	37	2	6	1	target	1	539	731	18332	13.328	13.308	13.348
TrackDT02	3	TrackDT	2.0	SCS215a	20121203.161708	20121203.162123	single-task	8	0.013328	60	0	60-180	60	115	NoGap	1	38	2	30	0	distractor	1	626	687	19019	13.328	12.848	13.801
TrackDT02	3	TrackDT	2.0	SCS215a	20121203.161708	20121203.162129	single-task	8	0.013328	60	0	60-180	60	110	NoGap	1	39	2	0	0	distractor	1	661	670	19689	13.328	12.967	13.696
TrackDT02	3	TrackDT	2.0	SCS215a	20121203.161708	20121203.162134	single-task	8	0.013328	60	0	60-180	60	80	NoGap	1	40	2	30	0	distractor	1	580	710	20399	13.328	12.972	13.698
TrackDT02	3	TrackDT	2.0	SCS215a	20121203.161708	20121203.162139	single-task	8	0.013328	60	0	60-180	60	127	NoGap	1	41	2	30	1	target	1	510	745	21144	13.328	13.101	13.549
TrackDT02	3	TrackDT	2.0	SCS215a	20121203.161708	20121203.162145	single-task	8	0.013328	60	0	60-180	60	72	NoGap	1	42	2	30	0	distractor	1	634	683	21827	13.328	13.112	13.555
TrackDT02	3	TrackDT	2.0	SCS215a	20121203.161708	20121203.162151	single-task	8	0.013328	60	0	60-180	60	156	NoGap	1	43	2	30	1	target	1	413	794	22621	13.328	13.298	13.351
TrackDT02	3	TrackDT	2.0	SCS215a	20121203.161708	20121203.162158	single-task	8	0.013328	60	0	60-180	60	162	NoGap	1	44	2	0	1	target	1	499	751	23372	13.521	12.901	52.893
TrackDT02	3	TrackDT	2.0	SCS215a	20121203.161708	20121203.162204	single-task	8	0.013328	60	0	60-180	60	110	NoGap	1	45	2	1	0	distractor	1	556	722	24094	13.328	12.938	13.719
TrackDT02	3	TrackDT	2.0	SCS215a	20121203.161708	20121203.162209	single-task	8	0.013328	60	0	60-180	60	170	NoGap	1	46	2	1	0	distractor	1	564	718	24812	13.328	13.041	13.608
TrackDT02	3	TrackDT	2.0	SCS215a	20121203.161708	20121203.162215	single-task	8	0.013328	60	0	60-180	60	124	NoGap	1	47	2	30	0	distractor	1	494	753	25565	13.328	12.864	13.792
TrackDT02	3	TrackDT	2.0	SCS215a	20121203.161708	20121203.162221	single-task	8	0.013328	60	0	60-180	60	102	NoGap	1	48	2	0	0	distractor	1	493	754	26319	13.328	13.098	13.550
TrackDT02	3	TrackDT	2.0	SCS215a	20121203.161708	20121203.162226	single-task	8	0.013328	60	0	60-180	60	141	NoGap	1	49	2	30	1	target	1	479	761	27080	13.328	13.079	13.563
TrackDT02	3	TrackDT	2.0	SCS215a	20121203.161708	20121203.162233	single-task	8	0.013328	60	0	60-180	60	172	NoGap	1	50	2	3	0	distractor	1	625	688	27768	13.328	12.914	13.759
TrackDT02	3	TrackDT	2.0	SCS215a	20121203.162321	20121203.162409	single-task	8	0.013328	60	10	60-180	60	144	GapPrac	1	1	2	30	0	distractor	1	658	671	28439	13.328	12.838	13.818
TrackDT02	3	TrackDT	2.0	SCS215a	20121203.162321	20121203.162416	single-task	8	0.013328	60	10	60-180	60	139	GapPrac	1	2	2	0	0	distractor	1	558	721	29160	13.328	13.074	13.570
TrackDT02	3	TrackDT	2.0	SCS215a	20121203.162321	20121203.162422	single-task	8	0.013328	60	10	60-180	60	147	GapPrac	1	3	2	1	0	distractor	1	596	702	29862	13.328	12.969	13.702
TrackDT02	3	TrackDT	2.0	SCS215a	20121203.162321	20121203.162428	single-task	8	0.013328	60	10	60-180	60	96	GapPrac	1	4	2	6	0	distractor	1	580	710	30572	13.328	13.090	13.577
TrackDT02	3	TrackDT	2.0	SCS215a	20121203.162321	20121203.162434	single-task	8	0.013328	60	10	60-180	60	169	GapPrac	1	5	2	3	0	distractor	1	633	684	31256	13.371	12.850	26.877
TrackDT02	3	TrackDT	2.0	SCS215a	20121203.162321	20121203.162440	single-task	8	0.013328	60	10	60-180	60	82	GapPrac	1	6	2	1	1	target	1	358	821	32077	13.328	12.880	13.761
TrackDT02	3	TrackDT	2.0	SCS215a	20121203.162321	20121203.162445	single-task	8	0.013328	60	10	60-180	60	160	GapPrac	1	7	2	30	1	target	1	652	674	32751	13.328	12.881	13.766
TrackDT02	3	TrackDT	2.0	SCS215a	20121203.162321	20121203.162452	single-task	8	0.013328	60	10	60-180	60	134	GapPrac	1	8	2	6	1	target	1	425	788	33539	13.328	13.001	13.654
TrackDT02	3	TrackDT	2.0	SCS215a	20121203.162321	20121203.162458	single-task	8	0.013328	60	10	60-180	60	96	GapPrac	1	9	2	1	1	target	1	599	701	34240	13.328	13.304	13.351
TrackDT02	3	TrackDT	2.0	SCS215a	20121203.162321	20121203.162503	single-task	8	0.013328	60	10	60-180	60	163	GapPrac	1	10	2	3	0	distractor	1	568	716	34956	13.328	13.106	13.557
TrackDT02	3	TrackDT	2.0	SCS215a	20121203.162321	20121203.162510	single-task	8	0.013328	60	10	60-180	60	67	GapPrac	1	11	2	0	1	target	1	442	779	35735	13.328	13.099	13.555
TrackDT02	3	TrackDT	2.0	SCS215a	20121203.162321	20121203.162514	single-task	8	0.013328	60	10	60-180	60	158	GapPrac	1	12	2	6	1	target	1	496	752	36487	13.328	12.927	13.716
TrackDT02	3	TrackDT	2.0	SCS215a	20121203.162321	20121203.162521	single-task	8	0.013328	60	10	60-180	60	165	GapPrac	1	13	2	3	1	target	1	411	795	37282	13.328	12.948	13.704
TrackDT02	3	TrackDT	2.0	SCS215a	20121203.162321	20121203.162527	single-task	8	0.013328	60	10	60-180	60	79	GapPrac	1	14	2	1	0	distractor	1	637	682	37964	13.328	13.048	13.621
TrackDT02	3	TrackDT	2.0	SCS215a	20121203.162321	20121203.162532	single-task	8	0.013328	60	10	60-180	60	122	GapPrac	1	15	2	30	0	distractor	1	644	678	38642	13.328	13.301	13.346
TrackDT02	3	TrackDT	2.0	SCS215a	20121203.162321	20121203.162539	single-task	8	0.013328	60	10	60-180	60	147	GapPrac	1	16	2	0	0	target	0	565	-1000	37642	13.328	12.947	13.714
TrackDT02	3	TrackDT	2.0	SCS215a	20121203.162321	20121203.162545	single-task	8	0.013328	60	10	60-180	60	129	GapPrac	1	17	2	6	0	target	0	951	-1000	36642	13.328	12.830	13.826
TrackDT02	3	TrackDT	2.0	SCS215a	20121203.162321	20121203.162551	single-task	8	0.013328	60	10	60-180	60	61	GapPrac	1	18	2	0	1	target	1	460	770	37412	13.328	12.862	13.794
TrackDT02	3	TrackDT	2.0	SCS215a	20121203.162321	20121203.162555	single-task	8	0.013328	60	10	60-180	60	76	GapPrac	1	19	2	3	1	target	1	470	765	38177	13.328	13.294	13.360
TrackDT02	3	TrackDT	2.0	SCS215a	20121203.162321	20121203.162601	single-task	8	0.013328	60	10	60-180	60	147	GapPrac	1	20	2	30	1	target	1	472	764	38941	13.328	13.298	13.358
TrackDT02	3	TrackDT	2.0	SCS215a	20121203.162721	20121203.162729	dt-conversation	8	0.013327	60	10	60-180	60	134	GapExp	1	1	2	6	1	target	1	429	786	39727	13.328	11.997	14.653
TrackDT02	3	TrackDT	2.0	SCS215a	20121203.162721	20121203.162736	dt-conversation	8	0.013327	60	10	60-180	60	127	GapExp	1	2	2	30	1	target	1	521	740	40467	13.328	11.359	15.298
TrackDT02	3	TrackDT	2.0	SCS215a	20121203.162721	20121203.162742	dt-conversation	8	0.013327	60	10	60-180	60	75	GapExp	1	3	2	1	0	distractor	1	728	636	41103	13.328	13.309	13.346
TrackDT02	3	TrackDT	2.0	SCS215a	20121203.162721	20121203.162747	dt-conversation	8	0.013327	60	10	60-180	60	134	GapExp	1	4	2	0	0	target	0	411	-1000	40103	13.328	13.304	13.349
TrackDT02	3	TrackDT	2.0	SCS215a	20121203.162721	20121203.162753	dt-conversation	8	0.013327	60	10	60-180	60	138	GapExp	1	5	2	3	1	target	1	519	741	40844	13.328	12.626	14.032
TrackDT02	3	TrackDT	2.0	SCS215a	20121203.162721	20121203.162759	dt-conversation	8	0.013327	60	10	60-180	60	93	GapExp	1	6	2	1	1	target	1	562	719	41563	13.328	9.830	16.826
TrackDT02	3	TrackDT	2.0	SCS215a	20121203.162721	20121203.162804	dt-conversation	8	0.013327	60	10	60-180	60	170	GapExp	1	7	2	6	0	distractor	1	800	600	42163	13.328	10.554	16.108
TrackDT02	3	TrackDT	2.0	SCS215a	20121203.162721	20121203.162811	dt-conversation	8	0.013327	60	10	60-180	60	162	GapExp	1	8	2	3	0	target	0	342	-1000	41163	13.328	8.760	17.909
TrackDT02	3	TrackDT	2.0	SCS215a	20121203.162721	20121203.162817	dt-conversation	8	0.013327	60	10	60-180	60	72	GapExp	1	9	2	30	0	distractor	1	649	676	41839	13.328	9.015	17.655
TrackDT02	3	TrackDT	2.0	SCS215a	20121203.162721	20121203.162822	dt-conversation	8	0.013327	60	10	60-180	60	90	GapExp	1	10	2	0	1	target	1	444	778	42617	13.328	5.780	20.861
TrackDT02	3	TrackDT	2.0	SCS215a	20121203.162721	20121203.162828	dt-conversation	8	0.013327	60	10	60-180	60	155	GapExp	0	11	2	0	0	target	0	946	-1000	41617	13.328	11.548	15.114
TrackDT02	3	TrackDT	2.0	SCS215a	20121203.162721	20121203.162834	dt-conversation	8	0.013327	60	10	60-180	60	141	GapExp	0	12	2	1	0	distractor	1	835	583	42200	13.328	10.952	15.712
TrackDT02	3	TrackDT	2.0	SCS215a	20121203.162721	20121203.162840	dt-conversation	8	0.013327	60	10	60-180	60	119	GapExp	0	13	2	0	1	target	1	349	826	43026	13.328	10.513	16.142
TrackDT02	3	TrackDT	2.0	SCS215a	20121203.162721	20121203.162846	dt-conversation	8	0.013327	60	10	60-180	60	127	GapExp	0	14	2	3	0	distractor	1	531	735	43761	13.328	11.048	15.618
TrackDT02	3	TrackDT	2.0	SCS215a	20121203.162721	20121203.162852	dt-conversation	8	0.013327	60	10	60-180	60	73	GapExp	0	15	2	6	0	distractor	1	734	633	44394	13.328	12.131	14.532
TrackDT02	3	TrackDT	2.0	SCS215a	20121203.162721	20121203.162857	dt-conversation	8	0.013327	60	10	60-180	60	170	GapExp	0	16	2	3	1	target	1	916	542	44936	13.328	12.276	14.377
TrackDT02	3	TrackDT	2.0	SCS215a	20121203.162721	20121203.162904	dt-conversation	8	0.013327	60	10	60-180	60	135	GapExp	0	17	2	3	1	target	1	520	740	45676	13.328	11.318	15.343
TrackDT02	3	TrackDT	2.0	SCS215a	20121203.162721	20121203.162910	dt-conversation	8	0.013327	60	10	60-180	60	160	GapExp	0	18	2	0	0	distractor	1	564	718	46394	13.328	13.150	13.493
TrackDT02	3	TrackDT	2.0	SCS215a	20121203.162721	20121203.162916	dt-conversation	8	0.013327	60	10	60-180	60	120	GapExp	0	19	2	1	0	target	0	209	-1000	45394	13.328	13.091	13.552
TrackDT02	3	TrackDT	2.0	SCS215a	20121203.162721	20121203.162922	dt-conversation	8	0.013327	60	10	60-180	60	88	GapExp	0	20	2	1	1	target	1	639	681	46075	13.328	13.112	13.545
TrackDT02	3	TrackDT	2.0	SCS215a	20121203.162721	20121203.162927	dt-conversation	8	0.013327	60	10	60-180	60	122	GapExp	0	21	2	3	0	target	0	610	-1000	45075	13.328	13.107	13.550
TrackDT02	3	TrackDT	2.0	SCS215a	20121203.162721	20121203.162933	dt-conversation	8	0.013327	60	10	60-180	60	137	GapExp	0	22	2	30	1	target	1	449	776	45851	13.328	10.299	16.357
TrackDT02	3	TrackDT	2.0	SCS215a	20121203.162721	20121203.162939	dt-conversation	8	0.013327	60	10	60-180	60	85	GapExp	0	23	2	6	0	distractor	1	569	716	46567	13.328	10.253	16.390
TrackDT02	3	TrackDT	2.0	SCS215a	20121203.162721	20121203.162944	dt-conversation	8	0.013327	60	10	60-180	60	154	GapExp	0	24	2	0	1	target	1	727	637	47204	13.328	11.617	15.027
TrackDT02	3	TrackDT	2.0	SCS215a	20121203.162721	20121203.162950	dt-conversation	8	0.013327	60	10	60-180	60	140	GapExp	0	25	2	6	1	target	1	531	735	47939	13.328	13.106	13.563
TrackDT02	3	TrackDT	2.0	SCS215a	20121203.162721	20121203.162957	dt-conversation	8	0.013327	60	10	60-180	60	115	GapExp	0	26	2	0	0	target	0	648	-1000	46939	13.328	13.112	13.553
TrackDT02	3	TrackDT	2.0	SCS215a	20121203.162721	20121203.163002	dt-conversation	8	0.013327	60	10	60-180	60	131	GapExp	0	27	2	30	1	target	1	799	601	47540	13.328	13.111	13.558
TrackDT02	3	TrackDT	2.0	SCS215a	20121203.162721	20121203.163009	dt-conversation	8	0.013327	60	10	60-180	60	148	GapExp	0	28	2	0	0	target	0	671	-1000	46540	13.328	11.304	15.345
TrackDT02	3	TrackDT	2.0	SCS215a	20121203.162721	20121203.163015	dt-conversation	8	0.013327	60	10	60-180	60	155	GapExp	0	29	2	3	1	target	1	988	506	47046	13.328	10.724	15.937
TrackDT02	3	TrackDT	2.0	SCS215a	20121203.162721	20121203.163022	dt-conversation	8	0.013327	60	10	60-180	60	66	GapExp	0	30	2	6	0	target	0	999	-1000	46046	13.389	8.607	26.661
TrackDT02	3	TrackDT	2.0	SCS215a	20121203.162721	20121203.163027	dt-conversation	8	0.013327	60	10	60-180	60	148	GapExp	0	31	2	3	1	target	1	482	759	46805	13.426	11.263	27.474
TrackDT02	3	TrackDT	2.0	SCS215a	20121203.162721	20121203.163033	dt-conversation	8	0.013327	60	10	60-180	60	153	GapExp	0	32	2	1	0	distractor	1	571	715	47520	13.328	13.306	13.353
TrackDT02	3	TrackDT	2.0	SCS215a	20121203.162721	20121203.163040	dt-conversation	8	0.013327	60	10	60-180	60	146	GapExp	0	33	2	30	0	distractor	1	795	603	48123	13.328	12.166	14.497
TrackDT02	3	TrackDT	2.0	SCS215a	20121203.162721	20121203.163046	dt-conversation	8	0.013327	60	10	60-180	60	97	GapExp	0	34	2	1	1	distractor	0	3087	-1000	47123	13.328	10.346	16.326
TrackDT02	3	TrackDT	2.0	SCS215a	20121203.162721	20121203.163054	dt-conversation	8	0.013327	60	10	60-180	60	133	GapExp	0	35	2	30	0	distractor	1	567	717	47840	13.328	11.821	14.830
TrackDT02	3	TrackDT	2.0	SCS215a	20121203.162721	20121203.163101	dt-conversation	8	0.013327	60	10	60-180	60	62	GapExp	0	36	2	6	1	target	1	516	742	48582	13.328	13.092	13.559
TrackDT02	3	TrackDT	2.0	SCS215a	20121203.162721	20121203.163106	dt-conversation	8	0.013327	60	10	60-180	60	67	GapExp	0	37	2	0	0	distractor	1	642	679	49261	13.328	13.304	13.358
TrackDT02	3	TrackDT	2.0	SCS215a	20121203.162721	20121203.163111	dt-conversation	8	0.013327	60	10	60-180	60	61	GapExp	0	38	2	3	0	distractor	1	870	565	49826	13.328	11.401	15.263
TrackDT02	3	TrackDT	2.0	SCS215a	20121203.162721	20121203.163116	dt-conversation	8	0.013327	60	10	60-180	60	162	GapExp	0	39	2	30	0	distractor	1	463	769	50595	13.328	11.494	15.156
TrackDT02	3	TrackDT	2.0	SCS215a	20121203.162721	20121203.163122	dt-conversation	8	0.013327	60	10	60-180	60	127	GapExp	0	40	2	3	0	target	0	761	-1000	49595	13.328	11.059	16.575
TrackDT02	3	TrackDT	2.0	SCS215a	20121203.162721	20121203.163128	dt-conversation	8	0.013327	60	10	60-180	60	129	GapExp	0	41	2	0	0	target	0	766	-1000	48595	13.328	11.990	14.680
TrackDT02	3	TrackDT	2.0	SCS215a	20121203.162721	20121203.163135	dt-conversation	8	0.013327	60	10	60-180	60	142	GapExp	0	42	2	1	1	target	1	867	567	49162	13.328	9.365	17.277
TrackDT02	3	TrackDT	2.0	SCS215a	20121203.162721	20121203.163141	dt-conversation	8	0.013327	60	10	60-180	60	77	GapExp	0	43	2	6	0	distractor	1	537	732	49894	13.328	13.094	13.555
TrackDT02	3	TrackDT	2.0	SCS215a	20121203.162721	20121203.163146	dt-conversation	8	0.013327	60	10	60-180	60	133	GapExp	0	44	2	3	1	target	1	615	693	50587	13.328	13.309	13.353
TrackDT02	3	TrackDT	2.0	SCS215a	20121203.162721	20121203.163152	dt-conversation	8	0.013327	60	10	60-180	60	161	GapExp	0	45	2	1	1	target	1	545	728	51315	13.328	11.589	15.081
TrackDT02	3	TrackDT	2.0	SCS215a	20121203.162721	20121203.163158	dt-conversation	8	0.013327	60	10	60-180	60	69	GapExp	0	46	2	6	1	target	1	568	716	52031	13.459	5.062	38.885
TrackDT02	3	TrackDT	2.0	SCS215a	20121203.162721	20121203.163203	dt-conversation	8	0.013327	60	10	60-180	60	134	GapExp	0	47	2	0	0	target	0	533	-1000	51031	13.328	9.937	16.714
TrackDT02	3	TrackDT	2.0	SCS215a	20121203.162721	20121203.163209	dt-conversation	8	0.013327	60	10	60-180	60	153	GapExp	0	48	2	1	1	target	1	506	747	51778	13.328	11.840	14.825
TrackDT02	3	TrackDT	2.0	SCS215a	20121203.162721	20121203.163215	dt-conversation	8	0.013327	60	10	60-180	60	83	GapExp	0	49	2	6	1	target	1	481	760	52538	13.328	9.380	17.274
TrackDT02	3	TrackDT	2.0	SCS215a	20121203.162721	20121203.163220	dt-conversation	8	0.013327	60	10	60-180	60	178	GapExp	0	50	2	6	0	distractor	1	714	643	53181	13.328	13.305	13.346
TrackDT02	3	TrackDT	2.0	SCS215a	20121203.162721	20121203.163238	dt-conversation	8	0.013327	60	10	60-180	60	130	GapExp	0	51	2	30	0	distractor	1	601	700	53881	13.328	10.665	15.992
TrackDT02	3	TrackDT	2.0	SCS215a	20121203.162721	20121203.163245	dt-conversation	8	0.013327	60	10	60-180	60	115	GapExp	0	52	2	6	0	target	0	258	-1000	52881	13.328	13.098	13.565
TrackDT02	3	TrackDT	2.0	SCS215a	20121203.162721	20121203.163250	dt-conversation	8	0.013327	60	10	60-180	60	112	GapExp	0	53	2	0	1	target	1	517	742	53623	13.328	11.743	14.923
TrackDT02	3	TrackDT	2.0	SCS215a	20121203.162721	20121203.163256	dt-conversation	8	0.013327	60	10	60-180	60	72	GapExp	0	54	2	0	1	target	1	567	717	54340	13.328	13.148	13.502
TrackDT02	3	TrackDT	2.0	SCS215a	20121203.162721	20121203.163301	dt-conversation	8	0.013327	60	10	60-180	60	172	GapExp	0	55	2	1	1	target	1	533	734	55074	13.328	13.304	13.350
TrackDT02	3	TrackDT	2.0	SCS215a	20121203.162721	20121203.163307	dt-conversation	8	0.013327	60	10	60-180	60	117	GapExp	0	56	2	1	0	target	0	572	-1000	54074	13.328	13.103	13.558
TrackDT02	3	TrackDT	2.0	SCS215a	20121203.162721	20121203.163313	dt-conversation	8	0.013327	60	10	60-180	60	134	GapExp	0	57	2	30	1	distractor	0	762	-1000	53074	13.328	13.103	13.559
TrackDT02	3	TrackDT	2.0	SCS215a	20121203.162721	20121203.163320	dt-conversation	8	0.013327	60	10	60-180	60	71	GapExp	0	58	2	6	0	distractor	1	1073	464	53538	13.328	13.057	13.624
TrackDT02	3	TrackDT	2.0	SCS215a	20121203.162721	20121203.163325	dt-conversation	8	0.013327	60	10	60-180	60	79	GapExp	0	59	2	6	1	target	1	458	771	54309	13.328	13.287	13.377
TrackDT02	3	TrackDT	2.0	SCS215a	20121203.162721	20121203.163330	dt-conversation	8	0.013327	60	10	60-180	60	129	GapExp	0	60	2	30	0	target	0	944	-1000	53309	13.372	11.032	26.938
TrackDT02	3	TrackDT	2.0	SCS215a	20121203.162721	20121203.163337	dt-conversation	8	0.013327	60	10	60-180	60	152	GapExp	0	61	2	6	1	target	1	367	817	54126	13.328	8.318	18.326
TrackDT02	3	TrackDT	2.0	SCS215a	20121203.162721	20121203.163343	dt-conversation	8	0.013327	60	10	60-180	60	127	GapExp	0	62	2	30	0	distractor	1	459	771	54897	13.328	10.909	15.741
TrackDT02	3	TrackDT	2.0	SCS215a	20121203.162721	20121203.163349	dt-conversation	8	0.013327	60	10	60-180	60	88	GapExp	0	63	2	1	0	distractor	1	616	692	55589	13.328	13.083	13.573
TrackDT02	3	TrackDT	2.0	SCS215a	20121203.162721	20121203.163355	dt-conversation	8	0.013327	60	10	60-180	60	151	GapExp	0	64	2	3	1	target	1	1296	352	55941	13.328	12.125	14.502
TrackDT02	3	TrackDT	2.0	SCS215a	20121203.162721	20121203.163402	dt-conversation	8	0.013327	60	10	60-180	60	144	GapExp	0	65	2	0	0	target	0	621	-1000	54941	13.328	10.455	16.204
TrackDT02	3	TrackDT	2.0	SCS215a	20121203.162721	20121203.163408	dt-conversation	8	0.013327	60	10	60-180	60	165	GapExp	0	66	2	30	0	distractor	1	628	686	55627	13.368	10.476	26.645
TrackDT02	3	TrackDT	2.0	SCS215a	20121203.162721	20121203.163414	dt-conversation	8	0.013327	60	10	60-180	60	93	GapExp	0	67	2	0	1	target	1	788	606	56233	13.440	7.742	26.653
TrackDT02	3	TrackDT	2.0	SCS215a	20121203.162721	20121203.163420	dt-conversation	8	0.013327	60	10	60-180	60	63	GapExp	0	68	2	6	1	target	1	1014	493	56726	13.328	10.751	15.891
TrackDT02	3	TrackDT	2.0	SCS215a	20121203.162721	20121203.163426	dt-conversation	8	0.013327	60	10	60-180	60	107	GapExp	0	69	2	0	0	target	0	1007	-1000	55726	13.328	13.307	13.347
TrackDT02	3	TrackDT	2.0	SCS215a	20121203.162721	20121203.163432	dt-conversation	8	0.013327	60	10	60-180	60	77	GapExp	0	70	2	6	0	distractor	1	597	702	56428	13.328	12.349	14.374
TrackDT02	3	TrackDT	2.0	SCS215a	20121203.162721	20121203.163437	dt-conversation	8	0.013327	60	10	60-180	60	127	GapExp	0	71	2	30	1	target	1	720	640	57068	13.328	10.291	16.372
TrackDT02	3	TrackDT	2.0	SCS215a	20121203.162721	20121203.163443	dt-conversation	8	0.013327	60	10	60-180	60	92	GapExp	0	72	2	30	1	target	1	641	680	57748	13.328	9.868	16.776
TrackDT02	3	TrackDT	2.0	SCS215a	20121203.162721	20121203.163449	dt-conversation	8	0.013327	60	10	60-180	60	152	GapExp	0	73	2	30	1	target	1	574	713	58461	13.328	10.766	15.876
TrackDT02	3	TrackDT	2.0	SCS215a	20121203.162721	20121203.163455	dt-conversation	8	0.013327	60	10	60-180	60	151	GapExp	0	74	2	0	1	distractor	0	555	-1000	57461	13.328	9.778	16.885
TrackDT02	3	TrackDT	2.0	SCS215a	20121203.162721	20121203.163502	dt-conversation	8	0.013327	60	10	60-180	60	119	GapExp	0	75	2	1	0	target	0	564	-1000	56461	13.328	13.304	13.352
TrackDT02	3	TrackDT	2.0	SCS215a	20121203.162721	20121203.163507	dt-conversation	8	0.013327	60	10	60-180	60	91	GapExp	0	76	2	3	0	target	0	452	-1000	55461	13.328	9.464	17.186
TrackDT02	3	TrackDT	2.0	SCS215a	20121203.162721	20121203.163512	dt-conversation	8	0.013327	60	10	60-180	60	76	GapExp	0	77	2	6	1	target	1	761	620	56081	13.328	9.988	16.665
TrackDT02	3	TrackDT	2.0	SCS215a	20121203.162721	20121203.163518	dt-conversation	8	0.013327	60	10	60-180	60	147	GapExp	0	78	2	30	0	early	-4	-603	-1000	55081	13.328	12.937	13.714
TrackDT02	3	TrackDT	2.0	SCS215a	20121203.162721	20121203.163525	dt-conversation	8	0.013327	60	10	60-180	60	169	GapExp	0	79	2	6	1	target	1	519	741	55822	13.328	10.121	16.530
TrackDT02	3	TrackDT	2.0	SCS215a	20121203.162721	20121203.163531	dt-conversation	8	0.013327	60	10	60-180	60	109	GapExp	0	80	2	30	1	target	1	496	752	56574	13.328	13.092	13.546
TrackDT02	3	TrackDT	2.0	SCS215a	20121203.162721	20121203.163538	dt-conversation	8	0.013327	60	10	60-180	60	70	GapExp	0	81	2	30	1	target	1	5776	0	56574	13.328	13.307	13.350
TrackDT02	3	TrackDT	2.0	SCS215a	20121203.162721	20121203.163548	dt-conversation	8	0.013327	60	10	60-180	60	90	GapExp	0	82	2	6	1	target	1	546	727	57301	13.328	13.310	13.343
TrackDT02	3	TrackDT	2.0	SCS215a	20121203.162721	20121203.163554	dt-conversation	8	0.013327	60	10	60-180	60	170	GapExp	0	83	2	1	0	target	0	501	-1000	56301	13.328	5.762	20.906
TrackDT02	3	TrackDT	2.0	SCS215a	20121203.162721	20121203.163600	dt-conversation	8	0.013327	60	10	60-180	60	86	GapExp	0	84	2	6	0	distractor	1	758	621	56922	13.328	6.985	19.680
TrackDT02	3	TrackDT	2.0	SCS215a	20121203.162721	20121203.163605	dt-conversation	8	0.013327	60	10	60-180	60	163	GapExp	0	85	2	0	1	target	1	469	766	57688	13.328	13.305	13.349
TrackDT02	3	TrackDT	2.0	SCS215a	20121203.162721	20121203.163612	dt-conversation	8	0.013327	60	10	60-180	60	123	GapExp	0	86	2	1	0	distractor	1	655	673	58361	13.328	10.083	16.586
TrackDT02	3	TrackDT	2.0	SCS215a	20121203.162721	20121203.163618	dt-conversation	8	0.013327	60	10	60-180	60	123	GapExp	0	87	2	30	1	target	1	434	783	59144	13.328	10.852	15.805
TrackDT02	3	TrackDT	2.0	SCS215a	20121203.162721	20121203.163624	dt-conversation	8	0.013327	60	10	60-180	60	114	GapExp	0	88	2	6	1	target	1	1646	177	59321	13.328	6.726	19.916
TrackDT02	3	TrackDT	2.0	SCS215a	20121203.162721	20121203.163631	dt-conversation	8	0.013327	60	10	60-180	60	134	GapExp	0	89	2	1	1	target	1	502	749	60070	13.328	11.030	15.617
TrackDT02	3	TrackDT	2.0	SCS215a	20121203.162721	20121203.163636	dt-conversation	8	0.013327	60	10	60-180	60	106	GapExp	0	90	2	3	0	distractor	1	500	750	60820	13.328	7.349	19.308
TrackDT02	3	TrackDT	2.0	SCS215a	20121203.162721	20121203.163642	dt-conversation	8	0.013327	60	10	60-180	60	112	GapExp	0	91	2	1	1	target	1	599	701	61521	13.328	10.477	16.179
TrackDT02	3	TrackDT	2.0	SCS215a	20121203.162721	20121203.163648	dt-conversation	8	0.013327	60	10	60-180	60	68	GapExp	0	92	2	6	1	target	1	566	717	62238	13.328	9.882	16.782
TrackDT02	3	TrackDT	2.0	SCS215a	20121203.162721	20121203.163653	dt-conversation	8	0.013327	60	10	60-180	60	177	GapExp	0	93	2	30	0	distractor	1	871	565	62803	13.328	10.865	15.805
TrackDT02	3	TrackDT	2.0	SCS215a	20121203.162721	20121203.163700	dt-conversation	8	0.013327	60	10	60-180	60	143	GapExp	0	94	2	30	0	distractor	1	524	738	63541	13.328	11.380	15.282
TrackDT02	3	TrackDT	2.0	SCS215a	20121203.162721	20121203.163706	dt-conversation	8	0.013327	60	10	60-180	60	69	GapExp	0	95	2	0	0	target	0	931	-1000	62541	13.328	10.367	16.289
TrackDT02	3	TrackDT	2.0	SCS215a	20121203.162721	20121203.163712	dt-conversation	8	0.013327	60	10	60-180	60	153	GapExp	0	96	2	0	0	distractor	1	647	677	63218	13.328	4.049	22.617
TrackDT02	3	TrackDT	2.0	SCS215a	20121203.162721	20121203.163718	dt-conversation	8	0.013327	60	10	60-180	60	112	GapExp	0	97	2	30	0	distractor	1	727	637	63855	13.328	12.628	14.035
TrackDT02	3	TrackDT	2.0	SCS215a	20121203.162721	20121203.163724	dt-conversation	8	0.013327	60	10	60-180	60	79	GapExp	0	98	2	3	0	target	0	909	-1000	62855	13.328	11.421	15.220
TrackDT02	3	TrackDT	2.0	SCS215a	20121203.162721	20121203.163730	dt-conversation	8	0.013327	60	10	60-180	60	157	GapExp	0	99	2	30	0	distractor	1	660	670	63525	13.328	7.840	18.815
TrackDT02	3	TrackDT	2.0	SCS215a	20121203.162721	20121203.163736	dt-conversation	8	0.013327	60	10	60-180	60	162	GapExp	0	100	2	3	0	distractor	1	504	748	64273	13.328	10.700	15.948
TrackDT02	3	TrackDT	2.0	SCS215a	20121203.162721	20121203.163842	dt-conversation	8	0.013327	60	10	60-180	60	71	GapExp	0	101	2	30	1	target	1	870	565	64838	13.328	9.884	16.772
TrackDT02	3	TrackDT	2.0	SCS215a	20121203.162721	20121203.163848	dt-conversation	8	0.013327	60	10	60-180	60	78	GapExp	0	102	2	3	0	distractor	1	531	735	65573	13.328	9.140	17.523
TrackDT02	3	TrackDT	2.0	SCS215a	20121203.162721	20121203.163853	dt-conversation	8	0.013327	60	10	60-180	60	89	GapExp	0	103	2	0	0	target	0	719	-1000	64573	13.328	11.748	14.907
TrackDT02	3	TrackDT	2.0	SCS215a	20121203.162721	20121203.163858	dt-conversation	8	0.013327	60	10	60-180	60	109	GapExp	0	104	2	6	1	target	1	631	685	65258	13.328	8.231	18.411
TrackDT02	3	TrackDT	2.0	SCS215a	20121203.162721	20121203.163904	dt-conversation	8	0.013327	60	10	60-180	60	69	GapExp	0	105	2	6	0	distractor	1	1580	210	65468	13.328	10.660	15.984
TrackDT02	3	TrackDT	2.0	SCS215a	20121203.162721	20121203.163910	dt-conversation	8	0.013327	60	10	60-180	60	77	GapExp	0	106	2	1	1	target	1	507	747	66215	13.328	10.227	16.439
TrackDT02	3	TrackDT	2.0	SCS215a	20121203.162721	20121203.163915	dt-conversation	8	0.013327	60	10	60-180	60	149	GapExp	0	107	2	3	1	target	1	568	716	66931	13.328	6.745	19.903
TrackDT02	3	TrackDT	2.0	SCS215a	20121203.162721	20121203.163922	dt-conversation	8	0.013327	60	10	60-180	60	112	GapExp	0	108	2	1	0	target	0	851	-1000	65931	13.328	10.792	15.278
TrackDT02	3	TrackDT	2.0	SCS215a	20121203.162721	20121203.163928	dt-conversation	8	0.013327	60	10	60-180	60	150	GapExp	0	109	2	1	0	distractor	1	876	562	66493	13.328	7.451	19.192
TrackDT02	3	TrackDT	2.0	SCS215a	20121203.162721	20121203.163934	dt-conversation	8	0.013327	60	10	60-180	60	107	GapExp	0	110	2	3	0	target	0	955	-1000	65493	13.332	11.545	15.122
TrackDT02	3	TrackDT	2.0	SCS215a	20121203.162721	20121203.163940	dt-conversation	8	0.013327	60	10	60-180	60	160	GapExp	0	111	2	0	1	target	1	574	713	66206	13.328	8.918	17.738
TrackDT02	3	TrackDT	2.0	SCS215a	20121203.162721	20121203.163946	dt-conversation	8	0.013327	60	10	60-180	60	167	GapExp	0	112	2	0	0	target	0	527	-1000	65206	13.328	13.104	13.551
TrackDT02	3	TrackDT	2.0	SCS215a	20121203.162721	20121203.163953	dt-conversation	8	0.013327	60	10	60-180	60	89	GapExp	0	113	2	1	1	target	1	655	673	65879	13.328	12.953	13.710
TrackDT02	3	TrackDT	2.0	SCS215a	20121203.162721	20121203.163958	dt-conversation	8	0.013327	60	10	60-180	60	173	GapExp	0	114	2	6	1	target	1	460	770	66649	13.328	9.067	17.576
TrackDT02	3	TrackDT	2.0	SCS215a	20121203.162721	20121203.164005	dt-conversation	8	0.013327	60	10	60-180	60	91	GapExp	0	115	2	1	1	target	1	1020	490	67139	13.328	9.013	17.636
TrackDT02	3	TrackDT	2.0	SCS215a	20121203.162721	20121203.164010	dt-conversation	8	0.013327	60	10	60-180	60	124	GapExp	0	116	2	3	1	target	1	424	788	67927	13.328	11.289	15.371
TrackDT02	3	TrackDT	2.0	SCS215a	20121203.162721	20121203.164016	dt-conversation	8	0.013327	60	10	60-180	60	168	GapExp	0	117	2	1	0	distractor	1	780	610	68537	13.328	9.016	17.621
TrackDT02	3	TrackDT	2.0	SCS215a	20121203.162721	20121203.164022	dt-conversation	8	0.013327	60	10	60-180	60	107	GapExp	0	118	2	1	1	target	1	442	779	69316	13.328	9.919	16.744
TrackDT02	3	TrackDT	2.0	SCS215a	20121203.162721	20121203.164028	dt-conversation	8	0.013327	60	10	60-180	60	157	GapExp	0	119	2	1	0	target	0	558	-1000	68316	13.319	10.899	13.563
TrackDT02	3	TrackDT	2.0	SCS215a	20121203.162721	20121203.164034	dt-conversation	8	0.013327	60	10	60-180	60	173	GapExp	0	120	2	30	0	target	0	947	-1000	67316	13.328	12.234	14.423
TrackDT02	3	TrackDT	2.0	SCS215a	20121203.162721	20121203.164042	dt-conversation	8	0.013327	60	10	60-180	60	130	GapExp	0	121	2	1	0	distractor	1	552	724	68040	13.328	11.376	15.298
TrackDT02	3	TrackDT	2.0	SCS215a	20121203.162721	20121203.164047	dt-conversation	8	0.013327	60	10	60-180	60	82	GapExp	0	122	2	30	0	distractor	1	601	700	68740	13.328	11.048	15.599
TrackDT02	3	TrackDT	2.0	SCS215a	20121203.162721	20121203.164053	dt-conversation	8	0.013327	60	10	60-180	60	62	GapExp	0	123	2	6	1	distractor	0	551	-1000	67740	13.328	8.920	17.722
TrackDT02	3	TrackDT	2.0	SCS215a	20121203.162721	20121203.164058	dt-conversation	8	0.013327	60	10	60-180	60	66	GapExp	0	124	2	1	1	target	1	452	774	68514	13.333	11.019	16.707
TrackDT02	3	TrackDT	2.0	SCS215a	20121203.162721	20121203.164103	dt-conversation	8	0.013327	60	10	60-180	60	116	GapExp	0	125	2	0	1	target	1	1260	370	68884	13.328	11.496	15.166
TrackDT02	3	TrackDT	2.0	SCS215a	20121203.162721	20121203.164109	dt-conversation	8	0.013327	60	10	60-180	60	107	GapExp	0	126	2	0	1	target	1	1291	355	69239	13.328	11.376	15.273
TrackDT02	3	TrackDT	2.0	SCS215a	20121203.162721	20121203.164116	dt-conversation	8	0.013327	60	10	60-180	60	81	GapExp	0	127	2	30	1	target	1	1125	438	69677	13.328	8.009	18.640
TrackDT02	3	TrackDT	2.0	SCS215a	20121203.162721	20121203.164122	dt-conversation	8	0.013327	60	10	60-180	60	98	GapExp	0	128	2	1	1	target	1	926	537	70214	13.328	8.187	18.463
TrackDT02	3	TrackDT	2.0	SCS215a	20121203.162721	20121203.164128	dt-conversation	8	0.013327	60	10	60-180	60	65	GapExp	0	129	2	6	1	target	1	549	726	70940	13.328	11.668	14.988
TrackDT02	3	TrackDT	2.0	SCS215a	20121203.162721	20121203.164133	dt-conversation	8	0.013327	60	10	60-180	60	64	GapExp	0	130	2	0	0	distractor	1	626	687	71627	13.328	8.902	17.752
TrackDT02	3	TrackDT	2.0	SCS215a	20121203.162721	20121203.164138	dt-conversation	8	0.013327	60	10	60-180	60	133	GapExp	0	131	2	6	0	distractor	1	593	704	72331	13.328	8.003	18.654
TrackDT02	3	TrackDT	2.0	SCS215a	20121203.162721	20121203.164144	dt-conversation	8	0.013327	60	10	60-180	60	95	GapExp	0	132	2	0	1	target	1	424	788	73119	13.328	4.877	21.780
TrackDT02	3	TrackDT	2.0	SCS215a	20121203.162721	20121203.164149	dt-conversation	8	0.013327	60	10	60-180	60	162	GapExp	0	133	2	3	0	target	0	780	-1000	72119	13.328	8.552	18.098
TrackDT02	3	TrackDT	2.0	SCS215a	20121203.162721	20121203.164156	dt-conversation	8	0.013327	60	10	60-180	60	166	GapExp	0	134	2	6	0	distractor	1	550	725	72844	13.417	6.676	43.606
TrackDT02	3	TrackDT	2.0	SCS215a	20121203.162721	20121203.164202	dt-conversation	8	0.013327	60	10	60-180	60	138	GapExp	0	135	2	6	0	target	0	454	-1000	71844	13.328	6.836	19.813
TrackDT02	3	TrackDT	2.0	SCS215a	20121203.162721	20121203.164208	dt-conversation	8	0.013327	60	10	60-180	60	89	GapExp	0	136	2	1	0	distractor	1	739	631	72475	13.328	13.302	13.346
TrackDT02	3	TrackDT	2.0	SCS215a	20121203.162721	20121203.164214	dt-conversation	8	0.013327	60	10	60-180	60	133	GapExp	0	137	2	6	0	target	0	683	-1000	71475	13.328	12.603	14.066
TrackDT02	3	TrackDT	2.0	SCS215a	20121203.162721	20121203.164220	dt-conversation	8	0.013327	60	10	60-180	60	117	GapExp	0	138	2	30	1	target	1	587	707	72182	13.328	5.151	21.498
TrackDT02	3	TrackDT	2.0	SCS215a	20121203.162721	20121203.164226	dt-conversation	8	0.013327	60	10	60-180	60	68	GapExp	0	139	2	30	1	target	1	1249	376	72558	13.328	11.840	14.811
TrackDT02	3	TrackDT	2.0	SCS215a	20121203.162721	20121203.164232	dt-conversation	8	0.013327	60	10	60-180	60	155	GapExp	0	140	2	30	1	target	1	631	685	73243	13.328	4.648	22.001
TrackDT02	3	TrackDT	2.0	SCS215a	20121203.162721	20121203.164239	dt-conversation	8	0.013327	60	10	60-180	60	129	GapExp	0	141	2	3	1	target	1	565	718	73961	13.328	10.333	16.325
TrackDT02	3	TrackDT	2.0	SCS215a	20121203.162721	20121203.164245	dt-conversation	8	0.013327	60	10	60-180	60	116	GapExp	0	142	2	3	1	target	1	554	723	74684	13.328	13.304	13.345
TrackDT02	3	TrackDT	2.0	SCS215a	20121203.162721	20121203.164250	dt-conversation	8	0.013327	60	10	60-180	60	119	GapExp	0	143	2	0	1	target	1	649	676	75360	13.328	12.504	14.139
TrackDT02	3	TrackDT	2.0	SCS215a	20121203.162721	20121203.164256	dt-conversation	8	0.013327	60	10	60-180	60	97	GapExp	0	144	2	3	0	distractor	1	682	659	76019	13.328	11.622	15.040
TrackDT02	3	TrackDT	2.0	SCS215a	20121203.162721	20121203.164302	dt-conversation	8	0.013327	60	10	60-180	60	140	GapExp	0	145	2	3	1	target	1	422	789	76808	13.328	11.146	15.517
TrackDT02	3	TrackDT	2.0	SCS215a	20121203.162721	20121203.164308	dt-conversation	8	0.013327	60	10	60-180	60	98	GapExp	0	146	2	0	1	target	1	578	711	77519	13.328	12.104	14.555
TrackDT02	3	TrackDT	2.0	SCS215a	20121203.162721	20121203.164313	dt-conversation	8	0.013327	60	10	60-180	60	80	GapExp	0	147	2	30	0	target	0	408	-1000	76519	13.328	10.081	16.580
TrackDT02	3	TrackDT	2.0	SCS215a	20121203.162721	20121203.164319	dt-conversation	8	0.013327	60	10	60-180	60	74	GapExp	0	148	2	3	1	target	1	572	714	77233	13.328	7.859	18.778
TrackDT02	3	TrackDT	2.0	SCS215a	20121203.162721	20121203.164324	dt-conversation	8	0.013327	60	10	60-180	60	156	GapExp	0	149	2	6	0	target	0	601	-1000	76233	13.328	12.059	14.597
TrackDT02	3	TrackDT	2.0	SCS215a	20121203.162721	20121203.164330	dt-conversation	8	0.013327	60	10	60-180	60	158	GapExp	0	150	2	0	0	distractor	1	807	597	76830	13.328	10.734	15.920
TrackDT02	3	TrackDT	2.0	SCS215a	20121203.162721	20121203.164405	dt-conversation	8	0.013327	60	10	60-180	60	141	GapExp	0	151	2	6	0	distractor	1	576	712	77542	13.328	10.299	16.359
TrackDT02	3	TrackDT	2.0	SCS215a	20121203.162721	20121203.164412	dt-conversation	8	0.013327	60	10	60-180	60	134	GapExp	0	152	2	30	1	target	1	1529	236	77778	13.328	9.839	16.808
TrackDT02	3	TrackDT	2.0	SCS215a	20121203.162721	20121203.164419	dt-conversation	8	0.013327	60	10	60-180	60	125	GapExp	0	153	2	3	1	target	1	616	692	78470	13.328	11.579	15.076
TrackDT02	3	TrackDT	2.0	SCS215a	20121203.162721	20121203.164425	dt-conversation	8	0.013327	60	10	60-180	60	135	GapExp	0	154	2	0	1	target	1	449	776	79246	13.328	6.691	19.971
TrackDT02	3	TrackDT	2.0	SCS215a	20121203.162721	20121203.164430	dt-conversation	8	0.013327	60	10	60-180	60	91	GapExp	0	155	2	30	0	target	0	511	-1000	78246	13.328	5.692	20.964
TrackDT02	3	TrackDT	2.0	SCS215a	20121203.162721	20121203.164436	dt-conversation	8	0.013327	60	10	60-180	60	108	GapExp	0	156	2	1	1	target	1	514	743	78989	13.328	13.224	13.433
TrackDT02	3	TrackDT	2.0	SCS215a	20121203.162721	20121203.164442	dt-conversation	8	0.013327	60	10	60-180	60	153	GapExp	0	157	2	30	0	distractor	1	822	589	79578	13.328	10.391	16.259
TrackDT02	3	TrackDT	2.0	SCS215a	20121203.162721	20121203.164449	dt-conversation	8	0.013327	60	10	60-180	60	81	GapExp	0	158	2	3	1	target	1	480	760	80338	13.328	10.893	15.749
TrackDT02	3	TrackDT	2.0	SCS215a	20121203.162721	20121203.164454	dt-conversation	8	0.013327	60	10	60-180	60	83	GapExp	0	159	2	3	1	target	1	471	765	81103	13.328	12.313	14.345
TrackDT02	3	TrackDT	2.0	SCS215a	20121203.162721	20121203.164459	dt-conversation	8	0.013327	60	10	60-180	60	171	GapExp	0	160	2	6	1	target	1	428	786	81889	13.328	13.111	13.543
TrackDT02	3	TrackDT	2.0	SCS215a	20121203.162721	20121203.164505	dt-conversation	8	0.013327	60	10	60-180	60	108	GapExp	0	161	2	3	1	target	1	1130	435	82324	13.328	13.308	13.347
TrackDT02	3	TrackDT	2.0	SCS215a	20121203.162721	20121203.164511	dt-conversation	8	0.013327	60	10	60-180	60	102	GapExp	0	162	2	0	0	distractor	1	1098	451	82775	13.328	12.513	14.143
TrackDT02	3	TrackDT	2.0	SCS215a	20121203.162721	20121203.164517	dt-conversation	8	0.013327	60	10	60-180	60	175	GapExp	0	163	2	0	1	target	1	434	783	83558	13.328	11.810	14.846
TrackDT02	3	TrackDT	2.0	SCS215a	20121203.162721	20121203.164524	dt-conversation	8	0.013327	60	10	60-180	60	74	GapExp	0	164	2	0	1	target	1	532	734	84292	13.328	8.014	18.629
TrackDT02	3	TrackDT	2.0	SCS215a	20121203.162721	20121203.164529	dt-conversation	8	0.013327	60	10	60-180	60	127	GapExp	0	165	2	1	1	target	1	361	820	85112	13.328	13.092	13.558
TrackDT02	3	TrackDT	2.0	SCS215a	20121203.162721	20121203.164535	dt-conversation	8	0.013327	60	10	60-180	60	149	GapExp	0	166	2	6	1	target	1	480	760	85872	13.328	9.883	16.778
TrackDT02	3	TrackDT	2.0	SCS215a	20121203.162721	20121203.164541	dt-conversation	8	0.013327	60	10	60-180	60	178	GapExp	0	167	2	30	1	target	1	645	678	86550	13.328	11.624	15.031
TrackDT02	3	TrackDT	2.0	SCS215a	20121203.162721	20121203.164547	dt-conversation	8	0.013327	60	10	60-180	60	126	GapExp	0	168	2	30	1	target	1	429	786	87336	13.328	12.102	14.602
TrackDT02	3	TrackDT	2.0	SCS215a	20121203.162721	20121203.164553	dt-conversation	8	0.013327	60	10	60-180	60	119	GapExp	0	169	2	0	1	target	1	421	790	88126	13.328	11.844	15.081
TrackDT02	3	TrackDT	2.0	SCS215a	20121203.162721	20121203.164559	dt-conversation	8	0.013327	60	10	60-180	60	139	GapExp	0	170	2	0	0	target	0	420	-1000	87126	13.328	10.247	16.396
TrackDT02	3	TrackDT	2.0	SCS215a	20121203.162721	20121203.164605	dt-conversation	8	0.013327	60	10	60-180	60	105	GapExp	0	171	2	3	1	target	1	480	760	87886	13.328	13.089	13.573
TrackDT02	3	TrackDT	2.0	SCS215a	20121203.162721	20121203.164611	dt-conversation	8	0.013327	60	10	60-180	60	86	GapExp	0	172	2	3	1	target	1	489	756	88642	13.328	10.063	16.605
TrackDT02	3	TrackDT	2.0	SCS215a	20121203.162721	20121203.164616	dt-conversation	8	0.013327	60	10	60-180	60	156	GapExp	0	173	2	1	0	target	0	631	-1000	87642	13.328	13.108	13.541
TrackDT02	3	TrackDT	2.0	SCS215a	20121203.162721	20121203.164622	dt-conversation	8	0.013327	60	10	60-180	60	161	GapExp	0	174	2	3	1	target	1	1283	359	88001	13.328	4.510	22.149
TrackDT02	3	TrackDT	2.0	SCS215a	20121203.162721	20121203.164629	dt-conversation	8	0.013327	60	10	60-180	60	173	GapExp	0	175	2	3	0	distractor	1	606	697	88698	13.328	9.098	18.781
TrackDT02	3	TrackDT	2.0	SCS215a	20121203.162721	20121203.164636	dt-conversation	8	0.013327	60	10	60-180	60	148	GapExp	0	176	2	3	0	target	0	618	-1000	87698	13.328	13.295	13.353
TrackDT02	3	TrackDT	2.0	SCS215a	20121203.162721	20121203.164642	dt-conversation	8	0.013327	60	10	60-180	60	64	GapExp	0	177	2	3	0	target	0	1000	-1000	86698	13.328	9.930	16.721
TrackDT02	3	TrackDT	2.0	SCS215a	20121203.162721	20121203.164647	dt-conversation	8	0.013327	60	10	60-180	60	153	GapExp	0	178	2	0	0	distractor	1	523	739	87437	13.328	8.464	18.190
TrackDT02	3	TrackDT	2.0	SCS215a	20121203.162721	20121203.164653	dt-conversation	8	0.013327	60	10	60-180	60	126	GapExp	0	179	2	3	0	target	0	723	-1000	86437	13.328	9.697	16.951
TrackDT02	3	TrackDT	2.0	SCS215a	20121203.162721	20121203.164659	dt-conversation	8	0.013327	60	10	60-180	60	121	GapExp	0	180	2	0	1	target	1	596	702	87139	13.328	10.840	15.801
TrackDT02	3	TrackDT	2.0	SCS215a	20121203.162721	20121203.164705	dt-conversation	8	0.013327	60	10	60-180	60	143	GapExp	0	181	2	6	1	target	1	468	766	87905	13.328	10.181	16.490
TrackDT02	3	TrackDT	2.0	SCS215a	20121203.162721	20121203.164711	dt-conversation	8	0.013327	60	10	60-180	60	165	GapExp	0	182	2	6	0	distractor	1	2221	0	87905	13.328	5.864	20.794
TrackDT02	3	TrackDT	2.0	SCS215a	20121203.162721	20121203.164719	dt-conversation	8	0.013327	60	10	60-180	60	154	GapExp	0	183	2	0	0	target	0	1150	-1000	86905	13.328	11.776	14.851
TrackDT02	3	TrackDT	2.0	SCS215a	20121203.162721	20121203.164726	dt-conversation	8	0.013327	60	10	60-180	60	163	GapExp	0	184	2	1	0	distractor	1	4763	0	86905	13.328	10.731	15.936
TrackDT02	3	TrackDT	2.0	SCS215a	20121203.162721	20121203.164737	dt-conversation	8	0.013327	60	10	60-180	60	135	GapExp	0	185	2	1	0	distractor	1	454	773	87678	13.328	11.260	15.389
TrackDT02	3	TrackDT	2.0	SCS215a	20121203.162721	20121203.164743	dt-conversation	8	0.013327	60	10	60-180	60	179	GapExp	0	186	2	3	0	distractor	1	476	762	88440	13.328	10.249	16.415
TrackDT02	3	TrackDT	2.0	SCS215a	20121203.162721	20121203.164749	dt-conversation	8	0.013327	60	10	60-180	60	103	GapExp	0	187	2	3	0	distractor	1	595	703	89143	13.328	13.105	13.545
TrackDT02	3	TrackDT	2.0	SCS215a	20121203.162721	20121203.164755	dt-conversation	8	0.013327	60	10	60-180	60	87	GapExp	0	188	2	1	0	target	0	537	-1000	88143	13.328	13.106	13.562
TrackDT02	3	TrackDT	2.0	SCS215a	20121203.162721	20121203.164800	dt-conversation	8	0.013327	60	10	60-180	60	103	GapExp	0	189	2	1	1	target	1	926	537	88680	13.328	13.307	13.355
TrackDT02	3	TrackDT	2.0	SCS215a	20121203.162721	20121203.164806	dt-conversation	8	0.013327	60	10	60-180	60	147	GapExp	0	190	2	1	1	target	1	499	751	89431	13.334	13.308	14.975
TrackDT02	3	TrackDT	2.0	SCS215a	20121203.162721	20121203.164812	dt-conversation	8	0.013327	60	10	60-180	60	115	GapExp	0	191	2	1	1	target	1	462	769	90200	13.328	10.606	16.058
TrackDT02	3	TrackDT	2.0	SCS215a	20121203.162721	20121203.164818	dt-conversation	8	0.013327	60	10	60-180	60	102	GapExp	0	192	2	0	1	target	1	538	731	90931	13.328	13.090	13.554
TrackDT02	3	TrackDT	2.0	SCS215a	20121203.162721	20121203.164823	dt-conversation	8	0.013327	60	10	60-180	60	153	GapExp	0	193	2	6	0	target	0	1016	-1000	89931	13.328	13.108	13.549
TrackDT02	3	TrackDT	2.0	SCS215a	20121203.162721	20121203.164830	dt-conversation	8	0.013327	60	10	60-180	60	131	GapExp	0	194	2	30	0	distractor	1	627	687	90618	13.328	10.548	16.117
TrackDT02	3	TrackDT	2.0	SCS215a	20121203.162721	20121203.164836	dt-conversation	8	0.013327	60	10	60-180	60	80	GapExp	0	195	2	30	1	target	1	550	725	91343	13.328	11.273	15.372
TrackDT02	3	TrackDT	2.0	SCS215a	20121203.162721	20121203.164841	dt-conversation	8	0.013327	60	10	60-180	60	117	GapExp	0	196	2	30	1	distractor	0	1763	-1000	90343	13.328	8.934	17.716
TrackDT02	3	TrackDT	2.0	SCS215a	20121203.162721	20121203.164849	dt-conversation	8	0.013327	60	10	60-180	60	90	GapExp	0	197	2	1	0	distractor	1	666	667	91010	13.328	13.302	13.355
TrackDT02	3	TrackDT	2.0	SCS215a	20121203.162721	20121203.164854	dt-conversation	8	0.013327	60	10	60-180	60	176	GapExp	0	198	2	30	0	distractor	1	731	635	91645	13.328	10.479	16.197
TrackDT02	3	TrackDT	2.0	SCS215a	20121203.162721	20121203.164901	dt-conversation	8	0.013327	60	10	60-180	60	160	GapExp	0	199	2	3	0	distractor	1	455	773	92418	13.328	13.304	13.352
TrackDT02	3	TrackDT	2.0	SCS215a	20121203.162721	20121203.164907	dt-conversation	8	0.013327	60	10	60-180	60	155	GapExp	0	200	2	6	0	distractor	1	476	762	93180	13.328	13.198	13.465
TrackDT02	3	TrackDT	2.0	SCS215a	20121203.164931	20121203.164951	single-task	8	0.013328	60	10	60-180	60	142	GapExp	1	1	2	3	1	distractor	0	459	-1000	92180	13.328	10.916	15.748
TrackDT02	3	TrackDT	2.0	SCS215a	20121203.164931	20121203.164957	single-task	8	0.013328	60	10	60-180	60	163	GapExp	1	2	2	30	1	target	1	521	740	92920	13.328	13.282	13.370
TrackDT02	3	TrackDT	2.0	SCS215a	20121203.164931	20121203.165004	single-task	8	0.013328	60	10	60-180	60	136	GapExp	1	3	2	6	1	target	1	426	787	93707	13.328	9.018	17.626
TrackDT02	3	TrackDT	2.0	SCS215a	20121203.164931	20121203.165010	single-task	8	0.013328	60	10	60-180	60	71	GapExp	1	4	2	1	1	target	1	359	821	94528	13.328	13.110	13.552
TrackDT02	3	TrackDT	2.0	SCS215a	20121203.164931	20121203.165014	single-task	8	0.013328	60	10	60-180	60	169	GapExp	1	5	2	30	0	distractor	1	664	668	95196	13.328	11.513	15.130
TrackDT02	3	TrackDT	2.0	SCS215a	20121203.164931	20121203.165021	single-task	8	0.013328	60	10	60-180	60	89	GapExp	1	6	2	1	0	target	0	813	-1000	94196	13.329	13.308	13.558
TrackDT02	3	TrackDT	2.0	SCS215a	20121203.164931	20121203.165027	single-task	8	0.013328	60	10	60-180	60	164	GapExp	1	7	2	0	1	target	1	522	739	94935	13.328	7.196	19.461
TrackDT02	3	TrackDT	2.0	SCS215a	20121203.164931	20121203.165033	single-task	8	0.013328	60	10	60-180	60	172	GapExp	1	8	2	3	0	distractor	1	477	762	95697	13.328	8.757	17.902
TrackDT02	3	TrackDT	2.0	SCS215a	20121203.164931	20121203.165040	single-task	8	0.013328	60	10	60-180	60	115	GapExp	1	9	2	0	0	target	0	828	-1000	94697	13.328	13.037	13.630
TrackDT02	3	TrackDT	2.0	SCS215a	20121203.164931	20121203.165045	single-task	8	0.013328	60	10	60-180	60	177	GapExp	1	10	2	6	0	distractor	1	573	714	95411	13.328	11.498	15.155
TrackDT02	3	TrackDT	2.0	SCS215a	20121203.164931	20121203.165052	single-task	8	0.013328	60	10	60-180	60	173	GapExp	0	11	2	6	1	target	1	406	797	96208	13.328	10.843	15.807
TrackDT02	3	TrackDT	2.0	SCS215a	20121203.164931	20121203.165058	single-task	8	0.013328	60	10	60-180	60	62	GapExp	0	12	2	6	0	target	0	388	-1000	95208	13.328	13.100	13.557
TrackDT02	3	TrackDT	2.0	SCS215a	20121203.164931	20121203.165103	single-task	8	0.013328	60	10	60-180	60	113	GapExp	0	13	2	3	0	distractor	1	805	598	95806	13.328	7.205	19.444
TrackDT02	3	TrackDT	2.0	SCS215a	20121203.164931	20121203.165109	single-task	8	0.013328	60	10	60-180	60	130	GapExp	0	14	2	30	0	target	0	639	-1000	94806	13.328	13.303	13.348
TrackDT02	3	TrackDT	2.0	SCS215a	20121203.164931	20121203.165115	single-task	8	0.013328	60	10	60-180	60	78	GapExp	0	15	2	6	0	distractor	1	567	717	95523	13.328	13.302	13.348
TrackDT02	3	TrackDT	2.0	SCS215a	20121203.164931	20121203.165120	single-task	8	0.013328	60	10	60-180	60	176	GapExp	0	16	2	30	0	distractor	1	498	751	96274	13.328	10.622	16.043
TrackDT02	3	TrackDT	2.0	SCS215a	20121203.164931	20121203.165127	single-task	8	0.013328	60	10	60-180	60	85	GapExp	0	17	2	0	1	target	1	478	761	97035	13.328	11.730	14.923
TrackDT02	3	TrackDT	2.0	SCS215a	20121203.164931	20121203.165132	single-task	8	0.013328	60	10	60-180	60	150	GapExp	0	18	2	1	1	target	1	383	809	97844	13.328	10.619	16.045
TrackDT02	3	TrackDT	2.0	SCS215a	20121203.164931	20121203.165138	single-task	8	0.013328	60	10	60-180	60	87	GapExp	0	19	2	0	0	distractor	1	797	602	98446	13.328	13.298	13.358
TrackDT02	3	TrackDT	2.0	SCS215a	20121203.164931	20121203.165144	single-task	8	0.013328	60	10	60-180	60	104	GapExp	0	20	2	30	1	target	1	651	675	99121	13.328	13.307	13.344
TrackDT02	3	TrackDT	2.0	SCS215a	20121203.164931	20121203.165150	single-task	8	0.013328	60	10	60-180	60	130	GapExp	0	21	2	1	0	distractor	1	515	743	99864	13.328	12.726	13.923
TrackDT02	3	TrackDT	2.0	SCS215a	20121203.164931	20121203.165156	single-task	8	0.013328	60	10	60-180	60	122	GapExp	0	22	2	6	0	distractor	1	392	804	100668	13.494	2.922	37.227
TrackDT02	3	TrackDT	2.0	SCS215a	20121203.164931	20121203.165201	single-task	8	0.013328	60	10	60-180	60	111	GapExp	0	23	2	30	1	distractor	0	726	-1000	99668	13.328	11.053	15.603
TrackDT02	3	TrackDT	2.0	SCS215a	20121203.164931	20121203.165207	single-task	8	0.013328	60	10	60-180	60	89	GapExp	0	24	2	0	0	target	0	397	-1000	98668	13.328	13.097	13.558
TrackDT02	3	TrackDT	2.0	SCS215a	20121203.164931	20121203.165212	single-task	8	0.013328	60	10	60-180	60	157	GapExp	0	25	2	1	1	target	1	528	736	99404	13.328	11.072	15.583
TrackDT02	3	TrackDT	2.0	SCS215a	20121203.164931	20121203.165219	single-task	8	0.013328	60	10	60-180	60	77	GapExp	0	26	2	6	1	target	1	489	756	100160	13.328	13.285	13.370
TrackDT02	3	TrackDT	2.0	SCS215a	20121203.164931	20121203.165224	single-task	8	0.013328	60	10	60-180	60	126	GapExp	0	27	2	0	0	distractor	1	503	749	100909	13.328	13.113	13.543
TrackDT02	3	TrackDT	2.0	SCS215a	20121203.164931	20121203.165230	single-task	8	0.013328	60	10	60-180	60	106	GapExp	0	28	2	0	1	target	1	403	799	101708	13.328	11.659	14.990
TrackDT02	3	TrackDT	2.0	SCS215a	20121203.164931	20121203.165235	single-task	8	0.013328	60	10	60-180	60	107	GapExp	0	29	2	3	0	distractor	1	460	770	102478	13.328	9.634	17.022
TrackDT02	3	TrackDT	2.0	SCS215a	20121203.164931	20121203.165240	single-task	8	0.013328	60	10	60-180	60	98	GapExp	0	30	2	3	1	target	1	518	741	103219	13.328	13.254	13.389
TrackDT02	3	TrackDT	2.0	SCS215a	20121203.164931	20121203.165246	single-task	8	0.013328	60	10	60-180	60	146	GapExp	0	31	2	6	1	target	1	442	779	103998	13.328	13.302	13.355
TrackDT02	3	TrackDT	2.0	SCS215a	20121203.164931	20121203.165252	single-task	8	0.013328	60	10	60-180	60	119	GapExp	0	32	2	30	1	target	1	487	757	104755	13.328	13.285	13.378
TrackDT02	3	TrackDT	2.0	SCS215a	20121203.164931	20121203.165258	single-task	8	0.013328	60	10	60-180	60	113	GapExp	0	33	2	3	0	distractor	1	480	760	105515	13.328	10.917	15.748
TrackDT02	3	TrackDT	2.0	SCS215a	20121203.164931	20121203.165304	single-task	8	0.013328	60	10	60-180	60	81	GapExp	0	34	2	3	0	distractor	1	548	726	106241	13.328	10.427	16.242
TrackDT02	3	TrackDT	2.0	SCS215a	20121203.164931	20121203.165309	single-task	8	0.013328	60	10	60-180	60	105	GapExp	0	35	2	1	1	distractor	0	357	-1000	105241	13.328	13.308	13.346
TrackDT02	3	TrackDT	2.0	SCS215a	20121203.164931	20121203.165314	single-task	8	0.013328	60	10	60-180	60	133	GapExp	0	36	2	6	0	target	0	650	-1000	104241	13.328	9.559	17.102
TrackDT02	3	TrackDT	2.0	SCS215a	20121203.164931	20121203.165320	single-task	8	0.013328	60	10	60-180	60	68	GapExp	0	37	2	0	0	distractor	1	601	700	104941	13.328	7.359	19.299
TrackDT02	3	TrackDT	2.0	SCS215a	20121203.164931	20121203.165325	single-task	8	0.013328	60	10	60-180	60	174	GapExp	0	38	2	0	1	target	1	486	757	105698	13.328	13.105	13.564
TrackDT02	3	TrackDT	2.0	SCS215a	20121203.164931	20121203.165332	single-task	8	0.013328	60	10	60-180	60	177	GapExp	0	39	2	6	1	target	1	340	830	106528	13.328	8.451	18.192
TrackDT02	3	TrackDT	2.0	SCS215a	20121203.164931	20121203.165338	single-task	8	0.013328	60	10	60-180	60	66	GapExp	0	40	2	3	1	target	1	458	771	107299	13.328	9.750	16.906
TrackDT02	3	TrackDT	2.0	SCS215a	20121203.164931	20121203.165343	single-task	8	0.013328	60	10	60-180	60	117	GapExp	0	41	2	30	0	distractor	1	571	715	108014	13.328	10.535	16.107
TrackDT02	3	TrackDT	2.0	SCS215a	20121203.164931	20121203.165349	single-task	8	0.013328	60	10	60-180	60	99	GapExp	0	42	2	3	1	target	1	528	736	108750	13.328	13.303	13.349
TrackDT02	3	TrackDT	2.0	SCS215a	20121203.164931	20121203.165354	single-task	8	0.013328	60	10	60-180	60	162	GapExp	0	43	2	3	0	distractor	1	821	590	109340	13.328	9.166	19.457
TrackDT02	3	TrackDT	2.0	SCS215a	20121203.164931	20121203.165401	single-task	8	0.013328	60	10	60-180	60	111	GapExp	0	44	2	6	0	target	0	387	-1000	108340	13.328	13.106	13.559
TrackDT02	3	TrackDT	2.0	SCS215a	20121203.164931	20121203.165407	single-task	8	0.013328	60	10	60-180	60	62	GapExp	0	45	2	6	1	target	1	400	800	109140	13.328	8.639	18.017
TrackDT02	3	TrackDT	2.0	SCS215a	20121203.164931	20121203.165411	single-task	8	0.013328	60	10	60-180	60	127	GapExp	0	46	2	1	0	distractor	1	586	707	109847	13.328	10.332	16.316
TrackDT02	3	TrackDT	2.0	SCS215a	20121203.164931	20121203.165417	single-task	8	0.013328	60	10	60-180	60	97	GapExp	0	47	2	3	0	distractor	1	655	673	110520	13.328	11.215	15.433
TrackDT02	3	TrackDT	2.0	SCS215a	20121203.164931	20121203.165422	single-task	8	0.013328	60	10	60-180	60	127	GapExp	0	48	2	3	1	target	1	383	809	111329	13.328	13.305	13.346
TrackDT02	3	TrackDT	2.0	SCS215a	20121203.164931	20121203.165428	single-task	8	0.013328	60	10	60-180	60	77	GapExp	0	49	2	6	1	target	1	360	820	112149	13.328	13.087	13.564
TrackDT02	3	TrackDT	2.0	SCS215a	20121203.164931	20121203.165433	single-task	8	0.013328	60	10	60-180	60	177	GapExp	0	50	2	1	0	distractor	1	476	762	112911	13.328	13.112	13.545
TrackDT02	3	TrackDT	2.0	SCS215a	20121203.164931	20121203.165446	single-task	8	0.013328	60	10	60-180	60	88	GapExp	0	51	2	3	1	distractor	0	749	-1000	111911	13.328	10.192	16.457
TrackDT02	3	TrackDT	2.0	SCS215a	20121203.164931	20121203.165452	single-task	8	0.013328	60	10	60-180	60	83	GapExp	0	52	2	6	0	distractor	1	463	769	112680	13.328	10.556	16.097
TrackDT02	3	TrackDT	2.0	SCS215a	20121203.164931	20121203.165457	single-task	8	0.013328	60	10	60-180	60	126	GapExp	0	53	2	3	0	distractor	1	427	787	113467	13.328	9.020	17.636
TrackDT02	3	TrackDT	2.0	SCS215a	20121203.164931	20121203.165502	single-task	8	0.013328	60	10	60-180	60	99	GapExp	0	54	2	3	1	target	1	410	795	114262	13.328	13.099	13.550
TrackDT02	3	TrackDT	2.0	SCS215a	20121203.164931	20121203.165508	single-task	8	0.013328	60	10	60-180	60	80	GapExp	0	55	2	1	0	distractor	1	521	740	115002	13.328	13.305	13.357
TrackDT02	3	TrackDT	2.0	SCS215a	20121203.164931	20121203.165513	single-task	8	0.013328	60	10	60-180	60	68	GapExp	0	56	2	0	1	target	1	440	780	115782	13.328	13.307	13.349
TrackDT02	3	TrackDT	2.0	SCS215a	20121203.164931	20121203.165518	single-task	8	0.013328	60	10	60-180	60	174	GapExp	0	57	2	0	0	distractor	1	506	747	116529	13.328	10.450	16.202
TrackDT02	3	TrackDT	2.0	SCS215a	20121203.164931	20121203.165524	single-task	8	0.013328	60	10	60-180	60	76	GapExp	0	58	2	3	0	distractor	1	413	794	117323	13.328	13.116	13.555
TrackDT02	3	TrackDT	2.0	SCS215a	20121203.164931	20121203.165529	single-task	8	0.013328	60	10	60-180	60	168	GapExp	0	59	2	1	1	target	1	405	798	118121	13.328	13.092	13.564
TrackDT02	3	TrackDT	2.0	SCS215a	20121203.164931	20121203.165535	single-task	8	0.013328	60	10	60-180	60	111	GapExp	0	60	2	3	0	distractor	1	531	735	118856	13.328	13.304	13.347
TrackDT02	3	TrackDT	2.0	SCS215a	20121203.164931	20121203.165541	single-task	8	0.013328	60	10	60-180	60	116	GapExp	0	61	2	0	0	distractor	1	466	767	119623	13.328	13.309	13.349
TrackDT02	3	TrackDT	2.0	SCS215a	20121203.164931	20121203.165546	single-task	8	0.013328	60	10	60-180	60	102	GapExp	0	62	2	3	0	distractor	1	463	769	120392	13.447	13.155	38.409
TrackDT02	3	TrackDT	2.0	SCS215a	20121203.164931	20121203.165552	single-task	8	0.013328	60	10	60-180	60	93	GapExp	0	63	2	3	1	target	1	805	598	120990	13.328	9.935	16.712
TrackDT02	3	TrackDT	2.0	SCS215a	20121203.164931	20121203.165557	single-task	8	0.013328	60	10	60-180	60	154	GapExp	0	64	2	6	1	target	1	453	774	121764	13.328	13.093	13.564
TrackDT02	3	TrackDT	2.0	SCS215a	20121203.164931	20121203.165603	single-task	8	0.013328	60	10	60-180	60	169	GapExp	0	65	2	0	0	distractor	1	431	785	122549	13.328	13.302	13.346
TrackDT02	3	TrackDT	2.0	SCS215a	20121203.164931	20121203.165609	single-task	8	0.013328	60	10	60-180	60	68	GapExp	0	66	2	6	1	target	1	394	803	123352	13.328	13.274	13.383
TrackDT02	3	TrackDT	2.0	SCS215a	20121203.164931	20121203.165615	single-task	8	0.013328	60	10	60-180	60	142	GapExp	0	67	2	6	1	target	1	713	644	123996	13.328	13.277	13.372
TrackDT02	3	TrackDT	2.0	SCS215a	20121203.164931	20121203.165621	single-task	8	0.013328	60	10	60-180	60	94	GapExp	0	68	2	1	0	distractor	1	497	752	124748	13.328	12.061	14.565
TrackDT02	3	TrackDT	2.0	SCS215a	20121203.164931	20121203.165626	single-task	8	0.013328	60	10	60-180	60	100	GapExp	0	69	2	1	0	distractor	1	1478	261	125009	13.328	10.633	16.028
TrackDT02	3	TrackDT	2.0	SCS215a	20121203.164931	20121203.165632	single-task	8	0.013328	60	10	60-180	60	107	GapExp	0	70	2	3	0	distractor	1	494	753	125762	13.328	11.179	15.461
TrackDT02	3	TrackDT	2.0	SCS215a	20121203.164931	20121203.165638	single-task	8	0.013328	60	10	60-180	60	132	GapExp	0	71	2	30	1	target	1	570	715	126477	13.328	13.307	13.351
TrackDT02	3	TrackDT	2.0	SCS215a	20121203.164931	20121203.165644	single-task	8	0.013328	60	10	60-180	60	97	GapExp	0	72	2	30	0	distractor	1	614	693	127170	13.328	13.307	13.353
TrackDT02	3	TrackDT	2.0	SCS215a	20121203.164931	20121203.165650	single-task	8	0.013328	60	10	60-180	60	71	GapExp	0	73	2	3	0	distractor	1	598	701	127871	13.328	10.396	16.260
TrackDT02	3	TrackDT	2.0	SCS215a	20121203.164931	20121203.165655	single-task	8	0.013328	60	10	60-180	60	80	GapExp	0	74	2	0	0	distractor	1	482	759	128630	13.328	11.437	15.232
TrackDT02	3	TrackDT	2.0	SCS215a	20121203.164931	20121203.165700	single-task	8	0.013328	60	10	60-180	60	174	GapExp	0	75	2	3	1	target	1	529	736	129366	13.328	10.005	16.638
TrackDT02	3	TrackDT	2.0	SCS215a	20121203.164931	20121203.165706	single-task	8	0.013328	60	10	60-180	60	125	GapExp	0	76	2	6	0	distractor	1	555	723	130089	13.328	13.204	13.445
TrackDT02	3	TrackDT	2.0	SCS215a	20121203.164931	20121203.165712	single-task	8	0.013328	60	10	60-180	60	136	GapExp	0	77	2	1	0	target	0	483	-1000	129089	13.328	13.269	13.382
TrackDT02	3	TrackDT	2.0	SCS215a	20121203.164931	20121203.165718	single-task	8	0.013328	60	10	60-180	60	71	GapExp	0	78	2	0	0	distractor	1	562	719	129808	13.328	12.508	14.153
TrackDT02	3	TrackDT	2.0	SCS215a	20121203.164931	20121203.165723	single-task	8	0.013328	60	10	60-180	60	154	GapExp	0	79	2	6	1	target	1	438	781	130589	13.328	12.585	14.064
TrackDT02	3	TrackDT	2.0	SCS215a	20121203.164931	20121203.165729	single-task	8	0.013328	60	10	60-180	60	111	GapExp	0	80	2	1	1	target	1	478	761	131350	13.328	10.786	15.877
TrackDT02	3	TrackDT	2.0	SCS215a	20121203.164931	20121203.165735	single-task	8	0.013328	60	10	60-180	60	108	GapExp	0	81	2	1	0	distractor	1	752	624	131974	13.328	9.770	16.903
TrackDT02	3	TrackDT	2.0	SCS215a	20121203.164931	20121203.165740	single-task	8	0.013328	60	10	60-180	60	115	GapExp	0	82	2	30	0	distractor	1	564	718	132692	13.328	13.270	13.383
TrackDT02	3	TrackDT	2.0	SCS215a	20121203.164931	20121203.165746	single-task	8	0.013328	60	10	60-180	60	72	GapExp	0	83	2	3	0	target	0	450	-1000	131692	13.328	13.284	13.379
TrackDT02	3	TrackDT	2.0	SCS215a	20121203.164931	20121203.165751	single-task	8	0.013328	60	10	60-180	60	153	GapExp	0	84	2	1	0	distractor	1	539	731	132423	13.328	13.085	13.571
TrackDT02	3	TrackDT	2.0	SCS215a	20121203.164931	20121203.165758	single-task	8	0.013328	60	10	60-180	60	154	GapExp	0	85	2	0	0	distractor	1	565	718	133141	13.328	12.920	13.752
TrackDT02	3	TrackDT	2.0	SCS215a	20121203.164931	20121203.165804	single-task	8	0.013328	60	10	60-180	60	180	GapExp	0	86	2	0	1	target	1	421	790	133931	13.328	8.415	18.247
TrackDT02	3	TrackDT	2.0	SCS215a	20121203.164931	20121203.165810	single-task	8	0.013328	60	10	60-180	60	82	GapExp	0	87	2	1	0	distractor	1	482	759	134690	13.328	11.902	14.753
TrackDT02	3	TrackDT	2.0	SCS215a	20121203.164931	20121203.165815	single-task	8	0.013328	60	10	60-180	60	74	GapExp	0	88	2	0	0	distractor	1	831	585	135275	13.328	13.305	13.359
TrackDT02	3	TrackDT	2.0	SCS215a	20121203.164931	20121203.165820	single-task	8	0.013328	60	10	60-180	60	92	GapExp	0	89	2	1	1	target	1	715	643	135918	13.328	10.375	16.277
TrackDT02	3	TrackDT	2.0	SCS215a	20121203.164931	20121203.165826	single-task	8	0.013328	60	10	60-180	60	85	GapExp	0	90	2	6	0	distractor	1	572	714	136632	13.328	13.097	13.544
TrackDT02	3	TrackDT	2.0	SCS215a	20121203.164931	20121203.165831	single-task	8	0.013328	60	10	60-180	60	146	GapExp	0	91	2	0	0	distractor	1	522	739	137371	13.328	12.231	14.424
TrackDT02	3	TrackDT	2.0	SCS215a	20121203.164931	20121203.165837	single-task	8	0.013328	60	10	60-180	60	165	GapExp	0	92	2	6	1	target	1	499	751	138122	13.328	7.858	18.804
TrackDT02	3	TrackDT	2.0	SCS215a	20121203.164931	20121203.165843	single-task	8	0.013328	60	10	60-180	60	119	GapExp	0	93	2	1	0	target	0	501	-1000	137122	13.328	13.306	13.351
TrackDT02	3	TrackDT	2.0	SCS215a	20121203.164931	20121203.165849	single-task	8	0.013328	60	10	60-180	60	160	GapExp	0	94	2	0	1	target	1	414	793	137915	13.328	7.146	19.510
TrackDT02	3	TrackDT	2.0	SCS215a	20121203.164931	20121203.165855	single-task	8	0.013328	60	10	60-180	60	94	GapExp	0	95	2	1	1	target	1	611	695	138610	13.328	13.097	13.566
TrackDT02	3	TrackDT	2.0	SCS215a	20121203.164931	20121203.165900	single-task	8	0.013328	60	10	60-180	60	113	GapExp	0	96	2	6	0	distractor	1	494	753	139363	13.328	13.091	13.563
TrackDT02	3	TrackDT	2.0	SCS215a	20121203.164931	20121203.165906	single-task	8	0.013328	60	10	60-180	60	152	GapExp	0	97	2	30	1	distractor	0	683	-1000	138363	13.328	11.598	15.064
TrackDT02	3	TrackDT	2.0	SCS215a	20121203.164931	20121203.165913	single-task	8	0.013328	60	10	60-180	60	107	GapExp	0	98	2	30	1	target	1	510	745	139108	13.328	10.187	16.467
TrackDT02	3	TrackDT	2.0	SCS215a	20121203.164931	20121203.165919	single-task	8	0.013328	60	10	60-180	60	73	GapExp	0	99	2	1	1	target	1	536	732	139840	13.328	13.300	13.354
TrackDT02	3	TrackDT	2.0	SCS215a	20121203.164931	20121203.165924	single-task	8	0.013328	60	10	60-180	60	151	GapExp	0	100	2	1	1	target	1	412	794	140634	13.328	10.284	16.365
TrackDT02	3	TrackDT	2.0	SCS215a	20121203.164931	20121203.165933	single-task	8	0.013328	60	10	60-180	60	103	GapExp	0	101	2	3	1	target	1	548	726	141360	13.328	11.212	15.448
TrackDT02	3	TrackDT	2.0	SCS215a	20121203.164931	20121203.165939	single-task	8	0.013328	60	10	60-180	60	124	GapExp	0	102	2	0	1	target	1	440	780	142140	13.328	13.303	13.344
TrackDT02	3	TrackDT	2.0	SCS215a	20121203.164931	20121203.165945	single-task	8	0.013328	60	10	60-180	60	97	GapExp	0	103	2	6	0	distractor	1	895	553	142693	13.328	13.017	13.632
TrackDT02	3	TrackDT	2.0	SCS215a	20121203.164931	20121203.165950	single-task	8	0.013328	60	10	60-180	60	89	GapExp	0	104	2	6	0	distractor	1	452	774	143467	13.328	8.488	18.168
TrackDT02	3	TrackDT	2.0	SCS215a	20121203.164931	20121203.165955	single-task	8	0.013328	60	10	60-180	60	171	GapExp	0	105	2	6	0	target	0	425	-1000	142467	13.328	13.099	13.550
TrackDT02	3	TrackDT	2.0	SCS215a	20121203.164931	20121203.170002	single-task	8	0.013328	60	10	60-180	60	173	GapExp	0	106	2	30	0	distractor	1	518	741	143208	13.328	13.105	13.551
TrackDT02	3	TrackDT	2.0	SCS215a	20121203.164931	20121203.170008	single-task	8	0.013328	60	10	60-180	60	163	GapExp	0	107	2	3	1	target	1	512	744	143952	13.328	13.286	13.362
TrackDT02	3	TrackDT	2.0	SCS215a	20121203.164931	20121203.170015	single-task	8	0.013328	60	10	60-180	60	167	GapExp	0	108	2	30	1	target	1	470	765	144717	13.328	11.510	15.146
TrackDT02	3	TrackDT	2.0	SCS215a	20121203.164931	20121203.170022	single-task	8	0.013328	60	10	60-180	60	161	GapExp	0	109	2	0	1	target	1	450	775	145492	13.328	7.746	18.910
TrackDT02	3	TrackDT	2.0	SCS215a	20121203.164931	20121203.170028	single-task	8	0.013328	60	10	60-180	60	112	GapExp	0	110	2	30	1	target	1	463	769	146261	13.328	9.376	17.279
TrackDT02	3	TrackDT	2.0	SCS215a	20121203.164931	20121203.170033	single-task	8	0.013328	60	10	60-180	60	174	GapExp	0	111	2	30	1	target	1	407	797	147058	13.328	12.745	13.927
TrackDT02	3	TrackDT	2.0	SCS215a	20121203.164931	20121203.170040	single-task	8	0.013328	60	10	60-180	60	161	GapExp	0	112	2	0	1	target	1	470	765	147823	13.328	11.937	14.754
TrackDT02	3	TrackDT	2.0	SCS215a	20121203.164931	20121203.170047	single-task	8	0.013328	60	10	60-180	60	133	GapExp	0	113	2	6	1	target	1	484	758	148581	13.328	12.842	13.809
TrackDT02	3	TrackDT	2.0	SCS215a	20121203.164931	20121203.170052	single-task	8	0.013328	60	10	60-180	60	116	GapExp	0	114	2	30	1	target	1	517	742	149323	13.328	10.031	16.633
TrackDT02	3	TrackDT	2.0	SCS215a	20121203.164931	20121203.170058	single-task	8	0.013328	60	10	60-180	60	76	GapExp	0	115	2	30	0	distractor	1	539	731	150054	13.328	13.098	13.544
TrackDT02	3	TrackDT	2.0	SCS215a	20121203.164931	20121203.170104	single-task	8	0.013328	60	10	60-180	60	68	GapExp	0	116	2	0	1	target	1	427	787	150841	13.328	13.301	13.351
TrackDT02	3	TrackDT	2.0	SCS215a	20121203.164931	20121203.170109	single-task	8	0.013328	60	10	60-180	60	96	GapExp	0	117	2	30	0	distractor	1	547	727	151568	13.328	11.421	15.245
TrackDT02	3	TrackDT	2.0	SCS215a	20121203.164931	20121203.170114	single-task	8	0.013328	60	10	60-180	60	79	GapExp	0	118	2	30	1	target	1	550	725	152293	13.328	6.472	20.184
TrackDT02	3	TrackDT	2.0	SCS215a	20121203.164931	20121203.170120	single-task	8	0.013328	60	10	60-180	60	83	GapExp	0	119	2	1	0	distractor	1	643	679	152972	13.328	11.639	15.016
TrackDT02	3	TrackDT	2.0	SCS215a	20121203.164931	20121203.170125	single-task	8	0.013328	60	10	60-180	60	180	GapExp	0	120	2	6	0	distractor	1	534	733	153705	13.328	9.989	16.664
TrackDT02	3	TrackDT	2.0	SCS215a	20121203.164931	20121203.170132	single-task	8	0.013328	60	10	60-180	60	160	GapExp	0	121	2	30	1	target	1	514	743	154448	13.328	11.719	14.957
TrackDT02	3	TrackDT	2.0	SCS215a	20121203.164931	20121203.170138	single-task	8	0.013328	60	10	60-180	60	174	GapExp	0	122	2	1	0	distractor	1	558	721	155169	13.328	13.302	13.359
TrackDT02	3	TrackDT	2.0	SCS215a	20121203.164931	20121203.170145	single-task	8	0.013328	60	10	60-180	60	72	GapExp	0	123	2	6	0	target	0	588	-1000	154169	13.328	13.306	13.353
TrackDT02	3	TrackDT	2.0	SCS215a	20121203.164931	20121203.170150	single-task	8	0.013328	60	10	60-180	60	109	GapExp	0	124	2	1	0	distractor	1	451	775	154944	13.328	13.111	13.556
TrackDT02	3	TrackDT	2.0	SCS215a	20121203.164931	20121203.170156	single-task	8	0.013328	60	10	60-180	60	108	GapExp	0	125	2	0	1	target	1	427	787	155731	13.328	10.557	16.113
TrackDT02	3	TrackDT	2.0	SCS215a	20121203.164931	20121203.170201	single-task	8	0.013328	60	10	60-180	60	121	GapExp	0	126	2	6	1	target	1	472	764	156495	13.328	13.308	13.352
TrackDT02	3	TrackDT	2.0	SCS215a	20121203.164931	20121203.170207	single-task	8	0.013328	60	10	60-180	60	129	GapExp	0	127	2	6	1	distractor	0	356	-1000	155495	13.328	13.299	13.348
TrackDT02	3	TrackDT	2.0	SCS215a	20121203.164931	20121203.170212	single-task	8	0.013328	60	10	60-180	60	166	GapExp	0	128	2	1	1	target	1	328	836	156331	13.328	13.302	13.348
TrackDT02	3	TrackDT	2.0	SCS215a	20121203.164931	20121203.170218	single-task	8	0.013328	60	10	60-180	60	74	GapExp	0	129	2	1	1	target	1	372	814	157145	13.328	13.086	13.557
TrackDT02	3	TrackDT	2.0	SCS215a	20121203.164931	20121203.170223	single-task	8	0.013328	60	10	60-180	60	107	GapExp	0	130	2	30	1	target	1	468	766	157911	13.328	13.100	13.565
TrackDT02	3	TrackDT	2.0	SCS215a	20121203.164931	20121203.170229	single-task	8	0.013328	60	10	60-180	60	102	GapExp	0	131	2	1	1	target	1	549	726	158637	13.328	9.057	17.606
TrackDT02	3	TrackDT	2.0	SCS215a	20121203.164931	20121203.170235	single-task	8	0.013328	60	10	60-180	60	147	GapExp	0	132	2	30	1	distractor	0	680	-1000	157637	13.328	8.626	18.031
TrackDT02	3	TrackDT	2.0	SCS215a	20121203.164931	20121203.170241	single-task	8	0.013328	60	10	60-180	60	65	GapExp	0	133	2	3	0	distractor	1	587	707	158344	13.328	9.592	17.057
TrackDT02	3	TrackDT	2.0	SCS215a	20121203.164931	20121203.170246	single-task	8	0.013328	60	10	60-180	60	134	GapExp	0	134	2	30	0	distractor	1	723	639	158983	13.328	10.355	16.301
TrackDT02	3	TrackDT	2.0	SCS215a	20121203.164931	20121203.170252	single-task	8	0.013328	60	10	60-180	60	75	GapExp	0	135	2	1	0	distractor	1	684	658	159641	13.328	13.111	13.558
TrackDT02	3	TrackDT	2.0	SCS215a	20121203.164931	20121203.170257	single-task	8	0.013328	60	10	60-180	60	114	GapExp	0	136	2	0	1	target	1	560	720	160361	13.328	12.445	14.205
TrackDT02	3	TrackDT	2.0	SCS215a	20121203.164931	20121203.170304	single-task	8	0.013328	60	10	60-180	60	104	GapExp	0	137	2	6	1	target	1	411	795	161156	13.328	11.030	15.640
TrackDT02	3	TrackDT	2.0	SCS215a	20121203.164931	20121203.170309	single-task	8	0.013328	60	10	60-180	60	173	GapExp	0	138	2	6	0	target	0	444	-1000	160156	13.328	11.748	14.894
TrackDT02	3	TrackDT	2.0	SCS215a	20121203.164931	20121203.170315	single-task	8	0.013328	60	10	60-180	60	162	GapExp	0	139	2	30	0	distractor	1	466	767	160923	13.328	13.197	13.447
TrackDT02	3	TrackDT	2.0	SCS215a	20121203.164931	20121203.170322	single-task	8	0.013328	60	10	60-180	60	78	GapExp	0	140	2	3	1	target	1	413	794	161717	13.328	13.300	13.349
TrackDT02	3	TrackDT	2.0	SCS215a	20121203.164931	20121203.170327	single-task	8	0.013328	60	10	60-180	60	132	GapExp	0	141	2	30	1	target	1	440	780	162497	13.328	13.107	13.555
TrackDT02	3	TrackDT	2.0	SCS215a	20121203.164931	20121203.170333	single-task	8	0.013328	60	10	60-180	60	148	GapExp	0	142	2	1	1	target	1	344	828	163325	13.328	11.745	14.911
TrackDT02	3	TrackDT	2.0	SCS215a	20121203.164931	20121203.170339	single-task	8	0.013328	60	10	60-180	60	113	GapExp	0	143	2	1	0	distractor	1	611	695	164020	13.328	7.369	19.287
TrackDT02	3	TrackDT	2.0	SCS215a	20121203.164931	20121203.170345	single-task	8	0.013328	60	10	60-180	60	67	GapExp	0	144	2	3	1	target	1	368	816	164836	13.328	10.688	15.968
TrackDT02	3	TrackDT	2.0	SCS215a	20121203.164931	20121203.170349	single-task	8	0.013328	60	10	60-180	60	177	GapExp	0	145	2	3	1	target	1	323	839	165675	13.327	12.047	14.606
TrackDT02	3	TrackDT	2.0	SCS215a	20121203.164931	20121203.170355	single-task	8	0.013328	60	10	60-180	60	152	GapExp	0	146	2	6	1	target	1	341	830	166505	13.328	13.085	13.558
TrackDT02	3	TrackDT	2.0	SCS215a	20121203.164931	20121203.170401	single-task	8	0.013328	60	10	60-180	60	67	GapExp	0	147	2	0	0	distractor	1	511	745	167250	13.328	13.100	13.562
TrackDT02	3	TrackDT	2.0	SCS215a	20121203.164931	20121203.170406	single-task	8	0.013328	60	10	60-180	60	147	GapExp	0	148	2	3	1	target	1	428	786	168036	13.424	12.426	26.793
TrackDT02	3	TrackDT	2.0	SCS215a	20121203.164931	20121203.170413	single-task	8	0.013328	60	10	60-180	60	139	GapExp	0	149	2	3	1	distractor	0	351	-1000	167036	13.380	10.072	26.645
TrackDT02	3	TrackDT	2.0	SCS215a	20121203.164931	20121203.170418	single-task	8	0.013328	60	10	60-180	60	116	GapExp	0	150	2	0	0	distractor	1	632	684	167720	13.328	10.369	16.286
TrackDT02	3	TrackDT	2.0	SCS215a	20121203.164931	20121203.170428	single-task	8	0.013328	60	10	60-180	60	103	GapExp	0	151	2	30	0	distractor	1	678	661	168381	13.328	10.950	15.707
TrackDT02	3	TrackDT	2.0	SCS215a	20121203.164931	20121203.170434	single-task	8	0.013328	60	10	60-180	60	175	GapExp	0	152	2	30	0	distractor	1	519	741	169122	13.328	10.997	15.659
TrackDT02	3	TrackDT	2.0	SCS215a	20121203.164931	20121203.170440	single-task	8	0.013328	60	10	60-180	60	145	GapExp	0	153	2	30	0	distractor	1	446	777	169899	13.328	10.735	15.915
TrackDT02	3	TrackDT	2.0	SCS215a	20121203.164931	20121203.170447	single-task	8	0.013328	60	10	60-180	60	140	GapExp	0	154	2	30	0	distractor	1	525	738	170637	13.328	6.008	20.648
TrackDT02	3	TrackDT	2.0	SCS215a	20121203.164931	20121203.170453	single-task	8	0.013328	60	10	60-180	60	66	GapExp	0	155	2	1	0	target	0	679	-1000	169637	13.328	9.688	16.967
TrackDT02	3	TrackDT	2.0	SCS215a	20121203.164931	20121203.170458	single-task	8	0.013328	60	10	60-180	60	72	GapExp	0	156	2	30	0	distractor	1	513	744	170381	13.328	9.581	17.074
TrackDT02	3	TrackDT	2.0	SCS215a	20121203.164931	20121203.170504	single-task	8	0.013328	60	10	60-180	60	119	GapExp	0	157	2	30	1	target	1	515	743	171124	13.328	7.358	19.305
TrackDT02	3	TrackDT	2.0	SCS215a	20121203.164931	20121203.170509	single-task	8	0.013328	60	10	60-180	60	120	GapExp	0	158	2	3	0	distractor	1	715	643	171767	13.328	13.304	13.359
TrackDT02	3	TrackDT	2.0	SCS215a	20121203.164931	20121203.170515	single-task	8	0.013328	60	10	60-180	60	80	GapExp	0	159	2	6	1	distractor	0	965	-1000	170767	13.328	5.196	21.445
TrackDT02	3	TrackDT	2.0	SCS215a	20121203.164931	20121203.170521	single-task	8	0.013328	60	10	60-180	60	173	GapExp	0	160	2	1	1	target	1	552	724	171491	13.328	11.064	15.601
TrackDT02	3	TrackDT	2.0	SCS215a	20121203.164931	20121203.170528	single-task	8	0.013328	60	10	60-180	60	88	GapExp	0	161	2	0	0	distractor	1	599	701	172192	13.328	12.263	14.394
TrackDT02	3	TrackDT	2.0	SCS215a	20121203.164931	20121203.170533	single-task	8	0.013328	60	10	60-180	60	68	GapExp	0	162	2	0	0	distractor	1	582	709	172901	13.328	13.104	13.559
TrackDT02	3	TrackDT	2.0	SCS215a	20121203.164931	20121203.170538	single-task	8	0.013328	60	10	60-180	60	66	GapExp	0	163	2	3	1	target	1	434	783	173684	13.328	13.296	13.354
TrackDT02	3	TrackDT	2.0	SCS215a	20121203.164931	20121203.170542	single-task	8	0.013328	60	10	60-180	60	102	GapExp	0	164	2	0	0	distractor	1	789	606	174290	13.328	12.625	14.038
TrackDT02	3	TrackDT	2.0	SCS215a	20121203.164931	20121203.170548	single-task	8	0.013328	60	10	60-180	60	140	GapExp	0	165	2	30	0	distractor	1	517	742	175032	13.328	7.262	19.395
TrackDT02	3	TrackDT	2.0	SCS215a	20121203.164931	20121203.170555	single-task	8	0.013328	60	10	60-180	60	96	GapExp	0	166	2	6	1	target	1	417	792	175824	13.389	9.760	24.603
TrackDT02	3	TrackDT	2.0	SCS215a	20121203.164931	20121203.170600	single-task	8	0.013328	60	10	60-180	60	80	GapExp	0	167	2	3	0	distractor	1	407	797	176621	13.328	11.014	15.636
TrackDT02	3	TrackDT	2.0	SCS215a	20121203.164931	20121203.170605	single-task	8	0.013328	60	10	60-180	60	129	GapExp	0	168	2	1	1	target	1	443	779	177400	13.328	13.303	13.349
TrackDT02	3	TrackDT	2.0	SCS215a	20121203.164931	20121203.170610	single-task	8	0.013328	60	10	60-180	60	105	GapExp	0	169	2	0	1	target	1	557	722	178122	13.328	13.279	13.373
TrackDT02	3	TrackDT	2.0	SCS215a	20121203.164931	20121203.170616	single-task	8	0.013328	60	10	60-180	60	156	GapExp	0	170	2	1	0	distractor	1	447	777	178899	13.328	13.108	13.543
TrackDT02	3	TrackDT	2.0	SCS215a	20121203.164931	20121203.170622	single-task	8	0.013328	60	10	60-180	60	101	GapExp	0	171	2	0	1	target	1	479	761	179660	13.328	7.438	19.206
TrackDT02	3	TrackDT	2.0	SCS215a	20121203.164931	20121203.170628	single-task	8	0.013328	60	10	60-180	60	79	GapExp	0	172	2	6	0	distractor	1	431	785	180445	13.328	9.880	16.776
TrackDT02	3	TrackDT	2.0	SCS215a	20121203.164931	20121203.170633	single-task	8	0.013328	60	10	60-180	60	63	GapExp	0	173	2	0	1	target	1	454	773	181218	13.328	13.304	13.344
TrackDT02	3	TrackDT	2.0	SCS215a	20121203.164931	20121203.170638	single-task	8	0.013328	60	10	60-180	60	140	GapExp	0	174	2	0	0	distractor	1	619	691	181909	13.328	13.301	13.347
TrackDT02	3	TrackDT	2.0	SCS215a	20121203.164931	20121203.170644	single-task	8	0.013328	60	10	60-180	60	114	GapExp	0	175	2	0	1	target	1	552	724	182633	13.328	3.714	22.936
TrackDT02	3	TrackDT	2.0	SCS215a	20121203.164931	20121203.170649	single-task	8	0.013328	60	10	60-180	60	180	GapExp	0	176	2	1	1	target	1	413	794	183427	13.328	12.852	13.811
TrackDT02	3	TrackDT	2.0	SCS215a	20121203.164931	20121203.170655	single-task	8	0.013328	60	10	60-180	60	100	GapExp	0	177	2	3	0	distractor	1	477	762	184189	13.328	10.546	16.101
TrackDT02	3	TrackDT	2.0	SCS215a	20121203.164931	20121203.170701	single-task	8	0.013328	60	10	60-180	60	87	GapExp	0	178	2	0	0	distractor	1	469	766	184955	13.328	9.627	17.028
TrackDT02	3	TrackDT	2.0	SCS215a	20121203.164931	20121203.170706	single-task	8	0.013328	60	10	60-180	60	119	GapExp	0	179	2	6	0	distractor	1	399	801	185756	13.328	8.677	17.979
TrackDT02	3	TrackDT	2.0	SCS215a	20121203.164931	20121203.170712	single-task	8	0.013328	60	10	60-180	60	127	GapExp	0	180	2	30	1	distractor	0	334	-1000	184756	13.328	9.777	16.895
TrackDT02	3	TrackDT	2.0	SCS215a	20121203.164931	20121203.170718	single-task	8	0.013328	60	10	60-180	60	92	GapExp	0	181	2	3	1	target	1	352	824	185580	13.328	13.092	13.563
TrackDT02	3	TrackDT	2.0	SCS215a	20121203.164931	20121203.170723	single-task	8	0.013328	60	10	60-180	60	167	GapExp	0	182	2	3	0	distractor	1	466	767	186347	13.328	12.807	13.847
TrackDT02	3	TrackDT	2.0	SCS215a	20121203.164931	20121203.170729	single-task	8	0.013328	60	10	60-180	60	172	GapExp	0	183	2	1	1	distractor	0	585	-1000	185347	13.328	9.952	16.706
TrackDT02	3	TrackDT	2.0	SCS215a	20121203.164931	20121203.170736	single-task	8	0.013328	60	10	60-180	60	104	GapExp	0	184	2	6	1	target	1	365	818	186165	13.328	10.762	15.893
TrackDT02	3	TrackDT	2.0	SCS215a	20121203.164931	20121203.170741	single-task	8	0.013328	60	10	60-180	60	131	GapExp	0	185	2	6	0	distractor	1	554	723	186888	13.328	13.304	13.352
TrackDT02	3	TrackDT	2.0	SCS215a	20121203.164931	20121203.170747	single-task	8	0.013328	60	10	60-180	60	62	GapExp	0	186	2	1	1	target	1	387	807	187695	13.328	13.098	13.558
TrackDT02	3	TrackDT	2.0	SCS215a	20121203.164931	20121203.170752	single-task	8	0.013328	60	10	60-180	60	121	GapExp	0	187	2	3	0	distractor	1	527	737	188432	13.328	12.998	13.658
TrackDT02	3	TrackDT	2.0	SCS215a	20121203.164931	20121203.170758	single-task	8	0.013328	60	10	60-180	60	63	GapExp	0	188	2	30	0	distractor	1	509	746	189178	13.328	13.300	13.356
TrackDT02	3	TrackDT	2.0	SCS215a	20121203.164931	20121203.170803	single-task	8	0.013328	60	10	60-180	60	80	GapExp	0	189	2	0	1	target	1	649	676	189854	13.328	10.484	16.160
TrackDT02	3	TrackDT	2.0	SCS215a	20121203.164931	20121203.170808	single-task	8	0.013328	60	10	60-180	60	180	GapExp	0	190	2	1	0	distractor	1	518	741	190595	13.328	11.447	15.202
TrackDT02	3	TrackDT	2.0	SCS215a	20121203.164931	20121203.170815	single-task	8	0.013328	60	10	60-180	60	123	GapExp	0	191	2	0	1	target	1	469	766	191361	13.328	13.090	13.570
TrackDT02	3	TrackDT	2.0	SCS215a	20121203.164931	20121203.170820	single-task	8	0.013328	60	10	60-180	60	141	GapExp	0	192	2	1	1	target	1	367	817	192178	13.328	8.813	17.844
TrackDT02	3	TrackDT	2.0	SCS215a	20121203.164931	20121203.170826	single-task	8	0.013328	60	10	60-180	60	106	GapExp	0	193	2	6	0	distractor	1	359	821	192999	13.328	8.729	17.928
TrackDT02	3	TrackDT	2.0	SCS215a	20121203.164931	20121203.170831	single-task	8	0.013328	60	10	60-180	60	61	GapExp	0	194	2	3	1	target	1	394	803	193802	13.328	12.700	13.949
TrackDT02	3	TrackDT	2.0	SCS215a	20121203.164931	20121203.170836	single-task	8	0.013328	60	10	60-180	60	177	GapExp	0	195	2	0	1	target	1	433	784	194586	13.328	12.074	14.583
TrackDT02	3	TrackDT	2.0	SCS215a	20121203.164931	20121203.170843	single-task	8	0.013328	60	10	60-180	60	156	GapExp	0	196	2	30	0	distractor	1	395	803	195389	13.328	10.768	15.899
TrackDT02	3	TrackDT	2.0	SCS215a	20121203.164931	20121203.170849	single-task	8	0.013328	60	10	60-180	60	69	GapExp	0	197	2	3	1	target	1	416	792	196181	13.327	7.403	19.248
TrackDT02	3	TrackDT	2.0	SCS215a	20121203.164931	20121203.170854	single-task	8	0.013328	60	10	60-180	60	133	GapExp	0	198	2	30	0	distractor	1	439	781	196962	13.328	13.059	13.590
TrackDT02	3	TrackDT	2.0	SCS215a	20121203.164931	20121203.170900	single-task	8	0.013328	60	10	60-180	60	126	GapExp	0	199	2	30	1	target	1	608	696	197658	13.328	13.247	13.409
TrackDT02	3	TrackDT	2.0	SCS215a	20121203.164931	20121203.170907	single-task	8	0.013328	60	10	60-180	60	165	GapExp	0	200	2	30	1	target	1	485	758	198416	13.328	10.732	15.908
