exp	sub	code	rev	comp	runtime	trialtime	stdt	nstim	refreshdur	cuedur	gapdur	gapOnsetRange	durPostProbe	gapOnsetTime	blocktype	prac	trial	ntargets	soa	probeTarget	resp	acc	rt	pts	tpts	meanFrameDur	minFrameDur	maxFrameDur
TrackDT02	4	TrackDT	2.0	SCS215a	20121204.154153	20121204.154208	single-task	8	0.013328	60	0	60-180	60	180	NoGap	1	1	2	1	0	distractor	1	3905	0	0	13.328	9.788	16.874
TrackDT02	4	TrackDT	2.0	SCS215a	20121204.154153	20121204.154219	single-task	8	0.013328	60	0	60-180	60	123	NoGap	1	2	2	6	1	target	1	636	682	682	13.328	12.788	13.861
TrackDT02	4	TrackDT	2.0	SCS215a	20121204.154153	20121204.154225	single-task	8	0.013328	60	0	60-180	60	168	NoGap	1	3	2	30	0	distractor	1	670	665	1347	13.328	13.103	13.545
TrackDT02	4	TrackDT	2.0	SCS215a	20121204.154153	20121204.154231	single-task	8	0.013328	60	0	60-180	60	127	NoGap	1	4	2	0	0	distractor	1	685	658	2005	13.328	6.448	20.208
TrackDT02	4	TrackDT	2.0	SCS215a	20121204.154153	20121204.154237	single-task	8	0.013328	60	0	60-180	60	160	NoGap	1	5	2	0	0	early	-4	-1690	-1000	1005	13.328	13.302	13.355
TrackDT02	4	TrackDT	2.0	SCS215a	20121204.154153	20121204.154243	single-task	8	0.013328	60	0	60-180	60	140	NoGap	1	6	2	0	0	distractor	1	620	690	1695	13.328	13.288	13.369
TrackDT02	4	TrackDT	2.0	SCS215a	20121204.154153	20121204.154249	single-task	8	0.013328	60	0	60-180	60	108	NoGap	1	7	2	3	1	distractor	0	405	-1000	695	13.328	10.289	16.366
TrackDT02	4	TrackDT	2.0	SCS215a	20121204.154153	20121204.154255	single-task	8	0.013328	60	0	60-180	60	140	NoGap	1	8	2	3	0	target	0	579	-1000	-305	13.328	13.092	13.564
TrackDT02	4	TrackDT	2.0	SCS215a	20121204.154153	20121204.154300	single-task	8	0.013328	60	0	60-180	60	83	NoGap	1	9	2	1	0	distractor	1	765	618	313	13.328	11.397	15.246
TrackDT02	4	TrackDT	2.0	SCS215a	20121204.154153	20121204.154305	single-task	8	0.013328	60	0	60-180	60	66	NoGap	1	10	2	3	0	distractor	1	865	568	881	13.328	11.311	15.337
TrackDT02	4	TrackDT	2.0	SCS215a	20121204.154153	20121204.154310	single-task	8	0.013328	60	0	60-180	60	110	NoGap	1	11	2	0	1	target	1	612	694	1575	13.328	13.304	13.350
TrackDT02	4	TrackDT	2.0	SCS215a	20121204.154153	20121204.154316	single-task	8	0.013328	60	0	60-180	60	64	NoGap	1	12	2	30	1	distractor	0	440	-1000	575	13.328	13.092	13.551
TrackDT02	4	TrackDT	2.0	SCS215a	20121204.154153	20121204.154321	single-task	8	0.013328	60	0	60-180	60	69	NoGap	1	13	2	3	0	target	0	621	-1000	-425	13.328	13.065	13.591
TrackDT02	4	TrackDT	2.0	SCS215a	20121204.154153	20121204.154326	single-task	8	0.013328	60	0	60-180	60	145	NoGap	1	14	2	3	1	target	1	497	752	327	13.328	11.527	15.123
TrackDT02	4	TrackDT	2.0	SCS215a	20121204.154153	20121204.154332	single-task	8	0.013328	60	0	60-180	60	123	NoGap	1	15	2	6	1	distractor	0	633	-1000	-673	13.328	13.297	13.349
TrackDT02	4	TrackDT	2.0	SCS215a	20121204.154153	20121204.154337	single-task	8	0.013328	60	0	60-180	60	165	NoGap	1	16	2	1	1	target	1	561	720	47	13.328	12.078	14.578
TrackDT02	4	TrackDT	2.0	SCS215a	20121204.154153	20121204.154344	single-task	8	0.013328	60	0	60-180	60	67	NoGap	1	17	2	1	0	target	0	585	-1000	-953	13.328	13.302	13.352
TrackDT02	4	TrackDT	2.0	SCS215a	20121204.154153	20121204.154348	single-task	8	0.013328	60	0	60-180	60	108	NoGap	1	18	2	3	0	distractor	1	501	750	-203	13.328	12.711	13.953
TrackDT02	4	TrackDT	2.0	SCS215a	20121204.154153	20121204.154354	single-task	8	0.013328	60	0	60-180	60	127	NoGap	1	19	2	1	1	target	1	596	702	499	13.328	11.865	14.791
TrackDT02	4	TrackDT	2.0	SCS215a	20121204.154153	20121204.154400	single-task	8	0.013328	60	0	60-180	60	143	NoGap	1	20	2	6	1	target	1	501	750	1249	13.328	13.304	13.347
TrackDT02	4	TrackDT	2.0	SCS215a	20121204.154153	20121204.154405	single-task	8	0.013328	60	0	60-180	60	149	NoGap	1	21	2	0	1	target	1	588	706	1955	13.328	13.098	13.543
TrackDT02	4	TrackDT	2.0	SCS215a	20121204.154153	20121204.154411	single-task	8	0.013328	60	0	60-180	60	146	NoGap	1	22	2	6	0	distractor	1	538	731	2686	13.328	11.503	15.128
TrackDT02	4	TrackDT	2.0	SCS215a	20121204.154153	20121204.154417	single-task	8	0.013328	60	0	60-180	60	170	NoGap	1	23	2	1	1	distractor	0	538	-1000	1686	13.328	9.651	17.013
TrackDT02	4	TrackDT	2.0	SCS215a	20121204.154153	20121204.154423	single-task	8	0.013328	60	0	60-180	60	157	NoGap	1	24	2	0	0	distractor	1	697	652	2338	13.328	7.457	19.208
TrackDT02	4	TrackDT	2.0	SCS215a	20121204.154153	20121204.154430	single-task	8	0.013328	60	0	60-180	60	120	NoGap	1	25	2	1	1	target	1	556	722	3060	13.328	13.009	13.666
TrackDT02	4	TrackDT	2.0	SCS215a	20121204.154153	20121204.154435	single-task	8	0.013328	60	0	60-180	60	78	NoGap	1	26	2	0	1	target	1	521	740	3800	13.328	12.186	14.455
TrackDT02	4	TrackDT	2.0	SCS215a	20121204.154153	20121204.154440	single-task	8	0.013328	60	0	60-180	60	93	NoGap	1	27	2	6	0	distractor	1	499	751	4551	13.328	13.099	13.550
TrackDT02	4	TrackDT	2.0	SCS215a	20121204.154153	20121204.154445	single-task	8	0.013328	60	0	60-180	60	158	NoGap	1	28	2	1	0	distractor	1	459	771	5322	13.328	10.581	16.158
TrackDT02	4	TrackDT	2.0	SCS215a	20121204.154153	20121204.154451	single-task	8	0.013328	60	0	60-180	60	113	NoGap	1	29	2	30	0	distractor	1	543	729	6051	13.328	10.778	15.879
TrackDT02	4	TrackDT	2.0	SCS215a	20121204.154153	20121204.154456	single-task	8	0.013328	60	0	60-180	60	161	NoGap	1	30	2	3	0	distractor	1	471	765	6816	13.328	6.370	20.270
TrackDT02	4	TrackDT	2.0	SCS215a	20121204.154153	20121204.154503	single-task	8	0.013328	60	0	60-180	60	144	NoGap	1	31	2	30	1	distractor	0	497	-1000	5816	13.328	5.170	21.486
TrackDT02	4	TrackDT	2.0	SCS215a	20121204.154153	20121204.154509	single-task	8	0.013328	60	0	60-180	60	147	NoGap	1	32	2	30	1	target	1	595	703	6519	13.328	13.100	13.563
TrackDT02	4	TrackDT	2.0	SCS215a	20121204.154153	20121204.154515	single-task	8	0.013328	60	0	60-180	60	84	NoGap	1	33	2	6	1	target	1	747	627	7146	13.328	12.824	13.833
TrackDT02	4	TrackDT	2.0	SCS215a	20121204.154153	20121204.154520	single-task	8	0.013328	60	0	60-180	60	97	NoGap	1	34	2	3	1	target	1	565	718	7864	13.328	9.298	17.351
TrackDT02	4	TrackDT	2.0	SCS215a	20121204.154153	20121204.154526	single-task	8	0.013328	60	0	60-180	60	154	NoGap	1	35	2	0	0	distractor	1	649	676	8540	13.328	5.164	21.487
TrackDT02	4	TrackDT	2.0	SCS215a	20121204.154153	20121204.154532	single-task	8	0.013328	60	0	60-180	60	114	NoGap	1	36	2	0	1	target	1	524	738	9278	13.328	11.607	15.059
TrackDT02	4	TrackDT	2.0	SCS215a	20121204.154153	20121204.154537	single-task	8	0.013328	60	0	60-180	60	147	NoGap	1	37	2	0	1	target	1	464	768	10046	13.328	7.374	19.270
TrackDT02	4	TrackDT	2.0	SCS215a	20121204.154153	20121204.154543	single-task	8	0.013328	60	0	60-180	60	168	NoGap	1	38	2	6	0	distractor	1	565	718	10764	13.328	12.878	13.798
TrackDT02	4	TrackDT	2.0	SCS215a	20121204.154153	20121204.154549	single-task	8	0.013328	60	0	60-180	60	125	NoGap	1	39	2	3	1	target	1	429	786	11550	13.328	13.049	13.607
TrackDT02	4	TrackDT	2.0	SCS215a	20121204.154153	20121204.154555	single-task	8	0.013328	60	0	60-180	60	120	NoGap	1	40	2	30	1	target	1	566	717	12267	13.328	9.768	16.889
TrackDT02	4	TrackDT	2.0	SCS215a	20121204.154153	20121204.154600	single-task	8	0.013328	60	0	60-180	60	176	NoGap	1	41	2	1	1	distractor	0	430	-1000	11267	13.328	13.311	13.349
TrackDT02	4	TrackDT	2.0	SCS215a	20121204.154153	20121204.154606	single-task	8	0.013328	60	0	60-180	60	80	NoGap	1	42	2	30	1	target	1	502	749	12016	13.328	13.290	13.373
TrackDT02	4	TrackDT	2.0	SCS215a	20121204.154153	20121204.154612	single-task	8	0.013328	60	0	60-180	60	126	NoGap	1	43	2	1	0	distractor	1	735	633	12649	13.328	11.891	14.785
TrackDT02	4	TrackDT	2.0	SCS215a	20121204.154153	20121204.154618	single-task	8	0.013328	60	0	60-180	60	71	NoGap	1	44	2	30	0	distractor	1	610	695	13344	13.328	13.106	13.540
TrackDT02	4	TrackDT	2.0	SCS215a	20121204.154153	20121204.154623	single-task	8	0.013328	60	0	60-180	60	105	NoGap	1	45	2	6	1	target	1	624	688	14032	13.328	11.825	14.831
TrackDT02	4	TrackDT	2.0	SCS215a	20121204.154153	20121204.154628	single-task	8	0.013328	60	0	60-180	60	115	NoGap	1	46	2	6	0	distractor	1	399	801	14833	13.328	10.236	16.427
TrackDT02	4	TrackDT	2.0	SCS215a	20121204.154153	20121204.154634	single-task	8	0.013328	60	0	60-180	60	165	NoGap	1	47	2	3	1	target	1	544	728	15561	13.328	9.656	16.997
TrackDT02	4	TrackDT	2.0	SCS215a	20121204.154153	20121204.154640	single-task	8	0.013328	60	0	60-180	60	165	NoGap	1	48	2	30	0	distractor	1	607	697	16258	13.328	8.839	17.823
TrackDT02	4	TrackDT	2.0	SCS215a	20121204.154153	20121204.154647	single-task	8	0.013328	60	0	60-180	60	80	NoGap	1	49	2	6	0	distractor	1	751	625	16883	13.328	13.092	13.570
TrackDT02	4	TrackDT	2.0	SCS215a	20121204.154153	20121204.154652	single-task	8	0.013328	60	0	60-180	60	177	NoGap	1	50	2	30	0	distractor	1	602	699	17582	13.328	10.031	16.431
TrackDT02	4	TrackDT	2.0	SCS215a	20121204.154808	20121204.154813	single-task	8	0.013328	60	10	60-180	60	82	GapPrac	1	1	2	0	0	distractor	1	737	632	18214	13.328	10.632	16.023
TrackDT02	4	TrackDT	2.0	SCS215a	20121204.154808	20121204.154819	single-task	8	0.013328	60	10	60-180	60	172	GapPrac	1	2	2	1	0	distractor	1	706	647	18861	13.328	9.344	17.318
TrackDT02	4	TrackDT	2.0	SCS215a	20121204.154808	20121204.154825	single-task	8	0.013328	60	10	60-180	60	98	GapPrac	1	3	2	6	0	target	0	443	-1000	17861	13.328	11.664	14.995
TrackDT02	4	TrackDT	2.0	SCS215a	20121204.154808	20121204.154830	single-task	8	0.013328	60	10	60-180	60	87	GapPrac	1	4	2	30	1	target	1	696	652	18513	13.328	6.979	19.679
TrackDT02	4	TrackDT	2.0	SCS215a	20121204.154808	20121204.154836	single-task	8	0.013328	60	10	60-180	60	170	GapPrac	1	5	2	1	1	target	1	482	759	19272	13.328	7.512	19.144
TrackDT02	4	TrackDT	2.0	SCS215a	20121204.154808	20121204.154842	single-task	8	0.013328	60	10	60-180	60	141	GapPrac	1	6	2	6	1	target	1	582	709	19981	13.328	13.297	13.355
TrackDT02	4	TrackDT	2.0	SCS215a	20121204.154808	20121204.154848	single-task	8	0.013328	60	10	60-180	60	151	GapPrac	1	7	2	0	1	target	1	578	711	20692	13.328	10.719	15.937
TrackDT02	4	TrackDT	2.0	SCS215a	20121204.154808	20121204.154855	single-task	8	0.013328	60	10	60-180	60	118	GapPrac	1	8	2	30	0	distractor	1	571	715	21407	13.328	8.496	18.162
TrackDT02	4	TrackDT	2.0	SCS215a	20121204.154808	20121204.154901	single-task	8	0.013328	60	10	60-180	60	68	GapPrac	1	9	2	0	0	distractor	1	557	722	22129	13.328	7.648	19.018
TrackDT02	4	TrackDT	2.0	SCS215a	20121204.154808	20121204.154905	single-task	8	0.013328	60	10	60-180	60	101	GapPrac	1	10	2	30	1	distractor	0	594	-1000	21129	13.328	11.350	15.306
TrackDT02	4	TrackDT	2.0	SCS215a	20121204.154808	20121204.154911	single-task	8	0.013328	60	10	60-180	60	100	GapPrac	1	11	2	6	1	target	1	565	718	21847	13.328	10.301	16.348
TrackDT02	4	TrackDT	2.0	SCS215a	20121204.154808	20121204.154917	single-task	8	0.013328	60	10	60-180	60	95	GapPrac	1	12	2	1	1	target	1	496	752	22599	13.328	9.057	17.598
TrackDT02	4	TrackDT	2.0	SCS215a	20121204.154808	20121204.154922	single-task	8	0.013328	60	10	60-180	60	170	GapPrac	1	13	2	1	0	distractor	1	549	726	23325	13.328	11.115	15.541
TrackDT02	4	TrackDT	2.0	SCS215a	20121204.154808	20121204.154929	single-task	8	0.013328	60	10	60-180	60	93	GapPrac	1	14	2	0	1	target	1	542	729	24054	13.328	8.224	18.432
TrackDT02	4	TrackDT	2.0	SCS215a	20121204.154808	20121204.154934	single-task	8	0.013328	60	10	60-180	60	154	GapPrac	1	15	2	30	0	distractor	1	562	719	24773	13.328	7.319	19.343
TrackDT02	4	TrackDT	2.0	SCS215a	20121204.154808	20121204.154940	single-task	8	0.013328	60	10	60-180	60	157	GapPrac	1	16	2	3	0	target	0	664	-1000	23773	13.328	8.838	17.826
TrackDT02	4	TrackDT	2.0	SCS215a	20121204.154808	20121204.154946	single-task	8	0.013328	60	10	60-180	60	95	GapPrac	1	17	2	3	1	target	1	567	717	24490	13.328	9.100	17.555
TrackDT02	4	TrackDT	2.0	SCS215a	20121204.154808	20121204.154952	single-task	8	0.013328	60	10	60-180	60	148	GapPrac	1	18	2	3	0	distractor	1	515	743	25233	13.328	10.086	16.578
TrackDT02	4	TrackDT	2.0	SCS215a	20121204.154808	20121204.154958	single-task	8	0.013328	60	10	60-180	60	102	GapPrac	1	19	2	3	1	target	1	696	652	25885	13.328	13.188	13.463
TrackDT02	4	TrackDT	2.0	SCS215a	20121204.154808	20121204.155004	single-task	8	0.013328	60	10	60-180	60	82	GapPrac	1	20	2	6	0	target	0	584	-1000	24885	13.328	13.303	13.343
TrackDT02	4	TrackDT	2.0	SCS215a	20121204.155056	20121204.155102	dt-conversation	8	0.013328	60	10	60-180	60	126	GapExp	1	1	2	30	0	target	0	987	-1000	23885	13.328	12.857	13.806
TrackDT02	4	TrackDT	2.0	SCS215a	20121204.155056	20121204.155109	dt-conversation	8	0.013328	60	10	60-180	60	107	GapExp	1	2	2	3	0	target	0	701	-1000	22885	13.328	13.302	13.366
TrackDT02	4	TrackDT	2.0	SCS215a	20121204.155056	20121204.155114	dt-conversation	8	0.013328	60	10	60-180	60	169	GapExp	1	3	2	0	0	target	0	622	-1000	21885	13.328	13.298	13.357
TrackDT02	4	TrackDT	2.0	SCS215a	20121204.155056	20121204.155121	dt-conversation	8	0.013328	60	10	60-180	60	176	GapExp	1	4	2	6	1	target	1	528	736	22621	13.328	13.304	13.347
TrackDT02	4	TrackDT	2.0	SCS215a	20121204.155056	20121204.155127	dt-conversation	8	0.013328	60	10	60-180	60	88	GapExp	1	5	2	1	1	target	1	565	718	23339	13.328	12.876	13.772
TrackDT02	4	TrackDT	2.0	SCS215a	20121204.155056	20121204.155132	dt-conversation	8	0.013328	60	10	60-180	60	137	GapExp	1	6	2	30	1	distractor	0	828	-1000	22339	13.328	12.916	13.734
TrackDT02	4	TrackDT	2.0	SCS215a	20121204.155056	20121204.155139	dt-conversation	8	0.013328	60	10	60-180	60	91	GapExp	1	7	2	1	0	target	0	538	-1000	21339	13.328	12.960	13.705
TrackDT02	4	TrackDT	2.0	SCS215a	20121204.155056	20121204.155144	dt-conversation	8	0.013328	60	10	60-180	60	161	GapExp	1	8	2	6	0	distractor	1	676	662	22001	13.328	13.110	13.547
TrackDT02	4	TrackDT	2.0	SCS215a	20121204.155056	20121204.155151	dt-conversation	8	0.013328	60	10	60-180	60	160	GapExp	1	9	2	0	1	target	1	538	731	22732	13.328	12.873	13.783
TrackDT02	4	TrackDT	2.0	SCS215a	20121204.155056	20121204.155157	dt-conversation	8	0.013328	60	10	60-180	60	136	GapExp	1	10	2	3	1	target	1	1079	461	23193	13.375	12.868	26.533
TrackDT02	4	TrackDT	2.0	SCS215a	20121204.155056	20121204.155203	dt-conversation	8	0.013328	60	10	60-180	60	169	GapExp	0	11	2	30	1	target	1	471	765	23958	13.328	12.856	13.796
TrackDT02	4	TrackDT	2.0	SCS215a	20121204.155056	20121204.155210	dt-conversation	8	0.013328	60	10	60-180	60	72	GapExp	0	12	2	1	1	target	1	628	686	24644	13.328	12.855	13.782
TrackDT02	4	TrackDT	2.0	SCS215a	20121204.155056	20121204.155215	dt-conversation	8	0.013328	60	10	60-180	60	159	GapExp	0	13	2	1	0	distractor	1	671	665	25309	13.328	13.105	13.546
TrackDT02	4	TrackDT	2.0	SCS215a	20121204.155056	20121204.155221	dt-conversation	8	0.013328	60	10	60-180	60	139	GapExp	0	14	2	1	0	distractor	1	552	724	26033	13.328	12.830	13.829
TrackDT02	4	TrackDT	2.0	SCS215a	20121204.155056	20121204.155227	dt-conversation	8	0.013328	60	10	60-180	60	155	GapExp	0	15	2	1	1	target	1	509	746	26779	13.328	13.081	13.751
TrackDT02	4	TrackDT	2.0	SCS215a	20121204.155056	20121204.155233	dt-conversation	8	0.013328	60	10	60-180	60	93	GapExp	0	16	2	1	1	target	1	488	756	27535	13.328	12.954	13.706
TrackDT02	4	TrackDT	2.0	SCS215a	20121204.155056	20121204.155238	dt-conversation	8	0.013328	60	10	60-180	60	143	GapExp	0	17	2	6	0	distractor	1	682	659	28194	13.328	12.907	13.762
TrackDT02	4	TrackDT	2.0	SCS215a	20121204.155056	20121204.155244	dt-conversation	8	0.013328	60	10	60-180	60	72	GapExp	0	18	2	1	0	distractor	1	757	622	28816	13.328	13.087	13.571
TrackDT02	4	TrackDT	2.0	SCS215a	20121204.155056	20121204.155250	dt-conversation	8	0.013328	60	10	60-180	60	180	GapExp	0	19	2	30	1	distractor	0	410	-1000	27816	13.328	12.923	13.725
TrackDT02	4	TrackDT	2.0	SCS215a	20121204.155056	20121204.155257	dt-conversation	8	0.013328	60	10	60-180	60	151	GapExp	0	20	2	6	1	target	1	456	772	28588	13.328	12.872	13.775
TrackDT02	4	TrackDT	2.0	SCS215a	20121204.155056	20121204.155303	dt-conversation	8	0.013328	60	10	60-180	60	64	GapExp	0	21	2	30	0	distractor	1	524	738	29326	13.328	13.046	13.609
TrackDT02	4	TrackDT	2.0	SCS215a	20121204.155056	20121204.155308	dt-conversation	8	0.013328	60	10	60-180	60	162	GapExp	0	22	2	3	0	distractor	1	435	783	30109	13.328	12.900	13.773
TrackDT02	4	TrackDT	2.0	SCS215a	20121204.155056	20121204.155314	dt-conversation	8	0.013328	60	10	60-180	60	73	GapExp	0	23	2	0	0	distractor	1	504	748	30857	13.328	13.263	13.392
TrackDT02	4	TrackDT	2.0	SCS215a	20121204.155056	20121204.155319	dt-conversation	8	0.013328	60	10	60-180	60	77	GapExp	0	24	2	6	1	distractor	0	485	-1000	29857	13.328	13.014	13.649
TrackDT02	4	TrackDT	2.0	SCS215a	20121204.155056	20121204.155324	dt-conversation	8	0.013328	60	10	60-180	60	180	GapExp	0	25	2	30	1	distractor	0	533	-1000	28857	13.328	12.932	13.723
TrackDT02	4	TrackDT	2.0	SCS215a	20121204.155056	20121204.155331	dt-conversation	8	0.013328	60	10	60-180	60	180	GapExp	0	26	2	6	0	distractor	1	743	629	29486	13.328	12.865	13.733
TrackDT02	4	TrackDT	2.0	SCS215a	20121204.155056	20121204.155338	dt-conversation	8	0.013328	60	10	60-180	60	84	GapExp	0	27	2	6	1	target	1	463	769	30255	13.328	13.148	13.512
TrackDT02	4	TrackDT	2.0	SCS215a	20121204.155056	20121204.155343	dt-conversation	8	0.013328	60	10	60-180	60	65	GapExp	0	28	2	1	0	distractor	1	543	729	30984	13.328	12.866	13.794
TrackDT02	4	TrackDT	2.0	SCS215a	20121204.155056	20121204.155348	dt-conversation	8	0.013328	60	10	60-180	60	133	GapExp	0	29	2	3	0	distractor	1	800	600	31584	13.328	12.939	13.724
TrackDT02	4	TrackDT	2.0	SCS215a	20121204.155056	20121204.155354	dt-conversation	8	0.013328	60	10	60-180	60	164	GapExp	0	30	2	30	0	distractor	1	609	696	32280	13.328	13.100	13.557
TrackDT02	4	TrackDT	2.0	SCS215a	20121204.155056	20121204.155401	dt-conversation	8	0.013328	60	10	60-180	60	167	GapExp	0	31	2	1	0	distractor	1	525	738	33018	13.328	13.076	13.587
TrackDT02	4	TrackDT	2.0	SCS215a	20121204.155056	20121204.155407	dt-conversation	8	0.013328	60	10	60-180	60	145	GapExp	0	32	2	1	0	distractor	1	545	728	33746	13.328	12.960	13.728
TrackDT02	4	TrackDT	2.0	SCS215a	20121204.155056	20121204.155413	dt-conversation	8	0.013328	60	10	60-180	60	118	GapExp	0	33	2	30	0	target	0	541	-1000	32746	13.328	13.107	13.557
TrackDT02	4	TrackDT	2.0	SCS215a	20121204.155056	20121204.155419	dt-conversation	8	0.013328	60	10	60-180	60	125	GapExp	0	34	2	3	1	distractor	0	922	-1000	31746	13.328	12.897	13.764
TrackDT02	4	TrackDT	2.0	SCS215a	20121204.155056	20121204.155425	dt-conversation	8	0.013328	60	10	60-180	60	175	GapExp	0	35	2	6	1	target	1	564	718	32464	13.326	12.898	13.514
TrackDT02	4	TrackDT	2.0	SCS215a	20121204.155056	20121204.155432	dt-conversation	8	0.013328	60	10	60-180	60	136	GapExp	0	36	2	6	1	target	1	683	659	33123	13.328	12.892	13.787
TrackDT02	4	TrackDT	2.0	SCS215a	20121204.155056	20121204.155438	dt-conversation	8	0.013328	60	10	60-180	60	116	GapExp	0	37	2	30	1	target	1	656	672	33795	13.328	12.851	13.815
TrackDT02	4	TrackDT	2.0	SCS215a	20121204.155056	20121204.155444	dt-conversation	8	0.013328	60	10	60-180	60	64	GapExp	0	38	2	0	1	target	1	704	648	34443	13.328	12.899	13.750
TrackDT02	4	TrackDT	2.0	SCS215a	20121204.155056	20121204.155449	dt-conversation	8	0.013328	60	10	60-180	60	111	GapExp	0	39	2	6	1	target	1	628	686	35129	13.328	12.830	13.825
TrackDT02	4	TrackDT	2.0	SCS215a	20121204.155056	20121204.155454	dt-conversation	8	0.013328	60	10	60-180	60	115	GapExp	0	40	2	3	0	distractor	1	456	772	35901	13.328	12.920	13.722
TrackDT02	4	TrackDT	2.0	SCS215a	20121204.155056	20121204.155500	dt-conversation	8	0.013328	60	10	60-180	60	129	GapExp	0	41	2	3	1	target	1	564	718	36619	13.328	13.308	13.359
TrackDT02	4	TrackDT	2.0	SCS215a	20121204.155056	20121204.155506	dt-conversation	8	0.013328	60	10	60-180	60	130	GapExp	0	42	2	0	1	target	1	773	614	37233	13.328	13.305	13.347
TrackDT02	4	TrackDT	2.0	SCS215a	20121204.155056	20121204.155512	dt-conversation	8	0.013328	60	10	60-180	60	172	GapExp	0	43	2	0	1	target	1	585	708	37941	13.328	13.295	13.357
TrackDT02	4	TrackDT	2.0	SCS215a	20121204.155056	20121204.155518	dt-conversation	8	0.013328	60	10	60-180	60	156	GapExp	0	44	2	6	1	target	1	609	696	38637	13.328	12.832	13.816
TrackDT02	4	TrackDT	2.0	SCS215a	20121204.155056	20121204.155524	dt-conversation	8	0.013328	60	10	60-180	60	141	GapExp	0	45	2	0	0	distractor	1	785	608	39245	13.328	12.871	13.787
TrackDT02	4	TrackDT	2.0	SCS215a	20121204.155056	20121204.155530	dt-conversation	8	0.013328	60	10	60-180	60	162	GapExp	0	46	2	0	0	target	0	482	-1000	38245	13.328	13.106	13.564
TrackDT02	4	TrackDT	2.0	SCS215a	20121204.155056	20121204.155537	dt-conversation	8	0.013328	60	10	60-180	60	129	GapExp	0	47	2	0	1	target	1	739	631	38876	13.328	12.916	13.740
TrackDT02	4	TrackDT	2.0	SCS215a	20121204.155056	20121204.155543	dt-conversation	8	0.013328	60	10	60-180	60	139	GapExp	0	48	2	30	0	distractor	1	572	714	39590	13.328	13.106	13.538
TrackDT02	4	TrackDT	2.0	SCS215a	20121204.155056	20121204.155549	dt-conversation	8	0.013328	60	10	60-180	60	63	GapExp	0	49	2	0	0	distractor	1	627	687	40277	13.328	13.309	13.350
TrackDT02	4	TrackDT	2.0	SCS215a	20121204.155056	20121204.155554	dt-conversation	8	0.013328	60	10	60-180	60	76	GapExp	0	50	2	1	1	distractor	0	600	-1000	39277	13.328	12.952	13.687
TrackDT02	4	TrackDT	2.0	SCS215a	20121204.155056	20121204.155617	dt-conversation	8	0.013328	60	10	60-180	60	139	GapExp	0	51	2	1	1	distractor	0	466	-1000	38277	13.328	13.303	13.347
TrackDT02	4	TrackDT	2.0	SCS215a	20121204.155056	20121204.155623	dt-conversation	8	0.013328	60	10	60-180	60	143	GapExp	0	52	2	30	0	distractor	1	624	688	38965	13.328	12.848	13.809
TrackDT02	4	TrackDT	2.0	SCS215a	20121204.155056	20121204.155630	dt-conversation	8	0.013328	60	10	60-180	60	152	GapExp	0	53	2	0	0	distractor	1	645	678	39643	13.328	12.865	13.785
TrackDT02	4	TrackDT	2.0	SCS215a	20121204.155056	20121204.155636	dt-conversation	8	0.013328	60	10	60-180	60	150	GapExp	0	54	2	0	1	distractor	0	623	-1000	38643	13.328	12.921	13.738
TrackDT02	4	TrackDT	2.0	SCS215a	20121204.155056	20121204.155642	dt-conversation	8	0.013328	60	10	60-180	60	173	GapExp	0	55	2	1	1	distractor	0	565	-1000	37643	13.328	13.107	13.542
TrackDT02	4	TrackDT	2.0	SCS215a	20121204.155056	20121204.155648	dt-conversation	8	0.013328	60	10	60-180	60	138	GapExp	0	56	2	30	0	target	0	689	-1000	36643	13.328	13.107	13.564
TrackDT02	4	TrackDT	2.0	SCS215a	20121204.155056	20121204.155655	dt-conversation	8	0.013328	60	10	60-180	60	109	GapExp	0	57	2	3	1	target	1	605	698	37341	13.328	13.073	13.547
TrackDT02	4	TrackDT	2.0	SCS215a	20121204.155056	20121204.155701	dt-conversation	8	0.013328	60	10	60-180	60	88	GapExp	0	58	2	6	0	distractor	1	717	642	37983	13.328	12.865	13.784
TrackDT02	4	TrackDT	2.0	SCS215a	20121204.155056	20121204.155706	dt-conversation	8	0.013328	60	10	60-180	60	116	GapExp	0	59	2	6	0	distractor	1	563	719	38702	13.381	12.875	27.032
TrackDT02	4	TrackDT	2.0	SCS215a	20121204.155056	20121204.155712	dt-conversation	8	0.013328	60	10	60-180	60	93	GapExp	0	60	2	0	0	distractor	1	553	724	39426	13.328	13.133	13.543
TrackDT02	4	TrackDT	2.0	SCS215a	20121204.155056	20121204.155717	dt-conversation	8	0.013328	60	10	60-180	60	178	GapExp	0	61	2	3	1	target	1	487	757	40183	13.328	13.106	13.551
TrackDT02	4	TrackDT	2.0	SCS215a	20121204.155056	20121204.155723	dt-conversation	8	0.013328	60	10	60-180	60	168	GapExp	0	62	2	0	1	target	1	552	724	40907	13.328	13.063	13.600
TrackDT02	4	TrackDT	2.0	SCS215a	20121204.155056	20121204.155730	dt-conversation	8	0.013328	60	10	60-180	60	81	GapExp	0	63	2	30	1	target	1	486	757	41664	13.330	13.082	13.814
TrackDT02	4	TrackDT	2.0	SCS215a	20121204.155056	20121204.155735	dt-conversation	8	0.013328	60	10	60-180	60	73	GapExp	0	64	2	6	0	distractor	1	522	739	42403	13.330	12.876	13.796
TrackDT02	4	TrackDT	2.0	SCS215a	20121204.155056	20121204.155740	dt-conversation	8	0.013328	60	10	60-180	60	103	GapExp	0	65	2	6	0	distractor	1	519	741	43144	13.328	12.952	13.715
TrackDT02	4	TrackDT	2.0	SCS215a	20121204.155056	20121204.155746	dt-conversation	8	0.013328	60	10	60-180	60	159	GapExp	0	66	2	6	1	distractor	0	591	-1000	42144	13.328	13.301	13.354
TrackDT02	4	TrackDT	2.0	SCS215a	20121204.155056	20121204.155752	dt-conversation	8	0.013328	60	10	60-180	60	155	GapExp	0	67	2	6	1	target	1	591	705	42849	13.328	13.099	13.551
TrackDT02	4	TrackDT	2.0	SCS215a	20121204.155056	20121204.155758	dt-conversation	8	0.013328	60	10	60-180	60	149	GapExp	0	68	2	1	0	distractor	1	426	787	43636	13.328	13.099	13.551
TrackDT02	4	TrackDT	2.0	SCS215a	20121204.155056	20121204.155804	dt-conversation	8	0.013328	60	10	60-180	60	134	GapExp	0	69	2	30	0	distractor	1	601	700	44336	13.328	12.871	13.792
TrackDT02	4	TrackDT	2.0	SCS215a	20121204.155056	20121204.155811	dt-conversation	8	0.013328	60	10	60-180	60	143	GapExp	0	70	2	1	1	target	1	644	678	45014	13.328	12.883	13.779
TrackDT02	4	TrackDT	2.0	SCS215a	20121204.155056	20121204.155817	dt-conversation	8	0.013328	60	10	60-180	60	84	GapExp	0	71	2	3	0	distractor	1	525	738	45752	13.328	12.852	13.794
TrackDT02	4	TrackDT	2.0	SCS215a	20121204.155056	20121204.155822	dt-conversation	8	0.013328	60	10	60-180	60	125	GapExp	0	72	2	6	1	target	1	599	701	46453	13.328	12.861	13.776
TrackDT02	4	TrackDT	2.0	SCS215a	20121204.155056	20121204.155828	dt-conversation	8	0.013328	60	10	60-180	60	63	GapExp	0	73	2	3	0	distractor	1	490	755	47208	13.328	13.307	13.349
TrackDT02	4	TrackDT	2.0	SCS215a	20121204.155056	20121204.155832	dt-conversation	8	0.013328	60	10	60-180	60	174	GapExp	0	74	2	1	0	distractor	1	684	658	47866	13.328	12.962	13.686
TrackDT02	4	TrackDT	2.0	SCS215a	20121204.155056	20121204.155839	dt-conversation	8	0.013328	60	10	60-180	60	85	GapExp	0	75	2	3	1	target	1	444	778	48644	13.328	12.861	13.789
TrackDT02	4	TrackDT	2.0	SCS215a	20121204.155056	20121204.155844	dt-conversation	8	0.013328	60	10	60-180	60	110	GapExp	0	76	2	6	0	distractor	1	701	650	49294	13.328	12.883	13.769
TrackDT02	4	TrackDT	2.0	SCS215a	20121204.155056	20121204.155850	dt-conversation	8	0.013328	60	10	60-180	60	72	GapExp	0	77	2	6	1	target	1	398	801	50095	13.328	13.309	13.347
TrackDT02	4	TrackDT	2.0	SCS215a	20121204.155056	20121204.155855	dt-conversation	8	0.013328	60	10	60-180	60	73	GapExp	0	78	2	0	0	target	0	575	-1000	49095	13.328	13.125	13.544
TrackDT02	4	TrackDT	2.0	SCS215a	20121204.155056	20121204.155900	dt-conversation	8	0.013328	60	10	60-180	60	69	GapExp	0	79	2	0	0	distractor	1	441	780	49875	13.328	13.308	13.345
TrackDT02	4	TrackDT	2.0	SCS215a	20121204.155056	20121204.155905	dt-conversation	8	0.013328	60	10	60-180	60	61	GapExp	0	80	2	1	0	distractor	1	604	698	50573	13.328	12.957	13.702
TrackDT02	4	TrackDT	2.0	SCS215a	20121204.155056	20121204.155910	dt-conversation	8	0.013328	60	10	60-180	60	149	GapExp	0	81	2	0	0	distractor	1	795	603	51176	13.328	12.895	13.766
TrackDT02	4	TrackDT	2.0	SCS215a	20121204.155056	20121204.155916	dt-conversation	8	0.013328	60	10	60-180	60	84	GapExp	0	82	2	3	0	distractor	1	507	747	51923	13.328	13.045	13.605
TrackDT02	4	TrackDT	2.0	SCS215a	20121204.155056	20121204.155921	dt-conversation	8	0.013328	60	10	60-180	60	83	GapExp	0	83	2	30	1	distractor	0	523	-1000	50923	13.328	12.959	13.708
TrackDT02	4	TrackDT	2.0	SCS215a	20121204.155056	20121204.155927	dt-conversation	8	0.013328	60	10	60-180	60	126	GapExp	0	84	2	6	1	target	1	359	821	51744	13.328	12.909	13.749
TrackDT02	4	TrackDT	2.0	SCS215a	20121204.155056	20121204.155932	dt-conversation	8	0.013328	60	10	60-180	60	92	GapExp	0	85	2	3	0	distractor	1	505	748	52492	13.328	12.859	13.804
TrackDT02	4	TrackDT	2.0	SCS215a	20121204.155056	20121204.155937	dt-conversation	8	0.013328	60	10	60-180	60	120	GapExp	0	86	2	3	0	distractor	1	494	753	53245	13.327	13.112	13.352
TrackDT02	4	TrackDT	2.0	SCS215a	20121204.155056	20121204.155943	dt-conversation	8	0.013328	60	10	60-180	60	63	GapExp	0	87	2	3	0	distractor	1	465	768	54013	13.330	13.030	13.799
TrackDT02	4	TrackDT	2.0	SCS215a	20121204.155056	20121204.155948	dt-conversation	8	0.013328	60	10	60-180	60	126	GapExp	0	88	2	0	1	distractor	0	564	-1000	53013	13.328	12.883	13.762
TrackDT02	4	TrackDT	2.0	SCS215a	20121204.155056	20121204.155954	dt-conversation	8	0.013328	60	10	60-180	60	111	GapExp	0	89	2	6	0	target	0	911	-1000	52013	13.328	12.946	13.708
TrackDT02	4	TrackDT	2.0	SCS215a	20121204.155056	20121204.160000	dt-conversation	8	0.013328	60	10	60-180	60	66	GapExp	0	90	2	6	0	distractor	1	520	740	52753	13.328	12.877	13.771
TrackDT02	4	TrackDT	2.0	SCS215a	20121204.155056	20121204.160005	dt-conversation	8	0.013328	60	10	60-180	60	177	GapExp	0	91	2	1	1	distractor	0	941	-1000	51753	13.328	12.871	13.781
TrackDT02	4	TrackDT	2.0	SCS215a	20121204.155056	20121204.160012	dt-conversation	8	0.013328	60	10	60-180	60	166	GapExp	0	92	2	6	0	target	0	604	-1000	50753	13.328	12.955	13.709
TrackDT02	4	TrackDT	2.0	SCS215a	20121204.155056	20121204.160018	dt-conversation	8	0.013328	60	10	60-180	60	157	GapExp	0	93	2	0	1	distractor	0	612	-1000	49753	13.328	12.932	13.716
TrackDT02	4	TrackDT	2.0	SCS215a	20121204.155056	20121204.160025	dt-conversation	8	0.013328	60	10	60-180	60	143	GapExp	0	94	2	3	1	distractor	0	574	-1000	48753	13.328	13.307	13.347
TrackDT02	4	TrackDT	2.0	SCS215a	20121204.155056	20121204.160031	dt-conversation	8	0.013328	60	10	60-180	60	138	GapExp	0	95	2	0	0	distractor	1	585	708	49461	13.328	12.915	13.734
TrackDT02	4	TrackDT	2.0	SCS215a	20121204.155056	20121204.160036	dt-conversation	8	0.013328	60	10	60-180	60	112	GapExp	0	96	2	30	1	target	1	481	760	50221	13.328	13.302	13.345
TrackDT02	4	TrackDT	2.0	SCS215a	20121204.155056	20121204.160042	dt-conversation	8	0.013328	60	10	60-180	60	163	GapExp	0	97	2	30	1	target	1	522	739	50960	13.328	13.101	13.541
TrackDT02	4	TrackDT	2.0	SCS215a	20121204.155056	20121204.160049	dt-conversation	8	0.013328	60	10	60-180	60	156	GapExp	0	98	2	6	1	target	1	535	733	51693	13.328	12.892	13.782
TrackDT02	4	TrackDT	2.0	SCS215a	20121204.155056	20121204.160055	dt-conversation	8	0.013328	60	10	60-180	60	179	GapExp	0	99	2	1	0	distractor	1	523	739	52432	13.328	12.863	13.776
TrackDT02	4	TrackDT	2.0	SCS215a	20121204.155056	20121204.160102	dt-conversation	8	0.013328	60	10	60-180	60	107	GapExp	0	100	2	6	0	distractor	1	588	706	53138	13.328	13.310	13.348
TrackDT02	4	TrackDT	2.0	SCS215a	20121204.155056	20121204.160120	dt-conversation	8	0.013328	60	10	60-180	60	169	GapExp	0	101	2	0	1	target	1	723	639	53777	13.328	13.105	13.537
TrackDT02	4	TrackDT	2.0	SCS215a	20121204.155056	20121204.160127	dt-conversation	8	0.013328	60	10	60-180	60	100	GapExp	0	102	2	30	0	distractor	1	507	747	54524	13.328	12.838	13.805
TrackDT02	4	TrackDT	2.0	SCS215a	20121204.155056	20121204.160133	dt-conversation	8	0.013328	60	10	60-180	60	86	GapExp	0	103	2	3	1	target	1	509	746	55270	13.328	12.903	13.768
TrackDT02	4	TrackDT	2.0	SCS215a	20121204.155056	20121204.160138	dt-conversation	8	0.013328	60	10	60-180	60	161	GapExp	0	104	2	3	1	target	1	545	728	55998	13.328	12.957	13.688
TrackDT02	4	TrackDT	2.0	SCS215a	20121204.155056	20121204.160144	dt-conversation	8	0.013328	60	10	60-180	60	119	GapExp	0	105	2	3	0	distractor	1	522	739	56737	13.328	12.907	13.743
TrackDT02	4	TrackDT	2.0	SCS215a	20121204.155056	20121204.160150	dt-conversation	8	0.013328	60	10	60-180	60	75	GapExp	0	106	2	0	0	target	0	727	-1000	55737	13.328	13.119	13.538
TrackDT02	4	TrackDT	2.0	SCS215a	20121204.155056	20121204.160155	dt-conversation	8	0.013328	60	10	60-180	60	153	GapExp	0	107	2	0	1	target	1	565	718	56455	13.328	13.087	13.572
TrackDT02	4	TrackDT	2.0	SCS215a	20121204.155056	20121204.160201	dt-conversation	8	0.013328	60	10	60-180	60	109	GapExp	0	108	2	6	1	target	1	512	744	57199	13.328	12.865	13.790
TrackDT02	4	TrackDT	2.0	SCS215a	20121204.155056	20121204.160207	dt-conversation	8	0.013328	60	10	60-180	60	142	GapExp	0	109	2	30	0	distractor	1	707	647	57846	13.328	12.871	13.774
TrackDT02	4	TrackDT	2.0	SCS215a	20121204.155056	20121204.160213	dt-conversation	8	0.013328	60	10	60-180	60	63	GapExp	0	110	2	30	1	target	1	622	689	58535	13.328	13.296	13.359
TrackDT02	4	TrackDT	2.0	SCS215a	20121204.155056	20121204.160218	dt-conversation	8	0.013328	60	10	60-180	60	63	GapExp	0	111	2	3	0	distractor	1	507	747	59282	13.328	13.067	13.582
TrackDT02	4	TrackDT	2.0	SCS215a	20121204.155056	20121204.160223	dt-conversation	8	0.013328	60	10	60-180	60	157	GapExp	0	112	2	3	0	target	0	521	-1000	58282	13.328	12.886	13.792
TrackDT02	4	TrackDT	2.0	SCS215a	20121204.155056	20121204.160229	dt-conversation	8	0.013328	60	10	60-180	60	128	GapExp	0	113	2	0	0	distractor	1	574	713	58995	13.328	12.863	13.787
TrackDT02	4	TrackDT	2.0	SCS215a	20121204.155056	20121204.160235	dt-conversation	8	0.013328	60	10	60-180	60	115	GapExp	0	114	2	3	1	target	1	565	718	59713	13.328	12.878	13.787
TrackDT02	4	TrackDT	2.0	SCS215a	20121204.155056	20121204.160241	dt-conversation	8	0.013328	60	10	60-180	60	150	GapExp	0	115	2	3	1	target	1	535	733	60446	13.328	12.945	13.725
TrackDT02	4	TrackDT	2.0	SCS215a	20121204.155056	20121204.160247	dt-conversation	8	0.013328	60	10	60-180	60	111	GapExp	0	116	2	6	1	target	1	523	739	61185	13.328	13.307	13.350
TrackDT02	4	TrackDT	2.0	SCS215a	20121204.155056	20121204.160253	dt-conversation	8	0.013328	60	10	60-180	60	120	GapExp	0	117	2	6	0	distractor	1	435	783	61968	13.328	12.928	13.733
TrackDT02	4	TrackDT	2.0	SCS215a	20121204.155056	20121204.160258	dt-conversation	8	0.013328	60	10	60-180	60	84	GapExp	0	118	2	0	0	distractor	1	748	626	62594	13.328	12.842	13.801
TrackDT02	4	TrackDT	2.0	SCS215a	20121204.155056	20121204.160303	dt-conversation	8	0.013328	60	10	60-180	60	114	GapExp	0	119	2	1	1	target	1	459	771	63365	13.328	13.168	13.489
TrackDT02	4	TrackDT	2.0	SCS215a	20121204.155056	20121204.160309	dt-conversation	8	0.013328	60	10	60-180	60	101	GapExp	0	120	2	1	1	target	1	416	792	64157	13.328	12.857	13.792
TrackDT02	4	TrackDT	2.0	SCS215a	20121204.155056	20121204.160314	dt-conversation	8	0.013328	60	10	60-180	60	76	GapExp	0	121	2	30	1	target	1	530	735	64892	13.328	13.084	13.572
TrackDT02	4	TrackDT	2.0	SCS215a	20121204.155056	20121204.160320	dt-conversation	8	0.013328	60	10	60-180	60	73	GapExp	0	122	2	1	0	target	0	685	-1000	63892	13.328	13.106	13.544
TrackDT02	4	TrackDT	2.0	SCS215a	20121204.155056	20121204.160325	dt-conversation	8	0.013328	60	10	60-180	60	153	GapExp	0	123	2	0	0	distractor	1	618	691	64583	13.328	13.086	13.571
TrackDT02	4	TrackDT	2.0	SCS215a	20121204.155056	20121204.160331	dt-conversation	8	0.013328	60	10	60-180	60	94	GapExp	0	124	2	30	0	target	0	511	-1000	63583	13.328	13.305	13.351
TrackDT02	4	TrackDT	2.0	SCS215a	20121204.155056	20121204.160336	dt-conversation	8	0.013328	60	10	60-180	60	89	GapExp	0	125	2	1	0	distractor	1	412	794	64377	13.328	13.307	13.355
TrackDT02	4	TrackDT	2.0	SCS215a	20121204.155056	20121204.160342	dt-conversation	8	0.013328	60	10	60-180	60	79	GapExp	0	126	2	1	1	target	1	465	768	65145	13.328	12.912	13.727
TrackDT02	4	TrackDT	2.0	SCS215a	20121204.155056	20121204.160347	dt-conversation	8	0.013328	60	10	60-180	60	85	GapExp	0	127	2	3	1	target	1	435	783	65928	13.328	13.112	13.538
TrackDT02	4	TrackDT	2.0	SCS215a	20121204.155056	20121204.160352	dt-conversation	8	0.013328	60	10	60-180	60	147	GapExp	0	128	2	30	1	target	1	463	769	66697	13.328	12.971	13.685
TrackDT02	4	TrackDT	2.0	SCS215a	20121204.155056	20121204.160358	dt-conversation	8	0.013328	60	10	60-180	60	132	GapExp	0	129	2	6	1	target	1	495	753	67450	13.328	12.961	13.702
TrackDT02	4	TrackDT	2.0	SCS215a	20121204.155056	20121204.160404	dt-conversation	8	0.013328	60	10	60-180	60	100	GapExp	0	130	2	6	0	distractor	1	458	771	68221	13.328	13.117	13.541
TrackDT02	4	TrackDT	2.0	SCS215a	20121204.155056	20121204.160409	dt-conversation	8	0.013328	60	10	60-180	60	107	GapExp	0	131	2	1	0	distractor	1	430	785	69006	13.328	12.848	13.794
TrackDT02	4	TrackDT	2.0	SCS215a	20121204.155056	20121204.160415	dt-conversation	8	0.013328	60	10	60-180	60	127	GapExp	0	132	2	30	0	target	0	504	-1000	68006	13.328	12.859	13.800
TrackDT02	4	TrackDT	2.0	SCS215a	20121204.155056	20121204.160421	dt-conversation	8	0.013328	60	10	60-180	60	110	GapExp	0	133	2	0	1	distractor	0	448	-1000	67006	13.328	13.275	13.376
TrackDT02	4	TrackDT	2.0	SCS215a	20121204.155056	20121204.160426	dt-conversation	8	0.013328	60	10	60-180	60	84	GapExp	0	134	2	30	0	distractor	1	624	688	67694	13.328	13.307	13.346
TrackDT02	4	TrackDT	2.0	SCS215a	20121204.155056	20121204.160432	dt-conversation	8	0.013328	60	10	60-180	60	100	GapExp	0	135	2	30	1	target	1	487	757	68451	13.328	13.106	13.546
TrackDT02	4	TrackDT	2.0	SCS215a	20121204.155056	20121204.160438	dt-conversation	8	0.013328	60	10	60-180	60	69	GapExp	0	136	2	3	1	target	1	553	724	69175	13.328	13.106	13.551
TrackDT02	4	TrackDT	2.0	SCS215a	20121204.155056	20121204.160442	dt-conversation	8	0.013328	60	10	60-180	60	133	GapExp	0	137	2	3	1	target	1	461	770	69945	13.328	13.051	13.604
TrackDT02	4	TrackDT	2.0	SCS215a	20121204.155056	20121204.160449	dt-conversation	8	0.013328	60	10	60-180	60	78	GapExp	0	138	2	3	1	target	1	514	743	70688	13.328	12.907	13.749
TrackDT02	4	TrackDT	2.0	SCS215a	20121204.155056	20121204.160454	dt-conversation	8	0.013328	60	10	60-180	60	93	GapExp	0	139	2	3	0	target	0	367	-1000	69688	13.328	12.890	13.756
TrackDT02	4	TrackDT	2.0	SCS215a	20121204.155056	20121204.160459	dt-conversation	8	0.013328	60	10	60-180	60	136	GapExp	0	140	2	30	0	distractor	1	712	644	70332	13.328	13.106	13.552
TrackDT02	4	TrackDT	2.0	SCS215a	20121204.155056	20121204.160505	dt-conversation	8	0.013328	60	10	60-180	60	64	GapExp	0	141	2	30	1	target	1	380	810	71142	13.328	12.884	13.803
TrackDT02	4	TrackDT	2.0	SCS215a	20121204.155056	20121204.160510	dt-conversation	8	0.013328	60	10	60-180	60	128	GapExp	0	142	2	6	0	distractor	1	506	747	71889	13.328	13.106	13.565
TrackDT02	4	TrackDT	2.0	SCS215a	20121204.155056	20121204.160516	dt-conversation	8	0.013328	60	10	60-180	60	63	GapExp	0	143	2	30	1	target	1	449	776	72665	13.328	13.306	13.353
TrackDT02	4	TrackDT	2.0	SCS215a	20121204.155056	20121204.160521	dt-conversation	8	0.013328	60	10	60-180	60	126	GapExp	0	144	2	3	1	distractor	0	466	-1000	71665	13.328	13.300	13.350
TrackDT02	4	TrackDT	2.0	SCS215a	20121204.155056	20121204.160527	dt-conversation	8	0.013328	60	10	60-180	60	153	GapExp	0	145	2	3	0	distractor	1	543	729	72394	13.328	13.059	13.581
TrackDT02	4	TrackDT	2.0	SCS215a	20121204.155056	20121204.160533	dt-conversation	8	0.013328	60	10	60-180	60	93	GapExp	0	146	2	3	0	target	0	652	-1000	71394	13.328	13.107	13.543
TrackDT02	4	TrackDT	2.0	SCS215a	20121204.155056	20121204.160538	dt-conversation	8	0.013328	60	10	60-180	60	100	GapExp	0	147	2	0	1	target	1	433	784	72178	13.328	13.304	13.353
TrackDT02	4	TrackDT	2.0	SCS215a	20121204.155056	20121204.160544	dt-conversation	8	0.013328	60	10	60-180	60	173	GapExp	0	148	2	30	0	distractor	1	485	758	72936	13.328	12.857	13.787
TrackDT02	4	TrackDT	2.0	SCS215a	20121204.155056	20121204.160550	dt-conversation	8	0.013328	60	10	60-180	60	132	GapExp	0	149	2	0	1	target	1	419	791	73727	13.328	13.307	13.350
TrackDT02	4	TrackDT	2.0	SCS215a	20121204.155056	20121204.160556	dt-conversation	8	0.013328	60	10	60-180	60	132	GapExp	0	150	2	3	0	target	0	552	-1000	72727	13.328	12.968	13.700
TrackDT02	4	TrackDT	2.0	SCS215a	20121204.155056	20121204.160624	dt-conversation	8	0.013328	60	10	60-180	60	63	GapExp	0	151	2	6	0	distractor	1	489	756	73483	13.328	12.859	13.788
TrackDT02	4	TrackDT	2.0	SCS215a	20121204.155056	20121204.160630	dt-conversation	8	0.013328	60	10	60-180	60	73	GapExp	0	152	2	1	1	target	1	442	779	74262	13.328	12.951	13.696
TrackDT02	4	TrackDT	2.0	SCS215a	20121204.155056	20121204.160635	dt-conversation	8	0.013328	60	10	60-180	60	69	GapExp	0	153	2	1	0	distractor	1	532	734	74996	13.328	13.067	13.590
TrackDT02	4	TrackDT	2.0	SCS215a	20121204.155056	20121204.160639	dt-conversation	8	0.013328	60	10	60-180	60	66	GapExp	0	154	2	0	1	target	1	648	676	75672	13.328	13.307	13.350
TrackDT02	4	TrackDT	2.0	SCS215a	20121204.155056	20121204.160644	dt-conversation	8	0.013328	60	10	60-180	60	131	GapExp	0	155	2	1	1	distractor	0	522	-1000	74672	13.328	12.950	13.706
TrackDT02	4	TrackDT	2.0	SCS215a	20121204.155056	20121204.160650	dt-conversation	8	0.013328	60	10	60-180	60	116	GapExp	0	156	2	1	1	target	1	478	761	75433	13.328	13.106	13.544
TrackDT02	4	TrackDT	2.0	SCS215a	20121204.155056	20121204.160656	dt-conversation	8	0.013328	60	10	60-180	60	84	GapExp	0	157	2	30	1	distractor	0	374	-1000	74433	13.328	13.098	13.551
TrackDT02	4	TrackDT	2.0	SCS215a	20121204.155056	20121204.160701	dt-conversation	8	0.013328	60	10	60-180	60	102	GapExp	0	158	2	0	1	target	1	400	800	75233	13.328	12.850	13.814
TrackDT02	4	TrackDT	2.0	SCS215a	20121204.155056	20121204.160707	dt-conversation	8	0.013328	60	10	60-180	60	142	GapExp	0	159	2	30	1	target	1	757	622	75855	13.328	13.304	13.345
TrackDT02	4	TrackDT	2.0	SCS215a	20121204.155056	20121204.160713	dt-conversation	8	0.013328	60	10	60-180	60	106	GapExp	0	160	2	3	1	distractor	0	436	-1000	74855	13.328	13.308	13.346
TrackDT02	4	TrackDT	2.0	SCS215a	20121204.155056	20121204.160718	dt-conversation	8	0.013328	60	10	60-180	60	88	GapExp	0	161	2	0	1	target	1	448	776	75631	13.328	12.888	13.769
TrackDT02	4	TrackDT	2.0	SCS215a	20121204.155056	20121204.160723	dt-conversation	8	0.013328	60	10	60-180	60	128	GapExp	0	162	2	0	0	target	0	515	-1000	74631	13.328	13.091	13.558
TrackDT02	4	TrackDT	2.0	SCS215a	20121204.155056	20121204.160729	dt-conversation	8	0.013328	60	10	60-180	60	120	GapExp	0	163	2	3	1	target	1	416	792	75423	13.328	13.263	13.346
TrackDT02	4	TrackDT	2.0	SCS215a	20121204.155056	20121204.160735	dt-conversation	8	0.013328	60	10	60-180	60	74	GapExp	0	164	2	30	0	distractor	1	492	754	76177	13.328	12.857	13.794
TrackDT02	4	TrackDT	2.0	SCS215a	20121204.155056	20121204.160740	dt-conversation	8	0.013328	60	10	60-180	60	170	GapExp	0	165	2	3	0	distractor	1	607	697	76874	13.328	12.875	13.789
TrackDT02	4	TrackDT	2.0	SCS215a	20121204.155056	20121204.160747	dt-conversation	8	0.013328	60	10	60-180	60	100	GapExp	0	166	2	1	0	target	0	558	-1000	75874	13.328	13.099	13.558
TrackDT02	4	TrackDT	2.0	SCS215a	20121204.155056	20121204.160752	dt-conversation	8	0.013328	60	10	60-180	60	173	GapExp	0	167	2	30	1	target	1	443	779	76653	13.328	13.084	13.565
TrackDT02	4	TrackDT	2.0	SCS215a	20121204.155056	20121204.160759	dt-conversation	8	0.013328	60	10	60-180	60	133	GapExp	0	168	2	6	1	target	1	648	676	77329	13.328	12.836	13.813
TrackDT02	4	TrackDT	2.0	SCS215a	20121204.155056	20121204.160804	dt-conversation	8	0.013328	60	10	60-180	60	143	GapExp	0	169	2	0	0	distractor	1	479	761	78090	13.328	12.953	13.702
TrackDT02	4	TrackDT	2.0	SCS215a	20121204.155056	20121204.160811	dt-conversation	8	0.013328	60	10	60-180	60	132	GapExp	0	170	2	3	0	distractor	1	478	761	78851	13.328	12.872	13.780
TrackDT02	4	TrackDT	2.0	SCS215a	20121204.155056	20121204.160816	dt-conversation	8	0.013328	60	10	60-180	60	157	GapExp	0	171	2	0	0	distractor	1	780	610	79461	13.328	13.028	13.641
TrackDT02	4	TrackDT	2.0	SCS215a	20121204.155056	20121204.160823	dt-conversation	8	0.013328	60	10	60-180	60	178	GapExp	0	172	2	6	0	distractor	1	510	745	80206	13.328	12.877	13.771
TrackDT02	4	TrackDT	2.0	SCS215a	20121204.155056	20121204.160829	dt-conversation	8	0.013328	60	10	60-180	60	165	GapExp	0	173	2	3	1	distractor	0	488	-1000	79206	13.328	13.106	13.558
TrackDT02	4	TrackDT	2.0	SCS215a	20121204.155056	20121204.160835	dt-conversation	8	0.013328	60	10	60-180	60	118	GapExp	0	174	2	6	1	target	1	632	684	79890	13.328	13.100	13.556
TrackDT02	4	TrackDT	2.0	SCS215a	20121204.155056	20121204.160841	dt-conversation	8	0.013328	60	10	60-180	60	142	GapExp	0	175	2	30	1	target	1	630	685	80575	13.328	12.888	13.775
TrackDT02	4	TrackDT	2.0	SCS215a	20121204.155056	20121204.160848	dt-conversation	8	0.013328	60	10	60-180	60	94	GapExp	0	176	2	30	0	distractor	1	579	711	81286	13.328	12.910	13.746
TrackDT02	4	TrackDT	2.0	SCS215a	20121204.155056	20121204.160853	dt-conversation	8	0.013328	60	10	60-180	60	146	GapExp	0	177	2	0	1	target	1	573	714	82000	13.328	13.192	13.460
TrackDT02	4	TrackDT	2.0	SCS215a	20121204.155056	20121204.160859	dt-conversation	8	0.013328	60	10	60-180	60	74	GapExp	0	178	2	1	1	distractor	0	455	-1000	81000	13.328	13.301	13.361
TrackDT02	4	TrackDT	2.0	SCS215a	20121204.155056	20121204.160904	dt-conversation	8	0.013328	60	10	60-180	60	110	GapExp	0	179	2	6	0	distractor	1	589	706	81706	13.328	12.960	13.701
TrackDT02	4	TrackDT	2.0	SCS215a	20121204.155056	20121204.160910	dt-conversation	8	0.013328	60	10	60-180	60	175	GapExp	0	180	2	0	1	target	1	541	730	82436	13.328	12.845	13.824
TrackDT02	4	TrackDT	2.0	SCS215a	20121204.155056	20121204.160917	dt-conversation	8	0.013328	60	10	60-180	60	134	GapExp	0	181	2	6	0	target	0	565	-1000	81436	13.328	12.895	13.749
TrackDT02	4	TrackDT	2.0	SCS215a	20121204.155056	20121204.160922	dt-conversation	8	0.013328	60	10	60-180	60	71	GapExp	0	182	2	0	0	distractor	1	542	729	82165	13.328	13.305	13.345
TrackDT02	4	TrackDT	2.0	SCS215a	20121204.155056	20121204.160927	dt-conversation	8	0.013328	60	10	60-180	60	102	GapExp	0	183	2	6	0	distractor	1	582	709	82874	13.328	13.305	13.348
TrackDT02	4	TrackDT	2.0	SCS215a	20121204.155056	20121204.160933	dt-conversation	8	0.013328	60	10	60-180	60	130	GapExp	0	184	2	30	1	target	1	545	728	83602	13.328	12.879	13.751
TrackDT02	4	TrackDT	2.0	SCS215a	20121204.155056	20121204.160939	dt-conversation	8	0.013328	60	10	60-180	60	118	GapExp	0	185	2	30	0	distractor	1	449	776	84378	13.328	13.080	13.583
TrackDT02	4	TrackDT	2.0	SCS215a	20121204.155056	20121204.160945	dt-conversation	8	0.013328	60	10	60-180	60	159	GapExp	0	186	2	1	0	distractor	1	538	731	85109	13.328	12.887	13.767
TrackDT02	4	TrackDT	2.0	SCS215a	20121204.155056	20121204.160951	dt-conversation	8	0.013328	60	10	60-180	60	148	GapExp	0	187	2	1	1	early	-4	-3239	-1000	84109	13.328	12.913	13.740
TrackDT02	4	TrackDT	2.0	SCS215a	20121204.155056	20121204.160957	dt-conversation	8	0.013328	60	10	60-180	60	85	GapExp	0	188	2	1	1	target	1	784	608	84717	13.328	12.896	13.761
TrackDT02	4	TrackDT	2.0	SCS215a	20121204.155056	20121204.161002	dt-conversation	8	0.013328	60	10	60-180	60	153	GapExp	0	189	2	3	1	target	1	452	774	85491	13.425	12.933	26.515
TrackDT02	4	TrackDT	2.0	SCS215a	20121204.155056	20121204.161008	dt-conversation	8	0.013328	60	10	60-180	60	173	GapExp	0	190	2	6	1	target	1	506	747	86238	13.328	13.227	13.415
TrackDT02	4	TrackDT	2.0	SCS215a	20121204.155056	20121204.161015	dt-conversation	8	0.013328	60	10	60-180	60	127	GapExp	0	191	2	3	0	target	0	511	-1000	85238	13.328	13.166	13.489
TrackDT02	4	TrackDT	2.0	SCS215a	20121204.155056	20121204.161020	dt-conversation	8	0.013328	60	10	60-180	60	72	GapExp	0	192	2	1	0	distractor	1	544	728	85966	13.328	12.926	13.734
TrackDT02	4	TrackDT	2.0	SCS215a	20121204.155056	20121204.161026	dt-conversation	8	0.013328	60	10	60-180	60	63	GapExp	0	193	2	1	0	target	0	565	-1000	84966	13.328	13.269	13.394
TrackDT02	4	TrackDT	2.0	SCS215a	20121204.155056	20121204.161031	dt-conversation	8	0.013328	60	10	60-180	60	179	GapExp	0	194	2	0	0	distractor	1	549	726	85692	13.328	13.149	13.522
TrackDT02	4	TrackDT	2.0	SCS215a	20121204.155056	20121204.161037	dt-conversation	8	0.013328	60	10	60-180	60	131	GapExp	0	195	2	1	1	target	1	490	755	86447	13.328	12.952	13.722
TrackDT02	4	TrackDT	2.0	SCS215a	20121204.155056	20121204.161043	dt-conversation	8	0.013328	60	10	60-180	60	125	GapExp	0	196	2	30	0	distractor	1	528	736	87183	13.328	13.157	13.512
TrackDT02	4	TrackDT	2.0	SCS215a	20121204.155056	20121204.161049	dt-conversation	8	0.013328	60	10	60-180	60	135	GapExp	0	197	2	0	1	target	1	435	783	87966	13.328	12.878	13.770
TrackDT02	4	TrackDT	2.0	SCS215a	20121204.155056	20121204.161054	dt-conversation	8	0.013328	60	10	60-180	60	138	GapExp	0	198	2	30	0	target	0	631	-1000	86966	13.328	12.853	13.806
TrackDT02	4	TrackDT	2.0	SCS215a	20121204.155056	20121204.161101	dt-conversation	8	0.013328	60	10	60-180	60	122	GapExp	0	199	2	1	0	target	0	6385	-1000	85966	13.328	12.869	13.795
TrackDT02	4	TrackDT	2.0	SCS215a	20121204.155056	20121204.161113	dt-conversation	8	0.013328	60	10	60-180	60	67	GapExp	0	200	2	1	1	target	1	714	643	86609	13.328	13.309	13.344
TrackDT02	4	TrackDT	2.0	SCS215a	20121204.161136	20121204.161141	single-task	8	0.013328	60	10	60-180	60	150	GapExp	1	1	2	0	0	target	0	486	-1000	85609	13.328	13.302	13.354
TrackDT02	4	TrackDT	2.0	SCS215a	20121204.161136	20121204.161148	single-task	8	0.013328	60	10	60-180	60	74	GapExp	1	2	2	30	1	target	1	500	750	86359	13.328	12.858	13.792
TrackDT02	4	TrackDT	2.0	SCS215a	20121204.161136	20121204.161153	single-task	8	0.013328	60	10	60-180	60	152	GapExp	1	3	2	3	0	distractor	1	598	701	87060	13.328	13.045	13.613
TrackDT02	4	TrackDT	2.0	SCS215a	20121204.161136	20121204.161159	single-task	8	0.013328	60	10	60-180	60	78	GapExp	1	4	2	6	1	target	1	558	721	87781	13.328	12.999	13.663
TrackDT02	4	TrackDT	2.0	SCS215a	20121204.161136	20121204.161204	single-task	8	0.013328	60	10	60-180	60	111	GapExp	1	5	2	30	0	distractor	1	506	747	88528	13.328	12.834	13.829
TrackDT02	4	TrackDT	2.0	SCS215a	20121204.161136	20121204.161210	single-task	8	0.013328	60	10	60-180	60	137	GapExp	1	6	2	0	1	target	1	366	817	89345	13.328	12.953	13.696
TrackDT02	4	TrackDT	2.0	SCS215a	20121204.161136	20121204.161215	single-task	8	0.013328	60	10	60-180	60	128	GapExp	1	7	2	1	1	target	1	603	699	90044	13.328	12.910	13.754
TrackDT02	4	TrackDT	2.0	SCS215a	20121204.161136	20121204.161222	single-task	8	0.013328	60	10	60-180	60	107	GapExp	1	8	2	6	0	distractor	1	433	784	90828	13.328	13.267	13.383
TrackDT02	4	TrackDT	2.0	SCS215a	20121204.161136	20121204.161227	single-task	8	0.013328	60	10	60-180	60	173	GapExp	1	9	2	1	0	distractor	1	502	749	91577	13.328	13.089	13.546
TrackDT02	4	TrackDT	2.0	SCS215a	20121204.161136	20121204.161233	single-task	8	0.013328	60	10	60-180	60	93	GapExp	1	10	2	3	1	target	1	492	754	92331	13.328	12.933	13.722
TrackDT02	4	TrackDT	2.0	SCS215a	20121204.161136	20121204.161239	single-task	8	0.013328	60	10	60-180	60	87	GapExp	0	11	2	1	0	target	0	606	-1000	91331	13.328	12.879	13.775
TrackDT02	4	TrackDT	2.0	SCS215a	20121204.161136	20121204.161244	single-task	8	0.013328	60	10	60-180	60	92	GapExp	0	12	2	30	1	distractor	0	424	-1000	90331	13.328	12.828	13.828
TrackDT02	4	TrackDT	2.0	SCS215a	20121204.161136	20121204.161249	single-task	8	0.013328	60	10	60-180	60	164	GapExp	0	13	2	6	0	target	0	742	-1000	89331	13.328	12.928	13.727
TrackDT02	4	TrackDT	2.0	SCS215a	20121204.161136	20121204.161256	single-task	8	0.013328	60	10	60-180	60	121	GapExp	0	14	2	3	1	target	1	424	788	90119	13.328	13.113	13.544
TrackDT02	4	TrackDT	2.0	SCS215a	20121204.161136	20121204.161302	single-task	8	0.013328	60	10	60-180	60	63	GapExp	0	15	2	3	0	target	0	634	-1000	89119	13.328	12.938	13.717
TrackDT02	4	TrackDT	2.0	SCS215a	20121204.161136	20121204.161307	single-task	8	0.013328	60	10	60-180	60	110	GapExp	0	16	2	6	1	target	1	535	733	89852	13.328	12.914	13.746
TrackDT02	4	TrackDT	2.0	SCS215a	20121204.161136	20121204.161312	single-task	8	0.013328	60	10	60-180	60	122	GapExp	0	17	2	6	0	target	0	570	-1000	88852	13.328	12.907	13.740
TrackDT02	4	TrackDT	2.0	SCS215a	20121204.161136	20121204.161318	single-task	8	0.013328	60	10	60-180	60	95	GapExp	0	18	2	0	1	target	1	535	733	89585	13.328	13.118	13.551
TrackDT02	4	TrackDT	2.0	SCS215a	20121204.161136	20121204.161323	single-task	8	0.013328	60	10	60-180	60	116	GapExp	0	19	2	30	0	distractor	1	540	730	90315	13.328	13.097	13.567
TrackDT02	4	TrackDT	2.0	SCS215a	20121204.161136	20121204.161329	single-task	8	0.013328	60	10	60-180	60	156	GapExp	0	20	2	0	0	target	0	582	-1000	89315	13.328	13.085	13.563
TrackDT02	4	TrackDT	2.0	SCS215a	20121204.161136	20121204.161336	single-task	8	0.013328	60	10	60-180	60	133	GapExp	0	21	2	6	0	distractor	1	537	732	90047	13.328	12.878	13.775
TrackDT02	4	TrackDT	2.0	SCS215a	20121204.161136	20121204.161341	single-task	8	0.013328	60	10	60-180	60	148	GapExp	0	22	2	3	1	target	1	537	732	90779	13.328	12.875	13.780
TrackDT02	4	TrackDT	2.0	SCS215a	20121204.161136	20121204.161347	single-task	8	0.013328	60	10	60-180	60	179	GapExp	0	23	2	3	1	target	1	490	755	91534	13.328	12.906	13.737
TrackDT02	4	TrackDT	2.0	SCS215a	20121204.161136	20121204.161354	single-task	8	0.013328	60	10	60-180	60	118	GapExp	0	24	2	3	0	distractor	1	557	722	92256	13.328	12.858	13.800
TrackDT02	4	TrackDT	2.0	SCS215a	20121204.161136	20121204.161400	single-task	8	0.013328	60	10	60-180	60	170	GapExp	0	25	2	6	1	target	1	544	728	92984	13.328	12.879	13.767
TrackDT02	4	TrackDT	2.0	SCS215a	20121204.161136	20121204.161406	single-task	8	0.013328	60	10	60-180	60	83	GapExp	0	26	2	3	1	target	1	465	768	93752	13.328	13.099	13.550
TrackDT02	4	TrackDT	2.0	SCS215a	20121204.161136	20121204.161411	single-task	8	0.013328	60	10	60-180	60	132	GapExp	0	27	2	30	1	target	1	494	753	94505	13.329	12.845	13.804
TrackDT02	4	TrackDT	2.0	SCS215a	20121204.161136	20121204.161417	single-task	8	0.013328	60	10	60-180	60	111	GapExp	0	28	2	0	0	distractor	1	506	747	95252	13.328	13.017	13.640
TrackDT02	4	TrackDT	2.0	SCS215a	20121204.161136	20121204.161423	single-task	8	0.013328	60	10	60-180	60	98	GapExp	0	29	2	1	1	target	1	462	769	96021	13.328	12.964	13.693
TrackDT02	4	TrackDT	2.0	SCS215a	20121204.161136	20121204.161428	single-task	8	0.013328	60	10	60-180	60	148	GapExp	0	30	2	1	0	distractor	1	858	571	96592	13.328	13.304	13.359
TrackDT02	4	TrackDT	2.0	SCS215a	20121204.161136	20121204.161435	single-task	8	0.013328	60	10	60-180	60	156	GapExp	0	31	2	3	0	distractor	1	584	708	97300	13.328	13.065	13.598
TrackDT02	4	TrackDT	2.0	SCS215a	20121204.161136	20121204.161441	single-task	8	0.013328	60	10	60-180	60	146	GapExp	0	32	2	0	1	target	1	615	693	97993	13.328	12.963	13.694
TrackDT02	4	TrackDT	2.0	SCS215a	20121204.161136	20121204.161447	single-task	8	0.013328	60	10	60-180	60	83	GapExp	0	33	2	1	1	distractor	0	672	-1000	96993	13.328	12.855	13.790
TrackDT02	4	TrackDT	2.0	SCS215a	20121204.161136	20121204.161452	single-task	8	0.013328	60	10	60-180	60	82	GapExp	0	34	2	6	1	target	1	376	812	97805	13.328	13.281	13.374
TrackDT02	4	TrackDT	2.0	SCS215a	20121204.161136	20121204.161457	single-task	8	0.013328	60	10	60-180	60	131	GapExp	0	35	2	30	1	target	1	387	807	98612	13.328	12.846	13.794
TrackDT02	4	TrackDT	2.0	SCS215a	20121204.161136	20121204.161503	single-task	8	0.013328	60	10	60-180	60	180	GapExp	0	36	2	1	1	target	1	307	847	99459	13.328	12.865	13.808
TrackDT02	4	TrackDT	2.0	SCS215a	20121204.161136	20121204.161509	single-task	8	0.013328	60	10	60-180	60	155	GapExp	0	37	2	6	0	distractor	1	570	715	100174	13.328	13.237	13.418
TrackDT02	4	TrackDT	2.0	SCS215a	20121204.161136	20121204.161516	single-task	8	0.013328	60	10	60-180	60	68	GapExp	0	38	2	0	1	target	1	673	664	100838	13.328	13.007	13.641
TrackDT02	4	TrackDT	2.0	SCS215a	20121204.161136	20121204.161521	single-task	8	0.013328	60	10	60-180	60	160	GapExp	0	39	2	3	0	distractor	1	392	804	101642	13.328	12.873	13.776
TrackDT02	4	TrackDT	2.0	SCS215a	20121204.161136	20121204.161527	single-task	8	0.013328	60	10	60-180	60	129	GapExp	0	40	2	1	1	distractor	0	406	-1000	100642	13.328	13.308	13.348
TrackDT02	4	TrackDT	2.0	SCS215a	20121204.161136	20121204.161532	single-task	8	0.013328	60	10	60-180	60	96	GapExp	0	41	2	0	1	target	1	460	770	101412	13.328	13.302	13.355
TrackDT02	4	TrackDT	2.0	SCS215a	20121204.161136	20121204.161537	single-task	8	0.013328	60	10	60-180	60	128	GapExp	0	42	2	3	0	distractor	1	403	799	102211	13.328	13.084	13.558
TrackDT02	4	TrackDT	2.0	SCS215a	20121204.161136	20121204.161543	single-task	8	0.013328	60	10	60-180	60	151	GapExp	0	43	2	6	1	distractor	0	412	-1000	101211	13.328	13.099	13.556
TrackDT02	4	TrackDT	2.0	SCS215a	20121204.161136	20121204.161549	single-task	8	0.013328	60	10	60-180	60	145	GapExp	0	44	2	1	0	target	0	278	-1000	100211	13.328	12.856	13.779
TrackDT02	4	TrackDT	2.0	SCS215a	20121204.161136	20121204.161555	single-task	8	0.013328	60	10	60-180	60	104	GapExp	0	45	2	6	0	target	0	355	-1000	99211	13.328	12.945	13.699
TrackDT02	4	TrackDT	2.0	SCS215a	20121204.161136	20121204.161600	single-task	8	0.013328	60	10	60-180	60	119	GapExp	0	46	2	1	0	distractor	1	538	731	99942	13.328	12.867	13.801
TrackDT02	4	TrackDT	2.0	SCS215a	20121204.161136	20121204.161606	single-task	8	0.013328	60	10	60-180	60	165	GapExp	0	47	2	30	0	distractor	1	470	765	100707	13.328	12.874	13.788
TrackDT02	4	TrackDT	2.0	SCS215a	20121204.161136	20121204.161612	single-task	8	0.013328	60	10	60-180	60	102	GapExp	0	48	2	3	0	target	0	427	-1000	99707	13.329	13.103	13.689
TrackDT02	4	TrackDT	2.0	SCS215a	20121204.161136	20121204.161618	single-task	8	0.013328	60	10	60-180	60	169	GapExp	0	49	2	30	1	target	1	483	759	100466	13.328	13.106	13.566
TrackDT02	4	TrackDT	2.0	SCS215a	20121204.161136	20121204.161624	single-task	8	0.013328	60	10	60-180	60	101	GapExp	0	50	2	1	1	distractor	0	479	-1000	99466	13.328	12.857	13.787
TrackDT02	4	TrackDT	2.0	SCS215a	20121204.161136	20121204.161632	single-task	8	0.013328	60	10	60-180	60	175	GapExp	0	51	2	1	0	target	0	520	-1000	98466	13.328	12.948	13.715
TrackDT02	4	TrackDT	2.0	SCS215a	20121204.161136	20121204.161638	single-task	8	0.013328	60	10	60-180	60	82	GapExp	0	52	2	1	1	target	1	360	820	99286	13.328	12.925	13.744
TrackDT02	4	TrackDT	2.0	SCS215a	20121204.161136	20121204.161643	single-task	8	0.013328	60	10	60-180	60	87	GapExp	0	53	2	1	0	distractor	1	495	753	100039	13.328	13.303	13.350
TrackDT02	4	TrackDT	2.0	SCS215a	20121204.161136	20121204.161649	single-task	8	0.013328	60	10	60-180	60	144	GapExp	0	54	2	1	0	target	0	398	-1000	99039	13.328	13.295	13.353
TrackDT02	4	TrackDT	2.0	SCS215a	20121204.161136	20121204.161655	single-task	8	0.013328	60	10	60-180	60	165	GapExp	0	55	2	3	1	distractor	0	427	-1000	98039	13.328	12.873	13.810
TrackDT02	4	TrackDT	2.0	SCS215a	20121204.161136	20121204.161701	single-task	8	0.013328	60	10	60-180	60	155	GapExp	0	56	2	30	1	target	1	315	843	98882	13.328	12.916	13.739
TrackDT02	4	TrackDT	2.0	SCS215a	20121204.161136	20121204.161707	single-task	8	0.013328	60	10	60-180	60	87	GapExp	0	57	2	6	1	target	1	447	777	99659	13.328	13.092	13.557
TrackDT02	4	TrackDT	2.0	SCS215a	20121204.161136	20121204.161712	single-task	8	0.013328	60	10	60-180	60	142	GapExp	0	58	2	30	0	distractor	1	557	722	100381	13.328	13.104	13.538
TrackDT02	4	TrackDT	2.0	SCS215a	20121204.161136	20121204.161718	single-task	8	0.013328	60	10	60-180	60	73	GapExp	0	59	2	0	1	target	1	483	759	101140	13.328	13.299	13.362
TrackDT02	4	TrackDT	2.0	SCS215a	20121204.161136	20121204.161724	single-task	8	0.013328	60	10	60-180	60	78	GapExp	0	60	2	6	1	distractor	0	445	-1000	100140	13.328	13.080	13.578
TrackDT02	4	TrackDT	2.0	SCS215a	20121204.161136	20121204.161729	single-task	8	0.013328	60	10	60-180	60	165	GapExp	0	61	2	0	1	target	1	335	833	100973	13.328	12.840	13.810
TrackDT02	4	TrackDT	2.0	SCS215a	20121204.161136	20121204.161735	single-task	8	0.013328	60	10	60-180	60	162	GapExp	0	62	2	30	1	target	1	339	831	101804	13.327	12.851	13.798
TrackDT02	4	TrackDT	2.0	SCS215a	20121204.161136	20121204.161741	single-task	8	0.013328	60	10	60-180	60	172	GapExp	0	63	2	1	0	distractor	1	543	729	102533	13.328	13.017	13.638
TrackDT02	4	TrackDT	2.0	SCS215a	20121204.161136	20121204.161747	single-task	8	0.013328	60	10	60-180	60	92	GapExp	0	64	2	30	0	distractor	1	480	760	103293	13.328	13.307	13.348
TrackDT02	4	TrackDT	2.0	SCS215a	20121204.161136	20121204.161753	single-task	8	0.013328	60	10	60-180	60	139	GapExp	0	65	2	6	0	distractor	1	342	829	104122	13.328	12.909	13.741
TrackDT02	4	TrackDT	2.0	SCS215a	20121204.161136	20121204.161759	single-task	8	0.013328	60	10	60-180	60	109	GapExp	0	66	2	0	0	distractor	1	665	668	104790	13.328	13.304	13.352
TrackDT02	4	TrackDT	2.0	SCS215a	20121204.161136	20121204.161804	single-task	8	0.013328	60	10	60-180	60	131	GapExp	0	67	2	0	1	distractor	0	337	-1000	103790	13.328	12.834	13.810
TrackDT02	4	TrackDT	2.0	SCS215a	20121204.161136	20121204.161810	single-task	8	0.013328	60	10	60-180	60	77	GapExp	0	68	2	30	0	distractor	1	386	807	104597	13.328	12.980	13.675
TrackDT02	4	TrackDT	2.0	SCS215a	20121204.161136	20121204.161815	single-task	8	0.013328	60	10	60-180	60	108	GapExp	0	69	2	30	1	distractor	0	290	-1000	103597	13.328	12.889	13.783
TrackDT02	4	TrackDT	2.0	SCS215a	20121204.161136	20121204.161820	single-task	8	0.013328	60	10	60-180	60	99	GapExp	0	70	2	3	1	target	1	461	770	104367	13.328	13.312	13.345
TrackDT02	4	TrackDT	2.0	SCS215a	20121204.161136	20121204.161826	single-task	8	0.013328	60	10	60-180	60	118	GapExp	0	71	2	0	1	target	1	472	764	105131	13.328	12.863	13.668
TrackDT02	4	TrackDT	2.0	SCS215a	20121204.161136	20121204.161832	single-task	8	0.013328	60	10	60-180	60	100	GapExp	0	72	2	0	0	distractor	1	513	744	105875	13.328	12.960	13.710
TrackDT02	4	TrackDT	2.0	SCS215a	20121204.161136	20121204.161837	single-task	8	0.013328	60	10	60-180	60	117	GapExp	0	73	2	6	0	distractor	1	623	689	106564	13.328	12.848	13.788
TrackDT02	4	TrackDT	2.0	SCS215a	20121204.161136	20121204.161843	single-task	8	0.013328	60	10	60-180	60	153	GapExp	0	74	2	30	1	target	1	483	759	107323	13.328	12.870	13.786
TrackDT02	4	TrackDT	2.0	SCS215a	20121204.161136	20121204.161849	single-task	8	0.013328	60	10	60-180	60	68	GapExp	0	75	2	0	1	distractor	0	605	-1000	106323	13.328	12.945	13.711
TrackDT02	4	TrackDT	2.0	SCS215a	20121204.161136	20121204.161854	single-task	8	0.013328	60	10	60-180	60	113	GapExp	0	76	2	30	0	distractor	1	423	789	107112	13.328	12.885	13.785
TrackDT02	4	TrackDT	2.0	SCS215a	20121204.161136	20121204.161900	single-task	8	0.013328	60	10	60-180	60	76	GapExp	0	77	2	0	0	distractor	1	559	721	107833	13.328	13.091	13.557
TrackDT02	4	TrackDT	2.0	SCS215a	20121204.161136	20121204.161905	single-task	8	0.013328	60	10	60-180	60	80	GapExp	0	78	2	1	1	target	1	517	742	108575	13.328	12.933	13.721
TrackDT02	4	TrackDT	2.0	SCS215a	20121204.161136	20121204.161910	single-task	8	0.013328	60	10	60-180	60	67	GapExp	0	79	2	6	0	distractor	1	476	762	109337	13.328	12.867	13.783
TrackDT02	4	TrackDT	2.0	SCS215a	20121204.161136	20121204.161915	single-task	8	0.013328	60	10	60-180	60	142	GapExp	0	80	2	0	1	distractor	0	438	-1000	108337	13.326	12.840	13.810
TrackDT02	4	TrackDT	2.0	SCS215a	20121204.161136	20121204.161921	single-task	8	0.013328	60	10	60-180	60	111	GapExp	0	81	2	30	0	target	0	621	-1000	107337	13.328	12.858	13.781
TrackDT02	4	TrackDT	2.0	SCS215a	20121204.161136	20121204.161927	single-task	8	0.013328	60	10	60-180	60	93	GapExp	0	82	2	30	1	target	1	469	766	108103	13.328	12.961	13.683
TrackDT02	4	TrackDT	2.0	SCS215a	20121204.161136	20121204.161932	single-task	8	0.013328	60	10	60-180	60	67	GapExp	0	83	2	0	1	target	1	460	770	108873	13.328	12.895	13.753
TrackDT02	4	TrackDT	2.0	SCS215a	20121204.161136	20121204.161937	single-task	8	0.013328	60	10	60-180	60	180	GapExp	0	84	2	1	0	distractor	1	407	797	109670	13.328	13.198	13.471
TrackDT02	4	TrackDT	2.0	SCS215a	20121204.161136	20121204.161944	single-task	8	0.013328	60	10	60-180	60	113	GapExp	0	85	2	1	0	target	0	387	-1000	108670	13.328	12.835	13.804
TrackDT02	4	TrackDT	2.0	SCS215a	20121204.161136	20121204.161949	single-task	8	0.013328	60	10	60-180	60	75	GapExp	0	86	2	0	1	distractor	0	431	-1000	107670	13.328	12.946	13.725
TrackDT02	4	TrackDT	2.0	SCS215a	20121204.161136	20121204.161954	single-task	8	0.013328	60	10	60-180	60	86	GapExp	0	87	2	0	0	distractor	1	677	662	108332	13.328	12.926	13.723
TrackDT02	4	TrackDT	2.0	SCS215a	20121204.161136	20121204.161959	single-task	8	0.013328	60	10	60-180	60	115	GapExp	0	88	2	1	0	distractor	1	626	687	109019	13.328	13.119	13.549
TrackDT02	4	TrackDT	2.0	SCS215a	20121204.161136	20121204.162005	single-task	8	0.013328	60	10	60-180	60	79	GapExp	0	89	2	6	0	distractor	1	631	685	109704	13.328	13.303	13.347
TrackDT02	4	TrackDT	2.0	SCS215a	20121204.161136	20121204.162010	single-task	8	0.013328	60	10	60-180	60	80	GapExp	0	90	2	30	1	distractor	0	349	-1000	108704	13.328	13.091	13.564
TrackDT02	4	TrackDT	2.0	SCS215a	20121204.161136	20121204.162015	single-task	8	0.013328	60	10	60-180	60	120	GapExp	0	91	2	30	1	target	1	316	842	109546	13.328	13.102	13.547
TrackDT02	4	TrackDT	2.0	SCS215a	20121204.161136	20121204.162021	single-task	8	0.013328	60	10	60-180	60	160	GapExp	0	92	2	1	1	target	1	443	779	110325	13.328	12.905	13.758
TrackDT02	4	TrackDT	2.0	SCS215a	20121204.161136	20121204.162027	single-task	8	0.013328	60	10	60-180	60	147	GapExp	0	93	2	3	0	target	0	390	-1000	109325	13.328	13.309	13.352
TrackDT02	4	TrackDT	2.0	SCS215a	20121204.161136	20121204.162033	single-task	8	0.013328	60	10	60-180	60	122	GapExp	0	94	2	6	1	target	1	363	819	110144	13.328	13.309	13.349
TrackDT02	4	TrackDT	2.0	SCS215a	20121204.161136	20121204.162038	single-task	8	0.013328	60	10	60-180	60	164	GapExp	0	95	2	0	0	distractor	1	483	759	110903	13.328	13.094	13.561
TrackDT02	4	TrackDT	2.0	SCS215a	20121204.161136	20121204.162045	single-task	8	0.013328	60	10	60-180	60	128	GapExp	0	96	2	6	0	distractor	1	532	734	111637	13.328	12.920	13.736
TrackDT02	4	TrackDT	2.0	SCS215a	20121204.161136	20121204.162051	single-task	8	0.013328	60	10	60-180	60	115	GapExp	0	97	2	3	0	target	0	434	-1000	110637	13.328	12.879	13.778
TrackDT02	4	TrackDT	2.0	SCS215a	20121204.161136	20121204.162056	single-task	8	0.013328	60	10	60-180	60	74	GapExp	0	98	2	6	1	target	1	358	821	111458	13.328	12.876	13.804
TrackDT02	4	TrackDT	2.0	SCS215a	20121204.161136	20121204.162101	single-task	8	0.013328	60	10	60-180	60	143	GapExp	0	99	2	30	1	target	1	349	826	112284	13.328	12.911	13.739
TrackDT02	4	TrackDT	2.0	SCS215a	20121204.161136	20121204.162107	single-task	8	0.013328	60	10	60-180	60	126	GapExp	0	100	2	6	1	target	1	304	848	113132	13.328	13.098	13.558
TrackDT02	4	TrackDT	2.0	SCS215a	20121204.161136	20121204.162149	single-task	8	0.013328	60	10	60-180	60	163	GapExp	0	101	2	6	0	target	0	358	-1000	112132	13.328	13.099	13.543
TrackDT02	4	TrackDT	2.0	SCS215a	20121204.161136	20121204.162155	single-task	8	0.013328	60	10	60-180	60	94	GapExp	0	102	2	0	0	distractor	1	419	791	112923	13.328	13.107	13.550
TrackDT02	4	TrackDT	2.0	SCS215a	20121204.161136	20121204.162200	single-task	8	0.013328	60	10	60-180	60	69	GapExp	0	103	2	6	0	target	0	412	-1000	111923	13.328	12.964	13.690
TrackDT02	4	TrackDT	2.0	SCS215a	20121204.161136	20121204.162205	single-task	8	0.013328	60	10	60-180	60	180	GapExp	0	104	2	1	0	target	0	465	-1000	110923	13.328	12.903	13.756
TrackDT02	4	TrackDT	2.0	SCS215a	20121204.161136	20121204.162211	single-task	8	0.013328	60	10	60-180	60	109	GapExp	0	105	2	0	1	distractor	0	484	-1000	109923	13.328	13.032	13.629
TrackDT02	4	TrackDT	2.0	SCS215a	20121204.161136	20121204.162217	single-task	8	0.013328	60	10	60-180	60	62	GapExp	0	106	2	3	0	target	0	457	-1000	108923	13.328	12.882	13.773
TrackDT02	4	TrackDT	2.0	SCS215a	20121204.161136	20121204.162221	single-task	8	0.013328	60	10	60-180	60	164	GapExp	0	107	2	30	0	target	0	592	-1000	107923	13.328	12.899	13.757
TrackDT02	4	TrackDT	2.0	SCS215a	20121204.161136	20121204.162228	single-task	8	0.013328	60	10	60-180	60	65	GapExp	0	108	2	30	0	distractor	1	357	822	108745	13.328	12.840	13.802
TrackDT02	4	TrackDT	2.0	SCS215a	20121204.161136	20121204.162233	single-task	8	0.013328	60	10	60-180	60	129	GapExp	0	109	2	6	0	target	0	462	-1000	107745	13.328	13.191	13.451
TrackDT02	4	TrackDT	2.0	SCS215a	20121204.161136	20121204.162239	single-task	8	0.013328	60	10	60-180	60	160	GapExp	0	110	2	6	0	distractor	1	538	731	108476	13.328	13.310	13.351
TrackDT02	4	TrackDT	2.0	SCS215a	20121204.161136	20121204.162245	single-task	8	0.013328	60	10	60-180	60	71	GapExp	0	111	2	0	0	target	0	568	-1000	107476	13.328	13.092	13.550
TrackDT02	4	TrackDT	2.0	SCS215a	20121204.161136	20121204.162250	single-task	8	0.013328	60	10	60-180	60	119	GapExp	0	112	2	0	0	distractor	1	526	737	108213	13.328	13.092	13.570
TrackDT02	4	TrackDT	2.0	SCS215a	20121204.161136	20121204.162256	single-task	8	0.013328	60	10	60-180	60	66	GapExp	0	113	2	30	0	distractor	1	359	821	109034	13.328	13.010	13.654
TrackDT02	4	TrackDT	2.0	SCS215a	20121204.161136	20121204.162301	single-task	8	0.013328	60	10	60-180	60	86	GapExp	0	114	2	30	0	target	0	353	-1000	108034	13.328	13.306	13.355
TrackDT02	4	TrackDT	2.0	SCS215a	20121204.161136	20121204.162307	single-task	8	0.013328	60	10	60-180	60	101	GapExp	0	115	2	1	0	distractor	1	406	797	108831	13.328	12.853	13.791
TrackDT02	4	TrackDT	2.0	SCS215a	20121204.161136	20121204.162312	single-task	8	0.013328	60	10	60-180	60	83	GapExp	0	116	2	3	1	target	1	354	823	109654	13.328	12.945	13.704
TrackDT02	4	TrackDT	2.0	SCS215a	20121204.161136	20121204.162317	single-task	8	0.013328	60	10	60-180	60	69	GapExp	0	117	2	6	1	target	1	483	759	110413	13.328	13.307	13.348
TrackDT02	4	TrackDT	2.0	SCS215a	20121204.161136	20121204.162321	single-task	8	0.013328	60	10	60-180	60	108	GapExp	0	118	2	1	0	distractor	1	481	760	111173	13.328	12.871	13.787
TrackDT02	4	TrackDT	2.0	SCS215a	20121204.161136	20121204.162327	single-task	8	0.013328	60	10	60-180	60	98	GapExp	0	119	2	3	1	target	1	312	844	112017	13.328	13.091	13.574
TrackDT02	4	TrackDT	2.0	SCS215a	20121204.161136	20121204.162332	single-task	8	0.013328	60	10	60-180	60	69	GapExp	0	120	2	30	1	target	1	344	828	112845	13.328	13.107	13.679
TrackDT02	4	TrackDT	2.0	SCS215a	20121204.161136	20121204.162337	single-task	8	0.013328	60	10	60-180	60	113	GapExp	0	121	2	6	1	distractor	0	372	-1000	111845	13.328	13.201	13.470
TrackDT02	4	TrackDT	2.0	SCS215a	20121204.161136	20121204.162343	single-task	8	0.013328	60	10	60-180	60	69	GapExp	0	122	2	6	1	target	1	429	786	112631	13.328	12.909	13.740
TrackDT02	4	TrackDT	2.0	SCS215a	20121204.161136	20121204.162348	single-task	8	0.013328	60	10	60-180	60	179	GapExp	0	123	2	3	0	distractor	1	521	740	113371	13.328	12.965	13.685
TrackDT02	4	TrackDT	2.0	SCS215a	20121204.161136	20121204.162354	single-task	8	0.013328	60	10	60-180	60	111	GapExp	0	124	2	3	1	distractor	0	572	-1000	112371	13.328	13.112	13.556
TrackDT02	4	TrackDT	2.0	SCS215a	20121204.161136	20121204.162359	single-task	8	0.013328	60	10	60-180	60	67	GapExp	0	125	2	30	0	distractor	1	523	739	113110	13.328	12.860	13.798
TrackDT02	4	TrackDT	2.0	SCS215a	20121204.161136	20121204.162405	single-task	8	0.013328	60	10	60-180	60	152	GapExp	0	126	2	6	1	distractor	0	474	-1000	112110	13.328	13.302	13.364
TrackDT02	4	TrackDT	2.0	SCS215a	20121204.161136	20121204.162411	single-task	8	0.013328	60	10	60-180	60	108	GapExp	0	127	2	6	1	target	1	370	815	112925	13.328	12.862	13.778
TrackDT02	4	TrackDT	2.0	SCS215a	20121204.161136	20121204.162416	single-task	8	0.013328	60	10	60-180	60	179	GapExp	0	128	2	0	0	target	0	352	-1000	111925	13.374	12.900	26.484
TrackDT02	4	TrackDT	2.0	SCS215a	20121204.161136	20121204.162423	single-task	8	0.013328	60	10	60-180	60	75	GapExp	0	129	2	3	0	distractor	1	440	780	112705	13.328	13.113	13.574
TrackDT02	4	TrackDT	2.0	SCS215a	20121204.161136	20121204.162427	single-task	8	0.013328	60	10	60-180	60	85	GapExp	0	130	2	3	1	distractor	0	382	-1000	111705	13.328	13.299	13.367
TrackDT02	4	TrackDT	2.0	SCS215a	20121204.161136	20121204.162432	single-task	8	0.013328	60	10	60-180	60	108	GapExp	0	131	2	1	1	target	1	328	836	112541	13.328	13.200	13.593
TrackDT02	4	TrackDT	2.0	SCS215a	20121204.161136	20121204.162438	single-task	8	0.013328	60	10	60-180	60	178	GapExp	0	132	2	6	0	distractor	1	378	811	113352	13.328	12.887	13.774
TrackDT02	4	TrackDT	2.0	SCS215a	20121204.161136	20121204.162444	single-task	8	0.013328	60	10	60-180	60	158	GapExp	0	133	2	3	1	target	1	367	817	114169	13.328	12.943	13.721
TrackDT02	4	TrackDT	2.0	SCS215a	20121204.161136	20121204.162450	single-task	8	0.013328	60	10	60-180	60	62	GapExp	0	134	2	3	1	target	1	397	802	114971	13.328	12.852	13.804
TrackDT02	4	TrackDT	2.0	SCS215a	20121204.161136	20121204.162455	single-task	8	0.013328	60	10	60-180	60	125	GapExp	0	135	2	3	1	target	1	636	682	115653	13.328	12.890	13.759
TrackDT02	4	TrackDT	2.0	SCS215a	20121204.161136	20121204.162501	single-task	8	0.013328	60	10	60-180	60	143	GapExp	0	136	2	30	0	distractor	1	123	939	116592	13.328	13.135	13.525
TrackDT02	4	TrackDT	2.0	SCS215a	20121204.161136	20121204.162506	single-task	8	0.013328	60	10	60-180	60	122	GapExp	0	137	2	6	1	target	1	275	863	117455	13.328	13.097	13.605
TrackDT02	4	TrackDT	2.0	SCS215a	20121204.161136	20121204.162512	single-task	8	0.013328	60	10	60-180	60	159	GapExp	0	138	2	3	1	target	1	313	844	118299	13.328	13.092	13.550
TrackDT02	4	TrackDT	2.0	SCS215a	20121204.161136	20121204.162518	single-task	8	0.013328	60	10	60-180	60	159	GapExp	0	139	2	1	1	distractor	0	431	-1000	117299	13.328	12.865	13.790
TrackDT02	4	TrackDT	2.0	SCS215a	20121204.161136	20121204.162524	single-task	8	0.013328	60	10	60-180	60	62	GapExp	0	140	2	3	1	target	1	560	720	118019	13.328	12.998	13.660
TrackDT02	4	TrackDT	2.0	SCS215a	20121204.161136	20121204.162529	single-task	8	0.013328	60	10	60-180	60	94	GapExp	0	141	2	3	0	distractor	1	517	742	118761	13.328	13.300	13.351
TrackDT02	4	TrackDT	2.0	SCS215a	20121204.161136	20121204.162534	single-task	8	0.013328	60	10	60-180	60	175	GapExp	0	142	2	6	1	target	1	324	838	119599	13.328	13.019	13.624
TrackDT02	4	TrackDT	2.0	SCS215a	20121204.161136	20121204.162540	single-task	8	0.013328	60	10	60-180	60	68	GapExp	0	143	2	6	0	distractor	1	395	803	120402	13.328	13.114	13.551
TrackDT02	4	TrackDT	2.0	SCS215a	20121204.161136	20121204.162546	single-task	8	0.013328	60	10	60-180	60	103	GapExp	0	144	2	0	1	target	1	342	829	121231	13.328	13.092	13.564
TrackDT02	4	TrackDT	2.0	SCS215a	20121204.161136	20121204.162551	single-task	8	0.013328	60	10	60-180	60	144	GapExp	0	145	2	3	0	target	0	382	-1000	120231	13.328	12.880	13.769
TrackDT02	4	TrackDT	2.0	SCS215a	20121204.161136	20121204.162556	single-task	8	0.013328	60	10	60-180	60	99	GapExp	0	146	2	0	1	distractor	0	430	-1000	119231	13.328	13.307	13.349
TrackDT02	4	TrackDT	2.0	SCS215a	20121204.161136	20121204.162602	single-task	8	0.013328	60	10	60-180	60	160	GapExp	0	147	2	1	0	target	0	351	-1000	118231	13.328	12.958	13.688
TrackDT02	4	TrackDT	2.0	SCS215a	20121204.161136	20121204.162608	single-task	8	0.013328	60	10	60-180	60	116	GapExp	0	148	2	0	1	target	1	401	800	119031	13.328	13.025	13.618
TrackDT02	4	TrackDT	2.0	SCS215a	20121204.161136	20121204.162613	single-task	8	0.013328	60	10	60-180	60	95	GapExp	0	149	2	1	1	target	1	371	815	119846	13.328	13.107	13.549
TrackDT02	4	TrackDT	2.0	SCS215a	20121204.161136	20121204.162618	single-task	8	0.013328	60	10	60-180	60	96	GapExp	0	150	2	0	1	target	1	383	809	120655	13.328	13.062	13.609
TrackDT02	4	TrackDT	2.0	SCS215a	20121204.161136	20121204.162636	single-task	8	0.013328	60	10	60-180	60	168	GapExp	0	151	2	1	1	target	1	442	779	121434	13.328	12.974	13.679
TrackDT02	4	TrackDT	2.0	SCS215a	20121204.161136	20121204.162642	single-task	8	0.013328	60	10	60-180	60	137	GapExp	0	152	2	3	0	distractor	1	431	785	122219	13.328	12.870	13.794
TrackDT02	4	TrackDT	2.0	SCS215a	20121204.161136	20121204.162649	single-task	8	0.013328	60	10	60-180	60	124	GapExp	0	153	2	0	0	target	0	367	-1000	121219	13.328	13.097	13.571
TrackDT02	4	TrackDT	2.0	SCS215a	20121204.161136	20121204.162654	single-task	8	0.013328	60	10	60-180	60	160	GapExp	0	154	2	6	1	target	1	639	681	121900	13.328	13.105	13.551
TrackDT02	4	TrackDT	2.0	SCS215a	20121204.161136	20121204.162700	single-task	8	0.013328	60	10	60-180	60	151	GapExp	0	155	2	3	0	distractor	1	163	919	122819	13.328	12.889	13.589
TrackDT02	4	TrackDT	2.0	SCS215a	20121204.161136	20121204.162706	single-task	8	0.013328	60	10	60-180	60	122	GapExp	0	156	2	30	1	target	1	288	856	123675	13.328	12.872	13.779
TrackDT02	4	TrackDT	2.0	SCS215a	20121204.161136	20121204.162712	single-task	8	0.013328	60	10	60-180	60	116	GapExp	0	157	2	1	0	distractor	1	732	634	124309	13.328	13.153	13.516
TrackDT02	4	TrackDT	2.0	SCS215a	20121204.161136	20121204.162717	single-task	8	0.013328	60	10	60-180	60	92	GapExp	0	158	2	1	1	target	1	561	720	125029	13.328	13.093	13.559
TrackDT02	4	TrackDT	2.0	SCS215a	20121204.161136	20121204.162723	single-task	8	0.013328	60	10	60-180	60	107	GapExp	0	159	2	0	0	distractor	1	541	730	125759	13.328	13.112	13.549
TrackDT02	4	TrackDT	2.0	SCS215a	20121204.161136	20121204.162729	single-task	8	0.013328	60	10	60-180	60	72	GapExp	0	160	2	30	0	target	0	319	-1000	124759	13.328	13.242	13.401
TrackDT02	4	TrackDT	2.0	SCS215a	20121204.161136	20121204.162734	single-task	8	0.013328	60	10	60-180	60	159	GapExp	0	161	2	1	0	distractor	1	556	722	125481	13.328	12.922	13.722
TrackDT02	4	TrackDT	2.0	SCS215a	20121204.161136	20121204.162740	single-task	8	0.013328	60	10	60-180	60	148	GapExp	0	162	2	0	1	target	1	610	695	126176	13.328	12.978	13.678
TrackDT02	4	TrackDT	2.0	SCS215a	20121204.161136	20121204.162746	single-task	8	0.013328	60	10	60-180	60	103	GapExp	0	163	2	30	0	distractor	1	374	813	126989	13.328	13.099	13.558
TrackDT02	4	TrackDT	2.0	SCS215a	20121204.161136	20121204.162751	single-task	8	0.013328	60	10	60-180	60	175	GapExp	0	164	2	1	1	target	1	520	740	127729	13.328	12.989	13.680
TrackDT02	4	TrackDT	2.0	SCS215a	20121204.161136	20121204.162758	single-task	8	0.013328	60	10	60-180	60	111	GapExp	0	165	2	0	0	distractor	1	524	738	128467	13.328	13.113	13.556
TrackDT02	4	TrackDT	2.0	SCS215a	20121204.161136	20121204.162804	single-task	8	0.013328	60	10	60-180	60	115	GapExp	0	166	2	0	0	distractor	1	393	804	129271	13.328	13.289	13.367
TrackDT02	4	TrackDT	2.0	SCS215a	20121204.161136	20121204.162809	single-task	8	0.013328	60	10	60-180	60	141	GapExp	0	167	2	0	0	distractor	1	407	797	130068	13.328	12.850	13.802
TrackDT02	4	TrackDT	2.0	SCS215a	20121204.161136	20121204.162815	single-task	8	0.013328	60	10	60-180	60	82	GapExp	0	168	2	0	0	target	0	438	-1000	129068	13.328	12.944	13.712
TrackDT02	4	TrackDT	2.0	SCS215a	20121204.161136	20121204.162820	single-task	8	0.013328	60	10	60-180	60	92	GapExp	0	169	2	3	0	distractor	1	392	804	129872	13.328	13.099	13.571
TrackDT02	4	TrackDT	2.0	SCS215a	20121204.161136	20121204.162825	single-task	8	0.013328	60	10	60-180	60	80	GapExp	0	170	2	30	1	distractor	0	311	-1000	128872	13.328	13.303	13.352
TrackDT02	4	TrackDT	2.0	SCS215a	20121204.161136	20121204.162830	single-task	8	0.013328	60	10	60-180	60	70	GapExp	0	171	2	0	1	target	1	461	770	129642	13.328	13.055	13.607
TrackDT02	4	TrackDT	2.0	SCS215a	20121204.161136	20121204.162835	single-task	8	0.013328	60	10	60-180	60	118	GapExp	0	172	2	0	0	target	0	409	-1000	128642	13.328	13.113	13.543
TrackDT02	4	TrackDT	2.0	SCS215a	20121204.161136	20121204.162840	single-task	8	0.013328	60	10	60-180	60	87	GapExp	0	173	2	30	1	distractor	0	382	-1000	127642	13.328	12.866	13.784
TrackDT02	4	TrackDT	2.0	SCS215a	20121204.161136	20121204.162846	single-task	8	0.013328	60	10	60-180	60	139	GapExp	0	174	2	30	1	distractor	0	373	-1000	126642	13.328	12.903	13.753
TrackDT02	4	TrackDT	2.0	SCS215a	20121204.161136	20121204.162852	single-task	8	0.013328	60	10	60-180	60	72	GapExp	0	175	2	30	0	target	0	570	-1000	125642	13.328	12.937	13.717
TrackDT02	4	TrackDT	2.0	SCS215a	20121204.161136	20121204.162857	single-task	8	0.013328	60	10	60-180	60	156	GapExp	0	176	2	3	0	target	0	426	-1000	124642	13.328	13.303	13.354
TrackDT02	4	TrackDT	2.0	SCS215a	20121204.161136	20121204.162904	single-task	8	0.013328	60	10	60-180	60	64	GapExp	0	177	2	3	0	target	0	517	-1000	123642	13.328	12.913	13.756
TrackDT02	4	TrackDT	2.0	SCS215a	20121204.161136	20121204.162908	single-task	8	0.013328	60	10	60-180	60	92	GapExp	0	178	2	1	1	distractor	0	443	-1000	122642	13.328	13.111	13.552
TrackDT02	4	TrackDT	2.0	SCS215a	20121204.161136	20121204.162913	single-task	8	0.013328	60	10	60-180	60	149	GapExp	0	179	2	6	1	target	1	317	842	123484	13.328	12.843	13.801
TrackDT02	4	TrackDT	2.0	SCS215a	20121204.161136	20121204.162919	single-task	8	0.013328	60	10	60-180	60	64	GapExp	0	180	2	30	1	target	1	242	879	124363	13.328	13.306	13.353
TrackDT02	4	TrackDT	2.0	SCS215a	20121204.161136	20121204.162924	single-task	8	0.013328	60	10	60-180	60	140	GapExp	0	181	2	30	0	distractor	1	539	731	125094	13.328	13.091	13.564
TrackDT02	4	TrackDT	2.0	SCS215a	20121204.161136	20121204.162930	single-task	8	0.013328	60	10	60-180	60	97	GapExp	0	182	2	1	1	target	1	364	818	125912	13.328	13.057	13.730
TrackDT02	4	TrackDT	2.0	SCS215a	20121204.161136	20121204.162936	single-task	8	0.013328	60	10	60-180	60	179	GapExp	0	183	2	30	1	target	1	265	868	126780	13.328	13.075	13.793
TrackDT02	4	TrackDT	2.0	SCS215a	20121204.161136	20121204.162942	single-task	8	0.013328	60	10	60-180	60	92	GapExp	0	184	2	6	0	distractor	1	430	785	127565	13.328	12.854	13.795
TrackDT02	4	TrackDT	2.0	SCS215a	20121204.161136	20121204.162948	single-task	8	0.013328	60	10	60-180	60	112	GapExp	0	185	2	6	1	target	1	488	756	128321	13.328	12.969	13.700
TrackDT02	4	TrackDT	2.0	SCS215a	20121204.161136	20121204.162953	single-task	8	0.013328	60	10	60-180	60	178	GapExp	0	186	2	6	0	distractor	1	509	746	129067	13.328	13.133	13.515
TrackDT02	4	TrackDT	2.0	SCS215a	20121204.161136	20121204.162959	single-task	8	0.013328	60	10	60-180	60	122	GapExp	0	187	2	3	1	target	1	382	809	129876	13.328	12.840	13.811
TrackDT02	4	TrackDT	2.0	SCS215a	20121204.161136	20121204.163005	single-task	8	0.013328	60	10	60-180	60	177	GapExp	0	188	2	3	1	target	1	352	824	130700	13.328	13.113	13.556
TrackDT02	4	TrackDT	2.0	SCS215a	20121204.161136	20121204.163011	single-task	8	0.013328	60	10	60-180	60	115	GapExp	0	189	2	3	1	target	1	572	714	131414	13.328	13.085	13.557
TrackDT02	4	TrackDT	2.0	SCS215a	20121204.161136	20121204.163017	single-task	8	0.013328	60	10	60-180	60	113	GapExp	0	190	2	1	1	distractor	0	179	-1000	130414	13.328	12.862	13.804
TrackDT02	4	TrackDT	2.0	SCS215a	20121204.161136	20121204.163022	single-task	8	0.013328	60	10	60-180	60	142	GapExp	0	191	2	1	0	distractor	1	483	759	131173	13.328	12.934	13.726
TrackDT02	4	TrackDT	2.0	SCS215a	20121204.161136	20121204.163028	single-task	8	0.013328	60	10	60-180	60	172	GapExp	0	192	2	1	0	target	0	397	-1000	130173	13.328	12.955	13.695
TrackDT02	4	TrackDT	2.0	SCS215a	20121204.161136	20121204.163034	single-task	8	0.013328	60	10	60-180	60	107	GapExp	0	193	2	0	0	distractor	1	834	583	130756	13.328	13.096	13.559
TrackDT02	4	TrackDT	2.0	SCS215a	20121204.161136	20121204.163040	single-task	8	0.013328	60	10	60-180	60	144	GapExp	0	194	2	3	1	target	1	444	778	131534	13.328	13.103	13.537
TrackDT02	4	TrackDT	2.0	SCS215a	20121204.161136	20121204.163046	single-task	8	0.013328	60	10	60-180	60	83	GapExp	0	195	2	6	0	target	0	364	-1000	130534	13.328	13.095	13.551
TrackDT02	4	TrackDT	2.0	SCS215a	20121204.161136	20121204.163051	single-task	8	0.013328	60	10	60-180	60	110	GapExp	0	196	2	30	0	distractor	1	380	810	131344	13.328	12.896	13.767
TrackDT02	4	TrackDT	2.0	SCS215a	20121204.161136	20121204.163057	single-task	8	0.013328	60	10	60-180	60	150	GapExp	0	197	2	1	1	target	1	392	804	132148	13.328	12.877	13.776
TrackDT02	4	TrackDT	2.0	SCS215a	20121204.161136	20121204.163103	single-task	8	0.013328	60	10	60-180	60	82	GapExp	0	198	2	30	0	distractor	1	395	803	132951	13.328	12.885	13.778
TrackDT02	4	TrackDT	2.0	SCS215a	20121204.161136	20121204.163108	single-task	8	0.013328	60	10	60-180	60	174	GapExp	0	199	2	3	0	distractor	1	376	812	133763	13.328	13.099	13.564
TrackDT02	4	TrackDT	2.0	SCS215a	20121204.161136	20121204.163114	single-task	8	0.013328	60	10	60-180	60	149	GapExp	0	200	2	1	1	target	1	332	834	134597	13.328	13.091	13.573
