exp	sub	code	rev	comp	runtime	trialtime	stdt	nstim	refreshdur	cuedur	gapdur	gapOnsetRange	durPostProbe	gapOnsetTime	blocktype	prac	trial	ntargets	soa	probeTarget	resp	acc	rt	pts	tpts	meanFrameDur	minFrameDur	maxFrameDur
TrackDT02	5	TrackDT	2.0	SCS215a	20121205.183104	20121205.183111	single-task	8	0.013328	60	0	60-180	60	155	NoGap	1	1	2	30	0	distractor	1	1173	414	414	13.328	12.832	13.798
TrackDT02	5	TrackDT	2.0	SCS215a	20121205.183104	20121205.183118	single-task	8	0.013328	60	0	60-180	60	133	NoGap	1	2	2	0	0	distractor	1	1256	372	786	13.328	13.151	13.501
TrackDT02	5	TrackDT	2.0	SCS215a	20121205.183104	20121205.183125	single-task	8	0.013328	60	0	60-180	60	180	NoGap	1	3	2	1	1	target	1	1137	432	1218	13.326	12.911	13.353
TrackDT02	5	TrackDT	2.0	SCS215a	20121205.183104	20121205.183132	single-task	8	0.013328	60	0	60-180	60	137	NoGap	1	4	2	0	1	distractor	0	1023	-1000	218	13.328	13.307	13.356
TrackDT02	5	TrackDT	2.0	SCS215a	20121205.183104	20121205.183138	single-task	8	0.013328	60	0	60-180	60	121	NoGap	1	5	2	6	1	target	1	546	727	945	13.328	12.860	13.803
TrackDT02	5	TrackDT	2.0	SCS215a	20121205.183104	20121205.183143	single-task	8	0.013328	60	0	60-180	60	63	NoGap	1	6	2	6	0	target	0	7467	-1000	-55	13.328	12.850	13.814
TrackDT02	5	TrackDT	2.0	SCS215a	20121205.183104	20121205.183155	single-task	8	0.013328	60	0	60-180	60	144	NoGap	1	7	2	0	1	target	1	616	692	637	13.328	12.872	13.793
TrackDT02	5	TrackDT	2.0	SCS215a	20121205.183104	20121205.183201	single-task	8	0.013328	60	0	60-180	60	171	NoGap	1	8	2	30	0	distractor	1	738	631	1268	13.328	12.875	13.774
TrackDT02	5	TrackDT	2.0	SCS215a	20121205.183104	20121205.183208	single-task	8	0.013328	60	0	60-180	60	130	NoGap	1	9	2	0	1	target	1	535	733	2001	13.328	13.305	13.348
TrackDT02	5	TrackDT	2.0	SCS215a	20121205.183104	20121205.183214	single-task	8	0.013328	60	0	60-180	60	122	NoGap	1	10	2	3	0	distractor	1	597	702	2703	13.328	12.897	13.760
TrackDT02	5	TrackDT	2.0	SCS215a	20121205.183104	20121205.183219	single-task	8	0.013328	60	0	60-180	60	94	NoGap	1	11	2	3	0	distractor	1	678	661	3364	13.328	12.973	13.689
TrackDT02	5	TrackDT	2.0	SCS215a	20121205.183104	20121205.183225	single-task	8	0.013328	60	0	60-180	60	165	NoGap	1	12	2	0	0	distractor	1	568	716	4080	13.328	13.104	13.551
TrackDT02	5	TrackDT	2.0	SCS215a	20121205.183104	20121205.183231	single-task	8	0.013328	60	0	60-180	60	143	NoGap	1	13	2	0	0	distractor	1	768	616	4696	13.328	12.879	13.758
TrackDT02	5	TrackDT	2.0	SCS215a	20121205.183104	20121205.183237	single-task	8	0.013328	60	0	60-180	60	90	NoGap	1	14	2	0	0	distractor	1	754	623	5319	13.328	13.119	13.550
TrackDT02	5	TrackDT	2.0	SCS215a	20121205.183104	20121205.183242	single-task	8	0.013328	60	0	60-180	60	82	NoGap	1	15	2	30	1	target	1	716	642	5961	13.328	12.877	13.787
TrackDT02	5	TrackDT	2.0	SCS215a	20121205.183104	20121205.183248	single-task	8	0.013328	60	0	60-180	60	120	NoGap	1	16	2	1	0	distractor	1	740	630	6591	13.328	12.912	13.750
TrackDT02	5	TrackDT	2.0	SCS215a	20121205.183104	20121205.183254	single-task	8	0.013328	60	0	60-180	60	63	NoGap	1	17	2	0	1	target	1	692	654	7245	13.328	12.915	13.735
TrackDT02	5	TrackDT	2.0	SCS215a	20121205.183104	20121205.183258	single-task	8	0.013328	60	0	60-180	60	124	NoGap	1	18	2	1	0	distractor	1	926	537	7782	13.328	13.302	13.353
TrackDT02	5	TrackDT	2.0	SCS215a	20121205.183104	20121205.183305	single-task	8	0.013328	60	0	60-180	60	178	NoGap	1	19	2	0	1	target	1	527	737	8519	13.328	12.904	13.757
TrackDT02	5	TrackDT	2.0	SCS215a	20121205.183104	20121205.183311	single-task	8	0.013328	60	0	60-180	60	147	NoGap	1	20	2	30	1	target	1	531	735	9254	13.328	12.966	13.678
TrackDT02	5	TrackDT	2.0	SCS215a	20121205.183104	20121205.183317	single-task	8	0.013328	60	0	60-180	60	164	NoGap	1	21	2	1	0	distractor	1	571	715	9969	13.328	12.838	13.811
TrackDT02	5	TrackDT	2.0	SCS215a	20121205.183104	20121205.183323	single-task	8	0.013328	60	0	60-180	60	123	NoGap	1	22	2	1	1	target	1	515	743	10712	13.328	12.880	13.762
TrackDT02	5	TrackDT	2.0	SCS215a	20121205.183104	20121205.183329	single-task	8	0.013328	60	0	60-180	60	133	NoGap	1	23	2	6	1	target	1	490	755	11467	13.328	13.004	13.665
TrackDT02	5	TrackDT	2.0	SCS215a	20121205.183104	20121205.183335	single-task	8	0.013328	60	0	60-180	60	106	NoGap	1	24	2	1	0	distractor	1	597	702	12169	13.328	13.306	13.352
TrackDT02	5	TrackDT	2.0	SCS215a	20121205.183104	20121205.183340	single-task	8	0.013328	60	0	60-180	60	78	NoGap	1	25	2	6	1	target	1	610	695	12864	13.328	13.118	13.543
TrackDT02	5	TrackDT	2.0	SCS215a	20121205.183104	20121205.183346	single-task	8	0.013328	60	0	60-180	60	65	NoGap	1	26	2	6	1	target	1	568	716	13580	13.328	13.303	13.348
TrackDT02	5	TrackDT	2.0	SCS215a	20121205.183104	20121205.183350	single-task	8	0.013328	60	0	60-180	60	142	NoGap	1	27	2	3	1	target	1	386	807	14387	13.328	12.842	13.822
TrackDT02	5	TrackDT	2.0	SCS215a	20121205.183104	20121205.183356	single-task	8	0.013328	60	0	60-180	60	82	NoGap	1	28	2	1	1	target	1	431	785	15172	13.328	12.891	13.778
TrackDT02	5	TrackDT	2.0	SCS215a	20121205.183104	20121205.183401	single-task	8	0.013328	60	0	60-180	60	66	NoGap	1	29	2	6	0	distractor	1	694	653	15825	13.328	12.932	13.717
TrackDT02	5	TrackDT	2.0	SCS215a	20121205.183104	20121205.183406	single-task	8	0.013328	60	0	60-180	60	112	NoGap	1	30	2	30	0	distractor	1	598	701	16526	13.328	12.922	13.740
TrackDT02	5	TrackDT	2.0	SCS215a	20121205.183104	20121205.183412	single-task	8	0.013328	60	0	60-180	60	81	NoGap	1	31	2	3	1	target	1	494	753	17279	13.328	12.976	13.666
TrackDT02	5	TrackDT	2.0	SCS215a	20121205.183104	20121205.183417	single-task	8	0.013328	60	0	60-180	60	170	NoGap	1	32	2	3	0	distractor	1	598	701	17980	13.328	13.112	13.536
TrackDT02	5	TrackDT	2.0	SCS215a	20121205.183104	20121205.183423	single-task	8	0.013328	60	0	60-180	60	84	NoGap	1	33	2	30	1	target	1	583	709	18689	13.328	13.092	13.549
TrackDT02	5	TrackDT	2.0	SCS215a	20121205.183104	20121205.183429	single-task	8	0.013328	60	0	60-180	60	84	NoGap	1	34	2	6	0	distractor	1	653	674	19363	13.328	12.878	13.778
TrackDT02	5	TrackDT	2.0	SCS215a	20121205.183104	20121205.183434	single-task	8	0.013328	60	0	60-180	60	106	NoGap	1	35	2	6	0	distractor	1	524	738	20101	13.328	12.915	13.757
TrackDT02	5	TrackDT	2.0	SCS215a	20121205.183104	20121205.183440	single-task	8	0.013328	60	0	60-180	60	165	NoGap	1	36	2	3	1	target	1	410	795	20896	13.328	13.304	13.347
TrackDT02	5	TrackDT	2.0	SCS215a	20121205.183104	20121205.183446	single-task	8	0.013328	60	0	60-180	60	162	NoGap	1	37	2	6	1	target	1	429	786	21682	13.328	13.093	13.570
TrackDT02	5	TrackDT	2.0	SCS215a	20121205.183104	20121205.183452	single-task	8	0.013328	60	0	60-180	60	73	NoGap	1	38	2	1	1	target	1	404	798	22480	13.328	13.092	13.550
TrackDT02	5	TrackDT	2.0	SCS215a	20121205.183104	20121205.183457	single-task	8	0.013328	60	0	60-180	60	167	NoGap	1	39	2	6	0	distractor	1	567	717	23197	13.328	12.865	13.785
TrackDT02	5	TrackDT	2.0	SCS215a	20121205.183104	20121205.183503	single-task	8	0.013328	60	0	60-180	60	147	NoGap	1	40	2	30	0	distractor	1	529	736	23933	13.328	12.901	13.756
TrackDT02	5	TrackDT	2.0	SCS215a	20121205.183104	20121205.183509	single-task	8	0.013328	60	0	60-180	60	103	NoGap	1	41	2	1	1	target	1	531	735	24668	13.328	12.979	13.677
TrackDT02	5	TrackDT	2.0	SCS215a	20121205.183104	20121205.183515	single-task	8	0.013328	60	0	60-180	60	164	NoGap	1	42	2	30	1	target	1	432	784	25452	13.328	12.888	13.764
TrackDT02	5	TrackDT	2.0	SCS215a	20121205.183104	20121205.183521	single-task	8	0.013328	60	0	60-180	60	141	NoGap	1	43	2	3	1	target	1	444	778	26230	13.328	13.218	13.431
TrackDT02	5	TrackDT	2.0	SCS215a	20121205.183104	20121205.183527	single-task	8	0.013328	60	0	60-180	60	152	NoGap	1	44	2	3	0	distractor	1	670	665	26895	13.328	13.105	13.556
TrackDT02	5	TrackDT	2.0	SCS215a	20121205.183104	20121205.183533	single-task	8	0.013328	60	0	60-180	60	144	NoGap	1	45	2	3	1	target	1	361	820	27715	13.328	12.877	13.776
TrackDT02	5	TrackDT	2.0	SCS215a	20121205.183104	20121205.183539	single-task	8	0.013328	60	0	60-180	60	101	NoGap	1	46	2	1	0	distractor	1	605	698	28413	13.328	12.926	13.738
TrackDT02	5	TrackDT	2.0	SCS215a	20121205.183104	20121205.183544	single-task	8	0.013328	60	0	60-180	60	96	NoGap	1	47	2	0	0	distractor	1	635	683	29096	13.328	12.967	13.693
TrackDT02	5	TrackDT	2.0	SCS215a	20121205.183104	20121205.183550	single-task	8	0.013328	60	0	60-180	60	130	NoGap	1	48	2	30	1	target	1	569	716	29812	13.328	13.289	13.365
TrackDT02	5	TrackDT	2.0	SCS215a	20121205.183104	20121205.183556	single-task	8	0.013328	60	0	60-180	60	111	NoGap	1	49	2	3	0	distractor	1	504	748	30560	13.386	13.182	26.462
TrackDT02	5	TrackDT	2.0	SCS215a	20121205.183104	20121205.183601	single-task	8	0.013328	60	0	60-180	60	123	NoGap	1	50	2	30	0	distractor	1	478	761	31321	13.328	12.871	13.790
TrackDT02	5	TrackDT	2.0	SCS215a	20121205.183648	20121205.183652	single-task	8	0.013328	60	10	60-180	60	174	GapPrac	1	1	2	0	0	distractor	1	818	591	31912	13.328	12.993	13.657
TrackDT02	5	TrackDT	2.0	SCS215a	20121205.183648	20121205.183700	single-task	8	0.013328	60	10	60-180	60	92	GapPrac	1	2	2	0	1	distractor	0	771	-1000	30912	13.328	12.874	13.796
TrackDT02	5	TrackDT	2.0	SCS215a	20121205.183648	20121205.183705	single-task	8	0.013328	60	10	60-180	60	159	GapPrac	1	3	2	3	1	target	1	539	731	31643	13.420	12.863	26.573
TrackDT02	5	TrackDT	2.0	SCS215a	20121205.183648	20121205.183711	single-task	8	0.013328	60	10	60-180	60	118	GapPrac	1	4	2	6	1	target	1	549	726	32369	13.328	12.849	13.798
TrackDT02	5	TrackDT	2.0	SCS215a	20121205.183648	20121205.183717	single-task	8	0.013328	60	10	60-180	60	127	GapPrac	1	5	2	1	0	distractor	1	526	737	33106	13.328	12.869	13.784
TrackDT02	5	TrackDT	2.0	SCS215a	20121205.183648	20121205.183723	single-task	8	0.013328	60	10	60-180	60	176	GapPrac	1	6	2	30	0	distractor	1	427	787	33893	13.328	12.931	13.738
TrackDT02	5	TrackDT	2.0	SCS215a	20121205.183648	20121205.183730	single-task	8	0.013328	60	10	60-180	60	107	GapPrac	1	7	2	3	0	distractor	1	518	741	34634	13.328	12.874	13.777
TrackDT02	5	TrackDT	2.0	SCS215a	20121205.183648	20121205.183735	single-task	8	0.013328	60	10	60-180	60	125	GapPrac	1	8	2	1	0	distractor	1	540	730	35364	13.328	12.851	13.800
TrackDT02	5	TrackDT	2.0	SCS215a	20121205.183648	20121205.183741	single-task	8	0.013328	60	10	60-180	60	73	GapPrac	1	9	2	30	0	distractor	1	1044	478	35842	13.328	12.866	13.804
TrackDT02	5	TrackDT	2.0	SCS215a	20121205.183648	20121205.183747	single-task	8	0.013328	60	10	60-180	60	173	GapPrac	1	10	2	30	1	target	1	698	651	36493	13.328	12.853	13.794
TrackDT02	5	TrackDT	2.0	SCS215a	20121205.183648	20121205.183753	single-task	8	0.013328	60	10	60-180	60	176	GapPrac	1	11	2	6	0	distractor	1	707	647	37140	13.328	12.955	13.695
TrackDT02	5	TrackDT	2.0	SCS215a	20121205.183648	20121205.183801	single-task	8	0.013328	60	10	60-180	60	145	GapPrac	1	12	2	6	1	target	1	624	688	37828	13.328	13.308	13.347
TrackDT02	5	TrackDT	2.0	SCS215a	20121205.183648	20121205.183807	single-task	8	0.013328	60	10	60-180	60	92	GapPrac	1	13	2	0	0	distractor	1	589	706	38534	13.328	12.939	13.722
TrackDT02	5	TrackDT	2.0	SCS215a	20121205.183648	20121205.183812	single-task	8	0.013328	60	10	60-180	60	170	GapPrac	1	14	2	30	1	target	1	626	687	39221	13.328	12.844	13.794
TrackDT02	5	TrackDT	2.0	SCS215a	20121205.183648	20121205.183819	single-task	8	0.013328	60	10	60-180	60	95	GapPrac	1	15	2	1	1	target	1	426	787	40008	13.328	13.109	13.533
TrackDT02	5	TrackDT	2.0	SCS215a	20121205.183648	20121205.183824	single-task	8	0.013328	60	10	60-180	60	162	GapPrac	1	16	2	6	0	distractor	1	503	749	40757	13.328	12.888	13.777
TrackDT02	5	TrackDT	2.0	SCS215a	20121205.183648	20121205.183830	single-task	8	0.013328	60	10	60-180	60	164	GapPrac	1	17	2	3	0	distractor	1	460	770	41527	13.328	12.883	13.776
TrackDT02	5	TrackDT	2.0	SCS215a	20121205.183648	20121205.183837	single-task	8	0.013328	60	10	60-180	60	153	GapPrac	1	18	2	0	1	target	1	495	753	42280	13.328	13.303	13.353
TrackDT02	5	TrackDT	2.0	SCS215a	20121205.183648	20121205.183843	single-task	8	0.013328	60	10	60-180	60	150	GapPrac	1	19	2	3	1	target	1	358	821	43101	13.328	12.891	13.759
TrackDT02	5	TrackDT	2.0	SCS215a	20121205.183648	20121205.183849	single-task	8	0.013328	60	10	60-180	60	161	GapPrac	1	20	2	1	1	target	1	411	795	43896	13.328	12.864	13.789
TrackDT02	5	TrackDT	2.0	SCS215a	20121205.183934	20121205.183938	single-task	8	0.013328	60	10	60-180	60	80	GapExp	1	1	2	3	0	distractor	1	582	709	44605	13.328	13.308	13.351
TrackDT02	5	TrackDT	2.0	SCS215a	20121205.183934	20121205.183944	single-task	8	0.013328	60	10	60-180	60	89	GapExp	1	2	2	30	1	target	1	404	798	45403	13.328	13.304	13.346
TrackDT02	5	TrackDT	2.0	SCS215a	20121205.183934	20121205.183950	single-task	8	0.013328	60	10	60-180	60	90	GapExp	1	3	2	3	1	distractor	0	420	-1000	44403	13.328	12.850	13.814
TrackDT02	5	TrackDT	2.0	SCS215a	20121205.183934	20121205.183955	single-task	8	0.013328	60	10	60-180	60	150	GapExp	1	4	2	1	1	target	1	364	818	45221	13.328	12.881	13.778
TrackDT02	5	TrackDT	2.0	SCS215a	20121205.183934	20121205.184001	single-task	8	0.013328	60	10	60-180	60	120	GapExp	1	5	2	0	1	target	1	388	806	46027	13.328	12.096	14.555
TrackDT02	5	TrackDT	2.0	SCS215a	20121205.183934	20121205.184006	single-task	8	0.013328	60	10	60-180	60	65	GapExp	1	6	2	30	0	distractor	1	542	729	46756	13.328	12.909	13.754
TrackDT02	5	TrackDT	2.0	SCS215a	20121205.183934	20121205.184011	single-task	8	0.013328	60	10	60-180	60	165	GapExp	1	7	2	6	0	distractor	1	458	771	47527	13.328	13.298	13.359
TrackDT02	5	TrackDT	2.0	SCS215a	20121205.183934	20121205.184018	single-task	8	0.013328	60	10	60-180	60	62	GapExp	1	8	2	6	1	target	1	407	797	48324	13.400	13.082	26.497
TrackDT02	5	TrackDT	2.0	SCS215a	20121205.183934	20121205.184023	single-task	8	0.013328	60	10	60-180	60	112	GapExp	1	9	2	0	0	distractor	1	548	726	49050	13.328	12.884	13.772
TrackDT02	5	TrackDT	2.0	SCS215a	20121205.183934	20121205.184028	single-task	8	0.013328	60	10	60-180	60	111	GapExp	1	10	2	1	0	distractor	1	494	753	49803	13.328	13.100	13.552
TrackDT02	5	TrackDT	2.0	SCS215a	20121205.183934	20121205.184034	single-task	8	0.013328	60	10	60-180	60	90	GapExp	0	11	2	1	1	target	1	417	792	50595	13.328	12.905	13.745
TrackDT02	5	TrackDT	2.0	SCS215a	20121205.183934	20121205.184039	single-task	8	0.013328	60	10	60-180	60	159	GapExp	0	12	2	1	0	distractor	1	510	745	51340	13.328	12.883	13.768
TrackDT02	5	TrackDT	2.0	SCS215a	20121205.183934	20121205.184045	single-task	8	0.013328	60	10	60-180	60	90	GapExp	0	13	2	30	0	distractor	1	517	742	52082	13.328	13.296	13.359
TrackDT02	5	TrackDT	2.0	SCS215a	20121205.183934	20121205.184051	single-task	8	0.013328	60	10	60-180	60	168	GapExp	0	14	2	3	0	distractor	1	491	755	52837	13.373	12.935	26.443
TrackDT02	5	TrackDT	2.0	SCS215a	20121205.183934	20121205.184057	single-task	8	0.013328	60	10	60-180	60	88	GapExp	0	15	2	30	0	distractor	1	578	711	53548	13.382	12.886	26.417
TrackDT02	5	TrackDT	2.0	SCS215a	20121205.183934	20121205.184103	single-task	8	0.013328	60	10	60-180	60	162	GapExp	0	16	2	1	1	target	1	380	810	54358	13.328	12.861	13.789
TrackDT02	5	TrackDT	2.0	SCS215a	20121205.183934	20121205.184109	single-task	8	0.013328	60	10	60-180	60	118	GapExp	0	17	2	3	1	target	1	417	792	55150	13.328	12.903	13.744
TrackDT02	5	TrackDT	2.0	SCS215a	20121205.183934	20121205.184114	single-task	8	0.013328	60	10	60-180	60	107	GapExp	0	18	2	0	0	distractor	1	465	768	55918	13.328	12.934	13.718
TrackDT02	5	TrackDT	2.0	SCS215a	20121205.183934	20121205.184119	single-task	8	0.013328	60	10	60-180	60	105	GapExp	0	19	2	0	0	distractor	1	495	753	56671	13.328	13.043	13.607
TrackDT02	5	TrackDT	2.0	SCS215a	20121205.183934	20121205.184125	single-task	8	0.013328	60	10	60-180	60	68	GapExp	0	20	2	6	1	target	1	367	817	57488	13.328	12.888	13.820
TrackDT02	5	TrackDT	2.0	SCS215a	20121205.183934	20121205.184130	single-task	8	0.013328	60	10	60-180	60	176	GapExp	0	21	2	0	1	target	1	407	797	58285	13.328	12.936	13.657
TrackDT02	5	TrackDT	2.0	SCS215a	20121205.183934	20121205.184136	single-task	8	0.013328	60	10	60-180	60	107	GapExp	0	22	2	6	0	distractor	1	426	787	59072	13.328	12.840	13.804
TrackDT02	5	TrackDT	2.0	SCS215a	20121205.183934	20121205.184142	single-task	8	0.013328	60	10	60-180	60	173	GapExp	0	23	2	6	1	target	1	347	827	59899	13.328	12.897	13.746
TrackDT02	5	TrackDT	2.0	SCS215a	20121205.183934	20121205.184148	single-task	8	0.013328	60	10	60-180	60	160	GapExp	0	24	2	0	0	distractor	1	540	730	60629	13.328	12.923	13.727
TrackDT02	5	TrackDT	2.0	SCS215a	20121205.183934	20121205.184154	single-task	8	0.013328	60	10	60-180	60	112	GapExp	0	25	2	3	1	target	1	420	790	61419	13.385	13.257	26.593
TrackDT02	5	TrackDT	2.0	SCS215a	20121205.183934	20121205.184200	single-task	8	0.013328	60	10	60-180	60	135	GapExp	0	26	2	6	0	distractor	1	540	730	62149	13.378	12.851	26.528
TrackDT02	5	TrackDT	2.0	SCS215a	20121205.183934	20121205.184206	single-task	8	0.013328	60	10	60-180	60	84	GapExp	0	27	2	1	0	distractor	1	626	687	62836	13.328	13.098	13.551
TrackDT02	5	TrackDT	2.0	SCS215a	20121205.183934	20121205.184211	single-task	8	0.013328	60	10	60-180	60	138	GapExp	0	28	2	3	0	distractor	1	425	788	63624	13.431	12.929	27.043
TrackDT02	5	TrackDT	2.0	SCS215a	20121205.183934	20121205.184217	single-task	8	0.013328	60	10	60-180	60	167	GapExp	0	29	2	3	1	target	1	485	758	64382	13.328	12.949	13.726
TrackDT02	5	TrackDT	2.0	SCS215a	20121205.183934	20121205.184223	single-task	8	0.013328	60	10	60-180	60	159	GapExp	0	30	2	1	0	distractor	1	543	729	65111	13.328	13.063	13.596
TrackDT02	5	TrackDT	2.0	SCS215a	20121205.183934	20121205.184229	single-task	8	0.013328	60	10	60-180	60	71	GapExp	0	31	2	1	0	target	0	613	-1000	64111	13.328	12.881	13.761
TrackDT02	5	TrackDT	2.0	SCS215a	20121205.183934	20121205.184234	single-task	8	0.013328	60	10	60-180	60	160	GapExp	0	32	2	30	1	distractor	0	600	-1000	63111	13.328	12.908	13.762
TrackDT02	5	TrackDT	2.0	SCS215a	20121205.183934	20121205.184241	single-task	8	0.013328	60	10	60-180	60	94	GapExp	0	33	2	30	0	distractor	1	262	869	63980	13.328	13.086	13.565
TrackDT02	5	TrackDT	2.0	SCS215a	20121205.183934	20121205.184246	single-task	8	0.013328	60	10	60-180	60	123	GapExp	0	34	2	1	1	target	1	390	805	64785	13.328	12.853	13.812
TrackDT02	5	TrackDT	2.0	SCS215a	20121205.183934	20121205.184252	single-task	8	0.013328	60	10	60-180	60	83	GapExp	0	35	2	0	0	distractor	1	700	650	65435	13.328	13.303	13.347
TrackDT02	5	TrackDT	2.0	SCS215a	20121205.183934	20121205.184257	single-task	8	0.013328	60	10	60-180	60	138	GapExp	0	36	2	30	0	distractor	1	455	773	66208	13.328	13.307	13.352
TrackDT02	5	TrackDT	2.0	SCS215a	20121205.183934	20121205.184303	single-task	8	0.013328	60	10	60-180	60	64	GapExp	0	37	2	6	1	target	1	403	799	67007	13.328	13.167	13.503
TrackDT02	5	TrackDT	2.0	SCS215a	20121205.183934	20121205.184309	single-task	8	0.013328	60	10	60-180	60	94	GapExp	0	38	2	3	1	target	1	400	800	67807	13.328	13.116	13.555
TrackDT02	5	TrackDT	2.0	SCS215a	20121205.183934	20121205.184314	single-task	8	0.013328	60	10	60-180	60	171	GapExp	0	39	2	1	0	distractor	1	525	738	68545	13.328	13.071	13.581
TrackDT02	5	TrackDT	2.0	SCS215a	20121205.183934	20121205.184320	single-task	8	0.013328	60	10	60-180	60	156	GapExp	0	40	2	1	1	target	1	421	790	69335	13.329	12.850	13.798
TrackDT02	5	TrackDT	2.0	SCS215a	20121205.183934	20121205.184326	single-task	8	0.013328	60	10	60-180	60	116	GapExp	0	41	2	0	0	distractor	1	507	747	70082	13.328	12.985	13.681
TrackDT02	5	TrackDT	2.0	SCS215a	20121205.183934	20121205.184331	single-task	8	0.013328	60	10	60-180	60	63	GapExp	0	42	2	0	1	target	1	460	770	70852	13.328	12.940	13.730
TrackDT02	5	TrackDT	2.0	SCS215a	20121205.183934	20121205.184336	single-task	8	0.013328	60	10	60-180	60	79	GapExp	0	43	2	1	0	distractor	1	442	779	71631	13.328	13.312	13.350
TrackDT02	5	TrackDT	2.0	SCS215a	20121205.183934	20121205.184342	single-task	8	0.013328	60	10	60-180	60	137	GapExp	0	44	2	6	0	distractor	1	502	749	72380	13.328	13.080	13.570
TrackDT02	5	TrackDT	2.0	SCS215a	20121205.183934	20121205.184347	single-task	8	0.013328	60	10	60-180	60	134	GapExp	0	45	2	1	1	target	1	378	811	73191	13.328	12.848	13.795
TrackDT02	5	TrackDT	2.0	SCS215a	20121205.183934	20121205.184353	single-task	8	0.013328	60	10	60-180	60	108	GapExp	0	46	2	1	1	target	1	432	784	73975	13.328	12.871	13.787
TrackDT02	5	TrackDT	2.0	SCS215a	20121205.183934	20121205.184358	single-task	8	0.013328	60	10	60-180	60	152	GapExp	0	47	2	1	1	target	1	421	790	74765	13.328	12.966	13.684
TrackDT02	5	TrackDT	2.0	SCS215a	20121205.183934	20121205.184404	single-task	8	0.013328	60	10	60-180	60	145	GapExp	0	48	2	0	1	target	1	426	787	75552	13.328	12.870	13.788
TrackDT02	5	TrackDT	2.0	SCS215a	20121205.183934	20121205.184410	single-task	8	0.013328	60	10	60-180	60	63	GapExp	0	49	2	0	0	distractor	1	578	711	76263	13.328	12.848	13.810
TrackDT02	5	TrackDT	2.0	SCS215a	20121205.183934	20121205.184415	single-task	8	0.013328	60	10	60-180	60	169	GapExp	0	50	2	6	1	target	1	392	804	77067	13.328	13.305	13.346
TrackDT02	5	TrackDT	2.0	SCS215a	20121205.183934	20121205.184506	single-task	8	0.013328	60	10	60-180	60	153	GapExp	0	51	2	3	0	distractor	1	619	691	77758	13.327	12.988	13.651
TrackDT02	5	TrackDT	2.0	SCS215a	20121205.183934	20121205.184513	single-task	8	0.013328	60	10	60-180	60	163	GapExp	0	52	2	30	1	distractor	0	768	-1000	76758	13.328	13.306	13.353
TrackDT02	5	TrackDT	2.0	SCS215a	20121205.183934	20121205.184520	single-task	8	0.013328	60	10	60-180	60	68	GapExp	0	53	2	30	1	target	1	465	768	77526	13.328	13.311	13.346
TrackDT02	5	TrackDT	2.0	SCS215a	20121205.183934	20121205.184525	single-task	8	0.013328	60	10	60-180	60	103	GapExp	0	54	2	30	0	distractor	1	517	742	78268	13.328	13.044	13.617
TrackDT02	5	TrackDT	2.0	SCS215a	20121205.183934	20121205.184531	single-task	8	0.013328	60	10	60-180	60	84	GapExp	0	55	2	3	1	target	1	404	798	79066	13.328	12.855	13.816
TrackDT02	5	TrackDT	2.0	SCS215a	20121205.183934	20121205.184536	single-task	8	0.013328	60	10	60-180	60	157	GapExp	0	56	2	1	1	target	1	427	787	79853	13.328	12.850	13.813
TrackDT02	5	TrackDT	2.0	SCS215a	20121205.183934	20121205.184542	single-task	8	0.013328	60	10	60-180	60	82	GapExp	0	57	2	3	1	target	1	467	767	80620	13.328	12.957	13.692
TrackDT02	5	TrackDT	2.0	SCS215a	20121205.183934	20121205.184547	single-task	8	0.013328	60	10	60-180	60	163	GapExp	0	58	2	1	1	target	1	469	766	81386	13.328	13.309	13.351
TrackDT02	5	TrackDT	2.0	SCS215a	20121205.183934	20121205.184554	single-task	8	0.013328	60	10	60-180	60	153	GapExp	0	59	2	6	1	target	1	430	785	82171	13.328	12.881	13.774
TrackDT02	5	TrackDT	2.0	SCS215a	20121205.183934	20121205.184600	single-task	8	0.013328	60	10	60-180	60	118	GapExp	0	60	2	30	0	distractor	1	497	752	82923	13.377	12.843	26.411
TrackDT02	5	TrackDT	2.0	SCS215a	20121205.183934	20121205.184606	single-task	8	0.013328	60	10	60-180	60	151	GapExp	0	61	2	6	0	distractor	1	529	736	83659	13.328	12.867	13.799
TrackDT02	5	TrackDT	2.0	SCS215a	20121205.183934	20121205.184612	single-task	8	0.013328	60	10	60-180	60	154	GapExp	0	62	2	1	0	target	0	636	-1000	82659	13.328	12.970	13.694
TrackDT02	5	TrackDT	2.0	SCS215a	20121205.183934	20121205.184618	single-task	8	0.013328	60	10	60-180	60	90	GapExp	0	63	2	1	0	distractor	1	469	766	83425	13.328	13.306	13.361
TrackDT02	5	TrackDT	2.0	SCS215a	20121205.183934	20121205.184623	single-task	8	0.013328	60	10	60-180	60	112	GapExp	0	64	2	1	0	distractor	1	819	591	84016	13.328	12.871	13.693
TrackDT02	5	TrackDT	2.0	SCS215a	20121205.183934	20121205.184629	single-task	8	0.013328	60	10	60-180	60	102	GapExp	0	65	2	6	0	distractor	1	446	777	84793	13.328	12.981	13.666
TrackDT02	5	TrackDT	2.0	SCS215a	20121205.183934	20121205.184634	single-task	8	0.013328	60	10	60-180	60	74	GapExp	0	66	2	3	0	distractor	1	474	763	85556	13.330	12.988	13.781
TrackDT02	5	TrackDT	2.0	SCS215a	20121205.183934	20121205.184639	single-task	8	0.013328	60	10	60-180	60	140	GapExp	0	67	2	3	1	target	1	379	811	86367	13.328	12.841	13.810
TrackDT02	5	TrackDT	2.0	SCS215a	20121205.183934	20121205.184645	single-task	8	0.013328	60	10	60-180	60	176	GapExp	0	68	2	3	0	distractor	1	453	774	87141	13.328	12.987	13.677
TrackDT02	5	TrackDT	2.0	SCS215a	20121205.183934	20121205.184652	single-task	8	0.013328	60	10	60-180	60	87	GapExp	0	69	2	6	1	target	1	353	824	87965	13.328	13.306	13.349
TrackDT02	5	TrackDT	2.0	SCS215a	20121205.183934	20121205.184657	single-task	8	0.013328	60	10	60-180	60	134	GapExp	0	70	2	6	0	distractor	1	449	776	88741	13.379	12.883	26.458
TrackDT02	5	TrackDT	2.0	SCS215a	20121205.183934	20121205.184703	single-task	8	0.013328	60	10	60-180	60	86	GapExp	0	71	2	0	1	target	1	378	811	89552	13.328	12.913	13.762
TrackDT02	5	TrackDT	2.0	SCS215a	20121205.183934	20121205.184708	single-task	8	0.013328	60	10	60-180	60	132	GapExp	0	72	2	6	0	distractor	1	452	774	90326	13.328	13.103	13.560
TrackDT02	5	TrackDT	2.0	SCS215a	20121205.183934	20121205.184713	single-task	8	0.013328	60	10	60-180	60	157	GapExp	0	73	2	30	0	distractor	1	406	797	91123	13.328	12.878	13.774
TrackDT02	5	TrackDT	2.0	SCS215a	20121205.183934	20121205.184720	single-task	8	0.013328	60	10	60-180	60	112	GapExp	0	74	2	0	0	distractor	1	443	779	91902	13.329	13.242	13.553
TrackDT02	5	TrackDT	2.0	SCS215a	20121205.183934	20121205.184726	single-task	8	0.013328	60	10	60-180	60	137	GapExp	0	75	2	0	1	target	1	358	821	92723	13.328	13.308	13.346
TrackDT02	5	TrackDT	2.0	SCS215a	20121205.183934	20121205.184731	single-task	8	0.013328	60	10	60-180	60	176	GapExp	0	76	2	1	1	target	1	348	826	93549	13.328	12.951	13.698
TrackDT02	5	TrackDT	2.0	SCS215a	20121205.183934	20121205.184738	single-task	8	0.013328	60	10	60-180	60	102	GapExp	0	77	2	6	0	distractor	1	517	742	94291	13.328	12.873	13.800
TrackDT02	5	TrackDT	2.0	SCS215a	20121205.183934	20121205.184743	single-task	8	0.013328	60	10	60-180	60	129	GapExp	0	78	2	30	1	target	1	404	798	95089	13.328	12.897	13.750
TrackDT02	5	TrackDT	2.0	SCS215a	20121205.183934	20121205.184749	single-task	8	0.013328	60	10	60-180	60	160	GapExp	0	79	2	30	1	target	1	513	744	95833	13.326	12.904	13.728
TrackDT02	5	TrackDT	2.0	SCS215a	20121205.183934	20121205.184756	single-task	8	0.013328	60	10	60-180	60	75	GapExp	0	80	2	6	0	distractor	1	429	786	96619	13.328	13.104	13.538
TrackDT02	5	TrackDT	2.0	SCS215a	20121205.183934	20121205.184801	single-task	8	0.013328	60	10	60-180	60	146	GapExp	0	81	2	1	0	distractor	1	373	814	97433	13.328	12.895	13.759
TrackDT02	5	TrackDT	2.0	SCS215a	20121205.183934	20121205.184807	single-task	8	0.013328	60	10	60-180	60	166	GapExp	0	82	2	0	0	target	0	452	-1000	96433	13.328	13.288	13.365
TrackDT02	5	TrackDT	2.0	SCS215a	20121205.183934	20121205.184813	single-task	8	0.013328	60	10	60-180	60	125	GapExp	0	83	2	6	0	distractor	1	406	797	97230	13.328	12.842	13.816
TrackDT02	5	TrackDT	2.0	SCS215a	20121205.183934	20121205.184818	single-task	8	0.013328	60	10	60-180	60	135	GapExp	0	84	2	0	1	target	1	414	793	98023	13.328	12.871	13.783
TrackDT02	5	TrackDT	2.0	SCS215a	20121205.183934	20121205.184824	single-task	8	0.013328	60	10	60-180	60	153	GapExp	0	85	2	30	1	target	1	442	779	98802	13.328	12.874	13.784
TrackDT02	5	TrackDT	2.0	SCS215a	20121205.183934	20121205.184831	single-task	8	0.013328	60	10	60-180	60	179	GapExp	0	86	2	3	0	distractor	1	512	744	99546	13.328	13.297	13.352
TrackDT02	5	TrackDT	2.0	SCS215a	20121205.183934	20121205.184837	single-task	8	0.013328	60	10	60-180	60	127	GapExp	0	87	2	1	0	distractor	1	499	751	100297	13.328	13.090	13.566
TrackDT02	5	TrackDT	2.0	SCS215a	20121205.183934	20121205.184843	single-task	8	0.013328	60	10	60-180	60	126	GapExp	0	88	2	3	1	target	1	335	833	101130	13.328	13.308	13.349
TrackDT02	5	TrackDT	2.0	SCS215a	20121205.183934	20121205.184849	single-task	8	0.013328	60	10	60-180	60	125	GapExp	0	89	2	3	1	target	1	373	814	101944	13.328	12.877	13.787
TrackDT02	5	TrackDT	2.0	SCS215a	20121205.183934	20121205.184854	single-task	8	0.013328	60	10	60-180	60	130	GapExp	0	90	2	1	1	target	1	450	775	102719	13.328	12.850	13.816
TrackDT02	5	TrackDT	2.0	SCS215a	20121205.183934	20121205.184900	single-task	8	0.013328	60	10	60-180	60	116	GapExp	0	91	2	6	0	distractor	1	552	724	103443	13.328	13.088	13.555
TrackDT02	5	TrackDT	2.0	SCS215a	20121205.183934	20121205.184906	single-task	8	0.013328	60	10	60-180	60	128	GapExp	0	92	2	3	1	target	1	345	828	104271	13.328	13.299	13.351
TrackDT02	5	TrackDT	2.0	SCS215a	20121205.183934	20121205.184912	single-task	8	0.013328	60	10	60-180	60	134	GapExp	0	93	2	1	0	distractor	1	449	776	105047	13.328	13.091	13.551
TrackDT02	5	TrackDT	2.0	SCS215a	20121205.183934	20121205.184917	single-task	8	0.013328	60	10	60-180	60	95	GapExp	0	94	2	30	1	target	1	410	795	105842	13.328	12.903	13.754
TrackDT02	5	TrackDT	2.0	SCS215a	20121205.183934	20121205.184923	single-task	8	0.013328	60	10	60-180	60	108	GapExp	0	95	2	3	1	target	1	391	805	106647	13.328	12.992	13.658
TrackDT02	5	TrackDT	2.0	SCS215a	20121205.183934	20121205.184928	single-task	8	0.013328	60	10	60-180	60	78	GapExp	0	96	2	30	1	target	1	585	708	107355	13.328	12.887	13.774
TrackDT02	5	TrackDT	2.0	SCS215a	20121205.183934	20121205.184934	single-task	8	0.013328	60	10	60-180	60	164	GapExp	0	97	2	0	1	target	1	377	812	108167	13.328	12.962	13.686
TrackDT02	5	TrackDT	2.0	SCS215a	20121205.183934	20121205.184940	single-task	8	0.013328	60	10	60-180	60	161	GapExp	0	98	2	6	1	target	1	394	803	108970	13.328	13.308	13.355
TrackDT02	5	TrackDT	2.0	SCS215a	20121205.183934	20121205.184946	single-task	8	0.013328	60	10	60-180	60	116	GapExp	0	99	2	30	0	distractor	1	464	768	109738	13.328	13.084	13.563
TrackDT02	5	TrackDT	2.0	SCS215a	20121205.183934	20121205.184952	single-task	8	0.013328	60	10	60-180	60	147	GapExp	0	100	2	1	1	target	1	373	814	110552	13.328	13.201	13.460
TrackDT02	5	TrackDT	2.0	SCS215a	20121205.183934	20121205.185050	single-task	8	0.013328	60	10	60-180	60	118	GapExp	0	101	2	30	1	target	1	350	825	111377	13.328	13.045	13.621
TrackDT02	5	TrackDT	2.0	SCS215a	20121205.183934	20121205.185057	single-task	8	0.013328	60	10	60-180	60	161	GapExp	0	102	2	6	0	distractor	1	379	811	112188	13.328	12.847	13.796
TrackDT02	5	TrackDT	2.0	SCS215a	20121205.183934	20121205.185103	single-task	8	0.013328	60	10	60-180	60	78	GapExp	0	103	2	30	1	distractor	0	495	-1000	111188	13.328	12.871	13.798
TrackDT02	5	TrackDT	2.0	SCS215a	20121205.183934	20121205.185108	single-task	8	0.013328	60	10	60-180	60	135	GapExp	0	104	2	0	1	target	1	372	814	112002	13.328	12.979	13.684
TrackDT02	5	TrackDT	2.0	SCS215a	20121205.183934	20121205.185114	single-task	8	0.013328	60	10	60-180	60	134	GapExp	0	105	2	6	1	target	1	393	804	112806	13.328	12.961	13.686
TrackDT02	5	TrackDT	2.0	SCS215a	20121205.183934	20121205.185119	single-task	8	0.013328	60	10	60-180	60	72	GapExp	0	106	2	0	1	target	1	390	805	113611	13.328	13.297	13.355
TrackDT02	5	TrackDT	2.0	SCS215a	20121205.183934	20121205.185124	single-task	8	0.013328	60	10	60-180	60	70	GapExp	0	107	2	6	0	distractor	1	390	805	114416	13.328	12.943	13.675
TrackDT02	5	TrackDT	2.0	SCS215a	20121205.183934	20121205.185130	single-task	8	0.013328	60	10	60-180	60	152	GapExp	0	108	2	3	0	distractor	1	441	780	115196	13.328	12.877	13.781
TrackDT02	5	TrackDT	2.0	SCS215a	20121205.183934	20121205.185136	single-task	8	0.013328	60	10	60-180	60	121	GapExp	0	109	2	6	1	target	1	383	809	116005	13.328	13.051	13.710
TrackDT02	5	TrackDT	2.0	SCS215a	20121205.183934	20121205.185141	single-task	8	0.013328	60	10	60-180	60	149	GapExp	0	110	2	30	1	target	1	376	812	116817	13.328	12.887	13.755
TrackDT02	5	TrackDT	2.0	SCS215a	20121205.183934	20121205.185147	single-task	8	0.013328	60	10	60-180	60	110	GapExp	0	111	2	30	1	target	1	352	824	117641	13.328	13.098	13.551
TrackDT02	5	TrackDT	2.0	SCS215a	20121205.183934	20121205.185153	single-task	8	0.013328	60	10	60-180	60	63	GapExp	0	112	2	0	1	target	1	367	817	118458	13.328	13.305	13.347
TrackDT02	5	TrackDT	2.0	SCS215a	20121205.183934	20121205.185158	single-task	8	0.013328	60	10	60-180	60	169	GapExp	0	113	2	1	1	target	1	313	844	119302	13.328	12.970	13.676
TrackDT02	5	TrackDT	2.0	SCS215a	20121205.183934	20121205.185204	single-task	8	0.013328	60	10	60-180	60	148	GapExp	0	114	2	3	0	distractor	1	503	749	120051	13.328	13.298	13.349
TrackDT02	5	TrackDT	2.0	SCS215a	20121205.183934	20121205.185210	single-task	8	0.013328	60	10	60-180	60	172	GapExp	0	115	2	6	1	target	1	391	805	120856	13.328	12.899	13.744
TrackDT02	5	TrackDT	2.0	SCS215a	20121205.183934	20121205.185217	single-task	8	0.013328	60	10	60-180	60	179	GapExp	0	116	2	6	0	distractor	1	398	801	121657	13.328	12.955	13.710
TrackDT02	5	TrackDT	2.0	SCS215a	20121205.183934	20121205.185223	single-task	8	0.013328	60	10	60-180	60	143	GapExp	0	117	2	3	1	target	1	396	802	122459	13.379	13.115	26.538
TrackDT02	5	TrackDT	2.0	SCS215a	20121205.183934	20121205.185229	single-task	8	0.013328	60	10	60-180	60	149	GapExp	0	118	2	30	0	early	-4	-2646	-1000	121459	13.371	12.913	26.551
TrackDT02	5	TrackDT	2.0	SCS215a	20121205.183934	20121205.185236	single-task	8	0.013328	60	10	60-180	60	140	GapExp	0	119	2	0	0	distractor	1	647	677	122136	13.328	12.940	13.709
TrackDT02	5	TrackDT	2.0	SCS215a	20121205.183934	20121205.185242	single-task	8	0.013328	60	10	60-180	60	129	GapExp	0	120	2	0	1	target	1	366	817	122953	13.383	12.885	26.657
TrackDT02	5	TrackDT	2.0	SCS215a	20121205.183934	20121205.185247	single-task	8	0.013328	60	10	60-180	60	130	GapExp	0	121	2	6	1	target	1	532	734	123687	13.328	12.907	13.751
TrackDT02	5	TrackDT	2.0	SCS215a	20121205.183934	20121205.185253	single-task	8	0.013328	60	10	60-180	60	96	GapExp	0	122	2	0	1	target	1	378	811	124498	13.391	12.937	26.614
TrackDT02	5	TrackDT	2.0	SCS215a	20121205.183934	20121205.185258	single-task	8	0.013328	60	10	60-180	60	75	GapExp	0	123	2	6	1	target	1	370	815	125313	13.396	13.305	26.189
TrackDT02	5	TrackDT	2.0	SCS215a	20121205.183934	20121205.185303	single-task	8	0.013328	60	10	60-180	60	67	GapExp	0	124	2	3	0	distractor	1	484	758	126071	13.328	12.944	13.747
TrackDT02	5	TrackDT	2.0	SCS215a	20121205.183934	20121205.185308	single-task	8	0.013328	60	10	60-180	60	148	GapExp	0	125	2	3	1	target	1	462	769	126840	13.328	12.866	13.797
TrackDT02	5	TrackDT	2.0	SCS215a	20121205.183934	20121205.185314	single-task	8	0.013328	60	10	60-180	60	77	GapExp	0	126	2	3	1	target	1	451	775	127615	13.395	12.867	26.531
TrackDT02	5	TrackDT	2.0	SCS215a	20121205.183934	20121205.185319	single-task	8	0.013328	60	10	60-180	60	100	GapExp	0	127	2	6	1	target	1	465	768	128383	13.328	12.842	13.815
TrackDT02	5	TrackDT	2.0	SCS215a	20121205.183934	20121205.185324	single-task	8	0.013328	60	10	60-180	60	155	GapExp	0	128	2	3	0	distractor	1	496	752	129135	13.328	12.927	13.663
TrackDT02	5	TrackDT	2.0	SCS215a	20121205.183934	20121205.185330	single-task	8	0.013328	60	10	60-180	60	174	GapExp	0	129	2	6	0	distractor	1	433	784	129919	13.328	13.180	13.476
TrackDT02	5	TrackDT	2.0	SCS215a	20121205.183934	20121205.185337	single-task	8	0.013328	60	10	60-180	60	81	GapExp	0	130	2	30	0	distractor	1	553	724	130643	13.328	13.305	13.353
TrackDT02	5	TrackDT	2.0	SCS215a	20121205.183934	20121205.185343	single-task	8	0.013328	60	10	60-180	60	97	GapExp	0	131	2	3	1	target	1	413	794	131437	13.328	12.884	13.760
TrackDT02	5	TrackDT	2.0	SCS215a	20121205.183934	20121205.185348	single-task	8	0.013328	60	10	60-180	60	73	GapExp	0	132	2	0	1	target	1	681	660	132097	13.456	13.098	39.810
TrackDT02	5	TrackDT	2.0	SCS215a	20121205.183934	20121205.185353	single-task	8	0.013328	60	10	60-180	60	103	GapExp	0	133	2	3	0	distractor	1	510	745	132842	13.328	12.849	13.813
TrackDT02	5	TrackDT	2.0	SCS215a	20121205.183934	20121205.185358	single-task	8	0.013328	60	10	60-180	60	159	GapExp	0	134	2	6	1	target	1	436	782	133624	13.328	12.956	13.693
TrackDT02	5	TrackDT	2.0	SCS215a	20121205.183934	20121205.185404	single-task	8	0.013328	60	10	60-180	60	128	GapExp	0	135	2	1	1	target	1	489	756	134380	13.328	12.992	13.662
TrackDT02	5	TrackDT	2.0	SCS215a	20121205.183934	20121205.185410	single-task	8	0.013328	60	10	60-180	60	64	GapExp	0	136	2	30	0	distractor	1	419	791	135171	13.328	13.157	13.707
TrackDT02	5	TrackDT	2.0	SCS215a	20121205.183934	20121205.185416	single-task	8	0.013328	60	10	60-180	60	177	GapExp	0	137	2	30	0	distractor	1	429	786	135957	13.369	12.904	26.496
TrackDT02	5	TrackDT	2.0	SCS215a	20121205.183934	20121205.185422	single-task	8	0.013328	60	10	60-180	60	128	GapExp	0	138	2	0	1	target	1	420	790	136747	13.382	12.959	26.708
TrackDT02	5	TrackDT	2.0	SCS215a	20121205.183934	20121205.185428	single-task	8	0.013328	60	10	60-180	60	172	GapExp	0	139	2	6	1	target	1	341	830	137577	13.328	12.872	13.788
TrackDT02	5	TrackDT	2.0	SCS215a	20121205.183934	20121205.185434	single-task	8	0.013328	60	10	60-180	60	121	GapExp	0	140	2	30	1	target	1	382	809	138386	13.378	12.968	26.652
TrackDT02	5	TrackDT	2.0	SCS215a	20121205.183934	20121205.185440	single-task	8	0.013328	60	10	60-180	60	136	GapExp	0	141	2	0	0	distractor	1	605	698	139084	13.328	13.303	13.357
TrackDT02	5	TrackDT	2.0	SCS215a	20121205.183934	20121205.185446	single-task	8	0.013328	60	10	60-180	60	157	GapExp	0	142	2	3	1	target	1	390	805	139889	13.328	13.296	13.348
TrackDT02	5	TrackDT	2.0	SCS215a	20121205.183934	20121205.185452	single-task	8	0.013328	60	10	60-180	60	95	GapExp	0	143	2	3	1	target	1	298	851	140740	13.392	12.894	26.781
TrackDT02	5	TrackDT	2.0	SCS215a	20121205.183934	20121205.185457	single-task	8	0.013328	60	10	60-180	60	79	GapExp	0	144	2	1	1	target	1	403	799	141539	13.328	12.876	13.793
TrackDT02	5	TrackDT	2.0	SCS215a	20121205.183934	20121205.185502	single-task	8	0.013328	60	10	60-180	60	158	GapExp	0	145	2	30	0	distractor	1	465	768	142307	13.328	12.898	13.756
TrackDT02	5	TrackDT	2.0	SCS215a	20121205.183934	20121205.185508	single-task	8	0.013328	60	10	60-180	60	141	GapExp	0	146	2	0	0	distractor	1	493	754	143061	13.328	12.874	13.782
TrackDT02	5	TrackDT	2.0	SCS215a	20121205.183934	20121205.185514	single-task	8	0.013328	60	10	60-180	60	156	GapExp	0	147	2	1	0	distractor	1	599	701	143762	13.374	12.871	26.452
TrackDT02	5	TrackDT	2.0	SCS215a	20121205.183934	20121205.185521	single-task	8	0.013328	60	10	60-180	60	107	GapExp	0	148	2	6	0	distractor	1	421	790	144552	13.328	13.293	13.372
TrackDT02	5	TrackDT	2.0	SCS215a	20121205.183934	20121205.185526	single-task	8	0.013328	60	10	60-180	60	128	GapExp	0	149	2	30	0	distractor	1	579	711	145263	13.328	12.879	13.781
TrackDT02	5	TrackDT	2.0	SCS215a	20121205.183934	20121205.185532	single-task	8	0.013328	60	10	60-180	60	106	GapExp	0	150	2	0	0	distractor	1	451	775	146038	13.328	12.967	13.696
TrackDT02	5	TrackDT	2.0	SCS215a	20121205.183934	20121205.185611	single-task	8	0.013328	60	10	60-180	60	165	GapExp	0	151	2	0	0	distractor	1	422	789	146827	13.328	12.979	13.684
TrackDT02	5	TrackDT	2.0	SCS215a	20121205.183934	20121205.185618	single-task	8	0.013328	60	10	60-180	60	179	GapExp	0	152	2	0	0	distractor	1	472	764	147591	13.328	13.299	13.359
TrackDT02	5	TrackDT	2.0	SCS215a	20121205.183934	20121205.185624	single-task	8	0.013328	60	10	60-180	60	116	GapExp	0	153	2	1	0	distractor	1	441	780	148371	13.328	13.048	13.625
TrackDT02	5	TrackDT	2.0	SCS215a	20121205.183934	20121205.185629	single-task	8	0.013328	60	10	60-180	60	175	GapExp	0	154	2	30	1	target	1	623	689	149060	13.328	12.849	13.794
TrackDT02	5	TrackDT	2.0	SCS215a	20121205.183934	20121205.185636	single-task	8	0.013328	60	10	60-180	60	111	GapExp	0	155	2	30	0	distractor	1	419	791	149851	13.328	12.832	13.815
TrackDT02	5	TrackDT	2.0	SCS215a	20121205.183934	20121205.185642	single-task	8	0.013328	60	10	60-180	60	73	GapExp	0	156	2	30	0	distractor	1	380	810	150661	13.328	12.828	13.835
TrackDT02	5	TrackDT	2.0	SCS215a	20121205.183934	20121205.185647	single-task	8	0.013328	60	10	60-180	60	107	GapExp	0	157	2	6	1	target	1	360	820	151481	13.447	13.110	39.735
TrackDT02	5	TrackDT	2.0	SCS215a	20121205.183934	20121205.185653	single-task	8	0.013328	60	10	60-180	60	150	GapExp	0	158	2	6	1	target	1	391	805	152286	13.328	13.307	13.348
TrackDT02	5	TrackDT	2.0	SCS215a	20121205.183934	20121205.185659	single-task	8	0.013328	60	10	60-180	60	178	GapExp	0	159	2	0	0	distractor	1	457	772	153058	13.328	12.931	13.739
TrackDT02	5	TrackDT	2.0	SCS215a	20121205.183934	20121205.185705	single-task	8	0.013328	60	10	60-180	60	129	GapExp	0	160	2	6	1	target	1	388	806	153864	13.328	12.937	13.734
TrackDT02	5	TrackDT	2.0	SCS215a	20121205.183934	20121205.185711	single-task	8	0.013328	60	10	60-180	60	122	GapExp	0	161	2	30	1	target	1	287	857	154721	13.328	12.848	13.814
TrackDT02	5	TrackDT	2.0	SCS215a	20121205.183934	20121205.185716	single-task	8	0.013328	60	10	60-180	60	173	GapExp	0	162	2	1	0	target	0	333	-1000	153721	13.328	12.933	13.718
TrackDT02	5	TrackDT	2.0	SCS215a	20121205.183934	20121205.185723	single-task	8	0.013328	60	10	60-180	60	121	GapExp	0	163	2	1	1	target	1	340	830	154551	13.328	13.303	13.354
TrackDT02	5	TrackDT	2.0	SCS215a	20121205.183934	20121205.185729	single-task	8	0.013328	60	10	60-180	60	112	GapExp	0	164	2	6	0	distractor	1	508	746	155297	13.383	12.840	26.029
TrackDT02	5	TrackDT	2.0	SCS215a	20121205.183934	20121205.185734	single-task	8	0.013328	60	10	60-180	60	72	GapExp	0	165	2	30	0	distractor	1	474	763	156060	13.328	12.864	13.804
TrackDT02	5	TrackDT	2.0	SCS215a	20121205.183934	20121205.185739	single-task	8	0.013328	60	10	60-180	60	120	GapExp	0	166	2	0	1	target	1	406	797	156857	13.442	12.845	39.576
TrackDT02	5	TrackDT	2.0	SCS215a	20121205.183934	20121205.185745	single-task	8	0.013328	60	10	60-180	60	107	GapExp	0	167	2	3	1	target	1	314	843	157700	13.328	12.880	13.780
TrackDT02	5	TrackDT	2.0	SCS215a	20121205.183934	20121205.185750	single-task	8	0.013328	60	10	60-180	60	137	GapExp	0	168	2	3	0	distractor	1	411	795	158495	13.328	12.922	13.734
TrackDT02	5	TrackDT	2.0	SCS215a	20121205.183934	20121205.185756	single-task	8	0.013328	60	10	60-180	60	72	GapExp	0	169	2	1	0	target	0	578	-1000	157495	13.328	12.921	13.739
TrackDT02	5	TrackDT	2.0	SCS215a	20121205.183934	20121205.185801	single-task	8	0.013328	60	10	60-180	60	178	GapExp	0	170	2	3	0	distractor	1	363	819	158314	13.373	12.936	26.619
TrackDT02	5	TrackDT	2.0	SCS215a	20121205.183934	20121205.185807	single-task	8	0.013328	60	10	60-180	60	155	GapExp	0	171	2	6	1	target	1	380	810	159124	13.475	12.855	52.851
TrackDT02	5	TrackDT	2.0	SCS215a	20121205.183934	20121205.185813	single-task	8	0.013328	60	10	60-180	60	67	GapExp	0	172	2	3	1	target	1	430	785	159909	13.328	12.990	13.661
TrackDT02	5	TrackDT	2.0	SCS215a	20121205.183934	20121205.185818	single-task	8	0.013328	60	10	60-180	60	136	GapExp	0	173	2	3	0	distractor	1	487	757	160666	13.430	12.939	26.645
TrackDT02	5	TrackDT	2.0	SCS215a	20121205.183934	20121205.185824	single-task	8	0.013328	60	10	60-180	60	133	GapExp	0	174	2	1	1	target	1	401	800	161466	13.434	12.952	26.318
TrackDT02	5	TrackDT	2.0	SCS215a	20121205.183934	20121205.185830	single-task	8	0.013328	60	10	60-180	60	125	GapExp	0	175	2	1	0	distractor	1	489	756	162222	13.328	12.896	13.749
TrackDT02	5	TrackDT	2.0	SCS215a	20121205.183934	20121205.185835	single-task	8	0.013328	60	10	60-180	60	74	GapExp	0	176	2	0	0	distractor	1	463	769	162991	13.328	12.949	13.713
TrackDT02	5	TrackDT	2.0	SCS215a	20121205.183934	20121205.185840	single-task	8	0.013328	60	10	60-180	60	145	GapExp	0	177	2	3	0	distractor	1	411	795	163786	13.328	12.853	13.822
TrackDT02	5	TrackDT	2.0	SCS215a	20121205.183934	20121205.185846	single-task	8	0.013328	60	10	60-180	60	137	GapExp	0	178	2	30	0	distractor	1	450	775	164561	13.328	12.856	13.793
TrackDT02	5	TrackDT	2.0	SCS215a	20121205.183934	20121205.185852	single-task	8	0.013328	60	10	60-180	60	160	GapExp	0	179	2	1	1	target	1	362	819	165380	13.328	12.882	13.791
TrackDT02	5	TrackDT	2.0	SCS215a	20121205.183934	20121205.185858	single-task	8	0.013328	60	10	60-180	60	140	GapExp	0	180	2	1	0	distractor	1	458	771	166151	13.328	12.920	13.730
TrackDT02	5	TrackDT	2.0	SCS215a	20121205.183934	20121205.185904	single-task	8	0.013328	60	10	60-180	60	178	GapExp	0	181	2	0	0	distractor	1	437	782	166933	13.328	12.982	13.688
TrackDT02	5	TrackDT	2.0	SCS215a	20121205.183934	20121205.185911	single-task	8	0.013328	60	10	60-180	60	179	GapExp	0	182	2	3	0	distractor	1	398	801	167734	13.328	13.295	13.354
TrackDT02	5	TrackDT	2.0	SCS215a	20121205.183934	20121205.185917	single-task	8	0.013328	60	10	60-180	60	149	GapExp	0	183	2	30	0	distractor	1	414	793	168527	13.328	12.905	13.746
TrackDT02	5	TrackDT	2.0	SCS215a	20121205.183934	20121205.185923	single-task	8	0.013328	60	10	60-180	60	109	GapExp	0	184	2	0	1	target	1	596	702	169229	13.328	13.099	13.547
TrackDT02	5	TrackDT	2.0	SCS215a	20121205.183934	20121205.185929	single-task	8	0.013328	60	10	60-180	60	72	GapExp	0	185	2	30	1	target	1	366	817	170046	13.328	12.885	13.765
TrackDT02	5	TrackDT	2.0	SCS215a	20121205.183934	20121205.185934	single-task	8	0.013328	60	10	60-180	60	117	GapExp	0	186	2	3	0	distractor	1	449	776	170822	13.328	12.980	13.676
TrackDT02	5	TrackDT	2.0	SCS215a	20121205.183934	20121205.185940	single-task	8	0.013328	60	10	60-180	60	128	GapExp	0	187	2	30	1	target	1	37245	0	170822	13.328	13.307	13.353
TrackDT02	5	TrackDT	2.0	SCS215a	20121205.183934	20121205.190023	single-task	8	0.013328	60	10	60-180	60	150	GapExp	0	188	2	0	1	target	1	351	825	171647	13.328	12.899	13.770
TrackDT02	5	TrackDT	2.0	SCS215a	20121205.183934	20121205.190029	single-task	8	0.013328	60	10	60-180	60	120	GapExp	0	189	2	1	0	distractor	1	458	771	172418	13.328	12.896	13.767
TrackDT02	5	TrackDT	2.0	SCS215a	20121205.183934	20121205.190034	single-task	8	0.013328	60	10	60-180	60	118	GapExp	0	190	2	3	0	distractor	1	434	783	173201	13.328	12.876	13.779
TrackDT02	5	TrackDT	2.0	SCS215a	20121205.183934	20121205.190040	single-task	8	0.013328	60	10	60-180	60	149	GapExp	0	191	2	0	0	distractor	1	361	820	174021	13.328	13.107	13.535
TrackDT02	5	TrackDT	2.0	SCS215a	20121205.183934	20121205.190045	single-task	8	0.013328	60	10	60-180	60	115	GapExp	0	192	2	0	1	target	1	408	796	174817	13.328	13.009	13.661
TrackDT02	5	TrackDT	2.0	SCS215a	20121205.183934	20121205.190051	single-task	8	0.013328	60	10	60-180	60	67	GapExp	0	193	2	6	0	distractor	1	523	739	175556	13.328	13.304	13.354
TrackDT02	5	TrackDT	2.0	SCS215a	20121205.183934	20121205.190056	single-task	8	0.013328	60	10	60-180	60	140	GapExp	0	194	2	0	1	target	1	333	834	176390	13.328	12.919	13.742
TrackDT02	5	TrackDT	2.0	SCS215a	20121205.183934	20121205.190102	single-task	8	0.013328	60	10	60-180	60	171	GapExp	0	195	2	30	1	target	1	551	725	177115	13.328	12.908	13.750
TrackDT02	5	TrackDT	2.0	SCS215a	20121205.183934	20121205.190108	single-task	8	0.013328	60	10	60-180	60	175	GapExp	0	196	2	6	0	distractor	1	363	819	177934	13.328	12.888	13.762
TrackDT02	5	TrackDT	2.0	SCS215a	20121205.183934	20121205.190115	single-task	8	0.013328	60	10	60-180	60	165	GapExp	0	197	2	1	1	target	1	405	798	178732	13.328	13.109	13.546
TrackDT02	5	TrackDT	2.0	SCS215a	20121205.183934	20121205.190121	single-task	8	0.013328	60	10	60-180	60	157	GapExp	0	198	2	0	0	distractor	1	483	759	179491	13.328	13.303	13.353
TrackDT02	5	TrackDT	2.0	SCS215a	20121205.183934	20121205.190127	single-task	8	0.013328	60	10	60-180	60	73	GapExp	0	199	2	3	0	target	0	459	-1000	178491	13.328	13.220	13.436
TrackDT02	5	TrackDT	2.0	SCS215a	20121205.183934	20121205.190132	single-task	8	0.013328	60	10	60-180	60	151	GapExp	0	200	2	30	1	target	1	426	787	179278	13.328	13.087	13.585
TrackDT02	5	TrackDT	2.0	SCS215a	20121205.190301	20121205.190306	dt-conversation	8	0.013328	60	10	60-180	60	74	GapExp	1	1	2	30	0	distractor	1	506	747	180025	13.328	12.862	13.786
TrackDT02	5	TrackDT	2.0	SCS215a	20121205.190301	20121205.190312	dt-conversation	8	0.013328	60	10	60-180	60	103	GapExp	1	2	2	30	1	target	1	423	789	180814	13.328	13.105	13.558
TrackDT02	5	TrackDT	2.0	SCS215a	20121205.190301	20121205.190318	dt-conversation	8	0.013328	60	10	60-180	60	93	GapExp	1	3	2	6	1	target	1	403	799	181613	13.328	12.856	13.809
TrackDT02	5	TrackDT	2.0	SCS215a	20121205.190301	20121205.190323	dt-conversation	8	0.013328	60	10	60-180	60	147	GapExp	1	4	2	6	0	distractor	1	336	832	182445	13.328	12.924	13.735
TrackDT02	5	TrackDT	2.0	SCS215a	20121205.190301	20121205.190329	dt-conversation	8	0.013328	60	10	60-180	60	99	GapExp	1	5	2	0	1	target	1	369	816	183261	13.328	12.971	13.686
TrackDT02	5	TrackDT	2.0	SCS215a	20121205.190301	20121205.190334	dt-conversation	8	0.013328	60	10	60-180	60	92	GapExp	1	6	2	0	0	distractor	1	568	716	183977	13.328	12.874	13.789
TrackDT02	5	TrackDT	2.0	SCS215a	20121205.190301	20121205.190339	dt-conversation	8	0.013328	60	10	60-180	60	147	GapExp	1	7	2	3	1	target	1	431	785	184762	13.328	12.973	13.691
TrackDT02	5	TrackDT	2.0	SCS215a	20121205.190301	20121205.190346	dt-conversation	8	0.013328	60	10	60-180	60	84	GapExp	1	8	2	1	1	target	1	449	776	185538	13.328	12.906	13.754
TrackDT02	5	TrackDT	2.0	SCS215a	20121205.190301	20121205.190351	dt-conversation	8	0.013328	60	10	60-180	60	119	GapExp	1	9	2	3	0	distractor	1	560	720	186258	13.328	12.840	13.803
TrackDT02	5	TrackDT	2.0	SCS215a	20121205.190301	20121205.190356	dt-conversation	8	0.013328	60	10	60-180	60	155	GapExp	1	10	2	1	0	distractor	1	584	708	186966	13.328	12.881	13.759
TrackDT02	5	TrackDT	2.0	SCS215a	20121205.190301	20121205.190402	dt-conversation	8	0.013328	60	10	60-180	60	97	GapExp	0	11	2	3	0	distractor	1	557	722	187688	13.328	12.943	13.707
TrackDT02	5	TrackDT	2.0	SCS215a	20121205.190301	20121205.190408	dt-conversation	8	0.013328	60	10	60-180	60	105	GapExp	0	12	2	3	1	target	1	439	781	188469	13.328	13.301	13.356
TrackDT02	5	TrackDT	2.0	SCS215a	20121205.190301	20121205.190413	dt-conversation	8	0.013328	60	10	60-180	60	108	GapExp	0	13	2	6	0	distractor	1	427	787	189256	13.328	12.945	13.705
TrackDT02	5	TrackDT	2.0	SCS215a	20121205.190301	20121205.190419	dt-conversation	8	0.013328	60	10	60-180	60	93	GapExp	0	14	2	0	0	target	0	839	-1000	188256	13.328	12.904	13.751
TrackDT02	5	TrackDT	2.0	SCS215a	20121205.190301	20121205.190424	dt-conversation	8	0.013328	60	10	60-180	60	165	GapExp	0	15	2	0	0	distractor	1	463	769	189025	13.328	12.881	13.786
TrackDT02	5	TrackDT	2.0	SCS215a	20121205.190301	20121205.190430	dt-conversation	8	0.013328	60	10	60-180	60	177	GapExp	0	16	2	3	0	distractor	1	483	759	189784	13.328	12.918	13.727
TrackDT02	5	TrackDT	2.0	SCS215a	20121205.190301	20121205.190437	dt-conversation	8	0.013328	60	10	60-180	60	131	GapExp	0	17	2	1	0	distractor	1	494	753	190537	13.328	13.306	13.357
TrackDT02	5	TrackDT	2.0	SCS215a	20121205.190301	20121205.190442	dt-conversation	8	0.013328	60	10	60-180	60	145	GapExp	0	18	2	1	1	target	1	412	794	191331	13.328	13.050	13.597
TrackDT02	5	TrackDT	2.0	SCS215a	20121205.190301	20121205.190448	dt-conversation	8	0.013328	60	10	60-180	60	141	GapExp	0	19	2	30	0	distractor	1	476	762	192093	13.328	13.288	13.361
TrackDT02	5	TrackDT	2.0	SCS215a	20121205.190301	20121205.190455	dt-conversation	8	0.013328	60	10	60-180	60	99	GapExp	0	20	2	30	1	target	1	328	836	192929	13.328	12.858	13.805
TrackDT02	5	TrackDT	2.0	SCS215a	20121205.190301	20121205.190500	dt-conversation	8	0.013328	60	10	60-180	60	88	GapExp	0	21	2	0	1	target	1	433	784	193713	13.328	12.897	13.759
TrackDT02	5	TrackDT	2.0	SCS215a	20121205.190301	20121205.190505	dt-conversation	8	0.013328	60	10	60-180	60	78	GapExp	0	22	2	0	1	target	1	384	808	194521	13.328	12.936	13.727
TrackDT02	5	TrackDT	2.0	SCS215a	20121205.190301	20121205.190510	dt-conversation	8	0.013328	60	10	60-180	60	120	GapExp	0	23	2	30	1	target	1	375	813	195334	13.328	13.306	13.357
TrackDT02	5	TrackDT	2.0	SCS215a	20121205.190301	20121205.190516	dt-conversation	8	0.013328	60	10	60-180	60	173	GapExp	0	24	2	0	0	distractor	1	544	728	196062	13.328	12.975	13.670
TrackDT02	5	TrackDT	2.0	SCS215a	20121205.190301	20121205.190522	dt-conversation	8	0.013328	60	10	60-180	60	85	GapExp	0	25	2	30	0	distractor	1	460	770	196832	13.328	12.992	13.654
TrackDT02	5	TrackDT	2.0	SCS215a	20121205.190301	20121205.190528	dt-conversation	8	0.013328	60	10	60-180	60	94	GapExp	0	26	2	6	1	target	1	339	831	197663	13.328	12.963	13.681
TrackDT02	5	TrackDT	2.0	SCS215a	20121205.190301	20121205.190533	dt-conversation	8	0.013328	60	10	60-180	60	166	GapExp	0	27	2	3	1	target	1	429	786	198449	13.328	12.872	13.790
TrackDT02	5	TrackDT	2.0	SCS215a	20121205.190301	20121205.190539	dt-conversation	8	0.013328	60	10	60-180	60	180	GapExp	0	28	2	6	0	target	0	529	-1000	197449	13.328	12.924	13.716
TrackDT02	5	TrackDT	2.0	SCS215a	20121205.190301	20121205.190546	dt-conversation	8	0.013328	60	10	60-180	60	122	GapExp	0	29	2	6	1	target	1	349	826	198275	13.328	12.905	13.745
TrackDT02	5	TrackDT	2.0	SCS215a	20121205.190301	20121205.190551	dt-conversation	8	0.013328	60	10	60-180	60	151	GapExp	0	30	2	6	1	target	1	412	794	199069	13.328	12.919	13.729
TrackDT02	5	TrackDT	2.0	SCS215a	20121205.190301	20121205.190557	dt-conversation	8	0.013328	60	10	60-180	60	134	GapExp	0	31	2	3	1	target	1	319	841	199910	13.328	13.309	13.349
TrackDT02	5	TrackDT	2.0	SCS215a	20121205.190301	20121205.190603	dt-conversation	8	0.013328	60	10	60-180	60	127	GapExp	0	32	2	0	1	target	1	405	798	200708	13.328	12.829	13.821
TrackDT02	5	TrackDT	2.0	SCS215a	20121205.190301	20121205.190609	dt-conversation	8	0.013328	60	10	60-180	60	118	GapExp	0	33	2	1	1	target	1	380	810	201518	13.328	12.907	13.739
TrackDT02	5	TrackDT	2.0	SCS215a	20121205.190301	20121205.190614	dt-conversation	8	0.013328	60	10	60-180	60	72	GapExp	0	34	2	30	0	distractor	1	512	744	202262	13.328	12.998	13.652
TrackDT02	5	TrackDT	2.0	SCS215a	20121205.190301	20121205.190619	dt-conversation	8	0.013328	60	10	60-180	60	165	GapExp	0	35	2	30	1	target	1	478	761	203023	13.328	13.037	13.612
TrackDT02	5	TrackDT	2.0	SCS215a	20121205.190301	20121205.190626	dt-conversation	8	0.013328	60	10	60-180	60	177	GapExp	0	36	2	1	0	distractor	1	610	695	203718	13.328	13.069	13.566
TrackDT02	5	TrackDT	2.0	SCS215a	20121205.190301	20121205.190632	dt-conversation	8	0.013328	60	10	60-180	60	175	GapExp	0	37	2	0	0	distractor	1	547	727	204445	13.328	13.302	13.355
TrackDT02	5	TrackDT	2.0	SCS215a	20121205.190301	20121205.190639	dt-conversation	8	0.013328	60	10	60-180	60	130	GapExp	0	38	2	6	1	target	1	382	809	205254	13.328	12.856	13.800
TrackDT02	5	TrackDT	2.0	SCS215a	20121205.190301	20121205.190645	dt-conversation	8	0.013328	60	10	60-180	60	77	GapExp	0	39	2	30	1	target	1	307	847	206101	13.328	12.924	13.734
TrackDT02	5	TrackDT	2.0	SCS215a	20121205.190301	20121205.190650	dt-conversation	8	0.013328	60	10	60-180	60	152	GapExp	0	40	2	30	0	distractor	1	436	782	206883	13.328	13.281	13.371
TrackDT02	5	TrackDT	2.0	SCS215a	20121205.190301	20121205.190656	dt-conversation	8	0.013328	60	10	60-180	60	138	GapExp	0	41	2	30	1	target	1	318	841	207724	13.376	12.911	26.775
TrackDT02	5	TrackDT	2.0	SCS215a	20121205.190301	20121205.190702	dt-conversation	8	0.013328	60	10	60-180	60	133	GapExp	0	42	2	1	0	distractor	1	505	748	208472	13.328	12.915	13.810
TrackDT02	5	TrackDT	2.0	SCS215a	20121205.190301	20121205.190708	dt-conversation	8	0.013328	60	10	60-180	60	85	GapExp	0	43	2	1	1	target	1	454	773	209245	13.328	13.308	13.348
TrackDT02	5	TrackDT	2.0	SCS215a	20121205.190301	20121205.190713	dt-conversation	8	0.013328	60	10	60-180	60	136	GapExp	0	44	2	6	0	distractor	1	696	652	209897	13.328	12.867	13.791
TrackDT02	5	TrackDT	2.0	SCS215a	20121205.190301	20121205.190719	dt-conversation	8	0.013328	60	10	60-180	60	86	GapExp	0	45	2	0	0	distractor	1	538	731	210628	13.328	12.956	13.699
TrackDT02	5	TrackDT	2.0	SCS215a	20121205.190301	20121205.190725	dt-conversation	8	0.013328	60	10	60-180	60	93	GapExp	0	46	2	1	0	distractor	1	739	631	211259	13.328	13.308	13.347
TrackDT02	5	TrackDT	2.0	SCS215a	20121205.190301	20121205.190730	dt-conversation	8	0.013328	60	10	60-180	60	75	GapExp	0	47	2	1	1	target	1	430	785	212044	13.465	13.301	26.587
TrackDT02	5	TrackDT	2.0	SCS215a	20121205.190301	20121205.190735	dt-conversation	8	0.013328	60	10	60-180	60	161	GapExp	0	48	2	1	0	distractor	1	547	727	212771	13.328	12.900	13.749
TrackDT02	5	TrackDT	2.0	SCS215a	20121205.190301	20121205.190741	dt-conversation	8	0.013328	60	10	60-180	60	76	GapExp	0	49	2	6	0	distractor	1	401	800	213571	13.328	13.308	13.349
TrackDT02	5	TrackDT	2.0	SCS215a	20121205.190301	20121205.190746	dt-conversation	8	0.013328	60	10	60-180	60	151	GapExp	0	50	2	0	1	target	1	426	787	214358	13.328	12.884	13.785
TrackDT02	5	TrackDT	2.0	SCS215a	20121205.190301	20121205.190804	dt-conversation	8	0.013328	60	10	60-180	60	80	GapExp	0	51	2	30	0	distractor	1	435	783	215141	13.328	13.304	13.352
TrackDT02	5	TrackDT	2.0	SCS215a	20121205.190301	20121205.190810	dt-conversation	8	0.013328	60	10	60-180	60	132	GapExp	0	52	2	1	0	distractor	1	426	787	215928	13.328	13.284	13.370
TrackDT02	5	TrackDT	2.0	SCS215a	20121205.190301	20121205.190815	dt-conversation	8	0.013328	60	10	60-180	60	94	GapExp	0	53	2	3	1	target	1	380	810	216738	13.328	12.838	13.810
TrackDT02	5	TrackDT	2.0	SCS215a	20121205.190301	20121205.190821	dt-conversation	8	0.013328	60	10	60-180	60	106	GapExp	0	54	2	3	0	distractor	1	494	753	217491	13.444	12.892	39.539
TrackDT02	5	TrackDT	2.0	SCS215a	20121205.190301	20121205.190826	dt-conversation	8	0.013328	60	10	60-180	60	89	GapExp	0	55	2	3	0	distractor	1	428	786	218277	13.328	12.994	13.674
TrackDT02	5	TrackDT	2.0	SCS215a	20121205.190301	20121205.190831	dt-conversation	8	0.013328	60	10	60-180	60	146	GapExp	0	56	2	6	0	distractor	1	610	695	218972	13.328	13.061	13.575
TrackDT02	5	TrackDT	2.0	SCS215a	20121205.190301	20121205.190837	dt-conversation	8	0.013328	60	10	60-180	60	82	GapExp	0	57	2	0	0	distractor	1	526	737	219709	13.328	13.308	13.347
TrackDT02	5	TrackDT	2.0	SCS215a	20121205.190301	20121205.190842	dt-conversation	8	0.013328	60	10	60-180	60	63	GapExp	0	58	2	0	1	target	1	390	805	220514	13.328	13.100	13.564
TrackDT02	5	TrackDT	2.0	SCS215a	20121205.190301	20121205.190847	dt-conversation	8	0.013328	60	10	60-180	60	143	GapExp	0	59	2	6	0	distractor	1	319	841	221355	13.328	13.307	13.348
TrackDT02	5	TrackDT	2.0	SCS215a	20121205.190301	20121205.190853	dt-conversation	8	0.013328	60	10	60-180	60	149	GapExp	0	60	2	3	1	target	1	378	811	222166	13.328	12.870	13.774
TrackDT02	5	TrackDT	2.0	SCS215a	20121205.190301	20121205.190859	dt-conversation	8	0.013328	60	10	60-180	60	141	GapExp	0	61	2	6	1	target	1	351	825	222991	13.328	13.298	13.348
TrackDT02	5	TrackDT	2.0	SCS215a	20121205.190301	20121205.190905	dt-conversation	8	0.013328	60	10	60-180	60	158	GapExp	0	62	2	6	0	distractor	1	429	786	223777	13.328	12.939	13.725
TrackDT02	5	TrackDT	2.0	SCS215a	20121205.190301	20121205.190911	dt-conversation	8	0.013328	60	10	60-180	60	143	GapExp	0	63	2	1	0	distractor	1	473	764	224541	13.328	13.098	13.556
TrackDT02	5	TrackDT	2.0	SCS215a	20121205.190301	20121205.190917	dt-conversation	8	0.013328	60	10	60-180	60	147	GapExp	0	64	2	1	1	target	1	396	802	225343	13.328	12.868	13.794
TrackDT02	5	TrackDT	2.0	SCS215a	20121205.190301	20121205.190922	dt-conversation	8	0.013328	60	10	60-180	60	130	GapExp	0	65	2	3	1	target	1	432	784	226127	13.328	12.861	13.787
TrackDT02	5	TrackDT	2.0	SCS215a	20121205.190301	20121205.190929	dt-conversation	8	0.013328	60	10	60-180	60	75	GapExp	0	66	2	6	1	target	1	550	725	226852	13.328	12.889	13.773
TrackDT02	5	TrackDT	2.0	SCS215a	20121205.190301	20121205.190934	dt-conversation	8	0.013328	60	10	60-180	60	125	GapExp	0	67	2	30	0	distractor	1	456	772	227624	13.328	13.297	13.360
TrackDT02	5	TrackDT	2.0	SCS215a	20121205.190301	20121205.190940	dt-conversation	8	0.013328	60	10	60-180	60	143	GapExp	0	68	2	30	1	target	1	466	767	228391	13.328	12.876	13.789
TrackDT02	5	TrackDT	2.0	SCS215a	20121205.190301	20121205.190946	dt-conversation	8	0.013328	60	10	60-180	60	175	GapExp	0	69	2	3	0	distractor	1	652	674	229065	13.328	12.919	13.738
TrackDT02	5	TrackDT	2.0	SCS215a	20121205.190301	20121205.190952	dt-conversation	8	0.013328	60	10	60-180	60	133	GapExp	0	70	2	3	1	target	1	491	755	229820	13.328	12.944	13.710
TrackDT02	5	TrackDT	2.0	SCS215a	20121205.190301	20121205.190958	dt-conversation	8	0.013328	60	10	60-180	60	76	GapExp	0	71	2	1	0	distractor	1	538	731	230551	13.328	12.845	13.801
TrackDT02	5	TrackDT	2.0	SCS215a	20121205.190301	20121205.191003	dt-conversation	8	0.013328	60	10	60-180	60	118	GapExp	0	72	2	3	1	target	1	378	811	231362	13.328	12.916	13.734
TrackDT02	5	TrackDT	2.0	SCS215a	20121205.190301	20121205.191009	dt-conversation	8	0.013328	60	10	60-180	60	98	GapExp	0	73	2	6	0	distractor	1	400	800	232162	13.328	12.873	13.789
TrackDT02	5	TrackDT	2.0	SCS215a	20121205.190301	20121205.191014	dt-conversation	8	0.013328	60	10	60-180	60	166	GapExp	0	74	2	0	0	distractor	1	406	797	232959	13.328	12.880	13.782
TrackDT02	5	TrackDT	2.0	SCS215a	20121205.190301	20121205.191020	dt-conversation	8	0.013328	60	10	60-180	60	120	GapExp	0	75	2	3	0	distractor	1	459	771	233730	13.328	12.874	13.779
TrackDT02	5	TrackDT	2.0	SCS215a	20121205.190301	20121205.191025	dt-conversation	8	0.013328	60	10	60-180	60	156	GapExp	0	76	2	1	1	target	1	410	795	234525	13.328	12.940	13.725
TrackDT02	5	TrackDT	2.0	SCS215a	20121205.190301	20121205.191031	dt-conversation	8	0.013328	60	10	60-180	60	68	GapExp	0	77	2	6	1	target	1	477	762	235287	13.328	12.873	13.787
TrackDT02	5	TrackDT	2.0	SCS215a	20121205.190301	20121205.191037	dt-conversation	8	0.013328	60	10	60-180	60	76	GapExp	0	78	2	6	0	distractor	1	424	788	236075	13.328	12.894	13.755
TrackDT02	5	TrackDT	2.0	SCS215a	20121205.190301	20121205.191042	dt-conversation	8	0.013328	60	10	60-180	60	108	GapExp	0	79	2	6	0	distractor	1	438	781	236856	13.328	12.782	13.691
TrackDT02	5	TrackDT	2.0	SCS215a	20121205.190301	20121205.191047	dt-conversation	8	0.013328	60	10	60-180	60	142	GapExp	0	80	2	1	0	distractor	1	457	772	237628	13.328	12.839	13.808
TrackDT02	5	TrackDT	2.0	SCS215a	20121205.190301	20121205.191053	dt-conversation	8	0.013328	60	10	60-180	60	132	GapExp	0	81	2	3	1	target	1	361	820	238448	13.328	13.308	13.346
TrackDT02	5	TrackDT	2.0	SCS215a	20121205.190301	20121205.191058	dt-conversation	8	0.013328	60	10	60-180	60	150	GapExp	0	82	2	6	1	target	1	305	848	239296	13.328	12.859	13.789
TrackDT02	5	TrackDT	2.0	SCS215a	20121205.190301	20121205.191104	dt-conversation	8	0.013328	60	10	60-180	60	149	GapExp	0	83	2	3	1	target	1	355	823	240119	13.328	12.840	13.802
TrackDT02	5	TrackDT	2.0	SCS215a	20121205.190301	20121205.191110	dt-conversation	8	0.013328	60	10	60-180	60	109	GapExp	0	84	2	30	1	target	1	322	839	240958	13.490	12.911	39.601
TrackDT02	5	TrackDT	2.0	SCS215a	20121205.190301	20121205.191116	dt-conversation	8	0.013328	60	10	60-180	60	148	GapExp	0	85	2	0	0	distractor	1	401	800	241758	13.328	13.049	13.608
TrackDT02	5	TrackDT	2.0	SCS215a	20121205.190301	20121205.191122	dt-conversation	8	0.013328	60	10	60-180	60	98	GapExp	0	86	2	0	1	target	1	462	769	242527	13.328	12.876	13.704
TrackDT02	5	TrackDT	2.0	SCS215a	20121205.190301	20121205.191127	dt-conversation	8	0.013328	60	10	60-180	60	135	GapExp	0	87	2	6	0	distractor	1	487	757	243284	13.328	13.307	13.353
TrackDT02	5	TrackDT	2.0	SCS215a	20121205.190301	20121205.191133	dt-conversation	8	0.013328	60	10	60-180	60	61	GapExp	0	88	2	30	0	distractor	1	471	765	244049	13.328	12.904	13.753
TrackDT02	5	TrackDT	2.0	SCS215a	20121205.190301	20121205.191138	dt-conversation	8	0.013328	60	10	60-180	60	119	GapExp	0	89	2	0	1	target	1	380	810	244859	13.328	12.870	13.772
TrackDT02	5	TrackDT	2.0	SCS215a	20121205.190301	20121205.191144	dt-conversation	8	0.013328	60	10	60-180	60	82	GapExp	0	90	2	1	1	target	1	714	643	245502	13.327	12.897	13.744
TrackDT02	5	TrackDT	2.0	SCS215a	20121205.190301	20121205.191149	dt-conversation	8	0.013328	60	10	60-180	60	172	GapExp	0	91	2	30	1	target	1	520	740	246242	13.328	12.901	13.752
TrackDT02	5	TrackDT	2.0	SCS215a	20121205.190301	20121205.191156	dt-conversation	8	0.013328	60	10	60-180	60	171	GapExp	0	92	2	6	0	distractor	1	421	790	247032	13.373	12.828	26.994
TrackDT02	5	TrackDT	2.0	SCS215a	20121205.190301	20121205.191202	dt-conversation	8	0.013328	60	10	60-180	60	150	GapExp	0	93	2	1	1	target	1	458	771	247803	13.328	13.227	13.431
TrackDT02	5	TrackDT	2.0	SCS215a	20121205.190301	20121205.191208	dt-conversation	8	0.013328	60	10	60-180	60	81	GapExp	0	94	2	3	0	distractor	1	518	741	248544	13.328	12.936	13.726
TrackDT02	5	TrackDT	2.0	SCS215a	20121205.190301	20121205.191213	dt-conversation	8	0.013328	60	10	60-180	60	174	GapExp	0	95	2	6	0	distractor	1	402	799	249343	13.328	12.860	13.801
TrackDT02	5	TrackDT	2.0	SCS215a	20121205.190301	20121205.191219	dt-conversation	8	0.013328	60	10	60-180	60	62	GapExp	0	96	2	30	0	distractor	1	537	732	250075	13.389	12.961	26.680
TrackDT02	5	TrackDT	2.0	SCS215a	20121205.190301	20121205.191225	dt-conversation	8	0.013328	60	10	60-180	60	99	GapExp	0	97	2	3	1	target	1	500	750	250825	13.328	13.299	13.344
TrackDT02	5	TrackDT	2.0	SCS215a	20121205.190301	20121205.191230	dt-conversation	8	0.013328	60	10	60-180	60	150	GapExp	0	98	2	0	1	target	1	401	800	251625	13.328	13.299	13.351
TrackDT02	5	TrackDT	2.0	SCS215a	20121205.190301	20121205.191236	dt-conversation	8	0.013328	60	10	60-180	60	108	GapExp	0	99	2	0	1	target	1	381	810	252435	13.328	12.848	13.815
TrackDT02	5	TrackDT	2.0	SCS215a	20121205.190301	20121205.191241	dt-conversation	8	0.013328	60	10	60-180	60	72	GapExp	0	100	2	0	1	target	1	604	698	253133	13.328	12.958	13.704
TrackDT02	5	TrackDT	2.0	SCS215a	20121205.190301	20121205.191307	dt-conversation	8	0.013328	60	10	60-180	60	138	GapExp	0	101	2	3	1	target	1	459	771	253904	13.328	12.946	13.711
TrackDT02	5	TrackDT	2.0	SCS215a	20121205.190301	20121205.191313	dt-conversation	8	0.013328	60	10	60-180	60	179	GapExp	0	102	2	1	1	target	1	407	797	254701	13.328	12.871	13.797
TrackDT02	5	TrackDT	2.0	SCS215a	20121205.190301	20121205.191319	dt-conversation	8	0.013328	60	10	60-180	60	137	GapExp	0	103	2	6	0	distractor	1	335	833	255534	13.328	12.878	13.782
TrackDT02	5	TrackDT	2.0	SCS215a	20121205.190301	20121205.191325	dt-conversation	8	0.013328	60	10	60-180	60	132	GapExp	0	104	2	1	0	distractor	1	492	754	256288	13.328	12.938	13.712
TrackDT02	5	TrackDT	2.0	SCS215a	20121205.190301	20121205.191331	dt-conversation	8	0.013328	60	10	60-180	60	74	GapExp	0	105	2	30	0	distractor	1	372	814	257102	13.328	13.244	13.413
TrackDT02	5	TrackDT	2.0	SCS215a	20121205.190301	20121205.191336	dt-conversation	8	0.013328	60	10	60-180	60	147	GapExp	0	106	2	1	1	target	1	410	795	257897	13.328	13.091	13.571
TrackDT02	5	TrackDT	2.0	SCS215a	20121205.190301	20121205.191342	dt-conversation	8	0.013328	60	10	60-180	60	66	GapExp	0	107	2	6	1	target	1	432	784	258681	13.328	13.303	13.347
TrackDT02	5	TrackDT	2.0	SCS215a	20121205.190301	20121205.191347	dt-conversation	8	0.013328	60	10	60-180	60	81	GapExp	0	108	2	30	0	distractor	1	379	811	259492	13.328	13.095	13.559
TrackDT02	5	TrackDT	2.0	SCS215a	20121205.190301	20121205.191352	dt-conversation	8	0.013328	60	10	60-180	60	155	GapExp	0	109	2	30	1	target	1	293	854	260346	13.328	12.840	13.801
TrackDT02	5	TrackDT	2.0	SCS215a	20121205.190301	20121205.191358	dt-conversation	8	0.013328	60	10	60-180	60	169	GapExp	0	110	2	3	1	target	1	319	841	261187	13.328	12.995	13.653
TrackDT02	5	TrackDT	2.0	SCS215a	20121205.190301	20121205.191404	dt-conversation	8	0.013328	60	10	60-180	60	178	GapExp	0	111	2	1	0	distractor	1	560	720	261907	13.328	13.306	13.354
TrackDT02	5	TrackDT	2.0	SCS215a	20121205.190301	20121205.191411	dt-conversation	8	0.013328	60	10	60-180	60	124	GapExp	0	112	2	3	0	target	0	432	-1000	260907	13.328	12.926	13.728
TrackDT02	5	TrackDT	2.0	SCS215a	20121205.190301	20121205.191416	dt-conversation	8	0.013328	60	10	60-180	60	171	GapExp	0	113	2	6	1	target	1	348	826	261733	13.328	13.033	13.629
TrackDT02	5	TrackDT	2.0	SCS215a	20121205.190301	20121205.191423	dt-conversation	8	0.013328	60	10	60-180	60	75	GapExp	0	114	2	1	1	target	1	722	639	262372	13.328	12.845	13.812
TrackDT02	5	TrackDT	2.0	SCS215a	20121205.190301	20121205.191428	dt-conversation	8	0.013328	60	10	60-180	60	78	GapExp	0	115	2	0	1	target	1	337	832	263204	13.328	12.885	13.770
TrackDT02	5	TrackDT	2.0	SCS215a	20121205.190301	20121205.191433	dt-conversation	8	0.013328	60	10	60-180	60	116	GapExp	0	116	2	6	0	distractor	1	412	794	263998	13.328	12.850	13.800
TrackDT02	5	TrackDT	2.0	SCS215a	20121205.190301	20121205.191438	dt-conversation	8	0.013328	60	10	60-180	60	147	GapExp	0	117	2	1	0	distractor	1	491	755	264753	13.328	13.309	13.351
TrackDT02	5	TrackDT	2.0	SCS215a	20121205.190301	20121205.191444	dt-conversation	8	0.013328	60	10	60-180	60	131	GapExp	0	118	2	3	1	target	1	579	711	265464	13.328	13.013	13.650
TrackDT02	5	TrackDT	2.0	SCS215a	20121205.190301	20121205.191450	dt-conversation	8	0.013328	60	10	60-180	60	87	GapExp	0	119	2	0	0	target	0	501	-1000	264464	13.328	13.306	13.343
TrackDT02	5	TrackDT	2.0	SCS215a	20121205.190301	20121205.191456	dt-conversation	8	0.013328	60	10	60-180	60	115	GapExp	0	120	2	0	1	target	1	453	774	265238	13.328	12.878	13.778
TrackDT02	5	TrackDT	2.0	SCS215a	20121205.190301	20121205.191501	dt-conversation	8	0.013328	60	10	60-180	60	144	GapExp	0	121	2	3	0	distractor	1	402	799	266037	13.328	12.876	13.764
TrackDT02	5	TrackDT	2.0	SCS215a	20121205.190301	20121205.191507	dt-conversation	8	0.013328	60	10	60-180	60	141	GapExp	0	122	2	0	0	distractor	1	505	748	266785	13.328	12.938	13.712
TrackDT02	5	TrackDT	2.0	SCS215a	20121205.190301	20121205.191513	dt-conversation	8	0.013328	60	10	60-180	60	170	GapExp	0	123	2	30	0	distractor	1	395	803	267588	13.328	12.933	13.810
TrackDT02	5	TrackDT	2.0	SCS215a	20121205.190301	20121205.191519	dt-conversation	8	0.013328	60	10	60-180	60	82	GapExp	0	124	2	1	1	target	1	503	749	268337	13.328	13.308	13.350
TrackDT02	5	TrackDT	2.0	SCS215a	20121205.190301	20121205.191524	dt-conversation	8	0.013328	60	10	60-180	60	66	GapExp	0	125	2	0	1	target	1	368	816	269153	13.328	13.307	13.343
TrackDT02	5	TrackDT	2.0	SCS215a	20121205.190301	20121205.191529	dt-conversation	8	0.013328	60	10	60-180	60	177	GapExp	0	126	2	1	1	target	1	347	827	269980	13.328	12.855	13.794
TrackDT02	5	TrackDT	2.0	SCS215a	20121205.190301	20121205.191535	dt-conversation	8	0.013328	60	10	60-180	60	110	GapExp	0	127	2	30	0	distractor	1	368	816	270796	13.328	12.892	13.756
TrackDT02	5	TrackDT	2.0	SCS215a	20121205.190301	20121205.191541	dt-conversation	8	0.013328	60	10	60-180	60	119	GapExp	0	128	2	6	1	target	1	338	831	271627	13.328	13.284	13.371
TrackDT02	5	TrackDT	2.0	SCS215a	20121205.190301	20121205.191547	dt-conversation	8	0.013328	60	10	60-180	60	101	GapExp	0	129	2	30	0	distractor	1	500	750	272377	13.328	13.009	13.654
TrackDT02	5	TrackDT	2.0	SCS215a	20121205.190301	20121205.191552	dt-conversation	8	0.013328	60	10	60-180	60	112	GapExp	0	130	2	1	1	target	1	424	788	273165	13.328	13.305	13.364
TrackDT02	5	TrackDT	2.0	SCS215a	20121205.190301	20121205.191558	dt-conversation	8	0.013328	60	10	60-180	60	104	GapExp	0	131	2	3	1	target	1	367	817	273982	13.328	12.909	13.732
TrackDT02	5	TrackDT	2.0	SCS215a	20121205.190301	20121205.191603	dt-conversation	8	0.013328	60	10	60-180	60	106	GapExp	0	132	2	6	0	distractor	1	482	759	274741	13.328	12.837	13.826
TrackDT02	5	TrackDT	2.0	SCS215a	20121205.190301	20121205.191609	dt-conversation	8	0.013328	60	10	60-180	60	180	GapExp	0	133	2	1	1	target	1	396	802	275543	13.328	12.897	13.758
TrackDT02	5	TrackDT	2.0	SCS215a	20121205.190301	20121205.191615	dt-conversation	8	0.013328	60	10	60-180	60	138	GapExp	0	134	2	30	0	distractor	1	483	759	276302	13.374	13.302	26.231
TrackDT02	5	TrackDT	2.0	SCS215a	20121205.190301	20121205.191621	dt-conversation	8	0.013328	60	10	60-180	60	78	GapExp	0	135	2	0	0	target	0	635	-1000	275302	13.328	13.303	13.352
TrackDT02	5	TrackDT	2.0	SCS215a	20121205.190301	20121205.191626	dt-conversation	8	0.013328	60	10	60-180	60	61	GapExp	0	136	2	3	0	distractor	1	586	707	276009	13.328	13.290	13.362
TrackDT02	5	TrackDT	2.0	SCS215a	20121205.190301	20121205.191631	dt-conversation	8	0.013328	60	10	60-180	60	125	GapExp	0	137	2	30	1	target	1	531	735	276744	13.328	12.949	13.699
TrackDT02	5	TrackDT	2.0	SCS215a	20121205.190301	20121205.191637	dt-conversation	8	0.013328	60	10	60-180	60	113	GapExp	0	138	2	0	0	distractor	1	444	778	277522	13.328	12.863	13.793
TrackDT02	5	TrackDT	2.0	SCS215a	20121205.190301	20121205.191643	dt-conversation	8	0.013328	60	10	60-180	60	153	GapExp	0	139	2	1	1	target	1	376	812	278334	13.328	12.924	13.731
TrackDT02	5	TrackDT	2.0	SCS215a	20121205.190301	20121205.191649	dt-conversation	8	0.013328	60	10	60-180	60	147	GapExp	0	140	2	0	0	target	0	752	-1000	277334	13.328	13.082	13.581
TrackDT02	5	TrackDT	2.0	SCS215a	20121205.190301	20121205.191655	dt-conversation	8	0.013328	60	10	60-180	60	70	GapExp	0	141	2	0	1	target	1	374	813	278147	13.328	13.303	13.355
TrackDT02	5	TrackDT	2.0	SCS215a	20121205.190301	20121205.191659	dt-conversation	8	0.013328	60	10	60-180	60	155	GapExp	0	142	2	6	1	target	1	387	807	278954	13.328	12.868	13.781
TrackDT02	5	TrackDT	2.0	SCS215a	20121205.190301	20121205.191705	dt-conversation	8	0.013328	60	10	60-180	60	178	GapExp	0	143	2	3	0	distractor	1	499	751	279705	13.328	13.085	13.571
TrackDT02	5	TrackDT	2.0	SCS215a	20121205.190301	20121205.191712	dt-conversation	8	0.013328	60	10	60-180	60	170	GapExp	0	144	2	30	0	distractor	1	454	773	280478	13.328	12.889	13.772
TrackDT02	5	TrackDT	2.0	SCS215a	20121205.190301	20121205.191719	dt-conversation	8	0.013328	60	10	60-180	60	98	GapExp	0	145	2	3	0	distractor	1	472	764	281242	13.328	12.939	13.715
TrackDT02	5	TrackDT	2.0	SCS215a	20121205.190301	20121205.191724	dt-conversation	8	0.013328	60	10	60-180	60	89	GapExp	0	146	2	1	1	target	1	718	641	281883	13.328	13.309	13.360
TrackDT02	5	TrackDT	2.0	SCS215a	20121205.190301	20121205.191729	dt-conversation	8	0.013328	60	10	60-180	60	139	GapExp	0	147	2	0	0	distractor	1	631	685	282568	13.328	12.961	13.695
TrackDT02	5	TrackDT	2.0	SCS215a	20121205.190301	20121205.191735	dt-conversation	8	0.013328	60	10	60-180	60	77	GapExp	0	148	2	30	1	target	1	412	794	283362	13.328	13.112	13.556
TrackDT02	5	TrackDT	2.0	SCS215a	20121205.190301	20121205.191740	dt-conversation	8	0.013328	60	10	60-180	60	175	GapExp	0	149	2	0	0	distractor	1	469	766	284128	13.328	12.836	13.820
TrackDT02	5	TrackDT	2.0	SCS215a	20121205.190301	20121205.191747	dt-conversation	8	0.013328	60	10	60-180	60	131	GapExp	0	150	2	6	0	distractor	1	531	735	284863	13.326	12.906	13.747
TrackDT02	5	TrackDT	2.0	SCS215a	20121205.190301	20121205.191831	dt-conversation	8	0.013328	60	10	60-180	60	68	GapExp	0	151	2	0	0	distractor	1	783	609	285472	13.328	13.001	13.649
TrackDT02	5	TrackDT	2.0	SCS215a	20121205.190301	20121205.191836	dt-conversation	8	0.013328	60	10	60-180	60	170	GapExp	0	152	2	0	1	target	1	401	800	286272	13.328	12.977	13.675
TrackDT02	5	TrackDT	2.0	SCS215a	20121205.190301	20121205.191843	dt-conversation	8	0.013328	60	10	60-180	60	134	GapExp	0	153	2	3	1	target	1	354	823	287095	13.328	13.107	13.536
TrackDT02	5	TrackDT	2.0	SCS215a	20121205.190301	20121205.191848	dt-conversation	8	0.013328	60	10	60-180	60	166	GapExp	0	154	2	1	0	target	0	464	-1000	286095	13.328	12.865	13.784
TrackDT02	5	TrackDT	2.0	SCS215a	20121205.190301	20121205.191854	dt-conversation	8	0.013328	60	10	60-180	60	83	GapExp	0	155	2	3	1	target	1	422	789	286884	13.328	12.918	13.722
TrackDT02	5	TrackDT	2.0	SCS215a	20121205.190301	20121205.191859	dt-conversation	8	0.013328	60	10	60-180	60	111	GapExp	0	156	2	6	1	target	1	393	804	287688	13.328	12.966	13.696
TrackDT02	5	TrackDT	2.0	SCS215a	20121205.190301	20121205.191905	dt-conversation	8	0.013328	60	10	60-180	60	116	GapExp	0	157	2	1	0	distractor	1	612	694	288382	13.328	13.305	13.345
TrackDT02	5	TrackDT	2.0	SCS215a	20121205.190301	20121205.191911	dt-conversation	8	0.013328	60	10	60-180	60	148	GapExp	0	158	2	3	0	distractor	1	471	765	289147	13.328	13.098	13.572
TrackDT02	5	TrackDT	2.0	SCS215a	20121205.190301	20121205.191917	dt-conversation	8	0.013328	60	10	60-180	60	134	GapExp	0	159	2	6	1	target	1	394	803	289950	13.328	13.308	13.352
TrackDT02	5	TrackDT	2.0	SCS215a	20121205.190301	20121205.191922	dt-conversation	8	0.013328	60	10	60-180	60	95	GapExp	0	160	2	1	0	distractor	1	544	728	290678	13.328	13.060	13.615
TrackDT02	5	TrackDT	2.0	SCS215a	20121205.190301	20121205.191928	dt-conversation	8	0.013328	60	10	60-180	60	111	GapExp	0	161	2	30	1	target	1	424	788	291466	13.328	12.913	13.751
TrackDT02	5	TrackDT	2.0	SCS215a	20121205.190301	20121205.191933	dt-conversation	8	0.013328	60	10	60-180	60	163	GapExp	0	162	2	6	0	distractor	1	386	807	292273	13.328	12.901	13.757
TrackDT02	5	TrackDT	2.0	SCS215a	20121205.190301	20121205.191939	dt-conversation	8	0.013328	60	10	60-180	60	122	GapExp	0	163	2	6	1	target	1	487	757	293030	13.328	13.099	13.558
TrackDT02	5	TrackDT	2.0	SCS215a	20121205.190301	20121205.191945	dt-conversation	8	0.013328	60	10	60-180	60	139	GapExp	0	164	2	0	0	distractor	1	512	744	293774	13.328	13.086	13.557
TrackDT02	5	TrackDT	2.0	SCS215a	20121205.190301	20121205.191951	dt-conversation	8	0.013328	60	10	60-180	60	155	GapExp	0	165	2	0	1	target	1	479	761	294535	13.328	13.302	13.350
TrackDT02	5	TrackDT	2.0	SCS215a	20121205.190301	20121205.191957	dt-conversation	8	0.013328	60	10	60-180	60	89	GapExp	0	166	2	1	0	distractor	1	572	714	295249	13.328	12.859	13.787
TrackDT02	5	TrackDT	2.0	SCS215a	20121205.190301	20121205.192002	dt-conversation	8	0.013328	60	10	60-180	60	99	GapExp	0	167	2	3	0	distractor	1	462	769	296018	13.328	12.894	13.761
TrackDT02	5	TrackDT	2.0	SCS215a	20121205.190301	20121205.192008	dt-conversation	8	0.013328	60	10	60-180	60	65	GapExp	0	168	2	6	0	distractor	1	508	746	296764	13.328	13.309	13.347
TrackDT02	5	TrackDT	2.0	SCS215a	20121205.190301	20121205.192012	dt-conversation	8	0.013328	60	10	60-180	60	133	GapExp	0	169	2	1	0	distractor	1	557	722	297486	13.328	13.303	13.348
TrackDT02	5	TrackDT	2.0	SCS215a	20121205.190301	20121205.192019	dt-conversation	8	0.013328	60	10	60-180	60	86	GapExp	0	170	2	3	0	distractor	1	542	729	298215	13.329	13.307	13.672
TrackDT02	5	TrackDT	2.0	SCS215a	20121205.190301	20121205.192024	dt-conversation	8	0.013328	60	10	60-180	60	83	GapExp	0	171	2	30	1	target	1	514	743	298958	13.328	13.113	13.556
TrackDT02	5	TrackDT	2.0	SCS215a	20121205.190301	20121205.192029	dt-conversation	8	0.013328	60	10	60-180	60	117	GapExp	0	172	2	6	1	target	1	492	754	299712	13.328	12.859	13.803
TrackDT02	5	TrackDT	2.0	SCS215a	20121205.190301	20121205.192035	dt-conversation	8	0.013328	60	10	60-180	60	163	GapExp	0	173	2	30	0	distractor	1	423	789	300501	13.328	12.917	13.738
TrackDT02	5	TrackDT	2.0	SCS215a	20121205.190301	20121205.192041	dt-conversation	8	0.013328	60	10	60-180	60	102	GapExp	0	174	2	30	1	target	1	605	698	301199	13.328	13.301	13.357
TrackDT02	5	TrackDT	2.0	SCS215a	20121205.190301	20121205.192047	dt-conversation	8	0.013328	60	10	60-180	60	72	GapExp	0	175	2	3	0	distractor	1	517	742	301941	13.328	13.311	13.347
TrackDT02	5	TrackDT	2.0	SCS215a	20121205.190301	20121205.192052	dt-conversation	8	0.013328	60	10	60-180	60	178	GapExp	0	176	2	30	0	distractor	1	816	592	302533	13.328	12.989	13.666
TrackDT02	5	TrackDT	2.0	SCS215a	20121205.190301	20121205.192059	dt-conversation	8	0.013328	60	10	60-180	60	84	GapExp	0	177	2	0	1	target	1	691	655	303188	13.328	12.961	13.697
TrackDT02	5	TrackDT	2.0	SCS215a	20121205.190301	20121205.192105	dt-conversation	8	0.013328	60	10	60-180	60	71	GapExp	0	178	2	1	1	target	1	620	690	303878	13.328	12.871	13.782
TrackDT02	5	TrackDT	2.0	SCS215a	20121205.190301	20121205.192110	dt-conversation	8	0.013328	60	10	60-180	60	127	GapExp	0	179	2	30	1	target	1	474	763	304641	13.328	12.950	13.701
TrackDT02	5	TrackDT	2.0	SCS215a	20121205.190301	20121205.192116	dt-conversation	8	0.013328	60	10	60-180	60	165	GapExp	0	180	2	1	0	distractor	1	442	779	305420	13.328	13.307	13.346
TrackDT02	5	TrackDT	2.0	SCS215a	20121205.190301	20121205.192122	dt-conversation	8	0.013328	60	10	60-180	60	110	GapExp	0	181	2	6	1	target	1	355	823	306243	13.328	12.976	13.692
TrackDT02	5	TrackDT	2.0	SCS215a	20121205.190301	20121205.192128	dt-conversation	8	0.013328	60	10	60-180	60	62	GapExp	0	182	2	30	0	distractor	1	395	803	307046	13.328	13.306	13.349
TrackDT02	5	TrackDT	2.0	SCS215a	20121205.190301	20121205.192133	dt-conversation	8	0.013328	60	10	60-180	60	133	GapExp	0	183	2	30	1	target	1	338	831	307877	13.328	13.011	13.637
TrackDT02	5	TrackDT	2.0	SCS215a	20121205.190301	20121205.192139	dt-conversation	8	0.013328	60	10	60-180	60	122	GapExp	0	184	2	1	1	target	1	472	764	308641	13.328	12.839	13.802
TrackDT02	5	TrackDT	2.0	SCS215a	20121205.190301	20121205.192144	dt-conversation	8	0.013328	60	10	60-180	60	65	GapExp	0	185	2	3	0	distractor	1	557	722	309363	13.328	12.897	13.780
TrackDT02	5	TrackDT	2.0	SCS215a	20121205.190301	20121205.192149	dt-conversation	8	0.013328	60	10	60-180	60	165	GapExp	0	186	2	6	1	target	1	382	809	310172	13.328	13.119	13.539
TrackDT02	5	TrackDT	2.0	SCS215a	20121205.190301	20121205.192155	dt-conversation	8	0.013328	60	10	60-180	60	79	GapExp	0	187	2	30	1	distractor	0	395	-1000	309172	13.328	12.861	13.790
TrackDT02	5	TrackDT	2.0	SCS215a	20121205.190301	20121205.192201	dt-conversation	8	0.013328	60	10	60-180	60	136	GapExp	0	188	2	3	1	target	1	357	822	309994	13.328	12.858	13.790
TrackDT02	5	TrackDT	2.0	SCS215a	20121205.190301	20121205.192207	dt-conversation	8	0.013328	60	10	60-180	60	89	GapExp	0	189	2	6	1	target	1	420	790	310784	13.328	12.893	13.775
TrackDT02	5	TrackDT	2.0	SCS215a	20121205.190301	20121205.192212	dt-conversation	8	0.013328	60	10	60-180	60	97	GapExp	0	190	2	30	0	distractor	1	437	782	311566	13.328	12.890	13.764
TrackDT02	5	TrackDT	2.0	SCS215a	20121205.190301	20121205.192217	dt-conversation	8	0.013328	60	10	60-180	60	158	GapExp	0	191	2	1	0	distractor	1	644	678	312244	13.328	12.941	13.708
TrackDT02	5	TrackDT	2.0	SCS215a	20121205.190301	20121205.192223	dt-conversation	8	0.013328	60	10	60-180	60	136	GapExp	0	192	2	0	1	target	1	500	750	312994	13.328	13.309	13.348
TrackDT02	5	TrackDT	2.0	SCS215a	20121205.190301	20121205.192229	dt-conversation	8	0.013328	60	10	60-180	60	150	GapExp	0	193	2	3	1	target	1	463	769	313763	13.328	13.099	13.550
TrackDT02	5	TrackDT	2.0	SCS215a	20121205.190301	20121205.192236	dt-conversation	8	0.013328	60	10	60-180	60	88	GapExp	0	194	2	0	0	distractor	1	606	697	314460	13.328	12.846	13.789
TrackDT02	5	TrackDT	2.0	SCS215a	20121205.190301	20121205.192241	dt-conversation	8	0.013328	60	10	60-180	60	175	GapExp	0	195	2	3	0	distractor	1	462	769	315229	13.374	12.858	26.529
TrackDT02	5	TrackDT	2.0	SCS215a	20121205.190301	20121205.192247	dt-conversation	8	0.013328	60	10	60-180	60	115	GapExp	0	196	2	30	1	target	1	451	775	316004	13.378	12.924	26.652
TrackDT02	5	TrackDT	2.0	SCS215a	20121205.190301	20121205.192253	dt-conversation	8	0.013328	60	10	60-180	60	65	GapExp	0	197	2	30	1	target	1	372	814	316818	13.328	13.277	13.388
TrackDT02	5	TrackDT	2.0	SCS215a	20121205.190301	20121205.192258	dt-conversation	8	0.013328	60	10	60-180	60	171	GapExp	0	198	2	0	0	distractor	1	511	745	317563	13.328	12.912	13.758
TrackDT02	5	TrackDT	2.0	SCS215a	20121205.190301	20121205.192304	dt-conversation	8	0.013328	60	10	60-180	60	94	GapExp	0	199	2	0	1	target	1	520	740	318303	13.328	12.867	13.810
TrackDT02	5	TrackDT	2.0	SCS215a	20121205.190301	20121205.192310	dt-conversation	8	0.013328	60	10	60-180	60	112	GapExp	0	200	2	3	0	distractor	1	422	789	319092	13.385	13.099	26.502
