exp	sub	code	rev	comp	runtime	trialtime	stdt	nstim	refreshdur	cuedur	gapdur	gapOnsetRange	durPostProbe	gapOnsetTime	blocktype	prac	trial	ntargets	soa	probeTarget	resp	acc	rt	pts	tpts	meanFrameDur	minFrameDur	maxFrameDur
TrackDT02	1	TrackDT	2.0	SCS215a	20121114.161216	20121114.161226	single-task	8	0.013328	60	0	60-180	60	118	NoGap	1	1	2	1	1	target	1	388	806	806	13.328	9.213	17.444
TrackDT02	1	TrackDT	2.0	SCS215a	20121114.161216	20121114.161232	single-task	8	0.013328	60	0	60-180	60	94	NoGap	1	2	2	6	0	distractor	1	564	718	1524	13.328	13.108	13.554
TrackDT02	1	TrackDT	2.0	SCS215a	20121114.161216	20121114.161237	single-task	8	0.013328	60	0	60-180	60	76	NoGap	1	3	2	6	0	distractor	1	573	714	2238	13.328	13.305	13.345
TrackDT02	1	TrackDT	2.0	SCS215a	20121114.161216	20121114.161242	single-task	8	0.013328	60	0	60-180	60	95	NoGap	1	4	2	30	0	distractor	1	565	718	2956	13.328	13.301	13.353
TrackDT02	1	TrackDT	2.0	SCS215a	20121114.161216	20121114.161248	single-task	8	0.013328	60	0	60-180	60	77	NoGap	1	5	2	1	0	distractor	1	468	766	3722	13.328	13.104	13.566
TrackDT02	1	TrackDT	2.0	SCS215a	20121114.161216	20121114.161253	single-task	8	0.013328	60	0	60-180	60	177	NoGap	1	6	2	1	0	distractor	1	636	682	4404	13.328	7.841	18.853
TrackDT02	1	TrackDT	2.0	SCS215a	20121114.161216	20121114.161259	single-task	8	0.013328	60	0	60-180	60	153	NoGap	1	7	2	6	1	distractor	0	409	-1000	3404	13.328	13.099	13.546
TrackDT02	1	TrackDT	2.0	SCS215a	20121114.161216	20121114.161305	single-task	8	0.013328	60	0	60-180	60	71	NoGap	1	8	2	0	1	target	1	487	757	4161	13.328	13.307	13.350
TrackDT02	1	TrackDT	2.0	SCS215a	20121114.161216	20121114.161310	single-task	8	0.013328	60	0	60-180	60	61	NoGap	1	9	2	0	1	target	1	405	798	4959	13.328	13.302	13.349
TrackDT02	1	TrackDT	2.0	SCS215a	20121114.161216	20121114.161315	single-task	8	0.013328	60	0	60-180	60	118	NoGap	1	10	2	30	0	distractor	1	453	774	5733	13.328	10.415	16.290
TrackDT02	1	TrackDT	2.0	SCS215a	20121114.161216	20121114.161321	single-task	8	0.013328	60	0	60-180	60	101	NoGap	1	11	2	30	1	target	1	352	824	6557	13.328	11.848	14.830
TrackDT02	1	TrackDT	2.0	SCS215a	20121114.161216	20121114.161326	single-task	8	0.013328	60	0	60-180	60	120	NoGap	1	12	2	1	1	target	1	507	747	7304	13.328	13.310	13.348
TrackDT02	1	TrackDT	2.0	SCS215a	20121114.161216	20121114.161331	single-task	8	0.013328	60	0	60-180	60	88	NoGap	1	13	2	3	1	target	1	384	808	8112	13.328	13.299	13.351
TrackDT02	1	TrackDT	2.0	SCS215a	20121114.161216	20121114.161337	single-task	8	0.013328	60	0	60-180	60	151	NoGap	1	14	2	0	0	distractor	1	459	771	8883	13.328	12.042	14.622
TrackDT02	1	TrackDT	2.0	SCS215a	20121114.161216	20121114.161343	single-task	8	0.013328	60	0	60-180	60	98	NoGap	1	15	2	30	1	target	1	409	796	9679	13.328	13.099	13.552
TrackDT02	1	TrackDT	2.0	SCS215a	20121114.161216	20121114.161348	single-task	8	0.013328	60	0	60-180	60	134	NoGap	1	16	2	1	1	target	1	546	727	10406	13.328	12.685	13.960
TrackDT02	1	TrackDT	2.0	SCS215a	20121114.161216	20121114.161354	single-task	8	0.013328	60	0	60-180	60	74	NoGap	1	17	2	6	1	target	1	369	816	11222	13.328	13.307	13.350
TrackDT02	1	TrackDT	2.0	SCS215a	20121114.161216	20121114.161359	single-task	8	0.013328	60	0	60-180	60	80	NoGap	1	18	2	3	0	distractor	1	515	743	11965	13.328	13.084	13.559
TrackDT02	1	TrackDT	2.0	SCS215a	20121114.161216	20121114.161404	single-task	8	0.013328	60	0	60-180	60	122	NoGap	1	19	2	6	0	distractor	1	588	706	12671	13.329	8.968	17.702
TrackDT02	1	TrackDT	2.0	SCS215a	20121114.161216	20121114.161410	single-task	8	0.013328	60	0	60-180	60	96	NoGap	1	20	2	0	0	distractor	1	474	763	13434	13.328	13.308	13.350
TrackDT02	1	TrackDT	2.0	SCS215a	20121114.161216	20121114.161415	single-task	8	0.013328	60	0	60-180	60	177	NoGap	1	21	2	0	1	target	1	329	836	14270	13.328	12.297	14.362
TrackDT02	1	TrackDT	2.0	SCS215a	20121114.161216	20121114.161421	single-task	8	0.013328	60	0	60-180	60	127	NoGap	1	22	2	30	1	target	1	468	766	15036	13.328	13.307	13.354
TrackDT02	1	TrackDT	2.0	SCS215a	20121114.161216	20121114.161427	single-task	8	0.013328	60	0	60-180	60	69	NoGap	1	23	2	6	0	distractor	1	465	768	15804	13.328	13.085	13.552
TrackDT02	1	TrackDT	2.0	SCS215a	20121114.161216	20121114.161432	single-task	8	0.013328	60	0	60-180	60	73	NoGap	1	24	2	6	1	target	1	487	757	16561	13.328	13.299	13.357
TrackDT02	1	TrackDT	2.0	SCS215a	20121114.161216	20121114.161436	single-task	8	0.013328	60	0	60-180	60	116	NoGap	1	25	2	0	1	distractor	0	448	-1000	15561	13.328	13.310	13.350
TrackDT02	1	TrackDT	2.0	SCS215a	20121114.161216	20121114.161442	single-task	8	0.013328	60	0	60-180	60	90	NoGap	1	26	2	30	0	target	0	585	-1000	14561	13.328	9.510	17.141
TrackDT02	1	TrackDT	2.0	SCS215a	20121114.161216	20121114.161448	single-task	8	0.013328	60	0	60-180	60	127	NoGap	1	27	2	1	1	target	1	553	724	15285	13.328	13.086	13.559
TrackDT02	1	TrackDT	2.0	SCS215a	20121114.161216	20121114.161453	single-task	8	0.013328	60	0	60-180	60	161	NoGap	1	28	2	3	0	distractor	1	575	713	15998	13.328	13.100	13.557
TrackDT02	1	TrackDT	2.0	SCS215a	20121114.161216	20121114.161500	single-task	8	0.013328	60	0	60-180	60	132	NoGap	1	29	2	3	0	distractor	1	533	734	16732	13.328	13.112	13.545
TrackDT02	1	TrackDT	2.0	SCS215a	20121114.161216	20121114.161505	single-task	8	0.013328	60	0	60-180	60	96	NoGap	1	30	2	6	1	distractor	0	667	-1000	15732	13.328	13.307	13.357
TrackDT02	1	TrackDT	2.0	SCS215a	20121114.161216	20121114.161511	single-task	8	0.013328	60	0	60-180	60	121	NoGap	1	31	2	6	1	target	1	377	812	16544	13.328	10.207	16.439
TrackDT02	1	TrackDT	2.0	SCS215a	20121114.161216	20121114.161517	single-task	8	0.013328	60	0	60-180	60	141	NoGap	1	32	2	3	1	target	1	483	759	17303	13.328	11.932	14.733
TrackDT02	1	TrackDT	2.0	SCS215a	20121114.161216	20121114.161522	single-task	8	0.013328	60	0	60-180	60	164	NoGap	1	33	2	30	1	target	1	375	813	18116	13.328	12.351	14.312
TrackDT02	1	TrackDT	2.0	SCS215a	20121114.161216	20121114.161529	single-task	8	0.013328	60	0	60-180	60	150	NoGap	1	34	2	0	0	distractor	1	593	704	18820	13.328	13.080	13.570
TrackDT02	1	TrackDT	2.0	SCS215a	20121114.161216	20121114.161534	single-task	8	0.013328	60	0	60-180	60	77	NoGap	1	35	2	3	1	target	1	443	779	19599	13.328	13.307	13.349
TrackDT02	1	TrackDT	2.0	SCS215a	20121114.161216	20121114.161539	single-task	8	0.013328	60	0	60-180	60	125	NoGap	1	36	2	1	0	distractor	1	491	755	20354	13.328	13.309	13.359
TrackDT02	1	TrackDT	2.0	SCS215a	20121114.161216	20121114.161545	single-task	8	0.013328	60	0	60-180	60	153	NoGap	1	37	2	1	1	target	1	445	778	21132	13.328	12.837	13.813
TrackDT02	1	TrackDT	2.0	SCS215a	20121114.161216	20121114.161551	single-task	8	0.013328	60	0	60-180	60	74	NoGap	1	38	2	30	0	distractor	1	331	835	21967	13.328	8.948	17.718
TrackDT02	1	TrackDT	2.0	SCS215a	20121114.161216	20121114.161556	single-task	8	0.013328	60	0	60-180	60	80	NoGap	1	39	2	1	0	distractor	1	499	751	22718	13.328	11.792	14.867
TrackDT02	1	TrackDT	2.0	SCS215a	20121114.161216	20121114.161601	single-task	8	0.013328	60	0	60-180	60	119	NoGap	1	40	2	1	0	distractor	1	531	735	23453	13.328	13.140	13.489
TrackDT02	1	TrackDT	2.0	SCS215a	20121114.161216	20121114.161607	single-task	8	0.013328	60	0	60-180	60	86	NoGap	1	41	2	3	0	distractor	1	516	742	24195	13.328	7.340	19.322
TrackDT02	1	TrackDT	2.0	SCS215a	20121114.161216	20121114.161612	single-task	8	0.013328	60	0	60-180	60	63	NoGap	1	42	2	30	0	distractor	1	452	774	24969	13.328	12.817	13.845
TrackDT02	1	TrackDT	2.0	SCS215a	20121114.161216	20121114.161617	single-task	8	0.013328	60	0	60-180	60	88	NoGap	1	43	2	3	0	target	0	752	-1000	23969	13.328	13.128	13.530
TrackDT02	1	TrackDT	2.0	SCS215a	20121114.161216	20121114.161622	single-task	8	0.013328	60	0	60-180	60	121	NoGap	1	44	2	3	1	target	1	576	712	24681	13.328	13.302	13.355
TrackDT02	1	TrackDT	2.0	SCS215a	20121114.161216	20121114.161628	single-task	8	0.013328	60	0	60-180	60	155	NoGap	1	45	2	0	0	distractor	1	513	744	25425	13.328	13.293	13.376
TrackDT02	1	TrackDT	2.0	SCS215a	20121114.161216	20121114.161634	single-task	8	0.013328	60	0	60-180	60	145	NoGap	1	46	2	3	1	target	1	407	797	26222	13.328	13.219	13.456
TrackDT02	1	TrackDT	2.0	SCS215a	20121114.161216	20121114.161640	single-task	8	0.013328	60	0	60-180	60	62	NoGap	1	47	2	30	1	target	1	551	725	26947	13.328	11.203	15.441
TrackDT02	1	TrackDT	2.0	SCS215a	20121114.161216	20121114.161645	single-task	8	0.013328	60	0	60-180	60	161	NoGap	1	48	2	6	0	distractor	1	506	747	27694	13.328	7.518	19.138
TrackDT02	1	TrackDT	2.0	SCS215a	20121114.161216	20121114.161651	single-task	8	0.013328	60	0	60-180	60	81	NoGap	1	49	2	0	1	target	1	511	745	28439	13.328	10.275	16.531
TrackDT02	1	TrackDT	2.0	SCS215a	20121114.161216	20121114.161656	single-task	8	0.013328	60	0	60-180	60	94	NoGap	1	50	2	0	0	distractor	1	561	720	29159	13.391	5.800	24.469
TrackDT02	1	TrackDT	2.0	SCS215a	20121114.161943	20121114.161949	single-task	8	0.013328	60	10	60-180	60	62	GapPrac	1	1	2	1	1	target	1	2956	0	29159	13.328	13.307	13.350
TrackDT02	1	TrackDT	2.0	SCS215a	20121114.161943	20121114.161957	single-task	8	0.013328	60	10	60-180	60	129	GapPrac	1	2	2	6	1	target	1	1100	450	29609	13.328	12.860	13.805
TrackDT02	1	TrackDT	2.0	SCS215a	20121114.161943	20121114.162004	single-task	8	0.013328	60	10	60-180	60	131	GapPrac	1	3	2	0	0	target	0	807	-1000	28609	13.328	12.862	13.802
TrackDT02	1	TrackDT	2.0	SCS215a	20121114.161943	20121114.162010	single-task	8	0.013328	60	10	60-180	60	80	GapPrac	1	4	2	0	1	target	1	561	720	29329	13.328	13.044	13.616
TrackDT02	1	TrackDT	2.0	SCS215a	20121114.161943	20121114.162015	single-task	8	0.013328	60	10	60-180	60	83	GapPrac	1	5	2	30	1	target	1	482	759	30088	13.328	12.884	13.790
TrackDT02	1	TrackDT	2.0	SCS215a	20121114.161943	20121114.162021	single-task	8	0.013328	60	10	60-180	60	122	GapPrac	1	6	2	6	1	target	1	425	788	30876	13.328	13.105	13.548
TrackDT02	1	TrackDT	2.0	SCS215a	20121114.161943	20121114.162026	single-task	8	0.013328	60	10	60-180	60	139	GapPrac	1	7	2	3	1	target	1	397	802	31678	13.328	13.013	13.654
TrackDT02	1	TrackDT	2.0	SCS215a	20121114.161943	20121114.162032	single-task	8	0.013328	60	10	60-180	60	154	GapPrac	1	8	2	1	0	distractor	1	477	762	32440	13.328	13.288	13.357
TrackDT02	1	TrackDT	2.0	SCS215a	20121114.161943	20121114.162039	single-task	8	0.013328	60	10	60-180	60	85	GapPrac	1	9	2	3	1	target	1	415	793	33233	13.328	13.307	13.350
TrackDT02	1	TrackDT	2.0	SCS215a	20121114.161943	20121114.162044	single-task	8	0.013328	60	10	60-180	60	149	GapPrac	1	10	2	1	1	target	1	480	760	33993	13.328	12.841	13.819
TrackDT02	1	TrackDT	2.0	SCS215a	20121114.161943	20121114.162050	single-task	8	0.013328	60	10	60-180	60	121	GapPrac	1	11	2	30	0	distractor	1	508	746	34739	13.328	12.861	13.790
TrackDT02	1	TrackDT	2.0	SCS215a	20121114.161943	20121114.162056	single-task	8	0.013328	60	10	60-180	60	90	GapPrac	1	12	2	30	1	target	1	516	742	35481	13.328	13.129	13.518
TrackDT02	1	TrackDT	2.0	SCS215a	20121114.161943	20121114.162101	single-task	8	0.013328	60	10	60-180	60	177	GapPrac	1	13	2	3	0	distractor	1	535	733	36214	13.328	12.869	13.803
TrackDT02	1	TrackDT	2.0	SCS215a	20121114.161943	20121114.162108	single-task	8	0.013328	60	10	60-180	60	109	GapPrac	1	14	2	6	0	distractor	1	534	733	36947	13.328	13.307	13.356
TrackDT02	1	TrackDT	2.0	SCS215a	20121114.161943	20121114.162114	single-task	8	0.013328	60	10	60-180	60	90	GapPrac	1	15	2	0	0	distractor	1	573	714	37661	13.328	12.930	13.713
TrackDT02	1	TrackDT	2.0	SCS215a	20121114.161943	20121114.162119	single-task	8	0.013328	60	10	60-180	60	139	GapPrac	1	16	2	0	1	target	1	472	764	38425	13.328	13.063	13.601
TrackDT02	1	TrackDT	2.0	SCS215a	20121114.161943	20121114.162125	single-task	8	0.013328	60	10	60-180	60	99	GapPrac	1	17	2	1	0	target	0	613	-1000	37425	13.328	13.085	13.558
TrackDT02	1	TrackDT	2.0	SCS215a	20121114.161943	20121114.162130	single-task	8	0.013328	60	10	60-180	60	116	GapPrac	1	18	2	6	0	distractor	1	448	776	38201	13.328	13.307	13.345
TrackDT02	1	TrackDT	2.0	SCS215a	20121114.161943	20121114.162136	single-task	8	0.013328	60	10	60-180	60	113	GapPrac	1	19	2	30	0	distractor	1	645	678	38879	13.328	13.304	13.356
TrackDT02	1	TrackDT	2.0	SCS215a	20121114.161943	20121114.162142	single-task	8	0.013328	60	10	60-180	60	145	GapPrac	1	20	2	3	0	distractor	1	558	721	39600	13.328	13.176	13.477
TrackDT02	1	TrackDT	2.0	SCS215a	20121114.162221	20121114.162257	single-task	8	0.013328	60	10	60-180	60	162	GapExp	1	1	2	6	1	target	1	359	821	40421	13.375	3.848	26.644
TrackDT02	1	TrackDT	2.0	SCS215a	20121114.162221	20121114.162304	single-task	8	0.013328	60	10	60-180	60	71	GapExp	1	2	2	30	1	target	1	371	815	41236	13.328	13.093	13.556
TrackDT02	1	TrackDT	2.0	SCS215a	20121114.162221	20121114.162309	single-task	8	0.013328	60	10	60-180	60	117	GapExp	1	3	2	1	1	target	1	528	736	41972	13.328	9.418	17.244
TrackDT02	1	TrackDT	2.0	SCS215a	20121114.162221	20121114.162315	single-task	8	0.013328	60	10	60-180	60	151	GapExp	1	4	2	6	0	distractor	1	412	794	42766	13.328	8.889	17.754
TrackDT02	1	TrackDT	2.0	SCS215a	20121114.162221	20121114.162321	single-task	8	0.013328	60	10	60-180	60	124	GapExp	1	5	2	30	0	distractor	1	442	779	43545	13.328	12.979	13.669
TrackDT02	1	TrackDT	2.0	SCS215a	20121114.162221	20121114.162327	single-task	8	0.013328	60	10	60-180	60	107	GapExp	1	6	2	3	0	target	0	446	-1000	42545	13.603	2.435	43.142
TrackDT02	1	TrackDT	2.0	SCS215a	20121114.162221	20121114.162332	single-task	8	0.013328	60	10	60-180	60	148	GapExp	1	7	2	0	0	distractor	1	714	643	43188	13.699	5.942	57.064
TrackDT02	1	TrackDT	2.0	SCS215a	20121114.162221	20121114.162339	single-task	8	0.013328	60	10	60-180	60	72	GapExp	1	8	2	3	1	distractor	0	503	-1000	42188	13.328	11.395	15.253
TrackDT02	1	TrackDT	2.0	SCS215a	20121114.162221	20121114.162344	single-task	8	0.013328	60	10	60-180	60	101	GapExp	1	9	2	1	0	target	0	518	-1000	41188	13.446	2.770	27.748
TrackDT02	1	TrackDT	2.0	SCS215a	20121114.162221	20121114.162350	single-task	8	0.013328	60	10	60-180	60	74	GapExp	1	10	2	0	1	target	1	466	767	41955	13.328	4.677	21.992
TrackDT02	1	TrackDT	2.0	SCS215a	20121114.162221	20121114.162355	single-task	8	0.013328	60	10	60-180	60	114	GapExp	0	11	2	6	0	distractor	1	471	765	42720	14.236	2.606	37.349
TrackDT02	1	TrackDT	2.0	SCS215a	20121114.162221	20121114.162400	single-task	8	0.013328	60	10	60-180	60	75	GapExp	0	12	2	6	1	target	1	360	820	43540	13.949	3.799	48.227
TrackDT02	1	TrackDT	2.0	SCS215a	20121114.162221	20121114.162405	single-task	8	0.013328	60	10	60-180	60	89	GapExp	0	13	2	1	1	target	1	399	801	44341	13.588	4.490	40.779
TrackDT02	1	TrackDT	2.0	SCS215a	20121114.162221	20121114.162411	single-task	8	0.013328	60	10	60-180	60	96	GapExp	0	14	2	3	0	distractor	1	508	746	45087	13.328	13.092	13.554
TrackDT02	1	TrackDT	2.0	SCS215a	20121114.162221	20121114.162416	single-task	8	0.013328	60	10	60-180	60	140	GapExp	0	15	2	30	1	distractor	0	560	-1000	44087	13.328	13.252	13.397
TrackDT02	1	TrackDT	2.0	SCS215a	20121114.162221	20121114.162423	single-task	8	0.013328	60	10	60-180	60	100	GapExp	0	16	2	0	1	target	1	356	822	44909	13.328	13.304	13.356
TrackDT02	1	TrackDT	2.0	SCS215a	20121114.162221	20121114.162428	single-task	8	0.013328	60	10	60-180	60	95	GapExp	0	17	2	3	1	target	1	229	886	45795	13.328	13.093	13.562
TrackDT02	1	TrackDT	2.0	SCS215a	20121114.162221	20121114.162433	single-task	8	0.013328	60	10	60-180	60	153	GapExp	0	18	2	6	0	distractor	1	617	692	46487	13.328	13.104	13.553
TrackDT02	1	TrackDT	2.0	SCS215a	20121114.162221	20121114.162439	single-task	8	0.013328	60	10	60-180	60	147	GapExp	0	19	2	3	0	distractor	1	434	783	47270	13.328	11.305	15.355
TrackDT02	1	TrackDT	2.0	SCS215a	20121114.162221	20121114.162445	single-task	8	0.013328	60	10	60-180	60	95	GapExp	0	20	2	0	0	target	0	422	-1000	46270	13.328	7.814	18.850
TrackDT02	1	TrackDT	2.0	SCS215a	20121114.162221	20121114.162451	single-task	8	0.013328	60	10	60-180	60	148	GapExp	0	21	2	6	0	distractor	1	581	710	46980	13.328	7.932	18.724
TrackDT02	1	TrackDT	2.0	SCS215a	20121114.162221	20121114.162457	single-task	8	0.013328	60	10	60-180	60	70	GapExp	0	22	2	30	0	target	0	527	-1000	45980	13.328	3.735	22.908
TrackDT02	1	TrackDT	2.0	SCS215a	20121114.162221	20121114.162502	single-task	8	0.013328	60	10	60-180	60	96	GapExp	0	23	2	3	0	distractor	1	594	703	46683	13.333	10.396	16.247
TrackDT02	1	TrackDT	2.0	SCS215a	20121114.162221	20121114.162507	single-task	8	0.013328	60	10	60-180	60	149	GapExp	0	24	2	6	1	target	1	389	806	47489	13.328	10.520	16.129
TrackDT02	1	TrackDT	2.0	SCS215a	20121114.162221	20121114.162513	single-task	8	0.013328	60	10	60-180	60	174	GapExp	0	25	2	0	1	target	1	347	827	48316	13.328	11.312	15.350
TrackDT02	1	TrackDT	2.0	SCS215a	20121114.162221	20121114.162520	single-task	8	0.013328	60	10	60-180	60	139	GapExp	0	26	2	1	0	distractor	1	459	771	49087	13.328	12.828	13.828
TrackDT02	1	TrackDT	2.0	SCS215a	20121114.162221	20121114.162526	single-task	8	0.013328	60	10	60-180	60	128	GapExp	0	27	2	6	1	target	1	342	829	49916	13.328	8.870	17.781
TrackDT02	1	TrackDT	2.0	SCS215a	20121114.162221	20121114.162532	single-task	8	0.013328	60	10	60-180	60	111	GapExp	0	28	2	3	1	target	1	349	826	50742	13.328	12.089	14.572
TrackDT02	1	TrackDT	2.0	SCS215a	20121114.162221	20121114.162537	single-task	8	0.013328	60	10	60-180	60	149	GapExp	0	29	2	30	0	distractor	1	506	747	51489	13.328	11.095	15.567
TrackDT02	1	TrackDT	2.0	SCS215a	20121114.162221	20121114.162543	single-task	8	0.013328	60	10	60-180	60	69	GapExp	0	30	2	6	0	target	0	589	-1000	50489	13.328	13.304	13.355
TrackDT02	1	TrackDT	2.0	SCS215a	20121114.162221	20121114.162548	single-task	8	0.013328	60	10	60-180	60	168	GapExp	0	31	2	30	0	distractor	1	572	714	51203	13.328	13.028	13.628
TrackDT02	1	TrackDT	2.0	SCS215a	20121114.162221	20121114.162556	single-task	8	0.013328	60	10	60-180	60	120	GapExp	0	32	2	0	0	distractor	1	573	714	51917	13.328	13.307	13.347
TrackDT02	1	TrackDT	2.0	SCS215a	20121114.162221	20121114.162601	single-task	8	0.013328	60	10	60-180	60	127	GapExp	0	33	2	1	0	distractor	1	592	704	52621	13.328	13.309	13.354
TrackDT02	1	TrackDT	2.0	SCS215a	20121114.162221	20121114.162607	single-task	8	0.013328	60	10	60-180	60	99	GapExp	0	34	2	6	0	distractor	1	536	732	53353	13.328	13.045	13.612
TrackDT02	1	TrackDT	2.0	SCS215a	20121114.162221	20121114.162612	single-task	8	0.013328	60	10	60-180	60	81	GapExp	0	35	2	3	0	distractor	1	478	761	54114	13.328	13.102	13.548
TrackDT02	1	TrackDT	2.0	SCS215a	20121114.162221	20121114.162618	single-task	8	0.013328	60	10	60-180	60	126	GapExp	0	36	2	1	1	target	1	389	806	54920	13.328	13.085	13.570
TrackDT02	1	TrackDT	2.0	SCS215a	20121114.162221	20121114.162623	single-task	8	0.013328	60	10	60-180	60	105	GapExp	0	37	2	3	1	target	1	372	814	55734	13.328	13.305	13.361
TrackDT02	1	TrackDT	2.0	SCS215a	20121114.162221	20121114.162629	single-task	8	0.013328	60	10	60-180	60	155	GapExp	0	38	2	0	0	target	0	545	-1000	54734	13.328	13.310	13.353
TrackDT02	1	TrackDT	2.0	SCS215a	20121114.162221	20121114.162635	single-task	8	0.013328	60	10	60-180	60	114	GapExp	0	39	2	1	1	target	1	377	812	55546	13.328	13.101	13.551
TrackDT02	1	TrackDT	2.0	SCS215a	20121114.162221	20121114.162640	single-task	8	0.013328	60	10	60-180	60	177	GapExp	0	40	2	3	0	distractor	1	408	796	56342	13.328	8.166	18.478
TrackDT02	1	TrackDT	2.0	SCS215a	20121114.162221	20121114.162647	single-task	8	0.013328	60	10	60-180	60	63	GapExp	0	41	2	6	1	target	1	447	777	57119	13.328	13.132	13.523
TrackDT02	1	TrackDT	2.0	SCS215a	20121114.162221	20121114.162652	single-task	8	0.013328	60	10	60-180	60	81	GapExp	0	42	2	6	0	distractor	1	586	707	57826	13.328	13.308	13.347
TrackDT02	1	TrackDT	2.0	SCS215a	20121114.162221	20121114.162657	single-task	8	0.013328	60	10	60-180	60	80	GapExp	0	43	2	6	0	distractor	1	420	790	58616	13.394	10.073	26.789
TrackDT02	1	TrackDT	2.0	SCS215a	20121114.162221	20121114.162702	single-task	8	0.013328	60	10	60-180	60	108	GapExp	0	44	2	30	0	distractor	1	553	724	59340	13.328	10.054	16.602
TrackDT02	1	TrackDT	2.0	SCS215a	20121114.162221	20121114.162708	single-task	8	0.013328	60	10	60-180	60	133	GapExp	0	45	2	0	0	target	0	625	-1000	58340	13.328	12.198	14.472
TrackDT02	1	TrackDT	2.0	SCS215a	20121114.162221	20121114.162714	single-task	8	0.013328	60	10	60-180	60	133	GapExp	0	46	2	0	0	distractor	1	528	736	59076	13.328	13.106	13.552
TrackDT02	1	TrackDT	2.0	SCS215a	20121114.162221	20121114.162720	single-task	8	0.013328	60	10	60-180	60	107	GapExp	0	47	2	3	0	target	0	545	-1000	58076	13.328	13.308	13.349
TrackDT02	1	TrackDT	2.0	SCS215a	20121114.162221	20121114.162725	single-task	8	0.013328	60	10	60-180	60	82	GapExp	0	48	2	0	0	distractor	1	599	701	58777	13.328	5.627	21.029
TrackDT02	1	TrackDT	2.0	SCS215a	20121114.162221	20121114.162731	single-task	8	0.013328	60	10	60-180	60	120	GapExp	0	49	2	3	1	target	1	342	829	59606	13.328	13.107	13.551
TrackDT02	1	TrackDT	2.0	SCS215a	20121114.162221	20121114.162737	single-task	8	0.013328	60	10	60-180	60	107	GapExp	0	50	2	30	1	distractor	0	486	-1000	58606	13.328	12.889	13.780
TrackDT02	1	TrackDT	2.0	SCS215a	20121114.162221	20121114.162753	single-task	8	0.013328	60	10	60-180	60	164	GapExp	0	51	2	30	0	distractor	1	554	723	59329	13.328	13.308	13.348
TrackDT02	1	TrackDT	2.0	SCS215a	20121114.162221	20121114.162759	single-task	8	0.013328	60	10	60-180	60	119	GapExp	0	52	2	0	1	target	1	530	735	60064	13.326	12.885	13.668
TrackDT02	1	TrackDT	2.0	SCS215a	20121114.162221	20121114.162805	single-task	8	0.013328	60	10	60-180	60	136	GapExp	0	53	2	1	1	target	1	424	788	60852	13.328	7.592	19.081
TrackDT02	1	TrackDT	2.0	SCS215a	20121114.162221	20121114.162811	single-task	8	0.013328	60	10	60-180	60	178	GapExp	0	54	2	3	1	target	1	403	799	61651	13.328	12.181	14.493
TrackDT02	1	TrackDT	2.0	SCS215a	20121114.162221	20121114.162817	single-task	8	0.013328	60	10	60-180	60	103	GapExp	0	55	2	30	1	target	1	425	788	62439	13.328	13.088	13.557
TrackDT02	1	TrackDT	2.0	SCS215a	20121114.162221	20121114.162823	single-task	8	0.013328	60	10	60-180	60	178	GapExp	0	56	2	0	1	distractor	0	509	-1000	61439	13.328	13.307	13.353
TrackDT02	1	TrackDT	2.0	SCS215a	20121114.162221	20121114.162829	single-task	8	0.013328	60	10	60-180	60	124	GapExp	0	57	2	1	0	distractor	1	1024	488	61927	13.328	8.895	17.775
TrackDT02	1	TrackDT	2.0	SCS215a	20121114.162221	20121114.162836	single-task	8	0.013328	60	10	60-180	60	177	GapExp	0	58	2	30	1	target	1	699	651	62578	13.328	11.296	15.365
TrackDT02	1	TrackDT	2.0	SCS215a	20121114.162221	20121114.162843	single-task	8	0.013328	60	10	60-180	60	83	GapExp	0	59	2	30	1	target	1	527	737	63315	13.328	12.273	14.411
TrackDT02	1	TrackDT	2.0	SCS215a	20121114.162221	20121114.162849	single-task	8	0.013328	60	10	60-180	60	67	GapExp	0	60	2	6	0	distractor	1	514	743	64058	13.328	13.302	13.354
TrackDT02	1	TrackDT	2.0	SCS215a	20121114.162221	20121114.162854	single-task	8	0.013328	60	10	60-180	60	95	GapExp	0	61	2	0	1	target	1	533	734	64792	13.328	10.839	15.820
TrackDT02	1	TrackDT	2.0	SCS215a	20121114.162221	20121114.162859	single-task	8	0.013328	60	10	60-180	60	91	GapExp	0	62	2	30	0	target	0	686	-1000	63792	13.329	13.305	13.551
TrackDT02	1	TrackDT	2.0	SCS215a	20121114.162221	20121114.162905	single-task	8	0.013328	60	10	60-180	60	102	GapExp	0	63	2	0	1	target	1	613	694	64486	13.328	11.323	15.331
TrackDT02	1	TrackDT	2.0	SCS215a	20121114.162221	20121114.162910	single-task	8	0.013328	60	10	60-180	60	84	GapExp	0	64	2	6	0	distractor	1	549	726	65212	13.328	13.307	13.348
TrackDT02	1	TrackDT	2.0	SCS215a	20121114.162221	20121114.162916	single-task	8	0.013328	60	10	60-180	60	177	GapExp	0	65	2	30	0	distractor	1	628	686	65898	13.328	13.097	13.560
TrackDT02	1	TrackDT	2.0	SCS215a	20121114.162221	20121114.162923	single-task	8	0.013328	60	10	60-180	60	163	GapExp	0	66	2	1	0	distractor	1	566	717	66615	13.328	12.768	13.901
TrackDT02	1	TrackDT	2.0	SCS215a	20121114.162221	20121114.162929	single-task	8	0.013328	60	10	60-180	60	80	GapExp	0	67	2	3	1	target	1	481	760	67375	13.328	13.095	13.559
TrackDT02	1	TrackDT	2.0	SCS215a	20121114.162221	20121114.162934	single-task	8	0.013328	60	10	60-180	60	84	GapExp	0	68	2	3	0	distractor	1	530	735	68110	13.328	13.303	13.351
TrackDT02	1	TrackDT	2.0	SCS215a	20121114.162221	20121114.162939	single-task	8	0.013328	60	10	60-180	60	148	GapExp	0	69	2	6	0	distractor	1	765	618	68728	13.328	10.791	15.859
TrackDT02	1	TrackDT	2.0	SCS215a	20121114.162221	20121114.162945	single-task	8	0.013328	60	10	60-180	60	120	GapExp	0	70	2	6	1	target	1	374	813	69541	13.328	13.293	13.351
TrackDT02	1	TrackDT	2.0	SCS215a	20121114.162221	20121114.162951	single-task	8	0.013328	60	10	60-180	60	167	GapExp	0	71	2	1	0	distractor	1	534	733	70274	13.328	13.307	13.352
TrackDT02	1	TrackDT	2.0	SCS215a	20121114.162221	20121114.162958	single-task	8	0.013328	60	10	60-180	60	106	GapExp	0	72	2	0	0	distractor	1	435	783	71057	13.328	12.806	13.842
TrackDT02	1	TrackDT	2.0	SCS215a	20121114.162221	20121114.163003	single-task	8	0.013328	60	10	60-180	60	96	GapExp	0	73	2	30	1	target	1	540	730	71787	13.328	11.987	14.662
TrackDT02	1	TrackDT	2.0	SCS215a	20121114.162221	20121114.163009	single-task	8	0.013328	60	10	60-180	60	173	GapExp	0	74	2	1	1	target	1	505	748	72535	13.328	13.102	13.543
TrackDT02	1	TrackDT	2.0	SCS215a	20121114.162221	20121114.163015	single-task	8	0.013328	60	10	60-180	60	165	GapExp	0	75	2	0	1	target	1	503	749	73284	13.328	11.018	15.632
TrackDT02	1	TrackDT	2.0	SCS215a	20121114.162221	20121114.163022	single-task	8	0.013328	60	10	60-180	60	133	GapExp	0	76	2	1	1	target	1	468	766	74050	13.328	13.308	13.348
TrackDT02	1	TrackDT	2.0	SCS215a	20121114.162221	20121114.163027	single-task	8	0.013328	60	10	60-180	60	165	GapExp	0	77	2	30	1	target	1	348	826	74876	13.328	6.186	20.460
TrackDT02	1	TrackDT	2.0	SCS215a	20121114.162221	20121114.163034	single-task	8	0.013328	60	10	60-180	60	62	GapExp	0	78	2	30	1	target	1	423	789	75665	13.328	13.304	13.351
TrackDT02	1	TrackDT	2.0	SCS215a	20121114.162221	20121114.163039	single-task	8	0.013328	60	10	60-180	60	170	GapExp	0	79	2	6	0	distractor	1	495	753	76418	13.328	8.958	17.706
TrackDT02	1	TrackDT	2.0	SCS215a	20121114.162221	20121114.163045	single-task	8	0.013328	60	10	60-180	60	62	GapExp	0	80	2	1	0	distractor	1	739	631	77049	13.328	10.579	16.072
TrackDT02	1	TrackDT	2.0	SCS215a	20121114.162221	20121114.163050	single-task	8	0.013328	60	10	60-180	60	135	GapExp	0	81	2	30	1	distractor	0	454	-1000	76049	13.328	8.754	17.908
TrackDT02	1	TrackDT	2.0	SCS215a	20121114.162221	20121114.163057	single-task	8	0.013328	60	10	60-180	60	106	GapExp	0	82	2	0	0	distractor	1	758	621	76670	13.328	13.097	13.544
TrackDT02	1	TrackDT	2.0	SCS215a	20121114.162221	20121114.163103	single-task	8	0.013328	60	10	60-180	60	136	GapExp	0	83	2	0	0	target	0	390	-1000	75670	13.328	12.101	14.555
TrackDT02	1	TrackDT	2.0	SCS215a	20121114.162221	20121114.163108	single-task	8	0.013328	60	10	60-180	60	88	GapExp	0	84	2	0	0	distractor	1	527	737	76407	13.328	13.100	13.553
TrackDT02	1	TrackDT	2.0	SCS215a	20121114.162221	20121114.163113	single-task	8	0.013328	60	10	60-180	60	159	GapExp	0	85	2	6	1	target	1	467	767	77174	13.328	7.056	19.598
TrackDT02	1	TrackDT	2.0	SCS215a	20121114.162221	20121114.163120	single-task	8	0.013328	60	10	60-180	60	75	GapExp	0	86	2	3	1	target	1	404	798	77972	13.328	13.310	13.350
TrackDT02	1	TrackDT	2.0	SCS215a	20121114.162221	20121114.163124	single-task	8	0.013328	60	10	60-180	60	90	GapExp	0	87	2	0	1	target	1	357	822	78794	13.328	13.308	13.348
TrackDT02	1	TrackDT	2.0	SCS215a	20121114.162221	20121114.163130	single-task	8	0.013328	60	10	60-180	60	171	GapExp	0	88	2	30	0	target	0	656	-1000	77794	13.328	10.425	16.231
TrackDT02	1	TrackDT	2.0	SCS215a	20121114.162221	20121114.163137	single-task	8	0.013328	60	10	60-180	60	101	GapExp	0	89	2	1	0	target	0	521	-1000	76794	13.328	13.276	13.379
TrackDT02	1	TrackDT	2.0	SCS215a	20121114.162221	20121114.163142	single-task	8	0.013328	60	10	60-180	60	111	GapExp	0	90	2	30	1	distractor	0	549	-1000	75794	13.328	11.001	15.649
TrackDT02	1	TrackDT	2.0	SCS215a	20121114.162221	20121114.163148	single-task	8	0.013328	60	10	60-180	60	103	GapExp	0	91	2	0	0	distractor	1	751	625	76419	13.328	13.106	13.565
TrackDT02	1	TrackDT	2.0	SCS215a	20121114.162221	20121114.163154	single-task	8	0.013328	60	10	60-180	60	94	GapExp	0	92	2	0	1	target	1	559	721	77140	13.328	13.310	13.355
TrackDT02	1	TrackDT	2.0	SCS215a	20121114.162221	20121114.163159	single-task	8	0.013328	60	10	60-180	60	141	GapExp	0	93	2	6	0	distractor	1	553	724	77864	13.328	13.308	13.349
TrackDT02	1	TrackDT	2.0	SCS215a	20121114.162221	20121114.163205	single-task	8	0.013328	60	10	60-180	60	70	GapExp	0	94	2	6	0	distractor	1	681	660	78524	13.328	13.308	13.359
TrackDT02	1	TrackDT	2.0	SCS215a	20121114.162221	20121114.163211	single-task	8	0.013328	60	10	60-180	60	66	GapExp	0	95	2	30	0	target	0	565	-1000	77524	13.328	7.807	18.834
TrackDT02	1	TrackDT	2.0	SCS215a	20121114.162221	20121114.163216	single-task	8	0.013328	60	10	60-180	60	114	GapExp	0	96	2	30	0	target	0	865	-1000	76524	13.328	12.168	14.481
TrackDT02	1	TrackDT	2.0	SCS215a	20121114.162221	20121114.163222	single-task	8	0.013328	60	10	60-180	60	154	GapExp	0	97	2	3	1	target	1	809	596	77120	13.328	7.299	19.372
TrackDT02	1	TrackDT	2.0	SCS215a	20121114.162221	20121114.163229	single-task	8	0.013328	60	10	60-180	60	100	GapExp	0	98	2	1	1	target	1	480	760	77880	13.328	11.260	15.395
TrackDT02	1	TrackDT	2.0	SCS215a	20121114.162221	20121114.163234	single-task	8	0.013328	60	10	60-180	60	111	GapExp	0	99	2	1	0	distractor	1	431	785	78665	13.328	13.202	13.469
TrackDT02	1	TrackDT	2.0	SCS215a	20121114.162221	20121114.163240	single-task	8	0.013328	60	10	60-180	60	130	GapExp	0	100	2	1	1	target	1	367	817	79482	13.328	13.307	13.348
TrackDT02	1	TrackDT	2.0	SCS215a	20121114.162221	20121114.163258	single-task	8	0.013328	60	10	60-180	60	97	GapExp	0	101	2	1	1	target	1	289	856	80338	13.328	13.309	13.347
TrackDT02	1	TrackDT	2.0	SCS215a	20121114.162221	20121114.163303	single-task	8	0.013328	60	10	60-180	60	161	GapExp	0	102	2	1	0	target	0	309	-1000	79338	13.328	12.853	13.806
TrackDT02	1	TrackDT	2.0	SCS215a	20121114.162221	20121114.163309	single-task	8	0.013328	60	10	60-180	60	96	GapExp	0	103	2	30	0	target	0	618	-1000	78338	13.328	13.309	13.349
TrackDT02	1	TrackDT	2.0	SCS215a	20121114.162221	20121114.163316	single-task	8	0.013328	60	10	60-180	60	97	GapExp	0	104	2	0	1	target	1	583	709	79047	13.328	13.304	13.359
TrackDT02	1	TrackDT	2.0	SCS215a	20121114.162221	20121114.163321	single-task	8	0.013328	60	10	60-180	60	98	GapExp	0	105	2	1	1	target	1	374	813	79860	13.328	13.115	13.551
TrackDT02	1	TrackDT	2.0	SCS215a	20121114.162221	20121114.163326	single-task	8	0.013328	60	10	60-180	60	122	GapExp	0	106	2	6	1	target	1	492	754	80614	13.328	13.099	13.542
TrackDT02	1	TrackDT	2.0	SCS215a	20121114.162221	20121114.163332	single-task	8	0.013328	60	10	60-180	60	88	GapExp	0	107	2	0	0	target	0	415	-1000	79614	13.328	11.772	14.905
TrackDT02	1	TrackDT	2.0	SCS215a	20121114.162221	20121114.163337	single-task	8	0.013328	60	10	60-180	60	62	GapExp	0	108	2	30	1	target	1	483	759	80373	13.328	13.307	13.348
TrackDT02	1	TrackDT	2.0	SCS215a	20121114.162221	20121114.163342	single-task	8	0.013328	60	10	60-180	60	166	GapExp	0	109	2	6	1	target	1	369	816	81189	13.328	13.094	13.565
TrackDT02	1	TrackDT	2.0	SCS215a	20121114.162221	20121114.163349	single-task	8	0.013328	60	10	60-180	60	125	GapExp	0	110	2	0	1	target	1	489	756	81945	13.328	13.105	13.552
TrackDT02	1	TrackDT	2.0	SCS215a	20121114.162221	20121114.163354	single-task	8	0.013328	60	10	60-180	60	94	GapExp	0	111	2	3	0	target	0	647	-1000	80945	13.328	4.733	21.923
TrackDT02	1	TrackDT	2.0	SCS215a	20121114.162221	20121114.163400	single-task	8	0.013328	60	10	60-180	60	63	GapExp	0	112	2	30	0	target	0	755	-1000	79945	13.328	12.588	14.080
TrackDT02	1	TrackDT	2.0	SCS215a	20121114.162221	20121114.163405	single-task	8	0.013328	60	10	60-180	60	95	GapExp	0	113	2	3	0	target	0	436	-1000	78945	13.328	10.293	16.363
TrackDT02	1	TrackDT	2.0	SCS215a	20121114.162221	20121114.163410	single-task	8	0.013328	60	10	60-180	60	143	GapExp	0	114	2	30	0	distractor	1	542	729	79674	13.328	13.299	13.351
TrackDT02	1	TrackDT	2.0	SCS215a	20121114.162221	20121114.163417	single-task	8	0.013328	60	10	60-180	60	70	GapExp	0	115	2	0	0	target	0	563	-1000	78674	13.328	7.360	19.304
TrackDT02	1	TrackDT	2.0	SCS215a	20121114.162221	20121114.163422	single-task	8	0.013328	60	10	60-180	60	179	GapExp	0	116	2	1	1	target	1	341	830	79504	13.328	12.988	13.676
TrackDT02	1	TrackDT	2.0	SCS215a	20121114.162221	20121114.163428	single-task	8	0.013328	60	10	60-180	60	177	GapExp	0	117	2	30	1	target	1	377	812	80316	13.328	13.093	13.560
TrackDT02	1	TrackDT	2.0	SCS215a	20121114.162221	20121114.163435	single-task	8	0.013328	60	10	60-180	60	106	GapExp	0	118	2	6	0	target	0	462	-1000	79316	13.328	13.306	13.349
TrackDT02	1	TrackDT	2.0	SCS215a	20121114.162221	20121114.163440	single-task	8	0.013328	60	10	60-180	60	132	GapExp	0	119	2	6	1	target	1	474	763	80079	13.328	9.268	17.397
TrackDT02	1	TrackDT	2.0	SCS215a	20121114.162221	20121114.163446	single-task	8	0.013328	60	10	60-180	60	134	GapExp	0	120	2	0	0	target	0	436	-1000	79079	13.328	13.307	13.349
TrackDT02	1	TrackDT	2.0	SCS215a	20121114.162221	20121114.163452	single-task	8	0.013328	60	10	60-180	60	74	GapExp	0	121	2	30	1	target	1	405	798	79877	13.328	11.158	15.492
TrackDT02	1	TrackDT	2.0	SCS215a	20121114.162221	20121114.163458	single-task	8	0.013328	60	10	60-180	60	103	GapExp	0	122	2	1	0	distractor	1	600	700	80577	13.328	13.094	13.550
TrackDT02	1	TrackDT	2.0	SCS215a	20121114.162221	20121114.163503	single-task	8	0.013328	60	10	60-180	60	71	GapExp	0	123	2	1	1	target	1	359	821	81398	13.328	13.308	13.352
TrackDT02	1	TrackDT	2.0	SCS215a	20121114.162221	20121114.163508	single-task	8	0.013328	60	10	60-180	60	180	GapExp	0	124	2	1	0	distractor	1	640	680	82078	13.328	13.297	13.355
TrackDT02	1	TrackDT	2.0	SCS215a	20121114.162221	20121114.163515	single-task	8	0.013328	60	10	60-180	60	119	GapExp	0	125	2	1	1	target	1	387	807	82885	13.328	13.190	13.464
TrackDT02	1	TrackDT	2.0	SCS215a	20121114.162221	20121114.163520	single-task	8	0.013328	60	10	60-180	60	121	GapExp	0	126	2	3	1	target	1	472	764	83649	13.328	13.062	13.591
TrackDT02	1	TrackDT	2.0	SCS215a	20121114.162221	20121114.163526	single-task	8	0.013328	60	10	60-180	60	101	GapExp	0	127	2	3	0	distractor	1	512	744	84393	13.328	11.058	15.550
TrackDT02	1	TrackDT	2.0	SCS215a	20121114.162221	20121114.163531	single-task	8	0.013328	60	10	60-180	60	91	GapExp	0	128	2	3	0	distractor	1	818	591	84984	13.328	12.509	14.166
TrackDT02	1	TrackDT	2.0	SCS215a	20121114.162221	20121114.163537	single-task	8	0.013328	60	10	60-180	60	86	GapExp	0	129	2	3	0	target	0	1031	-1000	83984	13.328	12.186	14.485
TrackDT02	1	TrackDT	2.0	SCS215a	20121114.162221	20121114.163543	single-task	8	0.013328	60	10	60-180	60	119	GapExp	0	130	2	1	0	distractor	1	574	713	84697	13.328	13.308	13.348
TrackDT02	1	TrackDT	2.0	SCS215a	20121114.162221	20121114.163548	single-task	8	0.013328	60	10	60-180	60	107	GapExp	0	131	2	3	1	target	1	407	797	85494	13.328	13.297	13.353
TrackDT02	1	TrackDT	2.0	SCS215a	20121114.162221	20121114.163554	single-task	8	0.013328	60	10	60-180	60	76	GapExp	0	132	2	30	1	target	1	398	801	86295	13.328	13.115	13.540
TrackDT02	1	TrackDT	2.0	SCS215a	20121114.162221	20121114.163559	single-task	8	0.013328	60	10	60-180	60	160	GapExp	0	133	2	6	1	distractor	0	704	-1000	85295	13.328	13.093	13.558
TrackDT02	1	TrackDT	2.0	SCS215a	20121114.162221	20121114.163606	single-task	8	0.013328	60	10	60-180	60	161	GapExp	0	134	2	6	1	target	1	497	752	86047	13.328	13.093	13.561
TrackDT02	1	TrackDT	2.0	SCS215a	20121114.162221	20121114.163612	single-task	8	0.013328	60	10	60-180	60	172	GapExp	0	135	2	6	1	target	1	377	812	86859	13.328	13.307	13.351
TrackDT02	1	TrackDT	2.0	SCS215a	20121114.162221	20121114.163618	single-task	8	0.013328	60	10	60-180	60	80	GapExp	0	136	2	0	1	target	1	560	720	87579	13.328	13.306	13.349
TrackDT02	1	TrackDT	2.0	SCS215a	20121114.162221	20121114.163623	single-task	8	0.013328	60	10	60-180	60	100	GapExp	0	137	2	0	1	target	1	688	656	88235	13.328	8.556	18.101
TrackDT02	1	TrackDT	2.0	SCS215a	20121114.162221	20121114.163629	single-task	8	0.013328	60	10	60-180	60	92	GapExp	0	138	2	6	1	target	1	379	811	89046	13.328	6.979	19.659
TrackDT02	1	TrackDT	2.0	SCS215a	20121114.162221	20121114.163634	single-task	8	0.013328	60	10	60-180	60	113	GapExp	0	139	2	1	0	distractor	1	423	789	89835	13.328	9.380	17.274
TrackDT02	1	TrackDT	2.0	SCS215a	20121114.162221	20121114.163640	single-task	8	0.013328	60	10	60-180	60	120	GapExp	0	140	2	30	0	distractor	1	458	771	90606	13.328	3.460	23.203
TrackDT02	1	TrackDT	2.0	SCS215a	20121114.162221	20121114.163646	single-task	8	0.013328	60	10	60-180	60	90	GapExp	0	141	2	3	0	distractor	1	454	773	91379	13.328	9.282	18.779
TrackDT02	1	TrackDT	2.0	SCS215a	20121114.162221	20121114.163651	single-task	8	0.013328	60	10	60-180	60	64	GapExp	0	142	2	0	0	target	0	491	-1000	90379	13.328	11.905	15.693
TrackDT02	1	TrackDT	2.0	SCS215a	20121114.162221	20121114.163656	single-task	8	0.013328	60	10	60-180	60	93	GapExp	0	143	2	0	0	distractor	1	837	582	90961	13.384	6.931	26.435
TrackDT02	1	TrackDT	2.0	SCS215a	20121114.162221	20121114.163701	single-task	8	0.013328	60	10	60-180	60	104	GapExp	0	144	2	1	1	distractor	0	454	-1000	89961	13.328	9.312	17.359
TrackDT02	1	TrackDT	2.0	SCS215a	20121114.162221	20121114.163707	single-task	8	0.013328	60	10	60-180	60	127	GapExp	0	145	2	1	1	target	1	253	874	90835	13.328	13.304	13.359
TrackDT02	1	TrackDT	2.0	SCS215a	20121114.162221	20121114.163712	single-task	8	0.013328	60	10	60-180	60	139	GapExp	0	146	2	1	1	target	1	307	847	91682	13.328	13.308	13.349
TrackDT02	1	TrackDT	2.0	SCS215a	20121114.162221	20121114.163718	single-task	8	0.013328	60	10	60-180	60	109	GapExp	0	147	2	6	1	target	1	446	777	92459	13.328	12.014	14.636
TrackDT02	1	TrackDT	2.0	SCS215a	20121114.162221	20121114.163724	single-task	8	0.013328	60	10	60-180	60	65	GapExp	0	148	2	0	1	target	1	427	787	93246	13.328	9.275	17.387
TrackDT02	1	TrackDT	2.0	SCS215a	20121114.162221	20121114.163728	single-task	8	0.013328	60	10	60-180	60	78	GapExp	0	149	2	30	0	distractor	1	576	712	93958	13.328	13.309	13.345
TrackDT02	1	TrackDT	2.0	SCS215a	20121114.162221	20121114.163734	single-task	8	0.013328	60	10	60-180	60	78	GapExp	0	150	2	0	0	target	0	403	-1000	92958	13.328	13.297	13.353
TrackDT02	1	TrackDT	2.0	SCS215a	20121114.162221	20121114.163747	single-task	8	0.013328	60	10	60-180	60	119	GapExp	0	151	2	1	0	target	0	311	-1000	91958	13.328	13.097	13.550
TrackDT02	1	TrackDT	2.0	SCS215a	20121114.162221	20121114.163752	single-task	8	0.013328	60	10	60-180	60	102	GapExp	0	152	2	3	1	target	1	348	826	92784	13.328	13.095	13.570
TrackDT02	1	TrackDT	2.0	SCS215a	20121114.162221	20121114.163757	single-task	8	0.013328	60	10	60-180	60	90	GapExp	0	153	2	3	0	distractor	1	575	713	93497	13.328	13.309	13.345
TrackDT02	1	TrackDT	2.0	SCS215a	20121114.162221	20121114.163803	single-task	8	0.013328	60	10	60-180	60	74	GapExp	0	154	2	1	0	target	0	380	-1000	92497	13.328	12.117	14.546
TrackDT02	1	TrackDT	2.0	SCS215a	20121114.162221	20121114.163807	single-task	8	0.013328	60	10	60-180	60	110	GapExp	0	155	2	3	0	distractor	1	537	732	93229	13.328	13.097	13.549
TrackDT02	1	TrackDT	2.0	SCS215a	20121114.162221	20121114.163813	single-task	8	0.013328	60	10	60-180	60	118	GapExp	0	156	2	3	0	distractor	1	416	792	94021	13.328	13.093	13.545
TrackDT02	1	TrackDT	2.0	SCS215a	20121114.162221	20121114.163819	single-task	8	0.013328	60	10	60-180	60	94	GapExp	0	157	2	30	0	distractor	1	754	623	94644	13.328	13.087	13.558
TrackDT02	1	TrackDT	2.0	SCS215a	20121114.162221	20121114.163825	single-task	8	0.013328	60	10	60-180	60	178	GapExp	0	158	2	3	1	target	1	499	751	95395	13.328	13.308	13.350
TrackDT02	1	TrackDT	2.0	SCS215a	20121114.162221	20121114.163831	single-task	8	0.013328	60	10	60-180	60	86	GapExp	0	159	2	30	1	target	1	443	779	96174	13.328	12.823	13.824
TrackDT02	1	TrackDT	2.0	SCS215a	20121114.162221	20121114.163837	single-task	8	0.013328	60	10	60-180	60	147	GapExp	0	160	2	6	1	target	1	463	769	96943	13.328	13.310	13.347
TrackDT02	1	TrackDT	2.0	SCS215a	20121114.162221	20121114.163843	single-task	8	0.013328	60	10	60-180	60	149	GapExp	0	161	2	0	1	target	1	330	835	97778	13.328	13.094	13.565
TrackDT02	1	TrackDT	2.0	SCS215a	20121114.162221	20121114.163849	single-task	8	0.013328	60	10	60-180	60	158	GapExp	0	162	2	30	1	target	1	417	792	98570	13.328	13.100	13.544
TrackDT02	1	TrackDT	2.0	SCS215a	20121114.162221	20121114.163855	single-task	8	0.013328	60	10	60-180	60	61	GapExp	0	163	2	1	0	target	0	543	-1000	97570	13.328	12.834	13.817
TrackDT02	1	TrackDT	2.0	SCS215a	20121114.162221	20121114.163900	single-task	8	0.013328	60	10	60-180	60	62	GapExp	0	164	2	6	0	distractor	1	546	727	98297	13.328	10.232	16.418
TrackDT02	1	TrackDT	2.0	SCS215a	20121114.162221	20121114.163905	single-task	8	0.013328	60	10	60-180	60	109	GapExp	0	165	2	3	1	target	1	558	721	99018	13.328	13.298	13.354
TrackDT02	1	TrackDT	2.0	SCS215a	20121114.162221	20121114.163911	single-task	8	0.013328	60	10	60-180	60	106	GapExp	0	166	2	30	0	distractor	1	502	749	99767	13.328	12.989	13.656
TrackDT02	1	TrackDT	2.0	SCS215a	20121114.162221	20121114.163916	single-task	8	0.013328	60	10	60-180	60	137	GapExp	0	167	2	6	1	target	1	492	754	100521	13.328	11.841	14.805
TrackDT02	1	TrackDT	2.0	SCS215a	20121114.162221	20121114.163923	single-task	8	0.013328	60	10	60-180	60	176	GapExp	0	168	2	30	0	distractor	1	611	695	101216	13.328	10.184	16.463
TrackDT02	1	TrackDT	2.0	SCS215a	20121114.162221	20121114.163929	single-task	8	0.013328	60	10	60-180	60	167	GapExp	0	169	2	3	0	target	0	367	-1000	100216	13.328	10.236	16.420
TrackDT02	1	TrackDT	2.0	SCS215a	20121114.162221	20121114.163936	single-task	8	0.013328	60	10	60-180	60	138	GapExp	0	170	2	3	1	target	1	370	815	101031	13.328	11.829	14.813
TrackDT02	1	TrackDT	2.0	SCS215a	20121114.162221	20121114.163941	single-task	8	0.013328	60	10	60-180	60	125	GapExp	0	171	2	3	1	distractor	0	383	-1000	100031	13.328	13.119	13.525
TrackDT02	1	TrackDT	2.0	SCS215a	20121114.162221	20121114.163947	single-task	8	0.013328	60	10	60-180	60	142	GapExp	0	172	2	0	0	distractor	1	695	653	100684	13.328	7.520	19.115
TrackDT02	1	TrackDT	2.0	SCS215a	20121114.162221	20121114.163953	single-task	8	0.013328	60	10	60-180	60	139	GapExp	0	173	2	6	0	distractor	1	616	692	101376	13.328	13.303	13.353
TrackDT02	1	TrackDT	2.0	SCS215a	20121114.162221	20121114.163959	single-task	8	0.013328	60	10	60-180	60	174	GapExp	0	174	2	3	1	target	1	307	847	102223	13.328	12.038	14.618
TrackDT02	1	TrackDT	2.0	SCS215a	20121114.162221	20121114.164006	single-task	8	0.013328	60	10	60-180	60	177	GapExp	0	175	2	0	0	target	0	384	-1000	101223	13.328	13.097	13.555
TrackDT02	1	TrackDT	2.0	SCS215a	20121114.162221	20121114.164012	single-task	8	0.013328	60	10	60-180	60	71	GapExp	0	176	2	3	1	target	1	322	839	102062	13.328	11.786	14.939
TrackDT02	1	TrackDT	2.0	SCS215a	20121114.162221	20121114.164017	single-task	8	0.013328	60	10	60-180	60	118	GapExp	0	177	2	1	1	target	1	349	826	102888	13.328	13.072	13.585
TrackDT02	1	TrackDT	2.0	SCS215a	20121114.162221	20121114.164022	single-task	8	0.013328	60	10	60-180	60	86	GapExp	0	178	2	0	1	target	1	398	801	103689	13.328	13.089	13.556
TrackDT02	1	TrackDT	2.0	SCS215a	20121114.162221	20121114.164028	single-task	8	0.013328	60	10	60-180	60	71	GapExp	0	179	2	1	0	target	0	356	-1000	102689	13.328	10.981	15.688
TrackDT02	1	TrackDT	2.0	SCS215a	20121114.162221	20121114.164032	single-task	8	0.013328	60	10	60-180	60	143	GapExp	0	180	2	1	0	distractor	1	662	669	103358	13.328	13.101	13.545
TrackDT02	1	TrackDT	2.0	SCS215a	20121114.162221	20121114.164038	single-task	8	0.013328	60	10	60-180	60	174	GapExp	0	181	2	30	1	target	1	521	740	104098	13.328	11.770	14.870
TrackDT02	1	TrackDT	2.0	SCS215a	20121114.162221	20121114.164045	single-task	8	0.013328	60	10	60-180	60	122	GapExp	0	182	2	30	1	target	1	411	795	104893	13.328	11.629	16.447
TrackDT02	1	TrackDT	2.0	SCS215a	20121114.162221	20121114.164051	single-task	8	0.013328	60	10	60-180	60	166	GapExp	0	183	2	6	0	target	0	350	-1000	103893	13.328	13.183	13.459
TrackDT02	1	TrackDT	2.0	SCS215a	20121114.162221	20121114.164058	single-task	8	0.013328	60	10	60-180	60	115	GapExp	0	184	2	1	1	target	1	358	821	104714	13.328	11.425	15.245
TrackDT02	1	TrackDT	2.0	SCS215a	20121114.162221	20121114.164103	single-task	8	0.013328	60	10	60-180	60	142	GapExp	0	185	2	3	1	target	1	258	871	105585	13.328	10.202	16.471
TrackDT02	1	TrackDT	2.0	SCS215a	20121114.162221	20121114.164109	single-task	8	0.013328	60	10	60-180	60	120	GapExp	0	186	2	0	1	target	1	253	874	106459	13.328	12.643	13.995
TrackDT02	1	TrackDT	2.0	SCS215a	20121114.162221	20121114.164114	single-task	8	0.013328	60	10	60-180	60	173	GapExp	0	187	2	6	1	target	1	363	819	107278	13.328	9.489	17.168
TrackDT02	1	TrackDT	2.0	SCS215a	20121114.162221	20121114.164120	single-task	8	0.013328	60	10	60-180	60	177	GapExp	0	188	2	6	0	distractor	1	465	768	108046	13.328	4.389	22.272
TrackDT02	1	TrackDT	2.0	SCS215a	20121114.162221	20121114.164127	single-task	8	0.013328	60	10	60-180	60	153	GapExp	0	189	2	6	1	target	1	385	808	108854	13.328	13.120	13.541
TrackDT02	1	TrackDT	2.0	SCS215a	20121114.162221	20121114.164133	single-task	8	0.013328	60	10	60-180	60	142	GapExp	0	190	2	0	1	target	1	437	782	109636	13.328	13.306	13.350
TrackDT02	1	TrackDT	2.0	SCS215a	20121114.162221	20121114.164139	single-task	8	0.013328	60	10	60-180	60	145	GapExp	0	191	2	1	1	target	1	418	791	110427	13.328	7.670	18.980
TrackDT02	1	TrackDT	2.0	SCS215a	20121114.162221	20121114.164145	single-task	8	0.013328	60	10	60-180	60	71	GapExp	0	192	2	1	0	distractor	1	469	766	111193	13.328	11.983	14.667
TrackDT02	1	TrackDT	2.0	SCS215a	20121114.162221	20121114.164150	single-task	8	0.013328	60	10	60-180	60	80	GapExp	0	193	2	30	0	distractor	1	501	750	111943	13.328	8.273	18.380
TrackDT02	1	TrackDT	2.0	SCS215a	20121114.162221	20121114.164155	single-task	8	0.013328	60	10	60-180	60	120	GapExp	0	194	2	6	0	distractor	1	475	763	112706	13.328	10.042	16.622
TrackDT02	1	TrackDT	2.0	SCS215a	20121114.162221	20121114.164201	single-task	8	0.013328	60	10	60-180	60	136	GapExp	0	195	2	6	1	target	1	385	808	113514	13.328	11.133	15.022
TrackDT02	1	TrackDT	2.0	SCS215a	20121114.162221	20121114.164207	single-task	8	0.013328	60	10	60-180	60	65	GapExp	0	196	2	3	0	distractor	1	574	713	114227	13.328	13.158	13.504
TrackDT02	1	TrackDT	2.0	SCS215a	20121114.162221	20121114.164212	single-task	8	0.013328	60	10	60-180	60	144	GapExp	0	197	2	3	1	target	1	362	819	115046	13.328	13.106	13.558
TrackDT02	1	TrackDT	2.0	SCS215a	20121114.162221	20121114.164218	single-task	8	0.013328	60	10	60-180	60	173	GapExp	0	198	2	30	1	target	1	420	790	115836	13.328	11.385	15.270
TrackDT02	1	TrackDT	2.0	SCS215a	20121114.162221	20121114.164225	single-task	8	0.013328	60	10	60-180	60	67	GapExp	0	199	2	0	1	target	1	369	816	116652	13.328	13.308	13.348
TrackDT02	1	TrackDT	2.0	SCS215a	20121114.162221	20121114.164229	single-task	8	0.013328	60	10	60-180	60	137	GapExp	0	200	2	3	0	distractor	1	481	760	117412	13.328	13.308	13.348
TrackDT02	1	TrackDT	2.0	SCS215a	20121114.164337	20121114.164404	dt-conversation	8	0.013328	60	10	60-180	60	117	GapExp	1	1	2	6	0	distractor	1	808	596	118008	13.328	12.894	13.738
TrackDT02	1	TrackDT	2.0	SCS215a	20121114.164337	20121114.164410	dt-conversation	8	0.013328	60	10	60-180	60	177	GapExp	1	2	2	30	1	target	1	327	837	118845	13.328	12.889	13.758
TrackDT02	1	TrackDT	2.0	SCS215a	20121114.164337	20121114.164417	dt-conversation	8	0.013328	60	10	60-180	60	122	GapExp	1	3	2	1	1	target	1	344	828	119673	13.328	12.876	13.785
TrackDT02	1	TrackDT	2.0	SCS215a	20121114.164337	20121114.164422	dt-conversation	8	0.013328	60	10	60-180	60	179	GapExp	1	4	2	3	1	target	1	332	834	120507	13.328	12.889	13.767
TrackDT02	1	TrackDT	2.0	SCS215a	20121114.164337	20121114.164428	dt-conversation	8	0.013328	60	10	60-180	60	135	GapExp	1	5	2	6	1	target	1	359	821	121328	13.328	13.301	13.347
TrackDT02	1	TrackDT	2.0	SCS215a	20121114.164337	20121114.164434	dt-conversation	8	0.013328	60	10	60-180	60	97	GapExp	1	6	2	0	1	target	1	351	825	122153	13.328	13.305	13.359
TrackDT02	1	TrackDT	2.0	SCS215a	20121114.164337	20121114.164439	dt-conversation	8	0.013328	60	10	60-180	60	69	GapExp	1	7	2	30	0	distractor	1	804	598	122751	13.328	12.918	13.746
TrackDT02	1	TrackDT	2.0	SCS215a	20121114.164337	20121114.164445	dt-conversation	8	0.013328	60	10	60-180	60	68	GapExp	1	8	2	1	0	target	0	401	-1000	121751	13.328	12.963	13.709
TrackDT02	1	TrackDT	2.0	SCS215a	20121114.164337	20121114.164450	dt-conversation	8	0.013328	60	10	60-180	60	64	GapExp	1	9	2	3	0	target	0	466	-1000	120751	13.328	13.309	13.352
TrackDT02	1	TrackDT	2.0	SCS215a	20121114.164337	20121114.164455	dt-conversation	8	0.013328	60	10	60-180	60	84	GapExp	1	10	2	0	0	distractor	1	802	599	121350	13.328	12.862	13.802
TrackDT02	1	TrackDT	2.0	SCS215a	20121114.164337	20121114.164500	dt-conversation	8	0.013328	60	10	60-180	60	77	GapExp	0	11	2	3	1	distractor	0	512	-1000	120350	13.328	13.094	13.558
TrackDT02	1	TrackDT	2.0	SCS215a	20121114.164337	20121114.164505	dt-conversation	8	0.013328	60	10	60-180	60	95	GapExp	0	12	2	30	0	distractor	1	596	702	121052	13.328	13.087	13.550
TrackDT02	1	TrackDT	2.0	SCS215a	20121114.164337	20121114.164511	dt-conversation	8	0.013328	60	10	60-180	60	164	GapExp	0	13	2	30	0	distractor	1	512	744	121796	13.328	12.882	13.768
TrackDT02	1	TrackDT	2.0	SCS215a	20121114.164337	20121114.164518	dt-conversation	8	0.013328	60	10	60-180	60	80	GapExp	0	14	2	0	1	target	1	532	734	122530	13.328	12.879	13.790
TrackDT02	1	TrackDT	2.0	SCS215a	20121114.164337	20121114.164523	dt-conversation	8	0.013328	60	10	60-180	60	62	GapExp	0	15	2	1	1	target	1	434	783	123313	13.328	13.019	13.631
TrackDT02	1	TrackDT	2.0	SCS215a	20121114.164337	20121114.164528	dt-conversation	8	0.013328	60	10	60-180	60	123	GapExp	0	16	2	0	0	target	0	637	-1000	122313	13.328	12.973	13.683
TrackDT02	1	TrackDT	2.0	SCS215a	20121114.164337	20121114.164533	dt-conversation	8	0.013328	60	10	60-180	60	155	GapExp	0	17	2	30	1	target	1	519	741	123054	13.328	12.886	13.766
TrackDT02	1	TrackDT	2.0	SCS215a	20121114.164337	20121114.164540	dt-conversation	8	0.013328	60	10	60-180	60	180	GapExp	0	18	2	30	1	target	1	431	785	123839	13.328	13.107	13.550
TrackDT02	1	TrackDT	2.0	SCS215a	20121114.164337	20121114.164547	dt-conversation	8	0.013328	60	10	60-180	60	109	GapExp	0	19	2	0	1	target	1	342	829	124668	13.328	13.295	13.360
TrackDT02	1	TrackDT	2.0	SCS215a	20121114.164337	20121114.164552	dt-conversation	8	0.013328	60	10	60-180	60	143	GapExp	0	20	2	1	1	target	1	422	789	125457	13.328	12.868	13.800
TrackDT02	1	TrackDT	2.0	SCS215a	20121114.164337	20121114.164558	dt-conversation	8	0.013328	60	10	60-180	60	155	GapExp	0	21	2	1	1	target	1	316	842	126299	13.328	12.848	13.808
TrackDT02	1	TrackDT	2.0	SCS215a	20121114.164337	20121114.164604	dt-conversation	8	0.013328	60	10	60-180	60	115	GapExp	0	22	2	6	0	distractor	1	494	753	127052	13.328	12.928	13.725
TrackDT02	1	TrackDT	2.0	SCS215a	20121114.164337	20121114.164610	dt-conversation	8	0.013328	60	10	60-180	60	128	GapExp	0	23	2	6	0	distractor	1	507	747	127799	13.328	13.093	13.558
TrackDT02	1	TrackDT	2.0	SCS215a	20121114.164337	20121114.164615	dt-conversation	8	0.013328	60	10	60-180	60	83	GapExp	0	24	2	6	0	distractor	1	619	691	128490	13.328	12.963	13.695
TrackDT02	1	TrackDT	2.0	SCS215a	20121114.164337	20121114.164620	dt-conversation	8	0.013328	60	10	60-180	60	164	GapExp	0	25	2	1	0	distractor	1	548	726	129216	13.328	13.061	13.589
TrackDT02	1	TrackDT	2.0	SCS215a	20121114.164337	20121114.164627	dt-conversation	8	0.013328	60	10	60-180	60	126	GapExp	0	26	2	1	0	distractor	1	559	721	129937	13.328	13.308	13.346
TrackDT02	1	TrackDT	2.0	SCS215a	20121114.164337	20121114.164633	dt-conversation	8	0.013328	60	10	60-180	60	169	GapExp	0	27	2	3	1	target	1	398	801	130738	13.328	13.307	13.347
TrackDT02	1	TrackDT	2.0	SCS215a	20121114.164337	20121114.164639	dt-conversation	8	0.013328	60	10	60-180	60	95	GapExp	0	28	2	1	0	distractor	1	564	718	131456	13.328	13.098	13.566
TrackDT02	1	TrackDT	2.0	SCS215a	20121114.164337	20121114.164644	dt-conversation	8	0.013328	60	10	60-180	60	136	GapExp	0	29	2	1	0	distractor	1	523	739	132195	13.328	12.920	13.763
TrackDT02	1	TrackDT	2.0	SCS215a	20121114.164337	20121114.164650	dt-conversation	8	0.013328	60	10	60-180	60	128	GapExp	0	30	2	6	0	distractor	1	567	717	132912	13.328	13.064	13.592
TrackDT02	1	TrackDT	2.0	SCS215a	20121114.164337	20121114.164656	dt-conversation	8	0.013328	60	10	60-180	60	109	GapExp	0	31	2	1	0	distractor	1	420	790	133702	13.328	12.885	13.773
TrackDT02	1	TrackDT	2.0	SCS215a	20121114.164337	20121114.164702	dt-conversation	8	0.013328	60	10	60-180	60	77	GapExp	0	32	2	3	1	target	1	727	637	134339	13.328	12.933	13.722
TrackDT02	1	TrackDT	2.0	SCS215a	20121114.164337	20121114.164707	dt-conversation	8	0.013328	60	10	60-180	60	149	GapExp	0	33	2	6	0	distractor	1	463	769	135108	13.328	13.113	13.544
TrackDT02	1	TrackDT	2.0	SCS215a	20121114.164337	20121114.164713	dt-conversation	8	0.013328	60	10	60-180	60	92	GapExp	0	34	2	0	1	target	1	503	749	135857	13.328	13.098	13.564
TrackDT02	1	TrackDT	2.0	SCS215a	20121114.164337	20121114.164718	dt-conversation	8	0.013328	60	10	60-180	60	104	GapExp	0	35	2	6	1	distractor	0	336	-1000	134857	13.328	12.898	13.754
TrackDT02	1	TrackDT	2.0	SCS215a	20121114.164337	20121114.164723	dt-conversation	8	0.013328	60	10	60-180	60	61	GapExp	0	36	2	0	0	target	0	517	-1000	133857	13.328	12.875	13.772
TrackDT02	1	TrackDT	2.0	SCS215a	20121114.164337	20121114.164728	dt-conversation	8	0.013328	60	10	60-180	60	166	GapExp	0	37	2	3	0	distractor	1	520	740	134597	13.328	12.864	13.799
TrackDT02	1	TrackDT	2.0	SCS215a	20121114.164337	20121114.164735	dt-conversation	8	0.013328	60	10	60-180	60	170	GapExp	0	38	2	3	0	distractor	1	656	672	135269	13.328	12.936	13.721
TrackDT02	1	TrackDT	2.0	SCS215a	20121114.164337	20121114.164741	dt-conversation	8	0.013328	60	10	60-180	60	142	GapExp	0	39	2	3	0	target	0	417	-1000	134269	13.328	13.098	13.544
TrackDT02	1	TrackDT	2.0	SCS215a	20121114.164337	20121114.164747	dt-conversation	8	0.013328	60	10	60-180	60	67	GapExp	0	40	2	0	1	target	1	360	820	135089	13.328	13.088	13.562
TrackDT02	1	TrackDT	2.0	SCS215a	20121114.164337	20121114.164752	dt-conversation	8	0.013328	60	10	60-180	60	107	GapExp	0	41	2	30	1	target	1	454	773	135862	13.328	12.908	13.750
TrackDT02	1	TrackDT	2.0	SCS215a	20121114.164337	20121114.164757	dt-conversation	8	0.013328	60	10	60-180	60	174	GapExp	0	42	2	30	0	distractor	1	527	737	136599	13.328	13.300	13.351
TrackDT02	1	TrackDT	2.0	SCS215a	20121114.164337	20121114.164804	dt-conversation	8	0.013328	60	10	60-180	60	76	GapExp	0	43	2	1	0	target	0	388	-1000	135599	13.328	13.309	13.348
TrackDT02	1	TrackDT	2.0	SCS215a	20121114.164337	20121114.164810	dt-conversation	8	0.013328	60	10	60-180	60	104	GapExp	0	44	2	3	0	target	0	498	-1000	134599	13.328	13.093	13.562
TrackDT02	1	TrackDT	2.0	SCS215a	20121114.164337	20121114.164815	dt-conversation	8	0.013328	60	10	60-180	60	71	GapExp	0	45	2	6	1	target	1	372	814	135413	13.328	13.114	13.545
TrackDT02	1	TrackDT	2.0	SCS215a	20121114.164337	20121114.164820	dt-conversation	8	0.013328	60	10	60-180	60	110	GapExp	0	46	2	0	1	target	1	429	786	136199	13.328	13.302	13.355
TrackDT02	1	TrackDT	2.0	SCS215a	20121114.164337	20121114.164825	dt-conversation	8	0.013328	60	10	60-180	60	169	GapExp	0	47	2	30	1	target	1	319	841	137040	13.328	12.859	13.798
TrackDT02	1	TrackDT	2.0	SCS215a	20121114.164337	20121114.164832	dt-conversation	8	0.013328	60	10	60-180	60	147	GapExp	0	48	2	1	0	target	0	463	-1000	136040	13.328	12.851	13.807
TrackDT02	1	TrackDT	2.0	SCS215a	20121114.164337	20121114.164838	dt-conversation	8	0.013328	60	10	60-180	60	148	GapExp	0	49	2	30	0	distractor	1	564	718	136758	13.328	13.308	13.354
TrackDT02	1	TrackDT	2.0	SCS215a	20121114.164337	20121114.164844	dt-conversation	8	0.013328	60	10	60-180	60	178	GapExp	0	50	2	3	1	target	1	332	834	137592	13.328	13.085	13.587
TrackDT02	1	TrackDT	2.0	SCS215a	20121114.164337	20121114.164857	dt-conversation	8	0.013328	60	10	60-180	60	104	GapExp	0	51	2	1	1	target	1	463	769	138361	13.328	13.085	13.571
TrackDT02	1	TrackDT	2.0	SCS215a	20121114.164337	20121114.164902	dt-conversation	8	0.013328	60	10	60-180	60	100	GapExp	0	52	2	6	1	target	1	360	820	139181	13.328	12.917	13.736
TrackDT02	1	TrackDT	2.0	SCS215a	20121114.164337	20121114.164908	dt-conversation	8	0.013328	60	10	60-180	60	147	GapExp	0	53	2	30	0	distractor	1	484	758	139939	13.328	13.018	13.655
TrackDT02	1	TrackDT	2.0	SCS215a	20121114.164337	20121114.164914	dt-conversation	8	0.013328	60	10	60-180	60	169	GapExp	0	54	2	0	0	distractor	1	530	735	140674	13.328	13.307	13.354
TrackDT02	1	TrackDT	2.0	SCS215a	20121114.164337	20121114.164921	dt-conversation	8	0.013328	60	10	60-180	60	180	GapExp	0	55	2	3	1	target	1	332	834	141508	13.328	13.305	13.356
TrackDT02	1	TrackDT	2.0	SCS215a	20121114.164337	20121114.164927	dt-conversation	8	0.013328	60	10	60-180	60	109	GapExp	0	56	2	6	1	target	1	498	751	142259	13.328	12.856	13.773
TrackDT02	1	TrackDT	2.0	SCS215a	20121114.164337	20121114.164932	dt-conversation	8	0.013328	60	10	60-180	60	118	GapExp	0	57	2	0	1	target	1	400	800	143059	13.328	12.872	13.801
TrackDT02	1	TrackDT	2.0	SCS215a	20121114.164337	20121114.164938	dt-conversation	8	0.013328	60	10	60-180	60	160	GapExp	0	58	2	0	1	target	1	533	734	143793	13.328	13.306	13.350
TrackDT02	1	TrackDT	2.0	SCS215a	20121114.164337	20121114.164944	dt-conversation	8	0.013328	60	10	60-180	60	154	GapExp	0	59	2	0	0	target	0	565	-1000	142793	13.328	12.892	13.765
TrackDT02	1	TrackDT	2.0	SCS215a	20121114.164337	20121114.164950	dt-conversation	8	0.013328	60	10	60-180	60	160	GapExp	0	60	2	6	1	target	1	282	859	143652	13.328	13.304	13.353
TrackDT02	1	TrackDT	2.0	SCS215a	20121114.164337	20121114.164957	dt-conversation	8	0.013328	60	10	60-180	60	120	GapExp	0	61	2	1	0	distractor	1	755	623	144275	13.328	13.298	13.354
TrackDT02	1	TrackDT	2.0	SCS215a	20121114.164337	20121114.165002	dt-conversation	8	0.013328	60	10	60-180	60	76	GapExp	0	62	2	6	0	target	0	483	-1000	143275	13.328	13.298	13.353
TrackDT02	1	TrackDT	2.0	SCS215a	20121114.164337	20121114.165007	dt-conversation	8	0.013328	60	10	60-180	60	152	GapExp	0	63	2	0	1	target	1	306	847	144122	13.328	13.107	13.550
TrackDT02	1	TrackDT	2.0	SCS215a	20121114.164337	20121114.165013	dt-conversation	8	0.013328	60	10	60-180	60	152	GapExp	0	64	2	6	0	target	0	545	-1000	143122	13.328	13.308	13.346
TrackDT02	1	TrackDT	2.0	SCS215a	20121114.164337	20121114.165019	dt-conversation	8	0.013328	60	10	60-180	60	107	GapExp	0	65	2	0	0	distractor	1	553	724	143846	13.328	13.172	13.485
TrackDT02	1	TrackDT	2.0	SCS215a	20121114.164337	20121114.165025	dt-conversation	8	0.013328	60	10	60-180	60	117	GapExp	0	66	2	6	0	target	0	462	-1000	142846	13.328	12.909	13.748
TrackDT02	1	TrackDT	2.0	SCS215a	20121114.164337	20121114.165031	dt-conversation	8	0.013328	60	10	60-180	60	79	GapExp	0	67	2	0	0	distractor	1	791	605	143451	13.328	13.028	13.641
TrackDT02	1	TrackDT	2.0	SCS215a	20121114.164337	20121114.165036	dt-conversation	8	0.013328	60	10	60-180	60	165	GapExp	0	68	2	3	0	target	0	335	-1000	142451	13.328	13.032	13.614
TrackDT02	1	TrackDT	2.0	SCS215a	20121114.164337	20121114.165042	dt-conversation	8	0.013328	60	10	60-180	60	100	GapExp	0	69	2	30	0	target	0	4441	-1000	141451	13.328	13.059	13.590
TrackDT02	1	TrackDT	2.0	SCS215a	20121114.164337	20121114.165052	dt-conversation	8	0.013328	60	10	60-180	60	143	GapExp	0	70	2	30	1	target	1	458	771	142222	13.328	12.939	13.734
TrackDT02	1	TrackDT	2.0	SCS215a	20121114.164337	20121114.165058	dt-conversation	8	0.013328	60	10	60-180	60	140	GapExp	0	71	2	1	1	target	1	484	758	142980	13.328	13.105	13.558
TrackDT02	1	TrackDT	2.0	SCS215a	20121114.164337	20121114.165104	dt-conversation	8	0.013328	60	10	60-180	60	89	GapExp	0	72	2	1	0	target	0	646	-1000	141980	13.328	12.967	13.694
TrackDT02	1	TrackDT	2.0	SCS215a	20121114.164337	20121114.165110	dt-conversation	8	0.013328	60	10	60-180	60	169	GapExp	0	73	2	0	0	target	0	525	-1000	140980	13.328	12.865	13.791
TrackDT02	1	TrackDT	2.0	SCS215a	20121114.164337	20121114.165116	dt-conversation	8	0.013328	60	10	60-180	60	145	GapExp	0	74	2	30	1	distractor	0	395	-1000	139980	13.328	12.903	13.766
TrackDT02	1	TrackDT	2.0	SCS215a	20121114.164337	20121114.165122	dt-conversation	8	0.013328	60	10	60-180	60	102	GapExp	0	75	2	0	0	distractor	1	553	724	140704	13.328	12.929	13.789
TrackDT02	1	TrackDT	2.0	SCS215a	20121114.164337	20121114.165127	dt-conversation	8	0.013328	60	10	60-180	60	70	GapExp	0	76	2	1	1	target	1	550	725	141429	13.328	12.946	13.752
TrackDT02	1	TrackDT	2.0	SCS215a	20121114.164337	20121114.165132	dt-conversation	8	0.013328	60	10	60-180	60	98	GapExp	0	77	2	30	0	distractor	1	656	672	142101	13.328	13.092	13.557
TrackDT02	1	TrackDT	2.0	SCS215a	20121114.164337	20121114.165139	dt-conversation	8	0.013328	60	10	60-180	60	75	GapExp	0	78	2	6	1	target	1	356	822	142923	13.328	13.096	13.565
TrackDT02	1	TrackDT	2.0	SCS215a	20121114.164337	20121114.165144	dt-conversation	8	0.013328	60	10	60-180	60	103	GapExp	0	79	2	6	0	target	0	516	-1000	141923	13.328	13.301	13.354
TrackDT02	1	TrackDT	2.0	SCS215a	20121114.164337	20121114.165149	dt-conversation	8	0.013328	60	10	60-180	60	137	GapExp	0	80	2	0	0	distractor	1	701	650	142573	13.328	13.156	13.499
TrackDT02	1	TrackDT	2.0	SCS215a	20121114.164337	20121114.165155	dt-conversation	8	0.013328	60	10	60-180	60	129	GapExp	0	81	2	3	0	distractor	1	386	807	143380	13.328	12.960	13.702
TrackDT02	1	TrackDT	2.0	SCS215a	20121114.164337	20121114.165200	dt-conversation	8	0.013328	60	10	60-180	60	86	GapExp	0	82	2	3	1	target	1	346	827	144207	13.328	13.085	13.552
TrackDT02	1	TrackDT	2.0	SCS215a	20121114.164337	20121114.165205	dt-conversation	8	0.013328	60	10	60-180	60	164	GapExp	0	83	2	1	1	target	1	367	817	145024	13.328	12.973	13.684
TrackDT02	1	TrackDT	2.0	SCS215a	20121114.164337	20121114.165212	dt-conversation	8	0.013328	60	10	60-180	60	176	GapExp	0	84	2	1	0	distractor	1	672	664	145688	13.328	12.914	13.761
TrackDT02	1	TrackDT	2.0	SCS215a	20121114.164337	20121114.165219	dt-conversation	8	0.013328	60	10	60-180	60	149	GapExp	0	85	2	3	0	target	0	405	-1000	144688	13.328	13.299	13.353
TrackDT02	1	TrackDT	2.0	SCS215a	20121114.164337	20121114.165224	dt-conversation	8	0.013328	60	10	60-180	60	103	GapExp	0	86	2	0	0	distractor	1	515	743	145431	13.328	13.270	13.387
TrackDT02	1	TrackDT	2.0	SCS215a	20121114.164337	20121114.165230	dt-conversation	8	0.013328	60	10	60-180	60	174	GapExp	0	87	2	3	1	target	1	365	818	146249	13.328	13.308	13.349
TrackDT02	1	TrackDT	2.0	SCS215a	20121114.164337	20121114.165236	dt-conversation	8	0.013328	60	10	60-180	60	159	GapExp	0	88	2	30	1	target	1	576	712	146961	13.328	12.990	13.660
TrackDT02	1	TrackDT	2.0	SCS215a	20121114.164337	20121114.165243	dt-conversation	8	0.013328	60	10	60-180	60	80	GapExp	0	89	2	0	0	target	0	674	-1000	145961	13.328	13.112	13.539
TrackDT02	1	TrackDT	2.0	SCS215a	20121114.164337	20121114.165248	dt-conversation	8	0.013328	60	10	60-180	60	108	GapExp	0	90	2	30	1	target	1	410	795	146756	13.328	13.091	13.571
TrackDT02	1	TrackDT	2.0	SCS215a	20121114.164337	20121114.165254	dt-conversation	8	0.013328	60	10	60-180	60	166	GapExp	0	91	2	3	1	target	1	321	840	147596	13.328	12.873	13.797
TrackDT02	1	TrackDT	2.0	SCS215a	20121114.164337	20121114.165300	dt-conversation	8	0.013328	60	10	60-180	60	95	GapExp	0	92	2	1	1	target	1	525	738	148334	13.328	13.183	13.488
TrackDT02	1	TrackDT	2.0	SCS215a	20121114.164337	20121114.165305	dt-conversation	8	0.013328	60	10	60-180	60	158	GapExp	0	93	2	30	1	target	1	338	831	149165	13.328	13.169	13.520
TrackDT02	1	TrackDT	2.0	SCS215a	20121114.164337	20121114.165312	dt-conversation	8	0.013328	60	10	60-180	60	76	GapExp	0	94	2	1	1	target	1	433	784	149949	13.328	12.872	13.765
TrackDT02	1	TrackDT	2.0	SCS215a	20121114.164337	20121114.165317	dt-conversation	8	0.013328	60	10	60-180	60	75	GapExp	0	95	2	1	1	target	1	347	827	150776	13.328	13.115	13.552
TrackDT02	1	TrackDT	2.0	SCS215a	20121114.164337	20121114.165322	dt-conversation	8	0.013328	60	10	60-180	60	78	GapExp	0	96	2	3	1	target	1	430	785	151561	13.328	12.997	13.670
TrackDT02	1	TrackDT	2.0	SCS215a	20121114.164337	20121114.165327	dt-conversation	8	0.013328	60	10	60-180	60	136	GapExp	0	97	2	1	1	target	1	287	857	152418	13.328	13.045	13.612
TrackDT02	1	TrackDT	2.0	SCS215a	20121114.164337	20121114.165332	dt-conversation	8	0.013328	60	10	60-180	60	86	GapExp	0	98	2	6	0	distractor	1	469	766	153184	13.328	12.872	13.800
TrackDT02	1	TrackDT	2.0	SCS215a	20121114.164337	20121114.165338	dt-conversation	8	0.013328	60	10	60-180	60	158	GapExp	0	99	2	1	1	target	1	309	846	154030	13.328	12.960	13.692
TrackDT02	1	TrackDT	2.0	SCS215a	20121114.164337	20121114.165344	dt-conversation	8	0.013328	60	10	60-180	60	117	GapExp	0	100	2	0	1	target	1	479	761	154791	13.328	13.098	13.551
TrackDT02	1	TrackDT	2.0	SCS215a	20121114.164337	20121114.165417	dt-conversation	8	0.013328	60	10	60-180	60	153	GapExp	0	101	2	3	0	distractor	1	433	784	155575	13.328	12.858	13.810
TrackDT02	1	TrackDT	2.0	SCS215a	20121114.164337	20121114.165424	dt-conversation	8	0.013328	60	10	60-180	60	69	GapExp	0	102	2	1	0	target	0	472	-1000	154575	13.328	12.877	13.796
TrackDT02	1	TrackDT	2.0	SCS215a	20121114.164337	20121114.165428	dt-conversation	8	0.013328	60	10	60-180	60	103	GapExp	0	103	2	3	0	target	0	675	-1000	153575	13.328	12.936	13.759
TrackDT02	1	TrackDT	2.0	SCS215a	20121114.164337	20121114.165434	dt-conversation	8	0.013328	60	10	60-180	60	96	GapExp	0	104	2	3	0	distractor	1	584	708	154283	13.328	12.945	13.697
TrackDT02	1	TrackDT	2.0	SCS215a	20121114.164337	20121114.165439	dt-conversation	8	0.013328	60	10	60-180	60	71	GapExp	0	105	2	30	1	target	1	372	814	155097	13.328	12.844	13.800
TrackDT02	1	TrackDT	2.0	SCS215a	20121114.164337	20121114.165445	dt-conversation	8	0.013328	60	10	60-180	60	164	GapExp	0	106	2	6	1	target	1	434	783	155880	13.328	12.872	13.778
TrackDT02	1	TrackDT	2.0	SCS215a	20121114.164337	20121114.165451	dt-conversation	8	0.013328	60	10	60-180	60	134	GapExp	0	107	2	30	1	target	1	390	805	156685	13.328	13.310	13.351
TrackDT02	1	TrackDT	2.0	SCS215a	20121114.164337	20121114.165457	dt-conversation	8	0.013328	60	10	60-180	60	65	GapExp	0	108	2	6	1	target	1	488	756	157441	13.328	13.302	13.360
TrackDT02	1	TrackDT	2.0	SCS215a	20121114.164337	20121114.165502	dt-conversation	8	0.013328	60	10	60-180	60	93	GapExp	0	109	2	6	0	distractor	1	612	694	158135	13.328	13.041	13.604
TrackDT02	1	TrackDT	2.0	SCS215a	20121114.164337	20121114.165508	dt-conversation	8	0.013328	60	10	60-180	60	104	GapExp	0	110	2	6	0	target	0	415	-1000	157135	13.328	12.883	13.773
TrackDT02	1	TrackDT	2.0	SCS215a	20121114.164337	20121114.165513	dt-conversation	8	0.013328	60	10	60-180	60	100	GapExp	0	111	2	3	1	target	1	531	735	157870	13.328	13.308	13.348
TrackDT02	1	TrackDT	2.0	SCS215a	20121114.164337	20121114.165518	dt-conversation	8	0.013328	60	10	60-180	60	161	GapExp	0	112	2	30	1	target	1	454	773	158643	13.328	12.998	13.711
TrackDT02	1	TrackDT	2.0	SCS215a	20121114.164337	20121114.165525	dt-conversation	8	0.013328	60	10	60-180	60	167	GapExp	0	113	2	6	1	distractor	0	562	-1000	157643	13.328	13.306	13.346
TrackDT02	1	TrackDT	2.0	SCS215a	20121114.164337	20121114.165532	dt-conversation	8	0.013328	60	10	60-180	60	75	GapExp	0	114	2	3	1	target	1	354	823	158466	13.328	13.211	13.433
TrackDT02	1	TrackDT	2.0	SCS215a	20121114.164337	20121114.165536	dt-conversation	8	0.013328	60	10	60-180	60	137	GapExp	0	115	2	0	1	distractor	0	818	-1000	157466	13.328	13.092	13.558
TrackDT02	1	TrackDT	2.0	SCS215a	20121114.164337	20121114.165543	dt-conversation	8	0.013328	60	10	60-180	60	125	GapExp	0	116	2	0	1	target	1	437	782	158248	13.328	12.888	13.763
TrackDT02	1	TrackDT	2.0	SCS215a	20121114.164337	20121114.165548	dt-conversation	8	0.013328	60	10	60-180	60	178	GapExp	0	117	2	3	1	target	1	416	792	159040	13.328	12.938	13.712
TrackDT02	1	TrackDT	2.0	SCS215a	20121114.164337	20121114.165554	dt-conversation	8	0.013328	60	10	60-180	60	114	GapExp	0	118	2	3	0	target	0	528	-1000	158040	13.328	12.966	13.704
TrackDT02	1	TrackDT	2.0	SCS215a	20121114.164337	20121114.165600	dt-conversation	8	0.013328	60	10	60-180	60	61	GapExp	0	119	2	6	0	target	0	557	-1000	157040	13.328	13.306	13.346
TrackDT02	1	TrackDT	2.0	SCS215a	20121114.164337	20121114.165605	dt-conversation	8	0.013328	60	10	60-180	60	111	GapExp	0	120	2	6	0	distractor	1	702	649	157689	13.328	13.103	13.557
TrackDT02	1	TrackDT	2.0	SCS215a	20121114.164337	20121114.165611	dt-conversation	8	0.013328	60	10	60-180	60	172	GapExp	0	121	2	0	0	distractor	1	804	598	158287	13.328	13.091	13.773
TrackDT02	1	TrackDT	2.0	SCS215a	20121114.164337	20121114.165618	dt-conversation	8	0.013328	60	10	60-180	60	135	GapExp	0	122	2	30	0	distractor	1	879	561	158848	13.328	12.987	13.677
TrackDT02	1	TrackDT	2.0	SCS215a	20121114.164337	20121114.165624	dt-conversation	8	0.013328	60	10	60-180	60	71	GapExp	0	123	2	1	0	distractor	1	674	663	159511	13.328	13.306	13.351
TrackDT02	1	TrackDT	2.0	SCS215a	20121114.164337	20121114.165629	dt-conversation	8	0.013328	60	10	60-180	60	141	GapExp	0	124	2	6	1	target	1	454	773	160284	13.328	13.303	13.353
TrackDT02	1	TrackDT	2.0	SCS215a	20121114.164337	20121114.165635	dt-conversation	8	0.013328	60	10	60-180	60	158	GapExp	0	125	2	0	1	target	1	485	758	161042	13.328	12.970	13.714
TrackDT02	1	TrackDT	2.0	SCS215a	20121114.164337	20121114.165642	dt-conversation	8	0.013328	60	10	60-180	60	110	GapExp	0	126	2	0	1	target	1	370	815	161857	13.328	12.925	13.735
TrackDT02	1	TrackDT	2.0	SCS215a	20121114.164337	20121114.165647	dt-conversation	8	0.013328	60	10	60-180	60	63	GapExp	0	127	2	1	1	target	1	800	600	162457	13.328	13.103	13.555
TrackDT02	1	TrackDT	2.0	SCS215a	20121114.164337	20121114.165652	dt-conversation	8	0.013328	60	10	60-180	60	151	GapExp	0	128	2	3	0	distractor	1	496	752	163209	13.328	13.097	13.759
TrackDT02	1	TrackDT	2.0	SCS215a	20121114.164337	20121114.165658	dt-conversation	8	0.013328	60	10	60-180	60	99	GapExp	0	129	2	6	0	distractor	1	528	736	163945	13.386	12.899	26.965
TrackDT02	1	TrackDT	2.0	SCS215a	20121114.164337	20121114.165704	dt-conversation	8	0.013328	60	10	60-180	60	71	GapExp	0	130	2	3	0	distractor	1	854	573	164518	13.328	13.307	13.363
TrackDT02	1	TrackDT	2.0	SCS215a	20121114.164337	20121114.165709	dt-conversation	8	0.013328	60	10	60-180	60	116	GapExp	0	131	2	6	0	target	0	406	-1000	163518	13.328	13.098	13.565
TrackDT02	1	TrackDT	2.0	SCS215a	20121114.164337	20121114.165715	dt-conversation	8	0.013328	60	10	60-180	60	171	GapExp	0	132	2	0	0	distractor	1	426	787	164305	13.328	13.106	13.550
TrackDT02	1	TrackDT	2.0	SCS215a	20121114.164337	20121114.165721	dt-conversation	8	0.013328	60	10	60-180	60	148	GapExp	0	133	2	1	1	target	1	413	794	165099	13.328	13.104	13.552
TrackDT02	1	TrackDT	2.0	SCS215a	20121114.164337	20121114.165727	dt-conversation	8	0.013328	60	10	60-180	60	89	GapExp	0	134	2	0	1	target	1	417	792	165891	13.328	13.269	13.380
TrackDT02	1	TrackDT	2.0	SCS215a	20121114.164337	20121114.165732	dt-conversation	8	0.013328	60	10	60-180	60	149	GapExp	0	135	2	30	1	target	1	432	784	166675	13.328	13.307	13.348
TrackDT02	1	TrackDT	2.0	SCS215a	20121114.164337	20121114.165738	dt-conversation	8	0.013328	60	10	60-180	60	70	GapExp	0	136	2	1	0	distractor	1	727	637	167312	13.328	12.978	13.668
TrackDT02	1	TrackDT	2.0	SCS215a	20121114.164337	20121114.165743	dt-conversation	8	0.013328	60	10	60-180	60	109	GapExp	0	137	2	3	0	target	0	453	-1000	166312	13.328	13.098	13.552
TrackDT02	1	TrackDT	2.0	SCS215a	20121114.164337	20121114.165749	dt-conversation	8	0.013328	60	10	60-180	60	134	GapExp	0	138	2	30	0	distractor	1	502	749	167061	13.328	13.098	13.546
TrackDT02	1	TrackDT	2.0	SCS215a	20121114.164337	20121114.165756	dt-conversation	8	0.013328	60	10	60-180	60	174	GapExp	0	139	2	6	1	target	1	354	823	167884	13.328	13.097	13.560
TrackDT02	1	TrackDT	2.0	SCS215a	20121114.164337	20121114.165802	dt-conversation	8	0.013328	60	10	60-180	60	129	GapExp	0	140	2	0	0	distractor	1	467	767	168651	13.328	13.308	13.347
TrackDT02	1	TrackDT	2.0	SCS215a	20121114.164337	20121114.165807	dt-conversation	8	0.013328	60	10	60-180	60	153	GapExp	0	141	2	30	0	distractor	1	548	726	169377	13.328	13.306	13.351
TrackDT02	1	TrackDT	2.0	SCS215a	20121114.164337	20121114.165814	dt-conversation	8	0.013328	60	10	60-180	60	176	GapExp	0	142	2	30	1	target	1	559	721	170098	13.328	12.915	13.732
TrackDT02	1	TrackDT	2.0	SCS215a	20121114.164337	20121114.165821	dt-conversation	8	0.013328	60	10	60-180	60	163	GapExp	0	143	2	30	1	target	1	371	815	170913	13.328	13.301	13.354
TrackDT02	1	TrackDT	2.0	SCS215a	20121114.164337	20121114.165828	dt-conversation	8	0.013328	60	10	60-180	60	173	GapExp	0	144	2	3	0	target	0	342	-1000	169913	13.328	12.875	13.781
TrackDT02	1	TrackDT	2.0	SCS215a	20121114.164337	20121114.165834	dt-conversation	8	0.013328	60	10	60-180	60	169	GapExp	0	145	2	30	1	target	1	433	784	170697	13.328	12.881	13.789
TrackDT02	1	TrackDT	2.0	SCS215a	20121114.164337	20121114.165840	dt-conversation	8	0.013328	60	10	60-180	60	134	GapExp	0	146	2	6	1	target	1	504	748	171445	13.328	12.962	13.697
TrackDT02	1	TrackDT	2.0	SCS215a	20121114.164337	20121114.165846	dt-conversation	8	0.013328	60	10	60-180	60	127	GapExp	0	147	2	30	0	distractor	1	617	692	172137	13.328	13.112	13.545
TrackDT02	1	TrackDT	2.0	SCS215a	20121114.164337	20121114.165853	dt-conversation	8	0.013328	60	10	60-180	60	123	GapExp	0	148	2	30	0	distractor	1	529	736	172873	13.328	12.869	13.786
TrackDT02	1	TrackDT	2.0	SCS215a	20121114.164337	20121114.165859	dt-conversation	8	0.013328	60	10	60-180	60	123	GapExp	0	149	2	0	0	target	0	500	-1000	171873	13.328	12.878	13.777
TrackDT02	1	TrackDT	2.0	SCS215a	20121114.164337	20121114.165904	dt-conversation	8	0.013328	60	10	60-180	60	103	GapExp	0	150	2	6	1	target	1	482	759	172632	13.328	13.265	13.378
TrackDT02	1	TrackDT	2.0	SCS215a	20121114.164337	20121114.165913	dt-conversation	8	0.013328	60	10	60-180	60	179	GapExp	0	151	2	1	0	distractor	1	767	617	173249	13.328	13.106	13.545
TrackDT02	1	TrackDT	2.0	SCS215a	20121114.164337	20121114.165920	dt-conversation	8	0.013328	60	10	60-180	60	119	GapExp	0	152	2	3	1	target	1	695	653	173902	13.328	12.940	13.708
TrackDT02	1	TrackDT	2.0	SCS215a	20121114.164337	20121114.165926	dt-conversation	8	0.013328	60	10	60-180	60	90	GapExp	0	153	2	3	1	target	1	400	800	174702	13.328	13.308	13.346
TrackDT02	1	TrackDT	2.0	SCS215a	20121114.164337	20121114.165931	dt-conversation	8	0.013328	60	10	60-180	60	145	GapExp	0	154	2	1	1	target	1	309	846	175548	13.328	13.289	13.359
TrackDT02	1	TrackDT	2.0	SCS215a	20121114.164337	20121114.165937	dt-conversation	8	0.013328	60	10	60-180	60	68	GapExp	0	155	2	1	1	target	1	410	795	176343	13.328	12.889	13.746
TrackDT02	1	TrackDT	2.0	SCS215a	20121114.164337	20121114.165942	dt-conversation	8	0.013328	60	10	60-180	60	102	GapExp	0	156	2	0	0	distractor	1	656	672	177015	13.328	13.053	13.593
TrackDT02	1	TrackDT	2.0	SCS215a	20121114.164337	20121114.165947	dt-conversation	8	0.013328	60	10	60-180	60	134	GapExp	0	157	2	6	1	target	1	448	776	177791	13.328	12.852	13.802
TrackDT02	1	TrackDT	2.0	SCS215a	20121114.164337	20121114.165953	dt-conversation	8	0.013328	60	10	60-180	60	90	GapExp	0	158	2	0	0	target	0	370	-1000	176791	13.328	12.906	13.744
TrackDT02	1	TrackDT	2.0	SCS215a	20121114.164337	20121114.165958	dt-conversation	8	0.013328	60	10	60-180	60	110	GapExp	0	159	2	3	1	target	1	358	821	177612	13.328	12.882	13.776
TrackDT02	1	TrackDT	2.0	SCS215a	20121114.164337	20121114.170004	dt-conversation	8	0.013328	60	10	60-180	60	162	GapExp	0	160	2	1	0	target	0	467	-1000	176612	13.328	12.954	13.678
TrackDT02	1	TrackDT	2.0	SCS215a	20121114.164337	20121114.170010	dt-conversation	8	0.013328	60	10	60-180	60	150	GapExp	0	161	2	30	0	distractor	1	566	717	177329	13.328	13.024	13.647
TrackDT02	1	TrackDT	2.0	SCS215a	20121114.164337	20121114.170016	dt-conversation	8	0.013328	60	10	60-180	60	71	GapExp	0	162	2	30	0	distractor	1	524	738	178067	13.328	13.303	13.346
TrackDT02	1	TrackDT	2.0	SCS215a	20121114.164337	20121114.170022	dt-conversation	8	0.013328	60	10	60-180	60	80	GapExp	0	163	2	6	0	target	0	621	-1000	177067	13.328	12.936	13.728
TrackDT02	1	TrackDT	2.0	SCS215a	20121114.164337	20121114.170027	dt-conversation	8	0.013328	60	10	60-180	60	77	GapExp	0	164	2	30	0	distractor	1	566	717	177784	13.328	12.920	13.739
TrackDT02	1	TrackDT	2.0	SCS215a	20121114.164337	20121114.170033	dt-conversation	8	0.013328	60	10	60-180	60	124	GapExp	0	165	2	3	1	distractor	0	851	-1000	176784	13.328	12.859	13.784
TrackDT02	1	TrackDT	2.0	SCS215a	20121114.164337	20121114.170039	dt-conversation	8	0.013328	60	10	60-180	60	86	GapExp	0	166	2	30	0	target	0	451	-1000	175784	13.328	13.084	13.559
TrackDT02	1	TrackDT	2.0	SCS215a	20121114.164337	20121114.170044	dt-conversation	8	0.013328	60	10	60-180	60	127	GapExp	0	167	2	3	0	distractor	1	338	831	176615	13.328	12.905	13.743
TrackDT02	1	TrackDT	2.0	SCS215a	20121114.164337	20121114.170050	dt-conversation	8	0.013328	60	10	60-180	60	164	GapExp	0	168	2	3	0	distractor	1	444	778	177393	13.328	13.100	13.551
TrackDT02	1	TrackDT	2.0	SCS215a	20121114.164337	20121114.170056	dt-conversation	8	0.013328	60	10	60-180	60	71	GapExp	0	169	2	0	1	target	1	433	784	178177	13.328	13.307	13.348
TrackDT02	1	TrackDT	2.0	SCS215a	20121114.164337	20121114.170101	dt-conversation	8	0.013328	60	10	60-180	60	143	GapExp	0	170	2	1	1	distractor	0	526	-1000	177177	13.328	13.292	13.358
TrackDT02	1	TrackDT	2.0	SCS215a	20121114.164337	20121114.170107	dt-conversation	8	0.013328	60	10	60-180	60	125	GapExp	0	171	2	6	0	target	0	489	-1000	176177	13.328	13.300	13.355
TrackDT02	1	TrackDT	2.0	SCS215a	20121114.164337	20121114.170113	dt-conversation	8	0.013328	60	10	60-180	60	132	GapExp	0	172	2	0	1	distractor	0	548	-1000	175177	13.328	13.087	13.570
TrackDT02	1	TrackDT	2.0	SCS215a	20121114.164337	20121114.170119	dt-conversation	8	0.013328	60	10	60-180	60	96	GapExp	0	173	2	3	1	target	1	384	808	175985	13.328	12.939	13.729
TrackDT02	1	TrackDT	2.0	SCS215a	20121114.164337	20121114.170124	dt-conversation	8	0.013328	60	10	60-180	60	163	GapExp	0	174	2	1	1	target	1	412	794	176779	13.328	12.886	13.775
TrackDT02	1	TrackDT	2.0	SCS215a	20121114.164337	20121114.170130	dt-conversation	8	0.013328	60	10	60-180	60	155	GapExp	0	175	2	6	0	target	0	357	-1000	175779	13.328	13.308	13.347
TrackDT02	1	TrackDT	2.0	SCS215a	20121114.164337	20121114.170136	dt-conversation	8	0.013328	60	10	60-180	60	99	GapExp	0	176	2	30	1	distractor	0	829	-1000	174779	13.328	13.307	13.351
TrackDT02	1	TrackDT	2.0	SCS215a	20121114.164337	20121114.170143	dt-conversation	8	0.013328	60	10	60-180	60	62	GapExp	0	177	2	1	0	distractor	1	679	661	175440	13.328	13.301	13.352
TrackDT02	1	TrackDT	2.0	SCS215a	20121114.164337	20121114.170148	dt-conversation	8	0.013328	60	10	60-180	60	144	GapExp	0	178	2	6	1	target	1	554	723	176163	13.328	12.863	13.794
TrackDT02	1	TrackDT	2.0	SCS215a	20121114.164337	20121114.170154	dt-conversation	8	0.013328	60	10	60-180	60	121	GapExp	0	179	2	1	1	target	1	440	780	176943	13.328	12.864	13.801
TrackDT02	1	TrackDT	2.0	SCS215a	20121114.164337	20121114.170159	dt-conversation	8	0.013328	60	10	60-180	60	118	GapExp	0	180	2	1	0	target	0	469	-1000	175943	13.328	12.876	13.779
TrackDT02	1	TrackDT	2.0	SCS215a	20121114.164337	20121114.170205	dt-conversation	8	0.013328	60	10	60-180	60	114	GapExp	0	181	2	0	1	target	1	556	722	176665	13.328	12.928	13.824
TrackDT02	1	TrackDT	2.0	SCS215a	20121114.164337	20121114.170210	dt-conversation	8	0.013328	60	10	60-180	60	107	GapExp	0	182	2	1	0	distractor	1	491	755	177420	13.386	12.875	27.093
TrackDT02	1	TrackDT	2.0	SCS215a	20121114.164337	20121114.170216	dt-conversation	8	0.013328	60	10	60-180	60	97	GapExp	0	183	2	6	1	target	1	359	821	178241	13.328	13.037	13.614
TrackDT02	1	TrackDT	2.0	SCS215a	20121114.164337	20121114.170221	dt-conversation	8	0.013328	60	10	60-180	60	149	GapExp	0	184	2	3	0	distractor	1	398	801	179042	13.328	13.099	13.561
TrackDT02	1	TrackDT	2.0	SCS215a	20121114.164337	20121114.170227	dt-conversation	8	0.013328	60	10	60-180	60	137	GapExp	0	185	2	30	0	distractor	1	578	711	179753	13.328	13.308	13.349
TrackDT02	1	TrackDT	2.0	SCS215a	20121114.164337	20121114.170234	dt-conversation	8	0.013328	60	10	60-180	60	117	GapExp	0	186	2	0	1	target	1	304	848	180601	13.328	12.877	13.788
TrackDT02	1	TrackDT	2.0	SCS215a	20121114.164337	20121114.170239	dt-conversation	8	0.013328	60	10	60-180	60	128	GapExp	0	187	2	30	1	distractor	0	918	-1000	179601	13.328	12.916	13.744
TrackDT02	1	TrackDT	2.0	SCS215a	20121114.164337	20121114.170246	dt-conversation	8	0.013328	60	10	60-180	60	111	GapExp	0	188	2	1	0	target	0	281	-1000	178601	13.328	12.905	13.757
TrackDT02	1	TrackDT	2.0	SCS215a	20121114.164337	20121114.170251	dt-conversation	8	0.013328	60	10	60-180	60	142	GapExp	0	189	2	3	1	target	1	298	851	179452	13.328	13.104	13.559
TrackDT02	1	TrackDT	2.0	SCS215a	20121114.164337	20121114.170257	dt-conversation	8	0.013328	60	10	60-180	60	97	GapExp	0	190	2	30	1	target	1	344	828	180280	13.328	13.105	13.555
TrackDT02	1	TrackDT	2.0	SCS215a	20121114.164337	20121114.170303	dt-conversation	8	0.013328	60	10	60-180	60	80	GapExp	0	191	2	3	0	target	0	462	-1000	179280	13.328	12.882	13.780
TrackDT02	1	TrackDT	2.0	SCS215a	20121114.164337	20121114.170308	dt-conversation	8	0.013328	60	10	60-180	60	77	GapExp	0	192	2	6	1	distractor	0	590	-1000	178280	13.328	13.304	13.357
TrackDT02	1	TrackDT	2.0	SCS215a	20121114.164337	20121114.170313	dt-conversation	8	0.013328	60	10	60-180	60	138	GapExp	0	193	2	3	1	target	1	457	772	179052	13.328	13.061	13.595
TrackDT02	1	TrackDT	2.0	SCS215a	20121114.164337	20121114.170319	dt-conversation	8	0.013328	60	10	60-180	60	143	GapExp	0	194	2	6	1	target	1	482	759	179811	13.328	13.097	13.572
TrackDT02	1	TrackDT	2.0	SCS215a	20121114.164337	20121114.170325	dt-conversation	8	0.013328	60	10	60-180	60	84	GapExp	0	195	2	0	1	target	1	314	843	180654	13.328	12.940	13.717
TrackDT02	1	TrackDT	2.0	SCS215a	20121114.164337	20121114.170330	dt-conversation	8	0.013328	60	10	60-180	60	74	GapExp	0	196	2	6	1	target	1	520	740	181394	13.328	13.299	13.352
TrackDT02	1	TrackDT	2.0	SCS215a	20121114.164337	20121114.170335	dt-conversation	8	0.013328	60	10	60-180	60	87	GapExp	0	197	2	0	0	distractor	1	597	702	182096	13.328	12.869	13.769
TrackDT02	1	TrackDT	2.0	SCS215a	20121114.164337	20121114.170340	dt-conversation	8	0.013328	60	10	60-180	60	180	GapExp	0	198	2	30	0	target	0	632	-1000	181096	13.328	13.106	13.539
TrackDT02	1	TrackDT	2.0	SCS215a	20121114.164337	20121114.170347	dt-conversation	8	0.013328	60	10	60-180	60	71	GapExp	0	199	2	30	0	target	0	572	-1000	180096	13.328	13.158	13.507
TrackDT02	1	TrackDT	2.0	SCS215a	20121114.164337	20121114.170353	dt-conversation	8	0.013328	60	10	60-180	60	121	GapExp	0	200	2	0	0	distractor	1	691	655	180751	13.328	13.100	13.551
