exp	sub	code	rev	comp	runtime	trialtime	stdt	nstim	refreshdur	cuedur	gapdur	gapOnsetRange	durPostProbe	gapOnsetTime	blocktype	prac	trial	ntargets	soa	probeTarget	resp	acc	rt	pts	tpts	meanFrameDur	minFrameDur	maxFrameDur
TrackDT02	2	TrackDT	2.0	SCS215a	20121121.173303	20121121.173530	single-task	8	0.013328	60	0	60-180	60	126	NoGap	1	1	2	1	0	distractor	1	1042	479	479	13.328	10.528	16.308
TrackDT02	2	TrackDT	2.0	SCS215a	20121121.173303	20121121.173537	single-task	8	0.013328	60	0	60-180	60	161	NoGap	1	2	2	1	1	target	1	1153	424	903	13.328	13.106	13.557
TrackDT02	2	TrackDT	2.0	SCS215a	20121121.173303	20121121.173544	single-task	8	0.013328	60	0	60-180	60	149	NoGap	1	3	2	3	1	distractor	0	1002	-1000	-97	13.374	10.229	24.823
TrackDT02	2	TrackDT	2.0	SCS215a	20121121.173303	20121121.173550	single-task	8	0.013328	60	0	60-180	60	168	NoGap	1	4	2	30	1	target	1	628	686	589	13.328	11.264	15.393
TrackDT02	2	TrackDT	2.0	SCS215a	20121121.173303	20121121.173557	single-task	8	0.013328	60	0	60-180	60	92	NoGap	1	5	2	3	0	target	0	868	-1000	-411	13.328	12.051	14.616
TrackDT02	2	TrackDT	2.0	SCS215a	20121121.173303	20121121.173603	single-task	8	0.013328	60	0	60-180	60	103	NoGap	1	6	2	0	0	target	0	945	-1000	-1411	13.328	10.541	16.123
TrackDT02	2	TrackDT	2.0	SCS215a	20121121.173303	20121121.173609	single-task	8	0.013328	60	0	60-180	60	167	NoGap	1	7	2	30	1	target	1	422	789	-622	13.416	9.679	32.949
TrackDT02	2	TrackDT	2.0	SCS215a	20121121.173303	20121121.173616	single-task	8	0.013328	60	0	60-180	60	165	NoGap	1	8	2	30	0	distractor	1	867	567	-55	13.409	2.741	38.890
TrackDT02	2	TrackDT	2.0	SCS215a	20121121.173303	20121121.173623	single-task	8	0.013328	60	0	60-180	60	84	NoGap	1	9	2	3	1	target	1	583	709	654	13.328	13.308	13.351
TrackDT02	2	TrackDT	2.0	SCS215a	20121121.173303	20121121.173628	single-task	8	0.013328	60	0	60-180	60	73	NoGap	1	10	2	6	0	distractor	1	724	638	1292	13.392	11.917	26.424
TrackDT02	2	TrackDT	2.0	SCS215a	20121121.173303	20121121.173633	single-task	8	0.013328	60	0	60-180	60	172	NoGap	1	11	2	3	1	target	1	543	729	2021	13.328	10.096	16.554
TrackDT02	2	TrackDT	2.0	SCS215a	20121121.173303	20121121.173640	single-task	8	0.013328	60	0	60-180	60	90	NoGap	1	12	2	1	1	target	1	729	636	2657	13.328	11.351	15.291
TrackDT02	2	TrackDT	2.0	SCS215a	20121121.173303	20121121.173645	single-task	8	0.013328	60	0	60-180	60	119	NoGap	1	13	2	30	1	target	1	668	666	3323	13.328	5.273	21.375
TrackDT02	2	TrackDT	2.0	SCS215a	20121121.173303	20121121.173651	single-task	8	0.013328	60	0	60-180	60	175	NoGap	1	14	2	1	1	target	1	584	708	4031	13.328	9.969	16.683
TrackDT02	2	TrackDT	2.0	SCS215a	20121121.173303	20121121.173658	single-task	8	0.013328	60	0	60-180	60	111	NoGap	1	15	2	30	0	distractor	1	729	636	4667	13.427	4.800	39.815
TrackDT02	2	TrackDT	2.0	SCS215a	20121121.173303	20121121.173704	single-task	8	0.013328	60	0	60-180	60	76	NoGap	1	16	2	0	0	distractor	1	855	573	5240	13.328	9.361	17.289
TrackDT02	2	TrackDT	2.0	SCS215a	20121121.173303	20121121.173709	single-task	8	0.013328	60	0	60-180	60	67	NoGap	1	17	2	6	0	distractor	1	728	636	5876	13.328	8.479	18.183
TrackDT02	2	TrackDT	2.0	SCS215a	20121121.173303	20121121.173715	single-task	8	0.013328	60	0	60-180	60	145	NoGap	1	18	2	30	0	distractor	1	664	668	6544	13.328	10.857	15.794
TrackDT02	2	TrackDT	2.0	SCS215a	20121121.173303	20121121.173721	single-task	8	0.013328	60	0	60-180	60	142	NoGap	1	19	2	6	1	target	1	617	692	7236	13.427	12.227	34.878
TrackDT02	2	TrackDT	2.0	SCS215a	20121121.173303	20121121.173727	single-task	8	0.013328	60	0	60-180	60	132	NoGap	1	20	2	1	0	distractor	1	610	695	7931	13.328	10.462	16.207
TrackDT02	2	TrackDT	2.0	SCS215a	20121121.173303	20121121.173733	single-task	8	0.013328	60	0	60-180	60	152	NoGap	1	21	2	0	0	distractor	1	684	658	8589	13.328	7.497	19.157
TrackDT02	2	TrackDT	2.0	SCS215a	20121121.173303	20121121.173739	single-task	8	0.013328	60	0	60-180	60	67	NoGap	1	22	2	30	1	target	1	452	774	9363	13.328	10.214	16.429
TrackDT02	2	TrackDT	2.0	SCS215a	20121121.173303	20121121.173744	single-task	8	0.013328	60	0	60-180	60	97	NoGap	1	23	2	3	0	distractor	1	647	677	10040	13.328	13.308	13.347
TrackDT02	2	TrackDT	2.0	SCS215a	20121121.173303	20121121.173750	single-task	8	0.013328	60	0	60-180	60	160	NoGap	1	24	2	0	1	target	1	715	643	10683	13.328	13.076	13.574
TrackDT02	2	TrackDT	2.0	SCS215a	20121121.173303	20121121.173757	single-task	8	0.013328	60	0	60-180	60	126	NoGap	1	25	2	0	1	target	1	545	728	11411	13.438	13.105	26.896
TrackDT02	2	TrackDT	2.0	SCS215a	20121121.173303	20121121.173802	single-task	8	0.013328	60	0	60-180	60	177	NoGap	1	26	2	1	1	target	1	330	835	12246	13.376	12.928	26.678
TrackDT02	2	TrackDT	2.0	SCS215a	20121121.173303	20121121.173809	single-task	8	0.013328	60	0	60-180	60	63	NoGap	1	27	2	6	1	target	1	596	702	12948	13.328	10.216	16.447
TrackDT02	2	TrackDT	2.0	SCS215a	20121121.173303	20121121.173814	single-task	8	0.013328	60	0	60-180	60	129	NoGap	1	28	2	1	0	distractor	1	477	762	13710	13.328	8.042	18.626
TrackDT02	2	TrackDT	2.0	SCS215a	20121121.173303	20121121.173819	single-task	8	0.013328	60	0	60-180	60	118	NoGap	1	29	2	1	1	target	1	567	717	14427	13.328	13.305	13.353
TrackDT02	2	TrackDT	2.0	SCS215a	20121121.173303	20121121.173825	single-task	8	0.013328	60	0	60-180	60	169	NoGap	1	30	2	3	0	distractor	1	495	753	15180	13.328	13.100	13.543
TrackDT02	2	TrackDT	2.0	SCS215a	20121121.173303	20121121.173832	single-task	8	0.013328	60	0	60-180	60	149	NoGap	1	31	2	1	0	distractor	1	539	731	15911	13.328	13.097	13.563
TrackDT02	2	TrackDT	2.0	SCS215a	20121121.173303	20121121.173837	single-task	8	0.013328	60	0	60-180	60	137	NoGap	1	32	2	0	0	distractor	1	585	708	16619	13.328	11.041	15.616
TrackDT02	2	TrackDT	2.0	SCS215a	20121121.173303	20121121.173843	single-task	8	0.013328	60	0	60-180	60	151	NoGap	1	33	2	3	0	target	0	509	-1000	15619	13.328	10.932	15.718
TrackDT02	2	TrackDT	2.0	SCS215a	20121121.173303	20121121.173849	single-task	8	0.013328	60	0	60-180	60	66	NoGap	1	34	2	0	1	target	1	1008	496	16115	13.328	13.289	13.362
TrackDT02	2	TrackDT	2.0	SCS215a	20121121.173303	20121121.173855	single-task	8	0.013328	60	0	60-180	60	80	NoGap	1	35	2	1	0	distractor	1	972	514	16629	13.328	11.995	14.662
TrackDT02	2	TrackDT	2.0	SCS215a	20121121.173303	20121121.173901	single-task	8	0.013328	60	0	60-180	60	70	NoGap	1	36	2	6	1	target	1	613	694	17323	13.328	13.106	13.544
TrackDT02	2	TrackDT	2.0	SCS215a	20121121.173303	20121121.173906	single-task	8	0.013328	60	0	60-180	60	113	NoGap	1	37	2	6	1	target	1	572	714	18037	13.328	13.168	13.487
TrackDT02	2	TrackDT	2.0	SCS215a	20121121.173303	20121121.173911	single-task	8	0.013328	60	0	60-180	60	141	NoGap	1	38	2	0	1	target	1	599	701	18738	13.379	8.588	26.432
TrackDT02	2	TrackDT	2.0	SCS215a	20121121.173303	20121121.173917	single-task	8	0.013328	60	0	60-180	60	67	NoGap	1	39	2	0	0	distractor	1	745	628	19366	13.464	5.907	26.577
TrackDT02	2	TrackDT	2.0	SCS215a	20121121.173303	20121121.173922	single-task	8	0.013328	60	0	60-180	60	149	NoGap	1	40	2	0	1	target	1	466	767	20133	13.328	8.771	17.872
TrackDT02	2	TrackDT	2.0	SCS215a	20121121.173303	20121121.173928	single-task	8	0.013328	60	0	60-180	60	119	NoGap	1	41	2	6	0	distractor	1	518	741	20874	13.328	10.614	16.027
TrackDT02	2	TrackDT	2.0	SCS215a	20121121.173303	20121121.173934	single-task	8	0.013328	60	0	60-180	60	152	NoGap	1	42	2	30	1	target	1	932	534	21408	13.328	13.106	13.565
TrackDT02	2	TrackDT	2.0	SCS215a	20121121.173303	20121121.173941	single-task	8	0.013328	60	0	60-180	60	69	NoGap	1	43	2	30	0	distractor	1	753	624	22032	13.328	9.321	17.335
TrackDT02	2	TrackDT	2.0	SCS215a	20121121.173303	20121121.173946	single-task	8	0.013328	60	0	60-180	60	93	NoGap	1	44	2	3	0	distractor	1	700	650	22682	13.328	6.332	20.326
TrackDT02	2	TrackDT	2.0	SCS215a	20121121.173303	20121121.173952	single-task	8	0.013328	60	0	60-180	60	100	NoGap	1	45	2	6	0	distractor	1	727	637	23319	13.328	6.388	20.279
TrackDT02	2	TrackDT	2.0	SCS215a	20121121.173303	20121121.173957	single-task	8	0.013328	60	0	60-180	60	168	NoGap	1	46	2	6	1	target	1	407	797	24116	13.328	13.297	13.346
TrackDT02	2	TrackDT	2.0	SCS215a	20121121.173303	20121121.174004	single-task	8	0.013328	60	0	60-180	60	77	NoGap	1	47	2	3	1	target	1	589	706	24822	13.328	11.765	14.898
TrackDT02	2	TrackDT	2.0	SCS215a	20121121.173303	20121121.174009	single-task	8	0.013328	60	0	60-180	60	157	NoGap	1	48	2	30	0	distractor	1	674	663	25485	13.328	13.075	13.582
TrackDT02	2	TrackDT	2.0	SCS215a	20121121.173303	20121121.174016	single-task	8	0.013328	60	0	60-180	60	81	NoGap	1	49	2	3	1	target	1	580	710	26195	13.328	13.299	13.371
TrackDT02	2	TrackDT	2.0	SCS215a	20121121.173303	20121121.174021	single-task	8	0.013328	60	0	60-180	60	120	NoGap	1	50	2	6	0	distractor	1	602	699	26894	13.328	7.736	18.928
TrackDT02	2	TrackDT	2.0	SCS215a	20121121.174201	20121121.174212	single-task	8	0.013327	60	10	60-180	60	116	GapPrac	1	1	2	0	0	distractor	1	1089	456	27350	13.328	13.306	13.347
TrackDT02	2	TrackDT	2.0	SCS215a	20121121.174201	20121121.174219	single-task	8	0.013327	60	10	60-180	60	158	GapPrac	1	2	2	6	1	target	1	1115	443	27793	13.328	13.307	13.346
TrackDT02	2	TrackDT	2.0	SCS215a	20121121.174201	20121121.174226	single-task	8	0.013327	60	10	60-180	60	141	GapPrac	1	3	2	3	0	distractor	1	807	597	28390	13.328	11.329	15.322
TrackDT02	2	TrackDT	2.0	SCS215a	20121121.174201	20121121.174232	single-task	8	0.013327	60	10	60-180	60	81	GapPrac	1	4	2	1	1	target	1	700	650	29040	13.328	9.816	16.836
TrackDT02	2	TrackDT	2.0	SCS215a	20121121.174201	20121121.174238	single-task	8	0.013327	60	10	60-180	60	156	GapPrac	1	5	2	3	1	target	1	799	601	29641	13.328	9.799	16.858
TrackDT02	2	TrackDT	2.0	SCS215a	20121121.174201	20121121.174244	single-task	8	0.013327	60	10	60-180	60	64	GapPrac	1	6	2	1	1	target	1	945	528	30169	13.328	8.953	17.702
TrackDT02	2	TrackDT	2.0	SCS215a	20121121.174201	20121121.174250	single-task	8	0.013327	60	10	60-180	60	154	GapPrac	1	7	2	30	1	distractor	0	763	-1000	29169	13.328	8.966	17.699
TrackDT02	2	TrackDT	2.0	SCS215a	20121121.174201	20121121.174257	single-task	8	0.013327	60	10	60-180	60	130	GapPrac	1	8	2	3	1	target	1	899	551	29720	13.328	13.288	13.361
TrackDT02	2	TrackDT	2.0	SCS215a	20121121.174201	20121121.174303	single-task	8	0.013327	60	10	60-180	60	99	GapPrac	1	9	2	3	0	distractor	1	874	563	30283	13.328	11.320	15.322
TrackDT02	2	TrackDT	2.0	SCS215a	20121121.174201	20121121.174309	single-task	8	0.013327	60	10	60-180	60	92	GapPrac	1	10	2	6	0	target	0	1186	-1000	29283	13.328	9.759	16.904
TrackDT02	2	TrackDT	2.0	SCS215a	20121121.174201	20121121.174315	single-task	8	0.013327	60	10	60-180	60	93	GapPrac	1	11	2	0	0	target	0	1096	-1000	28283	13.328	9.466	17.196
TrackDT02	2	TrackDT	2.0	SCS215a	20121121.174201	20121121.174321	single-task	8	0.013327	60	10	60-180	60	171	GapPrac	1	12	2	6	0	target	0	903	-1000	27283	13.328	10.594	16.058
TrackDT02	2	TrackDT	2.0	SCS215a	20121121.174201	20121121.174328	single-task	8	0.013327	60	10	60-180	60	151	GapPrac	1	13	2	30	1	target	1	909	546	27829	13.328	13.032	13.616
TrackDT02	2	TrackDT	2.0	SCS215a	20121121.174201	20121121.174335	single-task	8	0.013327	60	10	60-180	60	87	GapPrac	1	14	2	1	0	distractor	1	803	599	28428	13.328	11.913	14.745
TrackDT02	2	TrackDT	2.0	SCS215a	20121121.174201	20121121.174340	single-task	8	0.013327	60	10	60-180	60	141	GapPrac	1	15	2	6	1	target	1	583	709	29137	13.328	10.441	16.216
TrackDT02	2	TrackDT	2.0	SCS215a	20121121.174201	20121121.174346	single-task	8	0.013327	60	10	60-180	60	139	GapPrac	1	16	2	30	0	target	0	899	-1000	28137	13.328	10.030	16.640
TrackDT02	2	TrackDT	2.0	SCS215a	20121121.174201	20121121.174354	single-task	8	0.013327	60	10	60-180	60	86	GapPrac	1	17	2	0	1	target	1	1040	480	28617	13.328	13.090	13.572
TrackDT02	2	TrackDT	2.0	SCS215a	20121121.174201	20121121.174359	single-task	8	0.013327	60	10	60-180	60	123	GapPrac	1	18	2	30	0	distractor	1	787	607	29224	13.328	11.353	16.889
TrackDT02	2	TrackDT	2.0	SCS215a	20121121.174201	20121121.174406	single-task	8	0.013327	60	10	60-180	60	83	GapPrac	1	19	2	0	1	target	1	750	625	29849	13.328	8.856	17.793
TrackDT02	2	TrackDT	2.0	SCS215a	20121121.174201	20121121.174411	single-task	8	0.013327	60	10	60-180	60	80	GapPrac	1	20	2	1	0	distractor	1	668	666	30515	13.328	12.612	14.038
TrackDT02	2	TrackDT	2.0	SCS215a	20121121.174612	20121121.174625	single-task	8	0.013328	60	10	60-180	60	155	GapExp	1	1	2	0	1	target	1	1272	364	30879	13.328	13.247	13.420
TrackDT02	2	TrackDT	2.0	SCS215a	20121121.174612	20121121.174633	single-task	8	0.013328	60	10	60-180	60	102	GapExp	1	2	2	3	0	distractor	1	688	656	31535	13.328	13.303	13.351
TrackDT02	2	TrackDT	2.0	SCS215a	20121121.174612	20121121.174638	single-task	8	0.013328	60	10	60-180	60	105	GapExp	1	3	2	6	1	target	1	743	629	32164	13.328	12.903	13.747
TrackDT02	2	TrackDT	2.0	SCS215a	20121121.174612	20121121.174644	single-task	8	0.013328	60	10	60-180	60	87	GapExp	1	4	2	3	1	target	1	418	791	32955	13.328	13.098	13.553
TrackDT02	2	TrackDT	2.0	SCS215a	20121121.174612	20121121.174649	single-task	8	0.013328	60	10	60-180	60	166	GapExp	1	5	2	30	0	distractor	1	813	594	33549	13.328	12.928	13.722
TrackDT02	2	TrackDT	2.0	SCS215a	20121121.174612	20121121.174656	single-task	8	0.013328	60	10	60-180	60	72	GapExp	1	6	2	0	0	distractor	1	737	632	34181	13.328	12.906	13.764
TrackDT02	2	TrackDT	2.0	SCS215a	20121121.174612	20121121.174701	single-task	8	0.013328	60	10	60-180	60	62	GapExp	1	7	2	6	0	target	0	647	-1000	33181	13.328	12.966	13.708
TrackDT02	2	TrackDT	2.0	SCS215a	20121121.174612	20121121.174707	single-task	8	0.013328	60	10	60-180	60	180	GapExp	1	8	2	1	1	target	1	609	696	33877	13.328	13.302	13.362
TrackDT02	2	TrackDT	2.0	SCS215a	20121121.174612	20121121.174714	single-task	8	0.013328	60	10	60-180	60	129	GapExp	1	9	2	1	0	distractor	1	549	726	34603	13.328	12.937	13.721
TrackDT02	2	TrackDT	2.0	SCS215a	20121121.174612	20121121.174719	single-task	8	0.013328	60	10	60-180	60	127	GapExp	1	10	2	30	1	target	1	579	711	35314	13.328	12.860	13.811
TrackDT02	2	TrackDT	2.0	SCS215a	20121121.174612	20121121.174726	single-task	8	0.013328	60	10	60-180	60	170	GapExp	0	11	2	1	0	distractor	1	593	704	36018	13.328	12.867	13.779
TrackDT02	2	TrackDT	2.0	SCS215a	20121121.174612	20121121.174732	single-task	8	0.013328	60	10	60-180	60	62	GapExp	0	12	2	1	1	target	1	590	705	36723	13.328	12.866	13.794
TrackDT02	2	TrackDT	2.0	SCS215a	20121121.174612	20121121.174738	single-task	8	0.013328	60	10	60-180	60	87	GapExp	0	13	2	3	1	target	1	659	671	37394	13.328	12.967	13.703
TrackDT02	2	TrackDT	2.0	SCS215a	20121121.174612	20121121.174743	single-task	8	0.013328	60	10	60-180	60	156	GapExp	0	14	2	6	1	target	1	405	798	38192	13.328	13.306	13.350
TrackDT02	2	TrackDT	2.0	SCS215a	20121121.174612	20121121.174749	single-task	8	0.013328	60	10	60-180	60	167	GapExp	0	15	2	30	0	distractor	1	502	749	38941	13.328	12.898	13.791
TrackDT02	2	TrackDT	2.0	SCS215a	20121121.174612	20121121.174756	single-task	8	0.013328	60	10	60-180	60	111	GapExp	0	16	2	6	0	distractor	1	507	747	39688	13.328	12.858	13.813
TrackDT02	2	TrackDT	2.0	SCS215a	20121121.174612	20121121.174801	single-task	8	0.013328	60	10	60-180	60	98	GapExp	0	17	2	1	1	target	1	743	629	40317	13.328	12.948	13.716
TrackDT02	2	TrackDT	2.0	SCS215a	20121121.174612	20121121.174807	single-task	8	0.013328	60	10	60-180	60	63	GapExp	0	18	2	6	1	target	1	457	772	41089	13.328	12.926	13.725
TrackDT02	2	TrackDT	2.0	SCS215a	20121121.174612	20121121.174812	single-task	8	0.013328	60	10	60-180	60	166	GapExp	0	19	2	1	1	target	1	534	733	41822	13.328	13.106	13.547
TrackDT02	2	TrackDT	2.0	SCS215a	20121121.174612	20121121.174819	single-task	8	0.013328	60	10	60-180	60	154	GapExp	0	20	2	6	0	distractor	1	645	678	42500	13.328	13.107	13.556
TrackDT02	2	TrackDT	2.0	SCS215a	20121121.174612	20121121.174825	single-task	8	0.013328	60	10	60-180	60	169	GapExp	0	21	2	0	1	target	1	672	664	43164	13.328	12.920	13.731
TrackDT02	2	TrackDT	2.0	SCS215a	20121121.174612	20121121.174831	single-task	8	0.013328	60	10	60-180	60	65	GapExp	0	22	2	0	1	target	1	528	736	43900	13.328	12.847	13.812
TrackDT02	2	TrackDT	2.0	SCS215a	20121121.174612	20121121.174836	single-task	8	0.013328	60	10	60-180	60	174	GapExp	0	23	2	1	0	distractor	1	615	693	44593	13.328	13.086	13.564
TrackDT02	2	TrackDT	2.0	SCS215a	20121121.174612	20121121.174843	single-task	8	0.013328	60	10	60-180	60	104	GapExp	0	24	2	0	0	distractor	1	618	691	45284	13.328	13.098	13.552
TrackDT02	2	TrackDT	2.0	SCS215a	20121121.174612	20121121.174849	single-task	8	0.013328	60	10	60-180	60	131	GapExp	0	25	2	6	1	target	1	648	676	45960	13.328	13.092	13.550
TrackDT02	2	TrackDT	2.0	SCS215a	20121121.174612	20121121.174855	single-task	8	0.013328	60	10	60-180	60	82	GapExp	0	26	2	3	0	distractor	1	471	765	46725	13.329	12.907	13.736
TrackDT02	2	TrackDT	2.0	SCS215a	20121121.174612	20121121.174900	single-task	8	0.013328	60	10	60-180	60	72	GapExp	0	27	2	1	0	distractor	1	701	650	47375	13.329	12.839	13.808
TrackDT02	2	TrackDT	2.0	SCS215a	20121121.174612	20121121.174905	single-task	8	0.013328	60	10	60-180	60	156	GapExp	0	28	2	30	0	distractor	1	458	771	48146	13.328	12.835	13.825
TrackDT02	2	TrackDT	2.0	SCS215a	20121121.174612	20121121.174911	single-task	8	0.013328	60	10	60-180	60	138	GapExp	0	29	2	6	0	distractor	1	594	703	48849	13.327	13.094	13.345
TrackDT02	2	TrackDT	2.0	SCS215a	20121121.174612	20121121.174918	single-task	8	0.013328	60	10	60-180	60	167	GapExp	0	30	2	0	0	target	0	612	-1000	47849	13.328	13.101	13.554
TrackDT02	2	TrackDT	2.0	SCS215a	20121121.174612	20121121.174924	single-task	8	0.013328	60	10	60-180	60	76	GapExp	0	31	2	0	1	target	1	730	635	48484	13.328	12.913	13.735
TrackDT02	2	TrackDT	2.0	SCS215a	20121121.174612	20121121.174930	single-task	8	0.013328	60	10	60-180	60	143	GapExp	0	32	2	3	1	target	1	701	650	49134	13.328	13.107	13.551
TrackDT02	2	TrackDT	2.0	SCS215a	20121121.174612	20121121.174936	single-task	8	0.013328	60	10	60-180	60	94	GapExp	0	33	2	6	0	target	0	487	-1000	48134	13.328	12.883	13.775
TrackDT02	2	TrackDT	2.0	SCS215a	20121121.174612	20121121.174941	single-task	8	0.013328	60	10	60-180	60	151	GapExp	0	34	2	6	0	distractor	1	565	718	48852	13.328	12.932	13.721
TrackDT02	2	TrackDT	2.0	SCS215a	20121121.174612	20121121.174947	single-task	8	0.013328	60	10	60-180	60	116	GapExp	0	35	2	1	0	distractor	1	807	597	49449	13.328	12.916	13.741
TrackDT02	2	TrackDT	2.0	SCS215a	20121121.174612	20121121.174954	single-task	8	0.013328	60	10	60-180	60	66	GapExp	0	36	2	6	1	target	1	577	712	50161	13.328	13.290	13.350
TrackDT02	2	TrackDT	2.0	SCS215a	20121121.174612	20121121.174959	single-task	8	0.013328	60	10	60-180	60	157	GapExp	0	37	2	1	1	target	1	466	767	50928	13.328	13.311	13.353
TrackDT02	2	TrackDT	2.0	SCS215a	20121121.174612	20121121.175005	single-task	8	0.013328	60	10	60-180	60	62	GapExp	0	38	2	6	1	target	1	393	804	51732	13.328	12.854	13.799
TrackDT02	2	TrackDT	2.0	SCS215a	20121121.174612	20121121.175009	single-task	8	0.013328	60	10	60-180	60	62	GapExp	0	39	2	30	0	distractor	1	630	685	52417	13.328	12.875	13.785
TrackDT02	2	TrackDT	2.0	SCS215a	20121121.174612	20121121.175015	single-task	8	0.013328	60	10	60-180	60	172	GapExp	0	40	2	1	0	distractor	1	846	577	52994	13.328	12.957	13.708
TrackDT02	2	TrackDT	2.0	SCS215a	20121121.174612	20121121.175021	single-task	8	0.013328	60	10	60-180	60	114	GapExp	0	41	2	3	0	target	0	839	-1000	51994	13.327	13.104	13.481
TrackDT02	2	TrackDT	2.0	SCS215a	20121121.174612	20121121.175028	single-task	8	0.013328	60	10	60-180	60	109	GapExp	0	42	2	30	0	distractor	1	662	669	52663	13.328	12.931	13.708
TrackDT02	2	TrackDT	2.0	SCS215a	20121121.174612	20121121.175034	single-task	8	0.013328	60	10	60-180	60	95	GapExp	0	43	2	30	0	target	0	1103	-1000	51663	13.328	13.106	13.548
TrackDT02	2	TrackDT	2.0	SCS215a	20121121.174612	20121121.175040	single-task	8	0.013328	60	10	60-180	60	135	GapExp	0	44	2	30	1	target	1	695	653	52316	13.328	12.875	13.782
TrackDT02	2	TrackDT	2.0	SCS215a	20121121.174612	20121121.175047	single-task	8	0.013328	60	10	60-180	60	116	GapExp	0	45	2	30	1	target	1	623	689	53005	13.328	12.878	13.772
TrackDT02	2	TrackDT	2.0	SCS215a	20121121.174612	20121121.175053	single-task	8	0.013328	60	10	60-180	60	125	GapExp	0	46	2	3	0	distractor	1	947	527	53532	13.328	12.899	13.764
TrackDT02	2	TrackDT	2.0	SCS215a	20121121.174612	20121121.175059	single-task	8	0.013328	60	10	60-180	60	123	GapExp	0	47	2	0	0	distractor	1	670	665	54197	13.328	12.881	13.783
TrackDT02	2	TrackDT	2.0	SCS215a	20121121.174612	20121121.175105	single-task	8	0.013328	60	10	60-180	60	134	GapExp	0	48	2	3	1	target	1	538	731	54928	13.328	13.304	13.348
TrackDT02	2	TrackDT	2.0	SCS215a	20121121.174612	20121121.175111	single-task	8	0.013328	60	10	60-180	60	84	GapExp	0	49	2	0	0	distractor	1	900	550	55478	13.328	12.850	13.801
TrackDT02	2	TrackDT	2.0	SCS215a	20121121.174612	20121121.175117	single-task	8	0.013328	60	10	60-180	60	102	GapExp	0	50	2	6	0	distractor	1	663	669	56147	13.328	12.922	13.736
TrackDT02	2	TrackDT	2.0	SCS215a	20121121.174612	20121121.175129	single-task	8	0.013328	60	10	60-180	60	63	GapExp	0	51	2	3	0	distractor	1	753	624	56771	13.328	13.083	13.559
TrackDT02	2	TrackDT	2.0	SCS215a	20121121.174612	20121121.175134	single-task	8	0.013328	60	10	60-180	60	152	GapExp	0	52	2	30	1	target	1	608	696	57467	13.328	12.880	13.777
TrackDT02	2	TrackDT	2.0	SCS215a	20121121.174612	20121121.175141	single-task	8	0.013328	60	10	60-180	60	180	GapExp	0	53	2	0	0	distractor	1	693	654	58121	13.328	12.875	13.788
TrackDT02	2	TrackDT	2.0	SCS215a	20121121.174612	20121121.175148	single-task	8	0.013328	60	10	60-180	60	81	GapExp	0	54	2	30	1	target	1	688	656	58777	13.328	12.857	13.794
TrackDT02	2	TrackDT	2.0	SCS215a	20121121.174612	20121121.175153	single-task	8	0.013328	60	10	60-180	60	77	GapExp	0	55	2	1	0	distractor	1	836	582	59359	13.328	12.929	13.721
TrackDT02	2	TrackDT	2.0	SCS215a	20121121.174612	20121121.175159	single-task	8	0.013328	60	10	60-180	60	162	GapExp	0	56	2	3	0	distractor	1	526	737	60096	13.420	12.865	27.051
TrackDT02	2	TrackDT	2.0	SCS215a	20121121.174612	20121121.175205	single-task	8	0.013328	60	10	60-180	60	178	GapExp	0	57	2	0	0	distractor	1	755	623	60719	13.328	12.960	13.695
TrackDT02	2	TrackDT	2.0	SCS215a	20121121.174612	20121121.175212	single-task	8	0.013328	60	10	60-180	60	126	GapExp	0	58	2	3	1	target	1	777	612	61331	13.328	13.308	13.357
TrackDT02	2	TrackDT	2.0	SCS215a	20121121.174612	20121121.175218	single-task	8	0.013328	60	10	60-180	60	129	GapExp	0	59	2	30	0	distractor	1	899	551	61882	13.328	12.866	13.786
TrackDT02	2	TrackDT	2.0	SCS215a	20121121.174612	20121121.175225	single-task	8	0.013328	60	10	60-180	60	120	GapExp	0	60	2	3	1	distractor	0	928	-1000	60882	13.328	12.995	13.657
TrackDT02	2	TrackDT	2.0	SCS215a	20121121.174612	20121121.175231	single-task	8	0.013328	60	10	60-180	60	118	GapExp	0	61	2	1	1	target	1	579	711	61593	13.328	12.955	13.688
TrackDT02	2	TrackDT	2.0	SCS215a	20121121.174612	20121121.175237	single-task	8	0.013328	60	10	60-180	60	100	GapExp	0	62	2	0	0	distractor	1	625	688	62281	13.328	12.978	13.686
TrackDT02	2	TrackDT	2.0	SCS215a	20121121.174612	20121121.175242	single-task	8	0.013328	60	10	60-180	60	165	GapExp	0	63	2	0	1	target	1	851	575	62856	13.328	13.257	13.392
TrackDT02	2	TrackDT	2.0	SCS215a	20121121.174612	20121121.175249	single-task	8	0.013328	60	10	60-180	60	74	GapExp	0	64	2	1	1	target	1	573	714	63570	13.328	12.937	13.729
TrackDT02	2	TrackDT	2.0	SCS215a	20121121.174612	20121121.175254	single-task	8	0.013328	60	10	60-180	60	163	GapExp	0	65	2	3	1	target	1	496	752	64322	13.328	12.907	13.764
TrackDT02	2	TrackDT	2.0	SCS215a	20121121.174612	20121121.175300	single-task	8	0.013328	60	10	60-180	60	91	GapExp	0	66	2	6	0	distractor	1	547	727	65049	13.328	12.841	13.823
TrackDT02	2	TrackDT	2.0	SCS215a	20121121.174612	20121121.175306	single-task	8	0.013328	60	10	60-180	60	149	GapExp	0	67	2	1	0	distractor	1	653	674	65723	13.328	12.960	13.703
TrackDT02	2	TrackDT	2.0	SCS215a	20121121.174612	20121121.175312	single-task	8	0.013328	60	10	60-180	60	162	GapExp	0	68	2	3	1	target	1	687	657	66380	13.328	12.937	13.713
TrackDT02	2	TrackDT	2.0	SCS215a	20121121.174612	20121121.175319	single-task	8	0.013328	60	10	60-180	60	173	GapExp	0	69	2	1	1	target	1	453	774	67154	13.328	12.848	13.809
TrackDT02	2	TrackDT	2.0	SCS215a	20121121.174612	20121121.175325	single-task	8	0.013328	60	10	60-180	60	132	GapExp	0	70	2	0	0	distractor	1	595	703	67857	13.328	13.023	13.634
TrackDT02	2	TrackDT	2.0	SCS215a	20121121.174612	20121121.175331	single-task	8	0.013328	60	10	60-180	60	148	GapExp	0	71	2	3	0	distractor	1	543	729	68586	13.328	12.850	13.811
TrackDT02	2	TrackDT	2.0	SCS215a	20121121.174612	20121121.175337	single-task	8	0.013328	60	10	60-180	60	90	GapExp	0	72	2	0	1	target	1	533	734	69320	13.328	12.884	13.776
TrackDT02	2	TrackDT	2.0	SCS215a	20121121.174612	20121121.175343	single-task	8	0.013328	60	10	60-180	60	80	GapExp	0	73	2	30	1	target	1	480	760	70080	13.328	13.107	13.563
TrackDT02	2	TrackDT	2.0	SCS215a	20121121.174612	20121121.175348	single-task	8	0.013328	60	10	60-180	60	170	GapExp	0	74	2	1	0	distractor	1	545	728	70808	13.328	13.122	13.528
TrackDT02	2	TrackDT	2.0	SCS215a	20121121.174612	20121121.175354	single-task	8	0.013328	60	10	60-180	60	110	GapExp	0	75	2	3	1	target	1	429	786	71594	13.328	13.307	13.363
TrackDT02	2	TrackDT	2.0	SCS215a	20121121.174612	20121121.175400	single-task	8	0.013328	60	10	60-180	60	126	GapExp	0	76	2	6	0	distractor	1	990	505	72099	13.328	12.889	13.775
TrackDT02	2	TrackDT	2.0	SCS215a	20121121.174612	20121121.175406	single-task	8	0.013328	60	10	60-180	60	125	GapExp	0	77	2	1	0	distractor	1	700	650	72749	13.328	12.901	13.749
TrackDT02	2	TrackDT	2.0	SCS215a	20121121.174612	20121121.175412	single-task	8	0.013328	60	10	60-180	60	118	GapExp	0	78	2	6	0	distractor	1	546	727	73476	13.328	12.897	13.766
TrackDT02	2	TrackDT	2.0	SCS215a	20121121.174612	20121121.175418	single-task	8	0.013328	60	10	60-180	60	62	GapExp	0	79	2	30	0	distractor	1	695	653	74129	13.328	12.882	13.774
TrackDT02	2	TrackDT	2.0	SCS215a	20121121.174612	20121121.175424	single-task	8	0.013328	60	10	60-180	60	179	GapExp	0	80	2	3	0	distractor	1	461	770	74899	13.328	13.186	13.475
TrackDT02	2	TrackDT	2.0	SCS215a	20121121.174612	20121121.175430	single-task	8	0.013328	60	10	60-180	60	176	GapExp	0	81	2	3	1	distractor	0	607	-1000	73899	13.328	12.874	13.777
TrackDT02	2	TrackDT	2.0	SCS215a	20121121.174612	20121121.175437	single-task	8	0.013328	60	10	60-180	60	100	GapExp	0	82	2	1	0	distractor	1	649	676	74575	13.328	12.984	13.665
TrackDT02	2	TrackDT	2.0	SCS215a	20121121.174612	20121121.175442	single-task	8	0.013328	60	10	60-180	60	134	GapExp	0	83	2	6	1	target	1	569	716	75291	13.328	12.899	13.744
TrackDT02	2	TrackDT	2.0	SCS215a	20121121.174612	20121121.175449	single-task	8	0.013328	60	10	60-180	60	80	GapExp	0	84	2	1	1	target	1	557	722	76013	13.328	12.908	13.740
TrackDT02	2	TrackDT	2.0	SCS215a	20121121.174612	20121121.175454	single-task	8	0.013328	60	10	60-180	60	83	GapExp	0	85	2	30	0	distractor	1	692	654	76667	13.328	12.941	13.723
TrackDT02	2	TrackDT	2.0	SCS215a	20121121.174612	20121121.175500	single-task	8	0.013328	60	10	60-180	60	164	GapExp	0	86	2	1	0	distractor	1	740	630	77297	13.328	12.855	13.809
TrackDT02	2	TrackDT	2.0	SCS215a	20121121.174612	20121121.175506	single-task	8	0.013328	60	10	60-180	60	166	GapExp	0	87	2	6	1	distractor	0	1015	-1000	76297	13.328	12.909	13.749
TrackDT02	2	TrackDT	2.0	SCS215a	20121121.174612	20121121.175513	single-task	8	0.013328	60	10	60-180	60	125	GapExp	0	88	2	6	0	distractor	1	741	630	76927	13.328	13.086	13.570
TrackDT02	2	TrackDT	2.0	SCS215a	20121121.174612	20121121.175519	single-task	8	0.013328	60	10	60-180	60	138	GapExp	0	89	2	30	1	target	1	692	654	77581	13.328	12.902	13.763
TrackDT02	2	TrackDT	2.0	SCS215a	20121121.174612	20121121.175526	single-task	8	0.013328	60	10	60-180	60	66	GapExp	0	90	2	30	1	distractor	0	713	-1000	76581	13.328	12.973	13.770
TrackDT02	2	TrackDT	2.0	SCS215a	20121121.174612	20121121.175531	single-task	8	0.013328	60	10	60-180	60	114	GapExp	0	91	2	3	0	target	0	861	-1000	75581	13.328	12.851	13.800
TrackDT02	2	TrackDT	2.0	SCS215a	20121121.174612	20121121.175537	single-task	8	0.013328	60	10	60-180	60	66	GapExp	0	92	2	0	0	target	0	774	-1000	74581	13.391	13.019	26.499
TrackDT02	2	TrackDT	2.0	SCS215a	20121121.174612	20121121.175543	single-task	8	0.013328	60	10	60-180	60	67	GapExp	0	93	2	30	0	target	0	1051	-1000	73581	13.328	12.898	13.765
TrackDT02	2	TrackDT	2.0	SCS215a	20121121.174612	20121121.175548	single-task	8	0.013328	60	10	60-180	60	178	GapExp	0	94	2	1	0	target	0	449	-1000	72581	13.328	12.893	13.762
TrackDT02	2	TrackDT	2.0	SCS215a	20121121.174612	20121121.175555	single-task	8	0.013328	60	10	60-180	60	83	GapExp	0	95	2	30	1	target	1	672	664	73245	13.328	12.966	13.706
TrackDT02	2	TrackDT	2.0	SCS215a	20121121.174612	20121121.175601	single-task	8	0.013328	60	10	60-180	60	153	GapExp	0	96	2	1	1	target	1	499	751	73996	13.328	13.010	13.785
TrackDT02	2	TrackDT	2.0	SCS215a	20121121.174612	20121121.175607	single-task	8	0.013328	60	10	60-180	60	135	GapExp	0	97	2	0	1	target	1	323	839	74835	13.328	12.871	13.801
TrackDT02	2	TrackDT	2.0	SCS215a	20121121.174612	20121121.175613	single-task	8	0.013328	60	10	60-180	60	148	GapExp	0	98	2	1	1	target	1	557	722	75557	13.328	12.840	13.825
TrackDT02	2	TrackDT	2.0	SCS215a	20121121.174612	20121121.175619	single-task	8	0.013328	60	10	60-180	60	179	GapExp	0	99	2	6	0	distractor	1	708	646	76203	13.328	12.898	13.766
TrackDT02	2	TrackDT	2.0	SCS215a	20121121.174612	20121121.175626	single-task	8	0.013328	60	10	60-180	60	178	GapExp	0	100	2	1	1	target	1	500	750	76953	13.328	12.832	13.825
TrackDT02	2	TrackDT	2.0	SCS215a	20121121.174612	20121121.175643	single-task	8	0.013328	60	10	60-180	60	62	GapExp	0	101	2	1	0	target	0	837	-1000	75953	13.328	12.892	13.749
TrackDT02	2	TrackDT	2.0	SCS215a	20121121.174612	20121121.175649	single-task	8	0.013328	60	10	60-180	60	115	GapExp	0	102	2	3	1	target	1	428	786	76739	13.328	12.865	13.786
TrackDT02	2	TrackDT	2.0	SCS215a	20121121.174612	20121121.175654	single-task	8	0.013328	60	10	60-180	60	62	GapExp	0	103	2	6	0	distractor	1	565	718	77457	13.465	12.960	39.778
TrackDT02	2	TrackDT	2.0	SCS215a	20121121.174612	20121121.175700	single-task	8	0.013328	60	10	60-180	60	152	GapExp	0	104	2	3	1	distractor	0	509	-1000	76457	13.328	13.110	13.557
TrackDT02	2	TrackDT	2.0	SCS215a	20121121.174612	20121121.175706	single-task	8	0.013328	60	10	60-180	60	158	GapExp	0	105	2	0	1	target	1	618	691	77148	13.328	12.844	13.806
TrackDT02	2	TrackDT	2.0	SCS215a	20121121.174612	20121121.175712	single-task	8	0.013328	60	10	60-180	60	169	GapExp	0	106	2	30	0	distractor	1	573	714	77862	13.328	12.947	13.711
TrackDT02	2	TrackDT	2.0	SCS215a	20121121.174612	20121121.175719	single-task	8	0.013328	60	10	60-180	60	81	GapExp	0	107	2	0	1	target	1	545	728	78590	13.328	12.897	13.760
TrackDT02	2	TrackDT	2.0	SCS215a	20121121.174612	20121121.175724	single-task	8	0.013328	60	10	60-180	60	141	GapExp	0	108	2	0	1	target	1	544	728	79318	13.328	12.851	13.805
TrackDT02	2	TrackDT	2.0	SCS215a	20121121.174612	20121121.175730	single-task	8	0.013328	60	10	60-180	60	74	GapExp	0	109	2	0	1	target	1	389	806	80124	13.328	12.886	13.776
TrackDT02	2	TrackDT	2.0	SCS215a	20121121.174612	20121121.175735	single-task	8	0.013328	60	10	60-180	60	138	GapExp	0	110	2	6	1	target	1	458	771	80895	13.378	12.895	26.368
TrackDT02	2	TrackDT	2.0	SCS215a	20121121.174612	20121121.175741	single-task	8	0.013328	60	10	60-180	60	62	GapExp	0	111	2	6	1	target	1	371	815	81710	13.328	13.106	13.550
TrackDT02	2	TrackDT	2.0	SCS215a	20121121.174612	20121121.175746	single-task	8	0.013328	60	10	60-180	60	126	GapExp	0	112	2	0	1	target	1	299	851	82561	13.328	13.307	13.351
TrackDT02	2	TrackDT	2.0	SCS215a	20121121.174612	20121121.175751	single-task	8	0.013328	60	10	60-180	60	86	GapExp	0	113	2	6	1	target	1	356	822	83383	13.393	13.073	26.424
TrackDT02	2	TrackDT	2.0	SCS215a	20121121.174612	20121121.175756	single-task	8	0.013328	60	10	60-180	60	172	GapExp	0	114	2	1	0	distractor	1	891	555	83938	13.328	12.851	13.806
TrackDT02	2	TrackDT	2.0	SCS215a	20121121.174612	20121121.175804	single-task	8	0.013328	60	10	60-180	60	156	GapExp	0	115	2	1	1	target	1	446	777	84715	13.376	13.275	26.434
TrackDT02	2	TrackDT	2.0	SCS215a	20121121.174612	20121121.175810	single-task	8	0.013328	60	10	60-180	60	137	GapExp	0	116	2	1	1	target	1	505	748	85463	13.328	12.888	13.773
TrackDT02	2	TrackDT	2.0	SCS215a	20121121.174612	20121121.175815	single-task	8	0.013328	60	10	60-180	60	100	GapExp	0	117	2	30	1	target	1	427	787	86250	13.328	12.838	13.811
TrackDT02	2	TrackDT	2.0	SCS215a	20121121.174612	20121121.175821	single-task	8	0.013328	60	10	60-180	60	166	GapExp	0	118	2	3	1	target	1	427	787	87037	13.374	13.020	26.385
TrackDT02	2	TrackDT	2.0	SCS215a	20121121.174612	20121121.175827	single-task	8	0.013328	60	10	60-180	60	66	GapExp	0	119	2	3	0	distractor	1	747	627	87664	13.391	12.910	26.653
TrackDT02	2	TrackDT	2.0	SCS215a	20121121.174612	20121121.175833	single-task	8	0.013328	60	10	60-180	60	82	GapExp	0	120	2	6	1	target	1	323	839	88503	13.328	12.903	13.754
TrackDT02	2	TrackDT	2.0	SCS215a	20121121.174612	20121121.175838	single-task	8	0.013328	60	10	60-180	60	104	GapExp	0	121	2	3	1	target	1	439	781	89284	13.328	12.841	13.808
TrackDT02	2	TrackDT	2.0	SCS215a	20121121.174612	20121121.175843	single-task	8	0.013328	60	10	60-180	60	81	GapExp	0	122	2	30	1	target	1	512	744	90028	13.328	12.856	13.808
TrackDT02	2	TrackDT	2.0	SCS215a	20121121.174612	20121121.175849	single-task	8	0.013328	60	10	60-180	60	88	GapExp	0	123	2	3	1	target	1	403	799	90827	13.457	13.181	39.760
TrackDT02	2	TrackDT	2.0	SCS215a	20121121.174612	20121121.175854	single-task	8	0.013328	60	10	60-180	60	73	GapExp	0	124	2	1	0	target	0	536	-1000	89827	13.328	13.303	13.349
TrackDT02	2	TrackDT	2.0	SCS215a	20121121.174612	20121121.175859	single-task	8	0.013328	60	10	60-180	60	81	GapExp	0	125	2	1	1	target	1	433	784	90611	13.461	12.852	26.661
TrackDT02	2	TrackDT	2.0	SCS215a	20121121.174612	20121121.175904	single-task	8	0.013328	60	10	60-180	60	136	GapExp	0	126	2	6	1	target	1	463	769	91380	13.328	12.914	13.738
TrackDT02	2	TrackDT	2.0	SCS215a	20121121.174612	20121121.175910	single-task	8	0.013328	60	10	60-180	60	82	GapExp	0	127	2	1	1	target	1	509	746	92126	13.328	12.860	13.802
TrackDT02	2	TrackDT	2.0	SCS215a	20121121.174612	20121121.175916	single-task	8	0.013328	60	10	60-180	60	141	GapExp	0	128	2	6	0	distractor	1	594	703	92829	13.328	13.120	13.529
TrackDT02	2	TrackDT	2.0	SCS215a	20121121.174612	20121121.175922	single-task	8	0.013328	60	10	60-180	60	159	GapExp	0	129	2	30	1	target	1	658	671	93500	13.328	13.301	13.354
TrackDT02	2	TrackDT	2.0	SCS215a	20121121.174612	20121121.175928	single-task	8	0.013328	60	10	60-180	60	108	GapExp	0	130	2	0	0	target	0	806	-1000	92500	13.328	13.296	13.368
TrackDT02	2	TrackDT	2.0	SCS215a	20121121.174612	20121121.175934	single-task	8	0.013328	60	10	60-180	60	138	GapExp	0	131	2	1	1	target	1	505	748	93248	13.328	12.868	13.781
TrackDT02	2	TrackDT	2.0	SCS215a	20121121.174612	20121121.175940	single-task	8	0.013328	60	10	60-180	60	166	GapExp	0	132	2	6	1	target	1	411	795	94043	13.328	12.890	13.769
TrackDT02	2	TrackDT	2.0	SCS215a	20121121.174612	20121121.175947	single-task	8	0.013328	60	10	60-180	60	138	GapExp	0	133	2	0	0	distractor	1	616	692	94735	13.328	12.960	13.691
TrackDT02	2	TrackDT	2.0	SCS215a	20121121.174612	20121121.175953	single-task	8	0.013328	60	10	60-180	60	96	GapExp	0	134	2	6	1	target	1	421	790	95525	13.329	12.886	13.765
TrackDT02	2	TrackDT	2.0	SCS215a	20121121.174612	20121121.175958	single-task	8	0.013328	60	10	60-180	60	78	GapExp	0	135	2	0	1	target	1	493	754	96279	13.462	12.886	39.694
TrackDT02	2	TrackDT	2.0	SCS215a	20121121.174612	20121121.180003	single-task	8	0.013328	60	10	60-180	60	123	GapExp	0	136	2	30	0	target	0	726	-1000	95279	13.328	12.849	13.795
TrackDT02	2	TrackDT	2.0	SCS215a	20121121.174612	20121121.180009	single-task	8	0.013328	60	10	60-180	60	173	GapExp	0	137	2	30	0	distractor	1	631	685	95964	13.328	12.856	13.817
TrackDT02	2	TrackDT	2.0	SCS215a	20121121.174612	20121121.180016	single-task	8	0.013328	60	10	60-180	60	105	GapExp	0	138	2	0	0	distractor	1	711	645	96609	13.328	13.082	13.580
TrackDT02	2	TrackDT	2.0	SCS215a	20121121.174612	20121121.180022	single-task	8	0.013328	60	10	60-180	60	171	GapExp	0	139	2	3	1	target	1	426	787	97396	13.374	13.101	26.679
TrackDT02	2	TrackDT	2.0	SCS215a	20121121.174612	20121121.180028	single-task	8	0.013328	60	10	60-180	60	130	GapExp	0	140	2	30	1	target	1	518	741	98137	13.328	13.306	13.351
TrackDT02	2	TrackDT	2.0	SCS215a	20121121.174612	20121121.180034	single-task	8	0.013328	60	10	60-180	60	114	GapExp	0	141	2	6	1	target	1	431	785	98922	13.328	13.050	13.577
TrackDT02	2	TrackDT	2.0	SCS215a	20121121.174612	20121121.180040	single-task	8	0.013328	60	10	60-180	60	128	GapExp	0	142	2	1	1	target	1	503	749	99671	13.328	12.867	13.793
TrackDT02	2	TrackDT	2.0	SCS215a	20121121.174612	20121121.180046	single-task	8	0.013328	60	10	60-180	60	147	GapExp	0	143	2	6	1	target	1	374	813	100484	13.328	12.918	13.732
TrackDT02	2	TrackDT	2.0	SCS215a	20121121.174612	20121121.180052	single-task	8	0.013328	60	10	60-180	60	95	GapExp	0	144	2	6	1	target	1	380	810	101294	13.328	12.992	13.679
TrackDT02	2	TrackDT	2.0	SCS215a	20121121.174612	20121121.180057	single-task	8	0.013328	60	10	60-180	60	149	GapExp	0	145	2	0	0	distractor	1	757	622	101916	13.328	12.945	13.721
TrackDT02	2	TrackDT	2.0	SCS215a	20121121.174612	20121121.180104	single-task	8	0.013328	60	10	60-180	60	161	GapExp	0	146	2	6	0	distractor	1	554	723	102639	13.328	13.297	13.357
TrackDT02	2	TrackDT	2.0	SCS215a	20121121.174612	20121121.180110	single-task	8	0.013328	60	10	60-180	60	151	GapExp	0	147	2	30	0	distractor	1	623	689	103328	13.328	12.846	13.811
TrackDT02	2	TrackDT	2.0	SCS215a	20121121.174612	20121121.180116	single-task	8	0.013328	60	10	60-180	60	66	GapExp	0	148	2	30	0	target	0	628	-1000	102328	13.328	12.963	13.695
TrackDT02	2	TrackDT	2.0	SCS215a	20121121.174612	20121121.180122	single-task	8	0.013328	60	10	60-180	60	126	GapExp	0	149	2	3	0	distractor	1	625	688	103016	13.379	12.911	26.412
TrackDT02	2	TrackDT	2.0	SCS215a	20121121.174612	20121121.180128	single-task	8	0.013328	60	10	60-180	60	64	GapExp	0	150	2	30	0	distractor	1	642	679	103695	13.328	12.929	13.721
TrackDT02	2	TrackDT	2.0	SCS215a	20121121.174612	20121121.180143	single-task	8	0.013328	60	10	60-180	60	83	GapExp	0	151	2	3	0	target	0	1214	-1000	102695	13.328	12.886	13.770
TrackDT02	2	TrackDT	2.0	SCS215a	20121121.174612	20121121.180149	single-task	8	0.013328	60	10	60-180	60	99	GapExp	0	152	2	6	0	distractor	1	546	727	103422	13.328	12.863	13.791
TrackDT02	2	TrackDT	2.0	SCS215a	20121121.174612	20121121.180155	single-task	8	0.013328	60	10	60-180	60	126	GapExp	0	153	2	3	0	target	0	698	-1000	102422	13.328	12.948	13.689
TrackDT02	2	TrackDT	2.0	SCS215a	20121121.174612	20121121.180201	single-task	8	0.013328	60	10	60-180	60	107	GapExp	0	154	2	3	0	distractor	1	628	686	103108	13.328	13.028	13.638
TrackDT02	2	TrackDT	2.0	SCS215a	20121121.174612	20121121.180207	single-task	8	0.013328	60	10	60-180	60	113	GapExp	0	155	2	3	0	target	0	910	-1000	102108	13.328	13.085	13.563
TrackDT02	2	TrackDT	2.0	SCS215a	20121121.174612	20121121.180213	single-task	8	0.013328	60	10	60-180	60	164	GapExp	0	156	2	0	0	distractor	1	526	737	102845	13.328	12.978	13.689
TrackDT02	2	TrackDT	2.0	SCS215a	20121121.174612	20121121.180219	single-task	8	0.013328	60	10	60-180	60	125	GapExp	0	157	2	30	0	distractor	1	725	638	103483	13.328	12.904	13.746
TrackDT02	2	TrackDT	2.0	SCS215a	20121121.174612	20121121.180225	single-task	8	0.013328	60	10	60-180	60	71	GapExp	0	158	2	30	1	target	1	438	781	104264	13.328	12.876	13.781
TrackDT02	2	TrackDT	2.0	SCS215a	20121121.174612	20121121.180230	single-task	8	0.013328	60	10	60-180	60	66	GapExp	0	159	2	3	1	target	1	556	722	104986	13.328	12.968	13.695
TrackDT02	2	TrackDT	2.0	SCS215a	20121121.174612	20121121.180236	single-task	8	0.013328	60	10	60-180	60	175	GapExp	0	160	2	30	0	distractor	1	587	707	105693	13.328	13.118	13.538
TrackDT02	2	TrackDT	2.0	SCS215a	20121121.174612	20121121.180243	single-task	8	0.013328	60	10	60-180	60	125	GapExp	0	161	2	1	0	distractor	1	589	706	106399	13.328	12.969	13.672
TrackDT02	2	TrackDT	2.0	SCS215a	20121121.174612	20121121.180249	single-task	8	0.013328	60	10	60-180	60	102	GapExp	0	162	2	3	0	distractor	1	1003	499	106898	13.328	12.891	13.767
TrackDT02	2	TrackDT	2.0	SCS215a	20121121.174612	20121121.180254	single-task	8	0.013328	60	10	60-180	60	69	GapExp	0	163	2	6	0	distractor	1	639	681	107579	13.328	13.307	13.345
TrackDT02	2	TrackDT	2.0	SCS215a	20121121.174612	20121121.180300	single-task	8	0.013328	60	10	60-180	60	172	GapExp	0	164	2	30	1	target	1	670	665	108244	13.328	12.879	13.771
TrackDT02	2	TrackDT	2.0	SCS215a	20121121.174612	20121121.180307	single-task	8	0.013328	60	10	60-180	60	154	GapExp	0	165	2	6	0	distractor	1	581	710	108954	13.328	12.915	13.748
TrackDT02	2	TrackDT	2.0	SCS215a	20121121.174612	20121121.180313	single-task	8	0.013328	60	10	60-180	60	136	GapExp	0	166	2	0	0	distractor	1	707	647	109601	13.328	12.911	13.753
TrackDT02	2	TrackDT	2.0	SCS215a	20121121.174612	20121121.180319	single-task	8	0.013328	60	10	60-180	60	180	GapExp	0	167	2	3	1	target	1	548	726	110327	13.328	12.956	13.699
TrackDT02	2	TrackDT	2.0	SCS215a	20121121.174612	20121121.180326	single-task	8	0.013328	60	10	60-180	60	69	GapExp	0	168	2	0	1	target	1	465	768	111095	13.328	13.296	13.358
TrackDT02	2	TrackDT	2.0	SCS215a	20121121.174612	20121121.180331	single-task	8	0.013328	60	10	60-180	60	136	GapExp	0	169	2	3	1	target	1	521	740	111835	13.326	12.850	13.785
TrackDT02	2	TrackDT	2.0	SCS215a	20121121.174612	20121121.180336	single-task	8	0.013328	60	10	60-180	60	136	GapExp	0	170	2	3	0	target	0	429	-1000	110835	13.328	12.925	13.724
TrackDT02	2	TrackDT	2.0	SCS215a	20121121.174612	20121121.180343	single-task	8	0.013328	60	10	60-180	60	76	GapExp	0	171	2	0	0	target	0	522	-1000	109835	13.328	12.865	13.795
TrackDT02	2	TrackDT	2.0	SCS215a	20121121.174612	20121121.180348	single-task	8	0.013328	60	10	60-180	60	177	GapExp	0	172	2	30	1	target	1	589	706	110541	13.328	13.283	13.368
TrackDT02	2	TrackDT	2.0	SCS215a	20121121.174612	20121121.180355	single-task	8	0.013328	60	10	60-180	60	142	GapExp	0	173	2	0	0	distractor	1	607	697	111238	13.328	13.098	13.539
TrackDT02	2	TrackDT	2.0	SCS215a	20121121.174612	20121121.180401	single-task	8	0.013328	60	10	60-180	60	94	GapExp	0	174	2	0	1	target	1	460	770	112008	13.328	12.884	13.779
TrackDT02	2	TrackDT	2.0	SCS215a	20121121.174612	20121121.180406	single-task	8	0.013328	60	10	60-180	60	153	GapExp	0	175	2	0	1	target	1	494	753	112761	13.328	12.838	13.812
TrackDT02	2	TrackDT	2.0	SCS215a	20121121.174612	20121121.180412	single-task	8	0.013328	60	10	60-180	60	69	GapExp	0	176	2	3	1	target	1	577	712	113473	13.328	12.960	13.709
TrackDT02	2	TrackDT	2.0	SCS215a	20121121.174612	20121121.180418	single-task	8	0.013328	60	10	60-180	60	106	GapExp	0	177	2	1	1	target	1	512	744	114217	13.328	13.309	13.345
TrackDT02	2	TrackDT	2.0	SCS215a	20121121.174612	20121121.180423	single-task	8	0.013328	60	10	60-180	60	92	GapExp	0	178	2	30	1	target	1	327	837	115054	13.328	13.277	13.372
TrackDT02	2	TrackDT	2.0	SCS215a	20121121.174612	20121121.180428	single-task	8	0.013328	60	10	60-180	60	120	GapExp	0	179	2	30	1	target	1	558	721	115775	13.328	13.306	13.354
TrackDT02	2	TrackDT	2.0	SCS215a	20121121.174612	20121121.180435	single-task	8	0.013328	60	10	60-180	60	126	GapExp	0	180	2	0	1	target	1	402	799	116574	13.326	12.853	13.790
TrackDT02	2	TrackDT	2.0	SCS215a	20121121.174612	20121121.180440	single-task	8	0.013328	60	10	60-180	60	154	GapExp	0	181	2	6	0	distractor	1	714	643	117217	13.328	12.876	13.779
TrackDT02	2	TrackDT	2.0	SCS215a	20121121.174612	20121121.180447	single-task	8	0.013328	60	10	60-180	60	70	GapExp	0	182	2	3	0	target	0	846	-1000	116217	13.329	12.883	13.775
TrackDT02	2	TrackDT	2.0	SCS215a	20121121.174612	20121121.180452	single-task	8	0.013328	60	10	60-180	60	72	GapExp	0	183	2	0	1	target	1	501	750	116967	13.328	12.960	13.686
TrackDT02	2	TrackDT	2.0	SCS215a	20121121.174612	20121121.180457	single-task	8	0.013328	60	10	60-180	60	66	GapExp	0	184	2	3	0	distractor	1	542	729	117696	13.328	13.094	13.570
TrackDT02	2	TrackDT	2.0	SCS215a	20121121.174612	20121121.180502	single-task	8	0.013328	60	10	60-180	60	111	GapExp	0	185	2	1	0	distractor	1	640	680	118376	13.328	13.092	13.563
TrackDT02	2	TrackDT	2.0	SCS215a	20121121.174612	20121121.180508	single-task	8	0.013328	60	10	60-180	60	83	GapExp	0	186	2	0	0	distractor	1	549	726	119102	13.328	12.919	13.745
TrackDT02	2	TrackDT	2.0	SCS215a	20121121.174612	20121121.180513	single-task	8	0.013328	60	10	60-180	60	102	GapExp	0	187	2	30	0	target	0	521	-1000	118102	13.328	12.905	13.744
TrackDT02	2	TrackDT	2.0	SCS215a	20121121.174612	20121121.180519	single-task	8	0.013328	60	10	60-180	60	86	GapExp	0	188	2	1	0	distractor	1	832	584	118686	13.328	13.296	13.361
TrackDT02	2	TrackDT	2.0	SCS215a	20121121.174612	20121121.180525	single-task	8	0.013328	60	10	60-180	60	65	GapExp	0	189	2	6	1	target	1	422	789	119475	13.328	13.063	13.600
TrackDT02	2	TrackDT	2.0	SCS215a	20121121.174612	20121121.180530	single-task	8	0.013328	60	10	60-180	60	130	GapExp	0	190	2	0	1	target	1	635	683	120158	13.328	13.258	13.398
TrackDT02	2	TrackDT	2.0	SCS215a	20121121.174612	20121121.180536	single-task	8	0.013328	60	10	60-180	60	157	GapExp	0	191	2	30	1	target	1	531	735	120893	13.328	12.862	13.809
TrackDT02	2	TrackDT	2.0	SCS215a	20121121.174612	20121121.180542	single-task	8	0.013328	60	10	60-180	60	93	GapExp	0	192	2	30	1	target	1	366	817	121710	13.328	12.953	13.697
TrackDT02	2	TrackDT	2.0	SCS215a	20121121.174612	20121121.180548	single-task	8	0.013328	60	10	60-180	60	149	GapExp	0	193	2	3	0	target	0	516	-1000	120710	13.328	12.916	13.753
TrackDT02	2	TrackDT	2.0	SCS215a	20121121.174612	20121121.180554	single-task	8	0.013328	60	10	60-180	60	63	GapExp	0	194	2	6	0	distractor	1	651	675	121385	13.328	13.296	13.359
TrackDT02	2	TrackDT	2.0	SCS215a	20121121.174612	20121121.180600	single-task	8	0.013328	60	10	60-180	60	177	GapExp	0	195	2	6	1	target	1	494	753	122138	13.328	12.828	13.830
TrackDT02	2	TrackDT	2.0	SCS215a	20121121.174612	20121121.180606	single-task	8	0.013328	60	10	60-180	60	169	GapExp	0	196	2	1	0	target	0	844	-1000	121138	13.328	13.080	13.575
TrackDT02	2	TrackDT	2.0	SCS215a	20121121.174612	20121121.180613	single-task	8	0.013328	60	10	60-180	60	130	GapExp	0	197	2	30	0	distractor	1	652	674	121812	13.328	12.866	13.803
TrackDT02	2	TrackDT	2.0	SCS215a	20121121.174612	20121121.180619	single-task	8	0.013328	60	10	60-180	60	121	GapExp	0	198	2	0	0	target	0	690	-1000	120812	13.328	9.511	17.142
TrackDT02	2	TrackDT	2.0	SCS215a	20121121.174612	20121121.180625	single-task	8	0.013328	60	10	60-180	60	129	GapExp	0	199	2	0	1	target	1	31042	0	120812	13.328	12.950	13.719
TrackDT02	2	TrackDT	2.0	SCS215a	20121121.174612	20121121.180702	single-task	8	0.013328	60	10	60-180	60	105	GapExp	0	200	2	1	1	target	1	671	665	121477	13.328	13.083	13.558
TrackDT02	2	TrackDT	2.0	SCS215a	20121121.180729	20121121.180738	dt-conversation	8	0.013328	60	10	60-180	60	81	GapExp	1	1	2	6	1	target	1	723	639	122116	13.328	13.000	13.650
TrackDT02	2	TrackDT	2.0	SCS215a	20121121.180729	20121121.180744	dt-conversation	8	0.013328	60	10	60-180	60	64	GapExp	1	2	2	0	0	distractor	1	934	533	122649	13.328	13.069	13.571
TrackDT02	2	TrackDT	2.0	SCS215a	20121121.180729	20121121.180749	dt-conversation	8	0.013328	60	10	60-180	60	146	GapExp	1	3	2	3	0	distractor	1	705	648	123297	13.328	13.073	13.577
TrackDT02	2	TrackDT	2.0	SCS215a	20121121.180729	20121121.180755	dt-conversation	8	0.013328	60	10	60-180	60	127	GapExp	1	4	2	3	1	target	1	532	734	124031	13.328	12.915	13.739
TrackDT02	2	TrackDT	2.0	SCS215a	20121121.180729	20121121.180801	dt-conversation	8	0.013328	60	10	60-180	60	146	GapExp	1	5	2	1	0	distractor	1	613	694	124725	13.328	12.879	13.774
TrackDT02	2	TrackDT	2.0	SCS215a	20121121.180729	20121121.180807	dt-conversation	8	0.013328	60	10	60-180	60	103	GapExp	1	6	2	30	1	target	1	452	774	125499	13.328	12.834	13.821
TrackDT02	2	TrackDT	2.0	SCS215a	20121121.180729	20121121.180813	dt-conversation	8	0.013328	60	10	60-180	60	114	GapExp	1	7	2	30	0	distractor	1	850	575	126074	13.328	12.861	13.795
TrackDT02	2	TrackDT	2.0	SCS215a	20121121.180729	20121121.180820	dt-conversation	8	0.013328	60	10	60-180	60	107	GapExp	1	8	2	0	1	target	1	541	730	126804	13.328	13.302	13.353
TrackDT02	2	TrackDT	2.0	SCS215a	20121121.180729	20121121.180825	dt-conversation	8	0.013328	60	10	60-180	60	141	GapExp	1	9	2	1	1	target	1	439	781	127585	13.328	12.856	13.806
TrackDT02	2	TrackDT	2.0	SCS215a	20121121.180729	20121121.180831	dt-conversation	8	0.013328	60	10	60-180	60	100	GapExp	1	10	2	6	0	distractor	1	797	602	128187	13.328	12.938	13.731
TrackDT02	2	TrackDT	2.0	SCS215a	20121121.180729	20121121.180837	dt-conversation	8	0.013328	60	10	60-180	60	81	GapExp	0	11	2	0	0	distractor	1	923	539	128726	13.328	12.912	13.744
TrackDT02	2	TrackDT	2.0	SCS215a	20121121.180729	20121121.180843	dt-conversation	8	0.013328	60	10	60-180	60	128	GapExp	0	12	2	1	1	target	1	478	761	129487	13.328	12.949	13.716
TrackDT02	2	TrackDT	2.0	SCS215a	20121121.180729	20121121.180848	dt-conversation	8	0.013328	60	10	60-180	60	103	GapExp	0	13	2	3	1	target	1	421	790	130277	13.328	13.301	13.347
TrackDT02	2	TrackDT	2.0	SCS215a	20121121.180729	20121121.180854	dt-conversation	8	0.013328	60	10	60-180	60	129	GapExp	0	14	2	1	1	target	1	577	712	130989	13.328	13.278	13.392
TrackDT02	2	TrackDT	2.0	SCS215a	20121121.180729	20121121.180900	dt-conversation	8	0.013328	60	10	60-180	60	78	GapExp	0	15	2	6	0	distractor	1	760	620	131609	13.328	12.904	13.759
TrackDT02	2	TrackDT	2.0	SCS215a	20121121.180729	20121121.180906	dt-conversation	8	0.013328	60	10	60-180	60	164	GapExp	0	16	2	3	0	distractor	1	628	686	132295	13.328	13.101	13.554
TrackDT02	2	TrackDT	2.0	SCS215a	20121121.180729	20121121.180912	dt-conversation	8	0.013328	60	10	60-180	60	138	GapExp	0	17	2	30	1	target	1	561	720	133015	13.328	12.987	13.669
TrackDT02	2	TrackDT	2.0	SCS215a	20121121.180729	20121121.180918	dt-conversation	8	0.013328	60	10	60-180	60	175	GapExp	0	18	2	6	1	target	1	612	694	133709	13.328	13.087	13.549
TrackDT02	2	TrackDT	2.0	SCS215a	20121121.180729	20121121.180925	dt-conversation	8	0.013328	60	10	60-180	60	126	GapExp	0	19	2	3	1	target	1	518	741	134450	13.328	12.876	13.773
TrackDT02	2	TrackDT	2.0	SCS215a	20121121.180729	20121121.180931	dt-conversation	8	0.013328	60	10	60-180	60	97	GapExp	0	20	2	3	0	distractor	1	1049	476	134926	13.328	12.972	13.680
TrackDT02	2	TrackDT	2.0	SCS215a	20121121.180729	20121121.180937	dt-conversation	8	0.013328	60	10	60-180	60	67	GapExp	0	21	2	6	1	target	1	557	722	135648	13.328	12.895	13.779
TrackDT02	2	TrackDT	2.0	SCS215a	20121121.180729	20121121.180942	dt-conversation	8	0.013328	60	10	60-180	60	66	GapExp	0	22	2	6	0	distractor	1	553	724	136372	13.328	12.888	13.790
TrackDT02	2	TrackDT	2.0	SCS215a	20121121.180729	20121121.180947	dt-conversation	8	0.013328	60	10	60-180	60	82	GapExp	0	23	2	30	1	target	1	311	845	137217	13.328	12.982	13.682
TrackDT02	2	TrackDT	2.0	SCS215a	20121121.180729	20121121.180952	dt-conversation	8	0.013328	60	10	60-180	60	128	GapExp	0	24	2	6	0	distractor	1	578	711	137928	13.328	12.885	13.782
TrackDT02	2	TrackDT	2.0	SCS215a	20121121.180729	20121121.180959	dt-conversation	8	0.013328	60	10	60-180	60	137	GapExp	0	25	2	3	1	target	1	618	691	138619	13.328	13.300	13.354
TrackDT02	2	TrackDT	2.0	SCS215a	20121121.180729	20121121.181005	dt-conversation	8	0.013328	60	10	60-180	60	71	GapExp	0	26	2	0	0	target	0	918	-1000	137619	13.328	13.008	13.650
TrackDT02	2	TrackDT	2.0	SCS215a	20121121.180729	20121121.181010	dt-conversation	8	0.013328	60	10	60-180	60	91	GapExp	0	27	2	3	0	distractor	1	524	738	138357	13.328	12.933	13.732
TrackDT02	2	TrackDT	2.0	SCS215a	20121121.180729	20121121.181016	dt-conversation	8	0.013328	60	10	60-180	60	142	GapExp	0	28	2	1	0	distractor	1	552	724	139081	13.328	12.968	13.668
TrackDT02	2	TrackDT	2.0	SCS215a	20121121.180729	20121121.181022	dt-conversation	8	0.013328	60	10	60-180	60	63	GapExp	0	29	2	3	0	distractor	1	656	672	139753	13.328	12.950	13.723
TrackDT02	2	TrackDT	2.0	SCS215a	20121121.180729	20121121.181027	dt-conversation	8	0.013328	60	10	60-180	60	131	GapExp	0	30	2	3	0	distractor	1	520	740	140493	13.328	13.308	13.348
TrackDT02	2	TrackDT	2.0	SCS215a	20121121.180729	20121121.181033	dt-conversation	8	0.013328	60	10	60-180	60	71	GapExp	0	31	2	0	1	target	1	851	575	141068	13.328	13.303	13.359
TrackDT02	2	TrackDT	2.0	SCS215a	20121121.180729	20121121.181039	dt-conversation	8	0.013328	60	10	60-180	60	93	GapExp	0	32	2	0	1	target	1	1340	330	141398	13.328	12.848	13.804
TrackDT02	2	TrackDT	2.0	SCS215a	20121121.180729	20121121.181045	dt-conversation	8	0.013328	60	10	60-180	60	129	GapExp	0	33	2	0	0	distractor	1	789	606	142004	13.328	12.901	13.757
TrackDT02	2	TrackDT	2.0	SCS215a	20121121.180729	20121121.181051	dt-conversation	8	0.013328	60	10	60-180	60	129	GapExp	0	34	2	0	0	target	0	518	-1000	141004	13.328	12.898	13.771
TrackDT02	2	TrackDT	2.0	SCS215a	20121121.180729	20121121.181057	dt-conversation	8	0.013328	60	10	60-180	60	94	GapExp	0	35	2	6	1	target	1	505	748	141752	13.328	12.888	13.776
TrackDT02	2	TrackDT	2.0	SCS215a	20121121.180729	20121121.181102	dt-conversation	8	0.013328	60	10	60-180	60	102	GapExp	0	36	2	30	0	distractor	1	1020	490	142242	13.328	13.307	13.353
TrackDT02	2	TrackDT	2.0	SCS215a	20121121.180729	20121121.181109	dt-conversation	8	0.013328	60	10	60-180	60	121	GapExp	0	37	2	6	0	distractor	1	714	643	142885	13.328	12.935	13.736
TrackDT02	2	TrackDT	2.0	SCS215a	20121121.180729	20121121.181115	dt-conversation	8	0.013328	60	10	60-180	60	112	GapExp	0	38	2	30	1	target	1	384	808	143693	13.328	12.871	13.786
TrackDT02	2	TrackDT	2.0	SCS215a	20121121.180729	20121121.181121	dt-conversation	8	0.013328	60	10	60-180	60	158	GapExp	0	39	2	6	1	target	1	559	721	144414	13.328	12.903	13.813
TrackDT02	2	TrackDT	2.0	SCS215a	20121121.180729	20121121.181127	dt-conversation	8	0.013328	60	10	60-180	60	126	GapExp	0	40	2	6	1	target	1	656	672	145086	13.378	12.921	26.369
TrackDT02	2	TrackDT	2.0	SCS215a	20121121.180729	20121121.181133	dt-conversation	8	0.013328	60	10	60-180	60	153	GapExp	0	41	2	0	1	target	1	424	788	145874	13.328	12.956	13.700
TrackDT02	2	TrackDT	2.0	SCS215a	20121121.180729	20121121.181140	dt-conversation	8	0.013328	60	10	60-180	60	180	GapExp	0	42	2	3	1	target	1	558	721	146595	13.328	13.032	13.625
TrackDT02	2	TrackDT	2.0	SCS215a	20121121.180729	20121121.181146	dt-conversation	8	0.013328	60	10	60-180	60	61	GapExp	0	43	2	3	1	target	1	531	735	147330	13.328	13.304	13.359
TrackDT02	2	TrackDT	2.0	SCS215a	20121121.180729	20121121.181151	dt-conversation	8	0.013328	60	10	60-180	60	155	GapExp	0	44	2	6	0	target	0	409	-1000	146330	13.328	12.868	13.796
TrackDT02	2	TrackDT	2.0	SCS215a	20121121.180729	20121121.181157	dt-conversation	8	0.013328	60	10	60-180	60	173	GapExp	0	45	2	0	0	distractor	1	640	680	147010	13.371	12.890	26.698
TrackDT02	2	TrackDT	2.0	SCS215a	20121121.180729	20121121.181204	dt-conversation	8	0.013328	60	10	60-180	60	110	GapExp	0	46	2	6	1	target	1	475	763	147773	13.328	13.243	13.405
TrackDT02	2	TrackDT	2.0	SCS215a	20121121.180729	20121121.181209	dt-conversation	8	0.013328	60	10	60-180	60	109	GapExp	0	47	2	30	0	distractor	1	731	635	148408	13.328	12.961	13.707
TrackDT02	2	TrackDT	2.0	SCS215a	20121121.180729	20121121.181216	dt-conversation	8	0.013328	60	10	60-180	60	120	GapExp	0	48	2	0	1	target	1	550	725	149133	13.328	12.838	13.820
TrackDT02	2	TrackDT	2.0	SCS215a	20121121.180729	20121121.181222	dt-conversation	8	0.013328	60	10	60-180	60	164	GapExp	0	49	2	30	1	target	1	446	777	149910	13.328	12.912	13.771
TrackDT02	2	TrackDT	2.0	SCS215a	20121121.180729	20121121.181228	dt-conversation	8	0.013328	60	10	60-180	60	180	GapExp	0	50	2	3	0	distractor	1	745	628	150538	13.328	13.107	13.537
TrackDT02	2	TrackDT	2.0	SCS215a	20121121.180729	20121121.181246	dt-conversation	8	0.013328	60	10	60-180	60	111	GapExp	0	51	2	1	0	distractor	1	584	708	151246	13.328	12.901	13.749
TrackDT02	2	TrackDT	2.0	SCS215a	20121121.180729	20121121.181252	dt-conversation	8	0.013328	60	10	60-180	60	119	GapExp	0	52	2	1	0	distractor	1	596	702	151948	13.328	12.924	13.741
TrackDT02	2	TrackDT	2.0	SCS215a	20121121.180729	20121121.181258	dt-conversation	8	0.013328	60	10	60-180	60	116	GapExp	0	53	2	0	0	target	0	858	-1000	150948	13.328	12.985	13.684
TrackDT02	2	TrackDT	2.0	SCS215a	20121121.180729	20121121.181304	dt-conversation	8	0.013328	60	10	60-180	60	65	GapExp	0	54	2	6	1	target	1	566	717	151665	13.328	13.051	13.613
TrackDT02	2	TrackDT	2.0	SCS215a	20121121.180729	20121121.181309	dt-conversation	8	0.013328	60	10	60-180	60	91	GapExp	0	55	2	1	1	target	1	475	763	152428	13.328	12.906	13.753
TrackDT02	2	TrackDT	2.0	SCS215a	20121121.180729	20121121.181314	dt-conversation	8	0.013328	60	10	60-180	60	63	GapExp	0	56	2	30	1	target	1	498	751	153179	13.328	13.311	13.348
TrackDT02	2	TrackDT	2.0	SCS215a	20121121.180729	20121121.181319	dt-conversation	8	0.013328	60	10	60-180	60	125	GapExp	0	57	2	0	1	target	1	626	687	153866	13.328	12.873	13.784
TrackDT02	2	TrackDT	2.0	SCS215a	20121121.180729	20121121.181326	dt-conversation	8	0.013328	60	10	60-180	60	94	GapExp	0	58	2	30	0	distractor	1	588	706	154572	13.328	12.854	13.816
TrackDT02	2	TrackDT	2.0	SCS215a	20121121.180729	20121121.181331	dt-conversation	8	0.013328	60	10	60-180	60	119	GapExp	0	59	2	0	0	target	0	1046	-1000	153572	13.328	12.838	13.818
TrackDT02	2	TrackDT	2.0	SCS215a	20121121.180729	20121121.181338	dt-conversation	8	0.013328	60	10	60-180	60	143	GapExp	0	60	2	30	0	distractor	1	586	707	154279	13.328	12.937	13.713
TrackDT02	2	TrackDT	2.0	SCS215a	20121121.180729	20121121.181344	dt-conversation	8	0.013328	60	10	60-180	60	127	GapExp	0	61	2	30	1	target	1	968	516	154795	13.328	13.307	13.351
TrackDT02	2	TrackDT	2.0	SCS215a	20121121.180729	20121121.181350	dt-conversation	8	0.013328	60	10	60-180	60	66	GapExp	0	62	2	3	0	target	0	572	-1000	153795	13.328	13.307	13.347
TrackDT02	2	TrackDT	2.0	SCS215a	20121121.180729	20121121.181356	dt-conversation	8	0.013328	60	10	60-180	60	147	GapExp	0	63	2	0	0	distractor	1	700	650	154445	13.328	12.907	13.757
TrackDT02	2	TrackDT	2.0	SCS215a	20121121.180729	20121121.181402	dt-conversation	8	0.013328	60	10	60-180	60	142	GapExp	0	64	2	6	1	target	1	474	763	155208	13.328	12.863	13.784
TrackDT02	2	TrackDT	2.0	SCS215a	20121121.180729	20121121.181408	dt-conversation	8	0.013328	60	10	60-180	60	86	GapExp	0	65	2	6	0	distractor	1	769	616	155824	13.328	12.879	13.791
TrackDT02	2	TrackDT	2.0	SCS215a	20121121.180729	20121121.181414	dt-conversation	8	0.013328	60	10	60-180	60	142	GapExp	0	66	2	6	0	distractor	1	727	637	156461	13.328	12.978	13.684
TrackDT02	2	TrackDT	2.0	SCS215a	20121121.180729	20121121.181420	dt-conversation	8	0.013328	60	10	60-180	60	87	GapExp	0	67	2	1	0	distractor	1	650	675	157136	13.328	13.303	13.346
TrackDT02	2	TrackDT	2.0	SCS215a	20121121.180729	20121121.181425	dt-conversation	8	0.013328	60	10	60-180	60	71	GapExp	0	68	2	6	0	distractor	1	647	677	157813	13.328	13.307	13.353
TrackDT02	2	TrackDT	2.0	SCS215a	20121121.180729	20121121.181431	dt-conversation	8	0.013328	60	10	60-180	60	62	GapExp	0	69	2	3	0	distractor	1	907	547	158360	13.328	12.858	13.799
TrackDT02	2	TrackDT	2.0	SCS215a	20121121.180729	20121121.181437	dt-conversation	8	0.013328	60	10	60-180	60	168	GapExp	0	70	2	1	1	target	1	661	670	159030	13.329	12.904	13.747
TrackDT02	2	TrackDT	2.0	SCS215a	20121121.180729	20121121.181443	dt-conversation	8	0.013328	60	10	60-180	60	138	GapExp	0	71	2	3	1	target	1	610	695	159725	13.377	12.835	26.398
TrackDT02	2	TrackDT	2.0	SCS215a	20121121.180729	20121121.181449	dt-conversation	8	0.013328	60	10	60-180	60	70	GapExp	0	72	2	0	1	target	1	602	699	160424	13.328	13.103	13.553
TrackDT02	2	TrackDT	2.0	SCS215a	20121121.180729	20121121.181454	dt-conversation	8	0.013328	60	10	60-180	60	147	GapExp	0	73	2	3	0	target	0	913	-1000	159424	13.328	13.119	13.542
TrackDT02	2	TrackDT	2.0	SCS215a	20121121.180729	20121121.181501	dt-conversation	8	0.013328	60	10	60-180	60	129	GapExp	0	74	2	0	1	target	1	681	660	160084	13.328	12.841	13.825
TrackDT02	2	TrackDT	2.0	SCS215a	20121121.180729	20121121.181507	dt-conversation	8	0.013328	60	10	60-180	60	81	GapExp	0	75	2	0	0	distractor	1	756	622	160706	13.328	12.903	13.741
TrackDT02	2	TrackDT	2.0	SCS215a	20121121.180729	20121121.181513	dt-conversation	8	0.013328	60	10	60-180	60	106	GapExp	0	76	2	3	0	distractor	1	639	681	161387	13.328	12.911	13.749
TrackDT02	2	TrackDT	2.0	SCS215a	20121121.180729	20121121.181518	dt-conversation	8	0.013328	60	10	60-180	60	124	GapExp	0	77	2	0	0	distractor	1	615	693	162080	13.328	12.909	13.748
TrackDT02	2	TrackDT	2.0	SCS215a	20121121.180729	20121121.181524	dt-conversation	8	0.013328	60	10	60-180	60	86	GapExp	0	78	2	1	1	target	1	691	655	162735	13.328	13.000	13.664
TrackDT02	2	TrackDT	2.0	SCS215a	20121121.180729	20121121.181529	dt-conversation	8	0.013328	60	10	60-180	60	159	GapExp	0	79	2	30	1	target	1	571	715	163450	13.328	13.304	13.367
TrackDT02	2	TrackDT	2.0	SCS215a	20121121.180729	20121121.181536	dt-conversation	8	0.013328	60	10	60-180	60	112	GapExp	0	80	2	1	0	distractor	1	793	604	164054	13.328	12.892	13.770
TrackDT02	2	TrackDT	2.0	SCS215a	20121121.180729	20121121.181542	dt-conversation	8	0.013328	60	10	60-180	60	179	GapExp	0	81	2	6	0	distractor	1	1058	471	164525	13.328	12.831	13.824
TrackDT02	2	TrackDT	2.0	SCS215a	20121121.180729	20121121.181549	dt-conversation	8	0.013328	60	10	60-180	60	150	GapExp	0	82	2	3	0	distractor	1	1158	421	164946	13.328	12.842	13.805
TrackDT02	2	TrackDT	2.0	SCS215a	20121121.180729	20121121.181556	dt-conversation	8	0.013328	60	10	60-180	60	150	GapExp	0	83	2	3	1	target	1	472	764	165710	13.328	13.165	13.479
TrackDT02	2	TrackDT	2.0	SCS215a	20121121.180729	20121121.181602	dt-conversation	8	0.013328	60	10	60-180	60	157	GapExp	0	84	2	1	0	distractor	1	917	542	166252	13.328	12.852	13.787
TrackDT02	2	TrackDT	2.0	SCS215a	20121121.180729	20121121.181609	dt-conversation	8	0.013328	60	10	60-180	60	66	GapExp	0	85	2	6	1	target	1	519	741	166993	13.328	13.096	13.557
TrackDT02	2	TrackDT	2.0	SCS215a	20121121.180729	20121121.181614	dt-conversation	8	0.013328	60	10	60-180	60	150	GapExp	0	86	2	6	1	target	1	541	730	167723	13.375	12.883	26.480
TrackDT02	2	TrackDT	2.0	SCS215a	20121121.180729	20121121.181621	dt-conversation	8	0.013328	60	10	60-180	60	63	GapExp	0	87	2	30	1	target	1	349	826	168549	13.328	12.895	13.763
TrackDT02	2	TrackDT	2.0	SCS215a	20121121.180729	20121121.181626	dt-conversation	8	0.013328	60	10	60-180	60	180	GapExp	0	88	2	30	0	distractor	1	571	715	169264	13.446	12.870	27.054
TrackDT02	2	TrackDT	2.0	SCS215a	20121121.180729	20121121.181633	dt-conversation	8	0.013328	60	10	60-180	60	117	GapExp	0	89	2	0	1	target	1	536	732	169996	13.437	12.864	27.060
TrackDT02	2	TrackDT	2.0	SCS215a	20121121.180729	20121121.181639	dt-conversation	8	0.013328	60	10	60-180	60	125	GapExp	0	90	2	0	1	target	1	669	666	170662	13.328	13.244	13.416
TrackDT02	2	TrackDT	2.0	SCS215a	20121121.180729	20121121.181645	dt-conversation	8	0.013328	60	10	60-180	60	96	GapExp	0	91	2	30	1	target	1	615	693	171355	13.328	12.898	13.758
TrackDT02	2	TrackDT	2.0	SCS215a	20121121.180729	20121121.181651	dt-conversation	8	0.013328	60	10	60-180	60	77	GapExp	0	92	2	1	1	target	1	906	547	171902	13.328	12.942	13.708
TrackDT02	2	TrackDT	2.0	SCS215a	20121121.180729	20121121.181656	dt-conversation	8	0.013328	60	10	60-180	60	63	GapExp	0	93	2	0	1	target	1	576	712	172614	13.539	12.914	40.003
TrackDT02	2	TrackDT	2.0	SCS215a	20121121.180729	20121121.181701	dt-conversation	8	0.013328	60	10	60-180	60	64	GapExp	0	94	2	3	1	target	1	502	749	173363	13.328	12.858	13.806
TrackDT02	2	TrackDT	2.0	SCS215a	20121121.180729	20121121.181706	dt-conversation	8	0.013328	60	10	60-180	60	141	GapExp	0	95	2	30	0	distractor	1	402	799	174162	13.328	12.890	13.760
TrackDT02	2	TrackDT	2.0	SCS215a	20121121.180729	20121121.181713	dt-conversation	8	0.013328	60	10	60-180	60	109	GapExp	0	96	2	1	1	target	1	569	716	174878	13.328	12.890	13.781
TrackDT02	2	TrackDT	2.0	SCS215a	20121121.180729	20121121.181719	dt-conversation	8	0.013328	60	10	60-180	60	116	GapExp	0	97	2	3	0	distractor	1	636	682	175560	13.328	12.899	13.759
TrackDT02	2	TrackDT	2.0	SCS215a	20121121.180729	20121121.181724	dt-conversation	8	0.013328	60	10	60-180	60	76	GapExp	0	98	2	0	0	target	0	773	-1000	174560	13.328	12.868	13.781
TrackDT02	2	TrackDT	2.0	SCS215a	20121121.180729	20121121.181730	dt-conversation	8	0.013328	60	10	60-180	60	152	GapExp	0	99	2	6	1	target	1	569	716	175276	13.328	12.916	13.727
TrackDT02	2	TrackDT	2.0	SCS215a	20121121.180729	20121121.181736	dt-conversation	8	0.013328	60	10	60-180	60	96	GapExp	0	100	2	0	0	distractor	1	856	572	175848	13.328	13.308	13.354
TrackDT02	2	TrackDT	2.0	SCS215a	20121121.180729	20121121.181811	dt-conversation	8	0.013328	60	10	60-180	60	135	GapExp	0	101	2	1	0	distractor	1	669	666	176514	13.328	13.014	13.637
TrackDT02	2	TrackDT	2.0	SCS215a	20121121.180729	20121121.181817	dt-conversation	8	0.013328	60	10	60-180	60	145	GapExp	0	102	2	0	1	target	1	781	610	177124	13.328	13.243	13.401
TrackDT02	2	TrackDT	2.0	SCS215a	20121121.180729	20121121.181824	dt-conversation	8	0.013328	60	10	60-180	60	138	GapExp	0	103	2	1	1	target	1	618	691	177815	13.328	12.858	13.806
TrackDT02	2	TrackDT	2.0	SCS215a	20121121.180729	20121121.181830	dt-conversation	8	0.013328	60	10	60-180	60	148	GapExp	0	104	2	6	0	distractor	1	638	681	178496	13.328	12.853	13.805
TrackDT02	2	TrackDT	2.0	SCS215a	20121121.180729	20121121.181836	dt-conversation	8	0.013328	60	10	60-180	60	167	GapExp	0	105	2	6	0	distractor	1	549	726	179222	13.328	12.854	13.794
TrackDT02	2	TrackDT	2.0	SCS215a	20121121.180729	20121121.181842	dt-conversation	8	0.013328	60	10	60-180	60	121	GapExp	0	106	2	30	0	distractor	1	383	809	180031	13.328	13.104	13.553
TrackDT02	2	TrackDT	2.0	SCS215a	20121121.180729	20121121.181849	dt-conversation	8	0.013328	60	10	60-180	60	158	GapExp	0	107	2	1	0	target	0	960	-1000	179031	13.328	12.897	13.774
TrackDT02	2	TrackDT	2.0	SCS215a	20121121.180729	20121121.181855	dt-conversation	8	0.013328	60	10	60-180	60	171	GapExp	0	108	2	0	0	distractor	1	662	669	179700	13.328	13.112	13.543
TrackDT02	2	TrackDT	2.0	SCS215a	20121121.180729	20121121.181902	dt-conversation	8	0.013328	60	10	60-180	60	63	GapExp	0	109	2	30	0	distractor	1	505	748	180448	13.328	12.849	13.809
TrackDT02	2	TrackDT	2.0	SCS215a	20121121.180729	20121121.181907	dt-conversation	8	0.013328	60	10	60-180	60	78	GapExp	0	110	2	1	0	distractor	1	717	642	181090	13.328	12.896	13.768
TrackDT02	2	TrackDT	2.0	SCS215a	20121121.180729	20121121.181912	dt-conversation	8	0.013328	60	10	60-180	60	106	GapExp	0	111	2	1	0	distractor	1	674	663	181753	13.328	12.876	13.788
TrackDT02	2	TrackDT	2.0	SCS215a	20121121.180729	20121121.181918	dt-conversation	8	0.013328	60	10	60-180	60	132	GapExp	0	112	2	30	0	distractor	1	604	698	182451	13.328	13.107	13.550
TrackDT02	2	TrackDT	2.0	SCS215a	20121121.180729	20121121.181925	dt-conversation	8	0.013328	60	10	60-180	60	170	GapExp	0	113	2	30	0	distractor	1	498	751	183202	13.328	13.015	13.640
TrackDT02	2	TrackDT	2.0	SCS215a	20121121.180729	20121121.181932	dt-conversation	8	0.013328	60	10	60-180	60	173	GapExp	0	114	2	30	0	distractor	1	457	772	183974	13.328	12.857	13.812
TrackDT02	2	TrackDT	2.0	SCS215a	20121121.180729	20121121.181938	dt-conversation	8	0.013328	60	10	60-180	60	96	GapExp	0	115	2	6	1	target	1	750	625	184599	13.328	12.913	13.744
TrackDT02	2	TrackDT	2.0	SCS215a	20121121.180729	20121121.181944	dt-conversation	8	0.013328	60	10	60-180	60	172	GapExp	0	116	2	6	0	distractor	1	439	781	185380	13.328	12.934	13.731
TrackDT02	2	TrackDT	2.0	SCS215a	20121121.180729	20121121.181950	dt-conversation	8	0.013328	60	10	60-180	60	148	GapExp	0	117	2	3	1	target	1	644	678	186058	13.328	12.879	13.776
TrackDT02	2	TrackDT	2.0	SCS215a	20121121.180729	20121121.181957	dt-conversation	8	0.013328	60	10	60-180	60	141	GapExp	0	118	2	1	1	target	1	493	754	186812	13.328	12.870	13.782
TrackDT02	2	TrackDT	2.0	SCS215a	20121121.180729	20121121.182003	dt-conversation	8	0.013328	60	10	60-180	60	114	GapExp	0	119	2	3	0	distractor	1	599	701	187513	13.328	12.871	13.794
TrackDT02	2	TrackDT	2.0	SCS215a	20121121.180729	20121121.182009	dt-conversation	8	0.013328	60	10	60-180	60	154	GapExp	0	120	2	1	0	distractor	1	679	661	188174	13.328	12.876	13.774
TrackDT02	2	TrackDT	2.0	SCS215a	20121121.180729	20121121.182015	dt-conversation	8	0.013328	60	10	60-180	60	98	GapExp	0	121	2	0	1	target	1	529	736	188910	13.328	12.916	13.756
TrackDT02	2	TrackDT	2.0	SCS215a	20121121.180729	20121121.182020	dt-conversation	8	0.013328	60	10	60-180	60	112	GapExp	0	122	2	6	0	distractor	1	647	677	189587	13.328	13.086	13.568
TrackDT02	2	TrackDT	2.0	SCS215a	20121121.180729	20121121.182026	dt-conversation	8	0.013328	60	10	60-180	60	64	GapExp	0	123	2	30	0	distractor	1	566	717	190304	13.328	13.105	13.563
TrackDT02	2	TrackDT	2.0	SCS215a	20121121.180729	20121121.182032	dt-conversation	8	0.013328	60	10	60-180	60	139	GapExp	0	124	2	6	0	target	0	774	-1000	189304	13.328	13.162	13.499
TrackDT02	2	TrackDT	2.0	SCS215a	20121121.180729	20121121.182039	dt-conversation	8	0.013328	60	10	60-180	60	172	GapExp	0	125	2	6	1	target	1	472	764	190068	13.328	13.119	13.537
TrackDT02	2	TrackDT	2.0	SCS215a	20121121.180729	20121121.182045	dt-conversation	8	0.013328	60	10	60-180	60	106	GapExp	0	126	2	3	1	target	1	659	671	190739	13.328	12.865	13.797
TrackDT02	2	TrackDT	2.0	SCS215a	20121121.180729	20121121.182051	dt-conversation	8	0.013328	60	10	60-180	60	170	GapExp	0	127	2	0	1	target	1	574	713	191452	13.328	12.836	13.816
TrackDT02	2	TrackDT	2.0	SCS215a	20121121.180729	20121121.182057	dt-conversation	8	0.013328	60	10	60-180	60	110	GapExp	0	128	2	6	0	distractor	1	564	718	192170	13.328	12.974	13.670
TrackDT02	2	TrackDT	2.0	SCS215a	20121121.180729	20121121.182103	dt-conversation	8	0.013328	60	10	60-180	60	142	GapExp	0	129	2	3	1	target	1	632	684	192854	13.328	13.110	13.545
TrackDT02	2	TrackDT	2.0	SCS215a	20121121.180729	20121121.182109	dt-conversation	8	0.013328	60	10	60-180	60	114	GapExp	0	130	2	6	1	target	1	406	797	193651	13.328	13.048	13.595
TrackDT02	2	TrackDT	2.0	SCS215a	20121121.180729	20121121.182115	dt-conversation	8	0.013328	60	10	60-180	60	109	GapExp	0	131	2	0	0	distractor	1	576	712	194363	13.328	12.869	13.800
TrackDT02	2	TrackDT	2.0	SCS215a	20121121.180729	20121121.182121	dt-conversation	8	0.013328	60	10	60-180	60	133	GapExp	0	132	2	3	0	distractor	1	780	610	194973	13.328	12.869	13.784
TrackDT02	2	TrackDT	2.0	SCS215a	20121121.180729	20121121.182127	dt-conversation	8	0.013328	60	10	60-180	60	158	GapExp	0	133	2	1	1	target	1	864	568	195541	13.328	12.858	13.795
TrackDT02	2	TrackDT	2.0	SCS215a	20121121.180729	20121121.182134	dt-conversation	8	0.013328	60	10	60-180	60	120	GapExp	0	134	2	1	1	target	1	1385	308	195849	13.328	13.152	13.488
TrackDT02	2	TrackDT	2.0	SCS215a	20121121.180729	20121121.182141	dt-conversation	8	0.013328	60	10	60-180	60	101	GapExp	0	135	2	30	1	target	1	628	686	196535	13.328	13.307	13.349
TrackDT02	2	TrackDT	2.0	SCS215a	20121121.180729	20121121.182147	dt-conversation	8	0.013328	60	10	60-180	60	115	GapExp	0	136	2	6	1	target	1	415	793	197328	13.328	12.871	13.800
TrackDT02	2	TrackDT	2.0	SCS215a	20121121.180729	20121121.182152	dt-conversation	8	0.013328	60	10	60-180	60	109	GapExp	0	137	2	6	0	distractor	1	627	687	198015	13.328	12.898	13.772
TrackDT02	2	TrackDT	2.0	SCS215a	20121121.180729	20121121.182158	dt-conversation	8	0.013328	60	10	60-180	60	156	GapExp	0	138	2	3	1	target	1	552	724	198739	13.374	12.894	26.615
TrackDT02	2	TrackDT	2.0	SCS215a	20121121.180729	20121121.182205	dt-conversation	8	0.013328	60	10	60-180	60	89	GapExp	0	139	2	1	0	target	0	479	-1000	197739	13.328	12.976	13.670
TrackDT02	2	TrackDT	2.0	SCS215a	20121121.180729	20121121.182210	dt-conversation	8	0.013328	60	10	60-180	60	76	GapExp	0	140	2	0	0	distractor	1	848	576	198315	13.328	13.300	13.354
TrackDT02	2	TrackDT	2.0	SCS215a	20121121.180729	20121121.182215	dt-conversation	8	0.013328	60	10	60-180	60	163	GapExp	0	141	2	1	1	target	1	518	741	199056	13.328	12.898	13.751
TrackDT02	2	TrackDT	2.0	SCS215a	20121121.180729	20121121.182222	dt-conversation	8	0.013328	60	10	60-180	60	82	GapExp	0	142	2	1	0	distractor	1	1191	405	199461	13.328	12.877	13.773
TrackDT02	2	TrackDT	2.0	SCS215a	20121121.180729	20121121.182228	dt-conversation	8	0.013328	60	10	60-180	60	158	GapExp	0	143	2	0	0	distractor	1	678	661	200122	13.328	12.888	13.755
TrackDT02	2	TrackDT	2.0	SCS215a	20121121.180729	20121121.182234	dt-conversation	8	0.013328	60	10	60-180	60	144	GapExp	0	144	2	6	0	distractor	1	574	713	200835	13.328	12.945	13.712
TrackDT02	2	TrackDT	2.0	SCS215a	20121121.180729	20121121.182241	dt-conversation	8	0.013328	60	10	60-180	60	115	GapExp	0	145	2	30	0	distractor	1	527	737	201572	13.328	13.022	13.639
TrackDT02	2	TrackDT	2.0	SCS215a	20121121.180729	20121121.182247	dt-conversation	8	0.013328	60	10	60-180	60	149	GapExp	0	146	2	1	1	target	1	557	722	202294	13.328	12.868	13.796
TrackDT02	2	TrackDT	2.0	SCS215a	20121121.180729	20121121.182253	dt-conversation	8	0.013328	60	10	60-180	60	166	GapExp	0	147	2	30	1	target	1	519	741	203035	13.328	12.828	13.815
TrackDT02	2	TrackDT	2.0	SCS215a	20121121.180729	20121121.182300	dt-conversation	8	0.013328	60	10	60-180	60	126	GapExp	0	148	2	1	0	distractor	1	780	610	203645	13.328	12.974	13.680
TrackDT02	2	TrackDT	2.0	SCS215a	20121121.180729	20121121.182305	dt-conversation	8	0.013328	60	10	60-180	60	154	GapExp	0	149	2	6	1	target	1	520	740	204385	13.328	12.956	13.692
TrackDT02	2	TrackDT	2.0	SCS215a	20121121.180729	20121121.182312	dt-conversation	8	0.013328	60	10	60-180	60	158	GapExp	0	150	2	30	1	target	1	520	740	205125	13.328	12.903	13.762
TrackDT02	2	TrackDT	2.0	SCS215a	20121121.180729	20121121.182340	dt-conversation	8	0.013328	60	10	60-180	60	96	GapExp	0	151	2	1	0	distractor	1	690	655	205780	13.328	12.973	13.684
TrackDT02	2	TrackDT	2.0	SCS215a	20121121.180729	20121121.182346	dt-conversation	8	0.013328	60	10	60-180	60	127	GapExp	0	152	2	1	1	target	1	453	774	206554	13.328	12.914	13.735
TrackDT02	2	TrackDT	2.0	SCS215a	20121121.180729	20121121.182352	dt-conversation	8	0.013328	60	10	60-180	60	88	GapExp	0	153	2	3	1	target	1	431	785	207339	13.328	13.015	13.646
TrackDT02	2	TrackDT	2.0	SCS215a	20121121.180729	20121121.182357	dt-conversation	8	0.013328	60	10	60-180	60	110	GapExp	0	154	2	30	0	distractor	1	432	784	208123	13.328	12.863	13.800
TrackDT02	2	TrackDT	2.0	SCS215a	20121121.180729	20121121.182403	dt-conversation	8	0.013328	60	10	60-180	60	173	GapExp	0	155	2	3	1	target	1	498	751	208874	13.328	12.924	13.780
TrackDT02	2	TrackDT	2.0	SCS215a	20121121.180729	20121121.182409	dt-conversation	8	0.013328	60	10	60-180	60	85	GapExp	0	156	2	3	1	target	1	486	757	209631	13.328	13.301	13.355
TrackDT02	2	TrackDT	2.0	SCS215a	20121121.180729	20121121.182415	dt-conversation	8	0.013328	60	10	60-180	60	78	GapExp	0	157	2	0	1	target	1	481	760	210391	13.328	12.878	13.777
TrackDT02	2	TrackDT	2.0	SCS215a	20121121.180729	20121121.182420	dt-conversation	8	0.013328	60	10	60-180	60	94	GapExp	0	158	2	1	0	target	0	570	-1000	209391	13.328	13.308	13.354
TrackDT02	2	TrackDT	2.0	SCS215a	20121121.180729	20121121.182426	dt-conversation	8	0.013328	60	10	60-180	60	95	GapExp	0	159	2	6	1	target	1	474	763	210154	13.328	13.278	13.371
TrackDT02	2	TrackDT	2.0	SCS215a	20121121.180729	20121121.182431	dt-conversation	8	0.013328	60	10	60-180	60	137	GapExp	0	160	2	3	0	target	0	873	-1000	209154	13.328	12.840	13.811
TrackDT02	2	TrackDT	2.0	SCS215a	20121121.180729	20121121.182437	dt-conversation	8	0.013328	60	10	60-180	60	124	GapExp	0	161	2	6	1	target	1	512	744	209898	13.328	12.884	13.759
TrackDT02	2	TrackDT	2.0	SCS215a	20121121.180729	20121121.182443	dt-conversation	8	0.013328	60	10	60-180	60	95	GapExp	0	162	2	30	0	distractor	1	576	712	210610	13.328	12.898	13.752
TrackDT02	2	TrackDT	2.0	SCS215a	20121121.180729	20121121.182449	dt-conversation	8	0.013328	60	10	60-180	60	140	GapExp	0	163	2	0	0	distractor	1	1049	476	211086	13.328	12.915	13.749
TrackDT02	2	TrackDT	2.0	SCS215a	20121121.180729	20121121.182456	dt-conversation	8	0.013328	60	10	60-180	60	135	GapExp	0	164	2	30	0	distractor	1	870	565	211651	13.328	12.845	13.812
TrackDT02	2	TrackDT	2.0	SCS215a	20121121.180729	20121121.182503	dt-conversation	8	0.013328	60	10	60-180	60	65	GapExp	0	165	2	30	0	distractor	1	942	529	212180	13.328	12.912	13.752
TrackDT02	2	TrackDT	2.0	SCS215a	20121121.180729	20121121.182509	dt-conversation	8	0.013328	60	10	60-180	60	119	GapExp	0	166	2	3	0	distractor	1	770	615	212795	13.328	12.849	13.805
TrackDT02	2	TrackDT	2.0	SCS215a	20121121.180729	20121121.182515	dt-conversation	8	0.013328	60	10	60-180	60	83	GapExp	0	167	2	30	0	distractor	1	623	689	213484	13.328	12.948	13.716
TrackDT02	2	TrackDT	2.0	SCS215a	20121121.180729	20121121.182520	dt-conversation	8	0.013328	60	10	60-180	60	151	GapExp	0	168	2	0	0	distractor	1	707	647	214131	13.328	12.921	13.737
TrackDT02	2	TrackDT	2.0	SCS215a	20121121.180729	20121121.182527	dt-conversation	8	0.013328	60	10	60-180	60	77	GapExp	0	169	2	1	0	distractor	1	636	682	214813	13.328	12.858	13.785
TrackDT02	2	TrackDT	2.0	SCS215a	20121121.180729	20121121.182532	dt-conversation	8	0.013328	60	10	60-180	60	99	GapExp	0	170	2	1	1	target	1	863	569	215382	13.328	12.877	13.787
TrackDT02	2	TrackDT	2.0	SCS215a	20121121.180729	20121121.182538	dt-conversation	8	0.013328	60	10	60-180	60	118	GapExp	0	171	2	6	0	distractor	1	476	762	216144	13.328	13.305	13.351
TrackDT02	2	TrackDT	2.0	SCS215a	20121121.180729	20121121.182544	dt-conversation	8	0.013328	60	10	60-180	60	110	GapExp	0	172	2	30	1	distractor	0	611	-1000	215144	13.326	12.869	13.793
TrackDT02	2	TrackDT	2.0	SCS215a	20121121.180729	20121121.182550	dt-conversation	8	0.013328	60	10	60-180	60	154	GapExp	0	173	2	1	1	target	1	572	714	215858	13.328	12.961	13.689
TrackDT02	2	TrackDT	2.0	SCS215a	20121121.180729	20121121.182556	dt-conversation	8	0.013328	60	10	60-180	60	112	GapExp	0	174	2	1	1	target	1	891	555	216413	13.380	13.111	26.551
TrackDT02	2	TrackDT	2.0	SCS215a	20121121.180729	20121121.182602	dt-conversation	8	0.013328	60	10	60-180	60	112	GapExp	0	175	2	6	1	target	1	521	740	217153	13.328	12.846	13.823
TrackDT02	2	TrackDT	2.0	SCS215a	20121121.180729	20121121.182608	dt-conversation	8	0.013328	60	10	60-180	60	67	GapExp	0	176	2	30	1	target	1	527	737	217890	13.328	12.858	13.807
TrackDT02	2	TrackDT	2.0	SCS215a	20121121.180729	20121121.182613	dt-conversation	8	0.013328	60	10	60-180	60	155	GapExp	0	177	2	3	1	target	1	387	807	218697	13.328	12.840	13.825
TrackDT02	2	TrackDT	2.0	SCS215a	20121121.180729	20121121.182620	dt-conversation	8	0.013328	60	10	60-180	60	89	GapExp	0	178	2	1	0	target	0	659	-1000	217697	13.328	12.873	13.788
TrackDT02	2	TrackDT	2.0	SCS215a	20121121.180729	20121121.182625	dt-conversation	8	0.013328	60	10	60-180	60	110	GapExp	0	179	2	3	1	target	1	590	705	218402	13.328	13.111	13.550
TrackDT02	2	TrackDT	2.0	SCS215a	20121121.180729	20121121.182631	dt-conversation	8	0.013328	60	10	60-180	60	138	GapExp	0	180	2	1	1	target	1	622	689	219091	13.328	13.008	13.661
TrackDT02	2	TrackDT	2.0	SCS215a	20121121.180729	20121121.182637	dt-conversation	8	0.013328	60	10	60-180	60	81	GapExp	0	181	2	0	1	target	1	559	721	219812	13.328	13.047	13.602
TrackDT02	2	TrackDT	2.0	SCS215a	20121121.180729	20121121.182643	dt-conversation	8	0.013328	60	10	60-180	60	107	GapExp	0	182	2	30	1	target	1	446	777	220589	13.328	12.850	13.812
TrackDT02	2	TrackDT	2.0	SCS215a	20121121.180729	20121121.182648	dt-conversation	8	0.013328	60	10	60-180	60	142	GapExp	0	183	2	0	1	target	1	462	769	221358	13.379	12.870	26.602
TrackDT02	2	TrackDT	2.0	SCS215a	20121121.180729	20121121.182654	dt-conversation	8	0.013328	60	10	60-180	60	127	GapExp	0	184	2	3	0	distractor	1	760	620	221978	13.328	12.893	13.763
TrackDT02	2	TrackDT	2.0	SCS215a	20121121.180729	20121121.182700	dt-conversation	8	0.013328	60	10	60-180	60	139	GapExp	0	185	2	3	1	target	1	365	818	222796	13.328	12.905	13.758
TrackDT02	2	TrackDT	2.0	SCS215a	20121121.180729	20121121.182706	dt-conversation	8	0.013328	60	10	60-180	60	117	GapExp	0	186	2	6	0	distractor	1	497	752	223548	13.382	12.907	26.473
TrackDT02	2	TrackDT	2.0	SCS215a	20121121.180729	20121121.182712	dt-conversation	8	0.013328	60	10	60-180	60	177	GapExp	0	187	2	1	1	target	1	823	589	224137	13.369	12.912	26.300
TrackDT02	2	TrackDT	2.0	SCS215a	20121121.180729	20121121.182719	dt-conversation	8	0.013328	60	10	60-180	60	76	GapExp	0	188	2	0	0	distractor	1	697	652	224789	13.328	12.847	13.803
TrackDT02	2	TrackDT	2.0	SCS215a	20121121.180729	20121121.182724	dt-conversation	8	0.013328	60	10	60-180	60	106	GapExp	0	189	2	1	0	distractor	1	667	667	225456	13.328	12.834	13.824
TrackDT02	2	TrackDT	2.0	SCS215a	20121121.180729	20121121.182730	dt-conversation	8	0.013328	60	10	60-180	60	171	GapExp	0	190	2	0	1	target	1	470	765	226221	13.328	12.934	13.723
TrackDT02	2	TrackDT	2.0	SCS215a	20121121.180729	20121121.182736	dt-conversation	8	0.013328	60	10	60-180	60	165	GapExp	0	191	2	0	1	target	1	512	744	226965	13.328	13.304	13.349
TrackDT02	2	TrackDT	2.0	SCS215a	20121121.180729	20121121.182743	dt-conversation	8	0.013328	60	10	60-180	60	131	GapExp	0	192	2	30	0	distractor	1	490	755	227720	13.422	12.888	26.470
TrackDT02	2	TrackDT	2.0	SCS215a	20121121.180729	20121121.182749	dt-conversation	8	0.013328	60	10	60-180	60	173	GapExp	0	193	2	30	1	distractor	0	591	-1000	226720	13.328	12.879	13.778
TrackDT02	2	TrackDT	2.0	SCS215a	20121121.180729	20121121.182756	dt-conversation	8	0.013328	60	10	60-180	60	152	GapExp	0	194	2	30	1	distractor	0	823	-1000	225720	13.369	12.857	26.663
TrackDT02	2	TrackDT	2.0	SCS215a	20121121.180729	20121121.182803	dt-conversation	8	0.013328	60	10	60-180	60	64	GapExp	0	195	2	3	0	distractor	1	792	604	226324	13.328	12.874	13.796
TrackDT02	2	TrackDT	2.0	SCS215a	20121121.180729	20121121.182808	dt-conversation	8	0.013328	60	10	60-180	60	132	GapExp	0	196	2	30	1	target	1	398	801	227125	13.328	13.103	13.558
TrackDT02	2	TrackDT	2.0	SCS215a	20121121.180729	20121121.182815	dt-conversation	8	0.013328	60	10	60-180	60	156	GapExp	0	197	2	3	1	target	1	449	776	227901	13.328	12.884	13.766
TrackDT02	2	TrackDT	2.0	SCS215a	20121121.180729	20121121.182821	dt-conversation	8	0.013328	60	10	60-180	60	169	GapExp	0	198	2	0	1	target	1	557	722	228623	13.373	13.037	26.669
TrackDT02	2	TrackDT	2.0	SCS215a	20121121.180729	20121121.182827	dt-conversation	8	0.013328	60	10	60-180	60	128	GapExp	0	199	2	30	1	target	1	513	744	229367	13.329	12.891	13.754
TrackDT02	2	TrackDT	2.0	SCS215a	20121121.180729	20121121.182834	dt-conversation	8	0.013328	60	10	60-180	60	163	GapExp	0	200	2	3	0	target	0	748	-1000	228367	13.415	12.886	39.732
TrackDT02	2	TrackDT	2.0	SCS215a	20121121.182857	20121121.182908	single-task	8	0.013328	60	10	60-180	60	90	GapPrac	1	1	2	0	0	distractor	1	624	688	229055	13.328	12.927	13.728
TrackDT02	2	TrackDT	2.0	SCS215a	20121121.182857	20121121.182914	single-task	8	0.013328	60	10	60-180	60	112	GapPrac	1	2	2	0	0	distractor	1	488	756	229811	13.328	12.844	13.801
TrackDT02	2	TrackDT	2.0	SCS215a	20121121.182857	20121121.182919	single-task	8	0.013328	60	10	60-180	60	149	GapPrac	1	3	2	6	1	target	1	778	611	230422	13.328	12.859	13.799
TrackDT02	2	TrackDT	2.0	SCS215a	20121121.182857	20121121.182926	single-task	8	0.013328	60	10	60-180	60	66	GapPrac	1	4	2	30	0	distractor	1	524	738	231160	13.328	13.302	13.346
TrackDT02	2	TrackDT	2.0	SCS215a	20121121.182857	20121121.182931	single-task	8	0.013328	60	10	60-180	60	68	GapPrac	1	5	2	30	0	distractor	1	686	657	231817	13.328	12.867	13.776
TrackDT02	2	TrackDT	2.0	SCS215a	20121121.182857	20121121.182936	single-task	8	0.013328	60	10	60-180	60	141	GapPrac	1	6	2	6	0	distractor	1	543	729	232546	13.328	12.842	13.800
TrackDT02	2	TrackDT	2.0	SCS215a	20121121.182857	20121121.182942	single-task	8	0.013328	60	10	60-180	60	69	GapPrac	1	7	2	3	1	target	1	536	732	233278	13.328	12.935	13.719
TrackDT02	2	TrackDT	2.0	SCS215a	20121121.182857	20121121.182948	single-task	8	0.013328	60	10	60-180	60	162	GapPrac	1	8	2	6	1	target	1	571	715	233993	13.373	12.961	26.657
TrackDT02	2	TrackDT	2.0	SCS215a	20121121.182857	20121121.182954	single-task	8	0.013328	60	10	60-180	60	172	GapPrac	1	9	2	30	1	target	1	550	725	234718	13.368	12.958	26.333
TrackDT02	2	TrackDT	2.0	SCS215a	20121121.182857	20121121.183001	single-task	8	0.013328	60	10	60-180	60	64	GapPrac	1	10	2	3	1	target	1	556	722	235440	13.328	13.300	13.346
TrackDT02	2	TrackDT	2.0	SCS215a	20121121.182857	20121121.183006	single-task	8	0.013328	60	10	60-180	60	152	GapPrac	1	11	2	30	1	target	1	553	724	236164	13.328	13.034	13.621
TrackDT02	2	TrackDT	2.0	SCS215a	20121121.182857	20121121.183012	single-task	8	0.013328	60	10	60-180	60	79	GapPrac	1	12	2	6	0	distractor	1	664	668	236832	13.388	12.849	26.585
TrackDT02	2	TrackDT	2.0	SCS215a	20121121.182857	20121121.183017	single-task	8	0.013328	60	10	60-180	60	174	GapPrac	1	13	2	0	1	target	1	548	726	237558	13.328	12.954	13.693
TrackDT02	2	TrackDT	2.0	SCS215a	20121121.182857	20121121.183024	single-task	8	0.013328	60	10	60-180	60	152	GapPrac	1	14	2	1	0	distractor	1	691	655	238213	13.328	12.893	13.745
TrackDT02	2	TrackDT	2.0	SCS215a	20121121.182857	20121121.183030	single-task	8	0.013328	60	10	60-180	60	130	GapPrac	1	15	2	0	1	target	1	459	771	238984	13.328	13.306	13.348
TrackDT02	2	TrackDT	2.0	SCS215a	20121121.182857	20121121.183036	single-task	8	0.013328	60	10	60-180	60	108	GapPrac	1	16	2	1	1	target	1	445	778	239762	13.328	12.856	13.797
TrackDT02	2	TrackDT	2.0	SCS215a	20121121.182857	20121121.183042	single-task	8	0.013328	60	10	60-180	60	101	GapPrac	1	17	2	3	0	distractor	1	636	682	240444	13.328	12.838	13.811
TrackDT02	2	TrackDT	2.0	SCS215a	20121121.182857	20121121.183047	single-task	8	0.013328	60	10	60-180	60	87	GapPrac	1	18	2	1	0	distractor	1	617	692	241136	13.388	12.885	26.414
TrackDT02	2	TrackDT	2.0	SCS215a	20121121.182857	20121121.183052	single-task	8	0.013328	60	10	60-180	60	104	GapPrac	1	19	2	1	1	target	1	688	656	241792	13.328	12.868	13.805
TrackDT02	2	TrackDT	2.0	SCS215a	20121121.182857	20121121.183059	single-task	8	0.013328	60	10	60-180	60	148	GapPrac	1	20	2	3	0	distractor	1	576	712	242504	13.328	12.953	13.679
