exp	sub	code	rev	comp	runtime	trialtime	nstim	refreshdur	cuedur	gapdur	gapOnsetRange	durPostProbe	gapOnsetTime	blocktype	prac	trial	ntargets	soa	probeTarget	resp	acc	rt	meanFrameDur	minFrameDur	maxFrameDur
ProbeTrack8	13	ProbeTrack	1415	SCS215b	733800.464084	733800.464398	8	0.013328	60	0	60-180	60	105	NoGap	1	1	4	3	0	83	-3	2812	13.328	13.293	13.363
ProbeTrack8	13	ProbeTrack	1415	SCS215b	733800.464084	733800.464561	8	0.013328	60	0	60-180	60	79	NoGap	1	2	4	0	0	target	0	1853	13.328	13.293	13.364
ProbeTrack8	13	ProbeTrack	1415	SCS215b	733800.464084	733800.464656	8	0.013328	60	0	60-180	60	69	NoGap	1	3	4	0	1	target	1	1013	13.328	13.293	13.363
ProbeTrack8	13	ProbeTrack	1415	SCS215b	733800.464084	733800.464741	8	0.013328	60	0	60-180	60	174	NoGap	1	4	4	96	1	target	1	880	13.328	13.293	13.363
ProbeTrack8	13	ProbeTrack	1415	SCS215b	733800.464084	733800.464857	8	0.013328	60	0	60-180	60	136	NoGap	1	5	4	6	0	distractor	1	1840	13.328	13.293	13.366
ProbeTrack8	13	ProbeTrack	1415	SCS215b	733800.464084	733800.464981	8	0.013328	60	0	60-180	60	156	NoGap	1	6	4	6	1	target	1	880	13.328	13.293	13.363
ProbeTrack8	13	ProbeTrack	1415	SCS215b	733800.464084	733800.465074	8	0.013328	60	0	60-180	60	69	NoGap	1	7	4	3	1	target	1	1160	13.328	13.293	13.363
ProbeTrack8	13	ProbeTrack	1415	SCS215b	733800.464084	733800.465178	8	0.013328	60	0	60-180	60	129	NoGap	1	8	4	96	0	target	0	1440	13.328	13.293	13.363
ProbeTrack8	13	ProbeTrack	1415	SCS215b	733800.464084	733800.465287	8	0.013328	60	0	60-180	60	168	NoGap	1	9	4	6	1	target	1	920	13.328	13.293	13.363
ProbeTrack8	13	ProbeTrack	1415	SCS215b	733800.464084	733800.465377	8	0.013328	60	0	60-180	60	76	NoGap	1	10	4	96	0	distractor	1	1093	13.328	13.293	13.363
ProbeTrack8	13	ProbeTrack	1415	SCS215b	733800.464084	733800.465462	8	0.013328	60	0	60-180	60	76	NoGap	1	11	4	0	1	target	1	787	13.328	13.293	13.363
ProbeTrack8	13	ProbeTrack	1415	SCS215b	733800.464084	733800.465531	8	0.013328	60	0	60-180	60	132	NoGap	1	12	4	3	1	target	1	640	13.328	13.293	13.363
ProbeTrack8	13	ProbeTrack	1415	SCS215b	733800.464084	733800.465611	8	0.013328	60	0	60-180	60	154	NoGap	1	13	4	6	1	target	1	653	13.328	13.293	13.364
ProbeTrack8	13	ProbeTrack	1415	SCS215b	733800.464084	733800.465694	8	0.013328	60	0	60-180	60	166	NoGap	1	14	4	6	0	target	0	1053	13.328	13.292	13.363
ProbeTrack8	13	ProbeTrack	1415	SCS215b	733800.464084	733800.465781	8	0.013328	60	0	60-180	60	155	NoGap	1	15	4	6	0	distractor	1	1493	13.328	13.293	13.363
ProbeTrack8	13	ProbeTrack	1415	SCS215b	733800.464084	733800.465880	8	0.013328	60	0	60-180	60	68	NoGap	1	16	4	6	0	distractor	1	1186	13.328	13.293	13.363
ProbeTrack8	13	ProbeTrack	1415	SCS215b	733800.464084	733800.465954	8	0.013328	60	0	60-180	60	80	NoGap	1	17	4	96	0	distractor	1	1560	13.328	13.293	13.363
ProbeTrack8	13	ProbeTrack	1415	SCS215b	733800.464084	733800.466048	8	0.013328	60	0	60-180	60	69	NoGap	1	18	4	3	1	target	1	880	13.328	13.289	13.363
ProbeTrack8	13	ProbeTrack	1415	SCS215b	733800.464084	733800.466121	8	0.013328	60	0	60-180	60	152	NoGap	1	19	4	0	0	distractor	1	1120	13.328	13.293	13.363
ProbeTrack8	13	ProbeTrack	1415	SCS215b	733800.464084	733800.466209	8	0.013328	60	0	60-180	60	84	NoGap	1	20	4	0	0	distractor	1	840	13.328	13.293	13.363
ProbeTrack8	13	ProbeTrack	1415	SCS215b	733800.464084	733800.466283	8	0.013328	60	0	60-180	60	157	NoGap	1	21	4	3	0	distractor	1	920	13.328	13.293	13.369
ProbeTrack8	13	ProbeTrack	1415	SCS215b	733800.464084	733800.466363	8	0.013328	60	0	60-180	60	68	NoGap	1	22	4	6	1	target	1	773	13.328	13.293	13.363
ProbeTrack8	13	ProbeTrack	1415	SCS215b	733800.464084	733800.466433	8	0.013328	60	0	60-180	60	142	NoGap	1	23	4	6	0	distractor	1	1026	13.328	13.293	13.363
ProbeTrack8	13	ProbeTrack	1415	SCS215b	733800.464084	733800.466517	8	0.013328	60	0	60-180	60	150	NoGap	1	24	4	96	0	distractor	1	1386	13.328	13.293	13.363
ProbeTrack8	13	ProbeTrack	1415	SCS215b	733800.464084	733800.466621	8	0.013328	60	0	60-180	60	167	NoGap	1	25	4	3	0	distractor	1	920	13.328	13.293	13.363
ProbeTrack8	13	ProbeTrack	1415	SCS215b	733800.464084	733800.466707	8	0.013328	60	0	60-180	60	111	NoGap	1	26	4	3	1	target	1	787	13.328	13.293	13.363
ProbeTrack8	13	ProbeTrack	1415	SCS215b	733800.464084	733800.466783	8	0.013328	60	0	60-180	60	103	NoGap	1	27	4	96	1	target	1	1493	13.328	13.293	13.363
ProbeTrack8	13	ProbeTrack	1415	SCS215b	733800.464084	733800.466879	8	0.013328	60	0	60-180	60	88	NoGap	1	28	4	0	1	target	1	707	13.328	13.289	13.363
ProbeTrack8	13	ProbeTrack	1415	SCS215b	733800.464084	733800.466951	8	0.013328	60	0	60-180	60	123	NoGap	1	29	4	96	1	target	1	773	13.328	13.293	13.363
ProbeTrack8	13	ProbeTrack	1415	SCS215b	733800.464084	733800.467043	8	0.013328	60	0	60-180	60	63	NoGap	1	30	4	3	1	target	1	707	13.328	13.293	13.363
ProbeTrack8	13	ProbeTrack	1415	SCS215b	733800.464084	733800.467110	8	0.013328	60	0	60-180	60	106	NoGap	1	31	4	3	0	target	0	920	13.328	13.292	13.363
ProbeTrack8	13	ProbeTrack	1415	SCS215b	733800.464084	733800.467186	8	0.013328	60	0	60-180	60	142	NoGap	1	32	4	0	1	target	1	680	13.328	13.293	13.364
ProbeTrack8	13	ProbeTrack	1415	SCS215b	733800.464084	733800.467262	8	0.013328	60	0	60-180	60	74	NoGap	1	33	4	3	0	distractor	1	973	13.328	13.293	13.363
ProbeTrack8	13	ProbeTrack	1415	SCS215b	733800.464084	733800.467333	8	0.013328	60	0	60-180	60	123	NoGap	1	34	4	6	1	target	1	720	13.328	13.293	13.363
ProbeTrack8	13	ProbeTrack	1415	SCS215b	733800.464084	733800.467406	8	0.013328	60	0	60-180	60	78	NoGap	1	35	4	96	1	target	1	693	13.328	13.293	13.363
ProbeTrack8	13	ProbeTrack	1415	SCS215b	733800.464084	733800.467506	8	0.013328	60	0	60-180	60	79	NoGap	1	36	4	96	1	target	1	693	13.328	13.293	13.363
ProbeTrack8	13	ProbeTrack	1415	SCS215b	733800.464084	733800.467588	8	0.013328	60	0	60-180	60	163	NoGap	1	37	4	0	1	target	1	693	13.328	13.289	13.363
ProbeTrack8	13	ProbeTrack	1415	SCS215b	733800.464084	733800.467666	8	0.013328	60	0	60-180	60	135	NoGap	1	38	4	0	0	distractor	1	1386	13.328	13.293	13.363
ProbeTrack8	13	ProbeTrack	1415	SCS215b	733800.464084	733800.467749	8	0.013328	60	0	60-180	60	156	NoGap	1	39	4	96	0	target	0	1253	13.328	13.293	13.363
ProbeTrack8	13	ProbeTrack	1415	SCS215b	733800.464084	733800.467853	8	0.013328	60	0	60-180	60	145	NoGap	1	40	4	0	0	distractor	1	973	13.328	13.293	13.363
ProbeTrack8	13	ProbeTrack	1415	SCS215b	733800.469240	733800.469559	8	0.013327	60	10	60-180	60	80	GapPrac	1	1	2	3	0	83	-3	1653	13.328	13.293	13.363
ProbeTrack8	13	ProbeTrack	1415	SCS215b	733800.469240	733800.469650	8	0.013327	60	10	60-180	60	166	GapPrac	1	2	2	0	0	target	0	3372	13.328	13.292	13.363
ProbeTrack8	13	ProbeTrack	1415	SCS215b	733800.469240	733800.469773	8	0.013327	60	10	60-180	60	71	GapPrac	1	3	2	96	0	distractor	1	1293	13.328	13.293	13.363
ProbeTrack8	13	ProbeTrack	1415	SCS215b	733800.469240	733800.469856	8	0.013327	60	10	60-180	60	121	GapPrac	1	4	2	3	1	target	1	800	13.328	13.293	13.363
ProbeTrack8	13	ProbeTrack	1415	SCS215b	733800.469240	733800.469939	8	0.013327	60	10	60-180	60	90	GapPrac	1	5	2	0	0	distractor	1	973	13.328	13.289	13.364
ProbeTrack8	13	ProbeTrack	1415	SCS215b	733800.469240	733800.470012	8	0.013327	60	10	60-180	60	133	GapPrac	1	6	2	6	1	target	1	800	13.328	13.293	13.364
ProbeTrack8	13	ProbeTrack	1415	SCS215b	733800.469240	733800.470092	8	0.013327	60	10	60-180	60	137	GapPrac	1	7	2	96	1	target	1	800	13.328	13.293	13.363
ProbeTrack8	13	ProbeTrack	1415	SCS215b	733800.469240	733800.470184	8	0.013327	60	10	60-180	60	102	GapPrac	1	8	2	96	0	distractor	1	1000	13.328	13.293	13.363
ProbeTrack8	13	ProbeTrack	1415	SCS215b	733800.469240	733800.470273	8	0.013327	60	10	60-180	60	118	GapPrac	1	9	2	3	0	distractor	1	1040	13.328	13.292	13.363
ProbeTrack8	13	ProbeTrack	1415	SCS215b	733800.469240	733800.470352	8	0.013327	60	10	60-180	60	67	GapPrac	1	10	2	6	0	target	0	560	13.328	13.293	13.363
ProbeTrack8	13	ProbeTrack	1415	SCS215b	733800.469240	733800.470416	8	0.013327	60	10	60-180	60	160	GapPrac	1	11	2	0	1	target	1	920	13.328	13.292	13.363
ProbeTrack8	13	ProbeTrack	1415	SCS215b	733800.469240	733800.470498	8	0.013327	60	10	60-180	60	72	GapPrac	1	12	2	6	0	distractor	1	5185	13.328	13.293	13.363
ProbeTrack8	13	ProbeTrack	1415	SCS215b	733800.469240	733800.470615	8	0.013327	60	10	60-180	60	79	GapPrac	1	13	2	96	1	target	1	680	13.328	13.293	13.363
ProbeTrack8	13	ProbeTrack	1415	SCS215b	733800.469240	733800.470697	8	0.013327	60	10	60-180	60	108	GapPrac	1	14	2	96	0	distractor	1	1026	13.328	13.293	13.363
ProbeTrack8	13	ProbeTrack	1415	SCS215b	733800.469240	733800.470788	8	0.013327	60	10	60-180	60	137	GapPrac	1	15	2	0	1	target	1	667	13.328	13.293	13.363
ProbeTrack8	13	ProbeTrack	1415	SCS215b	733800.469240	733800.470862	8	0.013327	60	10	60-180	60	134	GapPrac	1	16	2	3	1	target	1	534	13.328	13.293	13.363
ProbeTrack8	13	ProbeTrack	1415	SCS215b	733800.469240	733800.470935	8	0.013327	60	10	60-180	60	61	GapPrac	1	17	2	3	1	target	1	680	13.328	13.293	13.363
ProbeTrack8	13	ProbeTrack	1415	SCS215b	733800.469240	733800.470997	8	0.013327	60	10	60-180	60	125	GapPrac	1	18	2	3	0	distractor	1	1093	13.328	13.293	13.363
ProbeTrack8	13	ProbeTrack	1415	SCS215b	733800.469240	733800.471078	8	0.013327	60	10	60-180	60	105	GapPrac	1	19	2	0	0	target	0	920	13.328	13.293	13.363
ProbeTrack8	13	ProbeTrack	1415	SCS215b	733800.469240	733800.471147	8	0.013327	60	10	60-180	60	136	GapPrac	1	20	2	6	1	target	1	947	13.328	13.292	13.363
ProbeTrack8	13	ProbeTrack	1415	SCS215b	733800.471558	733800.471697	8	0.013328	60	10	60-180	60	124	GapExp	1	1	2	96	1	target	1	907	13.328	13.293	13.363
ProbeTrack8	13	ProbeTrack	1415	SCS215b	733800.471558	733800.471804	8	0.013328	60	10	60-180	60	110	GapExp	0	2	2	3	0	83	-3	680	13.328	13.293	13.363
ProbeTrack8	13	ProbeTrack	1415	SCS215b	733800.471558	733800.471876	8	0.013328	60	10	60-180	60	62	GapExp	0	3	2	6	0	distractor	1	907	13.328	13.293	13.363
ProbeTrack8	13	ProbeTrack	1415	SCS215b	733800.471558	733800.471953	8	0.013328	60	10	60-180	60	135	GapExp	0	4	2	3	1	target	1	440	13.328	13.293	13.363
ProbeTrack8	13	ProbeTrack	1415	SCS215b	733800.471558	733800.472028	8	0.013328	60	10	60-180	60	114	GapExp	0	5	2	0	0	target	0	520	13.328	13.293	13.363
ProbeTrack8	13	ProbeTrack	1415	SCS215b	733800.471558	733800.472098	8	0.013328	60	10	60-180	60	103	GapExp	0	6	2	0	0	target	0	480	13.328	13.292	13.364
ProbeTrack8	13	ProbeTrack	1415	SCS215b	733800.471558	733800.472175	8	0.013328	60	10	60-180	60	95	GapExp	0	7	2	96	1	target	1	587	13.328	13.293	13.363
ProbeTrack8	13	ProbeTrack	1415	SCS215b	733800.471558	733800.472257	8	0.013328	60	10	60-180	60	77	GapExp	0	8	2	0	0	distractor	1	1040	13.328	13.293	13.363
ProbeTrack8	13	ProbeTrack	1415	SCS215b	733800.471558	733800.472325	8	0.013328	60	10	60-180	60	107	GapExp	0	9	2	0	1	target	1	760	13.328	13.293	13.363
ProbeTrack8	13	ProbeTrack	1415	SCS215b	733800.471558	733800.472394	8	0.013328	60	10	60-180	60	141	GapExp	0	10	2	3	0	distractor	1	907	13.328	13.293	13.363
ProbeTrack8	13	ProbeTrack	1415	SCS215b	733800.471558	733800.472472	8	0.013328	60	10	60-180	60	115	GapExp	0	11	2	0	1	target	1	600	13.328	13.292	13.364
ProbeTrack8	13	ProbeTrack	1415	SCS215b	733800.471558	733800.472546	8	0.013328	60	10	60-180	60	148	GapExp	0	12	2	3	0	target	0	573	13.328	13.293	13.364
ProbeTrack8	13	ProbeTrack	1415	SCS215b	733800.471558	733800.472620	8	0.013328	60	10	60-180	60	67	GapExp	0	13	2	0	0	target	0	667	13.328	13.293	13.363
ProbeTrack8	13	ProbeTrack	1415	SCS215b	733800.471558	733800.472683	8	0.013328	60	10	60-180	60	179	GapExp	0	14	2	96	0	distractor	1	800	13.328	13.292	13.363
ProbeTrack8	13	ProbeTrack	1415	SCS215b	733800.471558	733800.472779	8	0.013328	60	10	60-180	60	74	GapExp	0	15	2	0	0	target	0	613	13.328	13.289	13.363
ProbeTrack8	13	ProbeTrack	1415	SCS215b	733800.471558	733800.472845	8	0.013328	60	10	60-180	60	66	GapExp	0	16	2	96	0	target	0	520	13.328	13.293	13.366
ProbeTrack8	13	ProbeTrack	1415	SCS215b	733800.471558	733800.472921	8	0.013328	60	10	60-180	60	64	GapExp	0	17	2	96	1	target	1	573	13.328	13.292	13.363
ProbeTrack8	13	ProbeTrack	1415	SCS215b	733800.471558	733800.472994	8	0.013328	60	10	60-180	60	90	GapExp	0	18	2	0	0	target	0	733	13.328	13.293	13.363
ProbeTrack8	13	ProbeTrack	1415	SCS215b	733800.471558	733800.473064	8	0.013328	60	10	60-180	60	112	GapExp	0	19	2	96	1	distractor	0	1040	13.328	13.292	13.364
ProbeTrack8	13	ProbeTrack	1415	SCS215b	733800.471558	733800.473152	8	0.013328	60	10	60-180	60	82	GapExp	0	20	2	6	1	target	1	480	13.328	13.293	13.363
ProbeTrack8	13	ProbeTrack	1415	SCS215b	733800.471558	733800.473217	8	0.013328	60	10	60-180	60	145	GapExp	0	21	2	6	0	target	0	467	13.328	13.289	13.367
ProbeTrack8	13	ProbeTrack	1415	SCS215b	733800.471558	733800.473290	8	0.013328	60	10	60-180	60	126	GapExp	0	22	2	6	0	distractor	1	787	13.328	13.293	13.363
ProbeTrack8	13	ProbeTrack	1415	SCS215b	733800.471558	733800.473363	8	0.013328	60	10	60-180	60	102	GapExp	0	23	2	3	0	distractor	1	800	13.328	13.293	13.363
ProbeTrack8	13	ProbeTrack	1415	SCS215b	733800.471558	733800.473434	8	0.013328	60	10	60-180	60	132	GapExp	0	24	2	6	0	distractor	1	800	13.328	13.293	13.363
ProbeTrack8	13	ProbeTrack	1415	SCS215b	733800.471558	733800.473508	8	0.013328	60	10	60-180	60	73	GapExp	0	25	2	0	1	target	1	573	13.328	13.293	13.363
ProbeTrack8	13	ProbeTrack	1415	SCS215b	733800.471558	733800.473570	8	0.013328	60	10	60-180	60	123	GapExp	0	26	2	6	1	target	1	587	13.328	13.293	13.363
ProbeTrack8	13	ProbeTrack	1415	SCS215b	733800.471558	733800.473641	8	0.013328	60	10	60-180	60	63	GapExp	0	27	2	96	1	target	1	467	13.328	13.293	13.363
ProbeTrack8	13	ProbeTrack	1415	SCS215b	733800.471558	733800.473716	8	0.013328	60	10	60-180	60	160	GapExp	0	28	2	96	0	distractor	1	707	13.328	13.292	13.364
ProbeTrack8	13	ProbeTrack	1415	SCS215b	733800.471558	733800.473809	8	0.013328	60	10	60-180	60	95	GapExp	0	29	2	3	1	target	1	547	13.328	13.290	13.364
ProbeTrack8	13	ProbeTrack	1415	SCS215b	733800.471558	733800.473877	8	0.013328	60	10	60-180	60	103	GapExp	0	30	2	3	1	target	1	440	13.328	13.291	13.364
ProbeTrack8	13	ProbeTrack	1415	SCS215b	733800.471558	733800.473945	8	0.013328	60	10	60-180	60	108	GapExp	0	31	2	6	0	distractor	1	813	13.328	13.293	13.363
ProbeTrack8	13	ProbeTrack	1415	SCS215b	733800.471558	733800.474017	8	0.013328	60	10	60-180	60	72	GapExp	0	32	2	6	0	83	-3	680	13.328	13.293	13.363
ProbeTrack8	13	ProbeTrack	1415	SCS215b	733800.471558	733800.474082	8	0.013328	60	10	60-180	60	96	GapExp	0	33	2	6	0	target	0	587	13.328	13.293	13.366
ProbeTrack8	13	ProbeTrack	1415	SCS215b	733800.471558	733800.474149	8	0.013328	60	10	60-180	60	93	GapExp	0	34	2	0	1	target	1	600	13.328	13.293	13.363
ProbeTrack8	13	ProbeTrack	1415	SCS215b	733800.471558	733800.474214	8	0.013328	60	10	60-180	60	141	GapExp	0	35	2	3	1	target	1	827	13.328	13.293	13.363
ProbeTrack8	13	ProbeTrack	1415	SCS215b	733800.471558	733800.474291	8	0.013328	60	10	60-180	60	162	GapExp	0	36	2	96	0	distractor	1	707	13.328	12.690	13.964
ProbeTrack8	13	ProbeTrack	1415	SCS215b	733800.471558	733800.474386	8	0.013328	60	10	60-180	60	172	GapExp	0	37	2	3	0	distractor	1	787	13.328	13.290	13.363
ProbeTrack8	13	ProbeTrack	1415	SCS215b	733800.471558	733800.474471	8	0.013328	60	10	60-180	60	138	GapExp	0	38	2	96	0	distractor	1	453	13.328	13.291	13.364
ProbeTrack8	13	ProbeTrack	1415	SCS215b	733800.471558	733800.474556	8	0.013328	60	10	60-180	60	126	GapExp	0	39	2	6	1	target	1	653	13.328	13.292	13.363
ProbeTrack8	13	ProbeTrack	1415	SCS215b	733800.471558	733800.474631	8	0.013328	60	10	60-180	60	140	GapExp	0	40	2	3	0	distractor	1	667	13.328	13.292	13.363
ProbeTrack8	13	ProbeTrack	1415	SCS215b	733800.471558	733800.474705	8	0.013328	60	10	60-180	60	117	GapExp	0	41	2	3	1	target	1	627	13.328	13.293	13.364
ProbeTrack8	13	ProbeTrack	1415	SCS215b	733800.471558	733800.474776	8	0.013328	60	10	60-180	60	98	GapExp	0	42	2	3	1	target	1	547	13.328	13.293	13.363
ProbeTrack8	13	ProbeTrack	1415	SCS215b	733800.471558	733800.474842	8	0.013328	60	10	60-180	60	178	GapExp	0	43	2	6	1	target	1	467	13.328	13.293	13.363
ProbeTrack8	13	ProbeTrack	1415	SCS215b	733800.471558	733800.474925	8	0.013328	60	10	60-180	60	144	GapExp	0	44	2	0	1	distractor	0	467	13.328	13.293	13.363
ProbeTrack8	13	ProbeTrack	1415	SCS215b	733800.471558	733800.475000	8	0.013328	60	10	60-180	60	82	GapExp	0	45	2	96	0	distractor	1	707	13.328	13.293	13.363
ProbeTrack8	13	ProbeTrack	1415	SCS215b	733800.471558	733800.475089	8	0.013328	60	10	60-180	60	177	GapExp	0	46	2	6	1	target	1	547	13.328	13.293	13.364
ProbeTrack8	13	ProbeTrack	1415	SCS215b	733800.471558	733800.475173	8	0.013328	60	10	60-180	60	171	GapExp	0	47	2	6	1	target	1	533	13.328	13.293	13.363
ProbeTrack8	13	ProbeTrack	1415	SCS215b	733800.471558	733800.475255	8	0.013328	60	10	60-180	60	86	GapExp	0	48	2	3	1	target	1	427	13.328	13.293	13.363
ProbeTrack8	13	ProbeTrack	1415	SCS215b	733800.471558	733800.475319	8	0.013328	60	10	60-180	60	128	GapExp	0	49	2	0	0	distractor	1	773	13.328	13.293	13.363
ProbeTrack8	13	ProbeTrack	1415	SCS215b	733800.471558	733800.475395	8	0.013328	60	10	60-180	60	146	GapExp	0	50	2	0	0	distractor	1	853	13.328	13.293	13.366
ProbeTrack8	13	ProbeTrack	1415	SCS215b	733800.471558	733800.475477	8	0.013328	60	10	60-180	60	161	GapExp	0	51	2	6	0	distractor	1	2386	13.328	13.293	13.363
ProbeTrack8	13	ProbeTrack	1415	SCS215b	733800.471558	733800.475575	8	0.013328	60	10	60-180	60	94	GapExp	0	52	2	0	0	distractor	1	800	13.328	13.293	13.363
ProbeTrack8	13	ProbeTrack	1415	SCS215b	733800.471558	733800.475645	8	0.013328	60	10	60-180	60	157	GapExp	0	53	2	96	1	distractor	0	787	13.328	13.293	13.363
ProbeTrack8	13	ProbeTrack	1415	SCS215b	733800.471558	733800.475739	8	0.013328	60	10	60-180	60	104	GapExp	0	54	2	0	1	target	1	560	13.328	13.293	13.363
ProbeTrack8	13	ProbeTrack	1415	SCS215b	733800.471558	733800.475806	8	0.013328	60	10	60-180	60	79	GapExp	0	55	2	0	0	target	0	467	13.328	13.293	13.363
ProbeTrack8	13	ProbeTrack	1415	SCS215b	733800.471558	733800.475869	8	0.013328	60	10	60-180	60	156	GapExp	0	56	2	3	0	distractor	1	787	13.328	13.293	13.364
ProbeTrack8	13	ProbeTrack	1415	SCS215b	733800.471558	733800.475948	8	0.013328	60	10	60-180	60	130	GapExp	0	57	2	6	0	distractor	1	480	13.328	13.293	13.363
ProbeTrack8	13	ProbeTrack	1415	SCS215b	733800.471558	733800.476019	8	0.013328	60	10	60-180	60	67	GapExp	0	58	2	96	1	distractor	0	1933	13.328	13.293	13.366
ProbeTrack8	13	ProbeTrack	1415	SCS215b	733800.471558	733800.476114	8	0.013328	60	10	60-180	60	140	GapExp	0	59	2	6	1	target	1	507	13.328	13.292	13.363
ProbeTrack8	13	ProbeTrack	1415	SCS215b	733800.471558	733800.476209	8	0.013328	60	10	60-180	60	118	GapExp	0	60	2	3	1	target	1	560	13.328	13.293	13.363
ProbeTrack8	13	ProbeTrack	1415	SCS215b	733800.471558	733800.476281	8	0.013328	60	10	60-180	60	76	GapExp	0	61	2	6	1	target	1	453	13.328	13.293	13.363
ProbeTrack8	13	ProbeTrack	1415	SCS215b	733800.471558	733800.476344	8	0.013328	60	10	60-180	60	93	GapExp	0	62	2	96	1	target	1	520	13.328	13.293	13.363
ProbeTrack8	13	ProbeTrack	1415	SCS215b	733800.471558	733800.476423	8	0.013328	60	10	60-180	60	155	GapExp	0	63	2	3	0	distractor	1	733	13.328	13.293	13.363
ProbeTrack8	13	ProbeTrack	1415	SCS215b	733800.471558	733800.476500	8	0.013328	60	10	60-180	60	88	GapExp	0	64	2	0	1	target	1	560	13.328	13.293	13.363
ProbeTrack8	13	ProbeTrack	1415	SCS215b	733800.471558	733800.476566	8	0.013328	60	10	60-180	60	174	GapExp	0	65	2	3	0	distractor	1	560	13.328	13.293	13.363
ProbeTrack8	13	ProbeTrack	1415	SCS215b	733800.471558	733800.476654	8	0.013328	60	10	60-180	60	148	GapExp	0	66	2	96	1	target	1	613	13.328	13.293	13.366
ProbeTrack8	13	ProbeTrack	1415	SCS215b	733800.471558	733800.476743	8	0.013328	60	10	60-180	60	74	GapExp	0	67	2	0	1	target	1	613	13.328	13.293	13.366
ProbeTrack8	13	ProbeTrack	1415	SCS215b	733800.471558	733800.476807	8	0.013328	60	10	60-180	60	85	GapExp	0	68	2	6	1	target	1	573	13.328	13.293	13.363
ProbeTrack8	13	ProbeTrack	1415	SCS215b	733800.471558	733800.476872	8	0.013328	60	10	60-180	60	153	GapExp	0	69	2	6	0	distractor	1	493	13.328	13.293	13.363
ProbeTrack8	13	ProbeTrack	1415	SCS215b	733800.471558	733800.476949	8	0.013328	60	10	60-180	60	70	GapExp	0	70	2	96	0	distractor	1	627	13.328	13.293	13.363
ProbeTrack8	13	ProbeTrack	1415	SCS215b	733800.471558	733800.477027	8	0.013328	60	10	60-180	60	149	GapExp	0	71	2	96	1	target	1	627	13.328	13.293	13.363
ProbeTrack8	13	ProbeTrack	1415	SCS215b	733800.471558	733800.477117	8	0.013328	60	10	60-180	60	111	GapExp	0	72	2	6	0	distractor	1	680	13.328	13.293	13.363
ProbeTrack8	13	ProbeTrack	1415	SCS215b	733800.471558	733800.477188	8	0.013328	60	10	60-180	60	108	GapExp	0	73	2	96	0	distractor	1	733	13.328	13.292	13.365
ProbeTrack8	13	ProbeTrack	1415	SCS215b	733800.471558	733800.477275	8	0.013328	60	10	60-180	60	129	GapExp	0	74	2	3	1	target	1	627	13.328	13.293	13.363
ProbeTrack8	13	ProbeTrack	1415	SCS215b	733800.471558	733800.477348	8	0.013328	60	10	60-180	60	63	GapExp	0	75	2	0	0	distractor	1	733	13.328	13.293	13.363
ProbeTrack8	13	ProbeTrack	1415	SCS215b	733800.471558	733800.477412	8	0.013328	60	10	60-180	60	151	GapExp	0	76	2	96	1	target	1	427	13.328	13.293	13.363
ProbeTrack8	13	ProbeTrack	1415	SCS215b	733800.471558	733800.477501	8	0.013328	60	10	60-180	60	102	GapExp	0	77	2	96	1	target	1	413	13.328	13.293	13.365
ProbeTrack8	13	ProbeTrack	1415	SCS215b	733800.471558	733800.477579	8	0.013328	60	10	60-180	60	151	GapExp	0	78	2	3	0	target	0	427	13.328	13.293	13.363
ProbeTrack8	13	ProbeTrack	1415	SCS215b	733800.471558	733800.477653	8	0.013328	60	10	60-180	60	132	GapExp	0	79	2	3	0	distractor	1	507	13.328	13.292	13.363
ProbeTrack8	13	ProbeTrack	1415	SCS215b	733800.471558	733800.477724	8	0.013328	60	10	60-180	60	114	GapExp	0	80	2	6	0	distractor	1	547	13.328	13.293	13.363
ProbeTrack8	13	ProbeTrack	1415	SCS215b	733800.471558	733800.477793	8	0.013328	60	10	60-180	60	143	GapExp	0	81	2	96	0	distractor	1	587	13.328	13.293	13.365
ProbeTrack8	13	ProbeTrack	1415	SCS215b	733800.471558	733800.477881	8	0.013328	60	10	60-180	60	145	GapExp	0	82	2	3	0	distractor	1	440	13.328	13.293	13.363
ProbeTrack8	13	ProbeTrack	1415	SCS215b	733800.471558	733800.477964	8	0.013328	60	10	60-180	60	179	GapExp	0	83	2	0	1	distractor	0	387	13.328	13.293	13.363
ProbeTrack8	13	ProbeTrack	1415	SCS215b	733800.471558	733800.478040	8	0.013328	60	10	60-180	60	86	GapExp	0	84	2	96	1	target	1	507	13.328	13.293	13.363
ProbeTrack8	13	ProbeTrack	1415	SCS215b	733800.471558	733800.478119	8	0.013328	60	10	60-180	60	171	GapExp	0	85	2	0	0	target	0	720	13.328	13.293	13.367
ProbeTrack8	13	ProbeTrack	1415	SCS215b	733800.471558	733800.478199	8	0.013328	60	10	60-180	60	103	GapExp	0	86	2	6	0	distractor	1	587	13.328	13.293	13.363
ProbeTrack8	13	ProbeTrack	1415	SCS215b	733800.471558	733800.478267	8	0.013328	60	10	60-180	60	179	GapExp	0	87	2	3	1	target	1	680	13.328	13.293	13.363
ProbeTrack8	13	ProbeTrack	1415	SCS215b	733800.471558	733800.478355	8	0.013328	60	10	60-180	60	180	GapExp	0	88	2	6	1	target	1	680	13.328	13.293	13.363
ProbeTrack8	13	ProbeTrack	1415	SCS215b	733800.471558	733800.478435	8	0.013328	60	10	60-180	60	130	GapExp	0	89	2	96	0	distractor	1	747	13.328	13.293	13.363
ProbeTrack8	13	ProbeTrack	1415	SCS215b	733800.471558	733800.478527	8	0.013328	60	10	60-180	60	101	GapExp	0	90	2	0	1	target	1	587	13.328	13.293	13.365
ProbeTrack8	13	ProbeTrack	1415	SCS215b	733800.471558	733800.478594	8	0.013328	60	10	60-180	60	153	GapExp	0	91	2	6	1	target	1	440	13.328	13.293	13.364
ProbeTrack8	13	ProbeTrack	1415	SCS215b	733800.471558	733800.478669	8	0.013328	60	10	60-180	60	167	GapExp	0	92	2	3	0	distractor	1	613	13.328	13.293	13.363
ProbeTrack8	13	ProbeTrack	1415	SCS215b	733800.471558	733800.478746	8	0.013328	60	10	60-180	60	94	GapExp	0	93	2	6	1	distractor	0	400	13.328	13.293	13.363
ProbeTrack8	13	ProbeTrack	1415	SCS215b	733800.471558	733800.478816	8	0.013328	60	10	60-180	60	76	GapExp	0	94	2	3	1	target	1	453	13.328	13.292	13.363
ProbeTrack8	13	ProbeTrack	1415	SCS215b	733800.471558	733800.478877	8	0.013328	60	10	60-180	60	73	GapExp	0	95	2	96	1	target	1	440	13.328	13.293	13.363
ProbeTrack8	13	ProbeTrack	1415	SCS215b	733800.471558	733800.478953	8	0.013328	60	10	60-180	60	161	GapExp	0	96	2	3	1	target	1	547	13.328	13.293	13.363
ProbeTrack8	13	ProbeTrack	1415	SCS215b	733800.471558	733800.479033	8	0.013328	60	10	60-180	60	63	GapExp	0	97	2	0	1	target	1	493	13.328	13.293	13.363
ProbeTrack8	13	ProbeTrack	1415	SCS215b	733800.471558	733800.479095	8	0.013328	60	10	60-180	60	167	GapExp	0	98	2	0	0	target	0	507	13.328	13.293	13.363
ProbeTrack8	13	ProbeTrack	1415	SCS215b	733800.471558	733800.479172	8	0.013328	60	10	60-180	60	123	GapExp	0	99	2	96	0	distractor	1	640	13.328	13.293	13.363
ProbeTrack8	13	ProbeTrack	1415	SCS215b	733800.471558	733800.479259	8	0.013328	60	10	60-180	60	102	GapExp	0	100	2	0	1	target	1	507	13.328	13.293	13.363
ProbeTrack8	13	ProbeTrack	1415	SCS215b	733800.471558	733800.479327	8	0.013328	60	10	60-180	60	118	GapExp	0	101	2	0	1	target	1	427	13.328	13.293	13.363
ProbeTrack8	13	ProbeTrack	1415	SCS215b	733800.471558	733800.479395	8	0.013328	60	10	60-180	60	121	GapExp	0	102	2	6	1	target	1	387	13.328	13.293	13.363
ProbeTrack8	13	ProbeTrack	1415	SCS215b	733800.471558	733800.479465	8	0.013328	60	10	60-180	60	134	GapExp	0	103	2	96	0	distractor	1	680	13.328	13.293	13.363
ProbeTrack8	13	ProbeTrack	1415	SCS215b	733800.471558	733800.479553	8	0.013328	60	10	60-180	60	104	GapExp	0	104	2	96	0	distractor	1	560	13.328	13.293	13.363
ProbeTrack8	13	ProbeTrack	1415	SCS215b	733800.471558	733800.479637	8	0.013328	60	10	60-180	60	151	GapExp	0	105	2	3	1	target	1	613	13.328	13.293	13.363
ProbeTrack8	13	ProbeTrack	1415	SCS215b	733800.480086	733800.480291	8	0.013328	60	10	60-180	60	151	GapPrac	1	1	4	0	1	target	1	627	13.328	13.293	13.363
ProbeTrack8	13	ProbeTrack	1415	SCS215b	733800.480086	733800.480380	8	0.013328	60	10	60-180	60	174	GapPrac	1	2	4	0	0	distractor	1	1040	13.328	13.293	13.364
ProbeTrack8	13	ProbeTrack	1415	SCS215b	733800.480086	733800.480468	8	0.013328	60	10	60-180	60	125	GapPrac	1	3	4	6	1	distractor	0	600	13.328	13.293	13.363
ProbeTrack8	13	ProbeTrack	1415	SCS215b	733800.480086	733800.480543	8	0.013328	60	10	60-180	60	117	GapPrac	1	4	4	3	0	distractor	1	720	13.328	13.289	13.367
ProbeTrack8	13	ProbeTrack	1415	SCS215b	733800.480086	733800.480612	8	0.013328	60	10	60-180	60	98	GapPrac	1	5	4	3	0	target	0	573	13.328	13.293	13.363
ProbeTrack8	13	ProbeTrack	1415	SCS215b	733800.480086	733800.480680	8	0.013328	60	10	60-180	60	152	GapPrac	1	6	4	6	0	distractor	1	707	13.328	13.293	13.363
ProbeTrack8	13	ProbeTrack	1415	SCS215b	733800.480086	733800.480757	8	0.013328	60	10	60-180	60	117	GapPrac	1	7	4	0	0	distractor	1	720	13.328	13.292	13.363
ProbeTrack8	13	ProbeTrack	1415	SCS215b	733800.480086	733800.480831	8	0.013328	60	10	60-180	60	107	GapPrac	1	8	4	6	1	target	1	467	13.328	13.293	13.363
ProbeTrack8	13	ProbeTrack	1415	SCS215b	733800.480086	733800.480900	8	0.013328	60	10	60-180	60	155	GapPrac	1	9	4	96	0	distractor	1	707	13.328	13.293	13.363
ProbeTrack8	13	ProbeTrack	1415	SCS215b	733800.480086	733800.480992	8	0.013328	60	10	60-180	60	158	GapPrac	1	10	4	96	0	target	0	547	13.328	13.293	13.363
ProbeTrack8	13	ProbeTrack	1415	SCS215b	733800.480086	733800.481082	8	0.013328	60	10	60-180	60	66	GapPrac	1	11	4	0	1	target	1	667	13.328	13.293	13.363
ProbeTrack8	13	ProbeTrack	1415	SCS215b	733800.480086	733800.481145	8	0.013328	60	10	60-180	60	108	GapPrac	1	12	4	96	1	target	1	467	13.328	13.293	13.363
ProbeTrack8	13	ProbeTrack	1415	SCS215b	733800.480086	733800.481227	8	0.013328	60	10	60-180	60	138	GapPrac	1	13	4	3	0	target	0	493	13.328	13.293	13.363
ProbeTrack8	13	ProbeTrack	1415	SCS215b	733800.480086	733800.481300	8	0.013328	60	10	60-180	60	144	GapPrac	1	14	4	6	0	distractor	1	693	13.328	13.279	13.363
ProbeTrack8	13	ProbeTrack	1415	SCS215b	733800.480086	733800.481377	8	0.013328	60	10	60-180	60	83	GapPrac	1	15	4	3	1	target	1	400	13.328	13.293	13.363
ProbeTrack8	13	ProbeTrack	1415	SCS215b	733800.480086	733800.481443	8	0.013328	60	10	60-180	60	176	GapPrac	1	16	4	3	1	target	1	560	13.328	13.289	13.363
ProbeTrack8	13	ProbeTrack	1415	SCS215b	733800.480086	733800.481522	8	0.013328	60	10	60-180	60	116	GapPrac	1	17	4	0	0	distractor	1	600	13.328	13.293	13.363
ProbeTrack8	13	ProbeTrack	1415	SCS215b	733800.480086	733800.481592	8	0.013328	60	10	60-180	60	139	GapPrac	1	18	4	6	1	distractor	0	414	13.328	13.292	13.363
ProbeTrack8	13	ProbeTrack	1415	SCS215b	733800.480086	733800.481665	8	0.013328	60	10	60-180	60	123	GapPrac	1	19	4	0	1	target	1	507	13.328	13.293	13.363
ProbeTrack8	13	ProbeTrack	1415	SCS215b	733800.480086	733800.481739	8	0.013328	60	10	60-180	60	133	GapPrac	1	20	4	96	1	target	1	374	13.328	13.293	13.363
ProbeTrack8	13	ProbeTrack	1415	SCS215b	733800.482169	733800.482253	8	0.013327	60	10	60-180	60	161	GapExp	1	1	4	0	1	target	1	787	13.328	13.293	13.363
ProbeTrack8	13	ProbeTrack	1415	SCS215b	733800.482169	733800.482340	8	0.013327	60	10	60-180	60	126	GapExp	0	2	4	6	1	target	1	480	13.328	13.293	13.364
ProbeTrack8	13	ProbeTrack	1415	SCS215b	733800.482169	733800.482414	8	0.013327	60	10	60-180	60	178	GapExp	0	3	4	0	1	target	1	467	13.328	13.293	13.363
ProbeTrack8	13	ProbeTrack	1415	SCS215b	733800.482169	733800.482491	8	0.013327	60	10	60-180	60	121	GapExp	0	4	4	3	1	target	1	453	13.328	13.293	13.363
ProbeTrack8	13	ProbeTrack	1415	SCS215b	733800.482169	733800.482560	8	0.013327	60	10	60-180	60	138	GapExp	0	5	4	96	0	distractor	1	640	13.328	13.293	13.363
ProbeTrack8	13	ProbeTrack	1415	SCS215b	733800.482169	733800.482649	8	0.013327	60	10	60-180	60	69	GapExp	0	6	4	0	1	target	1	600	13.328	13.293	13.375
ProbeTrack8	13	ProbeTrack	1415	SCS215b	733800.482169	733800.482710	8	0.013327	60	10	60-180	60	167	GapExp	0	7	4	96	1	target	1	413	13.328	13.293	13.363
ProbeTrack8	13	ProbeTrack	1415	SCS215b	733800.482169	733800.482801	8	0.013327	60	10	60-180	60	82	GapExp	0	8	4	96	0	target	0	347	13.328	13.292	13.363
ProbeTrack8	13	ProbeTrack	1415	SCS215b	733800.482169	733800.482878	8	0.013327	60	10	60-180	60	119	GapExp	0	9	4	3	1	target	1	427	13.328	13.283	13.373
ProbeTrack8	13	ProbeTrack	1415	SCS215b	733800.482169	733800.482947	8	0.013327	60	10	60-180	60	77	GapExp	0	10	4	3	0	distractor	1	760	13.328	13.293	13.365
ProbeTrack8	13	ProbeTrack	1415	SCS215b	733800.482169	733800.483012	8	0.013327	60	10	60-180	60	151	GapExp	0	11	4	6	1	target	1	427	13.328	13.293	13.363
ProbeTrack8	13	ProbeTrack	1415	SCS215b	733800.482169	733800.483085	8	0.013327	60	10	60-180	60	161	GapExp	0	12	4	0	0	distractor	1	693	13.328	13.292	13.363
ProbeTrack8	13	ProbeTrack	1415	SCS215b	733800.482169	733800.483163	8	0.013327	60	10	60-180	60	127	GapExp	0	13	4	6	0	distractor	1	680	13.328	13.293	13.364
ProbeTrack8	13	ProbeTrack	1415	SCS215b	733800.482169	733800.483235	8	0.013327	60	10	60-180	60	141	GapExp	0	14	4	0	1	distractor	0	640	13.328	13.293	13.363
ProbeTrack8	13	ProbeTrack	1415	SCS215b	733800.482169	733800.483312	8	0.013327	60	10	60-180	60	98	GapExp	0	15	4	6	0	distractor	1	533	13.328	13.293	13.363
ProbeTrack8	13	ProbeTrack	1415	SCS215b	733800.482169	733800.483398	8	0.013327	60	10	60-180	60	71	GapExp	0	16	4	3	0	distractor	1	493	13.328	13.293	13.363
ProbeTrack8	13	ProbeTrack	1415	SCS215b	733800.482169	733800.483459	8	0.013327	60	10	60-180	60	81	GapExp	0	17	4	96	1	target	1	414	13.328	13.293	13.363
ProbeTrack8	13	ProbeTrack	1415	SCS215b	733800.482169	733800.483536	8	0.013327	60	10	60-180	60	116	GapExp	0	18	4	6	0	distractor	1	560	13.328	13.293	13.363
ProbeTrack8	13	ProbeTrack	1415	SCS215b	733800.482169	733800.483606	8	0.013327	60	10	60-180	60	157	GapExp	0	19	4	6	0	distractor	1	507	13.328	13.293	13.363
ProbeTrack8	13	ProbeTrack	1415	SCS215b	733800.482169	733800.483688	8	0.013327	60	10	60-180	60	173	GapExp	0	20	4	3	0	distractor	1	573	13.328	13.292	13.363
ProbeTrack8	13	ProbeTrack	1415	SCS215b	733800.482169	733800.483769	8	0.013327	60	10	60-180	60	174	GapExp	0	21	4	0	0	target	0	693	13.328	13.293	13.363
ProbeTrack8	13	ProbeTrack	1415	SCS215b	733800.482169	733800.483850	8	0.013327	60	10	60-180	60	61	GapExp	0	22	4	0	0	distractor	1	600	13.328	13.293	13.364
ProbeTrack8	13	ProbeTrack	1415	SCS215b	733800.482169	733800.483911	8	0.013327	60	10	60-180	60	126	GapExp	0	23	4	0	0	target	0	573	13.328	13.293	13.363
ProbeTrack8	13	ProbeTrack	1415	SCS215b	733800.482169	733800.483981	8	0.013327	60	10	60-180	60	146	GapExp	0	24	4	96	1	target	1	547	13.328	13.293	13.363
ProbeTrack8	13	ProbeTrack	1415	SCS215b	733800.482169	733800.484069	8	0.013327	60	10	60-180	60	141	GapExp	0	25	4	6	1	target	1	667	13.328	13.293	13.363
ProbeTrack8	13	ProbeTrack	1415	SCS215b	733800.482169	733800.484147	8	0.013327	60	10	60-180	60	157	GapExp	0	26	4	0	0	target	0	547	13.328	13.293	13.364
ProbeTrack8	13	ProbeTrack	1415	SCS215b	733800.482169	733800.484222	8	0.013327	60	10	60-180	60	158	GapExp	0	27	4	96	0	distractor	1	707	13.328	13.292	13.364
ProbeTrack8	13	ProbeTrack	1415	SCS215b	733800.482169	733800.484313	8	0.013327	60	10	60-180	60	92	GapExp	0	28	4	3	0	distractor	1	800	13.328	13.293	13.363
ProbeTrack8	13	ProbeTrack	1415	SCS215b	733800.482169	733800.484383	8	0.013327	60	10	60-180	60	147	GapExp	0	29	4	3	0	distractor	1	707	13.328	13.293	13.365
ProbeTrack8	13	ProbeTrack	1415	SCS215b	733800.482169	733800.484464	8	0.013327	60	10	60-180	60	96	GapExp	0	30	4	96	0	distractor	1	627	13.328	13.293	13.366
ProbeTrack8	13	ProbeTrack	1415	SCS215b	733800.482169	733800.484545	8	0.013327	60	10	60-180	60	152	GapExp	0	31	4	3	1	target	1	600	13.328	13.293	13.363
ProbeTrack8	13	ProbeTrack	1415	SCS215b	733800.482169	733800.484623	8	0.013327	60	10	60-180	60	119	GapExp	0	32	4	0	0	distractor	1	613	13.328	13.293	13.363
ProbeTrack8	13	ProbeTrack	1415	SCS215b	733800.482169	733800.484694	8	0.013327	60	10	60-180	60	98	GapExp	0	33	4	6	0	distractor	1	480	13.328	13.293	13.363
ProbeTrack8	13	ProbeTrack	1415	SCS215b	733800.482169	733800.484761	8	0.013327	60	10	60-180	60	163	GapExp	0	34	4	3	1	target	1	627	13.328	13.293	13.363
ProbeTrack8	13	ProbeTrack	1415	SCS215b	733800.482169	733800.484839	8	0.013327	60	10	60-180	60	80	GapExp	0	35	4	6	0	distractor	1	533	13.328	13.293	13.364
ProbeTrack8	13	ProbeTrack	1415	SCS215b	733800.482169	733800.484906	8	0.013327	60	10	60-180	60	147	GapExp	0	36	4	96	0	distractor	1	653	13.328	13.292	13.363
ProbeTrack8	13	ProbeTrack	1415	SCS215b	733800.482169	733800.484996	8	0.013327	60	10	60-180	60	68	GapExp	0	37	4	6	1	target	1	613	13.328	13.293	13.363
ProbeTrack8	13	ProbeTrack	1415	SCS215b	733800.482169	733800.485060	8	0.013327	60	10	60-180	60	82	GapExp	0	38	4	0	1	target	1	413	13.328	13.293	13.363
ProbeTrack8	13	ProbeTrack	1415	SCS215b	733800.482169	733800.485123	8	0.013327	60	10	60-180	60	163	GapExp	0	39	4	96	1	target	1	467	13.328	13.293	13.363
ProbeTrack8	13	ProbeTrack	1415	SCS215b	733800.482169	733800.485214	8	0.013327	60	10	60-180	60	104	GapExp	0	40	4	6	0	target	0	480	13.328	13.293	13.364
ProbeTrack8	13	ProbeTrack	1415	SCS215b	733800.482169	733800.485282	8	0.013327	60	10	60-180	60	134	GapExp	0	41	4	6	0	target	0	440	13.328	13.293	13.365
ProbeTrack8	13	ProbeTrack	1415	SCS215b	733800.482169	733800.485353	8	0.013327	60	10	60-180	60	178	GapExp	0	42	4	0	1	target	1	707	13.328	13.293	13.363
ProbeTrack8	13	ProbeTrack	1415	SCS215b	733800.482169	733800.485434	8	0.013327	60	10	60-180	60	74	GapExp	0	43	4	96	1	target	1	613	13.328	13.288	13.363
ProbeTrack8	13	ProbeTrack	1415	SCS215b	733800.482169	733800.485514	8	0.013327	60	10	60-180	60	87	GapExp	0	44	4	96	0	distractor	1	707	13.328	13.290	13.364
ProbeTrack8	13	ProbeTrack	1415	SCS215b	733800.482169	733800.485598	8	0.013327	60	10	60-180	60	171	GapExp	0	45	4	3	0	distractor	1	707	13.328	13.293	13.363
ProbeTrack8	13	ProbeTrack	1415	SCS215b	733800.482169	733800.485680	8	0.013327	60	10	60-180	60	173	GapExp	0	46	4	3	1	distractor	0	853	13.328	13.289	13.366
ProbeTrack8	13	ProbeTrack	1415	SCS215b	733800.482169	733800.485764	8	0.013327	60	10	60-180	60	75	GapExp	0	47	4	0	0	distractor	1	640	13.328	13.293	13.363
ProbeTrack8	13	ProbeTrack	1415	SCS215b	733800.482169	733800.485828	8	0.013327	60	10	60-180	60	176	GapExp	0	48	4	96	0	distractor	1	667	13.328	13.293	13.366
ProbeTrack8	13	ProbeTrack	1415	SCS215b	733800.482169	733800.485922	8	0.013327	60	10	60-180	60	122	GapExp	0	49	4	0	0	distractor	1	640	13.328	13.293	13.363
ProbeTrack8	13	ProbeTrack	1415	SCS215b	733800.482169	733800.485992	8	0.013327	60	10	60-180	60	128	GapExp	0	50	4	6	1	target	1	707	13.328	13.293	13.363
ProbeTrack8	13	ProbeTrack	1415	SCS215b	733800.482169	733800.486066	8	0.013327	60	10	60-180	60	69	GapExp	0	51	4	6	1	distractor	0	573	13.328	13.293	13.363
ProbeTrack8	13	ProbeTrack	1415	SCS215b	733800.482169	733800.486126	8	0.013327	60	10	60-180	60	80	GapExp	0	52	4	96	1	target	1	414	13.328	13.292	13.363
ProbeTrack8	13	ProbeTrack	1415	SCS215b	733800.482169	733800.486203	8	0.013327	60	10	60-180	60	139	GapExp	0	53	4	3	0	target	0	587	13.328	13.293	13.363
ProbeTrack8	13	ProbeTrack	1415	SCS215b	733800.482169	733800.486277	8	0.013327	60	10	60-180	60	79	GapExp	0	54	4	6	0	distractor	1	480	13.328	13.293	13.363
ProbeTrack8	13	ProbeTrack	1415	SCS215b	733800.482169	733800.486340	8	0.013327	60	10	60-180	60	65	GapExp	0	55	4	96	0	distractor	1	627	13.328	13.293	13.363
ProbeTrack8	13	ProbeTrack	1415	SCS215b	733800.482169	733800.486419	8	0.013327	60	10	60-180	60	128	GapExp	0	56	4	0	1	target	1	520	13.328	13.293	13.364
ProbeTrack8	13	ProbeTrack	1415	SCS215b	733800.482169	733800.486490	8	0.013327	60	10	60-180	60	126	GapExp	0	57	4	0	0	target	0	480	13.328	13.293	13.363
ProbeTrack8	13	ProbeTrack	1415	SCS215b	733800.482169	733800.486567	8	0.013327	60	10	60-180	60	180	GapExp	0	58	4	3	0	target	0	493	13.328	13.293	13.363
ProbeTrack8	13	ProbeTrack	1415	SCS215b	733800.482169	733800.486644	8	0.013327	60	10	60-180	60	161	GapExp	0	59	4	6	1	target	1	640	13.328	13.291	13.366
ProbeTrack8	13	ProbeTrack	1415	SCS215b	733800.482169	733800.486722	8	0.013327	60	10	60-180	60	105	GapExp	0	60	4	6	0	distractor	1	720	13.328	13.293	13.363
ProbeTrack8	13	ProbeTrack	1415	SCS215b	733800.482169	733800.486795	8	0.013327	60	10	60-180	60	71	GapExp	0	61	4	6	0	distractor	1	640	13.328	13.293	13.364
ProbeTrack8	13	ProbeTrack	1415	SCS215b	733800.482169	733800.486861	8	0.013327	60	10	60-180	60	151	GapExp	0	62	4	0	1	target	1	627	13.328	13.293	13.363
ProbeTrack8	13	ProbeTrack	1415	SCS215b	733800.482169	733800.486937	8	0.013327	60	10	60-180	60	129	GapExp	0	63	4	6	1	target	1	547	13.328	13.293	13.363
ProbeTrack8	13	ProbeTrack	1415	SCS215b	733800.482169	733800.487009	8	0.013327	60	10	60-180	60	97	GapExp	0	64	4	0	1	target	1	640	13.328	13.293	13.363
ProbeTrack8	13	ProbeTrack	1415	SCS215b	733800.482169	733800.487075	8	0.013327	60	10	60-180	60	174	GapExp	0	65	4	3	1	target	1	533	13.328	13.293	13.363
ProbeTrack8	13	ProbeTrack	1415	SCS215b	733800.482169	733800.487154	8	0.013327	60	10	60-180	60	125	GapExp	0	66	4	96	0	distractor	1	627	13.328	13.293	13.363
ProbeTrack8	13	ProbeTrack	1415	SCS215b	733800.482169	733800.487243	8	0.013327	60	10	60-180	60	93	GapExp	0	67	4	3	1	target	1	560	13.328	13.293	13.363
ProbeTrack8	13	ProbeTrack	1415	SCS215b	733800.482169	733800.487310	8	0.013327	60	10	60-180	60	113	GapExp	0	68	4	96	0	distractor	1	667	13.328	13.293	13.363
ProbeTrack8	13	ProbeTrack	1415	SCS215b	733800.482169	733800.487397	8	0.013327	60	10	60-180	60	61	GapExp	0	69	4	96	0	distractor	1	627	13.328	13.293	13.366
ProbeTrack8	13	ProbeTrack	1415	SCS215b	733800.482169	733800.487474	8	0.013327	60	10	60-180	60	176	GapExp	0	70	4	6	1	target	1	533	13.328	13.293	13.363
ProbeTrack8	13	ProbeTrack	1415	SCS215b	733800.482169	733800.487555	8	0.013327	60	10	60-180	60	101	GapExp	0	71	4	3	1	target	1	560	13.328	13.293	13.363
ProbeTrack8	13	ProbeTrack	1415	SCS215b	733800.482169	733800.487623	8	0.013327	60	10	60-180	60	157	GapExp	0	72	4	0	0	target	0	560	13.328	13.293	13.363
ProbeTrack8	13	ProbeTrack	1415	SCS215b	733800.482169	733800.487700	8	0.013327	60	10	60-180	60	166	GapExp	0	73	4	96	1	target	1	640	13.328	13.289	13.364
ProbeTrack8	13	ProbeTrack	1415	SCS215b	733800.482169	733800.487793	8	0.013327	60	10	60-180	60	85	GapExp	0	74	4	3	1	target	1	480	13.328	13.293	13.363
ProbeTrack8	13	ProbeTrack	1415	SCS215b	733800.482169	733800.487858	8	0.013327	60	10	60-180	60	163	GapExp	0	75	4	96	1	target	1	454	13.328	13.292	13.363
ProbeTrack8	13	ProbeTrack	1415	SCS215b	733800.482169	733800.487950	8	0.013327	60	10	60-180	60	87	GapExp	0	76	4	3	0	distractor	1	827	13.328	13.293	13.363
ProbeTrack8	13	ProbeTrack	1415	SCS215b	733800.482169	733800.488018	8	0.013327	60	10	60-180	60	157	GapExp	0	77	4	6	0	distractor	1	614	13.328	13.293	13.363
ProbeTrack8	13	ProbeTrack	1415	SCS215b	733800.482169	733800.488095	8	0.013327	60	10	60-180	60	133	GapExp	0	78	4	96	0	distractor	1	760	13.328	13.293	13.363
ProbeTrack8	13	ProbeTrack	1415	SCS215b	733800.482169	733800.488184	8	0.013327	60	10	60-180	60	157	GapExp	0	79	4	3	0	distractor	1	653	13.328	13.293	13.363
ProbeTrack8	13	ProbeTrack	1415	SCS215b	733800.482169	733800.488261	8	0.013327	60	10	60-180	60	179	GapExp	0	80	4	3	1	target	1	827	13.328	13.293	13.363
ProbeTrack8	13	ProbeTrack	1415	SCS215b	733800.482169	733800.488343	8	0.013327	60	10	60-180	60	78	GapExp	0	81	4	6	1	target	1	440	13.328	13.292	13.366
ProbeTrack8	13	ProbeTrack	1415	SCS215b	733800.482169	733800.488412	8	0.013327	60	10	60-180	60	141	GapExp	0	82	4	0	0	distractor	1	987	13.328	13.293	13.363
ProbeTrack8	13	ProbeTrack	1415	SCS215b	733800.482169	733800.488562	8	0.013327	60	10	60-180	60	171	GapExp	0	83	4	6	1	target	1	440	13.328	13.290	13.363
ProbeTrack8	13	ProbeTrack	1415	SCS215b	733800.482169	733800.488642	8	0.013327	60	10	60-180	60	62	GapExp	0	84	4	96	0	distractor	1	693	13.328	13.293	13.363
ProbeTrack8	13	ProbeTrack	1415	SCS215b	733800.482169	733800.488720	8	0.013327	60	10	60-180	60	166	GapExp	0	85	4	3	0	distractor	1	533	13.328	13.293	13.363
ProbeTrack8	13	ProbeTrack	1415	SCS215b	733800.482169	733800.488798	8	0.013327	60	10	60-180	60	82	GapExp	0	86	4	3	1	target	1	493	13.328	13.293	13.363
ProbeTrack8	13	ProbeTrack	1415	SCS215b	733800.482169	733800.488862	8	0.013327	60	10	60-180	60	117	GapExp	0	87	4	3	1	target	1	453	13.328	13.293	13.365
ProbeTrack8	13	ProbeTrack	1415	SCS215b	733800.482169	733800.488928	8	0.013327	60	10	60-180	60	135	GapExp	0	88	4	6	1	target	1	413	13.328	13.293	13.367
ProbeTrack8	13	ProbeTrack	1415	SCS215b	733800.482169	733800.488999	8	0.013327	60	10	60-180	60	107	GapExp	0	89	4	96	1	target	1	933	13.328	13.289	13.367
ProbeTrack8	13	ProbeTrack	1415	SCS215b	733800.482169	733800.489087	8	0.013327	60	10	60-180	60	147	GapExp	0	90	4	6	0	target	0	480	13.328	13.293	13.363
ProbeTrack8	13	ProbeTrack	1415	SCS215b	733800.482169	733800.489161	8	0.013327	60	10	60-180	60	154	GapExp	0	91	4	0	1	target	1	560	13.328	13.293	13.363
ProbeTrack8	13	ProbeTrack	1415	SCS215b	733800.482169	733800.489236	8	0.013327	60	10	60-180	60	139	GapExp	0	92	4	96	1	target	1	733	13.328	13.293	13.363
ProbeTrack8	13	ProbeTrack	1415	SCS215b	733800.482169	733800.489326	8	0.013327	60	10	60-180	60	87	GapExp	0	93	4	96	1	target	1	454	13.328	13.290	13.363
ProbeTrack8	13	ProbeTrack	1415	SCS215b	733800.482169	733800.489402	8	0.013327	60	10	60-180	60	132	GapExp	0	94	4	0	1	target	1	573	13.328	13.293	13.363
ProbeTrack8	13	ProbeTrack	1415	SCS215b	733800.482169	733800.489475	8	0.013327	60	10	60-180	60	99	GapExp	0	95	4	96	1	target	1	720	13.328	13.293	13.363
ProbeTrack8	13	ProbeTrack	1415	SCS215b	733800.482169	733800.489558	8	0.013327	60	10	60-180	60	99	GapExp	0	96	4	0	1	target	1	480	13.328	13.293	13.363
ProbeTrack8	13	ProbeTrack	1415	SCS215b	733800.482169	733800.489625	8	0.013327	60	10	60-180	60	153	GapExp	0	97	4	0	1	target	1	387	13.328	13.293	13.367
ProbeTrack8	13	ProbeTrack	1415	SCS215b	733800.482169	733800.489697	8	0.013327	60	10	60-180	60	172	GapExp	0	98	4	0	1	target	1	400	13.328	13.293	13.364
ProbeTrack8	13	ProbeTrack	1415	SCS215b	733800.482169	733800.489775	8	0.013327	60	10	60-180	60	79	GapExp	0	99	4	6	1	target	1	427	13.328	13.293	13.363
ProbeTrack8	13	ProbeTrack	1415	SCS215b	733800.482169	733800.489839	8	0.013327	60	10	60-180	60	147	GapExp	0	100	4	3	0	target	0	480	13.328	13.293	13.363
ProbeTrack8	13	ProbeTrack	1415	SCS215b	733800.482169	733800.489912	8	0.013327	60	10	60-180	60	94	GapExp	0	101	4	96	1	target	1	453	13.328	13.293	13.364
ProbeTrack8	13	ProbeTrack	1415	SCS215b	733800.482169	733800.489994	8	0.013327	60	10	60-180	60	171	GapExp	0	102	4	3	0	distractor	1	533	13.328	13.293	13.363
ProbeTrack8	13	ProbeTrack	1415	SCS215b	733800.482169	733800.490072	8	0.013327	60	10	60-180	60	70	GapExp	0	103	4	3	1	target	1	547	13.328	13.293	13.363
ProbeTrack8	13	ProbeTrack	1415	SCS215b	733800.482169	733800.490135	8	0.013327	60	10	60-180	60	74	GapExp	0	104	4	0	0	target	0	547	13.328	13.292	13.363
ProbeTrack8	13	ProbeTrack	1415	SCS215b	733800.482169	733800.490197	8	0.013327	60	10	60-180	60	176	GapExp	0	105	4	0	0	distractor	1	640	13.328	13.289	13.363
