exp	sub	code	rev	comp	runtime	trialtime	nstim	refreshdur	cuedur	gapdur	gapOnsetRange	durPostProbe	gapOnsetTime	blocktype	prac	trial	ntargets	soa	probeTarget	resp	acc	rt	meanFrameDur	minFrameDur	maxFrameDur
ProbeTrack8	5	ProbeTrack	1415	SCS215b	733745.512771	733745.513341	8	0.013328	60	0	60-180	60	134	NoGap	1	1	4	6	0	32	-3	8130	13.328	13.293	13.363
ProbeTrack8	5	ProbeTrack	1415	SCS215b	733745.512771	733745.513587	8	0.013328	60	0	60-180	60	161	NoGap	1	2	4	0	1	target	1	334	13.328	13.293	13.363
ProbeTrack8	5	ProbeTrack	1415	SCS215b	733745.512771	733745.513698	8	0.013328	60	0	60-180	60	89	NoGap	1	3	4	96	1	target	1	267	13.328	13.293	13.363
ProbeTrack8	5	ProbeTrack	1415	SCS215b	733745.512771	733745.513810	8	0.013328	60	0	60-180	60	113	NoGap	1	4	4	6	1	target	1	320	13.328	13.293	13.363
ProbeTrack8	5	ProbeTrack	1415	SCS215b	733745.512771	733745.513900	8	0.013328	60	0	60-180	60	131	NoGap	1	5	4	6	1	target	1	240	13.328	13.293	13.363
ProbeTrack8	5	ProbeTrack	1415	SCS215b	733745.512771	733745.513969	8	0.013328	60	0	60-180	60	128	NoGap	1	6	4	0	1	target	1	227	13.328	13.293	13.363
ProbeTrack8	5	ProbeTrack	1415	SCS215b	733745.512771	733745.514046	8	0.013328	60	0	60-180	60	135	NoGap	1	7	4	0	0	target	0	227	13.328	13.293	13.362
ProbeTrack8	5	ProbeTrack	1415	SCS215b	733745.512771	733745.514119	8	0.013328	60	0	60-180	60	94	NoGap	1	8	4	96	0	target	0	360	13.328	13.293	13.369
ProbeTrack8	5	ProbeTrack	1415	SCS215b	733745.512771	733745.514199	8	0.013328	60	0	60-180	60	89	NoGap	1	9	4	3	1	target	1	613	13.328	13.293	13.363
ProbeTrack8	5	ProbeTrack	1415	SCS215b	733745.512771	733745.514281	8	0.013328	60	0	60-180	60	106	NoGap	1	10	4	3	0	target	0	400	13.328	13.293	13.363
ProbeTrack8	5	ProbeTrack	1415	SCS215b	733745.512771	733745.514349	8	0.013328	60	0	60-180	60	143	NoGap	1	11	4	96	1	32	-3	2199	13.328	13.293	13.363
ProbeTrack8	5	ProbeTrack	1415	SCS215b	733745.512771	733745.514462	8	0.013328	60	0	60-180	60	81	NoGap	1	12	4	3	0	32	-3	3492	13.328	13.290	13.366
ProbeTrack8	5	ProbeTrack	1415	SCS215b	733745.512771	733745.514558	8	0.013328	60	0	60-180	60	163	NoGap	1	13	4	0	0	target	0	254	13.328	13.293	13.363
ProbeTrack8	5	ProbeTrack	1415	SCS215b	733745.512771	733745.514637	8	0.013328	60	0	60-180	60	144	NoGap	1	14	4	6	1	target	1	827	13.328	13.293	13.364
ProbeTrack8	5	ProbeTrack	1415	SCS215b	733745.512771	733745.514715	8	0.013328	60	0	60-180	60	77	NoGap	1	15	4	3	0	target	0	627	13.328	13.293	13.363
ProbeTrack8	5	ProbeTrack	1415	SCS215b	733745.512771	733745.514780	8	0.013328	60	0	60-180	60	119	NoGap	1	16	4	96	0	target	0	400	13.328	13.293	13.363
ProbeTrack8	5	ProbeTrack	1415	SCS215b	733745.512771	733745.514865	8	0.013328	60	0	60-180	60	127	NoGap	1	17	4	6	1	distractor	0	707	13.328	13.293	13.363
ProbeTrack8	5	ProbeTrack	1415	SCS215b	733745.512771	733745.514942	8	0.013328	60	0	60-180	60	160	NoGap	1	18	4	6	1	target	1	427	13.328	13.293	13.363
ProbeTrack8	5	ProbeTrack	1415	SCS215b	733745.512771	733745.515021	8	0.013328	60	0	60-180	60	134	NoGap	1	19	4	96	0	distractor	1	427	13.328	13.293	13.363
ProbeTrack8	5	ProbeTrack	1415	SCS215b	733745.512771	733745.515106	8	0.013328	60	0	60-180	60	127	NoGap	1	20	4	0	0	distractor	1	454	13.328	13.293	13.364
ProbeTrack8	5	ProbeTrack	1415	SCS215b	733745.512771	733745.515173	8	0.013328	60	0	60-180	60	138	NoGap	1	21	4	6	0	distractor	1	493	13.328	13.293	13.363
ProbeTrack8	5	ProbeTrack	1415	SCS215b	733745.512771	733745.515244	8	0.013328	60	0	60-180	60	126	NoGap	1	22	4	6	1	distractor	0	493	13.328	13.293	13.363
ProbeTrack8	5	ProbeTrack	1415	SCS215b	733745.512771	733745.515316	8	0.013328	60	0	60-180	60	120	NoGap	1	23	4	6	0	target	0	800	13.328	13.293	13.363
ProbeTrack8	5	ProbeTrack	1415	SCS215b	733745.512771	733745.515394	8	0.013328	60	0	60-180	60	143	NoGap	1	24	4	0	0	distractor	1	547	13.328	13.293	13.363
ProbeTrack8	5	ProbeTrack	1415	SCS215b	733745.512771	733745.515466	8	0.013328	60	0	60-180	60	102	NoGap	1	25	4	3	1	distractor	0	627	13.328	13.288	13.363
ProbeTrack8	5	ProbeTrack	1415	SCS215b	733745.512771	733745.515533	8	0.013328	60	0	60-180	60	107	NoGap	1	26	4	6	0	target	0	520	13.328	13.288	13.363
ProbeTrack8	5	ProbeTrack	1415	SCS215b	733745.512771	733745.515600	8	0.013328	60	0	60-180	60	121	NoGap	1	27	4	6	1	distractor	0	680	13.328	13.293	13.365
ProbeTrack8	5	ProbeTrack	1415	SCS215b	733745.512771	733745.515670	8	0.013328	60	0	60-180	60	121	NoGap	1	28	4	0	0	target	0	507	13.328	13.293	13.364
ProbeTrack8	5	ProbeTrack	1415	SCS215b	733745.512771	733745.515737	8	0.013328	60	0	60-180	60	94	NoGap	1	29	4	3	0	32	-3	1839	13.328	13.293	13.363
ProbeTrack8	5	ProbeTrack	1415	SCS215b	733745.512771	733745.515820	8	0.013328	60	0	60-180	60	145	NoGap	1	30	4	0	1	target	1	454	13.328	13.293	13.363
ProbeTrack8	5	ProbeTrack	1415	SCS215b	733745.512771	733745.515939	8	0.013328	60	0	60-180	60	143	NoGap	1	31	4	96	0	distractor	1	693	13.328	13.293	13.363
ProbeTrack8	5	ProbeTrack	1415	SCS215b	733745.512771	733745.516027	8	0.013328	60	0	60-180	60	105	NoGap	1	32	4	96	0	32	-3	2999	13.328	13.289	13.367
ProbeTrack8	5	ProbeTrack	1415	SCS215b	733745.512771	733745.516137	8	0.013328	60	0	60-180	60	167	NoGap	1	33	4	3	1	distractor	0	560	13.328	13.293	13.363
ProbeTrack8	5	ProbeTrack	1415	SCS215b	733745.512771	733745.516220	8	0.013328	60	0	60-180	60	174	NoGap	1	34	4	96	1	distractor	0	707	13.328	13.293	13.363
ProbeTrack8	5	ProbeTrack	1415	SCS215b	733745.512771	733745.516313	8	0.013328	60	0	60-180	60	158	NoGap	1	35	4	0	1	distractor	0	600	13.328	13.293	13.363
ProbeTrack8	5	ProbeTrack	1415	SCS215b	733745.512771	733745.516388	8	0.013328	60	0	60-180	60	145	NoGap	1	36	4	3	1	target	1	613	13.328	13.293	13.363
ProbeTrack8	5	ProbeTrack	1415	SCS215b	733745.512771	733745.516460	8	0.013328	60	0	60-180	60	151	NoGap	1	37	4	0	0	distractor	1	680	13.328	13.293	13.363
ProbeTrack8	5	ProbeTrack	1415	SCS215b	733745.512771	733745.516533	8	0.013328	60	0	60-180	60	116	NoGap	1	38	4	3	1	distractor	0	667	13.328	13.293	13.363
ProbeTrack8	5	ProbeTrack	1415	SCS215b	733745.512771	733745.516607	8	0.013328	60	0	60-180	60	122	NoGap	1	39	4	3	0	target	0	667	13.328	13.293	13.363
ProbeTrack8	5	ProbeTrack	1415	SCS215b	733745.512771	733745.516676	8	0.013328	60	0	60-180	60	127	NoGap	1	40	4	96	1	target	1	613	13.328	13.293	13.363
ProbeTrack8	5	ProbeTrack	1415	SCS215b	733745.512771	733745.516762	8	0.013328	60	0	60-180	60	102	NoGap	1	41	4	3	1	distractor	0	853	13.328	13.293	13.365
ProbeTrack8	5	ProbeTrack	1415	SCS215b	733745.512771	733745.516831	8	0.013328	60	0	60-180	60	94	NoGap	1	42	4	96	0	distractor	1	560	13.328	13.293	13.366
ProbeTrack8	5	ProbeTrack	1415	SCS215b	733745.512771	733745.516910	8	0.013328	60	0	60-180	60	67	NoGap	1	43	4	96	1	target	1	640	13.328	13.292	13.364
ProbeTrack8	5	ProbeTrack	1415	SCS215b	733745.512771	733745.516987	8	0.013328	60	0	60-180	60	154	NoGap	1	44	4	6	0	target	0	693	13.328	13.293	13.363
ProbeTrack8	5	ProbeTrack	1415	SCS215b	733745.512771	733745.517067	8	0.013328	60	0	60-180	60	169	NoGap	1	45	4	96	1	distractor	0	440	13.328	13.289	13.363
ProbeTrack8	5	ProbeTrack	1415	SCS215b	733745.512771	733745.517157	8	0.013328	60	0	60-180	60	82	NoGap	1	46	4	6	0	target	0	613	13.328	13.293	13.363
ProbeTrack8	5	ProbeTrack	1415	SCS215b	733745.512771	733745.517226	8	0.013328	60	0	60-180	60	180	NoGap	1	47	4	0	1	distractor	0	507	13.328	13.293	13.363
ProbeTrack8	5	ProbeTrack	1415	SCS215b	733745.512771	733745.517306	8	0.013328	60	0	60-180	60	108	NoGap	1	48	4	0	1	target	1	787	13.328	13.293	13.363
ProbeTrack8	5	ProbeTrack	1415	SCS215b	733745.512771	733745.517376	8	0.013328	60	0	60-180	60	66	NoGap	1	49	4	3	0	distractor	1	653	13.328	13.293	13.363
ProbeTrack8	5	ProbeTrack	1415	SCS215b	733745.512771	733745.517437	8	0.013328	60	0	60-180	60	171	NoGap	1	50	4	0	1	distractor	0	493	13.328	13.293	13.363
ProbeTrack8	5	ProbeTrack	1415	SCS215b	733745.518619	733745.518969	8	0.013328	60	10	60-180	60	117	GapPrac	1	1	2	0	0	target	0	747	13.328	13.289	13.363
ProbeTrack8	5	ProbeTrack	1415	SCS215b	733745.518619	733745.519064	8	0.013328	60	10	60-180	60	123	GapPrac	1	2	2	3	1	distractor	0	667	13.328	13.293	13.363
ProbeTrack8	5	ProbeTrack	1415	SCS215b	733745.518619	733745.519136	8	0.013328	60	10	60-180	60	157	GapPrac	1	3	2	96	0	distractor	1	920	13.328	13.293	13.363
ProbeTrack8	5	ProbeTrack	1415	SCS215b	733745.518619	733745.519231	8	0.013328	60	10	60-180	60	83	GapPrac	1	4	2	3	0	distractor	1	587	13.328	13.290	13.363
ProbeTrack8	5	ProbeTrack	1415	SCS215b	733745.518619	733745.519295	8	0.013328	60	10	60-180	60	66	GapPrac	1	5	2	96	0	distractor	1	960	13.328	13.293	13.363
ProbeTrack8	5	ProbeTrack	1415	SCS215b	733745.518619	733745.519376	8	0.013328	60	10	60-180	60	174	GapPrac	1	6	2	3	0	target	0	787	13.328	13.293	13.364
ProbeTrack8	5	ProbeTrack	1415	SCS215b	733745.518619	733745.519457	8	0.013328	60	10	60-180	60	104	GapPrac	1	7	2	3	1	distractor	0	560	13.328	13.293	13.363
ProbeTrack8	5	ProbeTrack	1415	SCS215b	733745.518619	733745.519523	8	0.013328	60	10	60-180	60	96	GapPrac	1	8	2	6	0	target	0	880	13.328	13.293	13.363
ProbeTrack8	5	ProbeTrack	1415	SCS215b	733745.518619	733745.519593	8	0.013328	60	10	60-180	60	133	GapPrac	1	9	2	3	1	distractor	0	533	13.328	13.292	13.364
ProbeTrack8	5	ProbeTrack	1415	SCS215b	733745.518619	733745.519667	8	0.013328	60	10	60-180	60	170	GapPrac	1	10	2	3	0	target	0	667	13.328	13.293	13.363
ProbeTrack8	5	ProbeTrack	1415	SCS215b	733745.518619	733745.519749	8	0.013328	60	10	60-180	60	66	GapPrac	1	11	2	6	1	target	1	840	13.328	13.293	13.363
ProbeTrack8	5	ProbeTrack	1415	SCS215b	733745.518619	733745.519817	8	0.013328	60	10	60-180	60	96	GapPrac	1	12	2	0	0	distractor	1	587	13.328	13.293	13.363
ProbeTrack8	5	ProbeTrack	1415	SCS215b	733745.518619	733745.519882	8	0.013328	60	10	60-180	60	101	GapPrac	1	13	2	6	1	target	1	667	13.328	13.293	13.363
ProbeTrack8	5	ProbeTrack	1415	SCS215b	733745.518619	733745.519969	8	0.013328	60	10	60-180	60	95	GapPrac	1	14	2	96	1	target	1	773	13.328	13.293	13.363
ProbeTrack8	5	ProbeTrack	1415	SCS215b	733745.518619	733745.520052	8	0.013328	60	10	60-180	60	117	GapPrac	1	15	2	6	0	distractor	1	560	13.328	13.292	13.363
ProbeTrack8	5	ProbeTrack	1415	SCS215b	733745.518619	733745.520121	8	0.013328	60	10	60-180	60	94	GapPrac	1	16	2	96	0	distractor	1	840	13.328	13.293	13.363
ProbeTrack8	5	ProbeTrack	1415	SCS215b	733745.518619	733745.520204	8	0.013328	60	10	60-180	60	137	GapPrac	1	17	2	0	1	target	1	520	13.328	13.289	13.366
ProbeTrack8	5	ProbeTrack	1415	SCS215b	733745.518619	733745.520277	8	0.013328	60	10	60-180	60	61	GapPrac	1	18	2	96	1	distractor	0	800	13.328	13.289	13.363
ProbeTrack8	5	ProbeTrack	1415	SCS215b	733745.518619	733745.520354	8	0.013328	60	10	60-180	60	124	GapPrac	1	19	2	0	0	target	0	653	13.328	13.293	13.363
ProbeTrack8	5	ProbeTrack	1415	SCS215b	733745.518619	733745.520425	8	0.013328	60	10	60-180	60	164	GapPrac	1	20	2	0	1	target	1	453	13.328	13.293	13.363
ProbeTrack8	5	ProbeTrack	1415	SCS215b	733745.521617	733745.521673	8	0.013328	60	10	60-180	60	166	GapPrac	1	1	2	0	1	distractor	0	480	13.328	13.293	13.363
ProbeTrack8	5	ProbeTrack	1415	SCS215b	733745.521617	733745.521773	8	0.013328	60	10	60-180	60	121	GapPrac	1	2	2	3	0	distractor	1	640	13.328	13.293	13.363
ProbeTrack8	5	ProbeTrack	1415	SCS215b	733745.521617	733745.521843	8	0.013328	60	10	60-180	60	124	GapPrac	1	3	2	6	1	target	1	413	13.328	13.293	13.363
ProbeTrack8	5	ProbeTrack	1415	SCS215b	733745.521617	733745.521912	8	0.013328	60	10	60-180	60	180	GapPrac	1	4	2	96	1	target	1	680	13.328	13.292	13.363
ProbeTrack8	5	ProbeTrack	1415	SCS215b	733745.521617	733745.522007	8	0.013328	60	10	60-180	60	178	GapPrac	1	5	2	3	0	target	0	520	13.328	13.293	13.363
ProbeTrack8	5	ProbeTrack	1415	SCS215b	733745.521617	733745.522087	8	0.013328	60	10	60-180	60	162	GapPrac	1	6	2	96	0	distractor	1	653	13.328	13.293	13.363
ProbeTrack8	5	ProbeTrack	1415	SCS215b	733745.521617	733745.522181	8	0.013328	60	10	60-180	60	172	GapPrac	1	7	2	6	0	target	0	680	13.328	13.293	13.363
ProbeTrack8	5	ProbeTrack	1415	SCS215b	733745.521617	733745.522260	8	0.013328	60	10	60-180	60	164	GapPrac	1	8	2	3	1	distractor	0	587	13.328	13.293	13.364
ProbeTrack8	5	ProbeTrack	1415	SCS215b	733745.521617	733745.522335	8	0.013328	60	10	60-180	60	66	GapPrac	1	9	2	96	1	target	1	400	13.328	13.293	13.363
ProbeTrack8	5	ProbeTrack	1415	SCS215b	733745.521617	733745.522419	8	0.013328	60	10	60-180	60	178	GapPrac	1	10	2	0	0	distractor	1	747	13.328	13.293	13.363
ProbeTrack8	5	ProbeTrack	1415	SCS215b	733745.521617	733745.522499	8	0.013328	60	10	60-180	60	86	GapPrac	1	11	2	6	1	target	1	467	13.328	13.237	13.420
ProbeTrack8	5	ProbeTrack	1415	SCS215b	733745.521617	733745.522562	8	0.013328	60	10	60-180	60	167	GapPrac	1	12	2	3	0	distractor	1	907	13.328	13.293	13.363
ProbeTrack8	5	ProbeTrack	1415	SCS215b	733745.521617	733745.522643	8	0.013328	60	10	60-180	60	168	GapPrac	1	13	2	0	1	target	1	587	13.328	13.293	13.363
ProbeTrack8	5	ProbeTrack	1415	SCS215b	733745.521617	733745.522720	8	0.013328	60	10	60-180	60	71	GapPrac	1	14	2	3	1	target	1	680	13.328	13.293	13.366
ProbeTrack8	5	ProbeTrack	1415	SCS215b	733745.521617	733745.522786	8	0.013328	60	10	60-180	60	99	GapPrac	1	15	2	96	0	distractor	1	747	13.328	13.293	13.364
ProbeTrack8	5	ProbeTrack	1415	SCS215b	733745.521617	733745.522869	8	0.013328	60	10	60-180	60	143	GapPrac	1	16	2	96	1	distractor	0	667	13.328	13.292	13.363
ProbeTrack8	5	ProbeTrack	1415	SCS215b	733745.521617	733745.522958	8	0.013328	60	10	60-180	60	91	GapPrac	1	17	2	6	1	target	1	800	13.328	13.293	13.363
ProbeTrack8	5	ProbeTrack	1415	SCS215b	733745.521617	733745.523030	8	0.013328	60	10	60-180	60	82	GapPrac	1	18	2	0	1	target	1	454	13.328	13.293	13.363
ProbeTrack8	5	ProbeTrack	1415	SCS215b	733745.521617	733745.523092	8	0.013328	60	10	60-180	60	78	GapPrac	1	19	2	0	0	target	0	480	13.328	13.293	13.363
ProbeTrack8	5	ProbeTrack	1415	SCS215b	733745.521617	733745.523154	8	0.013328	60	10	60-180	60	171	GapPrac	1	20	2	6	0	distractor	1	813	13.328	13.292	13.363
ProbeTrack8	5	ProbeTrack	1415	SCS215b	733745.524616	733745.524717	8	0.013322	60	10	60-180	60	161	GapExp	1	1	2	0	1	target	1	627	13.328	13.293	13.365
ProbeTrack8	5	ProbeTrack	1415	SCS215b	733745.524616	733745.524827	8	0.013322	60	10	60-180	60	138	GapExp	1	2	2	96	0	distractor	1	653	13.328	13.293	13.363
ProbeTrack8	5	ProbeTrack	1415	SCS215b	733745.524616	733745.524917	8	0.013322	60	10	60-180	60	171	GapExp	1	3	2	96	1	distractor	0	547	13.328	13.293	13.363
ProbeTrack8	5	ProbeTrack	1415	SCS215b	733745.524616	733745.525009	8	0.013322	60	10	60-180	60	103	GapExp	1	4	2	6	0	target	0	600	13.328	13.293	13.363
ProbeTrack8	5	ProbeTrack	1415	SCS215b	733745.524616	733745.525075	8	0.013322	60	10	60-180	60	84	GapExp	1	5	2	3	0	target	0	693	13.328	13.293	13.364
ProbeTrack8	5	ProbeTrack	1415	SCS215b	733745.524616	733745.525140	8	0.013322	60	10	60-180	60	149	GapExp	0	6	2	0	0	distractor	1	720	13.328	13.293	13.363
ProbeTrack8	5	ProbeTrack	1415	SCS215b	733745.524616	733745.525214	8	0.013322	60	10	60-180	60	153	GapExp	0	7	2	96	1	target	1	667	13.328	13.292	13.363
ProbeTrack8	5	ProbeTrack	1415	SCS215b	733745.524616	733745.525309	8	0.013322	60	10	60-180	60	149	GapExp	0	8	2	3	1	target	1	747	13.328	13.293	13.363
ProbeTrack8	5	ProbeTrack	1415	SCS215b	733745.524616	733745.525385	8	0.013322	60	10	60-180	60	137	GapExp	0	9	2	0	1	target	1	640	13.328	13.293	13.363
ProbeTrack8	5	ProbeTrack	1415	SCS215b	733745.524616	733745.525520	8	0.013322	60	10	60-180	60	76	GapExp	0	10	2	3	1	target	1	600	13.328	13.293	13.363
ProbeTrack8	5	ProbeTrack	1415	SCS215b	733745.524616	733745.525584	8	0.013322	60	10	60-180	60	100	GapExp	0	11	2	0	1	target	1	667	13.328	13.292	13.363
ProbeTrack8	5	ProbeTrack	1415	SCS215b	733745.524616	733745.525651	8	0.013322	60	10	60-180	60	178	GapExp	0	12	2	6	1	target	1	573	13.328	13.292	13.363
ProbeTrack8	5	ProbeTrack	1415	SCS215b	733745.524616	733745.525730	8	0.013322	60	10	60-180	60	127	GapExp	0	13	2	3	1	target	1	853	13.328	13.293	13.363
ProbeTrack8	5	ProbeTrack	1415	SCS215b	733745.524616	733745.525804	8	0.013322	60	10	60-180	60	125	GapExp	0	14	2	6	0	distractor	1	693	13.328	13.293	13.364
ProbeTrack8	5	ProbeTrack	1415	SCS215b	733745.524616	733745.525880	8	0.013322	60	10	60-180	60	122	GapExp	0	15	2	3	0	distractor	1	680	13.328	13.292	13.363
ProbeTrack8	5	ProbeTrack	1415	SCS215b	733745.524616	733745.525951	8	0.013322	60	10	60-180	60	114	GapExp	0	16	2	96	0	distractor	1	707	13.328	13.289	13.367
ProbeTrack8	5	ProbeTrack	1415	SCS215b	733745.524616	733745.526036	8	0.013322	60	10	60-180	60	163	GapExp	0	17	2	96	0	distractor	1	614	13.328	13.293	13.363
ProbeTrack8	5	ProbeTrack	1415	SCS215b	733745.524616	733745.526128	8	0.013322	60	10	60-180	60	65	GapExp	0	18	2	3	1	distractor	0	507	13.328	13.293	13.363
ProbeTrack8	5	ProbeTrack	1415	SCS215b	733745.524616	733745.526188	8	0.013322	60	10	60-180	60	61	GapExp	0	19	2	6	1	target	1	520	13.328	13.293	13.363
ProbeTrack8	5	ProbeTrack	1415	SCS215b	733745.524616	733745.526247	8	0.013322	60	10	60-180	60	102	GapExp	0	20	2	3	0	distractor	1	707	13.328	13.293	13.367
ProbeTrack8	5	ProbeTrack	1415	SCS215b	733745.524616	733745.526315	8	0.013322	60	10	60-180	60	156	GapExp	0	21	2	0	1	target	1	507	13.328	13.293	13.363
ProbeTrack8	5	ProbeTrack	1415	SCS215b	733745.524616	733745.526393	8	0.013322	60	10	60-180	60	130	GapExp	0	22	2	6	1	target	1	560	13.328	13.293	13.363
ProbeTrack8	5	ProbeTrack	1415	SCS215b	733745.524616	733745.526464	8	0.013322	60	10	60-180	60	161	GapExp	0	23	2	96	1	target	1	627	13.328	13.292	13.363
ProbeTrack8	5	ProbeTrack	1415	SCS215b	733745.524616	733745.526556	8	0.013322	60	10	60-180	60	119	GapExp	0	24	2	6	1	target	1	560	13.328	13.293	13.363
ProbeTrack8	5	ProbeTrack	1415	SCS215b	733745.524616	733745.526626	8	0.013322	60	10	60-180	60	87	GapExp	0	25	2	3	1	target	1	453	13.328	13.293	13.363
ProbeTrack8	5	ProbeTrack	1415	SCS215b	733745.524616	733745.526690	8	0.013322	60	10	60-180	60	71	GapExp	0	26	2	96	1	target	1	613	13.328	13.293	13.363
ProbeTrack8	5	ProbeTrack	1415	SCS215b	733745.524616	733745.526768	8	0.013322	60	10	60-180	60	117	GapExp	0	27	2	96	1	target	1	493	13.328	13.293	13.363
ProbeTrack8	5	ProbeTrack	1415	SCS215b	733745.524616	733745.526853	8	0.013322	60	10	60-180	60	93	GapExp	0	28	2	0	1	target	1	547	13.328	13.293	13.363
ProbeTrack8	5	ProbeTrack	1415	SCS215b	733745.524616	733745.526919	8	0.013322	60	10	60-180	60	93	GapExp	0	29	2	0	1	distractor	0	547	13.328	13.293	13.363
ProbeTrack8	5	ProbeTrack	1415	SCS215b	733745.524616	733745.526984	8	0.013322	60	10	60-180	60	162	GapExp	0	30	2	96	0	distractor	1	573	13.328	13.293	13.363
ProbeTrack8	5	ProbeTrack	1415	SCS215b	733745.524616	733745.527080	8	0.013322	60	10	60-180	60	95	GapExp	0	31	2	0	0	distractor	1	733	13.328	13.293	13.363
ProbeTrack8	5	ProbeTrack	1415	SCS215b	733745.524616	733745.527147	8	0.013322	60	10	60-180	60	73	GapExp	0	32	2	96	0	distractor	1	827	13.328	13.293	13.363
ProbeTrack8	5	ProbeTrack	1415	SCS215b	733745.524616	733745.527227	8	0.013322	60	10	60-180	60	133	GapExp	0	33	2	3	0	distractor	1	853	13.328	13.293	13.363
ProbeTrack8	5	ProbeTrack	1415	SCS215b	733745.524616	733745.527305	8	0.013322	60	10	60-180	60	112	GapExp	0	34	2	3	0	distractor	1	613	13.328	13.292	13.363
ProbeTrack8	5	ProbeTrack	1415	SCS215b	733745.524616	733745.527374	8	0.013322	60	10	60-180	60	115	GapExp	0	35	2	96	0	distractor	1	547	13.328	13.293	13.363
ProbeTrack8	5	ProbeTrack	1415	SCS215b	733745.524616	733745.527458	8	0.013322	60	10	60-180	60	124	GapExp	0	36	2	0	0	distractor	1	653	13.328	13.293	13.363
ProbeTrack8	5	ProbeTrack	1415	SCS215b	733745.524616	733745.527527	8	0.013322	60	10	60-180	60	67	GapExp	0	37	2	6	1	target	1	440	13.328	13.293	13.363
ProbeTrack8	5	ProbeTrack	1415	SCS215b	733745.524616	733745.527587	8	0.013322	60	10	60-180	60	84	GapExp	0	38	2	6	0	distractor	1	574	13.328	13.289	13.363
ProbeTrack8	5	ProbeTrack	1415	SCS215b	733745.524616	733745.527651	8	0.013322	60	10	60-180	60	110	GapExp	0	39	2	6	1	distractor	0	707	13.328	13.293	13.363
ProbeTrack8	5	ProbeTrack	1415	SCS215b	733745.524616	733745.527721	8	0.013322	60	10	60-180	60	162	GapExp	0	40	2	0	0	distractor	1	800	13.328	13.292	13.363
ProbeTrack8	5	ProbeTrack	1415	SCS215b	733745.524616	733745.527802	8	0.013322	60	10	60-180	60	122	GapExp	0	41	2	0	1	target	1	733	13.328	13.293	13.363
ProbeTrack8	5	ProbeTrack	1415	SCS215b	733745.524616	733745.527873	8	0.013322	60	10	60-180	60	76	GapExp	0	42	2	96	0	distractor	1	507	13.328	13.293	13.363
ProbeTrack8	5	ProbeTrack	1415	SCS215b	733745.524616	733745.527949	8	0.013322	60	10	60-180	60	103	GapExp	0	43	2	96	1	target	1	600	13.328	13.293	13.363
ProbeTrack8	5	ProbeTrack	1415	SCS215b	733745.524616	733745.528031	8	0.013322	60	10	60-180	60	81	GapExp	0	44	2	0	1	target	1	533	13.328	13.293	13.363
ProbeTrack8	5	ProbeTrack	1415	SCS215b	733745.524616	733745.528096	8	0.013322	60	10	60-180	60	71	GapExp	0	45	2	0	1	target	1	587	13.328	13.287	13.370
ProbeTrack8	5	ProbeTrack	1415	SCS215b	733745.524616	733745.528158	8	0.013322	60	10	60-180	60	118	GapExp	0	46	2	3	1	target	1	387	13.328	13.293	13.363
ProbeTrack8	5	ProbeTrack	1415	SCS215b	733745.524616	733745.528226	8	0.013322	60	10	60-180	60	131	GapExp	0	47	2	6	1	distractor	0	347	13.328	13.293	13.363
ProbeTrack8	5	ProbeTrack	1415	SCS215b	733745.524616	733745.528296	8	0.013322	60	10	60-180	60	177	GapExp	0	48	2	3	1	target	1	387	13.328	13.293	13.363
ProbeTrack8	5	ProbeTrack	1415	SCS215b	733745.524616	733745.528373	8	0.013322	60	10	60-180	60	122	GapExp	0	49	2	6	0	distractor	1	534	13.328	13.293	13.363
ProbeTrack8	5	ProbeTrack	1415	SCS215b	733745.524616	733745.528443	8	0.013322	60	10	60-180	60	176	GapExp	0	50	2	6	0	distractor	1	680	13.328	13.293	13.363
ProbeTrack8	5	ProbeTrack	1415	SCS215b	733745.524616	733745.528524	8	0.013322	60	10	60-180	60	88	GapExp	0	51	2	3	0	target	0	427	13.328	13.293	13.363
ProbeTrack8	5	ProbeTrack	1415	SCS215b	733745.524616	733745.528587	8	0.013322	60	10	60-180	60	108	GapExp	0	52	2	3	0	distractor	1	693	13.328	13.293	13.363
ProbeTrack8	5	ProbeTrack	1415	SCS215b	733745.524616	733745.528656	8	0.013322	60	10	60-180	60	100	GapExp	0	53	2	0	1	distractor	0	733	13.328	13.293	13.364
ProbeTrack8	5	ProbeTrack	1415	SCS215b	733745.524616	733745.528724	8	0.013322	60	10	60-180	60	153	GapExp	0	54	2	3	0	distractor	1	547	13.328	13.293	13.364
ProbeTrack8	5	ProbeTrack	1415	SCS215b	733745.524616	733745.528799	8	0.013322	60	10	60-180	60	161	GapExp	0	55	2	6	0	distractor	1	560	13.328	13.293	13.363
ProbeTrack8	5	ProbeTrack	1415	SCS215b	733745.524616	733745.528876	8	0.013322	60	10	60-180	60	148	GapExp	0	56	2	96	1	target	1	893	13.328	13.293	13.363
ProbeTrack8	5	ProbeTrack	1415	SCS215b	733745.524616	733745.528968	8	0.013322	60	10	60-180	60	63	GapExp	0	57	2	96	0	distractor	1	560	13.328	13.293	13.363
ProbeTrack8	5	ProbeTrack	1415	SCS215b	733745.524616	733745.529042	8	0.013322	60	10	60-180	60	88	GapExp	0	58	2	3	1	target	1	560	13.328	13.293	13.363
ProbeTrack8	5	ProbeTrack	1415	SCS215b	733745.524616	733745.529107	8	0.013322	60	10	60-180	60	76	GapExp	0	59	2	96	0	distractor	1	733	13.328	13.293	13.363
ProbeTrack8	5	ProbeTrack	1415	SCS215b	733745.524616	733745.529186	8	0.013322	60	10	60-180	60	74	GapExp	0	60	2	96	0	distractor	1	453	13.328	13.293	13.363
ProbeTrack8	5	ProbeTrack	1415	SCS215b	733745.524616	733745.529262	8	0.013322	60	10	60-180	60	159	GapExp	0	61	2	0	0	distractor	1	587	13.328	13.293	13.367
ProbeTrack8	5	ProbeTrack	1415	SCS215b	733745.524616	733745.529337	8	0.013322	60	10	60-180	60	131	GapExp	0	62	2	6	0	distractor	1	587	13.328	13.290	13.363
ProbeTrack8	5	ProbeTrack	1415	SCS215b	733745.524616	733745.529408	8	0.013322	60	10	60-180	60	154	GapExp	0	63	2	0	0	target	0	907	13.328	13.293	13.363
ProbeTrack8	5	ProbeTrack	1415	SCS215b	733745.524616	733745.529487	8	0.013322	60	10	60-180	60	69	GapExp	0	64	2	96	1	target	1	760	13.328	13.293	13.363
ProbeTrack8	5	ProbeTrack	1415	SCS215b	733745.524616	733745.529568	8	0.013322	60	10	60-180	60	128	GapExp	0	65	2	96	1	target	1	720	13.328	13.293	13.363
ProbeTrack8	5	ProbeTrack	1415	SCS215b	733745.524616	733745.529655	8	0.013322	60	10	60-180	60	169	GapExp	0	66	2	96	1	target	1	520	13.328	13.289	13.363
ProbeTrack8	5	ProbeTrack	1415	SCS215b	733745.524616	733745.529750	8	0.013322	60	10	60-180	60	76	GapExp	0	67	2	3	0	32	-3	4119	13.328	13.293	13.363
ProbeTrack8	5	ProbeTrack	1415	SCS215b	733745.524616	733745.529854	8	0.013322	60	10	60-180	60	100	GapExp	0	68	2	3	1	target	1	427	13.328	13.292	13.363
ProbeTrack8	5	ProbeTrack	1415	SCS215b	733745.524616	733745.529927	8	0.013322	60	10	60-180	60	171	GapExp	0	69	2	6	0	distractor	1	760	13.328	13.293	13.363
ProbeTrack8	5	ProbeTrack	1415	SCS215b	733745.524616	733745.530007	8	0.013322	60	10	60-180	60	63	GapExp	0	70	2	0	0	target	0	533	13.328	13.293	13.363
ProbeTrack8	5	ProbeTrack	1415	SCS215b	733745.524616	733745.530067	8	0.013322	60	10	60-180	60	134	GapExp	0	71	2	6	1	distractor	0	440	13.328	13.293	13.363
ProbeTrack8	5	ProbeTrack	1415	SCS215b	733745.524616	733745.530138	8	0.013322	60	10	60-180	60	78	GapExp	0	72	2	96	1	target	1	360	13.328	13.292	13.363
ProbeTrack8	5	ProbeTrack	1415	SCS215b	733745.524616	733745.530216	8	0.013322	60	10	60-180	60	179	GapExp	0	73	2	6	1	target	1	414	13.328	13.293	13.363
ProbeTrack8	5	ProbeTrack	1415	SCS215b	733745.524616	733745.530295	8	0.013322	60	10	60-180	60	80	GapExp	0	74	2	6	1	distractor	0	480	13.328	13.293	13.363
ProbeTrack8	5	ProbeTrack	1415	SCS215b	733745.524616	733745.530357	8	0.013322	60	10	60-180	60	70	GapExp	0	75	2	0	0	target	0	480	13.328	13.293	13.363
ProbeTrack8	5	ProbeTrack	1415	SCS215b	733745.524616	733745.530418	8	0.013322	60	10	60-180	60	116	GapExp	0	76	2	96	1	target	1	467	13.328	13.293	13.363
ProbeTrack8	5	ProbeTrack	1415	SCS215b	733745.524616	733745.530500	8	0.013322	60	10	60-180	60	92	GapExp	0	77	2	0	1	target	1	480	13.328	13.293	13.363
ProbeTrack8	5	ProbeTrack	1415	SCS215b	733745.524616	733745.530564	8	0.013322	60	10	60-180	60	161	GapExp	0	78	2	0	1	distractor	0	640	13.328	13.293	13.363
ProbeTrack8	5	ProbeTrack	1415	SCS215b	733745.524616	733745.530642	8	0.013322	60	10	60-180	60	77	GapExp	0	79	2	0	0	distractor	1	853	13.328	13.293	13.363
ProbeTrack8	5	ProbeTrack	1415	SCS215b	733745.524616	733745.530707	8	0.013322	60	10	60-180	60	122	GapExp	0	80	2	6	0	distractor	1	587	13.328	13.293	13.363
ProbeTrack8	5	ProbeTrack	1415	SCS215b	733745.524616	733745.530776	8	0.013322	60	10	60-180	60	76	GapExp	0	81	2	3	1	distractor	0	773	13.328	13.293	13.363
ProbeTrack8	5	ProbeTrack	1415	SCS215b	733745.524616	733745.530838	8	0.013322	60	10	60-180	60	145	GapExp	0	82	2	96	1	target	1	507	13.328	13.293	13.363
ProbeTrack8	5	ProbeTrack	1415	SCS215b	733745.524616	733745.530926	8	0.013322	60	10	60-180	60	131	GapExp	0	83	2	6	0	distractor	1	613	13.328	13.289	13.366
ProbeTrack8	5	ProbeTrack	1415	SCS215b	733745.524616	733745.530998	8	0.013322	60	10	60-180	60	177	GapExp	0	84	2	3	0	distractor	1	720	13.328	13.293	13.367
ProbeTrack8	5	ProbeTrack	1415	SCS215b	733745.524616	733745.531078	8	0.013322	60	10	60-180	60	168	GapExp	0	85	2	6	0	distractor	1	547	13.328	13.293	13.363
ProbeTrack8	5	ProbeTrack	1415	SCS215b	733745.524616	733745.531154	8	0.013322	60	10	60-180	60	107	GapExp	0	86	2	96	0	distractor	1	733	13.328	13.293	13.363
ProbeTrack8	5	ProbeTrack	1415	SCS215b	733745.524616	733745.531238	8	0.013322	60	10	60-180	60	127	GapExp	0	87	2	0	0	distractor	1	973	13.328	13.293	13.363
ProbeTrack8	5	ProbeTrack	1415	SCS215b	733745.524616	733745.531313	8	0.013322	60	10	60-180	60	128	GapExp	0	88	2	6	0	distractor	1	547	13.328	13.293	13.363
ProbeTrack8	5	ProbeTrack	1415	SCS215b	733745.524616	733745.531384	8	0.013322	60	10	60-180	60	132	GapExp	0	89	2	6	1	distractor	0	427	13.328	13.293	13.363
ProbeTrack8	5	ProbeTrack	1415	SCS215b	733745.524616	733745.531453	8	0.013322	60	10	60-180	60	129	GapExp	0	90	2	96	1	target	1	374	13.328	13.293	13.363
ProbeTrack8	5	ProbeTrack	1415	SCS215b	733745.524616	733745.531535	8	0.013322	60	10	60-180	60	90	GapExp	0	91	2	3	0	distractor	1	520	13.328	13.292	13.364
ProbeTrack8	5	ProbeTrack	1415	SCS215b	733745.524616	733745.531599	8	0.013322	60	10	60-180	60	96	GapExp	0	92	2	0	1	target	1	800	13.328	13.293	13.363
ProbeTrack8	5	ProbeTrack	1415	SCS215b	733745.524616	733745.531667	8	0.013322	60	10	60-180	60	151	GapExp	0	93	2	3	1	target	1	373	13.328	13.293	13.363
ProbeTrack8	5	ProbeTrack	1415	SCS215b	733745.524616	733745.531739	8	0.013322	60	10	60-180	60	136	GapExp	0	94	2	3	0	distractor	1	787	13.328	13.293	13.363
ProbeTrack8	5	ProbeTrack	1415	SCS215b	733745.524616	733745.531814	8	0.013322	60	10	60-180	60	168	GapExp	0	95	2	0	1	target	1	374	13.328	13.293	13.363
ProbeTrack8	5	ProbeTrack	1415	SCS215b	733745.524616	733745.531888	8	0.013322	60	10	60-180	60	146	GapExp	0	96	2	3	0	distractor	1	573	13.328	13.293	13.363
ProbeTrack8	5	ProbeTrack	1415	SCS215b	733745.524616	733745.531962	8	0.013322	60	10	60-180	60	165	GapExp	0	97	2	3	1	target	1	507	13.328	13.293	13.363
ProbeTrack8	5	ProbeTrack	1415	SCS215b	733745.524616	733745.532039	8	0.013322	60	10	60-180	60	88	GapExp	0	98	2	6	0	distractor	1	800	13.328	13.293	13.363
ProbeTrack8	5	ProbeTrack	1415	SCS215b	733745.524616	733745.532106	8	0.013322	60	10	60-180	60	143	GapExp	0	99	2	0	0	distractor	1	853	13.328	13.293	13.363
ProbeTrack8	5	ProbeTrack	1415	SCS215b	733745.524616	733745.532182	8	0.013322	60	10	60-180	60	152	GapExp	0	100	2	96	1	target	1	653	13.328	13.293	13.363
ProbeTrack8	5	ProbeTrack	1415	SCS215b	733745.524616	733745.532273	8	0.013322	60	10	60-180	60	63	GapExp	0	101	2	3	0	distractor	1	613	13.328	13.293	13.363
ProbeTrack8	5	ProbeTrack	1415	SCS215b	733745.524616	733745.532333	8	0.013322	60	10	60-180	60	107	GapExp	0	102	2	3	0	distractor	1	560	13.328	13.293	13.363
ProbeTrack8	5	ProbeTrack	1415	SCS215b	733745.524616	733745.532401	8	0.013322	60	10	60-180	60	122	GapExp	0	103	2	96	0	distractor	1	627	13.328	13.292	13.363
ProbeTrack8	5	ProbeTrack	1415	SCS215b	733745.524616	733745.532486	8	0.013322	60	10	60-180	60	148	GapExp	0	104	2	0	0	target	0	560	13.328	13.293	13.364
ProbeTrack8	5	ProbeTrack	1415	SCS215b	733745.524616	733745.532559	8	0.013322	60	10	60-180	60	152	GapExp	0	105	2	3	1	distractor	0	507	13.328	13.293	13.363
ProbeTrack8	5	ProbeTrack	1415	SCS215b	733745.524616	733745.532632	8	0.013322	60	10	60-180	60	161	GapExp	0	106	2	6	0	distractor	1	654	13.328	13.292	13.363
ProbeTrack8	5	ProbeTrack	1415	SCS215b	733745.524616	733745.532709	8	0.013322	60	10	60-180	60	78	GapExp	0	107	2	6	1	target	1	587	13.328	13.293	13.363
ProbeTrack8	5	ProbeTrack	1415	SCS215b	733745.524616	733745.532773	8	0.013322	60	10	60-180	60	167	GapExp	0	108	2	96	0	distractor	1	614	13.328	13.293	13.367
ProbeTrack8	5	ProbeTrack	1415	SCS215b	733745.524616	733745.532864	8	0.013322	60	10	60-180	60	68	GapExp	0	109	2	96	1	target	1	573	13.328	13.293	13.367
ProbeTrack8	5	ProbeTrack	1415	SCS215b	733745.524616	733745.532939	8	0.013322	60	10	60-180	60	116	GapExp	0	110	2	0	0	distractor	1	613	13.328	13.290	13.367
ProbeTrack8	5	ProbeTrack	1415	SCS215b	733745.524616	733745.533011	8	0.013322	60	10	60-180	60	68	GapExp	0	111	2	6	1	target	1	627	13.328	13.293	13.363
ProbeTrack8	5	ProbeTrack	1415	SCS215b	733745.524616	733745.533074	8	0.013322	60	10	60-180	60	66	GapExp	0	112	2	0	1	target	1	467	13.328	13.293	13.363
ProbeTrack8	5	ProbeTrack	1415	SCS215b	733745.524616	733745.533133	8	0.013322	60	10	60-180	60	93	GapExp	0	113	2	3	0	distractor	1	587	13.328	13.292	13.364
ProbeTrack8	5	ProbeTrack	1415	SCS215b	733745.524616	733745.533198	8	0.013322	60	10	60-180	60	140	GapExp	0	114	2	96	0	distractor	1	453	13.328	13.292	13.363
ProbeTrack8	5	ProbeTrack	1415	SCS215b	733745.524616	733745.533283	8	0.013322	60	10	60-180	60	70	GapExp	0	115	2	3	1	target	1	733	13.328	13.290	13.363
ProbeTrack8	5	ProbeTrack	1415	SCS215b	733745.524616	733745.533347	8	0.013322	60	10	60-180	60	138	GapExp	0	116	2	96	0	distractor	1	440	13.328	13.293	13.365
ProbeTrack8	5	ProbeTrack	1415	SCS215b	733745.524616	733745.533432	8	0.013322	60	10	60-180	60	138	GapExp	0	117	2	6	0	target	0	560	13.328	13.293	13.363
ProbeTrack8	5	ProbeTrack	1415	SCS215b	733745.524616	733745.533505	8	0.013322	60	10	60-180	60	178	GapExp	0	118	2	6	1	target	1	600	13.328	13.293	13.369
ProbeTrack8	5	ProbeTrack	1415	SCS215b	733745.524616	733745.533583	8	0.013322	60	10	60-180	60	111	GapExp	0	119	2	3	1	target	1	493	13.328	13.293	13.363
ProbeTrack8	5	ProbeTrack	1415	SCS215b	733745.524616	733745.533651	8	0.013322	60	10	60-180	60	80	GapExp	0	120	2	6	1	target	1	587	13.328	13.293	13.364
ProbeTrack8	5	ProbeTrack	1415	SCS215b	733745.524616	733745.533716	8	0.013322	60	10	60-180	60	152	GapExp	0	121	2	6	0	distractor	1	733	13.328	13.293	13.363
ProbeTrack8	5	ProbeTrack	1415	SCS215b	733745.524616	733745.533816	8	0.013322	60	10	60-180	60	144	GapExp	0	122	2	0	0	multi	-2	773	13.328	13.293	13.363
ProbeTrack8	5	ProbeTrack	1415	SCS215b	733745.524616	733745.533896	8	0.013322	60	10	60-180	60	134	GapExp	0	123	2	96	0	target	0	640	13.328	13.293	13.365
ProbeTrack8	5	ProbeTrack	1415	SCS215b	733745.524616	733745.533987	8	0.013322	60	10	60-180	60	151	GapExp	0	124	2	0	1	distractor	0	600	13.328	13.292	13.363
ProbeTrack8	5	ProbeTrack	1415	SCS215b	733745.524616	733745.534064	8	0.013322	60	10	60-180	60	160	GapExp	0	125	2	0	0	distractor	1	693	13.328	13.293	13.363
ProbeTrack8	5	ProbeTrack	1415	SCS215b	733745.534845	733745.534983	8	0.013328	60	10	60-180	60	149	GapPrac	1	1	4	0	0	distractor	1	693	13.328	13.293	13.363
ProbeTrack8	5	ProbeTrack	1415	SCS215b	733745.534845	733745.535071	8	0.013328	60	10	60-180	60	84	GapPrac	1	2	4	6	0	target	0	920	13.328	13.293	13.363
ProbeTrack8	5	ProbeTrack	1415	SCS215b	733745.534845	733745.535140	8	0.013328	60	10	60-180	60	142	GapPrac	1	3	4	3	1	distractor	0	667	13.328	13.293	13.363
ProbeTrack8	5	ProbeTrack	1415	SCS215b	733745.534845	733745.535214	8	0.013328	60	10	60-180	60	159	GapPrac	1	4	4	0	1	target	1	427	13.328	13.293	13.363
ProbeTrack8	5	ProbeTrack	1415	SCS215b	733745.534845	733745.535289	8	0.013328	60	10	60-180	60	174	GapPrac	1	5	4	3	1	target	1	573	13.328	13.293	13.363
ProbeTrack8	5	ProbeTrack	1415	SCS215b	733745.534845	733745.535369	8	0.013328	60	10	60-180	60	77	GapPrac	1	6	4	96	0	target	0	573	13.328	13.293	13.363
ProbeTrack8	5	ProbeTrack	1415	SCS215b	733745.534845	733745.535447	8	0.013328	60	10	60-180	60	166	GapPrac	1	7	4	96	0	distractor	1	533	13.328	13.293	13.363
ProbeTrack8	5	ProbeTrack	1415	SCS215b	733745.534845	733745.535539	8	0.013328	60	10	60-180	60	81	GapPrac	1	8	4	0	1	target	1	520	13.328	13.292	13.363
ProbeTrack8	5	ProbeTrack	1415	SCS215b	733745.534845	733745.535605	8	0.013328	60	10	60-180	60	155	GapPrac	1	9	4	6	1	target	1	547	13.328	13.289	13.363
ProbeTrack8	5	ProbeTrack	1415	SCS215b	733745.534845	733745.535681	8	0.013328	60	10	60-180	60	112	GapPrac	1	10	4	6	1	target	1	507	13.328	13.293	13.363
ProbeTrack8	5	ProbeTrack	1415	SCS215b	733745.534845	733745.535749	8	0.013328	60	10	60-180	60	109	GapPrac	1	11	4	0	0	target	0	467	13.328	13.292	13.364
ProbeTrack8	5	ProbeTrack	1415	SCS215b	733745.534845	733745.535816	8	0.013328	60	10	60-180	60	173	GapPrac	1	12	4	0	0	distractor	1	560	13.328	13.290	13.364
ProbeTrack8	5	ProbeTrack	1415	SCS215b	733745.534845	733745.535897	8	0.013328	60	10	60-180	60	100	GapPrac	1	13	4	6	0	target	0	453	13.328	13.292	13.364
ProbeTrack8	5	ProbeTrack	1415	SCS215b	733745.534845	733745.535962	8	0.013328	60	10	60-180	60	112	GapPrac	1	14	4	0	1	distractor	0	400	13.328	13.293	13.363
ProbeTrack8	5	ProbeTrack	1415	SCS215b	733745.534845	733745.536028	8	0.013328	60	10	60-180	60	168	GapPrac	1	15	4	6	0	distractor	1	520	13.328	13.293	13.365
ProbeTrack8	5	ProbeTrack	1415	SCS215b	733745.534845	733745.536107	8	0.013328	60	10	60-180	60	117	GapPrac	1	16	4	3	0	target	0	667	13.328	13.289	13.366
ProbeTrack8	5	ProbeTrack	1415	SCS215b	733745.534845	733745.536177	8	0.013328	60	10	60-180	60	116	GapPrac	1	17	4	96	1	distractor	0	360	13.328	13.293	13.363
ProbeTrack8	5	ProbeTrack	1415	SCS215b	733745.534845	733745.536258	8	0.013328	60	10	60-180	60	110	GapPrac	1	18	4	3	0	target	0	347	13.328	13.293	13.363
ProbeTrack8	5	ProbeTrack	1415	SCS215b	733745.534845	733745.536328	8	0.013328	60	10	60-180	60	136	GapPrac	1	19	4	3	1	distractor	0	453	13.328	13.293	13.363
ProbeTrack8	5	ProbeTrack	1415	SCS215b	733745.534845	733745.536403	8	0.013328	60	10	60-180	60	75	GapPrac	1	20	4	96	1	distractor	0	440	13.328	13.293	13.364
ProbeTrack8	5	ProbeTrack	1415	SCS215b	733745.537286	733745.537342	8	0.013328	60	10	60-180	60	148	GapPrac	1	1	4	0	1	target	1	627	13.328	13.293	13.363
ProbeTrack8	5	ProbeTrack	1415	SCS215b	733745.537286	733745.537428	8	0.013328	60	10	60-180	60	158	GapPrac	1	2	4	3	1	distractor	0	627	13.328	13.293	13.363
ProbeTrack8	5	ProbeTrack	1415	SCS215b	733745.537286	733745.537504	8	0.013328	60	10	60-180	60	124	GapPrac	1	3	4	96	0	target	0	600	13.328	13.293	13.364
ProbeTrack8	5	ProbeTrack	1415	SCS215b	733745.537286	733745.537589	8	0.013328	60	10	60-180	60	97	GapPrac	1	4	4	6	0	distractor	1	480	13.328	13.293	13.363
ProbeTrack8	5	ProbeTrack	1415	SCS215b	733745.537286	733745.537654	8	0.013328	60	10	60-180	60	63	GapPrac	1	5	4	6	0	target	0	827	13.328	13.293	13.363
ProbeTrack8	5	ProbeTrack	1415	SCS215b	733745.537286	733745.537718	8	0.013328	60	10	60-180	60	118	GapPrac	1	6	4	96	0	distractor	1	347	13.328	13.288	13.363
ProbeTrack8	5	ProbeTrack	1415	SCS215b	733745.537286	733745.537801	8	0.013328	60	10	60-180	60	153	GapPrac	1	7	4	0	1	target	1	560	13.328	13.293	13.363
ProbeTrack8	5	ProbeTrack	1415	SCS215b	733745.537286	733745.537880	8	0.013328	60	10	60-180	60	166	GapPrac	1	8	4	0	1	target	1	627	13.328	13.293	13.363
ProbeTrack8	5	ProbeTrack	1415	SCS215b	733745.537286	733745.537956	8	0.013328	60	10	60-180	60	146	GapPrac	1	9	4	3	1	target	1	600	13.328	13.293	13.363
ProbeTrack8	5	ProbeTrack	1415	SCS215b	733745.537286	733745.538031	8	0.013328	60	10	60-180	60	166	GapPrac	1	10	4	0	0	target	0	920	13.328	13.293	13.363
ProbeTrack8	5	ProbeTrack	1415	SCS215b	733745.537286	733745.538112	8	0.013328	60	10	60-180	60	112	GapPrac	1	11	4	96	1	distractor	0	613	13.328	13.289	13.367
ProbeTrack8	5	ProbeTrack	1415	SCS215b	733745.537286	733745.538194	8	0.013328	60	10	60-180	60	93	GapPrac	1	12	4	96	0	target	0	440	13.328	13.293	13.363
ProbeTrack8	5	ProbeTrack	1415	SCS215b	733745.537286	733745.538272	8	0.013328	60	10	60-180	60	142	GapPrac	1	13	4	3	1	target	1	640	13.328	13.293	13.363
ProbeTrack8	5	ProbeTrack	1415	SCS215b	733745.537286	733745.538345	8	0.013328	60	10	60-180	60	165	GapPrac	1	14	4	3	0	distractor	1	587	13.328	13.293	13.363
ProbeTrack8	5	ProbeTrack	1415	SCS215b	733745.537286	733745.538422	8	0.013328	60	10	60-180	60	87	GapPrac	1	15	4	96	1	target	1	733	13.328	13.293	13.363
ProbeTrack8	5	ProbeTrack	1415	SCS215b	733745.537286	733745.538505	8	0.013328	60	10	60-180	60	69	GapPrac	1	16	4	0	0	distractor	1	667	13.328	13.293	13.363
ProbeTrack8	5	ProbeTrack	1415	SCS215b	733745.537286	733745.538568	8	0.013328	60	10	60-180	60	167	GapPrac	1	17	4	6	1	target	1	747	13.328	13.293	13.364
ProbeTrack8	5	ProbeTrack	1415	SCS215b	733745.537286	733745.538648	8	0.013328	60	10	60-180	60	114	GapPrac	1	18	4	6	0	distractor	1	520	13.328	13.293	13.363
ProbeTrack8	5	ProbeTrack	1415	SCS215b	733745.537286	733745.538716	8	0.013328	60	10	60-180	60	130	GapPrac	1	19	4	3	0	target	0	560	13.328	13.293	13.363
ProbeTrack8	5	ProbeTrack	1415	SCS215b	733745.537286	733745.538787	8	0.013328	60	10	60-180	60	165	GapPrac	1	20	4	6	1	distractor	0	827	13.328	13.293	13.363
ProbeTrack8	5	ProbeTrack	1415	SCS215b	733745.539334	733745.539455	8	0.013328	60	10	60-180	60	87	GapExp	1	1	4	6	0	distractor	1	587	13.328	13.293	13.363
ProbeTrack8	5	ProbeTrack	1415	SCS215b	733745.539334	733745.539526	8	0.013328	60	10	60-180	60	134	GapExp	1	2	4	0	0	target	0	773	13.328	13.293	13.363
ProbeTrack8	5	ProbeTrack	1415	SCS215b	733745.539334	733745.539599	8	0.013328	60	10	60-180	60	144	GapExp	1	3	4	3	1	distractor	0	680	13.328	13.293	13.364
ProbeTrack8	5	ProbeTrack	1415	SCS215b	733745.539334	733745.539674	8	0.013328	60	10	60-180	60	153	GapExp	1	4	4	96	1	target	1	533	13.328	13.293	13.363
ProbeTrack8	5	ProbeTrack	1415	SCS215b	733745.539334	733745.539766	8	0.013328	60	10	60-180	60	157	GapExp	1	5	4	0	1	distractor	0	520	13.328	13.289	13.367
ProbeTrack8	5	ProbeTrack	1415	SCS215b	733745.539334	733745.539845	8	0.013328	60	10	60-180	60	161	GapExp	0	6	4	6	1	target	1	373	13.328	13.293	13.363
ProbeTrack8	5	ProbeTrack	1415	SCS215b	733745.539334	733745.539920	8	0.013328	60	10	60-180	60	93	GapExp	0	7	4	0	0	target	0	573	13.328	13.289	13.363
ProbeTrack8	5	ProbeTrack	1415	SCS215b	733745.539334	733745.539989	8	0.013328	60	10	60-180	60	68	GapExp	0	8	4	96	0	distractor	1	347	13.328	13.293	13.363
ProbeTrack8	5	ProbeTrack	1415	SCS215b	733745.539334	733745.540061	8	0.013328	60	10	60-180	60	166	GapExp	0	9	4	3	1	target	1	467	13.328	13.293	13.363
ProbeTrack8	5	ProbeTrack	1415	SCS215b	733745.539334	733745.540137	8	0.013328	60	10	60-180	60	159	GapExp	0	10	4	3	1	target	1	547	13.328	13.293	13.363
ProbeTrack8	5	ProbeTrack	1415	SCS215b	733745.539334	733745.540212	8	0.013328	60	10	60-180	60	62	GapExp	0	11	4	6	0	distractor	1	520	13.328	13.293	13.363
ProbeTrack8	5	ProbeTrack	1415	SCS215b	733745.539334	733745.540272	8	0.013328	60	10	60-180	60	106	GapExp	0	12	4	0	0	distractor	1	613	13.328	13.293	13.363
ProbeTrack8	5	ProbeTrack	1415	SCS215b	733745.539334	733745.540338	8	0.013328	60	10	60-180	60	135	GapExp	0	13	4	0	1	distractor	0	614	13.328	13.293	13.366
ProbeTrack8	5	ProbeTrack	1415	SCS215b	733745.539334	733745.540409	8	0.013328	60	10	60-180	60	101	GapExp	0	14	4	6	0	target	0	414	13.328	13.292	13.363
ProbeTrack8	5	ProbeTrack	1415	SCS215b	733745.539334	733745.540477	8	0.013328	60	10	60-180	60	139	GapExp	0	15	4	96	0	distractor	1	613	13.328	13.293	13.363
ProbeTrack8	5	ProbeTrack	1415	SCS215b	733745.539334	733745.540565	8	0.013328	60	10	60-180	60	101	GapExp	0	16	4	3	0	distractor	1	520	13.328	13.293	13.363
ProbeTrack8	5	ProbeTrack	1415	SCS215b	733745.539334	733745.540634	8	0.013328	60	10	60-180	60	179	GapExp	0	17	4	3	0	distractor	1	800	13.328	13.293	13.363
ProbeTrack8	5	ProbeTrack	1415	SCS215b	733745.539334	733745.540714	8	0.013328	60	10	60-180	60	78	GapExp	0	18	4	3	0	distractor	1	667	13.328	13.293	13.363
ProbeTrack8	5	ProbeTrack	1415	SCS215b	733745.539334	733745.540776	8	0.013328	60	10	60-180	60	137	GapExp	0	19	4	96	0	distractor	1	547	13.328	13.293	13.367
ProbeTrack8	5	ProbeTrack	1415	SCS215b	733745.539334	733745.540862	8	0.013328	60	10	60-180	60	82	GapExp	0	20	4	3	1	distractor	0	680	13.328	13.293	13.363
ProbeTrack8	5	ProbeTrack	1415	SCS215b	733745.539334	733745.540925	8	0.013328	60	10	60-180	60	70	GapExp	0	21	4	0	0	target	0	587	13.328	13.293	13.364
ProbeTrack8	5	ProbeTrack	1415	SCS215b	733745.539334	733745.540986	8	0.013328	60	10	60-180	60	121	GapExp	0	22	4	3	0	distractor	1	440	13.328	13.293	13.363
ProbeTrack8	5	ProbeTrack	1415	SCS215b	733745.539334	733745.541054	8	0.013328	60	10	60-180	60	102	GapExp	0	23	4	3	1	distractor	0	467	13.328	13.293	13.363
ProbeTrack8	5	ProbeTrack	1415	SCS215b	733745.539334	733745.541118	8	0.013328	60	10	60-180	60	177	GapExp	0	24	4	0	1	target	1	493	13.328	13.293	13.363
ProbeTrack8	5	ProbeTrack	1415	SCS215b	733745.539334	733745.541195	8	0.013328	60	10	60-180	60	111	GapExp	0	25	4	0	0	target	0	507	13.328	13.293	13.363
ProbeTrack8	5	ProbeTrack	1415	SCS215b	733745.539334	733745.541262	8	0.013328	60	10	60-180	60	75	GapExp	0	26	4	96	0	distractor	1	280	13.328	13.293	13.363
ProbeTrack8	5	ProbeTrack	1415	SCS215b	733745.539334	733745.541335	8	0.013328	60	10	60-180	60	101	GapExp	0	27	4	96	1	distractor	0	307	13.328	13.293	13.363
ProbeTrack8	5	ProbeTrack	1415	SCS215b	733745.539334	733745.541411	8	0.013328	60	10	60-180	60	168	GapExp	0	28	4	0	0	target	0	334	13.328	13.293	13.363
ProbeTrack8	5	ProbeTrack	1415	SCS215b	733745.539334	733745.541484	8	0.013328	60	10	60-180	60	157	GapExp	0	29	4	6	1	distractor	0	294	13.328	13.293	13.363
ProbeTrack8	5	ProbeTrack	1415	SCS215b	733745.539334	733745.541559	8	0.013328	60	10	60-180	60	82	GapExp	0	30	4	0	0	distractor	1	294	13.328	13.293	13.363
ProbeTrack8	5	ProbeTrack	1415	SCS215b	733745.539334	733745.541619	8	0.013328	60	10	60-180	60	157	GapExp	0	31	4	0	1	target	1	334	13.328	13.293	13.363
ProbeTrack8	5	ProbeTrack	1415	SCS215b	733745.539334	733745.541690	8	0.013328	60	10	60-180	60	134	GapExp	0	32	4	6	1	distractor	0	614	13.328	13.293	13.363
ProbeTrack8	5	ProbeTrack	1415	SCS215b	733745.539334	733745.541762	8	0.013328	60	10	60-180	60	108	GapExp	0	33	4	96	0	distractor	1	507	13.328	13.293	13.363
ProbeTrack8	5	ProbeTrack	1415	SCS215b	733745.539334	733745.541841	8	0.013328	60	10	60-180	60	82	GapExp	0	34	4	96	0	distractor	1	707	13.328	13.293	13.363
ProbeTrack8	5	ProbeTrack	1415	SCS215b	733745.539334	733745.541923	8	0.013328	60	10	60-180	60	133	GapExp	0	35	4	6	1	target	1	507	13.328	13.293	13.363
ProbeTrack8	5	ProbeTrack	1415	SCS215b	733745.539334	733745.541993	8	0.013328	60	10	60-180	60	69	GapExp	0	36	4	3	1	target	1	640	13.328	13.293	13.363
ProbeTrack8	5	ProbeTrack	1415	SCS215b	733745.539334	733745.542055	8	0.013328	60	10	60-180	60	85	GapExp	0	37	4	0	0	distractor	1	587	13.328	13.293	13.363
ProbeTrack8	5	ProbeTrack	1415	SCS215b	733745.539334	733745.542117	8	0.013328	60	10	60-180	60	92	GapExp	0	38	4	0	1	distractor	0	467	13.328	13.293	13.364
ProbeTrack8	5	ProbeTrack	1415	SCS215b	733745.539334	733745.542179	8	0.013328	60	10	60-180	60	99	GapExp	0	39	4	6	0	distractor	1	560	13.328	13.293	13.363
ProbeTrack8	5	ProbeTrack	1415	SCS215b	733745.539334	733745.542245	8	0.013328	60	10	60-180	60	78	GapExp	0	40	4	96	0	distractor	1	427	13.328	13.293	13.363
ProbeTrack8	5	ProbeTrack	1415	SCS215b	733745.539334	733745.542321	8	0.013328	60	10	60-180	60	73	GapExp	0	41	4	6	1	target	1	427	13.328	13.293	13.363
ProbeTrack8	5	ProbeTrack	1415	SCS215b	733745.539334	733745.542382	8	0.013328	60	10	60-180	60	148	GapExp	0	42	4	3	0	distractor	1	507	13.328	13.289	13.363
ProbeTrack8	5	ProbeTrack	1415	SCS215b	733745.539334	733745.542475	8	0.013328	60	10	60-180	60	160	GapExp	0	43	4	6	0	distractor	1	387	13.328	13.293	13.363
ProbeTrack8	5	ProbeTrack	1415	SCS215b	733745.539334	733745.542548	8	0.013328	60	10	60-180	60	103	GapExp	0	44	4	3	1	distractor	0	573	13.328	13.291	13.363
ProbeTrack8	5	ProbeTrack	1415	SCS215b	733745.539334	733745.542614	8	0.013328	60	10	60-180	60	83	GapExp	0	45	4	96	0	distractor	1	560	13.328	13.293	13.363
ProbeTrack8	5	ProbeTrack	1415	SCS215b	733745.539334	733745.542692	8	0.013328	60	10	60-180	60	100	GapExp	0	46	4	96	0	distractor	1	467	13.328	13.292	13.363
ProbeTrack8	5	ProbeTrack	1415	SCS215b	733745.539334	733745.542769	8	0.013328	60	10	60-180	60	121	GapExp	0	47	4	3	1	distractor	0	507	13.328	13.289	13.363
ProbeTrack8	5	ProbeTrack	1415	SCS215b	733745.539334	733745.542838	8	0.013328	60	10	60-180	60	147	GapExp	0	48	4	96	0	target	0	880	13.328	13.293	13.366
ProbeTrack8	5	ProbeTrack	1415	SCS215b	733745.539334	733745.542934	8	0.013328	60	10	60-180	60	90	GapExp	0	49	4	0	1	target	1	520	13.328	13.293	13.363
ProbeTrack8	5	ProbeTrack	1415	SCS215b	733745.539334	733745.543001	8	0.013328	60	10	60-180	60	73	GapExp	0	50	4	96	1	distractor	0	454	13.328	13.293	13.364
ProbeTrack8	5	ProbeTrack	1415	SCS215b	733745.539334	733745.543078	8	0.013328	60	10	60-180	60	68	GapExp	0	51	4	3	1	target	1	400	13.328	13.290	13.363
ProbeTrack8	5	ProbeTrack	1415	SCS215b	733745.539334	733745.543142	8	0.013328	60	10	60-180	60	134	GapExp	0	52	4	6	1	distractor	0	440	13.328	13.293	13.363
ProbeTrack8	5	ProbeTrack	1415	SCS215b	733745.539334	733745.543215	8	0.013328	60	10	60-180	60	109	GapExp	0	53	4	96	1	target	1	560	13.328	13.293	13.364
ProbeTrack8	5	ProbeTrack	1415	SCS215b	733745.539334	733745.543297	8	0.013328	60	10	60-180	60	177	GapExp	0	54	4	6	1	target	1	440	13.328	13.293	13.364
ProbeTrack8	5	ProbeTrack	1415	SCS215b	733745.539334	733745.543377	8	0.013328	60	10	60-180	60	88	GapExp	0	55	4	0	0	distractor	1	667	13.328	13.290	13.363
ProbeTrack8	5	ProbeTrack	1415	SCS215b	733745.539334	733745.543441	8	0.013328	60	10	60-180	60	148	GapExp	0	56	4	6	1	target	1	547	13.328	13.292	13.363
ProbeTrack8	5	ProbeTrack	1415	SCS215b	733745.539334	733745.543515	8	0.013328	60	10	60-180	60	68	GapExp	0	57	4	6	1	target	1	507	13.328	13.293	13.363
ProbeTrack8	5	ProbeTrack	1415	SCS215b	733745.539334	733745.543576	8	0.013328	60	10	60-180	60	140	GapExp	0	58	4	0	0	distractor	1	560	13.328	13.293	13.363
ProbeTrack8	5	ProbeTrack	1415	SCS215b	733745.539334	733745.543649	8	0.013328	60	10	60-180	60	87	GapExp	0	59	4	96	1	target	1	640	13.328	13.293	13.363
ProbeTrack8	5	ProbeTrack	1415	SCS215b	733745.539334	733745.543732	8	0.013328	60	10	60-180	60	171	GapExp	0	60	4	96	0	distractor	1	493	13.328	13.290	13.363
ProbeTrack8	5	ProbeTrack	1415	SCS215b	733745.539334	733745.543825	8	0.013328	60	10	60-180	60	169	GapExp	0	61	4	6	1	target	1	640	13.328	13.293	13.363
ProbeTrack8	5	ProbeTrack	1415	SCS215b	733745.539334	733745.543904	8	0.013328	60	10	60-180	60	81	GapExp	0	62	4	96	1	target	1	720	13.328	13.293	13.363
ProbeTrack8	5	ProbeTrack	1415	SCS215b	733745.539334	733745.543985	8	0.013328	60	10	60-180	60	169	GapExp	0	63	4	3	1	target	1	493	13.328	13.293	13.363
ProbeTrack8	5	ProbeTrack	1415	SCS215b	733745.539334	733745.544061	8	0.013328	60	10	60-180	60	132	GapExp	0	64	4	96	0	distractor	1	493	13.328	13.289	13.367
ProbeTrack8	5	ProbeTrack	1415	SCS215b	733745.539334	733745.544146	8	0.013328	60	10	60-180	60	99	GapExp	0	65	4	3	0	distractor	1	600	13.328	13.290	13.363
ProbeTrack8	5	ProbeTrack	1415	SCS215b	733745.539334	733745.544212	8	0.013328	60	10	60-180	60	147	GapExp	0	66	4	6	0	distractor	1	507	13.328	13.293	13.363
ProbeTrack8	5	ProbeTrack	1415	SCS215b	733745.539334	733745.544286	8	0.013328	60	10	60-180	60	137	GapExp	0	67	4	3	0	distractor	1	747	13.328	13.293	13.363
ProbeTrack8	5	ProbeTrack	1415	SCS215b	733745.539334	733745.544360	8	0.013328	60	10	60-180	60	111	GapExp	0	68	4	6	0	distractor	1	520	13.328	13.293	13.363
ProbeTrack8	5	ProbeTrack	1415	SCS215b	733745.539334	733745.544427	8	0.013328	60	10	60-180	60	122	GapExp	0	69	4	6	0	target	0	547	13.328	13.293	13.363
ProbeTrack8	5	ProbeTrack	1415	SCS215b	733745.539334	733745.544498	8	0.013328	60	10	60-180	60	95	GapExp	0	70	4	96	1	target	1	600	13.328	13.293	13.366
ProbeTrack8	5	ProbeTrack	1415	SCS215b	733745.539334	733745.544581	8	0.013328	60	10	60-180	60	108	GapExp	0	71	4	3	0	distractor	1	640	13.328	13.293	13.363
ProbeTrack8	5	ProbeTrack	1415	SCS215b	733745.539334	733745.544649	8	0.013328	60	10	60-180	60	142	GapExp	0	72	4	0	1	distractor	0	733	13.328	13.293	13.365
ProbeTrack8	5	ProbeTrack	1415	SCS215b	733745.539334	733745.544723	8	0.013328	60	10	60-180	60	71	GapExp	0	73	4	6	0	distractor	1	720	13.328	13.293	13.363
ProbeTrack8	5	ProbeTrack	1415	SCS215b	733745.539334	733745.544786	8	0.013328	60	10	60-180	60	122	GapExp	0	74	4	96	1	target	1	600	13.328	13.292	13.363
ProbeTrack8	5	ProbeTrack	1415	SCS215b	733745.539334	733745.544870	8	0.013328	60	10	60-180	60	180	GapExp	0	75	4	0	1	target	1	520	13.328	13.293	13.363
ProbeTrack8	5	ProbeTrack	1415	SCS215b	733745.539334	733745.544949	8	0.013328	60	10	60-180	60	158	GapExp	0	76	4	0	1	distractor	0	853	13.328	13.292	13.364
ProbeTrack8	5	ProbeTrack	1415	SCS215b	733745.539334	733745.545026	8	0.013328	60	10	60-180	60	81	GapExp	0	77	4	3	0	distractor	1	573	13.328	13.291	13.363
ProbeTrack8	5	ProbeTrack	1415	SCS215b	733745.539334	733745.545090	8	0.013328	60	10	60-180	60	117	GapExp	0	78	4	3	0	distractor	1	627	13.328	13.292	13.363
ProbeTrack8	5	ProbeTrack	1415	SCS215b	733745.539334	733745.545159	8	0.013328	60	10	60-180	60	104	GapExp	0	79	4	6	0	target	0	533	13.328	13.293	13.363
ProbeTrack8	5	ProbeTrack	1415	SCS215b	733745.539334	733745.545226	8	0.013328	60	10	60-180	60	142	GapExp	0	80	4	0	1	distractor	0	573	13.328	13.290	13.365
ProbeTrack8	5	ProbeTrack	1415	SCS215b	733745.539334	733745.545298	8	0.013328	60	10	60-180	60	90	GapExp	0	81	4	3	1	distractor	0	720	13.328	13.293	13.363
ProbeTrack8	5	ProbeTrack	1415	SCS215b	733745.539334	733745.545364	8	0.013328	60	10	60-180	60	109	GapExp	0	82	4	6	1	target	1	533	13.328	13.293	13.367
ProbeTrack8	5	ProbeTrack	1415	SCS215b	733745.539334	733745.545432	8	0.013328	60	10	60-180	60	151	GapExp	0	83	4	96	1	distractor	0	560	13.328	13.293	13.363
ProbeTrack8	5	ProbeTrack	1415	SCS215b	733745.539334	733745.545520	8	0.013328	60	10	60-180	60	143	GapExp	0	84	4	3	1	distractor	0	613	13.328	13.293	13.363
ProbeTrack8	5	ProbeTrack	1415	SCS215b	733745.539334	733745.545592	8	0.013328	60	10	60-180	60	65	GapExp	0	85	4	3	0	distractor	1	547	13.328	13.293	13.364
ProbeTrack8	5	ProbeTrack	1415	SCS215b	733745.539334	733745.545654	8	0.013328	60	10	60-180	60	81	GapExp	0	86	4	6	1	target	1	680	13.328	13.293	13.363
ProbeTrack8	5	ProbeTrack	1415	SCS215b	733745.539334	733745.545718	8	0.013328	60	10	60-180	60	135	GapExp	0	87	4	6	0	distractor	1	747	13.328	13.293	13.363
ProbeTrack8	5	ProbeTrack	1415	SCS215b	733745.539334	733745.545793	8	0.013328	60	10	60-180	60	74	GapExp	0	88	4	6	0	distractor	1	1053	13.328	13.293	13.363
ProbeTrack8	5	ProbeTrack	1415	SCS215b	733745.539334	733745.545861	8	0.013328	60	10	60-180	60	125	GapExp	0	89	4	0	0	distractor	1	653	13.328	13.293	13.363
ProbeTrack8	5	ProbeTrack	1415	SCS215b	733745.539334	733745.545932	8	0.013328	60	10	60-180	60	141	GapExp	0	90	4	3	0	distractor	1	640	13.328	13.293	13.364
ProbeTrack8	5	ProbeTrack	1415	SCS215b	733745.539334	733745.546006	8	0.013328	60	10	60-180	60	179	GapExp	0	91	4	0	0	distractor	1	707	13.328	13.293	13.367
ProbeTrack8	5	ProbeTrack	1415	SCS215b	733745.539334	733745.546083	8	0.013328	60	10	60-180	60	159	GapExp	0	92	4	6	0	distractor	1	560	13.328	13.293	13.363
ProbeTrack8	5	ProbeTrack	1415	SCS215b	733745.539334	733745.546158	8	0.013328	60	10	60-180	60	92	GapExp	0	93	4	0	1	target	1	827	13.328	13.293	13.363
ProbeTrack8	5	ProbeTrack	1415	SCS215b	733745.539334	733745.546226	8	0.013328	60	10	60-180	60	79	GapExp	0	94	4	6	0	distractor	1	693	13.328	13.293	13.363
ProbeTrack8	5	ProbeTrack	1415	SCS215b	733745.539334	733745.546291	8	0.013328	60	10	60-180	60	67	GapExp	0	95	4	96	1	distractor	0	653	13.328	13.293	13.364
ProbeTrack8	5	ProbeTrack	1415	SCS215b	733745.539334	733745.546366	8	0.013328	60	10	60-180	60	159	GapExp	0	96	4	96	0	distractor	1	733	13.328	13.292	13.363
ProbeTrack8	5	ProbeTrack	1415	SCS215b	733745.539334	733745.546666	8	0.013328	60	10	60-180	60	107	GapExp	0	97	4	0	1	distractor	0	813	13.328	13.293	13.366
ProbeTrack8	5	ProbeTrack	1415	SCS215b	733745.539334	733745.546735	8	0.013328	60	10	60-180	60	179	GapExp	0	98	4	3	1	target	1	547	13.328	13.293	13.363
ProbeTrack8	5	ProbeTrack	1415	SCS215b	733745.539334	733745.546819	8	0.013328	60	10	60-180	60	65	GapExp	0	99	4	3	0	distractor	1	667	13.328	13.293	13.363
ProbeTrack8	5	ProbeTrack	1415	SCS215b	733745.539334	733745.546882	8	0.013328	60	10	60-180	60	84	GapExp	0	100	4	0	0	distractor	1	600	13.328	13.293	13.363
ProbeTrack8	5	ProbeTrack	1415	SCS215b	733745.539334	733745.546946	8	0.013328	60	10	60-180	60	83	GapExp	0	101	4	0	1	distractor	0	627	13.328	13.292	13.363
ProbeTrack8	5	ProbeTrack	1415	SCS215b	733745.539334	733745.547011	8	0.013328	60	10	60-180	60	160	GapExp	0	102	4	3	1	target	1	573	13.328	13.293	13.363
ProbeTrack8	5	ProbeTrack	1415	SCS215b	733745.539334	733745.547100	8	0.013328	60	10	60-180	60	98	GapExp	0	103	4	0	1	target	1	560	13.328	13.293	13.365
ProbeTrack8	5	ProbeTrack	1415	SCS215b	733745.539334	733745.547166	8	0.013328	60	10	60-180	60	136	GapExp	0	104	4	0	0	target	0	560	13.328	13.293	13.363
ProbeTrack8	5	ProbeTrack	1415	SCS215b	733745.539334	733745.547236	8	0.013328	60	10	60-180	60	99	GapExp	0	105	4	6	0	distractor	1	600	13.328	13.293	13.364
ProbeTrack8	5	ProbeTrack	1415	SCS215b	733745.539334	733745.547309	8	0.013328	60	10	60-180	60	138	GapExp	0	106	4	96	0	distractor	1	560	13.328	13.290	13.363
ProbeTrack8	5	ProbeTrack	1415	SCS215b	733745.539334	733745.547395	8	0.013328	60	10	60-180	60	84	GapExp	0	107	4	96	0	distractor	1	613	13.328	13.293	13.363
ProbeTrack8	5	ProbeTrack	1415	SCS215b	733745.539334	733745.547473	8	0.013328	60	10	60-180	60	168	GapExp	0	108	4	3	1	distractor	0	773	13.328	13.293	13.364
ProbeTrack8	5	ProbeTrack	1415	SCS215b	733745.539334	733745.547555	8	0.013328	60	10	60-180	60	123	GapExp	0	109	4	96	1	target	1	573	13.328	13.293	13.366
ProbeTrack8	5	ProbeTrack	1415	SCS215b	733745.539334	733745.547640	8	0.013328	60	10	60-180	60	91	GapExp	0	110	4	0	1	target	1	613	13.328	13.293	13.363
ProbeTrack8	5	ProbeTrack	1415	SCS215b	733745.539334	733745.547705	8	0.013328	60	10	60-180	60	76	GapExp	0	111	4	96	1	distractor	0	760	13.328	13.293	13.363
ProbeTrack8	5	ProbeTrack	1415	SCS215b	733745.539334	733745.547787	8	0.013328	60	10	60-180	60	131	GapExp	0	112	4	96	1	target	1	560	13.328	13.292	13.364
ProbeTrack8	5	ProbeTrack	1415	SCS215b	733745.539334	733745.547876	8	0.013328	60	10	60-180	60	117	GapExp	0	113	4	3	0	target	0	574	13.328	13.293	13.363
ProbeTrack8	5	ProbeTrack	1415	SCS215b	733745.539334	733745.547945	8	0.013328	60	10	60-180	60	103	GapExp	0	114	4	6	0	distractor	1	600	13.328	13.293	13.363
ProbeTrack8	5	ProbeTrack	1415	SCS215b	733745.539334	733745.548012	8	0.013328	60	10	60-180	60	158	GapExp	0	115	4	96	1	distractor	0	627	13.328	13.293	13.363
ProbeTrack8	5	ProbeTrack	1415	SCS215b	733745.539334	733745.548102	8	0.013328	60	10	60-180	60	80	GapExp	0	116	4	0	1	target	1	547	13.328	13.291	13.363
ProbeTrack8	5	ProbeTrack	1415	SCS215b	733745.539334	733745.548165	8	0.013328	60	10	60-180	60	145	GapExp	0	117	4	96	1	distractor	0	707	13.328	13.293	13.363
ProbeTrack8	5	ProbeTrack	1415	SCS215b	733745.539334	733745.548253	8	0.013328	60	10	60-180	60	95	GapExp	0	118	4	6	1	target	1	480	13.328	13.289	13.363
ProbeTrack8	5	ProbeTrack	1415	SCS215b	733745.539334	733745.548318	8	0.013328	60	10	60-180	60	175	GapExp	0	119	4	0	0	target	0	693	13.328	13.293	13.363
ProbeTrack8	5	ProbeTrack	1415	SCS215b	733745.539334	733745.548398	8	0.013328	60	10	60-180	60	153	GapExp	0	120	4	6	1	distractor	0	733	13.328	13.293	13.363
ProbeTrack8	5	ProbeTrack	1415	SCS215b	733745.539334	733745.548478	8	0.013328	60	10	60-180	60	139	GapExp	0	121	4	96	1	target	1	480	13.328	13.293	13.363
ProbeTrack8	5	ProbeTrack	1415	SCS215b	733745.539334	733745.548564	8	0.013328	60	10	60-180	60	137	GapExp	0	122	4	6	1	distractor	0	747	13.328	13.293	13.363
ProbeTrack8	5	ProbeTrack	1415	SCS215b	733745.539334	733745.548638	8	0.013328	60	10	60-180	60	80	GapExp	0	123	4	3	0	distractor	1	707	13.328	13.293	13.363
ProbeTrack8	5	ProbeTrack	1415	SCS215b	733745.539334	733745.548704	8	0.013328	60	10	60-180	60	138	GapExp	0	124	4	0	0	distractor	1	680	13.328	13.293	13.363
ProbeTrack8	5	ProbeTrack	1415	SCS215b	733745.539334	733745.548777	8	0.013328	60	10	60-180	60	97	GapExp	0	125	4	3	1	target	1	507	13.328	13.293	13.363
