exp	sub	code	rev	comp	runtime	trialtime	nstim	refreshdur	cuedur	gapdur	gapOnsetRange	durPostProbe	gapOnsetTime	blocktype	prac	trial	ntargets	soa	probeTarget	resp	acc	rt	meanFrameDur	minFrameDur	maxFrameDur
ProbeTrack8	3	ProbeTrack	1415	SCS215b	733733.456588	733733.457142	8	0.013328	60	0	60-180	60	119	NoGap	1	1	4	6	0	distractor	1	1026	13.328	13.293	13.363
ProbeTrack8	3	ProbeTrack	1415	SCS215b	733733.456588	733733.457319	8	0.013328	60	0	60-180	60	69	NoGap	1	2	4	3	0	distractor	1	853	13.328	13.293	13.363
ProbeTrack8	3	ProbeTrack	1415	SCS215b	733733.456588	733733.457408	8	0.013328	60	0	60-180	60	64	NoGap	1	3	4	6	0	distractor	1	560	13.328	13.293	13.363
ProbeTrack8	3	ProbeTrack	1415	SCS215b	733733.456588	733733.457597	8	0.013328	60	0	60-180	60	85	NoGap	1	4	4	0	1	target	1	893	13.328	13.293	13.363
ProbeTrack8	3	ProbeTrack	1415	SCS215b	733733.456588	733733.457669	8	0.013328	60	0	60-180	60	142	NoGap	1	5	4	3	0	distractor	1	587	13.328	13.290	13.364
ProbeTrack8	3	ProbeTrack	1415	SCS215b	733733.456588	733733.457744	8	0.013328	60	0	60-180	60	99	NoGap	1	6	4	3	1	target	1	760	13.328	13.292	13.363
ProbeTrack8	3	ProbeTrack	1415	SCS215b	733733.456588	733733.457810	8	0.013328	60	0	60-180	60	132	NoGap	1	7	4	96	1	distractor	0	600	13.328	13.293	13.363
ProbeTrack8	3	ProbeTrack	1415	SCS215b	733733.456588	733733.457903	8	0.013328	60	0	60-180	60	64	NoGap	1	8	4	0	1	target	1	653	13.328	13.293	13.363
ProbeTrack8	3	ProbeTrack	1415	SCS215b	733733.456588	733733.457967	8	0.013328	60	0	60-180	60	163	NoGap	1	9	4	0	0	distractor	1	560	13.328	13.293	13.363
ProbeTrack8	3	ProbeTrack	1415	SCS215b	733733.456588	733733.458045	8	0.013328	60	0	60-180	60	144	NoGap	1	10	4	0	0	distractor	1	787	13.328	13.293	13.363
ProbeTrack8	3	ProbeTrack	1415	SCS215b	733733.456588	733733.458123	8	0.013328	60	0	60-180	60	130	NoGap	1	11	4	96	1	target	1	680	13.328	13.293	13.363
ProbeTrack8	3	ProbeTrack	1415	SCS215b	733733.456588	733733.458213	8	0.013328	60	0	60-180	60	147	NoGap	1	12	4	96	1	distractor	0	587	13.328	13.293	13.368
ProbeTrack8	3	ProbeTrack	1415	SCS215b	733733.456588	733733.458307	8	0.013328	60	0	60-180	60	61	NoGap	1	13	4	0	1	target	1	653	13.328	13.293	13.363
ProbeTrack8	3	ProbeTrack	1415	SCS215b	733733.456588	733733.458385	8	0.013328	60	0	60-180	60	154	NoGap	1	14	4	6	1	target	1	520	13.328	13.293	13.363
ProbeTrack8	3	ProbeTrack	1415	SCS215b	733733.456588	733733.458462	8	0.013328	60	0	60-180	60	96	NoGap	1	15	4	0	0	distractor	1	747	13.328	13.293	13.363
ProbeTrack8	3	ProbeTrack	1415	SCS215b	733733.456588	733733.458533	8	0.013328	60	0	60-180	60	170	NoGap	1	16	4	0	0	distractor	1	1093	13.328	13.293	13.363
ProbeTrack8	3	ProbeTrack	1415	SCS215b	733733.456588	733733.458621	8	0.013328	60	0	60-180	60	178	NoGap	1	17	4	0	0	distractor	1	667	13.328	13.293	13.366
ProbeTrack8	3	ProbeTrack	1415	SCS215b	733733.456588	733733.458733	8	0.013328	60	0	60-180	60	173	NoGap	1	18	4	6	1	distractor	0	973	13.328	13.293	13.364
ProbeTrack8	3	ProbeTrack	1415	SCS215b	733733.456588	733733.458818	8	0.013328	60	0	60-180	60	114	NoGap	1	19	4	3	1	target	1	680	13.328	13.293	13.363
ProbeTrack8	3	ProbeTrack	1415	SCS215b	733733.456588	733733.458891	8	0.013328	60	0	60-180	60	143	NoGap	1	20	4	6	0	target	0	560	13.328	13.293	13.363
ProbeTrack8	3	ProbeTrack	1415	SCS215b	733733.456588	733733.458967	8	0.013328	60	0	60-180	60	78	NoGap	1	21	4	0	1	target	1	574	13.328	13.293	13.363
ProbeTrack8	3	ProbeTrack	1415	SCS215b	733733.456588	733733.459035	8	0.013328	60	0	60-180	60	164	NoGap	1	22	4	0	1	target	1	613	13.328	13.293	13.363
ProbeTrack8	3	ProbeTrack	1415	SCS215b	733733.456588	733733.459117	8	0.013328	60	0	60-180	60	165	NoGap	1	23	4	0	1	target	1	480	13.328	13.293	13.363
ProbeTrack8	3	ProbeTrack	1415	SCS215b	733733.456588	733733.459196	8	0.013328	60	0	60-180	60	112	NoGap	1	24	4	3	0	distractor	1	627	13.328	13.293	13.363
ProbeTrack8	3	ProbeTrack	1415	SCS215b	733733.456588	733733.459267	8	0.013328	60	0	60-180	60	81	NoGap	1	25	4	6	0	distractor	1	680	13.328	13.293	13.363
ProbeTrack8	3	ProbeTrack	1415	SCS215b	733733.456588	733733.459335	8	0.013328	60	0	60-180	60	114	NoGap	1	26	4	3	1	target	1	747	13.328	13.293	13.363
ProbeTrack8	3	ProbeTrack	1415	SCS215b	733733.456588	733733.459410	8	0.013328	60	0	60-180	60	133	NoGap	1	27	4	0	0	distractor	1	573	13.328	13.293	13.363
ProbeTrack8	3	ProbeTrack	1415	SCS215b	733733.456588	733733.459499	8	0.013328	60	0	60-180	60	82	NoGap	1	28	4	3	0	distractor	1	587	13.328	13.293	13.363
ProbeTrack8	3	ProbeTrack	1415	SCS215b	733733.456588	733733.459564	8	0.013328	60	0	60-180	60	88	NoGap	1	29	4	6	0	target	0	680	13.328	13.293	13.363
ProbeTrack8	3	ProbeTrack	1415	SCS215b	733733.456588	733733.459631	8	0.013328	60	0	60-180	60	172	NoGap	1	30	4	96	0	distractor	1	600	13.328	13.293	13.364
ProbeTrack8	3	ProbeTrack	1415	SCS215b	733733.456588	733733.459726	8	0.013328	60	0	60-180	60	63	NoGap	1	31	4	3	0	distractor	1	667	13.328	13.293	13.366
ProbeTrack8	3	ProbeTrack	1415	SCS215b	733733.456588	733733.459791	8	0.013328	60	0	60-180	60	124	NoGap	1	32	4	6	1	target	1	640	13.328	13.293	13.363
ProbeTrack8	3	ProbeTrack	1415	SCS215b	733733.456588	733733.459865	8	0.013328	60	0	60-180	60	61	NoGap	1	33	4	0	1	target	1	1013	13.328	13.293	13.363
ProbeTrack8	3	ProbeTrack	1415	SCS215b	733733.456588	733733.459931	8	0.013328	60	0	60-180	60	86	NoGap	1	34	4	6	1	target	1	667	13.328	13.293	13.363
ProbeTrack8	3	ProbeTrack	1415	SCS215b	733733.456588	733733.460000	8	0.013328	60	0	60-180	60	140	NoGap	1	35	4	96	1	distractor	0	613	13.328	13.293	13.364
ProbeTrack8	3	ProbeTrack	1415	SCS215b	733733.456588	733733.460091	8	0.013328	60	0	60-180	60	142	NoGap	1	36	4	96	1	target	1	680	13.328	13.293	13.363
ProbeTrack8	3	ProbeTrack	1415	SCS215b	733733.456588	733733.460180	8	0.013328	60	0	60-180	60	78	NoGap	1	37	4	3	1	target	1	560	13.328	13.293	13.363
ProbeTrack8	3	ProbeTrack	1415	SCS215b	733733.456588	733733.460244	8	0.013328	60	0	60-180	60	71	NoGap	1	38	4	96	0	distractor	1	627	13.328	13.289	13.363
ProbeTrack8	3	ProbeTrack	1415	SCS215b	733733.456588	733733.460321	8	0.013328	60	0	60-180	60	90	NoGap	1	39	4	96	1	target	1	547	13.328	13.293	13.363
ProbeTrack8	3	ProbeTrack	1415	SCS215b	733733.456588	733733.460400	8	0.013328	60	0	60-180	60	149	NoGap	1	40	4	3	1	target	1	573	13.328	13.293	13.363
ProbeTrack8	3	ProbeTrack	1415	SCS215b	733733.456588	733733.460473	8	0.013328	60	0	60-180	60	120	NoGap	1	41	4	3	0	distractor	1	600	13.328	13.292	13.365
ProbeTrack8	3	ProbeTrack	1415	SCS215b	733733.456588	733733.460544	8	0.013328	60	0	60-180	60	96	NoGap	1	42	4	96	0	distractor	1	520	13.328	13.293	13.366
ProbeTrack8	3	ProbeTrack	1415	SCS215b	733733.456588	733733.460625	8	0.013328	60	0	60-180	60	149	NoGap	1	43	4	3	1	target	1	560	13.328	13.293	13.363
ProbeTrack8	3	ProbeTrack	1415	SCS215b	733733.456588	733733.460701	8	0.013328	60	0	60-180	60	106	NoGap	1	44	4	6	0	distractor	1	1080	13.328	13.293	13.363
ProbeTrack8	3	ProbeTrack	1415	SCS215b	733733.456588	733733.460776	8	0.013328	60	0	60-180	60	156	NoGap	1	45	4	3	0	distractor	1	533	13.328	13.292	13.363
ProbeTrack8	3	ProbeTrack	1415	SCS215b	733733.456588	733733.460853	8	0.013328	60	0	60-180	60	86	NoGap	1	46	4	96	0	distractor	1	533	13.328	13.293	13.363
ProbeTrack8	3	ProbeTrack	1415	SCS215b	733733.456588	733733.460934	8	0.013328	60	0	60-180	60	113	NoGap	1	47	4	0	0	distractor	1	547	13.328	13.293	13.363
ProbeTrack8	3	ProbeTrack	1415	SCS215b	733733.456588	733733.461003	8	0.013328	60	0	60-180	60	128	NoGap	1	48	4	6	1	target	1	693	13.328	13.293	13.363
ProbeTrack8	3	ProbeTrack	1415	SCS215b	733733.456588	733733.461078	8	0.013328	60	0	60-180	60	162	NoGap	1	49	4	6	0	distractor	1	520	13.328	13.293	13.363
ProbeTrack8	3	ProbeTrack	1415	SCS215b	733733.456588	733733.461154	8	0.013328	60	0	60-180	60	77	NoGap	1	50	4	96	0	distractor	1	587	13.328	13.293	13.364
ProbeTrack8	3	ProbeTrack	1415	SCS215b	733733.461967	733733.462641	8	0.013327	60	10	60-180	60	153	GapPrac	1	1	2	0	1	target	1	747	13.328	13.292	13.363
ProbeTrack8	3	ProbeTrack	1415	SCS215b	733733.461967	733733.462737	8	0.013327	60	10	60-180	60	138	GapPrac	1	2	2	3	0	distractor	1	560	13.328	13.293	13.363
ProbeTrack8	3	ProbeTrack	1415	SCS215b	733733.461967	733733.462837	8	0.013327	60	10	60-180	60	82	GapPrac	1	3	2	3	1	target	1	547	13.328	13.293	13.363
ProbeTrack8	3	ProbeTrack	1415	SCS215b	733733.461967	733733.462904	8	0.013327	60	10	60-180	60	92	GapPrac	1	4	2	6	1	target	1	440	13.328	13.293	13.363
ProbeTrack8	3	ProbeTrack	1415	SCS215b	733733.461967	733733.462971	8	0.013327	60	10	60-180	60	82	GapPrac	1	5	2	3	0	distractor	1	547	13.328	13.293	13.363
ProbeTrack8	3	ProbeTrack	1415	SCS215b	733733.461967	733733.463038	8	0.013327	60	10	60-180	60	154	GapPrac	1	6	2	0	1	target	1	400	13.328	13.293	13.369
ProbeTrack8	3	ProbeTrack	1415	SCS215b	733733.461967	733733.463111	8	0.013327	60	10	60-180	60	86	GapPrac	1	7	2	96	1	target	1	680	13.328	13.293	13.364
ProbeTrack8	3	ProbeTrack	1415	SCS215b	733733.461967	733733.463196	8	0.013327	60	10	60-180	60	81	GapPrac	1	8	2	96	0	distractor	1	1186	13.328	13.293	13.363
ProbeTrack8	3	ProbeTrack	1415	SCS215b	733733.461967	733733.463285	8	0.013327	60	10	60-180	60	118	GapPrac	1	9	2	6	1	target	1	467	13.328	13.293	13.363
ProbeTrack8	3	ProbeTrack	1415	SCS215b	733733.461967	733733.463357	8	0.013327	60	10	60-180	60	172	GapPrac	1	10	2	0	0	distractor	1	467	13.328	13.289	13.363
ProbeTrack8	3	ProbeTrack	1415	SCS215b	733733.461967	733733.463436	8	0.013327	60	10	60-180	60	132	GapPrac	1	11	2	6	1	target	1	480	13.328	13.291	13.363
ProbeTrack8	3	ProbeTrack	1415	SCS215b	733733.461967	733733.463511	8	0.013327	60	10	60-180	60	74	GapPrac	1	12	2	3	0	distractor	1	467	13.328	13.293	13.363
ProbeTrack8	3	ProbeTrack	1415	SCS215b	733733.461967	733733.463573	8	0.013327	60	10	60-180	60	119	GapPrac	1	13	2	3	1	target	1	387	13.328	13.293	13.363
ProbeTrack8	3	ProbeTrack	1415	SCS215b	733733.461967	733733.463644	8	0.013327	60	10	60-180	60	158	GapPrac	1	14	2	6	0	distractor	1	454	13.328	13.293	13.366
ProbeTrack8	3	ProbeTrack	1415	SCS215b	733733.461967	733733.463722	8	0.013327	60	10	60-180	60	63	GapPrac	1	15	2	96	1	target	1	467	13.328	13.293	13.366
ProbeTrack8	3	ProbeTrack	1415	SCS215b	733733.461967	733733.463799	8	0.013327	60	10	60-180	60	65	GapPrac	1	16	2	0	0	distractor	1	613	13.328	13.293	13.363
ProbeTrack8	3	ProbeTrack	1415	SCS215b	733733.461967	733733.463864	8	0.013327	60	10	60-180	60	135	GapPrac	1	17	2	3	1	target	1	454	13.328	13.293	13.363
ProbeTrack8	3	ProbeTrack	1415	SCS215b	733733.461967	733733.463938	8	0.013327	60	10	60-180	60	132	GapPrac	1	18	2	0	1	target	1	414	13.328	13.293	13.363
ProbeTrack8	3	ProbeTrack	1415	SCS215b	733733.461967	733733.464016	8	0.013327	60	10	60-180	60	91	GapPrac	1	19	2	96	0	target	0	467	13.328	13.290	13.363
ProbeTrack8	3	ProbeTrack	1415	SCS215b	733733.461967	733733.464098	8	0.013327	60	10	60-180	60	88	GapPrac	1	20	2	6	0	distractor	1	614	13.328	13.293	13.363
ProbeTrack8	3	ProbeTrack	1415	SCS215b	733733.464788	733733.464993	8	0.013327	60	10	60-180	60	139	GapExp	1	1	2	6	1	target	1	573	13.328	13.293	13.363
ProbeTrack8	3	ProbeTrack	1415	SCS215b	733733.464788	733733.465082	8	0.013327	60	10	60-180	60	69	GapExp	1	2	2	0	1	target	1	507	13.328	13.290	13.363
ProbeTrack8	3	ProbeTrack	1415	SCS215b	733733.464788	733733.465144	8	0.013327	60	10	60-180	60	74	GapExp	1	3	2	3	0	distractor	1	760	13.328	13.293	13.363
ProbeTrack8	3	ProbeTrack	1415	SCS215b	733733.464788	733733.465211	8	0.013327	60	10	60-180	60	103	GapExp	1	4	2	96	1	distractor	0	507	13.328	13.293	13.363
ProbeTrack8	3	ProbeTrack	1415	SCS215b	733733.464788	733733.465295	8	0.013327	60	10	60-180	60	151	GapExp	1	5	2	6	0	distractor	1	547	13.328	13.293	13.363
ProbeTrack8	3	ProbeTrack	1415	SCS215b	733733.464788	733733.465372	8	0.013327	60	10	60-180	60	68	GapExp	0	6	2	96	0	distractor	1	453	13.328	13.289	13.367
ProbeTrack8	3	ProbeTrack	1415	SCS215b	733733.464788	733733.465450	8	0.013327	60	10	60-180	60	119	GapExp	0	7	2	0	1	target	1	440	13.328	13.293	13.363
ProbeTrack8	3	ProbeTrack	1415	SCS215b	733733.464788	733733.465520	8	0.013327	60	10	60-180	60	70	GapExp	0	8	2	3	1	target	1	414	13.328	13.293	13.363
ProbeTrack8	3	ProbeTrack	1415	SCS215b	733733.464788	733733.465583	8	0.013327	60	10	60-180	60	81	GapExp	0	9	2	3	1	target	1	360	13.328	13.293	13.363
ProbeTrack8	3	ProbeTrack	1415	SCS215b	733733.464788	733733.465645	8	0.013327	60	10	60-180	60	83	GapExp	0	10	2	0	1	target	1	440	13.328	13.293	13.363
ProbeTrack8	3	ProbeTrack	1415	SCS215b	733733.464788	733733.465723	8	0.013327	60	10	60-180	60	107	GapExp	0	11	2	3	0	distractor	1	507	13.328	13.293	13.363
ProbeTrack8	3	ProbeTrack	1415	SCS215b	733733.464788	733733.465792	8	0.013327	60	10	60-180	60	74	GapExp	0	12	2	0	1	target	1	374	13.328	13.293	13.364
ProbeTrack8	3	ProbeTrack	1415	SCS215b	733733.464788	733733.465854	8	0.013327	60	10	60-180	60	121	GapExp	0	13	2	3	0	distractor	1	427	13.328	13.291	13.363
ProbeTrack8	3	ProbeTrack	1415	SCS215b	733733.464788	733733.465926	8	0.013327	60	10	60-180	60	134	GapExp	0	14	2	96	1	target	1	453	13.328	13.293	13.363
ProbeTrack8	3	ProbeTrack	1415	SCS215b	733733.464788	733733.466016	8	0.013327	60	10	60-180	60	137	GapExp	0	15	2	96	1	target	1	413	13.328	13.293	13.363
ProbeTrack8	3	ProbeTrack	1415	SCS215b	733733.464788	733733.466103	8	0.013327	60	10	60-180	60	141	GapExp	0	16	2	96	1	target	1	453	13.328	13.293	13.363
ProbeTrack8	3	ProbeTrack	1415	SCS215b	733733.464788	733733.466191	8	0.013327	60	10	60-180	60	124	GapExp	0	17	2	0	0	distractor	1	573	13.328	13.293	13.363
ProbeTrack8	3	ProbeTrack	1415	SCS215b	733733.464788	733733.466262	8	0.013327	60	10	60-180	60	158	GapExp	0	18	2	3	0	distractor	1	547	13.328	13.290	13.365
ProbeTrack8	3	ProbeTrack	1415	SCS215b	733733.464788	733733.466340	8	0.013327	60	10	60-180	60	146	GapExp	0	19	2	6	1	target	1	520	13.328	13.290	13.365
ProbeTrack8	3	ProbeTrack	1415	SCS215b	733733.464788	733733.466415	8	0.013327	60	10	60-180	60	95	GapExp	0	20	2	96	0	distractor	1	947	13.328	13.293	13.363
ProbeTrack8	3	ProbeTrack	1415	SCS215b	733733.464788	733733.466502	8	0.013327	60	10	60-180	60	152	GapExp	0	21	2	3	0	distractor	1	480	13.328	13.293	13.363
ProbeTrack8	3	ProbeTrack	1415	SCS215b	733733.464788	733733.466578	8	0.013327	60	10	60-180	60	167	GapExp	0	22	2	3	1	target	1	440	13.328	13.289	13.366
ProbeTrack8	3	ProbeTrack	1415	SCS215b	733733.464788	733733.466658	8	0.013327	60	10	60-180	60	145	GapExp	0	23	2	6	1	target	1	347	13.328	13.293	13.363
ProbeTrack8	3	ProbeTrack	1415	SCS215b	733733.464788	733733.466732	8	0.013327	60	10	60-180	60	89	GapExp	0	24	2	96	0	distractor	1	760	13.328	13.293	13.363
ProbeTrack8	3	ProbeTrack	1415	SCS215b	733733.464788	733733.466814	8	0.013327	60	10	60-180	60	106	GapExp	0	25	2	96	1	target	1	440	13.328	13.293	13.363
ProbeTrack8	3	ProbeTrack	1415	SCS215b	733733.464788	733733.466897	8	0.013327	60	10	60-180	60	106	GapExp	0	26	2	0	1	target	1	413	13.328	13.293	13.363
ProbeTrack8	3	ProbeTrack	1415	SCS215b	733733.464788	733733.466963	8	0.013327	60	10	60-180	60	119	GapExp	0	27	2	6	0	distractor	1	427	13.328	13.293	13.366
ProbeTrack8	3	ProbeTrack	1415	SCS215b	733733.464788	733733.467035	8	0.013327	60	10	60-180	60	132	GapExp	0	28	2	96	1	distractor	0	480	13.328	13.293	13.363
ProbeTrack8	3	ProbeTrack	1415	SCS215b	733733.464788	733733.467123	8	0.013327	60	10	60-180	60	86	GapExp	0	29	2	3	0	distractor	1	600	13.328	13.293	13.363
ProbeTrack8	3	ProbeTrack	1415	SCS215b	733733.464788	733733.467191	8	0.013327	60	10	60-180	60	178	GapExp	0	30	2	6	0	distractor	1	507	13.328	13.293	13.363
ProbeTrack8	3	ProbeTrack	1415	SCS215b	733733.464788	733733.467272	8	0.013327	60	10	60-180	60	132	GapExp	0	31	2	6	1	target	1	387	13.328	13.293	13.363
ProbeTrack8	3	ProbeTrack	1415	SCS215b	733733.464788	733733.467344	8	0.013327	60	10	60-180	60	131	GapExp	0	32	2	3	1	distractor	0	427	13.328	13.293	13.363
ProbeTrack8	3	ProbeTrack	1415	SCS215b	733733.464788	733733.467416	8	0.013327	60	10	60-180	60	104	GapExp	0	33	2	0	0	distractor	1	627	13.328	13.289	13.363
ProbeTrack8	3	ProbeTrack	1415	SCS215b	733733.464788	733733.467488	8	0.013327	60	10	60-180	60	172	GapExp	0	34	2	0	0	distractor	1	560	13.328	13.293	13.363
ProbeTrack8	3	ProbeTrack	1415	SCS215b	733733.464788	733733.467566	8	0.013327	60	10	60-180	60	169	GapExp	0	35	2	3	1	target	1	480	13.328	13.293	13.365
ProbeTrack8	3	ProbeTrack	1415	SCS215b	733733.464788	733733.467646	8	0.013327	60	10	60-180	60	130	GapExp	0	36	2	96	1	target	1	347	13.328	13.293	13.363
ProbeTrack8	3	ProbeTrack	1415	SCS215b	733733.464788	733733.467732	8	0.013327	60	10	60-180	60	75	GapExp	0	37	2	3	0	distractor	1	520	13.328	13.293	13.364
ProbeTrack8	3	ProbeTrack	1415	SCS215b	733733.464788	733733.467797	8	0.013327	60	10	60-180	60	176	GapExp	0	38	2	0	1	target	1	427	13.328	13.293	13.363
ProbeTrack8	3	ProbeTrack	1415	SCS215b	733733.464788	733733.467875	8	0.013327	60	10	60-180	60	139	GapExp	0	39	2	0	0	distractor	1	720	13.328	13.293	13.364
ProbeTrack8	3	ProbeTrack	1415	SCS215b	733733.464788	733733.467950	8	0.013327	60	10	60-180	60	123	GapExp	0	40	2	96	0	target	0	400	13.328	13.289	13.367
ProbeTrack8	3	ProbeTrack	1415	SCS215b	733733.464788	733733.468035	8	0.013327	60	10	60-180	60	158	GapExp	0	41	2	96	0	distractor	1	533	13.328	13.293	13.363
ProbeTrack8	3	ProbeTrack	1415	SCS215b	733733.464788	733733.468125	8	0.013327	60	10	60-180	60	98	GapExp	0	42	2	6	1	target	1	413	13.328	13.293	13.363
ProbeTrack8	3	ProbeTrack	1415	SCS215b	733733.464788	733733.468190	8	0.013327	60	10	60-180	60	92	GapExp	0	43	2	96	1	target	1	347	13.328	13.293	13.363
ProbeTrack8	3	ProbeTrack	1415	SCS215b	733733.464788	733733.468272	8	0.013327	60	10	60-180	60	133	GapExp	0	44	2	0	0	distractor	1	613	13.328	13.293	13.366
ProbeTrack8	3	ProbeTrack	1415	SCS215b	733733.464788	733733.468346	8	0.013327	60	10	60-180	60	165	GapExp	0	45	2	3	1	target	1	414	13.328	13.293	13.363
ProbeTrack8	3	ProbeTrack	1415	SCS215b	733733.464788	733733.468422	8	0.013327	60	10	60-180	60	156	GapExp	0	46	2	6	1	target	1	480	13.328	13.289	13.363
ProbeTrack8	3	ProbeTrack	1415	SCS215b	733733.464788	733733.468499	8	0.013327	60	10	60-180	60	176	GapExp	0	47	2	6	0	distractor	1	627	13.328	13.293	13.363
ProbeTrack8	3	ProbeTrack	1415	SCS215b	733733.464788	733733.468581	8	0.013327	60	10	60-180	60	78	GapExp	0	48	2	6	0	distractor	1	933	13.328	13.289	13.366
ProbeTrack8	3	ProbeTrack	1415	SCS215b	733733.464788	733733.468652	8	0.013327	60	10	60-180	60	162	GapExp	0	49	2	96	0	distractor	1	560	13.328	13.293	13.363
ProbeTrack8	3	ProbeTrack	1415	SCS215b	733733.464788	733733.468747	8	0.013327	60	10	60-180	60	102	GapExp	0	50	2	3	1	target	1	453	13.328	13.292	13.363
ProbeTrack8	3	ProbeTrack	1415	SCS215b	733733.464788	733733.468815	8	0.013327	60	10	60-180	60	125	GapExp	0	51	2	6	0	distractor	1	520	13.328	13.293	13.363
ProbeTrack8	3	ProbeTrack	1415	SCS215b	733733.464788	733733.468887	8	0.013327	60	10	60-180	60	70	GapExp	0	52	2	3	0	distractor	1	613	13.328	13.293	13.363
ProbeTrack8	3	ProbeTrack	1415	SCS215b	733733.464788	733733.468952	8	0.013327	60	10	60-180	60	89	GapExp	0	53	2	6	1	target	1	387	13.328	13.293	13.362
ProbeTrack8	3	ProbeTrack	1415	SCS215b	733733.464788	733733.469017	8	0.013327	60	10	60-180	60	99	GapExp	0	54	2	96	0	distractor	1	600	13.328	13.293	13.363
ProbeTrack8	3	ProbeTrack	1415	SCS215b	733733.464788	733733.469102	8	0.013327	60	10	60-180	60	128	GapExp	0	55	2	96	1	target	1	413	13.328	13.293	13.363
ProbeTrack8	3	ProbeTrack	1415	SCS215b	733733.464788	733733.469186	8	0.013327	60	10	60-180	60	112	GapExp	0	56	2	0	0	distractor	1	440	13.328	13.293	13.364
ProbeTrack8	3	ProbeTrack	1415	SCS215b	733733.464788	733733.469255	8	0.013327	60	10	60-180	60	66	GapExp	0	57	2	6	1	target	1	400	13.328	13.293	13.363
ProbeTrack8	3	ProbeTrack	1415	SCS215b	733733.464788	733733.469316	8	0.013327	60	10	60-180	60	98	GapExp	0	58	2	3	0	distractor	1	400	13.328	13.293	13.363
ProbeTrack8	3	ProbeTrack	1415	SCS215b	733733.464788	733733.469384	8	0.013327	60	10	60-180	60	146	GapExp	0	59	2	0	0	distractor	1	520	13.328	13.289	13.367
ProbeTrack8	3	ProbeTrack	1415	SCS215b	733733.464788	733733.469458	8	0.013327	60	10	60-180	60	109	GapExp	0	60	2	6	0	distractor	1	454	13.328	13.293	13.364
ProbeTrack8	3	ProbeTrack	1415	SCS215b	733733.464788	733733.469527	8	0.013327	60	10	60-180	60	169	GapExp	0	61	2	0	0	distractor	1	493	13.328	13.288	13.367
ProbeTrack8	3	ProbeTrack	1415	SCS215b	733733.464788	733733.469604	8	0.013327	60	10	60-180	60	89	GapExp	0	62	2	0	0	distractor	1	427	13.328	13.111	13.546
ProbeTrack8	3	ProbeTrack	1415	SCS215b	733733.464788	733733.469670	8	0.013327	60	10	60-180	60	114	GapExp	0	63	2	0	0	distractor	1	400	13.328	13.292	13.363
ProbeTrack8	3	ProbeTrack	1415	SCS215b	733733.464788	733733.469737	8	0.013327	60	10	60-180	60	76	GapExp	0	64	2	6	0	target	0	560	13.328	13.293	13.366
ProbeTrack8	3	ProbeTrack	1415	SCS215b	733733.464788	733733.469801	8	0.013327	60	10	60-180	60	170	GapExp	0	65	2	96	0	distractor	1	480	13.328	13.292	13.366
ProbeTrack8	3	ProbeTrack	1415	SCS215b	733733.464788	733733.469895	8	0.013327	60	10	60-180	60	103	GapExp	0	66	2	6	0	distractor	1	587	13.328	13.293	13.363
ProbeTrack8	3	ProbeTrack	1415	SCS215b	733733.464788	733733.469965	8	0.013327	60	10	60-180	60	128	GapExp	0	67	2	0	1	distractor	0	1120	13.328	13.293	13.364
ProbeTrack8	3	ProbeTrack	1415	SCS215b	733733.464788	733733.470044	8	0.013327	60	10	60-180	60	69	GapExp	0	68	2	3	0	distractor	1	667	13.328	13.293	13.363
ProbeTrack8	3	ProbeTrack	1415	SCS215b	733733.464788	733733.470109	8	0.013327	60	10	60-180	60	167	GapExp	0	69	2	3	1	target	1	400	13.328	13.293	13.363
ProbeTrack8	3	ProbeTrack	1415	SCS215b	733733.464788	733733.470187	8	0.013327	60	10	60-180	60	64	GapExp	0	70	2	0	1	target	1	493	13.328	13.293	13.363
ProbeTrack8	3	ProbeTrack	1415	SCS215b	733733.464788	733733.470249	8	0.013327	60	10	60-180	60	146	GapExp	0	71	2	96	0	distractor	1	613	13.328	13.293	13.364
ProbeTrack8	3	ProbeTrack	1415	SCS215b	733733.464788	733733.470340	8	0.013327	60	10	60-180	60	134	GapExp	0	72	2	6	1	target	1	347	13.328	13.293	13.363
ProbeTrack8	3	ProbeTrack	1415	SCS215b	733733.464788	733733.470413	8	0.013327	60	10	60-180	60	102	GapExp	0	73	2	0	1	target	1	440	13.328	13.293	13.363
ProbeTrack8	3	ProbeTrack	1415	SCS215b	733733.464788	733733.470482	8	0.013327	60	10	60-180	60	92	GapExp	0	74	2	3	1	target	1	387	13.328	13.291	13.364
ProbeTrack8	3	ProbeTrack	1415	SCS215b	733733.464788	733733.470547	8	0.013327	60	10	60-180	60	86	GapExp	0	75	2	6	0	target	0	627	13.328	13.293	13.363
ProbeTrack8	3	ProbeTrack	1415	SCS215b	733733.464788	733733.470615	8	0.013327	60	10	60-180	60	129	GapExp	0	76	2	0	1	target	1	667	13.328	13.293	13.363
ProbeTrack8	3	ProbeTrack	1415	SCS215b	733733.464788	733733.470690	8	0.013327	60	10	60-180	60	160	GapExp	0	77	2	96	1	target	1	520	13.328	13.293	13.364
ProbeTrack8	3	ProbeTrack	1415	SCS215b	733733.464788	733733.470784	8	0.013327	60	10	60-180	60	113	GapExp	0	78	2	6	1	target	1	440	13.328	13.293	13.363
ProbeTrack8	3	ProbeTrack	1415	SCS215b	733733.464788	733733.470855	8	0.013327	60	10	60-180	60	166	GapExp	0	79	2	3	0	distractor	1	467	13.328	13.293	13.363
ProbeTrack8	3	ProbeTrack	1415	SCS215b	733733.464788	733733.470935	8	0.013327	60	10	60-180	60	85	GapExp	0	80	2	3	0	distractor	1	493	13.328	13.293	13.363
ProbeTrack8	3	ProbeTrack	1415	SCS215b	733733.464788	733733.471002	8	0.013327	60	10	60-180	60	65	GapExp	0	81	2	6	0	distractor	1	533	13.328	13.293	13.363
ProbeTrack8	3	ProbeTrack	1415	SCS215b	733733.464788	733733.471069	8	0.013327	60	10	60-180	60	93	GapExp	0	82	2	96	1	target	1	733	13.328	13.292	13.365
ProbeTrack8	3	ProbeTrack	1415	SCS215b	733733.464788	733733.471154	8	0.013327	60	10	60-180	60	116	GapExp	0	83	2	96	1	target	1	454	13.328	13.293	13.363
ProbeTrack8	3	ProbeTrack	1415	SCS215b	733733.464788	733733.471245	8	0.013327	60	10	60-180	60	179	GapExp	0	84	2	96	0	target	0	573	13.328	13.293	13.363
ProbeTrack8	3	ProbeTrack	1415	SCS215b	733733.464788	733733.471341	8	0.013327	60	10	60-180	60	178	GapExp	0	85	2	3	1	target	1	493	13.328	13.292	13.364
ProbeTrack8	3	ProbeTrack	1415	SCS215b	733733.464788	733733.471419	8	0.013327	60	10	60-180	60	159	GapExp	0	86	2	3	1	target	1	440	13.328	13.292	13.364
ProbeTrack8	3	ProbeTrack	1415	SCS215b	733733.464788	733733.471495	8	0.013327	60	10	60-180	60	119	GapExp	0	87	2	96	1	target	1	547	13.328	13.290	13.364
ProbeTrack8	3	ProbeTrack	1415	SCS215b	733733.464788	733733.471585	8	0.013327	60	10	60-180	60	84	GapExp	0	88	2	3	0	distractor	1	973	13.328	13.293	13.363
ProbeTrack8	3	ProbeTrack	1415	SCS215b	733733.464788	733733.471657	8	0.013327	60	10	60-180	60	125	GapExp	0	89	2	6	0	distractor	1	533	13.328	13.293	13.363
ProbeTrack8	3	ProbeTrack	1415	SCS215b	733733.464788	733733.471730	8	0.013327	60	10	60-180	60	125	GapExp	0	90	2	6	1	target	1	533	13.328	13.293	13.366
ProbeTrack8	3	ProbeTrack	1415	SCS215b	733733.464788	733733.471802	8	0.013327	60	10	60-180	60	78	GapExp	0	91	2	0	0	distractor	1	587	13.328	13.292	13.364
ProbeTrack8	3	ProbeTrack	1415	SCS215b	733733.464788	733733.471870	8	0.013327	60	10	60-180	60	127	GapExp	0	92	2	0	1	target	1	360	13.328	13.291	13.363
ProbeTrack8	3	ProbeTrack	1415	SCS215b	733733.464788	733733.471940	8	0.013327	60	10	60-180	60	126	GapExp	0	93	2	6	1	target	1	413	13.328	13.293	13.363
ProbeTrack8	3	ProbeTrack	1415	SCS215b	733733.464788	733733.472012	8	0.013327	60	10	60-180	60	89	GapExp	0	94	2	96	0	distractor	1	507	13.328	13.293	13.363
ProbeTrack8	3	ProbeTrack	1415	SCS215b	733733.464788	733733.472094	8	0.013327	60	10	60-180	60	74	GapExp	0	95	2	96	1	target	1	440	13.328	13.293	13.363
ProbeTrack8	3	ProbeTrack	1415	SCS215b	733733.464788	733733.472175	8	0.013327	60	10	60-180	60	99	GapExp	0	96	2	3	1	target	1	347	13.328	13.293	13.366
ProbeTrack8	3	ProbeTrack	1415	SCS215b	733733.464788	733733.472242	8	0.013327	60	10	60-180	60	128	GapExp	0	97	2	0	0	distractor	1	480	13.328	13.293	13.363
ProbeTrack8	3	ProbeTrack	1415	SCS215b	733733.464788	733733.472315	8	0.013327	60	10	60-180	60	93	GapExp	0	98	2	6	1	target	1	374	13.328	13.293	13.363
ProbeTrack8	3	ProbeTrack	1415	SCS215b	733733.464788	733733.472380	8	0.013327	60	10	60-180	60	94	GapExp	0	99	2	3	1	target	1	400	13.328	13.293	13.363
ProbeTrack8	3	ProbeTrack	1415	SCS215b	733733.464788	733733.472447	8	0.013327	60	10	60-180	60	173	GapExp	0	100	2	3	1	target	1	520	13.328	13.293	13.364
ProbeTrack8	3	ProbeTrack	1415	SCS215b	733733.464788	733733.472527	8	0.013327	60	10	60-180	60	111	GapExp	0	101	2	96	0	distractor	1	547	13.328	13.293	13.363
ProbeTrack8	3	ProbeTrack	1415	SCS215b	733733.464788	733733.472614	8	0.013327	60	10	60-180	60	104	GapExp	0	102	2	96	0	distractor	1	454	13.328	13.291	13.363
ProbeTrack8	3	ProbeTrack	1415	SCS215b	733733.464788	733733.472702	8	0.013327	60	10	60-180	60	107	GapExp	0	103	2	0	1	target	1	493	13.328	13.293	13.366
ProbeTrack8	3	ProbeTrack	1415	SCS215b	733733.464788	733733.472769	8	0.013327	60	10	60-180	60	112	GapExp	0	104	2	6	1	target	1	360	13.328	13.293	13.367
ProbeTrack8	3	ProbeTrack	1415	SCS215b	733733.464788	733733.472862	8	0.013327	60	10	60-180	60	84	GapExp	0	105	2	3	0	distractor	1	480	13.328	13.293	13.363
ProbeTrack8	3	ProbeTrack	1415	SCS215b	733733.464788	733733.472926	8	0.013327	60	10	60-180	60	135	GapExp	0	106	2	6	0	distractor	1	400	13.328	13.291	13.366
ProbeTrack8	3	ProbeTrack	1415	SCS215b	733733.464788	733733.473000	8	0.013327	60	10	60-180	60	144	GapExp	0	107	2	6	0	distractor	1	440	13.328	13.293	13.363
ProbeTrack8	3	ProbeTrack	1415	SCS215b	733733.464788	733733.473075	8	0.013327	60	10	60-180	60	87	GapExp	0	108	2	6	0	distractor	1	520	13.328	13.293	13.363
ProbeTrack8	3	ProbeTrack	1415	SCS215b	733733.464788	733733.473150	8	0.013327	60	10	60-180	60	109	GapExp	0	109	2	6	1	target	1	400	13.328	13.293	13.363
ProbeTrack8	3	ProbeTrack	1415	SCS215b	733733.464788	733733.473218	8	0.013327	60	10	60-180	60	157	GapExp	0	110	2	96	1	target	1	640	13.328	13.293	13.363
ProbeTrack8	3	ProbeTrack	1415	SCS215b	733733.464788	733733.473313	8	0.013327	60	10	60-180	60	100	GapExp	0	111	2	0	0	distractor	1	440	13.328	13.293	13.363
ProbeTrack8	3	ProbeTrack	1415	SCS215b	733733.464788	733733.473380	8	0.013327	60	10	60-180	60	171	GapExp	0	112	2	96	0	target	0	1000	13.328	13.293	13.363
ProbeTrack8	3	ProbeTrack	1415	SCS215b	733733.464788	733733.473479	8	0.013327	60	10	60-180	60	81	GapExp	0	113	2	6	1	target	1	453	13.328	13.293	13.363
ProbeTrack8	3	ProbeTrack	1415	SCS215b	733733.464788	733733.473543	8	0.013327	60	10	60-180	60	75	GapExp	0	114	2	0	0	distractor	1	493	13.328	13.293	13.363
ProbeTrack8	3	ProbeTrack	1415	SCS215b	733733.464788	733733.473608	8	0.013327	60	10	60-180	60	103	GapExp	0	115	2	3	1	target	1	347	13.328	13.293	13.363
ProbeTrack8	3	ProbeTrack	1415	SCS215b	733733.464788	733733.473675	8	0.013327	60	10	60-180	60	180	GapExp	0	116	2	6	0	distractor	1	427	13.328	13.286	13.370
ProbeTrack8	3	ProbeTrack	1415	SCS215b	733733.464788	733733.473757	8	0.013327	60	10	60-180	60	113	GapExp	0	117	2	0	1	target	1	440	13.328	13.293	13.363
ProbeTrack8	3	ProbeTrack	1415	SCS215b	733733.464788	733733.473825	8	0.013327	60	10	60-180	60	131	GapExp	0	118	2	0	1	target	1	560	13.328	13.293	13.363
ProbeTrack8	3	ProbeTrack	1415	SCS215b	733733.464788	733733.473898	8	0.013327	60	10	60-180	60	145	GapExp	0	119	2	96	1	target	1	440	13.328	13.293	13.363
ProbeTrack8	3	ProbeTrack	1415	SCS215b	733733.464788	733733.473987	8	0.013327	60	10	60-180	60	145	GapExp	0	120	2	0	1	target	1	413	13.328	13.293	13.363
ProbeTrack8	3	ProbeTrack	1415	SCS215b	733733.464788	733733.474060	8	0.013327	60	10	60-180	60	133	GapExp	0	121	2	0	1	target	1	334	13.328	13.293	13.363
ProbeTrack8	3	ProbeTrack	1415	SCS215b	733733.464788	733733.474133	8	0.013327	60	10	60-180	60	163	GapExp	0	122	2	96	0	distractor	1	453	13.328	13.293	13.363
ProbeTrack8	3	ProbeTrack	1415	SCS215b	733733.464788	733733.474243	8	0.013327	60	10	60-180	60	98	GapExp	0	123	2	3	0	target	0	414	13.328	13.293	13.363
ProbeTrack8	3	ProbeTrack	1415	SCS215b	733733.464788	733733.474310	8	0.013327	60	10	60-180	60	136	GapExp	0	124	2	0	0	distractor	1	480	13.328	13.293	13.363
ProbeTrack8	3	ProbeTrack	1415	SCS215b	733733.464788	733733.474385	8	0.013327	60	10	60-180	60	65	GapExp	0	125	2	3	0	distractor	1	493	13.328	13.293	13.367
ProbeTrack8	3	ProbeTrack	1415	SCS215b	733733.475362	733733.475638	8	0.013323	60	10	60-180	60	93	GapPrac	1	1	4	3	0	target	0	533	13.328	13.293	13.363
ProbeTrack8	3	ProbeTrack	1415	SCS215b	733733.475362	733733.475727	8	0.013323	60	10	60-180	60	167	GapPrac	1	2	4	6	0	distractor	1	440	13.328	13.293	13.363
ProbeTrack8	3	ProbeTrack	1415	SCS215b	733733.475362	733733.475807	8	0.013323	60	10	60-180	60	159	GapPrac	1	3	4	96	1	target	1	493	13.328	13.293	13.363
ProbeTrack8	3	ProbeTrack	1415	SCS215b	733733.475362	733733.475897	8	0.013323	60	10	60-180	60	116	GapPrac	1	4	4	0	1	target	1	347	13.328	13.293	13.363
ProbeTrack8	3	ProbeTrack	1415	SCS215b	733733.475362	733733.475965	8	0.013323	60	10	60-180	60	116	GapPrac	1	5	4	0	0	distractor	1	533	13.328	13.293	13.363
ProbeTrack8	3	ProbeTrack	1415	SCS215b	733733.475362	733733.476034	8	0.013323	60	10	60-180	60	140	GapPrac	1	6	4	96	1	target	1	427	13.328	13.293	13.367
ProbeTrack8	3	ProbeTrack	1415	SCS215b	733733.475362	733733.476123	8	0.013323	60	10	60-180	60	178	GapPrac	1	7	4	6	1	target	1	360	13.328	13.293	13.364
ProbeTrack8	3	ProbeTrack	1415	SCS215b	733733.475362	733733.476200	8	0.013323	60	10	60-180	60	176	GapPrac	1	8	4	96	0	distractor	1	547	13.328	13.293	13.363
ProbeTrack8	3	ProbeTrack	1415	SCS215b	733733.475362	733733.476294	8	0.013323	60	10	60-180	60	168	GapPrac	1	9	4	96	0	distractor	1	507	13.328	13.292	13.363
ProbeTrack8	3	ProbeTrack	1415	SCS215b	733733.475362	733733.476388	8	0.013323	60	10	60-180	60	98	GapPrac	1	10	4	6	1	distractor	0	573	13.328	13.293	13.363
ProbeTrack8	3	ProbeTrack	1415	SCS215b	733733.475362	733733.476458	8	0.013323	60	10	60-180	60	105	GapPrac	1	11	4	3	0	distractor	1	560	13.328	13.293	13.364
ProbeTrack8	3	ProbeTrack	1415	SCS215b	733733.475362	733733.476535	8	0.013323	60	10	60-180	60	166	GapPrac	1	12	4	0	1	target	1	480	13.328	13.293	13.364
ProbeTrack8	3	ProbeTrack	1415	SCS215b	733733.475362	733733.476613	8	0.013323	60	10	60-180	60	107	GapPrac	1	13	4	6	0	distractor	1	547	13.328	13.293	13.363
ProbeTrack8	3	ProbeTrack	1415	SCS215b	733733.475362	733733.476683	8	0.013323	60	10	60-180	60	105	GapPrac	1	14	4	0	0	distractor	1	480	13.328	13.293	13.363
ProbeTrack8	3	ProbeTrack	1415	SCS215b	733733.475362	733733.476751	8	0.013323	60	10	60-180	60	88	GapPrac	1	15	4	96	1	target	1	427	13.328	13.293	13.363
ProbeTrack8	3	ProbeTrack	1415	SCS215b	733733.475362	733733.476829	8	0.013323	60	10	60-180	60	97	GapPrac	1	16	4	3	1	target	1	414	13.328	13.293	13.363
ProbeTrack8	3	ProbeTrack	1415	SCS215b	733733.475362	733733.476894	8	0.013323	60	10	60-180	60	157	GapPrac	1	17	4	0	1	target	1	507	13.328	13.292	13.367
ProbeTrack8	3	ProbeTrack	1415	SCS215b	733733.475362	733733.476970	8	0.013323	60	10	60-180	60	108	GapPrac	1	18	4	3	0	distractor	1	493	13.328	13.293	13.363
ProbeTrack8	3	ProbeTrack	1415	SCS215b	733733.475362	733733.477041	8	0.013323	60	10	60-180	60	165	GapPrac	1	19	4	6	0	distractor	1	493	13.328	13.293	13.363
ProbeTrack8	3	ProbeTrack	1415	SCS215b	733733.475362	733733.477119	8	0.013323	60	10	60-180	60	142	GapPrac	1	20	4	3	1	target	1	360	13.328	13.293	13.363
ProbeTrack8	3	ProbeTrack	1415	SCS215b	733733.477558	733733.477724	8	0.013328	60	10	60-180	60	171	GapExp	1	1	4	6	0	distractor	1	413	13.328	13.293	13.363
ProbeTrack8	3	ProbeTrack	1415	SCS215b	733733.477558	733733.477833	8	0.013328	60	10	60-180	60	88	GapExp	1	2	4	96	1	target	1	680	13.328	13.293	13.363
ProbeTrack8	3	ProbeTrack	1415	SCS215b	733733.477558	733733.477914	8	0.013328	60	10	60-180	60	142	GapExp	1	3	4	0	0	distractor	1	453	13.328	13.293	13.363
ProbeTrack8	3	ProbeTrack	1415	SCS215b	733733.477558	733733.477987	8	0.013328	60	10	60-180	60	115	GapExp	1	4	4	3	0	distractor	1	520	13.328	13.293	13.363
ProbeTrack8	3	ProbeTrack	1415	SCS215b	733733.477558	733733.478056	8	0.013328	60	10	60-180	60	159	GapExp	1	5	4	96	0	target	0	533	13.328	13.293	13.363
ProbeTrack8	3	ProbeTrack	1415	SCS215b	733733.477558	733733.478146	8	0.013328	60	10	60-180	60	87	GapExp	0	6	4	3	1	target	1	387	13.328	13.293	13.363
ProbeTrack8	3	ProbeTrack	1415	SCS215b	733733.477558	733733.478207	8	0.013328	60	10	60-180	60	92	GapExp	0	7	4	0	1	target	1	440	13.328	13.293	13.363
ProbeTrack8	3	ProbeTrack	1415	SCS215b	733733.477558	733733.478273	8	0.013328	60	10	60-180	60	132	GapExp	0	8	4	6	1	target	1	413	13.328	13.293	13.363
ProbeTrack8	3	ProbeTrack	1415	SCS215b	733733.477558	733733.478344	8	0.013328	60	10	60-180	60	113	GapExp	0	9	4	0	1	target	1	467	13.328	13.292	13.363
ProbeTrack8	3	ProbeTrack	1415	SCS215b	733733.477558	733733.478411	8	0.013328	60	10	60-180	60	125	GapExp	0	10	4	3	0	distractor	1	520	13.328	13.293	13.363
ProbeTrack8	3	ProbeTrack	1415	SCS215b	733733.477558	733733.478483	8	0.013328	60	10	60-180	60	128	GapExp	0	11	4	3	1	target	1	347	13.328	13.293	13.363
ProbeTrack8	3	ProbeTrack	1415	SCS215b	733733.477558	733733.478554	8	0.013328	60	10	60-180	60	82	GapExp	0	12	4	6	1	target	1	467	13.328	13.292	13.363
ProbeTrack8	3	ProbeTrack	1415	SCS215b	733733.477558	733733.478619	8	0.013328	60	10	60-180	60	122	GapExp	0	13	4	6	0	distractor	1	413	13.328	13.293	13.363
ProbeTrack8	3	ProbeTrack	1415	SCS215b	733733.477558	733733.478690	8	0.013328	60	10	60-180	60	119	GapExp	0	14	4	3	1	target	1	507	13.328	13.293	13.363
ProbeTrack8	3	ProbeTrack	1415	SCS215b	733733.477558	733733.478758	8	0.013328	60	10	60-180	60	71	GapExp	0	15	4	0	1	target	1	440	13.328	13.293	13.363
ProbeTrack8	3	ProbeTrack	1415	SCS215b	733733.477558	733733.478822	8	0.013328	60	10	60-180	60	115	GapExp	0	16	4	6	0	distractor	1	413	13.328	13.293	13.363
ProbeTrack8	3	ProbeTrack	1415	SCS215b	733733.477558	733733.478893	8	0.013328	60	10	60-180	60	144	GapExp	0	17	4	0	0	distractor	1	520	13.328	13.293	13.363
ProbeTrack8	3	ProbeTrack	1415	SCS215b	733733.477558	733733.478966	8	0.013328	60	10	60-180	60	152	GapExp	0	18	4	0	0	distractor	1	533	13.328	13.293	13.363
ProbeTrack8	3	ProbeTrack	1415	SCS215b	733733.477558	733733.479041	8	0.013328	60	10	60-180	60	171	GapExp	0	19	4	0	0	distractor	1	520	13.328	13.293	13.363
ProbeTrack8	3	ProbeTrack	1415	SCS215b	733733.477558	733733.479119	8	0.013328	60	10	60-180	60	141	GapExp	0	20	4	3	0	distractor	1	467	13.328	13.293	13.363
ProbeTrack8	3	ProbeTrack	1415	SCS215b	733733.477558	733733.479193	8	0.013328	60	10	60-180	60	120	GapExp	0	21	4	96	0	distractor	1	520	13.328	13.293	13.363
ProbeTrack8	3	ProbeTrack	1415	SCS215b	733733.477558	733733.479279	8	0.013328	60	10	60-180	60	90	GapExp	0	22	4	3	0	distractor	1	573	13.328	13.293	13.363
ProbeTrack8	3	ProbeTrack	1415	SCS215b	733733.477558	733733.479344	8	0.013328	60	10	60-180	60	96	GapExp	0	23	4	6	1	target	1	347	13.328	13.293	13.367
ProbeTrack8	3	ProbeTrack	1415	SCS215b	733733.477558	733733.479409	8	0.013328	60	10	60-180	60	62	GapExp	0	24	4	6	1	target	1	427	13.328	13.293	13.363
ProbeTrack8	3	ProbeTrack	1415	SCS215b	733733.477558	733733.479471	8	0.013328	60	10	60-180	60	117	GapExp	0	25	4	3	0	distractor	1	467	13.328	13.292	13.363
ProbeTrack8	3	ProbeTrack	1415	SCS215b	733733.477558	733733.479540	8	0.013328	60	10	60-180	60	135	GapExp	0	26	4	0	0	distractor	1	427	13.328	13.293	13.362
ProbeTrack8	3	ProbeTrack	1415	SCS215b	733733.477558	733733.479610	8	0.013328	60	10	60-180	60	128	GapExp	0	27	4	96	1	target	1	467	13.328	13.293	13.363
ProbeTrack8	3	ProbeTrack	1415	SCS215b	733733.477558	733733.479697	8	0.013328	60	10	60-180	60	164	GapExp	0	28	4	3	0	distractor	1	840	13.328	13.292	13.364
ProbeTrack8	3	ProbeTrack	1415	SCS215b	733733.477558	733733.479783	8	0.013328	60	10	60-180	60	180	GapExp	0	29	4	96	1	target	1	440	13.328	13.293	13.363
ProbeTrack8	3	ProbeTrack	1415	SCS215b	733733.477558	733733.479877	8	0.013328	60	10	60-180	60	79	GapExp	0	30	4	0	0	distractor	1	667	13.328	13.293	13.363
ProbeTrack8	3	ProbeTrack	1415	SCS215b	733733.477558	733733.479942	8	0.013328	60	10	60-180	60	178	GapExp	0	31	4	3	0	distractor	1	427	13.328	13.293	13.364
ProbeTrack8	3	ProbeTrack	1415	SCS215b	733733.477558	733733.480022	8	0.013328	60	10	60-180	60	134	GapExp	0	32	4	96	1	target	1	387	13.328	13.293	13.363
ProbeTrack8	3	ProbeTrack	1415	SCS215b	733733.477558	733733.480109	8	0.013328	60	10	60-180	60	149	GapExp	0	33	4	6	1	target	1	347	13.328	13.293	13.363
ProbeTrack8	3	ProbeTrack	1415	SCS215b	733733.477558	733733.480185	8	0.013328	60	10	60-180	60	66	GapExp	0	34	4	6	1	target	1	480	13.328	13.293	13.363
ProbeTrack8	3	ProbeTrack	1415	SCS215b	733733.477558	733733.480247	8	0.013328	60	10	60-180	60	144	GapExp	0	35	4	96	0	distractor	1	493	13.328	13.293	13.363
ProbeTrack8	3	ProbeTrack	1415	SCS215b	733733.477558	733733.480335	8	0.013328	60	10	60-180	60	83	GapExp	0	36	4	3	1	target	1	320	13.328	13.293	13.363
ProbeTrack8	3	ProbeTrack	1415	SCS215b	733733.477558	733733.480400	8	0.013328	60	10	60-180	60	61	GapExp	0	37	4	3	1	target	1	414	13.328	13.293	13.363
ProbeTrack8	3	ProbeTrack	1415	SCS215b	733733.477558	733733.480462	8	0.013328	60	10	60-180	60	123	GapExp	0	38	4	3	0	distractor	1	547	13.328	13.293	13.364
ProbeTrack8	3	ProbeTrack	1415	SCS215b	733733.477558	733733.480532	8	0.013328	60	10	60-180	60	145	GapExp	0	39	4	0	0	target	0	387	13.328	13.293	13.363
ProbeTrack8	3	ProbeTrack	1415	SCS215b	733733.477558	733733.480605	8	0.013328	60	10	60-180	60	177	GapExp	0	40	4	0	1	target	1	347	13.328	13.293	13.363
ProbeTrack8	3	ProbeTrack	1415	SCS215b	733733.477558	733733.480683	8	0.013328	60	10	60-180	60	146	GapExp	0	41	4	0	1	distractor	0	387	13.328	13.293	13.363
ProbeTrack8	3	ProbeTrack	1415	SCS215b	733733.477558	733733.480758	8	0.013328	60	10	60-180	60	84	GapExp	0	42	4	0	1	target	1	374	13.328	13.292	13.364
ProbeTrack8	3	ProbeTrack	1415	SCS215b	733733.477558	733733.480820	8	0.013328	60	10	60-180	60	107	GapExp	0	43	4	96	1	target	1	414	13.328	13.293	13.363
ProbeTrack8	3	ProbeTrack	1415	SCS215b	733733.477558	733733.480903	8	0.013328	60	10	60-180	60	95	GapExp	0	44	4	96	0	target	0	640	13.328	13.293	13.363
ProbeTrack8	3	ProbeTrack	1415	SCS215b	733733.477558	733733.480985	8	0.013328	60	10	60-180	60	73	GapExp	0	45	4	96	0	distractor	1	467	13.328	13.293	13.363
ProbeTrack8	3	ProbeTrack	1415	SCS215b	733733.477558	733733.481064	8	0.013328	60	10	60-180	60	114	GapExp	0	46	4	96	0	distractor	1	560	13.328	13.293	13.367
ProbeTrack8	3	ProbeTrack	1415	SCS215b	733733.477558	733733.481151	8	0.013328	60	10	60-180	60	113	GapExp	0	47	4	96	1	target	1	613	13.328	13.293	13.365
ProbeTrack8	3	ProbeTrack	1415	SCS215b	733733.477558	733733.481236	8	0.013328	60	10	60-180	60	145	GapExp	0	48	4	0	1	target	1	440	13.328	13.293	13.363
ProbeTrack8	3	ProbeTrack	1415	SCS215b	733733.477558	733733.481309	8	0.013328	60	10	60-180	60	108	GapExp	0	49	4	3	0	distractor	1	467	13.328	13.293	13.363
ProbeTrack8	3	ProbeTrack	1415	SCS215b	733733.477558	733733.481377	8	0.013328	60	10	60-180	60	161	GapExp	0	50	4	6	1	target	1	440	13.328	13.293	13.366
ProbeTrack8	3	ProbeTrack	1415	SCS215b	733733.477558	733733.481454	8	0.013328	60	10	60-180	60	62	GapExp	0	51	4	6	1	target	1	413	13.328	13.293	13.364
ProbeTrack8	3	ProbeTrack	1415	SCS215b	733733.477558	733733.481514	8	0.013328	60	10	60-180	60	98	GapExp	0	52	4	0	0	distractor	1	573	13.328	13.293	13.363
ProbeTrack8	3	ProbeTrack	1415	SCS215b	733733.477558	733733.481583	8	0.013328	60	10	60-180	60	167	GapExp	0	53	4	0	0	target	0	533	13.328	13.293	13.363
ProbeTrack8	3	ProbeTrack	1415	SCS215b	733733.477558	733733.481664	8	0.013328	60	10	60-180	60	78	GapExp	0	54	4	0	0	distractor	1	493	13.328	13.293	13.363
ProbeTrack8	3	ProbeTrack	1415	SCS215b	733733.477558	733733.481740	8	0.013328	60	10	60-180	60	144	GapExp	0	55	4	3	0	distractor	1	467	13.328	13.289	13.363
ProbeTrack8	3	ProbeTrack	1415	SCS215b	733733.477558	733733.481814	8	0.013328	60	10	60-180	60	171	GapExp	0	56	4	6	0	target	0	1173	13.328	13.293	13.363
ProbeTrack8	3	ProbeTrack	1415	SCS215b	733733.477558	733733.481902	8	0.013328	60	10	60-180	60	139	GapExp	0	57	4	96	1	target	1	440	13.328	13.292	13.364
ProbeTrack8	3	ProbeTrack	1415	SCS215b	733733.477558	733733.481989	8	0.013328	60	10	60-180	60	137	GapExp	0	58	4	0	0	distractor	1	480	13.328	13.293	13.363
ProbeTrack8	3	ProbeTrack	1415	SCS215b	733733.477558	733733.482062	8	0.013328	60	10	60-180	60	119	GapExp	0	59	4	3	0	distractor	1	493	13.328	13.293	13.363
ProbeTrack8	3	ProbeTrack	1415	SCS215b	733733.477558	733733.482133	8	0.013328	60	10	60-180	60	127	GapExp	0	60	4	3	1	target	1	507	13.328	13.293	13.363
ProbeTrack8	3	ProbeTrack	1415	SCS215b	733733.477558	733733.482206	8	0.013328	60	10	60-180	60	111	GapExp	0	61	4	0	1	target	1	467	13.328	13.290	13.363
ProbeTrack8	3	ProbeTrack	1415	SCS215b	733733.477558	733733.482274	8	0.013328	60	10	60-180	60	156	GapExp	0	62	4	96	0	distractor	1	627	13.328	13.293	13.363
ProbeTrack8	3	ProbeTrack	1415	SCS215b	733733.477558	733733.482369	8	0.013328	60	10	60-180	60	63	GapExp	0	63	4	6	0	distractor	1	560	13.328	13.293	13.363
ProbeTrack8	3	ProbeTrack	1415	SCS215b	733733.477558	733733.482433	8	0.013328	60	10	60-180	60	161	GapExp	0	64	4	3	0	distractor	1	427	13.328	13.293	13.364
ProbeTrack8	3	ProbeTrack	1415	SCS215b	733733.477558	733733.482510	8	0.013328	60	10	60-180	60	68	GapExp	0	65	4	0	1	target	1	573	13.328	13.293	13.363
ProbeTrack8	3	ProbeTrack	1415	SCS215b	733733.477558	733733.482575	8	0.013328	60	10	60-180	60	87	GapExp	0	66	4	96	0	distractor	1	453	13.328	13.293	13.363
ProbeTrack8	3	ProbeTrack	1415	SCS215b	733733.477558	733733.482654	8	0.013328	60	10	60-180	60	149	GapExp	0	67	4	96	0	target	0	587	13.328	13.293	13.364
ProbeTrack8	3	ProbeTrack	1415	SCS215b	733733.477558	733733.482746	8	0.013328	60	10	60-180	60	115	GapExp	0	68	4	0	0	distractor	1	520	13.328	13.292	13.363
ProbeTrack8	3	ProbeTrack	1415	SCS215b	733733.477558	733733.482817	8	0.013328	60	10	60-180	60	113	GapExp	0	69	4	96	0	target	0	867	13.328	13.293	13.363
ProbeTrack8	3	ProbeTrack	1415	SCS215b	733733.477558	733733.482907	8	0.013328	60	10	60-180	60	161	GapExp	0	70	4	6	0	distractor	1	640	13.328	13.292	13.363
ProbeTrack8	3	ProbeTrack	1415	SCS215b	733733.477558	733733.482988	8	0.013328	60	10	60-180	60	102	GapExp	0	71	4	3	0	distractor	1	453	13.328	13.293	13.363
ProbeTrack8	3	ProbeTrack	1415	SCS215b	733733.477558	733733.483058	8	0.013328	60	10	60-180	60	117	GapExp	0	72	4	6	1	distractor	0	933	13.328	13.293	13.363
ProbeTrack8	3	ProbeTrack	1415	SCS215b	733733.477558	733733.483133	8	0.013328	60	10	60-180	60	159	GapExp	0	73	4	6	0	distractor	1	533	13.328	13.293	13.363
ProbeTrack8	3	ProbeTrack	1415	SCS215b	733733.477558	733733.483212	8	0.013328	60	10	60-180	60	106	GapExp	0	74	4	6	0	distractor	1	507	13.328	13.290	13.363
ProbeTrack8	3	ProbeTrack	1415	SCS215b	733733.477558	733733.483290	8	0.013328	60	10	60-180	60	179	GapExp	0	75	4	96	1	target	1	573	13.328	13.293	13.363
ProbeTrack8	3	ProbeTrack	1415	SCS215b	733733.477558	733733.483386	8	0.013328	60	10	60-180	60	115	GapExp	0	76	4	0	1	target	1	947	13.328	13.293	13.363
ProbeTrack8	3	ProbeTrack	1415	SCS215b	733733.477558	733733.483461	8	0.013328	60	10	60-180	60	177	GapExp	0	77	4	96	0	distractor	1	560	13.328	13.293	13.363
ProbeTrack8	3	ProbeTrack	1415	SCS215b	733733.477558	733733.483557	8	0.013328	60	10	60-180	60	148	GapExp	0	78	4	3	1	target	1	520	13.328	13.293	13.364
ProbeTrack8	3	ProbeTrack	1415	SCS215b	733733.477558	733733.483632	8	0.013328	60	10	60-180	60	171	GapExp	0	79	4	96	0	distractor	1	560	13.328	13.293	13.366
ProbeTrack8	3	ProbeTrack	1415	SCS215b	733733.477558	733733.483727	8	0.013328	60	10	60-180	60	175	GapExp	0	80	4	96	1	target	1	613	13.328	13.293	13.363
ProbeTrack8	3	ProbeTrack	1415	SCS215b	733733.477558	733733.483824	8	0.013328	60	10	60-180	60	137	GapExp	0	81	4	3	1	target	1	427	13.328	13.293	13.363
ProbeTrack8	3	ProbeTrack	1415	SCS215b	733733.477558	733733.483896	8	0.013328	60	10	60-180	60	92	GapExp	0	82	4	6	0	distractor	1	493	13.328	13.293	13.363
ProbeTrack8	3	ProbeTrack	1415	SCS215b	733733.477558	733733.483965	8	0.013328	60	10	60-180	60	149	GapExp	0	83	4	0	1	target	1	440	13.328	13.293	13.363
ProbeTrack8	3	ProbeTrack	1415	SCS215b	733733.477558	733733.484040	8	0.013328	60	10	60-180	60	166	GapExp	0	84	4	0	1	target	1	427	13.328	13.293	13.363
ProbeTrack8	3	ProbeTrack	1415	SCS215b	733733.477558	733733.484116	8	0.013328	60	10	60-180	60	91	GapExp	0	85	4	96	1	target	1	507	13.328	13.293	13.363
ProbeTrack8	3	ProbeTrack	1415	SCS215b	733733.477558	733733.484196	8	0.013328	60	10	60-180	60	180	GapExp	0	86	4	96	1	target	1	427	13.328	13.293	13.363
ProbeTrack8	3	ProbeTrack	1415	SCS215b	733733.477558	733733.484291	8	0.013328	60	10	60-180	60	158	GapExp	0	87	4	96	1	target	1	400	13.328	13.290	13.363
ProbeTrack8	3	ProbeTrack	1415	SCS215b	733733.477558	733733.484400	8	0.013328	60	10	60-180	60	81	GapExp	0	88	4	0	0	distractor	1	533	13.328	13.293	13.363
ProbeTrack8	3	ProbeTrack	1415	SCS215b	733733.477558	733733.484472	8	0.013328	60	10	60-180	60	170	GapExp	0	89	4	3	1	target	1	480	13.328	13.293	13.363
ProbeTrack8	3	ProbeTrack	1415	SCS215b	733733.477558	733733.484553	8	0.013328	60	10	60-180	60	132	GapExp	0	90	4	96	0	distractor	1	600	13.328	13.293	13.363
ProbeTrack8	3	ProbeTrack	1415	SCS215b	733733.477558	733733.484643	8	0.013328	60	10	60-180	60	147	GapExp	0	91	4	6	0	distractor	1	493	13.328	13.293	13.363
ProbeTrack8	3	ProbeTrack	1415	SCS215b	733733.477558	733733.484719	8	0.013328	60	10	60-180	60	180	GapExp	0	92	4	0	0	distractor	1	707	13.328	13.293	13.363
ProbeTrack8	3	ProbeTrack	1415	SCS215b	733733.477558	733733.484803	8	0.013328	60	10	60-180	60	90	GapExp	0	93	4	3	0	distractor	1	600	13.328	13.293	13.363
ProbeTrack8	3	ProbeTrack	1415	SCS215b	733733.477558	733733.484872	8	0.013328	60	10	60-180	60	80	GapExp	0	94	4	6	0	target	0	680	13.328	13.293	13.363
ProbeTrack8	3	ProbeTrack	1415	SCS215b	733733.477558	733733.484941	8	0.013328	60	10	60-180	60	138	GapExp	0	95	4	0	1	distractor	0	613	13.328	13.293	13.363
ProbeTrack8	3	ProbeTrack	1415	SCS215b	733733.477558	733733.485032	8	0.013328	60	10	60-180	60	146	GapExp	0	96	4	6	0	distractor	1	427	13.328	13.291	13.363
ProbeTrack8	3	ProbeTrack	1415	SCS215b	733733.477558	733733.485106	8	0.013328	60	10	60-180	60	159	GapExp	0	97	4	96	0	target	0	787	13.328	13.293	13.364
ProbeTrack8	3	ProbeTrack	1415	SCS215b	733733.477558	733733.485202	8	0.013328	60	10	60-180	60	149	GapExp	0	98	4	96	1	target	1	387	13.328	13.293	13.363
ProbeTrack8	3	ProbeTrack	1415	SCS215b	733733.477558	733733.486008	8	0.013328	60	10	60-180	60	92	GapExp	0	99	4	6	1	target	1	427	13.328	13.293	13.363
ProbeTrack8	3	ProbeTrack	1415	SCS215b	733733.477558	733733.486073	8	0.013328	60	10	60-180	60	145	GapExp	0	100	4	0	1	distractor	0	347	13.328	13.293	13.364
ProbeTrack8	3	ProbeTrack	1415	SCS215b	733733.477558	733733.486147	8	0.013328	60	10	60-180	60	131	GapExp	0	101	4	3	0	distractor	1	467	13.328	13.293	13.363
ProbeTrack8	3	ProbeTrack	1415	SCS215b	733733.477558	733733.486223	8	0.013328	60	10	60-180	60	140	GapExp	0	102	4	96	0	distractor	1	547	13.328	13.292	13.363
ProbeTrack8	3	ProbeTrack	1415	SCS215b	733733.477558	733733.486313	8	0.013328	60	10	60-180	60	149	GapExp	0	103	4	96	1	target	1	640	13.328	13.293	13.363
ProbeTrack8	3	ProbeTrack	1415	SCS215b	733733.477558	733733.486405	8	0.013328	60	10	60-180	60	127	GapExp	0	104	4	3	1	target	1	547	13.328	13.293	13.363
ProbeTrack8	3	ProbeTrack	1415	SCS215b	733733.477558	733733.486476	8	0.013328	60	10	60-180	60	145	GapExp	0	105	4	6	0	distractor	1	507	13.328	13.293	13.364
ProbeTrack8	3	ProbeTrack	1415	SCS215b	733733.477558	733733.486550	8	0.013328	60	10	60-180	60	64	GapExp	0	106	4	6	1	target	1	427	13.328	13.293	13.363
ProbeTrack8	3	ProbeTrack	1415	SCS215b	733733.477558	733733.486610	8	0.013328	60	10	60-180	60	150	GapExp	0	107	4	6	0	distractor	1	400	13.328	13.293	13.363
ProbeTrack8	3	ProbeTrack	1415	SCS215b	733733.477558	733733.486685	8	0.013328	60	10	60-180	60	137	GapExp	0	108	4	3	1	target	1	453	13.328	13.293	13.363
ProbeTrack8	3	ProbeTrack	1415	SCS215b	733733.477558	733733.486760	8	0.013328	60	10	60-180	60	97	GapExp	0	109	4	6	1	target	1	413	13.328	13.293	13.364
ProbeTrack8	3	ProbeTrack	1415	SCS215b	733733.477558	733733.486826	8	0.013328	60	10	60-180	60	74	GapExp	0	110	4	3	1	target	1	440	13.328	13.293	13.363
ProbeTrack8	3	ProbeTrack	1415	SCS215b	733733.477558	733733.486927	8	0.013328	60	10	60-180	60	91	GapExp	0	111	4	6	1	target	1	400	13.328	13.293	13.363
ProbeTrack8	3	ProbeTrack	1415	SCS215b	733733.477558	733733.486992	8	0.013328	60	10	60-180	60	65	GapExp	0	112	4	96	1	target	1	400	13.328	13.293	13.363
ProbeTrack8	3	ProbeTrack	1415	SCS215b	733733.477558	733733.487069	8	0.013328	60	10	60-180	60	68	GapExp	0	113	4	3	1	target	1	400	13.328	13.293	13.363
ProbeTrack8	3	ProbeTrack	1415	SCS215b	733733.477558	733733.487129	8	0.013328	60	10	60-180	60	175	GapExp	0	114	4	0	0	distractor	1	533	13.328	13.293	13.363
ProbeTrack8	3	ProbeTrack	1415	SCS215b	733733.477558	733733.487210	8	0.013328	60	10	60-180	60	64	GapExp	0	115	4	6	1	target	1	400	13.328	13.293	13.363
ProbeTrack8	3	ProbeTrack	1415	SCS215b	733733.477558	733733.487271	8	0.013328	60	10	60-180	60	151	GapExp	0	116	4	0	1	target	1	427	13.328	13.291	13.363
ProbeTrack8	3	ProbeTrack	1415	SCS215b	733733.477558	733733.487347	8	0.013328	60	10	60-180	60	110	GapExp	0	117	4	3	0	distractor	1	533	13.328	13.293	13.363
ProbeTrack8	3	ProbeTrack	1415	SCS215b	733733.477558	733733.487417	8	0.013328	60	10	60-180	60	148	GapExp	0	118	4	3	1	target	1	374	13.328	13.292	13.363
ProbeTrack8	3	ProbeTrack	1415	SCS215b	733733.477558	733733.487491	8	0.013328	60	10	60-180	60	150	GapExp	0	119	4	0	0	distractor	1	560	13.328	13.292	13.364
ProbeTrack8	3	ProbeTrack	1415	SCS215b	733733.477558	733733.487566	8	0.013328	60	10	60-180	60	64	GapExp	0	120	4	6	1	target	1	414	13.328	13.293	13.364
ProbeTrack8	3	ProbeTrack	1415	SCS215b	733733.477558	733733.487628	8	0.013328	60	10	60-180	60	99	GapExp	0	121	4	96	0	target	0	440	13.328	13.293	13.363
ProbeTrack8	3	ProbeTrack	1415	SCS215b	733733.477558	733733.487709	8	0.013328	60	10	60-180	60	164	GapExp	0	122	4	3	1	distractor	0	360	13.328	13.293	13.363
ProbeTrack8	3	ProbeTrack	1415	SCS215b	733733.477558	733733.487786	8	0.013328	60	10	60-180	60	119	GapExp	0	123	4	6	0	target	0	840	13.328	13.293	13.363
ProbeTrack8	3	ProbeTrack	1415	SCS215b	733733.477558	733733.487860	8	0.013328	60	10	60-180	60	106	GapExp	0	124	4	6	0	target	0	600	13.328	13.292	13.363
ProbeTrack8	3	ProbeTrack	1415	SCS215b	733733.477558	733733.487930	8	0.013328	60	10	60-180	60	128	GapExp	0	125	4	96	1	target	1	573	13.328	13.293	13.363
