exp	sub	code	rev	comp	runtime	trialtime	nstim	refreshdur	cuedur	gapdur	gapOnsetRange	durPostProbe	gapOnsetTime	blocktype	prac	trial	ntargets	soa	probeTarget	resp	acc	rt	meanFrameDur	minFrameDur	maxFrameDur
ProbeTrack8	20	ProbeTrack	1415	SCS215b	733807.549098	733807.549888	8	0.013328	60	0	60-180	60	73	NoGap	1	1	4	0	1	distractor	0	3226	13.328	13.293	13.363
ProbeTrack8	20	ProbeTrack	1415	SCS215b	733807.549098	733807.550007	8	0.013328	60	0	60-180	60	170	NoGap	1	2	4	96	0	target	0	493	13.328	13.293	13.367
ProbeTrack8	20	ProbeTrack	1415	SCS215b	733807.549098	733807.550107	8	0.013328	60	0	60-180	60	145	NoGap	1	3	4	6	0	distractor	1	7051	13.328	13.293	13.363
ProbeTrack8	20	ProbeTrack	1415	SCS215b	733807.549098	733807.550268	8	0.013328	60	0	60-180	60	176	NoGap	1	4	4	0	0	distractor	1	760	13.328	13.293	13.363
ProbeTrack8	20	ProbeTrack	1415	SCS215b	733807.549098	733807.550377	8	0.013328	60	0	60-180	60	178	NoGap	1	5	4	96	1	target	1	747	13.328	13.293	13.363
ProbeTrack8	20	ProbeTrack	1415	SCS215b	733807.549098	733807.550493	8	0.013328	60	0	60-180	60	76	NoGap	1	6	4	3	1	distractor	0	587	13.328	13.293	13.363
ProbeTrack8	20	ProbeTrack	1415	SCS215b	733807.549098	733807.550771	8	0.013328	60	0	60-180	60	162	NoGap	1	7	4	6	1	distractor	0	667	13.328	13.293	13.363
ProbeTrack8	20	ProbeTrack	1415	SCS215b	733807.549098	733807.550850	8	0.013328	60	0	60-180	60	117	NoGap	1	8	4	3	0	distractor	1	853	13.328	13.290	13.363
ProbeTrack8	20	ProbeTrack	1415	SCS215b	733807.549098	733807.550951	8	0.013328	60	0	60-180	60	64	NoGap	1	9	4	0	0	distractor	1	813	13.328	13.293	13.363
ProbeTrack8	20	ProbeTrack	1415	SCS215b	733807.549098	733807.551085	8	0.013328	60	0	60-180	60	120	NoGap	1	10	4	0	1	distractor	0	813	13.328	13.293	13.363
ProbeTrack8	20	ProbeTrack	1415	SCS215b	733807.549098	733807.551168	8	0.013328	60	0	60-180	60	79	NoGap	1	11	4	96	1	target	1	893	13.328	13.289	13.363
ProbeTrack8	20	ProbeTrack	1415	SCS215b	733807.549098	733807.551255	8	0.013328	60	0	60-180	60	80	NoGap	1	12	4	96	1	target	1	1106	13.328	13.292	13.363
ProbeTrack8	20	ProbeTrack	1415	SCS215b	733807.549098	733807.551346	8	0.013328	60	0	60-180	60	133	NoGap	1	13	4	0	0	distractor	1	813	13.328	13.293	13.363
ProbeTrack8	20	ProbeTrack	1415	SCS215b	733807.549098	733807.551427	8	0.013328	60	0	60-180	60	130	NoGap	1	14	4	96	1	distractor	0	733	13.328	13.293	13.363
ProbeTrack8	20	ProbeTrack	1415	SCS215b	733807.549098	733807.551530	8	0.013328	60	0	60-180	60	146	NoGap	1	15	4	3	0	distractor	1	1680	13.328	13.293	13.363
ProbeTrack8	20	ProbeTrack	1415	SCS215b	733807.549098	733807.551618	8	0.013328	60	0	60-180	60	172	NoGap	1	16	4	6	0	target	0	1546	13.328	13.290	13.366
ProbeTrack8	20	ProbeTrack	1415	SCS215b	733807.549098	733807.551712	8	0.013328	60	0	60-180	60	160	NoGap	1	17	4	3	1	target	1	1320	13.328	13.293	13.363
ProbeTrack8	20	ProbeTrack	1415	SCS215b	733807.549098	733807.551797	8	0.013328	60	0	60-180	60	110	NoGap	1	18	4	96	1	target	1	947	13.328	13.293	13.363
ProbeTrack8	20	ProbeTrack	1415	SCS215b	733807.549098	733807.551891	8	0.013328	60	0	60-180	60	78	NoGap	1	19	4	96	0	distractor	1	840	13.328	13.289	13.363
ProbeTrack8	20	ProbeTrack	1415	SCS215b	733807.549098	733807.551976	8	0.013328	60	0	60-180	60	133	NoGap	1	20	4	0	1	target	1	893	13.328	13.293	13.363
ProbeTrack8	20	ProbeTrack	1415	SCS215b	733807.549098	733807.552053	8	0.013328	60	0	60-180	60	90	NoGap	1	21	4	6	0	distractor	1	653	13.328	13.293	13.363
ProbeTrack8	20	ProbeTrack	1415	SCS215b	733807.549098	733807.552123	8	0.013328	60	0	60-180	60	152	NoGap	1	22	4	3	1	target	1	707	13.328	13.293	13.363
ProbeTrack8	20	ProbeTrack	1415	SCS215b	733807.549098	733807.552203	8	0.013328	60	0	60-180	60	170	NoGap	1	23	4	6	1	target	1	827	13.328	13.293	13.363
ProbeTrack8	20	ProbeTrack	1415	SCS215b	733807.549098	733807.552287	8	0.013328	60	0	60-180	60	116	NoGap	1	24	4	6	1	distractor	0	1053	13.328	13.293	13.367
ProbeTrack8	20	ProbeTrack	1415	SCS215b	733807.549098	733807.552363	8	0.013328	60	0	60-180	60	102	NoGap	1	25	4	0	1	target	1	920	13.328	13.293	13.363
ProbeTrack8	20	ProbeTrack	1415	SCS215b	733807.549098	733807.552432	8	0.013328	60	0	60-180	60	170	NoGap	1	26	4	6	0	target	0	867	13.328	13.293	13.363
ProbeTrack8	20	ProbeTrack	1415	SCS215b	733807.549098	733807.552511	8	0.013328	60	0	60-180	60	73	NoGap	1	27	4	6	1	target	1	867	13.328	13.293	13.363
ProbeTrack8	20	ProbeTrack	1415	SCS215b	733807.549098	733807.552574	8	0.013328	60	0	60-180	60	179	NoGap	1	28	4	0	0	distractor	1	827	13.328	13.293	13.363
ProbeTrack8	20	ProbeTrack	1415	SCS215b	733807.549098	733807.552656	8	0.013328	60	0	60-180	60	140	NoGap	1	29	4	0	0	distractor	1	1120	13.328	13.293	13.363
ProbeTrack8	20	ProbeTrack	1415	SCS215b	733807.549098	733807.552734	8	0.013328	60	0	60-180	60	80	NoGap	1	30	4	3	1	distractor	0	1080	13.328	13.293	13.365
ProbeTrack8	20	ProbeTrack	1415	SCS215b	733807.549098	733807.552805	8	0.013328	60	0	60-180	60	102	NoGap	1	31	4	3	0	distractor	1	973	13.328	13.293	13.363
ProbeTrack8	20	ProbeTrack	1415	SCS215b	733807.549098	733807.552874	8	0.013328	60	0	60-180	60	74	NoGap	1	32	4	3	0	distractor	1	813	13.328	13.288	13.363
ProbeTrack8	20	ProbeTrack	1415	SCS215b	733807.549098	733807.552937	8	0.013328	60	0	60-180	60	72	NoGap	1	33	4	96	0	target	0	813	13.328	13.293	13.363
ProbeTrack8	20	ProbeTrack	1415	SCS215b	733807.549098	733807.553015	8	0.013328	60	0	60-180	60	127	NoGap	1	34	4	6	0	distractor	1	693	13.328	13.293	13.363
ProbeTrack8	20	ProbeTrack	1415	SCS215b	733807.549098	733807.553088	8	0.013328	60	0	60-180	60	99	NoGap	1	35	4	0	1	target	1	760	13.328	13.289	13.363
ProbeTrack8	20	ProbeTrack	1415	SCS215b	733807.549098	733807.553169	8	0.013328	60	0	60-180	60	91	NoGap	1	36	4	6	1	target	1	707	13.328	13.293	13.363
ProbeTrack8	20	ProbeTrack	1415	SCS215b	733807.549098	733807.553240	8	0.013328	60	0	60-180	60	98	NoGap	1	37	4	3	0	distractor	1	920	13.328	13.293	13.363
ProbeTrack8	20	ProbeTrack	1415	SCS215b	733807.549098	733807.553312	8	0.013328	60	0	60-180	60	122	NoGap	1	38	4	96	0	distractor	1	1506	13.328	13.293	13.363
ProbeTrack8	20	ProbeTrack	1415	SCS215b	733807.549098	733807.553408	8	0.013328	60	0	60-180	60	70	NoGap	1	39	4	96	0	target	0	707	13.328	13.293	13.363
ProbeTrack8	20	ProbeTrack	1415	SCS215b	733807.549098	733807.553487	8	0.013328	60	0	60-180	60	79	NoGap	1	40	4	3	1	distractor	0	707	13.328	13.289	13.367
ProbeTrack8	20	ProbeTrack	1415	SCS215b	733807.553958	733807.554138	8	0.013327	60	10	60-180	60	120	GapPrac	1	1	4	6	0	distractor	1	2226	13.328	13.293	13.363
ProbeTrack8	20	ProbeTrack	1415	SCS215b	733807.553958	733807.554237	8	0.013327	60	10	60-180	60	62	GapPrac	1	2	4	6	1	distractor	0	1453	13.328	13.293	13.363
ProbeTrack8	20	ProbeTrack	1415	SCS215b	733807.553958	733807.554325	8	0.013327	60	10	60-180	60	91	GapPrac	1	3	4	96	1	target	1	867	13.328	13.292	13.363
ProbeTrack8	20	ProbeTrack	1415	SCS215b	733807.553958	733807.554412	8	0.013327	60	10	60-180	60	79	GapPrac	1	4	4	96	0	distractor	1	627	13.328	13.293	13.363
ProbeTrack8	20	ProbeTrack	1415	SCS215b	733807.553958	733807.554498	8	0.013327	60	10	60-180	60	68	GapPrac	1	5	4	96	0	distractor	1	1600	13.328	13.293	13.363
ProbeTrack8	20	ProbeTrack	1415	SCS215b	733807.553958	733807.554590	8	0.013327	60	10	60-180	60	79	GapPrac	1	6	4	96	1	target	1	1413	13.328	13.292	13.363
ProbeTrack8	20	ProbeTrack	1415	SCS215b	733807.553958	733807.554685	8	0.013327	60	10	60-180	60	83	GapPrac	1	7	4	3	0	distractor	1	1386	13.328	13.290	13.363
ProbeTrack8	20	ProbeTrack	1415	SCS215b	733807.553958	733807.554760	8	0.013327	60	10	60-180	60	115	GapPrac	1	8	4	0	0	distractor	1	1413	13.328	13.292	13.364
ProbeTrack8	20	ProbeTrack	1415	SCS215b	733807.553958	733807.554842	8	0.013327	60	10	60-180	60	116	GapPrac	1	9	4	6	1	distractor	0	1919	13.328	13.293	13.363
ProbeTrack8	20	ProbeTrack	1415	SCS215b	733807.553958	733807.554931	8	0.013327	60	10	60-180	60	126	GapPrac	1	10	4	0	0	distractor	1	1373	13.328	13.293	13.363
ProbeTrack8	20	ProbeTrack	1415	SCS215b	733807.553958	733807.555012	8	0.013327	60	10	60-180	60	120	GapPrac	1	11	4	6	1	target	1	1280	13.328	13.293	13.363
ProbeTrack8	20	ProbeTrack	1415	SCS215b	733807.553958	733807.555092	8	0.013327	60	10	60-180	60	72	GapPrac	1	12	4	3	0	distractor	1	1693	13.328	13.293	13.363
ProbeTrack8	20	ProbeTrack	1415	SCS215b	733807.553958	733807.555166	8	0.013327	60	10	60-180	60	123	GapPrac	1	13	4	3	1	target	1	3759	13.328	13.293	13.363
ProbeTrack8	20	ProbeTrack	1415	SCS215b	733807.553958	733807.555277	8	0.013327	60	10	60-180	60	116	GapPrac	1	14	4	0	1	target	1	1306	13.328	13.293	13.363
ProbeTrack8	20	ProbeTrack	1415	SCS215b	733807.553958	733807.555357	8	0.013327	60	10	60-180	60	70	GapPrac	1	15	4	6	0	distractor	1	2413	13.328	13.292	13.363
ProbeTrack8	20	ProbeTrack	1415	SCS215b	733807.553958	733807.555439	8	0.013327	60	10	60-180	60	86	GapPrac	1	16	4	96	0	target	0	1853	13.328	13.293	13.363
ProbeTrack8	20	ProbeTrack	1415	SCS215b	733807.553958	733807.555534	8	0.013327	60	10	60-180	60	86	GapPrac	1	17	4	6	0	distractor	1	1160	13.328	13.289	13.366
ProbeTrack8	20	ProbeTrack	1415	SCS215b	733807.553958	733807.555623	8	0.013327	60	10	60-180	60	86	GapPrac	1	18	4	3	1	distractor	0	1973	13.328	13.293	13.363
ProbeTrack8	20	ProbeTrack	1415	SCS215b	733807.553958	733807.555710	8	0.013327	60	10	60-180	60	85	GapPrac	1	19	4	0	1	distractor	0	2026	13.328	13.291	13.366
ProbeTrack8	20	ProbeTrack	1415	SCS215b	733807.553958	733807.555790	8	0.013327	60	10	60-180	60	175	GapPrac	1	20	4	96	1	target	1	760	13.328	13.293	13.363
ProbeTrack8	20	ProbeTrack	1415	SCS215b	733807.556171	733807.556323	8	0.013328	60	10	60-180	60	115	GapExp	0	1	4	96	0	distractor	1	853	13.328	13.293	13.363
ProbeTrack8	20	ProbeTrack	1415	SCS215b	733807.556171	733807.556449	8	0.013328	60	10	60-180	60	121	GapExp	0	2	4	0	0	distractor	1	987	13.328	13.293	13.363
ProbeTrack8	20	ProbeTrack	1415	SCS215b	733807.556171	733807.556523	8	0.013328	60	10	60-180	60	152	GapExp	0	3	4	3	1	target	1	1680	13.328	13.293	13.363
ProbeTrack8	20	ProbeTrack	1415	SCS215b	733807.556171	733807.556635	8	0.013328	60	10	60-180	60	172	GapExp	0	4	4	0	0	distractor	1	1360	13.328	13.292	13.363
ProbeTrack8	20	ProbeTrack	1415	SCS215b	733807.556171	733807.556762	8	0.013328	60	10	60-180	60	97	GapExp	0	5	4	0	0	target	0	1440	13.328	13.293	13.363
ProbeTrack8	20	ProbeTrack	1415	SCS215b	733807.556171	733807.556839	8	0.013328	60	10	60-180	60	155	GapExp	0	6	4	6	0	distractor	1	1346	13.328	13.293	13.363
ProbeTrack8	20	ProbeTrack	1415	SCS215b	733807.556171	733807.556927	8	0.013328	60	10	60-180	60	179	GapExp	0	7	4	6	1	distractor	0	1120	13.328	13.293	13.363
ProbeTrack8	20	ProbeTrack	1415	SCS215b	733807.556171	733807.557080	8	0.013328	60	10	60-180	60	104	GapExp	0	8	4	96	1	distractor	0	987	13.328	13.293	13.363
ProbeTrack8	20	ProbeTrack	1415	SCS215b	733807.556171	733807.557172	8	0.013328	60	10	60-180	60	132	GapExp	0	9	4	6	0	distractor	1	1346	13.328	13.293	13.363
ProbeTrack8	20	ProbeTrack	1415	SCS215b	733807.556171	733807.557252	8	0.013328	60	10	60-180	60	175	GapExp	0	10	4	0	1	target	1	1653	13.328	13.293	13.363
ProbeTrack8	20	ProbeTrack	1415	SCS215b	733807.556171	733807.557344	8	0.013328	60	10	60-180	60	157	GapExp	0	11	4	6	1	target	1	907	13.328	13.292	13.363
ProbeTrack8	20	ProbeTrack	1415	SCS215b	733807.556171	733807.557424	8	0.013328	60	10	60-180	60	174	GapExp	0	12	4	6	0	distractor	1	827	13.328	13.289	13.363
ProbeTrack8	20	ProbeTrack	1415	SCS215b	733807.556171	733807.557506	8	0.013328	60	10	60-180	60	97	GapExp	0	13	4	3	1	target	1	867	13.328	13.289	13.364
ProbeTrack8	20	ProbeTrack	1415	SCS215b	733807.556171	733807.557574	8	0.013328	60	10	60-180	60	174	GapExp	0	14	4	6	0	target	0	1186	13.328	13.293	13.363
ProbeTrack8	20	ProbeTrack	1415	SCS215b	733807.556171	733807.557701	8	0.013328	60	10	60-180	60	77	GapExp	0	15	4	3	1	target	1	1866	13.328	13.293	13.363
ProbeTrack8	20	ProbeTrack	1415	SCS215b	733807.556171	733807.557783	8	0.013328	60	10	60-180	60	89	GapExp	0	16	4	96	0	distractor	1	1253	13.328	13.293	13.363
ProbeTrack8	20	ProbeTrack	1415	SCS215b	733807.556171	733807.557870	8	0.013328	60	10	60-180	60	152	GapExp	0	17	4	0	1	target	1	947	13.328	13.293	13.363
ProbeTrack8	20	ProbeTrack	1415	SCS215b	733807.556171	733807.557950	8	0.013328	60	10	60-180	60	132	GapExp	0	18	4	3	0	distractor	1	2479	13.328	13.293	13.363
ProbeTrack8	20	ProbeTrack	1415	SCS215b	733807.556171	733807.558047	8	0.013328	60	10	60-180	60	168	GapExp	0	19	4	3	1	target	1	947	13.328	13.293	13.363
ProbeTrack8	20	ProbeTrack	1415	SCS215b	733807.556171	733807.558132	8	0.013328	60	10	60-180	60	81	GapExp	0	20	4	3	0	distractor	1	1013	13.328	13.293	13.363
ProbeTrack8	20	ProbeTrack	1415	SCS215b	733807.556171	733807.558207	8	0.013328	60	10	60-180	60	82	GapExp	0	21	4	0	1	target	1	773	13.328	13.293	13.363
ProbeTrack8	20	ProbeTrack	1415	SCS215b	733807.556171	733807.558300	8	0.013328	60	10	60-180	60	106	GapExp	0	22	4	0	0	distractor	1	1373	13.328	12.808	13.814
ProbeTrack8	20	ProbeTrack	1415	SCS215b	733807.556171	733807.558381	8	0.013328	60	10	60-180	60	98	GapExp	0	23	4	3	0	distractor	1	933	13.328	13.293	13.363
ProbeTrack8	20	ProbeTrack	1415	SCS215b	733807.556171	733807.558458	8	0.013328	60	10	60-180	60	94	GapExp	0	24	4	0	1	target	1	627	13.328	13.293	13.363
ProbeTrack8	20	ProbeTrack	1415	SCS215b	733807.556171	733807.558526	8	0.013328	60	10	60-180	60	71	GapExp	0	25	4	0	1	target	1	2666	13.328	13.293	13.363
ProbeTrack8	20	ProbeTrack	1415	SCS215b	733807.556171	733807.558617	8	0.013328	60	10	60-180	60	177	GapExp	0	26	4	3	0	distractor	1	1013	13.328	13.284	13.371
ProbeTrack8	20	ProbeTrack	1415	SCS215b	733807.556171	733807.558705	8	0.013328	60	10	60-180	60	109	GapExp	0	27	4	0	1	target	1	1133	13.328	13.293	13.363
ProbeTrack8	20	ProbeTrack	1415	SCS215b	733807.556171	733807.558785	8	0.013328	60	10	60-180	60	141	GapExp	0	28	4	96	1	target	1	1866	13.328	13.289	13.365
ProbeTrack8	20	ProbeTrack	1415	SCS215b	733807.556171	733807.558891	8	0.013328	60	10	60-180	60	61	GapExp	0	29	4	0	1	target	1	853	13.328	13.293	13.363
ProbeTrack8	20	ProbeTrack	1415	SCS215b	733807.556171	733807.558957	8	0.013328	60	10	60-180	60	140	GapExp	0	30	4	96	1	distractor	0	893	13.328	13.293	13.363
ProbeTrack8	20	ProbeTrack	1415	SCS215b	733807.556171	733807.559050	8	0.013328	60	10	60-180	60	74	GapExp	0	31	4	6	1	distractor	0	1333	13.328	13.290	13.365
ProbeTrack8	20	ProbeTrack	1415	SCS215b	733807.556171	733807.559124	8	0.013328	60	10	60-180	60	107	GapExp	0	32	4	6	0	distractor	1	1626	13.328	13.293	13.365
ProbeTrack8	20	ProbeTrack	1415	SCS215b	733807.556171	733807.559205	8	0.013328	60	10	60-180	60	104	GapExp	0	33	4	6	1	target	1	1000	13.328	13.290	13.363
ProbeTrack8	20	ProbeTrack	1415	SCS215b	733807.556171	733807.559312	8	0.013328	60	10	60-180	60	124	GapExp	0	34	4	3	1	distractor	0	1133	13.328	13.293	13.363
ProbeTrack8	20	ProbeTrack	1415	SCS215b	733807.556171	733807.559393	8	0.013328	60	10	60-180	60	157	GapExp	0	35	4	0	0	distractor	1	853	13.328	13.293	13.363
ProbeTrack8	20	ProbeTrack	1415	SCS215b	733807.556171	733807.559473	8	0.013328	60	10	60-180	60	152	GapExp	0	36	4	96	0	target	0	1053	13.328	13.293	13.363
ProbeTrack8	20	ProbeTrack	1415	SCS215b	733807.556171	733807.559592	8	0.013328	60	10	60-180	60	146	GapExp	0	37	4	6	1	target	1	693	13.328	13.293	13.363
ProbeTrack8	20	ProbeTrack	1415	SCS215b	733807.556171	733807.559669	8	0.013328	60	10	60-180	60	120	GapExp	0	38	4	6	1	target	1	893	13.328	13.293	13.363
ProbeTrack8	20	ProbeTrack	1415	SCS215b	733807.556171	733807.559746	8	0.013328	60	10	60-180	60	119	GapExp	0	39	4	0	0	distractor	1	973	13.328	13.293	13.367
ProbeTrack8	20	ProbeTrack	1415	SCS215b	733807.556171	733807.559840	8	0.013328	60	10	60-180	60	81	GapExp	0	40	4	96	0	target	0	867	13.328	13.293	13.363
ProbeTrack8	20	ProbeTrack	1415	SCS215b	733807.556171	733807.559923	8	0.013328	60	10	60-180	60	132	GapExp	0	41	4	0	1	distractor	0	933	13.328	13.293	13.364
ProbeTrack8	20	ProbeTrack	1415	SCS215b	733807.556171	733807.560003	8	0.013328	60	10	60-180	60	153	GapExp	0	42	4	6	1	target	1	667	13.328	13.293	13.363
ProbeTrack8	20	ProbeTrack	1415	SCS215b	733807.556171	733807.560078	8	0.013328	60	10	60-180	60	115	GapExp	0	43	4	3	1	target	1	534	13.328	13.289	13.367
ProbeTrack8	20	ProbeTrack	1415	SCS215b	733807.556171	733807.560153	8	0.013328	60	10	60-180	60	169	GapExp	0	44	4	6	0	distractor	1	1013	13.328	13.289	13.363
ProbeTrack8	20	ProbeTrack	1415	SCS215b	733807.556171	733807.560243	8	0.013328	60	10	60-180	60	106	GapExp	0	45	4	3	1	target	1	733	13.328	13.293	13.362
ProbeTrack8	20	ProbeTrack	1415	SCS215b	733807.556171	733807.560328	8	0.013328	60	10	60-180	60	112	GapExp	0	46	4	6	1	target	1	773	13.328	13.293	13.363
ProbeTrack8	20	ProbeTrack	1415	SCS215b	733807.556171	733807.560405	8	0.013328	60	10	60-180	60	88	GapExp	0	47	4	96	1	target	1	760	13.328	13.292	13.363
ProbeTrack8	20	ProbeTrack	1415	SCS215b	733807.556171	733807.560490	8	0.013328	60	10	60-180	60	65	GapExp	0	48	4	3	1	target	1	693	13.328	13.293	13.363
ProbeTrack8	20	ProbeTrack	1415	SCS215b	733807.556171	733807.560556	8	0.013328	60	10	60-180	60	147	GapExp	0	49	4	3	0	distractor	1	787	13.328	13.293	13.363
ProbeTrack8	20	ProbeTrack	1415	SCS215b	733807.556171	733807.560634	8	0.013328	60	10	60-180	60	90	GapExp	0	50	4	6	0	distractor	1	760	13.328	13.289	13.363
ProbeTrack8	20	ProbeTrack	1415	SCS215b	733807.556171	733807.560707	8	0.013328	60	10	60-180	60	92	GapExp	0	51	4	96	1	target	1	747	13.328	13.293	13.363
ProbeTrack8	20	ProbeTrack	1415	SCS215b	733807.556171	733807.560844	8	0.013328	60	10	60-180	60	86	GapExp	0	52	4	6	0	distractor	1	667	13.328	13.293	13.363
ProbeTrack8	20	ProbeTrack	1415	SCS215b	733807.556171	733807.560921	8	0.013328	60	10	60-180	60	150	GapExp	0	53	4	3	1	target	1	693	13.328	13.293	13.363
ProbeTrack8	20	ProbeTrack	1415	SCS215b	733807.556171	733807.561020	8	0.013328	60	10	60-180	60	133	GapExp	0	54	4	96	0	distractor	1	880	13.328	13.289	13.366
ProbeTrack8	20	ProbeTrack	1415	SCS215b	733807.556171	733807.561120	8	0.013328	60	10	60-180	60	179	GapExp	0	55	4	6	0	distractor	1	813	13.328	13.293	13.363
ProbeTrack8	20	ProbeTrack	1415	SCS215b	733807.556171	733807.561205	8	0.013328	60	10	60-180	60	101	GapExp	0	56	4	3	0	distractor	1	760	13.328	13.293	13.363
ProbeTrack8	20	ProbeTrack	1415	SCS215b	733807.556171	733807.561358	8	0.013328	60	10	60-180	60	176	GapExp	0	57	4	3	0	distractor	1	667	13.328	13.293	13.363
ProbeTrack8	20	ProbeTrack	1415	SCS215b	733807.556171	733807.561441	8	0.013328	60	10	60-180	60	178	GapExp	0	58	4	0	0	distractor	1	813	13.328	13.292	13.363
ProbeTrack8	20	ProbeTrack	1415	SCS215b	733807.556171	733807.561527	8	0.013328	60	10	60-180	60	79	GapExp	0	59	4	6	1	target	1	773	13.328	13.293	13.363
ProbeTrack8	20	ProbeTrack	1415	SCS215b	733807.556171	733807.561599	8	0.013328	60	10	60-180	60	99	GapExp	0	60	4	96	1	target	1	3559	13.328	13.293	13.363
ProbeTrack8	20	ProbeTrack	1415	SCS215b	733807.556171	733807.561722	8	0.013328	60	10	60-180	60	105	GapExp	0	61	4	6	1	target	1	640	13.328	13.293	13.363
ProbeTrack8	20	ProbeTrack	1415	SCS215b	733807.556171	733807.561796	8	0.013328	60	10	60-180	60	128	GapExp	0	62	4	6	0	distractor	1	1000	13.328	13.293	13.363
ProbeTrack8	20	ProbeTrack	1415	SCS215b	733807.556171	733807.561880	8	0.013328	60	10	60-180	60	121	GapExp	0	63	4	6	1	distractor	0	760	13.328	13.293	13.363
ProbeTrack8	20	ProbeTrack	1415	SCS215b	733807.556171	733807.561957	8	0.013328	60	10	60-180	60	163	GapExp	0	64	4	96	1	distractor	0	733	13.328	13.291	13.363
ProbeTrack8	20	ProbeTrack	1415	SCS215b	733807.556171	733807.562057	8	0.013328	60	10	60-180	60	71	GapExp	0	65	4	0	1	target	1	613	13.328	13.293	13.364
ProbeTrack8	20	ProbeTrack	1415	SCS215b	733807.556171	733807.562143	8	0.013328	60	10	60-180	60	67	GapExp	0	66	4	0	0	target	0	733	13.328	13.287	13.363
ProbeTrack8	20	ProbeTrack	1415	SCS215b	733807.556171	733807.562209	8	0.013328	60	10	60-180	60	100	GapExp	0	67	4	3	1	distractor	0	733	13.328	13.293	13.363
ProbeTrack8	20	ProbeTrack	1415	SCS215b	733807.556171	733807.562285	8	0.013328	60	10	60-180	60	156	GapExp	0	68	4	0	0	target	0	787	13.328	13.292	13.363
ProbeTrack8	20	ProbeTrack	1415	SCS215b	733807.556171	733807.562362	8	0.013328	60	10	60-180	60	89	GapExp	0	69	4	0	0	distractor	1	800	13.328	13.293	13.363
ProbeTrack8	20	ProbeTrack	1415	SCS215b	733807.556171	733807.562433	8	0.013328	60	10	60-180	60	153	GapExp	0	70	4	3	0	distractor	1	880	13.328	13.293	13.363
ProbeTrack8	20	ProbeTrack	1415	SCS215b	733807.556171	733807.562517	8	0.013328	60	10	60-180	60	136	GapExp	0	71	4	3	0	distractor	1	2319	13.328	13.292	13.363
ProbeTrack8	20	ProbeTrack	1415	SCS215b	733807.556171	733807.562614	8	0.013328	60	10	60-180	60	85	GapExp	0	72	4	0	1	target	1	640	13.328	13.293	13.364
ProbeTrack8	20	ProbeTrack	1415	SCS215b	733807.556171	733807.562680	8	0.013328	60	10	60-180	60	140	GapExp	0	73	4	96	0	distractor	1	987	13.328	13.293	13.367
ProbeTrack8	20	ProbeTrack	1415	SCS215b	733807.556171	733807.562791	8	0.013328	60	10	60-180	60	126	GapExp	0	74	4	6	0	distractor	1	827	13.328	13.293	13.363
ProbeTrack8	20	ProbeTrack	1415	SCS215b	733807.556171	733807.562931	8	0.013328	60	10	60-180	60	97	GapExp	0	75	4	3	0	target	0	840	13.328	13.293	13.366
ProbeTrack8	20	ProbeTrack	1415	SCS215b	733807.556171	733807.563003	8	0.013328	60	10	60-180	60	177	GapExp	0	76	4	96	1	target	1	920	13.328	13.293	13.363
ProbeTrack8	20	ProbeTrack	1415	SCS215b	733807.556171	733807.563102	8	0.013328	60	10	60-180	60	115	GapExp	0	77	4	3	0	distractor	1	987	13.328	13.293	13.363
ProbeTrack8	20	ProbeTrack	1415	SCS215b	733807.556171	733807.563195	8	0.013328	60	10	60-180	60	61	GapExp	0	78	4	96	1	target	1	693	13.328	13.290	13.363
ProbeTrack8	20	ProbeTrack	1415	SCS215b	733807.556171	733807.563283	8	0.013328	60	10	60-180	60	79	GapExp	0	79	4	96	0	target	0	600	13.328	13.293	13.364
ProbeTrack8	20	ProbeTrack	1415	SCS215b	733807.556171	733807.563397	8	0.013328	60	10	60-180	60	142	GapExp	0	80	4	96	1	target	1	2612	13.328	13.293	13.366
ProbeTrack8	20	ProbeTrack	1415	SCS215b	733807.556171	733807.563568	8	0.013328	60	10	60-180	60	133	GapExp	0	81	4	96	0	target	0	1653	13.328	13.293	13.363
ProbeTrack8	20	ProbeTrack	1415	SCS215b	733807.556171	733807.563672	8	0.013328	60	10	60-180	60	172	GapExp	0	82	4	96	0	target	0	853	13.328	13.293	13.363
ProbeTrack8	20	ProbeTrack	1415	SCS215b	733807.556171	733807.563780	8	0.013328	60	10	60-180	60	142	GapExp	0	83	4	0	0	distractor	1	947	13.328	13.293	13.363
ProbeTrack8	20	ProbeTrack	1415	SCS215b	733807.556171	733807.563867	8	0.013328	60	10	60-180	60	66	GapExp	0	84	4	96	0	distractor	1	867	13.328	13.293	13.363
ProbeTrack8	20	ProbeTrack	1415	SCS215b	733807.556171	733807.563948	8	0.013328	60	10	60-180	60	98	GapExp	0	85	4	0	0	distractor	1	1280	13.328	13.293	13.363
ProbeTrack8	20	ProbeTrack	1415	SCS215b	733807.556171	733807.564024	8	0.013328	60	10	60-180	60	162	GapExp	0	86	4	0	1	target	1	693	13.328	13.293	13.363
ProbeTrack8	20	ProbeTrack	1415	SCS215b	733807.556171	733807.564126	8	0.013328	60	10	60-180	60	64	GapExp	0	87	4	3	1	target	1	1346	13.328	13.293	13.365
ProbeTrack8	20	ProbeTrack	1415	SCS215b	733807.556171	733807.564211	8	0.013328	60	10	60-180	60	91	GapExp	0	88	4	3	0	distractor	1	693	13.328	13.292	13.363
ProbeTrack8	20	ProbeTrack	1415	SCS215b	733807.556171	733807.564281	8	0.013328	60	10	60-180	60	66	GapExp	0	89	4	96	1	distractor	0	787	13.328	13.293	13.363
ProbeTrack8	20	ProbeTrack	1415	SCS215b	733807.556171	733807.564371	8	0.013328	60	10	60-180	60	116	GapExp	0	90	4	6	0	distractor	1	787	13.328	13.293	13.363
ProbeTrack8	20	ProbeTrack	1415	SCS215b	733807.556171	733807.564467	8	0.013328	60	10	60-180	60	74	GapExp	0	91	4	96	0	distractor	1	813	13.328	13.292	13.363
ProbeTrack8	20	ProbeTrack	1415	SCS215b	733807.556171	733807.564617	8	0.013328	60	10	60-180	60	104	GapExp	0	92	4	0	1	distractor	0	933	13.328	13.293	13.363
ProbeTrack8	20	ProbeTrack	1415	SCS215b	733807.556171	733807.564697	8	0.013328	60	10	60-180	60	108	GapExp	0	93	4	6	1	target	1	947	13.328	13.292	13.363
ProbeTrack8	20	ProbeTrack	1415	SCS215b	733807.556171	733807.564779	8	0.013328	60	10	60-180	60	119	GapExp	0	94	4	96	1	target	1	680	13.328	13.293	13.372
ProbeTrack8	20	ProbeTrack	1415	SCS215b	733807.556171	733807.564868	8	0.013328	60	10	60-180	60	63	GapExp	0	95	4	3	1	target	1	693	13.328	13.293	13.363
ProbeTrack8	20	ProbeTrack	1415	SCS215b	733807.556171	733807.564939	8	0.013328	60	10	60-180	60	146	GapExp	0	96	4	96	0	target	0	720	13.328	13.293	13.363
ProbeTrack8	20	ProbeTrack	1415	SCS215b	733807.565421	733807.565543	8	0.013328	60	10	60-180	60	165	GapPrac	1	1	2	96	0	distractor	1	760	13.328	13.293	13.363
ProbeTrack8	20	ProbeTrack	1415	SCS215b	733807.565421	733807.565645	8	0.013328	60	10	60-180	60	150	GapPrac	1	2	2	6	1	target	1	840	13.328	13.293	13.366
ProbeTrack8	20	ProbeTrack	1415	SCS215b	733807.565421	733807.565733	8	0.013328	60	10	60-180	60	153	GapPrac	1	3	2	6	0	distractor	1	693	13.328	13.293	13.363
ProbeTrack8	20	ProbeTrack	1415	SCS215b	733807.565421	733807.565814	8	0.013328	60	10	60-180	60	77	GapPrac	1	4	2	0	1	target	1	813	13.328	13.293	13.363
ProbeTrack8	20	ProbeTrack	1415	SCS215b	733807.565421	733807.565915	8	0.013328	60	10	60-180	60	175	GapPrac	1	5	2	96	1	target	1	1440	13.328	13.293	13.363
ProbeTrack8	20	ProbeTrack	1415	SCS215b	733807.565421	733807.566034	8	0.013328	60	10	60-180	60	136	GapPrac	1	6	2	3	0	distractor	1	933	13.328	13.293	13.363
ProbeTrack8	20	ProbeTrack	1415	SCS215b	733807.565421	733807.566110	8	0.013328	60	10	60-180	60	166	GapPrac	1	7	2	3	1	target	1	840	13.328	13.292	13.364
ProbeTrack8	20	ProbeTrack	1415	SCS215b	733807.565421	733807.566194	8	0.013328	60	10	60-180	60	64	GapPrac	1	8	2	6	1	target	1	773	13.328	13.293	13.364
ProbeTrack8	20	ProbeTrack	1415	SCS215b	733807.565421	733807.566261	8	0.013328	60	10	60-180	60	115	GapPrac	1	9	2	3	0	distractor	1	1093	13.328	13.293	13.363
ProbeTrack8	20	ProbeTrack	1415	SCS215b	733807.565421	733807.566340	8	0.013328	60	10	60-180	60	142	GapPrac	1	10	2	96	0	distractor	1	920	13.328	13.293	13.364
ProbeTrack8	20	ProbeTrack	1415	SCS215b	733807.565421	733807.566439	8	0.013328	60	10	60-180	60	79	GapPrac	1	11	2	0	0	distractor	1	987	13.328	13.293	13.363
ProbeTrack8	20	ProbeTrack	1415	SCS215b	733807.565421	733807.566509	8	0.013328	60	10	60-180	60	142	GapPrac	1	12	2	6	0	distractor	1	867	13.328	13.293	13.363
ProbeTrack8	20	ProbeTrack	1415	SCS215b	733807.565421	733807.566596	8	0.013328	60	10	60-180	60	86	GapPrac	1	13	2	6	1	target	1	720	13.328	13.293	13.363
ProbeTrack8	20	ProbeTrack	1415	SCS215b	733807.565421	733807.566664	8	0.013328	60	10	60-180	60	102	GapPrac	1	14	2	6	0	distractor	1	960	13.328	13.293	13.363
ProbeTrack8	20	ProbeTrack	1415	SCS215b	733807.565421	733807.566752	8	0.013328	60	10	60-180	60	140	GapPrac	1	15	2	0	1	target	1	1133	13.328	13.293	13.363
ProbeTrack8	20	ProbeTrack	1415	SCS215b	733807.565421	733807.566837	8	0.013328	60	10	60-180	60	84	GapPrac	1	16	2	3	1	target	1	680	13.328	13.293	13.363
ProbeTrack8	20	ProbeTrack	1415	SCS215b	733807.565421	733807.566906	8	0.013328	60	10	60-180	60	142	GapPrac	1	17	2	0	1	target	1	640	13.328	13.293	13.363
ProbeTrack8	20	ProbeTrack	1415	SCS215b	733807.565421	733807.566982	8	0.013328	60	10	60-180	60	139	GapPrac	1	18	2	96	1	target	1	573	13.328	13.293	13.363
ProbeTrack8	20	ProbeTrack	1415	SCS215b	733807.565421	733807.567072	8	0.013328	60	10	60-180	60	92	GapPrac	1	19	2	0	0	distractor	1	893	13.328	13.293	13.363
ProbeTrack8	20	ProbeTrack	1415	SCS215b	733807.565421	733807.567153	8	0.013328	60	10	60-180	60	112	GapPrac	1	20	2	96	0	distractor	1	933	13.328	13.293	13.363
ProbeTrack8	20	ProbeTrack	1415	SCS215b	733807.567508	733807.567670	8	0.013328	60	10	60-180	60	68	GapExp	0	1	2	3	0	distractor	1	640	13.328	13.293	13.363
ProbeTrack8	20	ProbeTrack	1415	SCS215b	733807.567508	733807.567764	8	0.013328	60	10	60-180	60	111	GapExp	0	2	2	3	0	distractor	1	707	13.328	13.293	13.363
ProbeTrack8	20	ProbeTrack	1415	SCS215b	733807.567508	733807.567848	8	0.013328	60	10	60-180	60	161	GapExp	0	3	2	3	0	distractor	1	653	13.328	13.293	13.363
ProbeTrack8	20	ProbeTrack	1415	SCS215b	733807.567508	733807.567992	8	0.013328	60	10	60-180	60	166	GapExp	0	4	2	96	1	target	1	747	13.328	13.293	13.366
ProbeTrack8	20	ProbeTrack	1415	SCS215b	733807.567508	733807.568092	8	0.013328	60	10	60-180	60	145	GapExp	0	5	2	6	1	target	1	573	13.328	13.293	13.363
ProbeTrack8	20	ProbeTrack	1415	SCS215b	733807.567508	733807.568175	8	0.013328	60	10	60-180	60	157	GapExp	0	6	2	96	0	distractor	1	760	13.328	13.293	13.363
ProbeTrack8	20	ProbeTrack	1415	SCS215b	733807.567508	733807.568269	8	0.013328	60	10	60-180	60	127	GapExp	0	7	2	96	0	distractor	1	1200	13.328	13.289	13.363
ProbeTrack8	20	ProbeTrack	1415	SCS215b	733807.567508	733807.568366	8	0.013328	60	10	60-180	60	73	GapExp	0	8	2	3	0	distractor	1	973	13.328	13.293	13.363
ProbeTrack8	20	ProbeTrack	1415	SCS215b	733807.567508	733807.568437	8	0.013328	60	10	60-180	60	66	GapExp	0	9	2	3	0	distractor	1	1413	13.328	13.293	13.363
ProbeTrack8	20	ProbeTrack	1415	SCS215b	733807.567508	733807.568511	8	0.013328	60	10	60-180	60	116	GapExp	0	10	2	0	0	distractor	1	1240	13.328	13.293	13.363
ProbeTrack8	20	ProbeTrack	1415	SCS215b	733807.567508	733807.568616	8	0.013328	60	10	60-180	60	79	GapExp	0	11	2	96	1	target	1	880	13.328	13.288	13.368
ProbeTrack8	20	ProbeTrack	1415	SCS215b	733807.567508	733807.568707	8	0.013328	60	10	60-180	60	72	GapExp	0	12	2	0	1	target	1	920	13.328	13.293	13.363
ProbeTrack8	20	ProbeTrack	1415	SCS215b	733807.567508	733807.568781	8	0.013328	60	10	60-180	60	168	GapExp	0	13	2	96	1	target	1	587	13.328	13.292	13.364
ProbeTrack8	20	ProbeTrack	1415	SCS215b	733807.567508	733807.568900	8	0.013328	60	10	60-180	60	67	GapExp	0	14	2	3	1	target	1	613	13.328	13.290	13.363
ProbeTrack8	20	ProbeTrack	1415	SCS215b	733807.567508	733807.568985	8	0.013328	60	10	60-180	60	109	GapExp	0	15	2	6	0	distractor	1	960	13.328	13.285	13.370
ProbeTrack8	20	ProbeTrack	1415	SCS215b	733807.567508	733807.569057	8	0.013328	60	10	60-180	60	152	GapExp	0	16	2	0	0	distractor	1	920	13.328	13.291	13.363
ProbeTrack8	20	ProbeTrack	1415	SCS215b	733807.567508	733807.569138	8	0.013328	60	10	60-180	60	112	GapExp	0	17	2	0	1	target	1	760	13.328	13.293	13.363
ProbeTrack8	20	ProbeTrack	1415	SCS215b	733807.567508	733807.569209	8	0.013328	60	10	60-180	60	156	GapExp	0	18	2	6	0	distractor	1	1466	13.328	13.293	13.367
ProbeTrack8	20	ProbeTrack	1415	SCS215b	733807.567508	733807.569295	8	0.013328	60	10	60-180	60	79	GapExp	0	19	2	3	0	distractor	1	1400	13.328	13.293	13.363
ProbeTrack8	20	ProbeTrack	1415	SCS215b	733807.567508	733807.569369	8	0.013328	60	10	60-180	60	66	GapExp	0	20	2	6	1	target	1	560	13.328	13.293	13.363
ProbeTrack8	20	ProbeTrack	1415	SCS215b	733807.567508	733807.569456	8	0.013328	60	10	60-180	60	156	GapExp	0	21	2	0	1	target	1	667	13.328	13.293	13.363
ProbeTrack8	20	ProbeTrack	1415	SCS215b	733807.567508	733807.569536	8	0.013328	60	10	60-180	60	115	GapExp	0	22	2	6	1	target	1	533	13.328	13.293	13.363
ProbeTrack8	20	ProbeTrack	1415	SCS215b	733807.567508	733807.569636	8	0.013328	60	10	60-180	60	179	GapExp	0	23	2	3	1	target	1	1093	13.328	13.293	13.363
ProbeTrack8	20	ProbeTrack	1415	SCS215b	733807.567508	733807.569722	8	0.013328	60	10	60-180	60	117	GapExp	0	24	2	96	1	target	1	440	13.328	13.293	13.363
ProbeTrack8	20	ProbeTrack	1415	SCS215b	733807.567508	733807.569807	8	0.013328	60	10	60-180	60	169	GapExp	0	25	2	6	1	target	1	907	13.328	13.293	13.363
ProbeTrack8	20	ProbeTrack	1415	SCS215b	733807.567508	733807.569895	8	0.013328	60	10	60-180	60	163	GapExp	0	26	2	0	1	target	1	653	13.328	13.293	13.364
ProbeTrack8	20	ProbeTrack	1415	SCS215b	733807.567508	733807.570006	8	0.013328	60	10	60-180	60	129	GapExp	0	27	2	0	1	target	1	520	13.328	13.293	13.363
ProbeTrack8	20	ProbeTrack	1415	SCS215b	733807.567508	733807.570078	8	0.013328	60	10	60-180	60	112	GapExp	0	28	2	96	1	target	1	693	13.328	13.293	13.363
ProbeTrack8	20	ProbeTrack	1415	SCS215b	733807.567508	733807.570165	8	0.013328	60	10	60-180	60	95	GapExp	0	29	2	6	1	target	1	573	13.328	13.293	13.363
ProbeTrack8	20	ProbeTrack	1415	SCS215b	733807.567508	733807.570281	8	0.013328	60	10	60-180	60	177	GapExp	0	30	2	6	1	target	1	987	13.328	13.293	13.363
ProbeTrack8	20	ProbeTrack	1415	SCS215b	733807.567508	733807.570366	8	0.013328	60	10	60-180	60	81	GapExp	0	31	2	6	0	distractor	1	720	13.328	13.290	13.366
ProbeTrack8	20	ProbeTrack	1415	SCS215b	733807.567508	733807.570438	8	0.013328	60	10	60-180	60	109	GapExp	0	32	2	6	0	distractor	1	747	13.328	13.293	13.363
ProbeTrack8	20	ProbeTrack	1415	SCS215b	733807.567508	733807.570513	8	0.013328	60	10	60-180	60	149	GapExp	0	33	2	0	0	distractor	1	707	13.328	13.290	13.363
ProbeTrack8	20	ProbeTrack	1415	SCS215b	733807.567508	733807.570595	8	0.013328	60	10	60-180	60	127	GapExp	0	34	2	0	0	distractor	1	1160	13.328	13.293	13.363
ProbeTrack8	20	ProbeTrack	1415	SCS215b	733807.567508	733807.570674	8	0.013328	60	10	60-180	60	155	GapExp	0	35	2	6	1	target	1	1959	13.328	13.289	13.367
ProbeTrack8	20	ProbeTrack	1415	SCS215b	733807.567508	733807.570771	8	0.013328	60	10	60-180	60	166	GapExp	0	36	2	3	1	target	1	613	13.328	13.292	13.366
ProbeTrack8	20	ProbeTrack	1415	SCS215b	733807.567508	733807.570857	8	0.013328	60	10	60-180	60	136	GapExp	0	37	2	0	0	distractor	1	947	13.328	13.293	13.364
ProbeTrack8	20	ProbeTrack	1415	SCS215b	733807.567508	733807.570939	8	0.013328	60	10	60-180	60	122	GapExp	0	38	2	3	1	target	1	560	13.328	13.293	13.363
ProbeTrack8	20	ProbeTrack	1415	SCS215b	733807.567508	733807.571012	8	0.013328	60	10	60-180	60	122	GapExp	0	39	2	6	0	distractor	1	787	13.328	13.293	13.363
ProbeTrack8	20	ProbeTrack	1415	SCS215b	733807.567508	733807.571091	8	0.013328	60	10	60-180	60	62	GapExp	0	40	2	96	0	distractor	1	973	13.328	13.293	13.364
ProbeTrack8	20	ProbeTrack	1415	SCS215b	733807.567508	733807.571178	8	0.013328	60	10	60-180	60	147	GapExp	0	41	2	3	1	target	1	693	13.328	13.293	13.363
ProbeTrack8	20	ProbeTrack	1415	SCS215b	733807.567508	733807.571256	8	0.013328	60	10	60-180	60	83	GapExp	0	42	2	0	0	distractor	1	800	13.328	13.293	13.363
ProbeTrack8	20	ProbeTrack	1415	SCS215b	733807.567508	733807.571330	8	0.013328	60	10	60-180	60	128	GapExp	0	43	2	96	0	distractor	1	1360	13.328	13.293	13.363
ProbeTrack8	20	ProbeTrack	1415	SCS215b	733807.567508	733807.571430	8	0.013328	60	10	60-180	60	109	GapExp	0	44	2	96	1	target	1	773	13.328	13.293	13.363
ProbeTrack8	20	ProbeTrack	1415	SCS215b	733807.567508	733807.571514	8	0.013328	60	10	60-180	60	64	GapExp	0	45	2	96	0	distractor	1	787	13.328	13.293	13.363
ProbeTrack8	20	ProbeTrack	1415	SCS215b	733807.567508	733807.571647	8	0.013328	60	10	60-180	60	140	GapExp	0	46	2	0	1	target	1	880	13.328	13.293	13.363
ProbeTrack8	20	ProbeTrack	1415	SCS215b	733807.567508	733807.571723	8	0.013328	60	10	60-180	60	99	GapExp	0	47	2	0	1	target	1	720	13.328	13.293	13.363
ProbeTrack8	20	ProbeTrack	1415	SCS215b	733807.567508	733807.571822	8	0.013328	60	10	60-180	60	140	GapExp	0	48	2	6	1	target	1	640	13.328	13.293	13.363
ProbeTrack8	20	ProbeTrack	1415	SCS215b	733807.567508	733807.571899	8	0.013328	60	10	60-180	60	126	GapExp	0	49	2	96	0	distractor	1	800	13.328	13.293	13.364
ProbeTrack8	20	ProbeTrack	1415	SCS215b	733807.567508	733807.571986	8	0.013328	60	10	60-180	60	104	GapExp	0	50	2	6	1	target	1	747	13.328	13.293	13.363
ProbeTrack8	20	ProbeTrack	1415	SCS215b	733807.567508	733807.572057	8	0.013328	60	10	60-180	60	75	GapExp	0	51	2	3	1	target	1	560	13.328	13.292	13.363
ProbeTrack8	20	ProbeTrack	1415	SCS215b	733807.567508	733807.572128	8	0.013328	60	10	60-180	60	108	GapExp	0	52	2	3	0	distractor	1	800	13.328	13.293	13.363
ProbeTrack8	20	ProbeTrack	1415	SCS215b	733807.567508	733807.572201	8	0.013328	60	10	60-180	60	171	GapExp	0	53	2	6	0	distractor	1	667	13.328	13.293	13.363
ProbeTrack8	20	ProbeTrack	1415	SCS215b	733807.567508	733807.572297	8	0.013328	60	10	60-180	60	127	GapExp	0	54	2	6	0	distractor	1	693	13.328	13.293	13.363
ProbeTrack8	20	ProbeTrack	1415	SCS215b	733807.567508	733807.572375	8	0.013328	60	10	60-180	60	91	GapExp	0	55	2	6	0	distractor	1	840	13.328	13.293	13.363
ProbeTrack8	20	ProbeTrack	1415	SCS215b	733807.567508	733807.572446	8	0.013328	60	10	60-180	60	147	GapExp	0	56	2	0	0	distractor	1	760	13.328	13.293	13.363
ProbeTrack8	20	ProbeTrack	1415	SCS215b	733807.567508	733807.572565	8	0.013328	60	10	60-180	60	72	GapExp	0	57	2	0	0	distractor	1	907	13.328	13.293	13.363
ProbeTrack8	20	ProbeTrack	1415	SCS215b	733807.567508	733807.572634	8	0.013328	60	10	60-180	60	138	GapExp	0	58	2	96	0	distractor	1	907	13.328	13.292	13.363
ProbeTrack8	20	ProbeTrack	1415	SCS215b	733807.567508	733807.572729	8	0.013328	60	10	60-180	60	68	GapExp	0	59	2	3	0	distractor	1	680	13.328	13.292	13.366
ProbeTrack8	20	ProbeTrack	1415	SCS215b	733807.567508	733807.572795	8	0.013328	60	10	60-180	60	119	GapExp	0	60	2	3	1	target	1	773	13.328	13.293	13.363
ProbeTrack8	20	ProbeTrack	1415	SCS215b	733807.567508	733807.572868	8	0.013328	60	10	60-180	60	160	GapExp	0	61	2	3	1	target	1	627	13.328	13.293	13.363
ProbeTrack8	20	ProbeTrack	1415	SCS215b	733807.567508	733807.572993	8	0.013328	60	10	60-180	60	111	GapExp	0	62	2	96	1	target	1	720	13.328	13.293	13.363
ProbeTrack8	20	ProbeTrack	1415	SCS215b	733807.567508	733807.573078	8	0.013328	60	10	60-180	60	81	GapExp	0	63	2	0	1	target	1	693	13.328	13.293	13.363
ProbeTrack8	20	ProbeTrack	1415	SCS215b	733807.567508	733807.573155	8	0.013328	60	10	60-180	60	105	GapExp	0	64	2	96	0	distractor	1	880	13.328	13.289	13.363
ProbeTrack8	20	ProbeTrack	1415	SCS215b	733807.567508	733807.573242	8	0.013328	60	10	60-180	60	152	GapExp	0	65	2	3	0	distractor	1	867	13.328	13.291	13.363
ProbeTrack8	20	ProbeTrack	1415	SCS215b	733807.567508	733807.573333	8	0.013328	60	10	60-180	60	103	GapExp	0	66	2	6	0	distractor	1	880	13.328	13.293	13.363
ProbeTrack8	20	ProbeTrack	1415	SCS215b	733807.567508	733807.573460	8	0.013328	60	10	60-180	60	89	GapExp	0	67	2	6	0	distractor	1	893	13.328	13.293	13.363
ProbeTrack8	20	ProbeTrack	1415	SCS215b	733807.567508	733807.573533	8	0.013328	60	10	60-180	60	71	GapExp	0	68	2	6	1	target	1	453	13.328	13.293	13.363
ProbeTrack8	20	ProbeTrack	1415	SCS215b	733807.567508	733807.573600	8	0.013328	60	10	60-180	60	136	GapExp	0	69	2	3	0	distractor	1	933	13.328	13.291	13.363
ProbeTrack8	20	ProbeTrack	1415	SCS215b	733807.567508	733807.573697	8	0.013328	60	10	60-180	60	119	GapExp	0	70	2	96	1	target	1	1493	13.328	13.293	13.371
ProbeTrack8	20	ProbeTrack	1415	SCS215b	733807.567508	733807.573793	8	0.013328	60	10	60-180	60	169	GapExp	0	71	2	3	0	distractor	1	600	13.328	13.141	13.514
ProbeTrack8	20	ProbeTrack	1415	SCS215b	733807.567508	733807.573877	8	0.013328	60	10	60-180	60	127	GapExp	0	72	2	96	0	distractor	1	893	13.328	13.292	13.363
ProbeTrack8	20	ProbeTrack	1415	SCS215b	733807.567508	733807.573970	8	0.013328	60	10	60-180	60	154	GapExp	0	73	2	96	0	distractor	1	733	13.328	13.293	13.363
ProbeTrack8	20	ProbeTrack	1415	SCS215b	733807.567508	733807.574066	8	0.013328	60	10	60-180	60	86	GapExp	0	74	2	6	1	target	1	627	13.328	13.293	13.363
ProbeTrack8	20	ProbeTrack	1415	SCS215b	733807.567508	733807.574138	8	0.013328	60	10	60-180	60	134	GapExp	0	75	2	96	0	distractor	1	853	13.328	13.293	13.363
ProbeTrack8	20	ProbeTrack	1415	SCS215b	733807.567508	733807.574231	8	0.013328	60	10	60-180	60	107	GapExp	0	76	2	3	1	target	1	613	13.328	13.164	13.492
ProbeTrack8	20	ProbeTrack	1415	SCS215b	733807.567508	733807.574299	8	0.013328	60	10	60-180	60	133	GapExp	0	77	2	3	0	distractor	1	760	13.328	13.293	13.363
ProbeTrack8	20	ProbeTrack	1415	SCS215b	733807.567508	733807.574408	8	0.013328	60	10	60-180	60	166	GapExp	0	78	2	0	1	target	1	613	13.328	13.293	13.363
ProbeTrack8	20	ProbeTrack	1415	SCS215b	733807.567508	733807.574490	8	0.013328	60	10	60-180	60	133	GapExp	0	79	2	3	1	target	1	667	13.328	13.290	13.363
ProbeTrack8	20	ProbeTrack	1415	SCS215b	733807.567508	733807.574564	8	0.013328	60	10	60-180	60	118	GapExp	0	80	2	0	0	distractor	1	680	13.328	13.293	13.363
ProbeTrack8	20	ProbeTrack	1415	SCS215b	733807.567508	733807.574641	8	0.013328	60	10	60-180	60	159	GapExp	0	81	2	6	0	distractor	1	1280	13.328	13.293	13.365
ProbeTrack8	20	ProbeTrack	1415	SCS215b	733807.567508	733807.574729	8	0.013328	60	10	60-180	60	162	GapExp	0	82	2	96	1	target	1	613	13.328	13.293	13.363
ProbeTrack8	20	ProbeTrack	1415	SCS215b	733807.567508	733807.574828	8	0.013328	60	10	60-180	60	140	GapExp	0	83	2	3	1	target	1	667	13.328	13.292	13.363
ProbeTrack8	20	ProbeTrack	1415	SCS215b	733807.567508	733807.574918	8	0.013328	60	10	60-180	60	148	GapExp	0	84	2	96	0	distractor	1	707	13.328	13.293	13.366
ProbeTrack8	20	ProbeTrack	1415	SCS215b	733807.567508	733807.575007	8	0.013328	60	10	60-180	60	129	GapExp	0	85	2	0	0	distractor	1	827	13.328	13.289	13.363
ProbeTrack8	20	ProbeTrack	1415	SCS215b	733807.567508	733807.575080	8	0.013328	60	10	60-180	60	171	GapExp	0	86	2	0	1	target	1	800	13.328	13.293	13.363
ProbeTrack8	20	ProbeTrack	1415	SCS215b	733807.567508	733807.575163	8	0.013328	60	10	60-180	60	158	GapExp	0	87	2	0	1	target	1	1320	13.328	13.293	13.363
ProbeTrack8	20	ProbeTrack	1415	SCS215b	733807.567508	733807.575250	8	0.013328	60	10	60-180	60	132	GapExp	0	88	2	96	1	target	1	973	13.328	13.293	13.363
ProbeTrack8	20	ProbeTrack	1415	SCS215b	733807.567508	733807.575346	8	0.013328	60	10	60-180	60	65	GapExp	0	89	2	96	1	target	1	747	13.328	13.290	13.363
ProbeTrack8	20	ProbeTrack	1415	SCS215b	733807.567508	733807.575429	8	0.013328	60	10	60-180	60	92	GapExp	0	90	2	0	0	distractor	1	760	13.328	13.293	13.363
ProbeTrack8	20	ProbeTrack	1415	SCS215b	733807.567508	733807.575512	8	0.013328	60	10	60-180	60	172	GapExp	0	91	2	0	1	target	1	760	13.328	13.293	13.363
ProbeTrack8	20	ProbeTrack	1415	SCS215b	733807.567508	733807.575590	8	0.013328	60	10	60-180	60	84	GapExp	0	92	2	96	1	target	1	560	13.328	13.293	13.363
ProbeTrack8	20	ProbeTrack	1415	SCS215b	733807.567508	733807.575670	8	0.013328	60	10	60-180	60	153	GapExp	0	93	2	3	1	target	1	640	13.328	13.292	13.364
ProbeTrack8	20	ProbeTrack	1415	SCS215b	733807.567508	733807.575747	8	0.013328	60	10	60-180	60	168	GapExp	0	94	2	6	0	distractor	1	987	13.328	13.292	13.363
ProbeTrack8	20	ProbeTrack	1415	SCS215b	733807.567508	733807.575830	8	0.013328	60	10	60-180	60	159	GapExp	0	95	2	0	0	distractor	1	773	13.328	13.292	13.363
ProbeTrack8	20	ProbeTrack	1415	SCS215b	733807.567508	733807.575910	8	0.013328	60	10	60-180	60	104	GapExp	0	96	2	6	1	target	1	560	13.328	13.293	13.363
