exp	sub	code	rev	comp	runtime	trialtime	nstim	refreshdur	cuedur	gapdur	gapOnsetRange	durPostProbe	gapOnsetTime	blocktype	prac	trial	ntargets	soa	probeTarget	resp	acc	rt	meanFrameDur	minFrameDur	maxFrameDur
ProbeTrack8	7	ProbeTrack	1415	SCS215b	733745.559152	733745.559817	8	0.013327	60	0	60-180	60	149	NoGap	1	1	4	96	1	distractor	0	7677	13.328	13.293	13.363
ProbeTrack8	7	ProbeTrack	1415	SCS215b	733745.559152	733745.560066	8	0.013327	60	0	60-180	60	170	NoGap	1	2	4	6	0	target	0	2666	13.328	13.293	13.364
ProbeTrack8	7	ProbeTrack	1415	SCS215b	733745.559152	733745.560204	8	0.013327	60	0	60-180	60	69	NoGap	1	3	4	3	1	target	1	9836	13.328	13.293	13.363
ProbeTrack8	7	ProbeTrack	1415	SCS215b	733745.559152	733745.560382	8	0.013327	60	0	60-180	60	131	NoGap	1	4	4	96	0	distractor	1	1586	13.328	13.293	13.364
ProbeTrack8	7	ProbeTrack	1415	SCS215b	733745.559152	733745.560488	8	0.013327	60	0	60-180	60	79	NoGap	1	5	4	6	1	target	1	1093	13.328	13.293	13.363
ProbeTrack8	7	ProbeTrack	1415	SCS215b	733745.559152	733745.560562	8	0.013327	60	0	60-180	60	110	NoGap	1	6	4	6	0	distractor	1	1066	13.328	13.293	13.363
ProbeTrack8	7	ProbeTrack	1415	SCS215b	733745.559152	733745.560716	8	0.013327	60	0	60-180	60	82	NoGap	1	7	4	0	1	distractor	0	547	13.328	13.293	13.363
ProbeTrack8	7	ProbeTrack	1415	SCS215b	733745.559152	733745.560784	8	0.013327	60	0	60-180	60	107	NoGap	1	8	4	0	1	target	1	1000	13.328	13.293	13.363
ProbeTrack8	7	ProbeTrack	1415	SCS215b	733745.559152	733745.560861	8	0.013327	60	0	60-180	60	162	NoGap	1	9	4	0	0	distractor	1	653	13.328	13.293	13.363
ProbeTrack8	7	ProbeTrack	1415	SCS215b	733745.559152	733745.560944	8	0.013327	60	0	60-180	60	166	NoGap	1	10	4	3	1	target	1	560	13.328	13.293	13.363
ProbeTrack8	7	ProbeTrack	1415	SCS215b	733745.559152	733745.561032	8	0.013327	60	0	60-180	60	102	NoGap	1	11	4	3	0	target	0	613	13.328	13.293	13.363
ProbeTrack8	7	ProbeTrack	1415	SCS215b	733745.559152	733745.561104	8	0.013327	60	0	60-180	60	111	NoGap	1	12	4	96	1	target	1	1333	13.328	13.293	13.363
ProbeTrack8	7	ProbeTrack	1415	SCS215b	733745.559152	733745.561200	8	0.013327	60	0	60-180	60	169	NoGap	1	13	4	96	0	target	0	907	13.328	13.293	13.363
ProbeTrack8	7	ProbeTrack	1415	SCS215b	733745.559152	733745.561299	8	0.013327	60	0	60-180	60	65	NoGap	1	14	4	0	1	32	-3	573	13.328	13.293	13.362
ProbeTrack8	7	ProbeTrack	1415	SCS215b	733745.559152	733745.561364	8	0.013327	60	0	60-180	60	61	NoGap	1	15	4	0	1	target	1	947	13.328	13.293	13.363
ProbeTrack8	7	ProbeTrack	1415	SCS215b	733745.559152	733745.561433	8	0.013327	60	0	60-180	60	119	NoGap	1	16	4	3	1	distractor	0	640	13.328	13.290	13.363
ProbeTrack8	7	ProbeTrack	1415	SCS215b	733745.559152	733745.561505	8	0.013327	60	0	60-180	60	81	NoGap	1	17	4	6	1	target	1	667	13.328	13.293	13.363
ProbeTrack8	7	ProbeTrack	1415	SCS215b	733745.559152	733745.561574	8	0.013327	60	0	60-180	60	117	NoGap	1	18	4	96	0	target	0	707	13.328	13.293	13.363
ProbeTrack8	7	ProbeTrack	1415	SCS215b	733745.559152	733745.561664	8	0.013327	60	0	60-180	60	167	NoGap	1	19	4	96	0	distractor	1	773	13.328	13.293	13.363
ProbeTrack8	7	ProbeTrack	1415	SCS215b	733745.559152	733745.561762	8	0.013327	60	0	60-180	60	150	NoGap	1	20	4	96	1	distractor	0	813	13.328	13.292	13.363
ProbeTrack8	7	ProbeTrack	1415	SCS215b	733745.559152	733745.561858	8	0.013327	60	0	60-180	60	177	NoGap	1	21	4	0	0	target	0	1106	13.328	13.290	13.366
ProbeTrack8	7	ProbeTrack	1415	SCS215b	733745.559152	733745.561948	8	0.013327	60	0	60-180	60	61	NoGap	1	22	4	96	1	target	1	1586	13.328	13.292	13.363
ProbeTrack8	7	ProbeTrack	1415	SCS215b	733745.559152	733745.562045	8	0.013327	60	0	60-180	60	147	NoGap	1	23	4	6	1	target	1	1066	13.328	13.293	13.363
ProbeTrack8	7	ProbeTrack	1415	SCS215b	733745.559152	733745.562129	8	0.013327	60	0	60-180	60	162	NoGap	1	24	4	3	1	target	1	1333	13.328	13.290	13.363
ProbeTrack8	7	ProbeTrack	1415	SCS215b	733745.559152	733745.562218	8	0.013327	60	0	60-180	60	161	NoGap	1	25	4	3	0	distractor	1	680	13.328	13.293	13.363
ProbeTrack8	7	ProbeTrack	1415	SCS215b	733745.559152	733745.562302	8	0.013327	60	0	60-180	60	67	NoGap	1	26	4	6	0	distractor	1	1453	13.328	13.292	13.364
ProbeTrack8	7	ProbeTrack	1415	SCS215b	733745.559152	733745.562376	8	0.013327	60	0	60-180	60	70	NoGap	1	27	4	3	1	target	1	813	13.328	13.293	13.363
ProbeTrack8	7	ProbeTrack	1415	SCS215b	733745.559152	733745.562445	8	0.013327	60	0	60-180	60	108	NoGap	1	28	4	6	0	distractor	1	947	13.328	13.293	13.363
ProbeTrack8	7	ProbeTrack	1415	SCS215b	733745.559152	733745.562521	8	0.013327	60	0	60-180	60	73	NoGap	1	29	4	96	1	distractor	0	920	13.328	13.288	13.367
ProbeTrack8	7	ProbeTrack	1415	SCS215b	733745.559152	733745.562615	8	0.013327	60	0	60-180	60	76	NoGap	1	30	4	96	1	distractor	0	987	13.328	13.293	13.363
ProbeTrack8	7	ProbeTrack	1415	SCS215b	733745.559152	733745.562700	8	0.013327	60	0	60-180	60	101	NoGap	1	31	4	6	1	target	1	880	13.328	13.293	13.363
ProbeTrack8	7	ProbeTrack	1415	SCS215b	733745.559152	733745.562773	8	0.013327	60	0	60-180	60	73	NoGap	1	32	4	6	1	target	1	1000	13.328	13.293	13.363
ProbeTrack8	7	ProbeTrack	1415	SCS215b	733745.559152	733745.562844	8	0.013327	60	0	60-180	60	69	NoGap	1	33	4	3	0	distractor	1	747	13.328	13.293	13.363
ProbeTrack8	7	ProbeTrack	1415	SCS215b	733745.559152	733745.562911	8	0.013327	60	0	60-180	60	138	NoGap	1	34	4	0	0	distractor	1	973	13.328	13.293	13.363
ProbeTrack8	7	ProbeTrack	1415	SCS215b	733745.559152	733745.562994	8	0.013327	60	0	60-180	60	93	NoGap	1	35	4	3	1	distractor	0	693	13.328	13.293	13.363
ProbeTrack8	7	ProbeTrack	1415	SCS215b	733745.559152	733745.563066	8	0.013327	60	0	60-180	60	126	NoGap	1	36	4	0	0	target	0	707	13.328	13.293	13.363
ProbeTrack8	7	ProbeTrack	1415	SCS215b	733745.559152	733745.563140	8	0.013327	60	0	60-180	60	67	NoGap	1	37	4	6	0	distractor	1	840	13.328	13.293	13.363
ProbeTrack8	7	ProbeTrack	1415	SCS215b	733745.559152	733745.563207	8	0.013327	60	0	60-180	60	91	NoGap	1	38	4	6	0	target	0	667	13.328	13.293	13.363
ProbeTrack8	7	ProbeTrack	1415	SCS215b	733745.559152	733745.563276	8	0.013327	60	0	60-180	60	112	NoGap	1	39	4	3	0	distractor	1	853	13.328	13.293	13.363
ProbeTrack8	7	ProbeTrack	1415	SCS215b	733745.559152	733745.563357	8	0.013327	60	0	60-180	60	81	NoGap	1	40	4	3	0	distractor	1	1106	13.328	13.293	13.363
ProbeTrack8	7	ProbeTrack	1415	SCS215b	733745.559152	733745.563434	8	0.013327	60	0	60-180	60	93	NoGap	1	41	4	0	0	distractor	1	907	13.328	13.293	13.363
ProbeTrack8	7	ProbeTrack	1415	SCS215b	733745.559152	733745.563510	8	0.013327	60	0	60-180	60	120	NoGap	1	42	4	6	0	target	0	880	13.328	13.293	13.363
ProbeTrack8	7	ProbeTrack	1415	SCS215b	733745.559152	733745.563587	8	0.013327	60	0	60-180	60	94	NoGap	1	43	4	96	0	distractor	1	1000	13.328	13.293	13.363
ProbeTrack8	7	ProbeTrack	1415	SCS215b	733745.559152	733745.563676	8	0.013327	60	0	60-180	60	82	NoGap	1	44	4	6	1	distractor	0	693	13.328	13.292	13.364
ProbeTrack8	7	ProbeTrack	1415	SCS215b	733745.559152	733745.563746	8	0.013327	60	0	60-180	60	169	NoGap	1	45	4	0	1	distractor	0	947	13.328	13.293	13.363
ProbeTrack8	7	ProbeTrack	1415	SCS215b	733745.559152	733745.563838	8	0.013327	60	0	60-180	60	149	NoGap	1	46	4	0	1	distractor	0	1173	13.328	13.293	13.367
ProbeTrack8	7	ProbeTrack	1415	SCS215b	733745.559152	733745.563926	8	0.013327	60	0	60-180	60	72	NoGap	1	47	4	96	0	distractor	1	947	13.328	13.293	13.363
ProbeTrack8	7	ProbeTrack	1415	SCS215b	733745.559152	733745.564011	8	0.013327	60	0	60-180	60	144	NoGap	1	48	4	3	1	distractor	0	1666	13.328	13.293	13.364
ProbeTrack8	7	ProbeTrack	1415	SCS215b	733745.559152	733745.564103	8	0.013327	60	0	60-180	60	85	NoGap	1	49	4	0	0	distractor	1	1040	13.328	13.293	13.363
ProbeTrack8	7	ProbeTrack	1415	SCS215b	733745.559152	733745.564188	8	0.013327	60	0	60-180	60	169	NoGap	1	50	4	0	1	distractor	0	1453	13.328	13.293	13.363
ProbeTrack8	7	ProbeTrack	1415	SCS215b	733745.565093	733745.565282	8	0.013328	60	10	60-180	60	91	GapPrac	1	1	2	96	1	distractor	0	1640	13.328	13.293	13.363
ProbeTrack8	7	ProbeTrack	1415	SCS215b	733745.565093	733745.565400	8	0.013328	60	10	60-180	60	179	GapPrac	1	2	2	96	0	distractor	1	1333	13.328	13.293	13.363
ProbeTrack8	7	ProbeTrack	1415	SCS215b	733745.565093	733745.565511	8	0.013328	60	10	60-180	60	159	GapPrac	1	3	2	0	1	target	1	1400	13.328	13.293	13.363
ProbeTrack8	7	ProbeTrack	1415	SCS215b	733745.565093	733745.565608	8	0.013328	60	10	60-180	60	177	GapPrac	1	4	2	6	1	target	1	973	13.328	13.293	13.363
ProbeTrack8	7	ProbeTrack	1415	SCS215b	733745.565093	733745.565698	8	0.013328	60	10	60-180	60	110	GapPrac	1	5	2	96	1	target	1	653	13.328	13.293	13.363
ProbeTrack8	7	ProbeTrack	1415	SCS215b	733745.565093	733745.565806	8	0.013328	60	10	60-180	60	82	GapPrac	1	6	2	0	1	target	1	1000	13.328	13.293	13.363
ProbeTrack8	7	ProbeTrack	1415	SCS215b	733745.565093	733745.565879	8	0.013328	60	10	60-180	60	101	GapPrac	1	7	2	6	1	target	1	1120	13.328	13.293	13.363
ProbeTrack8	7	ProbeTrack	1415	SCS215b	733745.565093	733745.565958	8	0.013328	60	10	60-180	60	90	GapPrac	1	8	2	96	0	distractor	1	1080	13.328	13.289	13.363
ProbeTrack8	7	ProbeTrack	1415	SCS215b	733745.565093	733745.566048	8	0.013328	60	10	60-180	60	102	GapPrac	1	9	2	96	0	target	0	787	13.328	13.293	13.363
ProbeTrack8	7	ProbeTrack	1415	SCS215b	733745.565093	733745.566137	8	0.013328	60	10	60-180	60	90	GapPrac	1	10	2	3	0	distractor	1	1000	13.328	13.293	13.363
ProbeTrack8	7	ProbeTrack	1415	SCS215b	733745.565093	733745.566212	8	0.013328	60	10	60-180	60	150	GapPrac	1	11	2	96	1	target	1	734	13.328	13.293	13.363
ProbeTrack8	7	ProbeTrack	1415	SCS215b	733745.565093	733745.566307	8	0.013328	60	10	60-180	60	87	GapPrac	1	12	2	0	0	distractor	1	1186	13.328	13.293	13.363
ProbeTrack8	7	ProbeTrack	1415	SCS215b	733745.565093	733745.566384	8	0.013328	60	10	60-180	60	160	GapPrac	1	13	2	3	1	target	1	1546	13.328	13.293	13.363
ProbeTrack8	7	ProbeTrack	1415	SCS215b	733745.565093	733745.566477	8	0.013328	60	10	60-180	60	124	GapPrac	1	14	2	6	1	distractor	0	1226	13.328	13.293	13.363
ProbeTrack8	7	ProbeTrack	1415	SCS215b	733745.565093	733745.566560	8	0.013328	60	10	60-180	60	107	GapPrac	1	15	2	6	0	distractor	1	1160	13.328	13.292	13.364
ProbeTrack8	7	ProbeTrack	1415	SCS215b	733745.565093	733745.566640	8	0.013328	60	10	60-180	60	163	GapPrac	1	16	2	0	0	distractor	1	960	13.328	13.293	13.363
ProbeTrack8	7	ProbeTrack	1415	SCS215b	733745.565093	733745.566725	8	0.013328	60	10	60-180	60	158	GapPrac	1	17	2	3	1	target	1	1693	13.328	13.287	13.368
ProbeTrack8	7	ProbeTrack	1415	SCS215b	733745.565093	733745.566821	8	0.013328	60	10	60-180	60	120	GapPrac	1	18	2	0	1	target	1	1186	13.328	13.293	13.363
ProbeTrack8	7	ProbeTrack	1415	SCS215b	733745.565093	733745.566902	8	0.013328	60	10	60-180	60	117	GapPrac	1	19	2	6	0	distractor	1	1026	13.328	13.293	13.363
ProbeTrack8	7	ProbeTrack	1415	SCS215b	733745.565093	733745.566983	8	0.013328	60	10	60-180	60	115	GapPrac	1	20	2	3	0	distractor	1	827	13.328	13.293	13.363
ProbeTrack8	7	ProbeTrack	1415	SCS215b	733745.567395	733745.567456	8	0.013328	60	10	60-180	60	78	GapExp	1	1	2	0	0	distractor	1	1226	13.328	13.293	13.363
ProbeTrack8	7	ProbeTrack	1415	SCS215b	733745.567395	733745.567562	8	0.013328	60	10	60-180	60	158	GapExp	1	2	2	96	1	target	1	667	13.328	13.293	13.363
ProbeTrack8	7	ProbeTrack	1415	SCS215b	733745.567395	733745.567666	8	0.013328	60	10	60-180	60	165	GapExp	1	3	2	96	0	distractor	1	747	13.328	13.293	13.363
ProbeTrack8	7	ProbeTrack	1415	SCS215b	733745.567395	733745.567765	8	0.013328	60	10	60-180	60	175	GapExp	1	4	2	6	0	distractor	1	947	13.328	13.293	13.363
ProbeTrack8	7	ProbeTrack	1415	SCS215b	733745.567395	733745.567853	8	0.013328	60	10	60-180	60	172	GapExp	1	5	2	3	1	target	1	800	13.328	13.293	13.363
ProbeTrack8	7	ProbeTrack	1415	SCS215b	733745.567395	733745.567941	8	0.013328	60	10	60-180	60	147	GapExp	0	6	2	6	0	distractor	1	907	13.328	13.293	13.366
ProbeTrack8	7	ProbeTrack	1415	SCS215b	733745.567395	733745.568042	8	0.013328	60	10	60-180	60	94	GapExp	0	7	2	0	1	distractor	0	1266	13.328	13.293	13.368
ProbeTrack8	7	ProbeTrack	1415	SCS215b	733745.567395	733745.568119	8	0.013328	60	10	60-180	60	62	GapExp	0	8	2	3	0	distractor	1	1080	13.328	13.292	13.363
ProbeTrack8	7	ProbeTrack	1415	SCS215b	733745.567395	733745.568192	8	0.013328	60	10	60-180	60	151	GapExp	0	9	2	3	0	distractor	1	853	13.328	13.293	13.363
ProbeTrack8	7	ProbeTrack	1415	SCS215b	733745.567395	733745.568276	8	0.013328	60	10	60-180	60	116	GapExp	0	10	2	0	0	distractor	1	733	13.328	13.293	13.363
ProbeTrack8	7	ProbeTrack	1415	SCS215b	733745.567395	733745.568351	8	0.013328	60	10	60-180	60	78	GapExp	0	11	2	6	1	target	1	987	13.328	13.293	13.363
ProbeTrack8	7	ProbeTrack	1415	SCS215b	733745.567395	733745.568425	8	0.013328	60	10	60-180	60	178	GapExp	0	12	2	6	0	distractor	1	733	13.328	13.292	13.364
ProbeTrack8	7	ProbeTrack	1415	SCS215b	733745.567395	733745.568511	8	0.013328	60	10	60-180	60	153	GapExp	0	13	2	6	0	distractor	1	853	13.328	13.293	13.363
ProbeTrack8	7	ProbeTrack	1415	SCS215b	733745.567395	733745.568594	8	0.013328	60	10	60-180	60	131	GapExp	0	14	2	6	1	target	1	827	13.328	13.291	13.363
ProbeTrack8	7	ProbeTrack	1415	SCS215b	733745.567395	733745.568673	8	0.013328	60	10	60-180	60	125	GapExp	0	15	2	3	0	distractor	1	1093	13.328	13.293	13.363
ProbeTrack8	7	ProbeTrack	1415	SCS215b	733745.567395	733745.568754	8	0.013328	60	10	60-180	60	127	GapExp	0	16	2	3	1	target	1	747	13.328	13.293	13.363
ProbeTrack8	7	ProbeTrack	1415	SCS215b	733745.567395	733745.568832	8	0.013328	60	10	60-180	60	111	GapExp	0	17	2	6	0	distractor	1	1266	13.328	13.259	13.431
ProbeTrack8	7	ProbeTrack	1415	SCS215b	733745.567395	733745.568912	8	0.013328	60	10	60-180	60	151	GapExp	0	18	2	96	0	distractor	1	1280	13.328	13.293	13.366
ProbeTrack8	7	ProbeTrack	1415	SCS215b	733745.567395	733745.569015	8	0.013328	60	10	60-180	60	62	GapExp	0	19	2	3	1	target	1	694	13.328	13.293	13.363
ProbeTrack8	7	ProbeTrack	1415	SCS215b	733745.567395	733745.569082	8	0.013328	60	10	60-180	60	147	GapExp	0	20	2	6	1	target	1	773	13.328	13.293	13.363
ProbeTrack8	7	ProbeTrack	1415	SCS215b	733745.567395	733745.569164	8	0.013328	60	10	60-180	60	161	GapExp	0	21	2	96	0	distractor	1	720	13.328	13.293	13.363
ProbeTrack8	7	ProbeTrack	1415	SCS215b	733745.567395	733745.569262	8	0.013328	60	10	60-180	60	180	GapExp	0	22	2	0	1	target	1	667	13.328	13.293	13.363
ProbeTrack8	7	ProbeTrack	1415	SCS215b	733745.567395	733745.569347	8	0.013328	60	10	60-180	60	70	GapExp	0	23	2	3	0	target	0	707	13.328	13.293	13.363
ProbeTrack8	7	ProbeTrack	1415	SCS215b	733745.567395	733745.569415	8	0.013328	60	10	60-180	60	112	GapExp	0	24	2	6	1	target	1	760	13.328	13.293	13.363
ProbeTrack8	7	ProbeTrack	1415	SCS215b	733745.567395	733745.569492	8	0.013328	60	10	60-180	60	70	GapExp	0	25	2	0	1	target	1	667	13.328	13.293	13.363
ProbeTrack8	7	ProbeTrack	1415	SCS215b	733745.567395	733745.569573	8	0.013328	60	10	60-180	60	177	GapExp	0	26	2	0	1	target	1	1053	13.328	13.293	13.363
ProbeTrack8	7	ProbeTrack	1415	SCS215b	733745.567395	733745.569659	8	0.013328	60	10	60-180	60	132	GapExp	0	27	2	96	0	distractor	1	880	13.328	13.293	13.366
ProbeTrack8	7	ProbeTrack	1415	SCS215b	733745.567395	733745.569767	8	0.013328	60	10	60-180	60	158	GapExp	0	28	2	3	0	distractor	1	773	13.328	13.289	13.363
ProbeTrack8	7	ProbeTrack	1415	SCS215b	733745.567395	733745.569851	8	0.013328	60	10	60-180	60	117	GapExp	0	29	2	6	1	target	1	693	13.328	13.293	13.363
ProbeTrack8	7	ProbeTrack	1415	SCS215b	733745.567395	733745.569927	8	0.013328	60	10	60-180	60	74	GapExp	0	30	2	0	0	distractor	1	734	13.328	13.293	13.363
ProbeTrack8	7	ProbeTrack	1415	SCS215b	733745.567395	733745.569993	8	0.013328	60	10	60-180	60	105	GapExp	0	31	2	96	0	distractor	1	867	13.328	13.293	13.363
ProbeTrack8	7	ProbeTrack	1415	SCS215b	733745.567395	733745.570083	8	0.013328	60	10	60-180	60	78	GapExp	0	32	2	96	1	distractor	0	787	13.328	13.293	13.363
ProbeTrack8	7	ProbeTrack	1415	SCS215b	733745.567395	733745.570170	8	0.013328	60	10	60-180	60	163	GapExp	0	33	2	6	0	distractor	1	840	13.328	13.293	13.363
ProbeTrack8	7	ProbeTrack	1415	SCS215b	733745.567395	733745.570255	8	0.013328	60	10	60-180	60	70	GapExp	0	34	2	3	1	distractor	0	893	13.328	13.293	13.363
ProbeTrack8	7	ProbeTrack	1415	SCS215b	733745.567395	733745.570325	8	0.013328	60	10	60-180	60	125	GapExp	0	35	2	96	1	target	1	907	13.328	13.292	13.367
ProbeTrack8	7	ProbeTrack	1415	SCS215b	733745.567395	733745.570418	8	0.013328	60	10	60-180	60	103	GapExp	0	36	2	0	0	distractor	1	893	13.328	13.293	13.365
ProbeTrack8	7	ProbeTrack	1415	SCS215b	733745.567395	733745.570491	8	0.013328	60	10	60-180	60	102	GapExp	0	37	2	6	0	distractor	1	867	13.328	13.293	13.363
ProbeTrack8	7	ProbeTrack	1415	SCS215b	733745.567395	733745.570571	8	0.013328	60	10	60-180	60	119	GapExp	0	38	2	96	1	target	1	693	13.328	13.291	13.363
ProbeTrack8	7	ProbeTrack	1415	SCS215b	733745.567395	733745.570660	8	0.013328	60	10	60-180	60	94	GapExp	0	39	2	0	1	target	1	720	13.328	13.293	13.363
ProbeTrack8	7	ProbeTrack	1415	SCS215b	733745.567395	733745.570731	8	0.013328	60	10	60-180	60	63	GapExp	0	40	2	6	0	target	0	667	13.328	13.293	13.363
ProbeTrack8	7	ProbeTrack	1415	SCS215b	733745.567395	733745.570797	8	0.013328	60	10	60-180	60	124	GapExp	0	41	2	0	0	distractor	1	747	13.328	13.293	13.363
ProbeTrack8	7	ProbeTrack	1415	SCS215b	733745.567395	733745.570871	8	0.013328	60	10	60-180	60	130	GapExp	0	42	2	3	1	target	1	707	13.328	13.293	13.363
ProbeTrack8	7	ProbeTrack	1415	SCS215b	733745.567395	733745.570950	8	0.013328	60	10	60-180	60	127	GapExp	0	43	2	0	1	distractor	0	1160	13.328	13.293	13.363
ProbeTrack8	7	ProbeTrack	1415	SCS215b	733745.567395	733745.571030	8	0.013328	60	10	60-180	60	61	GapExp	0	44	2	3	1	target	1	707	13.328	13.289	13.363
ProbeTrack8	7	ProbeTrack	1415	SCS215b	733745.567395	733745.571096	8	0.013328	60	10	60-180	60	93	GapExp	0	45	2	3	1	target	1	787	13.328	13.289	13.363
ProbeTrack8	7	ProbeTrack	1415	SCS215b	733745.567395	733745.571168	8	0.013328	60	10	60-180	60	106	GapExp	0	46	2	6	1	target	1	693	13.328	13.293	13.363
ProbeTrack8	7	ProbeTrack	1415	SCS215b	733745.567395	733745.571261	8	0.013328	60	10	60-180	60	100	GapExp	0	47	2	96	1	target	1	653	13.328	13.293	13.364
ProbeTrack8	7	ProbeTrack	1415	SCS215b	733745.567395	733745.571349	8	0.013328	60	10	60-180	60	85	GapExp	0	48	2	96	0	distractor	1	867	13.328	13.293	13.365
ProbeTrack8	7	ProbeTrack	1415	SCS215b	733745.567395	733745.571438	8	0.013328	60	10	60-180	60	113	GapExp	0	49	2	0	0	target	0	800	13.328	13.293	13.363
ProbeTrack8	7	ProbeTrack	1415	SCS215b	733745.567395	733745.571512	8	0.013328	60	10	60-180	60	69	GapExp	0	50	2	3	0	distractor	1	880	13.328	13.293	13.363
ProbeTrack8	7	ProbeTrack	1415	SCS215b	733745.567395	733745.571581	8	0.013328	60	10	60-180	60	69	GapExp	0	51	2	96	0	distractor	1	840	13.328	13.291	13.363
ProbeTrack8	7	ProbeTrack	1415	SCS215b	733745.567395	733745.571680	8	0.013328	60	10	60-180	60	125	GapExp	0	52	2	96	0	distractor	1	1480	13.328	13.293	13.364
ProbeTrack8	7	ProbeTrack	1415	SCS215b	733745.567395	733745.571791	8	0.013328	60	10	60-180	60	140	GapExp	0	53	2	96	1	target	1	773	13.328	13.293	13.365
ProbeTrack8	7	ProbeTrack	1415	SCS215b	733745.567395	733745.571885	8	0.013328	60	10	60-180	60	112	GapExp	0	54	2	3	0	distractor	1	827	13.328	13.293	13.363
ProbeTrack8	7	ProbeTrack	1415	SCS215b	733745.567395	733745.571961	8	0.013328	60	10	60-180	60	98	GapExp	0	55	2	6	1	target	1	840	13.328	13.293	13.363
ProbeTrack8	7	ProbeTrack	1415	SCS215b	733745.567395	733745.572034	8	0.013328	60	10	60-180	60	67	GapExp	0	56	2	0	0	distractor	1	840	13.328	13.290	13.363
ProbeTrack8	7	ProbeTrack	1415	SCS215b	733745.567395	733745.572100	8	0.013328	60	10	60-180	60	159	GapExp	0	57	2	6	0	distractor	1	840	13.328	13.292	13.363
ProbeTrack8	7	ProbeTrack	1415	SCS215b	733745.567395	733745.572183	8	0.013328	60	10	60-180	60	82	GapExp	0	58	2	96	1	target	1	747	13.328	13.293	13.363
ProbeTrack8	7	ProbeTrack	1415	SCS215b	733745.567395	733745.572266	8	0.013328	60	10	60-180	60	130	GapExp	0	59	2	96	0	distractor	1	747	13.328	13.288	13.367
ProbeTrack8	7	ProbeTrack	1415	SCS215b	733745.567395	733745.572355	8	0.013328	60	10	60-180	60	68	GapExp	0	60	2	0	1	target	1	707	13.328	13.293	13.363
ProbeTrack8	7	ProbeTrack	1415	SCS215b	733745.567395	733745.572425	8	0.013328	60	10	60-180	60	146	GapExp	0	61	2	96	0	distractor	1	707	13.328	13.293	13.363
ProbeTrack8	7	ProbeTrack	1415	SCS215b	733745.567395	733745.572523	8	0.013328	60	10	60-180	60	114	GapExp	0	62	2	96	1	target	1	773	13.328	13.289	13.366
ProbeTrack8	7	ProbeTrack	1415	SCS215b	733745.567395	733745.572611	8	0.013328	60	10	60-180	60	82	GapExp	0	63	2	96	1	distractor	0	733	13.328	13.293	13.363
ProbeTrack8	7	ProbeTrack	1415	SCS215b	733745.567395	733745.572698	8	0.013328	60	10	60-180	60	120	GapExp	0	64	2	96	0	distractor	1	1520	13.328	13.293	13.363
ProbeTrack8	7	ProbeTrack	1415	SCS215b	733745.567395	733745.572798	8	0.013328	60	10	60-180	60	109	GapExp	0	65	2	3	0	distractor	1	840	13.328	13.293	13.364
ProbeTrack8	7	ProbeTrack	1415	SCS215b	733745.567395	733745.572874	8	0.013328	60	10	60-180	60	133	GapExp	0	66	2	96	1	target	1	547	13.328	13.292	13.363
ProbeTrack8	7	ProbeTrack	1415	SCS215b	733745.567395	733745.572961	8	0.013328	60	10	60-180	60	153	GapExp	0	67	2	3	0	distractor	1	653	13.328	13.293	13.363
ProbeTrack8	7	ProbeTrack	1415	SCS215b	733745.567395	733745.573040	8	0.013328	60	10	60-180	60	115	GapExp	0	68	2	0	0	distractor	1	653	13.328	13.293	13.363
ProbeTrack8	7	ProbeTrack	1415	SCS215b	733745.567395	733745.573115	8	0.013328	60	10	60-180	60	173	GapExp	0	69	2	6	0	distractor	1	627	13.328	13.293	13.363
ProbeTrack8	7	ProbeTrack	1415	SCS215b	733745.567395	733745.573199	8	0.013328	60	10	60-180	60	140	GapExp	0	70	2	6	1	distractor	0	947	13.328	13.293	13.364
ProbeTrack8	7	ProbeTrack	1415	SCS215b	733745.567395	733745.573280	8	0.013328	60	10	60-180	60	93	GapExp	0	71	2	6	1	distractor	0	867	13.328	13.293	13.366
ProbeTrack8	7	ProbeTrack	1415	SCS215b	733745.567395	733745.573353	8	0.013328	60	10	60-180	60	79	GapExp	0	72	2	3	1	target	1	667	13.328	13.293	13.363
ProbeTrack8	7	ProbeTrack	1415	SCS215b	733745.567395	733745.573421	8	0.013328	60	10	60-180	60	97	GapExp	0	73	2	3	1	target	1	587	13.328	13.293	13.363
ProbeTrack8	7	ProbeTrack	1415	SCS215b	733745.567395	733745.573491	8	0.013328	60	10	60-180	60	79	GapExp	0	74	2	96	1	distractor	0	320	13.328	13.293	13.363
ProbeTrack8	7	ProbeTrack	1415	SCS215b	733745.567395	733745.573570	8	0.013328	60	10	60-180	60	162	GapExp	0	75	2	6	0	distractor	1	613	13.328	13.293	13.363
ProbeTrack8	7	ProbeTrack	1415	SCS215b	733745.567395	733745.573649	8	0.013328	60	10	60-180	60	109	GapExp	0	76	2	6	1	target	1	653	13.328	13.293	13.363
ProbeTrack8	7	ProbeTrack	1415	SCS215b	733745.567395	733745.573723	8	0.013328	60	10	60-180	60	73	GapExp	0	77	2	6	0	distractor	1	693	13.328	13.292	13.363
ProbeTrack8	7	ProbeTrack	1415	SCS215b	733745.567395	733745.573790	8	0.013328	60	10	60-180	60	171	GapExp	0	78	2	0	1	distractor	0	813	13.328	13.293	13.363
ProbeTrack8	7	ProbeTrack	1415	SCS215b	733745.567395	733745.573875	8	0.013328	60	10	60-180	60	78	GapExp	0	79	2	3	0	distractor	1	573	13.328	13.293	13.363
ProbeTrack8	7	ProbeTrack	1415	SCS215b	733745.567395	733745.573941	8	0.013328	60	10	60-180	60	129	GapExp	0	80	2	6	1	target	1	733	13.328	13.293	13.363
ProbeTrack8	7	ProbeTrack	1415	SCS215b	733745.567395	733745.574021	8	0.013328	60	10	60-180	60	71	GapExp	0	81	2	0	0	distractor	1	627	13.328	13.293	13.363
ProbeTrack8	7	ProbeTrack	1415	SCS215b	733745.567395	733745.574097	8	0.013328	60	10	60-180	60	141	GapExp	0	82	2	0	1	target	1	453	13.328	13.290	13.366
ProbeTrack8	7	ProbeTrack	1415	SCS215b	733745.567395	733745.574173	8	0.013328	60	10	60-180	60	138	GapExp	0	83	2	0	1	target	1	533	13.328	13.293	13.367
ProbeTrack8	7	ProbeTrack	1415	SCS215b	733745.567395	733745.574251	8	0.013328	60	10	60-180	60	129	GapExp	0	84	2	96	0	distractor	1	720	13.328	13.293	13.363
ProbeTrack8	7	ProbeTrack	1415	SCS215b	733745.567395	733745.574347	8	0.013328	60	10	60-180	60	168	GapExp	0	85	2	96	1	target	1	1053	13.328	13.293	13.365
ProbeTrack8	7	ProbeTrack	1415	SCS215b	733745.567395	733745.574450	8	0.013328	60	10	60-180	60	164	GapExp	0	86	2	6	0	distractor	1	653	13.328	13.293	13.363
ProbeTrack8	7	ProbeTrack	1415	SCS215b	733745.567395	733745.574531	8	0.013328	60	10	60-180	60	159	GapExp	0	87	2	3	0	distractor	1	467	13.328	13.293	13.363
ProbeTrack8	7	ProbeTrack	1415	SCS215b	733745.567395	733745.574608	8	0.013328	60	10	60-180	60	115	GapExp	0	88	2	3	0	target	0	587	13.328	13.293	13.363
ProbeTrack8	7	ProbeTrack	1415	SCS215b	733745.567395	733745.574682	8	0.013328	60	10	60-180	60	104	GapExp	0	89	2	96	0	distractor	1	933	13.328	13.293	13.363
ProbeTrack8	7	ProbeTrack	1415	SCS215b	733745.567395	733745.574770	8	0.013328	60	10	60-180	60	149	GapExp	0	90	2	0	0	distractor	1	653	13.328	13.293	13.363
ProbeTrack8	7	ProbeTrack	1415	SCS215b	733745.567395	733745.574851	8	0.013328	60	10	60-180	60	103	GapExp	0	91	2	3	0	distractor	1	680	13.328	13.293	13.363
ProbeTrack8	7	ProbeTrack	1415	SCS215b	733745.567395	733745.574920	8	0.013328	60	10	60-180	60	92	GapExp	0	92	2	6	0	target	0	827	13.328	13.293	13.363
ProbeTrack8	7	ProbeTrack	1415	SCS215b	733745.567395	733745.574992	8	0.013328	60	10	60-180	60	125	GapExp	0	93	2	6	1	target	1	920	13.328	13.293	13.363
ProbeTrack8	7	ProbeTrack	1415	SCS215b	733745.567395	733745.575071	8	0.013328	60	10	60-180	60	107	GapExp	0	94	2	0	0	distractor	1	1426	13.328	13.293	13.363
ProbeTrack8	7	ProbeTrack	1415	SCS215b	733745.567395	733745.575153	8	0.013328	60	10	60-180	60	136	GapExp	0	95	2	3	1	target	1	733	13.328	13.293	13.363
ProbeTrack8	7	ProbeTrack	1415	SCS215b	733745.567395	733745.575231	8	0.013328	60	10	60-180	60	125	GapExp	0	96	2	0	0	distractor	1	787	13.328	13.293	13.363
ProbeTrack8	7	ProbeTrack	1415	SCS215b	733745.567395	733745.575309	8	0.013328	60	10	60-180	60	98	GapExp	0	97	2	96	1	target	1	733	13.328	13.293	13.363
ProbeTrack8	7	ProbeTrack	1415	SCS215b	733745.567395	733745.575428	8	0.013328	60	10	60-180	60	82	GapExp	0	98	2	0	0	distractor	1	613	13.328	13.293	13.364
ProbeTrack8	7	ProbeTrack	1415	SCS215b	733745.567395	733745.575498	8	0.013328	60	10	60-180	60	70	GapExp	0	99	2	0	0	distractor	1	800	13.328	13.293	13.363
ProbeTrack8	7	ProbeTrack	1415	SCS215b	733745.567395	733745.575564	8	0.013328	60	10	60-180	60	128	GapExp	0	100	2	96	0	distractor	1	667	13.328	13.293	13.363
ProbeTrack8	7	ProbeTrack	1415	SCS215b	733745.567395	733745.575654	8	0.013328	60	10	60-180	60	74	GapExp	0	101	2	6	1	target	1	627	13.328	13.293	13.363
ProbeTrack8	7	ProbeTrack	1415	SCS215b	733745.567395	733745.575725	8	0.013328	60	10	60-180	60	143	GapExp	0	102	2	6	1	distractor	0	573	13.328	13.293	13.363
ProbeTrack8	7	ProbeTrack	1415	SCS215b	733745.567395	733745.575801	8	0.013328	60	10	60-180	60	146	GapExp	0	103	2	96	0	distractor	1	613	13.328	13.293	13.363
ProbeTrack8	7	ProbeTrack	1415	SCS215b	733745.567395	733745.575894	8	0.013328	60	10	60-180	60	82	GapExp	0	104	2	0	1	target	1	720	13.328	13.293	13.363
ProbeTrack8	7	ProbeTrack	1415	SCS215b	733745.567395	733745.575963	8	0.013328	60	10	60-180	60	80	GapExp	0	105	2	6	0	distractor	1	720	13.328	13.293	13.363
ProbeTrack8	7	ProbeTrack	1415	SCS215b	733745.567395	733745.576031	8	0.013328	60	10	60-180	60	61	GapExp	0	106	2	3	1	distractor	0	653	13.328	13.293	13.363
ProbeTrack8	7	ProbeTrack	1415	SCS215b	733745.567395	733745.576096	8	0.013328	60	10	60-180	60	179	GapExp	0	107	2	0	0	distractor	1	493	13.328	13.289	13.363
ProbeTrack8	7	ProbeTrack	1415	SCS215b	733745.567395	733745.576181	8	0.013328	60	10	60-180	60	69	GapExp	0	108	2	96	1	distractor	0	427	13.328	13.293	13.363
ProbeTrack8	7	ProbeTrack	1415	SCS215b	733745.567395	733745.576259	8	0.013328	60	10	60-180	60	99	GapExp	0	109	2	96	1	distractor	0	1053	13.328	13.293	13.365
ProbeTrack8	7	ProbeTrack	1415	SCS215b	733745.567395	733745.576349	8	0.013328	60	10	60-180	60	84	GapExp	0	110	2	0	1	target	1	573	13.328	13.293	13.363
ProbeTrack8	7	ProbeTrack	1415	SCS215b	733745.567395	733745.576415	8	0.013328	60	10	60-180	60	146	GapExp	0	111	2	3	0	target	0	1293	13.328	13.292	13.364
ProbeTrack8	7	ProbeTrack	1415	SCS215b	733745.567395	733745.576502	8	0.013328	60	10	60-180	60	162	GapExp	0	112	2	6	1	target	1	640	13.328	13.293	13.364
ProbeTrack8	7	ProbeTrack	1415	SCS215b	733745.567395	733745.576585	8	0.013328	60	10	60-180	60	105	GapExp	0	113	2	3	1	target	1	467	13.328	13.293	13.363
ProbeTrack8	7	ProbeTrack	1415	SCS215b	733745.567395	733745.576652	8	0.013328	60	10	60-180	60	174	GapExp	0	114	2	3	1	target	1	520	13.328	13.293	13.363
ProbeTrack8	7	ProbeTrack	1415	SCS215b	733745.567395	733745.576731	8	0.013328	60	10	60-180	60	91	GapExp	0	115	2	0	1	target	1	480	13.328	13.293	13.363
ProbeTrack8	7	ProbeTrack	1415	SCS215b	733745.567395	733745.576799	8	0.013328	60	10	60-180	60	129	GapExp	0	116	2	96	0	distractor	1	613	13.328	13.291	13.364
ProbeTrack8	7	ProbeTrack	1415	SCS215b	733745.567395	733745.576886	8	0.013328	60	10	60-180	60	150	GapExp	0	117	2	0	1	distractor	0	760	13.328	13.293	13.363
ProbeTrack8	7	ProbeTrack	1415	SCS215b	733745.567395	733745.576966	8	0.013328	60	10	60-180	60	159	GapExp	0	118	2	0	1	target	1	507	13.328	13.290	13.363
ProbeTrack8	7	ProbeTrack	1415	SCS215b	733745.567395	733745.577044	8	0.013328	60	10	60-180	60	168	GapExp	0	119	2	3	1	target	1	733	13.328	13.293	13.363
ProbeTrack8	7	ProbeTrack	1415	SCS215b	733745.567395	733745.577126	8	0.013328	60	10	60-180	60	69	GapExp	0	120	2	96	1	target	1	707	13.328	13.293	13.363
ProbeTrack8	7	ProbeTrack	1415	SCS215b	733745.567395	733745.577206	8	0.013328	60	10	60-180	60	171	GapExp	0	121	2	3	1	target	1	773	13.328	13.292	13.363
ProbeTrack8	7	ProbeTrack	1415	SCS215b	733745.567395	733745.577289	8	0.013328	60	10	60-180	60	68	GapExp	0	122	2	0	0	distractor	1	600	13.328	13.292	13.363
ProbeTrack8	7	ProbeTrack	1415	SCS215b	733745.567395	733745.577352	8	0.013328	60	10	60-180	60	171	GapExp	0	123	2	3	1	target	1	693	13.328	13.293	13.365
ProbeTrack8	7	ProbeTrack	1415	SCS215b	733745.567395	733745.577439	8	0.013328	60	10	60-180	60	139	GapExp	0	124	2	6	0	distractor	1	547	13.328	13.293	13.363
ProbeTrack8	7	ProbeTrack	1415	SCS215b	733745.567395	733745.577513	8	0.013328	60	10	60-180	60	134	GapExp	0	125	2	3	0	distractor	1	560	13.328	13.293	13.363
ProbeTrack8	7	ProbeTrack	1415	SCS215b	733745.578463	733745.578588	8	0.013328	60	10	60-180	60	119	GapPrac	1	1	4	96	0	distractor	1	867	13.328	13.293	13.363
ProbeTrack8	7	ProbeTrack	1415	SCS215b	733745.578463	733745.578695	8	0.013328	60	10	60-180	60	101	GapPrac	1	2	4	6	1	distractor	0	773	13.328	13.290	13.366
ProbeTrack8	7	ProbeTrack	1415	SCS215b	733745.578463	733745.578768	8	0.013328	60	10	60-180	60	135	GapPrac	1	3	4	0	0	distractor	1	853	13.328	13.293	13.363
ProbeTrack8	7	ProbeTrack	1415	SCS215b	733745.578463	733745.578846	8	0.013328	60	10	60-180	60	123	GapPrac	1	4	4	96	1	distractor	0	720	13.328	13.293	13.363
ProbeTrack8	7	ProbeTrack	1415	SCS215b	733745.578463	733745.578936	8	0.013328	60	10	60-180	60	74	GapPrac	1	5	4	96	0	distractor	1	773	13.328	13.293	13.364
ProbeTrack8	7	ProbeTrack	1415	SCS215b	733745.578463	733745.579018	8	0.013328	60	10	60-180	60	82	GapPrac	1	6	4	0	0	distractor	1	733	13.328	13.293	13.363
ProbeTrack8	7	ProbeTrack	1415	SCS215b	733745.578463	733745.579086	8	0.013328	60	10	60-180	60	84	GapPrac	1	7	4	6	0	distractor	1	800	13.328	13.293	13.363
ProbeTrack8	7	ProbeTrack	1415	SCS215b	733745.578463	733745.579156	8	0.013328	60	10	60-180	60	120	GapPrac	1	8	4	3	1	distractor	0	787	13.328	13.293	13.363
ProbeTrack8	7	ProbeTrack	1415	SCS215b	733745.578463	733745.579230	8	0.013328	60	10	60-180	60	125	GapPrac	1	9	4	0	0	distractor	1	680	13.328	13.293	13.363
ProbeTrack8	7	ProbeTrack	1415	SCS215b	733745.578463	733745.579305	8	0.013328	60	10	60-180	60	141	GapPrac	1	10	4	96	1	target	1	813	13.328	13.293	13.366
ProbeTrack8	7	ProbeTrack	1415	SCS215b	733745.578463	733745.579397	8	0.013328	60	10	60-180	60	73	GapPrac	1	11	4	6	1	distractor	0	587	13.328	13.293	13.363
ProbeTrack8	7	ProbeTrack	1415	SCS215b	733745.578463	733745.579461	8	0.013328	60	10	60-180	60	140	GapPrac	1	12	4	0	1	target	1	907	13.328	13.293	13.363
ProbeTrack8	7	ProbeTrack	1415	SCS215b	733745.578463	733745.579540	8	0.013328	60	10	60-180	60	78	GapPrac	1	13	4	3	1	target	1	813	13.328	13.293	13.363
ProbeTrack8	7	ProbeTrack	1415	SCS215b	733745.578463	733745.579609	8	0.013328	60	10	60-180	60	177	GapPrac	1	14	4	96	0	target	0	653	13.328	13.293	13.363
ProbeTrack8	7	ProbeTrack	1415	SCS215b	733745.578463	733745.579705	8	0.013328	60	10	60-180	60	172	GapPrac	1	15	4	96	1	target	1	1333	13.328	13.293	13.363
ProbeTrack8	7	ProbeTrack	1415	SCS215b	733745.578463	733745.579810	8	0.013328	60	10	60-180	60	125	GapPrac	1	16	4	6	0	target	0	747	13.328	13.293	13.363
ProbeTrack8	7	ProbeTrack	1415	SCS215b	733745.578463	733745.579887	8	0.013328	60	10	60-180	60	103	GapPrac	1	17	4	0	1	distractor	0	893	13.328	13.293	13.363
ProbeTrack8	7	ProbeTrack	1415	SCS215b	733745.578463	733745.579958	8	0.013328	60	10	60-180	60	83	GapPrac	1	18	4	3	0	distractor	1	653	13.328	13.293	13.363
ProbeTrack8	7	ProbeTrack	1415	SCS215b	733745.578463	733745.580037	8	0.013328	60	10	60-180	60	109	GapPrac	1	19	4	6	1	target	1	907	13.328	13.293	13.363
ProbeTrack8	7	ProbeTrack	1415	SCS215b	733745.578463	733745.580111	8	0.013328	60	10	60-180	60	153	GapPrac	1	20	4	3	0	distractor	1	680	13.328	13.292	13.363
ProbeTrack8	7	ProbeTrack	1415	SCS215b	733745.580458	733745.580501	8	0.013328	60	10	60-180	60	88	GapExp	1	1	4	96	1	target	1	787	13.328	13.293	13.363
ProbeTrack8	7	ProbeTrack	1415	SCS215b	733745.580458	733745.580609	8	0.013328	60	10	60-180	60	133	GapExp	1	2	4	0	1	target	1	1053	13.328	13.293	13.363
ProbeTrack8	7	ProbeTrack	1415	SCS215b	733745.580458	733745.580691	8	0.013328	60	10	60-180	60	104	GapExp	1	3	4	96	0	distractor	1	760	13.328	13.289	13.363
ProbeTrack8	7	ProbeTrack	1415	SCS215b	733745.580458	733745.580777	8	0.013328	60	10	60-180	60	103	GapExp	1	4	4	3	0	distractor	1	840	13.328	13.293	13.364
ProbeTrack8	7	ProbeTrack	1415	SCS215b	733745.580458	733745.580852	8	0.013328	60	10	60-180	60	128	GapExp	1	5	4	0	0	distractor	1	1173	13.328	13.293	13.363
ProbeTrack8	7	ProbeTrack	1415	SCS215b	733745.580458	733745.580933	8	0.013328	60	10	60-180	60	75	GapExp	0	6	4	96	0	target	0	867	13.328	13.293	13.363
ProbeTrack8	7	ProbeTrack	1415	SCS215b	733745.580458	733745.581016	8	0.013328	60	10	60-180	60	171	GapExp	0	7	4	0	0	distractor	1	1200	13.328	13.293	13.363
ProbeTrack8	7	ProbeTrack	1415	SCS215b	733745.580458	733745.581101	8	0.013328	60	10	60-180	60	112	GapExp	0	8	4	6	1	target	1	773	13.328	13.292	13.366
ProbeTrack8	7	ProbeTrack	1415	SCS215b	733745.580458	733745.581174	8	0.013328	60	10	60-180	60	112	GapExp	0	9	4	3	1	target	1	880	13.328	13.293	13.363
ProbeTrack8	7	ProbeTrack	1415	SCS215b	733745.580458	733745.581250	8	0.013328	60	10	60-180	60	176	GapExp	0	10	4	96	1	distractor	0	893	13.328	13.292	13.363
ProbeTrack8	7	ProbeTrack	1415	SCS215b	733745.580458	733745.581350	8	0.013328	60	10	60-180	60	159	GapExp	0	11	4	96	0	target	0	1640	13.328	13.293	13.363
ProbeTrack8	7	ProbeTrack	1415	SCS215b	733745.580458	733745.581459	8	0.013328	60	10	60-180	60	79	GapExp	0	12	4	96	0	distractor	1	1120	13.328	13.293	13.364
ProbeTrack8	7	ProbeTrack	1415	SCS215b	733745.580458	733745.581546	8	0.013328	60	10	60-180	60	164	GapExp	0	13	4	0	0	distractor	1	1000	13.328	13.293	13.363
ProbeTrack8	7	ProbeTrack	1415	SCS215b	733745.580458	733745.581630	8	0.013328	60	10	60-180	60	78	GapExp	0	14	4	3	1	distractor	0	747	13.328	13.293	13.367
ProbeTrack8	7	ProbeTrack	1415	SCS215b	733745.580458	733745.581698	8	0.013328	60	10	60-180	60	94	GapExp	0	15	4	0	1	target	1	1879	13.328	13.293	13.363
ProbeTrack8	7	ProbeTrack	1415	SCS215b	733745.580458	733745.581782	8	0.013328	60	10	60-180	60	116	GapExp	0	16	4	0	0	target	0	1400	13.328	13.293	13.363
ProbeTrack8	7	ProbeTrack	1415	SCS215b	733745.580458	733745.581864	8	0.013328	60	10	60-180	60	135	GapExp	0	17	4	6	1	target	1	813	13.328	13.293	13.366
ProbeTrack8	7	ProbeTrack	1415	SCS215b	733745.580458	733745.581942	8	0.013328	60	10	60-180	60	130	GapExp	0	18	4	96	0	distractor	1	1653	13.328	13.293	13.363
ProbeTrack8	7	ProbeTrack	1415	SCS215b	733745.580458	733745.582041	8	0.013328	60	10	60-180	60	127	GapExp	0	19	4	96	1	distractor	0	720	13.328	13.293	13.363
ProbeTrack8	7	ProbeTrack	1415	SCS215b	733745.580458	733745.582131	8	0.013328	60	10	60-180	60	160	GapExp	0	20	4	6	0	target	0	1706	13.328	13.293	13.363
ProbeTrack8	7	ProbeTrack	1415	SCS215b	733745.580458	733745.582224	8	0.013328	60	10	60-180	60	164	GapExp	0	21	4	6	1	distractor	0	1893	13.328	13.293	13.364
ProbeTrack8	7	ProbeTrack	1415	SCS215b	733745.580458	733745.582322	8	0.013328	60	10	60-180	60	126	GapExp	0	22	4	0	1	target	1	1426	13.328	13.293	13.363
ProbeTrack8	7	ProbeTrack	1415	SCS215b	733745.580458	733745.582405	8	0.013328	60	10	60-180	60	78	GapExp	0	23	4	0	0	distractor	1	893	13.328	13.293	13.363
ProbeTrack8	7	ProbeTrack	1415	SCS215b	733745.580458	733745.582474	8	0.013328	60	10	60-180	60	74	GapExp	0	24	4	96	1	target	1	1000	13.328	13.293	13.363
ProbeTrack8	7	ProbeTrack	1415	SCS215b	733745.580458	733745.582565	8	0.013328	60	10	60-180	60	179	GapExp	0	25	4	0	1	target	1	893	13.328	13.293	13.363
ProbeTrack8	7	ProbeTrack	1415	SCS215b	733745.580458	733745.582652	8	0.013328	60	10	60-180	60	144	GapExp	0	26	4	3	0	distractor	1	1586	13.328	13.293	13.363
ProbeTrack8	7	ProbeTrack	1415	SCS215b	733745.580458	733745.582740	8	0.013328	60	10	60-180	60	176	GapExp	0	27	4	96	0	distractor	1	1306	13.328	13.292	13.363
ProbeTrack8	7	ProbeTrack	1415	SCS215b	733745.580458	733745.582877	8	0.013328	60	10	60-180	60	96	GapExp	0	28	4	96	1	distractor	0	1800	13.328	13.293	13.363
ProbeTrack8	7	ProbeTrack	1415	SCS215b	733745.580458	733745.582979	8	0.013328	60	10	60-180	60	132	GapExp	0	29	4	3	1	target	1	1026	13.328	13.293	13.363
ProbeTrack8	7	ProbeTrack	1415	SCS215b	733745.580458	733745.583058	8	0.013328	60	10	60-180	60	144	GapExp	0	30	4	3	0	distractor	1	680	13.328	13.293	13.363
ProbeTrack8	7	ProbeTrack	1415	SCS215b	733745.580458	733745.583136	8	0.013328	60	10	60-180	60	134	GapExp	0	31	4	0	0	distractor	1	467	13.328	13.292	13.363
ProbeTrack8	7	ProbeTrack	1415	SCS215b	733745.580458	733745.583210	8	0.013328	60	10	60-180	60	106	GapExp	0	32	4	3	0	target	0	707	13.328	13.293	13.363
ProbeTrack8	7	ProbeTrack	1415	SCS215b	733745.580458	733745.583284	8	0.013328	60	10	60-180	60	139	GapExp	0	33	4	6	0	target	0	1293	13.328	13.293	13.363
ProbeTrack8	7	ProbeTrack	1415	SCS215b	733745.580458	733745.583367	8	0.013328	60	10	60-180	60	123	GapExp	0	34	4	0	0	distractor	1	613	13.328	13.290	13.363
ProbeTrack8	7	ProbeTrack	1415	SCS215b	733745.580458	733745.583439	8	0.013328	60	10	60-180	60	91	GapExp	0	35	4	96	1	target	1	760	13.328	13.293	13.366
ProbeTrack8	7	ProbeTrack	1415	SCS215b	733745.580458	733745.583524	8	0.013328	60	10	60-180	60	76	GapExp	0	36	4	6	1	distractor	0	773	13.328	13.293	13.363
ProbeTrack8	7	ProbeTrack	1415	SCS215b	733745.580458	733745.583594	8	0.013328	60	10	60-180	60	75	GapExp	0	37	4	6	1	target	1	813	13.328	13.293	13.363
ProbeTrack8	7	ProbeTrack	1415	SCS215b	733745.580458	733745.583664	8	0.013328	60	10	60-180	60	169	GapExp	0	38	4	6	0	distractor	1	707	13.328	13.293	13.363
ProbeTrack8	7	ProbeTrack	1415	SCS215b	733745.580458	733745.583749	8	0.013328	60	10	60-180	60	169	GapExp	0	39	4	96	0	distractor	1	573	13.328	13.293	13.363
ProbeTrack8	7	ProbeTrack	1415	SCS215b	733745.580458	733745.583843	8	0.013328	60	10	60-180	60	110	GapExp	0	40	4	96	1	distractor	0	827	13.328	13.293	13.363
ProbeTrack8	7	ProbeTrack	1415	SCS215b	733745.580458	733745.583933	8	0.013328	60	10	60-180	60	62	GapExp	0	41	4	0	1	target	1	600	13.328	13.293	13.363
ProbeTrack8	7	ProbeTrack	1415	SCS215b	733745.580458	733745.583996	8	0.013328	60	10	60-180	60	176	GapExp	0	42	4	0	0	target	0	494	13.328	13.293	13.363
ProbeTrack8	7	ProbeTrack	1415	SCS215b	733745.580458	733745.584075	8	0.013328	60	10	60-180	60	111	GapExp	0	43	4	0	0	distractor	1	893	13.328	13.291	13.364
ProbeTrack8	7	ProbeTrack	1415	SCS215b	733745.580458	733745.584154	8	0.013328	60	10	60-180	60	130	GapExp	0	44	4	0	1	distractor	0	693	13.328	13.292	13.363
ProbeTrack8	7	ProbeTrack	1415	SCS215b	733745.580458	733745.584232	8	0.013328	60	10	60-180	60	74	GapExp	0	45	4	96	0	target	0	680	13.328	13.289	13.363
ProbeTrack8	7	ProbeTrack	1415	SCS215b	733745.580458	733745.584315	8	0.013328	60	10	60-180	60	174	GapExp	0	46	4	0	1	target	1	840	13.328	13.293	13.363
ProbeTrack8	7	ProbeTrack	1415	SCS215b	733745.580458	733745.584398	8	0.013328	60	10	60-180	60	120	GapExp	0	47	4	6	0	target	0	520	13.328	13.293	13.365
ProbeTrack8	7	ProbeTrack	1415	SCS215b	733745.580458	733745.584469	8	0.013328	60	10	60-180	60	156	GapExp	0	48	4	0	1	target	1	880	13.328	13.293	13.363
ProbeTrack8	7	ProbeTrack	1415	SCS215b	733745.580458	733745.584548	8	0.013328	60	10	60-180	60	128	GapExp	0	49	4	6	1	distractor	0	773	13.328	13.293	13.363
ProbeTrack8	7	ProbeTrack	1415	SCS215b	733745.580458	733745.584624	8	0.013328	60	10	60-180	60	77	GapExp	0	50	4	6	1	target	1	867	13.328	13.293	13.363
ProbeTrack8	7	ProbeTrack	1415	SCS215b	733745.580458	733745.584693	8	0.013328	60	10	60-180	60	175	GapExp	0	51	4	0	0	distractor	1	733	13.328	13.293	13.363
ProbeTrack8	7	ProbeTrack	1415	SCS215b	733745.580458	733745.584775	8	0.013328	60	10	60-180	60	93	GapExp	0	52	4	3	0	target	0	760	13.328	13.293	13.363
ProbeTrack8	7	ProbeTrack	1415	SCS215b	733745.580458	733745.584850	8	0.013328	60	10	60-180	60	129	GapExp	0	53	4	6	0	distractor	1	933	13.328	13.293	13.365
ProbeTrack8	7	ProbeTrack	1415	SCS215b	733745.580458	733745.584927	8	0.013328	60	10	60-180	60	94	GapExp	0	54	4	6	1	target	1	800	13.328	13.293	13.363
ProbeTrack8	7	ProbeTrack	1415	SCS215b	733745.580458	733745.584997	8	0.013328	60	10	60-180	60	127	GapExp	0	55	4	6	0	distractor	1	667	13.328	13.293	13.363
ProbeTrack8	7	ProbeTrack	1415	SCS215b	733745.580458	733745.585071	8	0.013328	60	10	60-180	60	176	GapExp	0	56	4	3	1	target	1	773	13.328	13.293	13.363
ProbeTrack8	7	ProbeTrack	1415	SCS215b	733745.580458	733745.585156	8	0.013328	60	10	60-180	60	118	GapExp	0	57	4	0	1	target	1	800	13.328	13.290	13.363
ProbeTrack8	7	ProbeTrack	1415	SCS215b	733745.580458	733745.585229	8	0.013328	60	10	60-180	60	145	GapExp	0	58	4	0	0	distractor	1	627	13.328	13.293	13.364
ProbeTrack8	7	ProbeTrack	1415	SCS215b	733745.580458	733745.585304	8	0.013328	60	10	60-180	60	157	GapExp	0	59	4	3	0	distractor	1	760	13.328	13.293	13.363
ProbeTrack8	7	ProbeTrack	1415	SCS215b	733745.580458	733745.585385	8	0.013328	60	10	60-180	60	68	GapExp	0	60	4	96	0	distractor	1	1640	13.328	13.291	13.366
ProbeTrack8	7	ProbeTrack	1415	SCS215b	733745.580458	733745.585478	8	0.013328	60	10	60-180	60	177	GapExp	0	61	4	96	1	distractor	0	867	13.328	13.293	13.363
ProbeTrack8	7	ProbeTrack	1415	SCS215b	733745.580458	733745.585577	8	0.013328	60	10	60-180	60	155	GapExp	0	62	4	6	0	distractor	1	1160	13.328	13.293	13.363
ProbeTrack8	7	ProbeTrack	1415	SCS215b	733745.580458	733745.585680	8	0.013328	60	10	60-180	60	124	GapExp	0	63	4	96	0	distractor	1	1933	13.328	13.293	13.363
ProbeTrack8	7	ProbeTrack	1415	SCS215b	733745.580458	733745.585791	8	0.013328	60	10	60-180	60	130	GapExp	0	64	4	3	1	target	1	813	13.328	13.293	13.363
ProbeTrack8	7	ProbeTrack	1415	SCS215b	733745.580458	733745.585868	8	0.013328	60	10	60-180	60	104	GapExp	0	65	4	96	0	distractor	1	667	13.328	13.289	13.363
ProbeTrack8	7	ProbeTrack	1415	SCS215b	733745.580458	733745.585954	8	0.013328	60	10	60-180	60	106	GapExp	0	66	4	3	0	distractor	1	613	13.328	13.293	13.366
ProbeTrack8	7	ProbeTrack	1415	SCS215b	733745.580458	733745.586026	8	0.013328	60	10	60-180	60	166	GapExp	0	67	4	0	1	distractor	0	1040	13.328	13.293	13.364
ProbeTrack8	7	ProbeTrack	1415	SCS215b	733745.580458	733745.586116	8	0.013328	60	10	60-180	60	154	GapExp	0	68	4	96	0	distractor	1	1000	13.328	13.293	13.363
ProbeTrack8	7	ProbeTrack	1415	SCS215b	733745.580458	733745.586214	8	0.013328	60	10	60-180	60	119	GapExp	0	69	4	0	1	distractor	0	840	13.328	13.293	13.363
ProbeTrack8	7	ProbeTrack	1415	SCS215b	733745.580458	733745.586296	8	0.013328	60	10	60-180	60	153	GapExp	0	70	4	3	1	target	1	907	13.328	13.293	13.363
ProbeTrack8	7	ProbeTrack	1415	SCS215b	733745.580458	733745.586380	8	0.013328	60	10	60-180	60	116	GapExp	0	71	4	96	1	distractor	0	1080	13.328	13.293	13.363
ProbeTrack8	7	ProbeTrack	1415	SCS215b	733745.580458	733745.586472	8	0.013328	60	10	60-180	60	62	GapExp	0	72	4	3	1	target	1	587	13.328	13.293	13.363
ProbeTrack8	7	ProbeTrack	1415	SCS215b	733745.580458	733745.586534	8	0.013328	60	10	60-180	60	144	GapExp	0	73	4	6	1	target	1	547	13.328	13.293	13.364
ProbeTrack8	7	ProbeTrack	1415	SCS215b	733745.580458	733745.586615	8	0.013328	60	10	60-180	60	144	GapExp	0	74	4	6	0	target	0	467	13.328	13.293	13.363
ProbeTrack8	7	ProbeTrack	1415	SCS215b	733745.580458	733745.586690	8	0.013328	60	10	60-180	60	145	GapExp	0	75	4	0	1	target	1	507	13.328	13.293	13.363
ProbeTrack8	7	ProbeTrack	1415	SCS215b	733745.580458	733745.586766	8	0.013328	60	10	60-180	60	129	GapExp	0	76	4	0	0	target	0	547	13.328	13.293	13.363
ProbeTrack8	7	ProbeTrack	1415	SCS215b	733745.580458	733745.586840	8	0.013328	60	10	60-180	60	163	GapExp	0	77	4	6	1	target	1	947	13.328	13.293	13.363
ProbeTrack8	7	ProbeTrack	1415	SCS215b	733745.580458	733745.586925	8	0.013328	60	10	60-180	60	81	GapExp	0	78	4	3	0	distractor	1	827	13.328	13.293	13.367
ProbeTrack8	7	ProbeTrack	1415	SCS215b	733745.580458	733745.586993	8	0.013328	60	10	60-180	60	150	GapExp	0	79	4	96	1	distractor	0	1186	13.328	13.293	13.363
ProbeTrack8	7	ProbeTrack	1415	SCS215b	733745.580458	733745.587093	8	0.013328	60	10	60-180	60	115	GapExp	0	80	4	6	1	target	1	640	13.328	13.293	13.363
ProbeTrack8	7	ProbeTrack	1415	SCS215b	733745.580458	733745.587165	8	0.013328	60	10	60-180	60	76	GapExp	0	81	4	0	0	distractor	1	680	13.328	13.293	13.363
ProbeTrack8	7	ProbeTrack	1415	SCS215b	733745.580458	733745.587233	8	0.013328	60	10	60-180	60	118	GapExp	0	82	4	96	1	target	1	867	13.328	13.293	13.363
ProbeTrack8	7	ProbeTrack	1415	SCS215b	733745.580458	733745.587321	8	0.013328	60	10	60-180	60	94	GapExp	0	83	4	3	0	distractor	1	693	13.328	13.293	13.363
ProbeTrack8	7	ProbeTrack	1415	SCS215b	733745.580458	733745.587389	8	0.013328	60	10	60-180	60	108	GapExp	0	84	4	6	1	target	1	600	13.328	13.293	13.364
ProbeTrack8	7	ProbeTrack	1415	SCS215b	733745.580458	733745.587462	8	0.013328	60	10	60-180	60	94	GapExp	0	85	4	6	0	distractor	1	613	13.328	13.293	13.363
ProbeTrack8	7	ProbeTrack	1415	SCS215b	733745.580458	733745.587531	8	0.013328	60	10	60-180	60	151	GapExp	0	86	4	0	1	distractor	0	747	13.328	13.292	13.364
ProbeTrack8	7	ProbeTrack	1415	SCS215b	733745.580458	733745.587610	8	0.013328	60	10	60-180	60	142	GapExp	0	87	4	96	1	distractor	0	667	13.328	13.293	13.363
ProbeTrack8	7	ProbeTrack	1415	SCS215b	733745.580458	733745.587702	8	0.013328	60	10	60-180	60	136	GapExp	0	88	4	3	0	target	0	827	13.328	13.293	13.363
ProbeTrack8	7	ProbeTrack	1415	SCS215b	733745.580458	733745.587779	8	0.013328	60	10	60-180	60	61	GapExp	0	89	4	3	1	target	1	853	13.328	13.293	13.363
ProbeTrack8	7	ProbeTrack	1415	SCS215b	733745.580458	733745.587845	8	0.013328	60	10	60-180	60	165	GapExp	0	90	4	6	0	target	0	1027	13.328	13.291	13.364
ProbeTrack8	7	ProbeTrack	1415	SCS215b	733745.580458	733745.587931	8	0.013328	60	10	60-180	60	116	GapExp	0	91	4	6	1	target	1	707	13.328	13.293	13.363
ProbeTrack8	7	ProbeTrack	1415	SCS215b	733745.580458	733745.588005	8	0.013328	60	10	60-180	60	70	GapExp	0	92	4	6	0	distractor	1	573	13.328	13.293	13.363
ProbeTrack8	7	ProbeTrack	1415	SCS215b	733745.580458	733745.588069	8	0.013328	60	10	60-180	60	117	GapExp	0	93	4	0	0	distractor	1	680	13.328	13.293	13.363
ProbeTrack8	7	ProbeTrack	1415	SCS215b	733745.580458	733745.588142	8	0.013328	60	10	60-180	60	67	GapExp	0	94	4	3	1	target	1	800	13.328	13.289	13.366
ProbeTrack8	7	ProbeTrack	1415	SCS215b	733745.580458	733745.588206	8	0.013328	60	10	60-180	60	120	GapExp	0	95	4	96	1	target	1	680	13.328	13.292	13.363
ProbeTrack8	7	ProbeTrack	1415	SCS215b	733745.580458	733745.588295	8	0.013328	60	10	60-180	60	114	GapExp	0	96	4	96	0	distractor	1	840	13.328	13.293	13.363
ProbeTrack8	7	ProbeTrack	1415	SCS215b	733745.580458	733745.588382	8	0.013328	60	10	60-180	60	120	GapExp	0	97	4	6	0	distractor	1	693	13.328	13.293	13.363
ProbeTrack8	7	ProbeTrack	1415	SCS215b	733745.580458	733745.588455	8	0.013328	60	10	60-180	60	156	GapExp	0	98	4	96	0	distractor	1	627	13.328	13.293	13.363
ProbeTrack8	7	ProbeTrack	1415	SCS215b	733745.580458	733745.588547	8	0.013328	60	10	60-180	60	138	GapExp	0	99	4	3	1	distractor	0	547	13.328	13.293	13.363
ProbeTrack8	7	ProbeTrack	1415	SCS215b	733745.580458	733745.588621	8	0.013328	60	10	60-180	60	99	GapExp	0	100	4	3	0	distractor	1	680	13.328	13.293	13.363
ProbeTrack8	7	ProbeTrack	1415	SCS215b	733745.580458	733745.588689	8	0.013328	60	10	60-180	60	143	GapExp	0	101	4	3	1	target	1	547	13.328	13.293	13.363
ProbeTrack8	7	ProbeTrack	1415	SCS215b	733745.580458	733745.588764	8	0.013328	60	10	60-180	60	126	GapExp	0	102	4	0	1	target	1	640	13.328	13.290	13.363
ProbeTrack8	7	ProbeTrack	1415	SCS215b	733745.580458	733745.588838	8	0.013328	60	10	60-180	60	70	GapExp	0	103	4	0	0	target	0	533	13.328	13.293	13.363
ProbeTrack8	7	ProbeTrack	1415	SCS215b	733745.580458	733745.588901	8	0.013328	60	10	60-180	60	130	GapExp	0	104	4	3	0	target	0	493	13.328	13.291	13.366
ProbeTrack8	7	ProbeTrack	1415	SCS215b	733745.580458	733745.588974	8	0.013328	60	10	60-180	60	92	GapExp	0	105	4	3	1	target	1	507	13.328	13.293	13.363
ProbeTrack8	7	ProbeTrack	1415	SCS215b	733745.580458	733745.589040	8	0.013328	60	10	60-180	60	148	GapExp	0	106	4	0	1	target	1	560	13.328	13.293	13.363
ProbeTrack8	7	ProbeTrack	1415	SCS215b	733745.580458	733745.589116	8	0.013328	60	10	60-180	60	131	GapExp	0	107	4	3	0	target	0	493	13.328	13.293	13.364
ProbeTrack8	7	ProbeTrack	1415	SCS215b	733745.580458	733745.589189	8	0.013328	60	10	60-180	60	101	GapExp	0	108	4	3	1	target	1	787	13.328	13.293	13.365
ProbeTrack8	7	ProbeTrack	1415	SCS215b	733745.580458	733745.589259	8	0.013328	60	10	60-180	60	69	GapExp	0	109	4	6	0	target	0	747	13.328	13.292	13.363
ProbeTrack8	7	ProbeTrack	1415	SCS215b	733745.580458	733745.589325	8	0.013328	60	10	60-180	60	112	GapExp	0	110	4	3	1	target	1	680	13.328	13.293	13.363
ProbeTrack8	7	ProbeTrack	1415	SCS215b	733745.580458	733745.589395	8	0.013328	60	10	60-180	60	177	GapExp	0	111	4	6	1	target	1	760	13.328	13.290	13.365
ProbeTrack8	7	ProbeTrack	1415	SCS215b	733745.580458	733745.589478	8	0.013328	60	10	60-180	60	75	GapExp	0	112	4	96	1	target	1	573	13.328	13.293	13.367
ProbeTrack8	7	ProbeTrack	1415	SCS215b	733745.580458	733745.589558	8	0.013328	60	10	60-180	60	108	GapExp	0	113	4	0	1	target	1	547	13.328	13.293	13.367
ProbeTrack8	7	ProbeTrack	1415	SCS215b	733745.580458	733745.589641	8	0.013328	60	10	60-180	60	143	GapExp	0	114	4	3	0	target	0	587	13.328	13.293	13.364
ProbeTrack8	7	ProbeTrack	1415	SCS215b	733745.580458	733745.589714	8	0.013328	60	10	60-180	60	157	GapExp	0	115	4	96	0	distractor	1	773	13.328	13.290	13.367
ProbeTrack8	7	ProbeTrack	1415	SCS215b	733745.580458	733745.589808	8	0.013328	60	10	60-180	60	98	GapExp	0	116	4	96	1	distractor	0	680	13.328	13.293	13.364
ProbeTrack8	7	ProbeTrack	1415	SCS215b	733745.580458	733745.589891	8	0.013328	60	10	60-180	60	87	GapExp	0	117	4	3	1	target	1	600	13.328	13.293	13.363
ProbeTrack8	7	ProbeTrack	1415	SCS215b	733745.580458	733745.590681	8	0.013328	60	10	60-180	60	150	GapExp	0	118	4	6	0	target	0	747	13.328	13.290	13.363
ProbeTrack8	7	ProbeTrack	1415	SCS215b	733745.580458	733745.590761	8	0.013328	60	10	60-180	60	157	GapExp	0	119	4	0	0	target	0	560	13.328	13.293	13.364
ProbeTrack8	7	ProbeTrack	1415	SCS215b	733745.580458	733745.590837	8	0.013328	60	10	60-180	60	129	GapExp	0	120	4	6	0	distractor	1	640	13.328	13.293	13.363
ProbeTrack8	7	ProbeTrack	1415	SCS215b	733745.580458	733745.590909	8	0.013328	60	10	60-180	60	78	GapExp	0	121	4	96	1	distractor	0	373	13.328	13.289	13.363
ProbeTrack8	7	ProbeTrack	1415	SCS215b	733745.580458	733745.590987	8	0.013328	60	10	60-180	60	142	GapExp	0	122	4	96	0	target	0	254	13.328	13.291	13.363
ProbeTrack8	7	ProbeTrack	1415	SCS215b	733745.580458	733745.591071	8	0.013328	60	10	60-180	60	95	GapExp	0	123	4	6	1	distractor	0	374	13.328	13.293	13.363
ProbeTrack8	7	ProbeTrack	1415	SCS215b	733745.580458	733745.591136	8	0.013328	60	10	60-180	60	174	GapExp	0	124	4	3	0	target	0	107	13.328	13.293	13.363
ProbeTrack8	7	ProbeTrack	1415	SCS215b	733745.580458	733745.591209	8	0.013328	60	10	60-180	60	121	GapExp	0	125	4	3	0	target	0	520	13.328	13.293	13.363
