exp	sub	code	rev	comp	runtime	trialtime	nstim	refreshdur	cuedur	gapdur	gapOnsetRange	durPostProbe	gapOnsetTime	blocktype	prac	trial	ntargets	soa	probeTarget	resp	acc	rt	meanFrameDur	minFrameDur	maxFrameDur
ProbeTrack8	1	ProbeTrack	1415	SCS215a	733733.404182	733733.404563	8	0.013328	60	0	60-180	60	82	NoGap	1	1	4	96	1	target	1	427	13.328	13.293	13.363
ProbeTrack8	1	ProbeTrack	1415	SCS215a	733733.404182	733733.404703	8	0.013328	60	0	60-180	60	139	NoGap	1	2	4	3	1	target	1	493	13.328	13.293	13.363
ProbeTrack8	1	ProbeTrack	1415	SCS215a	733733.404182	733733.404916	8	0.013328	60	0	60-180	60	68	NoGap	1	3	4	0	0	distractor	1	573	13.328	13.293	13.363
ProbeTrack8	1	ProbeTrack	1415	SCS215a	733733.404182	733733.404979	8	0.013328	60	0	60-180	60	163	NoGap	1	4	4	3	1	target	1	413	13.328	13.292	13.363
ProbeTrack8	1	ProbeTrack	1415	SCS215a	733733.404182	733733.405066	8	0.013328	60	0	60-180	60	96	NoGap	1	5	4	6	1	target	1	307	13.328	13.291	13.367
ProbeTrack8	1	ProbeTrack	1415	SCS215a	733733.404182	733733.405133	8	0.013328	60	0	60-180	60	76	NoGap	1	6	4	3	0	distractor	1	400	13.328	13.293	13.363
ProbeTrack8	1	ProbeTrack	1415	SCS215a	733733.404182	733733.405191	8	0.013328	60	0	60-180	60	172	NoGap	1	7	4	0	1	target	1	387	13.328	13.292	13.363
ProbeTrack8	1	ProbeTrack	1415	SCS215a	733733.404182	733733.405280	8	0.013328	60	0	60-180	60	100	NoGap	1	8	4	96	1	target	1	453	13.328	13.293	13.363
ProbeTrack8	1	ProbeTrack	1415	SCS215a	733733.404182	733733.405356	8	0.013328	60	0	60-180	60	122	NoGap	1	9	4	96	0	distractor	1	440	13.328	13.293	13.363
ProbeTrack8	1	ProbeTrack	1415	SCS215a	733733.404182	733733.405443	8	0.013328	60	0	60-180	60	131	NoGap	1	10	4	6	1	distractor	0	347	13.328	13.293	13.363
ProbeTrack8	1	ProbeTrack	1415	SCS215a	733733.404182	733733.405514	8	0.013328	60	0	60-180	60	112	NoGap	1	11	4	3	0	target	0	600	13.328	13.293	13.363
ProbeTrack8	1	ProbeTrack	1415	SCS215a	733733.404182	733733.405585	8	0.013328	60	0	60-180	60	64	NoGap	1	12	4	96	1	target	1	387	13.328	13.292	13.363
ProbeTrack8	1	ProbeTrack	1415	SCS215a	733733.404182	733733.405656	8	0.013328	60	0	60-180	60	87	NoGap	1	13	4	0	0	target	0	480	13.328	13.293	13.367
ProbeTrack8	1	ProbeTrack	1415	SCS215a	733733.404182	733733.405717	8	0.013328	60	0	60-180	60	85	NoGap	1	14	4	6	1	target	1	520	13.328	13.292	13.363
ProbeTrack8	1	ProbeTrack	1415	SCS215a	733733.404182	733733.405784	8	0.013328	60	0	60-180	60	150	NoGap	1	15	4	0	1	target	1	414	13.328	13.293	13.363
ProbeTrack8	1	ProbeTrack	1415	SCS215a	733733.404182	733733.405854	8	0.013328	60	0	60-180	60	84	NoGap	1	16	4	0	0	distractor	1	573	13.328	13.293	13.363
ProbeTrack8	1	ProbeTrack	1415	SCS215a	733733.404182	733733.405944	8	0.013328	60	0	60-180	60	145	NoGap	1	17	4	96	0	distractor	1	387	13.328	13.293	13.363
ProbeTrack8	1	ProbeTrack	1415	SCS215a	733733.404182	733733.406031	8	0.013328	60	0	60-180	60	160	NoGap	1	18	4	96	1	target	1	427	13.328	13.292	13.364
ProbeTrack8	1	ProbeTrack	1415	SCS215a	733733.404182	733733.406118	8	0.013328	60	0	60-180	60	68	NoGap	1	19	4	6	1	target	1	547	13.328	13.293	13.363
ProbeTrack8	1	ProbeTrack	1415	SCS215a	733733.404182	733733.406180	8	0.013328	60	0	60-180	60	110	NoGap	1	20	4	3	1	target	1	440	13.328	13.292	13.363
ProbeTrack8	1	ProbeTrack	1415	SCS215a	733733.404182	733733.406260	8	0.013328	60	0	60-180	60	171	NoGap	1	21	4	0	0	distractor	1	360	13.328	13.293	13.363
ProbeTrack8	1	ProbeTrack	1415	SCS215a	733733.404182	733733.406340	8	0.013328	60	0	60-180	60	79	NoGap	1	22	4	96	0	target	0	547	13.328	13.293	13.363
ProbeTrack8	1	ProbeTrack	1415	SCS215a	733733.404182	733733.406418	8	0.013328	60	0	60-180	60	140	NoGap	1	23	4	0	0	distractor	1	453	13.328	13.293	13.363
ProbeTrack8	1	ProbeTrack	1415	SCS215a	733733.404182	733733.406489	8	0.013328	60	0	60-180	60	88	NoGap	1	24	4	6	0	distractor	1	520	13.328	13.293	13.363
ProbeTrack8	1	ProbeTrack	1415	SCS215a	733733.404182	733733.406554	8	0.013328	60	0	60-180	60	97	NoGap	1	25	4	6	1	target	1	387	13.328	13.292	13.363
ProbeTrack8	1	ProbeTrack	1415	SCS215a	733733.404182	733733.406620	8	0.013328	60	0	60-180	60	158	NoGap	1	26	4	0	0	distractor	1	400	13.328	13.293	13.363
ProbeTrack8	1	ProbeTrack	1415	SCS215a	733733.404182	733733.406696	8	0.013328	60	0	60-180	60	122	NoGap	1	27	4	6	0	distractor	1	427	13.328	13.293	13.363
ProbeTrack8	1	ProbeTrack	1415	SCS215a	733733.404182	733733.406764	8	0.013328	60	0	60-180	60	96	NoGap	1	28	4	6	0	distractor	1	374	13.328	13.293	13.363
ProbeTrack8	1	ProbeTrack	1415	SCS215a	733733.404182	733733.406830	8	0.013328	60	0	60-180	60	111	NoGap	1	29	4	3	1	distractor	0	414	13.328	13.292	13.363
ProbeTrack8	1	ProbeTrack	1415	SCS215a	733733.404182	733733.406893	8	0.013328	60	0	60-180	60	88	NoGap	1	30	4	6	0	distractor	1	440	13.328	13.293	13.363
ProbeTrack8	1	ProbeTrack	1415	SCS215a	733733.404182	733733.406957	8	0.013328	60	0	60-180	60	168	NoGap	1	31	4	6	1	target	1	453	13.328	13.293	13.363
ProbeTrack8	1	ProbeTrack	1415	SCS215a	733733.404182	733733.407031	8	0.013328	60	0	60-180	60	119	NoGap	1	32	4	0	1	distractor	0	427	13.328	13.293	13.364
ProbeTrack8	1	ProbeTrack	1415	SCS215a	733733.404182	733733.407098	8	0.013328	60	0	60-180	60	163	NoGap	1	33	4	3	1	target	1	480	13.328	13.293	13.363
ProbeTrack8	1	ProbeTrack	1415	SCS215a	733733.404182	733733.407170	8	0.013328	60	0	60-180	60	142	NoGap	1	34	4	3	0	distractor	1	387	13.328	13.293	13.363
ProbeTrack8	1	ProbeTrack	1415	SCS215a	733733.404182	733733.407246	8	0.013328	60	0	60-180	60	164	NoGap	1	35	4	3	0	distractor	1	467	13.328	13.293	13.363
ProbeTrack8	1	ProbeTrack	1415	SCS215a	733733.404182	733733.407319	8	0.013328	60	0	60-180	60	142	NoGap	1	36	4	6	1	target	1	413	13.328	13.293	13.363
ProbeTrack8	1	ProbeTrack	1415	SCS215a	733733.404182	733733.407391	8	0.013328	60	0	60-180	60	165	NoGap	1	37	4	96	0	target	0	360	13.328	13.293	13.363
ProbeTrack8	1	ProbeTrack	1415	SCS215a	733733.404182	733733.407480	8	0.013328	60	0	60-180	60	127	NoGap	1	38	4	6	0	distractor	1	520	13.328	13.293	13.363
ProbeTrack8	1	ProbeTrack	1415	SCS215a	733733.404182	733733.407550	8	0.013328	60	0	60-180	60	166	NoGap	1	39	4	3	1	distractor	0	334	13.328	13.293	13.363
ProbeTrack8	1	ProbeTrack	1415	SCS215a	733733.404182	733733.407621	8	0.013328	60	0	60-180	60	142	NoGap	1	40	4	3	0	distractor	1	507	13.328	13.293	13.363
ProbeTrack8	1	ProbeTrack	1415	SCS215a	733733.404182	733733.407691	8	0.013328	60	0	60-180	60	134	NoGap	1	41	4	3	1	target	1	454	13.328	13.293	13.366
ProbeTrack8	1	ProbeTrack	1415	SCS215a	733733.404182	733733.407760	8	0.013328	60	0	60-180	60	176	NoGap	1	42	4	96	1	distractor	0	374	13.328	13.291	13.364
ProbeTrack8	1	ProbeTrack	1415	SCS215a	733733.404182	733733.407850	8	0.013328	60	0	60-180	60	108	NoGap	1	43	4	0	1	target	1	454	13.328	13.293	13.363
ProbeTrack8	1	ProbeTrack	1415	SCS215a	733733.404182	733733.407917	8	0.013328	60	0	60-180	60	162	NoGap	1	44	4	96	0	distractor	1	454	13.328	13.293	13.363
ProbeTrack8	1	ProbeTrack	1415	SCS215a	733733.404182	733733.408008	8	0.013328	60	0	60-180	60	108	NoGap	1	45	4	0	1	target	1	440	13.328	13.288	13.368
ProbeTrack8	1	ProbeTrack	1415	SCS215a	733733.404182	733733.408071	8	0.013328	60	0	60-180	60	156	NoGap	1	46	4	0	1	target	1	360	13.328	13.293	13.363
ProbeTrack8	1	ProbeTrack	1415	SCS215a	733733.404182	733733.408145	8	0.013328	60	0	60-180	60	154	NoGap	1	47	4	96	0	distractor	1	507	13.328	13.293	13.363
ProbeTrack8	1	ProbeTrack	1415	SCS215a	733733.404182	733733.408232	8	0.013328	60	0	60-180	60	169	NoGap	1	48	4	96	1	target	1	347	13.328	13.293	13.363
ProbeTrack8	1	ProbeTrack	1415	SCS215a	733733.404182	733733.408320	8	0.013328	60	0	60-180	60	128	NoGap	1	49	4	96	1	target	1	413	13.328	13.293	13.366
ProbeTrack8	1	ProbeTrack	1415	SCS215a	733733.404182	733733.408405	8	0.013328	60	0	60-180	60	140	NoGap	1	50	4	3	0	target	0	360	13.328	13.293	13.363
ProbeTrack8	1	ProbeTrack	1415	SCS215a	733733.409413	733733.409665	8	0.013327	60	10	60-180	60	121	GapPrac	1	1	2	3	0	distractor	1	507	13.328	13.293	13.363
ProbeTrack8	1	ProbeTrack	1415	SCS215a	733733.409413	733733.409750	8	0.013327	60	10	60-180	60	157	GapPrac	1	2	2	6	1	target	1	533	13.328	13.293	13.363
ProbeTrack8	1	ProbeTrack	1415	SCS215a	733733.409413	733733.409831	8	0.013327	60	10	60-180	60	89	GapPrac	1	3	2	96	0	distractor	1	493	13.328	13.293	13.363
ProbeTrack8	1	ProbeTrack	1415	SCS215a	733733.409413	733733.409912	8	0.013327	60	10	60-180	60	111	GapPrac	1	4	2	96	1	target	1	480	13.328	13.293	13.363
ProbeTrack8	1	ProbeTrack	1415	SCS215a	733733.409413	733733.409999	8	0.013327	60	10	60-180	60	135	GapPrac	1	5	2	6	0	distractor	1	613	13.328	13.293	13.363
ProbeTrack8	1	ProbeTrack	1415	SCS215a	733733.409413	733733.410074	8	0.013327	60	10	60-180	60	125	GapPrac	1	6	2	0	1	target	1	427	13.328	13.293	13.363
ProbeTrack8	1	ProbeTrack	1415	SCS215a	733733.409413	733733.410146	8	0.013327	60	10	60-180	60	62	GapPrac	1	7	2	0	1	target	1	467	13.328	13.293	13.363
ProbeTrack8	1	ProbeTrack	1415	SCS215a	733733.409413	733733.410209	8	0.013327	60	10	60-180	60	177	GapPrac	1	8	2	96	1	distractor	0	400	13.328	13.292	13.364
ProbeTrack8	1	ProbeTrack	1415	SCS215a	733733.409413	733733.410299	8	0.013327	60	10	60-180	60	63	GapPrac	1	9	2	0	0	target	0	693	13.328	13.293	13.363
ProbeTrack8	1	ProbeTrack	1415	SCS215a	733733.409413	733733.410365	8	0.013327	60	10	60-180	60	176	GapPrac	1	10	2	96	0	distractor	1	493	13.328	13.293	13.363
ProbeTrack8	1	ProbeTrack	1415	SCS215a	733733.409413	733733.410460	8	0.013327	60	10	60-180	60	89	GapPrac	1	11	2	96	1	target	1	347	13.328	13.293	13.363
ProbeTrack8	1	ProbeTrack	1415	SCS215a	733733.409413	733733.410539	8	0.013327	60	10	60-180	60	83	GapPrac	1	12	2	6	1	target	1	453	13.328	13.293	13.363
ProbeTrack8	1	ProbeTrack	1415	SCS215a	733733.409413	733733.410605	8	0.013327	60	10	60-180	60	88	GapPrac	1	13	2	6	1	target	1	347	13.328	13.293	13.363
ProbeTrack8	1	ProbeTrack	1415	SCS215a	733733.409413	733733.410670	8	0.013327	60	10	60-180	60	175	GapPrac	1	14	2	6	0	distractor	1	560	13.328	13.293	13.363
ProbeTrack8	1	ProbeTrack	1415	SCS215a	733733.409413	733733.410749	8	0.013327	60	10	60-180	60	143	GapPrac	1	15	2	3	1	target	1	427	13.328	13.293	13.363
ProbeTrack8	1	ProbeTrack	1415	SCS215a	733733.409413	733733.410823	8	0.013327	60	10	60-180	60	78	GapPrac	1	16	2	3	0	distractor	1	453	13.328	13.293	13.363
ProbeTrack8	1	ProbeTrack	1415	SCS215a	733733.409413	733733.410884	8	0.013327	60	10	60-180	60	84	GapPrac	1	17	2	3	1	target	1	320	13.328	13.293	13.363
ProbeTrack8	1	ProbeTrack	1415	SCS215a	733733.409413	733733.410945	8	0.013327	60	10	60-180	60	157	GapPrac	1	18	2	0	0	distractor	1	360	13.328	13.293	13.363
ProbeTrack8	1	ProbeTrack	1415	SCS215a	733733.409413	733733.411019	8	0.013327	60	10	60-180	60	62	GapPrac	1	19	2	96	0	distractor	1	414	13.328	13.293	13.363
ProbeTrack8	1	ProbeTrack	1415	SCS215a	733733.409413	733733.411094	8	0.013327	60	10	60-180	60	146	GapPrac	1	20	2	3	0	distractor	1	533	13.328	13.289	13.366
ProbeTrack8	1	ProbeTrack	1415	SCS215a	733733.411618	733733.412005	8	0.013328	60	10	60-180	60	169	GapExp	1	1	2	3	1	target	1	440	13.328	13.293	13.363
ProbeTrack8	1	ProbeTrack	1415	SCS215a	733733.411618	733733.412096	8	0.013328	60	10	60-180	60	158	GapExp	1	2	2	96	1	target	1	413	13.328	13.293	13.363
ProbeTrack8	1	ProbeTrack	1415	SCS215a	733733.411618	733733.412189	8	0.013328	60	10	60-180	60	135	GapExp	1	3	2	0	0	distractor	1	560	13.328	13.293	13.363
ProbeTrack8	1	ProbeTrack	1415	SCS215a	733733.411618	733733.412264	8	0.013328	60	10	60-180	60	115	GapExp	1	4	2	6	1	target	1	334	13.328	13.291	13.363
ProbeTrack8	1	ProbeTrack	1415	SCS215a	733733.411618	733733.412331	8	0.013328	60	10	60-180	60	101	GapExp	1	5	2	3	0	distractor	1	440	13.328	13.293	13.363
ProbeTrack8	1	ProbeTrack	1415	SCS215a	733733.411618	733733.412401	8	0.013328	60	10	60-180	60	98	GapExp	0	6	2	0	0	distractor	1	440	13.328	13.293	13.363
ProbeTrack8	1	ProbeTrack	1415	SCS215a	733733.411618	733733.412470	8	0.013328	60	10	60-180	60	146	GapExp	0	7	2	3	0	target	0	347	13.328	13.293	13.363
ProbeTrack8	1	ProbeTrack	1415	SCS215a	733733.411618	733733.412543	8	0.013328	60	10	60-180	60	84	GapExp	0	8	2	6	1	target	1	360	13.328	13.293	13.363
ProbeTrack8	1	ProbeTrack	1415	SCS215a	733733.411618	733733.412608	8	0.013328	60	10	60-180	60	88	GapExp	0	9	2	6	0	distractor	1	427	13.328	13.293	13.363
ProbeTrack8	1	ProbeTrack	1415	SCS215a	733733.411618	733733.412680	8	0.013328	60	10	60-180	60	108	GapExp	0	10	2	3	0	target	0	507	13.328	13.293	13.363
ProbeTrack8	1	ProbeTrack	1415	SCS215a	733733.411618	733733.412747	8	0.013328	60	10	60-180	60	103	GapExp	0	11	2	0	1	target	1	400	13.328	13.293	13.363
ProbeTrack8	1	ProbeTrack	1415	SCS215a	733733.411618	733733.412815	8	0.013328	60	10	60-180	60	88	GapExp	0	12	2	0	1	target	1	467	13.328	13.293	13.363
ProbeTrack8	1	ProbeTrack	1415	SCS215a	733733.411618	733733.412886	8	0.013328	60	10	60-180	60	110	GapExp	0	13	2	3	0	distractor	1	653	13.328	13.292	13.363
ProbeTrack8	1	ProbeTrack	1415	SCS215a	733733.411618	733733.412964	8	0.013328	60	10	60-180	60	115	GapExp	0	14	2	0	1	target	1	413	13.328	13.292	13.366
ProbeTrack8	1	ProbeTrack	1415	SCS215a	733733.411618	733733.413043	8	0.013328	60	10	60-180	60	173	GapExp	0	15	2	0	0	distractor	1	360	13.328	13.293	13.363
ProbeTrack8	1	ProbeTrack	1415	SCS215a	733733.411618	733733.413123	8	0.013328	60	10	60-180	60	103	GapExp	0	16	2	3	1	target	1	307	13.328	13.293	13.363
ProbeTrack8	1	ProbeTrack	1415	SCS215a	733733.411618	733733.413188	8	0.013328	60	10	60-180	60	82	GapExp	0	17	2	0	1	target	1	427	13.328	13.293	13.363
ProbeTrack8	1	ProbeTrack	1415	SCS215a	733733.411618	733733.413252	8	0.013328	60	10	60-180	60	89	GapExp	0	18	2	0	0	distractor	1	454	13.328	13.293	13.362
ProbeTrack8	1	ProbeTrack	1415	SCS215a	733733.411618	733733.413320	8	0.013328	60	10	60-180	60	117	GapExp	0	19	2	96	0	distractor	1	507	13.328	13.292	13.366
ProbeTrack8	1	ProbeTrack	1415	SCS215a	733733.411618	733733.413403	8	0.013328	60	10	60-180	60	146	GapExp	0	20	2	96	1	distractor	0	547	13.328	13.293	13.363
ProbeTrack8	1	ProbeTrack	1415	SCS215a	733733.411618	733733.413494	8	0.013328	60	10	60-180	60	163	GapExp	0	21	2	0	0	distractor	1	693	13.328	13.293	13.363
ProbeTrack8	1	ProbeTrack	1415	SCS215a	733733.411618	733733.413574	8	0.013328	60	10	60-180	60	94	GapExp	0	22	2	3	0	distractor	1	533	13.328	13.293	13.363
ProbeTrack8	1	ProbeTrack	1415	SCS215a	733733.411618	733733.413640	8	0.013328	60	10	60-180	60	89	GapExp	0	23	2	6	1	target	1	373	13.328	13.293	13.363
ProbeTrack8	1	ProbeTrack	1415	SCS215a	733733.411618	733733.413706	8	0.013328	60	10	60-180	60	136	GapExp	0	24	2	3	0	distractor	1	427	13.328	13.292	13.363
ProbeTrack8	1	ProbeTrack	1415	SCS215a	733733.411618	733733.413783	8	0.013328	60	10	60-180	60	168	GapExp	0	25	2	3	0	distractor	1	347	13.328	13.292	13.363
ProbeTrack8	1	ProbeTrack	1415	SCS215a	733733.411618	733733.413862	8	0.013328	60	10	60-180	60	133	GapExp	0	26	2	3	1	target	1	320	13.328	13.293	13.363
ProbeTrack8	1	ProbeTrack	1415	SCS215a	733733.411618	733733.413937	8	0.013328	60	10	60-180	60	154	GapExp	0	27	2	6	0	distractor	1	414	13.328	13.289	13.363
ProbeTrack8	1	ProbeTrack	1415	SCS215a	733733.411618	733733.414070	8	0.013328	60	10	60-180	60	68	GapExp	0	28	2	0	0	distractor	1	440	13.328	13.293	13.363
ProbeTrack8	1	ProbeTrack	1415	SCS215a	733733.411618	733733.414140	8	0.013328	60	10	60-180	60	153	GapExp	0	29	2	96	0	distractor	1	467	13.328	13.292	13.363
ProbeTrack8	1	ProbeTrack	1415	SCS215a	733733.411618	733733.414232	8	0.013328	60	10	60-180	60	111	GapExp	0	30	2	3	1	target	1	413	13.328	13.293	13.363
ProbeTrack8	1	ProbeTrack	1415	SCS215a	733733.411618	733733.414300	8	0.013328	60	10	60-180	60	169	GapExp	0	31	2	96	0	distractor	1	480	13.328	13.290	13.367
ProbeTrack8	1	ProbeTrack	1415	SCS215a	733733.411618	733733.414391	8	0.013328	60	10	60-180	60	97	GapExp	0	32	2	3	1	target	1	360	13.328	13.293	13.363
ProbeTrack8	1	ProbeTrack	1415	SCS215a	733733.411618	733733.414457	8	0.013328	60	10	60-180	60	87	GapExp	0	33	2	96	1	target	1	454	13.328	13.293	13.363
ProbeTrack8	1	ProbeTrack	1415	SCS215a	733733.411618	733733.414535	8	0.013328	60	10	60-180	60	169	GapExp	0	34	2	96	0	distractor	1	520	13.328	13.293	13.363
ProbeTrack8	1	ProbeTrack	1415	SCS215a	733733.411618	733733.414631	8	0.013328	60	10	60-180	60	97	GapExp	0	35	2	3	1	target	1	334	13.328	13.293	13.363
ProbeTrack8	1	ProbeTrack	1415	SCS215a	733733.411618	733733.414697	8	0.013328	60	10	60-180	60	150	GapExp	0	36	2	6	1	target	1	320	13.328	13.293	13.363
ProbeTrack8	1	ProbeTrack	1415	SCS215a	733733.411618	733733.415312	8	0.013328	60	10	60-180	60	169	GapExp	0	37	2	96	1	target	1	467	13.328	13.292	13.363
ProbeTrack8	1	ProbeTrack	1415	SCS215a	733733.411618	733733.415403	8	0.013328	60	10	60-180	60	62	GapExp	0	38	2	0	0	distractor	1	493	13.328	13.293	13.363
ProbeTrack8	1	ProbeTrack	1415	SCS215a	733733.411618	733733.415464	8	0.013328	60	10	60-180	60	75	GapExp	0	39	2	0	1	target	1	400	13.328	13.293	13.363
ProbeTrack8	1	ProbeTrack	1415	SCS215a	733733.411618	733733.415526	8	0.013328	60	10	60-180	60	78	GapExp	0	40	2	6	1	target	1	347	13.328	13.293	13.363
ProbeTrack8	1	ProbeTrack	1415	SCS215a	733733.411618	733733.415592	8	0.013328	60	10	60-180	60	165	GapExp	0	41	2	6	0	distractor	1	400	13.328	13.293	13.366
ProbeTrack8	1	ProbeTrack	1415	SCS215a	733733.411618	733733.415667	8	0.013328	60	10	60-180	60	112	GapExp	0	42	2	3	1	target	1	334	13.328	13.293	13.363
ProbeTrack8	1	ProbeTrack	1415	SCS215a	733733.411618	733733.415737	8	0.013328	60	10	60-180	60	166	GapExp	0	43	2	0	1	target	1	400	13.328	13.292	13.363
ProbeTrack8	1	ProbeTrack	1415	SCS215a	733733.411618	733733.415825	8	0.013328	60	10	60-180	60	172	GapExp	0	44	2	3	0	distractor	1	413	13.328	13.293	13.363
ProbeTrack8	1	ProbeTrack	1415	SCS215a	733733.411618	733733.415950	8	0.013328	60	10	60-180	60	103	GapExp	0	45	2	6	1	target	1	347	13.328	13.293	13.363
ProbeTrack8	1	ProbeTrack	1415	SCS215a	733733.411618	733733.416041	8	0.013328	60	10	60-180	60	152	GapExp	0	46	2	0	1	distractor	0	414	13.328	13.293	13.363
ProbeTrack8	1	ProbeTrack	1415	SCS215a	733733.411618	733733.416113	8	0.013328	60	10	60-180	60	151	GapExp	0	47	2	0	0	distractor	1	427	13.328	13.293	13.363
ProbeTrack8	1	ProbeTrack	1415	SCS215a	733733.411618	733733.416190	8	0.013328	60	10	60-180	60	107	GapExp	0	48	2	96	1	target	1	373	13.328	13.291	13.364
ProbeTrack8	1	ProbeTrack	1415	SCS215a	733733.411618	733733.416272	8	0.013328	60	10	60-180	60	64	GapExp	0	49	2	96	0	distractor	1	427	13.328	13.293	13.363
ProbeTrack8	1	ProbeTrack	1415	SCS215a	733733.411618	733733.416348	8	0.013328	60	10	60-180	60	73	GapExp	0	50	2	3	1	target	1	334	13.328	13.293	13.363
ProbeTrack8	1	ProbeTrack	1415	SCS215a	733733.411618	733733.416413	8	0.013328	60	10	60-180	60	73	GapExp	0	51	2	0	1	target	1	307	13.328	13.293	13.363
ProbeTrack8	1	ProbeTrack	1415	SCS215a	733733.411618	733733.416472	8	0.013328	60	10	60-180	60	115	GapExp	0	52	2	3	0	target	0	400	13.328	13.293	13.363
ProbeTrack8	1	ProbeTrack	1415	SCS215a	733733.411618	733733.416541	8	0.013328	60	10	60-180	60	106	GapExp	0	53	2	96	1	target	1	320	13.328	13.293	13.363
ProbeTrack8	1	ProbeTrack	1415	SCS215a	733733.411618	733733.416621	8	0.013328	60	10	60-180	60	173	GapExp	0	54	2	96	1	target	1	334	13.328	13.291	13.363
ProbeTrack8	1	ProbeTrack	1415	SCS215a	733733.411618	733733.416713	8	0.013328	60	10	60-180	60	148	GapExp	0	55	2	6	1	target	1	320	13.328	13.293	13.363
ProbeTrack8	1	ProbeTrack	1415	SCS215a	733733.411618	733733.416786	8	0.013328	60	10	60-180	60	62	GapExp	0	56	2	6	0	distractor	1	427	13.328	13.293	13.363
ProbeTrack8	1	ProbeTrack	1415	SCS215a	733733.411618	733733.416860	8	0.013328	60	10	60-180	60	86	GapExp	0	57	2	96	0	distractor	1	414	13.328	13.293	13.363
ProbeTrack8	1	ProbeTrack	1415	SCS215a	733733.411618	733733.416939	8	0.013328	60	10	60-180	60	168	GapExp	0	58	2	96	1	target	1	320	13.328	13.293	13.363
ProbeTrack8	1	ProbeTrack	1415	SCS215a	733733.411618	733733.417033	8	0.013328	60	10	60-180	60	140	GapExp	0	59	2	3	1	distractor	0	334	13.328	13.292	13.363
ProbeTrack8	1	ProbeTrack	1415	SCS215a	733733.411618	733733.417105	8	0.013328	60	10	60-180	60	96	GapExp	0	60	2	96	0	distractor	1	427	13.328	13.293	13.363
ProbeTrack8	1	ProbeTrack	1415	SCS215a	733733.411618	733733.417185	8	0.013328	60	10	60-180	60	65	GapExp	0	61	2	3	1	target	1	374	13.328	13.293	13.363
ProbeTrack8	1	ProbeTrack	1415	SCS215a	733733.411618	733733.417246	8	0.013328	60	10	60-180	60	85	GapExp	0	62	2	96	1	target	1	427	13.328	13.293	13.363
ProbeTrack8	1	ProbeTrack	1415	SCS215a	733733.411618	733733.417325	8	0.013328	60	10	60-180	60	92	GapExp	0	63	2	0	0	distractor	1	360	13.328	13.293	13.363
ProbeTrack8	1	ProbeTrack	1415	SCS215a	733733.411618	733733.417387	8	0.013328	60	10	60-180	60	81	GapExp	0	64	2	6	1	target	1	480	13.328	13.293	13.363
ProbeTrack8	1	ProbeTrack	1415	SCS215a	733733.411618	733733.417450	8	0.013328	60	10	60-180	60	129	GapExp	0	65	2	0	1	target	1	320	13.328	13.293	13.363
ProbeTrack8	1	ProbeTrack	1415	SCS215a	733733.411618	733733.417519	8	0.013328	60	10	60-180	60	111	GapExp	0	66	2	6	0	distractor	1	440	13.328	13.293	13.363
ProbeTrack8	1	ProbeTrack	1415	SCS215a	733733.411618	733733.417617	8	0.013328	60	10	60-180	60	115	GapExp	0	67	2	6	0	distractor	1	454	13.328	13.293	13.363
ProbeTrack8	1	ProbeTrack	1415	SCS215a	733733.411618	733733.417684	8	0.013328	60	10	60-180	60	61	GapExp	0	68	2	96	0	distractor	1	440	13.328	13.293	13.363
ProbeTrack8	1	ProbeTrack	1415	SCS215a	733733.411618	733733.417760	8	0.013328	60	10	60-180	60	122	GapExp	0	69	2	3	1	target	1	347	13.328	13.293	13.363
ProbeTrack8	1	ProbeTrack	1415	SCS215a	733733.411618	733733.417828	8	0.013328	60	10	60-180	60	120	GapExp	0	70	2	0	0	distractor	1	387	13.328	13.293	13.363
ProbeTrack8	1	ProbeTrack	1415	SCS215a	733733.411618	733733.417905	8	0.013328	60	10	60-180	60	113	GapExp	0	71	2	0	1	target	1	413	13.328	13.293	13.363
ProbeTrack8	1	ProbeTrack	1415	SCS215a	733733.411618	733733.417973	8	0.013328	60	10	60-180	60	107	GapExp	0	72	2	96	1	target	1	320	13.328	13.293	13.367
ProbeTrack8	1	ProbeTrack	1415	SCS215a	733733.411618	733733.418051	8	0.013328	60	10	60-180	60	142	GapExp	0	73	2	3	1	target	1	347	13.328	13.293	13.364
ProbeTrack8	1	ProbeTrack	1415	SCS215a	733733.411618	733733.418123	8	0.013328	60	10	60-180	60	69	GapExp	0	74	2	0	1	distractor	0	387	13.328	13.293	13.363
ProbeTrack8	1	ProbeTrack	1415	SCS215a	733733.411618	733733.418190	8	0.013328	60	10	60-180	60	106	GapExp	0	75	2	6	0	target	0	520	13.328	13.293	13.363
ProbeTrack8	1	ProbeTrack	1415	SCS215a	733733.411618	733733.418258	8	0.013328	60	10	60-180	60	77	GapExp	0	76	2	96	1	target	1	347	13.328	13.293	13.363
ProbeTrack8	1	ProbeTrack	1415	SCS215a	733733.411618	733733.418334	8	0.013328	60	10	60-180	60	61	GapExp	0	77	2	96	0	distractor	1	547	13.328	13.293	13.363
ProbeTrack8	1	ProbeTrack	1415	SCS215a	733733.411618	733733.418410	8	0.013328	60	10	60-180	60	157	GapExp	0	78	2	6	0	distractor	1	573	13.328	13.293	13.363
ProbeTrack8	1	ProbeTrack	1415	SCS215a	733733.411618	733733.418488	8	0.013328	60	10	60-180	60	149	GapExp	0	79	2	3	0	distractor	1	400	13.328	13.293	13.363
ProbeTrack8	1	ProbeTrack	1415	SCS215a	733733.411618	733733.418561	8	0.013328	60	10	60-180	60	142	GapExp	0	80	2	3	1	target	1	320	13.328	13.293	13.363
ProbeTrack8	1	ProbeTrack	1415	SCS215a	733733.411618	733733.418630	8	0.013328	60	10	60-180	60	106	GapExp	0	81	2	0	1	target	1	400	13.328	13.289	13.363
ProbeTrack8	1	ProbeTrack	1415	SCS215a	733733.411618	733733.418696	8	0.013328	60	10	60-180	60	62	GapExp	0	82	2	3	1	distractor	0	453	13.328	13.293	13.363
ProbeTrack8	1	ProbeTrack	1415	SCS215a	733733.411618	733733.418755	8	0.013328	60	10	60-180	60	174	GapExp	0	83	2	0	1	target	1	334	13.328	13.293	13.363
ProbeTrack8	1	ProbeTrack	1415	SCS215a	733733.411618	733733.418831	8	0.013328	60	10	60-180	60	123	GapExp	0	84	2	6	1	target	1	387	13.328	13.293	13.363
ProbeTrack8	1	ProbeTrack	1415	SCS215a	733733.411618	733733.418901	8	0.013328	60	10	60-180	60	94	GapExp	0	85	2	0	0	target	0	547	13.328	13.292	13.363
ProbeTrack8	1	ProbeTrack	1415	SCS215a	733733.411618	733733.418969	8	0.013328	60	10	60-180	60	62	GapExp	0	86	2	0	0	target	0	360	13.328	13.293	13.363
ProbeTrack8	1	ProbeTrack	1415	SCS215a	733733.411618	733733.419030	8	0.013328	60	10	60-180	60	90	GapExp	0	87	2	3	0	target	0	520	13.328	13.293	13.363
ProbeTrack8	1	ProbeTrack	1415	SCS215a	733733.411618	733733.419095	8	0.013328	60	10	60-180	60	63	GapExp	0	88	2	0	1	target	1	533	13.328	13.293	13.363
ProbeTrack8	1	ProbeTrack	1415	SCS215a	733733.411618	733733.419157	8	0.013328	60	10	60-180	60	88	GapExp	0	89	2	6	0	distractor	1	480	13.328	13.293	13.363
ProbeTrack8	1	ProbeTrack	1415	SCS215a	733733.411618	733733.419223	8	0.013328	60	10	60-180	60	89	GapExp	0	90	2	3	0	distractor	1	480	13.328	13.293	13.363
ProbeTrack8	1	ProbeTrack	1415	SCS215a	733733.411618	733733.419289	8	0.013328	60	10	60-180	60	176	GapExp	0	91	2	6	1	target	1	360	13.328	13.293	13.363
ProbeTrack8	1	ProbeTrack	1415	SCS215a	733733.411618	733733.419365	8	0.013328	60	10	60-180	60	170	GapExp	0	92	2	3	0	distractor	1	427	13.328	13.293	13.363
ProbeTrack8	1	ProbeTrack	1415	SCS215a	733733.411618	733733.419439	8	0.013328	60	10	60-180	60	164	GapExp	0	93	2	96	1	target	1	400	13.328	13.293	13.363
ProbeTrack8	1	ProbeTrack	1415	SCS215a	733733.411618	733733.419528	8	0.013328	60	10	60-180	60	176	GapExp	0	94	2	6	1	target	1	427	13.328	13.293	13.363
ProbeTrack8	1	ProbeTrack	1415	SCS215a	733733.411618	733733.419611	8	0.013328	60	10	60-180	60	80	GapExp	0	95	2	96	0	distractor	1	440	13.328	13.293	13.363
ProbeTrack8	1	ProbeTrack	1415	SCS215a	733733.411618	733733.419931	8	0.013328	60	10	60-180	60	80	GapExp	0	96	2	3	0	distractor	1	347	13.328	13.293	13.363
ProbeTrack8	1	ProbeTrack	1415	SCS215a	733733.411618	733733.419991	8	0.013328	60	10	60-180	60	69	GapExp	0	97	2	0	0	target	0	320	13.328	13.293	13.363
ProbeTrack8	1	ProbeTrack	1415	SCS215a	733733.411618	733733.420056	8	0.013328	60	10	60-180	60	170	GapExp	0	98	2	96	0	distractor	1	453	13.328	13.289	13.367
ProbeTrack8	1	ProbeTrack	1415	SCS215a	733733.411618	733733.420148	8	0.013328	60	10	60-180	60	146	GapExp	0	99	2	6	1	target	1	334	13.328	13.293	13.363
ProbeTrack8	1	ProbeTrack	1415	SCS215a	733733.411618	733733.420220	8	0.013328	60	10	60-180	60	161	GapExp	0	100	2	96	1	target	1	320	13.328	13.293	13.364
ProbeTrack8	1	ProbeTrack	1415	SCS215a	733733.411618	733733.420310	8	0.013328	60	10	60-180	60	178	GapExp	0	101	2	6	1	target	1	413	13.328	13.293	13.363
ProbeTrack8	1	ProbeTrack	1415	SCS215a	733733.411618	733733.420390	8	0.013328	60	10	60-180	60	92	GapExp	0	102	2	6	1	target	1	440	13.328	13.293	13.363
ProbeTrack8	1	ProbeTrack	1415	SCS215a	733733.411618	733733.420455	8	0.013328	60	10	60-180	60	125	GapExp	0	103	2	6	0	distractor	1	387	13.328	13.293	13.363
ProbeTrack8	1	ProbeTrack	1415	SCS215a	733733.411618	733733.420528	8	0.013328	60	10	60-180	60	83	GapExp	0	104	2	6	1	target	1	307	13.328	13.280	13.375
ProbeTrack8	1	ProbeTrack	1415	SCS215a	733733.411618	733733.420590	8	0.013328	60	10	60-180	60	103	GapExp	0	105	2	96	1	distractor	0	414	13.328	13.293	13.363
ProbeTrack8	1	ProbeTrack	1415	SCS215a	733733.411618	733733.420671	8	0.013328	60	10	60-180	60	179	GapExp	0	106	2	3	0	distractor	1	520	13.328	13.293	13.363
ProbeTrack8	1	ProbeTrack	1415	SCS215a	733733.411618	733733.420750	8	0.013328	60	10	60-180	60	111	GapExp	0	107	2	0	1	target	1	294	13.328	13.293	13.363
ProbeTrack8	1	ProbeTrack	1415	SCS215a	733733.411618	733733.420818	8	0.013328	60	10	60-180	60	168	GapExp	0	108	2	96	1	distractor	0	374	13.328	13.292	13.363
ProbeTrack8	1	ProbeTrack	1415	SCS215a	733733.411618	733733.420915	8	0.013328	60	10	60-180	60	171	GapExp	0	109	2	6	0	distractor	1	454	13.328	13.293	13.363
ProbeTrack8	1	ProbeTrack	1415	SCS215a	733733.411618	733733.420994	8	0.013328	60	10	60-180	60	105	GapExp	0	110	2	96	0	distractor	1	454	13.328	13.293	13.363
ProbeTrack8	1	ProbeTrack	1415	SCS215a	733733.411618	733733.421081	8	0.013328	60	10	60-180	60	163	GapExp	0	111	2	96	0	distractor	1	440	13.328	13.293	13.363
ProbeTrack8	1	ProbeTrack	1415	SCS215a	733733.411618	733733.421171	8	0.013328	60	10	60-180	60	133	GapExp	0	112	2	3	1	target	1	334	13.328	13.293	13.363
ProbeTrack8	1	ProbeTrack	1415	SCS215a	733733.411618	733733.421242	8	0.013328	60	10	60-180	60	97	GapExp	0	113	2	0	0	distractor	1	400	13.328	13.293	13.363
ProbeTrack8	1	ProbeTrack	1415	SCS215a	733733.411618	733733.421307	8	0.013328	60	10	60-180	60	129	GapExp	0	114	2	6	0	distractor	1	413	13.328	13.289	13.363
ProbeTrack8	1	ProbeTrack	1415	SCS215a	733733.411618	733733.421381	8	0.013328	60	10	60-180	60	157	GapExp	0	115	2	3	1	target	1	440	13.328	13.293	13.363
ProbeTrack8	1	ProbeTrack	1415	SCS215a	733733.411618	733733.421455	8	0.013328	60	10	60-180	60	66	GapExp	0	116	2	6	0	distractor	1	360	13.328	13.293	13.363
ProbeTrack8	1	ProbeTrack	1415	SCS215a	733733.411618	733733.421519	8	0.013328	60	10	60-180	60	108	GapExp	0	117	2	6	1	target	1	414	13.328	13.293	13.363
ProbeTrack8	1	ProbeTrack	1415	SCS215a	733733.411618	733733.421586	8	0.013328	60	10	60-180	60	66	GapExp	0	118	2	0	0	distractor	1	427	13.328	13.293	13.363
ProbeTrack8	1	ProbeTrack	1415	SCS215a	733733.411618	733733.421647	8	0.013328	60	10	60-180	60	131	GapExp	0	119	2	96	0	distractor	1	427	13.328	13.293	13.363
ProbeTrack8	1	ProbeTrack	1415	SCS215a	733733.411618	733733.421731	8	0.013328	60	10	60-180	60	153	GapExp	0	120	2	6	0	distractor	1	400	13.328	13.293	13.363
ProbeTrack8	1	ProbeTrack	1415	SCS215a	733733.411618	733733.421804	8	0.013328	60	10	60-180	60	90	GapExp	0	121	2	3	0	distractor	1	493	13.328	13.293	13.363
ProbeTrack8	1	ProbeTrack	1415	SCS215a	733733.411618	733733.421871	8	0.013328	60	10	60-180	60	66	GapExp	0	122	2	0	0	distractor	1	453	13.328	13.293	13.363
ProbeTrack8	1	ProbeTrack	1415	SCS215a	733733.411618	733733.421967	8	0.013328	60	10	60-180	60	163	GapExp	0	123	2	96	1	target	1	334	13.328	13.293	13.363
ProbeTrack8	1	ProbeTrack	1415	SCS215a	733733.411618	733733.422058	8	0.013328	60	10	60-180	60	80	GapExp	0	124	2	6	0	distractor	1	413	13.328	13.293	13.363
ProbeTrack8	1	ProbeTrack	1415	SCS215a	733733.411618	733733.422132	8	0.013328	60	10	60-180	60	119	GapExp	0	125	2	96	0	distractor	1	373	13.328	13.293	13.363
ProbeTrack8	1	ProbeTrack	1415	SCS215a	733733.422704	733733.422833	8	0.013328	60	10	60-180	60	167	GapPrac	1	1	4	6	1	target	1	373	13.328	13.290	13.363
ProbeTrack8	1	ProbeTrack	1415	SCS215a	733733.422704	733733.422926	8	0.013328	60	10	60-180	60	125	GapPrac	1	2	4	3	0	target	0	440	13.328	13.293	13.363
ProbeTrack8	1	ProbeTrack	1415	SCS215a	733733.422704	733733.423006	8	0.013328	60	10	60-180	60	155	GapPrac	1	3	4	3	1	target	1	507	13.328	13.293	13.363
ProbeTrack8	1	ProbeTrack	1415	SCS215a	733733.422704	733733.423092	8	0.013328	60	10	60-180	60	164	GapPrac	1	4	4	0	1	target	1	373	13.328	13.293	13.363
ProbeTrack8	1	ProbeTrack	1415	SCS215a	733733.422704	733733.423181	8	0.013328	60	10	60-180	60	162	GapPrac	1	5	4	96	1	target	1	400	13.328	13.292	13.363
ProbeTrack8	1	ProbeTrack	1415	SCS215a	733733.422704	733733.423275	8	0.013328	60	10	60-180	60	80	GapPrac	1	6	4	3	0	distractor	1	453	13.328	13.293	13.363
ProbeTrack8	1	ProbeTrack	1415	SCS215a	733733.422704	733733.423343	8	0.013328	60	10	60-180	60	96	GapPrac	1	7	4	96	0	distractor	1	414	13.328	13.293	13.363
ProbeTrack8	1	ProbeTrack	1415	SCS215a	733733.422704	733733.423423	8	0.013328	60	10	60-180	60	131	GapPrac	1	8	4	6	1	target	1	387	13.328	13.293	13.363
ProbeTrack8	1	ProbeTrack	1415	SCS215a	733733.422704	733733.423493	8	0.013328	60	10	60-180	60	166	GapPrac	1	9	4	0	1	target	1	347	13.328	13.293	13.363
ProbeTrack8	1	ProbeTrack	1415	SCS215a	733733.422704	733733.423568	8	0.013328	60	10	60-180	60	159	GapPrac	1	10	4	0	0	distractor	1	427	13.328	13.292	13.363
ProbeTrack8	1	ProbeTrack	1415	SCS215a	733733.422704	733733.423641	8	0.013328	60	10	60-180	60	169	GapPrac	1	11	4	3	1	target	1	427	13.328	13.293	13.363
ProbeTrack8	1	ProbeTrack	1415	SCS215a	733733.422704	733733.423716	8	0.013328	60	10	60-180	60	85	GapPrac	1	12	4	3	1	target	1	400	13.328	13.292	13.363
ProbeTrack8	1	ProbeTrack	1415	SCS215a	733733.422704	733733.423777	8	0.013328	60	10	60-180	60	68	GapPrac	1	13	4	6	1	target	1	453	13.328	13.292	13.363
ProbeTrack8	1	ProbeTrack	1415	SCS215a	733733.422704	733733.423836	8	0.013328	60	10	60-180	60	84	GapPrac	1	14	4	96	0	distractor	1	494	13.328	13.293	13.363
ProbeTrack8	1	ProbeTrack	1415	SCS215a	733733.422704	733733.423914	8	0.013328	60	10	60-180	60	136	GapPrac	1	15	4	3	0	distractor	1	507	13.328	13.293	13.363
ProbeTrack8	1	ProbeTrack	1415	SCS215a	733733.422704	733733.423985	8	0.013328	60	10	60-180	60	76	GapPrac	1	16	4	6	0	distractor	1	413	13.328	13.293	13.363
ProbeTrack8	1	ProbeTrack	1415	SCS215a	733733.422704	733733.424049	8	0.013328	60	10	60-180	60	107	GapPrac	1	17	4	96	1	target	1	414	13.328	13.293	13.363
ProbeTrack8	1	ProbeTrack	1415	SCS215a	733733.422704	733733.424128	8	0.013328	60	10	60-180	60	156	GapPrac	1	18	4	0	1	target	1	480	13.328	13.293	13.364
ProbeTrack8	1	ProbeTrack	1415	SCS215a	733733.422704	733733.424204	8	0.013328	60	10	60-180	60	154	GapPrac	1	19	4	0	0	distractor	1	507	13.328	13.293	13.363
ProbeTrack8	1	ProbeTrack	1415	SCS215a	733733.422704	733733.424278	8	0.013328	60	10	60-180	60	109	GapPrac	1	20	4	6	0	distractor	1	693	13.328	13.292	13.363
ProbeTrack8	1	ProbeTrack	1415	SCS215a	733733.425456	733733.425527	8	0.013327	60	10	60-180	60	153	GapExp	1	1	4	96	0	distractor	1	453	13.328	13.293	13.363
ProbeTrack8	1	ProbeTrack	1415	SCS215a	733733.425456	733733.425640	8	0.013327	60	10	60-180	60	90	GapExp	1	2	4	3	0	distractor	1	413	13.328	13.292	13.363
ProbeTrack8	1	ProbeTrack	1415	SCS215a	733733.425456	733733.425722	8	0.013327	60	10	60-180	60	139	GapExp	1	3	4	6	0	distractor	1	360	13.328	13.293	13.363
ProbeTrack8	1	ProbeTrack	1415	SCS215a	733733.425456	733733.425793	8	0.013327	60	10	60-180	60	71	GapExp	1	4	4	3	1	target	1	360	13.328	13.290	13.363
ProbeTrack8	1	ProbeTrack	1415	SCS215a	733733.425456	733733.425883	8	0.013327	60	10	60-180	60	83	GapExp	1	5	4	6	1	target	1	387	13.328	13.293	13.363
ProbeTrack8	1	ProbeTrack	1415	SCS215a	733733.425456	733733.425948	8	0.013327	60	10	60-180	60	176	GapExp	0	6	4	96	0	distractor	1	400	13.328	13.290	13.366
ProbeTrack8	1	ProbeTrack	1415	SCS215a	733733.425456	733733.426047	8	0.013327	60	10	60-180	60	70	GapExp	0	7	4	6	1	target	1	387	13.328	13.293	13.363
ProbeTrack8	1	ProbeTrack	1415	SCS215a	733733.425456	733733.426110	8	0.013327	60	10	60-180	60	82	GapExp	0	8	4	96	1	target	1	347	13.328	13.291	13.363
ProbeTrack8	1	ProbeTrack	1415	SCS215a	733733.425456	733733.426189	8	0.013327	60	10	60-180	60	78	GapExp	0	9	4	0	1	target	1	454	13.328	13.293	13.363
ProbeTrack8	1	ProbeTrack	1415	SCS215a	733733.425456	733733.426252	8	0.013327	60	10	60-180	60	124	GapExp	0	10	4	3	1	target	1	387	13.328	13.293	13.363
ProbeTrack8	1	ProbeTrack	1415	SCS215a	733733.425456	733733.426319	8	0.013327	60	10	60-180	60	165	GapExp	0	11	4	96	0	distractor	1	373	13.328	13.293	13.363
ProbeTrack8	1	ProbeTrack	1415	SCS215a	733733.425456	733733.426409	8	0.013327	60	10	60-180	60	67	GapExp	0	12	4	96	1	distractor	0	387	13.328	13.293	13.363
ProbeTrack8	1	ProbeTrack	1415	SCS215a	733733.425456	733733.426482	8	0.013327	60	10	60-180	60	155	GapExp	0	13	4	6	0	distractor	1	467	13.328	13.293	13.363
ProbeTrack8	1	ProbeTrack	1415	SCS215a	733733.425456	733733.426559	8	0.013327	60	10	60-180	60	161	GapExp	0	14	4	6	0	distractor	1	507	13.328	13.293	13.363
ProbeTrack8	1	ProbeTrack	1415	SCS215a	733733.425456	733733.426633	8	0.013327	60	10	60-180	60	155	GapExp	0	15	4	0	1	target	1	374	13.328	13.293	13.363
ProbeTrack8	1	ProbeTrack	1415	SCS215a	733733.425456	733733.426715	8	0.013327	60	10	60-180	60	177	GapExp	0	16	4	6	0	distractor	1	374	13.328	13.293	13.363
ProbeTrack8	1	ProbeTrack	1415	SCS215a	733733.425456	733733.426792	8	0.013327	60	10	60-180	60	86	GapExp	0	17	4	0	0	target	0	334	13.328	13.293	13.363
ProbeTrack8	1	ProbeTrack	1415	SCS215a	733733.425456	733733.426853	8	0.013327	60	10	60-180	60	106	GapExp	0	18	4	0	1	target	1	373	13.328	13.293	13.363
ProbeTrack8	1	ProbeTrack	1415	SCS215a	733733.425456	733733.426921	8	0.013327	60	10	60-180	60	91	GapExp	0	19	4	96	1	target	1	400	13.328	13.293	13.363
ProbeTrack8	1	ProbeTrack	1415	SCS215a	733733.425456	733733.426999	8	0.013327	60	10	60-180	60	111	GapExp	0	20	4	6	0	distractor	1	347	13.328	13.293	13.363
ProbeTrack8	1	ProbeTrack	1415	SCS215a	733733.425456	733733.427071	8	0.013327	60	10	60-180	60	85	GapExp	0	21	4	6	1	target	1	347	13.328	13.293	13.363
ProbeTrack8	1	ProbeTrack	1415	SCS215a	733733.425456	733733.427134	8	0.013327	60	10	60-180	60	159	GapExp	0	22	4	0	0	distractor	1	400	13.328	13.291	13.363
ProbeTrack8	1	ProbeTrack	1415	SCS215a	733733.425456	733733.427209	8	0.013327	60	10	60-180	60	74	GapExp	0	23	4	96	0	distractor	1	387	13.328	13.292	13.363
ProbeTrack8	1	ProbeTrack	1415	SCS215a	733733.425456	733733.427284	8	0.013327	60	10	60-180	60	115	GapExp	0	24	4	6	0	distractor	1	453	13.328	13.293	13.363
ProbeTrack8	1	ProbeTrack	1415	SCS215a	733733.425456	733733.427356	8	0.013327	60	10	60-180	60	103	GapExp	0	25	4	96	1	target	1	387	13.328	13.289	13.363
ProbeTrack8	1	ProbeTrack	1415	SCS215a	733733.425456	733733.427444	8	0.013327	60	10	60-180	60	151	GapExp	0	26	4	6	1	target	1	414	13.328	13.293	13.363
ProbeTrack8	1	ProbeTrack	1415	SCS215a	733733.425456	733733.427518	8	0.013327	60	10	60-180	60	98	GapExp	0	27	4	0	0	target	0	360	13.328	13.287	13.369
ProbeTrack8	1	ProbeTrack	1415	SCS215a	733733.425456	733733.427582	8	0.013327	60	10	60-180	60	176	GapExp	0	28	4	0	0	distractor	1	480	13.328	13.292	13.363
ProbeTrack8	1	ProbeTrack	1415	SCS215a	733733.425456	733733.427661	8	0.013327	60	10	60-180	60	157	GapExp	0	29	4	3	0	distractor	1	400	13.328	13.293	13.363
ProbeTrack8	1	ProbeTrack	1415	SCS215a	733733.425456	733733.427734	8	0.013327	60	10	60-180	60	83	GapExp	0	30	4	0	0	distractor	1	467	13.328	13.293	13.363
ProbeTrack8	1	ProbeTrack	1415	SCS215a	733733.425456	733733.427798	8	0.013327	60	10	60-180	60	145	GapExp	0	31	4	96	0	distractor	1	400	13.328	13.293	13.363
ProbeTrack8	1	ProbeTrack	1415	SCS215a	733733.425456	733733.427883	8	0.013327	60	10	60-180	60	132	GapExp	0	32	4	96	1	target	1	440	13.328	13.293	13.363
ProbeTrack8	1	ProbeTrack	1415	SCS215a	733733.425456	733733.427967	8	0.013327	60	10	60-180	60	177	GapExp	0	33	4	3	0	distractor	1	493	13.328	13.290	13.366
ProbeTrack8	1	ProbeTrack	1415	SCS215a	733733.425456	733733.428057	8	0.013327	60	10	60-180	60	72	GapExp	0	34	4	0	1	target	1	413	13.328	13.293	13.363
ProbeTrack8	1	ProbeTrack	1415	SCS215a	733733.425456	733733.428118	8	0.013327	60	10	60-180	60	114	GapExp	0	35	4	0	1	target	1	520	13.328	13.293	13.363
ProbeTrack8	1	ProbeTrack	1415	SCS215a	733733.425456	733733.428187	8	0.013327	60	10	60-180	60	108	GapExp	0	36	4	96	1	target	1	374	13.328	13.293	13.363
ProbeTrack8	1	ProbeTrack	1415	SCS215a	733733.425456	733733.428407	8	0.013327	60	10	60-180	60	106	GapExp	0	37	4	3	1	distractor	0	400	13.328	13.293	13.363
ProbeTrack8	1	ProbeTrack	1415	SCS215a	733733.425456	733733.428473	8	0.013327	60	10	60-180	60	90	GapExp	0	38	4	96	1	target	1	334	13.328	13.293	13.363
ProbeTrack8	1	ProbeTrack	1415	SCS215a	733733.425456	733733.428549	8	0.013327	60	10	60-180	60	94	GapExp	0	39	4	6	0	distractor	1	400	13.328	13.293	13.363
ProbeTrack8	1	ProbeTrack	1415	SCS215a	733733.425456	733733.428621	8	0.013327	60	10	60-180	60	151	GapExp	0	40	4	6	0	distractor	1	387	13.328	13.293	13.363
ProbeTrack8	1	ProbeTrack	1415	SCS215a	733733.425456	733733.428694	8	0.013327	60	10	60-180	60	169	GapExp	0	41	4	96	1	target	1	320	13.328	13.289	13.366
ProbeTrack8	1	ProbeTrack	1415	SCS215a	733733.425456	733733.428787	8	0.013327	60	10	60-180	60	172	GapExp	0	42	4	0	1	target	1	347	13.328	13.293	13.363
ProbeTrack8	1	ProbeTrack	1415	SCS215a	733733.425456	733733.428862	8	0.013327	60	10	60-180	60	110	GapExp	0	43	4	0	1	target	1	374	13.328	13.293	13.363
ProbeTrack8	1	ProbeTrack	1415	SCS215a	733733.425456	733733.428930	8	0.013327	60	10	60-180	60	120	GapExp	0	44	4	6	0	distractor	1	440	13.328	13.293	13.363
ProbeTrack8	1	ProbeTrack	1415	SCS215a	733733.425456	733733.428998	8	0.013327	60	10	60-180	60	99	GapExp	0	45	4	3	1	target	1	374	13.328	13.293	13.363
ProbeTrack8	1	ProbeTrack	1415	SCS215a	733733.425456	733733.429061	8	0.013327	60	10	60-180	60	174	GapExp	0	46	4	96	0	distractor	1	453	13.328	13.291	13.363
ProbeTrack8	1	ProbeTrack	1415	SCS215a	733733.425456	733733.429157	8	0.013327	60	10	60-180	60	72	GapExp	0	47	4	96	1	target	1	360	13.328	13.290	13.366
ProbeTrack8	1	ProbeTrack	1415	SCS215a	733733.425456	733733.429230	8	0.013327	60	10	60-180	60	152	GapExp	0	48	4	3	0	distractor	1	360	13.328	13.293	13.363
ProbeTrack8	1	ProbeTrack	1415	SCS215a	733733.425456	733733.429304	8	0.013327	60	10	60-180	60	179	GapExp	0	49	4	6	0	distractor	1	374	13.328	13.293	13.363
ProbeTrack8	1	ProbeTrack	1415	SCS215a	733733.425456	733733.429381	8	0.013327	60	10	60-180	60	99	GapExp	0	50	4	0	0	target	0	400	13.328	13.292	13.363
ProbeTrack8	1	ProbeTrack	1415	SCS215a	733733.425456	733733.429444	8	0.013327	60	10	60-180	60	133	GapExp	0	51	4	0	1	target	1	547	13.328	13.293	13.363
ProbeTrack8	1	ProbeTrack	1415	SCS215a	733733.425456	733733.429517	8	0.013327	60	10	60-180	60	110	GapExp	0	52	4	6	1	target	1	360	13.328	13.291	13.364
ProbeTrack8	1	ProbeTrack	1415	SCS215a	733733.425456	733733.429582	8	0.013327	60	10	60-180	60	172	GapExp	0	53	4	96	0	distractor	1	413	13.328	13.293	13.363
ProbeTrack8	1	ProbeTrack	1415	SCS215a	733733.425456	733733.429675	8	0.013327	60	10	60-180	60	108	GapExp	0	54	4	3	0	target	0	453	13.328	13.293	13.363
ProbeTrack8	1	ProbeTrack	1415	SCS215a	733733.425456	733733.429740	8	0.013327	60	10	60-180	60	165	GapExp	0	55	4	0	1	target	1	467	13.328	13.293	13.363
ProbeTrack8	1	ProbeTrack	1415	SCS215a	733733.425456	733733.429816	8	0.013327	60	10	60-180	60	120	GapExp	0	56	4	3	1	target	1	413	13.328	13.293	13.363
ProbeTrack8	1	ProbeTrack	1415	SCS215a	733733.425456	733733.429887	8	0.013327	60	10	60-180	60	175	GapExp	0	57	4	0	1	target	1	374	13.328	13.293	13.363
ProbeTrack8	1	ProbeTrack	1415	SCS215a	733733.425456	733733.429965	8	0.013327	60	10	60-180	60	116	GapExp	0	58	4	96	1	target	1	413	13.328	13.293	13.363
ProbeTrack8	1	ProbeTrack	1415	SCS215a	733733.425456	733733.430045	8	0.013327	60	10	60-180	60	99	GapExp	0	59	4	3	0	target	0	840	13.328	13.293	13.363
ProbeTrack8	1	ProbeTrack	1415	SCS215a	733733.425456	733733.430118	8	0.013327	60	10	60-180	60	151	GapExp	0	60	4	6	1	target	1	374	13.328	13.293	13.363
ProbeTrack8	1	ProbeTrack	1415	SCS215a	733733.425456	733733.430197	8	0.013327	60	10	60-180	60	111	GapExp	0	61	4	96	0	distractor	1	374	13.328	13.293	13.363
ProbeTrack8	1	ProbeTrack	1415	SCS215a	733733.425456	733733.430277	8	0.013327	60	10	60-180	60	114	GapExp	0	62	4	0	0	distractor	1	400	13.328	13.293	13.363
ProbeTrack8	1	ProbeTrack	1415	SCS215a	733733.425456	733733.430341	8	0.013327	60	10	60-180	60	113	GapExp	0	63	4	0	1	target	1	373	13.328	13.291	13.363
ProbeTrack8	1	ProbeTrack	1415	SCS215a	733733.425456	733733.430405	8	0.013327	60	10	60-180	60	73	GapExp	0	64	4	96	0	distractor	1	400	13.328	13.293	13.363
ProbeTrack8	1	ProbeTrack	1415	SCS215a	733733.425456	733733.430482	8	0.013327	60	10	60-180	60	137	GapExp	0	65	4	3	1	target	1	360	13.328	13.293	13.363
ProbeTrack8	1	ProbeTrack	1415	SCS215a	733733.425456	733733.430552	8	0.013327	60	10	60-180	60	95	GapExp	0	66	4	96	1	target	1	467	13.328	13.293	13.363
ProbeTrack8	1	ProbeTrack	1415	SCS215a	733733.425456	733733.430629	8	0.013327	60	10	60-180	60	173	GapExp	0	67	4	3	1	target	1	334	13.328	13.293	13.363
ProbeTrack8	1	ProbeTrack	1415	SCS215a	733733.425456	733733.430709	8	0.013327	60	10	60-180	60	168	GapExp	0	68	4	3	1	target	1	427	13.328	13.290	13.367
ProbeTrack8	1	ProbeTrack	1415	SCS215a	733733.425456	733733.430785	8	0.013327	60	10	60-180	60	155	GapExp	0	69	4	96	0	target	0	373	13.328	13.293	13.363
ProbeTrack8	1	ProbeTrack	1415	SCS215a	733733.425456	733733.431334	8	0.013327	60	10	60-180	60	87	GapExp	0	70	4	6	1	target	1	427	13.328	13.293	13.363
ProbeTrack8	1	ProbeTrack	1415	SCS215a	733733.425456	733733.431399	8	0.013327	60	10	60-180	60	138	GapExp	0	71	4	6	0	distractor	1	387	13.328	13.293	13.363
ProbeTrack8	1	ProbeTrack	1415	SCS215a	733733.425456	733733.431469	8	0.013327	60	10	60-180	60	129	GapExp	0	72	4	96	0	distractor	1	480	13.328	13.293	13.363
ProbeTrack8	1	ProbeTrack	1415	SCS215a	733733.425456	733733.431557	8	0.013327	60	10	60-180	60	148	GapExp	0	73	4	6	1	target	1	374	13.328	13.293	13.364
ProbeTrack8	1	ProbeTrack	1415	SCS215a	733733.425456	733733.431629	8	0.013327	60	10	60-180	60	93	GapExp	0	74	4	0	0	distractor	1	400	13.328	13.293	13.363
ProbeTrack8	1	ProbeTrack	1415	SCS215a	733733.425456	733733.431695	8	0.013327	60	10	60-180	60	156	GapExp	0	75	4	0	0	distractor	1	400	13.328	13.293	13.363
ProbeTrack8	1	ProbeTrack	1415	SCS215a	733733.425456	733733.431770	8	0.013327	60	10	60-180	60	66	GapExp	0	76	4	3	0	distractor	1	440	13.328	13.293	13.363
ProbeTrack8	1	ProbeTrack	1415	SCS215a	733733.425456	733733.431829	8	0.013327	60	10	60-180	60	131	GapExp	0	77	4	96	0	target	0	347	13.328	13.293	13.363
ProbeTrack8	1	ProbeTrack	1415	SCS215a	733733.425456	733733.431913	8	0.013327	60	10	60-180	60	171	GapExp	0	78	4	0	1	target	1	360	13.328	13.293	13.363
ProbeTrack8	1	ProbeTrack	1415	SCS215a	733733.425456	733733.431987	8	0.013327	60	10	60-180	60	113	GapExp	0	79	4	3	1	target	1	400	13.328	13.290	13.366
ProbeTrack8	1	ProbeTrack	1415	SCS215a	733733.425456	733733.432053	8	0.013327	60	10	60-180	60	161	GapExp	0	80	4	96	0	distractor	1	387	13.328	13.293	13.363
ProbeTrack8	1	ProbeTrack	1415	SCS215a	733733.425456	733733.432140	8	0.013327	60	10	60-180	60	114	GapExp	0	81	4	6	0	distractor	1	494	13.328	13.290	13.363
ProbeTrack8	1	ProbeTrack	1415	SCS215a	733733.425456	733733.432210	8	0.013327	60	10	60-180	60	148	GapExp	0	82	4	3	1	target	1	360	13.328	13.293	13.363
ProbeTrack8	1	ProbeTrack	1415	SCS215a	733733.425456	733733.432283	8	0.013327	60	10	60-180	60	135	GapExp	0	83	4	96	1	target	1	507	13.328	13.289	13.363
ProbeTrack8	1	ProbeTrack	1415	SCS215a	733733.425456	733733.432373	8	0.013327	60	10	60-180	60	87	GapExp	0	84	4	96	1	target	1	467	13.328	13.293	13.363
ProbeTrack8	1	ProbeTrack	1415	SCS215a	733733.425456	733733.432453	8	0.013327	60	10	60-180	60	144	GapExp	0	85	4	0	0	target	0	360	13.328	13.293	13.363
ProbeTrack8	1	ProbeTrack	1415	SCS215a	733733.425456	733733.432603	8	0.013327	60	10	60-180	60	97	GapExp	0	86	4	3	0	distractor	1	467	13.328	13.293	13.363
ProbeTrack8	1	ProbeTrack	1415	SCS215a	733733.425456	733733.432711	8	0.013327	60	10	60-180	60	180	GapExp	0	87	4	6	1	target	1	387	13.328	13.293	13.363
ProbeTrack8	1	ProbeTrack	1415	SCS215a	733733.425456	733733.432794	8	0.013327	60	10	60-180	60	114	GapExp	0	88	4	0	0	distractor	1	480	13.328	13.293	13.363
ProbeTrack8	1	ProbeTrack	1415	SCS215a	733733.425456	733733.432862	8	0.013327	60	10	60-180	60	81	GapExp	0	89	4	3	0	target	0	413	13.328	13.293	13.363
ProbeTrack8	1	ProbeTrack	1415	SCS215a	733733.425456	733733.432927	8	0.013327	60	10	60-180	60	159	GapExp	0	90	4	3	0	distractor	1	533	13.328	13.292	13.363
ProbeTrack8	1	ProbeTrack	1415	SCS215a	733733.425456	733733.433004	8	0.013327	60	10	60-180	60	123	GapExp	0	91	4	96	0	distractor	1	427	13.328	13.292	13.363
ProbeTrack8	1	ProbeTrack	1415	SCS215a	733733.425456	733733.433089	8	0.013327	60	10	60-180	60	144	GapExp	0	92	4	3	1	target	1	560	13.328	13.293	13.366
ProbeTrack8	1	ProbeTrack	1415	SCS215a	733733.425456	733733.433162	8	0.013327	60	10	60-180	60	142	GapExp	0	93	4	96	1	target	1	400	13.328	13.293	13.363
ProbeTrack8	1	ProbeTrack	1415	SCS215a	733733.425456	733733.433249	8	0.013327	60	10	60-180	60	160	GapExp	0	94	4	0	1	target	1	360	13.328	13.292	13.364
ProbeTrack8	1	ProbeTrack	1415	SCS215a	733733.425456	733733.433321	8	0.013327	60	10	60-180	60	91	GapExp	0	95	4	0	0	distractor	1	453	13.328	13.292	13.363
ProbeTrack8	1	ProbeTrack	1415	SCS215a	733733.425456	733733.433485	8	0.013327	60	10	60-180	60	67	GapExp	0	96	4	6	1	target	1	360	13.328	13.293	13.363
ProbeTrack8	1	ProbeTrack	1415	SCS215a	733733.425456	733733.433549	8	0.013327	60	10	60-180	60	133	GapExp	0	97	4	3	1	target	1	373	13.328	13.293	13.364
ProbeTrack8	1	ProbeTrack	1415	SCS215a	733733.425456	733733.433619	8	0.013327	60	10	60-180	60	73	GapExp	0	98	4	0	0	target	0	573	13.328	13.293	13.363
ProbeTrack8	1	ProbeTrack	1415	SCS215a	733733.425456	733733.433680	8	0.013327	60	10	60-180	60	130	GapExp	0	99	4	6	1	target	1	374	13.328	13.293	13.363
ProbeTrack8	1	ProbeTrack	1415	SCS215a	733733.425456	733733.433750	8	0.013327	60	10	60-180	60	81	GapExp	0	100	4	96	0	distractor	1	413	13.328	13.293	13.363
ProbeTrack8	1	ProbeTrack	1415	SCS215a	733733.425456	733733.433827	8	0.013327	60	10	60-180	60	158	GapExp	0	101	4	6	1	target	1	373	13.328	13.293	13.363
ProbeTrack8	1	ProbeTrack	1415	SCS215a	733733.425456	733733.433900	8	0.013327	60	10	60-180	60	74	GapExp	0	102	4	96	0	distractor	1	427	13.328	13.289	13.367
ProbeTrack8	1	ProbeTrack	1415	SCS215a	733733.425456	733733.433977	8	0.013327	60	10	60-180	60	179	GapExp	0	103	4	3	0	distractor	1	414	13.328	13.293	13.364
ProbeTrack8	1	ProbeTrack	1415	SCS215a	733733.425456	733733.434053	8	0.013327	60	10	60-180	60	109	GapExp	0	104	4	0	0	distractor	1	374	13.328	13.293	13.363
ProbeTrack8	1	ProbeTrack	1415	SCS215a	733733.425456	733733.434119	8	0.013327	60	10	60-180	60	123	GapExp	0	105	4	6	1	target	1	360	13.328	13.293	13.363
ProbeTrack8	1	ProbeTrack	1415	SCS215a	733733.425456	733733.434185	8	0.013327	60	10	60-180	60	62	GapExp	0	106	4	3	1	target	1	387	13.328	13.289	13.366
ProbeTrack8	1	ProbeTrack	1415	SCS215a	733733.425456	733733.434242	8	0.013327	60	10	60-180	60	148	GapExp	0	107	4	6	1	target	1	374	13.328	13.293	13.363
ProbeTrack8	1	ProbeTrack	1415	SCS215a	733733.425456	733733.434315	8	0.013327	60	10	60-180	60	150	GapExp	0	108	4	6	0	distractor	1	653	13.328	13.293	13.365
ProbeTrack8	1	ProbeTrack	1415	SCS215a	733733.425456	733733.434391	8	0.013327	60	10	60-180	60	169	GapExp	0	109	4	6	1	distractor	0	440	13.328	13.293	13.363
ProbeTrack8	1	ProbeTrack	1415	SCS215a	733733.425456	733733.434467	8	0.013327	60	10	60-180	60	113	GapExp	0	110	4	3	0	distractor	1	400	13.328	13.293	13.363
ProbeTrack8	1	ProbeTrack	1415	SCS215a	733733.425456	733733.434536	8	0.013327	60	10	60-180	60	95	GapExp	0	111	4	0	1	target	1	373	13.328	13.293	13.363
ProbeTrack8	1	ProbeTrack	1415	SCS215a	733733.425456	733733.434598	8	0.013327	60	10	60-180	60	177	GapExp	0	112	4	6	0	distractor	1	347	13.328	13.293	13.363
ProbeTrack8	1	ProbeTrack	1415	SCS215a	733733.425456	733733.434693	8	0.013327	60	10	60-180	60	175	GapExp	0	113	4	3	0	distractor	1	360	13.328	13.293	13.363
ProbeTrack8	1	ProbeTrack	1415	SCS215a	733733.425456	733733.434773	8	0.013327	60	10	60-180	60	79	GapExp	0	114	4	3	0	distractor	1	360	13.328	13.293	13.363
ProbeTrack8	1	ProbeTrack	1415	SCS215a	733733.425456	733733.434835	8	0.013327	60	10	60-180	60	128	GapExp	0	115	4	0	0	distractor	1	360	13.328	13.293	13.366
ProbeTrack8	1	ProbeTrack	1415	SCS215a	733733.425456	733733.434902	8	0.013327	60	10	60-180	60	76	GapExp	0	116	4	96	1	target	1	374	13.328	13.291	13.363
ProbeTrack8	1	ProbeTrack	1415	SCS215a	733733.425456	733733.434976	8	0.013327	60	10	60-180	60	105	GapExp	0	117	4	3	0	distractor	1	347	13.328	13.293	13.363
ProbeTrack8	1	ProbeTrack	1415	SCS215a	733733.425456	733733.435047	8	0.013327	60	10	60-180	60	151	GapExp	0	118	4	6	0	distractor	1	414	13.328	13.293	13.363
ProbeTrack8	1	ProbeTrack	1415	SCS215a	733733.425456	733733.435120	8	0.013327	60	10	60-180	60	91	GapExp	0	119	4	3	1	target	1	400	13.328	13.293	13.363
ProbeTrack8	1	ProbeTrack	1415	SCS215a	733733.425456	733733.435183	8	0.013327	60	10	60-180	60	86	GapExp	0	120	4	3	1	target	1	294	13.328	13.293	13.363
ProbeTrack8	1	ProbeTrack	1415	SCS215a	733733.425456	733733.435248	8	0.013327	60	10	60-180	60	178	GapExp	0	121	4	0	1	target	1	414	13.328	13.293	13.364
ProbeTrack8	1	ProbeTrack	1415	SCS215a	733733.425456	733733.435327	8	0.013327	60	10	60-180	60	168	GapExp	0	122	4	3	1	target	1	320	13.328	13.289	13.363
ProbeTrack8	1	ProbeTrack	1415	SCS215a	733733.425456	733733.435403	8	0.013327	60	10	60-180	60	63	GapExp	0	123	4	3	0	distractor	1	320	13.328	13.293	13.363
ProbeTrack8	1	ProbeTrack	1415	SCS215a	733733.425456	733733.435464	8	0.013327	60	10	60-180	60	110	GapExp	0	124	4	6	0	distractor	1	374	13.328	13.293	13.363
ProbeTrack8	1	ProbeTrack	1415	SCS215a	733733.425456	733733.435530	8	0.013327	60	10	60-180	60	68	GapExp	0	125	4	6	1	target	1	387	13.328	13.293	13.363
