exp	sub	code	rev	comp	runtime	trialtime	nstim	refreshdur	cuedur	gapdur	gapOnsetRange	durPostProbe	gapOnsetTime	blocktype	prac	trial	ntargets	soa	probeTarget	resp	acc	rt	meanFrameDur	minFrameDur	maxFrameDur
ProbeTrack8	4	ProbeTrack	1415	SCS215a	733745.508420	733745.509265	8	0.013328	60	0	60-180	60	173	NoGap	1	1	4	96	0	target	0	8863	13.328	13.292	13.363
ProbeTrack8	4	ProbeTrack	1415	SCS215a	733745.508420	733745.509523	8	0.013328	60	0	60-180	60	119	NoGap	1	2	4	6	0	distractor	1	4052	13.328	13.293	13.363
ProbeTrack8	4	ProbeTrack	1415	SCS215a	733745.508420	733745.509763	8	0.013328	60	0	60-180	60	88	NoGap	1	3	4	3	0	distractor	1	4198	13.328	13.293	13.363
ProbeTrack8	4	ProbeTrack	1415	SCS215a	733745.508420	733745.509888	8	0.013328	60	0	60-180	60	123	NoGap	1	4	4	0	0	distractor	1	3999	13.328	13.293	13.363
ProbeTrack8	4	ProbeTrack	1415	SCS215a	733745.508420	733745.510015	8	0.013328	60	0	60-180	60	163	NoGap	1	5	4	3	1	target	1	3639	13.328	13.289	13.364
ProbeTrack8	4	ProbeTrack	1415	SCS215a	733745.508420	733745.510135	8	0.013328	60	0	60-180	60	124	NoGap	1	6	4	96	1	target	1	3892	13.328	13.293	13.363
ProbeTrack8	4	ProbeTrack	1415	SCS215a	733745.508420	733745.510279	8	0.013328	60	0	60-180	60	145	NoGap	1	7	4	0	0	target	0	2013	13.328	13.293	13.363
ProbeTrack8	4	ProbeTrack	1415	SCS215a	733745.508420	733745.510479	8	0.013328	60	0	60-180	60	74	NoGap	1	8	4	3	0	distractor	1	4105	13.328	13.293	13.363
ProbeTrack8	4	ProbeTrack	1415	SCS215a	733745.508420	733745.510595	8	0.013328	60	0	60-180	60	92	NoGap	1	9	4	6	1	target	1	2333	13.327	13.292	13.363
ProbeTrack8	4	ProbeTrack	1415	SCS215a	733745.508420	733745.510688	8	0.013328	60	0	60-180	60	167	NoGap	1	10	4	96	1	target	1	2546	13.328	13.293	13.363
ProbeTrack8	4	ProbeTrack	1415	SCS215a	733745.508420	733745.510805	8	0.013328	60	0	60-180	60	143	NoGap	1	11	4	0	0	target	0	3426	13.328	13.293	13.363
ProbeTrack8	4	ProbeTrack	1415	SCS215a	733745.508420	733745.510953	8	0.013328	60	0	60-180	60	118	NoGap	1	12	4	6	1	distractor	0	827	13.328	13.293	13.363
ProbeTrack8	4	ProbeTrack	1415	SCS215a	733745.508420	733745.511035	8	0.013328	60	0	60-180	60	120	NoGap	1	13	4	6	0	target	0	600	13.328	13.293	13.362
ProbeTrack8	4	ProbeTrack	1415	SCS215a	733745.508420	733745.511102	8	0.013328	60	0	60-180	60	160	NoGap	1	14	4	0	1	target	1	14	13.328	13.293	13.363
ProbeTrack8	4	ProbeTrack	1415	SCS215a	733745.508420	733745.511186	8	0.013328	60	0	60-180	60	88	NoGap	1	15	4	3	1	target	1	1226	13.328	13.293	13.363
ProbeTrack8	4	ProbeTrack	1415	SCS215a	733745.508420	733745.511294	8	0.013328	60	0	60-180	60	89	NoGap	1	16	4	96	1	target	1	986	13.328	13.261	13.394
ProbeTrack8	4	ProbeTrack	1415	SCS215a	733745.508420	733745.511441	8	0.013328	60	0	60-180	60	179	NoGap	1	17	4	96	1	target	1	3652	13.328	13.293	13.363
ProbeTrack8	4	ProbeTrack	1415	SCS215a	733745.508420	733745.511643	8	0.013328	60	0	60-180	60	134	NoGap	1	18	4	3	1	target	1	2666	13.328	13.292	13.363
ProbeTrack8	4	ProbeTrack	1415	SCS215a	733745.508420	733745.511759	8	0.013328	60	0	60-180	60	93	NoGap	1	19	4	96	1	distractor	0	747	13.328	13.293	13.363
ProbeTrack8	4	ProbeTrack	1415	SCS215a	733745.508420	733745.511858	8	0.013328	60	0	60-180	60	157	NoGap	1	20	4	6	0	target	0	174	13.328	13.293	13.363
ProbeTrack8	4	ProbeTrack	1415	SCS215a	733745.508420	733745.512002	8	0.013328	60	0	60-180	60	117	NoGap	1	21	4	0	1	target	1	480	13.328	13.291	13.363
ProbeTrack8	4	ProbeTrack	1415	SCS215a	733745.508420	733745.512101	8	0.013328	60	0	60-180	60	64	NoGap	1	22	4	3	1	distractor	0	587	13.327	13.293	13.363
ProbeTrack8	4	ProbeTrack	1415	SCS215a	733745.508420	733745.512240	8	0.013328	60	0	60-180	60	68	NoGap	1	23	4	0	0	target	0	613	13.328	13.189	13.466
ProbeTrack8	4	ProbeTrack	1415	SCS215a	733745.508420	733745.512304	8	0.013328	60	0	60-180	60	79	NoGap	1	24	4	3	1	distractor	0	80	13.328	13.293	13.363
ProbeTrack8	4	ProbeTrack	1415	SCS215a	733745.508420	733745.512425	8	0.013328	60	0	60-180	60	66	NoGap	1	25	4	3	1	target	1	280	13.328	13.293	13.363
ProbeTrack8	4	ProbeTrack	1415	SCS215a	733745.508420	733745.512510	8	0.013328	60	0	60-180	60	137	NoGap	1	26	4	96	0	target	0	254	13.328	13.293	13.363
ProbeTrack8	4	ProbeTrack	1415	SCS215a	733745.508420	733745.512620	8	0.013328	60	0	60-180	60	75	NoGap	1	27	4	6	0	distractor	1	400	13.328	13.293	13.363
ProbeTrack8	4	ProbeTrack	1415	SCS215a	733745.508420	733745.512684	8	0.013328	60	0	60-180	60	104	NoGap	1	28	4	0	0	target	0	533	13.327	13.293	13.363
ProbeTrack8	4	ProbeTrack	1415	SCS215a	733745.508420	733745.512791	8	0.013328	60	0	60-180	60	71	NoGap	1	29	4	3	0	distractor	1	347	13.327	13.291	13.368
ProbeTrack8	4	ProbeTrack	1415	SCS215a	733745.508420	733745.512893	8	0.013328	60	0	60-180	60	114	NoGap	1	30	4	0	0	target	0	-13	13.328	13.293	13.363
ProbeTrack8	4	ProbeTrack	1415	SCS215a	733745.508420	733745.512968	8	0.013328	60	0	60-180	60	67	NoGap	1	31	4	6	1	target	1	5065	13.328	13.293	13.364
ProbeTrack8	4	ProbeTrack	1415	SCS215a	733745.508420	733745.513085	8	0.013328	60	0	60-180	60	90	NoGap	1	32	4	0	1	target	1	2159	13.328	13.293	13.363
ProbeTrack8	4	ProbeTrack	1415	SCS215a	733745.508420	733745.513211	8	0.013328	60	0	60-180	60	157	NoGap	1	33	4	6	1	distractor	0	5771	13.328	13.293	13.363
ProbeTrack8	4	ProbeTrack	1415	SCS215a	733745.508420	733745.513356	8	0.013328	60	0	60-180	60	89	NoGap	1	34	4	96	1	distractor	0	307	13.328	13.293	13.363
ProbeTrack8	4	ProbeTrack	1415	SCS215a	733745.508420	733745.513464	8	0.013328	60	0	60-180	60	159	NoGap	1	35	4	3	0	target	0	12448	13.328	13.292	13.363
ProbeTrack8	4	ProbeTrack	1415	SCS215a	733745.508420	733745.513688	8	0.013328	60	0	60-180	60	67	NoGap	1	36	4	0	1	distractor	0	600	13.327	13.293	13.363
ProbeTrack8	4	ProbeTrack	1415	SCS215a	733745.508420	733745.513755	8	0.013328	60	0	60-180	60	128	NoGap	1	37	4	96	0	target	0	294	13.328	13.292	13.363
ProbeTrack8	4	ProbeTrack	1415	SCS215a	733745.508420	733745.513898	8	0.013328	60	0	60-180	60	113	NoGap	1	38	4	6	1	target	1	294	13.328	13.293	13.363
ProbeTrack8	4	ProbeTrack	1415	SCS215a	733745.508420	733745.513978	8	0.013328	60	0	60-180	60	140	NoGap	1	39	4	96	1	distractor	0	573	13.328	13.293	13.363
ProbeTrack8	4	ProbeTrack	1415	SCS215a	733745.508420	733745.514088	8	0.013328	60	0	60-180	60	139	NoGap	1	40	4	0	1	distractor	0	973	13.328	13.292	13.363
ProbeTrack8	4	ProbeTrack	1415	SCS215a	733745.508420	733745.514176	8	0.013328	60	0	60-180	60	166	NoGap	1	41	4	6	0	distractor	1	1093	13.328	13.293	13.363
ProbeTrack8	4	ProbeTrack	1415	SCS215a	733745.508420	733745.514265	8	0.013328	60	0	60-180	60	80	NoGap	1	42	4	6	1	target	1	813	13.328	13.293	13.363
ProbeTrack8	4	ProbeTrack	1415	SCS215a	733745.508420	733745.514336	8	0.013328	60	0	60-180	60	165	NoGap	1	43	4	3	0	distractor	1	1066	13.328	13.293	13.363
ProbeTrack8	4	ProbeTrack	1415	SCS215a	733745.508420	733745.514426	8	0.013328	60	0	60-180	60	71	NoGap	1	44	4	3	0	distractor	1	1213	13.327	13.293	13.363
ProbeTrack8	4	ProbeTrack	1415	SCS215a	733745.508420	733745.514501	8	0.013328	60	0	60-180	60	68	NoGap	1	45	4	6	0	target	0	573	13.328	13.292	13.363
ProbeTrack8	4	ProbeTrack	1415	SCS215a	733745.508420	733745.514570	8	0.013328	60	0	60-180	60	122	NoGap	1	46	4	96	0	target	0	627	13.328	13.293	13.363
ProbeTrack8	4	ProbeTrack	1415	SCS215a	733745.508420	733745.514658	8	0.013328	60	0	60-180	60	122	NoGap	1	47	4	96	0	target	0	1466	13.328	13.292	13.363
ProbeTrack8	4	ProbeTrack	1415	SCS215a	733745.508420	733745.514755	8	0.013328	60	0	60-180	60	93	NoGap	1	48	4	0	0	distractor	1	920	13.328	13.291	13.363
ProbeTrack8	4	ProbeTrack	1415	SCS215a	733745.508420	733745.514850	8	0.013328	60	0	60-180	60	102	NoGap	1	49	4	3	0	target	0	853	13.328	13.293	13.363
ProbeTrack8	4	ProbeTrack	1415	SCS215a	733745.508420	733745.514926	8	0.013328	60	0	60-180	60	138	NoGap	1	50	4	96	0	target	0	787	13.328	13.293	13.363
ProbeTrack8	4	ProbeTrack	1415	SCS215a	733745.515784	733745.516109	8	0.013327	60	10	60-180	60	93	GapPrac	1	1	4	96	0	target	0	1066	13.328	13.293	13.363
ProbeTrack8	4	ProbeTrack	1415	SCS215a	733745.515784	733745.516212	8	0.013327	60	10	60-180	60	65	GapPrac	1	2	4	3	0	distractor	1	1999	13.328	13.293	13.363
ProbeTrack8	4	ProbeTrack	1415	SCS215a	733745.515784	733745.516298	8	0.013327	60	10	60-180	60	119	GapPrac	1	3	4	0	1	target	1	2306	13.328	13.292	13.363
ProbeTrack8	4	ProbeTrack	1415	SCS215a	733745.515784	733745.516396	8	0.013327	60	10	60-180	60	155	GapPrac	1	4	4	6	1	distractor	0	1320	13.328	13.293	13.363
ProbeTrack8	4	ProbeTrack	1415	SCS215a	733745.515784	733745.516487	8	0.013327	60	10	60-180	60	150	GapPrac	1	5	4	96	1	distractor	0	960	13.328	13.293	13.366
ProbeTrack8	4	ProbeTrack	1415	SCS215a	733745.515784	733745.516590	8	0.013327	60	10	60-180	60	67	GapPrac	1	6	4	3	1	target	1	1226	13.328	13.290	13.363
ProbeTrack8	4	ProbeTrack	1415	SCS215a	733745.515784	733745.516690	8	0.013327	60	10	60-180	60	83	GapPrac	1	7	4	3	0	target	0	640	13.328	13.293	13.363
ProbeTrack8	4	ProbeTrack	1415	SCS215a	733745.515784	733745.516769	8	0.013327	60	10	60-180	60	123	GapPrac	1	8	4	0	0	target	0	2013	13.328	13.293	13.363
ProbeTrack8	4	ProbeTrack	1415	SCS215a	733745.515784	733745.516900	8	0.013327	60	10	60-180	60	69	GapPrac	1	9	4	0	1	target	1	2692	13.327	13.293	13.363
ProbeTrack8	4	ProbeTrack	1415	SCS215a	733745.515784	733745.517003	8	0.013327	60	10	60-180	60	177	GapPrac	1	10	4	0	1	13	-3	-13	13.328	13.293	13.362
ProbeTrack8	4	ProbeTrack	1415	SCS215a	733745.515784	733745.517146	8	0.013327	60	10	60-180	60	77	GapPrac	1	11	4	96	0	distractor	1	480	13.328	13.293	13.363
ProbeTrack8	4	ProbeTrack	1415	SCS215a	733745.515784	733745.517232	8	0.013327	60	10	60-180	60	172	GapPrac	1	12	4	3	0	target	0	254	13.328	13.293	13.363
ProbeTrack8	4	ProbeTrack	1415	SCS215a	733745.515784	733745.517326	8	0.013327	60	10	60-180	60	125	GapPrac	1	13	4	96	0	distractor	1	360	13.328	13.293	13.363
ProbeTrack8	4	ProbeTrack	1415	SCS215a	733745.515784	733745.517486	8	0.013327	60	10	60-180	60	85	GapPrac	1	14	4	6	1	target	1	986	13.328	13.293	13.363
ProbeTrack8	4	ProbeTrack	1415	SCS215a	733745.515784	733745.517561	8	0.013327	60	10	60-180	60	110	GapPrac	1	15	4	6	0	distractor	1	587	13.328	13.292	13.363
ProbeTrack8	4	ProbeTrack	1415	SCS215a	733745.515784	733745.517639	8	0.013327	60	10	60-180	60	96	GapPrac	1	16	4	3	1	target	1	973	13.328	13.293	13.363
ProbeTrack8	4	ProbeTrack	1415	SCS215a	733745.515784	733745.517718	8	0.013327	60	10	60-180	60	65	GapPrac	1	17	4	6	1	distractor	0	2786	13.328	13.293	13.363
ProbeTrack8	4	ProbeTrack	1415	SCS215a	733745.515784	733745.517811	8	0.013327	60	10	60-180	60	65	GapPrac	1	18	4	0	0	distractor	1	680	13.328	13.293	13.363
ProbeTrack8	4	ProbeTrack	1415	SCS215a	733745.515784	733745.517924	8	0.013327	60	10	60-180	60	167	GapPrac	1	19	4	6	0	target	0	640	13.328	13.293	13.363
ProbeTrack8	4	ProbeTrack	1415	SCS215a	733745.515784	733745.518047	8	0.013327	60	10	60-180	60	126	GapPrac	1	20	4	96	1	distractor	0	1613	13.328	13.293	13.363
ProbeTrack8	4	ProbeTrack	1415	SCS215a	733745.519729	733745.519924	8	0.013327	60	10	60-180	60	140	GapPrac	1	1	4	0	1	distractor	0	2413	13.328	13.293	13.363
ProbeTrack8	4	ProbeTrack	1415	SCS215a	733745.519729	733745.520093	8	0.013327	60	10	60-180	60	147	GapPrac	1	2	4	6	0	target	0	1493	13.328	13.293	13.363
ProbeTrack8	4	ProbeTrack	1415	SCS215a	733745.519729	733745.520188	8	0.013327	60	10	60-180	60	95	GapPrac	1	3	4	96	1	target	1	1573	13.328	13.293	13.363
ProbeTrack8	4	ProbeTrack	1415	SCS215a	733745.519729	733745.520290	8	0.013327	60	10	60-180	60	156	GapPrac	1	4	4	96	0	distractor	1	440	13.328	13.293	13.363
ProbeTrack8	4	ProbeTrack	1415	SCS215a	733745.519729	733745.520414	8	0.013327	60	10	60-180	60	149	GapPrac	1	5	4	0	0	distractor	1	1600	13.328	13.293	13.363
ProbeTrack8	4	ProbeTrack	1415	SCS215a	733745.519729	733745.520513	8	0.013327	60	10	60-180	60	74	GapPrac	1	6	4	6	1	target	1	1613	13.327	13.293	13.363
ProbeTrack8	4	ProbeTrack	1415	SCS215a	733745.519729	733745.520594	8	0.013327	60	10	60-180	60	163	GapPrac	1	7	4	3	0	distractor	1	1773	13.328	13.293	13.363
ProbeTrack8	4	ProbeTrack	1415	SCS215a	733745.519729	733745.520701	8	0.013327	60	10	60-180	60	64	GapPrac	1	8	4	6	0	target	0	1560	13.328	13.293	13.363
ProbeTrack8	4	ProbeTrack	1415	SCS215a	733745.519729	733745.520786	8	0.013327	60	10	60-180	60	175	GapPrac	1	9	4	96	1	target	1	1653	13.328	13.292	13.363
ProbeTrack8	4	ProbeTrack	1415	SCS215a	733745.519729	733745.520912	8	0.013327	60	10	60-180	60	128	GapPrac	1	10	4	96	1	target	1	2506	13.328	13.292	13.362
ProbeTrack8	4	ProbeTrack	1415	SCS215a	733745.519729	733745.521025	8	0.013327	60	10	60-180	60	151	GapPrac	1	11	4	0	1	distractor	0	1386	13.328	13.286	13.370
ProbeTrack8	4	ProbeTrack	1415	SCS215a	733745.519729	733745.521115	8	0.013327	60	10	60-180	60	129	GapPrac	1	12	4	3	1	target	1	2572	13.328	13.292	13.363
ProbeTrack8	4	ProbeTrack	1415	SCS215a	733745.519729	733745.521219	8	0.013327	60	10	60-180	60	123	GapPrac	1	13	4	3	1	13	-3	907	13.328	13.293	13.363
ProbeTrack8	4	ProbeTrack	1415	SCS215a	733745.519729	733745.521342	8	0.013327	60	10	60-180	60	144	GapPrac	1	14	4	6	1	distractor	0	1320	13.328	13.292	13.364
ProbeTrack8	4	ProbeTrack	1415	SCS215a	733745.519729	733745.521438	8	0.013327	60	10	60-180	60	127	GapPrac	1	15	4	3	0	target	0	533	13.328	13.293	13.363
ProbeTrack8	4	ProbeTrack	1415	SCS215a	733745.519729	733745.521523	8	0.013327	60	10	60-180	60	155	GapPrac	1	16	4	6	0	distractor	1	467	13.328	13.293	13.363
ProbeTrack8	4	ProbeTrack	1415	SCS215a	733745.519729	733745.521614	8	0.013327	60	10	60-180	60	168	GapPrac	1	17	4	0	0	target	0	2612	13.328	13.293	13.363
ProbeTrack8	4	ProbeTrack	1415	SCS215a	733745.519729	733745.521834	8	0.013327	60	10	60-180	60	180	GapPrac	1	18	4	0	1	distractor	0	1466	13.328	13.293	13.363
ProbeTrack8	4	ProbeTrack	1415	SCS215a	733745.519729	733745.521926	8	0.013327	60	10	60-180	60	173	GapPrac	1	19	4	96	0	target	0	347	13.328	13.293	13.363
ProbeTrack8	4	ProbeTrack	1415	SCS215a	733745.519729	733745.522028	8	0.013327	60	10	60-180	60	102	GapPrac	1	20	4	96	0	distractor	1	1013	13.328	13.293	13.363
ProbeTrack8	4	ProbeTrack	1415	SCS215a	733745.523438	733745.523673	8	0.013327	60	10	60-180	60	84	GapExp	1	1	4	0	1	target	1	2426	13.327	13.293	13.363
ProbeTrack8	4	ProbeTrack	1415	SCS215a	733745.523438	733745.523796	8	0.013327	60	10	60-180	60	151	GapExp	1	2	4	0	0	13	-3	14	13.327	13.289	13.366
ProbeTrack8	4	ProbeTrack	1415	SCS215a	733745.523438	733745.523868	8	0.013327	60	10	60-180	60	168	GapExp	1	3	4	6	0	distractor	1	2373	13.328	13.289	13.367
ProbeTrack8	4	ProbeTrack	1415	SCS215a	733745.523438	733745.523973	8	0.013327	60	10	60-180	60	173	GapExp	1	4	4	6	1	target	1	1626	13.328	13.293	13.363
ProbeTrack8	4	ProbeTrack	1415	SCS215a	733745.523438	733745.524070	8	0.013327	60	10	60-180	60	141	GapExp	1	5	4	96	1	distractor	0	827	13.328	13.293	13.363
ProbeTrack8	4	ProbeTrack	1415	SCS215a	733745.523438	733745.524195	8	0.013327	60	10	60-180	60	120	GapExp	0	6	4	3	0	13	-3	5038	13.328	13.293	13.363
ProbeTrack8	4	ProbeTrack	1415	SCS215a	733745.523438	733745.524337	8	0.013327	60	10	60-180	60	133	GapExp	0	7	4	3	0	target	0	627	13.328	13.293	13.363
ProbeTrack8	4	ProbeTrack	1415	SCS215a	733745.523438	733745.524414	8	0.013327	60	10	60-180	60	87	GapExp	0	8	4	6	0	13	-3	4292	13.327	13.293	13.363
ProbeTrack8	4	ProbeTrack	1415	SCS215a	733745.523438	733745.524576	8	0.013327	60	10	60-180	60	157	GapExp	0	9	4	3	1	target	1	1573	13.328	13.293	13.364
ProbeTrack8	4	ProbeTrack	1415	SCS215a	733745.523438	733745.524672	8	0.013327	60	10	60-180	60	97	GapExp	0	10	4	96	0	distractor	1	467	13.328	13.293	13.363
ProbeTrack8	4	ProbeTrack	1415	SCS215a	733745.523438	733745.524760	8	0.013327	60	10	60-180	60	83	GapExp	0	11	4	6	0	distractor	1	2106	13.327	13.293	13.365
ProbeTrack8	4	ProbeTrack	1415	SCS215a	733745.523438	733745.524881	8	0.013327	60	10	60-180	60	165	GapExp	0	12	4	3	1	target	1	3332	13.328	13.293	13.363
ProbeTrack8	4	ProbeTrack	1415	SCS215a	733745.523438	733745.524995	8	0.013327	60	10	60-180	60	112	GapExp	0	13	4	0	0	target	0	2439	13.328	13.293	13.363
ProbeTrack8	4	ProbeTrack	1415	SCS215a	733745.523438	733745.525090	8	0.013327	60	10	60-180	60	128	GapExp	0	14	4	6	1	distractor	0	760	13.328	13.293	13.363
ProbeTrack8	4	ProbeTrack	1415	SCS215a	733745.523438	733745.525167	8	0.013327	60	10	60-180	60	131	GapExp	0	15	4	3	0	target	0	1786	13.328	13.293	13.363
ProbeTrack8	4	ProbeTrack	1415	SCS215a	733745.523438	733745.525261	8	0.013327	60	10	60-180	60	168	GapExp	0	16	4	3	0	distractor	1	1426	13.328	13.293	13.363
ProbeTrack8	4	ProbeTrack	1415	SCS215a	733745.523438	733745.525355	8	0.013327	60	10	60-180	60	129	GapExp	0	17	4	96	0	target	0	1346	13.328	13.293	13.363
ProbeTrack8	4	ProbeTrack	1415	SCS215a	733745.523438	733745.525455	8	0.013327	60	10	60-180	60	132	GapExp	0	18	4	3	1	distractor	0	440	13.328	13.293	13.363
ProbeTrack8	4	ProbeTrack	1415	SCS215a	733745.523438	733745.525529	8	0.013327	60	10	60-180	60	112	GapExp	0	19	4	0	1	target	1	1746	13.328	13.293	13.363
ProbeTrack8	4	ProbeTrack	1415	SCS215a	733745.523438	733745.525616	8	0.013327	60	10	60-180	60	145	GapExp	0	20	4	0	1	distractor	0	587	13.328	13.293	13.363
ProbeTrack8	4	ProbeTrack	1415	SCS215a	733745.523438	733745.525691	8	0.013327	60	10	60-180	60	76	GapExp	0	21	4	0	0	target	0	933	13.328	13.287	13.363
ProbeTrack8	4	ProbeTrack	1415	SCS215a	733745.523438	733745.525784	8	0.013327	60	10	60-180	60	163	GapExp	0	22	4	0	0	target	0	1147	13.328	13.292	13.363
ProbeTrack8	4	ProbeTrack	1415	SCS215a	733745.523438	733745.525873	8	0.013327	60	10	60-180	60	143	GapExp	0	23	4	6	1	target	1	1320	13.328	13.293	13.363
ProbeTrack8	4	ProbeTrack	1415	SCS215a	733745.523438	733745.525968	8	0.013327	60	10	60-180	60	173	GapExp	0	24	4	96	0	distractor	1	1133	13.328	13.293	13.364
ProbeTrack8	4	ProbeTrack	1415	SCS215a	733745.523438	733745.526075	8	0.013327	60	10	60-180	60	76	GapExp	0	25	4	6	1	target	1	1493	13.328	13.293	13.363
ProbeTrack8	4	ProbeTrack	1415	SCS215a	733745.523438	733745.526153	8	0.013327	60	10	60-180	60	129	GapExp	0	26	4	3	0	distractor	1	1026	13.328	13.293	13.363
ProbeTrack8	4	ProbeTrack	1415	SCS215a	733745.523438	733745.526233	8	0.013327	60	10	60-180	60	100	GapExp	0	27	4	3	0	distractor	1	1106	13.328	13.293	13.363
ProbeTrack8	4	ProbeTrack	1415	SCS215a	733745.523438	733745.526306	8	0.013327	60	10	60-180	60	151	GapExp	0	28	4	0	1	target	1	1413	13.328	13.292	13.363
ProbeTrack8	4	ProbeTrack	1415	SCS215a	733745.523438	733745.526389	8	0.013327	60	10	60-180	60	74	GapExp	0	29	4	3	0	distractor	1	1000	13.328	13.293	13.363
ProbeTrack8	4	ProbeTrack	1415	SCS215a	733745.523438	733745.526478	8	0.013327	60	10	60-180	60	130	GapExp	0	30	4	0	1	target	1	707	13.328	13.292	13.364
ProbeTrack8	4	ProbeTrack	1415	SCS215a	733745.523438	733745.526556	8	0.013327	60	10	60-180	60	117	GapExp	0	31	4	96	1	target	1	600	13.328	13.293	13.363
ProbeTrack8	4	ProbeTrack	1415	SCS215a	733745.523438	733745.526642	8	0.013327	60	10	60-180	60	95	GapExp	0	32	4	0	0	distractor	1	760	13.328	13.293	13.363
ProbeTrack8	4	ProbeTrack	1415	SCS215a	733745.523438	733745.526744	8	0.013327	60	10	60-180	60	130	GapExp	0	33	4	0	0	distractor	1	720	13.328	13.293	13.363
ProbeTrack8	4	ProbeTrack	1415	SCS215a	733745.523438	733745.526829	8	0.013327	60	10	60-180	60	171	GapExp	0	34	4	6	0	distractor	1	747	13.328	13.293	13.363
ProbeTrack8	4	ProbeTrack	1415	SCS215a	733745.523438	733745.526914	8	0.013327	60	10	60-180	60	165	GapExp	0	35	4	96	1	target	1	520	13.328	13.291	13.365
ProbeTrack8	4	ProbeTrack	1415	SCS215a	733745.523438	733745.527013	8	0.013327	60	10	60-180	60	166	GapExp	0	36	4	3	1	distractor	0	893	13.328	13.292	13.363
ProbeTrack8	4	ProbeTrack	1415	SCS215a	733745.523438	733745.527102	8	0.013327	60	10	60-180	60	180	GapExp	0	37	4	96	0	target	0	733	13.328	13.293	13.363
ProbeTrack8	4	ProbeTrack	1415	SCS215a	733745.523438	733745.527197	8	0.013327	60	10	60-180	60	69	GapExp	0	38	4	3	1	distractor	0	813	13.328	13.292	13.363
ProbeTrack8	4	ProbeTrack	1415	SCS215a	733745.523438	733745.527269	8	0.013327	60	10	60-180	60	103	GapExp	0	39	4	96	1	target	1	813	13.328	13.293	13.364
ProbeTrack8	4	ProbeTrack	1415	SCS215a	733745.523438	733745.527357	8	0.013327	60	10	60-180	60	132	GapExp	0	40	4	6	0	target	0	1026	13.328	13.293	13.363
ProbeTrack8	4	ProbeTrack	1415	SCS215a	733745.523438	733745.527434	8	0.013327	60	10	60-180	60	157	GapExp	0	41	4	96	0	distractor	1	853	13.328	13.290	13.365
ProbeTrack8	4	ProbeTrack	1415	SCS215a	733745.523438	733745.527532	8	0.013327	60	10	60-180	60	77	GapExp	0	42	4	6	1	target	1	787	13.327	13.293	13.363
ProbeTrack8	4	ProbeTrack	1415	SCS215a	733745.523438	733745.527603	8	0.013327	60	10	60-180	60	77	GapExp	0	43	4	96	1	target	1	893	13.328	13.293	13.363
ProbeTrack8	4	ProbeTrack	1415	SCS215a	733745.523438	733745.527690	8	0.013327	60	10	60-180	60	61	GapExp	0	44	4	96	0	distractor	1	573	13.328	13.293	13.363
ProbeTrack8	4	ProbeTrack	1415	SCS215a	733745.523438	733745.527767	8	0.013327	60	10	60-180	60	134	GapExp	0	45	4	6	1	target	1	893	13.328	13.293	13.363
ProbeTrack8	4	ProbeTrack	1415	SCS215a	733745.523438	733745.527846	8	0.013327	60	10	60-180	60	64	GapExp	0	46	4	6	0	distractor	1	613	13.328	13.292	13.363
ProbeTrack8	4	ProbeTrack	1415	SCS215a	733745.523438	733745.527909	8	0.013327	60	10	60-180	60	116	GapExp	0	47	4	0	0	distractor	1	747	13.328	13.293	13.363
ProbeTrack8	4	ProbeTrack	1415	SCS215a	733745.523438	733745.527991	8	0.013327	60	10	60-180	60	95	GapExp	0	48	4	96	1	distractor	0	294	13.328	13.289	13.363
ProbeTrack8	4	ProbeTrack	1415	SCS215a	733745.523438	733745.528111	8	0.013327	60	10	60-180	60	100	GapExp	0	49	4	6	0	distractor	1	613	13.328	13.293	13.363
ProbeTrack8	4	ProbeTrack	1415	SCS215a	733745.523438	733745.528182	8	0.013327	60	10	60-180	60	101	GapExp	0	50	4	96	1	target	1	5318	13.328	13.293	13.363
ProbeTrack8	4	ProbeTrack	1415	SCS215a	733745.523438	733745.528321	8	0.013327	60	10	60-180	60	105	GapExp	0	51	4	6	1	target	1	1066	13.328	13.293	13.363
ProbeTrack8	4	ProbeTrack	1415	SCS215a	733745.523438	733745.528401	8	0.013327	60	10	60-180	60	174	GapExp	0	52	4	3	1	distractor	0	893	13.328	13.293	13.363
ProbeTrack8	4	ProbeTrack	1415	SCS215a	733745.523438	733745.528485	8	0.013327	60	10	60-180	60	120	GapExp	0	53	4	0	1	target	1	1200	13.328	13.293	13.363
ProbeTrack8	4	ProbeTrack	1415	SCS215a	733745.523438	733745.528568	8	0.013327	60	10	60-180	60	132	GapExp	0	54	4	3	0	distractor	1	600	13.328	13.293	13.365
ProbeTrack8	4	ProbeTrack	1415	SCS215a	733745.523438	733745.528642	8	0.013327	60	10	60-180	60	148	GapExp	0	55	4	6	1	target	1	960	13.328	13.293	13.363
ProbeTrack8	4	ProbeTrack	1415	SCS215a	733745.523438	733745.528727	8	0.013327	60	10	60-180	60	95	GapExp	0	56	4	6	0	distractor	1	547	13.328	13.293	13.362
ProbeTrack8	4	ProbeTrack	1415	SCS215a	733745.523438	733745.528794	8	0.013327	60	10	60-180	60	89	GapExp	0	57	4	6	0	target	0	480	13.328	13.293	13.363
ProbeTrack8	4	ProbeTrack	1415	SCS215a	733745.523438	733745.528864	8	0.013327	60	10	60-180	60	81	GapExp	0	58	4	96	1	distractor	0	347	13.328	13.293	13.363
ProbeTrack8	4	ProbeTrack	1415	SCS215a	733745.523438	733745.528944	8	0.013327	60	10	60-180	60	128	GapExp	0	59	4	96	1	target	1	2066	13.328	13.290	13.363
ProbeTrack8	4	ProbeTrack	1415	SCS215a	733745.523438	733745.529130	8	0.013327	60	10	60-180	60	132	GapExp	0	60	4	96	1	27	-3	46340	13.328	13.291	13.363
ProbeTrack8	4	ProbeTrack	1415	SCS215a	733745.523438	733745.529765	8	0.013327	60	10	60-180	60	180	GapExp	0	61	4	3	1	target	1	693	13.328	13.293	13.363
ProbeTrack8	4	ProbeTrack	1415	SCS215a	733745.523438	733745.529862	8	0.013327	60	10	60-180	60	167	GapExp	0	62	4	96	0	13	-3	-13	13.328	13.293	13.363
ProbeTrack8	4	ProbeTrack	1415	SCS215a	733745.523438	733745.529951	8	0.013327	60	10	60-180	60	71	GapExp	0	63	4	3	1	target	1	453	13.328	13.289	13.366
ProbeTrack8	4	ProbeTrack	1415	SCS215a	733745.523438	733745.530012	8	0.013327	60	10	60-180	60	96	GapExp	0	64	4	6	0	distractor	1	787	13.328	13.293	13.363
ProbeTrack8	4	ProbeTrack	1415	SCS215a	733745.523438	733745.530084	8	0.013327	60	10	60-180	60	104	GapExp	0	65	4	3	1	distractor	0	920	13.328	13.293	13.363
ProbeTrack8	4	ProbeTrack	1415	SCS215a	733745.523438	733745.530158	8	0.013327	60	10	60-180	60	77	GapExp	0	66	4	96	0	distractor	1	707	13.328	13.293	13.363
ProbeTrack8	4	ProbeTrack	1415	SCS215a	733745.523438	733745.530236	8	0.013327	60	10	60-180	60	86	GapExp	0	67	4	0	1	target	1	720	13.328	13.293	13.363
ProbeTrack8	4	ProbeTrack	1415	SCS215a	733745.523438	733745.530300	8	0.013327	60	10	60-180	60	140	GapExp	0	68	4	96	0	distractor	1	533	13.328	13.290	13.363
ProbeTrack8	4	ProbeTrack	1415	SCS215a	733745.523438	733745.530387	8	0.013327	60	10	60-180	60	65	GapExp	0	69	4	0	1	target	1	480	13.328	13.293	13.363
ProbeTrack8	4	ProbeTrack	1415	SCS215a	733745.523438	733745.530446	8	0.013327	60	10	60-180	60	91	GapExp	0	70	4	3	1	target	1	254	13.328	13.293	13.363
ProbeTrack8	4	ProbeTrack	1415	SCS215a	733745.523438	733745.530507	8	0.013327	60	10	60-180	60	148	GapExp	0	71	4	0	0	distractor	1	414	13.328	13.292	13.363
ProbeTrack8	4	ProbeTrack	1415	SCS215a	733745.523438	733745.530581	8	0.013327	60	10	60-180	60	142	GapExp	0	72	4	3	1	target	1	347	13.328	13.293	13.363
ProbeTrack8	4	ProbeTrack	1415	SCS215a	733745.523438	733745.530650	8	0.013327	60	10	60-180	60	86	GapExp	0	73	4	96	1	target	1	680	13.328	13.293	13.363
ProbeTrack8	4	ProbeTrack	1415	SCS215a	733745.523438	733745.530731	8	0.013327	60	10	60-180	60	170	GapExp	0	74	4	0	0	target	0	-13	13.328	13.289	13.366
ProbeTrack8	4	ProbeTrack	1415	SCS215a	733745.523438	733745.530814	8	0.013327	60	10	60-180	60	115	GapExp	0	75	4	0	1	distractor	0	120	13.327	13.293	13.363
ProbeTrack8	4	ProbeTrack	1415	SCS215a	733745.523438	733745.530884	8	0.013327	60	10	60-180	60	175	GapExp	0	76	4	0	1	distractor	0	174	13.328	13.292	13.363
ProbeTrack8	4	ProbeTrack	1415	SCS215a	733745.523438	733745.530956	8	0.013327	60	10	60-180	60	129	GapExp	0	77	4	6	1	target	1	40	13.328	13.293	13.364
ProbeTrack8	4	ProbeTrack	1415	SCS215a	733745.523438	733745.531035	8	0.013327	60	10	60-180	60	150	GapExp	0	78	4	3	0	target	0	187	13.327	13.292	13.363
ProbeTrack8	4	ProbeTrack	1415	SCS215a	733745.523438	733745.531112	8	0.013327	60	10	60-180	60	112	GapExp	0	79	4	6	1	target	1	1400	13.328	13.293	13.363
ProbeTrack8	4	ProbeTrack	1415	SCS215a	733745.523438	733745.531197	8	0.013327	60	10	60-180	60	114	GapExp	0	80	4	3	0	distractor	1	307	13.327	13.292	13.363
ProbeTrack8	4	ProbeTrack	1415	SCS215a	733745.523438	733745.531267	8	0.013327	60	10	60-180	60	152	GapExp	0	81	4	3	0	target	0	147	13.328	13.293	13.363
ProbeTrack8	4	ProbeTrack	1415	SCS215a	733745.523438	733745.531345	8	0.013327	60	10	60-180	60	69	GapExp	0	82	4	6	0	distractor	1	747	13.327	13.293	13.363
ProbeTrack8	4	ProbeTrack	1415	SCS215a	733745.523438	733745.531411	8	0.013327	60	10	60-180	60	63	GapExp	0	83	4	6	1	distractor	0	54	13.328	13.293	13.363
ProbeTrack8	4	ProbeTrack	1415	SCS215a	733745.523438	733745.531470	8	0.013327	60	10	60-180	60	160	GapExp	0	84	4	0	1	target	1	560	13.328	13.293	13.363
ProbeTrack8	4	ProbeTrack	1415	SCS215a	733745.523438	733745.531557	8	0.013327	60	10	60-180	60	169	GapExp	0	85	4	96	0	distractor	1	240	13.328	13.293	13.363
ProbeTrack8	4	ProbeTrack	1415	SCS215a	733745.523438	733745.531646	8	0.013327	60	10	60-180	60	99	GapExp	0	86	4	6	0	distractor	1	307	13.328	13.293	13.363
ProbeTrack8	4	ProbeTrack	1415	SCS215a	733745.523438	733745.531713	8	0.013327	60	10	60-180	60	130	GapExp	0	87	4	6	1	target	1	307	13.328	13.293	13.363
ProbeTrack8	4	ProbeTrack	1415	SCS215a	733745.523438	733745.531788	8	0.013327	60	10	60-180	60	74	GapExp	0	88	4	0	0	distractor	1	693	13.328	13.292	13.364
ProbeTrack8	4	ProbeTrack	1415	SCS215a	733745.523438	733745.531851	8	0.013327	60	10	60-180	60	131	GapExp	0	89	4	0	0	distractor	1	240	13.327	13.289	13.363
ProbeTrack8	4	ProbeTrack	1415	SCS215a	733745.523438	733745.531917	8	0.013327	60	10	60-180	60	85	GapExp	0	90	4	96	1	target	1	733	13.328	13.293	13.363
ProbeTrack8	4	ProbeTrack	1415	SCS215a	733745.523438	733745.532000	8	0.013327	60	10	60-180	60	87	GapExp	0	91	4	96	1	distractor	0	520	13.328	13.293	13.363
ProbeTrack8	4	ProbeTrack	1415	SCS215a	733745.523438	733745.532079	8	0.013327	60	10	60-180	60	111	GapExp	0	92	4	0	1	target	1	533	13.328	13.293	13.363
ProbeTrack8	4	ProbeTrack	1415	SCS215a	733745.523438	733745.532148	8	0.013327	60	10	60-180	60	131	GapExp	0	93	4	0	0	target	0	1466	13.328	13.292	13.363
ProbeTrack8	4	ProbeTrack	1415	SCS215a	733745.523438	733745.532230	8	0.013327	60	10	60-180	60	107	GapExp	0	94	4	96	0	distractor	1	254	13.328	13.292	13.363
ProbeTrack8	4	ProbeTrack	1415	SCS215a	733745.523438	733745.532326	8	0.013327	60	10	60-180	60	175	GapExp	0	95	4	96	1	distractor	0	613	13.328	13.293	13.363
ProbeTrack8	4	ProbeTrack	1415	SCS215a	733745.523438	733745.532442	8	0.013327	60	10	60-180	60	129	GapExp	0	96	4	3	0	distractor	1	374	13.328	13.293	13.363
ProbeTrack8	4	ProbeTrack	1415	SCS215a	733745.523438	733745.532525	8	0.013327	60	10	60-180	60	106	GapExp	0	97	4	3	1	target	1	1826	13.328	13.293	13.363
ProbeTrack8	4	ProbeTrack	1415	SCS215a	733745.523438	733745.532688	8	0.013327	60	10	60-180	60	75	GapExp	0	98	4	96	0	distractor	1	334	13.328	13.292	13.363
ProbeTrack8	4	ProbeTrack	1415	SCS215a	733745.523438	733745.532785	8	0.013327	60	10	60-180	60	90	GapExp	0	99	4	6	1	distractor	0	520	13.328	13.293	13.363
ProbeTrack8	4	ProbeTrack	1415	SCS215a	733745.523438	733745.532877	8	0.013327	60	10	60-180	60	165	GapExp	0	100	4	0	0	target	0	1346	13.328	13.293	13.363
ProbeTrack8	4	ProbeTrack	1415	SCS215a	733745.523438	733745.532966	8	0.013327	60	10	60-180	60	101	GapExp	0	101	4	96	1	target	1	414	13.328	13.293	13.363
ProbeTrack8	4	ProbeTrack	1415	SCS215a	733745.523438	733745.533084	8	0.013327	60	10	60-180	60	111	GapExp	0	102	4	96	0	distractor	1	334	13.328	13.292	13.363
ProbeTrack8	4	ProbeTrack	1415	SCS215a	733745.523438	733745.533199	8	0.013327	60	10	60-180	60	85	GapExp	0	103	4	0	0	target	0	946	13.328	13.292	13.364
ProbeTrack8	4	ProbeTrack	1415	SCS215a	733745.523438	733745.533280	8	0.013327	60	10	60-180	60	69	GapExp	0	104	4	6	0	target	0	1293	13.327	13.291	13.363
ProbeTrack8	4	ProbeTrack	1415	SCS215a	733745.523438	733745.533354	8	0.013327	60	10	60-180	60	157	GapExp	0	105	4	6	0	distractor	1	440	13.328	13.293	13.363
ProbeTrack8	4	ProbeTrack	1415	SCS215a	733745.523438	733745.533431	8	0.013327	60	10	60-180	60	135	GapExp	0	106	4	6	0	distractor	1	373	13.328	13.293	13.363
ProbeTrack8	4	ProbeTrack	1415	SCS215a	733745.523438	733745.533527	8	0.013327	60	10	60-180	60	122	GapExp	0	107	4	3	0	distractor	1	693	13.328	13.293	13.363
ProbeTrack8	4	ProbeTrack	1415	SCS215a	733745.523438	733745.533605	8	0.013327	60	10	60-180	60	102	GapExp	0	108	4	3	1	distractor	0	467	13.328	13.292	13.363
ProbeTrack8	4	ProbeTrack	1415	SCS215a	733745.523438	733745.533730	8	0.013327	60	10	60-180	60	150	GapExp	0	109	4	96	1	target	1	600	13.328	13.288	13.363
ProbeTrack8	4	ProbeTrack	1415	SCS215a	733745.523438	733745.533820	8	0.013327	60	10	60-180	60	139	GapExp	0	110	4	3	1	target	1	1120	13.328	13.293	13.363
ProbeTrack8	4	ProbeTrack	1415	SCS215a	733745.523438	733745.533949	8	0.013327	60	10	60-180	60	72	GapExp	0	111	4	6	1	distractor	0	680	13.327	13.293	13.362
ProbeTrack8	4	ProbeTrack	1415	SCS215a	733745.523438	733745.534042	8	0.013327	60	10	60-180	60	176	GapExp	0	112	4	0	1	target	1	1546	13.328	13.292	13.363
ProbeTrack8	4	ProbeTrack	1415	SCS215a	733745.523438	733745.534208	8	0.013327	60	10	60-180	60	124	GapExp	0	113	4	0	0	target	0	467	13.328	13.293	13.363
ProbeTrack8	4	ProbeTrack	1415	SCS215a	733745.523438	733745.534319	8	0.013327	60	10	60-180	60	160	GapExp	0	114	4	96	0	distractor	1	267	13.328	13.293	13.364
ProbeTrack8	4	ProbeTrack	1415	SCS215a	733745.523438	733745.534414	8	0.013327	60	10	60-180	60	127	GapExp	0	115	4	3	0	distractor	1	653	13.328	13.289	13.366
ProbeTrack8	4	ProbeTrack	1415	SCS215a	733745.523438	733745.534571	8	0.013327	60	10	60-180	60	173	GapExp	0	116	4	6	1	target	1	414	13.328	13.292	13.363
ProbeTrack8	4	ProbeTrack	1415	SCS215a	733745.523438	733745.534653	8	0.013327	60	10	60-180	60	171	GapExp	0	117	4	3	0	distractor	1	533	13.328	13.293	13.362
ProbeTrack8	4	ProbeTrack	1415	SCS215a	733745.523438	733745.534786	8	0.013327	60	10	60-180	60	163	GapExp	0	118	4	0	1	13	-3	787	13.328	13.293	13.363
ProbeTrack8	4	ProbeTrack	1415	SCS215a	733745.523438	733745.534879	8	0.013327	60	10	60-180	60	175	GapExp	0	119	4	6	1	distractor	0	2879	13.328	13.293	13.363
ProbeTrack8	4	ProbeTrack	1415	SCS215a	733745.523438	733745.534984	8	0.013327	60	10	60-180	60	66	GapExp	0	120	4	0	1	target	1	4718	13.328	13.293	13.363
ProbeTrack8	4	ProbeTrack	1415	SCS215a	733745.523438	733745.535139	8	0.013327	60	10	60-180	60	80	GapExp	0	121	4	0	1	distractor	0	2346	13.328	13.293	13.363
ProbeTrack8	4	ProbeTrack	1415	SCS215a	733745.523438	733745.535232	8	0.013327	60	10	60-180	60	136	GapExp	0	122	4	96	0	target	0	2759	13.328	13.289	13.368
ProbeTrack8	4	ProbeTrack	1415	SCS215a	733745.523438	733745.535345	8	0.013327	60	10	60-180	60	74	GapExp	0	123	4	6	0	distractor	1	227	13.328	13.292	13.363
ProbeTrack8	4	ProbeTrack	1415	SCS215a	733745.523438	733745.535442	8	0.013327	60	10	60-180	60	89	GapExp	0	124	4	3	1	distractor	0	267	13.328	13.292	13.363
ProbeTrack8	4	ProbeTrack	1415	SCS215a	733745.523438	733745.535525	8	0.013327	60	10	60-180	60	174	GapExp	0	125	4	0	0	target	0	307	13.328	13.292	13.363
ProbeTrack8	4	ProbeTrack	1415	SCS215a	733745.535995	733745.536175	8	0.013327	60	10	60-180	60	84	GapPrac	1	1	2	6	1	target	1	747	13.328	13.293	13.363
ProbeTrack8	4	ProbeTrack	1415	SCS215a	733745.535995	733745.536253	8	0.013327	60	10	60-180	60	65	GapPrac	1	2	2	3	1	distractor	0	1213	13.328	13.293	13.363
ProbeTrack8	4	ProbeTrack	1415	SCS215a	733745.535995	733745.536354	8	0.013327	60	10	60-180	60	101	GapPrac	1	3	2	0	0	distractor	1	813	13.328	13.293	13.363
ProbeTrack8	4	ProbeTrack	1415	SCS215a	733745.535995	733745.536434	8	0.013327	60	10	60-180	60	109	GapPrac	1	4	2	0	1	distractor	0	533	13.328	13.293	13.363
ProbeTrack8	4	ProbeTrack	1415	SCS215a	733745.535995	733745.536525	8	0.013327	60	10	60-180	60	136	GapPrac	1	5	2	6	1	target	1	813	13.328	13.293	13.363
ProbeTrack8	4	ProbeTrack	1415	SCS215a	733745.535995	733745.536612	8	0.013327	60	10	60-180	60	162	GapPrac	1	6	2	3	1	target	1	413	13.328	13.293	13.363
ProbeTrack8	4	ProbeTrack	1415	SCS215a	733745.535995	733745.536688	8	0.013327	60	10	60-180	60	170	GapPrac	1	7	2	6	1	distractor	0	2999	13.328	13.292	13.365
ProbeTrack8	4	ProbeTrack	1415	SCS215a	733745.535995	733745.536816	8	0.013327	60	10	60-180	60	66	GapPrac	1	8	2	3	1	target	1	613	13.328	13.293	13.363
ProbeTrack8	4	ProbeTrack	1415	SCS215a	733745.535995	733745.536880	8	0.013327	60	10	60-180	60	79	GapPrac	1	9	2	96	0	target	0	1146	13.328	13.293	13.363
ProbeTrack8	4	ProbeTrack	1415	SCS215a	733745.535995	733745.537026	8	0.013327	60	10	60-180	60	100	GapPrac	1	10	2	6	0	target	0	2586	13.328	13.293	13.363
ProbeTrack8	4	ProbeTrack	1415	SCS215a	733745.535995	733745.537158	8	0.013327	60	10	60-180	60	162	GapPrac	1	11	2	0	0	distractor	1	1027	13.328	13.293	13.363
ProbeTrack8	4	ProbeTrack	1415	SCS215a	733745.535995	733745.537274	8	0.013327	60	10	60-180	60	134	GapPrac	1	12	2	96	1	target	1	667	13.328	13.293	13.363
ProbeTrack8	4	ProbeTrack	1415	SCS215a	733745.535995	733745.537362	8	0.013327	60	10	60-180	60	144	GapPrac	1	13	2	3	0	distractor	1	720	13.328	13.292	13.363
ProbeTrack8	4	ProbeTrack	1415	SCS215a	733745.535995	733745.537440	8	0.013327	60	10	60-180	60	122	GapPrac	1	14	2	0	1	distractor	0	640	13.328	13.293	13.363
ProbeTrack8	4	ProbeTrack	1415	SCS215a	733745.535995	733745.537549	8	0.013327	60	10	60-180	60	72	GapPrac	1	15	2	6	0	target	0	1453	13.328	13.290	13.365
ProbeTrack8	4	ProbeTrack	1415	SCS215a	733745.535995	733745.537624	8	0.013327	60	10	60-180	60	164	GapPrac	1	16	2	96	0	target	0	1919	13.328	13.292	13.363
ProbeTrack8	4	ProbeTrack	1415	SCS215a	733745.535995	733745.537762	8	0.013327	60	10	60-180	60	133	GapPrac	1	17	2	3	0	distractor	1	827	13.328	13.293	13.363
ProbeTrack8	4	ProbeTrack	1415	SCS215a	733745.535995	733745.537846	8	0.013327	60	10	60-180	60	75	GapPrac	1	18	2	0	1	target	1	960	13.328	13.293	13.362
ProbeTrack8	4	ProbeTrack	1415	SCS215a	733745.535995	733745.537918	8	0.013327	60	10	60-180	60	152	GapPrac	1	19	2	0	0	distractor	1	773	13.328	13.291	13.365
ProbeTrack8	4	ProbeTrack	1415	SCS215a	733745.535995	733745.537998	8	0.013327	60	10	60-180	60	71	GapPrac	1	20	2	96	1	distractor	0	640	13.328	13.293	13.363
ProbeTrack8	4	ProbeTrack	1415	SCS215a	733745.538561	733745.538625	8	0.013328	60	10	60-180	60	90	GapExp	1	1	2	0	1	target	1	787	13.328	13.293	13.363
ProbeTrack8	4	ProbeTrack	1415	SCS215a	733745.538561	733745.538705	8	0.013328	60	10	60-180	60	70	GapExp	1	2	2	96	0	distractor	1	760	13.328	13.293	13.363
ProbeTrack8	4	ProbeTrack	1415	SCS215a	733745.538561	733745.538788	8	0.013328	60	10	60-180	60	171	GapExp	1	3	2	3	1	target	1	907	13.328	13.293	13.363
ProbeTrack8	4	ProbeTrack	1415	SCS215a	733745.538561	733745.538876	8	0.013328	60	10	60-180	60	83	GapExp	1	4	2	6	1	distractor	0	1533	13.327	13.293	13.363
ProbeTrack8	4	ProbeTrack	1415	SCS215a	733745.538561	733745.538965	8	0.013328	60	10	60-180	60	172	GapExp	1	5	2	3	0	distractor	1	1080	13.328	13.293	13.363
ProbeTrack8	4	ProbeTrack	1415	SCS215a	733745.538561	733745.539055	8	0.013328	60	10	60-180	60	62	GapExp	0	6	2	6	0	target	0	800	13.327	13.293	13.363
ProbeTrack8	4	ProbeTrack	1415	SCS215a	733745.538561	733745.539122	8	0.013328	60	10	60-180	60	85	GapExp	0	7	2	6	0	distractor	1	1066	13.328	13.293	13.363
ProbeTrack8	4	ProbeTrack	1415	SCS215a	733745.538561	733745.539199	8	0.013328	60	10	60-180	60	95	GapExp	0	8	2	3	1	target	1	627	13.328	13.293	13.363
ProbeTrack8	4	ProbeTrack	1415	SCS215a	733745.538561	733745.539271	8	0.013328	60	10	60-180	60	112	GapExp	0	9	2	6	0	distractor	1	560	13.328	13.293	13.363
ProbeTrack8	4	ProbeTrack	1415	SCS215a	733745.538561	733745.539346	8	0.013328	60	10	60-180	60	167	GapExp	0	10	2	0	0	distractor	1	533	13.328	13.289	13.364
ProbeTrack8	4	ProbeTrack	1415	SCS215a	733745.538561	733745.539464	8	0.013328	60	10	60-180	60	141	GapExp	0	11	2	96	1	target	1	800	13.328	13.293	13.363
ProbeTrack8	4	ProbeTrack	1415	SCS215a	733745.538561	733745.539582	8	0.013328	60	10	60-180	60	135	GapExp	0	12	2	0	1	target	1	1653	13.328	13.293	13.363
ProbeTrack8	4	ProbeTrack	1415	SCS215a	733745.538561	733745.539686	8	0.013328	60	10	60-180	60	127	GapExp	0	13	2	96	0	distractor	1	693	13.328	13.293	13.363
ProbeTrack8	4	ProbeTrack	1415	SCS215a	733745.538561	733745.539794	8	0.013328	60	10	60-180	60	154	GapExp	0	14	2	0	1	13	-3	1733	13.328	13.290	13.366
ProbeTrack8	4	ProbeTrack	1415	SCS215a	733745.538561	733745.539888	8	0.013328	60	10	60-180	60	163	GapExp	0	15	2	0	0	distractor	1	627	13.328	13.293	13.363
ProbeTrack8	4	ProbeTrack	1415	SCS215a	733745.538561	733745.539971	8	0.013328	60	10	60-180	60	163	GapExp	0	16	2	0	0	target	0	1000	13.328	13.293	13.363
ProbeTrack8	4	ProbeTrack	1415	SCS215a	733745.538561	733745.540097	8	0.013328	60	10	60-180	60	63	GapExp	0	17	2	3	0	target	0	560	13.328	13.293	13.362
ProbeTrack8	4	ProbeTrack	1415	SCS215a	733745.538561	733745.540163	8	0.013328	60	10	60-180	60	76	GapExp	0	18	2	0	0	distractor	1	813	13.328	13.290	13.366
ProbeTrack8	4	ProbeTrack	1415	SCS215a	733745.538561	733745.540231	8	0.013328	60	10	60-180	60	110	GapExp	0	19	2	6	0	distractor	1	1879	13.328	13.292	13.363
ProbeTrack8	4	ProbeTrack	1415	SCS215a	733745.538561	733745.540318	8	0.013328	60	10	60-180	60	89	GapExp	0	20	2	6	0	distractor	1	1280	13.328	13.292	13.363
ProbeTrack8	4	ProbeTrack	1415	SCS215a	733745.538561	733745.540394	8	0.013328	60	10	60-180	60	124	GapExp	0	21	2	6	0	distractor	1	1027	13.328	13.293	13.362
ProbeTrack8	4	ProbeTrack	1415	SCS215a	733745.538561	733745.540479	8	0.013328	60	10	60-180	60	75	GapExp	0	22	2	6	1	target	1	907	13.328	13.293	13.362
ProbeTrack8	4	ProbeTrack	1415	SCS215a	733745.538561	733745.540552	8	0.013328	60	10	60-180	60	76	GapExp	0	23	2	3	1	target	1	893	13.328	13.293	13.363
ProbeTrack8	4	ProbeTrack	1415	SCS215a	733745.538561	733745.540666	8	0.013328	60	10	60-180	60	71	GapExp	0	24	2	3	1	target	1	773	13.328	13.293	13.363
ProbeTrack8	4	ProbeTrack	1415	SCS215a	733745.538561	733745.540757	8	0.013328	60	10	60-180	60	138	GapExp	0	25	2	96	1	13	-3	1839	13.328	13.293	13.363
ProbeTrack8	4	ProbeTrack	1415	SCS215a	733745.538561	733745.540882	8	0.013328	60	10	60-180	60	171	GapExp	0	26	2	0	0	distractor	1	907	13.328	13.292	13.363
ProbeTrack8	4	ProbeTrack	1415	SCS215a	733745.538561	733745.540967	8	0.013328	60	10	60-180	60	103	GapExp	0	27	2	3	1	distractor	0	1653	13.328	13.293	13.363
ProbeTrack8	4	ProbeTrack	1415	SCS215a	733745.538561	733745.541057	8	0.013328	60	10	60-180	60	86	GapExp	0	28	2	6	1	target	1	587	13.328	13.293	13.363
ProbeTrack8	4	ProbeTrack	1415	SCS215a	733745.538561	733745.541184	8	0.013328	60	10	60-180	60	63	GapExp	0	29	2	96	1	target	1	707	13.328	13.293	13.363
ProbeTrack8	4	ProbeTrack	1415	SCS215a	733745.538561	733745.541283	8	0.013328	60	10	60-180	60	177	GapExp	0	30	2	3	0	target	0	787	13.328	13.293	13.363
ProbeTrack8	4	ProbeTrack	1415	SCS215a	733745.538561	733745.541429	8	0.013328	60	10	60-180	60	89	GapExp	0	31	2	96	1	target	1	560	13.328	13.293	13.363
ProbeTrack8	4	ProbeTrack	1415	SCS215a	733745.538561	733745.541518	8	0.013328	60	10	60-180	60	135	GapExp	0	32	2	3	1	target	1	467	13.328	13.293	13.363
ProbeTrack8	4	ProbeTrack	1415	SCS215a	733745.538561	733745.541594	8	0.013328	60	10	60-180	60	178	GapExp	0	33	2	6	1	target	1	613	13.328	13.290	13.363
ProbeTrack8	4	ProbeTrack	1415	SCS215a	733745.538561	733745.541676	8	0.013328	60	10	60-180	60	145	GapExp	0	34	2	96	1	target	1	440	13.328	13.293	13.363
ProbeTrack8	4	ProbeTrack	1415	SCS215a	733745.538561	733745.541769	8	0.013328	60	10	60-180	60	113	GapExp	0	35	2	3	0	distractor	1	2079	13.328	13.293	13.363
ProbeTrack8	4	ProbeTrack	1415	SCS215a	733745.538561	733745.541883	8	0.013328	60	10	60-180	60	126	GapExp	0	36	2	0	1	target	1	733	13.328	13.291	13.363
ProbeTrack8	4	ProbeTrack	1415	SCS215a	733745.538561	733745.541962	8	0.013328	60	10	60-180	60	146	GapExp	0	37	2	0	0	target	0	613	13.328	13.291	13.363
ProbeTrack8	4	ProbeTrack	1415	SCS215a	733745.538561	733745.542055	8	0.013328	60	10	60-180	60	105	GapExp	0	38	2	96	0	target	0	1426	13.328	13.293	13.363
ProbeTrack8	4	ProbeTrack	1415	SCS215a	733745.538561	733745.542170	8	0.013328	60	10	60-180	60	80	GapExp	0	39	2	3	0	distractor	1	800	13.328	13.293	13.363
ProbeTrack8	4	ProbeTrack	1415	SCS215a	733745.538561	733745.542253	8	0.013328	60	10	60-180	60	148	GapExp	0	40	2	6	0	distractor	1	440	13.328	13.293	13.363
ProbeTrack8	4	ProbeTrack	1415	SCS215a	733745.538561	733745.542332	8	0.013328	60	10	60-180	60	179	GapExp	0	41	2	3	0	distractor	1	600	13.328	13.293	13.363
ProbeTrack8	4	ProbeTrack	1415	SCS215a	733745.538561	733745.542514	8	0.013328	60	10	60-180	60	90	GapExp	0	42	2	0	1	target	1	787	13.328	13.293	13.363
ProbeTrack8	4	ProbeTrack	1415	SCS215a	733745.538561	733745.542593	8	0.013328	60	10	60-180	60	102	GapExp	0	43	2	6	1	target	1	680	13.328	13.293	13.363
ProbeTrack8	4	ProbeTrack	1415	SCS215a	733745.538561	733745.542686	8	0.013328	60	10	60-180	60	180	GapExp	0	44	2	96	0	target	0	587	13.328	13.293	13.363
ProbeTrack8	4	ProbeTrack	1415	SCS215a	733745.538561	733745.542789	8	0.013328	60	10	60-180	60	179	GapExp	0	45	2	6	0	target	0	627	13.328	13.293	13.363
ProbeTrack8	4	ProbeTrack	1415	SCS215a	733745.538561	733745.542880	8	0.013328	60	10	60-180	60	135	GapExp	0	46	2	6	0	target	0	693	13.328	13.293	13.365
ProbeTrack8	4	ProbeTrack	1415	SCS215a	733745.538561	733745.542981	8	0.013328	60	10	60-180	60	132	GapExp	0	47	2	6	1	target	1	440	13.328	13.292	13.363
ProbeTrack8	4	ProbeTrack	1415	SCS215a	733745.538561	733745.543078	8	0.013328	60	10	60-180	60	137	GapExp	0	48	2	0	0	distractor	1	680	13.328	13.293	13.363
ProbeTrack8	4	ProbeTrack	1415	SCS215a	733745.538561	733745.543158	8	0.013328	60	10	60-180	60	102	GapExp	0	49	2	0	1	target	1	5771	13.328	13.293	13.363
ProbeTrack8	4	ProbeTrack	1415	SCS215a	733745.538561	733745.543307	8	0.013328	60	10	60-180	60	169	GapExp	0	50	2	3	0	target	0	427	13.328	13.293	13.363
ProbeTrack8	4	ProbeTrack	1415	SCS215a	733745.538561	733745.543386	8	0.013328	60	10	60-180	60	168	GapExp	0	51	2	3	0	distractor	1	414	13.328	13.293	13.363
ProbeTrack8	4	ProbeTrack	1415	SCS215a	733745.538561	733745.543465	8	0.013328	60	10	60-180	60	151	GapExp	0	52	2	96	0	target	0	613	13.328	13.292	13.363
ProbeTrack8	4	ProbeTrack	1415	SCS215a	733745.538561	733745.543558	8	0.013328	60	10	60-180	60	127	GapExp	0	53	2	6	1	distractor	0	773	13.328	13.293	13.363
ProbeTrack8	4	ProbeTrack	1415	SCS215a	733745.538561	733745.543637	8	0.013328	60	10	60-180	60	95	GapExp	0	54	2	0	1	target	1	640	13.328	13.293	13.363
ProbeTrack8	4	ProbeTrack	1415	SCS215a	733745.538561	733745.543716	8	0.013328	60	10	60-180	60	76	GapExp	0	55	2	6	1	target	1	587	13.327	13.292	13.363
ProbeTrack8	4	ProbeTrack	1415	SCS215a	733745.538561	733745.543805	8	0.013328	60	10	60-180	60	110	GapExp	0	56	2	6	1	target	1	507	13.328	13.292	13.364
ProbeTrack8	4	ProbeTrack	1415	SCS215a	733745.538561	733745.543972	8	0.013328	60	10	60-180	60	96	GapExp	0	57	2	96	0	target	0	187	13.328	13.292	13.363
ProbeTrack8	4	ProbeTrack	1415	SCS215a	733745.538561	733745.544100	8	0.013328	60	10	60-180	60	71	GapExp	0	58	2	3	1	distractor	0	1400	13.327	13.292	13.363
ProbeTrack8	4	ProbeTrack	1415	SCS215a	733745.538561	733745.544176	8	0.013328	60	10	60-180	60	122	GapExp	0	59	2	3	1	target	1	507	13.328	13.293	13.363
ProbeTrack8	4	ProbeTrack	1415	SCS215a	733745.538561	733745.544262	8	0.013328	60	10	60-180	60	110	GapExp	0	60	2	6	1	target	1	480	13.328	13.288	13.363
ProbeTrack8	4	ProbeTrack	1415	SCS215a	733745.538561	733745.544330	8	0.013328	60	10	60-180	60	164	GapExp	0	61	2	3	0	distractor	1	627	13.328	13.293	13.363
ProbeTrack8	4	ProbeTrack	1415	SCS215a	733745.538561	733745.544409	8	0.013328	60	10	60-180	60	155	GapExp	0	62	2	0	1	target	1	587	13.328	13.292	13.363
ProbeTrack8	4	ProbeTrack	1415	SCS215a	733745.538561	733745.544485	8	0.013328	60	10	60-180	60	175	GapExp	0	63	2	96	0	distractor	1	653	13.328	13.291	13.363
ProbeTrack8	4	ProbeTrack	1415	SCS215a	733745.538561	733745.544582	8	0.013328	60	10	60-180	60	175	GapExp	0	64	2	0	0	distractor	1	560	13.328	13.289	13.363
ProbeTrack8	4	ProbeTrack	1415	SCS215a	733745.538561	733745.544670	8	0.013328	60	10	60-180	60	61	GapExp	0	65	2	0	1	target	1	427	13.327	13.293	13.363
ProbeTrack8	4	ProbeTrack	1415	SCS215a	733745.538561	733745.544731	8	0.013328	60	10	60-180	60	64	GapExp	0	66	2	3	1	target	1	1959	13.328	13.293	13.363
ProbeTrack8	4	ProbeTrack	1415	SCS215a	733745.538561	733745.544807	8	0.013328	60	10	60-180	60	125	GapExp	0	67	2	6	0	distractor	1	560	13.328	13.293	13.364
ProbeTrack8	4	ProbeTrack	1415	SCS215a	733745.538561	733745.544881	8	0.013328	60	10	60-180	60	175	GapExp	0	68	2	3	0	distractor	1	547	13.328	13.293	13.363
ProbeTrack8	4	ProbeTrack	1415	SCS215a	733745.538561	733745.544959	8	0.013328	60	10	60-180	60	141	GapExp	0	69	2	3	0	target	0	454	13.328	13.293	13.363
ProbeTrack8	4	ProbeTrack	1415	SCS215a	733745.538561	733745.545035	8	0.013328	60	10	60-180	60	174	GapExp	0	70	2	6	1	target	1	640	13.328	13.293	13.363
ProbeTrack8	4	ProbeTrack	1415	SCS215a	733745.538561	733745.545115	8	0.013328	60	10	60-180	60	89	GapExp	0	71	2	3	1	target	1	467	13.328	13.293	13.363
ProbeTrack8	4	ProbeTrack	1415	SCS215a	733745.538561	733745.545192	8	0.013328	60	10	60-180	60	157	GapExp	0	72	2	6	1	target	1	1560	13.328	13.288	13.363
ProbeTrack8	4	ProbeTrack	1415	SCS215a	733745.538561	733745.545298	8	0.013328	60	10	60-180	60	177	GapExp	0	73	2	0	0	distractor	1	414	13.328	13.293	13.364
ProbeTrack8	4	ProbeTrack	1415	SCS215a	733745.538561	733745.545376	8	0.013328	60	10	60-180	60	154	GapExp	0	74	2	96	1	target	1	294	13.328	13.292	13.363
ProbeTrack8	4	ProbeTrack	1415	SCS215a	733745.538561	733745.545509	8	0.013328	60	10	60-180	60	100	GapExp	0	75	2	6	1	target	1	653	13.328	13.293	13.363
ProbeTrack8	4	ProbeTrack	1415	SCS215a	733745.538561	733745.545617	8	0.013328	60	10	60-180	60	117	GapExp	0	76	2	96	1	target	1	427	13.328	13.293	13.363
ProbeTrack8	4	ProbeTrack	1415	SCS215a	733745.538561	733745.545715	8	0.013328	60	10	60-180	60	97	GapExp	0	77	2	6	1	target	1	387	13.328	13.293	13.363
ProbeTrack8	4	ProbeTrack	1415	SCS215a	733745.538561	733745.545781	8	0.013328	60	10	60-180	60	165	GapExp	0	78	2	96	0	target	0	2426	13.328	13.292	13.363
ProbeTrack8	4	ProbeTrack	1415	SCS215a	733745.538561	733745.545900	8	0.013328	60	10	60-180	60	123	GapExp	0	79	2	3	0	distractor	1	560	13.328	13.291	13.363
ProbeTrack8	4	ProbeTrack	1415	SCS215a	733745.538561	733745.546009	8	0.013328	60	10	60-180	60	174	GapExp	0	80	2	96	0	distractor	1	867	13.328	13.292	13.363
ProbeTrack8	4	ProbeTrack	1415	SCS215a	733745.538561	733745.546133	8	0.013328	60	10	60-180	60	66	GapExp	0	81	2	6	1	target	1	587	13.328	13.292	13.363
ProbeTrack8	4	ProbeTrack	1415	SCS215a	733745.538561	733745.546211	8	0.013328	60	10	60-180	60	160	GapExp	0	82	2	6	0	distractor	1	680	13.328	13.293	13.363
ProbeTrack8	4	ProbeTrack	1415	SCS215a	733745.538561	733745.546312	8	0.013328	60	10	60-180	60	141	GapExp	0	83	2	96	0	distractor	1	587	13.328	13.293	13.363
ProbeTrack8	4	ProbeTrack	1415	SCS215a	733745.538561	733745.546405	8	0.013328	60	10	60-180	60	149	GapExp	0	84	2	3	1	target	1	693	13.328	13.293	13.363
ProbeTrack8	4	ProbeTrack	1415	SCS215a	733745.538561	733745.546483	8	0.013328	60	10	60-180	60	152	GapExp	0	85	2	6	0	target	0	640	13.328	13.293	13.366
ProbeTrack8	4	ProbeTrack	1415	SCS215a	733745.538561	733745.546560	8	0.013328	60	10	60-180	60	108	GapExp	0	86	2	96	0	distractor	1	693	13.328	13.293	13.363
ProbeTrack8	4	ProbeTrack	1415	SCS215a	733745.538561	733745.546644	8	0.013328	60	10	60-180	60	73	GapExp	0	87	2	3	1	distractor	0	1080	13.328	13.292	13.363
ProbeTrack8	4	ProbeTrack	1415	SCS215a	733745.538561	733745.546717	8	0.013328	60	10	60-180	60	122	GapExp	0	88	2	96	0	distractor	1	747	13.328	13.292	13.363
ProbeTrack8	4	ProbeTrack	1415	SCS215a	733745.538561	733745.546856	8	0.013328	60	10	60-180	60	106	GapExp	0	89	2	0	0	target	0	827	13.328	13.292	13.363
ProbeTrack8	4	ProbeTrack	1415	SCS215a	733745.538561	733745.546932	8	0.013328	60	10	60-180	60	176	GapExp	0	90	2	0	0	distractor	1	560	13.328	13.293	13.363
ProbeTrack8	4	ProbeTrack	1415	SCS215a	733745.538561	733745.547050	8	0.013328	60	10	60-180	60	94	GapExp	0	91	2	0	1	distractor	0	507	13.328	13.293	13.363
ProbeTrack8	4	ProbeTrack	1415	SCS215a	733745.538561	733745.547122	8	0.013328	60	10	60-180	60	160	GapExp	0	92	2	3	0	distractor	1	600	13.328	13.293	13.363
ProbeTrack8	4	ProbeTrack	1415	SCS215a	733745.538561	733745.547197	8	0.013328	60	10	60-180	60	119	GapExp	0	93	2	3	1	target	1	720	13.328	13.293	13.363
ProbeTrack8	4	ProbeTrack	1415	SCS215a	733745.538561	733745.547271	8	0.013328	60	10	60-180	60	163	GapExp	0	94	2	0	1	target	1	640	13.328	13.292	13.363
ProbeTrack8	4	ProbeTrack	1415	SCS215a	733745.538561	733745.547350	8	0.013328	60	10	60-180	60	91	GapExp	0	95	2	96	1	target	1	454	13.328	13.292	13.363
ProbeTrack8	4	ProbeTrack	1415	SCS215a	733745.538561	733745.547434	8	0.013328	60	10	60-180	60	160	GapExp	0	96	2	0	0	distractor	1	547	13.328	13.293	13.363
ProbeTrack8	4	ProbeTrack	1415	SCS215a	733745.538561	733745.547510	8	0.013328	60	10	60-180	60	69	GapExp	0	97	2	3	1	target	1	334	13.328	13.293	13.363
ProbeTrack8	4	ProbeTrack	1415	SCS215a	733745.538561	733745.547573	8	0.013328	60	10	60-180	60	92	GapExp	0	98	2	0	1	target	1	453	13.328	13.293	13.363
ProbeTrack8	4	ProbeTrack	1415	SCS215a	733745.538561	733745.547640	8	0.013328	60	10	60-180	60	115	GapExp	0	99	2	96	0	distractor	1	493	13.328	13.293	13.363
ProbeTrack8	4	ProbeTrack	1415	SCS215a	733745.538561	733745.547725	8	0.013328	60	10	60-180	60	131	GapExp	0	100	2	3	0	distractor	1	493	13.328	13.293	13.363
ProbeTrack8	4	ProbeTrack	1415	SCS215a	733745.538561	733745.547797	8	0.013328	60	10	60-180	60	120	GapExp	0	101	2	3	0	distractor	1	1000	13.328	13.291	13.363
ProbeTrack8	4	ProbeTrack	1415	SCS215a	733745.538561	733745.547871	8	0.013328	60	10	60-180	60	70	GapExp	0	102	2	0	1	distractor	0	1173	13.328	13.293	13.363
ProbeTrack8	4	ProbeTrack	1415	SCS215a	733745.538561	733745.547943	8	0.013328	60	10	60-180	60	179	GapExp	0	103	2	0	0	distractor	1	547	13.328	13.293	13.363
ProbeTrack8	4	ProbeTrack	1415	SCS215a	733745.538561	733745.548021	8	0.013328	60	10	60-180	60	79	GapExp	0	104	2	0	1	target	1	1266	13.328	13.289	13.366
ProbeTrack8	4	ProbeTrack	1415	SCS215a	733745.538561	733745.548096	8	0.013328	60	10	60-180	60	96	GapExp	0	105	2	96	0	distractor	1	520	13.328	13.293	13.363
ProbeTrack8	4	ProbeTrack	1415	SCS215a	733745.538561	733745.548182	8	0.013328	60	10	60-180	60	92	GapExp	0	106	2	6	0	distractor	1	653	13.328	13.293	13.363
ProbeTrack8	4	ProbeTrack	1415	SCS215a	733745.538561	733745.548256	8	0.013328	60	10	60-180	60	160	GapExp	0	107	2	0	0	distractor	1	800	13.328	13.289	13.363
ProbeTrack8	4	ProbeTrack	1415	SCS215a	733745.538561	733745.548335	8	0.013328	60	10	60-180	60	160	GapExp	0	108	2	96	1	distractor	0	813	13.328	13.293	13.363
ProbeTrack8	4	ProbeTrack	1415	SCS215a	733745.538561	733745.548451	8	0.013328	60	10	60-180	60	117	GapExp	0	109	2	0	0	target	0	3505	13.328	13.293	13.363
ProbeTrack8	4	ProbeTrack	1415	SCS215a	733745.538561	733745.548555	8	0.013328	60	10	60-180	60	159	GapExp	0	110	2	6	1	distractor	0	733	13.328	13.293	13.366
ProbeTrack8	4	ProbeTrack	1415	SCS215a	733745.538561	733745.548637	8	0.013328	60	10	60-180	60	170	GapExp	0	111	2	3	1	target	1	427	13.328	13.293	13.363
ProbeTrack8	4	ProbeTrack	1415	SCS215a	733745.538561	733745.548743	8	0.013328	60	10	60-180	60	137	GapExp	0	112	2	96	1	target	1	920	13.328	13.293	13.363
ProbeTrack8	4	ProbeTrack	1415	SCS215a	733745.538561	733745.548841	8	0.013328	60	10	60-180	60	118	GapExp	0	113	2	96	1	target	1	547	13.328	13.290	13.363
ProbeTrack8	4	ProbeTrack	1415	SCS215a	733745.538561	733745.548926	8	0.013328	60	10	60-180	60	134	GapExp	0	114	2	0	1	target	1	2373	13.328	13.292	13.363
ProbeTrack8	4	ProbeTrack	1415	SCS215a	733745.538561	733745.549065	8	0.013328	60	10	60-180	60	125	GapExp	0	115	2	96	1	target	1	707	13.328	13.292	13.363
ProbeTrack8	4	ProbeTrack	1415	SCS215a	733745.538561	733745.549158	8	0.013328	60	10	60-180	60	74	GapExp	0	116	2	3	1	target	1	1533	13.328	13.293	13.362
ProbeTrack8	4	ProbeTrack	1415	SCS215a	733745.538561	733745.549253	8	0.013328	60	10	60-180	60	145	GapExp	0	117	2	96	1	target	1	707	13.328	13.293	13.363
ProbeTrack8	4	ProbeTrack	1415	SCS215a	733745.538561	733745.549369	8	0.013328	60	10	60-180	60	161	GapExp	0	118	2	3	0	distractor	1	986	13.328	13.293	13.363
ProbeTrack8	4	ProbeTrack	1415	SCS215a	733745.538561	733745.549454	8	0.013328	60	10	60-180	60	144	GapExp	0	119	2	0	1	target	1	707	13.328	13.292	13.366
ProbeTrack8	4	ProbeTrack	1415	SCS215a	733745.538561	733745.549537	8	0.013328	60	10	60-180	60	172	GapExp	0	120	2	6	0	distractor	1	453	13.328	13.293	13.363
ProbeTrack8	4	ProbeTrack	1415	SCS215a	733745.538561	733745.549618	8	0.013328	60	10	60-180	60	72	GapExp	0	121	2	96	0	target	0	3812	13.328	13.292	13.363
ProbeTrack8	4	ProbeTrack	1415	SCS215a	733745.538561	733745.549734	8	0.013328	60	10	60-180	60	113	GapExp	0	122	2	6	0	distractor	1	587	13.328	13.293	13.363
ProbeTrack8	4	ProbeTrack	1415	SCS215a	733745.538561	733745.549806	8	0.013328	60	10	60-180	60	116	GapExp	0	123	2	96	0	distractor	1	453	13.328	13.293	13.363
ProbeTrack8	4	ProbeTrack	1415	SCS215a	733745.538561	733745.549903	8	0.013328	60	10	60-180	60	114	GapExp	0	124	2	96	1	target	1	533	13.328	13.293	13.363
ProbeTrack8	4	ProbeTrack	1415	SCS215a	733745.538561	733745.549992	8	0.013328	60	10	60-180	60	67	GapExp	0	125	2	96	1	distractor	0	2266	13.328	13.293	13.364
