exp	sub	code	rev	comp	runtime	trialtime	nstim	refreshdur	cuedur	gapdur	gapOnsetRange	durPostProbe	gapOnsetTime	blocktype	prac	trial	ntargets	soa	probeTarget	resp	acc	rt	meanFrameDur	minFrameDur	maxFrameDur
ProbeTrack8	9	ProbeTrack	1415	SCS215b	733793.444346	733793.444777	8	0.013326	60	0	60-180	60	178	NoGap	1	1	4	96	1	target	1	2066	13.328	13.288	13.364
ProbeTrack8	9	ProbeTrack	1415	SCS215b	733793.444346	733793.444939	8	0.013326	60	0	60-180	60	80	NoGap	1	2	4	0	0	distractor	1	1400	13.328	13.223	13.399
ProbeTrack8	9	ProbeTrack	1415	SCS215b	733793.444346	733793.445049	8	0.013326	60	0	60-180	60	139	NoGap	1	3	4	0	0	distractor	1	1253	13.328	13.289	13.396
ProbeTrack8	9	ProbeTrack	1415	SCS215b	733793.444346	733793.445155	8	0.013326	60	0	60-180	60	173	NoGap	1	4	4	3	1	target	1	920	13.328	13.293	13.367
ProbeTrack8	9	ProbeTrack	1415	SCS215b	733793.444346	733793.445267	8	0.013326	60	0	60-180	60	169	NoGap	1	5	4	96	0	distractor	1	800	13.328	13.265	13.394
ProbeTrack8	9	ProbeTrack	1415	SCS215b	733793.444346	733793.445368	8	0.013326	60	0	60-180	60	165	NoGap	1	6	4	3	1	target	1	640	13.328	13.292	13.363
ProbeTrack8	9	ProbeTrack	1415	SCS215b	733793.444346	733793.445450	8	0.013326	60	0	60-180	60	174	NoGap	1	7	4	6	0	distractor	1	613	13.328	13.293	13.363
ProbeTrack8	9	ProbeTrack	1415	SCS215b	733793.444346	733793.445532	8	0.013326	60	0	60-180	60	89	NoGap	1	8	4	96	1	target	1	454	13.328	13.134	13.520
ProbeTrack8	9	ProbeTrack	1415	SCS215b	733793.444346	733793.445611	8	0.013326	60	0	60-180	60	178	NoGap	1	9	4	3	0	distractor	1	560	13.328	13.293	13.363
ProbeTrack8	9	ProbeTrack	1415	SCS215b	733793.444346	733793.445687	8	0.013326	60	0	60-180	60	133	NoGap	1	10	4	0	1	target	1	587	13.328	13.094	13.561
ProbeTrack8	9	ProbeTrack	1415	SCS215b	733793.444346	733793.445762	8	0.013326	60	0	60-180	60	84	NoGap	1	11	4	6	0	distractor	1	600	13.328	13.293	13.363
ProbeTrack8	9	ProbeTrack	1415	SCS215b	733793.444346	733793.445828	8	0.013326	60	0	60-180	60	88	NoGap	1	12	4	0	0	distractor	1	294	13.328	13.293	13.363
ProbeTrack8	9	ProbeTrack	1415	SCS215b	733793.444346	733793.445889	8	0.013326	60	0	60-180	60	115	NoGap	1	13	4	3	0	distractor	1	587	13.328	13.293	13.364
ProbeTrack8	9	ProbeTrack	1415	SCS215b	733793.444346	733793.445962	8	0.013326	60	0	60-180	60	157	NoGap	1	14	4	96	1	target	1	573	13.328	13.292	13.363
ProbeTrack8	9	ProbeTrack	1415	SCS215b	733793.444346	733793.446050	8	0.013326	60	0	60-180	60	116	NoGap	1	15	4	96	1	target	1	387	13.328	13.089	13.566
ProbeTrack8	9	ProbeTrack	1415	SCS215b	733793.444346	733793.446132	8	0.013326	60	0	60-180	60	179	NoGap	1	16	4	3	0	distractor	1	387	13.328	13.293	13.364
ProbeTrack8	9	ProbeTrack	1415	SCS215b	733793.444346	733793.446211	8	0.013326	60	0	60-180	60	115	NoGap	1	17	4	6	0	target	0	480	13.328	13.292	13.364
ProbeTrack8	9	ProbeTrack	1415	SCS215b	733793.444346	733793.446276	8	0.013326	60	0	60-180	60	156	NoGap	1	18	4	96	1	target	1	454	13.328	13.290	13.367
ProbeTrack8	9	ProbeTrack	1415	SCS215b	733793.444346	733793.446371	8	0.013326	60	0	60-180	60	113	NoGap	1	19	4	0	1	target	1	547	13.328	13.293	13.366
ProbeTrack8	9	ProbeTrack	1415	SCS215b	733793.444346	733793.446440	8	0.013326	60	0	60-180	60	149	NoGap	1	20	4	3	1	target	1	573	13.328	13.189	13.434
ProbeTrack8	9	ProbeTrack	1415	SCS215b	733793.444346	733793.446519	8	0.013326	60	0	60-180	60	139	NoGap	1	21	4	3	0	distractor	1	680	13.328	13.293	13.364
ProbeTrack8	9	ProbeTrack	1415	SCS215b	733793.444346	733793.446596	8	0.013326	60	0	60-180	60	117	NoGap	1	22	4	6	1	target	1	467	13.328	13.182	13.474
ProbeTrack8	9	ProbeTrack	1415	SCS215b	733793.444346	733793.446667	8	0.013326	60	0	60-180	60	175	NoGap	1	23	4	0	1	target	1	374	13.328	13.233	13.423
ProbeTrack8	9	ProbeTrack	1415	SCS215b	733793.444346	733793.446744	8	0.013326	60	0	60-180	60	171	NoGap	1	24	4	3	1	target	1	360	13.328	13.282	13.375
ProbeTrack8	9	ProbeTrack	1415	SCS215b	733793.444346	733793.446821	8	0.013326	60	0	60-180	60	148	NoGap	1	25	4	96	0	distractor	1	387	13.328	13.289	13.367
ProbeTrack8	9	ProbeTrack	1415	SCS215b	733793.444346	733793.446910	8	0.013326	60	0	60-180	60	166	NoGap	1	26	4	96	0	target	0	494	13.328	13.290	13.366
ProbeTrack8	9	ProbeTrack	1415	SCS215b	733793.444346	733793.447002	8	0.013326	60	0	60-180	60	95	NoGap	1	27	4	96	0	distractor	1	573	13.456	12.890	27.127
ProbeTrack8	9	ProbeTrack	1415	SCS215b	733793.444346	733793.447084	8	0.013326	60	0	60-180	60	133	NoGap	1	28	4	0	1	target	1	440	13.328	13.293	13.363
ProbeTrack8	9	ProbeTrack	1415	SCS215b	733793.444346	733793.447158	8	0.013326	60	0	60-180	60	173	NoGap	1	29	4	0	0	target	0	528	13.328	13.029	13.593
ProbeTrack8	9	ProbeTrack	1415	SCS215b	733793.444346	733793.447240	8	0.013326	60	0	60-180	60	160	NoGap	1	30	4	0	1	distractor	0	467	13.328	13.292	13.367
ProbeTrack8	9	ProbeTrack	1415	SCS215b	733793.444346	733793.447316	8	0.013326	60	0	60-180	60	166	NoGap	1	31	4	0	1	target	1	520	13.328	13.120	13.503
ProbeTrack8	9	ProbeTrack	1415	SCS215b	733793.444346	733793.447395	8	0.013326	60	0	60-180	60	117	NoGap	1	32	4	96	1	target	1	360	13.328	13.293	13.364
ProbeTrack8	9	ProbeTrack	1415	SCS215b	733793.444346	733793.447482	8	0.013326	60	0	60-180	60	97	NoGap	1	33	4	6	0	32	-3	587	13.328	13.293	13.363
ProbeTrack8	9	ProbeTrack	1415	SCS215b	733793.444346	733793.447553	8	0.013326	60	0	60-180	60	101	NoGap	1	34	4	6	0	distractor	1	667	13.328	13.293	13.363
ProbeTrack8	9	ProbeTrack	1415	SCS215b	733793.444346	733793.447626	8	0.013326	60	0	60-180	60	104	NoGap	1	35	4	3	1	target	1	560	13.328	13.293	13.363
ProbeTrack8	9	ProbeTrack	1415	SCS215b	733793.444346	733793.447695	8	0.013326	60	0	60-180	60	83	NoGap	1	36	4	6	1	target	1	547	13.328	13.262	13.393
ProbeTrack8	9	ProbeTrack	1415	SCS215b	733793.444346	733793.447762	8	0.013326	60	0	60-180	60	125	NoGap	1	37	4	3	0	distractor	1	520	13.328	13.293	13.368
ProbeTrack8	9	ProbeTrack	1415	SCS215b	733793.444346	733793.447849	8	0.013326	60	0	60-180	60	84	NoGap	1	38	4	96	0	distractor	1	454	13.328	13.293	13.366
ProbeTrack8	9	ProbeTrack	1415	SCS215b	733793.444346	733793.447932	8	0.013326	60	0	60-180	60	104	NoGap	1	39	4	0	0	distractor	1	613	13.328	13.267	13.422
ProbeTrack8	9	ProbeTrack	1415	SCS215b	733793.444346	733793.448005	8	0.013326	60	0	60-180	60	84	NoGap	1	40	4	6	1	target	1	467	13.328	13.293	13.363
ProbeTrack8	9	ProbeTrack	1415	SCS215b	733793.444346	733793.448071	8	0.013326	60	0	60-180	60	177	NoGap	1	41	4	6	1	target	1	400	13.328	13.266	13.390
ProbeTrack8	9	ProbeTrack	1415	SCS215b	733793.444346	733793.448150	8	0.013326	60	0	60-180	60	163	NoGap	1	42	4	96	1	target	1	547	13.328	13.293	13.364
ProbeTrack8	9	ProbeTrack	1415	SCS215b	733793.444346	733793.448244	8	0.013326	60	0	60-180	60	69	NoGap	1	43	4	96	0	target	0	533	13.328	13.293	13.363
ProbeTrack8	9	ProbeTrack	1415	SCS215b	733793.444346	733793.448325	8	0.013326	60	0	60-180	60	160	NoGap	1	44	4	0	0	distractor	1	573	13.328	13.291	13.364
ProbeTrack8	9	ProbeTrack	1415	SCS215b	733793.444346	733793.448406	8	0.013326	60	0	60-180	60	68	NoGap	1	45	4	6	1	target	1	467	13.328	13.290	13.363
ProbeTrack8	9	ProbeTrack	1415	SCS215b	733793.444346	733793.448499	8	0.013326	60	0	60-180	60	159	NoGap	1	46	4	3	1	distractor	0	480	13.328	13.292	13.383
ProbeTrack8	9	ProbeTrack	1415	SCS215b	733793.444346	733793.448581	8	0.013326	60	0	60-180	60	110	NoGap	1	47	4	0	0	distractor	1	560	13.328	13.293	13.363
ProbeTrack8	9	ProbeTrack	1415	SCS215b	733793.444346	733793.448652	8	0.013326	60	0	60-180	60	170	NoGap	1	48	4	3	1	target	1	467	13.328	13.291	13.365
ProbeTrack8	9	ProbeTrack	1415	SCS215b	733793.444346	733793.448730	8	0.013326	60	0	60-180	60	107	NoGap	1	49	4	6	0	distractor	1	813	13.328	13.226	13.431
ProbeTrack8	9	ProbeTrack	1415	SCS215b	733793.444346	733793.448806	8	0.013326	60	0	60-180	60	97	NoGap	1	50	4	3	0	distractor	1	747	13.328	13.293	13.363
ProbeTrack8	9	ProbeTrack	1415	SCS215b	733793.452104	733793.452474	8	0.013328	60	10	60-180	60	72	GapPrac	1	1	2	3	0	distractor	1	867	13.328	13.293	13.363
ProbeTrack8	9	ProbeTrack	1415	SCS215b	733793.452104	733793.452575	8	0.013328	60	10	60-180	60	122	GapPrac	1	2	2	3	1	target	1	667	13.328	13.293	13.363
ProbeTrack8	9	ProbeTrack	1415	SCS215b	733793.452104	733793.452654	8	0.013328	60	10	60-180	60	107	GapPrac	1	3	2	6	1	distractor	0	347	13.328	13.293	13.363
ProbeTrack8	9	ProbeTrack	1415	SCS215b	733793.452104	733793.452738	8	0.013328	60	10	60-180	60	159	GapPrac	1	4	2	96	0	target	0	294	13.328	13.292	13.363
ProbeTrack8	9	ProbeTrack	1415	SCS215b	733793.452104	733793.452831	8	0.013328	60	10	60-180	60	165	GapPrac	1	5	2	96	0	distractor	1	760	13.328	13.293	13.363
ProbeTrack8	9	ProbeTrack	1415	SCS215b	733793.452104	733793.452930	8	0.013328	60	10	60-180	60	161	GapPrac	1	6	2	3	0	target	0	653	13.328	13.278	13.413
ProbeTrack8	9	ProbeTrack	1415	SCS215b	733793.452104	733793.453011	8	0.013328	60	10	60-180	60	93	GapPrac	1	7	2	96	1	target	1	520	13.328	13.288	13.368
ProbeTrack8	9	ProbeTrack	1415	SCS215b	733793.452104	733793.453097	8	0.013328	60	10	60-180	60	157	GapPrac	1	8	2	6	0	distractor	1	627	13.328	13.262	13.394
ProbeTrack8	9	ProbeTrack	1415	SCS215b	733793.452104	733793.453176	8	0.013328	60	10	60-180	60	170	GapPrac	1	9	2	0	1	target	1	467	13.328	13.285	13.363
ProbeTrack8	9	ProbeTrack	1415	SCS215b	733793.452104	733793.453256	8	0.013328	60	10	60-180	60	69	GapPrac	1	10	2	0	0	distractor	1	733	13.328	13.293	13.363
ProbeTrack8	9	ProbeTrack	1415	SCS215b	733793.452104	733793.453325	8	0.013328	60	10	60-180	60	137	GapPrac	1	11	2	6	0	distractor	1	547	13.328	13.293	13.363
ProbeTrack8	9	ProbeTrack	1415	SCS215b	733793.452104	733793.453401	8	0.013328	60	10	60-180	60	112	GapPrac	1	12	2	3	1	target	1	374	13.328	13.293	13.363
ProbeTrack8	9	ProbeTrack	1415	SCS215b	733793.452104	733793.453468	8	0.013328	60	10	60-180	60	152	GapPrac	1	13	2	96	1	target	1	467	13.328	13.293	13.363
ProbeTrack8	9	ProbeTrack	1415	SCS215b	733793.452104	733793.453556	8	0.013328	60	10	60-180	60	151	GapPrac	1	14	2	0	0	target	0	560	13.328	13.226	13.394
ProbeTrack8	9	ProbeTrack	1415	SCS215b	733793.452104	733793.453632	8	0.013328	60	10	60-180	60	87	GapPrac	1	15	2	3	0	distractor	1	547	13.328	13.293	13.363
ProbeTrack8	9	ProbeTrack	1415	SCS215b	733793.452104	733793.453700	8	0.013328	60	10	60-180	60	154	GapPrac	1	16	2	0	1	target	1	653	13.328	13.290	13.376
ProbeTrack8	9	ProbeTrack	1415	SCS215b	733793.452104	733793.453779	8	0.013328	60	10	60-180	60	116	GapPrac	1	17	2	96	0	distractor	1	547	13.328	13.292	13.363
ProbeTrack8	9	ProbeTrack	1415	SCS215b	733793.452104	733793.453870	8	0.013328	60	10	60-180	60	143	GapPrac	1	18	2	3	1	target	1	440	13.328	13.253	13.370
ProbeTrack8	9	ProbeTrack	1415	SCS215b	733793.452104	733793.453942	8	0.013328	60	10	60-180	60	134	GapPrac	1	19	2	6	1	target	1	387	13.432	12.902	26.818
ProbeTrack8	9	ProbeTrack	1415	SCS215b	733793.452104	733793.454013	8	0.013328	60	10	60-180	60	135	GapPrac	1	20	2	6	1	target	1	334	13.328	13.293	13.363
ProbeTrack8	9	ProbeTrack	1415	SCS215b	733793.454600	733793.454755	8	0.013328	60	10	60-180	60	111	GapExp	1	1	2	96	0	distractor	1	440	13.328	13.058	13.598
ProbeTrack8	9	ProbeTrack	1415	SCS215b	733793.454600	733793.454845	8	0.013328	60	10	60-180	60	122	GapExp	1	2	2	0	0	target	0	440	13.328	13.294	13.364
ProbeTrack8	9	ProbeTrack	1415	SCS215b	733793.454600	733793.454930	8	0.013328	60	10	60-180	60	110	GapExp	1	3	2	6	0	distractor	1	494	13.328	13.125	13.529
ProbeTrack8	9	ProbeTrack	1415	SCS215b	733793.454600	733793.455001	8	0.013328	60	10	60-180	60	120	GapExp	1	4	2	0	1	target	1	387	13.328	13.179	13.476
ProbeTrack8	9	ProbeTrack	1415	SCS215b	733793.454600	733793.455072	8	0.013328	60	10	60-180	60	95	GapExp	1	5	2	3	1	target	1	400	13.328	13.265	13.390
ProbeTrack8	9	ProbeTrack	1415	SCS215b	733793.454600	733793.455139	8	0.013328	60	10	60-180	60	128	GapExp	0	6	2	0	1	target	1	374	13.328	13.293	13.363
ProbeTrack8	9	ProbeTrack	1415	SCS215b	733793.454600	733793.455212	8	0.013328	60	10	60-180	60	120	GapExp	0	7	2	0	1	target	1	387	13.328	13.293	13.363
ProbeTrack8	9	ProbeTrack	1415	SCS215b	733793.454600	733793.455280	8	0.013328	60	10	60-180	60	68	GapExp	0	8	2	96	1	target	1	400	13.328	13.265	13.363
ProbeTrack8	9	ProbeTrack	1415	SCS215b	733793.454600	733793.455354	8	0.013328	60	10	60-180	60	121	GapExp	0	9	2	3	0	target	0	480	13.328	13.292	13.363
ProbeTrack8	9	ProbeTrack	1415	SCS215b	733793.454600	733793.455423	8	0.013328	60	10	60-180	60	100	GapExp	0	10	2	6	0	distractor	1	494	13.328	13.254	13.402
ProbeTrack8	9	ProbeTrack	1415	SCS215b	733793.454600	733793.455490	8	0.013328	60	10	60-180	60	61	GapExp	0	11	2	3	0	target	0	454	13.328	13.293	13.363
ProbeTrack8	9	ProbeTrack	1415	SCS215b	733793.454600	733793.455549	8	0.013328	60	10	60-180	60	107	GapExp	0	12	2	3	0	distractor	1	561	13.328	13.293	13.364
ProbeTrack8	9	ProbeTrack	1415	SCS215b	733793.454600	733793.455623	8	0.013328	60	10	60-180	60	69	GapExp	0	13	2	96	0	distractor	1	494	13.328	13.220	13.403
ProbeTrack8	9	ProbeTrack	1415	SCS215b	733793.454600	733793.455699	8	0.013328	60	10	60-180	60	73	GapExp	0	14	2	3	0	target	0	667	13.328	13.288	13.363
ProbeTrack8	9	ProbeTrack	1415	SCS215b	733793.454600	733793.455762	8	0.013328	60	10	60-180	60	124	GapExp	0	15	2	0	0	distractor	1	547	13.328	13.289	13.363
ProbeTrack8	9	ProbeTrack	1415	SCS215b	733793.454600	733793.455831	8	0.013328	60	10	60-180	60	178	GapExp	0	16	2	0	0	target	0	574	13.328	13.293	13.363
ProbeTrack8	9	ProbeTrack	1415	SCS215b	733793.454600	733793.455911	8	0.013328	60	10	60-180	60	150	GapExp	0	17	2	6	0	target	0	520	13.328	13.293	13.364
ProbeTrack8	9	ProbeTrack	1415	SCS215b	733793.454600	733793.455990	8	0.013328	60	10	60-180	60	175	GapExp	0	18	2	96	1	target	1	693	13.328	13.293	13.364
ProbeTrack8	9	ProbeTrack	1415	SCS215b	733793.454600	733793.456085	8	0.013328	60	10	60-180	60	138	GapExp	0	19	2	96	1	target	1	414	13.328	13.293	13.364
ProbeTrack8	9	ProbeTrack	1415	SCS215b	733793.454600	733793.456171	8	0.013328	60	10	60-180	60	87	GapExp	0	20	2	96	0	target	0	507	13.371	13.289	26.625
ProbeTrack8	9	ProbeTrack	1415	SCS215b	733793.454600	733793.456250	8	0.013328	60	10	60-180	60	151	GapExp	0	21	2	6	1	target	1	507	13.328	13.293	13.363
ProbeTrack8	9	ProbeTrack	1415	SCS215b	733793.454600	733793.456323	8	0.013328	60	10	60-180	60	85	GapExp	0	22	2	6	1	target	1	467	13.328	13.293	13.363
ProbeTrack8	9	ProbeTrack	1415	SCS215b	733793.454600	733793.456390	8	0.013328	60	10	60-180	60	61	GapExp	0	23	2	3	0	distractor	1	573	13.328	13.293	13.363
ProbeTrack8	9	ProbeTrack	1415	SCS215b	733793.454600	733793.456451	8	0.013328	60	10	60-180	60	144	GapExp	0	24	2	0	0	target	0	454	13.328	13.285	13.370
ProbeTrack8	9	ProbeTrack	1415	SCS215b	733793.454600	733793.456528	8	0.013328	60	10	60-180	60	140	GapExp	0	25	2	6	0	distractor	1	547	13.328	13.293	13.363
ProbeTrack8	9	ProbeTrack	1415	SCS215b	733793.454600	733793.456604	8	0.013328	60	10	60-180	60	86	GapExp	0	26	2	0	1	target	1	773	13.328	13.293	13.363
ProbeTrack8	9	ProbeTrack	1415	SCS215b	733793.454600	733793.456671	8	0.013328	60	10	60-180	60	171	GapExp	0	27	2	0	1	target	1	667	13.328	13.293	13.396
ProbeTrack8	9	ProbeTrack	1415	SCS215b	733793.454600	733793.456750	8	0.013328	60	10	60-180	60	97	GapExp	0	28	2	96	0	distractor	1	613	13.328	13.293	13.363
ProbeTrack8	9	ProbeTrack	1415	SCS215b	733793.454600	733793.456832	8	0.013328	60	10	60-180	60	150	GapExp	0	29	2	96	1	target	1	480	13.328	13.250	13.440
ProbeTrack8	9	ProbeTrack	1415	SCS215b	733793.454600	733793.456951	8	0.013328	60	10	60-180	60	163	GapExp	0	30	2	3	1	target	1	467	13.328	13.292	13.363
ProbeTrack8	9	ProbeTrack	1415	SCS215b	733793.454600	733793.457029	8	0.013328	60	10	60-180	60	63	GapExp	0	31	2	3	1	target	1	547	13.328	13.293	13.363
ProbeTrack8	9	ProbeTrack	1415	SCS215b	733793.454600	733793.457090	8	0.013328	60	10	60-180	60	87	GapExp	0	32	2	0	1	target	1	427	13.328	13.274	13.380
ProbeTrack8	9	ProbeTrack	1415	SCS215b	733793.454600	733793.457154	8	0.013328	60	10	60-180	60	105	GapExp	0	33	2	0	0	distractor	1	494	13.328	13.293	13.363
ProbeTrack8	9	ProbeTrack	1415	SCS215b	733793.454600	733793.457221	8	0.013328	60	10	60-180	60	147	GapExp	0	34	2	3	1	target	1	414	13.328	13.290	13.366
ProbeTrack8	9	ProbeTrack	1415	SCS215b	733793.454600	733793.457297	8	0.013328	60	10	60-180	60	79	GapExp	0	35	2	3	1	target	1	440	13.328	13.293	13.367
ProbeTrack8	9	ProbeTrack	1415	SCS215b	733793.454600	733793.457360	8	0.013328	60	10	60-180	60	68	GapExp	0	36	2	3	1	target	1	427	13.328	13.262	13.363
ProbeTrack8	9	ProbeTrack	1415	SCS215b	733793.454600	733793.457423	8	0.013328	60	10	60-180	60	150	GapExp	0	37	2	0	1	target	1	467	13.328	13.290	13.364
ProbeTrack8	9	ProbeTrack	1415	SCS215b	733793.454600	733793.457497	8	0.013328	60	10	60-180	60	62	GapExp	0	38	2	3	0	distractor	1	454	13.328	13.293	13.386
ProbeTrack8	9	ProbeTrack	1415	SCS215b	733793.454600	733793.457557	8	0.013328	60	10	60-180	60	164	GapExp	0	39	2	96	0	distractor	1	773	13.328	13.253	13.401
ProbeTrack8	9	ProbeTrack	1415	SCS215b	733793.454600	733793.457651	8	0.013328	60	10	60-180	60	110	GapExp	0	40	2	6	0	distractor	1	480	13.328	13.293	13.363
ProbeTrack8	9	ProbeTrack	1415	SCS215b	733793.454600	733793.457719	8	0.013328	60	10	60-180	60	76	GapExp	0	41	2	6	1	target	1	454	13.328	13.214	13.443
ProbeTrack8	9	ProbeTrack	1415	SCS215b	733793.454600	733793.457782	8	0.013328	60	10	60-180	60	148	GapExp	0	42	2	6	1	target	1	533	13.328	13.293	13.363
ProbeTrack8	9	ProbeTrack	1415	SCS215b	733793.454600	733793.457857	8	0.013328	60	10	60-180	60	178	GapExp	0	43	2	96	0	distractor	1	573	13.328	13.150	13.506
ProbeTrack8	9	ProbeTrack	1415	SCS215b	733793.454600	733793.457952	8	0.013328	60	10	60-180	60	174	GapExp	0	44	2	3	0	target	0	507	13.328	13.293	13.364
ProbeTrack8	9	ProbeTrack	1415	SCS215b	733793.454600	733793.458031	8	0.013328	60	10	60-180	60	163	GapExp	0	45	2	0	1	target	1	414	13.328	13.280	13.363
ProbeTrack8	9	ProbeTrack	1415	SCS215b	733793.454600	733793.458106	8	0.013328	60	10	60-180	60	175	GapExp	0	46	2	3	1	target	1	374	13.328	13.276	13.363
ProbeTrack8	9	ProbeTrack	1415	SCS215b	733793.454600	733793.458184	8	0.013328	60	10	60-180	60	130	GapExp	0	47	2	6	0	distractor	1	627	13.328	13.287	13.372
ProbeTrack8	9	ProbeTrack	1415	SCS215b	733793.454600	733793.458258	8	0.013328	60	10	60-180	60	72	GapExp	0	48	2	96	0	distractor	1	494	13.328	13.270	13.370
ProbeTrack8	9	ProbeTrack	1415	SCS215b	733793.454600	733793.458335	8	0.013328	60	10	60-180	60	132	GapExp	0	49	2	3	0	distractor	1	547	13.328	13.282	13.364
ProbeTrack8	9	ProbeTrack	1415	SCS215b	733793.454600	733793.458408	8	0.013328	60	10	60-180	60	102	GapExp	0	50	2	96	1	distractor	0	494	13.328	13.290	13.363
ProbeTrack8	9	ProbeTrack	1415	SCS215b	733793.454600	733793.458489	8	0.013328	60	10	60-180	60	176	GapExp	0	51	2	6	1	target	1	413	13.328	13.289	13.367
ProbeTrack8	9	ProbeTrack	1415	SCS215b	733793.454600	733793.458570	8	0.013328	60	10	60-180	60	174	GapExp	0	52	2	3	0	distractor	1	533	13.328	13.200	13.421
ProbeTrack8	9	ProbeTrack	1415	SCS215b	733793.454600	733793.458651	8	0.013328	60	10	60-180	60	168	GapExp	0	53	2	6	1	distractor	0	693	13.328	13.293	13.363
ProbeTrack8	9	ProbeTrack	1415	SCS215b	733793.454600	733793.458733	8	0.013328	60	10	60-180	60	62	GapExp	0	54	2	6	0	distractor	1	587	13.328	13.292	13.363
ProbeTrack8	9	ProbeTrack	1415	SCS215b	733793.454600	733793.458794	8	0.013328	60	10	60-180	60	133	GapExp	0	55	2	6	1	distractor	0	827	13.328	13.293	13.364
ProbeTrack8	9	ProbeTrack	1415	SCS215b	733793.454600	733793.458912	8	0.013328	60	10	60-180	60	103	GapExp	0	56	2	0	1	target	1	480	13.328	13.288	13.366
ProbeTrack8	9	ProbeTrack	1415	SCS215b	733793.454600	733793.458977	8	0.013328	60	10	60-180	60	106	GapExp	0	57	2	0	0	distractor	1	573	13.328	13.293	13.363
ProbeTrack8	9	ProbeTrack	1415	SCS215b	733793.454600	733793.459051	8	0.013328	60	10	60-180	60	107	GapExp	0	58	2	0	1	target	1	440	13.386	12.788	27.163
ProbeTrack8	9	ProbeTrack	1415	SCS215b	733793.454600	733793.459117	8	0.013328	60	10	60-180	60	137	GapExp	0	59	2	0	0	distractor	1	720	13.328	13.244	13.446
ProbeTrack8	9	ProbeTrack	1415	SCS215b	733793.454600	733793.459192	8	0.013328	60	10	60-180	60	79	GapExp	0	60	2	96	0	distractor	1	533	13.328	13.293	13.363
ProbeTrack8	9	ProbeTrack	1415	SCS215b	733793.454600	733793.459270	8	0.013328	60	10	60-180	60	61	GapExp	0	61	2	6	0	distractor	1	534	13.328	13.274	13.372
ProbeTrack8	9	ProbeTrack	1415	SCS215b	733793.454600	733793.459333	8	0.013328	60	10	60-180	60	146	GapExp	0	62	2	3	1	target	1	573	13.328	13.293	13.363
ProbeTrack8	9	ProbeTrack	1415	SCS215b	733793.454600	733793.459420	8	0.013328	60	10	60-180	60	167	GapExp	0	63	2	96	1	distractor	0	400	13.328	13.293	13.363
ProbeTrack8	9	ProbeTrack	1415	SCS215b	733793.454600	733793.459510	8	0.013328	60	10	60-180	60	147	GapExp	0	64	2	0	0	distractor	1	573	13.328	13.169	13.454
ProbeTrack8	9	ProbeTrack	1415	SCS215b	733793.454600	733793.459585	8	0.013328	60	10	60-180	60	112	GapExp	0	65	2	96	0	target	0	374	13.328	13.290	13.363
ProbeTrack8	9	ProbeTrack	1415	SCS215b	733793.454600	733793.459668	8	0.013328	60	10	60-180	60	63	GapExp	0	66	2	0	1	target	1	973	13.328	13.287	13.373
ProbeTrack8	9	ProbeTrack	1415	SCS215b	733793.454600	733793.459733	8	0.013328	60	10	60-180	60	176	GapExp	0	67	2	3	1	target	1	493	13.328	13.292	13.396
ProbeTrack8	9	ProbeTrack	1415	SCS215b	733793.454600	733793.459824	8	0.013328	60	10	60-180	60	105	GapExp	0	68	2	6	0	distractor	1	574	13.328	13.293	13.383
ProbeTrack8	9	ProbeTrack	1415	SCS215b	733793.454600	733793.459893	8	0.013328	60	10	60-180	60	82	GapExp	0	69	2	96	1	target	1	627	13.328	13.280	13.363
ProbeTrack8	9	ProbeTrack	1415	SCS215b	733793.454600	733793.459979	8	0.013328	60	10	60-180	60	116	GapExp	0	70	2	3	1	target	1	573	13.328	13.216	13.440
ProbeTrack8	9	ProbeTrack	1415	SCS215b	733793.454600	733793.460048	8	0.013328	60	10	60-180	60	146	GapExp	0	71	2	0	1	target	1	360	13.328	13.287	13.402
ProbeTrack8	9	ProbeTrack	1415	SCS215b	733793.454600	733793.460119	8	0.013328	60	10	60-180	60	106	GapExp	0	72	2	0	0	distractor	1	507	13.328	13.293	13.363
ProbeTrack8	9	ProbeTrack	1415	SCS215b	733793.454600	733793.460186	8	0.013328	60	10	60-180	60	166	GapExp	0	73	2	3	0	distractor	1	600	13.328	13.292	13.392
ProbeTrack8	9	ProbeTrack	1415	SCS215b	733793.454600	733793.460264	8	0.013328	60	10	60-180	60	78	GapExp	0	74	2	0	0	target	0	520	13.328	13.293	13.363
ProbeTrack8	9	ProbeTrack	1415	SCS215b	733793.454600	733793.460331	8	0.013328	60	10	60-180	60	175	GapExp	0	75	2	3	0	distractor	1	560	13.328	13.293	13.366
ProbeTrack8	9	ProbeTrack	1415	SCS215b	733793.454600	733793.460411	8	0.013328	60	10	60-180	60	92	GapExp	0	76	2	96	1	target	1	627	13.328	13.245	13.445
ProbeTrack8	9	ProbeTrack	1415	SCS215b	733793.454600	733793.460496	8	0.013328	60	10	60-180	60	93	GapExp	0	77	2	6	1	target	1	360	13.328	13.293	13.363
ProbeTrack8	9	ProbeTrack	1415	SCS215b	733793.454600	733793.460562	8	0.013328	60	10	60-180	60	101	GapExp	0	78	2	3	1	target	1	440	13.328	13.293	13.363
ProbeTrack8	9	ProbeTrack	1415	SCS215b	733793.454600	733793.460632	8	0.013328	60	10	60-180	60	113	GapExp	0	79	2	3	1	target	1	387	13.328	13.293	13.363
ProbeTrack8	9	ProbeTrack	1415	SCS215b	733793.454600	733793.460699	8	0.013328	60	10	60-180	60	69	GapExp	0	80	2	96	1	target	1	387	13.328	13.293	13.363
ProbeTrack8	9	ProbeTrack	1415	SCS215b	733793.454600	733793.460775	8	0.013328	60	10	60-180	60	116	GapExp	0	81	2	6	1	target	1	387	13.328	13.291	13.398
ProbeTrack8	9	ProbeTrack	1415	SCS215b	733793.454600	733793.460844	8	0.013328	60	10	60-180	60	150	GapExp	0	82	2	96	0	distractor	1	707	13.328	13.293	13.363
ProbeTrack8	9	ProbeTrack	1415	SCS215b	733793.454600	733793.460935	8	0.013328	60	10	60-180	60	105	GapExp	0	83	2	96	0	distractor	1	667	13.328	13.255	13.368
ProbeTrack8	9	ProbeTrack	1415	SCS215b	733793.454600	733793.461024	8	0.013328	60	10	60-180	60	177	GapExp	0	84	2	96	0	distractor	1	547	13.328	13.111	13.544
ProbeTrack8	9	ProbeTrack	1415	SCS215b	733793.454600	733793.461118	8	0.013328	60	10	60-180	60	177	GapExp	0	85	2	96	0	distractor	1	613	13.328	13.293	13.396
ProbeTrack8	9	ProbeTrack	1415	SCS215b	733793.454600	733793.461212	8	0.013328	60	10	60-180	60	62	GapExp	0	86	2	96	0	distractor	1	613	13.328	13.286	13.363
ProbeTrack8	9	ProbeTrack	1415	SCS215b	733793.454600	733793.461286	8	0.013328	60	10	60-180	60	175	GapExp	0	87	2	3	1	target	1	573	13.328	13.236	13.420
ProbeTrack8	9	ProbeTrack	1415	SCS215b	733793.454600	733793.461365	8	0.013328	60	10	60-180	60	128	GapExp	0	88	2	6	0	distractor	1	534	13.328	13.293	13.363
ProbeTrack8	9	ProbeTrack	1415	SCS215b	733793.454600	733793.461439	8	0.013328	60	10	60-180	60	104	GapExp	0	89	2	96	1	target	1	494	13.328	13.270	13.420
ProbeTrack8	9	ProbeTrack	1415	SCS215b	733793.454600	733793.461522	8	0.013328	60	10	60-180	60	65	GapExp	0	90	2	6	0	distractor	1	560	13.328	13.293	13.373
ProbeTrack8	9	ProbeTrack	1415	SCS215b	733793.454600	733793.461589	8	0.013328	60	10	60-180	60	81	GapExp	0	91	2	96	0	distractor	1	560	13.328	13.292	13.365
ProbeTrack8	9	ProbeTrack	1415	SCS215b	733793.454600	733793.461668	8	0.013328	60	10	60-180	60	160	GapExp	0	92	2	6	0	distractor	1	467	13.328	13.123	13.499
ProbeTrack8	9	ProbeTrack	1415	SCS215b	733793.454600	733793.461743	8	0.013328	60	10	60-180	60	179	GapExp	0	93	2	96	1	target	1	587	13.328	12.808	13.814
ProbeTrack8	9	ProbeTrack	1415	SCS215b	733793.454600	733793.461838	8	0.013328	60	10	60-180	60	71	GapExp	0	94	2	6	0	distractor	1	653	13.328	13.216	13.458
ProbeTrack8	9	ProbeTrack	1415	SCS215b	733793.454600	733793.461902	8	0.013328	60	10	60-180	60	148	GapExp	0	95	2	3	1	target	1	520	13.328	13.292	13.363
ProbeTrack8	9	ProbeTrack	1415	SCS215b	733793.454600	733793.461975	8	0.013328	60	10	60-180	60	73	GapExp	0	96	2	96	1	target	1	414	13.328	13.244	13.412
ProbeTrack8	9	ProbeTrack	1415	SCS215b	733793.454600	733793.462052	8	0.013328	60	10	60-180	60	164	GapExp	0	97	2	6	0	distractor	1	467	13.328	12.909	13.747
ProbeTrack8	9	ProbeTrack	1415	SCS215b	733793.454600	733793.462131	8	0.013328	60	10	60-180	60	159	GapExp	0	98	2	6	1	distractor	0	494	13.328	13.200	13.455
ProbeTrack8	9	ProbeTrack	1415	SCS215b	733793.454600	733793.462207	8	0.013328	60	10	60-180	60	150	GapExp	0	99	2	6	1	target	1	454	13.328	13.204	13.487
ProbeTrack8	9	ProbeTrack	1415	SCS215b	733793.454600	733793.462284	8	0.013328	60	10	60-180	60	177	GapExp	0	100	2	0	0	distractor	1	720	13.328	13.293	13.363
ProbeTrack8	9	ProbeTrack	1415	SCS215b	733793.454600	733793.462369	8	0.013328	60	10	60-180	60	95	GapExp	0	101	2	3	0	distractor	1	600	13.328	13.293	13.363
ProbeTrack8	9	ProbeTrack	1415	SCS215b	733793.454600	733793.462440	8	0.013328	60	10	60-180	60	170	GapExp	0	102	2	0	0	target	0	507	13.328	13.265	13.363
ProbeTrack8	9	ProbeTrack	1415	SCS215b	733793.454600	733793.462518	8	0.013328	60	10	60-180	60	160	GapExp	0	103	2	3	0	distractor	1	627	13.328	13.143	13.514
ProbeTrack8	9	ProbeTrack	1415	SCS215b	733793.454600	733793.462598	8	0.013328	60	10	60-180	60	82	GapExp	0	104	2	0	1	target	1	454	13.328	13.249	13.374
ProbeTrack8	9	ProbeTrack	1415	SCS215b	733793.454600	733793.462663	8	0.013328	60	10	60-180	60	86	GapExp	0	105	2	96	1	target	1	440	13.328	13.228	13.395
ProbeTrack8	9	ProbeTrack	1415	SCS215b	733793.454600	733793.462741	8	0.013328	60	10	60-180	60	159	GapExp	0	106	2	0	1	target	1	387	13.328	13.227	13.396
ProbeTrack8	9	ProbeTrack	1415	SCS215b	733793.454600	733793.462815	8	0.013328	60	10	60-180	60	77	GapExp	0	107	2	96	0	distractor	1	667	13.328	13.269	13.387
ProbeTrack8	9	ProbeTrack	1415	SCS215b	733793.454600	733793.462895	8	0.013328	60	10	60-180	60	109	GapExp	0	108	2	3	0	distractor	1	547	13.328	13.293	13.363
ProbeTrack8	9	ProbeTrack	1415	SCS215b	733793.454600	733793.462967	8	0.013328	60	10	60-180	60	82	GapExp	0	109	2	96	1	distractor	0	454	13.328	13.293	13.390
ProbeTrack8	9	ProbeTrack	1415	SCS215b	733793.454600	733793.463044	8	0.013328	60	10	60-180	60	150	GapExp	0	110	2	6	1	target	1	494	13.328	13.253	13.401
ProbeTrack8	9	ProbeTrack	1415	SCS215b	733793.454600	733793.463123	8	0.013328	60	10	60-180	60	141	GapExp	0	111	2	6	1	distractor	0	534	13.328	13.165	13.492
ProbeTrack8	9	ProbeTrack	1415	SCS215b	733793.454600	733793.463198	8	0.013328	60	10	60-180	60	63	GapExp	0	112	2	3	1	target	1	480	13.328	13.293	13.363
ProbeTrack8	9	ProbeTrack	1415	SCS215b	733793.454600	733793.463263	8	0.013328	60	10	60-180	60	71	GapExp	0	113	2	0	1	target	1	494	13.328	13.293	13.363
ProbeTrack8	9	ProbeTrack	1415	SCS215b	733793.454600	733793.463326	8	0.013328	60	10	60-180	60	163	GapExp	0	114	2	3	1	target	1	400	13.328	13.245	13.446
ProbeTrack8	9	ProbeTrack	1415	SCS215b	733793.454600	733793.463401	8	0.013328	60	10	60-180	60	89	GapExp	0	115	2	6	1	target	1	374	13.328	13.146	13.482
ProbeTrack8	9	ProbeTrack	1415	SCS215b	733793.454600	733793.463465	8	0.013328	60	10	60-180	60	179	GapExp	0	116	2	0	0	distractor	1	573	13.328	13.224	13.465
ProbeTrack8	9	ProbeTrack	1415	SCS215b	733793.454600	733793.463544	8	0.013328	60	10	60-180	60	112	GapExp	0	117	2	6	1	target	1	374	13.328	13.210	13.443
ProbeTrack8	9	ProbeTrack	1415	SCS215b	733793.454600	733793.463611	8	0.013328	60	10	60-180	60	73	GapExp	0	118	2	0	1	target	1	454	13.328	13.250	13.407
ProbeTrack8	9	ProbeTrack	1415	SCS215b	733793.454600	733793.463671	8	0.013328	60	10	60-180	60	62	GapExp	0	119	2	0	0	distractor	1	587	13.328	13.293	13.363
ProbeTrack8	9	ProbeTrack	1415	SCS215b	733793.454600	733793.463734	8	0.013328	60	10	60-180	60	89	GapExp	0	120	2	6	0	distractor	1	587	13.328	13.292	13.363
ProbeTrack8	9	ProbeTrack	1415	SCS215b	733793.454600	733793.463802	8	0.013328	60	10	60-180	60	117	GapExp	0	121	2	3	0	distractor	1	680	13.328	13.262	13.394
ProbeTrack8	9	ProbeTrack	1415	SCS215b	733793.454600	733793.463873	8	0.013328	60	10	60-180	60	62	GapExp	0	122	2	6	0	distractor	1	480	13.328	13.293	13.363
ProbeTrack8	9	ProbeTrack	1415	SCS215b	733793.454600	733793.463934	8	0.013328	60	10	60-180	60	143	GapExp	0	123	2	96	1	target	1	440	13.328	13.293	13.364
ProbeTrack8	9	ProbeTrack	1415	SCS215b	733793.454600	733793.464022	8	0.013328	60	10	60-180	60	61	GapExp	0	124	2	0	0	distractor	1	534	13.328	13.293	13.363
ProbeTrack8	9	ProbeTrack	1415	SCS215b	733793.454600	733793.464085	8	0.013328	60	10	60-180	60	165	GapExp	0	125	2	0	0	distractor	1	587	13.328	13.262	13.364
ProbeTrack8	9	ProbeTrack	1415	SCS215b	733793.464966	733793.465055	8	0.013328	60	10	60-180	60	116	GapPrac	1	1	4	6	1	target	1	453	13.328	13.293	13.363
ProbeTrack8	9	ProbeTrack	1415	SCS215b	733793.464966	733793.465134	8	0.013328	60	10	60-180	60	131	GapPrac	1	2	4	96	0	distractor	1	560	13.365	13.293	26.692
ProbeTrack8	9	ProbeTrack	1415	SCS215b	733793.464966	733793.465244	8	0.013328	60	10	60-180	60	80	GapPrac	1	3	4	6	0	distractor	1	613	13.328	13.190	13.432
ProbeTrack8	9	ProbeTrack	1415	SCS215b	733793.464966	733793.465311	8	0.013328	60	10	60-180	60	107	GapPrac	1	4	4	0	1	target	1	400	13.328	13.286	13.363
ProbeTrack8	9	ProbeTrack	1415	SCS215b	733793.464966	733793.465379	8	0.013328	60	10	60-180	60	71	GapPrac	1	5	4	0	1	distractor	0	587	13.328	13.292	13.363
ProbeTrack8	9	ProbeTrack	1415	SCS215b	733793.464966	733793.465446	8	0.013328	60	10	60-180	60	172	GapPrac	1	6	4	0	0	target	0	374	13.328	13.292	13.363
ProbeTrack8	9	ProbeTrack	1415	SCS215b	733793.464966	733793.465525	8	0.013328	60	10	60-180	60	138	GapPrac	1	7	4	6	0	distractor	1	680	13.328	13.293	13.363
ProbeTrack8	9	ProbeTrack	1415	SCS215b	733793.464966	733793.465601	8	0.013328	60	10	60-180	60	83	GapPrac	1	8	4	96	1	target	1	374	13.328	13.278	13.364
ProbeTrack8	9	ProbeTrack	1415	SCS215b	733793.464966	733793.465678	8	0.013328	60	10	60-180	60	72	GapPrac	1	9	4	3	1	target	1	480	13.328	13.293	13.363
ProbeTrack8	9	ProbeTrack	1415	SCS215b	733793.464966	733793.465739	8	0.013328	60	10	60-180	60	177	GapPrac	1	10	4	3	0	distractor	1	587	13.328	13.293	13.381
ProbeTrack8	9	ProbeTrack	1415	SCS215b	733793.464966	733793.465818	8	0.013328	60	10	60-180	60	172	GapPrac	1	11	4	0	1	target	1	440	13.328	13.289	13.367
ProbeTrack8	9	ProbeTrack	1415	SCS215b	733793.464966	733793.465895	8	0.013328	60	10	60-180	60	81	GapPrac	1	12	4	6	1	target	1	387	13.328	13.231	13.425
ProbeTrack8	9	ProbeTrack	1415	SCS215b	733793.464966	733793.465959	8	0.013328	60	10	60-180	60	131	GapPrac	1	13	4	3	0	distractor	1	454	13.328	13.293	13.363
ProbeTrack8	9	ProbeTrack	1415	SCS215b	733793.464966	733793.466031	8	0.013328	60	10	60-180	60	175	GapPrac	1	14	4	0	0	distractor	1	707	13.328	13.289	13.363
ProbeTrack8	9	ProbeTrack	1415	SCS215b	733793.464966	733793.466111	8	0.013328	60	10	60-180	60	169	GapPrac	1	15	4	6	1	target	1	667	13.328	13.293	13.375
ProbeTrack8	9	ProbeTrack	1415	SCS215b	733793.464966	733793.466189	8	0.013328	60	10	60-180	60	165	GapPrac	1	16	4	96	0	distractor	1	707	13.328	13.292	13.363
ProbeTrack8	9	ProbeTrack	1415	SCS215b	733793.464966	733793.466282	8	0.013328	60	10	60-180	60	65	GapPrac	1	17	4	6	0	distractor	1	560	13.328	13.293	13.363
ProbeTrack8	9	ProbeTrack	1415	SCS215b	733793.464966	733793.466344	8	0.013328	60	10	60-180	60	92	GapPrac	1	18	4	96	1	target	1	453	13.328	13.293	13.363
ProbeTrack8	9	ProbeTrack	1415	SCS215b	733793.464966	733793.466424	8	0.013328	60	10	60-180	60	69	GapPrac	1	19	4	3	1	distractor	0	600	13.328	13.293	13.363
ProbeTrack8	9	ProbeTrack	1415	SCS215b	733793.464966	733793.466486	8	0.013328	60	10	60-180	60	149	GapPrac	1	20	4	96	0	target	0	534	13.328	13.281	13.376
ProbeTrack8	9	ProbeTrack	1415	SCS215b	733793.467041	733793.467123	8	0.013328	60	10	60-180	60	78	GapExp	1	1	4	3	0	target	0	413	13.328	13.287	13.369
ProbeTrack8	9	ProbeTrack	1415	SCS215b	733793.467041	733793.467196	8	0.013328	60	10	60-180	60	122	GapExp	1	2	4	96	0	target	0	560	13.328	13.293	13.378
ProbeTrack8	9	ProbeTrack	1415	SCS215b	733793.467041	733793.467284	8	0.013328	60	10	60-180	60	70	GapExp	1	3	4	6	1	target	1	640	13.328	13.293	13.363
ProbeTrack8	9	ProbeTrack	1415	SCS215b	733793.467041	733793.467349	8	0.013328	60	10	60-180	60	148	GapExp	1	4	4	0	0	distractor	1	573	13.328	13.293	13.363
ProbeTrack8	9	ProbeTrack	1415	SCS215b	733793.467041	733793.467427	8	0.013328	60	10	60-180	60	158	GapExp	1	5	4	0	1	target	1	454	13.328	13.147	13.543
ProbeTrack8	9	ProbeTrack	1415	SCS215b	733793.467041	733793.467505	8	0.013328	60	10	60-180	60	108	GapExp	0	6	4	3	1	distractor	0	587	13.328	13.149	13.507
ProbeTrack8	9	ProbeTrack	1415	SCS215b	733793.467041	733793.467574	8	0.013328	60	10	60-180	60	175	GapExp	0	7	4	3	0	distractor	1	547	13.328	13.293	13.363
ProbeTrack8	9	ProbeTrack	1415	SCS215b	733793.467041	733793.467652	8	0.013328	60	10	60-180	60	138	GapExp	0	8	4	3	1	target	1	454	13.328	13.248	13.442
ProbeTrack8	9	ProbeTrack	1415	SCS215b	733793.467041	733793.467724	8	0.013328	60	10	60-180	60	121	GapExp	0	9	4	6	1	target	1	707	13.328	13.289	13.366
ProbeTrack8	9	ProbeTrack	1415	SCS215b	733793.467041	733793.467798	8	0.013328	60	10	60-180	60	162	GapExp	0	10	4	6	1	target	1	613	13.328	13.293	13.363
ProbeTrack8	9	ProbeTrack	1415	SCS215b	733793.467041	733793.467876	8	0.013328	60	10	60-180	60	113	GapExp	0	11	4	96	0	distractor	1	667	13.328	13.201	13.456
ProbeTrack8	9	ProbeTrack	1415	SCS215b	733793.467041	733793.467961	8	0.013328	60	10	60-180	60	71	GapExp	0	12	4	3	0	target	0	520	13.328	13.251	13.370
ProbeTrack8	9	ProbeTrack	1415	SCS215b	733793.467041	733793.468022	8	0.013328	60	10	60-180	60	127	GapExp	0	13	4	3	0	distractor	1	573	13.328	13.266	13.363
ProbeTrack8	9	ProbeTrack	1415	SCS215b	733793.467041	733793.468097	8	0.013328	60	10	60-180	60	78	GapExp	0	14	4	6	0	distractor	1	627	13.328	13.293	13.365
ProbeTrack8	9	ProbeTrack	1415	SCS215b	733793.467041	733793.468161	8	0.013328	60	10	60-180	60	97	GapExp	0	15	4	6	1	distractor	0	547	13.328	13.293	13.364
ProbeTrack8	9	ProbeTrack	1415	SCS215b	733793.467041	733793.468227	8	0.013328	60	10	60-180	60	150	GapExp	0	16	4	3	1	target	1	400	13.328	13.293	13.388
ProbeTrack8	9	ProbeTrack	1415	SCS215b	733793.467041	733793.468301	8	0.013328	60	10	60-180	60	166	GapExp	0	17	4	3	0	distractor	1	787	13.328	13.293	13.373
ProbeTrack8	9	ProbeTrack	1415	SCS215b	733793.467041	733793.468381	8	0.013328	60	10	60-180	60	69	GapExp	0	18	4	0	0	target	0	480	13.328	13.134	13.521
ProbeTrack8	9	ProbeTrack	1415	SCS215b	733793.467041	733793.468442	8	0.013328	60	10	60-180	60	81	GapExp	0	19	4	6	1	distractor	0	534	13.328	13.293	13.363
ProbeTrack8	9	ProbeTrack	1415	SCS215b	733793.467041	733793.468506	8	0.013328	60	10	60-180	60	103	GapExp	0	20	4	3	0	distractor	1	494	13.328	13.293	13.364
ProbeTrack8	9	ProbeTrack	1415	SCS215b	733793.467041	733793.468575	8	0.013328	60	10	60-180	60	79	GapExp	0	21	4	0	0	distractor	1	667	13.328	13.293	13.365
ProbeTrack8	9	ProbeTrack	1415	SCS215b	733793.467041	733793.468656	8	0.013328	60	10	60-180	60	156	GapExp	0	22	4	96	0	target	0	480	13.328	13.275	13.380
ProbeTrack8	9	ProbeTrack	1415	SCS215b	733793.467041	733793.468748	8	0.013328	60	10	60-180	60	76	GapExp	0	23	4	6	0	distractor	1	547	13.328	13.293	13.362
ProbeTrack8	9	ProbeTrack	1415	SCS215b	733793.467041	733793.468812	8	0.013328	60	10	60-180	60	97	GapExp	0	24	4	6	1	target	1	454	13.328	13.285	13.382
ProbeTrack8	9	ProbeTrack	1415	SCS215b	733793.467041	733793.468896	8	0.013328	60	10	60-180	60	148	GapExp	0	25	4	3	1	target	1	414	13.328	13.274	13.363
ProbeTrack8	9	ProbeTrack	1415	SCS215b	733793.467041	733793.468975	8	0.013328	60	10	60-180	60	140	GapExp	0	26	4	6	1	target	1	454	13.328	13.292	13.364
ProbeTrack8	9	ProbeTrack	1415	SCS215b	733793.467041	733793.469050	8	0.013328	60	10	60-180	60	132	GapExp	0	27	4	0	1	distractor	0	547	13.328	13.293	13.373
ProbeTrack8	9	ProbeTrack	1415	SCS215b	733793.467041	733793.469125	8	0.013328	60	10	60-180	60	122	GapExp	0	28	4	96	1	target	1	653	13.328	13.265	13.425
ProbeTrack8	9	ProbeTrack	1415	SCS215b	733793.467041	733793.469211	8	0.013328	60	10	60-180	60	139	GapExp	0	29	4	3	1	distractor	0	560	13.328	13.262	13.363
ProbeTrack8	9	ProbeTrack	1415	SCS215b	733793.467041	733793.469294	8	0.013328	60	10	60-180	60	69	GapExp	0	30	4	3	1	target	1	547	13.328	13.293	13.363
ProbeTrack8	9	ProbeTrack	1415	SCS215b	733793.467041	733793.469356	8	0.013328	60	10	60-180	60	157	GapExp	0	31	4	3	0	target	0	414	13.328	13.048	13.609
ProbeTrack8	9	ProbeTrack	1415	SCS215b	733793.467041	733793.469450	8	0.013328	60	10	60-180	60	123	GapExp	0	32	4	3	1	distractor	0	907	13.328	13.292	13.367
ProbeTrack8	9	ProbeTrack	1415	SCS215b	733793.467041	733793.469525	8	0.013328	60	10	60-180	60	128	GapExp	0	33	4	3	0	target	0	480	13.328	13.244	13.410
ProbeTrack8	9	ProbeTrack	1415	SCS215b	733793.467041	733793.469601	8	0.013328	60	10	60-180	60	147	GapExp	0	34	4	6	0	target	0	533	13.328	13.292	13.363
ProbeTrack8	9	ProbeTrack	1415	SCS215b	733793.467041	733793.469831	8	0.013328	60	10	60-180	60	165	GapExp	0	35	4	6	0	distractor	1	773	13.328	13.292	13.365
ProbeTrack8	9	ProbeTrack	1415	SCS215b	733793.467041	733793.469913	8	0.013328	60	10	60-180	60	149	GapExp	0	36	4	3	1	target	1	560	13.328	13.290	13.363
ProbeTrack8	9	ProbeTrack	1415	SCS215b	733793.467041	733793.469990	8	0.013328	60	10	60-180	60	84	GapExp	0	37	4	3	1	target	1	414	13.328	13.070	13.551
ProbeTrack8	9	ProbeTrack	1415	SCS215b	733793.467041	733793.470053	8	0.013328	60	10	60-180	60	162	GapExp	0	38	4	0	1	target	1	534	13.328	13.292	13.363
ProbeTrack8	9	ProbeTrack	1415	SCS215b	733793.467041	733793.470132	8	0.013328	60	10	60-180	60	166	GapExp	0	39	4	0	1	target	1	653	13.328	13.252	13.439
ProbeTrack8	9	ProbeTrack	1415	SCS215b	733793.467041	733793.470225	8	0.013328	60	10	60-180	60	77	GapExp	0	40	4	96	1	target	1	467	13.328	13.255	13.400
ProbeTrack8	9	ProbeTrack	1415	SCS215b	733793.467041	733793.470302	8	0.013328	60	10	60-180	60	173	GapExp	0	41	4	3	0	target	0	440	13.328	13.269	13.363
ProbeTrack8	9	ProbeTrack	1415	SCS215b	733793.467041	733793.470387	8	0.013328	60	10	60-180	60	74	GapExp	0	42	4	6	0	target	0	600	13.328	13.293	13.363
ProbeTrack8	9	ProbeTrack	1415	SCS215b	733793.467041	733793.470453	8	0.013328	60	10	60-180	60	138	GapExp	0	43	4	0	0	distractor	1	1000	13.328	13.256	13.400
ProbeTrack8	9	ProbeTrack	1415	SCS215b	733793.467041	733793.470531	8	0.013328	60	10	60-180	60	141	GapExp	0	44	4	6	0	target	0	507	13.328	13.226	13.430
ProbeTrack8	9	ProbeTrack	1415	SCS215b	733793.467041	733793.470611	8	0.013328	60	10	60-180	60	153	GapExp	0	45	4	0	0	target	0	733	13.328	13.283	13.365
ProbeTrack8	9	ProbeTrack	1415	SCS215b	733793.467041	733793.470688	8	0.013328	60	10	60-180	60	61	GapExp	0	46	4	0	1	target	1	1413	13.328	13.292	13.367
ProbeTrack8	9	ProbeTrack	1415	SCS215b	733793.467041	733793.470759	8	0.013328	60	10	60-180	60	149	GapExp	0	47	4	6	1	target	1	627	13.328	13.127	13.497
ProbeTrack8	9	ProbeTrack	1415	SCS215b	733793.467041	733793.470844	8	0.013328	60	10	60-180	60	96	GapExp	0	48	4	0	1	target	1	534	13.328	13.293	13.363
ProbeTrack8	9	ProbeTrack	1415	SCS215b	733793.467041	733793.470907	8	0.013328	60	10	60-180	60	78	GapExp	0	49	4	0	0	32	-3	773	13.328	13.293	13.368
ProbeTrack8	9	ProbeTrack	1415	SCS215b	733793.467041	733793.470973	8	0.013328	60	10	60-180	60	137	GapExp	0	50	4	0	1	target	1	707	13.328	13.254	13.401
ProbeTrack8	9	ProbeTrack	1415	SCS215b	733793.467041	733793.471052	8	0.013328	60	10	60-180	60	131	GapExp	0	51	4	0	0	target	0	547	13.328	13.293	13.363
ProbeTrack8	9	ProbeTrack	1415	SCS215b	733793.467041	733793.471122	8	0.013328	60	10	60-180	60	117	GapExp	0	52	4	0	1	distractor	0	360	13.328	13.292	13.363
ProbeTrack8	9	ProbeTrack	1415	SCS215b	733793.467041	733793.471190	8	0.013328	60	10	60-180	60	129	GapExp	0	53	4	96	1	target	1	653	13.328	13.267	13.388
ProbeTrack8	9	ProbeTrack	1415	SCS215b	733793.467041	733793.471275	8	0.013328	60	10	60-180	60	92	GapExp	0	54	4	0	0	distractor	1	560	13.328	13.293	13.363
ProbeTrack8	9	ProbeTrack	1415	SCS215b	733793.467041	733793.471340	8	0.013328	60	10	60-180	60	103	GapExp	0	55	4	96	0	distractor	1	440	13.328	13.142	13.480
ProbeTrack8	9	ProbeTrack	1415	SCS215b	733793.467041	733793.471421	8	0.013328	60	10	60-180	60	124	GapExp	0	56	4	0	1	target	1	440	13.328	13.276	13.380
ProbeTrack8	9	ProbeTrack	1415	SCS215b	733793.467041	733793.471494	8	0.013328	60	10	60-180	60	139	GapExp	0	57	4	96	1	target	1	374	13.328	13.264	13.392
ProbeTrack8	9	ProbeTrack	1415	SCS215b	733793.467041	733793.471579	8	0.013328	60	10	60-180	60	123	GapExp	0	58	4	0	0	distractor	1	627	13.328	13.272	13.363
ProbeTrack8	9	ProbeTrack	1415	SCS215b	733793.467041	733793.471651	8	0.013328	60	10	60-180	60	68	GapExp	0	59	4	96	1	target	1	654	13.328	13.292	13.366
ProbeTrack8	9	ProbeTrack	1415	SCS215b	733793.467041	733793.471728	8	0.013328	60	10	60-180	60	144	GapExp	0	60	4	6	0	distractor	1	653	13.328	13.136	13.486
ProbeTrack8	9	ProbeTrack	1415	SCS215b	733793.467041	733793.471803	8	0.013328	60	10	60-180	60	80	GapExp	0	61	4	6	1	distractor	0	640	13.328	13.293	13.363
ProbeTrack8	9	ProbeTrack	1415	SCS215b	733793.467041	733793.471869	8	0.013328	60	10	60-180	60	122	GapExp	0	62	4	0	0	distractor	1	613	13.328	13.209	13.414
ProbeTrack8	9	ProbeTrack	1415	SCS215b	733793.467041	733793.471942	8	0.013328	60	10	60-180	60	128	GapExp	0	63	4	96	0	target	0	520	13.328	13.283	13.406
ProbeTrack8	9	ProbeTrack	1415	SCS215b	733793.467041	733793.472029	8	0.013328	60	10	60-180	60	93	GapExp	0	64	4	6	0	distractor	1	640	13.328	13.292	13.382
ProbeTrack8	9	ProbeTrack	1415	SCS215b	733793.467041	733793.472101	8	0.013328	60	10	60-180	60	99	GapExp	0	65	4	0	1	target	1	587	13.328	13.293	13.363
ProbeTrack8	9	ProbeTrack	1415	SCS215b	733793.467041	733793.472174	8	0.013328	60	10	60-180	60	153	GapExp	0	66	4	96	1	target	1	520	13.328	13.287	13.367
ProbeTrack8	9	ProbeTrack	1415	SCS215b	733793.467041	733793.472266	8	0.013328	60	10	60-180	60	103	GapExp	0	67	4	96	1	target	1	533	13.328	13.065	13.556
ProbeTrack8	9	ProbeTrack	1415	SCS215b	733793.467041	733793.472347	8	0.013328	60	10	60-180	60	155	GapExp	0	68	4	96	0	distractor	1	747	13.328	13.293	13.363
ProbeTrack8	9	ProbeTrack	1415	SCS215b	733793.467041	733793.472440	8	0.013328	60	10	60-180	60	92	GapExp	0	69	4	3	1	target	1	587	13.328	13.226	13.430
ProbeTrack8	9	ProbeTrack	1415	SCS215b	733793.467041	733793.472506	8	0.013328	60	10	60-180	60	78	GapExp	0	70	4	96	1	target	1	560	13.328	13.292	13.367
ProbeTrack8	9	ProbeTrack	1415	SCS215b	733793.467041	733793.472585	8	0.013328	60	10	60-180	60	173	GapExp	0	71	4	3	0	distractor	1	507	13.328	13.292	13.364
ProbeTrack8	9	ProbeTrack	1415	SCS215b	733793.467041	733793.472662	8	0.013328	60	10	60-180	60	141	GapExp	0	72	4	6	0	distractor	1	467	13.328	13.293	13.363
ProbeTrack8	9	ProbeTrack	1415	SCS215b	733793.467041	733793.472736	8	0.013328	60	10	60-180	60	69	GapExp	0	73	4	0	0	distractor	1	520	13.328	13.274	13.381
ProbeTrack8	9	ProbeTrack	1415	SCS215b	733793.467041	733793.472800	8	0.013328	60	10	60-180	60	97	GapExp	0	74	4	0	1	target	1	760	13.328	13.251	13.438
ProbeTrack8	9	ProbeTrack	1415	SCS215b	733793.467041	733793.472870	8	0.013328	60	10	60-180	60	156	GapExp	0	75	4	3	0	distractor	1	493	13.328	13.269	13.387
ProbeTrack8	9	ProbeTrack	1415	SCS215b	733793.467041	733793.472948	8	0.013328	60	10	60-180	60	156	GapExp	0	76	4	6	1	distractor	0	613	13.328	13.293	13.363
ProbeTrack8	9	ProbeTrack	1415	SCS215b	733793.467041	733793.473028	8	0.013328	60	10	60-180	60	146	GapExp	0	77	4	3	0	distractor	1	533	13.328	13.293	13.366
ProbeTrack8	9	ProbeTrack	1415	SCS215b	733793.467041	733793.473104	8	0.013328	60	10	60-180	60	120	GapExp	0	78	4	6	0	distractor	1	614	13.328	13.265	13.424
ProbeTrack8	9	ProbeTrack	1415	SCS215b	733793.467041	733793.473178	8	0.013328	60	10	60-180	60	123	GapExp	0	79	4	96	1	target	1	480	13.328	13.293	13.363
ProbeTrack8	9	ProbeTrack	1415	SCS215b	733793.467041	733793.473264	8	0.013328	60	10	60-180	60	156	GapExp	0	80	4	0	0	target	0	627	13.328	13.257	13.364
ProbeTrack8	9	ProbeTrack	1415	SCS215b	733793.467041	733793.473342	8	0.013328	60	10	60-180	60	121	GapExp	0	81	4	6	0	distractor	1	667	13.328	13.189	13.466
ProbeTrack8	9	ProbeTrack	1415	SCS215b	733793.467041	733793.473414	8	0.013328	60	10	60-180	60	90	GapExp	0	82	4	6	1	target	1	627	13.328	13.293	13.365
ProbeTrack8	9	ProbeTrack	1415	SCS215b	733793.467041	733793.473487	8	0.013328	60	10	60-180	60	171	GapExp	0	83	4	96	0	distractor	1	414	13.328	13.292	13.363
ProbeTrack8	9	ProbeTrack	1415	SCS215b	733793.467041	733793.473578	8	0.013328	60	10	60-180	60	101	GapExp	0	84	4	96	1	target	1	613	13.328	13.275	13.382
ProbeTrack8	9	ProbeTrack	1415	SCS215b	733793.467041	733793.473661	8	0.013328	60	10	60-180	60	129	GapExp	0	85	4	6	0	distractor	1	533	13.328	13.293	13.363
ProbeTrack8	9	ProbeTrack	1415	SCS215b	733793.467041	733793.473733	8	0.013328	60	10	60-180	60	137	GapExp	0	86	4	96	0	distractor	1	653	13.328	13.293	13.366
ProbeTrack8	9	ProbeTrack	1415	SCS215b	733793.467041	733793.473822	8	0.013328	60	10	60-180	60	82	GapExp	0	87	4	6	1	target	1	747	13.328	13.254	13.402
ProbeTrack8	9	ProbeTrack	1415	SCS215b	733793.467041	733793.473893	8	0.013328	60	10	60-180	60	69	GapExp	0	88	4	3	0	target	0	920	13.328	13.293	13.364
ProbeTrack8	9	ProbeTrack	1415	SCS215b	733793.467041	733793.473959	8	0.013328	60	10	60-180	60	99	GapExp	0	89	4	96	1	target	1	640	13.328	13.268	13.420
ProbeTrack8	9	ProbeTrack	1415	SCS215b	733793.467041	733793.474042	8	0.013328	60	10	60-180	60	135	GapExp	0	90	4	96	0	distractor	1	840	13.328	13.293	13.363
ProbeTrack8	9	ProbeTrack	1415	SCS215b	733793.467041	733793.474136	8	0.013328	60	10	60-180	60	117	GapExp	0	91	4	6	1	target	1	573	13.328	13.293	13.363
ProbeTrack8	9	ProbeTrack	1415	SCS215b	733793.467041	733793.474206	8	0.013328	60	10	60-180	60	90	GapExp	0	92	4	0	0	distractor	1	560	13.328	13.293	13.391
ProbeTrack8	9	ProbeTrack	1415	SCS215b	733793.467041	733793.474272	8	0.013328	60	10	60-180	60	140	GapExp	0	93	4	0	0	distractor	1	627	13.328	13.293	13.366
ProbeTrack8	9	ProbeTrack	1415	SCS215b	733793.467041	733793.474349	8	0.013328	60	10	60-180	60	149	GapExp	0	94	4	6	1	target	1	547	13.328	13.292	13.363
ProbeTrack8	9	ProbeTrack	1415	SCS215b	733793.467041	733793.474423	8	0.013328	60	10	60-180	60	76	GapExp	0	95	4	96	0	distractor	1	613	13.328	13.293	13.363
ProbeTrack8	9	ProbeTrack	1415	SCS215b	733793.467041	733793.474502	8	0.013328	60	10	60-180	60	133	GapExp	0	96	4	6	0	target	0	440	13.328	13.152	13.504
ProbeTrack8	9	ProbeTrack	1415	SCS215b	733793.467041	733793.474576	8	0.013328	60	10	60-180	60	117	GapExp	0	97	4	96	1	target	1	680	13.328	13.219	13.401
ProbeTrack8	9	ProbeTrack	1415	SCS215b	733793.467041	733793.474662	8	0.013328	60	10	60-180	60	152	GapExp	0	98	4	96	1	target	1	653	13.363	12.939	26.366
ProbeTrack8	9	ProbeTrack	1415	SCS215b	733793.467041	733793.474753	8	0.013328	60	10	60-180	60	107	GapExp	0	99	4	96	1	target	1	667	13.328	13.272	13.384
ProbeTrack8	9	ProbeTrack	1415	SCS215b	733793.467041	733793.474839	8	0.013328	60	10	60-180	60	161	GapExp	0	100	4	0	0	distractor	1	560	13.328	13.220	13.436
ProbeTrack8	9	ProbeTrack	1415	SCS215b	733793.467041	733793.474919	8	0.013328	60	10	60-180	60	134	GapExp	0	101	4	0	0	distractor	1	600	13.328	13.247	13.409
ProbeTrack8	9	ProbeTrack	1415	SCS215b	733793.467041	733793.474992	8	0.013328	60	10	60-180	60	93	GapExp	0	102	4	3	1	target	1	440	13.328	13.293	13.363
ProbeTrack8	9	ProbeTrack	1415	SCS215b	733793.467041	733793.475055	8	0.013328	60	10	60-180	60	78	GapExp	0	103	4	3	0	distractor	1	640	13.328	13.293	13.363
ProbeTrack8	9	ProbeTrack	1415	SCS215b	733793.467041	733793.475120	8	0.013328	60	10	60-180	60	158	GapExp	0	104	4	3	0	target	0	920	13.328	13.290	13.365
ProbeTrack8	9	ProbeTrack	1415	SCS215b	733793.467041	733793.475201	8	0.013328	60	10	60-180	60	100	GapExp	0	105	4	6	1	distractor	0	627	13.328	13.293	13.363
ProbeTrack8	9	ProbeTrack	1415	SCS215b	733793.467041	733793.475273	8	0.013328	60	10	60-180	60	62	GapExp	0	106	4	0	1	target	1	587	13.328	13.291	13.363
ProbeTrack8	9	ProbeTrack	1415	SCS215b	733793.467041	733793.475338	8	0.013328	60	10	60-180	60	115	GapExp	0	107	4	3	1	target	1	454	13.328	13.293	13.366
ProbeTrack8	9	ProbeTrack	1415	SCS215b	733793.467041	733793.475405	8	0.013328	60	10	60-180	60	63	GapExp	0	108	4	96	0	distractor	1	667	13.328	13.270	13.404
ProbeTrack8	9	ProbeTrack	1415	SCS215b	733793.467041	733793.475483	8	0.013328	60	10	60-180	60	85	GapExp	0	109	4	0	1	target	1	480	13.328	13.261	13.396
ProbeTrack8	9	ProbeTrack	1415	SCS215b	733793.467041	733793.475546	8	0.013328	60	10	60-180	60	89	GapExp	0	110	4	0	1	distractor	0	587	13.328	13.293	13.363
ProbeTrack8	9	ProbeTrack	1415	SCS215b	733793.467041	733793.475616	8	0.013328	60	10	60-180	60	71	GapExp	0	111	4	0	1	target	1	494	13.328	13.293	13.363
ProbeTrack8	9	ProbeTrack	1415	SCS215b	733793.467041	733793.475677	8	0.013328	60	10	60-180	60	166	GapExp	0	112	4	6	0	distractor	1	787	13.328	13.293	13.364
ProbeTrack8	9	ProbeTrack	1415	SCS215b	733793.467041	733793.475758	8	0.013328	60	10	60-180	60	115	GapExp	0	113	4	96	0	distractor	1	627	13.328	13.293	13.363
ProbeTrack8	9	ProbeTrack	1415	SCS215b	733793.467041	733793.475845	8	0.013328	60	10	60-180	60	148	GapExp	0	114	4	6	0	distractor	1	547	13.328	13.293	13.364
ProbeTrack8	9	ProbeTrack	1415	SCS215b	733793.467041	733793.475920	8	0.013328	60	10	60-180	60	103	GapExp	0	115	4	3	1	target	1	547	13.328	13.237	13.419
ProbeTrack8	9	ProbeTrack	1415	SCS215b	733793.467041	733793.475988	8	0.013328	60	10	60-180	60	64	GapExp	0	116	4	6	1	target	1	693	13.328	13.288	13.368
ProbeTrack8	9	ProbeTrack	1415	SCS215b	733793.467041	733793.476050	8	0.013328	60	10	60-180	60	158	GapExp	0	117	4	96	1	distractor	0	733	13.328	13.264	13.364
ProbeTrack8	9	ProbeTrack	1415	SCS215b	733793.467041	733793.476144	8	0.013328	60	10	60-180	60	149	GapExp	0	118	4	96	0	distractor	1	680	13.328	13.121	13.500
ProbeTrack8	9	ProbeTrack	1415	SCS215b	733793.467041	733793.476245	8	0.013328	60	10	60-180	60	155	GapExp	0	119	4	96	0	distractor	1	627	13.328	13.160	13.494
ProbeTrack8	9	ProbeTrack	1415	SCS215b	733793.467041	733793.476340	8	0.013328	60	10	60-180	60	131	GapExp	0	120	4	96	0	distractor	1	853	13.328	13.292	13.363
ProbeTrack8	9	ProbeTrack	1415	SCS215b	733793.467041	733793.476430	8	0.013328	60	10	60-180	60	127	GapExp	0	121	4	0	1	target	1	600	13.328	13.293	13.363
ProbeTrack8	9	ProbeTrack	1415	SCS215b	733793.467041	733793.476503	8	0.013328	60	10	60-180	60	103	GapExp	0	122	4	3	1	target	1	427	13.328	13.293	13.363
ProbeTrack8	9	ProbeTrack	1415	SCS215b	733793.467041	733793.476569	8	0.013328	60	10	60-180	60	105	GapExp	0	123	4	3	0	distractor	1	773	13.328	13.293	13.363
ProbeTrack8	9	ProbeTrack	1415	SCS215b	733793.467041	733793.476641	8	0.013328	60	10	60-180	60	110	GapExp	0	124	4	96	0	distractor	1	720	13.328	13.293	13.363
ProbeTrack8	9	ProbeTrack	1415	SCS215b	733793.467041	733793.476727	8	0.013328	60	10	60-180	60	96	GapExp	0	125	4	3	1	target	1	573	13.328	13.293	13.363
