exp	sub	code	rev	comp	runtime	trialtime	nstim	refreshdur	cuedur	gapdur	gapOnsetRange	durPostProbe	gapOnsetTime	blocktype	prac	trial	ntargets	soa	probeTarget	resp	acc	rt	meanFrameDur	minFrameDur	maxFrameDur
ProbeTrack8	8	ProbeTrack	1415	SCS215a	733793.433853	733793.434406	8	0.013327	60	0	60-180	60	71	NoGap	1	1	4	96	1	target	1	2279	13.328	13.293	13.362
ProbeTrack8	8	ProbeTrack	1415	SCS215a	733793.433853	733793.434538	8	0.013327	60	0	60-180	60	118	NoGap	1	2	4	3	0	distractor	1	1839	13.328	13.293	13.363
ProbeTrack8	8	ProbeTrack	1415	SCS215a	733793.433853	733793.434692	8	0.013327	60	0	60-180	60	106	NoGap	1	3	4	96	0	target	0	707	13.328	13.293	13.363
ProbeTrack8	8	ProbeTrack	1415	SCS215a	733793.433853	733793.434818	8	0.013327	60	0	60-180	60	85	NoGap	1	4	4	6	1	target	1	720	13.328	13.292	13.364
ProbeTrack8	8	ProbeTrack	1415	SCS215a	733793.433853	733793.434916	8	0.013327	60	0	60-180	60	146	NoGap	1	5	4	6	0	distractor	1	693	13.328	13.292	13.363
ProbeTrack8	8	ProbeTrack	1415	SCS215a	733793.433853	733793.435011	8	0.013327	60	0	60-180	60	66	NoGap	1	6	4	96	0	distractor	1	667	13.328	13.293	13.363
ProbeTrack8	8	ProbeTrack	1415	SCS215a	733793.433853	733793.435110	8	0.013327	60	0	60-180	60	99	NoGap	1	7	4	3	0	distractor	1	520	13.328	13.293	13.363
ProbeTrack8	8	ProbeTrack	1415	SCS215a	733793.433853	733793.435198	8	0.013327	60	0	60-180	60	175	NoGap	1	8	4	6	0	distractor	1	413	13.328	13.293	13.363
ProbeTrack8	8	ProbeTrack	1415	SCS215a	733793.433853	733793.435300	8	0.013327	60	0	60-180	60	71	NoGap	1	9	4	6	1	target	1	373	13.328	13.293	13.363
ProbeTrack8	8	ProbeTrack	1415	SCS215a	733793.433853	733793.435386	8	0.013327	60	0	60-180	60	135	NoGap	1	10	4	0	1	target	1	440	13.328	13.293	13.363
ProbeTrack8	8	ProbeTrack	1415	SCS215a	733793.433853	733793.435474	8	0.013327	60	0	60-180	60	89	NoGap	1	11	4	0	1	target	1	440	13.328	13.293	13.363
ProbeTrack8	8	ProbeTrack	1415	SCS215a	733793.433853	733793.435560	8	0.013327	60	0	60-180	60	106	NoGap	1	12	4	3	1	target	1	320	13.328	13.293	13.363
ProbeTrack8	8	ProbeTrack	1415	SCS215a	733793.433853	733793.435669	8	0.013327	60	0	60-180	60	80	NoGap	1	13	4	3	0	target	0	320	13.328	13.293	13.363
ProbeTrack8	8	ProbeTrack	1415	SCS215a	733793.433853	733793.435745	8	0.013327	60	0	60-180	60	95	NoGap	1	14	4	96	1	distractor	0	400	13.328	13.293	13.363
ProbeTrack8	8	ProbeTrack	1415	SCS215a	733793.433853	733793.435850	8	0.013327	60	0	60-180	60	102	NoGap	1	15	4	0	1	target	1	373	13.328	13.292	13.363
ProbeTrack8	8	ProbeTrack	1415	SCS215a	733793.433853	733793.435928	8	0.013327	60	0	60-180	60	72	NoGap	1	16	4	0	1	distractor	0	387	13.328	13.293	13.363
ProbeTrack8	8	ProbeTrack	1415	SCS215a	733793.433853	733793.436005	8	0.013327	60	0	60-180	60	90	NoGap	1	17	4	3	1	target	1	547	13.328	13.293	13.363
ProbeTrack8	8	ProbeTrack	1415	SCS215a	733793.433853	733793.436089	8	0.013327	60	0	60-180	60	62	NoGap	1	18	4	0	1	target	1	467	13.328	13.292	13.367
ProbeTrack8	8	ProbeTrack	1415	SCS215a	733793.433853	733793.436155	8	0.013327	60	0	60-180	60	140	NoGap	1	19	4	6	0	distractor	1	453	13.328	13.293	13.363
ProbeTrack8	8	ProbeTrack	1415	SCS215a	733793.433853	733793.436226	8	0.013327	60	0	60-180	60	92	NoGap	1	20	4	0	0	distractor	1	573	13.328	13.293	13.363
ProbeTrack8	8	ProbeTrack	1415	SCS215a	733793.433853	733793.436288	8	0.013327	60	0	60-180	60	83	NoGap	1	21	4	96	1	target	1	387	13.328	13.293	13.363
ProbeTrack8	8	ProbeTrack	1415	SCS215a	733793.433853	733793.436370	8	0.013327	60	0	60-180	60	83	NoGap	1	22	4	6	1	target	1	427	13.328	13.292	13.362
ProbeTrack8	8	ProbeTrack	1415	SCS215a	733793.433853	733793.436436	8	0.013327	60	0	60-180	60	111	NoGap	1	23	4	6	1	target	1	413	13.328	13.292	13.363
ProbeTrack8	8	ProbeTrack	1415	SCS215a	733793.433853	733793.436500	8	0.013327	60	0	60-180	60	139	NoGap	1	24	4	6	0	target	0	400	13.328	13.293	13.366
ProbeTrack8	8	ProbeTrack	1415	SCS215a	733793.433853	733793.436570	8	0.013327	60	0	60-180	60	149	NoGap	1	25	4	0	0	distractor	1	493	13.328	13.289	13.363
ProbeTrack8	8	ProbeTrack	1415	SCS215a	733793.433853	733793.436640	8	0.013327	60	0	60-180	60	74	NoGap	1	26	4	96	0	distractor	1	440	13.328	13.293	13.363
ProbeTrack8	8	ProbeTrack	1415	SCS215a	733793.433853	733793.436713	8	0.013327	60	0	60-180	60	86	NoGap	1	27	4	0	0	distractor	1	667	13.328	13.293	13.362
ProbeTrack8	8	ProbeTrack	1415	SCS215a	733793.433853	733793.436785	8	0.013327	60	0	60-180	60	179	NoGap	1	28	4	96	1	distractor	0	520	13.328	13.292	13.366
ProbeTrack8	8	ProbeTrack	1415	SCS215a	733793.433853	733793.436876	8	0.013327	60	0	60-180	60	133	NoGap	1	29	4	3	1	target	1	440	13.328	13.293	13.363
ProbeTrack8	8	ProbeTrack	1415	SCS215a	733793.433853	733793.436988	8	0.013327	60	0	60-180	60	143	NoGap	1	30	4	3	1	distractor	0	400	13.328	13.293	13.363
ProbeTrack8	8	ProbeTrack	1415	SCS215a	733793.433853	733793.437059	8	0.013327	60	0	60-180	60	106	NoGap	1	31	4	96	0	distractor	1	440	13.328	13.292	13.363
ProbeTrack8	8	ProbeTrack	1415	SCS215a	733793.433853	733793.437138	8	0.013327	60	0	60-180	60	123	NoGap	1	32	4	96	0	distractor	1	573	13.328	13.293	13.363
ProbeTrack8	8	ProbeTrack	1415	SCS215a	733793.433853	733793.437221	8	0.013327	60	0	60-180	60	110	NoGap	1	33	4	6	1	target	1	493	13.328	13.293	13.363
ProbeTrack8	8	ProbeTrack	1415	SCS215a	733793.433853	733793.437286	8	0.013327	60	0	60-180	60	88	NoGap	1	34	4	6	1	target	1	627	13.328	13.293	13.363
ProbeTrack8	8	ProbeTrack	1415	SCS215a	733793.433853	733793.437348	8	0.013327	60	0	60-180	60	62	NoGap	1	35	4	6	0	distractor	1	507	13.328	13.293	13.364
ProbeTrack8	8	ProbeTrack	1415	SCS215a	733793.433853	733793.437404	8	0.013327	60	0	60-180	60	95	NoGap	1	36	4	96	1	target	1	520	13.328	13.293	13.363
ProbeTrack8	8	ProbeTrack	1415	SCS215a	733793.433853	733793.437481	8	0.013327	60	0	60-180	60	92	NoGap	1	37	4	96	0	distractor	1	507	13.328	13.293	13.363
ProbeTrack8	8	ProbeTrack	1415	SCS215a	733793.433853	733793.437556	8	0.013327	60	0	60-180	60	163	NoGap	1	38	4	3	0	distractor	1	507	13.328	13.293	13.363
ProbeTrack8	8	ProbeTrack	1415	SCS215a	733793.433853	733793.437628	8	0.013327	60	0	60-180	60	179	NoGap	1	39	4	3	0	distractor	1	507	13.328	13.292	13.367
ProbeTrack8	8	ProbeTrack	1415	SCS215a	733793.433853	733793.437704	8	0.013327	60	0	60-180	60	166	NoGap	1	40	4	3	0	distractor	1	480	13.328	13.289	13.363
ProbeTrack8	8	ProbeTrack	1415	SCS215a	733793.433853	733793.437777	8	0.013327	60	0	60-180	60	88	NoGap	1	41	4	6	0	distractor	1	640	13.328	13.293	13.363
ProbeTrack8	8	ProbeTrack	1415	SCS215a	733793.433853	733793.437841	8	0.013327	60	0	60-180	60	65	NoGap	1	42	4	0	0	distractor	1	640	13.327	13.293	13.362
ProbeTrack8	8	ProbeTrack	1415	SCS215a	733793.433853	733793.437899	8	0.013327	60	0	60-180	60	124	NoGap	1	43	4	6	0	distractor	1	427	13.327	13.293	13.363
ProbeTrack8	8	ProbeTrack	1415	SCS215a	733793.433853	733793.437965	8	0.013327	60	0	60-180	60	131	NoGap	1	44	4	6	1	distractor	0	387	13.328	13.293	13.363
ProbeTrack8	8	ProbeTrack	1415	SCS215a	733793.433853	733793.438039	8	0.013327	60	0	60-180	60	147	NoGap	1	45	4	96	0	target	0	547	13.328	13.293	13.366
ProbeTrack8	8	ProbeTrack	1415	SCS215a	733793.433853	733793.438124	8	0.013327	60	0	60-180	60	103	NoGap	1	46	4	3	0	distractor	1	493	13.327	13.293	13.363
ProbeTrack8	8	ProbeTrack	1415	SCS215a	733793.433853	733793.438187	8	0.013327	60	0	60-180	60	163	NoGap	1	47	4	0	0	distractor	1	467	13.328	13.292	13.365
ProbeTrack8	8	ProbeTrack	1415	SCS215a	733793.433853	733793.438259	8	0.013327	60	0	60-180	60	116	NoGap	1	48	4	3	1	target	1	547	13.327	13.289	13.363
ProbeTrack8	8	ProbeTrack	1415	SCS215a	733793.433853	733793.438324	8	0.013327	60	0	60-180	60	172	NoGap	1	49	4	0	1	target	1	507	13.328	13.293	13.363
ProbeTrack8	8	ProbeTrack	1415	SCS215a	733793.433853	733793.438398	8	0.013327	60	0	60-180	60	151	NoGap	1	50	4	96	1	target	1	480	13.328	13.293	13.363
ProbeTrack8	8	ProbeTrack	1415	SCS215a	733793.439582	733793.439893	8	0.013328	60	10	60-180	60	128	GapPrac	1	1	4	3	0	target	0	5491	13.328	13.293	13.364
ProbeTrack8	8	ProbeTrack	1415	SCS215a	733793.439582	733793.440061	8	0.013328	60	10	60-180	60	63	GapPrac	1	2	4	96	1	distractor	0	1533	13.328	13.293	13.363
ProbeTrack8	8	ProbeTrack	1415	SCS215a	733793.439582	733793.440382	8	0.013328	60	10	60-180	60	167	GapPrac	1	3	4	0	0	distractor	1	1280	13.328	13.293	13.363
ProbeTrack8	8	ProbeTrack	1415	SCS215a	733793.439582	733793.440503	8	0.013328	60	10	60-180	60	140	GapPrac	1	4	4	0	1	target	1	1626	13.328	13.293	13.363
ProbeTrack8	8	ProbeTrack	1415	SCS215a	733793.439582	733793.440621	8	0.013328	60	10	60-180	60	81	GapPrac	1	5	4	96	1	distractor	0	947	13.328	13.290	13.366
ProbeTrack8	8	ProbeTrack	1415	SCS215a	733793.439582	733793.440751	8	0.013328	60	10	60-180	60	128	GapPrac	1	6	4	3	1	target	1	853	13.328	13.293	13.363
ProbeTrack8	8	ProbeTrack	1415	SCS215a	733793.439582	733793.440834	8	0.013328	60	10	60-180	60	167	GapPrac	1	7	4	0	0	distractor	1	1173	13.328	13.293	13.363
ProbeTrack8	8	ProbeTrack	1415	SCS215a	733793.439582	733793.440930	8	0.013328	60	10	60-180	60	82	GapPrac	1	8	4	0	1	distractor	0	1200	13.328	13.293	13.363
ProbeTrack8	8	ProbeTrack	1415	SCS215a	733793.439582	733793.441027	8	0.013328	60	10	60-180	60	78	GapPrac	1	9	4	96	0	target	0	800	13.328	13.293	13.363
ProbeTrack8	8	ProbeTrack	1415	SCS215a	733793.439582	733793.441137	8	0.013328	60	10	60-180	60	70	GapPrac	1	10	4	96	1	target	1	720	13.328	13.293	13.363
ProbeTrack8	8	ProbeTrack	1415	SCS215a	733793.439582	733793.441221	8	0.013328	60	10	60-180	60	178	GapPrac	1	11	4	3	0	distractor	1	840	13.328	13.292	13.363
ProbeTrack8	8	ProbeTrack	1415	SCS215a	733793.439582	733793.441311	8	0.013328	60	10	60-180	60	128	GapPrac	1	12	4	96	0	distractor	1	640	13.328	13.278	13.364
ProbeTrack8	8	ProbeTrack	1415	SCS215a	733793.439582	733793.441412	8	0.013328	60	10	60-180	60	98	GapPrac	1	13	4	3	0	distractor	1	2186	13.328	13.293	13.363
ProbeTrack8	8	ProbeTrack	1415	SCS215a	733793.439582	733793.441511	8	0.013328	60	10	60-180	60	126	GapPrac	1	14	4	6	0	distractor	1	640	13.328	13.293	13.363
ProbeTrack8	8	ProbeTrack	1415	SCS215a	733793.439582	733793.441597	8	0.013328	60	10	60-180	60	177	GapPrac	1	15	4	6	1	target	1	827	13.328	13.292	13.363
ProbeTrack8	8	ProbeTrack	1415	SCS215a	733793.439582	733793.441685	8	0.013328	60	10	60-180	60	80	GapPrac	1	16	4	6	1	target	1	760	13.328	13.293	13.363
ProbeTrack8	8	ProbeTrack	1415	SCS215a	733793.439582	733793.441754	8	0.013328	60	10	60-180	60	80	GapPrac	1	17	4	3	1	target	1	1280	13.328	13.293	13.363
ProbeTrack8	8	ProbeTrack	1415	SCS215a	733793.439582	733793.441831	8	0.013328	60	10	60-180	60	151	GapPrac	1	18	4	0	0	target	0	893	13.328	13.293	13.363
ProbeTrack8	8	ProbeTrack	1415	SCS215a	733793.439582	733793.441915	8	0.013328	60	10	60-180	60	123	GapPrac	1	19	4	6	0	distractor	1	1173	13.328	13.293	13.363
ProbeTrack8	8	ProbeTrack	1415	SCS215a	733793.439582	733793.442019	8	0.013328	60	10	60-180	60	174	GapPrac	1	20	4	0	1	target	1	747	13.328	13.292	13.365
ProbeTrack8	8	ProbeTrack	1415	SCS215a	733793.442765	733793.442940	8	0.013328	60	10	60-180	60	173	GapExp	1	1	4	96	0	distractor	1	880	13.328	13.292	13.363
ProbeTrack8	8	ProbeTrack	1415	SCS215a	733793.442765	733793.443079	8	0.013328	60	10	60-180	60	97	GapExp	1	2	4	3	0	target	0	720	13.328	13.293	13.363
ProbeTrack8	8	ProbeTrack	1415	SCS215a	733793.442765	733793.443177	8	0.013328	60	10	60-180	60	155	GapExp	1	3	4	6	1	distractor	0	680	13.328	13.292	13.363
ProbeTrack8	8	ProbeTrack	1415	SCS215a	733793.442765	733793.443277	8	0.013328	60	10	60-180	60	97	GapExp	1	4	4	0	1	distractor	0	1240	13.327	13.293	13.363
ProbeTrack8	8	ProbeTrack	1415	SCS215a	733793.442765	733793.443391	8	0.013328	60	10	60-180	60	158	GapExp	1	5	4	96	1	target	1	653	13.328	13.293	13.363
ProbeTrack8	8	ProbeTrack	1415	SCS215a	733793.442765	733793.443485	8	0.013328	60	10	60-180	60	108	GapExp	0	6	4	96	0	distractor	1	560	13.328	13.291	13.363
ProbeTrack8	8	ProbeTrack	1415	SCS215a	733793.442765	733793.443569	8	0.013328	60	10	60-180	60	165	GapExp	0	7	4	3	0	distractor	1	600	13.328	13.293	13.366
ProbeTrack8	8	ProbeTrack	1415	SCS215a	733793.442765	733793.443662	8	0.013328	60	10	60-180	60	97	GapExp	0	8	4	96	1	distractor	0	507	13.328	13.293	13.366
ProbeTrack8	8	ProbeTrack	1415	SCS215a	733793.442765	733793.443740	8	0.013328	60	10	60-180	60	159	GapExp	0	9	4	6	1	distractor	0	693	13.328	13.293	13.363
ProbeTrack8	8	ProbeTrack	1415	SCS215a	733793.442765	733793.443818	8	0.013328	60	10	60-180	60	77	GapExp	0	10	4	6	0	distractor	1	960	13.328	13.293	13.363
ProbeTrack8	8	ProbeTrack	1415	SCS215a	733793.442765	733793.443902	8	0.013328	60	10	60-180	60	99	GapExp	0	11	4	6	1	target	1	627	13.328	13.293	13.364
ProbeTrack8	8	ProbeTrack	1415	SCS215a	733793.442765	733793.443967	8	0.013328	60	10	60-180	60	81	GapExp	0	12	4	96	1	target	1	667	13.328	13.293	13.363
ProbeTrack8	8	ProbeTrack	1415	SCS215a	733793.442765	733793.444045	8	0.013328	60	10	60-180	60	141	GapExp	0	13	4	3	1	target	1	747	13.328	13.292	13.363
ProbeTrack8	8	ProbeTrack	1415	SCS215a	733793.442765	733793.444122	8	0.013328	60	10	60-180	60	86	GapExp	0	14	4	96	0	distractor	1	520	13.328	13.289	13.367
ProbeTrack8	8	ProbeTrack	1415	SCS215a	733793.442765	733793.444199	8	0.013328	60	10	60-180	60	98	GapExp	0	15	4	0	0	distractor	1	920	13.327	13.293	13.363
ProbeTrack8	8	ProbeTrack	1415	SCS215a	733793.442765	733793.444267	8	0.013328	60	10	60-180	60	106	GapExp	0	16	4	6	0	distractor	1	560	13.328	13.292	13.364
ProbeTrack8	8	ProbeTrack	1415	SCS215a	733793.442765	733793.444334	8	0.013328	60	10	60-180	60	110	GapExp	0	17	4	3	0	target	0	840	13.328	13.293	13.363
ProbeTrack8	8	ProbeTrack	1415	SCS215a	733793.442765	733793.444408	8	0.013328	60	10	60-180	60	162	GapExp	0	18	4	6	0	distractor	1	693	13.328	13.293	13.363
ProbeTrack8	8	ProbeTrack	1415	SCS215a	733793.442765	733793.444483	8	0.013328	60	10	60-180	60	65	GapExp	0	19	4	6	0	distractor	1	733	13.328	13.293	13.363
ProbeTrack8	8	ProbeTrack	1415	SCS215a	733793.442765	733793.444546	8	0.013328	60	10	60-180	60	163	GapExp	0	20	4	3	1	distractor	0	1240	13.328	13.293	13.363
ProbeTrack8	8	ProbeTrack	1415	SCS215a	733793.442765	733793.444632	8	0.013328	60	10	60-180	60	174	GapExp	0	21	4	6	1	target	1	787	13.328	13.293	13.363
ProbeTrack8	8	ProbeTrack	1415	SCS215a	733793.442765	733793.444718	8	0.013328	60	10	60-180	60	120	GapExp	0	22	4	0	1	target	1	787	13.328	13.293	13.363
ProbeTrack8	8	ProbeTrack	1415	SCS215a	733793.442765	733793.444787	8	0.013328	60	10	60-180	60	77	GapExp	0	23	4	0	0	distractor	1	667	13.328	13.292	13.363
ProbeTrack8	8	ProbeTrack	1415	SCS215a	733793.442765	733793.444853	8	0.013328	60	10	60-180	60	74	GapExp	0	24	4	3	1	target	1	533	13.328	13.293	13.363
ProbeTrack8	8	ProbeTrack	1415	SCS215a	733793.442765	733793.444914	8	0.013328	60	10	60-180	60	140	GapExp	0	25	4	6	1	target	1	533	13.328	13.293	13.363
ProbeTrack8	8	ProbeTrack	1415	SCS215a	733793.442765	733793.444988	8	0.013328	60	10	60-180	60	146	GapExp	0	26	4	3	1	target	1	587	13.328	13.293	13.363
ProbeTrack8	8	ProbeTrack	1415	SCS215a	733793.442765	733793.445059	8	0.013328	60	10	60-180	60	179	GapExp	0	27	4	3	1	target	1	573	13.328	13.293	13.363
ProbeTrack8	8	ProbeTrack	1415	SCS215a	733793.442765	733793.445135	8	0.013328	60	10	60-180	60	176	GapExp	0	28	4	3	0	distractor	1	853	13.328	13.292	13.363
ProbeTrack8	8	ProbeTrack	1415	SCS215a	733793.442765	733793.445215	8	0.013328	60	10	60-180	60	150	GapExp	0	29	4	3	1	distractor	0	653	13.328	13.292	13.363
ProbeTrack8	8	ProbeTrack	1415	SCS215a	733793.442765	733793.445290	8	0.013328	60	10	60-180	60	141	GapExp	0	30	4	0	1	target	1	867	13.328	13.293	13.363
ProbeTrack8	8	ProbeTrack	1415	SCS215a	733793.442765	733793.445364	8	0.013328	60	10	60-180	60	101	GapExp	0	31	4	6	1	distractor	0	560	13.328	13.293	13.363
ProbeTrack8	8	ProbeTrack	1415	SCS215a	733793.442765	733793.445429	8	0.013328	60	10	60-180	60	174	GapExp	0	32	4	0	0	distractor	1	533	13.328	13.293	13.363
ProbeTrack8	8	ProbeTrack	1415	SCS215a	733793.442765	733793.445509	8	0.013328	60	10	60-180	60	137	GapExp	0	33	4	6	1	target	1	613	13.328	13.293	13.365
ProbeTrack8	8	ProbeTrack	1415	SCS215a	733793.442765	733793.445581	8	0.013328	60	10	60-180	60	131	GapExp	0	34	4	3	0	distractor	1	547	13.328	13.293	13.364
ProbeTrack8	8	ProbeTrack	1415	SCS215a	733793.442765	733793.445651	8	0.013328	60	10	60-180	60	159	GapExp	0	35	4	0	1	target	1	707	13.328	13.290	13.366
ProbeTrack8	8	ProbeTrack	1415	SCS215a	733793.442765	733793.445726	8	0.013328	60	10	60-180	60	115	GapExp	0	36	4	6	0	distractor	1	547	13.328	13.293	13.362
ProbeTrack8	8	ProbeTrack	1415	SCS215a	733793.442765	733793.445794	8	0.013328	60	10	60-180	60	145	GapExp	0	37	4	0	1	target	1	773	13.328	13.293	13.363
ProbeTrack8	8	ProbeTrack	1415	SCS215a	733793.442765	733793.445873	8	0.013328	60	10	60-180	60	117	GapExp	0	38	4	3	0	distractor	1	573	13.328	13.293	13.363
ProbeTrack8	8	ProbeTrack	1415	SCS215a	733793.442765	733793.445940	8	0.013328	60	10	60-180	60	91	GapExp	0	39	4	0	1	distractor	0	787	13.328	13.292	13.363
ProbeTrack8	8	ProbeTrack	1415	SCS215a	733793.442765	733793.446009	8	0.013328	60	10	60-180	60	125	GapExp	0	40	4	3	1	distractor	0	640	13.328	13.293	13.363
ProbeTrack8	8	ProbeTrack	1415	SCS215a	733793.442765	733793.446079	8	0.013328	60	10	60-180	60	152	GapExp	0	41	4	96	0	distractor	1	613	13.328	13.293	13.363
ProbeTrack8	8	ProbeTrack	1415	SCS215a	733793.442765	733793.446167	8	0.013328	60	10	60-180	60	92	GapExp	0	42	4	0	0	distractor	1	533	13.328	13.293	13.363
ProbeTrack8	8	ProbeTrack	1415	SCS215a	733793.442765	733793.446230	8	0.013328	60	10	60-180	60	141	GapExp	0	43	4	96	1	target	1	747	13.328	13.289	13.363
ProbeTrack8	8	ProbeTrack	1415	SCS215a	733793.442765	733793.446318	8	0.013328	60	10	60-180	60	83	GapExp	0	44	4	96	0	distractor	1	880	13.328	13.293	13.363
ProbeTrack8	8	ProbeTrack	1415	SCS215a	733793.442765	733793.446399	8	0.013328	60	10	60-180	60	87	GapExp	0	45	4	6	0	distractor	1	813	13.328	13.293	13.363
ProbeTrack8	8	ProbeTrack	1415	SCS215a	733793.442765	733793.446466	8	0.013328	60	10	60-180	60	137	GapExp	0	46	4	96	1	distractor	0	453	13.328	13.293	13.362
ProbeTrack8	8	ProbeTrack	1415	SCS215a	733793.442765	733793.446597	8	0.013328	60	10	60-180	60	66	GapExp	0	47	4	6	1	target	1	1120	13.328	13.289	13.363
ProbeTrack8	8	ProbeTrack	1415	SCS215a	733793.442765	733793.446667	8	0.013328	60	10	60-180	60	177	GapExp	0	48	4	0	1	target	1	707	13.328	13.293	13.363
ProbeTrack8	8	ProbeTrack	1415	SCS215a	733793.442765	733793.446752	8	0.013328	60	10	60-180	60	147	GapExp	0	49	4	6	0	distractor	1	640	13.328	13.291	13.363
ProbeTrack8	8	ProbeTrack	1415	SCS215a	733793.442765	733793.446825	8	0.013328	60	10	60-180	60	103	GapExp	0	50	4	0	0	distractor	1	707	13.327	13.291	13.363
ProbeTrack8	8	ProbeTrack	1415	SCS215a	733793.442765	733793.446892	8	0.013328	60	10	60-180	60	109	GapExp	0	51	4	0	0	distractor	1	587	13.328	13.293	13.363
ProbeTrack8	8	ProbeTrack	1415	SCS215a	733793.442765	733793.446959	8	0.013328	60	10	60-180	60	118	GapExp	0	52	4	96	1	target	1	893	13.328	13.293	13.363
ProbeTrack8	8	ProbeTrack	1415	SCS215a	733793.442765	733793.447046	8	0.013328	60	10	60-180	60	180	GapExp	0	53	4	0	1	target	1	973	13.328	13.293	13.363
ProbeTrack8	8	ProbeTrack	1415	SCS215a	733793.442765	733793.447128	8	0.013328	60	10	60-180	60	120	GapExp	0	54	4	96	1	target	1	467	13.328	13.293	13.363
ProbeTrack8	8	ProbeTrack	1415	SCS215a	733793.442765	733793.447211	8	0.013328	60	10	60-180	60	174	GapExp	0	55	4	3	0	distractor	1	760	13.328	13.293	13.364
ProbeTrack8	8	ProbeTrack	1415	SCS215a	733793.442765	733793.447290	8	0.013328	60	10	60-180	60	87	GapExp	0	56	4	96	1	distractor	0	1000	13.328	13.292	13.363
ProbeTrack8	8	ProbeTrack	1415	SCS215a	733793.442765	733793.447373	8	0.013328	60	10	60-180	60	92	GapExp	0	57	4	3	1	target	1	627	13.328	13.293	13.363
ProbeTrack8	8	ProbeTrack	1415	SCS215a	733793.442765	733793.447438	8	0.013328	60	10	60-180	60	169	GapExp	0	58	4	0	1	target	1	547	13.328	13.293	13.363
ProbeTrack8	8	ProbeTrack	1415	SCS215a	733793.442765	733793.447515	8	0.013328	60	10	60-180	60	96	GapExp	0	59	4	96	0	target	0	547	13.328	13.293	13.363
ProbeTrack8	8	ProbeTrack	1415	SCS215a	733793.442765	733793.447594	8	0.013328	60	10	60-180	60	62	GapExp	0	60	4	96	0	target	0	454	13.328	13.293	13.363
ProbeTrack8	8	ProbeTrack	1415	SCS215a	733793.442765	733793.447666	8	0.013328	60	10	60-180	60	147	GapExp	0	61	4	96	0	target	0	933	13.328	13.293	13.363
ProbeTrack8	8	ProbeTrack	1415	SCS215a	733793.442765	733793.447758	8	0.013328	60	10	60-180	60	115	GapExp	0	62	4	3	1	target	1	560	13.327	13.293	13.363
ProbeTrack8	8	ProbeTrack	1415	SCS215a	733793.442765	733793.447827	8	0.013328	60	10	60-180	60	68	GapExp	0	63	4	3	1	target	1	2186	13.328	13.293	13.363
ProbeTrack8	8	ProbeTrack	1415	SCS215a	733793.442765	733793.447907	8	0.013328	60	10	60-180	60	141	GapExp	0	64	4	3	0	distractor	1	720	13.328	13.293	13.363
ProbeTrack8	8	ProbeTrack	1415	SCS215a	733793.442765	733793.447984	8	0.013328	60	10	60-180	60	124	GapExp	0	65	4	3	1	target	1	440	13.328	13.293	13.363
ProbeTrack8	8	ProbeTrack	1415	SCS215a	733793.442765	733793.448058	8	0.013328	60	10	60-180	60	133	GapExp	0	66	4	0	0	target	0	1013	13.328	13.293	13.365
ProbeTrack8	8	ProbeTrack	1415	SCS215a	733793.442765	733793.448133	8	0.013328	60	10	60-180	60	144	GapExp	0	67	4	96	1	target	1	560	13.328	13.289	13.366
ProbeTrack8	8	ProbeTrack	1415	SCS215a	733793.442765	733793.448219	8	0.013328	60	10	60-180	60	66	GapExp	0	68	4	0	0	distractor	1	840	13.328	13.293	13.363
ProbeTrack8	8	ProbeTrack	1415	SCS215a	733793.442765	733793.448281	8	0.013328	60	10	60-180	60	92	GapExp	0	69	4	6	1	target	1	653	13.328	13.293	13.363
ProbeTrack8	8	ProbeTrack	1415	SCS215a	733793.442765	733793.448346	8	0.013328	60	10	60-180	60	135	GapExp	0	70	4	0	0	distractor	1	573	13.328	13.293	13.366
ProbeTrack8	8	ProbeTrack	1415	SCS215a	733793.442765	733793.448418	8	0.013328	60	10	60-180	60	174	GapExp	0	71	4	6	1	target	1	760	13.328	13.293	13.363
ProbeTrack8	8	ProbeTrack	1415	SCS215a	733793.442765	733793.448498	8	0.013328	60	10	60-180	60	159	GapExp	0	72	4	3	1	target	1	520	13.328	13.293	13.363
ProbeTrack8	8	ProbeTrack	1415	SCS215a	733793.442765	733793.448577	8	0.013328	60	10	60-180	60	157	GapExp	0	73	4	96	0	distractor	1	707	13.328	13.292	13.363
ProbeTrack8	8	ProbeTrack	1415	SCS215a	733793.442765	733793.448667	8	0.013328	60	10	60-180	60	114	GapExp	0	74	4	96	1	distractor	0	493	13.328	13.181	13.475
ProbeTrack8	8	ProbeTrack	1415	SCS215a	733793.442765	733793.448748	8	0.013328	60	10	60-180	60	115	GapExp	0	75	4	0	1	target	1	587	13.328	13.293	13.363
ProbeTrack8	8	ProbeTrack	1415	SCS215a	733793.442765	733793.448815	8	0.013328	60	10	60-180	60	141	GapExp	0	76	4	0	1	target	1	1013	13.328	13.293	13.363
ProbeTrack8	8	ProbeTrack	1415	SCS215a	733793.442765	733793.448891	8	0.013328	60	10	60-180	60	101	GapExp	0	77	4	0	1	target	1	533	13.328	13.293	13.363
ProbeTrack8	8	ProbeTrack	1415	SCS215a	733793.442765	733793.448954	8	0.013328	60	10	60-180	60	63	GapExp	0	78	4	3	1	target	1	1146	13.328	13.293	13.363
ProbeTrack8	8	ProbeTrack	1415	SCS215a	733793.442765	733793.449018	8	0.013328	60	10	60-180	60	126	GapExp	0	79	4	3	0	distractor	1	667	13.328	13.292	13.363
ProbeTrack8	8	ProbeTrack	1415	SCS215a	733793.442765	733793.449087	8	0.013328	60	10	60-180	60	131	GapExp	0	80	4	96	0	target	0	707	13.328	13.293	13.363
ProbeTrack8	8	ProbeTrack	1415	SCS215a	733793.442765	733793.449173	8	0.013328	60	10	60-180	60	144	GapExp	0	81	4	96	0	distractor	1	573	13.328	13.293	13.363
ProbeTrack8	8	ProbeTrack	1415	SCS215a	733793.442765	733793.449261	8	0.013328	60	10	60-180	60	147	GapExp	0	82	4	6	0	distractor	1	653	13.328	13.293	13.363
ProbeTrack8	8	ProbeTrack	1415	SCS215a	733793.442765	733793.449335	8	0.013328	60	10	60-180	60	169	GapExp	0	83	4	6	1	target	1	653	13.328	13.293	13.363
ProbeTrack8	8	ProbeTrack	1415	SCS215a	733793.442765	733793.449412	8	0.013328	60	10	60-180	60	137	GapExp	0	84	4	6	0	distractor	1	720	13.328	13.292	13.363
ProbeTrack8	8	ProbeTrack	1415	SCS215a	733793.442765	733793.449488	8	0.013328	60	10	60-180	60	110	GapExp	0	85	4	6	0	distractor	1	493	13.328	13.293	13.363
ProbeTrack8	8	ProbeTrack	1415	SCS215a	733793.442765	733793.449554	8	0.013328	60	10	60-180	60	61	GapExp	0	86	4	96	1	distractor	0	414	13.328	13.293	13.363
ProbeTrack8	8	ProbeTrack	1415	SCS215a	733793.442765	733793.449625	8	0.013328	60	10	60-180	60	127	GapExp	0	87	4	6	1	distractor	0	560	13.328	13.291	13.363
ProbeTrack8	8	ProbeTrack	1415	SCS215a	733793.442765	733793.450358	8	0.013328	60	10	60-180	60	102	GapExp	0	88	4	6	0	target	0	760	13.328	13.292	13.363
ProbeTrack8	8	ProbeTrack	1415	SCS215a	733793.442765	733793.450519	8	0.013328	60	10	60-180	60	71	GapExp	0	89	4	6	0	distractor	1	547	13.328	13.293	13.363
ProbeTrack8	8	ProbeTrack	1415	SCS215a	733793.442765	733793.450652	8	0.013328	60	10	60-180	60	149	GapExp	0	90	4	96	0	distractor	1	707	13.328	13.293	13.363
ProbeTrack8	8	ProbeTrack	1415	SCS215a	733793.442765	733793.450757	8	0.013328	60	10	60-180	60	162	GapExp	0	91	4	0	1	target	1	853	13.328	13.289	13.363
ProbeTrack8	8	ProbeTrack	1415	SCS215a	733793.442765	733793.451038	8	0.013328	60	10	60-180	60	174	GapExp	0	92	4	0	0	distractor	1	707	13.328	13.293	13.363
ProbeTrack8	8	ProbeTrack	1415	SCS215a	733793.442765	733793.451149	8	0.013328	60	10	60-180	60	151	GapExp	0	93	4	96	0	target	0	1480	13.328	13.292	13.363
ProbeTrack8	8	ProbeTrack	1415	SCS215a	733793.442765	733793.451326	8	0.013328	60	10	60-180	60	132	GapExp	0	94	4	3	0	target	0	853	13.328	13.293	13.363
ProbeTrack8	8	ProbeTrack	1415	SCS215a	733793.442765	733793.451479	8	0.013328	60	10	60-180	60	120	GapExp	0	95	4	0	0	distractor	1	1160	13.328	13.293	13.363
ProbeTrack8	8	ProbeTrack	1415	SCS215a	733793.442765	733793.451661	8	0.013328	60	10	60-180	60	138	GapExp	0	96	4	3	0	distractor	1	733	13.328	13.289	13.365
ProbeTrack8	8	ProbeTrack	1415	SCS215a	733793.442765	733793.452542	8	0.013328	60	10	60-180	60	116	GapExp	0	97	4	3	1	target	1	640	13.328	13.292	13.363
ProbeTrack8	8	ProbeTrack	1415	SCS215a	733793.442765	733793.452817	8	0.013328	60	10	60-180	60	85	GapExp	0	98	4	0	0	distractor	1	480	13.328	13.292	13.363
ProbeTrack8	8	ProbeTrack	1415	SCS215a	733793.442765	733793.452943	8	0.013328	60	10	60-180	60	111	GapExp	0	99	4	6	1	target	1	560	13.328	13.292	13.363
ProbeTrack8	8	ProbeTrack	1415	SCS215a	733793.442765	733793.453311	8	0.013328	60	10	60-180	60	141	GapExp	0	100	4	0	0	distractor	1	653	13.328	13.291	13.363
ProbeTrack8	8	ProbeTrack	1415	SCS215a	733793.442765	733793.453604	8	0.013328	60	10	60-180	60	92	GapExp	0	101	4	0	0	distractor	1	640	13.328	13.289	13.363
ProbeTrack8	8	ProbeTrack	1415	SCS215a	733793.442765	733793.454056	8	0.013328	60	10	60-180	60	101	GapExp	0	102	4	96	0	distractor	1	480	13.328	13.293	13.363
ProbeTrack8	8	ProbeTrack	1415	SCS215a	733793.442765	733793.454172	8	0.013328	60	10	60-180	60	82	GapExp	0	103	4	3	0	distractor	1	520	13.328	13.293	13.363
ProbeTrack8	8	ProbeTrack	1415	SCS215a	733793.442765	733793.454251	8	0.013328	60	10	60-180	60	145	GapExp	0	104	4	0	1	target	1	827	13.328	13.291	13.364
ProbeTrack8	8	ProbeTrack	1415	SCS215a	733793.442765	733793.454410	8	0.013328	60	10	60-180	60	85	GapExp	0	105	4	3	0	distractor	1	493	13.327	13.293	13.363
ProbeTrack8	8	ProbeTrack	1415	SCS215a	733793.442765	733793.454515	8	0.013328	60	10	60-180	60	112	GapExp	0	106	4	96	1	target	1	667	13.328	13.292	13.363
ProbeTrack8	8	ProbeTrack	1415	SCS215a	733793.442765	733793.454644	8	0.013328	60	10	60-180	60	124	GapExp	0	107	4	3	0	distractor	1	533	13.327	13.293	13.363
ProbeTrack8	8	ProbeTrack	1415	SCS215a	733793.442765	733793.454750	8	0.013328	60	10	60-180	60	168	GapExp	0	108	4	0	0	target	0	760	13.328	13.293	13.363
ProbeTrack8	8	ProbeTrack	1415	SCS215a	733793.442765	733793.454903	8	0.013328	60	10	60-180	60	84	GapExp	0	109	4	3	0	distractor	1	507	13.328	13.293	13.364
ProbeTrack8	8	ProbeTrack	1415	SCS215a	733793.442765	733793.454972	8	0.013328	60	10	60-180	60	106	GapExp	0	110	4	96	0	distractor	1	667	13.328	13.293	13.369
ProbeTrack8	8	ProbeTrack	1415	SCS215a	733793.442765	733793.455182	8	0.013328	60	10	60-180	60	164	GapExp	0	111	4	96	1	target	1	667	13.328	13.293	13.363
ProbeTrack8	8	ProbeTrack	1415	SCS215a	733793.442765	733793.455424	8	0.013328	60	10	60-180	60	170	GapExp	0	112	4	96	1	distractor	0	520	13.328	13.293	13.366
ProbeTrack8	8	ProbeTrack	1415	SCS215a	733793.442765	733793.455526	8	0.013328	60	10	60-180	60	115	GapExp	0	113	4	3	1	target	1	587	13.328	13.293	13.363
ProbeTrack8	8	ProbeTrack	1415	SCS215a	733793.442765	733793.455630	8	0.013328	60	10	60-180	60	102	GapExp	0	114	4	6	1	target	1	773	13.328	13.291	13.363
ProbeTrack8	8	ProbeTrack	1415	SCS215a	733793.442765	733793.455763	8	0.013328	60	10	60-180	60	72	GapExp	0	115	4	96	1	target	1	467	13.328	13.293	13.363
ProbeTrack8	8	ProbeTrack	1415	SCS215a	733793.442765	733793.455859	8	0.013328	60	10	60-180	60	119	GapExp	0	116	4	3	0	distractor	1	533	13.328	13.292	13.362
ProbeTrack8	8	ProbeTrack	1415	SCS215a	733793.442765	733793.455939	8	0.013328	60	10	60-180	60	155	GapExp	0	117	4	6	1	target	1	667	13.328	13.292	13.363
ProbeTrack8	8	ProbeTrack	1415	SCS215a	733793.442765	733793.456027	8	0.013328	60	10	60-180	60	71	GapExp	0	118	4	6	0	distractor	1	560	13.328	13.293	13.363
ProbeTrack8	8	ProbeTrack	1415	SCS215a	733793.442765	733793.456106	8	0.013328	60	10	60-180	60	102	GapExp	0	119	4	6	0	target	0	573	13.328	13.293	13.363
ProbeTrack8	8	ProbeTrack	1415	SCS215a	733793.442765	733793.456192	8	0.013328	60	10	60-180	60	106	GapExp	0	120	4	6	1	target	1	547	13.327	13.293	13.363
ProbeTrack8	8	ProbeTrack	1415	SCS215a	733793.442765	733793.456282	8	0.013328	60	10	60-180	60	73	GapExp	0	121	4	96	1	distractor	0	533	13.328	13.293	13.363
ProbeTrack8	8	ProbeTrack	1415	SCS215a	733793.442765	733793.456484	8	0.013328	60	10	60-180	60	76	GapExp	0	122	4	6	0	distractor	1	1400	13.328	13.292	13.363
ProbeTrack8	8	ProbeTrack	1415	SCS215a	733793.442765	733793.456596	8	0.013328	60	10	60-180	60	76	GapExp	0	123	4	96	0	distractor	1	453	13.328	13.293	13.363
ProbeTrack8	8	ProbeTrack	1415	SCS215a	733793.442765	733793.456694	8	0.013328	60	10	60-180	60	165	GapExp	0	124	4	0	1	target	1	813	13.328	13.293	13.363
ProbeTrack8	8	ProbeTrack	1415	SCS215a	733793.442765	733793.456821	8	0.013328	60	10	60-180	60	88	GapExp	0	125	4	0	1	target	1	613	13.328	13.293	13.363
ProbeTrack8	8	ProbeTrack	1415	SCS215a	733793.459097	733793.459381	8	0.013328	60	10	60-180	60	114	GapPrac	1	1	2	3	0	distractor	1	613	13.328	13.293	13.363
ProbeTrack8	8	ProbeTrack	1415	SCS215a	733793.459097	733793.459466	8	0.013328	60	10	60-180	60	107	GapPrac	1	2	2	0	1	target	1	573	13.327	13.293	13.363
ProbeTrack8	8	ProbeTrack	1415	SCS215a	733793.459097	733793.459540	8	0.013328	60	10	60-180	60	84	GapPrac	1	3	2	96	1	distractor	0	334	13.328	13.293	13.363
ProbeTrack8	8	ProbeTrack	1415	SCS215a	733793.459097	733793.459623	8	0.013328	60	10	60-180	60	91	GapPrac	1	4	2	6	0	distractor	1	560	13.327	13.293	13.362
ProbeTrack8	8	ProbeTrack	1415	SCS215a	733793.459097	733793.459729	8	0.013328	60	10	60-180	60	98	GapPrac	1	5	2	0	0	distractor	1	627	13.327	13.290	13.363
ProbeTrack8	8	ProbeTrack	1415	SCS215a	733793.459097	733793.459827	8	0.013328	60	10	60-180	60	103	GapPrac	1	6	2	96	0	distractor	1	493	13.328	13.293	13.363
ProbeTrack8	8	ProbeTrack	1415	SCS215a	733793.459097	733793.459942	8	0.013328	60	10	60-180	60	64	GapPrac	1	7	2	0	1	target	1	680	13.328	13.293	13.363
ProbeTrack8	8	ProbeTrack	1415	SCS215a	733793.459097	733793.460192	8	0.013328	60	10	60-180	60	73	GapPrac	1	8	2	96	1	target	1	533	13.328	13.292	13.364
ProbeTrack8	8	ProbeTrack	1415	SCS215a	733793.459097	733793.460278	8	0.013328	60	10	60-180	60	69	GapPrac	1	9	2	6	1	target	1	560	13.328	13.291	13.363
ProbeTrack8	8	ProbeTrack	1415	SCS215a	733793.459097	733793.460393	8	0.013328	60	10	60-180	60	65	GapPrac	1	10	2	6	1	target	1	613	13.328	13.291	13.365
ProbeTrack8	8	ProbeTrack	1415	SCS215a	733793.459097	733793.460481	8	0.013328	60	10	60-180	60	81	GapPrac	1	11	2	3	0	distractor	1	827	13.328	13.290	13.365
ProbeTrack8	8	ProbeTrack	1415	SCS215a	733793.459097	733793.460569	8	0.013328	60	10	60-180	60	78	GapPrac	1	12	2	0	1	target	1	667	13.328	13.293	13.363
ProbeTrack8	8	ProbeTrack	1415	SCS215a	733793.459097	733793.460640	8	0.013328	60	10	60-180	60	106	GapPrac	1	13	2	6	0	distractor	1	440	13.328	13.292	13.363
ProbeTrack8	8	ProbeTrack	1415	SCS215a	733793.459097	733793.460723	8	0.013328	60	10	60-180	60	174	GapPrac	1	14	2	96	0	distractor	1	680	13.328	13.293	13.367
ProbeTrack8	8	ProbeTrack	1415	SCS215a	733793.459097	733793.460841	8	0.013328	60	10	60-180	60	98	GapPrac	1	15	2	3	1	target	1	560	13.328	13.293	13.363
ProbeTrack8	8	ProbeTrack	1415	SCS215a	733793.459097	733793.460945	8	0.013328	60	10	60-180	60	93	GapPrac	1	16	2	96	1	target	1	427	13.328	13.293	13.363
ProbeTrack8	8	ProbeTrack	1415	SCS215a	733793.459097	733793.461044	8	0.013328	60	10	60-180	60	129	GapPrac	1	17	2	0	0	distractor	1	667	13.328	13.293	13.363
ProbeTrack8	8	ProbeTrack	1415	SCS215a	733793.459097	733793.461121	8	0.013328	60	10	60-180	60	144	GapPrac	1	18	2	3	1	target	1	413	13.328	13.289	13.366
ProbeTrack8	8	ProbeTrack	1415	SCS215a	733793.459097	733793.461198	8	0.013328	60	10	60-180	60	97	GapPrac	1	19	2	3	0	distractor	1	347	13.328	13.293	13.363
ProbeTrack8	8	ProbeTrack	1415	SCS215a	733793.459097	733793.461265	8	0.013328	60	10	60-180	60	140	GapPrac	1	20	2	6	0	distractor	1	333	13.328	13.291	13.364
ProbeTrack8	8	ProbeTrack	1415	SCS215a	733793.463217	733793.463310	8	0.013327	60	10	60-180	60	131	GapExp	1	1	2	0	0	distractor	1	547	13.328	13.293	13.363
ProbeTrack8	8	ProbeTrack	1415	SCS215a	733793.463217	733793.463433	8	0.013327	60	10	60-180	60	121	GapExp	1	2	2	6	1	target	1	467	13.328	13.293	13.363
ProbeTrack8	8	ProbeTrack	1415	SCS215a	733793.463217	733793.463504	8	0.013327	60	10	60-180	60	116	GapExp	1	3	2	3	0	distractor	1	427	13.328	13.293	13.363
ProbeTrack8	8	ProbeTrack	1415	SCS215a	733793.463217	733793.463583	8	0.013327	60	10	60-180	60	135	GapExp	1	4	2	3	1	target	1	414	13.328	13.291	13.363
ProbeTrack8	8	ProbeTrack	1415	SCS215a	733793.463217	733793.463654	8	0.013327	60	10	60-180	60	134	GapExp	1	5	2	6	0	target	0	560	13.328	13.289	13.366
ProbeTrack8	8	ProbeTrack	1415	SCS215a	733793.463217	733793.463726	8	0.013327	60	10	60-180	60	103	GapExp	0	6	2	3	0	target	0	467	13.328	13.293	13.363
ProbeTrack8	8	ProbeTrack	1415	SCS215a	733793.463217	733793.463791	8	0.013327	60	10	60-180	60	145	GapExp	0	7	2	3	0	distractor	1	493	13.328	13.292	13.363
ProbeTrack8	8	ProbeTrack	1415	SCS215a	733793.463217	733793.463863	8	0.013327	60	10	60-180	60	68	GapExp	0	8	2	6	1	distractor	0	413	13.328	13.293	13.363
ProbeTrack8	8	ProbeTrack	1415	SCS215a	733793.463217	733793.463923	8	0.013327	60	10	60-180	60	160	GapExp	0	9	2	0	1	target	1	480	13.328	13.292	13.363
ProbeTrack8	8	ProbeTrack	1415	SCS215a	733793.463217	733793.463995	8	0.013327	60	10	60-180	60	122	GapExp	0	10	2	6	0	distractor	1	440	13.327	13.293	13.363
ProbeTrack8	8	ProbeTrack	1415	SCS215a	733793.463217	733793.464062	8	0.013327	60	10	60-180	60	88	GapExp	0	11	2	96	1	target	1	453	13.328	13.293	13.363
ProbeTrack8	8	ProbeTrack	1415	SCS215a	733793.463217	733793.464151	8	0.013327	60	10	60-180	60	103	GapExp	0	12	2	96	0	target	0	587	13.328	13.292	13.363
ProbeTrack8	8	ProbeTrack	1415	SCS215a	733793.463217	733793.464230	8	0.013327	60	10	60-180	60	76	GapExp	0	13	2	6	1	target	1	480	13.328	13.293	13.377
ProbeTrack8	8	ProbeTrack	1415	SCS215a	733793.463217	733793.464297	8	0.013327	60	10	60-180	60	66	GapExp	0	14	2	96	0	distractor	1	493	13.328	13.289	13.363
ProbeTrack8	8	ProbeTrack	1415	SCS215a	733793.463217	733793.464371	8	0.013327	60	10	60-180	60	140	GapExp	0	15	2	96	0	distractor	1	493	13.328	13.293	13.363
ProbeTrack8	8	ProbeTrack	1415	SCS215a	733793.463217	733793.464461	8	0.013327	60	10	60-180	60	98	GapExp	0	16	2	3	0	distractor	1	560	13.328	13.293	13.363
ProbeTrack8	8	ProbeTrack	1415	SCS215a	733793.463217	733793.464533	8	0.013327	60	10	60-180	60	84	GapExp	0	17	2	3	0	distractor	1	573	13.327	13.292	13.363
ProbeTrack8	8	ProbeTrack	1415	SCS215a	733793.463217	733793.464597	8	0.013327	60	10	60-180	60	89	GapExp	0	18	2	6	1	target	1	413	13.328	13.293	13.363
ProbeTrack8	8	ProbeTrack	1415	SCS215a	733793.463217	733793.464658	8	0.013327	60	10	60-180	60	109	GapExp	0	19	2	6	0	distractor	1	520	13.327	13.293	13.363
ProbeTrack8	8	ProbeTrack	1415	SCS215a	733793.463217	733793.464734	8	0.013327	60	10	60-180	60	61	GapExp	0	20	2	3	1	distractor	0	467	13.328	13.293	13.363
ProbeTrack8	8	ProbeTrack	1415	SCS215a	733793.463217	733793.464792	8	0.013327	60	10	60-180	60	102	GapExp	0	21	2	6	0	distractor	1	360	13.328	13.289	13.366
ProbeTrack8	8	ProbeTrack	1415	SCS215a	733793.463217	733793.464858	8	0.013327	60	10	60-180	60	66	GapExp	0	22	2	3	1	target	1	520	13.328	13.293	13.363
ProbeTrack8	8	ProbeTrack	1415	SCS215a	733793.463217	733793.464918	8	0.013327	60	10	60-180	60	77	GapExp	0	23	2	3	1	target	1	467	13.328	13.293	13.363
ProbeTrack8	8	ProbeTrack	1415	SCS215a	733793.463217	733793.464984	8	0.013327	60	10	60-180	60	67	GapExp	0	24	2	6	1	target	1	373	13.328	13.293	13.363
ProbeTrack8	8	ProbeTrack	1415	SCS215a	733793.463217	733793.465042	8	0.013327	60	10	60-180	60	162	GapExp	0	25	2	3	1	target	1	547	13.328	13.293	13.363
ProbeTrack8	8	ProbeTrack	1415	SCS215a	733793.463217	733793.465117	8	0.013327	60	10	60-180	60	150	GapExp	0	26	2	6	1	target	1	480	13.328	13.293	13.363
ProbeTrack8	8	ProbeTrack	1415	SCS215a	733793.463217	733793.465194	8	0.013327	60	10	60-180	60	175	GapExp	0	27	2	0	0	distractor	1	480	13.328	13.292	13.363
ProbeTrack8	8	ProbeTrack	1415	SCS215a	733793.463217	733793.465274	8	0.013327	60	10	60-180	60	143	GapExp	0	28	2	6	1	target	1	400	13.328	13.293	13.363
ProbeTrack8	8	ProbeTrack	1415	SCS215a	733793.463217	733793.465347	8	0.013327	60	10	60-180	60	150	GapExp	0	29	2	6	1	target	1	453	13.328	13.293	13.363
ProbeTrack8	8	ProbeTrack	1415	SCS215a	733793.463217	733793.465424	8	0.013327	60	10	60-180	60	75	GapExp	0	30	2	96	1	target	1	453	13.328	13.293	13.364
ProbeTrack8	8	ProbeTrack	1415	SCS215a	733793.463217	733793.465511	8	0.013327	60	10	60-180	60	99	GapExp	0	31	2	96	1	distractor	0	467	13.328	13.293	13.366
ProbeTrack8	8	ProbeTrack	1415	SCS215a	733793.463217	733793.465607	8	0.013327	60	10	60-180	60	124	GapExp	0	32	2	96	0	distractor	1	427	13.328	13.293	13.363
ProbeTrack8	8	ProbeTrack	1415	SCS215a	733793.463217	733793.465692	8	0.013327	60	10	60-180	60	165	GapExp	0	33	2	6	0	distractor	1	507	13.328	13.292	13.363
ProbeTrack8	8	ProbeTrack	1415	SCS215a	733793.463217	733793.465778	8	0.013327	60	10	60-180	60	91	GapExp	0	34	2	3	1	target	1	413	13.328	13.293	13.363
ProbeTrack8	8	ProbeTrack	1415	SCS215a	733793.463217	733793.465893	8	0.013327	60	10	60-180	60	148	GapExp	0	35	2	6	0	distractor	1	507	13.328	13.292	13.363
ProbeTrack8	8	ProbeTrack	1415	SCS215a	733793.463217	733793.465965	8	0.013327	60	10	60-180	60	83	GapExp	0	36	2	3	0	target	0	400	13.328	13.293	13.363
ProbeTrack8	8	ProbeTrack	1415	SCS215a	733793.463217	733793.466026	8	0.013327	60	10	60-180	60	97	GapExp	0	37	2	3	0	distractor	1	640	13.328	13.293	13.363
ProbeTrack8	8	ProbeTrack	1415	SCS215a	733793.463217	733793.466096	8	0.013327	60	10	60-180	60	62	GapExp	0	38	2	96	0	distractor	1	427	13.328	13.292	13.363
ProbeTrack8	8	ProbeTrack	1415	SCS215a	733793.463217	733793.466172	8	0.013327	60	10	60-180	60	138	GapExp	0	39	2	0	0	distractor	1	413	13.328	13.293	13.363
ProbeTrack8	8	ProbeTrack	1415	SCS215a	733793.463217	733793.466248	8	0.013327	60	10	60-180	60	174	GapExp	0	40	2	0	0	target	0	613	13.328	13.293	13.363
ProbeTrack8	8	ProbeTrack	1415	SCS215a	733793.463217	733793.466353	8	0.013327	60	10	60-180	60	70	GapExp	0	41	2	3	1	target	1	827	13.327	13.293	13.362
ProbeTrack8	8	ProbeTrack	1415	SCS215a	733793.463217	733793.466418	8	0.013327	60	10	60-180	60	87	GapExp	0	42	2	0	0	distractor	1	467	13.327	13.293	13.363
ProbeTrack8	8	ProbeTrack	1415	SCS215a	733793.463217	733793.466522	8	0.013327	60	10	60-180	60	124	GapExp	0	43	2	0	1	target	1	800	13.328	13.293	13.363
ProbeTrack8	8	ProbeTrack	1415	SCS215a	733793.463217	733793.466607	8	0.013327	60	10	60-180	60	138	GapExp	0	44	2	0	0	target	0	480	13.328	13.293	13.363
ProbeTrack8	8	ProbeTrack	1415	SCS215a	733793.463217	733793.466699	8	0.013327	60	10	60-180	60	96	GapExp	0	45	2	96	0	distractor	1	413	13.328	13.293	13.363
ProbeTrack8	8	ProbeTrack	1415	SCS215a	733793.463217	733793.466792	8	0.013327	60	10	60-180	60	128	GapExp	0	46	2	0	1	distractor	0	560	13.328	13.293	13.363
ProbeTrack8	8	ProbeTrack	1415	SCS215a	733793.463217	733793.466869	8	0.013327	60	10	60-180	60	67	GapExp	0	47	2	96	1	target	1	960	13.328	13.293	13.363
ProbeTrack8	8	ProbeTrack	1415	SCS215a	733793.463217	733793.466958	8	0.013327	60	10	60-180	60	180	GapExp	0	48	2	6	0	distractor	1	653	13.328	13.293	13.364
ProbeTrack8	8	ProbeTrack	1415	SCS215a	733793.463217	733793.467046	8	0.013327	60	10	60-180	60	178	GapExp	0	49	2	6	1	target	1	413	13.328	13.293	13.364
ProbeTrack8	8	ProbeTrack	1415	SCS215a	733793.463217	733793.467160	8	0.013327	60	10	60-180	60	135	GapExp	0	50	2	96	0	distractor	1	413	13.328	13.293	13.363
ProbeTrack8	8	ProbeTrack	1415	SCS215a	733793.463217	733793.467246	8	0.013327	60	10	60-180	60	82	GapExp	0	51	2	3	1	target	1	413	13.327	13.293	13.363
ProbeTrack8	8	ProbeTrack	1415	SCS215a	733793.463217	733793.467311	8	0.013327	60	10	60-180	60	179	GapExp	0	52	2	96	1	target	1	334	13.328	13.292	13.363
ProbeTrack8	8	ProbeTrack	1415	SCS215a	733793.463217	733793.467403	8	0.013327	60	10	60-180	60	123	GapExp	0	53	2	6	0	distractor	1	440	13.328	13.293	13.363
ProbeTrack8	8	ProbeTrack	1415	SCS215a	733793.463217	733793.467475	8	0.013327	60	10	60-180	60	134	GapExp	0	54	2	0	1	target	1	267	13.328	13.292	13.363
ProbeTrack8	8	ProbeTrack	1415	SCS215a	733793.463217	733793.467546	8	0.013327	60	10	60-180	60	143	GapExp	0	55	2	96	1	target	1	254	13.328	13.293	13.363
ProbeTrack8	8	ProbeTrack	1415	SCS215a	733793.463217	733793.467641	8	0.013327	60	10	60-180	60	104	GapExp	0	56	2	3	1	target	1	387	13.327	13.293	13.363
ProbeTrack8	8	ProbeTrack	1415	SCS215a	733793.463217	733793.467726	8	0.013327	60	10	60-180	60	101	GapExp	0	57	2	0	1	distractor	0	320	13.328	13.293	13.363
ProbeTrack8	8	ProbeTrack	1415	SCS215a	733793.463217	733793.467802	8	0.013327	60	10	60-180	60	87	GapExp	0	58	2	6	0	target	0	307	13.328	13.293	13.363
ProbeTrack8	8	ProbeTrack	1415	SCS215a	733793.463217	733793.467872	8	0.013327	60	10	60-180	60	70	GapExp	0	59	2	3	1	target	1	294	13.328	13.293	13.362
ProbeTrack8	8	ProbeTrack	1415	SCS215a	733793.463217	733793.467934	8	0.013327	60	10	60-180	60	65	GapExp	0	60	2	0	0	target	0	334	13.328	13.293	13.363
ProbeTrack8	8	ProbeTrack	1415	SCS215a	733793.463217	733793.468003	8	0.013327	60	10	60-180	60	114	GapExp	0	61	2	6	1	target	1	347	13.327	13.291	13.363
ProbeTrack8	8	ProbeTrack	1415	SCS215a	733793.463217	733793.468070	8	0.013327	60	10	60-180	60	126	GapExp	0	62	2	96	1	target	1	280	13.328	13.289	13.363
ProbeTrack8	8	ProbeTrack	1415	SCS215a	733793.463217	733793.468154	8	0.013327	60	10	60-180	60	155	GapExp	0	63	2	3	0	distractor	1	493	13.328	13.293	13.363
ProbeTrack8	8	ProbeTrack	1415	SCS215a	733793.463217	733793.468237	8	0.013327	60	10	60-180	60	140	GapExp	0	64	2	3	1	target	1	240	13.328	13.293	13.363
ProbeTrack8	8	ProbeTrack	1415	SCS215a	733793.463217	733793.468311	8	0.013327	60	10	60-180	60	83	GapExp	0	65	2	96	1	target	1	294	13.328	13.293	13.363
ProbeTrack8	8	ProbeTrack	1415	SCS215a	733793.463217	733793.468390	8	0.013327	60	10	60-180	60	134	GapExp	0	66	2	6	0	distractor	1	440	13.328	13.293	13.363
ProbeTrack8	8	ProbeTrack	1415	SCS215a	733793.463217	733793.468467	8	0.013327	60	10	60-180	60	128	GapExp	0	67	2	6	0	distractor	1	374	13.328	13.293	13.364
ProbeTrack8	8	ProbeTrack	1415	SCS215a	733793.463217	733793.468540	8	0.013327	60	10	60-180	60	104	GapExp	0	68	2	3	0	distractor	1	360	13.328	13.293	13.363
ProbeTrack8	8	ProbeTrack	1415	SCS215a	733793.463217	733793.468619	8	0.013327	60	10	60-180	60	105	GapExp	0	69	2	96	0	distractor	1	347	13.328	13.293	13.383
ProbeTrack8	8	ProbeTrack	1415	SCS215a	733793.463217	733793.468704	8	0.013327	60	10	60-180	60	73	GapExp	0	70	2	6	1	distractor	0	347	13.328	13.293	13.363
ProbeTrack8	8	ProbeTrack	1415	SCS215a	733793.463217	733793.468771	8	0.013327	60	10	60-180	60	168	GapExp	0	71	2	6	1	target	1	400	13.328	13.293	13.363
ProbeTrack8	8	ProbeTrack	1415	SCS215a	733793.463217	733793.468847	8	0.013327	60	10	60-180	60	81	GapExp	0	72	2	3	1	target	1	600	13.328	13.293	13.364
ProbeTrack8	8	ProbeTrack	1415	SCS215a	733793.463217	733793.468910	8	0.013327	60	10	60-180	60	146	GapExp	0	73	2	0	0	distractor	1	440	13.328	13.292	13.363
ProbeTrack8	8	ProbeTrack	1415	SCS215a	733793.463217	733793.468983	8	0.013327	60	10	60-180	60	119	GapExp	0	74	2	96	1	target	1	240	13.328	13.293	13.363
ProbeTrack8	8	ProbeTrack	1415	SCS215a	733793.463217	733793.469062	8	0.013327	60	10	60-180	60	65	GapExp	0	75	2	96	1	target	1	347	13.328	13.293	13.363
ProbeTrack8	8	ProbeTrack	1415	SCS215a	733793.463217	733793.469139	8	0.013327	60	10	60-180	60	142	GapExp	0	76	2	0	0	distractor	1	613	13.328	13.293	13.363
ProbeTrack8	8	ProbeTrack	1415	SCS215a	733793.463217	733793.469214	8	0.013327	60	10	60-180	60	100	GapExp	0	77	2	3	1	target	1	347	13.328	13.293	13.363
ProbeTrack8	8	ProbeTrack	1415	SCS215a	733793.463217	733793.469279	8	0.013327	60	10	60-180	60	174	GapExp	0	78	2	0	1	target	1	440	13.328	13.289	13.363
ProbeTrack8	8	ProbeTrack	1415	SCS215a	733793.463217	733793.469356	8	0.013327	60	10	60-180	60	121	GapExp	0	79	2	0	1	target	1	360	13.327	13.292	13.363
ProbeTrack8	8	ProbeTrack	1415	SCS215a	733793.463217	733793.469423	8	0.013327	60	10	60-180	60	169	GapExp	0	80	2	3	0	target	0	14	13.328	13.293	13.363
ProbeTrack8	8	ProbeTrack	1415	SCS215a	733793.463217	733793.469493	8	0.013327	60	10	60-180	60	64	GapExp	0	81	2	96	0	distractor	1	413	13.328	13.293	13.363
ProbeTrack8	8	ProbeTrack	1415	SCS215a	733793.463217	733793.469603	8	0.013327	60	10	60-180	60	67	GapExp	0	82	2	0	0	target	0	227	13.327	13.293	13.363
ProbeTrack8	8	ProbeTrack	1415	SCS215a	733793.463217	733793.469659	8	0.013327	60	10	60-180	60	157	GapExp	0	83	2	96	1	target	1	453	13.328	13.293	13.363
ProbeTrack8	8	ProbeTrack	1415	SCS215a	733793.463217	733793.469752	8	0.013327	60	10	60-180	60	89	GapExp	0	84	2	0	0	distractor	1	480	13.328	13.293	13.364
ProbeTrack8	8	ProbeTrack	1415	SCS215a	733793.463217	733793.469814	8	0.013327	60	10	60-180	60	154	GapExp	0	85	2	6	0	distractor	1	493	13.328	13.292	13.363
ProbeTrack8	8	ProbeTrack	1415	SCS215a	733793.463217	733793.469890	8	0.013327	60	10	60-180	60	127	GapExp	0	86	2	96	1	target	1	320	13.328	13.288	13.363
ProbeTrack8	8	ProbeTrack	1415	SCS215a	733793.463217	733793.469975	8	0.013327	60	10	60-180	60	115	GapExp	0	87	2	0	1	target	1	320	13.328	13.293	13.365
ProbeTrack8	8	ProbeTrack	1415	SCS215a	733793.463217	733793.470042	8	0.013327	60	10	60-180	60	140	GapExp	0	88	2	6	0	target	0	413	13.328	13.293	13.363
ProbeTrack8	8	ProbeTrack	1415	SCS215a	733793.463217	733793.470115	8	0.013327	60	10	60-180	60	74	GapExp	0	89	2	3	0	distractor	1	467	13.327	13.293	13.363
ProbeTrack8	8	ProbeTrack	1415	SCS215a	733793.463217	733793.470177	8	0.013327	60	10	60-180	60	120	GapExp	0	90	2	0	1	target	1	267	13.328	13.293	13.363
ProbeTrack8	8	ProbeTrack	1415	SCS215a	733793.463217	733793.470247	8	0.013327	60	10	60-180	60	143	GapExp	0	91	2	0	1	target	1	414	13.328	13.287	13.368
ProbeTrack8	8	ProbeTrack	1415	SCS215a	733793.463217	733793.470321	8	0.013327	60	10	60-180	60	97	GapExp	0	92	2	0	1	target	1	520	13.328	13.293	13.363
ProbeTrack8	8	ProbeTrack	1415	SCS215a	733793.463217	733793.470400	8	0.013327	60	10	60-180	60	131	GapExp	0	93	2	3	1	target	1	347	13.328	13.293	13.366
ProbeTrack8	8	ProbeTrack	1415	SCS215a	733793.463217	733793.470470	8	0.013327	60	10	60-180	60	142	GapExp	0	94	2	3	0	distractor	1	294	13.328	13.293	13.363
ProbeTrack8	8	ProbeTrack	1415	SCS215a	733793.463217	733793.470569	8	0.013327	60	10	60-180	60	149	GapExp	0	95	2	3	0	target	0	360	13.328	13.293	13.363
ProbeTrack8	8	ProbeTrack	1415	SCS215a	733793.463217	733793.470645	8	0.013327	60	10	60-180	60	157	GapExp	0	96	2	6	0	distractor	1	400	13.328	13.292	13.363
ProbeTrack8	8	ProbeTrack	1415	SCS215a	733793.463217	733793.470717	8	0.013327	60	10	60-180	60	122	GapExp	0	97	2	3	0	distractor	1	320	13.328	13.293	13.363
ProbeTrack8	8	ProbeTrack	1415	SCS215a	733793.463217	733793.470784	8	0.013327	60	10	60-180	60	84	GapExp	0	98	2	96	1	target	1	294	13.328	13.292	13.364
ProbeTrack8	8	ProbeTrack	1415	SCS215a	733793.463217	733793.470866	8	0.013327	60	10	60-180	60	159	GapExp	0	99	2	96	0	target	0	54	13.328	13.292	13.363
ProbeTrack8	8	ProbeTrack	1415	SCS215a	733793.463217	733793.470952	8	0.013327	60	10	60-180	60	64	GapExp	0	100	2	6	1	distractor	0	360	13.328	13.293	13.363
ProbeTrack8	8	ProbeTrack	1415	SCS215a	733793.463217	733793.471012	8	0.013327	60	10	60-180	60	163	GapExp	0	101	2	0	0	distractor	1	453	13.328	13.293	13.363
ProbeTrack8	8	ProbeTrack	1415	SCS215a	733793.463217	733793.471083	8	0.013327	60	10	60-180	60	68	GapExp	0	102	2	3	1	target	1	400	13.328	13.293	13.363
ProbeTrack8	8	ProbeTrack	1415	SCS215a	733793.463217	733793.471157	8	0.013327	60	10	60-180	60	97	GapExp	0	103	2	96	0	distractor	1	453	13.328	13.293	13.363
ProbeTrack8	8	ProbeTrack	1415	SCS215a	733793.463217	733793.471234	8	0.013327	60	10	60-180	60	149	GapExp	0	104	2	0	0	distractor	1	520	13.328	13.293	13.366
ProbeTrack8	8	ProbeTrack	1415	SCS215a	733793.463217	733793.471313	8	0.013327	60	10	60-180	60	115	GapExp	0	105	2	3	0	distractor	1	427	13.328	13.292	13.363
ProbeTrack8	8	ProbeTrack	1415	SCS215a	733793.463217	733793.471379	8	0.013327	60	10	60-180	60	82	GapExp	0	106	2	6	0	distractor	1	414	13.328	13.293	13.362
ProbeTrack8	8	ProbeTrack	1415	SCS215a	733793.463217	733793.471439	8	0.013327	60	10	60-180	60	107	GapExp	0	107	2	0	1	target	1	600	13.327	13.289	13.367
ProbeTrack8	8	ProbeTrack	1415	SCS215a	733793.463217	733793.471505	8	0.013327	60	10	60-180	60	126	GapExp	0	108	2	0	0	distractor	1	440	13.328	13.293	13.365
ProbeTrack8	8	ProbeTrack	1415	SCS215a	733793.463217	733793.471572	8	0.013327	60	10	60-180	60	169	GapExp	0	109	2	3	1	target	1	400	13.328	13.293	13.363
ProbeTrack8	8	ProbeTrack	1415	SCS215a	733793.463217	733793.471645	8	0.013327	60	10	60-180	60	146	GapExp	0	110	2	6	1	target	1	454	13.328	13.293	13.363
ProbeTrack8	8	ProbeTrack	1415	SCS215a	733793.463217	733793.471717	8	0.013327	60	10	60-180	60	76	GapExp	0	111	2	96	0	distractor	1	440	13.328	13.293	13.363
ProbeTrack8	8	ProbeTrack	1415	SCS215a	733793.463217	733793.471817	8	0.013327	60	10	60-180	60	112	GapExp	0	112	2	0	0	target	0	560	13.328	13.293	13.363
ProbeTrack8	8	ProbeTrack	1415	SCS215a	733793.463217	733793.471883	8	0.013327	60	10	60-180	60	119	GapExp	0	113	2	6	1	target	1	440	13.328	13.293	13.363
ProbeTrack8	8	ProbeTrack	1415	SCS215a	733793.463217	733793.471955	8	0.013327	60	10	60-180	60	101	GapExp	0	114	2	0	0	distractor	1	387	13.328	13.293	13.363
ProbeTrack8	8	ProbeTrack	1415	SCS215a	733793.463217	733793.472018	8	0.013327	60	10	60-180	60	160	GapExp	0	115	2	0	1	target	1	334	13.328	13.292	13.363
ProbeTrack8	8	ProbeTrack	1415	SCS215a	733793.463217	733793.472089	8	0.013327	60	10	60-180	60	111	GapExp	0	116	2	96	0	distractor	1	400	13.328	13.293	13.363
ProbeTrack8	8	ProbeTrack	1415	SCS215a	733793.463217	733793.472170	8	0.013327	60	10	60-180	60	168	GapExp	0	117	2	96	1	target	1	347	13.328	13.293	13.367
ProbeTrack8	8	ProbeTrack	1415	SCS215a	733793.463217	733793.472261	8	0.013327	60	10	60-180	60	68	GapExp	0	118	2	96	0	distractor	1	413	13.328	13.293	13.363
ProbeTrack8	8	ProbeTrack	1415	SCS215a	733793.463217	733793.472335	8	0.013327	60	10	60-180	60	167	GapExp	0	119	2	0	1	target	1	480	13.328	13.293	13.364
ProbeTrack8	8	ProbeTrack	1415	SCS215a	733793.463217	733793.472410	8	0.013327	60	10	60-180	60	148	GapExp	0	120	2	0	1	target	1	480	13.328	13.290	13.363
ProbeTrack8	8	ProbeTrack	1415	SCS215a	733793.463217	733793.472482	8	0.013327	60	10	60-180	60	152	GapExp	0	121	2	96	0	distractor	1	440	13.328	13.293	13.363
ProbeTrack8	8	ProbeTrack	1415	SCS215a	733793.463217	733793.472568	8	0.013327	60	10	60-180	60	142	GapExp	0	122	2	6	1	target	1	360	13.328	13.293	13.363
ProbeTrack8	8	ProbeTrack	1415	SCS215a	733793.463217	733793.472641	8	0.013327	60	10	60-180	60	120	GapExp	0	123	2	96	1	target	1	707	13.328	13.293	13.363
ProbeTrack8	8	ProbeTrack	1415	SCS215a	733793.463217	733793.472728	8	0.013327	60	10	60-180	60	66	GapExp	0	124	2	3	0	target	0	454	13.328	13.293	13.363
ProbeTrack8	8	ProbeTrack	1415	SCS215a	733793.463217	733793.472798	8	0.013327	60	10	60-180	60	116	GapExp	0	125	2	6	0	distractor	1	3732	13.328	13.289	13.363
