exp	sub	code	rev	comp	runtime	trialtime	stdt	nstim	refreshdur	cuedur	gapdur	gapOnsetRange	durPostProbe	gapOnsetTime	blocktype	prac	trial	ntargets	soa	probeTarget	resp	acc	rt	pts	tpts	meanFrameDur	minFrameDur	maxFrameDur
TrackDT01	3	TrackDT	1.0	SCS215a	20120419.121948	20120419.122006	single-task	8	0.013312	60	0	60-180	60	149	NoGap	1	1	2	1	0	distractor	1	11340	0	0	13.328	13.093	13.557
TrackDT01	3	TrackDT	1.0	SCS215a	20120419.121948	20120419.122024	single-task	8	0.013312	60	0	60-180	60	126	NoGap	1	2	2	1	1	target	1	272	864	864	13.328	13.301	13.345
TrackDT01	3	TrackDT	1.0	SCS215a	20120419.121948	20120419.122029	single-task	8	0.013312	60	0	60-180	60	143	NoGap	1	3	2	3	1	early	-4	-1158	-1000	-136	13.328	13.308	13.345
TrackDT01	3	TrackDT	1.0	SCS215a	20120419.121948	20120419.122035	single-task	8	0.013312	60	0	60-180	60	151	NoGap	1	4	2	1	0	distractor	1	1619	191	55	13.328	12.856	13.802
TrackDT01	3	TrackDT	1.0	SCS215a	20120419.121948	20120419.122042	single-task	8	0.013312	60	0	60-180	60	74	NoGap	1	5	2	0	0	distractor	1	1742	129	184	13.328	13.066	13.596
TrackDT01	3	TrackDT	1.0	SCS215a	20120419.121948	20120419.122048	single-task	8	0.013312	60	0	60-180	60	173	NoGap	1	6	2	1	0	target	0	2392	-1000	-816	13.328	13.111	13.558
TrackDT01	3	TrackDT	1.0	SCS215a	20120419.121948	20120419.122057	single-task	8	0.013312	60	0	60-180	60	175	NoGap	1	7	2	30	1	distractor	0	1749	-1000	-1816	13.328	13.097	13.569
TrackDT01	3	TrackDT	1.0	SCS215a	20120419.121948	20120419.122104	single-task	8	0.013312	60	0	60-180	60	140	NoGap	1	8	2	1	1	target	1	813	594	-1222	13.328	13.028	13.629
TrackDT01	3	TrackDT	1.0	SCS215a	20120419.121948	20120419.122111	single-task	8	0.013312	60	0	60-180	60	123	NoGap	1	9	2	1	0	target	0	619	-1000	-2222	13.328	13.105	13.551
TrackDT01	3	TrackDT	1.0	SCS215a	20120419.121948	20120419.122116	single-task	8	0.013312	60	0	60-180	60	85	NoGap	1	10	2	0	1	target	1	1249	376	-1846	13.328	13.115	13.555
TrackDT01	3	TrackDT	1.0	SCS215a	20120419.121948	20120419.122122	single-task	8	0.013312	60	0	60-180	60	118	NoGap	1	11	2	30	1	target	1	558	721	-1125	13.328	12.924	13.733
TrackDT01	3	TrackDT	1.0	SCS215a	20120419.121948	20120419.122129	single-task	8	0.013312	60	0	60-180	60	76	NoGap	1	12	2	30	1	target	1	538	731	-394	13.328	13.071	13.574
TrackDT01	3	TrackDT	1.0	SCS215a	20120419.121948	20120419.122134	single-task	8	0.013312	60	0	60-180	60	128	NoGap	1	13	2	0	0	distractor	1	825	588	194	13.328	12.960	13.691
TrackDT01	3	TrackDT	1.0	SCS215a	20120419.121948	20120419.122140	single-task	8	0.013312	60	0	60-180	60	178	NoGap	1	14	2	0	0	distractor	1	593	704	898	13.328	13.287	13.349
TrackDT01	3	TrackDT	1.0	SCS215a	20120419.121948	20120419.122146	single-task	8	0.013312	60	0	60-180	60	96	NoGap	1	15	2	0	1	distractor	0	768	-1000	-102	13.328	13.086	13.499
TrackDT01	3	TrackDT	1.0	SCS215a	20120419.121948	20120419.122151	single-task	8	0.013312	60	0	60-180	60	138	NoGap	1	16	2	30	1	target	1	416	792	690	13.328	13.105	13.558
TrackDT01	3	TrackDT	1.0	SCS215a	20120419.121948	20120419.122158	single-task	8	0.013312	60	0	60-180	60	136	NoGap	1	17	2	1	1	target	1	496	752	1442	13.328	12.839	13.818
TrackDT01	3	TrackDT	1.0	SCS215a	20120419.121948	20120419.122204	single-task	8	0.013312	60	0	60-180	60	118	NoGap	1	18	2	3	0	distractor	1	602	699	2141	13.328	13.139	13.525
TrackDT01	3	TrackDT	1.0	SCS215a	20120419.121948	20120419.122209	single-task	8	0.013312	60	0	60-180	60	165	NoGap	1	19	2	3	1	distractor	0	555	-1000	1141	13.328	13.017	13.658
TrackDT01	3	TrackDT	1.0	SCS215a	20120419.121948	20120419.122216	single-task	8	0.013312	60	0	60-180	60	178	NoGap	1	20	2	30	0	distractor	1	700	650	1791	13.328	12.976	13.681
TrackDT01	3	TrackDT	1.0	SCS215a	20120419.121948	20120419.122222	single-task	8	0.013312	60	0	60-180	60	158	NoGap	1	21	2	30	0	distractor	1	752	624	2415	13.328	12.974	13.690
TrackDT01	3	TrackDT	1.0	SCS215a	20120419.121948	20120419.122229	single-task	8	0.013312	60	0	60-180	60	91	NoGap	1	22	2	0	0	distractor	1	888	556	2971	13.328	13.132	13.518
TrackDT01	3	TrackDT	1.0	SCS215a	20120419.121948	20120419.122235	single-task	8	0.013312	60	0	60-180	60	117	NoGap	1	23	2	30	0	distractor	1	878	561	3532	13.328	13.104	13.552
TrackDT01	3	TrackDT	1.0	SCS215a	20120419.121948	20120419.122241	single-task	8	0.013312	60	0	60-180	60	103	NoGap	1	24	2	3	1	target	1	684	658	4190	13.328	13.105	13.549
TrackDT01	3	TrackDT	1.0	SCS215a	20120419.121948	20120419.122247	single-task	8	0.013312	60	0	60-180	60	82	NoGap	1	25	2	3	0	distractor	1	1347	327	4517	13.328	12.865	13.783
TrackDT01	3	TrackDT	1.0	SCS215a	20120419.121948	20120419.122253	single-task	8	0.013312	60	0	60-180	60	65	NoGap	1	26	2	0	1	target	1	405	798	5315	13.328	13.297	13.353
TrackDT01	3	TrackDT	1.0	SCS215a	20120419.121948	20120419.122257	single-task	8	0.013312	60	0	60-180	60	90	NoGap	1	27	2	30	0	distractor	1	1012	494	5809	13.328	12.860	13.803
TrackDT01	3	TrackDT	1.0	SCS215a	20120419.121948	20120419.122303	single-task	8	0.013312	60	0	60-180	60	87	NoGap	1	28	2	3	1	target	1	318	841	6650	13.328	13.091	13.558
TrackDT01	3	TrackDT	1.0	SCS215a	20120419.121948	20120419.122308	single-task	8	0.013312	60	0	60-180	60	78	NoGap	1	29	2	0	1	target	1	368	816	7466	13.328	13.286	13.361
TrackDT01	3	TrackDT	1.0	SCS215a	20120419.121948	20120419.122313	single-task	8	0.013312	60	0	60-180	60	123	NoGap	1	30	2	30	1	target	1	312	844	8310	13.328	13.184	13.478
TrackDT01	3	TrackDT	1.0	SCS215a	20120419.121948	20120419.122319	single-task	8	0.013312	60	0	60-180	60	133	NoGap	1	31	2	30	0	distractor	1	572	714	9024	13.328	13.018	13.649
TrackDT01	3	TrackDT	1.0	SCS215a	20120419.121948	20120419.122325	single-task	8	0.013312	60	0	60-180	60	165	NoGap	1	32	2	0	1	target	1	320	840	9864	13.328	12.841	13.817
TrackDT01	3	TrackDT	1.0	SCS215a	20120419.121948	20120419.122331	single-task	8	0.013312	60	0	60-180	60	123	NoGap	1	33	2	3	1	target	1	385	808	10672	13.328	12.960	13.710
TrackDT01	3	TrackDT	1.0	SCS215a	20120419.121948	20120419.122336	single-task	8	0.013312	60	0	60-180	60	72	NoGap	1	34	2	0	0	distractor	1	936	532	11204	13.328	13.097	13.555
TrackDT01	3	TrackDT	1.0	SCS215a	20120419.121948	20120419.122342	single-task	8	0.013312	60	0	60-180	60	153	NoGap	1	35	2	1	1	target	1	302	849	12053	13.328	13.294	13.353
TrackDT01	3	TrackDT	1.0	SCS215a	20120419.121948	20120419.122348	single-task	8	0.013312	60	0	60-180	60	147	NoGap	1	36	2	3	0	distractor	1	596	702	12755	13.328	13.095	13.564
TrackDT01	3	TrackDT	1.0	SCS215a	20120419.121948	20120419.122353	single-task	8	0.013312	60	0	60-180	60	72	NoGap	1	37	2	1	0	distractor	1	771	615	13370	13.328	12.882	13.778
TrackDT01	3	TrackDT	1.0	SCS215a	20120419.121948	20120419.122358	single-task	8	0.013312	60	0	60-180	60	138	NoGap	1	38	2	1	1	target	1	327	837	14207	13.328	13.005	13.639
TrackDT01	3	TrackDT	1.0	SCS215a	20120419.121948	20120419.122404	single-task	8	0.013312	60	0	60-180	60	62	NoGap	1	39	2	3	0	distractor	1	758	621	14828	13.328	12.861	13.770
TrackDT01	3	TrackDT	1.0	SCS215a	20120419.121948	20120419.122409	single-task	8	0.013312	60	0	60-180	60	81	NoGap	1	40	2	3	0	distractor	1	454	773	15601	13.328	13.012	13.658
TrackDT01	3	TrackDT	1.0	SCS215a	20120419.122640	20120419.122651	dt-shadow	8	0.013327	60	10	60-180	60	63	GapPrac	1	1	2	3	0	distractor	1	1558	221	15822	13.328	13.103	13.546
TrackDT01	3	TrackDT	1.0	SCS215a	20120419.122640	20120419.122658	dt-shadow	8	0.013327	60	10	60-180	60	65	GapPrac	1	2	2	3	1	target	1	451	775	16597	13.328	13.303	13.352
TrackDT01	3	TrackDT	1.0	SCS215a	20120419.122640	20120419.122703	dt-shadow	8	0.013327	60	10	60-180	60	102	GapPrac	1	3	2	0	0	distractor	1	714	643	17240	13.328	9.557	17.122
TrackDT01	3	TrackDT	1.0	SCS215a	20120419.122640	20120419.122708	dt-shadow	8	0.013327	60	10	60-180	60	107	GapPrac	1	4	2	30	0	distractor	1	426	787	18027	13.328	10.778	15.861
TrackDT01	3	TrackDT	1.0	SCS215a	20120419.122640	20120419.122714	dt-shadow	8	0.013327	60	10	60-180	60	132	GapPrac	1	5	2	0	0	distractor	1	573	714	18741	13.328	13.105	13.550
TrackDT01	3	TrackDT	1.0	SCS215a	20120419.122640	20120419.122720	dt-shadow	8	0.013327	60	10	60-180	60	119	GapPrac	1	6	2	0	1	target	1	313	844	19585	13.328	9.034	17.632
TrackDT01	3	TrackDT	1.0	SCS215a	20120419.122640	20120419.122725	dt-shadow	8	0.013327	60	10	60-180	60	92	GapPrac	1	7	2	0	1	target	1	403	799	20384	13.328	10.922	15.721
TrackDT01	3	TrackDT	1.0	SCS215a	20120419.122640	20120419.122730	dt-shadow	8	0.013327	60	10	60-180	60	85	GapPrac	1	8	2	30	0	distractor	1	751	625	21009	13.328	13.307	13.350
TrackDT01	3	TrackDT	1.0	SCS215a	20120419.122640	20120419.122736	dt-shadow	8	0.013327	60	10	60-180	60	126	GapPrac	1	9	2	3	1	target	1	392	804	21813	13.328	13.310	13.347
TrackDT01	3	TrackDT	1.0	SCS215a	20120419.122640	20120419.122742	dt-shadow	8	0.013327	60	10	60-180	60	92	GapPrac	1	10	2	1	1	distractor	0	577	-1000	20813	13.328	13.084	13.559
TrackDT01	3	TrackDT	1.0	SCS215a	20120419.122640	20120419.122747	dt-shadow	8	0.013327	60	10	60-180	60	94	GapPrac	1	11	2	0	0	target	0	442	-1000	19813	13.328	13.293	13.350
TrackDT01	3	TrackDT	1.0	SCS215a	20120419.122640	20120419.122752	dt-shadow	8	0.013327	60	10	60-180	60	176	GapPrac	1	12	2	30	0	distractor	1	595	703	20516	13.328	12.456	14.196
TrackDT01	3	TrackDT	1.0	SCS215a	20120419.122640	20120419.122759	dt-shadow	8	0.013327	60	10	60-180	60	72	GapPrac	1	13	2	30	1	target	1	483	759	21275	13.328	9.399	17.276
TrackDT01	3	TrackDT	1.0	SCS215a	20120419.122640	20120419.122805	dt-shadow	8	0.013327	60	10	60-180	60	114	GapPrac	1	14	2	3	0	distractor	1	479	761	22036	13.328	12.441	14.224
TrackDT01	3	TrackDT	1.0	SCS215a	20120419.122640	20120419.122810	dt-shadow	8	0.013327	60	10	60-180	60	100	GapPrac	1	15	2	1	0	distractor	1	682	659	22695	13.440	13.262	26.972
TrackDT01	3	TrackDT	1.0	SCS215a	20120419.122640	20120419.122815	dt-shadow	8	0.013327	60	10	60-180	60	117	GapPrac	1	16	2	3	1	distractor	0	441	-1000	21695	13.328	13.098	13.565
TrackDT01	3	TrackDT	1.0	SCS215a	20120419.122640	20120419.122821	dt-shadow	8	0.013327	60	10	60-180	60	123	GapPrac	1	17	2	1	0	distractor	1	752	624	22319	13.328	4.672	21.984
TrackDT01	3	TrackDT	1.0	SCS215a	20120419.122640	20120419.122827	dt-shadow	8	0.013327	60	10	60-180	60	92	GapPrac	1	18	2	1	1	distractor	0	425	-1000	21319	13.328	8.589	18.057
TrackDT01	3	TrackDT	1.0	SCS215a	20120419.122640	20120419.122832	dt-shadow	8	0.013327	60	10	60-180	60	91	GapPrac	1	19	2	30	1	target	1	446	777	22096	13.328	13.108	13.552
TrackDT01	3	TrackDT	1.0	SCS215a	20120419.122640	20120419.122838	dt-shadow	8	0.013327	60	10	60-180	60	167	GapPrac	1	20	2	3	0	distractor	1	460	770	22866	13.328	8.578	18.077
TrackDT01	3	TrackDT	1.0	SCS215a	20120419.122906	20120419.122911	dt-shadow	8	0.013328	60	10	60-180	60	129	GapExp	1	1	2	3	0	distractor	1	511	745	23611	13.328	13.082	13.554
TrackDT01	3	TrackDT	1.0	SCS215a	20120419.122906	20120419.122918	dt-shadow	8	0.013328	60	10	60-180	60	165	GapExp	1	2	2	1	0	target	0	381	-1000	22611	13.328	12.899	13.764
TrackDT01	3	TrackDT	1.0	SCS215a	20120419.122906	20120419.122924	dt-shadow	8	0.013328	60	10	60-180	60	67	GapExp	1	3	2	3	1	distractor	0	490	-1000	21611	13.328	12.901	13.782
TrackDT01	3	TrackDT	1.0	SCS215a	20120419.122906	20120419.122928	dt-shadow	8	0.013328	60	10	60-180	60	130	GapExp	1	4	2	0	0	target	0	561	-1000	20611	13.327	12.880	13.765
TrackDT01	3	TrackDT	1.0	SCS215a	20120419.122906	20120419.122934	dt-shadow	8	0.013328	60	10	60-180	60	121	GapExp	1	5	2	30	0	distractor	1	584	708	21319	13.328	12.970	13.696
TrackDT01	3	TrackDT	1.0	SCS215a	20120419.122906	20120419.122940	dt-shadow	8	0.013328	60	10	60-180	60	85	GapExp	1	6	2	1	1	target	1	348	826	22145	13.328	12.888	13.756
TrackDT01	3	TrackDT	1.0	SCS215a	20120419.122906	20120419.122945	dt-shadow	8	0.013328	60	10	60-180	60	129	GapExp	1	7	2	30	1	target	1	434	783	22928	13.328	12.883	13.773
TrackDT01	3	TrackDT	1.0	SCS215a	20120419.122906	20120419.122952	dt-shadow	8	0.013328	60	10	60-180	60	97	GapExp	1	8	2	0	1	distractor	0	399	-1000	21928	13.328	13.306	13.346
TrackDT01	3	TrackDT	1.0	SCS215a	20120419.122906	20120419.122957	dt-shadow	8	0.013328	60	10	60-180	60	113	GapExp	0	9	2	0	1	target	1	403	799	22727	13.328	12.920	13.744
TrackDT01	3	TrackDT	1.0	SCS215a	20120419.122906	20120419.123002	dt-shadow	8	0.013328	60	10	60-180	60	133	GapExp	0	10	2	3	1	target	1	374	813	23540	13.328	12.902	13.765
TrackDT01	3	TrackDT	1.0	SCS215a	20120419.122906	20120419.123008	dt-shadow	8	0.013328	60	10	60-180	60	163	GapExp	0	11	2	0	1	target	1	430	785	24325	13.328	12.917	13.740
TrackDT01	3	TrackDT	1.0	SCS215a	20120419.122906	20120419.123014	dt-shadow	8	0.013328	60	10	60-180	60	73	GapExp	0	12	2	30	1	target	1	423	789	25114	13.328	12.864	13.796
TrackDT01	3	TrackDT	1.0	SCS215a	20120419.122906	20120419.123019	dt-shadow	8	0.013328	60	10	60-180	60	111	GapExp	0	13	2	3	0	target	0	719	-1000	24114	13.328	13.304	13.346
TrackDT01	3	TrackDT	1.0	SCS215a	20120419.122906	20120419.123025	dt-shadow	8	0.013328	60	10	60-180	60	100	GapExp	0	14	2	3	1	target	1	437	782	24896	13.328	13.027	13.636
TrackDT01	3	TrackDT	1.0	SCS215a	20120419.122906	20120419.123030	dt-shadow	8	0.013328	60	10	60-180	60	71	GapExp	0	15	2	1	1	target	1	678	661	25557	13.328	12.952	13.703
TrackDT01	3	TrackDT	1.0	SCS215a	20120419.122906	20120419.123035	dt-shadow	8	0.013328	60	10	60-180	60	120	GapExp	0	16	2	0	0	distractor	1	909	546	26103	13.328	12.924	13.740
TrackDT01	3	TrackDT	1.0	SCS215a	20120419.122906	20120419.123041	dt-shadow	8	0.013328	60	10	60-180	60	176	GapExp	0	17	2	3	1	target	1	448	776	26879	13.328	13.298	13.352
TrackDT01	3	TrackDT	1.0	SCS215a	20120419.122906	20120419.123047	dt-shadow	8	0.013328	60	10	60-180	60	165	GapExp	0	18	2	0	1	target	1	532	734	27613	13.328	12.897	13.771
TrackDT01	3	TrackDT	1.0	SCS215a	20120419.122906	20120419.123054	dt-shadow	8	0.013328	60	10	60-180	60	151	GapExp	0	19	2	0	1	target	1	716	642	28255	13.328	12.910	13.769
TrackDT01	3	TrackDT	1.0	SCS215a	20120419.122906	20120419.123100	dt-shadow	8	0.013328	60	10	60-180	60	95	GapExp	0	20	2	1	0	distractor	1	842	579	28834	13.328	13.308	13.351
TrackDT01	3	TrackDT	1.0	SCS215a	20120419.122906	20120419.123106	dt-shadow	8	0.013328	60	10	60-180	60	162	GapExp	0	21	2	1	0	target	0	466	-1000	27834	13.328	12.981	13.686
TrackDT01	3	TrackDT	1.0	SCS215a	20120419.122906	20120419.123112	dt-shadow	8	0.013328	60	10	60-180	60	121	GapExp	0	22	2	1	0	distractor	1	701	650	28484	13.328	12.894	13.763
TrackDT01	3	TrackDT	1.0	SCS215a	20120419.122906	20120419.123118	dt-shadow	8	0.013328	60	10	60-180	60	170	GapExp	0	23	2	30	1	distractor	0	566	-1000	27484	13.328	12.886	13.776
TrackDT01	3	TrackDT	1.0	SCS215a	20120419.122906	20120419.123124	dt-shadow	8	0.013328	60	10	60-180	60	81	GapExp	0	24	2	30	1	target	1	523	739	28223	13.329	13.094	13.724
TrackDT01	3	TrackDT	1.0	SCS215a	20120419.122906	20120419.123130	dt-shadow	8	0.013328	60	10	60-180	60	128	GapExp	0	25	2	0	0	distractor	1	782	609	28832	13.328	12.939	13.726
TrackDT01	3	TrackDT	1.0	SCS215a	20120419.122906	20120419.123136	dt-shadow	8	0.013328	60	10	60-180	60	163	GapExp	0	26	2	3	0	distractor	1	650	675	29507	13.328	12.844	13.806
TrackDT01	3	TrackDT	1.0	SCS215a	20120419.122906	20120419.123142	dt-shadow	8	0.013328	60	10	60-180	60	118	GapExp	0	27	2	3	0	distractor	1	628	686	30193	13.328	12.888	13.778
TrackDT01	3	TrackDT	1.0	SCS215a	20120419.122906	20120419.123148	dt-shadow	8	0.013328	60	10	60-180	60	150	GapExp	0	28	2	1	0	target	0	530	-1000	29193	13.328	13.096	13.566
TrackDT01	3	TrackDT	1.0	SCS215a	20120419.122906	20120419.123154	dt-shadow	8	0.013328	60	10	60-180	60	140	GapExp	0	29	2	30	0	distractor	1	677	662	29855	13.328	13.097	13.557
TrackDT01	3	TrackDT	1.0	SCS215a	20120419.122906	20120419.123200	dt-shadow	8	0.013328	60	10	60-180	60	100	GapExp	0	30	2	0	0	distractor	1	623	689	30544	13.328	13.276	13.382
TrackDT01	3	TrackDT	1.0	SCS215a	20120419.122906	20120419.123206	dt-shadow	8	0.013328	60	10	60-180	60	137	GapExp	0	31	2	0	0	distractor	1	567	717	31261	13.329	12.926	13.714
TrackDT01	3	TrackDT	1.0	SCS215a	20120419.122906	20120419.123212	dt-shadow	8	0.013328	60	10	60-180	60	180	GapExp	0	32	2	3	0	distractor	1	642	679	31940	13.328	12.911	13.744
TrackDT01	3	TrackDT	1.0	SCS215a	20120419.122906	20120419.123218	dt-shadow	8	0.013328	60	10	60-180	60	92	GapExp	0	33	2	3	0	distractor	1	688	656	32596	13.328	13.304	13.358
TrackDT01	3	TrackDT	1.0	SCS215a	20120419.122906	20120419.123224	dt-shadow	8	0.013328	60	10	60-180	60	165	GapExp	0	34	2	1	0	distractor	1	562	719	33315	13.328	13.308	13.352
TrackDT01	3	TrackDT	1.0	SCS215a	20120419.122906	20120419.123230	dt-shadow	8	0.013328	60	10	60-180	60	79	GapExp	0	35	2	3	0	distractor	1	652	674	33989	13.328	12.866	13.790
TrackDT01	3	TrackDT	1.0	SCS215a	20120419.122906	20120419.123235	dt-shadow	8	0.013328	60	10	60-180	60	94	GapExp	0	36	2	1	1	target	1	399	801	34790	13.328	13.269	13.395
TrackDT01	3	TrackDT	1.0	SCS215a	20120419.122906	20120419.123240	dt-shadow	8	0.013328	60	10	60-180	60	127	GapExp	0	37	2	0	0	distractor	1	549	726	35516	13.328	12.877	13.772
TrackDT01	3	TrackDT	1.0	SCS215a	20120419.122906	20120419.123246	dt-shadow	8	0.013328	60	10	60-180	60	73	GapExp	0	38	2	1	0	distractor	1	488	756	36272	13.328	13.021	13.624
TrackDT01	3	TrackDT	1.0	SCS215a	20120419.122906	20120419.123251	dt-shadow	8	0.013328	60	10	60-180	60	159	GapExp	0	39	2	0	0	distractor	1	602	699	36971	13.327	13.035	13.608
TrackDT01	3	TrackDT	1.0	SCS215a	20120419.122906	20120419.123257	dt-shadow	8	0.013328	60	10	60-180	60	115	GapExp	0	40	2	30	1	target	1	672	664	37635	13.328	12.931	13.721
TrackDT01	3	TrackDT	1.0	SCS215a	20120419.122906	20120419.123303	dt-shadow	8	0.013328	60	10	60-180	60	111	GapExp	0	41	2	3	0	distractor	1	549	726	38361	13.328	12.863	13.806
TrackDT01	3	TrackDT	1.0	SCS215a	20120419.122906	20120419.123309	dt-shadow	8	0.013328	60	10	60-180	60	117	GapExp	0	42	2	1	0	distractor	1	649	676	39037	13.328	12.984	13.672
TrackDT01	3	TrackDT	1.0	SCS215a	20120419.122906	20120419.123314	dt-shadow	8	0.013328	60	10	60-180	60	87	GapExp	0	43	2	0	0	distractor	1	727	637	39674	13.328	12.967	13.683
TrackDT01	3	TrackDT	1.0	SCS215a	20120419.122906	20120419.123320	dt-shadow	8	0.013328	60	10	60-180	60	72	GapExp	0	44	2	30	0	target	0	737	-1000	38674	13.328	12.967	13.677
TrackDT01	3	TrackDT	1.0	SCS215a	20120419.122906	20120419.123326	dt-shadow	8	0.013328	60	10	60-180	60	78	GapExp	0	45	2	30	0	distractor	1	818	591	39265	13.328	12.881	13.792
TrackDT01	3	TrackDT	1.0	SCS215a	20120419.122906	20120419.123331	dt-shadow	8	0.013328	60	10	60-180	60	167	GapExp	0	46	2	1	0	distractor	1	659	671	39936	13.328	12.864	13.799
TrackDT01	3	TrackDT	1.0	SCS215a	20120419.122906	20120419.123338	dt-shadow	8	0.013328	60	10	60-180	60	129	GapExp	0	47	2	3	0	distractor	1	737	632	40568	13.328	13.029	13.627
TrackDT01	3	TrackDT	1.0	SCS215a	20120419.122906	20120419.123344	dt-shadow	8	0.013328	60	10	60-180	60	94	GapExp	0	48	2	3	1	target	1	682	659	41227	13.328	13.307	13.349
TrackDT01	3	TrackDT	1.0	SCS215a	20120419.122906	20120419.123349	dt-shadow	8	0.013328	60	10	60-180	60	156	GapExp	0	49	2	1	0	target	0	663	-1000	40227	13.328	13.174	13.474
TrackDT01	3	TrackDT	1.0	SCS215a	20120419.122906	20120419.123356	dt-shadow	8	0.013328	60	10	60-180	60	122	GapExp	0	50	2	1	0	target	0	548	-1000	39227	13.328	13.055	13.606
TrackDT01	3	TrackDT	1.0	SCS215a	20120419.122906	20120419.123432	dt-shadow	8	0.013328	60	10	60-180	60	156	GapExp	0	51	2	3	0	distractor	1	589	706	39933	13.328	12.885	13.788
TrackDT01	3	TrackDT	1.0	SCS215a	20120419.122906	20120419.123439	dt-shadow	8	0.013328	60	10	60-180	60	155	GapExp	0	52	2	0	0	distractor	1	544	728	40661	13.328	12.886	13.774
TrackDT01	3	TrackDT	1.0	SCS215a	20120419.122906	20120419.123445	dt-shadow	8	0.013328	60	10	60-180	60	177	GapExp	0	53	2	0	1	target	1	379	811	41472	13.328	12.865	13.807
TrackDT01	3	TrackDT	1.0	SCS215a	20120419.122906	20120419.123451	dt-shadow	8	0.013328	60	10	60-180	60	176	GapExp	0	54	2	30	0	distractor	1	518	741	42213	13.328	13.215	13.453
TrackDT01	3	TrackDT	1.0	SCS215a	20120419.122906	20120419.123457	dt-shadow	8	0.013328	60	10	60-180	60	147	GapExp	0	55	2	30	1	target	1	563	719	42932	13.328	12.862	13.776
TrackDT01	3	TrackDT	1.0	SCS215a	20120419.122906	20120419.123504	dt-shadow	8	0.013328	60	10	60-180	60	126	GapExp	0	56	2	3	1	target	1	341	830	43762	13.328	12.881	13.768
TrackDT01	3	TrackDT	1.0	SCS215a	20120419.122906	20120419.123510	dt-shadow	8	0.013328	60	10	60-180	60	67	GapExp	0	57	2	0	1	target	1	585	708	44470	13.328	13.107	13.552
TrackDT01	3	TrackDT	1.0	SCS215a	20120419.122906	20120419.123515	dt-shadow	8	0.013328	60	10	60-180	60	155	GapExp	0	58	2	3	1	target	1	379	811	45281	13.328	12.905	13.755
TrackDT01	3	TrackDT	1.0	SCS215a	20120419.122906	20120419.123521	dt-shadow	8	0.013328	60	10	60-180	60	61	GapExp	0	59	2	0	1	target	1	370	815	46096	13.328	13.278	13.378
TrackDT01	3	TrackDT	1.0	SCS215a	20120419.122906	20120419.123525	dt-shadow	8	0.013328	60	10	60-180	60	83	GapExp	0	60	2	3	1	target	1	255	873	46969	13.328	12.929	13.727
TrackDT01	3	TrackDT	1.0	SCS215a	20120419.122906	20120419.123530	dt-shadow	8	0.013328	60	10	60-180	60	130	GapExp	0	61	2	30	1	target	1	633	684	47653	13.328	12.870	13.774
TrackDT01	3	TrackDT	1.0	SCS215a	20120419.122906	20120419.123536	dt-shadow	8	0.013328	60	10	60-180	60	149	GapExp	0	62	2	1	1	target	1	401	800	48453	13.328	13.101	13.551
TrackDT01	3	TrackDT	1.0	SCS215a	20120419.122906	20120419.123543	dt-shadow	8	0.013328	60	10	60-180	60	147	GapExp	0	63	2	1	0	distractor	1	517	742	49195	13.328	13.085	13.564
TrackDT01	3	TrackDT	1.0	SCS215a	20120419.122906	20120419.123549	dt-shadow	8	0.013328	60	10	60-180	60	105	GapExp	0	64	2	30	1	target	1	522	739	49934	13.328	13.307	13.350
TrackDT01	3	TrackDT	1.0	SCS215a	20120419.122906	20120419.123554	dt-shadow	8	0.013328	60	10	60-180	60	140	GapExp	0	65	2	3	1	target	1	463	769	50703	13.328	12.980	13.682
TrackDT01	3	TrackDT	1.0	SCS215a	20120419.122906	20120419.123600	dt-shadow	8	0.013328	60	10	60-180	60	108	GapExp	0	66	2	1	0	distractor	1	686	657	51360	13.328	12.942	13.716
TrackDT01	3	TrackDT	1.0	SCS215a	20120419.122906	20120419.123606	dt-shadow	8	0.013328	60	10	60-180	60	179	GapExp	0	67	2	3	1	target	1	431	785	52145	13.328	12.982	13.669
TrackDT01	3	TrackDT	1.0	SCS215a	20120419.122906	20120419.123612	dt-shadow	8	0.013328	60	10	60-180	60	73	GapExp	0	68	2	30	1	target	1	591	705	52850	13.328	13.102	13.544
TrackDT01	3	TrackDT	1.0	SCS215a	20120419.122906	20120419.123618	dt-shadow	8	0.013328	60	10	60-180	60	163	GapExp	0	69	2	3	0	distractor	1	652	674	53524	13.328	12.840	13.808
TrackDT01	3	TrackDT	1.0	SCS215a	20120419.122906	20120419.123624	dt-shadow	8	0.013328	60	10	60-180	60	142	GapExp	0	70	2	3	1	distractor	0	628	-1000	52524	13.328	12.992	13.665
TrackDT01	3	TrackDT	1.0	SCS215a	20120419.122906	20120419.123630	dt-shadow	8	0.013328	60	10	60-180	60	132	GapExp	0	71	2	0	1	target	1	308	846	53370	13.328	12.899	13.745
TrackDT01	3	TrackDT	1.0	SCS215a	20120419.122906	20120419.123636	dt-shadow	8	0.013328	60	10	60-180	60	155	GapExp	0	72	2	3	1	target	1	461	770	54140	13.328	12.969	13.701
TrackDT01	3	TrackDT	1.0	SCS215a	20120419.122906	20120419.123642	dt-shadow	8	0.013328	60	10	60-180	60	69	GapExp	0	73	2	1	1	target	1	308	846	54986	13.328	12.936	13.724
TrackDT01	3	TrackDT	1.0	SCS215a	20120419.122906	20120419.123647	dt-shadow	8	0.013328	60	10	60-180	60	166	GapExp	0	74	2	3	1	target	1	296	852	55838	13.328	12.913	13.738
TrackDT01	3	TrackDT	1.0	SCS215a	20120419.122906	20120419.123653	dt-shadow	8	0.013328	60	10	60-180	60	141	GapExp	0	75	2	1	0	target	0	509	-1000	54838	13.328	12.896	13.780
TrackDT01	3	TrackDT	1.0	SCS215a	20120419.122906	20120419.123659	dt-shadow	8	0.013328	60	10	60-180	60	90	GapExp	0	76	2	30	1	target	1	471	765	55603	13.328	12.932	13.725
TrackDT01	3	TrackDT	1.0	SCS215a	20120419.122906	20120419.123704	dt-shadow	8	0.013328	60	10	60-180	60	79	GapExp	0	77	2	3	0	target	0	413	-1000	54603	13.328	12.881	13.792
TrackDT01	3	TrackDT	1.0	SCS215a	20120419.122906	20120419.123709	dt-shadow	8	0.013328	60	10	60-180	60	125	GapExp	0	78	2	0	1	target	1	287	857	55460	13.328	12.942	13.714
TrackDT01	3	TrackDT	1.0	SCS215a	20120419.122906	20120419.123715	dt-shadow	8	0.013328	60	10	60-180	60	138	GapExp	0	79	2	1	0	distractor	1	510	745	56205	13.328	12.884	13.781
TrackDT01	3	TrackDT	1.0	SCS215a	20120419.122906	20120419.123721	dt-shadow	8	0.013328	60	10	60-180	60	131	GapExp	0	80	2	0	0	target	0	851	-1000	55205	13.328	12.884	13.772
TrackDT01	3	TrackDT	1.0	SCS215a	20120419.122906	20120419.123727	dt-shadow	8	0.013328	60	10	60-180	60	122	GapExp	0	81	2	30	0	distractor	1	616	692	55897	13.328	13.306	13.352
TrackDT01	3	TrackDT	1.0	SCS215a	20120419.122906	20120419.123733	dt-shadow	8	0.013328	60	10	60-180	60	173	GapExp	0	82	2	0	1	target	1	408	796	56693	13.328	12.940	13.717
TrackDT01	3	TrackDT	1.0	SCS215a	20120419.122906	20120419.123739	dt-shadow	8	0.013328	60	10	60-180	60	115	GapExp	0	83	2	1	0	distractor	1	484	758	57451	13.328	12.875	13.795
TrackDT01	3	TrackDT	1.0	SCS215a	20120419.122906	20120419.123745	dt-shadow	8	0.013328	60	10	60-180	60	138	GapExp	0	84	2	0	1	target	1	297	852	58303	13.328	13.097	13.561
TrackDT01	3	TrackDT	1.0	SCS215a	20120419.122906	20120419.123750	dt-shadow	8	0.013328	60	10	60-180	60	107	GapExp	0	85	2	0	1	target	1	392	804	59107	13.328	13.051	13.619
TrackDT01	3	TrackDT	1.0	SCS215a	20120419.122906	20120419.123756	dt-shadow	8	0.013328	60	10	60-180	60	149	GapExp	0	86	2	1	1	target	1	321	840	59947	13.328	12.936	13.713
TrackDT01	3	TrackDT	1.0	SCS215a	20120419.122906	20120419.123802	dt-shadow	8	0.013328	60	10	60-180	60	179	GapExp	0	87	2	30	0	distractor	1	522	739	60686	13.328	12.843	13.826
TrackDT01	3	TrackDT	1.0	SCS215a	20120419.122906	20120419.123809	dt-shadow	8	0.013328	60	10	60-180	60	138	GapExp	0	88	2	0	1	target	1	329	836	61522	13.328	12.888	13.769
TrackDT01	3	TrackDT	1.0	SCS215a	20120419.122906	20120419.123814	dt-shadow	8	0.013328	60	10	60-180	60	140	GapExp	0	89	2	3	1	target	1	475	763	62285	13.328	12.857	13.793
TrackDT01	3	TrackDT	1.0	SCS215a	20120419.122906	20120419.123820	dt-shadow	8	0.013328	60	10	60-180	60	131	GapExp	0	90	2	30	1	target	1	623	689	62974	13.328	12.863	13.791
TrackDT01	3	TrackDT	1.0	SCS215a	20120419.122906	20120419.123826	dt-shadow	8	0.013328	60	10	60-180	60	102	GapExp	0	91	2	0	0	target	0	550	-1000	61974	13.328	13.093	13.564
TrackDT01	3	TrackDT	1.0	SCS215a	20120419.122906	20120419.123832	dt-shadow	8	0.013328	60	10	60-180	60	103	GapExp	0	92	2	1	1	target	1	601	700	62674	13.328	12.954	13.700
TrackDT01	3	TrackDT	1.0	SCS215a	20120419.122906	20120419.123838	dt-shadow	8	0.013328	60	10	60-180	60	75	GapExp	0	93	2	1	1	target	1	392	804	63478	13.328	13.118	13.529
TrackDT01	3	TrackDT	1.0	SCS215a	20120419.122906	20120419.123843	dt-shadow	8	0.013328	60	10	60-180	60	133	GapExp	0	94	2	3	1	target	1	480	760	64238	13.328	12.868	13.797
TrackDT01	3	TrackDT	1.0	SCS215a	20120419.122906	20120419.123848	dt-shadow	8	0.013328	60	10	60-180	60	95	GapExp	0	95	2	0	0	distractor	1	674	663	64901	13.328	12.997	13.659
TrackDT01	3	TrackDT	1.0	SCS215a	20120419.122906	20120419.123854	dt-shadow	8	0.013328	60	10	60-180	60	145	GapExp	0	96	2	30	0	distractor	1	722	639	65540	13.328	12.857	13.792
TrackDT01	3	TrackDT	1.0	SCS215a	20120419.122906	20120419.123900	dt-shadow	8	0.013328	60	10	60-180	60	172	GapExp	0	97	2	1	1	target	1	567	717	66257	13.328	13.015	13.656
TrackDT01	3	TrackDT	1.0	SCS215a	20120419.122906	20120419.123907	dt-shadow	8	0.013328	60	10	60-180	60	129	GapExp	0	98	2	1	0	target	0	529	-1000	65257	13.328	12.984	13.665
TrackDT01	3	TrackDT	1.0	SCS215a	20120419.122906	20120419.123913	dt-shadow	8	0.013328	60	10	60-180	60	161	GapExp	0	99	2	30	1	target	1	407	797	66054	13.328	13.305	13.348
TrackDT01	3	TrackDT	1.0	SCS215a	20120419.122906	20120419.123919	dt-shadow	8	0.013328	60	10	60-180	60	175	GapExp	0	100	2	30	1	target	1	485	758	66812	13.328	12.972	13.678
TrackDT01	3	TrackDT	1.0	SCS215a	20120419.122906	20120419.124010	dt-shadow	8	0.013328	60	10	60-180	60	99	GapExp	0	101	2	30	0	distractor	1	514	743	67555	13.328	13.098	13.558
TrackDT01	3	TrackDT	1.0	SCS215a	20120419.122906	20120419.124016	dt-shadow	8	0.013328	60	10	60-180	60	75	GapExp	0	102	2	1	1	target	1	325	838	68393	13.328	12.915	13.746
TrackDT01	3	TrackDT	1.0	SCS215a	20120419.122906	20120419.124021	dt-shadow	8	0.013328	60	10	60-180	60	111	GapExp	0	103	2	1	1	target	1	430	785	69178	13.328	13.051	13.600
TrackDT01	3	TrackDT	1.0	SCS215a	20120419.122906	20120419.124026	dt-shadow	8	0.013328	60	10	60-180	60	88	GapExp	0	104	2	3	0	target	0	556	-1000	68178	13.328	13.132	13.594
TrackDT01	3	TrackDT	1.0	SCS215a	20120419.122906	20120419.124031	dt-shadow	8	0.013328	60	10	60-180	60	93	GapExp	0	105	2	3	1	target	1	382	809	68987	13.328	13.100	13.562
TrackDT01	3	TrackDT	1.0	SCS215a	20120419.122906	20120419.124036	dt-shadow	8	0.013328	60	10	60-180	60	151	GapExp	0	106	2	3	0	distractor	1	472	764	69751	13.328	13.303	13.350
TrackDT01	3	TrackDT	1.0	SCS215a	20120419.122906	20120419.124042	dt-shadow	8	0.013328	60	10	60-180	60	97	GapExp	0	107	2	30	1	target	1	651	675	70426	13.328	13.302	13.345
TrackDT01	3	TrackDT	1.0	SCS215a	20120419.122906	20120419.124049	dt-shadow	8	0.013328	60	10	60-180	60	133	GapExp	0	108	2	3	1	target	1	307	847	71273	13.328	12.987	13.662
TrackDT01	3	TrackDT	1.0	SCS215a	20120419.122906	20120419.124054	dt-shadow	8	0.013328	60	10	60-180	60	143	GapExp	0	109	2	30	0	distractor	1	588	706	71979	13.328	12.865	13.799
TrackDT01	3	TrackDT	1.0	SCS215a	20120419.122906	20120419.124101	dt-shadow	8	0.013328	60	10	60-180	60	138	GapExp	0	110	2	0	0	target	0	758	-1000	70979	13.328	12.855	13.786
TrackDT01	3	TrackDT	1.0	SCS215a	20120419.122906	20120419.124107	dt-shadow	8	0.013328	60	10	60-180	60	169	GapExp	0	111	2	3	0	distractor	1	450	775	71754	13.328	13.105	13.544
TrackDT01	3	TrackDT	1.0	SCS215a	20120419.122906	20120419.124113	dt-shadow	8	0.013328	60	10	60-180	60	77	GapExp	0	112	2	0	1	target	1	329	836	72590	13.328	13.112	13.545
TrackDT01	3	TrackDT	1.0	SCS215a	20120419.122906	20120419.124118	dt-shadow	8	0.013328	60	10	60-180	60	125	GapExp	0	113	2	30	1	target	1	328	836	73426	13.328	13.309	13.348
TrackDT01	3	TrackDT	1.0	SCS215a	20120419.122906	20120419.124124	dt-shadow	8	0.013328	60	10	60-180	60	123	GapExp	0	114	2	0	1	target	1	315	843	74269	13.328	13.155	13.502
TrackDT01	3	TrackDT	1.0	SCS215a	20120419.122906	20120419.124129	dt-shadow	8	0.013328	60	10	60-180	60	61	GapExp	0	115	2	1	1	target	1	296	852	75121	13.328	12.954	13.689
TrackDT01	3	TrackDT	1.0	SCS215a	20120419.122906	20120419.124134	dt-shadow	8	0.013328	60	10	60-180	60	157	GapExp	0	116	2	1	1	target	1	314	843	75964	13.328	12.866	13.802
TrackDT01	3	TrackDT	1.0	SCS215a	20120419.122906	20120419.124140	dt-shadow	8	0.013328	60	10	60-180	60	93	GapExp	0	117	2	1	1	target	1	354	823	76787	13.328	13.307	13.346
TrackDT01	3	TrackDT	1.0	SCS215a	20120419.122906	20120419.124145	dt-shadow	8	0.013328	60	10	60-180	60	130	GapExp	0	118	2	0	1	target	1	366	817	77604	13.328	12.869	13.775
TrackDT01	3	TrackDT	1.0	SCS215a	20120419.122906	20120419.124150	dt-shadow	8	0.013328	60	10	60-180	60	97	GapExp	0	119	2	30	0	distractor	1	539	731	78335	13.328	12.999	13.642
TrackDT01	3	TrackDT	1.0	SCS215a	20120419.122906	20120419.124157	dt-shadow	8	0.013328	60	10	60-180	60	110	GapExp	0	120	2	0	1	target	1	327	837	79172	13.328	12.915	13.737
TrackDT01	3	TrackDT	1.0	SCS215a	20120419.122906	20120419.124202	dt-shadow	8	0.013328	60	10	60-180	60	61	GapExp	0	121	2	0	0	target	0	387	-1000	78172	13.328	12.948	13.702
TrackDT01	3	TrackDT	1.0	SCS215a	20120419.122906	20120419.124206	dt-shadow	8	0.013328	60	10	60-180	60	175	GapExp	0	122	2	3	0	target	0	502	-1000	77172	13.328	12.881	13.776
TrackDT01	3	TrackDT	1.0	SCS215a	20120419.122906	20120419.124213	dt-shadow	8	0.013328	60	10	60-180	60	144	GapExp	0	123	2	30	1	target	1	394	803	77975	13.328	13.154	13.504
TrackDT01	3	TrackDT	1.0	SCS215a	20120419.122906	20120419.124219	dt-shadow	8	0.013328	60	10	60-180	60	64	GapExp	0	124	2	0	0	distractor	1	637	682	78657	13.328	12.878	13.797
TrackDT01	3	TrackDT	1.0	SCS215a	20120419.122906	20120419.124224	dt-shadow	8	0.013328	60	10	60-180	60	73	GapExp	0	125	2	3	0	target	0	639	-1000	77657	13.328	13.099	13.553
TrackDT01	3	TrackDT	1.0	SCS215a	20120419.122906	20120419.124229	dt-shadow	8	0.013328	60	10	60-180	60	180	GapExp	0	126	2	30	0	distractor	1	656	672	78329	13.328	12.857	13.790
TrackDT01	3	TrackDT	1.0	SCS215a	20120419.122906	20120419.124236	dt-shadow	8	0.013328	60	10	60-180	60	144	GapExp	0	127	2	0	0	distractor	1	654	673	79002	13.328	13.302	13.362
TrackDT01	3	TrackDT	1.0	SCS215a	20120419.122906	20120419.124242	dt-shadow	8	0.013328	60	10	60-180	60	79	GapExp	0	128	2	3	0	distractor	1	697	652	79654	13.328	13.304	13.357
TrackDT01	3	TrackDT	1.0	SCS215a	20120419.122906	20120419.124247	dt-shadow	8	0.013328	60	10	60-180	60	158	GapExp	0	129	2	1	1	target	1	315	843	80497	13.328	12.860	13.813
TrackDT01	3	TrackDT	1.0	SCS215a	20120419.122906	20120419.124253	dt-shadow	8	0.013328	60	10	60-180	60	153	GapExp	0	130	2	1	0	distractor	1	555	723	81220	13.328	12.981	13.683
TrackDT01	3	TrackDT	1.0	SCS215a	20120419.122906	20120419.124300	dt-shadow	8	0.013328	60	10	60-180	60	76	GapExp	0	131	2	30	0	target	0	477	-1000	80220	13.328	12.908	13.769
TrackDT01	3	TrackDT	1.0	SCS215a	20120419.122906	20120419.124305	dt-shadow	8	0.013328	60	10	60-180	60	140	GapExp	0	132	2	30	0	distractor	1	933	534	80754	13.328	12.869	13.788
TrackDT01	3	TrackDT	1.0	SCS215a	20120419.122906	20120419.124312	dt-shadow	8	0.013328	60	10	60-180	60	65	GapExp	0	133	2	1	0	target	0	548	-1000	79754	13.328	13.055	13.594
TrackDT01	3	TrackDT	1.0	SCS215a	20120419.122906	20120419.124317	dt-shadow	8	0.013328	60	10	60-180	60	177	GapExp	0	134	2	0	1	target	1	515	743	80497	13.329	12.850	13.813
TrackDT01	3	TrackDT	1.0	SCS215a	20120419.122906	20120419.124323	dt-shadow	8	0.013328	60	10	60-180	60	121	GapExp	0	135	2	30	0	distractor	1	608	696	81193	13.328	13.068	13.589
TrackDT01	3	TrackDT	1.0	SCS215a	20120419.122906	20120419.124329	dt-shadow	8	0.013328	60	10	60-180	60	95	GapExp	0	136	2	3	1	target	1	407	797	81990	13.328	12.944	13.735
TrackDT01	3	TrackDT	1.0	SCS215a	20120419.122906	20120419.124335	dt-shadow	8	0.013328	60	10	60-180	60	121	GapExp	0	137	2	3	0	distractor	1	555	723	82713	13.328	12.903	13.782
TrackDT01	3	TrackDT	1.0	SCS215a	20120419.122906	20120419.124340	dt-shadow	8	0.013328	60	10	60-180	60	69	GapExp	0	138	2	0	1	target	1	482	759	83472	13.328	12.937	13.707
TrackDT01	3	TrackDT	1.0	SCS215a	20120419.122906	20120419.124345	dt-shadow	8	0.013328	60	10	60-180	60	170	GapExp	0	139	2	1	1	target	1	488	756	84228	13.328	13.301	13.356
TrackDT01	3	TrackDT	1.0	SCS215a	20120419.122906	20120419.124351	dt-shadow	8	0.013328	60	10	60-180	60	119	GapExp	0	140	2	0	0	distractor	1	621	690	84918	13.328	13.307	13.349
TrackDT01	3	TrackDT	1.0	SCS215a	20120419.122906	20120419.124357	dt-shadow	8	0.013328	60	10	60-180	60	73	GapExp	0	141	2	1	0	distractor	1	616	692	85610	13.328	13.164	13.478
TrackDT01	3	TrackDT	1.0	SCS215a	20120419.122906	20120419.124402	dt-shadow	8	0.013328	60	10	60-180	60	64	GapExp	0	142	2	0	0	distractor	1	657	672	86282	13.328	12.862	13.797
TrackDT01	3	TrackDT	1.0	SCS215a	20120419.122906	20120419.124407	dt-shadow	8	0.013328	60	10	60-180	60	163	GapExp	0	143	2	30	0	distractor	1	554	723	87005	13.328	12.946	13.709
TrackDT01	3	TrackDT	1.0	SCS215a	20120419.122906	20120419.124414	dt-shadow	8	0.013328	60	10	60-180	60	131	GapExp	0	144	2	0	0	distractor	1	577	712	87717	13.328	13.022	13.631
TrackDT01	3	TrackDT	1.0	SCS215a	20120419.122906	20120419.124420	dt-shadow	8	0.013328	60	10	60-180	60	115	GapExp	0	145	2	30	1	target	1	598	701	88418	13.328	13.303	13.360
TrackDT01	3	TrackDT	1.0	SCS215a	20120419.122906	20120419.124426	dt-shadow	8	0.013328	60	10	60-180	60	169	GapExp	0	146	2	30	1	target	1	363	819	89237	13.328	12.955	13.693
TrackDT01	3	TrackDT	1.0	SCS215a	20120419.122906	20120419.124432	dt-shadow	8	0.013328	60	10	60-180	60	178	GapExp	0	147	2	1	0	distractor	1	555	723	89960	13.328	12.880	13.771
TrackDT01	3	TrackDT	1.0	SCS215a	20120419.122906	20120419.124439	dt-shadow	8	0.013328	60	10	60-180	60	113	GapExp	0	148	2	0	0	distractor	1	713	644	90604	13.328	12.936	13.737
TrackDT01	3	TrackDT	1.0	SCS215a	20120419.122906	20120419.124445	dt-shadow	8	0.013328	60	10	60-180	60	102	GapExp	0	149	2	30	0	target	0	1128	-1000	89604	13.328	13.078	13.573
TrackDT01	3	TrackDT	1.0	SCS215a	20120419.122906	20120419.124451	dt-shadow	8	0.013328	60	10	60-180	60	78	GapExp	0	150	2	0	1	target	1	600	700	90304	13.328	12.836	13.818
TrackDT01	3	TrackDT	1.0	SCS215a	20120419.122906	20120419.124510	dt-shadow	8	0.013328	60	10	60-180	60	141	GapExp	0	151	2	30	0	distractor	1	691	655	90959	13.328	13.095	13.557
TrackDT01	3	TrackDT	1.0	SCS215a	20120419.122906	20120419.124517	dt-shadow	8	0.013328	60	10	60-180	60	134	GapExp	0	152	2	30	1	distractor	0	433	-1000	89959	13.328	12.882	13.778
TrackDT01	3	TrackDT	1.0	SCS215a	20120419.122906	20120419.124523	dt-shadow	8	0.013328	60	10	60-180	60	167	GapExp	0	153	2	0	1	target	1	326	837	90796	13.328	12.886	13.766
TrackDT01	3	TrackDT	1.0	SCS215a	20120419.122906	20120419.124529	dt-shadow	8	0.013328	60	10	60-180	60	63	GapExp	0	154	2	30	1	target	1	320	840	91636	13.328	13.304	13.360
TrackDT01	3	TrackDT	1.0	SCS215a	20120419.122906	20120419.124534	dt-shadow	8	0.013328	60	10	60-180	60	153	GapExp	0	155	2	30	0	distractor	1	1399	301	91937	13.328	13.041	13.608
TrackDT01	3	TrackDT	1.0	SCS215a	20120419.122906	20120419.124541	dt-shadow	8	0.013328	60	10	60-180	60	82	GapExp	0	156	2	0	0	distractor	1	799	601	92538	13.328	13.013	13.640
TrackDT01	3	TrackDT	1.0	SCS215a	20120419.122906	20120419.124547	dt-shadow	8	0.013328	60	10	60-180	60	147	GapExp	0	157	2	1	0	distractor	1	498	751	93289	13.328	12.962	13.688
TrackDT01	3	TrackDT	1.0	SCS215a	20120419.122906	20120419.124553	dt-shadow	8	0.013328	60	10	60-180	60	165	GapExp	0	158	2	1	1	target	1	436	782	94071	13.328	13.308	13.346
TrackDT01	3	TrackDT	1.0	SCS215a	20120419.122906	20120419.124559	dt-shadow	8	0.013328	60	10	60-180	60	91	GapExp	0	159	2	0	0	distractor	1	523	739	94810	13.328	12.861	13.809
TrackDT01	3	TrackDT	1.0	SCS215a	20120419.122906	20120419.124604	dt-shadow	8	0.013328	60	10	60-180	60	102	GapExp	0	160	2	3	0	target	0	493	-1000	93810	13.328	12.854	13.787
TrackDT01	3	TrackDT	1.0	SCS215a	20120419.122906	20120419.124610	dt-shadow	8	0.013328	60	10	60-180	60	154	GapExp	0	161	2	30	1	target	1	625	688	94498	13.328	13.308	13.349
TrackDT01	3	TrackDT	1.0	SCS215a	20120419.122906	20120419.124616	dt-shadow	8	0.013328	60	10	60-180	60	135	GapExp	0	162	2	30	0	distractor	1	433	784	95282	13.328	13.098	13.565
TrackDT01	3	TrackDT	1.0	SCS215a	20120419.122906	20120419.124623	dt-shadow	8	0.013328	60	10	60-180	60	175	GapExp	0	163	2	3	0	target	0	435	-1000	94282	13.328	12.876	13.765
TrackDT01	3	TrackDT	1.0	SCS215a	20120419.122906	20120419.124629	dt-shadow	8	0.013328	60	10	60-180	60	109	GapExp	0	164	2	1	1	target	1	523	739	95021	13.328	13.308	13.349
TrackDT01	3	TrackDT	1.0	SCS215a	20120419.122906	20120419.124634	dt-shadow	8	0.013328	60	10	60-180	60	170	GapExp	0	165	2	1	0	distractor	1	614	693	95714	13.328	12.926	13.732
TrackDT01	3	TrackDT	1.0	SCS215a	20120419.122906	20120419.124641	dt-shadow	8	0.013328	60	10	60-180	60	89	GapExp	0	166	2	0	0	distractor	1	995	503	96217	13.328	12.859	13.795
TrackDT01	3	TrackDT	1.0	SCS215a	20120419.122906	20120419.124646	dt-shadow	8	0.013328	60	10	60-180	60	94	GapExp	0	167	2	3	0	distractor	1	607	697	96914	13.328	12.938	13.731
TrackDT01	3	TrackDT	1.0	SCS215a	20120419.122906	20120419.124652	dt-shadow	8	0.013328	60	10	60-180	60	177	GapExp	0	168	2	30	0	target	0	471	-1000	95914	13.328	13.308	13.345
TrackDT01	3	TrackDT	1.0	SCS215a	20120419.122906	20120419.124659	dt-shadow	8	0.013328	60	10	60-180	60	112	GapExp	0	169	2	1	1	target	1	297	852	96766	13.328	12.850	13.804
TrackDT01	3	TrackDT	1.0	SCS215a	20120419.122906	20120419.124704	dt-shadow	8	0.013328	60	10	60-180	60	122	GapExp	0	170	2	1	0	distractor	1	652	674	97440	13.328	13.107	13.560
TrackDT01	3	TrackDT	1.0	SCS215a	20120419.122906	20120419.124710	dt-shadow	8	0.013328	60	10	60-180	60	147	GapExp	0	171	2	1	1	target	1	549	726	98166	13.328	13.099	13.545
TrackDT01	3	TrackDT	1.0	SCS215a	20120419.122906	20120419.124716	dt-shadow	8	0.013328	60	10	60-180	60	120	GapExp	0	172	2	1	1	target	1	473	764	98930	13.328	13.308	13.348
TrackDT01	3	TrackDT	1.0	SCS215a	20120419.122906	20120419.124721	dt-shadow	8	0.013328	60	10	60-180	60	67	GapExp	0	173	2	30	0	distractor	1	721	640	99570	13.328	12.855	13.802
TrackDT01	3	TrackDT	1.0	SCS215a	20120419.122906	20120419.124727	dt-shadow	8	0.013328	60	10	60-180	60	82	GapExp	0	174	2	3	0	distractor	1	506	747	100317	13.328	13.308	13.354
TrackDT01	3	TrackDT	1.0	SCS215a	20120419.122906	20120419.124732	dt-shadow	8	0.013328	60	10	60-180	60	124	GapExp	0	175	2	30	0	distractor	1	554	723	101040	13.328	12.915	13.735
TrackDT01	3	TrackDT	1.0	SCS215a	20120419.122906	20120419.124738	dt-shadow	8	0.013328	60	10	60-180	60	119	GapExp	0	176	2	0	0	distractor	1	615	693	101733	13.328	12.957	13.692
TrackDT01	3	TrackDT	1.0	SCS215a	20120419.122906	20120419.124744	dt-shadow	8	0.013328	60	10	60-180	60	133	GapExp	0	177	2	0	1	target	1	381	810	102543	13.328	13.094	13.557
TrackDT01	3	TrackDT	1.0	SCS215a	20120419.122906	20120419.124750	dt-shadow	8	0.013328	60	10	60-180	60	83	GapExp	0	178	2	3	1	target	1	740	630	103173	13.328	12.871	13.775
TrackDT01	3	TrackDT	1.0	SCS215a	20120419.122906	20120419.124755	dt-shadow	8	0.013328	60	10	60-180	60	125	GapExp	0	179	2	0	0	distractor	1	640	680	103853	13.328	13.286	13.370
TrackDT01	3	TrackDT	1.0	SCS215a	20120419.122906	20120419.124801	dt-shadow	8	0.013328	60	10	60-180	60	74	GapExp	0	180	2	30	1	target	1	444	778	104631	13.328	13.113	13.550
TrackDT01	3	TrackDT	1.0	SCS215a	20120419.122906	20120419.124806	dt-shadow	8	0.013328	60	10	60-180	60	139	GapExp	0	181	2	1	1	target	1	585	708	105339	13.328	12.960	13.700
TrackDT01	3	TrackDT	1.0	SCS215a	20120419.122906	20120419.124812	dt-shadow	8	0.013328	60	10	60-180	60	113	GapExp	0	182	2	3	1	target	1	424	788	106127	13.328	13.113	13.538
TrackDT01	3	TrackDT	1.0	SCS215a	20120419.122906	20120419.124818	dt-shadow	8	0.013328	60	10	60-180	60	70	GapExp	0	183	2	1	0	distractor	1	738	631	106758	13.328	12.886	13.772
TrackDT01	3	TrackDT	1.0	SCS215a	20120419.122906	20120419.124823	dt-shadow	8	0.013328	60	10	60-180	60	103	GapExp	0	184	2	3	1	target	1	377	812	107570	13.328	13.307	13.353
TrackDT01	3	TrackDT	1.0	SCS215a	20120419.122906	20120419.124828	dt-shadow	8	0.013328	60	10	60-180	60	107	GapExp	0	185	2	30	1	target	1	356	822	108392	13.328	12.900	13.762
TrackDT01	3	TrackDT	1.0	SCS215a	20120419.122906	20120419.124834	dt-shadow	8	0.013328	60	10	60-180	60	148	GapExp	0	186	2	3	1	target	1	396	802	109194	13.328	12.945	13.710
TrackDT01	3	TrackDT	1.0	SCS215a	20120419.122906	20120419.124840	dt-shadow	8	0.013328	60	10	60-180	60	65	GapExp	0	187	2	30	0	distractor	1	620	690	109884	13.328	13.025	13.631
TrackDT01	3	TrackDT	1.0	SCS215a	20120419.122906	20120419.124845	dt-shadow	8	0.013328	60	10	60-180	60	136	GapExp	0	188	2	3	0	distractor	1	618	691	110575	13.328	12.864	13.794
TrackDT01	3	TrackDT	1.0	SCS215a	20120419.122906	20120419.124851	dt-shadow	8	0.013328	60	10	60-180	60	117	GapExp	0	189	2	3	1	target	1	377	812	111387	13.328	12.884	13.772
TrackDT01	3	TrackDT	1.0	SCS215a	20120419.122906	20120419.124856	dt-shadow	8	0.013328	60	10	60-180	60	143	GapExp	0	190	2	30	1	target	1	354	823	112210	13.328	12.875	13.768
TrackDT01	3	TrackDT	1.0	SCS215a	20120419.122906	20120419.124903	dt-shadow	8	0.013328	60	10	60-180	60	119	GapExp	0	191	2	3	1	target	1	462	769	112979	13.328	13.105	13.558
TrackDT01	3	TrackDT	1.0	SCS215a	20120419.122906	20120419.124908	dt-shadow	8	0.013328	60	10	60-180	60	138	GapExp	0	192	2	0	1	4	-3	8753	-1000	111979	13.328	13.007	13.650
TrackDT01	3	TrackDT	1.0	SCS215a	20120419.122906	20120419.124923	dt-shadow	8	0.013328	60	10	60-180	60	147	GapExp	0	193	2	1	1	target	1	297	852	112831	13.328	12.987	13.693
TrackDT01	3	TrackDT	1.0	SCS215a	20120419.122906	20120419.124929	dt-shadow	8	0.013328	60	10	60-180	60	154	GapExp	0	194	2	1	1	target	1	315	843	113674	13.328	13.302	13.356
TrackDT01	3	TrackDT	1.0	SCS215a	20120419.122906	20120419.124934	dt-shadow	8	0.013328	60	10	60-180	60	157	GapExp	0	195	2	1	1	target	1	257	872	114546	13.328	12.873	13.780
TrackDT01	3	TrackDT	1.0	SCS215a	20120419.122906	20120419.124940	dt-shadow	8	0.013328	60	10	60-180	60	177	GapExp	0	196	2	3	1	distractor	0	439	-1000	113546	13.328	12.910	13.747
TrackDT01	3	TrackDT	1.0	SCS215a	20120419.122906	20120419.124946	dt-shadow	8	0.013328	60	10	60-180	60	141	GapExp	0	197	2	30	1	target	1	347	827	114373	13.328	12.936	13.720
TrackDT01	3	TrackDT	1.0	SCS215a	20120419.122906	20120419.124953	dt-shadow	8	0.013328	60	10	60-180	60	74	GapExp	0	198	2	3	0	target	0	577	-1000	113373	13.328	12.954	13.710
TrackDT01	3	TrackDT	1.0	SCS215a	20120419.122906	20120419.124958	dt-shadow	8	0.013328	60	10	60-180	60	145	GapExp	0	199	2	30	0	distractor	1	599	701	114074	13.328	13.097	13.572
TrackDT01	3	TrackDT	1.0	SCS215a	20120419.122906	20120419.125005	dt-shadow	8	0.013328	60	10	60-180	60	141	GapExp	0	200	2	0	1	target	1	386	807	114881	13.328	12.896	13.752
TrackDT01	3	TrackDT	1.0	SCS215a	20120419.125041	20120419.125045	single-task	8	0.013328	60	10	60-180	60	145	GapPrac	1	1	2	30	0	target	0	610	-1000	113881	13.328	12.861	13.784
TrackDT01	3	TrackDT	1.0	SCS215a	20120419.125041	20120419.125052	single-task	8	0.013328	60	10	60-180	60	172	GapPrac	1	2	2	3	1	target	1	338	831	114712	13.328	12.867	13.779
TrackDT01	3	TrackDT	1.0	SCS215a	20120419.125041	20120419.125058	single-task	8	0.013328	60	10	60-180	60	89	GapPrac	1	3	2	0	1	target	1	294	853	115565	13.328	12.878	13.778
TrackDT01	3	TrackDT	1.0	SCS215a	20120419.125041	20120419.125103	single-task	8	0.013328	60	10	60-180	60	78	GapPrac	1	4	2	1	1	target	1	420	790	116355	13.328	13.002	13.642
TrackDT01	3	TrackDT	1.0	SCS215a	20120419.125041	20120419.125108	single-task	8	0.013328	60	10	60-180	60	163	GapPrac	1	5	2	30	0	distractor	1	496	752	117107	13.328	13.098	13.559
TrackDT01	3	TrackDT	1.0	SCS215a	20120419.125041	20120419.125115	single-task	8	0.013328	60	10	60-180	60	94	GapPrac	1	6	2	0	1	target	1	423	789	117896	13.328	13.106	13.559
TrackDT01	3	TrackDT	1.0	SCS215a	20120419.125041	20120419.125120	single-task	8	0.013328	60	10	60-180	60	82	GapPrac	1	7	2	1	1	target	1	327	837	118733	13.328	12.923	13.737
TrackDT01	3	TrackDT	1.0	SCS215a	20120419.125041	20120419.125125	single-task	8	0.013328	60	10	60-180	60	180	GapPrac	1	8	2	1	0	target	0	330	-1000	117733	13.328	13.307	13.349
TrackDT01	3	TrackDT	1.0	SCS215a	20120419.125041	20120419.125131	single-task	8	0.013328	60	10	60-180	60	123	GapPrac	1	9	2	1	1	target	1	428	786	118519	13.328	13.299	13.361
TrackDT01	3	TrackDT	1.0	SCS215a	20120419.125041	20120419.125137	single-task	8	0.013328	60	10	60-180	60	105	GapPrac	1	10	2	0	1	target	1	452	774	119293	13.328	12.894	13.759
TrackDT01	3	TrackDT	1.0	SCS215a	20120419.125041	20120419.125142	single-task	8	0.013328	60	10	60-180	60	125	GapPrac	1	11	2	30	0	target	0	468	-1000	118293	13.328	13.104	13.566
TrackDT01	3	TrackDT	1.0	SCS215a	20120419.125041	20120419.125148	single-task	8	0.013328	60	10	60-180	60	87	GapPrac	1	12	2	0	0	distractor	1	648	676	118969	13.328	12.867	13.793
TrackDT01	3	TrackDT	1.0	SCS215a	20120419.125041	20120419.125153	single-task	8	0.013328	60	10	60-180	60	76	GapPrac	1	13	2	30	1	target	1	470	765	119734	13.328	13.307	13.348
TrackDT01	3	TrackDT	1.0	SCS215a	20120419.125041	20120419.125159	single-task	8	0.013328	60	10	60-180	60	106	GapPrac	1	14	2	3	0	target	0	355	-1000	118734	13.328	13.309	13.349
TrackDT01	3	TrackDT	1.0	SCS215a	20120419.125041	20120419.125205	single-task	8	0.013328	60	10	60-180	60	171	GapPrac	1	15	2	0	0	distractor	1	653	674	119408	13.328	12.879	13.760
TrackDT01	3	TrackDT	1.0	SCS215a	20120419.125041	20120419.125211	single-task	8	0.013328	60	10	60-180	60	99	GapPrac	1	16	2	1	0	distractor	1	575	713	120121	13.328	13.086	13.559
TrackDT01	3	TrackDT	1.0	SCS215a	20120419.125041	20120419.125216	single-task	8	0.013328	60	10	60-180	60	90	GapPrac	1	17	2	30	1	target	1	413	794	120915	13.328	12.878	13.766
TrackDT01	3	TrackDT	1.0	SCS215a	20120419.125041	20120419.125222	single-task	8	0.013328	60	10	60-180	60	117	GapPrac	1	18	2	3	1	target	1	324	838	121753	13.328	12.904	13.753
TrackDT01	3	TrackDT	1.0	SCS215a	20120419.125041	20120419.125227	single-task	8	0.013328	60	10	60-180	60	134	GapPrac	1	19	2	3	1	target	1	377	812	122565	13.328	12.911	13.752
TrackDT01	3	TrackDT	1.0	SCS215a	20120419.125041	20120419.125233	single-task	8	0.013328	60	10	60-180	60	138	GapPrac	1	20	2	3	0	distractor	1	818	591	123156	13.328	12.905	13.757
TrackDT01	3	TrackDT	1.0	SCS215a	20120419.125251	20120419.125256	single-task	8	0.013317	60	10	60-180	60	152	GapExp	1	1	2	30	1	target	1	471	765	123921	13.328	11.546	15.104
TrackDT01	3	TrackDT	1.0	SCS215a	20120419.125251	20120419.125303	single-task	8	0.013317	60	10	60-180	60	104	GapExp	1	2	2	30	0	distractor	1	522	739	124660	13.328	13.162	13.481
TrackDT01	3	TrackDT	1.0	SCS215a	20120419.125251	20120419.125309	single-task	8	0.013317	60	10	60-180	60	175	GapExp	1	3	2	0	0	distractor	1	550	725	125385	13.328	13.281	13.367
TrackDT01	3	TrackDT	1.0	SCS215a	20120419.125251	20120419.125315	single-task	8	0.013317	60	10	60-180	60	180	GapExp	1	4	2	1	0	target	0	292	-1000	124385	13.328	9.724	16.933
TrackDT01	3	TrackDT	1.0	SCS215a	20120419.125251	20120419.125321	single-task	8	0.013317	60	10	60-180	60	174	GapExp	1	5	2	3	1	target	1	502	749	125134	13.328	13.106	13.559
TrackDT01	3	TrackDT	1.0	SCS215a	20120419.125251	20120419.125328	single-task	8	0.013317	60	10	60-180	60	116	GapExp	1	6	2	1	1	target	1	340	830	125964	13.307	8.594	15.047
TrackDT01	3	TrackDT	1.0	SCS215a	20120419.125251	20120419.125334	single-task	8	0.013317	60	10	60-180	60	105	GapExp	1	7	2	3	0	distractor	1	595	703	126667	13.328	11.586	15.065
TrackDT01	3	TrackDT	1.0	SCS215a	20120419.125251	20120419.125339	single-task	8	0.013317	60	10	60-180	60	78	GapExp	1	8	2	0	1	target	1	481	760	127427	13.328	13.308	13.347
TrackDT01	3	TrackDT	1.0	SCS215a	20120419.125251	20120419.125344	single-task	8	0.013317	60	10	60-180	60	99	GapExp	0	9	2	3	1	distractor	0	578	-1000	126427	13.328	13.308	13.346
TrackDT01	3	TrackDT	1.0	SCS215a	20120419.125251	20120419.125349	single-task	8	0.013317	60	10	60-180	60	158	GapExp	0	10	2	1	0	distractor	1	503	749	127176	13.328	8.192	18.472
TrackDT01	3	TrackDT	1.0	SCS215a	20120419.125251	20120419.125355	single-task	8	0.013317	60	10	60-180	60	123	GapExp	0	11	2	30	1	distractor	0	472	-1000	126176	13.328	7.330	19.327
TrackDT01	3	TrackDT	1.0	SCS215a	20120419.125251	20120419.125401	single-task	8	0.013317	60	10	60-180	60	169	GapExp	0	12	2	1	0	distractor	1	484	758	126934	13.328	13.081	13.570
TrackDT01	3	TrackDT	1.0	SCS215a	20120419.125251	20120419.125408	single-task	8	0.013317	60	10	60-180	60	125	GapExp	0	13	2	30	1	target	1	457	772	127706	13.328	6.230	19.223
TrackDT01	3	TrackDT	1.0	SCS215a	20120419.125251	20120419.125414	single-task	8	0.013317	60	10	60-180	60	68	GapExp	0	14	2	0	0	distractor	1	491	755	128461	13.468	5.760	30.551
TrackDT01	3	TrackDT	1.0	SCS215a	20120419.125251	20120419.125419	single-task	8	0.013317	60	10	60-180	60	163	GapExp	0	15	2	30	0	distractor	1	552	724	129185	13.328	10.671	15.985
TrackDT01	3	TrackDT	1.0	SCS215a	20120419.125251	20120419.125425	single-task	8	0.013317	60	10	60-180	60	124	GapExp	0	16	2	3	0	distractor	1	638	681	129866	13.328	7.771	18.873
TrackDT01	3	TrackDT	1.0	SCS215a	20120419.125251	20120419.125431	single-task	8	0.013317	60	10	60-180	60	75	GapExp	0	17	2	30	1	target	1	626	687	130553	13.328	7.426	19.227
TrackDT01	3	TrackDT	1.0	SCS215a	20120419.125251	20120419.125436	single-task	8	0.013317	60	10	60-180	60	104	GapExp	0	18	2	1	0	distractor	1	530	735	131288	13.386	13.307	22.031
TrackDT01	3	TrackDT	1.0	SCS215a	20120419.125251	20120419.125442	single-task	8	0.013317	60	10	60-180	60	78	GapExp	0	19	2	3	1	target	1	477	762	132050	13.328	13.308	13.349
TrackDT01	3	TrackDT	1.0	SCS215a	20120419.125251	20120419.125447	single-task	8	0.013317	60	10	60-180	60	133	GapExp	0	20	2	30	1	target	1	445	778	132828	13.328	13.303	13.348
TrackDT01	3	TrackDT	1.0	SCS215a	20120419.125251	20120419.125453	single-task	8	0.013317	60	10	60-180	60	100	GapExp	0	21	2	0	0	distractor	1	613	694	133522	13.328	7.810	18.854
TrackDT01	3	TrackDT	1.0	SCS215a	20120419.125251	20120419.125459	single-task	8	0.013317	60	10	60-180	60	84	GapExp	0	22	2	1	1	target	1	1489	256	133778	13.328	13.105	13.566
TrackDT01	3	TrackDT	1.0	SCS215a	20120419.125251	20120419.125505	single-task	8	0.013317	60	10	60-180	60	147	GapExp	0	23	2	1	1	target	1	311	845	134623	13.328	7.438	19.214
TrackDT01	3	TrackDT	1.0	SCS215a	20120419.125251	20120419.125510	single-task	8	0.013317	60	10	60-180	60	178	GapExp	0	24	2	30	0	distractor	1	470	765	135388	13.328	12.116	14.550
TrackDT01	3	TrackDT	1.0	SCS215a	20120419.125251	20120419.125518	single-task	8	0.013317	60	10	60-180	60	82	GapExp	0	25	2	30	0	distractor	1	592	704	136092	13.328	8.416	18.235
TrackDT01	3	TrackDT	1.0	SCS215a	20120419.125251	20120419.125523	single-task	8	0.013317	60	10	60-180	60	144	GapExp	0	26	2	30	1	target	1	407	797	136889	13.328	11.949	14.696
TrackDT01	3	TrackDT	1.0	SCS215a	20120419.125251	20120419.125529	single-task	8	0.013317	60	10	60-180	60	94	GapExp	0	27	2	30	0	distractor	1	651	675	137564	13.328	11.933	14.718
TrackDT01	3	TrackDT	1.0	SCS215a	20120419.125251	20120419.125535	single-task	8	0.013317	60	10	60-180	60	179	GapExp	0	28	2	0	0	target	0	694	-1000	136564	13.328	7.201	19.447
TrackDT01	3	TrackDT	1.0	SCS215a	20120419.125251	20120419.125542	single-task	8	0.013317	60	10	60-180	60	76	GapExp	0	29	2	0	1	target	1	452	774	137338	13.328	13.111	13.558
TrackDT01	3	TrackDT	1.0	SCS215a	20120419.125251	20120419.125547	single-task	8	0.013317	60	10	60-180	60	73	GapExp	0	30	2	3	0	distractor	1	473	764	138102	13.328	13.309	13.346
TrackDT01	3	TrackDT	1.0	SCS215a	20120419.125251	20120419.125552	single-task	8	0.013317	60	10	60-180	60	159	GapExp	0	31	2	3	0	distractor	1	503	749	138851	13.328	13.276	13.375
TrackDT01	3	TrackDT	1.0	SCS215a	20120419.125251	20120419.125558	single-task	8	0.013317	60	10	60-180	60	119	GapExp	0	32	2	1	0	distractor	1	571	715	139566	13.328	13.307	13.348
TrackDT01	3	TrackDT	1.0	SCS215a	20120419.125251	20120419.125604	single-task	8	0.013317	60	10	60-180	60	177	GapExp	0	33	2	1	1	target	1	692	654	140220	13.328	10.318	16.353
TrackDT01	3	TrackDT	1.0	SCS215a	20120419.125251	20120419.125610	single-task	8	0.013317	60	10	60-180	60	164	GapExp	0	34	2	0	1	target	1	519	741	140961	13.328	8.460	18.194
TrackDT01	3	TrackDT	1.0	SCS215a	20120419.125251	20120419.125616	single-task	8	0.013317	60	10	60-180	60	61	GapExp	0	35	2	0	0	distractor	1	570	715	141676	13.328	11.609	15.048
TrackDT01	3	TrackDT	1.0	SCS215a	20120419.125251	20120419.125621	single-task	8	0.013317	60	10	60-180	60	173	GapExp	0	36	2	30	1	target	1	462	769	142445	13.328	12.956	13.707
TrackDT01	3	TrackDT	1.0	SCS215a	20120419.125251	20120419.125628	single-task	8	0.013317	60	10	60-180	60	128	GapExp	0	37	2	0	0	target	0	527	-1000	141445	13.328	9.649	17.000
TrackDT01	3	TrackDT	1.0	SCS215a	20120419.125251	20120419.125634	single-task	8	0.013317	60	10	60-180	60	138	GapExp	0	38	2	1	1	target	1	467	767	142212	13.328	13.271	13.394
TrackDT01	3	TrackDT	1.0	SCS215a	20120419.125251	20120419.125639	single-task	8	0.013317	60	10	60-180	60	110	GapExp	0	39	2	1	0	target	0	325	-1000	141212	13.328	13.309	13.345
TrackDT01	3	TrackDT	1.0	SCS215a	20120419.125251	20120419.125645	single-task	8	0.013317	60	10	60-180	60	165	GapExp	0	40	2	3	0	distractor	1	459	771	141983	13.328	8.008	18.654
TrackDT01	3	TrackDT	1.0	SCS215a	20120419.125251	20120419.125651	single-task	8	0.013317	60	10	60-180	60	174	GapExp	0	41	2	1	1	target	1	303	849	142832	13.328	6.846	19.806
TrackDT01	3	TrackDT	1.0	SCS215a	20120419.125251	20120419.125657	single-task	8	0.013317	60	10	60-180	60	154	GapExp	0	42	2	3	0	distractor	1	508	746	143578	13.328	10.114	16.535
TrackDT01	3	TrackDT	1.0	SCS215a	20120419.125251	20120419.125703	single-task	8	0.013317	60	10	60-180	60	74	GapExp	0	43	2	0	1	target	1	695	653	144231	13.328	13.309	13.348
TrackDT01	3	TrackDT	1.0	SCS215a	20120419.125251	20120419.125708	single-task	8	0.013317	60	10	60-180	60	84	GapExp	0	44	2	0	0	target	0	633	-1000	143231	13.328	7.753	18.904
TrackDT01	3	TrackDT	1.0	SCS215a	20120419.125251	20120419.125714	single-task	8	0.013317	60	10	60-180	60	169	GapExp	0	45	2	3	0	distractor	1	709	646	143877	13.328	7.808	18.855
TrackDT01	3	TrackDT	1.0	SCS215a	20120419.125251	20120419.125720	single-task	8	0.013317	60	10	60-180	60	173	GapExp	0	46	2	30	0	target	0	383	-1000	142877	13.328	8.052	18.605
TrackDT01	3	TrackDT	1.0	SCS215a	20120419.125251	20120419.125726	single-task	8	0.013317	60	10	60-180	60	88	GapExp	0	47	2	3	0	distractor	1	549	726	143603	13.328	13.040	13.616
TrackDT01	3	TrackDT	1.0	SCS215a	20120419.125251	20120419.125732	single-task	8	0.013317	60	10	60-180	60	67	GapExp	0	48	2	30	0	distractor	1	754	623	144226	13.328	8.107	18.551
TrackDT01	3	TrackDT	1.0	SCS215a	20120419.125251	20120419.125738	single-task	8	0.013317	60	10	60-180	60	101	GapExp	0	49	2	1	1	target	1	378	811	145037	13.328	6.876	19.774
TrackDT01	3	TrackDT	1.0	SCS215a	20120419.125251	20120419.125743	single-task	8	0.013317	60	10	60-180	60	158	GapExp	0	50	2	1	0	distractor	1	417	792	145829	13.328	7.781	18.874
TrackDT01	3	TrackDT	1.0	SCS215a	20120419.125251	20120419.125813	single-task	8	0.013317	60	10	60-180	60	80	GapExp	0	51	2	3	1	target	1	331	835	146664	13.328	13.310	13.349
TrackDT01	3	TrackDT	1.0	SCS215a	20120419.125251	20120419.125819	single-task	8	0.013317	60	10	60-180	60	103	GapExp	0	52	2	3	1	target	1	356	822	147486	13.328	13.303	13.354
TrackDT01	3	TrackDT	1.0	SCS215a	20120419.125251	20120419.125824	single-task	8	0.013317	60	10	60-180	60	94	GapExp	0	53	2	30	0	distractor	1	546	727	148213	13.328	12.955	13.695
TrackDT01	3	TrackDT	1.0	SCS215a	20120419.125251	20120419.125830	single-task	8	0.013317	60	10	60-180	60	107	GapExp	0	54	2	0	0	distractor	1	436	782	148995	13.328	11.226	15.438
TrackDT01	3	TrackDT	1.0	SCS215a	20120419.125251	20120419.125835	single-task	8	0.013317	60	10	60-180	60	124	GapExp	0	55	2	0	0	distractor	1	579	711	149706	13.329	9.756	16.899
TrackDT01	3	TrackDT	1.0	SCS215a	20120419.125251	20120419.125840	single-task	8	0.013317	60	10	60-180	60	130	GapExp	0	56	2	0	0	target	0	979	-1000	148706	13.328	13.307	13.348
TrackDT01	3	TrackDT	1.0	SCS215a	20120419.125251	20120419.125847	single-task	8	0.013317	60	10	60-180	60	125	GapExp	0	57	2	1	1	target	1	283	859	149565	13.328	9.048	17.601
TrackDT01	3	TrackDT	1.0	SCS215a	20120419.125251	20120419.125853	single-task	8	0.013317	60	10	60-180	60	69	GapExp	0	58	2	3	0	distractor	1	486	757	150322	13.328	13.310	13.345
TrackDT01	3	TrackDT	1.0	SCS215a	20120419.125251	20120419.125857	single-task	8	0.013317	60	10	60-180	60	158	GapExp	0	59	2	3	1	target	1	487	757	151079	13.328	8.195	18.454
TrackDT01	3	TrackDT	1.0	SCS215a	20120419.125251	20120419.125904	single-task	8	0.013317	60	10	60-180	60	110	GapExp	0	60	2	30	0	distractor	1	504	748	151827	13.328	11.439	15.216
TrackDT01	3	TrackDT	1.0	SCS215a	20120419.125251	20120419.125909	single-task	8	0.013317	60	10	60-180	60	96	GapExp	0	61	2	0	1	target	1	467	767	152594	13.328	13.306	13.350
TrackDT01	3	TrackDT	1.0	SCS215a	20120419.125251	20120419.125914	single-task	8	0.013317	60	10	60-180	60	96	GapExp	0	62	2	1	0	distractor	1	570	715	153309	13.328	12.264	14.396
TrackDT01	3	TrackDT	1.0	SCS215a	20120419.125251	20120419.125920	single-task	8	0.013317	60	10	60-180	60	158	GapExp	0	63	2	0	1	target	1	374	813	154122	13.328	13.032	13.639
TrackDT01	3	TrackDT	1.0	SCS215a	20120419.125251	20120419.125926	single-task	8	0.013317	60	10	60-180	60	149	GapExp	0	64	2	1	0	distractor	1	679	661	154783	13.328	11.846	14.809
TrackDT01	3	TrackDT	1.0	SCS215a	20120419.125251	20120419.125932	single-task	8	0.013317	60	10	60-180	60	83	GapExp	0	65	2	0	1	target	1	347	827	155610	13.328	8.656	17.998
TrackDT01	3	TrackDT	1.0	SCS215a	20120419.125251	20120419.125937	single-task	8	0.013317	60	10	60-180	60	162	GapExp	0	66	2	0	1	target	1	375	813	156423	13.328	8.102	18.540
TrackDT01	3	TrackDT	1.0	SCS215a	20120419.125251	20120419.125943	single-task	8	0.013317	60	10	60-180	60	180	GapExp	0	67	2	1	0	distractor	1	615	693	157116	13.328	8.314	18.343
TrackDT01	3	TrackDT	1.0	SCS215a	20120419.125251	20120419.125950	single-task	8	0.013317	60	10	60-180	60	100	GapExp	0	68	2	30	0	distractor	1	493	754	157870	13.328	10.171	16.497
TrackDT01	3	TrackDT	1.0	SCS215a	20120419.125251	20120419.125955	single-task	8	0.013317	60	10	60-180	60	98	GapExp	0	69	2	1	1	target	1	365	818	158688	13.328	12.502	14.156
TrackDT01	3	TrackDT	1.0	SCS215a	20120419.125251	20120419.130001	single-task	8	0.013317	60	10	60-180	60	85	GapExp	0	70	2	3	0	distractor	1	530	735	159423	13.328	11.048	15.610
TrackDT01	3	TrackDT	1.0	SCS215a	20120419.125251	20120419.130006	single-task	8	0.013317	60	10	60-180	60	122	GapExp	0	71	2	3	1	target	1	509	746	160169	13.328	10.161	16.509
TrackDT01	3	TrackDT	1.0	SCS215a	20120419.125251	20120419.130012	single-task	8	0.013317	60	10	60-180	60	163	GapExp	0	72	2	3	0	distractor	1	492	754	160923	13.420	11.460	26.659
TrackDT01	3	TrackDT	1.0	SCS215a	20120419.125251	20120419.130018	single-task	8	0.013317	60	10	60-180	60	93	GapExp	0	73	2	3	0	distractor	1	626	687	161610	13.328	6.635	20.014
TrackDT01	3	TrackDT	1.0	SCS215a	20120419.125251	20120419.130023	single-task	8	0.013317	60	10	60-180	60	81	GapExp	0	74	2	1	0	target	0	599	-1000	160610	13.328	12.024	14.624
TrackDT01	3	TrackDT	1.0	SCS215a	20120419.125251	20120419.130028	single-task	8	0.013317	60	10	60-180	60	86	GapExp	0	75	2	30	1	target	1	660	670	161280	13.328	10.589	16.060
TrackDT01	3	TrackDT	1.0	SCS215a	20120419.125251	20120419.130034	single-task	8	0.013317	60	10	60-180	60	149	GapExp	0	76	2	0	1	target	1	336	832	162112	13.328	13.109	13.546
TrackDT01	3	TrackDT	1.0	SCS215a	20120419.125251	20120419.130040	single-task	8	0.013317	60	10	60-180	60	84	GapExp	0	77	2	30	0	distractor	1	633	684	162796	13.328	8.883	17.761
TrackDT01	3	TrackDT	1.0	SCS215a	20120419.125251	20120419.130046	single-task	8	0.013317	60	10	60-180	60	104	GapExp	0	78	2	30	1	target	1	433	784	163580	13.328	8.322	18.335
TrackDT01	3	TrackDT	1.0	SCS215a	20120419.125251	20120419.130051	single-task	8	0.013317	60	10	60-180	60	107	GapExp	0	79	2	1	1	target	1	330	835	164415	13.328	10.236	16.414
TrackDT01	3	TrackDT	1.0	SCS215a	20120419.125251	20120419.130056	single-task	8	0.013317	60	10	60-180	60	180	GapExp	0	80	2	0	0	distractor	1	444	778	165193	13.328	5.740	20.922
TrackDT01	3	TrackDT	1.0	SCS215a	20120419.125251	20120419.130103	single-task	8	0.013317	60	10	60-180	60	92	GapExp	0	81	2	30	0	target	0	450	-1000	164193	13.328	13.105	13.551
TrackDT01	3	TrackDT	1.0	SCS215a	20120419.125251	20120419.130109	single-task	8	0.013317	60	10	60-180	60	125	GapExp	0	82	2	0	1	target	1	431	785	164978	13.328	11.894	14.763
TrackDT01	3	TrackDT	1.0	SCS215a	20120419.125251	20120419.130114	single-task	8	0.013317	60	10	60-180	60	175	GapExp	0	83	2	1	0	distractor	1	766	617	165595	13.328	7.605	19.058
TrackDT01	3	TrackDT	1.0	SCS215a	20120419.125251	20120419.130121	single-task	8	0.013317	60	10	60-180	60	149	GapExp	0	84	2	3	1	target	1	340	830	166425	13.328	9.989	16.661
TrackDT01	3	TrackDT	1.0	SCS215a	20120419.125251	20120419.130126	single-task	8	0.013317	60	10	60-180	60	168	GapExp	0	85	2	3	0	distractor	1	713	644	167069	13.328	12.682	13.991
TrackDT01	3	TrackDT	1.0	SCS215a	20120419.125251	20120419.130133	single-task	8	0.013317	60	10	60-180	60	77	GapExp	0	86	2	30	1	target	1	313	844	167913	13.328	10.438	16.225
TrackDT01	3	TrackDT	1.0	SCS215a	20120419.125251	20120419.130138	single-task	8	0.013317	60	10	60-180	60	164	GapExp	0	87	2	30	1	target	1	410	795	168708	13.328	8.780	17.870
TrackDT01	3	TrackDT	1.0	SCS215a	20120419.125251	20120419.130145	single-task	8	0.013317	60	10	60-180	60	128	GapExp	0	88	2	0	1	target	1	399	801	169509	13.328	6.330	20.314
TrackDT01	3	TrackDT	1.0	SCS215a	20120419.125251	20120419.130151	single-task	8	0.013317	60	10	60-180	60	129	GapExp	0	89	2	3	1	target	1	331	835	170344	13.328	12.341	14.311
TrackDT01	3	TrackDT	1.0	SCS215a	20120419.125251	20120419.130156	single-task	8	0.013317	60	10	60-180	60	86	GapExp	0	90	2	30	0	target	0	345	-1000	169344	13.328	10.978	15.666
TrackDT01	3	TrackDT	1.0	SCS215a	20120419.125251	20120419.130201	single-task	8	0.013317	60	10	60-180	60	151	GapExp	0	91	2	1	1	target	1	505	748	170092	13.328	10.886	15.761
TrackDT01	3	TrackDT	1.0	SCS215a	20120419.125251	20120419.130207	single-task	8	0.013317	60	10	60-180	60	91	GapExp	0	92	2	1	1	target	1	335	833	170925	13.328	8.678	17.973
TrackDT01	3	TrackDT	1.0	SCS215a	20120419.125251	20120419.130212	single-task	8	0.013317	60	10	60-180	60	135	GapExp	0	93	2	0	0	target	0	641	-1000	169925	13.328	13.117	13.552
TrackDT01	3	TrackDT	1.0	SCS215a	20120419.125251	20120419.130219	single-task	8	0.013317	60	10	60-180	60	173	GapExp	0	94	2	1	1	target	1	366	817	170742	13.328	12.616	14.042
TrackDT01	3	TrackDT	1.0	SCS215a	20120419.125251	20120419.130225	single-task	8	0.013317	60	10	60-180	60	96	GapExp	0	95	2	1	1	target	1	459	771	171513	13.328	13.304	13.356
TrackDT01	3	TrackDT	1.0	SCS215a	20120419.125251	20120419.130230	single-task	8	0.013317	60	10	60-180	60	130	GapExp	0	96	2	3	1	target	1	449	776	172289	13.328	11.385	15.265
TrackDT01	3	TrackDT	1.0	SCS215a	20120419.125251	20120419.130236	single-task	8	0.013317	60	10	60-180	60	132	GapExp	0	97	2	3	0	distractor	1	610	695	172984	13.328	10.156	16.487
TrackDT01	3	TrackDT	1.0	SCS215a	20120419.125251	20120419.130241	single-task	8	0.013317	60	10	60-180	60	85	GapExp	0	98	2	0	0	target	0	470	-1000	171984	13.328	13.106	13.557
TrackDT01	3	TrackDT	1.0	SCS215a	20120419.125251	20120419.130247	single-task	8	0.013317	60	10	60-180	60	138	GapExp	0	99	2	0	1	target	1	446	777	172761	13.328	11.777	14.878
TrackDT01	3	TrackDT	1.0	SCS215a	20120419.125251	20120419.130253	single-task	8	0.013317	60	10	60-180	60	158	GapExp	0	100	2	3	0	target	0	491	-1000	171761	13.328	11.485	15.169
TrackDT01	3	TrackDT	1.0	SCS215a	20120419.125251	20120419.130319	single-task	8	0.013317	60	10	60-180	60	126	GapExp	0	101	2	0	0	distractor	1	709	646	172407	13.328	8.039	18.623
TrackDT01	3	TrackDT	1.0	SCS215a	20120419.125251	20120419.130325	single-task	8	0.013317	60	10	60-180	60	105	GapExp	0	102	2	3	0	distractor	1	424	788	173195	13.328	12.459	14.200
TrackDT01	3	TrackDT	1.0	SCS215a	20120419.125251	20120419.130330	single-task	8	0.013317	60	10	60-180	60	72	GapExp	0	103	2	30	1	target	1	307	847	174042	13.328	13.083	13.572
TrackDT01	3	TrackDT	1.0	SCS215a	20120419.125251	20120419.130336	single-task	8	0.013317	60	10	60-180	60	102	GapExp	0	104	2	3	1	target	1	344	828	174870	13.328	10.732	15.919
TrackDT01	3	TrackDT	1.0	SCS215a	20120419.125251	20120419.130341	single-task	8	0.013317	60	10	60-180	60	130	GapExp	0	105	2	3	0	distractor	1	445	778	175648	13.328	13.084	13.578
TrackDT01	3	TrackDT	1.0	SCS215a	20120419.125251	20120419.130346	single-task	8	0.013317	60	10	60-180	60	146	GapExp	0	106	2	0	1	target	1	579	711	176359	13.328	13.307	13.357
TrackDT01	3	TrackDT	1.0	SCS215a	20120419.125251	20120419.130352	single-task	8	0.013317	60	10	60-180	60	117	GapExp	0	107	2	1	0	distractor	1	534	733	177092	13.328	8.334	18.328
TrackDT01	3	TrackDT	1.0	SCS215a	20120419.125251	20120419.130358	single-task	8	0.013317	60	10	60-180	60	68	GapExp	0	108	2	3	0	target	0	323	-1000	176092	13.328	13.095	13.559
TrackDT01	3	TrackDT	1.0	SCS215a	20120419.125251	20120419.130403	single-task	8	0.013317	60	10	60-180	60	110	GapExp	0	109	2	1	1	target	1	292	854	176946	13.328	12.727	13.925
TrackDT01	3	TrackDT	1.0	SCS215a	20120419.125251	20120419.130408	single-task	8	0.013317	60	10	60-180	60	68	GapExp	0	110	2	0	0	distractor	1	524	738	177684	13.328	12.088	14.576
TrackDT01	3	TrackDT	1.0	SCS215a	20120419.125251	20120419.130413	single-task	8	0.013317	60	10	60-180	60	87	GapExp	0	111	2	1	1	target	1	434	783	178467	13.328	12.928	13.737
TrackDT01	3	TrackDT	1.0	SCS215a	20120419.125251	20120419.130418	single-task	8	0.013317	60	10	60-180	60	84	GapExp	0	112	2	30	1	target	1	366	817	179284	13.328	9.849	16.789
TrackDT01	3	TrackDT	1.0	SCS215a	20120419.125251	20120419.130423	single-task	8	0.013317	60	10	60-180	60	135	GapExp	0	113	2	1	1	target	1	394	803	180087	13.328	13.307	13.351
TrackDT01	3	TrackDT	1.0	SCS215a	20120419.125251	20120419.130430	single-task	8	0.013317	60	10	60-180	60	125	GapExp	0	114	2	0	1	target	1	491	755	180842	13.328	13.309	13.354
TrackDT01	3	TrackDT	1.0	SCS215a	20120419.125251	20120419.130435	single-task	8	0.013317	60	10	60-180	60	114	GapExp	0	115	2	3	0	target	0	392	-1000	179842	13.328	4.568	22.097
TrackDT01	3	TrackDT	1.0	SCS215a	20120419.125251	20120419.130441	single-task	8	0.013317	60	10	60-180	60	173	GapExp	0	116	2	3	0	distractor	1	603	699	180541	13.328	13.098	13.552
TrackDT01	3	TrackDT	1.0	SCS215a	20120419.125251	20120419.130447	single-task	8	0.013317	60	10	60-180	60	135	GapExp	0	117	2	1	1	target	1	427	787	181328	13.328	10.863	15.793
TrackDT01	3	TrackDT	1.0	SCS215a	20120419.125251	20120419.130453	single-task	8	0.013317	60	10	60-180	60	180	GapExp	0	118	2	30	1	target	1	421	790	182118	13.328	12.472	14.192
TrackDT01	3	TrackDT	1.0	SCS215a	20120419.125251	20120419.130500	single-task	8	0.013317	60	10	60-180	60	153	GapExp	0	119	2	3	1	target	1	319	841	182959	13.315	9.423	17.232
TrackDT01	3	TrackDT	1.0	SCS215a	20120419.125251	20120419.130506	single-task	8	0.013317	60	10	60-180	60	83	GapExp	0	120	2	3	1	target	1	369	816	183775	13.328	12.402	14.254
TrackDT01	3	TrackDT	1.0	SCS215a	20120419.125251	20120419.130511	single-task	8	0.013317	60	10	60-180	60	66	GapExp	0	121	2	30	1	target	1	324	838	184613	13.328	13.302	13.361
TrackDT01	3	TrackDT	1.0	SCS215a	20120419.125251	20120419.130516	single-task	8	0.013317	60	10	60-180	60	151	GapExp	0	122	2	3	0	distractor	1	646	677	185290	13.328	9.928	16.742
TrackDT01	3	TrackDT	1.0	SCS215a	20120419.125251	20120419.130522	single-task	8	0.013317	60	10	60-180	60	147	GapExp	0	123	2	3	1	target	1	356	822	186112	13.328	4.288	22.361
TrackDT01	3	TrackDT	1.0	SCS215a	20120419.125251	20120419.130528	single-task	8	0.013317	60	10	60-180	60	123	GapExp	0	124	2	0	0	distractor	1	761	620	186732	13.328	12.269	14.400
TrackDT01	3	TrackDT	1.0	SCS215a	20120419.125251	20120419.130534	single-task	8	0.013317	60	10	60-180	60	111	GapExp	0	125	2	0	0	target	0	485	-1000	185732	13.328	13.307	13.350
TrackDT01	3	TrackDT	1.0	SCS215a	20120419.125251	20120419.130539	single-task	8	0.013317	60	10	60-180	60	174	GapExp	0	126	2	30	0	distractor	1	605	698	186430	13.328	13.295	13.358
TrackDT01	3	TrackDT	1.0	SCS215a	20120419.125251	20120419.130546	single-task	8	0.013317	60	10	60-180	60	138	GapExp	0	127	2	1	1	target	1	688	656	187086	13.328	13.039	13.617
TrackDT01	3	TrackDT	1.0	SCS215a	20120419.125251	20120419.130552	single-task	8	0.013317	60	10	60-180	60	153	GapExp	0	128	2	0	0	target	0	365	-1000	186086	13.328	13.301	13.356
TrackDT01	3	TrackDT	1.0	SCS215a	20120419.125251	20120419.130558	single-task	8	0.013317	60	10	60-180	60	88	GapExp	0	129	2	0	0	target	0	326	-1000	185086	13.328	9.765	16.884
TrackDT01	3	TrackDT	1.0	SCS215a	20120419.125251	20120419.130603	single-task	8	0.013317	60	10	60-180	60	161	GapExp	0	130	2	1	0	distractor	1	484	758	185844	13.328	13.093	13.551
TrackDT01	3	TrackDT	1.0	SCS215a	20120419.125251	20120419.130609	single-task	8	0.013317	60	10	60-180	60	67	GapExp	0	131	2	30	0	distractor	1	597	702	186546	13.328	9.814	16.838
TrackDT01	3	TrackDT	1.0	SCS215a	20120419.125251	20120419.130615	single-task	8	0.013317	60	10	60-180	60	117	GapExp	0	132	2	30	0	distractor	1	618	691	187237	13.328	13.307	13.360
TrackDT01	3	TrackDT	1.0	SCS215a	20120419.125251	20120419.130621	single-task	8	0.013317	60	10	60-180	60	149	GapExp	0	133	2	0	1	target	1	499	751	187988	13.328	4.122	22.541
TrackDT01	3	TrackDT	1.0	SCS215a	20120419.125251	20120419.130627	single-task	8	0.013317	60	10	60-180	60	117	GapExp	0	134	2	30	0	distractor	1	582	709	188697	13.328	8.498	18.167
TrackDT01	3	TrackDT	1.0	SCS215a	20120419.125251	20120419.130632	single-task	8	0.013317	60	10	60-180	60	165	GapExp	0	135	2	0	1	target	1	337	832	189529	13.328	13.120	13.556
TrackDT01	3	TrackDT	1.0	SCS215a	20120419.125251	20120419.130638	single-task	8	0.013317	60	10	60-180	60	78	GapExp	0	136	2	30	0	distractor	1	552	724	190253	13.328	11.205	15.440
TrackDT01	3	TrackDT	1.0	SCS215a	20120419.125251	20120419.130644	single-task	8	0.013317	60	10	60-180	60	126	GapExp	0	137	2	30	0	target	0	616	-1000	189253	13.328	7.439	19.219
TrackDT01	3	TrackDT	1.0	SCS215a	20120419.125251	20120419.130651	single-task	8	0.013317	60	10	60-180	60	79	GapExp	0	138	2	1	1	target	1	310	845	190098	13.328	10.045	16.618
TrackDT01	3	TrackDT	1.0	SCS215a	20120419.125251	20120419.130655	single-task	8	0.013317	60	10	60-180	60	167	GapExp	0	139	2	30	1	distractor	0	545	-1000	189098	13.328	11.175	15.483
TrackDT01	3	TrackDT	1.0	SCS215a	20120419.125251	20120419.130702	single-task	8	0.013317	60	10	60-180	60	78	GapExp	0	140	2	3	1	target	1	549	726	189824	13.328	8.717	17.940
TrackDT01	3	TrackDT	1.0	SCS215a	20120419.125251	20120419.130707	single-task	8	0.013317	60	10	60-180	60	153	GapExp	0	141	2	0	1	target	1	344	828	190652	13.328	7.466	19.181
TrackDT01	3	TrackDT	1.0	SCS215a	20120419.125251	20120419.130713	single-task	8	0.013317	60	10	60-180	60	139	GapExp	0	142	2	30	0	distractor	1	578	711	191363	13.328	11.874	14.789
TrackDT01	3	TrackDT	1.0	SCS215a	20120419.125251	20120419.130720	single-task	8	0.013317	60	10	60-180	60	109	GapExp	0	143	2	1	1	target	1	319	841	192204	13.328	13.305	13.353
TrackDT01	3	TrackDT	1.0	SCS215a	20120419.125251	20120419.130725	single-task	8	0.013317	60	10	60-180	60	129	GapExp	0	144	2	30	1	target	1	382	809	193013	13.328	13.249	13.415
TrackDT01	3	TrackDT	1.0	SCS215a	20120419.125251	20120419.130731	single-task	8	0.013317	60	10	60-180	60	156	GapExp	0	145	2	30	1	target	1	412	794	193807	13.328	12.577	14.076
TrackDT01	3	TrackDT	1.0	SCS215a	20120419.125251	20120419.130737	single-task	8	0.013317	60	10	60-180	60	84	GapExp	0	146	2	3	0	target	0	401	-1000	192807	13.328	10.411	16.238
TrackDT01	3	TrackDT	1.0	SCS215a	20120419.125251	20120419.130742	single-task	8	0.013317	60	10	60-180	60	162	GapExp	0	147	2	1	1	distractor	0	846	-1000	191807	13.328	8.109	18.553
TrackDT01	3	TrackDT	1.0	SCS215a	20120419.125251	20120419.130749	single-task	8	0.013317	60	10	60-180	60	113	GapExp	0	148	2	0	0	target	0	450	-1000	190807	13.328	10.852	15.813
TrackDT01	3	TrackDT	1.0	SCS215a	20120419.125251	20120419.130754	single-task	8	0.013317	60	10	60-180	60	84	GapExp	0	149	2	3	1	target	1	446	777	191584	13.328	13.307	13.345
TrackDT01	3	TrackDT	1.0	SCS215a	20120419.125251	20120419.130759	single-task	8	0.013317	60	10	60-180	60	146	GapExp	0	150	2	3	1	target	1	474	763	192347	13.328	8.558	18.090
TrackDT01	3	TrackDT	1.0	SCS215a	20120419.125251	20120419.130822	single-task	8	0.013317	60	10	60-180	60	94	GapExp	0	151	2	30	1	target	1	325	838	193185	13.328	13.309	13.349
TrackDT01	3	TrackDT	1.0	SCS215a	20120419.125251	20120419.130828	single-task	8	0.013317	60	10	60-180	60	96	GapExp	0	152	2	0	1	target	1	506	747	193932	13.328	9.437	17.226
TrackDT01	3	TrackDT	1.0	SCS215a	20120419.125251	20120419.130833	single-task	8	0.013317	60	10	60-180	60	151	GapExp	0	153	2	3	1	target	1	483	759	194691	13.328	11.371	15.272
TrackDT01	3	TrackDT	1.0	SCS215a	20120419.125251	20120419.130839	single-task	8	0.013317	60	10	60-180	60	143	GapExp	0	154	2	0	1	target	1	438	781	195472	13.328	9.424	17.226
TrackDT01	3	TrackDT	1.0	SCS215a	20120419.125251	20120419.130845	single-task	8	0.013317	60	10	60-180	60	139	GapExp	0	155	2	1	0	distractor	1	465	768	196240	13.328	13.106	13.540
TrackDT01	3	TrackDT	1.0	SCS215a	20120419.125251	20120419.130850	single-task	8	0.013317	60	10	60-180	60	130	GapExp	0	156	2	1	1	distractor	0	1067	-1000	195240	13.328	13.308	13.348
TrackDT01	3	TrackDT	1.0	SCS215a	20120419.125251	20120419.130857	single-task	8	0.013317	60	10	60-180	60	146	GapExp	0	157	2	3	1	target	1	457	772	196012	13.328	7.259	19.395
TrackDT01	3	TrackDT	1.0	SCS215a	20120419.125251	20120419.130903	single-task	8	0.013317	60	10	60-180	60	76	GapExp	0	158	2	3	1	target	1	395	803	196815	13.328	13.308	13.344
TrackDT01	3	TrackDT	1.0	SCS215a	20120419.125251	20120419.130908	single-task	8	0.013317	60	10	60-180	60	87	GapExp	0	159	2	30	1	target	1	331	835	197650	13.328	11.959	14.705
TrackDT01	3	TrackDT	1.0	SCS215a	20120419.125251	20120419.130913	single-task	8	0.013317	60	10	60-180	60	126	GapExp	0	160	2	30	0	distractor	1	869	566	198216	13.328	10.019	16.639
TrackDT01	3	TrackDT	1.0	SCS215a	20120419.125251	20120419.130920	single-task	8	0.013317	60	10	60-180	60	90	GapExp	0	161	2	1	0	target	0	428	-1000	197216	13.328	13.093	13.558
TrackDT01	3	TrackDT	1.0	SCS215a	20120419.125251	20120419.130925	single-task	8	0.013317	60	10	60-180	60	89	GapExp	0	162	2	0	1	target	1	320	840	198056	13.328	12.331	14.317
TrackDT01	3	TrackDT	1.0	SCS215a	20120419.125251	20120419.130930	single-task	8	0.013317	60	10	60-180	60	146	GapExp	0	163	2	1	1	target	1	368	816	198872	13.328	13.268	13.378
TrackDT01	3	TrackDT	1.0	SCS215a	20120419.125251	20120419.130936	single-task	8	0.013317	60	10	60-180	60	105	GapExp	0	164	2	30	0	distractor	1	545	728	199600	13.328	12.957	13.698
TrackDT01	3	TrackDT	1.0	SCS215a	20120419.125251	20120419.130942	single-task	8	0.013317	60	10	60-180	60	164	GapExp	0	165	2	1	0	distractor	1	685	658	200258	13.328	10.354	16.301
TrackDT01	3	TrackDT	1.0	SCS215a	20120419.125251	20120419.130948	single-task	8	0.013317	60	10	60-180	60	105	GapExp	0	166	2	3	0	target	0	393	-1000	199258	13.346	13.098	17.281
TrackDT01	3	TrackDT	1.0	SCS215a	20120419.125251	20120419.130953	single-task	8	0.013317	60	10	60-180	60	124	GapExp	0	167	2	0	0	target	0	400	-1000	198258	13.328	13.233	13.429
TrackDT01	3	TrackDT	1.0	SCS215a	20120419.125251	20120419.130959	single-task	8	0.013317	60	10	60-180	60	123	GapExp	0	168	2	30	1	target	1	392	804	199062	13.328	13.309	13.346
TrackDT01	3	TrackDT	1.0	SCS215a	20120419.125251	20120419.131005	single-task	8	0.013317	60	10	60-180	60	70	GapExp	0	169	2	30	0	distractor	1	469	766	199828	13.328	13.303	13.360
TrackDT01	3	TrackDT	1.0	SCS215a	20120419.125251	20120419.131010	single-task	8	0.013317	60	10	60-180	60	101	GapExp	0	170	2	3	1	target	1	310	845	200673	13.328	13.087	13.571
TrackDT01	3	TrackDT	1.0	SCS215a	20120419.125251	20120419.131015	single-task	8	0.013317	60	10	60-180	60	133	GapExp	0	171	2	1	0	distractor	1	468	766	201439	13.328	13.311	13.348
TrackDT01	3	TrackDT	1.0	SCS215a	20120419.125251	20120419.131021	single-task	8	0.013317	60	10	60-180	60	147	GapExp	0	172	2	0	1	distractor	0	459	-1000	200439	13.328	13.304	13.353
TrackDT01	3	TrackDT	1.0	SCS215a	20120419.125251	20120419.131027	single-task	8	0.013317	60	10	60-180	60	119	GapExp	0	173	2	30	1	target	1	432	784	201223	13.328	10.220	16.422
TrackDT01	3	TrackDT	1.0	SCS215a	20120419.125251	20120419.131033	single-task	8	0.013317	60	10	60-180	60	164	GapExp	0	174	2	3	1	target	1	367	817	202040	13.328	11.572	15.092
TrackDT01	3	TrackDT	1.0	SCS215a	20120419.125251	20120419.131039	single-task	8	0.013317	60	10	60-180	60	144	GapExp	0	175	2	0	1	target	1	317	842	202882	13.328	13.108	13.559
TrackDT01	3	TrackDT	1.0	SCS215a	20120419.125251	20120419.131045	single-task	8	0.013317	60	10	60-180	60	112	GapExp	0	176	2	3	1	target	1	312	844	203726	13.328	10.191	16.463
TrackDT01	3	TrackDT	1.0	SCS215a	20120419.125251	20120419.131050	single-task	8	0.013317	60	10	60-180	60	175	GapExp	0	177	2	0	1	target	1	451	775	204501	13.328	13.278	13.372
TrackDT01	3	TrackDT	1.0	SCS215a	20120419.125251	20120419.131056	single-task	8	0.013317	60	10	60-180	60	81	GapExp	0	178	2	0	0	distractor	1	617	692	205193	13.328	7.872	18.802
TrackDT01	3	TrackDT	1.0	SCS215a	20120419.125251	20120419.131101	single-task	8	0.013317	60	10	60-180	60	141	GapExp	0	179	2	3	0	target	0	715	-1000	204193	13.328	12.273	14.392
TrackDT01	3	TrackDT	1.0	SCS215a	20120419.125251	20120419.131107	single-task	8	0.013317	60	10	60-180	60	177	GapExp	0	180	2	1	0	target	0	583	-1000	203193	13.328	13.309	13.349
TrackDT01	3	TrackDT	1.0	SCS215a	20120419.125251	20120419.131114	single-task	8	0.013317	60	10	60-180	60	147	GapExp	0	181	2	30	1	target	1	424	788	203981	13.328	7.681	18.876
TrackDT01	3	TrackDT	1.0	SCS215a	20120419.125251	20120419.131121	single-task	8	0.013317	60	10	60-180	60	102	GapExp	0	182	2	3	1	target	1	493	754	204735	13.328	7.683	18.981
TrackDT01	3	TrackDT	1.0	SCS215a	20120419.125251	20120419.131126	single-task	8	0.013317	60	10	60-180	60	156	GapExp	0	183	2	1	0	distractor	1	414	793	205528	13.328	11.014	15.629
TrackDT01	3	TrackDT	1.0	SCS215a	20120419.125251	20120419.131132	single-task	8	0.013317	60	10	60-180	60	152	GapExp	0	184	2	3	1	target	1	329	836	206364	13.328	10.033	16.623
TrackDT01	3	TrackDT	1.0	SCS215a	20120419.125251	20120419.131138	single-task	8	0.013317	60	10	60-180	60	143	GapExp	0	185	2	30	0	target	0	451	-1000	205364	13.328	8.538	18.104
TrackDT01	3	TrackDT	1.0	SCS215a	20120419.125251	20120419.131144	single-task	8	0.013317	60	10	60-180	60	156	GapExp	0	186	2	30	1	target	1	372	814	206178	13.328	6.550	20.100
TrackDT01	3	TrackDT	1.0	SCS215a	20120419.125251	20120419.131150	single-task	8	0.013317	60	10	60-180	60	128	GapExp	0	187	2	0	0	distractor	1	683	659	206837	13.328	6.695	19.947
TrackDT01	3	TrackDT	1.0	SCS215a	20120419.125251	20120419.131156	single-task	8	0.013317	60	10	60-180	60	164	GapExp	0	188	2	30	1	target	1	739	631	207468	13.328	12.405	14.243
TrackDT01	3	TrackDT	1.0	SCS215a	20120419.125251	20120419.131203	single-task	8	0.013317	60	10	60-180	60	93	GapExp	0	189	2	30	0	target	0	387	-1000	206468	13.328	4.649	21.996
TrackDT01	3	TrackDT	1.0	SCS215a	20120419.125251	20120419.131208	single-task	8	0.013317	60	10	60-180	60	104	GapExp	0	190	2	1	0	target	0	495	-1000	205468	13.328	8.327	18.343
TrackDT01	3	TrackDT	1.0	SCS215a	20120419.125251	20120419.131214	single-task	8	0.013317	60	10	60-180	60	117	GapExp	0	191	2	3	0	distractor	1	586	707	206175	13.328	3.581	23.063
TrackDT01	3	TrackDT	1.0	SCS215a	20120419.125251	20120419.131219	single-task	8	0.013317	60	10	60-180	60	89	GapExp	0	192	2	1	0	distractor	1	680	660	206835	13.328	6.524	20.146
TrackDT01	3	TrackDT	1.0	SCS215a	20120419.125251	20120419.131225	single-task	8	0.013317	60	10	60-180	60	80	GapExp	0	193	2	0	1	target	1	346	827	207662	13.328	13.154	13.503
TrackDT01	3	TrackDT	1.0	SCS215a	20120419.125251	20120419.131230	single-task	8	0.013317	60	10	60-180	60	77	GapExp	0	194	2	1	0	target	0	540	-1000	206662	13.328	8.516	18.128
TrackDT01	3	TrackDT	1.0	SCS215a	20120419.125251	20120419.131235	single-task	8	0.013317	60	10	60-180	60	170	GapExp	0	195	2	1	0	distractor	1	664	668	207330	13.328	6.346	20.303
TrackDT01	3	TrackDT	1.0	SCS215a	20120419.125251	20120419.131241	single-task	8	0.013317	60	10	60-180	60	166	GapExp	0	196	2	0	0	target	0	339	-1000	206330	13.328	13.305	13.348
TrackDT01	3	TrackDT	1.0	SCS215a	20120419.125251	20120419.131247	single-task	8	0.013317	60	10	60-180	60	61	GapExp	0	197	2	0	1	target	1	740	630	206960	13.328	9.382	17.266
TrackDT01	3	TrackDT	1.0	SCS215a	20120419.125251	20120419.131252	single-task	8	0.013317	60	10	60-180	60	147	GapExp	0	198	2	0	0	distractor	1	468	766	207726	13.345	10.880	17.893
TrackDT01	3	TrackDT	1.0	SCS215a	20120419.125251	20120419.131258	single-task	8	0.013317	60	10	60-180	60	87	GapExp	0	199	2	1	1	4	-3	5740	-1000	206726	13.328	9.457	17.185
TrackDT01	3	TrackDT	1.0	SCS215a	20120419.125251	20120419.131309	single-task	8	0.013317	60	10	60-180	60	140	GapExp	0	200	2	1	0	target	0	343	-1000	205726	13.328	8.416	18.227
TrackDT01	3	TrackDT	1.0	SCS215a	20120419.131502	20120419.131508	dt-generate	8	0.013317	60	10	60-180	60	170	GapPrac	1	1	2	3	1	target	1	988	506	206232	13.328	13.094	13.562
TrackDT01	3	TrackDT	1.0	SCS215a	20120419.131502	20120419.131516	dt-generate	8	0.013317	60	10	60-180	60	97	GapPrac	1	2	2	0	1	target	1	415	793	207025	13.328	13.252	13.419
TrackDT01	3	TrackDT	1.0	SCS215a	20120419.131502	20120419.131521	dt-generate	8	0.013317	60	10	60-180	60	86	GapPrac	1	3	2	30	0	distractor	1	563	719	207744	13.328	13.303	13.349
TrackDT01	3	TrackDT	1.0	SCS215a	20120419.131502	20120419.131527	dt-generate	8	0.013317	60	10	60-180	60	92	GapPrac	1	4	2	0	0	distractor	1	528	736	208480	13.328	13.297	13.353
TrackDT01	3	TrackDT	1.0	SCS215a	20120419.131502	20120419.131532	dt-generate	8	0.013317	60	10	60-180	60	163	GapPrac	1	5	2	3	1	target	1	739	631	209111	13.328	10.806	15.849
TrackDT01	3	TrackDT	1.0	SCS215a	20120419.131502	20120419.131538	dt-generate	8	0.013317	60	10	60-180	60	162	GapPrac	1	6	2	1	0	target	0	887	-1000	208111	13.328	8.787	17.850
TrackDT01	3	TrackDT	1.0	SCS215a	20120419.131502	20120419.131545	dt-generate	8	0.013317	60	10	60-180	60	104	GapPrac	1	7	2	1	1	target	1	461	770	208881	13.328	13.106	13.553
TrackDT01	3	TrackDT	1.0	SCS215a	20120419.131502	20120419.131550	dt-generate	8	0.013317	60	10	60-180	60	150	GapPrac	1	8	2	0	1	target	1	387	807	209688	13.328	13.304	13.347
TrackDT01	3	TrackDT	1.0	SCS215a	20120419.131502	20120419.131556	dt-generate	8	0.013317	60	10	60-180	60	73	GapPrac	1	9	2	0	0	distractor	1	574	713	210401	13.328	13.308	13.346
TrackDT01	3	TrackDT	1.0	SCS215a	20120419.131502	20120419.131601	dt-generate	8	0.013317	60	10	60-180	60	145	GapPrac	1	10	2	30	0	distractor	1	623	689	211090	13.328	13.287	13.356
TrackDT01	3	TrackDT	1.0	SCS215a	20120419.131502	20120419.131608	dt-generate	8	0.013317	60	10	60-180	60	122	GapPrac	1	11	2	3	0	target	0	618	-1000	210090	13.328	13.090	13.552
TrackDT01	3	TrackDT	1.0	SCS215a	20120419.131502	20120419.131613	dt-generate	8	0.013317	60	10	60-180	60	68	GapPrac	1	12	2	3	1	target	1	351	825	210915	13.328	13.097	13.556
TrackDT01	3	TrackDT	1.0	SCS215a	20120419.131502	20120419.131618	dt-generate	8	0.013317	60	10	60-180	60	164	GapPrac	1	13	2	30	1	target	1	523	739	211654	13.328	8.126	18.534
TrackDT01	3	TrackDT	1.0	SCS215a	20120419.131502	20120419.131625	dt-generate	8	0.013317	60	10	60-180	60	91	GapPrac	1	14	2	1	0	target	0	754	-1000	210654	13.328	13.308	13.345
TrackDT01	3	TrackDT	1.0	SCS215a	20120419.131502	20120419.131631	dt-generate	8	0.013317	60	10	60-180	60	167	GapPrac	1	15	2	3	0	distractor	1	523	739	211393	13.328	12.169	14.533
TrackDT01	3	TrackDT	1.0	SCS215a	20120419.131502	20120419.131637	dt-generate	8	0.013317	60	10	60-180	60	149	GapPrac	1	16	2	0	0	distractor	1	466	767	212160	13.328	13.295	13.355
TrackDT01	3	TrackDT	1.0	SCS215a	20120419.131502	20120419.131643	dt-generate	8	0.013317	60	10	60-180	60	92	GapPrac	1	17	2	0	1	target	1	490	755	212915	13.328	13.092	13.547
TrackDT01	3	TrackDT	1.0	SCS215a	20120419.131502	20120419.131648	dt-generate	8	0.013317	60	10	60-180	60	127	GapPrac	1	18	2	1	1	target	1	329	836	213751	13.328	12.918	13.726
TrackDT01	3	TrackDT	1.0	SCS215a	20120419.131502	20120419.131653	dt-generate	8	0.013317	60	10	60-180	60	125	GapPrac	1	19	2	30	0	target	0	510	-1000	212751	13.328	13.076	13.567
TrackDT01	3	TrackDT	1.0	SCS215a	20120419.131502	20120419.131700	dt-generate	8	0.013317	60	10	60-180	60	104	GapPrac	1	20	2	30	1	target	1	366	817	213568	13.328	11.664	14.992
TrackDT01	3	TrackDT	1.0	SCS215a	20120419.131726	20120419.131735	dt-generate	8	0.013328	60	10	60-180	60	100	GapExp	1	1	2	1	1	target	1	293	854	214422	13.328	13.296	13.348
TrackDT01	3	TrackDT	1.0	SCS215a	20120419.131726	20120419.131741	dt-generate	8	0.013328	60	10	60-180	60	74	GapExp	1	2	2	3	1	target	1	445	778	215200	13.328	13.305	13.352
TrackDT01	3	TrackDT	1.0	SCS215a	20120419.131726	20120419.131746	dt-generate	8	0.013328	60	10	60-180	60	73	GapExp	1	3	2	3	0	distractor	1	573	714	215914	13.328	13.096	13.565
TrackDT01	3	TrackDT	1.0	SCS215a	20120419.131726	20120419.131751	dt-generate	8	0.013328	60	10	60-180	60	119	GapExp	1	4	2	30	1	target	1	304	848	216762	13.328	12.912	13.745
TrackDT01	3	TrackDT	1.0	SCS215a	20120419.131726	20120419.131756	dt-generate	8	0.013328	60	10	60-180	60	121	GapExp	1	5	2	0	1	target	1	891	555	217317	13.328	13.031	13.634
TrackDT01	3	TrackDT	1.0	SCS215a	20120419.131726	20120419.131802	dt-generate	8	0.013328	60	10	60-180	60	169	GapExp	1	6	2	1	0	target	0	404	-1000	216317	13.329	13.014	13.650
TrackDT01	3	TrackDT	1.0	SCS215a	20120419.131726	20120419.131808	dt-generate	8	0.013328	60	10	60-180	60	77	GapExp	1	7	2	30	0	distractor	1	788	606	216923	13.328	12.906	13.758
TrackDT01	3	TrackDT	1.0	SCS215a	20120419.131726	20120419.131815	dt-generate	8	0.013328	60	10	60-180	60	131	GapExp	1	8	2	0	0	target	0	887	-1000	215923	13.328	12.854	13.799
TrackDT01	3	TrackDT	1.0	SCS215a	20120419.131726	20120419.131821	dt-generate	8	0.013328	60	10	60-180	60	67	GapExp	0	9	2	0	0	distractor	1	592	704	216627	13.328	12.864	13.792
TrackDT01	3	TrackDT	1.0	SCS215a	20120419.131726	20120419.131825	dt-generate	8	0.013328	60	10	60-180	60	88	GapExp	0	10	2	0	0	distractor	1	590	705	217332	13.328	12.944	13.707
TrackDT01	3	TrackDT	1.0	SCS215a	20120419.131726	20120419.131831	dt-generate	8	0.013328	60	10	60-180	60	142	GapExp	0	11	2	30	0	distractor	1	542	729	218061	13.328	12.863	13.787
TrackDT01	3	TrackDT	1.0	SCS215a	20120419.131726	20120419.131837	dt-generate	8	0.013328	60	10	60-180	60	93	GapExp	0	12	2	30	0	target	0	2124	-1000	217061	13.328	12.861	13.796
TrackDT01	3	TrackDT	1.0	SCS215a	20120419.131726	20120419.131844	dt-generate	8	0.013328	60	10	60-180	60	153	GapExp	0	13	2	30	0	target	0	1626	-1000	216061	13.328	13.302	13.356
TrackDT01	3	TrackDT	1.0	SCS215a	20120419.131726	20120419.131852	dt-generate	8	0.013328	60	10	60-180	60	63	GapExp	0	14	2	1	1	target	1	565	718	216779	13.328	13.312	13.350
TrackDT01	3	TrackDT	1.0	SCS215a	20120419.131726	20120419.131857	dt-generate	8	0.013328	60	10	60-180	60	174	GapExp	0	15	2	1	1	target	1	386	807	217586	13.328	12.853	13.796
TrackDT01	3	TrackDT	1.0	SCS215a	20120419.131726	20120419.131903	dt-generate	8	0.013328	60	10	60-180	60	130	GapExp	0	16	2	1	0	target	0	696	-1000	216586	13.328	13.083	13.555
TrackDT01	3	TrackDT	1.0	SCS215a	20120419.131726	20120419.131909	dt-generate	8	0.013328	60	10	60-180	60	170	GapExp	0	17	2	3	1	target	1	582	709	217295	13.328	12.855	13.804
TrackDT01	3	TrackDT	1.0	SCS215a	20120419.131726	20120419.131915	dt-generate	8	0.013328	60	10	60-180	60	143	GapExp	0	18	2	30	0	distractor	1	551	725	218020	13.328	13.111	13.552
TrackDT01	3	TrackDT	1.0	SCS215a	20120419.131726	20120419.131922	dt-generate	8	0.013328	60	10	60-180	60	154	GapExp	0	19	2	3	0	target	0	390	-1000	217020	13.328	13.012	13.644
TrackDT01	3	TrackDT	1.0	SCS215a	20120419.131726	20120419.131928	dt-generate	8	0.013328	60	10	60-180	60	133	GapExp	0	20	2	0	1	target	1	406	797	217817	13.328	12.870	13.792
TrackDT01	3	TrackDT	1.0	SCS215a	20120419.131726	20120419.131934	dt-generate	8	0.013328	60	10	60-180	60	80	GapExp	0	21	2	1	1	target	1	393	804	218621	13.328	13.301	13.355
TrackDT01	3	TrackDT	1.0	SCS215a	20120419.131726	20120419.131939	dt-generate	8	0.013328	60	10	60-180	60	118	GapExp	0	22	2	3	0	target	0	609	-1000	217621	13.328	12.916	13.734
TrackDT01	3	TrackDT	1.0	SCS215a	20120419.131726	20120419.131944	dt-generate	8	0.013328	60	10	60-180	60	117	GapExp	0	23	2	1	0	target	0	706	-1000	216621	13.328	13.233	13.416
TrackDT01	3	TrackDT	1.0	SCS215a	20120419.131726	20120419.131950	dt-generate	8	0.013328	60	10	60-180	60	74	GapExp	0	24	2	30	1	target	1	383	809	217430	13.328	12.889	13.760
TrackDT01	3	TrackDT	1.0	SCS215a	20120419.131726	20120419.131955	dt-generate	8	0.013328	60	10	60-180	60	158	GapExp	0	25	2	3	0	distractor	1	654	673	218103	13.328	13.040	13.629
TrackDT01	3	TrackDT	1.0	SCS215a	20120419.131726	20120419.132002	dt-generate	8	0.013328	60	10	60-180	60	150	GapExp	0	26	2	0	0	target	0	442	-1000	217103	13.328	13.044	13.613
TrackDT01	3	TrackDT	1.0	SCS215a	20120419.131726	20120419.132008	dt-generate	8	0.013328	60	10	60-180	60	104	GapExp	0	27	2	30	1	target	1	1238	381	217484	13.328	12.863	13.792
TrackDT01	3	TrackDT	1.0	SCS215a	20120419.131726	20120419.132014	dt-generate	8	0.013328	60	10	60-180	60	65	GapExp	0	28	2	3	1	target	1	552	724	218208	13.328	12.995	13.657
TrackDT01	3	TrackDT	1.0	SCS215a	20120419.131726	20120419.132019	dt-generate	8	0.013328	60	10	60-180	60	73	GapExp	0	29	2	30	1	target	1	1118	441	218649	13.328	12.931	13.733
TrackDT01	3	TrackDT	1.0	SCS215a	20120419.131726	20120419.132025	dt-generate	8	0.013328	60	10	60-180	60	109	GapExp	0	30	2	1	1	target	1	725	638	219287	13.328	13.098	13.551
TrackDT01	3	TrackDT	1.0	SCS215a	20120419.131726	20120419.132031	dt-generate	8	0.013328	60	10	60-180	60	135	GapExp	0	31	2	0	1	target	1	398	801	220088	13.328	12.951	13.700
TrackDT01	3	TrackDT	1.0	SCS215a	20120419.131726	20120419.132037	dt-generate	8	0.013328	60	10	60-180	60	94	GapExp	0	32	2	0	1	target	1	473	764	220852	13.328	12.856	13.815
TrackDT01	3	TrackDT	1.0	SCS215a	20120419.131726	20120419.132042	dt-generate	8	0.013328	60	10	60-180	60	163	GapExp	0	33	2	0	1	target	1	482	759	221611	13.328	12.887	13.758
TrackDT01	3	TrackDT	1.0	SCS215a	20120419.131726	20120419.132048	dt-generate	8	0.013328	60	10	60-180	60	150	GapExp	0	34	2	0	0	target	0	528	-1000	220611	13.327	13.109	13.349
TrackDT01	3	TrackDT	1.0	SCS215a	20120419.131726	20120419.132054	dt-generate	8	0.013328	60	10	60-180	60	83	GapExp	0	35	2	1	1	target	1	396	802	221413	13.328	13.055	13.600
TrackDT01	3	TrackDT	1.0	SCS215a	20120419.131726	20120419.132059	dt-generate	8	0.013328	60	10	60-180	60	70	GapExp	0	36	2	1	0	distractor	1	616	692	222105	13.328	13.295	13.347
TrackDT01	3	TrackDT	1.0	SCS215a	20120419.131726	20120419.132104	dt-generate	8	0.013328	60	10	60-180	60	162	GapExp	0	37	2	3	0	distractor	1	582	709	222814	13.328	13.021	13.636
TrackDT01	3	TrackDT	1.0	SCS215a	20120419.131726	20120419.132111	dt-generate	8	0.013328	60	10	60-180	60	166	GapExp	0	38	2	30	1	target	1	505	748	223562	13.328	12.931	13.725
TrackDT01	3	TrackDT	1.0	SCS215a	20120419.131726	20120419.132117	dt-generate	8	0.013328	60	10	60-180	60	149	GapExp	0	39	2	1	1	target	1	313	844	224406	13.328	13.294	13.363
TrackDT01	3	TrackDT	1.0	SCS215a	20120419.131726	20120419.132123	dt-generate	8	0.013328	60	10	60-180	60	176	GapExp	0	40	2	30	0	target	0	497	-1000	223406	13.328	12.940	13.717
TrackDT01	3	TrackDT	1.0	SCS215a	20120419.131726	20120419.132130	dt-generate	8	0.013328	60	10	60-180	60	170	GapExp	0	41	2	1	1	target	1	397	802	224208	13.328	12.959	13.685
TrackDT01	3	TrackDT	1.0	SCS215a	20120419.131726	20120419.132136	dt-generate	8	0.013328	60	10	60-180	60	138	GapExp	0	42	2	30	1	target	1	659	671	224879	13.328	13.122	13.538
TrackDT01	3	TrackDT	1.0	SCS215a	20120419.131726	20120419.132143	dt-generate	8	0.013328	60	10	60-180	60	151	GapExp	0	43	2	1	0	target	0	1169	-1000	223879	13.328	13.100	13.551
TrackDT01	3	TrackDT	1.0	SCS215a	20120419.131726	20120419.132149	dt-generate	8	0.013328	60	10	60-180	60	114	GapExp	0	44	2	0	0	distractor	1	647	677	224556	13.328	13.075	13.596
TrackDT01	3	TrackDT	1.0	SCS215a	20120419.131726	20120419.132155	dt-generate	8	0.013328	60	10	60-180	60	144	GapExp	0	45	2	0	0	distractor	1	443	779	225335	13.328	13.033	13.629
TrackDT01	3	TrackDT	1.0	SCS215a	20120419.131726	20120419.132201	dt-generate	8	0.013328	60	10	60-180	60	170	GapExp	0	46	2	0	1	target	1	403	799	226134	13.328	12.977	13.680
TrackDT01	3	TrackDT	1.0	SCS215a	20120419.131726	20120419.132207	dt-generate	8	0.013328	60	10	60-180	60	64	GapExp	0	47	2	30	1	target	1	770	615	226749	13.328	13.000	13.656
TrackDT01	3	TrackDT	1.0	SCS215a	20120419.131726	20120419.132213	dt-generate	8	0.013328	60	10	60-180	60	82	GapExp	0	48	2	3	1	target	1	820	590	227339	13.328	12.963	13.694
TrackDT01	3	TrackDT	1.0	SCS215a	20120419.131726	20120419.132218	dt-generate	8	0.013328	60	10	60-180	60	62	GapExp	0	49	2	3	1	target	1	1345	328	227667	13.328	12.869	13.787
TrackDT01	3	TrackDT	1.0	SCS215a	20120419.131726	20120419.132224	dt-generate	8	0.013328	60	10	60-180	60	110	GapExp	0	50	2	1	1	target	1	3165	0	227667	13.328	13.098	13.565
TrackDT01	3	TrackDT	1.0	SCS215a	20120419.131726	20120419.132252	dt-generate	8	0.013328	60	10	60-180	60	76	GapExp	0	51	2	1	0	target	0	494	-1000	226667	13.328	13.021	13.631
TrackDT01	3	TrackDT	1.0	SCS215a	20120419.131726	20120419.132258	dt-generate	8	0.013328	60	10	60-180	60	85	GapExp	0	52	2	3	1	target	1	790	605	227272	13.328	12.908	13.773
TrackDT01	3	TrackDT	1.0	SCS215a	20120419.131726	20120419.132303	dt-generate	8	0.013328	60	10	60-180	60	127	GapExp	0	53	2	3	1	target	1	294	853	228125	13.328	13.307	13.344
TrackDT01	3	TrackDT	1.0	SCS215a	20120419.131726	20120419.132309	dt-generate	8	0.013328	60	10	60-180	60	61	GapExp	0	54	2	3	1	target	1	371	815	228940	13.328	12.854	13.803
TrackDT01	3	TrackDT	1.0	SCS215a	20120419.131726	20120419.132313	dt-generate	8	0.013328	60	10	60-180	60	93	GapExp	0	55	2	1	1	target	1	504	748	229688	13.328	13.088	13.565
TrackDT01	3	TrackDT	1.0	SCS215a	20120419.131726	20120419.132318	dt-generate	8	0.013328	60	10	60-180	60	94	GapExp	0	56	2	1	0	target	0	415	-1000	228688	13.328	12.945	13.710
TrackDT01	3	TrackDT	1.0	SCS215a	20120419.131726	20120419.132324	dt-generate	8	0.013328	60	10	60-180	60	159	GapExp	0	57	2	30	1	target	1	471	765	229453	13.328	12.904	13.745
TrackDT01	3	TrackDT	1.0	SCS215a	20120419.131726	20120419.132331	dt-generate	8	0.013328	60	10	60-180	60	103	GapExp	0	58	2	3	0	distractor	1	590	705	230158	13.328	13.298	13.346
TrackDT01	3	TrackDT	1.0	SCS215a	20120419.131726	20120419.132336	dt-generate	8	0.013328	60	10	60-180	60	128	GapExp	0	59	2	0	0	target	0	566	-1000	229158	13.328	13.296	13.362
TrackDT01	3	TrackDT	1.0	SCS215a	20120419.131726	20120419.132342	dt-generate	8	0.013328	60	10	60-180	60	169	GapExp	0	60	2	30	0	target	0	473	-1000	228158	13.328	13.102	13.546
TrackDT01	3	TrackDT	1.0	SCS215a	20120419.131726	20120419.132348	dt-generate	8	0.013328	60	10	60-180	60	120	GapExp	0	61	2	3	1	target	1	390	805	228963	13.328	12.933	13.751
TrackDT01	3	TrackDT	1.0	SCS215a	20120419.131726	20120419.132354	dt-generate	8	0.013328	60	10	60-180	60	80	GapExp	0	62	2	3	0	distractor	1	570	715	229678	13.328	12.882	13.787
TrackDT01	3	TrackDT	1.0	SCS215a	20120419.131726	20120419.132359	dt-generate	8	0.013328	60	10	60-180	60	100	GapExp	0	63	2	3	0	distractor	1	713	644	230322	13.328	13.022	13.626
TrackDT01	3	TrackDT	1.0	SCS215a	20120419.131726	20120419.132405	dt-generate	8	0.013328	60	10	60-180	60	65	GapExp	0	64	2	1	0	target	0	955	-1000	229322	13.328	13.092	13.579
TrackDT01	3	TrackDT	1.0	SCS215a	20120419.131726	20120419.132410	dt-generate	8	0.013328	60	10	60-180	60	175	GapExp	0	65	2	0	1	target	1	417	792	230114	13.328	13.232	13.425
TrackDT01	3	TrackDT	1.0	SCS215a	20120419.131726	20120419.132416	dt-generate	8	0.013328	60	10	60-180	60	66	GapExp	0	66	2	0	0	target	0	940	-1000	229114	13.328	13.111	13.559
TrackDT01	3	TrackDT	1.0	SCS215a	20120419.131726	20120419.132422	dt-generate	8	0.013328	60	10	60-180	60	65	GapExp	0	67	2	1	0	target	0	1177	-1000	228114	13.328	13.114	13.549
TrackDT01	3	TrackDT	1.0	SCS215a	20120419.131726	20120419.132427	dt-generate	8	0.013328	60	10	60-180	60	127	GapExp	0	68	2	0	1	target	1	414	793	228907	13.328	13.307	13.347
TrackDT01	3	TrackDT	1.0	SCS215a	20120419.131726	20120419.132433	dt-generate	8	0.013328	60	10	60-180	60	122	GapExp	0	69	2	30	0	target	0	722	-1000	227907	13.328	12.881	13.768
TrackDT01	3	TrackDT	1.0	SCS215a	20120419.131726	20120419.132439	dt-generate	8	0.013328	60	10	60-180	60	174	GapExp	0	70	2	30	0	target	0	400	-1000	226907	13.328	12.927	13.736
TrackDT01	3	TrackDT	1.0	SCS215a	20120419.131726	20120419.132446	dt-generate	8	0.013328	60	10	60-180	60	105	GapExp	0	71	2	1	0	distractor	1	603	699	227606	13.328	12.918	13.738
TrackDT01	3	TrackDT	1.0	SCS215a	20120419.131726	20120419.132451	dt-generate	8	0.013328	60	10	60-180	60	137	GapExp	0	72	2	30	0	target	0	629	-1000	226606	13.328	12.945	13.717
TrackDT01	3	TrackDT	1.0	SCS215a	20120419.131726	20120419.132458	dt-generate	8	0.013328	60	10	60-180	60	159	GapExp	0	73	2	1	1	target	1	381	810	227416	13.328	13.011	13.646
TrackDT01	3	TrackDT	1.0	SCS215a	20120419.131726	20120419.132504	dt-generate	8	0.013328	60	10	60-180	60	123	GapExp	0	74	2	1	0	target	0	467	-1000	226416	13.328	13.307	13.349
TrackDT01	3	TrackDT	1.0	SCS215a	20120419.131726	20120419.132510	dt-generate	8	0.013328	60	10	60-180	60	178	GapExp	0	75	2	30	1	target	1	529	736	227152	13.448	12.889	40.147
TrackDT01	3	TrackDT	1.0	SCS215a	20120419.131726	20120419.132517	dt-generate	8	0.013328	60	10	60-180	60	129	GapExp	0	76	2	3	0	target	0	850	-1000	226152	13.328	13.071	13.585
TrackDT01	3	TrackDT	1.0	SCS215a	20120419.131726	20120419.132523	dt-generate	8	0.013328	60	10	60-180	60	88	GapExp	0	77	2	0	1	target	1	1070	465	226617	13.328	13.310	13.344
TrackDT01	3	TrackDT	1.0	SCS215a	20120419.131726	20120419.132528	dt-generate	8	0.013328	60	10	60-180	60	65	GapExp	0	78	2	1	1	target	1	423	789	227406	13.328	13.308	13.347
TrackDT01	3	TrackDT	1.0	SCS215a	20120419.131726	20120419.132533	dt-generate	8	0.013328	60	10	60-180	60	78	GapExp	0	79	2	30	0	distractor	1	1846	77	227483	13.328	13.081	13.581
TrackDT01	3	TrackDT	1.0	SCS215a	20120419.131726	20120419.132540	dt-generate	8	0.013328	60	10	60-180	60	72	GapExp	0	80	2	30	1	early	-4	-152	-1000	226483	13.326	12.955	13.603
TrackDT01	3	TrackDT	1.0	SCS215a	20120419.131726	20120419.132546	dt-generate	8	0.013328	60	10	60-180	60	145	GapExp	0	81	2	1	1	target	1	721	640	227123	13.326	12.842	13.815
TrackDT01	3	TrackDT	1.0	SCS215a	20120419.131726	20120419.132552	dt-generate	8	0.013328	60	10	60-180	60	115	GapExp	0	82	2	3	0	target	0	874	-1000	226123	13.328	13.306	13.350
TrackDT01	3	TrackDT	1.0	SCS215a	20120419.131726	20120419.132558	dt-generate	8	0.013328	60	10	60-180	60	78	GapExp	0	83	2	3	1	target	1	404	798	226921	13.328	13.307	13.345
TrackDT01	3	TrackDT	1.0	SCS215a	20120419.131726	20120419.132603	dt-generate	8	0.013328	60	10	60-180	60	102	GapExp	0	84	2	3	0	target	0	433	-1000	225921	13.328	13.028	13.636
