exp	sub	code	rev	comp	runtime	trialtime	stdt	nstim	refreshdur	cuedur	gapdur	gapOnsetRange	durPostProbe	gapOnsetTime	blocktype	prac	trial	ntargets	soa	probeTarget	resp	acc	rt	pts	tpts	meanFrameDur	minFrameDur	maxFrameDur
TrackDT01	2	TrackDT	1.0	SCS215a	20120417.135053	20120417.135106	single-task	8	0.013328	60	0	60-180	60	155	NoGap	1	1	2	0	0	distractor	1	2793	0	0	13.328	12.869	13.789
TrackDT01	2	TrackDT	1.0	SCS215a	20120417.135053	20120417.135115	single-task	8	0.013328	60	0	60-180	60	164	NoGap	1	2	2	0	0	distractor	1	1031	485	485	13.328	13.085	13.564
TrackDT01	2	TrackDT	1.0	SCS215a	20120417.135053	20120417.135121	single-task	8	0.013328	60	0	60-180	60	77	NoGap	1	3	2	0	1	target	1	789	606	1091	13.328	12.917	13.757
TrackDT01	2	TrackDT	1.0	SCS215a	20120417.135053	20120417.135127	single-task	8	0.013328	60	0	60-180	60	123	NoGap	1	4	2	0	1	target	1	724	638	1729	13.328	12.899	13.759
TrackDT01	2	TrackDT	1.0	SCS215a	20120417.135053	20120417.135132	single-task	8	0.013328	60	0	60-180	60	104	NoGap	1	5	2	30	1	target	1	625	688	2417	13.328	13.022	13.635
TrackDT01	2	TrackDT	1.0	SCS215a	20120417.135053	20120417.135138	single-task	8	0.013328	60	0	60-180	60	106	NoGap	1	6	2	1	1	target	1	590	705	3122	13.328	12.852	13.810
TrackDT01	2	TrackDT	1.0	SCS215a	20120417.135053	20120417.135143	single-task	8	0.013328	60	0	60-180	60	143	NoGap	1	7	2	0	1	target	1	591	705	3827	13.328	13.090	13.559
TrackDT01	2	TrackDT	1.0	SCS215a	20120417.135053	20120417.135150	single-task	8	0.013328	60	0	60-180	60	106	NoGap	1	8	2	30	0	distractor	1	702	649	4476	13.328	13.108	13.547
TrackDT01	2	TrackDT	1.0	SCS215a	20120417.135053	20120417.135156	single-task	8	0.013328	60	0	60-180	60	161	NoGap	1	9	2	30	1	target	1	592	704	5180	13.328	12.987	13.676
TrackDT01	2	TrackDT	1.0	SCS215a	20120417.135053	20120417.135202	single-task	8	0.013328	60	0	60-180	60	172	NoGap	1	10	2	30	0	distractor	1	764	618	5798	13.328	13.300	13.352
TrackDT01	2	TrackDT	1.0	SCS215a	20120417.135053	20120417.135209	single-task	8	0.013328	60	0	60-180	60	133	NoGap	1	11	2	30	0	distractor	1	938	531	6329	13.328	12.851	13.804
TrackDT01	2	TrackDT	1.0	SCS215a	20120417.135053	20120417.135215	single-task	8	0.013328	60	0	60-180	60	134	NoGap	1	12	2	3	0	distractor	1	902	549	6878	13.328	12.929	13.730
TrackDT01	2	TrackDT	1.0	SCS215a	20120417.135053	20120417.135222	single-task	8	0.013328	60	0	60-180	60	107	NoGap	1	13	2	0	1	target	1	639	681	7559	13.328	13.306	13.347
TrackDT01	2	TrackDT	1.0	SCS215a	20120417.135053	20120417.135227	single-task	8	0.013328	60	0	60-180	60	71	NoGap	1	14	2	30	1	target	1	952	524	8083	13.328	12.862	13.790
TrackDT01	2	TrackDT	1.0	SCS215a	20120417.135053	20120417.135233	single-task	8	0.013328	60	0	60-180	60	94	NoGap	1	15	2	1	1	target	1	706	647	8730	13.328	12.938	13.733
TrackDT01	2	TrackDT	1.0	SCS215a	20120417.135053	20120417.135238	single-task	8	0.013328	60	0	60-180	60	144	NoGap	1	16	2	3	1	target	1	646	677	9407	13.328	13.306	13.344
TrackDT01	2	TrackDT	1.0	SCS215a	20120417.135053	20120417.135244	single-task	8	0.013328	60	0	60-180	60	86	NoGap	1	17	2	1	0	distractor	1	851	575	9982	13.328	12.846	13.805
TrackDT01	2	TrackDT	1.0	SCS215a	20120417.135053	20120417.135249	single-task	8	0.013328	60	0	60-180	60	80	NoGap	1	18	2	30	1	target	1	691	655	10637	13.328	12.890	13.761
TrackDT01	2	TrackDT	1.0	SCS215a	20120417.135053	20120417.135255	single-task	8	0.013328	60	0	60-180	60	149	NoGap	1	19	2	1	1	target	1	468	766	11403	13.328	13.096	13.544
TrackDT01	2	TrackDT	1.0	SCS215a	20120417.135053	20120417.135301	single-task	8	0.013328	60	0	60-180	60	62	NoGap	1	20	2	30	0	distractor	1	719	641	12044	13.328	13.090	13.559
TrackDT01	2	TrackDT	1.0	SCS215a	20120417.135053	20120417.135307	single-task	8	0.013328	60	0	60-180	60	134	NoGap	1	21	2	3	0	distractor	1	773	614	12658	13.328	13.298	13.364
TrackDT01	2	TrackDT	1.0	SCS215a	20120417.135053	20120417.135312	single-task	8	0.013328	60	0	60-180	60	84	NoGap	1	22	2	0	0	distractor	1	815	593	13251	13.328	12.851	13.820
TrackDT01	2	TrackDT	1.0	SCS215a	20120417.135053	20120417.135318	single-task	8	0.013328	60	0	60-180	60	106	NoGap	1	23	2	3	1	target	1	630	685	13936	13.328	12.906	13.745
TrackDT01	2	TrackDT	1.0	SCS215a	20120417.135053	20120417.135323	single-task	8	0.013328	60	0	60-180	60	173	NoGap	1	24	2	3	0	distractor	1	806	597	14533	13.328	12.862	13.781
TrackDT01	2	TrackDT	1.0	SCS215a	20120417.135053	20120417.135330	single-task	8	0.013328	60	0	60-180	60	121	NoGap	1	25	2	1	0	distractor	1	588	706	15239	13.328	13.091	13.553
TrackDT01	2	TrackDT	1.0	SCS215a	20120417.135053	20120417.135336	single-task	8	0.013328	60	0	60-180	60	114	NoGap	1	26	2	1	1	target	1	746	627	15866	13.328	13.099	13.544
TrackDT01	2	TrackDT	1.0	SCS215a	20120417.135053	20120417.135341	single-task	8	0.013328	60	0	60-180	60	142	NoGap	1	27	2	1	1	target	1	597	702	16568	13.328	13.234	13.406
TrackDT01	2	TrackDT	1.0	SCS215a	20120417.135053	20120417.135347	single-task	8	0.013328	60	0	60-180	60	94	NoGap	1	28	2	1	0	distractor	1	633	684	17252	13.328	13.307	13.344
TrackDT01	2	TrackDT	1.0	SCS215a	20120417.135053	20120417.135352	single-task	8	0.013328	60	0	60-180	60	108	NoGap	1	29	2	3	0	distractor	1	727	637	17889	13.326	12.951	13.386
TrackDT01	2	TrackDT	1.0	SCS215a	20120417.135053	20120417.135358	single-task	8	0.013328	60	0	60-180	60	97	NoGap	1	30	2	3	1	target	1	510	745	18634	13.328	13.099	13.544
TrackDT01	2	TrackDT	1.0	SCS215a	20120417.135053	20120417.135403	single-task	8	0.013328	60	0	60-180	60	71	NoGap	1	31	2	0	1	target	1	838	581	19215	13.328	13.309	13.361
TrackDT01	2	TrackDT	1.0	SCS215a	20120417.135053	20120417.135408	single-task	8	0.013328	60	0	60-180	60	173	NoGap	1	32	2	1	0	distractor	1	573	714	19929	13.328	12.886	13.778
TrackDT01	2	TrackDT	1.0	SCS215a	20120417.135053	20120417.135414	single-task	8	0.013328	60	0	60-180	60	118	NoGap	1	33	2	3	0	distractor	1	464	768	20697	13.328	13.306	13.352
TrackDT01	2	TrackDT	1.0	SCS215a	20120417.135053	20120417.135420	single-task	8	0.013328	60	0	60-180	60	147	NoGap	1	34	2	0	0	distractor	1	676	662	21359	13.328	13.112	13.551
TrackDT01	2	TrackDT	1.0	SCS215a	20120417.135053	20120417.135426	single-task	8	0.013328	60	0	60-180	60	167	NoGap	1	35	2	30	0	distractor	1	879	561	21920	13.328	13.167	13.490
TrackDT01	2	TrackDT	1.0	SCS215a	20120417.135053	20120417.135433	single-task	8	0.013328	60	0	60-180	60	143	NoGap	1	36	2	30	1	target	1	556	722	22642	13.328	12.870	13.775
TrackDT01	2	TrackDT	1.0	SCS215a	20120417.135053	20120417.135439	single-task	8	0.013328	60	0	60-180	60	146	NoGap	1	37	2	0	0	distractor	1	532	734	23376	13.328	13.104	13.557
TrackDT01	2	TrackDT	1.0	SCS215a	20120417.135053	20120417.135445	single-task	8	0.013328	60	0	60-180	60	100	NoGap	1	38	2	3	1	target	1	548	726	24102	13.328	13.301	13.353
TrackDT01	2	TrackDT	1.0	SCS215a	20120417.135053	20120417.135450	single-task	8	0.013328	60	0	60-180	60	171	NoGap	1	39	2	3	1	target	1	410	795	24897	13.328	12.892	13.768
TrackDT01	2	TrackDT	1.0	SCS215a	20120417.135053	20120417.135456	single-task	8	0.013328	60	0	60-180	60	106	NoGap	1	40	2	1	0	distractor	1	967	517	25414	13.328	13.307	13.346
TrackDT01	2	TrackDT	1.0	SCS215a	20120417.135551	20120417.135558	single-task	8	0.013352	60	10	60-180	60	147	GapPrac	1	1	2	1	1	target	1	1712	144	25558	13.328	13.083	13.559
TrackDT01	2	TrackDT	1.0	SCS215a	20120417.135551	20120417.135606	single-task	8	0.013352	60	10	60-180	60	95	GapPrac	1	2	2	3	1	target	1	1712	144	25702	13.328	8.911	17.740
TrackDT01	2	TrackDT	1.0	SCS215a	20120417.135551	20120417.135612	single-task	8	0.013352	60	10	60-180	60	101	GapPrac	1	3	2	0	1	target	1	493	754	26456	13.328	13.302	13.356
TrackDT01	2	TrackDT	1.0	SCS215a	20120417.135551	20120417.135618	single-task	8	0.013352	60	10	60-180	60	118	GapPrac	1	4	2	30	0	distractor	1	614	693	27149	13.328	5.267	21.395
TrackDT01	2	TrackDT	1.0	SCS215a	20120417.135551	20120417.135624	single-task	8	0.013352	60	10	60-180	60	146	GapPrac	1	5	2	3	1	target	1	628	686	27835	13.328	10.007	16.649
TrackDT01	2	TrackDT	1.0	SCS215a	20120417.135551	20120417.135630	single-task	8	0.013352	60	10	60-180	60	146	GapPrac	1	6	2	3	0	distractor	1	645	678	28513	13.328	13.106	13.552
TrackDT01	2	TrackDT	1.0	SCS215a	20120417.135551	20120417.135636	single-task	8	0.013352	60	10	60-180	60	87	GapPrac	1	7	2	3	1	target	1	459	771	29284	13.328	13.306	13.351
TrackDT01	2	TrackDT	1.0	SCS215a	20120417.135551	20120417.135641	single-task	8	0.013352	60	10	60-180	60	153	GapPrac	1	8	2	30	0	distractor	1	511	745	30029	13.328	6.998	19.659
TrackDT01	2	TrackDT	1.0	SCS215a	20120417.135551	20120417.135648	single-task	8	0.013352	60	10	60-180	60	171	GapPrac	1	9	2	0	0	distractor	1	664	668	30697	13.328	7.197	19.464
TrackDT01	2	TrackDT	1.0	SCS215a	20120417.135551	20120417.135654	single-task	8	0.013352	60	10	60-180	60	77	GapPrac	1	10	2	0	1	target	1	510	745	31442	13.327	13.084	13.344
TrackDT01	2	TrackDT	1.0	SCS215a	20120417.135551	20120417.135659	single-task	8	0.013352	60	10	60-180	60	85	GapPrac	1	11	2	1	0	distractor	1	626	687	32129	13.328	11.774	14.880
TrackDT01	2	TrackDT	1.0	SCS215a	20120417.135551	20120417.135704	single-task	8	0.013352	60	10	60-180	60	161	GapPrac	1	12	2	1	1	target	1	339	831	32960	13.328	13.307	13.343
TrackDT01	2	TrackDT	1.0	SCS215a	20120417.135551	20120417.135711	single-task	8	0.013352	60	10	60-180	60	90	GapPrac	1	13	2	30	0	distractor	1	544	728	33688	13.328	12.607	14.063
TrackDT01	2	TrackDT	1.0	SCS215a	20120417.135551	20120417.135716	single-task	8	0.013352	60	10	60-180	60	136	GapPrac	1	14	2	3	0	distractor	1	553	724	34412	13.328	10.669	15.996
TrackDT01	2	TrackDT	1.0	SCS215a	20120417.135551	20120417.135722	single-task	8	0.013352	60	10	60-180	60	149	GapPrac	1	15	2	1	0	distractor	1	891	555	34967	13.328	11.984	14.665
TrackDT01	2	TrackDT	1.0	SCS215a	20120417.135551	20120417.135729	single-task	8	0.013352	60	10	60-180	60	135	GapPrac	1	16	2	0	0	distractor	1	827	587	35554	13.328	9.598	17.054
TrackDT01	2	TrackDT	1.0	SCS215a	20120417.135551	20120417.135735	single-task	8	0.013352	60	10	60-180	60	125	GapPrac	1	17	2	30	1	target	1	345	828	36382	13.328	13.105	13.559
TrackDT01	2	TrackDT	1.0	SCS215a	20120417.135551	20120417.135740	single-task	8	0.013352	60	10	60-180	60	143	GapPrac	1	18	2	30	1	target	1	422	789	37171	13.328	13.097	13.560
TrackDT01	2	TrackDT	1.0	SCS215a	20120417.135551	20120417.135747	single-task	8	0.013352	60	10	60-180	60	70	GapPrac	1	19	2	0	1	target	1	393	804	37975	13.328	10.025	16.622
TrackDT01	2	TrackDT	1.0	SCS215a	20120417.135551	20120417.135752	single-task	8	0.013352	60	10	60-180	60	87	GapPrac	1	20	2	1	1	target	1	451	775	38750	13.328	11.288	15.384
TrackDT01	2	TrackDT	1.0	SCS215a	20120417.135922	20120417.135928	single-task	8	0.013328	60	10	60-180	60	139	GapExp	1	1	2	30	1	target	1	586	707	39457	13.328	13.306	13.346
TrackDT01	2	TrackDT	1.0	SCS215a	20120417.135922	20120417.135935	single-task	8	0.013328	60	10	60-180	60	82	GapExp	1	2	2	1	1	target	1	534	733	40190	13.328	13.104	13.546
TrackDT01	2	TrackDT	1.0	SCS215a	20120417.135922	20120417.135940	single-task	8	0.013328	60	10	60-180	60	124	GapExp	1	3	2	0	0	distractor	1	746	627	40817	13.328	12.906	13.757
TrackDT01	2	TrackDT	1.0	SCS215a	20120417.135922	20120417.135946	single-task	8	0.013328	60	10	60-180	60	70	GapExp	1	4	2	0	1	target	1	433	784	41601	13.328	13.255	13.413
TrackDT01	2	TrackDT	1.0	SCS215a	20120417.135922	20120417.135951	single-task	8	0.013328	60	10	60-180	60	65	GapExp	1	5	2	30	0	distractor	1	604	698	42299	13.328	13.076	13.593
TrackDT01	2	TrackDT	1.0	SCS215a	20120417.135922	20120417.135956	single-task	8	0.013328	60	10	60-180	60	67	GapExp	1	6	2	3	0	distractor	1	524	738	43037	13.328	13.089	13.567
TrackDT01	2	TrackDT	1.0	SCS215a	20120417.135922	20120417.140001	single-task	8	0.013328	60	10	60-180	60	140	GapExp	1	7	2	3	1	distractor	0	404	-1000	42037	13.328	13.309	13.346
TrackDT01	2	TrackDT	1.0	SCS215a	20120417.135922	20120417.140007	single-task	8	0.013328	60	10	60-180	60	106	GapExp	1	8	2	1	0	distractor	1	621	690	42727	13.328	13.271	13.381
TrackDT01	2	TrackDT	1.0	SCS215a	20120417.135922	20120417.140012	single-task	8	0.013328	60	10	60-180	60	180	GapExp	0	9	2	3	0	distractor	1	573	714	43441	13.328	12.847	13.795
TrackDT01	2	TrackDT	1.0	SCS215a	20120417.135922	20120417.140019	single-task	8	0.013328	60	10	60-180	60	127	GapExp	0	10	2	30	1	target	1	473	764	44205	13.328	12.842	13.784
TrackDT01	2	TrackDT	1.0	SCS215a	20120417.135922	20120417.140025	single-task	8	0.013328	60	10	60-180	60	108	GapExp	0	11	2	3	0	distractor	1	663	669	44874	13.328	12.999	13.659
TrackDT01	2	TrackDT	1.0	SCS215a	20120417.135922	20120417.140030	single-task	8	0.013328	60	10	60-180	60	168	GapExp	0	12	2	3	0	distractor	1	543	729	45603	13.328	12.912	13.745
TrackDT01	2	TrackDT	1.0	SCS215a	20120417.135922	20120417.140037	single-task	8	0.013328	60	10	60-180	60	126	GapExp	0	13	2	3	1	target	1	455	773	46376	13.328	13.104	13.565
TrackDT01	2	TrackDT	1.0	SCS215a	20120417.135922	20120417.140043	single-task	8	0.013328	60	10	60-180	60	74	GapExp	0	14	2	30	1	target	1	689	656	47032	13.328	13.034	13.608
TrackDT01	2	TrackDT	1.0	SCS215a	20120417.135922	20120417.140048	single-task	8	0.013328	60	10	60-180	60	66	GapExp	0	15	2	3	1	target	1	591	705	47737	13.328	13.309	13.352
TrackDT01	2	TrackDT	1.0	SCS215a	20120417.135922	20120417.140053	single-task	8	0.013328	60	10	60-180	60	148	GapExp	0	16	2	30	0	distractor	1	551	725	48462	13.328	12.903	13.758
TrackDT01	2	TrackDT	1.0	SCS215a	20120417.135922	20120417.140100	single-task	8	0.013328	60	10	60-180	60	61	GapExp	0	17	2	30	1	target	1	628	686	49148	13.328	13.308	13.352
TrackDT01	2	TrackDT	1.0	SCS215a	20120417.135922	20120417.140105	single-task	8	0.013328	60	10	60-180	60	105	GapExp	0	18	2	0	1	target	1	429	786	49934	13.328	13.053	13.596
TrackDT01	2	TrackDT	1.0	SCS215a	20120417.135922	20120417.140111	single-task	8	0.013328	60	10	60-180	60	151	GapExp	0	19	2	30	0	distractor	1	705	648	50582	13.328	12.899	13.785
TrackDT01	2	TrackDT	1.0	SCS215a	20120417.135922	20120417.140117	single-task	8	0.013328	60	10	60-180	60	153	GapExp	0	20	2	30	0	distractor	1	527	737	51319	13.328	13.105	13.560
TrackDT01	2	TrackDT	1.0	SCS215a	20120417.135922	20120417.140124	single-task	8	0.013328	60	10	60-180	60	151	GapExp	0	21	2	1	1	target	1	464	768	52087	13.328	12.966	13.677
TrackDT01	2	TrackDT	1.0	SCS215a	20120417.135922	20120417.140130	single-task	8	0.013328	60	10	60-180	60	68	GapExp	0	22	2	3	1	target	1	467	767	52854	13.328	12.945	13.748
TrackDT01	2	TrackDT	1.0	SCS215a	20120417.135922	20120417.140135	single-task	8	0.013328	60	10	60-180	60	148	GapExp	0	23	2	3	0	distractor	1	515	743	53597	13.328	13.306	13.349
TrackDT01	2	TrackDT	1.0	SCS215a	20120417.135922	20120417.140141	single-task	8	0.013328	60	10	60-180	60	155	GapExp	0	24	2	0	1	target	1	609	696	54293	13.328	13.034	13.623
TrackDT01	2	TrackDT	1.0	SCS215a	20120417.135922	20120417.140147	single-task	8	0.013328	60	10	60-180	60	88	GapExp	0	25	2	0	1	target	1	438	781	55074	13.328	13.111	13.551
TrackDT01	2	TrackDT	1.0	SCS215a	20120417.135922	20120417.140152	single-task	8	0.013328	60	10	60-180	60	87	GapExp	0	26	2	3	1	target	1	440	780	55854	13.328	12.871	13.820
TrackDT01	2	TrackDT	1.0	SCS215a	20120417.135922	20120417.140157	single-task	8	0.013328	60	10	60-180	60	106	GapExp	0	27	2	0	0	distractor	1	640	680	56534	13.328	13.298	13.354
TrackDT01	2	TrackDT	1.0	SCS215a	20120417.135922	20120417.140203	single-task	8	0.013328	60	10	60-180	60	175	GapExp	0	28	2	3	0	distractor	1	480	760	57294	13.328	12.849	13.807
TrackDT01	2	TrackDT	1.0	SCS215a	20120417.135922	20120417.140209	single-task	8	0.013328	60	10	60-180	60	149	GapExp	0	29	2	30	1	target	1	551	725	58019	13.328	12.871	13.784
TrackDT01	2	TrackDT	1.0	SCS215a	20120417.135922	20120417.140216	single-task	8	0.013328	60	10	60-180	60	94	GapExp	0	30	2	30	0	distractor	1	485	758	58777	13.328	13.008	13.648
TrackDT01	2	TrackDT	1.0	SCS215a	20120417.135922	20120417.140222	single-task	8	0.013328	60	10	60-180	60	92	GapExp	0	31	2	3	1	target	1	538	731	59508	13.328	12.878	13.790
TrackDT01	2	TrackDT	1.0	SCS215a	20120417.135922	20120417.140227	single-task	8	0.013328	60	10	60-180	60	115	GapExp	0	32	2	0	1	target	1	485	758	60266	13.328	13.181	13.475
TrackDT01	2	TrackDT	1.0	SCS215a	20120417.135922	20120417.140232	single-task	8	0.013328	60	10	60-180	60	105	GapExp	0	33	2	0	1	target	1	479	761	61027	13.328	12.889	13.762
TrackDT01	2	TrackDT	1.0	SCS215a	20120417.135922	20120417.140238	single-task	8	0.013328	60	10	60-180	60	121	GapExp	0	34	2	0	1	target	1	452	774	61801	13.328	12.870	13.789
TrackDT01	2	TrackDT	1.0	SCS215a	20120417.135922	20120417.140243	single-task	8	0.013328	60	10	60-180	60	90	GapExp	0	35	2	1	1	target	1	578	711	62512	13.328	12.850	13.818
TrackDT01	2	TrackDT	1.0	SCS215a	20120417.135922	20120417.140249	single-task	8	0.013328	60	10	60-180	60	173	GapExp	0	36	2	3	0	distractor	1	768	616	63128	13.328	12.970	13.685
TrackDT01	2	TrackDT	1.0	SCS215a	20120417.135922	20120417.140255	single-task	8	0.013328	60	10	60-180	60	142	GapExp	0	37	2	1	0	distractor	1	473	764	63892	13.328	13.094	13.790
TrackDT01	2	TrackDT	1.0	SCS215a	20120417.135922	20120417.140301	single-task	8	0.013328	60	10	60-180	60	68	GapExp	0	38	2	0	1	target	1	588	706	64598	13.328	13.064	13.575
TrackDT01	2	TrackDT	1.0	SCS215a	20120417.135922	20120417.140306	single-task	8	0.013328	60	10	60-180	60	84	GapExp	0	39	2	1	0	distractor	1	558	721	65319	13.328	12.864	13.793
TrackDT01	2	TrackDT	1.0	SCS215a	20120417.135922	20120417.140311	single-task	8	0.013328	60	10	60-180	60	155	GapExp	0	40	2	0	1	target	1	439	781	66100	13.328	12.962	13.702
TrackDT01	2	TrackDT	1.0	SCS215a	20120417.135922	20120417.140317	single-task	8	0.013328	60	10	60-180	60	177	GapExp	0	41	2	0	0	distractor	1	484	758	66858	13.328	13.048	13.617
TrackDT01	2	TrackDT	1.0	SCS215a	20120417.135922	20120417.140324	single-task	8	0.013328	60	10	60-180	60	156	GapExp	0	42	2	30	0	distractor	1	475	763	67621	13.328	12.887	13.759
TrackDT01	2	TrackDT	1.0	SCS215a	20120417.135922	20120417.140330	single-task	8	0.013328	60	10	60-180	60	87	GapExp	0	43	2	0	1	target	1	445	778	68399	13.328	12.915	13.769
TrackDT01	2	TrackDT	1.0	SCS215a	20120417.135922	20120417.140336	single-task	8	0.013328	60	10	60-180	60	173	GapExp	0	44	2	1	1	target	1	394	803	69202	13.328	12.900	13.754
TrackDT01	2	TrackDT	1.0	SCS215a	20120417.135922	20120417.140342	single-task	8	0.013328	60	10	60-180	60	138	GapExp	0	45	2	30	1	target	1	523	739	69941	13.328	12.882	13.768
TrackDT01	2	TrackDT	1.0	SCS215a	20120417.135922	20120417.140348	single-task	8	0.013328	60	10	60-180	60	177	GapExp	0	46	2	1	0	distractor	1	547	727	70668	13.328	12.842	13.803
TrackDT01	2	TrackDT	1.0	SCS215a	20120417.135922	20120417.140355	single-task	8	0.013328	60	10	60-180	60	162	GapExp	0	47	2	0	1	target	1	523	739	71407	13.328	13.022	13.623
TrackDT01	2	TrackDT	1.0	SCS215a	20120417.135922	20120417.140401	single-task	8	0.013328	60	10	60-180	60	154	GapExp	0	48	2	3	0	distractor	1	510	745	72152	13.328	12.956	13.701
TrackDT01	2	TrackDT	1.0	SCS215a	20120417.135922	20120417.140407	single-task	8	0.013328	60	10	60-180	60	75	GapExp	0	49	2	30	1	target	1	429	786	72938	13.328	13.093	13.562
TrackDT01	2	TrackDT	1.0	SCS215a	20120417.135922	20120417.140412	single-task	8	0.013328	60	10	60-180	60	111	GapExp	0	50	2	1	0	distractor	1	580	710	73648	13.328	13.090	13.552
TrackDT01	2	TrackDT	1.0	SCS215a	20120417.135922	20120417.140421	single-task	8	0.013328	60	10	60-180	60	77	GapExp	0	51	2	3	1	target	1	495	753	74401	13.328	13.098	13.564
TrackDT01	2	TrackDT	1.0	SCS215a	20120417.135922	20120417.140427	single-task	8	0.013328	60	10	60-180	60	76	GapExp	0	52	2	1	1	target	1	577	712	75113	13.328	13.142	13.456
TrackDT01	2	TrackDT	1.0	SCS215a	20120417.135922	20120417.140432	single-task	8	0.013328	60	10	60-180	60	158	GapExp	0	53	2	0	0	distractor	1	563	719	75832	13.328	12.838	13.805
TrackDT01	2	TrackDT	1.0	SCS215a	20120417.135922	20120417.140438	single-task	8	0.013328	60	10	60-180	60	85	GapExp	0	54	2	1	1	target	1	476	762	76594	13.328	13.305	13.352
TrackDT01	2	TrackDT	1.0	SCS215a	20120417.135922	20120417.140443	single-task	8	0.013328	60	10	60-180	60	133	GapExp	0	55	2	0	1	target	1	514	743	77337	13.327	13.112	13.346
TrackDT01	2	TrackDT	1.0	SCS215a	20120417.135922	20120417.140449	single-task	8	0.013328	60	10	60-180	60	70	GapExp	0	56	2	30	0	distractor	1	722	639	77976	13.328	12.903	13.745
TrackDT01	2	TrackDT	1.0	SCS215a	20120417.135922	20120417.140454	single-task	8	0.013328	60	10	60-180	60	98	GapExp	0	57	2	3	0	distractor	1	413	794	78770	13.328	12.894	13.768
TrackDT01	2	TrackDT	1.0	SCS215a	20120417.135922	20120417.140500	single-task	8	0.013328	60	10	60-180	60	75	GapExp	0	58	2	3	1	target	1	459	771	79541	13.328	13.172	13.428
TrackDT01	2	TrackDT	1.0	SCS215a	20120417.135922	20120417.140505	single-task	8	0.013328	60	10	60-180	60	171	GapExp	0	59	2	1	1	target	1	435	783	80324	13.328	13.018	13.636
TrackDT01	2	TrackDT	1.0	SCS215a	20120417.135922	20120417.140511	single-task	8	0.013328	60	10	60-180	60	93	GapExp	0	60	2	0	0	target	0	567	-1000	79324	13.328	12.923	13.740
TrackDT01	2	TrackDT	1.0	SCS215a	20120417.135922	20120417.140516	single-task	8	0.013328	60	10	60-180	60	130	GapExp	0	61	2	0	0	distractor	1	644	678	80002	13.328	12.997	13.657
TrackDT01	2	TrackDT	1.0	SCS215a	20120417.135922	20120417.140522	single-task	8	0.013328	60	10	60-180	60	82	GapExp	0	62	2	30	0	distractor	1	724	638	80640	13.328	12.970	13.694
TrackDT01	2	TrackDT	1.0	SCS215a	20120417.135922	20120417.140528	single-task	8	0.013328	60	10	60-180	60	141	GapExp	0	63	2	0	0	target	0	1001	-1000	79640	13.328	13.305	13.355
TrackDT01	2	TrackDT	1.0	SCS215a	20120417.135922	20120417.140535	single-task	8	0.013328	60	10	60-180	60	79	GapExp	0	64	2	1	0	distractor	1	775	613	80253	13.328	13.298	13.352
TrackDT01	2	TrackDT	1.0	SCS215a	20120417.135922	20120417.140540	single-task	8	0.013328	60	10	60-180	60	71	GapExp	0	65	2	0	0	distractor	1	1406	297	80550	13.328	13.221	13.442
TrackDT01	2	TrackDT	1.0	SCS215a	20120417.135922	20120417.140546	single-task	8	0.013328	60	10	60-180	60	74	GapExp	0	66	2	30	1	target	1	474	763	81313	13.328	13.096	13.560
TrackDT01	2	TrackDT	1.0	SCS215a	20120417.135922	20120417.140551	single-task	8	0.013328	60	10	60-180	60	136	GapExp	0	67	2	0	1	target	1	415	793	82106	13.328	12.863	13.795
TrackDT01	2	TrackDT	1.0	SCS215a	20120417.135922	20120417.140557	single-task	8	0.013328	60	10	60-180	60	77	GapExp	0	68	2	0	1	target	1	444	778	82884	13.328	12.956	13.694
TrackDT01	2	TrackDT	1.0	SCS215a	20120417.135922	20120417.140602	single-task	8	0.013328	60	10	60-180	60	76	GapExp	0	69	2	0	0	distractor	1	698	651	83535	13.328	13.049	13.613
TrackDT01	2	TrackDT	1.0	SCS215a	20120417.135922	20120417.140607	single-task	8	0.013328	60	10	60-180	60	81	GapExp	0	70	2	3	0	distractor	1	680	660	84195	13.328	13.038	13.628
TrackDT01	2	TrackDT	1.0	SCS215a	20120417.135922	20120417.140612	single-task	8	0.013328	60	10	60-180	60	99	GapExp	0	71	2	30	1	distractor	0	708	-1000	83195	13.328	13.097	13.565
TrackDT01	2	TrackDT	1.0	SCS215a	20120417.135922	20120417.140618	single-task	8	0.013328	60	10	60-180	60	141	GapExp	0	72	2	3	0	target	0	933	-1000	82195	13.328	12.869	13.787
TrackDT01	2	TrackDT	1.0	SCS215a	20120417.135922	20120417.140625	single-task	8	0.013328	60	10	60-180	60	130	GapExp	0	73	2	0	0	distractor	1	822	589	82784	13.328	13.112	13.559
TrackDT01	2	TrackDT	1.0	SCS215a	20120417.135922	20120417.140631	single-task	8	0.013328	60	10	60-180	60	151	GapExp	0	74	2	30	1	target	1	518	741	83525	13.328	13.306	13.357
TrackDT01	2	TrackDT	1.0	SCS215a	20120417.135922	20120417.140637	single-task	8	0.013328	60	10	60-180	60	109	GapExp	0	75	2	30	1	target	1	470	765	84290	13.328	13.301	13.355
TrackDT01	2	TrackDT	1.0	SCS215a	20120417.135922	20120417.140643	single-task	8	0.013328	60	10	60-180	60	165	GapExp	0	76	2	0	0	distractor	1	649	676	84966	13.328	13.283	13.374
TrackDT01	2	TrackDT	1.0	SCS215a	20120417.135922	20120417.140650	single-task	8	0.013328	60	10	60-180	60	176	GapExp	0	77	2	3	0	distractor	1	644	678	85644	13.328	13.181	13.474
TrackDT01	2	TrackDT	1.0	SCS215a	20120417.135922	20120417.140656	single-task	8	0.013328	60	10	60-180	60	97	GapExp	0	78	2	30	0	distractor	1	590	705	86349	13.328	13.097	13.552
TrackDT01	2	TrackDT	1.0	SCS215a	20120417.135922	20120417.140702	single-task	8	0.013328	60	10	60-180	60	65	GapExp	0	79	2	0	1	target	1	496	752	87101	13.328	12.982	13.669
TrackDT01	2	TrackDT	1.0	SCS215a	20120417.135922	20120417.140707	single-task	8	0.013328	60	10	60-180	60	153	GapExp	0	80	2	30	1	target	1	454	773	87874	13.328	12.990	13.659
TrackDT01	2	TrackDT	1.0	SCS215a	20120417.135922	20120417.140713	single-task	8	0.013328	60	10	60-180	60	147	GapExp	0	81	2	1	0	distractor	1	585	708	88582	13.328	13.308	13.350
TrackDT01	2	TrackDT	1.0	SCS215a	20120417.135922	20120417.140719	single-task	8	0.013328	60	10	60-180	60	160	GapExp	0	82	2	3	0	distractor	1	944	528	89110	13.328	13.302	13.355
TrackDT01	2	TrackDT	1.0	SCS215a	20120417.135922	20120417.140726	single-task	8	0.013328	60	10	60-180	60	80	GapExp	0	83	2	0	1	target	1	509	746	89856	13.328	13.307	13.345
TrackDT01	2	TrackDT	1.0	SCS215a	20120417.135922	20120417.140731	single-task	8	0.013328	60	10	60-180	60	63	GapExp	0	84	2	0	1	target	1	445	778	90634	13.328	12.924	13.724
TrackDT01	2	TrackDT	1.0	SCS215a	20120417.135922	20120417.140736	single-task	8	0.013328	60	10	60-180	60	159	GapExp	0	85	2	1	1	target	1	433	784	91418	13.328	13.089	13.562
TrackDT01	2	TrackDT	1.0	SCS215a	20120417.135922	20120417.140742	single-task	8	0.013328	60	10	60-180	60	72	GapExp	0	86	2	1	0	distractor	1	571	715	92133	13.328	13.307	13.344
TrackDT01	2	TrackDT	1.0	SCS215a	20120417.135922	20120417.140747	single-task	8	0.013328	60	10	60-180	60	176	GapExp	0	87	2	1	1	target	1	522	739	92872	13.328	13.305	13.343
TrackDT01	2	TrackDT	1.0	SCS215a	20120417.135922	20120417.140754	single-task	8	0.013328	60	10	60-180	60	63	GapExp	0	88	2	0	0	distractor	1	825	588	93460	13.328	12.899	13.751
TrackDT01	2	TrackDT	1.0	SCS215a	20120417.135922	20120417.140759	single-task	8	0.013328	60	10	60-180	60	111	GapExp	0	89	2	0	0	distractor	1	670	665	94125	13.328	13.098	13.559
TrackDT01	2	TrackDT	1.0	SCS215a	20120417.135922	20120417.140804	single-task	8	0.013328	60	10	60-180	60	122	GapExp	0	90	2	1	0	distractor	1	547	727	94852	13.328	13.098	13.553
TrackDT01	2	TrackDT	1.0	SCS215a	20120417.135922	20120417.140810	single-task	8	0.013328	60	10	60-180	60	170	GapExp	0	91	2	3	1	target	1	475	763	95615	13.328	13.093	13.557
TrackDT01	2	TrackDT	1.0	SCS215a	20120417.135922	20120417.140816	single-task	8	0.013328	60	10	60-180	60	119	GapExp	0	92	2	3	1	target	1	491	755	96370	13.328	12.968	13.688
TrackDT01	2	TrackDT	1.0	SCS215a	20120417.135922	20120417.140822	single-task	8	0.013328	60	10	60-180	60	139	GapExp	0	93	2	30	0	distractor	1	523	739	97109	13.328	13.308	13.345
TrackDT01	2	TrackDT	1.0	SCS215a	20120417.135922	20120417.140828	single-task	8	0.013328	60	10	60-180	60	179	GapExp	0	94	2	0	0	distractor	1	554	723	97832	13.328	13.309	13.353
TrackDT01	2	TrackDT	1.0	SCS215a	20120417.135922	20120417.140835	single-task	8	0.013328	60	10	60-180	60	123	GapExp	0	95	2	30	0	distractor	1	542	729	98561	13.328	12.924	13.733
TrackDT01	2	TrackDT	1.0	SCS215a	20120417.135922	20120417.140841	single-task	8	0.013328	60	10	60-180	60	86	GapExp	0	96	2	0	1	distractor	0	813	-1000	97561	13.328	12.969	13.701
TrackDT01	2	TrackDT	1.0	SCS215a	20120417.135922	20120417.140846	single-task	8	0.013328	60	10	60-180	60	89	GapExp	0	97	2	30	0	distractor	1	548	726	98287	13.328	13.100	13.543
TrackDT01	2	TrackDT	1.0	SCS215a	20120417.135922	20120417.140852	single-task	8	0.013328	60	10	60-180	60	77	GapExp	0	98	2	3	1	target	1	438	781	99068	13.328	13.307	13.348
TrackDT01	2	TrackDT	1.0	SCS215a	20120417.135922	20120417.140857	single-task	8	0.013328	60	10	60-180	60	129	GapExp	0	99	2	1	0	distractor	1	453	774	99842	13.328	12.896	13.775
TrackDT01	2	TrackDT	1.0	SCS215a	20120417.135922	20120417.140903	single-task	8	0.013328	60	10	60-180	60	91	GapExp	0	100	2	1	0	distractor	1	600	700	100542	13.328	12.874	13.780
TrackDT01	2	TrackDT	1.0	SCS215a	20120417.135922	20120417.140911	single-task	8	0.013328	60	10	60-180	60	106	GapExp	0	101	2	0	0	distractor	1	511	745	101287	13.328	12.873	13.775
TrackDT01	2	TrackDT	1.0	SCS215a	20120417.135922	20120417.140916	single-task	8	0.013328	60	10	60-180	60	143	GapExp	0	102	2	3	0	distractor	1	458	771	102058	13.328	12.928	13.738
TrackDT01	2	TrackDT	1.0	SCS215a	20120417.135922	20120417.140922	single-task	8	0.013328	60	10	60-180	60	107	GapExp	0	103	2	0	1	target	1	604	698	102756	13.328	13.054	13.602
TrackDT01	2	TrackDT	1.0	SCS215a	20120417.135922	20120417.140928	single-task	8	0.013328	60	10	60-180	60	92	GapExp	0	104	2	30	1	target	1	423	789	103545	13.328	13.097	13.552
TrackDT01	2	TrackDT	1.0	SCS215a	20120417.135922	20120417.140934	single-task	8	0.013328	60	10	60-180	60	76	GapExp	0	105	2	3	0	distractor	1	662	669	104214	13.328	13.077	13.587
TrackDT01	2	TrackDT	1.0	SCS215a	20120417.135922	20120417.140939	single-task	8	0.013328	60	10	60-180	60	179	GapExp	0	106	2	3	0	distractor	1	575	713	104927	13.328	12.854	13.804
TrackDT01	2	TrackDT	1.0	SCS215a	20120417.135922	20120417.140945	single-task	8	0.013328	60	10	60-180	60	61	GapExp	0	107	2	0	0	distractor	1	563	719	105646	13.328	13.307	13.352
TrackDT01	2	TrackDT	1.0	SCS215a	20120417.135922	20120417.140950	single-task	8	0.013328	60	10	60-180	60	180	GapExp	0	108	2	1	0	distractor	1	789	606	106252	13.328	13.073	13.583
TrackDT01	2	TrackDT	1.0	SCS215a	20120417.135922	20120417.140956	single-task	8	0.013328	60	10	60-180	60	106	GapExp	0	109	2	1	0	distractor	1	806	597	106849	13.328	12.916	13.730
TrackDT01	2	TrackDT	1.0	SCS215a	20120417.135922	20120417.141003	single-task	8	0.013328	60	10	60-180	60	96	GapExp	0	110	2	0	0	distractor	1	633	684	107533	13.328	12.869	13.780
TrackDT01	2	TrackDT	1.0	SCS215a	20120417.135922	20120417.141008	single-task	8	0.013328	60	10	60-180	60	134	GapExp	0	111	2	1	1	target	1	516	742	108275	13.328	13.310	13.353
TrackDT01	2	TrackDT	1.0	SCS215a	20120417.135922	20120417.141014	single-task	8	0.013328	60	10	60-180	60	176	GapExp	0	112	2	1	0	distractor	1	1437	282	108557	13.328	12.939	13.715
TrackDT01	2	TrackDT	1.0	SCS215a	20120417.135922	20120417.141021	single-task	8	0.013328	60	10	60-180	60	176	GapExp	0	113	2	0	1	target	1	552	724	109281	13.328	13.306	13.347
TrackDT01	2	TrackDT	1.0	SCS215a	20120417.135922	20120417.141027	single-task	8	0.013328	60	10	60-180	60	118	GapExp	0	114	2	30	0	distractor	1	507	747	110028	13.328	12.991	13.673
TrackDT01	2	TrackDT	1.0	SCS215a	20120417.135922	20120417.141034	single-task	8	0.013328	60	10	60-180	60	155	GapExp	0	115	2	0	0	distractor	1	492	754	110782	13.328	13.301	13.350
TrackDT01	2	TrackDT	1.0	SCS215a	20120417.135922	20120417.141040	single-task	8	0.013328	60	10	60-180	60	129	GapExp	0	116	2	1	1	target	1	468	766	111548	13.328	13.098	13.565
TrackDT01	2	TrackDT	1.0	SCS215a	20120417.135922	20120417.141045	single-task	8	0.013328	60	10	60-180	60	120	GapExp	0	117	2	0	0	distractor	1	475	763	112311	13.328	13.089	13.573
TrackDT01	2	TrackDT	1.0	SCS215a	20120417.135922	20120417.141051	single-task	8	0.013328	60	10	60-180	60	157	GapExp	0	118	2	30	1	target	1	451	775	113086	13.328	13.036	13.620
TrackDT01	2	TrackDT	1.0	SCS215a	20120417.135922	20120417.141057	single-task	8	0.013328	60	10	60-180	60	74	GapExp	0	119	2	30	0	distractor	1	560	720	113806	13.328	12.985	13.677
TrackDT01	2	TrackDT	1.0	SCS215a	20120417.135922	20120417.141103	single-task	8	0.013328	60	10	60-180	60	157	GapExp	0	120	2	1	0	distractor	1	552	724	114530	13.328	13.306	13.344
TrackDT01	2	TrackDT	1.0	SCS215a	20120417.135922	20120417.141109	single-task	8	0.013328	60	10	60-180	60	63	GapExp	0	121	2	1	1	target	1	500	750	115280	13.328	13.309	13.344
TrackDT01	2	TrackDT	1.0	SCS215a	20120417.135922	20120417.141114	single-task	8	0.013328	60	10	60-180	60	121	GapExp	0	122	2	3	0	distractor	1	437	782	116062	13.328	13.101	13.566
TrackDT01	2	TrackDT	1.0	SCS215a	20120417.135922	20120417.141120	single-task	8	0.013328	60	10	60-180	60	149	GapExp	0	123	2	30	1	target	1	512	744	116806	13.328	13.103	13.562
TrackDT01	2	TrackDT	1.0	SCS215a	20120417.135922	20120417.141126	single-task	8	0.013328	60	10	60-180	60	167	GapExp	0	124	2	30	1	target	1	353	824	117630	13.328	13.118	13.552
TrackDT01	2	TrackDT	1.0	SCS215a	20120417.135922	20120417.141132	single-task	8	0.013328	60	10	60-180	60	170	GapExp	0	125	2	1	1	target	1	447	777	118407	13.328	13.095	13.576
TrackDT01	2	TrackDT	1.0	SCS215a	20120417.135922	20120417.141139	single-task	8	0.013328	60	10	60-180	60	134	GapExp	0	126	2	30	1	target	1	349	826	119233	13.328	13.307	13.345
TrackDT01	2	TrackDT	1.0	SCS215a	20120417.135922	20120417.141145	single-task	8	0.013328	60	10	60-180	60	88	GapExp	0	127	2	3	1	target	1	451	775	120008	13.328	13.306	13.349
TrackDT01	2	TrackDT	1.0	SCS215a	20120417.135922	20120417.141150	single-task	8	0.013328	60	10	60-180	60	177	GapExp	0	128	2	30	0	distractor	1	632	684	120692	13.328	12.950	13.701
TrackDT01	2	TrackDT	1.0	SCS215a	20120417.135922	20120417.141157	single-task	8	0.013328	60	10	60-180	60	81	GapExp	0	129	2	30	0	distractor	1	570	715	121407	13.328	12.901	13.755
TrackDT01	2	TrackDT	1.0	SCS215a	20120417.135922	20120417.141203	single-task	8	0.013328	60	10	60-180	60	157	GapExp	0	130	2	30	0	distractor	1	580	710	122117	13.370	12.946	27.041
TrackDT01	2	TrackDT	1.0	SCS215a	20120417.135922	20120417.141209	single-task	8	0.013328	60	10	60-180	60	173	GapExp	0	131	2	1	1	target	1	455	773	122890	13.328	12.884	13.758
TrackDT01	2	TrackDT	1.0	SCS215a	20120417.135922	20120417.141216	single-task	8	0.013328	60	10	60-180	60	107	GapExp	0	132	2	30	0	distractor	1	760	620	123510	13.328	13.117	13.558
TrackDT01	2	TrackDT	1.0	SCS215a	20120417.135922	20120417.141222	single-task	8	0.013328	60	10	60-180	60	129	GapExp	0	133	2	1	0	distractor	1	503	749	124259	13.328	13.018	13.654
TrackDT01	2	TrackDT	1.0	SCS215a	20120417.135922	20120417.141228	single-task	8	0.013328	60	10	60-180	60	94	GapExp	0	134	2	1	1	target	1	602	699	124958	13.328	13.309	13.354
TrackDT01	2	TrackDT	1.0	SCS215a	20120417.135922	20120417.141233	single-task	8	0.013328	60	10	60-180	60	142	GapExp	0	135	2	1	0	distractor	1	572	714	125672	13.328	13.020	13.624
TrackDT01	2	TrackDT	1.0	SCS215a	20120417.135922	20120417.141239	single-task	8	0.013328	60	10	60-180	60	159	GapExp	0	136	2	0	0	distractor	1	631	685	126357	13.328	13.098	13.544
TrackDT01	2	TrackDT	1.0	SCS215a	20120417.135922	20120417.141245	single-task	8	0.013328	60	10	60-180	60	159	GapExp	0	137	2	30	1	target	1	321	840	127197	13.328	12.961	13.696
TrackDT01	2	TrackDT	1.0	SCS215a	20120417.135922	20120417.141252	single-task	8	0.013328	60	10	60-180	60	117	GapExp	0	138	2	1	1	target	1	367	817	128014	13.328	13.090	13.566
TrackDT01	2	TrackDT	1.0	SCS215a	20120417.135922	20120417.141257	single-task	8	0.013328	60	10	60-180	60	78	GapExp	0	139	2	3	1	target	1	415	793	128807	13.328	13.311	13.348
TrackDT01	2	TrackDT	1.0	SCS215a	20120417.135922	20120417.141302	single-task	8	0.013328	60	10	60-180	60	104	GapExp	0	140	2	3	0	distractor	1	515	743	129550	13.328	13.311	13.348
TrackDT01	2	TrackDT	1.0	SCS215a	20120417.135922	20120417.141308	single-task	8	0.013328	60	10	60-180	60	97	GapExp	0	141	2	0	1	target	1	596	702	130252	13.328	13.307	13.346
TrackDT01	2	TrackDT	1.0	SCS215a	20120417.135922	20120417.141313	single-task	8	0.013328	60	10	60-180	60	143	GapExp	0	142	2	3	1	target	1	421	790	131042	13.328	13.092	13.558
TrackDT01	2	TrackDT	1.0	SCS215a	20120417.135922	20120417.141319	single-task	8	0.013328	60	10	60-180	60	129	GapExp	0	143	2	3	1	target	1	451	775	131817	13.328	13.309	13.348
TrackDT01	2	TrackDT	1.0	SCS215a	20120417.135922	20120417.141325	single-task	8	0.013328	60	10	60-180	60	98	GapExp	0	144	2	3	0	target	0	616	-1000	130817	13.328	12.863	13.774
TrackDT01	2	TrackDT	1.0	SCS215a	20120417.135922	20120417.141330	single-task	8	0.013328	60	10	60-180	60	72	GapExp	0	145	2	0	1	target	1	515	743	131560	13.328	13.307	13.351
TrackDT01	2	TrackDT	1.0	SCS215a	20120417.135922	20120417.141335	single-task	8	0.013328	60	10	60-180	60	122	GapExp	0	146	2	30	1	target	1	409	796	132356	13.327	12.883	13.774
TrackDT01	2	TrackDT	1.0	SCS215a	20120417.135922	20120417.141341	single-task	8	0.013328	60	10	60-180	60	137	GapExp	0	147	2	1	0	distractor	1	552	724	133080	13.328	13.091	13.567
TrackDT01	2	TrackDT	1.0	SCS215a	20120417.135922	20120417.141347	single-task	8	0.013328	60	10	60-180	60	84	GapExp	0	148	2	1	0	distractor	1	708	646	133726	13.328	13.099	13.557
TrackDT01	2	TrackDT	1.0	SCS215a	20120417.135922	20120417.141352	single-task	8	0.013328	60	10	60-180	60	148	GapExp	0	149	2	0	1	target	1	446	777	134503	13.328	13.088	13.561
TrackDT01	2	TrackDT	1.0	SCS215a	20120417.135922	20120417.141359	single-task	8	0.013328	60	10	60-180	60	106	GapExp	0	150	2	30	1	target	1	386	807	135310	13.328	13.009	13.654
TrackDT01	2	TrackDT	1.0	SCS215a	20120417.135922	20120417.141414	single-task	8	0.013328	60	10	60-180	60	136	GapExp	0	151	2	3	1	target	1	508	746	136056	13.328	13.088	13.569
TrackDT01	2	TrackDT	1.0	SCS215a	20120417.135922	20120417.141420	single-task	8	0.013328	60	10	60-180	60	84	GapExp	0	152	2	3	1	target	1	452	774	136830	13.328	13.084	13.580
TrackDT01	2	TrackDT	1.0	SCS215a	20120417.135922	20120417.141425	single-task	8	0.013328	60	10	60-180	60	145	GapExp	0	153	2	3	0	target	0	768	-1000	135830	13.328	13.309	13.348
TrackDT01	2	TrackDT	1.0	SCS215a	20120417.135922	20120417.141431	single-task	8	0.013328	60	10	60-180	60	84	GapExp	0	154	2	30	1	target	1	323	839	136669	13.328	12.855	13.799
TrackDT01	2	TrackDT	1.0	SCS215a	20120417.135922	20120417.141437	single-task	8	0.013328	60	10	60-180	60	148	GapExp	0	155	2	1	1	target	1	426	787	137456	13.328	13.073	13.584
TrackDT01	2	TrackDT	1.0	SCS215a	20120417.135922	20120417.141443	single-task	8	0.013328	60	10	60-180	60	129	GapExp	0	156	2	1	0	distractor	1	538	731	138187	13.328	12.883	13.759
TrackDT01	2	TrackDT	1.0	SCS215a	20120417.135922	20120417.141448	single-task	8	0.013328	60	10	60-180	60	66	GapExp	0	157	2	1	0	distractor	1	546	727	138914	13.328	13.308	13.347
TrackDT01	2	TrackDT	1.0	SCS215a	20120417.135922	20120417.141453	single-task	8	0.013328	60	10	60-180	60	171	GapExp	0	158	2	30	0	distractor	1	617	692	139606	13.328	12.908	13.740
TrackDT01	2	TrackDT	1.0	SCS215a	20120417.135922	20120417.141500	single-task	8	0.013328	60	10	60-180	60	144	GapExp	0	159	2	0	0	target	0	863	-1000	138606	13.328	13.309	13.359
TrackDT01	2	TrackDT	1.0	SCS215a	20120417.135922	20120417.141507	single-task	8	0.013328	60	10	60-180	60	105	GapExp	0	160	2	30	0	distractor	1	500	750	139356	13.328	13.023	13.626
TrackDT01	2	TrackDT	1.0	SCS215a	20120417.135922	20120417.141512	single-task	8	0.013328	60	10	60-180	60	175	GapExp	0	161	2	3	0	distractor	1	524	738	140094	13.328	12.877	13.788
TrackDT01	2	TrackDT	1.0	SCS215a	20120417.135922	20120417.141519	single-task	8	0.013328	60	10	60-180	60	153	GapExp	0	162	2	1	1	target	1	444	778	140872	13.328	12.945	13.754
TrackDT01	2	TrackDT	1.0	SCS215a	20120417.135922	20120417.141524	single-task	8	0.013328	60	10	60-180	60	96	GapExp	0	163	2	1	0	distractor	1	545	728	141600	13.328	12.923	13.728
TrackDT01	2	TrackDT	1.0	SCS215a	20120417.135922	20120417.141530	single-task	8	0.013328	60	10	60-180	60	100	GapExp	0	164	2	30	0	target	0	345	-1000	140600	13.328	13.307	13.348
TrackDT01	2	TrackDT	1.0	SCS215a	20120417.135922	20120417.141535	single-task	8	0.013328	60	10	60-180	60	125	GapExp	0	165	2	3	0	distractor	1	637	682	141282	13.328	13.040	13.609
TrackDT01	2	TrackDT	1.0	SCS215a	20120417.135922	20120417.141542	single-task	8	0.013328	60	10	60-180	60	85	GapExp	0	166	2	3	1	target	1	464	768	142050	13.328	12.902	13.748
TrackDT01	2	TrackDT	1.0	SCS215a	20120417.135922	20120417.141547	single-task	8	0.013328	60	10	60-180	60	144	GapExp	0	167	2	3	1	target	1	566	717	142767	13.328	13.104	13.552
TrackDT01	2	TrackDT	1.0	SCS215a	20120417.135922	20120417.141553	single-task	8	0.013328	60	10	60-180	60	114	GapExp	0	168	2	30	1	target	1	368	816	143583	13.328	13.116	13.543
TrackDT01	2	TrackDT	1.0	SCS215a	20120417.135922	20120417.141558	single-task	8	0.013328	60	10	60-180	60	83	GapExp	0	169	2	30	0	distractor	1	587	707	144290	13.328	13.265	13.404
TrackDT01	2	TrackDT	1.0	SCS215a	20120417.135922	20120417.141604	single-task	8	0.013328	60	10	60-180	60	179	GapExp	0	170	2	3	1	target	1	367	817	145107	13.328	13.041	13.608
TrackDT01	2	TrackDT	1.0	SCS215a	20120417.135922	20120417.141610	single-task	8	0.013328	60	10	60-180	60	80	GapExp	0	171	2	0	0	distractor	1	519	741	145848	13.328	13.039	13.617
TrackDT01	2	TrackDT	1.0	SCS215a	20120417.135922	20120417.141616	single-task	8	0.013328	60	10	60-180	60	102	GapExp	0	172	2	3	1	target	1	424	788	146636	13.328	13.102	13.543
TrackDT01	2	TrackDT	1.0	SCS215a	20120417.135922	20120417.141621	single-task	8	0.013328	60	10	60-180	60	144	GapExp	0	173	2	30	0	distractor	1	549	726	147362	13.328	13.100	13.570
TrackDT01	2	TrackDT	1.0	SCS215a	20120417.135922	20120417.141627	single-task	8	0.013328	60	10	60-180	60	166	GapExp	0	174	2	3	0	distractor	1	582	709	148071	13.328	13.106	13.545
TrackDT01	2	TrackDT	1.0	SCS215a	20120417.135922	20120417.141633	single-task	8	0.013328	60	10	60-180	60	125	GapExp	0	175	2	0	0	distractor	1	527	737	148808	13.328	13.078	13.578
TrackDT01	2	TrackDT	1.0	SCS215a	20120417.135922	20120417.141639	single-task	8	0.013328	60	10	60-180	60	129	GapExp	0	176	2	3	0	distractor	1	509	746	149554	13.328	12.883	13.766
TrackDT01	2	TrackDT	1.0	SCS215a	20120417.135922	20120417.141645	single-task	8	0.013328	60	10	60-180	60	69	GapExp	0	177	2	1	1	target	1	555	723	150277	13.328	12.951	13.700
TrackDT01	2	TrackDT	1.0	SCS215a	20120417.135922	20120417.141650	single-task	8	0.013328	60	10	60-180	60	179	GapExp	0	178	2	0	0	distractor	1	597	702	150979	13.328	12.875	13.775
TrackDT01	2	TrackDT	1.0	SCS215a	20120417.135922	20120417.141656	single-task	8	0.013328	60	10	60-180	60	82	GapExp	0	179	2	1	1	target	1	465	768	151747	13.328	13.029	13.627
TrackDT01	2	TrackDT	1.0	SCS215a	20120417.135922	20120417.141701	single-task	8	0.013328	60	10	60-180	60	153	GapExp	0	180	2	1	1	target	1	443	779	152526	13.328	13.305	13.349
TrackDT01	2	TrackDT	1.0	SCS215a	20120417.135922	20120417.141707	single-task	8	0.013328	60	10	60-180	60	152	GapExp	0	181	2	3	0	distractor	1	762	619	153145	13.328	13.310	13.344
TrackDT01	2	TrackDT	1.0	SCS215a	20120417.135922	20120417.141714	single-task	8	0.013328	60	10	60-180	60	108	GapExp	0	182	2	3	1	target	1	535	733	153878	13.328	13.021	13.634
TrackDT01	2	TrackDT	1.0	SCS215a	20120417.135922	20120417.141719	single-task	8	0.013328	60	10	60-180	60	105	GapExp	0	183	2	0	1	target	1	486	757	154635	13.328	13.104	13.546
TrackDT01	2	TrackDT	1.0	SCS215a	20120417.135922	20120417.141725	single-task	8	0.013328	60	10	60-180	60	147	GapExp	0	184	2	1	1	target	1	391	805	155440	13.328	13.089	13.566
TrackDT01	2	TrackDT	1.0	SCS215a	20120417.135922	20120417.141731	single-task	8	0.013328	60	10	60-180	60	146	GapExp	0	185	2	3	1	target	1	430	785	156225	13.328	12.895	13.763
TrackDT01	2	TrackDT	1.0	SCS215a	20120417.135922	20120417.141737	single-task	8	0.013328	60	10	60-180	60	136	GapExp	0	186	2	1	1	target	1	376	812	157037	13.328	13.271	13.400
TrackDT01	2	TrackDT	1.0	SCS215a	20120417.135922	20120417.141742	single-task	8	0.013328	60	10	60-180	60	130	GapExp	0	187	2	1	0	distractor	1	487	757	157794	13.328	13.027	13.621
TrackDT01	2	TrackDT	1.0	SCS215a	20120417.135922	20120417.141748	single-task	8	0.013328	60	10	60-180	60	144	GapExp	0	188	2	1	1	target	1	442	779	158573	13.328	13.306	13.349
TrackDT01	2	TrackDT	1.0	SCS215a	20120417.135922	20120417.141754	single-task	8	0.013328	60	10	60-180	60	103	GapExp	0	189	2	30	0	distractor	1	473	764	159337	13.328	13.111	13.552
TrackDT01	2	TrackDT	1.0	SCS215a	20120417.135922	20120417.141800	single-task	8	0.013328	60	10	60-180	60	95	GapExp	0	190	2	30	1	target	1	392	804	160141	13.328	13.104	13.544
TrackDT01	2	TrackDT	1.0	SCS215a	20120417.135922	20120417.141806	single-task	8	0.013328	60	10	60-180	60	77	GapExp	0	191	2	0	1	target	1	511	745	160886	13.328	12.879	13.785
TrackDT01	2	TrackDT	1.0	SCS215a	20120417.135922	20120417.141811	single-task	8	0.013328	60	10	60-180	60	103	GapExp	0	192	2	30	1	target	1	338	831	161717	13.328	13.128	13.543
TrackDT01	2	TrackDT	1.0	SCS215a	20120417.135922	20120417.141816	single-task	8	0.013328	60	10	60-180	60	68	GapExp	0	193	2	3	1	target	1	457	772	162489	13.328	13.313	13.344
TrackDT01	2	TrackDT	1.0	SCS215a	20120417.135922	20120417.141821	single-task	8	0.013328	60	10	60-180	60	89	GapExp	0	194	2	1	1	target	1	452	774	163263	13.328	13.097	13.545
TrackDT01	2	TrackDT	1.0	SCS215a	20120417.135922	20120417.141826	single-task	8	0.013328	60	10	60-180	60	62	GapExp	0	195	2	30	0	distractor	1	553	724	163987	13.328	13.019	13.635
TrackDT01	2	TrackDT	1.0	SCS215a	20120417.135922	20120417.141832	single-task	8	0.013328	60	10	60-180	60	74	GapExp	0	196	2	1	0	distractor	1	666	667	164654	13.328	12.886	13.770
TrackDT01	2	TrackDT	1.0	SCS215a	20120417.135922	20120417.141837	single-task	8	0.013328	60	10	60-180	60	156	GapExp	0	197	2	3	1	target	1	460	770	165424	13.328	13.307	13.354
TrackDT01	2	TrackDT	1.0	SCS215a	20120417.135922	20120417.141843	single-task	8	0.013328	60	10	60-180	60	160	GapExp	0	198	2	0	0	distractor	1	599	701	166125	13.328	12.882	13.772
TrackDT01	2	TrackDT	1.0	SCS215a	20120417.135922	20120417.141849	single-task	8	0.013328	60	10	60-180	60	137	GapExp	0	199	2	30	1	target	1	685	658	166783	13.328	13.169	13.470
TrackDT01	2	TrackDT	1.0	SCS215a	20120417.135922	20120417.141855	single-task	8	0.013328	60	10	60-180	60	170	GapExp	0	200	2	1	0	distractor	1	674	663	167446	13.328	12.936	13.720
TrackDT01	2	TrackDT	1.0	SCS215a	20120417.142110	20120417.142118	dt-generate	8	0.013311	60	10	60-180	60	155	GapPrac	1	1	2	30	1	target	1	410	795	168241	13.328	13.039	13.610
TrackDT01	2	TrackDT	1.0	SCS215a	20120417.142110	20120417.142125	dt-generate	8	0.013311	60	10	60-180	60	128	GapPrac	1	2	2	30	0	target	0	589	-1000	167241	13.328	9.211	17.440
TrackDT01	2	TrackDT	1.0	SCS215a	20120417.142110	20120417.142131	dt-generate	8	0.013311	60	10	60-180	60	75	GapPrac	1	3	2	1	1	target	1	1080	460	167701	13.328	13.098	13.546
TrackDT01	2	TrackDT	1.0	SCS215a	20120417.142110	20120417.142137	dt-generate	8	0.013311	60	10	60-180	60	128	GapPrac	1	4	2	1	0	early	-4	-546	-1000	166701	13.328	13.302	13.345
TrackDT01	2	TrackDT	1.0	SCS215a	20120417.142110	20120417.142153	dt-generate	8	0.013311	60	10	60-180	60	112	GapPrac	1	5	2	1	0	target	0	767	-1000	165701	13.328	11.966	14.684
TrackDT01	2	TrackDT	1.0	SCS215a	20120417.142110	20120417.142159	dt-generate	8	0.013311	60	10	60-180	60	153	GapPrac	1	6	2	1	1	target	1	1556	222	165923	13.328	13.308	13.356
TrackDT01	2	TrackDT	1.0	SCS215a	20120417.142110	20120417.142207	dt-generate	8	0.013311	60	10	60-180	60	180	GapPrac	1	7	2	0	0	distractor	1	1194	403	166326	13.328	11.492	15.163
TrackDT01	2	TrackDT	1.0	SCS215a	20120417.142110	20120417.142214	dt-generate	8	0.013311	60	10	60-180	60	136	GapPrac	1	8	2	30	0	distractor	1	5375	0	166326	13.328	13.301	13.358
TrackDT01	2	TrackDT	1.0	SCS215a	20120417.142110	20120417.142225	dt-generate	8	0.013311	60	10	60-180	60	133	GapPrac	1	9	2	0	0	target	0	912	-1000	165326	13.328	9.610	17.047
TrackDT01	2	TrackDT	1.0	SCS215a	20120417.142110	20120417.142231	dt-generate	8	0.013311	60	10	60-180	60	119	GapPrac	1	10	2	3	1	distractor	0	2454	-1000	164326	13.328	11.728	14.936
TrackDT01	2	TrackDT	1.0	SCS215a	20120417.142110	20120417.142239	dt-generate	8	0.013311	60	10	60-180	60	117	GapPrac	1	11	2	0	1	target	1	1727	137	164463	13.328	13.111	13.559
TrackDT01	2	TrackDT	1.0	SCS215a	20120417.142110	20120417.142246	dt-generate	8	0.013311	60	10	60-180	60	158	GapPrac	1	12	2	3	0	distractor	1	1581	210	164673	13.328	12.293	14.376
TrackDT01	2	TrackDT	1.0	SCS215a	20120417.142110	20120417.142253	dt-generate	8	0.013311	60	10	60-180	60	139	GapPrac	1	13	2	1	1	target	1	589	706	165379	13.328	9.115	17.541
TrackDT01	2	TrackDT	1.0	SCS215a	20120417.142110	20120417.142259	dt-generate	8	0.013311	60	10	60-180	60	150	GapPrac	1	14	2	0	1	target	1	1619	191	165570	13.328	12.851	13.812
TrackDT01	2	TrackDT	1.0	SCS215a	20120417.142110	20120417.142306	dt-generate	8	0.013311	60	10	60-180	60	65	GapPrac	1	15	2	30	1	target	1	1153	424	165994	13.328	4.706	21.953
TrackDT01	2	TrackDT	1.0	SCS215a	20120417.142110	20120417.142312	dt-generate	8	0.013311	60	10	60-180	60	67	GapPrac	1	16	2	1	0	distractor	1	1639	181	166175	13.328	7.433	19.228
TrackDT01	2	TrackDT	1.0	SCS215a	20120417.142110	20120417.142318	dt-generate	8	0.013311	60	10	60-180	60	145	GapPrac	1	17	2	30	0	distractor	1	1011	495	166670	13.328	6.871	19.796
TrackDT01	2	TrackDT	1.0	SCS215a	20120417.142110	20120417.142325	dt-generate	8	0.013311	60	10	60-180	60	146	GapPrac	1	18	2	3	1	distractor	0	752	-1000	165670	13.328	7.802	18.849
TrackDT01	2	TrackDT	1.0	SCS215a	20120417.142110	20120417.142331	dt-generate	8	0.013311	60	10	60-180	60	72	GapPrac	1	19	2	30	1	target	1	1818	91	165761	13.328	10.268	16.395
TrackDT01	2	TrackDT	1.0	SCS215a	20120417.142110	20120417.142338	dt-generate	8	0.013311	60	10	60-180	60	107	GapPrac	1	20	2	3	0	distractor	1	930	535	166296	13.328	13.307	13.348
TrackDT01	2	TrackDT	1.0	SCS215a	20120417.142420	20120417.142424	dt-generate	8	0.013328	60	10	60-180	60	146	GapExp	1	1	2	0	1	distractor	0	1479	-1000	165296	13.328	12.937	13.731
TrackDT01	2	TrackDT	1.0	SCS215a	20120417.142420	20120417.142432	dt-generate	8	0.013328	60	10	60-180	60	161	GapExp	1	2	2	3	0	target	0	2896	-1000	164296	13.328	13.024	13.620
TrackDT01	2	TrackDT	1.0	SCS215a	20120417.142420	20120417.142440	dt-generate	8	0.013328	60	10	60-180	60	128	GapExp	1	3	2	30	0	distractor	1	552	724	165020	13.328	12.857	13.791
TrackDT01	2	TrackDT	1.0	SCS215a	20120417.142420	20120417.142446	dt-generate	8	0.013328	60	10	60-180	60	144	GapExp	1	4	2	0	0	distractor	1	1203	399	165419	13.328	13.098	13.550
TrackDT01	2	TrackDT	1.0	SCS215a	20120417.142420	20120417.142453	dt-generate	8	0.013328	60	10	60-180	60	79	GapExp	1	5	2	3	1	distractor	0	1070	-1000	164419	13.328	13.101	13.543
TrackDT01	2	TrackDT	1.0	SCS215a	20120417.142420	20120417.142459	dt-generate	8	0.013328	60	10	60-180	60	72	GapExp	1	6	2	1	0	distractor	1	1492	254	164673	13.328	12.911	13.731
TrackDT01	2	TrackDT	1.0	SCS215a	20120417.142420	20120417.142505	dt-generate	8	0.013328	60	10	60-180	60	96	GapExp	1	7	2	1	1	target	1	615	693	165366	13.328	12.906	13.744
TrackDT01	2	TrackDT	1.0	SCS215a	20120417.142420	20120417.142510	dt-generate	8	0.013328	60	10	60-180	60	120	GapExp	1	8	2	30	1	target	1	1417	292	165658	13.328	12.983	13.669
TrackDT01	2	TrackDT	1.0	SCS215a	20120417.142420	20120417.142517	dt-generate	8	0.013328	60	10	60-180	60	67	GapExp	0	9	2	1	0	target	0	3709	-1000	164658	13.328	13.307	13.346
TrackDT01	2	TrackDT	1.0	SCS215a	20120417.142420	20120417.142525	dt-generate	8	0.013328	60	10	60-180	60	160	GapExp	0	10	2	3	0	distractor	1	1897	52	164710	13.328	13.307	13.347
TrackDT01	2	TrackDT	1.0	SCS215a	20120417.142420	20120417.142533	dt-generate	8	0.013328	60	10	60-180	60	80	GapExp	0	11	2	1	0	target	0	782	-1000	163710	13.328	13.310	13.354
TrackDT01	2	TrackDT	1.0	SCS215a	20120417.142420	20120417.142539	dt-generate	8	0.013328	60	10	60-180	60	131	GapExp	0	12	2	3	0	distractor	1	1868	66	163776	13.328	13.306	13.346
TrackDT01	2	TrackDT	1.0	SCS215a	20120417.142420	20120417.142546	dt-generate	8	0.013328	60	10	60-180	60	85	GapExp	0	13	2	30	1	early	-4	-1087	-1000	162776	13.328	13.301	13.350
TrackDT01	2	TrackDT	1.0	SCS215a	20120417.142420	20120417.142552	dt-generate	8	0.013328	60	10	60-180	60	101	GapExp	0	14	2	0	0	distractor	1	1115	443	163219	13.328	13.035	13.619
TrackDT01	2	TrackDT	1.0	SCS215a	20120417.142420	20120417.142558	dt-generate	8	0.013328	60	10	60-180	60	145	GapExp	0	15	2	0	0	distractor	1	598	701	163920	13.328	13.311	13.350
TrackDT01	2	TrackDT	1.0	SCS215a	20120417.142420	20120417.142604	dt-generate	8	0.013328	60	10	60-180	60	173	GapExp	0	16	2	0	1	distractor	0	1578	-1000	162920	13.328	12.946	13.713
TrackDT01	2	TrackDT	1.0	SCS215a	20120417.142420	20120417.142611	dt-generate	8	0.013328	60	10	60-180	60	77	GapExp	0	17	2	3	1	target	1	696	652	163572	13.328	12.994	13.669
TrackDT01	2	TrackDT	1.0	SCS215a	20120417.142420	20120417.142617	dt-generate	8	0.013328	60	10	60-180	60	135	GapExp	0	18	2	0	0	distractor	1	656	672	164244	13.328	13.112	13.550
TrackDT01	2	TrackDT	1.0	SCS215a	20120417.142420	20120417.142622	dt-generate	8	0.013328	60	10	60-180	60	74	GapExp	0	19	2	30	1	target	1	1232	384	164628	13.328	12.931	13.717
TrackDT01	2	TrackDT	1.0	SCS215a	20120417.142420	20120417.142629	dt-generate	8	0.013328	60	10	60-180	60	92	GapExp	0	20	2	1	1	target	1	576	712	165340	13.328	12.947	13.703
TrackDT01	2	TrackDT	1.0	SCS215a	20120417.142420	20120417.142634	dt-generate	8	0.013328	60	10	60-180	60	163	GapExp	0	21	2	3	1	target	1	429	786	166126	13.328	12.999	13.663
TrackDT01	2	TrackDT	1.0	SCS215a	20120417.142420	20120417.142640	dt-generate	8	0.013328	60	10	60-180	60	142	GapExp	0	22	2	30	1	target	1	334	833	166959	13.328	12.878	13.790
TrackDT01	2	TrackDT	1.0	SCS215a	20120417.142420	20120417.142646	dt-generate	8	0.013328	60	10	60-180	60	66	GapExp	0	23	2	0	0	early	-4	-262	-1000	165959	13.328	13.297	13.361
TrackDT01	2	TrackDT	1.0	SCS215a	20120417.142420	20120417.142652	dt-generate	8	0.013328	60	10	60-180	60	173	GapExp	0	24	2	30	1	target	1	394	803	166762	13.328	13.111	13.537
TrackDT01	2	TrackDT	1.0	SCS215a	20120417.142420	20120417.142658	dt-generate	8	0.013328	60	10	60-180	60	121	GapExp	0	25	2	1	1	target	1	1200	400	167162	13.328	12.901	13.744
TrackDT01	2	TrackDT	1.0	SCS215a	20120417.142420	20120417.142705	dt-generate	8	0.013328	60	10	60-180	60	115	GapExp	0	26	2	30	1	target	1	703	649	167811	13.328	13.107	13.551
TrackDT01	2	TrackDT	1.0	SCS215a	20120417.142420	20120417.142711	dt-generate	8	0.013328	60	10	60-180	60	147	GapExp	0	27	2	1	1	target	1	737	632	168443	13.328	13.112	13.558
TrackDT01	2	TrackDT	1.0	SCS215a	20120417.142420	20120417.142717	dt-generate	8	0.013328	60	10	60-180	60	96	GapExp	0	28	2	1	1	target	1	1307	347	168790	13.328	13.127	13.515
TrackDT01	2	TrackDT	1.0	SCS215a	20120417.142420	20120417.142724	dt-generate	8	0.013328	60	10	60-180	60	87	GapExp	0	29	2	3	0	distractor	1	547	727	169517	13.328	12.889	13.768
TrackDT01	2	TrackDT	1.0	SCS215a	20120417.142420	20120417.142729	dt-generate	8	0.013328	60	10	60-180	60	139	GapExp	0	30	2	1	0	distractor	1	573	714	170231	13.328	13.308	13.345
TrackDT01	2	TrackDT	1.0	SCS215a	20120417.142420	20120417.142734	dt-generate	8	0.013328	60	10	60-180	60	64	GapExp	0	31	2	1	0	target	0	655	-1000	169231	13.328	13.034	13.625
TrackDT01	2	TrackDT	1.0	SCS215a	20120417.142420	20120417.142739	dt-generate	8	0.013328	60	10	60-180	60	119	GapExp	0	32	2	30	0	distractor	1	621	690	169921	13.328	12.834	13.822
TrackDT01	2	TrackDT	1.0	SCS215a	20120417.142420	20120417.142745	dt-generate	8	0.013328	60	10	60-180	60	79	GapExp	0	33	2	0	0	distractor	1	700	650	170571	13.328	12.885	13.764
TrackDT01	2	TrackDT	1.0	SCS215a	20120417.142420	20120417.142751	dt-generate	8	0.013328	60	10	60-180	60	68	GapExp	0	34	2	30	0	target	0	1067	-1000	169571	13.328	13.308	13.351
TrackDT01	2	TrackDT	1.0	SCS215a	20120417.142420	20120417.142757	dt-generate	8	0.013328	60	10	60-180	60	92	GapExp	0	35	2	30	0	distractor	1	2948	0	169571	13.328	13.282	13.367
TrackDT01	2	TrackDT	1.0	SCS215a	20120417.142420	20120417.142805	dt-generate	8	0.013328	60	10	60-180	60	149	GapExp	0	36	2	30	0	distractor	1	501	750	170321	13.328	13.295	13.358
TrackDT01	2	TrackDT	1.0	SCS215a	20120417.142420	20120417.142811	dt-generate	8	0.013328	60	10	60-180	60	149	GapExp	0	37	2	3	0	distractor	1	569	716	171037	13.328	13.308	13.347
TrackDT01	2	TrackDT	1.0	SCS215a	20120417.142420	20120417.142817	dt-generate	8	0.013328	60	10	60-180	60	97	GapExp	0	38	2	1	1	target	1	497	752	171789	13.328	13.306	13.348
TrackDT01	2	TrackDT	1.0	SCS215a	20120417.142420	20120417.142823	dt-generate	8	0.013328	60	10	60-180	60	155	GapExp	0	39	2	0	1	target	1	492	754	172543	13.328	13.085	13.557
TrackDT01	2	TrackDT	1.0	SCS215a	20120417.142420	20120417.142829	dt-generate	8	0.013328	60	10	60-180	60	161	GapExp	0	40	2	0	0	distractor	1	640	680	173223	13.328	13.106	13.561
TrackDT01	2	TrackDT	1.0	SCS215a	20120417.142420	20120417.142835	dt-generate	8	0.013328	60	10	60-180	60	147	GapExp	0	41	2	30	0	distractor	1	404	798	174021	13.328	13.084	13.556
TrackDT01	2	TrackDT	1.0	SCS215a	20120417.142420	20120417.142841	dt-generate	8	0.013328	60	10	60-180	60	136	GapExp	0	42	2	1	0	distractor	1	529	736	174757	13.328	12.912	13.745
TrackDT01	2	TrackDT	1.0	SCS215a	20120417.142420	20120417.142847	dt-generate	8	0.013328	60	10	60-180	60	162	GapExp	0	43	2	0	0	distractor	1	1015	493	175250	13.328	13.307	13.348
TrackDT01	2	TrackDT	1.0	SCS215a	20120417.142420	20120417.142854	dt-generate	8	0.013328	60	10	60-180	60	121	GapExp	0	44	2	1	0	distractor	1	461	770	176020	13.328	13.308	13.345
TrackDT01	2	TrackDT	1.0	SCS215a	20120417.142420	20120417.142859	dt-generate	8	0.013328	60	10	60-180	60	65	GapExp	0	45	2	1	0	distractor	1	682	659	176679	13.328	13.244	13.411
TrackDT01	2	TrackDT	1.0	SCS215a	20120417.142420	20120417.142904	dt-generate	8	0.013328	60	10	60-180	60	123	GapExp	0	46	2	1	0	target	0	877	-1000	175679	13.328	12.884	13.780
TrackDT01	2	TrackDT	1.0	SCS215a	20120417.142420	20120417.142910	dt-generate	8	0.013328	60	10	60-180	60	81	GapExp	0	47	2	30	0	distractor	1	1605	198	175877	13.328	13.103	13.563
TrackDT01	2	TrackDT	1.0	SCS215a	20120417.142420	20120417.142917	dt-generate	8	0.013328	60	10	60-180	60	81	GapExp	0	48	2	30	1	distractor	0	615	-1000	174877	13.328	13.300	13.353
TrackDT01	2	TrackDT	1.0	SCS215a	20120417.142420	20120417.142922	dt-generate	8	0.013328	60	10	60-180	60	177	GapExp	0	49	2	0	0	target	0	705	-1000	173877	13.328	12.942	13.729
TrackDT01	2	TrackDT	1.0	SCS215a	20120417.142420	20120417.142929	dt-generate	8	0.013328	60	10	60-180	60	153	GapExp	0	50	2	0	1	distractor	0	533	-1000	172877	13.522	12.856	40.350
TrackDT01	2	TrackDT	1.0	SCS215a	20120417.142420	20120417.142940	dt-generate	8	0.013328	60	10	60-180	60	68	GapExp	0	51	2	3	1	target	1	1197	402	173279	13.328	13.099	13.549
TrackDT01	2	TrackDT	1.0	SCS215a	20120417.142420	20120417.142946	dt-generate	8	0.013328	60	10	60-180	60	92	GapExp	0	52	2	0	0	target	0	1589	-1000	172279	13.328	13.060	13.584
TrackDT01	2	TrackDT	1.0	SCS215a	20120417.142420	20120417.142952	dt-generate	8	0.013328	60	10	60-180	60	98	GapExp	0	53	2	1	1	target	1	992	504	172783	13.328	13.299	13.357
TrackDT01	2	TrackDT	1.0	SCS215a	20120417.142420	20120417.142958	dt-generate	8	0.013328	60	10	60-180	60	109	GapExp	0	54	2	0	1	target	1	527	737	173520	13.328	13.306	13.355
TrackDT01	2	TrackDT	1.0	SCS215a	20120417.142420	20120417.143004	dt-generate	8	0.013328	60	10	60-180	60	84	GapExp	0	55	2	30	1	target	1	797	602	174122	13.328	12.896	13.772
TrackDT01	2	TrackDT	1.0	SCS215a	20120417.142420	20120417.143009	dt-generate	8	0.013328	60	10	60-180	60	84	GapExp	0	56	2	30	0	target	0	718	-1000	173122	13.328	12.898	13.751
TrackDT01	2	TrackDT	1.0	SCS215a	20120417.142420	20120417.143015	dt-generate	8	0.013328	60	10	60-180	60	98	GapExp	0	57	2	30	0	distractor	1	599	701	173823	13.328	13.112	13.550
TrackDT01	2	TrackDT	1.0	SCS215a	20120417.142420	20120417.143021	dt-generate	8	0.013328	60	10	60-180	60	176	GapExp	0	58	2	3	0	target	0	516	-1000	172823	13.328	12.861	13.787
TrackDT01	2	TrackDT	1.0	SCS215a	20120417.142420	20120417.143027	dt-generate	8	0.013328	60	10	60-180	60	127	GapExp	0	59	2	3	0	distractor	1	813	594	173417	13.328	13.302	13.349
TrackDT01	2	TrackDT	1.0	SCS215a	20120417.142420	20120417.143033	dt-generate	8	0.013328	60	10	60-180	60	76	GapExp	0	60	2	1	0	distractor	1	1134	433	173850	13.328	13.296	13.345
TrackDT01	2	TrackDT	1.0	SCS215a	20120417.142420	20120417.143039	dt-generate	8	0.013328	60	10	60-180	60	113	GapExp	0	61	2	0	0	distractor	1	572	714	174564	13.328	13.307	13.352
TrackDT01	2	TrackDT	1.0	SCS215a	20120417.142420	20120417.143045	dt-generate	8	0.013328	60	10	60-180	60	152	GapExp	0	62	2	30	1	target	1	355	823	175387	13.328	13.300	13.357
TrackDT01	2	TrackDT	1.0	SCS215a	20120417.142420	20120417.143051	dt-generate	8	0.013328	60	10	60-180	60	113	GapExp	0	63	2	30	1	distractor	0	723	-1000	174387	13.328	13.085	13.557
TrackDT01	2	TrackDT	1.0	SCS215a	20120417.142420	20120417.143057	dt-generate	8	0.013328	60	10	60-180	60	146	GapExp	0	64	2	1	1	target	1	621	690	175077	13.328	13.081	13.573
TrackDT01	2	TrackDT	1.0	SCS215a	20120417.142420	20120417.143103	dt-generate	8	0.013328	60	10	60-180	60	151	GapExp	0	65	2	1	0	distractor	1	1275	363	175440	13.328	12.884	13.777
TrackDT01	2	TrackDT	1.0	SCS215a	20120417.142420	20120417.143110	dt-generate	8	0.013328	60	10	60-180	60	75	GapExp	0	66	2	0	0	distractor	1	847	577	176017	13.328	13.097	13.571
TrackDT01	2	TrackDT	1.0	SCS215a	20120417.142420	20120417.143115	dt-generate	8	0.013328	60	10	60-180	60	71	GapExp	0	67	2	3	0	target	0	2511	-1000	175017	13.328	12.964	13.695
TrackDT01	2	TrackDT	1.0	SCS215a	20120417.142420	20120417.143122	dt-generate	8	0.013328	60	10	60-180	60	101	GapExp	0	68	2	0	1	target	1	511	745	175762	13.328	12.951	13.733
TrackDT01	2	TrackDT	1.0	SCS215a	20120417.142420	20120417.143127	dt-generate	8	0.013328	60	10	60-180	60	146	GapExp	0	69	2	30	1	target	1	531	735	176497	13.328	12.872	13.784
TrackDT01	2	TrackDT	1.0	SCS215a	20120417.142420	20120417.143134	dt-generate	8	0.013328	60	10	60-180	60	171	GapExp	0	70	2	30	0	distractor	1	566	717	177214	13.328	13.306	13.355
TrackDT01	2	TrackDT	1.0	SCS215a	20120417.142420	20120417.143141	dt-generate	8	0.013328	60	10	60-180	60	89	GapExp	0	71	2	3	0	distractor	1	519	741	177955	13.328	13.001	13.664
TrackDT01	2	TrackDT	1.0	SCS215a	20120417.142420	20120417.143146	dt-generate	8	0.013328	60	10	60-180	60	110	GapExp	0	72	2	0	0	distractor	1	555	723	178678	13.328	13.087	13.549
TrackDT01	2	TrackDT	1.0	SCS215a	20120417.142420	20120417.143151	dt-generate	8	0.013328	60	10	60-180	60	77	GapExp	0	73	2	1	0	distractor	1	656	672	179350	13.328	13.099	13.555
TrackDT01	2	TrackDT	1.0	SCS215a	20120417.142420	20120417.143157	dt-generate	8	0.013328	60	10	60-180	60	95	GapExp	0	74	2	3	1	target	1	685	658	180008	13.328	13.306	13.345
TrackDT01	2	TrackDT	1.0	SCS215a	20120417.142420	20120417.143202	dt-generate	8	0.013328	60	10	60-180	60	80	GapExp	0	75	2	0	0	distractor	1	2638	0	180008	13.328	13.093	13.575
TrackDT01	2	TrackDT	1.0	SCS215a	20120417.142420	20120417.143209	dt-generate	8	0.013328	60	10	60-180	60	87	GapExp	0	76	2	1	1	target	1	1968	16	180024	13.328	12.893	13.772
TrackDT01	2	TrackDT	1.0	SCS215a	20120417.142420	20120417.143216	dt-generate	8	0.013328	60	10	60-180	60	148	GapExp	0	77	2	3	1	target	1	457	772	180796	13.328	12.867	13.803
TrackDT01	2	TrackDT	1.0	SCS215a	20120417.142420	20120417.143222	dt-generate	8	0.013328	60	10	60-180	60	110	GapExp	0	78	2	3	0	target	0	1286	-1000	179796	13.328	13.106	13.549
TrackDT01	2	TrackDT	1.0	SCS215a	20120417.142420	20120417.143228	dt-generate	8	0.013328	60	10	60-180	60	81	GapExp	0	79	2	1	1	target	1	686	657	180453	13.328	13.112	13.557
TrackDT01	2	TrackDT	1.0	SCS215a	20120417.142420	20120417.143233	dt-generate	8	0.013328	60	10	60-180	60	139	GapExp	0	80	2	3	1	target	1	503	749	181202	13.328	12.898	13.745
TrackDT01	2	TrackDT	1.0	SCS215a	20120417.142420	20120417.143239	dt-generate	8	0.013328	60	10	60-180	60	74	GapExp	0	81	2	0	0	distractor	1	453	774	181976	13.328	13.305	13.347
TrackDT01	2	TrackDT	1.0	SCS215a	20120417.142420	20120417.143244	dt-generate	8	0.013328	60	10	60-180	60	106	GapExp	0	82	2	30	0	distractor	1	595	703	182679	13.328	12.864	13.788
TrackDT01	2	TrackDT	1.0	SCS215a	20120417.142420	20120417.143250	dt-generate	8	0.013328	60	10	60-180	60	72	GapExp	0	83	2	3	0	distractor	1	553	724	183403	13.328	13.304	13.355
TrackDT01	2	TrackDT	1.0	SCS215a	20120417.142420	20120417.143255	dt-generate	8	0.013328	60	10	60-180	60	139	GapExp	0	84	2	0	0	distractor	1	1524	238	183641	13.328	13.105	13.556
TrackDT01	2	TrackDT	1.0	SCS215a	20120417.142420	20120417.143302	dt-generate	8	0.013328	60	10	60-180	60	137	GapExp	0	85	2	0	1	target	1	734	633	184274	13.328	12.859	13.802
TrackDT01	2	TrackDT	1.0	SCS215a	20120417.142420	20120417.143308	dt-generate	8	0.013328	60	10	60-180	60	73	GapExp	0	86	2	0	0	distractor	1	1831	85	184359	13.328	12.852	13.808
TrackDT01	2	TrackDT	1.0	SCS215a	20120417.142420	20120417.143314	dt-generate	8	0.013328	60	10	60-180	60	172	GapExp	0	87	2	0	1	target	1	505	748	185107	13.328	12.941	13.716
TrackDT01	2	TrackDT	1.0	SCS215a	20120417.142420	20120417.143321	dt-generate	8	0.013328	60	10	60-180	60	140	GapExp	0	88	2	3	0	distractor	1	594	703	185810	13.328	13.297	13.363
TrackDT01	2	TrackDT	1.0	SCS215a	20120417.142420	20120417.143327	dt-generate	8	0.013328	60	10	60-180	60	69	GapExp	0	89	2	30	1	target	1	804	598	186408	13.328	13.311	13.355
TrackDT01	2	TrackDT	1.0	SCS215a	20120417.142420	20120417.143332	dt-generate	8	0.013328	60	10	60-180	60	115	GapExp	0	90	2	1	1	distractor	0	1020	-1000	185408	13.328	13.306	13.348
TrackDT01	2	TrackDT	1.0	SCS215a	20120417.142420	20120417.143338	dt-generate	8	0.013328	60	10	60-180	60	88	GapExp	0	91	2	3	1	target	1	1918	41	185449	13.328	13.093	13.570
TrackDT01	2	TrackDT	1.0	SCS215a	20120417.142420	20120417.143345	dt-generate	8	0.013328	60	10	60-180	60	69	GapExp	0	92	2	3	1	target	1	1150	425	185874	13.328	13.055	13.608
TrackDT01	2	TrackDT	1.0	SCS215a	20120417.142420	20120417.143351	dt-generate	8	0.013328	60	10	60-180	60	172	GapExp	0	93	2	0	1	target	1	620	690	186564	13.328	13.107	13.544
TrackDT01	2	TrackDT	1.0	SCS215a	20120417.142420	20120417.143357	dt-generate	8	0.013328	60	10	60-180	60	97	GapExp	0	94	2	0	0	distractor	1	1452	274	186838	13.328	13.059	13.603
TrackDT01	2	TrackDT	1.0	SCS215a	20120417.142420	20120417.143404	dt-generate	8	0.013328	60	10	60-180	60	129	GapExp	0	95	2	1	1	target	1	487	757	187595	13.328	13.303	13.348
TrackDT01	2	TrackDT	1.0	SCS215a	20120417.142420	20120417.143409	dt-generate	8	0.013328	60	10	60-180	60	118	GapExp	0	96	2	3	0	distractor	1	514	743	188338	13.328	13.007	13.642
TrackDT01	2	TrackDT	1.0	SCS215a	20120417.142420	20120417.143415	dt-generate	8	0.013328	60	10	60-180	60	102	GapExp	0	97	2	1	1	target	1	746	627	188965	13.328	13.074	13.567
TrackDT01	2	TrackDT	1.0	SCS215a	20120417.142420	20120417.143420	dt-generate	8	0.013328	60	10	60-180	60	133	GapExp	0	98	2	30	1	target	1	2707	0	188965	13.328	12.969	13.687
TrackDT01	2	TrackDT	1.0	SCS215a	20120417.142420	20120417.143429	dt-generate	8	0.013328	60	10	60-180	60	174	GapExp	0	99	2	0	0	distractor	1	439	781	189746	13.328	12.927	13.746
TrackDT01	2	TrackDT	1.0	SCS215a	20120417.142420	20120417.143435	dt-generate	8	0.013328	60	10	60-180	60	176	GapExp	0	100	2	1	1	target	1	416	792	190538	13.328	12.918	13.738
TrackDT01	2	TrackDT	1.0	SCS215a	20120417.142420	20120417.143446	dt-generate	8	0.013328	60	10	60-180	60	117	GapExp	0	101	2	3	1	target	1	904	548	191086	13.328	13.092	13.555
TrackDT01	2	TrackDT	1.0	SCS215a	20120417.142420	20120417.143453	dt-generate	8	0.013328	60	10	60-180	60	148	GapExp	0	102	2	30	0	distractor	1	904	548	191634	13.328	13.043	13.625
TrackDT01	2	TrackDT	1.0	SCS215a	20120417.142420	20120417.143500	dt-generate	8	0.013328	60	10	60-180	60	82	GapExp	0	103	2	30	1	target	1	340	830	192464	13.328	12.868	13.793
TrackDT01	2	TrackDT	1.0	SCS215a	20120417.142420	20120417.143505	dt-generate	8	0.013328	60	10	60-180	60	128	GapExp	0	104	2	3	0	distractor	1	2014	0	192464	13.328	13.014	13.634
TrackDT01	2	TrackDT	1.0	SCS215a	20120417.142420	20120417.143512	dt-generate	8	0.013328	60	10	60-180	60	127	GapExp	0	105	2	0	1	distractor	0	1078	-1000	191464	13.328	12.977	13.688
TrackDT01	2	TrackDT	1.0	SCS215a	20120417.142420	20120417.143518	dt-generate	8	0.013328	60	10	60-180	60	96	GapExp	0	106	2	1	0	target	0	640	-1000	190464	13.328	13.307	13.345
TrackDT01	2	TrackDT	1.0	SCS215a	20120417.142420	20120417.143524	dt-generate	8	0.013328	60	10	60-180	60	138	GapExp	0	107	2	3	0	distractor	1	943	529	190993	13.328	13.072	13.585
TrackDT01	2	TrackDT	1.0	SCS215a	20120417.142420	20120417.143530	dt-generate	8	0.013328	60	10	60-180	60	91	GapExp	0	108	2	1	1	target	1	497	752	191745	13.328	13.309	13.344
TrackDT01	2	TrackDT	1.0	SCS215a	20120417.142420	20120417.143536	dt-generate	8	0.013328	60	10	60-180	60	94	GapExp	0	109	2	3	1	target	1	426	787	192532	13.328	13.092	13.556
TrackDT01	2	TrackDT	1.0	SCS215a	20120417.142420	20120417.143541	dt-generate	8	0.013328	60	10	60-180	60	142	GapExp	0	110	2	1	0	distractor	1	572	714	193246	13.328	12.961	13.693
TrackDT01	2	TrackDT	1.0	SCS215a	20120417.142420	20120417.143547	dt-generate	8	0.013328	60	10	60-180	60	134	GapExp	0	111	2	30	1	target	1	293	854	194100	13.328	13.107	13.544
TrackDT01	2	TrackDT	1.0	SCS215a	20120417.142420	20120417.143553	dt-generate	8	0.013328	60	10	60-180	60	165	GapExp	0	112	2	30	1	target	1	374	813	194913	13.328	13.283	13.373
TrackDT01	2	TrackDT	1.0	SCS215a	20120417.142420	20120417.143559	dt-generate	8	0.013328	60	10	60-180	60	73	GapExp	0	113	2	3	1	target	1	472	764	195677	13.328	12.853	13.813
TrackDT01	2	TrackDT	1.0	SCS215a	20120417.142420	20120417.143604	dt-generate	8	0.013328	60	10	60-180	60	84	GapExp	0	114	2	0	0	distractor	1	510	745	196422	13.328	13.099	13.569
TrackDT01	2	TrackDT	1.0	SCS215a	20120417.142420	20120417.143610	dt-generate	8	0.013328	60	10	60-180	60	69	GapExp	0	115	2	0	1	target	1	982	509	196931	13.328	12.989	13.667
TrackDT01	2	TrackDT	1.0	SCS215a	20120417.142420	20120417.143615	dt-generate	8	0.013328	60	10	60-180	60	72	GapExp	0	116	2	0	1	target	1	616	692	197623	13.328	13.308	13.348
TrackDT01	2	TrackDT	1.0	SCS215a	20120417.142420	20120417.143620	dt-generate	8	0.013328	60	10	60-180	60	137	GapExp	0	117	2	3	1	target	1	491	755	198378	13.328	13.086	13.553
TrackDT01	2	TrackDT	1.0	SCS215a	20120417.142420	20120417.143626	dt-generate	8	0.013328	60	10	60-180	60	86	GapExp	0	118	2	0	1	target	1	534	733	199111	13.328	12.892	13.752
TrackDT01	2	TrackDT	1.0	SCS215a	20120417.142420	20120417.143631	dt-generate	8	0.013328	60	10	60-180	60	81	GapExp	0	119	2	1	1	target	1	716	642	199753	13.328	13.291	13.371
TrackDT01	2	TrackDT	1.0	SCS215a	20120417.142420	20120417.143637	dt-generate	8	0.013328	60	10	60-180	60	179	GapExp	0	120	2	1	0	distractor	1	1536	232	199985	13.328	13.296	13.346
TrackDT01	2	TrackDT	1.0	SCS215a	20120417.142420	20120417.143644	dt-generate	8	0.013328	60	10	60-180	60	139	GapExp	0	121	2	1	0	distractor	1	1849	76	200061	13.328	13.214	13.448
TrackDT01	2	TrackDT	1.0	SCS215a	20120417.142420	20120417.143651	dt-generate	8	0.013328	60	10	60-180	60	70	GapExp	0	122	2	30	1	target	1	376	812	200873	13.328	12.925	13.725
TrackDT01	2	TrackDT	1.0	SCS215a	20120417.142420	20120417.143656	dt-generate	8	0.013328	60	10	60-180	60	88	GapExp	0	123	2	1	0	distractor	1	557	722	201595	13.328	12.878	13.786
TrackDT01	2	TrackDT	1.0	SCS215a	20120417.142420	20120417.143701	dt-generate	8	0.013328	60	10	60-180	60	176	GapExp	0	124	2	0	1	target	1	682	659	202254	13.328	12.895	13.744
TrackDT01	2	TrackDT	1.0	SCS215a	20120417.142420	20120417.143708	dt-generate	8	0.013328	60	10	60-180	60	61	GapExp	0	125	2	1	0	distractor	1	441	780	203034	13.328	13.290	13.360
TrackDT01	2	TrackDT	1.0	SCS215a	20120417.142420	20120417.143713	dt-generate	8	0.013328	60	10	60-180	60	94	GapExp	0	126	2	1	0	distractor	1	775	613	203647	13.328	13.294	13.363
TrackDT01	2	TrackDT	1.0	SCS215a	20120417.142420	20120417.143718	dt-generate	8	0.013328	60	10	60-180	60	159	GapExp	0	127	2	30	1	target	1	383	809	204456	13.328	13.302	13.351
TrackDT01	2	TrackDT	1.0	SCS215a	20120417.142420	20120417.143725	dt-generate	8	0.013328	60	10	60-180	60	158	GapExp	0	128	2	1	0	distractor	1	594	703	205159	13.328	12.959	13.692
TrackDT01	2	TrackDT	1.0	SCS215a	20120417.142420	20120417.143731	dt-generate	8	0.013328	60	10	60-180	60	100	GapExp	0	129	2	30	0	distractor	1	475	763	205922	13.328	13.309	13.344
TrackDT01	2	TrackDT	1.0	SCS215a	20120417.142420	20120417.143736	dt-generate	8	0.013328	60	10	60-180	60	114	GapExp	0	130	2	3	1	target	1	478	761	206683	13.328	12.847	13.817
TrackDT01	2	TrackDT	1.0	SCS215a	20120417.142420	20120417.143742	dt-generate	8	0.013328	60	10	60-180	60	133	GapExp	0	131	2	1	0	distractor	1	467	767	207450	13.328	12.847	13.797
TrackDT01	2	TrackDT	1.0	SCS215a	20120417.142420	20120417.143748	dt-generate	8	0.013328	60	10	60-180	60	108	GapExp	0	132	2	1	1	target	1	936	532	207982	13.328	13.091	13.557
TrackDT01	2	TrackDT	1.0	SCS215a	20120417.142420	20120417.143754	dt-generate	8	0.013328	60	10	60-180	60	165	GapExp	0	133	2	0	0	distractor	1	525	738	208720	13.328	12.939	13.626
TrackDT01	2	TrackDT	1.0	SCS215a	20120417.142420	20120417.143800	dt-generate	8	0.013328	60	10	60-180	60	99	GapExp	0	134	2	3	1	target	1	546	727	209447	13.328	13.109	13.584
TrackDT01	2	TrackDT	1.0	SCS215a	20120417.142420	20120417.143805	dt-generate	8	0.013328	60	10	60-180	60	139	GapExp	0	135	2	0	1	target	1	672	664	210111	13.328	12.840	13.809
TrackDT01	2	TrackDT	1.0	SCS215a	20120417.142420	20120417.143811	dt-generate	8	0.013328	60	10	60-180	60	66	GapExp	0	136	2	1	1	target	1	489	756	210867	13.328	13.118	13.557
TrackDT01	2	TrackDT	1.0	SCS215a	20120417.142420	20120417.143817	dt-generate	8	0.013328	60	10	60-180	60	177	GapExp	0	137	2	0	1	target	1	420	790	211657	13.328	12.934	13.709
TrackDT01	2	TrackDT	1.0	SCS215a	20120417.142420	20120417.143823	dt-generate	8	0.013328	60	10	60-180	60	178	GapExp	0	138	2	3	0	distractor	1	556	722	212379	13.328	12.876	13.779
TrackDT01	2	TrackDT	1.0	SCS215a	20120417.142420	20120417.143829	dt-generate	8	0.013328	60	10	60-180	60	120	GapExp	0	139	2	3	1	target	1	489	756	213135	13.328	12.919	13.745
TrackDT01	2	TrackDT	1.0	SCS215a	20120417.142420	20120417.143835	dt-generate	8	0.013328	60	10	60-180	60	84	GapExp	0	140	2	0	1	target	1	331	835	213970	13.328	13.050	13.605
TrackDT01	2	TrackDT	1.0	SCS215a	20120417.142420	20120417.143840	dt-generate	8	0.013328	60	10	60-180	60	84	GapExp	0	141	2	3	1	target	1	403	799	214769	13.328	13.112	13.549
TrackDT01	2	TrackDT	1.0	SCS215a	20120417.142420	20120417.143845	dt-generate	8	0.013328	60	10	60-180	60	61	GapExp	0	142	2	1	1	target	1	629	686	215455	13.328	13.308	13.358
TrackDT01	2	TrackDT	1.0	SCS215a	20120417.142420	20120417.143850	dt-generate	8	0.013328	60	10	60-180	60	151	GapExp	0	143	2	1	1	distractor	0	888	-1000	214455	13.328	13.298	13.349
TrackDT01	2	TrackDT	1.0	SCS215a	20120417.142420	20120417.143857	dt-generate	8	0.013328	60	10	60-180	60	61	GapExp	0	144	2	3	0	target	0	457	-1000	213455	13.328	12.901	13.749
TrackDT01	2	TrackDT	1.0	SCS215a	20120417.142420	20120417.143901	dt-generate	8	0.013328	60	10	60-180	60	107	GapExp	0	145	2	3	0	distractor	1	640	680	214135	13.328	13.300	13.355
TrackDT01	2	TrackDT	1.0	SCS215a	20120417.142420	20120417.143907	dt-generate	8	0.013328	60	10	60-180	60	61	GapExp	0	146	2	0	1	target	1	471	765	214900	13.328	13.092	13.571
TrackDT01	2	TrackDT	1.0	SCS215a	20120417.142420	20120417.143912	dt-generate	8	0.013328	60	10	60-180	60	110	GapExp	0	147	2	1	0	distractor	1	510	745	215645	13.328	12.948	13.718
TrackDT01	2	TrackDT	1.0	SCS215a	20120417.142420	20120417.143917	dt-generate	8	0.013328	60	10	60-180	60	177	GapExp	0	148	2	30	0	distractor	1	1379	311	215956	13.328	13.308	13.351
TrackDT01	2	TrackDT	1.0	SCS215a	20120417.142420	20120417.143925	dt-generate	8	0.013328	60	10	60-180	60	146	GapExp	0	149	2	30	0	target	0	705	-1000	214956	13.328	13.286	13.362
TrackDT01	2	TrackDT	1.0	SCS215a	20120417.142420	20120417.143932	dt-generate	8	0.013328	60	10	60-180	60	108	GapExp	0	150	2	3	0	distractor	1	905	548	215504	13.328	13.092	13.572
TrackDT01	2	TrackDT	1.0	SCS215a	20120417.142420	20120417.143943	dt-generate	8	0.013328	60	10	60-180	60	77	GapExp	0	151	2	30	1	target	1	419	791	216295	13.328	13.020	13.644
TrackDT01	2	TrackDT	1.0	SCS215a	20120417.142420	20120417.143948	dt-generate	8	0.013328	60	10	60-180	60	121	GapExp	0	152	2	0	0	distractor	1	498	751	217046	13.328	13.111	13.539
TrackDT01	2	TrackDT	1.0	SCS215a	20120417.142420	20120417.143953	dt-generate	8	0.013328	60	10	60-180	60	101	GapExp	0	153	2	30	0	distractor	1	592	704	217750	13.328	13.250	13.414
TrackDT01	2	TrackDT	1.0	SCS215a	20120417.142420	20120417.144000	dt-generate	8	0.013328	60	10	60-180	60	157	GapExp	0	154	2	1	0	distractor	1	478	761	218511	13.375	12.883	27.088
TrackDT01	2	TrackDT	1.0	SCS215a	20120417.142420	20120417.144006	dt-generate	8	0.013328	60	10	60-180	60	145	GapExp	0	155	2	30	0	distractor	1	443	779	219290	13.328	12.918	13.780
TrackDT01	2	TrackDT	1.0	SCS215a	20120417.142420	20120417.144012	dt-generate	8	0.013328	60	10	60-180	60	96	GapExp	0	156	2	0	1	target	1	633	684	219974	13.328	12.871	13.790
TrackDT01	2	TrackDT	1.0	SCS215a	20120417.142420	20120417.144017	dt-generate	8	0.013328	60	10	60-180	60	104	GapExp	0	157	2	3	1	target	1	461	770	220744	13.328	12.871	13.818
TrackDT01	2	TrackDT	1.0	SCS215a	20120417.142420	20120417.144023	dt-generate	8	0.013328	60	10	60-180	60	92	GapExp	0	158	2	3	1	target	1	854	573	221317	13.328	12.950	13.712
TrackDT01	2	TrackDT	1.0	SCS215a	20120417.142420	20120417.144028	dt-generate	8	0.013328	60	10	60-180	60	68	GapExp	0	159	2	0	1	target	1	477	762	222079	13.328	13.258	13.394
TrackDT01	2	TrackDT	1.0	SCS215a	20120417.142420	20120417.144034	dt-generate	8	0.013328	60	10	60-180	60	72	GapExp	0	160	2	0	0	distractor	1	580	710	222789	13.328	12.872	13.784
TrackDT01	2	TrackDT	1.0	SCS215a	20120417.142420	20120417.144038	dt-generate	8	0.013328	60	10	60-180	60	133	GapExp	0	161	2	0	1	target	1	363	819	223608	13.328	13.058	13.613
TrackDT01	2	TrackDT	1.0	SCS215a	20120417.142420	20120417.144044	dt-generate	8	0.013328	60	10	60-180	60	98	GapExp	0	162	2	30	1	target	1	359	821	224429	13.328	13.062	13.594
TrackDT01	2	TrackDT	1.0	SCS215a	20120417.142420	20120417.144050	dt-generate	8	0.013328	60	10	60-180	60	167	GapExp	0	163	2	30	1	target	1	303	849	225278	13.328	13.042	13.615
TrackDT01	2	TrackDT	1.0	SCS215a	20120417.142420	20120417.144056	dt-generate	8	0.013328	60	10	60-180	60	103	GapExp	0	164	2	30	0	distractor	1	646	677	225955	13.328	13.294	13.362
TrackDT01	2	TrackDT	1.0	SCS215a	20120417.142420	20120417.144102	dt-generate	8	0.013328	60	10	60-180	60	167	GapExp	0	165	2	1	1	target	1	1725	138	226093	13.328	12.988	13.665
TrackDT01	2	TrackDT	1.0	SCS215a	20120417.142420	20120417.144110	dt-generate	8	0.013328	60	10	60-180	60	139	GapExp	0	166	2	3	1	target	1	523	739	226832	13.328	13.294	13.355
TrackDT01	2	TrackDT	1.0	SCS215a	20120417.142420	20120417.144116	dt-generate	8	0.013328	60	10	60-180	60	130	GapExp	0	167	2	1	1	target	1	445	778	227610	13.328	12.954	13.695
TrackDT01	2	TrackDT	1.0	SCS215a	20120417.142420	20120417.144121	dt-generate	8	0.013328	60	10	60-180	60	156	GapExp	0	168	2	3	0	distractor	1	659	671	228281	13.327	13.091	13.371
TrackDT01	2	TrackDT	1.0	SCS215a	20120417.142420	20120417.144127	dt-generate	8	0.013328	60	10	60-180	60	164	GapExp	0	169	2	3	0	distractor	1	502	749	229030	13.328	13.091	13.570
TrackDT01	2	TrackDT	1.0	SCS215a	20120417.142420	20120417.144133	dt-generate	8	0.013328	60	10	60-180	60	123	GapExp	0	170	2	0	1	target	1	552	724	229754	13.328	12.956	13.707
TrackDT01	2	TrackDT	1.0	SCS215a	20120417.142420	20120417.144139	dt-generate	8	0.013328	60	10	60-180	60	81	GapExp	0	171	2	30	0	distractor	1	656	672	230426	13.328	13.098	13.550
TrackDT01	2	TrackDT	1.0	SCS215a	20120417.142420	20120417.144145	dt-generate	8	0.013328	60	10	60-180	60	169	GapExp	0	172	2	30	1	target	1	637	682	231108	13.328	13.006	13.643
TrackDT01	2	TrackDT	1.0	SCS215a	20120417.142420	20120417.144152	dt-generate	8	0.013328	60	10	60-180	60	82	GapExp	0	173	2	3	0	target	0	1007	-1000	230108	13.328	13.306	13.346
TrackDT01	2	TrackDT	1.0	SCS215a	20120417.142420	20120417.144157	dt-generate	8	0.013328	60	10	60-180	60	175	GapExp	0	174	2	3	1	target	1	495	753	230861	13.328	12.893	13.764
TrackDT01	2	TrackDT	1.0	SCS215a	20120417.142420	20120417.144204	dt-generate	8	0.013328	60	10	60-180	60	69	GapExp	0	175	2	30	1	target	1	434	783	231644	13.328	13.300	13.357
TrackDT01	2	TrackDT	1.0	SCS215a	20120417.142420	20120417.144209	dt-generate	8	0.013328	60	10	60-180	60	111	GapExp	0	176	2	3	1	target	1	794	603	232247	13.328	13.307	13.350
TrackDT01	2	TrackDT	1.0	SCS215a	20120417.142420	20120417.144215	dt-generate	8	0.013328	60	10	60-180	60	126	GapExp	0	177	2	0	1	target	1	730	635	232882	13.328	12.908	13.767
TrackDT01	2	TrackDT	1.0	SCS215a	20120417.142420	20120417.144221	dt-generate	8	0.013328	60	10	60-180	60	132	GapExp	0	178	2	1	0	distractor	1	604	698	233580	13.328	13.105	13.550
TrackDT01	2	TrackDT	1.0	SCS215a	20120417.142420	20120417.144227	dt-generate	8	0.013328	60	10	60-180	60	74	GapExp	0	179	2	3	1	target	1	1516	242	233822	13.328	13.309	13.348
TrackDT01	2	TrackDT	1.0	SCS215a	20120417.142420	20120417.144233	dt-generate	8	0.013328	60	10	60-180	60	117	GapExp	0	180	2	30	0	target	0	2020	-1000	232822	13.328	13.297	13.387
TrackDT01	2	TrackDT	1.0	SCS215a	20120417.142420	20120417.144240	dt-generate	8	0.013328	60	10	60-180	60	173	GapExp	0	181	2	3	1	target	1	614	693	233515	13.328	12.954	13.702
TrackDT01	2	TrackDT	1.0	SCS215a	20120417.142420	20120417.144247	dt-generate	8	0.013328	60	10	60-180	60	172	GapExp	0	182	2	1	1	target	1	353	824	234339	13.328	13.240	13.417
TrackDT01	2	TrackDT	1.0	SCS215a	20120417.142420	20120417.144253	dt-generate	8	0.013328	60	10	60-180	60	114	GapExp	0	183	2	3	0	distractor	1	501	750	235089	13.328	13.129	13.581
TrackDT01	2	TrackDT	1.0	SCS215a	20120417.142420	20120417.144259	dt-generate	8	0.013328	60	10	60-180	60	151	GapExp	0	184	2	30	0	distractor	1	722	639	235728	13.328	13.003	13.654
TrackDT01	2	TrackDT	1.0	SCS215a	20120417.142420	20120417.144305	dt-generate	8	0.013328	60	10	60-180	60	115	GapExp	0	185	2	1	0	distractor	1	744	628	236356	13.328	12.937	13.712
TrackDT01	2	TrackDT	1.0	SCS215a	20120417.142420	20120417.144311	dt-generate	8	0.013328	60	10	60-180	60	130	GapExp	0	186	2	0	0	target	0	492	-1000	235356	13.328	12.872	13.797
TrackDT01	2	TrackDT	1.0	SCS215a	20120417.142420	20120417.144317	dt-generate	8	0.013328	60	10	60-180	60	103	GapExp	0	187	2	0	1	target	1	2079	0	235356	13.328	13.003	13.660
TrackDT01	2	TrackDT	1.0	SCS215a	20120417.142420	20120417.144324	dt-generate	8	0.013328	60	10	60-180	60	142	GapExp	0	188	2	30	0	distractor	1	494	753	236109	13.328	13.092	13.557
TrackDT01	2	TrackDT	1.0	SCS215a	20120417.142420	20120417.144330	dt-generate	8	0.013328	60	10	60-180	60	171	GapExp	0	189	2	30	1	distractor	0	543	-1000	235109	13.328	13.106	13.556
TrackDT01	2	TrackDT	1.0	SCS215a	20120417.142420	20120417.144337	dt-generate	8	0.013328	60	10	60-180	60	89	GapExp	0	190	2	1	1	target	1	503	749	235858	13.328	13.307	13.348
TrackDT01	2	TrackDT	1.0	SCS215a	20120417.142420	20120417.144342	dt-generate	8	0.013328	60	10	60-180	60	127	GapExp	0	191	2	30	0	distractor	1	722	639	236497	13.328	13.265	13.394
TrackDT01	2	TrackDT	1.0	SCS215a	20120417.142420	20120417.144348	dt-generate	8	0.013328	60	10	60-180	60	132	GapExp	0	192	2	0	1	target	1	526	737	237234	13.328	13.044	13.621
TrackDT01	2	TrackDT	1.0	SCS215a	20120417.142420	20120417.144354	dt-generate	8	0.013328	60	10	60-180	60	162	GapExp	0	193	2	3	0	distractor	1	473	764	237998	13.328	13.100	13.558
TrackDT01	2	TrackDT	1.0	SCS215a	20120417.142420	20120417.144400	dt-generate	8	0.013328	60	10	60-180	60	95	GapExp	0	194	2	3	1	target	1	378	811	238809	13.328	13.098	13.563
TrackDT01	2	TrackDT	1.0	SCS215a	20120417.142420	20120417.144406	dt-generate	8	0.013328	60	10	60-180	60	147	GapExp	0	195	2	30	1	target	1	333	834	239643	13.328	13.113	13.550
TrackDT01	2	TrackDT	1.0	SCS215a	20120417.142420	20120417.144412	dt-generate	8	0.013328	60	10	60-180	60	88	GapExp	0	196	2	30	0	distractor	1	553	724	240367	13.328	13.308	13.355
TrackDT01	2	TrackDT	1.0	SCS215a	20120417.142420	20120417.144417	dt-generate	8	0.013328	60	10	60-180	60	128	GapExp	0	197	2	0	0	distractor	1	439	781	241148	13.328	13.307	13.355
TrackDT01	2	TrackDT	1.0	SCS215a	20120417.142420	20120417.144423	dt-generate	8	0.013328	60	10	60-180	60	120	GapExp	0	198	2	30	0	distractor	1	5487	0	241148	13.328	13.261	13.394
TrackDT01	2	TrackDT	1.0	SCS215a	20120417.142420	20120417.144434	dt-generate	8	0.013328	60	10	60-180	60	67	GapExp	0	199	2	1	1	distractor	0	1788	-1000	240148	13.328	13.161	13.488
TrackDT01	2	TrackDT	1.0	SCS215a	20120417.142420	20120417.144440	dt-generate	8	0.013328	60	10	60-180	60	149	GapExp	0	200	2	3	0	distractor	1	1019	491	240639	13.328	13.308	13.344
TrackDT01	2	TrackDT	1.0	SCS215a	20120417.144515	20120417.144522	dt-shadow	8	0.013328	60	10	60-180	60	104	GapPrac	1	1	2	3	1	target	1	1439	281	240920	13.328	13.305	13.345
TrackDT01	2	TrackDT	1.0	SCS215a	20120417.144515	20120417.144529	dt-shadow	8	0.013328	60	10	60-180	60	158	GapPrac	1	2	2	0	1	target	1	430	785	241705	13.328	12.916	13.736
TrackDT01	2	TrackDT	1.0	SCS215a	20120417.144515	20120417.144535	dt-shadow	8	0.013328	60	10	60-180	60	137	GapPrac	1	3	2	3	0	distractor	1	563	719	242424	13.328	12.931	13.719
TrackDT01	2	TrackDT	1.0	SCS215a	20120417.144515	20120417.144541	dt-shadow	8	0.013328	60	10	60-180	60	70	GapPrac	1	4	2	0	0	distractor	1	540	730	243154	13.328	13.024	13.640
TrackDT01	2	TrackDT	1.0	SCS215a	20120417.144515	20120417.144546	dt-shadow	8	0.013328	60	10	60-180	60	152	GapPrac	1	5	2	3	1	target	1	319	841	243995	13.328	12.867	13.803
TrackDT01	2	TrackDT	1.0	SCS215a	20120417.144515	20120417.144552	dt-shadow	8	0.013328	60	10	60-180	60	147	GapPrac	1	6	2	0	0	target	0	445	-1000	242995	13.328	13.111	13.550
TrackDT01	2	TrackDT	1.0	SCS215a	20120417.144515	20120417.144558	dt-shadow	8	0.013328	60	10	60-180	60	92	GapPrac	1	7	2	0	1	target	1	567	717	243712	13.328	13.306	13.356
TrackDT01	2	TrackDT	1.0	SCS215a	20120417.144515	20120417.144604	dt-shadow	8	0.013328	60	10	60-180	60	116	GapPrac	1	8	2	30	1	target	1	399	801	244513	13.328	13.075	13.586
TrackDT01	2	TrackDT	1.0	SCS215a	20120417.144515	20120417.144609	dt-shadow	8	0.013328	60	10	60-180	60	117	GapPrac	1	9	2	1	0	distractor	1	439	781	245294	13.328	13.307	13.349
TrackDT01	2	TrackDT	1.0	SCS215a	20120417.144515	20120417.144615	dt-shadow	8	0.013328	60	10	60-180	60	121	GapPrac	1	10	2	3	0	distractor	1	432	784	246078	13.328	13.113	13.544
TrackDT01	2	TrackDT	1.0	SCS215a	20120417.144515	20120417.144620	dt-shadow	8	0.013328	60	10	60-180	60	172	GapPrac	1	11	2	30	1	target	1	383	809	246887	13.328	13.098	13.569
TrackDT01	2	TrackDT	1.0	SCS215a	20120417.144515	20120417.144627	dt-shadow	8	0.013328	60	10	60-180	60	99	GapPrac	1	12	2	30	0	distractor	1	528	736	247623	13.328	12.859	13.815
TrackDT01	2	TrackDT	1.0	SCS215a	20120417.144515	20120417.144632	dt-shadow	8	0.013328	60	10	60-180	60	175	GapPrac	1	13	2	0	0	distractor	1	447	777	248400	13.328	13.009	13.633
TrackDT01	2	TrackDT	1.0	SCS215a	20120417.144515	20120417.144639	dt-shadow	8	0.013328	60	10	60-180	60	62	GapPrac	1	14	2	30	0	distractor	1	390	805	249205	13.328	12.889	13.755
TrackDT01	2	TrackDT	1.0	SCS215a	20120417.144515	20120417.144644	dt-shadow	8	0.013328	60	10	60-180	60	146	GapPrac	1	15	2	1	1	target	1	344	828	250033	13.328	12.955	13.701
TrackDT01	2	TrackDT	1.0	SCS215a	20120417.144515	20120417.144650	dt-shadow	8	0.013328	60	10	60-180	60	124	GapPrac	1	16	2	0	1	distractor	0	638	-1000	249033	13.328	13.087	13.574
TrackDT01	2	TrackDT	1.0	SCS215a	20120417.144515	20120417.144655	dt-shadow	8	0.013328	60	10	60-180	60	129	GapPrac	1	17	2	1	1	target	1	359	821	249854	13.328	13.102	13.556
TrackDT01	2	TrackDT	1.0	SCS215a	20120417.144515	20120417.144701	dt-shadow	8	0.013328	60	10	60-180	60	146	GapPrac	1	18	2	3	1	target	1	424	788	250642	13.328	13.097	13.553
TrackDT01	2	TrackDT	1.0	SCS215a	20120417.144515	20120417.144707	dt-shadow	8	0.013328	60	10	60-180	60	89	GapPrac	1	19	2	1	0	distractor	1	589	706	251348	13.328	13.237	13.419
TrackDT01	2	TrackDT	1.0	SCS215a	20120417.144515	20120417.144712	dt-shadow	8	0.013328	60	10	60-180	60	162	GapPrac	1	20	2	3	0	distractor	1	458	771	252119	13.328	12.943	13.708
TrackDT01	2	TrackDT	1.0	SCS215a	20120417.144734	20120417.144743	dt-shadow	8	0.013328	60	10	60-180	60	168	GapExp	1	1	2	30	0	target	0	394	-1000	251119	13.328	13.100	13.550
TrackDT01	2	TrackDT	1.0	SCS215a	20120417.144734	20120417.144750	dt-shadow	8	0.013328	60	10	60-180	60	74	GapExp	1	2	2	3	0	distractor	1	581	710	251829	13.328	13.305	13.345
TrackDT01	2	TrackDT	1.0	SCS215a	20120417.144734	20120417.144755	dt-shadow	8	0.013328	60	10	60-180	60	76	GapExp	1	3	2	0	0	distractor	1	584	708	252537	13.328	13.300	13.351
TrackDT01	2	TrackDT	1.0	SCS215a	20120417.144734	20120417.144800	dt-shadow	8	0.013328	60	10	60-180	60	107	GapExp	1	4	2	30	1	target	1	302	849	253386	13.328	9.364	17.307
TrackDT01	2	TrackDT	1.0	SCS215a	20120417.144734	20120417.144806	dt-shadow	8	0.013328	60	10	60-180	60	120	GapExp	1	5	2	3	1	target	1	433	784	254170	13.328	13.099	13.534
TrackDT01	2	TrackDT	1.0	SCS215a	20120417.144734	20120417.144811	dt-shadow	8	0.013328	60	10	60-180	60	137	GapExp	1	6	2	0	1	target	1	337	832	255002	13.328	8.919	17.745
TrackDT01	2	TrackDT	1.0	SCS215a	20120417.144734	20120417.144817	dt-shadow	8	0.013328	60	10	60-180	60	82	GapExp	1	7	2	1	1	target	1	380	810	255812	13.328	13.309	13.344
TrackDT01	2	TrackDT	1.0	SCS215a	20120417.144734	20120417.144822	dt-shadow	8	0.013328	60	10	60-180	60	161	GapExp	1	8	2	1	0	target	0	393	-1000	254812	13.328	13.308	13.357
TrackDT01	2	TrackDT	1.0	SCS215a	20120417.144734	20120417.144828	dt-shadow	8	0.013328	60	10	60-180	60	152	GapExp	0	9	2	0	1	target	1	408	796	255608	13.328	10.798	15.859
TrackDT01	2	TrackDT	1.0	SCS215a	20120417.144734	20120417.144834	dt-shadow	8	0.013328	60	10	60-180	60	106	GapExp	0	10	2	0	1	target	1	403	799	256407	13.388	5.816	27.328
TrackDT01	2	TrackDT	1.0	SCS215a	20120417.144734	20120417.144839	dt-shadow	8	0.013328	60	10	60-180	60	78	GapExp	0	11	2	30	0	distractor	1	409	796	257203	13.328	13.091	13.572
TrackDT01	2	TrackDT	1.0	SCS215a	20120417.144734	20120417.144845	dt-shadow	8	0.013328	60	10	60-180	60	123	GapExp	0	12	2	30	0	distractor	1	422	789	257992	13.328	13.299	13.350
TrackDT01	2	TrackDT	1.0	SCS215a	20120417.144734	20120417.144850	dt-shadow	8	0.013328	60	10	60-180	60	149	GapExp	0	13	2	0	1	target	1	372	814	258806	13.328	13.293	13.365
TrackDT01	2	TrackDT	1.0	SCS215a	20120417.144734	20120417.144857	dt-shadow	8	0.013328	60	10	60-180	60	114	GapExp	0	14	2	0	1	target	1	812	594	259400	13.328	12.436	14.213
TrackDT01	2	TrackDT	1.0	SCS215a	20120417.144734	20120417.144903	dt-shadow	8	0.013328	60	10	60-180	60	159	GapExp	0	15	2	1	1	target	1	517	742	260142	13.328	9.716	16.936
TrackDT01	2	TrackDT	1.0	SCS215a	20120417.144734	20120417.144909	dt-shadow	8	0.013328	60	10	60-180	60	164	GapExp	0	16	2	3	0	distractor	1	390	805	260947	13.328	12.621	14.040
TrackDT01	2	TrackDT	1.0	SCS215a	20120417.144734	20120417.144915	dt-shadow	8	0.013328	60	10	60-180	60	172	GapExp	0	17	2	1	1	target	1	330	835	261782	13.328	13.088	13.575
TrackDT01	2	TrackDT	1.0	SCS215a	20120417.144734	20120417.144921	dt-shadow	8	0.013328	60	10	60-180	60	95	GapExp	0	18	2	1	0	distractor	1	529	736	262518	13.328	13.307	13.351
TrackDT01	2	TrackDT	1.0	SCS215a	20120417.144734	20120417.144926	dt-shadow	8	0.013328	60	10	60-180	60	152	GapExp	0	19	2	1	1	target	1	420	790	263308	13.328	13.299	13.358
TrackDT01	2	TrackDT	1.0	SCS215a	20120417.144734	20120417.144932	dt-shadow	8	0.013328	60	10	60-180	60	122	GapExp	0	20	2	1	1	target	1	373	814	264122	13.328	11.058	15.607
TrackDT01	2	TrackDT	1.0	SCS215a	20120417.144734	20120417.144938	dt-shadow	8	0.013328	60	10	60-180	60	62	GapExp	0	21	2	30	1	target	1	298	851	264973	13.328	13.104	13.565
TrackDT01	2	TrackDT	1.0	SCS215a	20120417.144734	20120417.144943	dt-shadow	8	0.013328	60	10	60-180	60	108	GapExp	0	22	2	0	1	target	1	369	816	265789	13.328	7.411	19.260
TrackDT01	2	TrackDT	1.0	SCS215a	20120417.144734	20120417.144948	dt-shadow	8	0.013328	60	10	60-180	60	116	GapExp	0	23	2	0	1	target	1	365	818	266607	13.328	8.306	18.346
TrackDT01	2	TrackDT	1.0	SCS215a	20120417.144734	20120417.144953	dt-shadow	8	0.013328	60	10	60-180	60	154	GapExp	0	24	2	0	1	target	1	314	843	267450	13.328	13.259	13.425
TrackDT01	2	TrackDT	1.0	SCS215a	20120417.144734	20120417.144959	dt-shadow	8	0.013328	60	10	60-180	60	77	GapExp	0	25	2	1	0	distractor	1	545	728	268178	13.328	11.324	15.331
TrackDT01	2	TrackDT	1.0	SCS215a	20120417.144734	20120417.145005	dt-shadow	8	0.013328	60	10	60-180	60	146	GapExp	0	26	2	3	0	distractor	1	630	685	268863	13.328	11.895	14.764
TrackDT01	2	TrackDT	1.0	SCS215a	20120417.144734	20120417.145011	dt-shadow	8	0.013328	60	10	60-180	60	130	GapExp	0	27	2	3	0	distractor	1	408	796	269659	13.328	13.112	13.551
TrackDT01	2	TrackDT	1.0	SCS215a	20120417.144734	20120417.145016	dt-shadow	8	0.013328	60	10	60-180	60	69	GapExp	0	28	2	30	0	distractor	1	330	835	270494	13.328	13.288	13.368
TrackDT01	2	TrackDT	1.0	SCS215a	20120417.144734	20120417.145021	dt-shadow	8	0.013328	60	10	60-180	60	129	GapExp	0	29	2	3	1	target	1	704	648	271142	13.328	13.306	13.359
TrackDT01	2	TrackDT	1.0	SCS215a	20120417.144734	20120417.145027	dt-shadow	8	0.013328	60	10	60-180	60	79	GapExp	0	30	2	3	1	target	1	1073	464	271606	13.328	11.266	15.386
TrackDT01	2	TrackDT	1.0	SCS215a	20120417.144734	20120417.145033	dt-shadow	8	0.013328	60	10	60-180	60	162	GapExp	0	31	2	0	0	distractor	1	513	744	272350	13.328	13.107	13.544
TrackDT01	2	TrackDT	1.0	SCS215a	20120417.144734	20120417.145039	dt-shadow	8	0.013328	60	10	60-180	60	177	GapExp	0	32	2	1	0	distractor	1	396	802	273152	13.328	13.113	13.555
TrackDT01	2	TrackDT	1.0	SCS215a	20120417.144734	20120417.145046	dt-shadow	8	0.013328	60	10	60-180	60	152	GapExp	0	33	2	0	0	distractor	1	400	800	273952	13.328	10.505	16.150
TrackDT01	2	TrackDT	1.0	SCS215a	20120417.144734	20120417.145051	dt-shadow	8	0.013328	60	10	60-180	60	75	GapExp	0	34	2	0	1	target	1	515	743	274695	13.328	8.159	18.506
TrackDT01	2	TrackDT	1.0	SCS215a	20120417.144734	20120417.145056	dt-shadow	8	0.013328	60	10	60-180	60	62	GapExp	0	35	2	3	0	distractor	1	492	754	275449	13.328	8.212	18.451
TrackDT01	2	TrackDT	1.0	SCS215a	20120417.144734	20120417.145101	dt-shadow	8	0.013328	60	10	60-180	60	112	GapExp	0	36	2	3	0	distractor	1	431	785	276234	13.328	13.306	13.349
TrackDT01	2	TrackDT	1.0	SCS215a	20120417.144734	20120417.145106	dt-shadow	8	0.013328	60	10	60-180	60	70	GapExp	0	37	2	0	1	target	1	508	746	276980	13.328	13.304	13.354
TrackDT01	2	TrackDT	1.0	SCS215a	20120417.144734	20120417.145112	dt-shadow	8	0.013328	60	10	60-180	60	89	GapExp	0	38	2	3	0	distractor	1	420	790	277770	13.328	13.295	13.348
TrackDT01	2	TrackDT	1.0	SCS215a	20120417.144734	20120417.145117	dt-shadow	8	0.013328	60	10	60-180	60	139	GapExp	0	39	2	0	0	distractor	1	482	759	278529	13.328	13.308	13.349
TrackDT01	2	TrackDT	1.0	SCS215a	20120417.144734	20120417.145123	dt-shadow	8	0.013328	60	10	60-180	60	104	GapExp	0	40	2	3	1	target	1	361	820	279349	13.328	9.908	16.741
TrackDT01	2	TrackDT	1.0	SCS215a	20120417.144734	20120417.145128	dt-shadow	8	0.013328	60	10	60-180	60	109	GapExp	0	41	2	30	0	distractor	1	445	778	280127	13.328	12.829	13.837
TrackDT01	2	TrackDT	1.0	SCS215a	20120417.144734	20120417.145133	dt-shadow	8	0.013328	60	10	60-180	60	96	GapExp	0	42	2	1	0	distractor	1	487	757	280884	13.328	13.285	13.386
TrackDT01	2	TrackDT	1.0	SCS215a	20120417.144734	20120417.145139	dt-shadow	8	0.013328	60	10	60-180	60	170	GapExp	0	43	2	30	0	distractor	1	375	813	281697	13.328	10.047	16.602
TrackDT01	2	TrackDT	1.0	SCS215a	20120417.144734	20120417.145145	dt-shadow	8	0.013328	60	10	60-180	60	170	GapExp	0	44	2	1	1	target	1	383	809	282506	13.328	12.097	14.564
TrackDT01	2	TrackDT	1.0	SCS215a	20120417.144734	20120417.145152	dt-shadow	8	0.013328	60	10	60-180	60	69	GapExp	0	45	2	3	0	distractor	1	391	805	283311	13.328	11.685	14.974
TrackDT01	2	TrackDT	1.0	SCS215a	20120417.144734	20120417.145156	dt-shadow	8	0.013328	60	10	60-180	60	70	GapExp	0	46	2	1	0	distractor	1	541	730	284041	13.328	13.112	13.544
TrackDT01	2	TrackDT	1.0	SCS215a	20120417.144734	20120417.145201	dt-shadow	8	0.013328	60	10	60-180	60	119	GapExp	0	47	2	1	1	target	1	447	777	284818	13.328	13.072	13.605
TrackDT01	2	TrackDT	1.0	SCS215a	20120417.144734	20120417.145207	dt-shadow	8	0.013328	60	10	60-180	60	131	GapExp	0	48	2	1	1	target	1	1599	201	285019	13.328	13.294	13.363
TrackDT01	2	TrackDT	1.0	SCS215a	20120417.144734	20120417.145214	dt-shadow	8	0.013328	60	10	60-180	60	162	GapExp	0	49	2	30	0	distractor	1	507	747	285766	13.328	13.185	13.462
TrackDT01	2	TrackDT	1.0	SCS215a	20120417.144734	20120417.145220	dt-shadow	8	0.013328	60	10	60-180	60	121	GapExp	0	50	2	1	0	distractor	1	855	573	286339	13.328	11.246	15.411
TrackDT01	2	TrackDT	1.0	SCS215a	20120417.144734	20120417.145230	dt-shadow	8	0.013328	60	10	60-180	60	65	GapExp	0	51	2	1	1	target	1	437	782	287121	13.328	11.091	15.565
TrackDT01	2	TrackDT	1.0	SCS215a	20120417.144734	20120417.145234	dt-shadow	8	0.013328	60	10	60-180	60	115	GapExp	0	52	2	0	0	distractor	1	513	744	287865	13.328	13.282	13.367
TrackDT01	2	TrackDT	1.0	SCS215a	20120417.144734	20120417.145240	dt-shadow	8	0.013328	60	10	60-180	60	82	GapExp	0	53	2	1	1	target	1	415	793	288658	13.328	13.013	13.645
TrackDT01	2	TrackDT	1.0	SCS215a	20120417.144734	20120417.145245	dt-shadow	8	0.013328	60	10	60-180	60	175	GapExp	0	54	2	1	1	target	1	374	813	289471	13.328	6.921	19.714
TrackDT01	2	TrackDT	1.0	SCS215a	20120417.144734	20120417.145251	dt-shadow	8	0.013328	60	10	60-180	60	152	GapExp	0	55	2	0	0	distractor	1	481	760	290231	13.328	13.107	13.543
TrackDT01	2	TrackDT	1.0	SCS215a	20120417.144734	20120417.145257	dt-shadow	8	0.013328	60	10	60-180	60	139	GapExp	0	56	2	0	1	target	1	404	798	291029	13.328	13.310	13.345
TrackDT01	2	TrackDT	1.0	SCS215a	20120417.144734	20120417.145303	dt-shadow	8	0.013328	60	10	60-180	60	164	GapExp	0	57	2	0	1	target	1	569	716	291745	13.328	11.913	14.750
TrackDT01	2	TrackDT	1.0	SCS215a	20120417.144734	20120417.145309	dt-shadow	8	0.013328	60	10	60-180	60	175	GapExp	0	58	2	0	0	target	0	390	-1000	290745	13.328	13.303	13.347
TrackDT01	2	TrackDT	1.0	SCS215a	20120417.144734	20120417.145315	dt-shadow	8	0.013328	60	10	60-180	60	86	GapExp	0	59	2	1	1	target	1	383	809	291554	13.328	10.696	15.961
TrackDT01	2	TrackDT	1.0	SCS215a	20120417.144734	20120417.145321	dt-shadow	8	0.013328	60	10	60-180	60	180	GapExp	0	60	2	1	0	distractor	1	493	754	292308	13.328	9.431	17.219
TrackDT01	2	TrackDT	1.0	SCS215a	20120417.144734	20120417.145327	dt-shadow	8	0.013328	60	10	60-180	60	68	GapExp	0	61	2	1	0	distractor	1	552	724	293032	13.328	13.114	13.557
TrackDT01	2	TrackDT	1.0	SCS215a	20120417.144734	20120417.145332	dt-shadow	8	0.013328	60	10	60-180	60	155	GapExp	0	62	2	30	1	target	1	326	837	293869	13.328	13.295	13.359
TrackDT01	2	TrackDT	1.0	SCS215a	20120417.144734	20120417.145338	dt-shadow	8	0.013328	60	10	60-180	60	93	GapExp	0	63	2	30	0	distractor	1	420	790	294659	13.328	12.707	13.947
TrackDT01	2	TrackDT	1.0	SCS215a	20120417.144734	20120417.145344	dt-shadow	8	0.013328	60	10	60-180	60	107	GapExp	0	64	2	30	0	distractor	1	389	806	295465	13.328	13.129	13.535
TrackDT01	2	TrackDT	1.0	SCS215a	20120417.144734	20120417.145349	dt-shadow	8	0.013328	60	10	60-180	60	123	GapExp	0	65	2	3	0	target	0	1275	-1000	294465	13.328	13.097	13.573
TrackDT01	2	TrackDT	1.0	SCS215a	20120417.144734	20120417.145356	dt-shadow	8	0.013328	60	10	60-180	60	126	GapExp	0	66	2	3	1	target	1	496	752	295217	13.328	13.110	13.561
TrackDT01	2	TrackDT	1.0	SCS215a	20120417.144734	20120417.145402	dt-shadow	8	0.013328	60	10	60-180	60	156	GapExp	0	67	2	0	0	distractor	1	486	757	295974	13.328	13.108	13.558
TrackDT01	2	TrackDT	1.0	SCS215a	20120417.144734	20120417.145408	dt-shadow	8	0.013328	60	10	60-180	60	71	GapExp	0	68	2	0	0	distractor	1	427	787	296761	13.328	13.300	13.349
TrackDT01	2	TrackDT	1.0	SCS215a	20120417.144734	20120417.145413	dt-shadow	8	0.013328	60	10	60-180	60	82	GapExp	0	69	2	1	0	distractor	1	437	782	297543	13.328	4.440	22.218
TrackDT01	2	TrackDT	1.0	SCS215a	20120417.144734	20120417.145418	dt-shadow	8	0.013328	60	10	60-180	60	160	GapExp	0	70	2	30	1	target	1	353	824	298367	13.328	13.302	13.347
TrackDT01	2	TrackDT	1.0	SCS215a	20120417.144734	20120417.145424	dt-shadow	8	0.013328	60	10	60-180	60	141	GapExp	0	71	2	3	1	target	1	286	857	299224	13.328	11.288	15.381
TrackDT01	2	TrackDT	1.0	SCS215a	20120417.144734	20120417.145430	dt-shadow	8	0.013328	60	10	60-180	60	141	GapExp	0	72	2	3	1	target	1	388	806	300030	13.328	11.347	15.311
TrackDT01	2	TrackDT	1.0	SCS215a	20120417.144734	20120417.145436	dt-shadow	8	0.013328	60	10	60-180	60	85	GapExp	0	73	2	1	0	distractor	1	1640	180	300210	13.328	13.308	13.349
TrackDT01	2	TrackDT	1.0	SCS215a	20120417.144734	20120417.145442	dt-shadow	8	0.013328	60	10	60-180	60	117	GapExp	0	74	2	0	0	distractor	1	474	763	300973	13.328	8.089	18.574
TrackDT01	2	TrackDT	1.0	SCS215a	20120417.144734	20120417.145448	dt-shadow	8	0.013328	60	10	60-180	60	151	GapExp	0	75	2	3	1	target	1	279	861	301834	13.328	13.277	13.392
TrackDT01	2	TrackDT	1.0	SCS215a	20120417.144734	20120417.145453	dt-shadow	8	0.013328	60	10	60-180	60	120	GapExp	0	76	2	3	1	target	1	421	790	302624	13.328	13.301	13.353
TrackDT01	2	TrackDT	1.0	SCS215a	20120417.144734	20120417.145459	dt-shadow	8	0.013328	60	10	60-180	60	77	GapExp	0	77	2	30	1	target	1	297	852	303476	13.328	8.172	18.471
TrackDT01	2	TrackDT	1.0	SCS215a	20120417.144734	20120417.145504	dt-shadow	8	0.013328	60	10	60-180	60	133	GapExp	0	78	2	3	1	target	1	350	825	304301	13.328	13.114	13.544
TrackDT01	2	TrackDT	1.0	SCS215a	20120417.144734	20120417.145510	dt-shadow	8	0.013328	60	10	60-180	60	105	GapExp	0	79	2	30	1	target	1	253	874	305175	13.328	13.304	13.348
TrackDT01	2	TrackDT	1.0	SCS215a	20120417.144734	20120417.145516	dt-shadow	8	0.013328	60	10	60-180	60	149	GapExp	0	80	2	0	1	target	1	335	833	306008	13.328	8.470	18.190
TrackDT01	2	TrackDT	1.0	SCS215a	20120417.144734	20120417.145522	dt-shadow	8	0.013328	60	10	60-180	60	62	GapExp	0	81	2	30	1	target	1	246	877	306885	13.328	13.309	13.346
