exp	sub	code	rev	comp	runtime	trialtime	stdt	nstim	refreshdur	cuedur	gapdur	gapOnsetRange	durPostProbe	gapOnsetTime	blocktype	prac	trial	ntargets	soa	probeTarget	resp	acc	rt	pts	tpts	meanFrameDur	minFrameDur	maxFrameDur
TrackDT01	4	TrackDT	1.0	SCS215a	20120419.140524	20120419.140540	single-task	8	0.013328	60	0	60-180	60	103	NoGap	1	1	2	30	1	distractor	0	6412	-1000	-1000	13.328	13.108	13.554
TrackDT01	4	TrackDT	1.0	SCS215a	20120419.140524	20120419.140552	single-task	8	0.013328	60	0	60-180	60	179	NoGap	1	2	2	0	0	target	0	808	-1000	-2000	13.328	12.848	13.802
TrackDT01	4	TrackDT	1.0	SCS215a	20120419.140524	20120419.140559	single-task	8	0.013328	60	0	60-180	60	161	NoGap	1	3	2	0	0	target	0	2585	-1000	-3000	13.328	13.307	13.351
TrackDT01	4	TrackDT	1.0	SCS215a	20120419.140524	20120419.140607	single-task	8	0.013328	60	0	60-180	60	176	NoGap	1	4	2	30	1	target	1	2961	0	-3000	13.328	13.110	13.548
TrackDT01	4	TrackDT	1.0	SCS215a	20120419.140524	20120419.140616	single-task	8	0.013328	60	0	60-180	60	99	NoGap	1	5	2	30	0	target	0	942	-1000	-4000	13.328	13.267	13.376
TrackDT01	4	TrackDT	1.0	SCS215a	20120419.140524	20120419.140623	single-task	8	0.013328	60	0	60-180	60	66	NoGap	1	6	2	30	0	target	0	1542	-1000	-5000	13.328	12.858	13.798
TrackDT01	4	TrackDT	1.0	SCS215a	20120419.140524	20120419.140629	single-task	8	0.013328	60	0	60-180	60	176	NoGap	1	7	2	3	0	target	0	1402	-1000	-6000	13.328	13.104	13.558
TrackDT01	4	TrackDT	1.0	SCS215a	20120419.140524	20120419.140636	single-task	8	0.013328	60	0	60-180	60	87	NoGap	1	8	2	3	0	target	0	7427	-1000	-7000	13.328	13.105	13.563
TrackDT01	4	TrackDT	1.0	SCS215a	20120419.140524	20120419.140648	single-task	8	0.013328	60	0	60-180	60	104	NoGap	1	9	2	30	1	distractor	0	903	-1000	-8000	13.328	13.308	13.348
TrackDT01	4	TrackDT	1.0	SCS215a	20120419.140524	20120419.140655	single-task	8	0.013328	60	0	60-180	60	140	NoGap	1	10	2	3	0	distractor	1	1585	208	-7792	13.328	13.309	13.358
TrackDT01	4	TrackDT	1.0	SCS215a	20120419.140524	20120419.140702	single-task	8	0.013328	60	0	60-180	60	69	NoGap	1	11	2	1	1	target	1	1018	491	-7301	13.328	13.309	13.349
TrackDT01	4	TrackDT	1.0	SCS215a	20120419.140524	20120419.140707	single-task	8	0.013328	60	0	60-180	60	126	NoGap	1	12	2	3	1	distractor	0	923	-1000	-8301	13.328	12.877	13.786
TrackDT01	4	TrackDT	1.0	SCS215a	20120419.140524	20120419.140713	single-task	8	0.013328	60	0	60-180	60	120	NoGap	1	13	2	3	1	target	1	1942	29	-8272	13.328	13.032	13.624
TrackDT01	4	TrackDT	1.0	SCS215a	20120419.140524	20120419.140720	single-task	8	0.013328	60	0	60-180	60	113	NoGap	1	14	2	1	1	target	1	810	595	-7677	13.328	13.003	13.655
TrackDT01	4	TrackDT	1.0	SCS215a	20120419.140524	20120419.140726	single-task	8	0.013328	60	0	60-180	60	92	NoGap	1	15	2	1	0	distractor	1	1234	383	-7294	13.328	13.296	13.345
TrackDT01	4	TrackDT	1.0	SCS215a	20120419.140524	20120419.140732	single-task	8	0.013328	60	0	60-180	60	132	NoGap	1	16	2	0	1	target	1	758	621	-6673	13.328	13.098	13.556
TrackDT01	4	TrackDT	1.0	SCS215a	20120419.140524	20120419.140738	single-task	8	0.013328	60	0	60-180	60	147	NoGap	1	17	2	0	0	distractor	1	1153	424	-6249	13.328	12.902	13.757
TrackDT01	4	TrackDT	1.0	SCS215a	20120419.140524	20120419.140744	single-task	8	0.013328	60	0	60-180	60	174	NoGap	1	18	2	1	0	distractor	1	1349	326	-5923	13.328	13.304	13.357
TrackDT01	4	TrackDT	1.0	SCS215a	20120419.140524	20120419.140751	single-task	8	0.013328	60	0	60-180	60	118	NoGap	1	19	2	30	1	target	1	849	576	-5347	13.328	13.299	13.356
TrackDT01	4	TrackDT	1.0	SCS215a	20120419.140524	20120419.140758	single-task	8	0.013328	60	0	60-180	60	179	NoGap	1	20	2	30	1	target	1	1059	471	-4876	13.328	13.071	13.584
TrackDT01	4	TrackDT	1.0	SCS215a	20120419.140524	20120419.140805	single-task	8	0.013328	60	0	60-180	60	106	NoGap	1	21	2	1	1	target	1	728	636	-4240	13.328	13.310	13.347
TrackDT01	4	TrackDT	1.0	SCS215a	20120419.140524	20120419.140811	single-task	8	0.013328	60	0	60-180	60	173	NoGap	1	22	2	3	1	target	1	553	724	-3516	13.328	13.310	13.349
TrackDT01	4	TrackDT	1.0	SCS215a	20120419.140524	20120419.140817	single-task	8	0.013328	60	0	60-180	60	133	NoGap	1	23	2	0	1	target	1	574	713	-2803	13.328	12.854	13.821
TrackDT01	4	TrackDT	1.0	SCS215a	20120419.140524	20120419.140823	single-task	8	0.013328	60	0	60-180	60	142	NoGap	1	24	2	1	1	target	1	585	708	-2095	13.328	13.046	13.607
TrackDT01	4	TrackDT	1.0	SCS215a	20120419.140524	20120419.140829	single-task	8	0.013328	60	0	60-180	60	115	NoGap	1	25	2	3	1	target	1	538	731	-1364	13.328	13.001	13.665
TrackDT01	4	TrackDT	1.0	SCS215a	20120419.140524	20120419.140835	single-task	8	0.013328	60	0	60-180	60	81	NoGap	1	26	2	0	1	target	1	584	708	-656	13.328	13.301	13.356
TrackDT01	4	TrackDT	1.0	SCS215a	20120419.140524	20120419.140840	single-task	8	0.013328	60	0	60-180	60	163	NoGap	1	27	2	1	0	distractor	1	637	682	26	13.328	12.958	13.691
TrackDT01	4	TrackDT	1.0	SCS215a	20120419.140524	20120419.140846	single-task	8	0.013328	60	0	60-180	60	63	NoGap	1	28	2	30	0	distractor	1	750	625	651	13.328	13.307	13.348
TrackDT01	4	TrackDT	1.0	SCS215a	20120419.140524	20120419.140851	single-task	8	0.013328	60	0	60-180	60	119	NoGap	1	29	2	0	0	distractor	1	977	512	1163	13.328	12.964	13.692
TrackDT01	4	TrackDT	1.0	SCS215a	20120419.140524	20120419.140857	single-task	8	0.013328	60	0	60-180	60	136	NoGap	1	30	2	0	1	target	1	938	531	1694	13.328	12.878	13.784
TrackDT01	4	TrackDT	1.0	SCS215a	20120419.140524	20120419.140904	single-task	8	0.013328	60	0	60-180	60	153	NoGap	1	31	2	0	0	distractor	1	878	561	2255	13.328	12.887	13.757
TrackDT01	4	TrackDT	1.0	SCS215a	20120419.140524	20120419.140910	single-task	8	0.013328	60	0	60-180	60	66	NoGap	1	32	2	30	0	distractor	1	1020	490	2745	13.328	13.098	13.551
TrackDT01	4	TrackDT	1.0	SCS215a	20120419.140524	20120419.140916	single-task	8	0.013328	60	0	60-180	60	82	NoGap	1	33	2	1	0	distractor	1	708	646	3391	13.328	13.284	13.365
TrackDT01	4	TrackDT	1.0	SCS215a	20120419.140524	20120419.140921	single-task	8	0.013328	60	0	60-180	60	107	NoGap	1	34	2	0	1	target	1	970	515	3906	13.328	13.301	13.356
TrackDT01	4	TrackDT	1.0	SCS215a	20120419.140524	20120419.140927	single-task	8	0.013328	60	0	60-180	60	82	NoGap	1	35	2	30	0	distractor	1	894	553	4459	13.328	13.092	13.563
TrackDT01	4	TrackDT	1.0	SCS215a	20120419.140524	20120419.140933	single-task	8	0.013328	60	0	60-180	60	164	NoGap	1	36	2	1	0	distractor	1	778	611	5070	13.328	13.092	13.553
TrackDT01	4	TrackDT	1.0	SCS215a	20120419.140524	20120419.140939	single-task	8	0.013328	60	0	60-180	60	71	NoGap	1	37	2	1	1	target	1	803	599	5669	13.328	13.307	13.347
TrackDT01	4	TrackDT	1.0	SCS215a	20120419.140524	20120419.140945	single-task	8	0.013328	60	0	60-180	60	137	NoGap	1	38	2	3	0	distractor	1	730	635	6304	13.328	13.011	13.637
TrackDT01	4	TrackDT	1.0	SCS215a	20120419.140524	20120419.140951	single-task	8	0.013328	60	0	60-180	60	79	NoGap	1	39	2	3	1	target	1	980	510	6814	13.328	13.310	13.347
TrackDT01	4	TrackDT	1.0	SCS215a	20120419.140524	20120419.140956	single-task	8	0.013328	60	0	60-180	60	71	NoGap	1	40	2	3	0	distractor	1	839	581	7395	13.328	12.886	13.755
TrackDT01	4	TrackDT	1.0	SCS215a	20120419.141151	20120419.141207	dt-shadow	8	0.013327	60	10	60-180	60	166	GapPrac	1	1	2	30	0	target	0	679	-1000	6395	13.328	13.097	13.556
TrackDT01	4	TrackDT	1.0	SCS215a	20120419.141151	20120419.141215	dt-shadow	8	0.013327	60	10	60-180	60	64	GapPrac	1	2	2	1	1	target	1	1957	22	6417	13.328	6.887	19.797
TrackDT01	4	TrackDT	1.0	SCS215a	20120419.141151	20120419.141221	dt-shadow	8	0.013327	60	10	60-180	60	176	GapPrac	1	3	2	0	0	distractor	1	2086	0	6417	13.328	7.747	18.916
TrackDT01	4	TrackDT	1.0	SCS215a	20120419.141151	20120419.141229	dt-shadow	8	0.013327	60	10	60-180	60	170	GapPrac	1	4	2	30	1	target	1	1494	253	6670	13.327	9.652	16.998
TrackDT01	4	TrackDT	1.0	SCS215a	20120419.141151	20120419.141237	dt-shadow	8	0.013327	60	10	60-180	60	164	GapPrac	1	5	2	0	0	distractor	1	1531	235	6905	13.328	12.934	13.727
TrackDT01	4	TrackDT	1.0	SCS215a	20120419.141151	20120419.141244	dt-shadow	8	0.013327	60	10	60-180	60	102	GapPrac	1	6	2	3	1	target	1	1248	376	7281	13.435	7.654	28.858
TrackDT01	4	TrackDT	1.0	SCS215a	20120419.141151	20120419.141251	dt-shadow	8	0.013327	60	10	60-180	60	75	GapPrac	1	7	2	30	1	target	1	1439	281	7562	13.328	8.745	17.907
TrackDT01	4	TrackDT	1.0	SCS215a	20120419.141151	20120419.141257	dt-shadow	8	0.013327	60	10	60-180	60	66	GapPrac	1	8	2	0	1	target	1	1237	382	7944	13.328	13.105	13.550
TrackDT01	4	TrackDT	1.0	SCS215a	20120419.141151	20120419.141303	dt-shadow	8	0.013327	60	10	60-180	60	130	GapPrac	1	9	2	1	1	target	1	1190	405	8349	13.328	12.823	13.851
TrackDT01	4	TrackDT	1.0	SCS215a	20120419.141151	20120419.141309	dt-shadow	8	0.013327	60	10	60-180	60	131	GapPrac	1	10	2	3	1	target	1	1298	351	8700	13.328	10.774	15.870
TrackDT01	4	TrackDT	1.0	SCS215a	20120419.141151	20120419.141316	dt-shadow	8	0.013327	60	10	60-180	60	168	GapPrac	1	11	2	1	1	target	1	1201	400	9100	13.328	11.159	15.490
TrackDT01	4	TrackDT	1.0	SCS215a	20120419.141151	20120419.141323	dt-shadow	8	0.013327	60	10	60-180	60	99	GapPrac	1	12	2	3	0	distractor	1	1385	308	9408	13.328	6.026	20.681
TrackDT01	4	TrackDT	1.0	SCS215a	20120419.141151	20120419.141329	dt-shadow	8	0.013327	60	10	60-180	60	170	GapPrac	1	13	2	30	0	distractor	1	969	516	9924	13.328	7.991	18.730
TrackDT01	4	TrackDT	1.0	SCS215a	20120419.141151	20120419.141336	dt-shadow	8	0.013327	60	10	60-180	60	118	GapPrac	1	14	2	3	0	distractor	1	1129	436	10360	13.328	6.437	20.241
TrackDT01	4	TrackDT	1.0	SCS215a	20120419.141151	20120419.141343	dt-shadow	8	0.013327	60	10	60-180	60	87	GapPrac	1	15	2	30	0	distractor	1	1014	493	10853	13.328	13.289	13.360
TrackDT01	4	TrackDT	1.0	SCS215a	20120419.141151	20120419.141349	dt-shadow	8	0.013327	60	10	60-180	60	161	GapPrac	1	16	2	1	0	distractor	1	1151	425	11278	13.328	12.870	13.793
TrackDT01	4	TrackDT	1.0	SCS215a	20120419.141151	20120419.141356	dt-shadow	8	0.013327	60	10	60-180	60	92	GapPrac	1	17	2	30	1	target	1	880	560	11838	13.328	12.362	14.305
TrackDT01	4	TrackDT	1.0	SCS215a	20120419.141151	20120419.141402	dt-shadow	8	0.013327	60	10	60-180	60	119	GapPrac	1	18	2	0	0	distractor	1	1857	72	11910	13.328	7.913	18.750
TrackDT01	4	TrackDT	1.0	SCS215a	20120419.141151	20120419.141409	dt-shadow	8	0.013327	60	10	60-180	60	68	GapPrac	1	19	2	1	0	distractor	1	1276	362	12272	13.328	13.303	13.347
TrackDT01	4	TrackDT	1.0	SCS215a	20120419.141151	20120419.141415	dt-shadow	8	0.013327	60	10	60-180	60	123	GapPrac	1	20	2	0	1	target	1	1146	427	12699	13.328	10.805	15.851
TrackDT01	4	TrackDT	1.0	SCS215a	20120419.141447	20120419.141451	dt-shadow	8	0.013327	60	10	60-180	60	80	GapExp	1	1	2	1	1	target	1	924	538	13237	13.328	12.873	13.777
TrackDT01	4	TrackDT	1.0	SCS215a	20120419.141447	20120419.141457	dt-shadow	8	0.013327	60	10	60-180	60	65	GapExp	1	2	2	3	1	target	1	723	639	13876	13.328	13.272	13.392
TrackDT01	4	TrackDT	1.0	SCS215a	20120419.141447	20120419.141503	dt-shadow	8	0.013327	60	10	60-180	60	106	GapExp	1	3	2	3	0	distractor	1	1201	400	14276	13.328	13.097	13.570
TrackDT01	4	TrackDT	1.0	SCS215a	20120419.141447	20120419.141509	dt-shadow	8	0.013327	60	10	60-180	60	129	GapExp	1	4	2	0	1	target	1	1045	478	14754	13.328	12.923	13.704
TrackDT01	4	TrackDT	1.0	SCS215a	20120419.141447	20120419.141515	dt-shadow	8	0.013327	60	10	60-180	60	88	GapExp	1	5	2	1	0	distractor	1	1068	466	15220	13.328	12.954	13.716
TrackDT01	4	TrackDT	1.0	SCS215a	20120419.141447	20120419.141521	dt-shadow	8	0.013327	60	10	60-180	60	63	GapExp	1	6	2	30	1	target	1	994	503	15723	13.328	12.858	13.814
TrackDT01	4	TrackDT	1.0	SCS215a	20120419.141447	20120419.141527	dt-shadow	8	0.013327	60	10	60-180	60	93	GapExp	1	7	2	30	0	distractor	1	968	516	16239	13.378	12.860	26.453
TrackDT01	4	TrackDT	1.0	SCS215a	20120419.141447	20120419.141533	dt-shadow	8	0.013327	60	10	60-180	60	75	GapExp	1	8	2	0	0	distractor	1	1270	365	16604	13.328	12.860	13.809
TrackDT01	4	TrackDT	1.0	SCS215a	20120419.141447	20120419.141539	dt-shadow	8	0.013327	60	10	60-180	60	171	GapExp	0	9	2	30	0	distractor	1	1069	466	17070	13.328	12.857	13.804
TrackDT01	4	TrackDT	1.0	SCS215a	20120419.141447	20120419.141546	dt-shadow	8	0.013327	60	10	60-180	60	69	GapExp	0	10	2	0	1	distractor	0	1284	-1000	16070	13.328	13.008	13.655
TrackDT01	4	TrackDT	1.0	SCS215a	20120419.141447	20120419.141552	dt-shadow	8	0.013327	60	10	60-180	60	101	GapExp	0	11	2	30	0	distractor	1	1161	420	16490	13.328	13.093	13.571
TrackDT01	4	TrackDT	1.0	SCS215a	20120419.141447	20120419.141558	dt-shadow	8	0.013327	60	10	60-180	60	69	GapExp	0	12	2	1	1	target	1	1265	368	16858	13.328	12.876	13.768
TrackDT01	4	TrackDT	1.0	SCS215a	20120419.141447	20120419.141604	dt-shadow	8	0.013327	60	10	60-180	60	156	GapExp	0	13	2	1	1	target	1	923	539	17397	13.328	13.120	13.544
TrackDT01	4	TrackDT	1.0	SCS215a	20120419.141447	20120419.141611	dt-shadow	8	0.013327	60	10	60-180	60	141	GapExp	0	14	2	0	0	distractor	1	819	591	17988	13.328	12.963	13.691
TrackDT01	4	TrackDT	1.0	SCS215a	20120419.141447	20120419.141617	dt-shadow	8	0.013327	60	10	60-180	60	117	GapExp	0	15	2	30	1	target	1	677	662	18650	13.328	12.918	13.749
TrackDT01	4	TrackDT	1.0	SCS215a	20120419.141447	20120419.141623	dt-shadow	8	0.013327	60	10	60-180	60	82	GapExp	0	16	2	30	1	target	1	519	741	19391	13.328	12.702	13.963
TrackDT01	4	TrackDT	1.0	SCS215a	20120419.141447	20120419.141629	dt-shadow	8	0.013327	60	10	60-180	60	66	GapExp	0	17	2	0	1	target	1	806	597	19988	13.328	13.307	13.357
TrackDT01	4	TrackDT	1.0	SCS215a	20120419.141447	20120419.141635	dt-shadow	8	0.013327	60	10	60-180	60	100	GapExp	0	18	2	1	0	distractor	1	2036	0	19988	13.328	12.865	13.783
TrackDT01	4	TrackDT	1.0	SCS215a	20120419.141447	20120419.141642	dt-shadow	8	0.013327	60	10	60-180	60	66	GapExp	0	19	2	3	0	distractor	1	1048	476	20464	13.328	12.893	13.762
TrackDT01	4	TrackDT	1.0	SCS215a	20120419.141447	20120419.141647	dt-shadow	8	0.013327	60	10	60-180	60	79	GapExp	0	20	2	30	0	distractor	1	1273	364	20828	13.328	12.946	13.720
TrackDT01	4	TrackDT	1.0	SCS215a	20120419.141447	20120419.141653	dt-shadow	8	0.013327	60	10	60-180	60	149	GapExp	0	21	2	3	0	distractor	1	1407	297	21125	13.328	13.031	13.620
TrackDT01	4	TrackDT	1.0	SCS215a	20120419.141447	20120419.141700	dt-shadow	8	0.013327	60	10	60-180	60	169	GapExp	0	22	2	1	0	distractor	1	1025	488	21613	13.328	13.118	13.536
TrackDT01	4	TrackDT	1.0	SCS215a	20120419.141447	20120419.141708	dt-shadow	8	0.013327	60	10	60-180	60	146	GapExp	0	23	2	0	1	target	1	731	635	22248	13.328	12.880	13.792
TrackDT01	4	TrackDT	1.0	SCS215a	20120419.141447	20120419.141714	dt-shadow	8	0.013327	60	10	60-180	60	104	GapExp	0	24	2	3	1	target	1	477	762	23010	13.328	13.090	13.572
TrackDT01	4	TrackDT	1.0	SCS215a	20120419.141447	20120419.141719	dt-shadow	8	0.013327	60	10	60-180	60	156	GapExp	0	25	2	30	0	distractor	1	749	626	23636	13.328	12.920	13.750
TrackDT01	4	TrackDT	1.0	SCS215a	20120419.141447	20120419.141726	dt-shadow	8	0.013327	60	10	60-180	60	170	GapExp	0	26	2	3	0	distractor	1	715	643	24279	13.328	13.220	13.413
TrackDT01	4	TrackDT	1.0	SCS215a	20120419.141447	20120419.141733	dt-shadow	8	0.013327	60	10	60-180	60	93	GapExp	0	27	2	0	0	distractor	1	592	704	24983	13.328	13.018	13.651
TrackDT01	4	TrackDT	1.0	SCS215a	20120419.141447	20120419.141738	dt-shadow	8	0.013327	60	10	60-180	60	166	GapExp	0	28	2	1	0	distractor	1	461	770	25753	13.328	12.856	13.794
TrackDT01	4	TrackDT	1.0	SCS215a	20120419.141447	20120419.141745	dt-shadow	8	0.013327	60	10	60-180	60	111	GapExp	0	29	2	1	0	target	0	555	-1000	24753	13.328	13.307	13.351
TrackDT01	4	TrackDT	1.0	SCS215a	20120419.141447	20120419.141750	dt-shadow	8	0.013327	60	10	60-180	60	142	GapExp	0	30	2	1	0	distractor	1	721	640	25393	13.328	13.100	13.563
TrackDT01	4	TrackDT	1.0	SCS215a	20120419.141447	20120419.141756	dt-shadow	8	0.013327	60	10	60-180	60	162	GapExp	0	31	2	0	1	target	1	877	562	25955	13.328	13.307	13.348
TrackDT01	4	TrackDT	1.0	SCS215a	20120419.141447	20120419.141803	dt-shadow	8	0.013327	60	10	60-180	60	179	GapExp	0	32	2	30	1	distractor	0	1336	-1000	24955	13.328	13.099	13.552
TrackDT01	4	TrackDT	1.0	SCS215a	20120419.141447	20120419.141811	dt-shadow	8	0.013327	60	10	60-180	60	151	GapExp	0	33	2	3	1	target	1	776	612	25567	13.328	12.787	13.939
TrackDT01	4	TrackDT	1.0	SCS215a	20120419.141447	20120419.141817	dt-shadow	8	0.013327	60	10	60-180	60	150	GapExp	0	34	2	0	1	target	1	699	651	26218	13.328	13.100	13.557
TrackDT01	4	TrackDT	1.0	SCS215a	20120419.141447	20120419.141824	dt-shadow	8	0.013327	60	10	60-180	60	77	GapExp	0	35	2	1	0	distractor	1	611	695	26913	13.328	13.104	13.560
TrackDT01	4	TrackDT	1.0	SCS215a	20120419.141447	20120419.141829	dt-shadow	8	0.013327	60	10	60-180	60	93	GapExp	0	36	2	30	1	target	1	732	634	27547	13.328	12.983	13.691
TrackDT01	4	TrackDT	1.0	SCS215a	20120419.141447	20120419.141835	dt-shadow	8	0.013327	60	10	60-180	60	117	GapExp	0	37	2	0	1	target	1	705	648	28195	13.328	12.785	14.048
TrackDT01	4	TrackDT	1.0	SCS215a	20120419.141447	20120419.141840	dt-shadow	8	0.013327	60	10	60-180	60	172	GapExp	0	38	2	0	1	target	1	542	729	28924	13.328	13.292	13.378
TrackDT01	4	TrackDT	1.0	SCS215a	20120419.141447	20120419.141847	dt-shadow	8	0.013327	60	10	60-180	60	98	GapExp	0	39	2	30	0	distractor	1	647	677	29601	13.328	12.893	13.765
TrackDT01	4	TrackDT	1.0	SCS215a	20120419.141447	20120419.141853	dt-shadow	8	0.013327	60	10	60-180	60	83	GapExp	0	40	2	1	1	target	1	940	530	30131	13.328	13.100	13.550
TrackDT01	4	TrackDT	1.0	SCS215a	20120419.141447	20120419.141859	dt-shadow	8	0.013327	60	10	60-180	60	176	GapExp	0	41	2	1	1	target	1	741	630	30761	13.328	13.100	13.556
TrackDT01	4	TrackDT	1.0	SCS215a	20120419.141447	20120419.141905	dt-shadow	8	0.013327	60	10	60-180	60	143	GapExp	0	42	2	0	0	distractor	1	871	565	31326	13.328	13.107	13.552
TrackDT01	4	TrackDT	1.0	SCS215a	20120419.141447	20120419.141912	dt-shadow	8	0.013327	60	10	60-180	60	118	GapExp	0	43	2	1	0	distractor	1	720	640	31966	13.328	13.308	13.351
TrackDT01	4	TrackDT	1.0	SCS215a	20120419.141447	20120419.141918	dt-shadow	8	0.013327	60	10	60-180	60	83	GapExp	0	44	2	30	0	distractor	1	717	642	32608	13.328	13.301	13.355
TrackDT01	4	TrackDT	1.0	SCS215a	20120419.141447	20120419.141924	dt-shadow	8	0.013327	60	10	60-180	60	138	GapExp	0	45	2	3	0	distractor	1	710	645	33253	13.328	13.054	13.596
TrackDT01	4	TrackDT	1.0	SCS215a	20120419.141447	20120419.141930	dt-shadow	8	0.013327	60	10	60-180	60	144	GapExp	0	46	2	1	1	target	1	693	654	33907	13.328	13.305	13.352
TrackDT01	4	TrackDT	1.0	SCS215a	20120419.141447	20120419.141936	dt-shadow	8	0.013327	60	10	60-180	60	69	GapExp	0	47	2	30	1	target	1	807	597	34504	13.328	13.130	13.513
TrackDT01	4	TrackDT	1.0	SCS215a	20120419.141447	20120419.141942	dt-shadow	8	0.013327	60	10	60-180	60	78	GapExp	0	48	2	1	0	distractor	1	517	742	35246	13.328	12.875	13.782
TrackDT01	4	TrackDT	1.0	SCS215a	20120419.141447	20120419.141947	dt-shadow	8	0.013327	60	10	60-180	60	92	GapExp	0	49	2	0	0	distractor	1	748	626	35872	13.328	12.851	13.805
TrackDT01	4	TrackDT	1.0	SCS215a	20120419.141447	20120419.141953	dt-shadow	8	0.013327	60	10	60-180	60	81	GapExp	0	50	2	3	0	distractor	1	588	706	36578	13.328	12.944	13.721
TrackDT01	4	TrackDT	1.0	SCS215a	20120419.141447	20120419.142020	dt-shadow	8	0.013327	60	10	60-180	60	146	GapExp	0	51	2	30	1	target	1	650	675	37253	13.328	13.285	13.375
TrackDT01	4	TrackDT	1.0	SCS215a	20120419.141447	20120419.142027	dt-shadow	8	0.013327	60	10	60-180	60	108	GapExp	0	52	2	3	0	distractor	1	548	726	37979	13.328	13.018	13.638
TrackDT01	4	TrackDT	1.0	SCS215a	20120419.141447	20120419.142033	dt-shadow	8	0.013327	60	10	60-180	60	168	GapExp	0	53	2	30	1	target	1	483	759	38738	13.328	13.306	13.355
TrackDT01	4	TrackDT	1.0	SCS215a	20120419.141447	20120419.142040	dt-shadow	8	0.013327	60	10	60-180	60	105	GapExp	0	54	2	3	1	target	1	541	730	39468	13.328	13.169	13.486
TrackDT01	4	TrackDT	1.0	SCS215a	20120419.141447	20120419.142045	dt-shadow	8	0.013327	60	10	60-180	60	144	GapExp	0	55	2	30	0	distractor	1	609	696	40164	13.328	13.308	13.348
TrackDT01	4	TrackDT	1.0	SCS215a	20120419.141447	20120419.142052	dt-shadow	8	0.013327	60	10	60-180	60	163	GapExp	0	56	2	1	1	target	1	643	679	40843	13.328	13.102	13.561
TrackDT01	4	TrackDT	1.0	SCS215a	20120419.141447	20120419.142059	dt-shadow	8	0.013327	60	10	60-180	60	86	GapExp	0	57	2	30	1	target	1	457	772	41615	13.328	13.104	13.567
TrackDT01	4	TrackDT	1.0	SCS215a	20120419.141447	20120419.142104	dt-shadow	8	0.013327	60	10	60-180	60	122	GapExp	0	58	2	1	0	distractor	1	765	618	42233	13.328	13.095	13.560
TrackDT01	4	TrackDT	1.0	SCS215a	20120419.141447	20120419.142110	dt-shadow	8	0.013327	60	10	60-180	60	78	GapExp	0	59	2	30	1	target	1	486	757	42990	13.328	12.929	13.713
TrackDT01	4	TrackDT	1.0	SCS215a	20120419.141447	20120419.142116	dt-shadow	8	0.013327	60	10	60-180	60	150	GapExp	0	60	2	0	1	target	1	516	742	43732	13.328	13.308	13.354
TrackDT01	4	TrackDT	1.0	SCS215a	20120419.141447	20120419.142122	dt-shadow	8	0.013327	60	10	60-180	60	155	GapExp	0	61	2	30	0	distractor	1	493	754	44486	13.328	13.294	13.355
TrackDT01	4	TrackDT	1.0	SCS215a	20120419.141447	20120419.142128	dt-shadow	8	0.013327	60	10	60-180	60	86	GapExp	0	62	2	3	0	distractor	1	701	650	45136	13.328	13.099	13.564
TrackDT01	4	TrackDT	1.0	SCS215a	20120419.141447	20120419.142134	dt-shadow	8	0.013327	60	10	60-180	60	146	GapExp	0	63	2	1	1	target	1	631	685	45821	13.328	13.104	13.557
TrackDT01	4	TrackDT	1.0	SCS215a	20120419.141447	20120419.142140	dt-shadow	8	0.013327	60	10	60-180	60	103	GapExp	0	64	2	1	0	distractor	1	673	664	46485	13.328	13.107	13.552
TrackDT01	4	TrackDT	1.0	SCS215a	20120419.141447	20120419.142146	dt-shadow	8	0.013327	60	10	60-180	60	164	GapExp	0	65	2	30	0	distractor	1	569	716	47201	13.328	13.304	13.350
TrackDT01	4	TrackDT	1.0	SCS215a	20120419.141447	20120419.142152	dt-shadow	8	0.013327	60	10	60-180	60	147	GapExp	0	66	2	3	0	distractor	1	550	725	47926	13.328	13.307	13.347
TrackDT01	4	TrackDT	1.0	SCS215a	20120419.141447	20120419.142158	dt-shadow	8	0.013327	60	10	60-180	60	145	GapExp	0	67	2	1	1	target	1	638	681	48607	13.328	12.852	13.807
TrackDT01	4	TrackDT	1.0	SCS215a	20120419.141447	20120419.142205	dt-shadow	8	0.013327	60	10	60-180	60	99	GapExp	0	68	2	1	0	distractor	1	519	741	49348	13.328	12.891	13.756
TrackDT01	4	TrackDT	1.0	SCS215a	20120419.141447	20120419.142210	dt-shadow	8	0.013327	60	10	60-180	60	145	GapExp	0	69	2	1	1	distractor	0	690	-1000	48348	13.328	12.924	13.741
TrackDT01	4	TrackDT	1.0	SCS215a	20120419.141447	20120419.142216	dt-shadow	8	0.013327	60	10	60-180	60	113	GapExp	0	70	2	3	1	target	1	509	746	49094	13.328	13.103	13.538
TrackDT01	4	TrackDT	1.0	SCS215a	20120419.141447	20120419.142222	dt-shadow	8	0.013327	60	10	60-180	60	151	GapExp	0	71	2	3	1	target	1	581	710	49804	13.328	13.097	13.565
TrackDT01	4	TrackDT	1.0	SCS215a	20120419.141447	20120419.142228	dt-shadow	8	0.013327	60	10	60-180	60	134	GapExp	0	72	2	30	1	target	1	490	755	50559	13.328	13.092	13.560
TrackDT01	4	TrackDT	1.0	SCS215a	20120419.141447	20120419.142234	dt-shadow	8	0.013327	60	10	60-180	60	102	GapExp	0	73	2	3	1	target	1	413	794	51353	13.328	13.001	13.645
TrackDT01	4	TrackDT	1.0	SCS215a	20120419.141447	20120419.142240	dt-shadow	8	0.013327	60	10	60-180	60	134	GapExp	0	74	2	3	1	target	1	592	704	52057	13.328	12.980	13.657
TrackDT01	4	TrackDT	1.0	SCS215a	20120419.141447	20120419.142246	dt-shadow	8	0.013327	60	10	60-180	60	99	GapExp	0	75	2	1	1	target	1	763	619	52676	13.328	13.304	13.345
TrackDT01	4	TrackDT	1.0	SCS215a	20120419.141447	20120419.142251	dt-shadow	8	0.013327	60	10	60-180	60	175	GapExp	0	76	2	3	0	distractor	1	569	716	53392	13.328	12.857	13.794
TrackDT01	4	TrackDT	1.0	SCS215a	20120419.141447	20120419.142258	dt-shadow	8	0.013327	60	10	60-180	60	139	GapExp	0	77	2	30	0	distractor	1	560	720	54112	13.328	12.974	13.691
TrackDT01	4	TrackDT	1.0	SCS215a	20120419.141447	20120419.142304	dt-shadow	8	0.013327	60	10	60-180	60	126	GapExp	0	78	2	0	1	target	1	584	708	54820	13.328	13.093	13.559
TrackDT01	4	TrackDT	1.0	SCS215a	20120419.141447	20120419.142311	dt-shadow	8	0.013327	60	10	60-180	60	97	GapExp	0	79	2	3	1	target	1	538	731	55551	13.328	13.108	13.558
TrackDT01	4	TrackDT	1.0	SCS215a	20120419.141447	20120419.142316	dt-shadow	8	0.013327	60	10	60-180	60	124	GapExp	0	80	2	0	1	target	1	556	722	56273	13.328	13.093	13.551
TrackDT01	4	TrackDT	1.0	SCS215a	20120419.141447	20120419.142322	dt-shadow	8	0.013327	60	10	60-180	60	95	GapExp	0	81	2	0	0	distractor	1	553	724	56997	13.328	13.050	13.616
TrackDT01	4	TrackDT	1.0	SCS215a	20120419.141447	20120419.142327	dt-shadow	8	0.013327	60	10	60-180	60	117	GapExp	0	82	2	30	1	target	1	422	789	57786	13.328	12.909	13.750
TrackDT01	4	TrackDT	1.0	SCS215a	20120419.141447	20120419.142333	dt-shadow	8	0.013327	60	10	60-180	60	141	GapExp	0	83	2	0	0	distractor	1	656	672	58458	13.328	12.947	13.696
TrackDT01	4	TrackDT	1.0	SCS215a	20120419.141447	20120419.142339	dt-shadow	8	0.013327	60	10	60-180	60	85	GapExp	0	84	2	30	0	distractor	1	962	519	58977	13.328	13.086	13.572
TrackDT01	4	TrackDT	1.0	SCS215a	20120419.141447	20120419.142345	dt-shadow	8	0.013327	60	10	60-180	60	92	GapExp	0	85	2	1	1	target	1	633	684	59661	13.328	13.114	13.538
TrackDT01	4	TrackDT	1.0	SCS215a	20120419.141447	20120419.142351	dt-shadow	8	0.013327	60	10	60-180	60	76	GapExp	0	86	2	3	1	target	1	585	708	60369	13.328	13.299	13.351
TrackDT01	4	TrackDT	1.0	SCS215a	20120419.141447	20120419.142356	dt-shadow	8	0.013327	60	10	60-180	60	61	GapExp	0	87	2	0	1	target	1	894	553	60922	13.328	13.300	13.345
TrackDT01	4	TrackDT	1.0	SCS215a	20120419.141447	20120419.142401	dt-shadow	8	0.013327	60	10	60-180	60	180	GapExp	0	88	2	0	1	target	1	429	786	61708	13.328	12.864	13.796
TrackDT01	4	TrackDT	1.0	SCS215a	20120419.141447	20120419.142407	dt-shadow	8	0.013327	60	10	60-180	60	62	GapExp	0	89	2	3	1	target	1	507	747	62455	13.328	13.094	13.558
TrackDT01	4	TrackDT	1.0	SCS215a	20120419.141447	20120419.142412	dt-shadow	8	0.013327	60	10	60-180	60	168	GapExp	0	90	2	3	0	distractor	1	640	680	63135	13.328	13.106	13.550
TrackDT01	4	TrackDT	1.0	SCS215a	20120419.141447	20120419.142419	dt-shadow	8	0.013327	60	10	60-180	60	110	GapExp	0	91	2	30	0	distractor	1	570	715	63850	13.328	12.982	13.675
TrackDT01	4	TrackDT	1.0	SCS215a	20120419.141447	20120419.142425	dt-shadow	8	0.013327	60	10	60-180	60	106	GapExp	0	92	2	30	1	target	1	638	681	64531	13.328	13.027	13.622
TrackDT01	4	TrackDT	1.0	SCS215a	20120419.141447	20120419.142431	dt-shadow	8	0.013327	60	10	60-180	60	62	GapExp	0	93	2	3	1	target	1	598	701	65232	13.328	12.961	13.695
TrackDT01	4	TrackDT	1.0	SCS215a	20120419.141447	20120419.142436	dt-shadow	8	0.013327	60	10	60-180	60	122	GapExp	0	94	2	0	0	distractor	1	634	683	65915	13.328	12.890	13.754
TrackDT01	4	TrackDT	1.0	SCS215a	20120419.141447	20120419.142442	dt-shadow	8	0.013327	60	10	60-180	60	172	GapExp	0	95	2	3	1	target	1	475	763	66678	13.328	12.944	13.712
TrackDT01	4	TrackDT	1.0	SCS215a	20120419.141447	20120419.142448	dt-shadow	8	0.013327	60	10	60-180	60	152	GapExp	0	96	2	3	0	distractor	1	520	740	67418	13.328	12.921	13.759
TrackDT01	4	TrackDT	1.0	SCS215a	20120419.141447	20120419.142455	dt-shadow	8	0.013327	60	10	60-180	60	163	GapExp	0	97	2	3	0	distractor	1	640	680	68098	13.328	12.906	13.756
TrackDT01	4	TrackDT	1.0	SCS215a	20120419.141447	20120419.142501	dt-shadow	8	0.013327	60	10	60-180	60	72	GapExp	0	98	2	0	0	distractor	1	550	725	68823	13.328	13.030	13.640
TrackDT01	4	TrackDT	1.0	SCS215a	20120419.141447	20120419.142506	dt-shadow	8	0.013327	60	10	60-180	60	73	GapExp	0	99	2	30	0	distractor	1	584	708	69531	13.328	13.307	13.356
TrackDT01	4	TrackDT	1.0	SCS215a	20120419.141447	20120419.142511	dt-shadow	8	0.013327	60	10	60-180	60	125	GapExp	0	100	2	30	1	target	1	653	674	70205	13.328	12.872	13.778
TrackDT01	4	TrackDT	1.0	SCS215a	20120419.141447	20120419.142532	dt-shadow	8	0.013327	60	10	60-180	60	106	GapExp	0	101	2	1	1	target	1	626	687	70892	13.328	13.097	13.573
TrackDT01	4	TrackDT	1.0	SCS215a	20120419.141447	20120419.142538	dt-shadow	8	0.013327	60	10	60-180	60	92	GapExp	0	102	2	1	1	target	1	650	675	71567	13.328	12.951	13.713
TrackDT01	4	TrackDT	1.0	SCS215a	20120419.141447	20120419.142543	dt-shadow	8	0.013327	60	10	60-180	60	159	GapExp	0	103	2	0	0	distractor	1	640	680	72247	13.328	13.111	13.552
TrackDT01	4	TrackDT	1.0	SCS215a	20120419.141447	20120419.142550	dt-shadow	8	0.013327	60	10	60-180	60	147	GapExp	0	104	2	1	1	target	1	878	561	72808	13.328	13.005	13.656
TrackDT01	4	TrackDT	1.0	SCS215a	20120419.141447	20120419.142556	dt-shadow	8	0.013327	60	10	60-180	60	78	GapExp	0	105	2	1	0	distractor	1	512	744	73552	13.328	12.995	13.661
TrackDT01	4	TrackDT	1.0	SCS215a	20120419.141447	20120419.142601	dt-shadow	8	0.013327	60	10	60-180	60	88	GapExp	0	106	2	1	1	target	1	501	750	74302	13.328	12.892	13.765
TrackDT01	4	TrackDT	1.0	SCS215a	20120419.141447	20120419.142606	dt-shadow	8	0.013327	60	10	60-180	60	96	GapExp	0	107	2	30	0	distractor	1	615	693	74995	13.328	13.106	13.560
TrackDT01	4	TrackDT	1.0	SCS215a	20120419.141447	20120419.142613	dt-shadow	8	0.013327	60	10	60-180	60	112	GapExp	0	108	2	30	0	distractor	1	602	699	75694	13.328	13.302	13.353
TrackDT01	4	TrackDT	1.0	SCS215a	20120419.141447	20120419.142618	dt-shadow	8	0.013327	60	10	60-180	60	179	GapExp	0	109	2	0	0	distractor	1	936	532	76226	13.328	13.106	13.544
TrackDT01	4	TrackDT	1.0	SCS215a	20120419.141447	20120419.142625	dt-shadow	8	0.013327	60	10	60-180	60	171	GapExp	0	110	2	1	1	target	1	476	762	76988	13.328	13.303	13.359
TrackDT01	4	TrackDT	1.0	SCS215a	20120419.141447	20120419.142631	dt-shadow	8	0.013327	60	10	60-180	60	78	GapExp	0	111	2	1	0	distractor	1	942	529	77517	13.328	12.907	13.763
TrackDT01	4	TrackDT	1.0	SCS215a	20120419.141447	20120419.142637	dt-shadow	8	0.013327	60	10	60-180	60	109	GapExp	0	112	2	0	1	target	1	532	734	78251	13.328	12.879	13.791
TrackDT01	4	TrackDT	1.0	SCS215a	20120419.141447	20120419.142643	dt-shadow	8	0.013327	60	10	60-180	60	144	GapExp	0	113	2	3	1	distractor	0	528	-1000	77251	13.328	13.097	13.545
TrackDT01	4	TrackDT	1.0	SCS215a	20120419.141447	20120419.142649	dt-shadow	8	0.013327	60	10	60-180	60	162	GapExp	0	114	2	1	1	target	1	709	646	77897	13.328	12.945	13.717
TrackDT01	4	TrackDT	1.0	SCS215a	20120419.141447	20120419.142655	dt-shadow	8	0.013327	60	10	60-180	60	73	GapExp	0	115	2	0	1	target	1	525	738	78635	13.328	13.106	13.558
TrackDT01	4	TrackDT	1.0	SCS215a	20120419.141447	20120419.142700	dt-shadow	8	0.013327	60	10	60-180	60	65	GapExp	0	116	2	0	0	distractor	1	838	581	79216	13.328	13.309	13.350
TrackDT01	4	TrackDT	1.0	SCS215a	20120419.141447	20120419.142705	dt-shadow	8	0.013327	60	10	60-180	60	168	GapExp	0	117	2	0	0	target	0	875	-1000	78216	13.328	12.881	13.798
TrackDT01	4	TrackDT	1.0	SCS215a	20120419.141447	20120419.142712	dt-shadow	8	0.013327	60	10	60-180	60	143	GapExp	0	118	2	0	0	distractor	1	615	693	78909	13.328	13.307	13.348
TrackDT01	4	TrackDT	1.0	SCS215a	20120419.141447	20120419.142718	dt-shadow	8	0.013327	60	10	60-180	60	140	GapExp	0	119	2	0	0	distractor	1	704	648	79557	13.328	13.303	13.361
TrackDT01	4	TrackDT	1.0	SCS215a	20120419.141447	20120419.142724	dt-shadow	8	0.013327	60	10	60-180	60	141	GapExp	0	120	2	3	0	distractor	1	608	696	80253	13.328	13.297	13.347
TrackDT01	4	TrackDT	1.0	SCS215a	20120419.141447	20120419.142730	dt-shadow	8	0.013327	60	10	60-180	60	139	GapExp	0	121	2	3	0	target	0	515	-1000	79253	13.328	12.900	13.771
TrackDT01	4	TrackDT	1.0	SCS215a	20120419.141447	20120419.142736	dt-shadow	8	0.013327	60	10	60-180	60	61	GapExp	0	122	2	30	1	target	1	801	600	79853	13.328	12.985	13.672
TrackDT01	4	TrackDT	1.0	SCS215a	20120419.141447	20120419.142742	dt-shadow	8	0.013327	60	10	60-180	60	83	GapExp	0	123	2	3	0	distractor	1	556	722	80575	13.328	12.899	13.764
TrackDT01	4	TrackDT	1.0	SCS215a	20120419.141447	20120419.142747	dt-shadow	8	0.013327	60	10	60-180	60	132	GapExp	0	124	2	0	0	distractor	1	932	534	81109	13.328	13.302	13.355
TrackDT01	4	TrackDT	1.0	SCS215a	20120419.141447	20120419.142754	dt-shadow	8	0.013327	60	10	60-180	60	75	GapExp	0	125	2	3	1	target	1	792	604	81713	13.328	13.307	13.345
TrackDT01	4	TrackDT	1.0	SCS215a	20120419.141447	20120419.142759	dt-shadow	8	0.013327	60	10	60-180	60	105	GapExp	0	126	2	0	1	target	1	450	775	82488	13.328	12.933	13.727
TrackDT01	4	TrackDT	1.0	SCS215a	20120419.141447	20120419.142805	dt-shadow	8	0.013327	60	10	60-180	60	110	GapExp	0	127	2	0	0	distractor	1	549	726	83214	13.328	12.863	13.807
TrackDT01	4	TrackDT	1.0	SCS215a	20120419.141447	20120419.142810	dt-shadow	8	0.013327	60	10	60-180	60	150	GapExp	0	128	2	0	0	distractor	1	786	607	83821	13.328	12.842	13.828
TrackDT01	4	TrackDT	1.0	SCS215a	20120419.141447	20120419.142816	dt-shadow	8	0.013327	60	10	60-180	60	140	GapExp	0	129	2	0	0	distractor	1	573	714	84535	13.328	12.899	13.774
TrackDT01	4	TrackDT	1.0	SCS215a	20120419.141447	20120419.142822	dt-shadow	8	0.013327	60	10	60-180	60	101	GapExp	0	130	2	1	0	distractor	1	597	702	85237	13.328	13.303	13.354
TrackDT01	4	TrackDT	1.0	SCS215a	20120419.141447	20120419.142828	dt-shadow	8	0.013327	60	10	60-180	60	88	GapExp	0	131	2	1	0	distractor	1	738	631	85868	13.328	13.177	13.479
TrackDT01	4	TrackDT	1.0	SCS215a	20120419.141447	20120419.142834	dt-shadow	8	0.013327	60	10	60-180	60	101	GapExp	0	132	2	3	1	target	1	986	507	86375	13.328	13.112	13.545
TrackDT01	4	TrackDT	1.0	SCS215a	20120419.141447	20120419.142840	dt-shadow	8	0.013327	60	10	60-180	60	161	GapExp	0	133	2	3	1	target	1	652	674	87049	13.328	13.107	13.558
TrackDT01	4	TrackDT	1.0	SCS215a	20120419.141447	20120419.142846	dt-shadow	8	0.013327	60	10	60-180	60	103	GapExp	0	134	2	30	0	distractor	1	595	703	87752	13.328	13.013	13.644
TrackDT01	4	TrackDT	1.0	SCS215a	20120419.141447	20120419.142852	dt-shadow	8	0.013327	60	10	60-180	60	150	GapExp	0	135	2	3	1	target	1	698	651	88403	13.328	13.192	13.449
TrackDT01	4	TrackDT	1.0	SCS215a	20120419.141447	20120419.142859	dt-shadow	8	0.013327	60	10	60-180	60	134	GapExp	0	136	2	3	0	distractor	1	581	710	89113	13.328	13.192	13.465
TrackDT01	4	TrackDT	1.0	SCS215a	20120419.141447	20120419.142905	dt-shadow	8	0.013327	60	10	60-180	60	121	GapExp	0	137	2	3	0	distractor	1	584	708	89821	13.328	13.262	13.400
TrackDT01	4	TrackDT	1.0	SCS215a	20120419.141447	20120419.142910	dt-shadow	8	0.013327	60	10	60-180	60	150	GapExp	0	138	2	30	0	target	0	638	-1000	88821	13.328	12.878	13.775
TrackDT01	4	TrackDT	1.0	SCS215a	20120419.141447	20120419.142917	dt-shadow	8	0.013327	60	10	60-180	60	79	GapExp	0	139	2	1	1	target	1	1020	490	89311	13.328	12.976	13.674
TrackDT01	4	TrackDT	1.0	SCS215a	20120419.141447	20120419.142923	dt-shadow	8	0.013327	60	10	60-180	60	130	GapExp	0	140	2	1	1	target	1	605	698	90009	13.328	12.836	13.812
TrackDT01	4	TrackDT	1.0	SCS215a	20120419.141447	20120419.142929	dt-shadow	8	0.013327	60	10	60-180	60	65	GapExp	0	141	2	30	1	target	1	858	571	90580	13.328	13.103	13.547
TrackDT01	4	TrackDT	1.0	SCS215a	20120419.141447	20120419.142935	dt-shadow	8	0.013327	60	10	60-180	60	119	GapExp	0	142	2	30	1	target	1	577	712	91292	13.328	12.937	13.718
TrackDT01	4	TrackDT	1.0	SCS215a	20120419.141447	20120419.142941	dt-shadow	8	0.013327	60	10	60-180	60	142	GapExp	0	143	2	3	0	distractor	1	625	688	91980	13.328	13.099	13.557
TrackDT01	4	TrackDT	1.0	SCS215a	20120419.141447	20120419.142947	dt-shadow	8	0.013327	60	10	60-180	60	117	GapExp	0	144	2	30	1	target	1	965	518	92498	13.328	13.304	13.354
TrackDT01	4	TrackDT	1.0	SCS215a	20120419.141447	20120419.142953	dt-shadow	8	0.013327	60	10	60-180	60	95	GapExp	0	145	2	0	0	distractor	1	694	653	93151	13.328	13.309	13.344
TrackDT01	4	TrackDT	1.0	SCS215a	20120419.141447	20120419.142959	dt-shadow	8	0.013327	60	10	60-180	60	133	GapExp	0	146	2	30	1	target	1	646	677	93828	13.328	12.881	13.775
TrackDT01	4	TrackDT	1.0	SCS215a	20120419.141447	20120419.143006	dt-shadow	8	0.013327	60	10	60-180	60	103	GapExp	0	147	2	3	0	distractor	1	570	715	94543	13.328	13.086	13.557
TrackDT01	4	TrackDT	1.0	SCS215a	20120419.141447	20120419.143011	dt-shadow	8	0.013327	60	10	60-180	60	149	GapExp	0	148	2	30	0	target	0	787	-1000	93543	13.328	13.106	13.564
TrackDT01	4	TrackDT	1.0	SCS215a	20120419.141447	20120419.143018	dt-shadow	8	0.013327	60	10	60-180	60	106	GapExp	0	149	2	1	1	target	1	672	664	94207	13.328	13.108	13.558
TrackDT01	4	TrackDT	1.0	SCS215a	20120419.141447	20120419.143024	dt-shadow	8	0.013327	60	10	60-180	60	148	GapExp	0	150	2	3	1	target	1	630	685	94892	13.328	13.100	13.565
TrackDT01	4	TrackDT	1.0	SCS215a	20120419.141447	20120419.143049	dt-shadow	8	0.013327	60	10	60-180	60	140	GapExp	0	151	2	30	0	target	0	683	-1000	93892	13.328	12.893	13.788
TrackDT01	4	TrackDT	1.0	SCS215a	20120419.141447	20120419.143056	dt-shadow	8	0.013327	60	10	60-180	60	156	GapExp	0	152	2	1	0	distractor	1	688	656	94548	13.328	12.989	13.653
TrackDT01	4	TrackDT	1.0	SCS215a	20120419.141447	20120419.143103	dt-shadow	8	0.013327	60	10	60-180	60	123	GapExp	0	153	2	1	0	distractor	1	693	654	95202	13.328	13.221	13.446
TrackDT01	4	TrackDT	1.0	SCS215a	20120419.141447	20120419.143109	dt-shadow	8	0.013327	60	10	60-180	60	99	GapExp	0	154	2	0	1	target	1	1009	496	95698	13.328	13.105	13.563
TrackDT01	4	TrackDT	1.0	SCS215a	20120419.141447	20120419.143115	dt-shadow	8	0.013327	60	10	60-180	60	179	GapExp	0	155	2	1	0	target	0	590	-1000	94698	13.328	13.307	13.351
TrackDT01	4	TrackDT	1.0	SCS215a	20120419.141447	20120419.143121	dt-shadow	8	0.013327	60	10	60-180	60	121	GapExp	0	156	2	0	0	distractor	1	880	560	95258	13.328	13.105	13.556
TrackDT01	4	TrackDT	1.0	SCS215a	20120419.141447	20120419.143127	dt-shadow	8	0.013327	60	10	60-180	60	79	GapExp	0	157	2	1	0	distractor	1	820	590	95848	13.387	12.876	26.757
TrackDT01	4	TrackDT	1.0	SCS215a	20120419.141447	20120419.143133	dt-shadow	8	0.013327	60	10	60-180	60	87	GapExp	0	158	2	3	1	target	1	662	669	96517	13.328	13.174	13.490
TrackDT01	4	TrackDT	1.0	SCS215a	20120419.141447	20120419.143138	dt-shadow	8	0.013327	60	10	60-180	60	135	GapExp	0	159	2	30	1	target	1	627	687	97204	13.328	12.863	13.805
TrackDT01	4	TrackDT	1.0	SCS215a	20120419.141447	20120419.143145	dt-shadow	8	0.013327	60	10	60-180	60	141	GapExp	0	160	2	30	1	target	1	616	692	97896	13.328	13.181	13.477
TrackDT01	4	TrackDT	1.0	SCS215a	20120419.141447	20120419.143151	dt-shadow	8	0.013327	60	10	60-180	60	77	GapExp	0	161	2	3	0	distractor	1	542	729	98625	13.328	12.871	13.794
TrackDT01	4	TrackDT	1.0	SCS215a	20120419.141447	20120419.143156	dt-shadow	8	0.013327	60	10	60-180	60	63	GapExp	0	162	2	3	1	target	1	690	655	99280	13.328	13.107	13.550
TrackDT01	4	TrackDT	1.0	SCS215a	20120419.141447	20120419.143202	dt-shadow	8	0.013327	60	10	60-180	60	91	GapExp	0	163	2	0	1	target	1	510	745	100025	13.328	12.943	13.760
TrackDT01	4	TrackDT	1.0	SCS215a	20120419.141447	20120419.143207	dt-shadow	8	0.013327	60	10	60-180	60	134	GapExp	0	164	2	3	1	target	1	547	727	100752	13.328	12.859	13.812
TrackDT01	4	TrackDT	1.0	SCS215a	20120419.141447	20120419.143213	dt-shadow	8	0.013327	60	10	60-180	60	77	GapExp	0	165	2	1	1	target	1	648	676	101428	13.328	12.859	13.798
TrackDT01	4	TrackDT	1.0	SCS215a	20120419.141447	20120419.143218	dt-shadow	8	0.013327	60	10	60-180	60	84	GapExp	0	166	2	0	1	target	1	508	746	102174	13.328	12.871	13.811
TrackDT01	4	TrackDT	1.0	SCS215a	20120419.141447	20120419.143224	dt-shadow	8	0.013327	60	10	60-180	60	62	GapExp	0	167	2	0	1	target	1	621	690	102864	13.328	13.079	13.570
TrackDT01	4	TrackDT	1.0	SCS215a	20120419.141447	20120419.143229	dt-shadow	8	0.013327	60	10	60-180	60	148	GapExp	0	168	2	1	1	target	1	588	706	103570	13.328	12.879	13.777
TrackDT01	4	TrackDT	1.0	SCS215a	20120419.141447	20120419.143235	dt-shadow	8	0.013327	60	10	60-180	60	164	GapExp	0	169	2	1	0	distractor	1	601	700	104270	13.373	12.877	27.128
TrackDT01	4	TrackDT	1.0	SCS215a	20120419.141447	20120419.143241	dt-shadow	8	0.013327	60	10	60-180	60	149	GapExp	0	170	2	3	1	target	1	519	741	105011	13.328	12.946	13.718
TrackDT01	4	TrackDT	1.0	SCS215a	20120419.141447	20120419.143248	dt-shadow	8	0.013327	60	10	60-180	60	67	GapExp	0	171	2	0	1	target	1	540	730	105741	13.328	12.917	13.757
TrackDT01	4	TrackDT	1.0	SCS215a	20120419.141447	20120419.143253	dt-shadow	8	0.013327	60	10	60-180	60	108	GapExp	0	172	2	30	0	distractor	1	588	706	106447	13.328	13.004	13.653
TrackDT01	4	TrackDT	1.0	SCS215a	20120419.141447	20120419.143259	dt-shadow	8	0.013327	60	10	60-180	60	145	GapExp	0	173	2	30	0	distractor	1	679	661	107108	13.328	13.114	13.551
TrackDT01	4	TrackDT	1.0	SCS215a	20120419.141447	20120419.143305	dt-shadow	8	0.013327	60	10	60-180	60	93	GapExp	0	174	2	30	1	target	1	455	773	107881	13.328	12.931	13.718
TrackDT01	4	TrackDT	1.0	SCS215a	20120419.141447	20120419.143311	dt-shadow	8	0.013327	60	10	60-180	60	178	GapExp	0	175	2	3	0	distractor	1	602	699	108580	13.328	12.920	13.739
TrackDT01	4	TrackDT	1.0	SCS215a	20120419.141447	20120419.143318	dt-shadow	8	0.013327	60	10	60-180	60	62	GapExp	0	176	2	30	0	distractor	1	737	632	109212	13.328	13.306	13.360
TrackDT01	4	TrackDT	1.0	SCS215a	20120419.141447	20120419.143323	dt-shadow	8	0.013327	60	10	60-180	60	84	GapExp	0	177	2	30	1	target	1	414	793	110005	13.328	13.304	13.353
TrackDT01	4	TrackDT	1.0	SCS215a	20120419.141447	20120419.143329	dt-shadow	8	0.013327	60	10	60-180	60	98	GapExp	0	178	2	0	0	distractor	1	673	664	110669	13.328	12.871	13.787
TrackDT01	4	TrackDT	1.0	SCS215a	20120419.141447	20120419.143334	dt-shadow	8	0.013327	60	10	60-180	60	125	GapExp	0	179	2	3	1	target	1	584	708	111377	13.328	13.106	13.558
TrackDT01	4	TrackDT	1.0	SCS215a	20120419.141447	20120419.143340	dt-shadow	8	0.013327	60	10	60-180	60	142	GapExp	0	180	2	30	1	target	1	393	804	112181	13.328	12.896	13.763
TrackDT01	4	TrackDT	1.0	SCS215a	20120419.141447	20120419.143347	dt-shadow	8	0.013327	60	10	60-180	60	137	GapExp	0	181	2	0	1	target	1	517	742	112923	13.328	13.307	13.343
TrackDT01	4	TrackDT	1.0	SCS215a	20120419.141447	20120419.143353	dt-shadow	8	0.013327	60	10	60-180	60	106	GapExp	0	182	2	3	0	distractor	1	514	743	113666	13.328	12.955	13.683
TrackDT01	4	TrackDT	1.0	SCS215a	20120419.141447	20120419.143358	dt-shadow	8	0.013327	60	10	60-180	60	118	GapExp	0	183	2	1	0	distractor	1	566	717	114383	13.328	13.308	13.345
TrackDT01	4	TrackDT	1.0	SCS215a	20120419.141447	20120419.143404	dt-shadow	8	0.013327	60	10	60-180	60	135	GapExp	0	184	2	30	0	target	0	590	-1000	113383	13.328	12.898	13.749
TrackDT01	4	TrackDT	1.0	SCS215a	20120419.141447	20120419.143410	dt-shadow	8	0.013327	60	10	60-180	60	98	GapExp	0	185	2	1	1	target	1	655	673	114056	13.328	13.106	13.565
TrackDT01	4	TrackDT	1.0	SCS215a	20120419.141447	20120419.143416	dt-shadow	8	0.013327	60	10	60-180	60	88	GapExp	0	186	2	1	0	distractor	1	680	660	114716	13.327	13.101	13.553
TrackDT01	4	TrackDT	1.0	SCS215a	20120419.141447	20120419.143421	dt-shadow	8	0.013327	60	10	60-180	60	104	GapExp	0	187	2	1	0	distractor	1	667	667	115383	13.328	12.899	13.759
TrackDT01	4	TrackDT	1.0	SCS215a	20120419.141447	20120419.143427	dt-shadow	8	0.013327	60	10	60-180	60	116	GapExp	0	188	2	0	1	target	1	878	561	115944	13.328	12.947	13.715
TrackDT01	4	TrackDT	1.0	SCS215a	20120419.141447	20120419.143433	dt-shadow	8	0.013327	60	10	60-180	60	82	GapExp	0	189	2	0	1	target	1	581	710	116654	13.328	12.905	13.744
TrackDT01	4	TrackDT	1.0	SCS215a	20120419.141447	20120419.143439	dt-shadow	8	0.013327	60	10	60-180	60	173	GapExp	0	190	2	30	0	target	0	551	-1000	115654	13.328	12.923	13.728
TrackDT01	4	TrackDT	1.0	SCS215a	20120419.141447	20120419.143445	dt-shadow	8	0.013327	60	10	60-180	60	98	GapExp	0	191	2	30	1	target	1	538	731	116385	13.328	13.100	13.558
TrackDT01	4	TrackDT	1.0	SCS215a	20120419.141447	20120419.143451	dt-shadow	8	0.013327	60	10	60-180	60	79	GapExp	0	192	2	0	0	target	0	5588	-1000	115385	13.388	13.118	26.647
TrackDT01	4	TrackDT	1.0	SCS215a	20120419.141447	20120419.143502	dt-shadow	8	0.013327	60	10	60-180	60	66	GapExp	0	193	2	0	0	distractor	1	761	620	116005	13.328	13.307	13.347
TrackDT01	4	TrackDT	1.0	SCS215a	20120419.141447	20120419.143507	dt-shadow	8	0.013327	60	10	60-180	60	76	GapExp	0	194	2	3	0	distractor	1	891	555	116560	13.328	12.885	13.787
TrackDT01	4	TrackDT	1.0	SCS215a	20120419.141447	20120419.143512	dt-shadow	8	0.013327	60	10	60-180	60	165	GapExp	0	195	2	1	1	target	1	467	767	117327	13.328	12.869	13.789
TrackDT01	4	TrackDT	1.0	SCS215a	20120419.141447	20120419.143519	dt-shadow	8	0.013327	60	10	60-180	60	122	GapExp	0	196	2	0	1	target	1	481	760	118087	13.328	12.846	13.801
TrackDT01	4	TrackDT	1.0	SCS215a	20120419.141447	20120419.143524	dt-shadow	8	0.013327	60	10	60-180	60	173	GapExp	0	197	2	3	0	distractor	1	559	721	118808	13.328	12.859	13.797
TrackDT01	4	TrackDT	1.0	SCS215a	20120419.141447	20120419.143531	dt-shadow	8	0.013327	60	10	60-180	60	155	GapExp	0	198	2	3	1	target	1	622	689	119497	13.328	12.878	13.793
TrackDT01	4	TrackDT	1.0	SCS215a	20120419.141447	20120419.143537	dt-shadow	8	0.013327	60	10	60-180	60	169	GapExp	0	199	2	1	0	distractor	1	502	749	120246	13.328	12.894	13.761
TrackDT01	4	TrackDT	1.0	SCS215a	20120419.141447	20120419.143544	dt-shadow	8	0.013327	60	10	60-180	60	115	GapExp	0	200	2	0	0	distractor	1	534	733	120979	13.328	12.892	13.765
TrackDT01	4	TrackDT	1.0	SCS215a	20120419.143626	20120419.143632	dt-generate	8	0.013328	60	10	60-180	60	93	GapPrac	1	1	2	0	0	distractor	1	2289	0	120979	13.328	12.963	13.696
TrackDT01	4	TrackDT	1.0	SCS215a	20120419.143626	20120419.143640	dt-generate	8	0.013328	60	10	60-180	60	75	GapPrac	1	2	2	3	0	target	0	1647	-1000	119979	13.328	13.140	13.503
TrackDT01	4	TrackDT	1.0	SCS215a	20120419.143626	20120419.143646	dt-generate	8	0.013328	60	10	60-180	60	130	GapPrac	1	3	2	1	1	distractor	0	703	-1000	118979	13.328	12.935	13.708
TrackDT01	4	TrackDT	1.0	SCS215a	20120419.143626	20120419.143652	dt-generate	8	0.013328	60	10	60-180	60	158	GapPrac	1	4	2	1	0	early	-4	-226	-1000	117979	13.328	13.306	13.348
TrackDT01	4	TrackDT	1.0	SCS215a	20120419.143626	20120419.143703	dt-generate	8	0.013328	60	10	60-180	60	111	GapPrac	1	5	2	1	1	target	1	871	565	118544	13.328	13.111	13.546
TrackDT01	4	TrackDT	1.0	SCS215a	20120419.143626	20120419.143709	dt-generate	8	0.013328	60	10	60-180	60	142	GapPrac	1	6	2	0	0	distractor	1	1118	441	118985	13.328	13.311	13.345
TrackDT01	4	TrackDT	1.0	SCS215a	20120419.143626	20120419.143716	dt-generate	8	0.013328	60	10	60-180	60	164	GapPrac	1	7	2	1	1	target	1	8867	0	118985	13.328	12.844	13.807
TrackDT01	4	TrackDT	1.0	SCS215a	20120419.143626	20120419.143730	dt-generate	8	0.013328	60	10	60-180	60	86	GapPrac	1	8	2	3	0	distractor	1	990	505	119490	13.328	13.308	13.349
TrackDT01	4	TrackDT	1.0	SCS215a	20120419.143626	20120419.143736	dt-generate	8	0.013328	60	10	60-180	60	70	GapPrac	1	9	2	1	0	distractor	1	1031	485	119975	13.328	13.311	13.346
TrackDT01	4	TrackDT	1.0	SCS215a	20120419.143626	20120419.143741	dt-generate	8	0.013328	60	10	60-180	60	102	GapPrac	1	10	2	0	1	target	1	818	591	120566	13.328	12.923	13.734
TrackDT01	4	TrackDT	1.0	SCS215a	20120419.143626	20120419.143748	dt-generate	8	0.013328	60	10	60-180	60	131	GapPrac	1	11	2	30	0	distractor	1	2376	0	120566	13.328	12.862	13.801
TrackDT01	4	TrackDT	1.0	SCS215a	20120419.143626	20120419.143756	dt-generate	8	0.013328	60	10	60-180	60	158	GapPrac	1	12	2	1	0	distractor	1	1000	500	121066	13.328	12.922	13.739
TrackDT01	4	TrackDT	1.0	SCS215a	20120419.143626	20120419.143802	dt-generate	8	0.013328	60	10	60-180	60	112	GapPrac	1	13	2	0	1	target	1	1208	396	121462	13.328	13.304	13.353
TrackDT01	4	TrackDT	1.0	SCS215a	20120419.143626	20120419.143809	dt-generate	8	0.013328	60	10	60-180	60	139	GapPrac	1	14	2	30	1	target	1	7830	0	121462	13.328	13.105	13.551
TrackDT01	4	TrackDT	1.0	SCS215a	20120419.143626	20120419.143823	dt-generate	8	0.013328	60	10	60-180	60	101	GapPrac	1	15	2	3	0	distractor	1	1226	387	121849	13.328	13.100	13.557
TrackDT01	4	TrackDT	1.0	SCS215a	20120419.143626	20120419.143829	dt-generate	8	0.013328	60	10	60-180	60	95	GapPrac	1	16	2	3	1	distractor	0	1096	-1000	120849	13.328	13.308	13.345
TrackDT01	4	TrackDT	1.0	SCS215a	20120419.143626	20120419.143835	dt-generate	8	0.013328	60	10	60-180	60	115	GapPrac	1	17	2	30	1	target	1	3924	0	120849	13.328	13.109	13.553
TrackDT01	4	TrackDT	1.0	SCS215a	20120419.143626	20120419.143844	dt-generate	8	0.013328	60	10	60-180	60	86	GapPrac	1	18	2	3	1	target	1	3244	0	120849	13.328	13.112	13.559
TrackDT01	4	TrackDT	1.0	SCS215a	20120419.143626	20120419.143852	dt-generate	8	0.013328	60	10	60-180	60	174	GapPrac	1	19	2	30	0	distractor	1	633	684	121533	13.328	12.905	13.760
TrackDT01	4	TrackDT	1.0	SCS215a	20120419.143626	20120419.143859	dt-generate	8	0.013328	60	10	60-180	60	157	GapPrac	1	20	2	0	0	distractor	1	700	650	122183	13.328	12.877	13.787
TrackDT01	4	TrackDT	1.0	SCS215a	20120419.143931	20120419.143937	dt-generate	8	0.013328	60	10	60-180	60	118	GapExp	1	1	2	1	1	target	1	834	583	122766	13.328	5.055	21.601
TrackDT01	4	TrackDT	1.0	SCS215a	20120419.143931	20120419.143944	dt-generate	8	0.013328	60	10	60-180	60	113	GapExp	1	2	2	1	0	distractor	1	719	641	123407	13.328	13.110	13.553
TrackDT01	4	TrackDT	1.0	SCS215a	20120419.143931	20120419.143950	dt-generate	8	0.013328	60	10	60-180	60	133	GapExp	1	3	2	3	0	distractor	1	1450	275	123682	13.328	13.309	13.350
TrackDT01	4	TrackDT	1.0	SCS215a	20120419.143931	20120419.143957	dt-generate	8	0.013328	60	10	60-180	60	65	GapExp	1	4	2	30	0	distractor	1	746	627	124309	13.328	10.839	15.817
TrackDT01	4	TrackDT	1.0	SCS215a	20120419.143931	20120419.144002	dt-generate	8	0.013328	60	10	60-180	60	73	GapExp	1	5	2	30	1	distractor	0	1657	-1000	123309	13.328	13.230	13.420
TrackDT01	4	TrackDT	1.0	SCS215a	20120419.143931	20120419.144009	dt-generate	8	0.013328	60	10	60-180	60	127	GapExp	1	6	2	0	0	target	0	842	-1000	122309	13.328	11.801	14.864
TrackDT01	4	TrackDT	1.0	SCS215a	20120419.143931	20120419.144015	dt-generate	8	0.013328	60	10	60-180	60	128	GapExp	1	7	2	0	1	target	1	610	695	123004	13.328	13.099	13.557
TrackDT01	4	TrackDT	1.0	SCS215a	20120419.143931	20120419.144021	dt-generate	8	0.013328	60	10	60-180	60	123	GapExp	1	8	2	3	1	distractor	0	4727	-1000	122004	13.328	9.529	17.132
TrackDT01	4	TrackDT	1.0	SCS215a	20120419.143931	20120419.144031	dt-generate	8	0.013328	60	10	60-180	60	130	GapExp	0	9	2	0	0	distractor	1	1978	11	122015	13.328	13.303	13.346
TrackDT01	4	TrackDT	1.0	SCS215a	20120419.143931	20120419.144038	dt-generate	8	0.013328	60	10	60-180	60	92	GapExp	0	10	2	1	0	distractor	1	4538	0	122015	13.328	11.707	14.949
TrackDT01	4	TrackDT	1.0	SCS215a	20120419.143931	20120419.144048	dt-generate	8	0.013328	60	10	60-180	60	65	GapExp	0	11	2	1	1	distractor	0	1713	-1000	121015	13.328	13.091	13.551
TrackDT01	4	TrackDT	1.0	SCS215a	20120419.143931	20120419.144054	dt-generate	8	0.013328	60	10	60-180	60	176	GapExp	0	12	2	0	0	distractor	1	665	668	121683	13.328	12.791	13.859
TrackDT01	4	TrackDT	1.0	SCS215a	20120419.143931	20120419.144100	dt-generate	8	0.013328	60	10	60-180	60	110	GapExp	0	13	2	30	1	distractor	0	225	-1000	120683	13.328	8.316	18.325
TrackDT01	4	TrackDT	1.0	SCS215a	20120419.143931	20120419.144106	dt-generate	8	0.013328	60	10	60-180	60	71	GapExp	0	14	2	30	0	target	0	937	-1000	119683	13.328	4.386	22.258
TrackDT01	4	TrackDT	1.0	SCS215a	20120419.143931	20120419.144112	dt-generate	8	0.013328	60	10	60-180	60	86	GapExp	0	15	2	1	1	target	1	6195	0	119683	13.328	13.297	13.358
TrackDT01	4	TrackDT	1.0	SCS215a	20120419.143931	20120419.144123	dt-generate	8	0.013328	60	10	60-180	60	101	GapExp	0	16	2	3	1	target	1	574	713	120396	13.328	7.031	19.640
TrackDT01	4	TrackDT	1.0	SCS215a	20120419.143931	20120419.144129	dt-generate	8	0.013328	60	10	60-180	60	125	GapExp	0	17	2	3	0	distractor	1	717	642	121038	13.328	13.286	13.371
TrackDT01	4	TrackDT	1.0	SCS215a	20120419.143931	20120419.144134	dt-generate	8	0.013328	60	10	60-180	60	90	GapExp	0	18	2	1	0	distractor	1	352	824	121862	13.328	6.120	20.537
TrackDT01	4	TrackDT	1.0	SCS215a	20120419.143931	20120419.144139	dt-generate	8	0.013328	60	10	60-180	60	67	GapExp	0	19	2	0	1	target	1	2689	0	121862	13.328	12.973	13.676
TrackDT01	4	TrackDT	1.0	SCS215a	20120419.143931	20120419.144147	dt-generate	8	0.013328	60	10	60-180	60	124	GapExp	0	20	2	0	0	target	0	2331	-1000	120862	13.328	13.275	13.380
TrackDT01	4	TrackDT	1.0	SCS215a	20120419.143931	20120419.144155	dt-generate	8	0.013328	60	10	60-180	60	113	GapExp	0	21	2	1	1	distractor	0	2844	-1000	119862	13.328	8.267	18.387
TrackDT01	4	TrackDT	1.0	SCS215a	20120419.143931	20120419.144202	dt-generate	8	0.013328	60	10	60-180	60	131	GapExp	0	22	2	30	1	target	1	779	611	120473	13.328	13.302	13.357
TrackDT01	4	TrackDT	1.0	SCS215a	20120419.143931	20120419.144209	dt-generate	8	0.013328	60	10	60-180	60	61	GapExp	0	23	2	3	1	distractor	0	1185	-1000	119473	13.328	8.999	17.658
TrackDT01	4	TrackDT	1.0	SCS215a	20120419.143931	20120419.144215	dt-generate	8	0.013328	60	10	60-180	60	129	GapExp	0	24	2	0	0	distractor	1	1122	439	119912	13.328	4.671	21.993
TrackDT01	4	TrackDT	1.0	SCS215a	20120419.143931	20120419.144221	dt-generate	8	0.013328	60	10	60-180	60	103	GapExp	0	25	2	30	1	distractor	0	3338	-1000	118912	13.328	13.302	13.354
TrackDT01	4	TrackDT	1.0	SCS215a	20120419.143931	20120419.144230	dt-generate	8	0.013328	60	10	60-180	60	81	GapExp	0	26	2	30	0	distractor	1	1135	433	119345	13.328	13.301	13.351
TrackDT01	4	TrackDT	1.0	SCS215a	20120419.143931	20120419.144236	dt-generate	8	0.013328	60	10	60-180	60	89	GapExp	0	27	2	0	1	distractor	0	4572	-1000	118345	13.328	11.125	15.537
TrackDT01	4	TrackDT	1.0	SCS215a	20120419.143931	20120419.144245	dt-generate	8	0.013328	60	10	60-180	60	97	GapExp	0	28	2	0	0	target	0	1534	-1000	117345	13.328	10.434	16.221
TrackDT01	4	TrackDT	1.0	SCS215a	20120419.143931	20120419.144252	dt-generate	8	0.013328	60	10	60-180	60	136	GapExp	0	29	2	30	0	distractor	1	715	643	117988	13.328	10.342	16.316
TrackDT01	4	TrackDT	1.0	SCS215a	20120419.143931	20120419.144258	dt-generate	8	0.013328	60	10	60-180	60	136	GapExp	0	30	2	30	0	target	0	3366	-1000	116988	13.328	12.039	14.658
TrackDT01	4	TrackDT	1.0	SCS215a	20120419.143931	20120419.144308	dt-generate	8	0.013328	60	10	60-180	60	138	GapExp	0	31	2	0	1	distractor	0	1046	-1000	115988	13.328	7.809	18.847
TrackDT01	4	TrackDT	1.0	SCS215a	20120419.143931	20120419.144314	dt-generate	8	0.013328	60	10	60-180	60	145	GapExp	0	32	2	3	1	target	1	930	535	116523	13.328	10.386	16.272
TrackDT01	4	TrackDT	1.0	SCS215a	20120419.143931	20120419.144320	dt-generate	8	0.013328	60	10	60-180	60	64	GapExp	0	33	2	1	0	distractor	1	1601	200	116723	13.328	11.499	15.163
TrackDT01	4	TrackDT	1.0	SCS215a	20120419.143931	20120419.144326	dt-generate	8	0.013328	60	10	60-180	60	116	GapExp	0	34	2	1	1	distractor	0	1263	-1000	115723	13.328	11.992	14.674
TrackDT01	4	TrackDT	1.0	SCS215a	20120419.143931	20120419.144333	dt-generate	8	0.013328	60	10	60-180	60	141	GapExp	0	35	2	1	0	target	0	1461	-1000	114723	13.328	9.929	16.747
TrackDT01	4	TrackDT	1.0	SCS215a	20120419.143931	20120419.144340	dt-generate	8	0.013328	60	10	60-180	60	94	GapExp	0	36	2	0	1	target	1	745	628	115351	13.328	11.838	14.812
TrackDT01	4	TrackDT	1.0	SCS215a	20120419.143931	20120419.144346	dt-generate	8	0.013328	60	10	60-180	60	71	GapExp	0	37	2	1	0	distractor	1	518	741	116092	13.328	12.584	14.066
TrackDT01	4	TrackDT	1.0	SCS215a	20120419.143931	20120419.144350	dt-generate	8	0.013328	60	10	60-180	60	123	GapExp	0	38	2	30	0	target	0	1683	-1000	115092	13.328	9.991	16.667
TrackDT01	4	TrackDT	1.0	SCS215a	20120419.143931	20120419.144358	dt-generate	8	0.013328	60	10	60-180	60	91	GapExp	0	39	2	1	0	distractor	1	4402	0	115092	13.328	11.989	14.660
TrackDT01	4	TrackDT	1.0	SCS215a	20120419.143931	20120419.144407	dt-generate	8	0.013328	60	10	60-180	60	78	GapExp	0	40	2	30	1	target	1	588	706	115798	13.328	13.307	13.363
TrackDT01	4	TrackDT	1.0	SCS215a	20120419.143931	20120419.144413	dt-generate	8	0.013328	60	10	60-180	60	149	GapExp	0	41	2	30	0	distractor	1	4001	0	115798	13.328	7.380	19.287
TrackDT01	4	TrackDT	1.0	SCS215a	20120419.143931	20120419.144423	dt-generate	8	0.013328	60	10	60-180	60	175	GapExp	0	42	2	3	1	target	1	2173	0	115798	13.328	11.407	15.291
TrackDT01	4	TrackDT	1.0	SCS215a	20120419.143931	20120419.144431	dt-generate	8	0.013328	60	10	60-180	60	122	GapExp	0	43	2	1	0	distractor	1	3127	0	115798	13.328	13.307	13.347
TrackDT01	4	TrackDT	1.0	SCS215a	20120419.143931	20120419.144439	dt-generate	8	0.013328	60	10	60-180	60	152	GapExp	0	44	2	3	1	distractor	0	2461	-1000	114798	13.328	5.656	21.013
TrackDT01	4	TrackDT	1.0	SCS215a	20120419.143931	20120419.144448	dt-generate	8	0.013328	60	10	60-180	60	66	GapExp	0	45	2	0	0	distractor	1	685	658	115456	13.328	13.099	13.557
TrackDT01	4	TrackDT	1.0	SCS215a	20120419.143931	20120419.144453	dt-generate	8	0.013328	60	10	60-180	60	74	GapExp	0	46	2	30	1	target	1	2481	0	115456	13.328	9.765	16.892
TrackDT01	4	TrackDT	1.0	SCS215a	20120419.143931	20120419.144500	dt-generate	8	0.013328	60	10	60-180	60	143	GapExp	0	47	2	1	0	distractor	1	570	715	116171	13.328	11.957	14.694
TrackDT01	4	TrackDT	1.0	SCS215a	20120419.143931	20120419.144506	dt-generate	8	0.013328	60	10	60-180	60	78	GapExp	0	48	2	3	1	target	1	1098	451	116622	13.328	7.348	19.321
TrackDT01	4	TrackDT	1.0	SCS215a	20120419.143931	20120419.144512	dt-generate	8	0.013328	60	10	60-180	60	103	GapExp	0	49	2	3	0	distractor	1	563	719	117341	13.328	13.208	13.448
TrackDT01	4	TrackDT	1.0	SCS215a	20120419.143931	20120419.144517	dt-generate	8	0.013328	60	10	60-180	60	136	GapExp	0	50	2	1	0	target	0	1232	-1000	116341	13.328	13.295	13.367
TrackDT01	4	TrackDT	1.0	SCS215a	20120419.143931	20120419.144536	dt-generate	8	0.013328	60	10	60-180	60	99	GapExp	0	51	2	30	0	early	-4	-3662	-1000	115341	13.328	12.975	13.681
TrackDT01	4	TrackDT	1.0	SCS215a	20120419.143931	20120419.144542	dt-generate	8	0.013328	60	10	60-180	60	144	GapExp	0	52	2	0	0	distractor	1	7168	0	115341	13.328	9.733	16.943
TrackDT01	4	TrackDT	1.0	SCS215a	20120419.143931	20120419.144554	dt-generate	8	0.013328	60	10	60-180	60	76	GapExp	0	53	2	3	0	target	0	1853	-1000	114341	13.328	13.296	13.353
TrackDT01	4	TrackDT	1.0	SCS215a	20120419.143931	20120419.144601	dt-generate	8	0.013328	60	10	60-180	60	162	GapExp	0	54	2	1	1	distractor	0	546	-1000	113341	13.328	6.566	20.091
TrackDT01	4	TrackDT	1.0	SCS215a	20120419.143931	20120419.144607	dt-generate	8	0.013328	60	10	60-180	60	113	GapExp	0	55	2	30	0	distractor	1	539	731	114072	13.328	12.636	14.030
TrackDT01	4	TrackDT	1.0	SCS215a	20120419.143931	20120419.144613	dt-generate	8	0.013328	60	10	60-180	60	82	GapExp	0	56	2	30	0	distractor	1	2262	0	114072	13.329	11.458	15.244
TrackDT01	4	TrackDT	1.0	SCS215a	20120419.143931	20120419.144620	dt-generate	8	0.013328	60	10	60-180	60	96	GapExp	0	57	2	3	1	distractor	0	2282	-1000	113072	13.328	9.176	17.496
TrackDT01	4	TrackDT	1.0	SCS215a	20120419.143931	20120419.144627	dt-generate	8	0.013328	60	10	60-180	60	88	GapExp	0	58	2	3	0	target	0	1690	-1000	112072	13.328	13.198	13.460
TrackDT01	4	TrackDT	1.0	SCS215a	20120419.143931	20120419.144634	dt-generate	8	0.013328	60	10	60-180	60	66	GapExp	0	59	2	1	1	distractor	0	1491	-1000	111072	13.328	8.869	17.795
TrackDT01	4	TrackDT	1.0	SCS215a	20120419.143931	20120419.144640	dt-generate	8	0.013328	60	10	60-180	60	174	GapExp	0	60	2	30	0	distractor	1	1308	346	111418	13.328	13.099	13.558
TrackDT01	4	TrackDT	1.0	SCS215a	20120419.143931	20120419.144647	dt-generate	8	0.013328	60	10	60-180	60	67	GapExp	0	61	2	3	0	distractor	1	1084	458	111876	13.328	13.107	13.504
TrackDT01	4	TrackDT	1.0	SCS215a	20120419.143931	20120419.144653	dt-generate	8	0.013328	60	10	60-180	60	119	GapExp	0	62	2	0	0	distractor	1	1881	60	111936	13.328	11.408	15.267
TrackDT01	4	TrackDT	1.0	SCS215a	20120419.143931	20120419.144700	dt-generate	8	0.013328	60	10	60-180	60	167	GapExp	0	63	2	3	0	distractor	1	510	745	112681	13.328	12.810	13.857
TrackDT01	4	TrackDT	1.0	SCS215a	20120419.143931	20120419.144707	dt-generate	8	0.013328	60	10	60-180	60	71	GapExp	0	64	2	0	1	distractor	0	589	-1000	111681	13.328	9.243	17.426
TrackDT01	4	TrackDT	1.0	SCS215a	20120419.143931	20120419.144712	dt-generate	8	0.013328	60	10	60-180	60	118	GapExp	0	65	2	30	0	distractor	1	849	576	112257	13.328	13.110	13.552
TrackDT01	4	TrackDT	1.0	SCS215a	20120419.143931	20120419.144718	dt-generate	8	0.013328	60	10	60-180	60	101	GapExp	0	66	2	1	0	distractor	1	1083	459	112716	13.328	13.309	13.348
TrackDT01	4	TrackDT	1.0	SCS215a	20120419.143931	20120419.144724	dt-generate	8	0.013328	60	10	60-180	60	163	GapExp	0	67	2	0	1	target	1	738	631	113347	13.328	13.307	13.347
TrackDT01	4	TrackDT	1.0	SCS215a	20120419.143931	20120419.144730	dt-generate	8	0.013328	60	10	60-180	60	83	GapExp	0	68	2	0	0	distractor	1	1604	198	113545	13.328	12.164	14.493
TrackDT01	4	TrackDT	1.0	SCS215a	20120419.143931	20120419.144737	dt-generate	8	0.013328	60	10	60-180	60	171	GapExp	0	69	2	1	0	distractor	1	2816	0	113545	13.328	9.801	16.867
TrackDT01	4	TrackDT	1.0	SCS215a	20120419.143931	20120419.144745	dt-generate	8	0.013328	60	10	60-180	60	77	GapExp	0	70	2	30	1	target	1	2361	0	113545	13.328	9.499	17.177
TrackDT01	4	TrackDT	1.0	SCS215a	20120419.143931	20120419.144753	dt-generate	8	0.013328	60	10	60-180	60	112	GapExp	0	71	2	3	0	distractor	1	647	677	114222	13.328	13.307	13.355
TrackDT01	4	TrackDT	1.0	SCS215a	20120419.143931	20120419.144758	dt-generate	8	0.013328	60	10	60-180	60	104	GapExp	0	72	2	30	1	distractor	0	1072	-1000	113222	13.328	13.302	13.348
TrackDT01	4	TrackDT	1.0	SCS215a	20120419.143931	20120419.144805	dt-generate	8	0.013328	60	10	60-180	60	144	GapExp	0	73	2	30	0	distractor	1	1542	229	113451	13.328	11.217	15.445
TrackDT01	4	TrackDT	1.0	SCS215a	20120419.143931	20120419.144813	dt-generate	8	0.013328	60	10	60-180	60	118	GapExp	0	74	2	0	1	distractor	0	797	-1000	112451	13.328	8.697	17.958
TrackDT01	4	TrackDT	1.0	SCS215a	20120419.143931	20120419.144819	dt-generate	8	0.013328	60	10	60-180	60	111	GapExp	0	75	2	30	0	distractor	1	1510	245	112696	13.328	11.731	14.931
TrackDT01	4	TrackDT	1.0	SCS215a	20120419.143931	20120419.144825	dt-generate	8	0.013328	60	10	60-180	60	107	GapExp	0	76	2	30	1	target	1	1975	13	112709	13.328	7.695	18.979
TrackDT01	4	TrackDT	1.0	SCS215a	20120419.143931	20120419.144833	dt-generate	8	0.013328	60	10	60-180	60	91	GapExp	0	77	2	1	1	distractor	0	566	-1000	111709	13.328	9.288	17.369
TrackDT01	4	TrackDT	1.0	SCS215a	20120419.143931	20120419.144838	dt-generate	8	0.013328	60	10	60-180	60	99	GapExp	0	78	2	3	1	distractor	0	1275	-1000	110709	13.328	13.097	13.552
TrackDT01	4	TrackDT	1.0	SCS215a	20120419.143931	20120419.144845	dt-generate	8	0.013328	60	10	60-180	60	75	GapExp	0	79	2	0	0	distractor	1	762	619	111328	13.328	8.421	18.239
TrackDT01	4	TrackDT	1.0	SCS215a	20120419.143931	20120419.144850	dt-generate	8	0.013328	60	10	60-180	60	161	GapExp	0	80	2	30	1	distractor	0	3630	-1000	110328	13.328	7.501	18.933
TrackDT01	4	TrackDT	1.0	SCS215a	20120419.143931	20120419.144859	dt-generate	8	0.013328	60	10	60-180	60	118	GapExp	0	81	2	1	1	target	1	1784	108	110436	13.328	13.306	13.350
TrackDT01	4	TrackDT	1.0	SCS215a	20120419.143931	20120419.144906	dt-generate	8	0.013328	60	10	60-180	60	61	GapExp	0	82	2	0	0	distractor	1	515	743	111179	13.328	13.105	13.560
TrackDT01	4	TrackDT	1.0	SCS215a	20120419.143931	20120419.144911	dt-generate	8	0.013328	60	10	60-180	60	123	GapExp	0	83	2	1	1	distractor	0	7436	-1000	110179	13.328	13.094	13.564
TrackDT01	4	TrackDT	1.0	SCS215a	20120419.143931	20120419.144924	dt-generate	8	0.013328	60	10	60-180	60	87	GapExp	0	84	2	0	0	distractor	1	714	643	110822	13.328	12.091	14.570
TrackDT01	4	TrackDT	1.0	SCS215a	20120419.143931	20120419.144930	dt-generate	8	0.013328	60	10	60-180	60	154	GapExp	0	85	2	0	0	distractor	1	615	693	111515	13.328	13.278	13.386
TrackDT01	4	TrackDT	1.0	SCS215a	20120419.143931	20120419.144936	dt-generate	8	0.013328	60	10	60-180	60	129	GapExp	0	86	2	0	0	target	0	1040	-1000	110515	13.328	10.245	16.413
TrackDT01	4	TrackDT	1.0	SCS215a	20120419.143931	20120419.144942	dt-generate	8	0.013328	60	10	60-180	60	132	GapExp	0	87	2	30	1	distractor	0	785	-1000	109515	13.328	13.079	13.581
TrackDT01	4	TrackDT	1.0	SCS215a	20120419.143931	20120419.144949	dt-generate	8	0.013328	60	10	60-180	60	140	GapExp	0	88	2	0	1	distractor	0	993	-1000	108515	13.328	6.730	19.934
TrackDT01	4	TrackDT	1.0	SCS215a	20120419.143931	20120419.144955	dt-generate	8	0.013328	60	10	60-180	60	142	GapExp	0	89	2	3	0	distractor	1	1598	201	108716	13.328	13.092	13.572
TrackDT01	4	TrackDT	1.0	SCS215a	20120419.143931	20120419.145003	dt-generate	8	0.013328	60	10	60-180	60	84	GapExp	0	90	2	1	0	target	0	2468	-1000	107716	13.386	12.053	28.001
TrackDT01	4	TrackDT	1.0	SCS215a	20120419.143931	20120419.145010	dt-generate	8	0.013328	60	10	60-180	60	147	GapExp	0	91	2	1	1	distractor	0	1387	-1000	106716	13.328	10.432	16.224
TrackDT01	4	TrackDT	1.0	SCS215a	20120419.143931	20120419.145017	dt-generate	8	0.013328	60	10	60-180	60	160	GapExp	0	92	2	1	1	target	1	730	635	107351	13.328	12.565	14.105
TrackDT01	4	TrackDT	1.0	SCS215a	20120419.143931	20120419.145023	dt-generate	8	0.013328	60	10	60-180	60	151	GapExp	0	93	2	3	1	target	1	1896	52	107403	13.328	11.909	14.747
TrackDT01	4	TrackDT	1.0	SCS215a	20120419.143931	20120419.145031	dt-generate	8	0.013328	60	10	60-180	60	168	GapExp	0	94	2	3	0	distractor	1	492	754	108157	13.328	13.097	13.553
TrackDT01	4	TrackDT	1.0	SCS215a	20120419.143931	20120419.145037	dt-generate	8	0.013328	60	10	60-180	60	129	GapExp	0	95	2	30	0	target	0	1944	-1000	107157	13.328	13.308	13.347
TrackDT01	4	TrackDT	1.0	SCS215a	20120419.143931	20120419.145045	dt-generate	8	0.013328	60	10	60-180	60	61	GapExp	0	96	2	1	0	distractor	1	1493	254	107411	13.328	13.098	13.552
TrackDT01	4	TrackDT	1.0	SCS215a	20120419.143931	20120419.145051	dt-generate	8	0.013328	60	10	60-180	60	106	GapExp	0	97	2	0	0	distractor	1	2021	0	107411	13.328	13.103	13.554
TrackDT01	4	TrackDT	1.0	SCS215a	20120419.143931	20120419.145058	dt-generate	8	0.013328	60	10	60-180	60	97	GapExp	0	98	2	1	1	distractor	0	2101	-1000	106411	13.328	7.555	19.101
TrackDT01	4	TrackDT	1.0	SCS215a	20120419.143931	20120419.145105	dt-generate	8	0.013328	60	10	60-180	60	104	GapExp	0	99	2	0	1	target	1	616	692	107103	13.328	13.113	13.544
TrackDT01	4	TrackDT	1.0	SCS215a	20120419.143931	20120419.145111	dt-generate	8	0.013328	60	10	60-180	60	164	GapExp	0	100	2	1	1	target	1	1489	256	107359	13.328	10.434	16.219
TrackDT01	4	TrackDT	1.0	SCS215a	20120419.143931	20120419.145154	dt-generate	8	0.013328	60	10	60-180	60	77	GapExp	0	101	2	3	0	early	-4	-3000	-1000	106359	13.328	12.668	13.973
TrackDT01	4	TrackDT	1.0	SCS215a	20120419.143931	20120419.145200	dt-generate	8	0.013328	60	10	60-180	60	93	GapExp	0	102	2	30	0	distractor	1	608	696	107055	13.328	13.092	13.564
TrackDT01	4	TrackDT	1.0	SCS215a	20120419.143931	20120419.145205	dt-generate	8	0.013328	60	10	60-180	60	104	GapExp	0	103	2	1	0	distractor	1	1063	469	107524	13.328	4.529	22.127
TrackDT01	4	TrackDT	1.0	SCS215a	20120419.143931	20120419.145211	dt-generate	8	0.013328	60	10	60-180	60	155	GapExp	0	104	2	30	1	target	1	839	581	108105	13.328	12.886	13.755
TrackDT01	4	TrackDT	1.0	SCS215a	20120419.143931	20120419.145218	dt-generate	8	0.013328	60	10	60-180	60	177	GapExp	0	105	2	30	1	early	-4	-1618	-1000	107105	13.328	8.307	18.341
TrackDT01	4	TrackDT	1.0	SCS215a	20120419.143931	20120419.145226	dt-generate	8	0.013328	60	10	60-180	60	147	GapExp	0	106	2	0	1	target	1	642	679	107784	13.328	13.310	13.348
TrackDT01	4	TrackDT	1.0	SCS215a	20120419.143931	20120419.145232	dt-generate	8	0.013328	60	10	60-180	60	66	GapExp	0	107	2	1	0	distractor	1	1106	447	108231	13.328	13.224	13.412
TrackDT01	4	TrackDT	1.0	SCS215a	20120419.143931	20120419.145238	dt-generate	8	0.013328	60	10	60-180	60	148	GapExp	0	108	2	30	0	distractor	1	708	646	108877	13.328	13.111	13.539
TrackDT01	4	TrackDT	1.0	SCS215a	20120419.143931	20120419.145244	dt-generate	8	0.013328	60	10	60-180	60	81	GapExp	0	109	2	1	1	target	1	1151	425	109302	13.328	13.013	13.643
TrackDT01	4	TrackDT	1.0	SCS215a	20120419.143931	20120419.145250	dt-generate	8	0.013328	60	10	60-180	60	62	GapExp	0	110	2	0	0	distractor	1	1072	464	109766	13.328	13.308	13.347
TrackDT01	4	TrackDT	1.0	SCS215a	20120419.143931	20120419.145255	dt-generate	8	0.013328	60	10	60-180	60	74	GapExp	0	111	2	3	1	distractor	0	2328	-1000	108766	13.328	13.301	13.345
TrackDT01	4	TrackDT	1.0	SCS215a	20120419.143931	20120419.145302	dt-generate	8	0.013328	60	10	60-180	60	99	GapExp	0	112	2	1	0	distractor	1	1204	398	109164	13.328	11.335	15.320
TrackDT01	4	TrackDT	1.0	SCS215a	20120419.143931	20120419.145308	dt-generate	8	0.013328	60	10	60-180	60	176	GapExp	0	113	2	0	1	target	1	1625	188	109352	13.328	3.505	23.148
TrackDT01	4	TrackDT	1.0	SCS215a	20120419.143931	20120419.145316	dt-generate	8	0.013328	60	10	60-180	60	164	GapExp	0	114	2	0	1	target	1	706	647	109999	13.328	6.674	19.990
TrackDT01	4	TrackDT	1.0	SCS215a	20120419.143931	20120419.145323	dt-generate	8	0.013328	60	10	60-180	60	137	GapExp	0	115	2	0	1	distractor	0	1274	-1000	108999	13.328	13.309	13.351
TrackDT01	4	TrackDT	1.0	SCS215a	20120419.143931	20120419.145329	dt-generate	8	0.013328	60	10	60-180	60	145	GapExp	0	116	2	0	0	target	0	1006	-1000	107999	13.328	10.273	16.403
TrackDT01	4	TrackDT	1.0	SCS215a	20120419.143931	20120419.145336	dt-generate	8	0.013328	60	10	60-180	60	67	GapExp	0	117	2	0	0	distractor	1	2774	0	107999	13.328	13.299	13.347
TrackDT01	4	TrackDT	1.0	SCS215a	20120419.143931	20120419.145343	dt-generate	8	0.013328	60	10	60-180	60	143	GapExp	0	118	2	0	1	target	1	1286	357	108356	13.328	9.549	17.106
TrackDT01	4	TrackDT	1.0	SCS215a	20120419.143931	20120419.145350	dt-generate	8	0.013328	60	10	60-180	60	127	GapExp	0	119	2	3	0	distractor	1	915	543	108899	13.328	13.295	13.360
TrackDT01	4	TrackDT	1.0	SCS215a	20120419.143931	20120419.145356	dt-generate	8	0.013328	60	10	60-180	60	74	GapExp	0	120	2	3	0	target	0	1911	-1000	107899	13.328	12.760	13.897
TrackDT01	4	TrackDT	1.0	SCS215a	20120419.143931	20120419.145403	dt-generate	8	0.013328	60	10	60-180	60	154	GapExp	0	121	2	3	1	target	1	651	675	108574	13.328	13.308	13.349
TrackDT01	4	TrackDT	1.0	SCS215a	20120419.143931	20120419.145409	dt-generate	8	0.013328	60	10	60-180	60	124	GapExp	0	122	2	0	0	distractor	1	1083	459	109033	13.328	13.309	13.347
TrackDT01	4	TrackDT	1.0	SCS215a	20120419.143931	20120419.145415	dt-generate	8	0.013328	60	10	60-180	60	107	GapExp	0	123	2	1	0	distractor	1	1028	486	109519	13.328	12.512	14.152
TrackDT01	4	TrackDT	1.0	SCS215a	20120419.143931	20120419.145421	dt-generate	8	0.013328	60	10	60-180	60	154	GapExp	0	124	2	3	0	distractor	1	1745	128	109647	13.328	13.099	13.560
TrackDT01	4	TrackDT	1.0	SCS215a	20120419.143931	20120419.145428	dt-generate	8	0.013328	60	10	60-180	60	157	GapExp	0	125	2	3	1	target	1	2488	0	109647	13.328	13.061	13.596
TrackDT01	4	TrackDT	1.0	SCS215a	20120419.143931	20120419.145437	dt-generate	8	0.013328	60	10	60-180	60	112	GapExp	0	126	2	3	0	distractor	1	877	562	110209	13.328	11.190	15.466
TrackDT01	4	TrackDT	1.0	SCS215a	20120419.143931	20120419.145443	dt-generate	8	0.013328	60	10	60-180	60	80	GapExp	0	127	2	3	0	distractor	1	2102	0	110209	13.328	10.997	15.679
TrackDT01	4	TrackDT	1.0	SCS215a	20120419.143931	20120419.145450	dt-generate	8	0.013328	60	10	60-180	60	135	GapExp	0	128	2	3	0	distractor	1	929	536	110745	13.328	3.311	23.353
TrackDT01	4	TrackDT	1.0	SCS215a	20120419.143931	20120419.145456	dt-generate	8	0.013328	60	10	60-180	60	157	GapExp	0	129	2	30	1	target	1	665	668	111413	13.328	13.091	13.558
TrackDT01	4	TrackDT	1.0	SCS215a	20120419.143931	20120419.145503	dt-generate	8	0.013328	60	10	60-180	60	97	GapExp	0	130	2	30	0	distractor	1	709	646	112059	13.328	13.303	13.349
TrackDT01	4	TrackDT	1.0	SCS215a	20120419.143931	20120419.145509	dt-generate	8	0.013328	60	10	60-180	60	155	GapExp	0	131	2	0	0	target	0	4528	-1000	111059	13.328	13.098	13.565
TrackDT01	4	TrackDT	1.0	SCS215a	20120419.143931	20120419.145519	dt-generate	8	0.013328	60	10	60-180	60	119	GapExp	0	132	2	1	0	target	0	1081	-1000	110059	13.328	11.868	14.773
TrackDT01	4	TrackDT	1.0	SCS215a	20120419.143931	20120419.145525	dt-generate	8	0.013328	60	10	60-180	60	68	GapExp	0	133	2	3	0	distractor	1	656	672	110731	13.328	13.307	13.349
TrackDT01	4	TrackDT	1.0	SCS215a	20120419.143931	20120419.145531	dt-generate	8	0.013328	60	10	60-180	60	99	GapExp	0	134	2	3	0	distractor	1	1800	100	110831	13.328	11.806	14.851
TrackDT01	4	TrackDT	1.0	SCS215a	20120419.143931	20120419.145537	dt-generate	8	0.013328	60	10	60-180	60	127	GapExp	0	135	2	30	1	target	1	719	641	111472	13.328	13.132	13.535
TrackDT01	4	TrackDT	1.0	SCS215a	20120419.143931	20120419.145544	dt-generate	8	0.013328	60	10	60-180	60	98	GapExp	0	136	2	3	1	target	1	1662	169	111641	13.328	11.641	15.017
TrackDT01	4	TrackDT	1.0	SCS215a	20120419.143931	20120419.145550	dt-generate	8	0.013328	60	10	60-180	60	120	GapExp	0	137	2	3	0	distractor	1	2347	0	111641	13.328	13.093	13.552
TrackDT01	4	TrackDT	1.0	SCS215a	20120419.143931	20120419.145558	dt-generate	8	0.013328	60	10	60-180	60	151	GapExp	0	138	2	30	1	target	1	1651	175	111816	13.328	7.262	19.392
TrackDT01	4	TrackDT	1.0	SCS215a	20120419.143931	20120419.145606	dt-generate	8	0.013328	60	10	60-180	60	84	GapExp	0	139	2	1	1	target	1	1190	405	112221	13.328	13.103	13.547
TrackDT01	4	TrackDT	1.0	SCS215a	20120419.143931	20120419.145612	dt-generate	8	0.013328	60	10	60-180	60	145	GapExp	0	140	2	1	0	distractor	1	463	769	112990	13.328	13.307	13.349
TrackDT01	4	TrackDT	1.0	SCS215a	20120419.143931	20120419.145618	dt-generate	8	0.013328	60	10	60-180	60	174	GapExp	0	141	2	0	1	target	1	681	660	113650	13.328	13.092	13.558
TrackDT01	4	TrackDT	1.0	SCS215a	20120419.143931	20120419.145624	dt-generate	8	0.013328	60	10	60-180	60	129	GapExp	0	142	2	3	1	target	1	2262	0	113650	13.328	13.307	13.348
TrackDT01	4	TrackDT	1.0	SCS215a	20120419.143931	20120419.145632	dt-generate	8	0.013328	60	10	60-180	60	107	GapExp	0	143	2	30	1	target	1	556	722	114372	13.328	8.073	18.578
TrackDT01	4	TrackDT	1.0	SCS215a	20120419.143931	20120419.145638	dt-generate	8	0.013328	60	10	60-180	60	87	GapExp	0	144	2	30	0	distractor	1	613	694	115066	13.328	13.306	13.350
TrackDT01	4	TrackDT	1.0	SCS215a	20120419.143931	20120419.145644	dt-generate	8	0.013328	60	10	60-180	60	173	GapExp	0	145	2	30	0	early	-4	-743	-1000	114066	13.328	12.611	14.052
TrackDT01	4	TrackDT	1.0	SCS215a	20120419.143931	20120419.145653	dt-generate	8	0.013328	60	10	60-180	60	137	GapExp	0	146	2	30	1	distractor	0	1889	-1000	113066	13.328	13.098	13.565
TrackDT01	4	TrackDT	1.0	SCS215a	20120419.143931	20120419.145700	dt-generate	8	0.013328	60	10	60-180	60	159	GapExp	0	147	2	3	0	target	0	2661	-1000	112066	13.328	13.112	13.551
TrackDT01	4	TrackDT	1.0	SCS215a	20120419.143931	20120419.145709	dt-generate	8	0.013328	60	10	60-180	60	159	GapExp	0	148	2	30	0	distractor	1	1399	301	112367	13.328	13.089	13.567
TrackDT01	4	TrackDT	1.0	SCS215a	20120419.143931	20120419.145717	dt-generate	8	0.013328	60	10	60-180	60	64	GapExp	0	149	2	1	0	target	0	2123	-1000	111367	13.328	9.180	17.490
TrackDT01	4	TrackDT	1.0	SCS215a	20120419.143931	20120419.145723	dt-generate	8	0.013328	60	10	60-180	60	130	GapExp	0	150	2	1	1	target	1	1158	421	111788	13.328	13.113	13.544
TrackDT01	4	TrackDT	1.0	SCS215a	20120419.143931	20120419.145758	dt-generate	8	0.013328	60	10	60-180	60	91	GapExp	0	151	2	1	0	distractor	1	1576	212	112000	13.328	13.085	13.565
TrackDT01	4	TrackDT	1.0	SCS215a	20120419.143931	20120419.145805	dt-generate	8	0.013328	60	10	60-180	60	134	GapExp	0	152	2	3	1	target	1	679	661	112661	13.328	13.091	13.559
TrackDT01	4	TrackDT	1.0	SCS215a	20120419.143931	20120419.145811	dt-generate	8	0.013328	60	10	60-180	60	143	GapExp	0	153	2	1	1	target	1	687	657	113318	13.328	13.089	13.565
TrackDT01	4	TrackDT	1.0	SCS215a	20120419.143931	20120419.145817	dt-generate	8	0.013328	60	10	60-180	60	71	GapExp	0	154	2	30	1	target	1	1070	465	113783	13.328	13.089	13.559
TrackDT01	4	TrackDT	1.0	SCS215a	20120419.143931	20120419.145823	dt-generate	8	0.013328	60	10	60-180	60	65	GapExp	0	155	2	1	1	target	1	1020	490	114273	13.328	11.917	14.744
TrackDT01	4	TrackDT	1.0	SCS215a	20120419.143931	20120419.145829	dt-generate	8	0.013328	60	10	60-180	60	124	GapExp	0	156	2	3	1	distractor	0	746	-1000	113273	13.328	12.430	14.226
TrackDT01	4	TrackDT	1.0	SCS215a	20120419.143931	20120419.145835	dt-generate	8	0.013328	60	10	60-180	60	79	GapExp	0	157	2	0	1	distractor	0	848	-1000	112273	13.328	10.472	16.191
TrackDT01	4	TrackDT	1.0	SCS215a	20120419.143931	20120419.145841	dt-generate	8	0.013328	60	10	60-180	60	100	GapExp	0	158	2	0	1	target	1	1032	484	112757	13.328	13.084	13.571
TrackDT01	4	TrackDT	1.0	SCS215a	20120419.143931	20120419.145847	dt-generate	8	0.013328	60	10	60-180	60	175	GapExp	0	159	2	0	0	distractor	1	1029	486	113243	13.328	13.096	13.563
TrackDT01	4	TrackDT	1.0	SCS215a	20120419.143931	20120419.145853	dt-generate	8	0.013328	60	10	60-180	60	109	GapExp	0	160	2	0	0	distractor	1	744	628	113871	13.328	11.238	15.414
TrackDT01	4	TrackDT	1.0	SCS215a	20120419.143931	20120419.145859	dt-generate	8	0.013328	60	10	60-180	60	146	GapExp	0	161	2	3	1	target	1	874	563	114434	13.328	13.097	13.545
TrackDT01	4	TrackDT	1.0	SCS215a	20120419.143931	20120419.145906	dt-generate	8	0.013328	60	10	60-180	60	116	GapExp	0	162	2	3	0	distractor	1	826	587	115021	13.328	9.766	16.890
TrackDT01	4	TrackDT	1.0	SCS215a	20120419.143931	20120419.145912	dt-generate	8	0.013328	60	10	60-180	60	134	GapExp	0	163	2	0	0	distractor	1	1080	460	115481	13.328	13.303	13.355
TrackDT01	4	TrackDT	1.0	SCS215a	20120419.143931	20120419.145918	dt-generate	8	0.013328	60	10	60-180	60	93	GapExp	0	164	2	1	1	distractor	0	1139	-1000	114481	13.328	13.299	13.361
TrackDT01	4	TrackDT	1.0	SCS215a	20120419.143931	20120419.145924	dt-generate	8	0.013328	60	10	60-180	60	138	GapExp	0	165	2	30	1	target	1	710	645	115126	13.328	13.309	13.356
TrackDT01	4	TrackDT	1.0	SCS215a	20120419.143931	20120419.145931	dt-generate	8	0.013328	60	10	60-180	60	156	GapExp	0	166	2	3	1	distractor	0	1225	-1000	114126	13.328	9.836	16.828
TrackDT01	4	TrackDT	1.0	SCS215a	20120419.143931	20120419.145938	dt-generate	8	0.013328	60	10	60-180	60	68	GapExp	0	167	2	3	1	distractor	0	2552	-1000	113126	13.390	10.640	26.665
TrackDT01	4	TrackDT	1.0	SCS215a	20120419.143931	20120419.145945	dt-generate	8	0.013328	60	10	60-180	60	135	GapExp	0	168	2	3	0	target	0	1989	-1000	112126	13.328	9.455	17.191
TrackDT01	4	TrackDT	1.0	SCS215a	20120419.143931	20120419.145952	dt-generate	8	0.013328	60	10	60-180	60	179	GapExp	0	169	2	3	1	target	1	802	599	112725	13.328	13.165	13.491
TrackDT01	4	TrackDT	1.0	SCS215a	20120419.143931	20120419.145959	dt-generate	8	0.013328	60	10	60-180	60	67	GapExp	0	170	2	30	1	target	1	646	677	113402	13.328	13.292	13.364
TrackDT01	4	TrackDT	1.0	SCS215a	20120419.143931	20120419.150005	dt-generate	8	0.013328	60	10	60-180	60	79	GapExp	0	171	2	0	1	target	1	853	574	113976	13.328	9.520	17.137
TrackDT01	4	TrackDT	1.0	SCS215a	20120419.143931	20120419.150011	dt-generate	8	0.013328	60	10	60-180	60	155	GapExp	0	172	2	1	0	distractor	1	591	705	114681	13.328	12.796	13.871
TrackDT01	4	TrackDT	1.0	SCS215a	20120419.143931	20120419.150017	dt-generate	8	0.013328	60	10	60-180	60	139	GapExp	0	173	2	1	0	distractor	1	648	676	115357	13.328	9.400	17.244
TrackDT01	4	TrackDT	1.0	SCS215a	20120419.143931	20120419.150023	dt-generate	8	0.013328	60	10	60-180	60	167	GapExp	0	174	2	30	0	distractor	1	777	612	115969	13.328	7.520	19.129
TrackDT01	4	TrackDT	1.0	SCS215a	20120419.143931	20120419.150030	dt-generate	8	0.013328	60	10	60-180	60	158	GapExp	0	175	2	3	1	target	1	1256	372	116341	13.328	13.115	13.539
TrackDT01	4	TrackDT	1.0	SCS215a	20120419.143931	20120419.150037	dt-generate	8	0.013328	60	10	60-180	60	63	GapExp	0	176	2	30	1	distractor	0	1005	-1000	115341	13.328	13.309	13.357
TrackDT01	4	TrackDT	1.0	SCS215a	20120419.143931	20120419.150043	dt-generate	8	0.013328	60	10	60-180	60	103	GapExp	0	177	2	0	1	target	1	724	638	115979	13.328	13.297	13.366
TrackDT01	4	TrackDT	1.0	SCS215a	20120419.143931	20120419.150048	dt-generate	8	0.013328	60	10	60-180	60	66	GapExp	0	178	2	1	1	target	1	991	505	116484	13.328	13.307	13.355
TrackDT01	4	TrackDT	1.0	SCS215a	20120419.143931	20120419.150054	dt-generate	8	0.013328	60	10	60-180	60	146	GapExp	0	179	2	0	0	distractor	1	1372	314	116798	13.328	10.663	16.000
TrackDT01	4	TrackDT	1.0	SCS215a	20120419.143931	20120419.150101	dt-generate	8	0.013328	60	10	60-180	60	93	GapExp	0	180	2	3	0	distractor	1	751	625	117423	13.328	6.206	20.447
TrackDT01	4	TrackDT	1.0	SCS215a	20120419.143931	20120419.150106	dt-generate	8	0.013328	60	10	60-180	60	152	GapExp	0	181	2	30	0	distractor	1	874	563	117986	13.328	13.307	13.349
TrackDT01	4	TrackDT	1.0	SCS215a	20120419.143931	20120419.150113	dt-generate	8	0.013328	60	10	60-180	60	118	GapExp	0	182	2	3	1	distractor	0	841	-1000	116986	13.328	13.093	13.551
TrackDT01	4	TrackDT	1.0	SCS215a	20120419.143931	20120419.150119	dt-generate	8	0.013328	60	10	60-180	60	171	GapExp	0	183	2	3	1	target	1	1243	379	117365	13.328	7.383	19.261
TrackDT01	4	TrackDT	1.0	SCS215a	20120419.143931	20120419.150126	dt-generate	8	0.013328	60	10	60-180	60	147	GapExp	0	184	2	0	1	distractor	0	386	-1000	116365	13.328	13.099	13.559
TrackDT01	4	TrackDT	1.0	SCS215a	20120419.143931	20120419.150132	dt-generate	8	0.013328	60	10	60-180	60	138	GapExp	0	185	2	1	1	distractor	0	2475	-1000	115365	13.328	7.847	18.802
TrackDT01	4	TrackDT	1.0	SCS215a	20120419.143931	20120419.150140	dt-generate	8	0.013328	60	10	60-180	60	91	GapExp	0	186	2	1	1	distractor	0	1614	-1000	114365	13.328	13.042	13.641
TrackDT01	4	TrackDT	1.0	SCS215a	20120419.143931	20120419.150146	dt-generate	8	0.013328	60	10	60-180	60	81	GapExp	0	187	2	3	1	target	1	1158	421	114786	13.328	13.307	13.347
TrackDT01	4	TrackDT	1.0	SCS215a	20120419.143931	20120419.150152	dt-generate	8	0.013328	60	10	60-180	60	123	GapExp	0	188	2	1	1	distractor	0	2090	-1000	113786	13.328	13.309	13.347
TrackDT01	4	TrackDT	1.0	SCS215a	20120419.143931	20120419.150200	dt-generate	8	0.013328	60	10	60-180	60	128	GapExp	0	189	2	0	1	target	1	1718	141	113927	13.328	12.919	13.731
TrackDT01	4	TrackDT	1.0	SCS215a	20120419.143931	20120419.150207	dt-generate	8	0.013328	60	10	60-180	60	148	GapExp	0	190	2	1	0	distractor	1	574	713	114640	13.328	12.216	14.465
TrackDT01	4	TrackDT	1.0	SCS215a	20120419.143931	20120419.150213	dt-generate	8	0.013328	60	10	60-180	60	102	GapExp	0	191	2	30	1	distractor	0	976	-1000	113640	13.328	13.307	13.352
TrackDT01	4	TrackDT	1.0	SCS215a	20120419.143931	20120419.150219	dt-generate	8	0.013328	60	10	60-180	60	74	GapExp	0	192	2	30	1	target	1	718	641	114281	13.328	13.307	13.347
TrackDT01	4	TrackDT	1.0	SCS215a	20120419.143931	20120419.150225	dt-generate	8	0.013328	60	10	60-180	60	123	GapExp	0	193	2	30	0	distractor	1	592	704	114985	13.328	11.154	15.509
TrackDT01	4	TrackDT	1.0	SCS215a	20120419.143931	20120419.150231	dt-generate	8	0.013328	60	10	60-180	60	71	GapExp	0	194	2	3	0	distractor	1	814	593	115578	13.328	13.093	13.564
TrackDT01	4	TrackDT	1.0	SCS215a	20120419.143931	20120419.150236	dt-generate	8	0.013328	60	10	60-180	60	137	GapExp	0	195	2	30	1	target	1	954	523	116101	13.328	13.111	13.559
TrackDT01	4	TrackDT	1.0	SCS215a	20120419.143931	20120419.150243	dt-generate	8	0.013328	60	10	60-180	60	150	GapExp	0	196	2	0	1	target	1	805	598	116699	13.328	9.624	17.025
TrackDT01	4	TrackDT	1.0	SCS215a	20120419.143931	20120419.150249	dt-generate	8	0.013328	60	10	60-180	60	140	GapExp	0	197	2	0	1	distractor	0	1390	-1000	115699	13.328	13.298	13.360
TrackDT01	4	TrackDT	1.0	SCS215a	20120419.143931	20120419.150257	dt-generate	8	0.013328	60	10	60-180	60	141	GapExp	0	198	2	0	1	target	1	1167	417	116116	13.328	13.084	13.565
TrackDT01	4	TrackDT	1.0	SCS215a	20120419.143931	20120419.150303	dt-generate	8	0.013328	60	10	60-180	60	118	GapExp	0	199	2	1	1	target	1	1050	475	116591	13.328	9.994	16.655
TrackDT01	4	TrackDT	1.0	SCS215a	20120419.143931	20120419.150309	dt-generate	8	0.013328	60	10	60-180	60	92	GapExp	0	200	2	30	0	target	0	1818	-1000	115591	13.328	11.576	15.094
TrackDT01	4	TrackDT	1.0	SCS215a	20120419.150332	20120419.150336	single-task	8	0.013317	60	10	60-180	60	102	GapPrac	1	1	2	0	1	target	1	613	694	116285	13.328	12.190	14.448
TrackDT01	4	TrackDT	1.0	SCS215a	20120419.150332	20120419.150342	single-task	8	0.013317	60	10	60-180	60	179	GapPrac	1	2	2	3	0	distractor	1	1024	488	116773	13.328	6.276	20.384
TrackDT01	4	TrackDT	1.0	SCS215a	20120419.150332	20120419.150349	single-task	8	0.013317	60	10	60-180	60	141	GapPrac	1	3	2	1	0	distractor	1	693	654	117427	13.328	4.809	21.840
TrackDT01	4	TrackDT	1.0	SCS215a	20120419.150332	20120419.150355	single-task	8	0.013317	60	10	60-180	60	161	GapPrac	1	4	2	0	0	distractor	1	591	705	118132	13.328	13.305	13.357
TrackDT01	4	TrackDT	1.0	SCS215a	20120419.150332	20120419.150401	single-task	8	0.013317	60	10	60-180	60	74	GapPrac	1	5	2	0	0	distractor	1	1040	480	118612	13.389	13.107	26.647
TrackDT01	4	TrackDT	1.0	SCS215a	20120419.150332	20120419.150407	single-task	8	0.013317	60	10	60-180	60	165	GapPrac	1	6	2	1	0	distractor	1	681	660	119272	13.372	11.805	25.732
TrackDT01	4	TrackDT	1.0	SCS215a	20120419.150332	20120419.150413	single-task	8	0.013317	60	10	60-180	60	83	GapPrac	1	7	2	1	1	target	1	953	524	119796	13.328	13.307	13.348
TrackDT01	4	TrackDT	1.0	SCS215a	20120419.150332	20120419.150419	single-task	8	0.013317	60	10	60-180	60	94	GapPrac	1	8	2	0	1	target	1	742	629	120425	13.328	12.332	14.338
TrackDT01	4	TrackDT	1.0	SCS215a	20120419.150332	20120419.150425	single-task	8	0.013317	60	10	60-180	60	178	GapPrac	1	9	2	3	1	target	1	635	683	121108	13.328	8.623	18.032
TrackDT01	4	TrackDT	1.0	SCS215a	20120419.150332	20120419.150431	single-task	8	0.013317	60	10	60-180	60	171	GapPrac	1	10	2	1	1	target	1	626	687	121795	13.328	4.639	22.011
TrackDT01	4	TrackDT	1.0	SCS215a	20120419.150332	20120419.150438	single-task	8	0.013317	60	10	60-180	60	169	GapPrac	1	11	2	30	1	distractor	0	779	-1000	120795	13.328	12.994	13.655
TrackDT01	4	TrackDT	1.0	SCS215a	20120419.150332	20120419.150445	single-task	8	0.013317	60	10	60-180	60	69	GapPrac	1	12	2	30	0	distractor	1	954	523	121318	13.328	12.314	14.356
TrackDT01	4	TrackDT	1.0	SCS215a	20120419.150332	20120419.150451	single-task	8	0.013317	60	10	60-180	60	85	GapPrac	1	13	2	30	1	target	1	663	669	121987	13.328	12.974	13.682
TrackDT01	4	TrackDT	1.0	SCS215a	20120419.150332	20120419.150456	single-task	8	0.013317	60	10	60-180	60	71	GapPrac	1	14	2	3	0	distractor	1	710	645	122632	13.328	13.307	13.347
TrackDT01	4	TrackDT	1.0	SCS215a	20120419.150332	20120419.150501	single-task	8	0.013317	60	10	60-180	60	120	GapPrac	1	15	2	30	0	distractor	1	816	592	123224	13.328	13.307	13.352
TrackDT01	4	TrackDT	1.0	SCS215a	20120419.150332	20120419.150508	single-task	8	0.013317	60	10	60-180	60	156	GapPrac	1	16	2	3	1	target	1	620	690	123914	13.328	11.684	14.976
TrackDT01	4	TrackDT	1.0	SCS215a	20120419.150332	20120419.150514	single-task	8	0.013317	60	10	60-180	60	154	GapPrac	1	17	2	3	0	distractor	1	528	736	124650	13.328	13.302	13.360
TrackDT01	4	TrackDT	1.0	SCS215a	20120419.150332	20120419.150520	single-task	8	0.013317	60	10	60-180	60	130	GapPrac	1	18	2	0	0	distractor	1	798	601	125251	13.328	12.300	14.349
TrackDT01	4	TrackDT	1.0	SCS215a	20120419.150332	20120419.150526	single-task	8	0.013317	60	10	60-180	60	178	GapPrac	1	19	2	0	1	target	1	1247	377	125628	13.328	8.908	17.736
TrackDT01	4	TrackDT	1.0	SCS215a	20120419.150332	20120419.150533	single-task	8	0.013317	60	10	60-180	60	136	GapPrac	1	20	2	1	0	distractor	1	594	703	126331	13.328	8.154	18.483
TrackDT01	4	TrackDT	1.0	SCS215a	20120419.150548	20120419.150553	single-task	8	0.013325	60	10	60-180	60	91	GapExp	1	1	2	30	0	distractor	1	730	635	126966	13.328	12.041	14.621
TrackDT01	4	TrackDT	1.0	SCS215a	20120419.150548	20120419.150559	single-task	8	0.013325	60	10	60-180	60	112	GapExp	1	2	2	0	1	target	1	550	725	127691	13.328	13.304	13.352
TrackDT01	4	TrackDT	1.0	SCS215a	20120419.150548	20120419.150605	single-task	8	0.013325	60	10	60-180	60	75	GapExp	1	3	2	3	0	distractor	1	536	732	128423	13.328	13.294	13.362
TrackDT01	4	TrackDT	1.0	SCS215a	20120419.150548	20120419.150610	single-task	8	0.013325	60	10	60-180	60	127	GapExp	1	4	2	1	1	target	1	617	692	129115	13.328	6.792	19.858
TrackDT01	4	TrackDT	1.0	SCS215a	20120419.150548	20120419.150616	single-task	8	0.013325	60	10	60-180	60	133	GapExp	1	5	2	0	0	distractor	1	599	701	129816	13.328	13.091	13.565
TrackDT01	4	TrackDT	1.0	SCS215a	20120419.150548	20120419.150621	single-task	8	0.013325	60	10	60-180	60	128	GapExp	1	6	2	3	1	target	1	515	743	130559	13.328	3.276	23.366
TrackDT01	4	TrackDT	1.0	SCS215a	20120419.150548	20120419.150627	single-task	8	0.013325	60	10	60-180	60	140	GapExp	1	7	2	30	1	distractor	0	1279	-1000	129559	13.328	11.629	15.023
TrackDT01	4	TrackDT	1.0	SCS215a	20120419.150548	20120419.150635	single-task	8	0.013325	60	10	60-180	60	142	GapExp	1	8	2	1	0	distractor	1	601	700	130259	13.328	3.483	23.166
TrackDT01	4	TrackDT	1.0	SCS215a	20120419.150548	20120419.150641	single-task	8	0.013325	60	10	60-180	60	71	GapExp	0	9	2	30	1	target	1	683	659	130918	13.328	13.308	13.346
TrackDT01	4	TrackDT	1.0	SCS215a	20120419.150548	20120419.150646	single-task	8	0.013325	60	10	60-180	60	74	GapExp	0	10	2	30	1	target	1	600	700	131618	13.328	13.164	13.515
TrackDT01	4	TrackDT	1.0	SCS215a	20120419.150548	20120419.150652	single-task	8	0.013325	60	10	60-180	60	169	GapExp	0	11	2	1	0	distractor	1	494	753	132371	13.328	13.099	13.558
TrackDT01	4	TrackDT	1.0	SCS215a	20120419.150548	20120419.150658	single-task	8	0.013325	60	10	60-180	60	81	GapExp	0	12	2	3	0	distractor	1	550	725	133096	13.328	13.084	13.572
TrackDT01	4	TrackDT	1.0	SCS215a	20120419.150548	20120419.150703	single-task	8	0.013325	60	10	60-180	60	161	GapExp	0	13	2	3	1	target	1	535	733	133829	13.328	8.775	17.881
TrackDT01	4	TrackDT	1.0	SCS215a	20120419.150548	20120419.150709	single-task	8	0.013325	60	10	60-180	60	110	GapExp	0	14	2	3	1	target	1	607	697	134526	13.328	13.296	13.361
TrackDT01	4	TrackDT	1.0	SCS215a	20120419.150548	20120419.150715	single-task	8	0.013325	60	10	60-180	60	62	GapExp	0	15	2	3	0	distractor	1	591	705	135231	13.328	13.309	13.345
TrackDT01	4	TrackDT	1.0	SCS215a	20120419.150548	20120419.150720	single-task	8	0.013325	60	10	60-180	60	76	GapExp	0	16	2	30	1	target	1	523	739	135970	13.328	4.157	22.497
TrackDT01	4	TrackDT	1.0	SCS215a	20120419.150548	20120419.150725	single-task	8	0.013325	60	10	60-180	60	167	GapExp	0	17	2	1	0	distractor	1	630	685	136655	13.328	13.100	13.570
TrackDT01	4	TrackDT	1.0	SCS215a	20120419.150548	20120419.150731	single-task	8	0.013325	60	10	60-180	60	118	GapExp	0	18	2	30	0	distractor	1	781	610	137265	13.328	13.096	13.558
TrackDT01	4	TrackDT	1.0	SCS215a	20120419.150548	20120419.150738	single-task	8	0.013325	60	10	60-180	60	156	GapExp	0	19	2	30	0	distractor	1	994	503	137768	13.328	7.437	19.227
TrackDT01	4	TrackDT	1.0	SCS215a	20120419.150548	20120419.150745	single-task	8	0.013325	60	10	60-180	60	170	GapExp	0	20	2	1	1	target	1	539	731	138499	13.328	13.308	13.349
TrackDT01	4	TrackDT	1.0	SCS215a	20120419.150548	20120419.150751	single-task	8	0.013325	60	10	60-180	60	121	GapExp	0	21	2	1	0	distractor	1	627	687	139186	13.328	13.307	13.349
TrackDT01	4	TrackDT	1.0	SCS215a	20120419.150548	20120419.150757	single-task	8	0.013325	60	10	60-180	60	74	GapExp	0	22	2	3	0	distractor	1	775	613	139799	13.328	7.723	18.934
TrackDT01	4	TrackDT	1.0	SCS215a	20120419.150548	20120419.150802	single-task	8	0.013325	60	10	60-180	60	78	GapExp	0	23	2	1	1	target	1	589	706	140505	13.328	13.113	13.559
TrackDT01	4	TrackDT	1.0	SCS215a	20120419.150548	20120419.150807	single-task	8	0.013325	60	10	60-180	60	64	GapExp	0	24	2	30	1	target	1	652	674	141179	13.328	13.091	13.565
TrackDT01	4	TrackDT	1.0	SCS215a	20120419.150548	20120419.150813	single-task	8	0.013325	60	10	60-180	60	94	GapExp	0	25	2	0	0	distractor	1	571	715	141894	13.328	13.307	13.347
TrackDT01	4	TrackDT	1.0	SCS215a	20120419.150548	20120419.150818	single-task	8	0.013325	60	10	60-180	60	138	GapExp	0	26	2	3	0	distractor	1	526	737	142631	13.328	13.281	13.389
TrackDT01	4	TrackDT	1.0	SCS215a	20120419.150548	20120419.150824	single-task	8	0.013325	60	10	60-180	60	131	GapExp	0	27	2	0	1	target	1	498	751	143382	13.328	7.113	19.541
TrackDT01	4	TrackDT	1.0	SCS215a	20120419.150548	20120419.150830	single-task	8	0.013325	60	10	60-180	60	65	GapExp	0	28	2	0	1	target	1	619	691	144073	13.328	13.111	13.553
TrackDT01	4	TrackDT	1.0	SCS215a	20120419.150548	20120419.150835	single-task	8	0.013325	60	10	60-180	60	113	GapExp	0	29	2	3	0	distractor	1	507	747	144820	13.328	13.113	13.554
TrackDT01	4	TrackDT	1.0	SCS215a	20120419.150548	20120419.150840	single-task	8	0.013325	60	10	60-180	60	75	GapExp	0	30	2	3	0	distractor	1	585	708	145528	13.328	13.305	13.352
TrackDT01	4	TrackDT	1.0	SCS215a	20120419.150548	20120419.150845	single-task	8	0.013325	60	10	60-180	60	76	GapExp	0	31	2	3	1	target	1	565	718	146246	13.328	13.308	13.347
TrackDT01	4	TrackDT	1.0	SCS215a	20120419.150548	20120419.150851	single-task	8	0.013325	60	10	60-180	60	74	GapExp	0	32	2	1	0	distractor	1	581	710	146956	13.328	8.736	17.935
TrackDT01	4	TrackDT	1.0	SCS215a	20120419.150548	20120419.150856	single-task	8	0.013325	60	10	60-180	60	168	GapExp	0	33	2	1	1	target	1	646	677	147633	13.328	13.305	13.349
TrackDT01	4	TrackDT	1.0	SCS215a	20120419.150548	20120419.150902	single-task	8	0.013325	60	10	60-180	60	145	GapExp	0	34	2	3	0	distractor	1	659	671	148304	13.328	7.666	18.992
TrackDT01	4	TrackDT	1.0	SCS215a	20120419.150548	20120419.150908	single-task	8	0.013325	60	10	60-180	60	164	GapExp	0	35	2	1	0	distractor	1	524	738	149042	13.328	8.249	18.414
TrackDT01	4	TrackDT	1.0	SCS215a	20120419.150548	20120419.150914	single-task	8	0.013325	60	10	60-180	60	80	GapExp	0	36	2	0	0	distractor	1	1341	330	149372	13.328	13.304	13.348
TrackDT01	4	TrackDT	1.0	SCS215a	20120419.150548	20120419.150920	single-task	8	0.013325	60	10	60-180	60	81	GapExp	0	37	2	1	1	target	1	852	574	149946	13.328	7.906	18.750
TrackDT01	4	TrackDT	1.0	SCS215a	20120419.150548	20120419.150926	single-task	8	0.013325	60	10	60-180	60	73	GapExp	0	38	2	1	1	target	1	643	679	150625	13.328	7.525	19.130
TrackDT01	4	TrackDT	1.0	SCS215a	20120419.150548	20120419.150931	single-task	8	0.013325	60	10	60-180	60	69	GapExp	0	39	2	30	1	target	1	621	690	151315	13.328	7.596	19.068
TrackDT01	4	TrackDT	1.0	SCS215a	20120419.150548	20120419.150936	single-task	8	0.013325	60	10	60-180	60	66	GapExp	0	40	2	30	1	target	1	768	616	151931	13.328	10.062	16.599
TrackDT01	4	TrackDT	1.0	SCS215a	20120419.150548	20120419.150942	single-task	8	0.013325	60	10	60-180	60	152	GapExp	0	41	2	0	0	distractor	1	576	712	152643	13.328	6.958	19.699
TrackDT01	4	TrackDT	1.0	SCS215a	20120419.150548	20120419.150948	single-task	8	0.013325	60	10	60-180	60	92	GapExp	0	42	2	1	1	target	1	626	687	153330	13.328	12.888	13.768
TrackDT01	4	TrackDT	1.0	SCS215a	20120419.150548	20120419.150953	single-task	8	0.013325	60	10	60-180	60	70	GapExp	0	43	2	0	0	distractor	1	627	687	154017	13.328	13.091	13.551
TrackDT01	4	TrackDT	1.0	SCS215a	20120419.150548	20120419.150959	single-task	8	0.013325	60	10	60-180	60	89	GapExp	0	44	2	3	0	distractor	1	512	744	154761	13.328	13.309	13.352
TrackDT01	4	TrackDT	1.0	SCS215a	20120419.150548	20120419.151004	single-task	8	0.013325	60	10	60-180	60	158	GapExp	0	45	2	0	0	target	0	675	-1000	153761	13.328	11.903	14.754
TrackDT01	4	TrackDT	1.0	SCS215a	20120419.150548	20120419.151010	single-task	8	0.013325	60	10	60-180	60	75	GapExp	0	46	2	30	0	distractor	1	732	634	154395	13.328	10.111	16.550
TrackDT01	4	TrackDT	1.0	SCS215a	20120419.150548	20120419.151016	single-task	8	0.013325	60	10	60-180	60	114	GapExp	0	47	2	3	1	target	1	797	602	154997	13.328	13.307	13.347
TrackDT01	4	TrackDT	1.0	SCS215a	20120419.150548	20120419.151021	single-task	8	0.013325	60	10	60-180	60	76	GapExp	0	48	2	0	1	target	1	481	760	155757	13.328	10.247	16.410
TrackDT01	4	TrackDT	1.0	SCS215a	20120419.150548	20120419.151026	single-task	8	0.013325	60	10	60-180	60	104	GapExp	0	49	2	0	1	target	1	465	768	156525	13.328	9.976	16.680
TrackDT01	4	TrackDT	1.0	SCS215a	20120419.150548	20120419.151032	single-task	8	0.013325	60	10	60-180	60	125	GapExp	0	50	2	1	0	distractor	1	543	729	157254	13.328	13.305	13.351
TrackDT01	4	TrackDT	1.0	SCS215a	20120419.150548	20120419.151048	single-task	8	0.013325	60	10	60-180	60	136	GapExp	0	51	2	30	1	target	1	564	718	157972	13.328	13.086	13.571
TrackDT01	4	TrackDT	1.0	SCS215a	20120419.150548	20120419.151054	single-task	8	0.013325	60	10	60-180	60	81	GapExp	0	52	2	30	1	target	1	481	760	158732	13.328	8.643	18.016
TrackDT01	4	TrackDT	1.0	SCS215a	20120419.150548	20120419.151100	single-task	8	0.013325	60	10	60-180	60	112	GapExp	0	53	2	3	1	target	1	464	768	159500	13.328	10.642	16.019
TrackDT01	4	TrackDT	1.0	SCS215a	20120419.150548	20120419.151106	single-task	8	0.013325	60	10	60-180	60	139	GapExp	0	54	2	30	1	target	1	428	786	160286	13.328	5.379	22.521
TrackDT01	4	TrackDT	1.0	SCS215a	20120419.150548	20120419.151112	single-task	8	0.013325	60	10	60-180	60	102	GapExp	0	55	2	1	1	distractor	0	1087	-1000	159286	13.328	13.303	13.358
TrackDT01	4	TrackDT	1.0	SCS215a	20120419.150548	20120419.151118	single-task	8	0.013325	60	10	60-180	60	126	GapExp	0	56	2	3	1	target	1	399	801	160087	13.328	11.786	14.865
TrackDT01	4	TrackDT	1.0	SCS215a	20120419.150548	20120419.151124	single-task	8	0.013325	60	10	60-180	60	91	GapExp	0	57	2	3	1	target	1	430	785	160872	13.328	8.799	17.847
TrackDT01	4	TrackDT	1.0	SCS215a	20120419.150548	20120419.151129	single-task	8	0.013325	60	10	60-180	60	86	GapExp	0	58	2	0	0	distractor	1	667	667	161539	13.328	7.490	19.165
TrackDT01	4	TrackDT	1.0	SCS215a	20120419.150548	20120419.151134	single-task	8	0.013325	60	10	60-180	60	84	GapExp	0	59	2	3	1	target	1	761	620	162159	13.328	13.309	13.350
TrackDT01	4	TrackDT	1.0	SCS215a	20120419.150548	20120419.151140	single-task	8	0.013325	60	10	60-180	60	67	GapExp	0	60	2	30	0	distractor	1	1021	490	162649	13.328	13.295	13.348
TrackDT01	4	TrackDT	1.0	SCS215a	20120419.150548	20120419.151146	single-task	8	0.013325	60	10	60-180	60	142	GapExp	0	61	2	30	1	target	1	667	667	163316	13.328	13.104	13.549
TrackDT01	4	TrackDT	1.0	SCS215a	20120419.150548	20120419.151152	single-task	8	0.013325	60	10	60-180	60	92	GapExp	0	62	2	3	0	distractor	1	764	618	163934	13.328	13.106	13.550
TrackDT01	4	TrackDT	1.0	SCS215a	20120419.150548	20120419.151158	single-task	8	0.013325	60	10	60-180	60	155	GapExp	0	63	2	30	1	target	1	582	709	164643	13.328	13.092	13.557
TrackDT01	4	TrackDT	1.0	SCS215a	20120419.150548	20120419.151204	single-task	8	0.013325	60	10	60-180	60	63	GapExp	0	64	2	1	0	distractor	1	939	531	165174	13.328	3.575	23.091
TrackDT01	4	TrackDT	1.0	SCS215a	20120419.150548	20120419.151209	single-task	8	0.013325	60	10	60-180	60	111	GapExp	0	65	2	1	1	target	1	980	510	165684	13.328	12.736	13.930
TrackDT01	4	TrackDT	1.0	SCS215a	20120419.150548	20120419.151216	single-task	8	0.013325	60	10	60-180	60	170	GapExp	0	66	2	0	0	distractor	1	559	721	166405	13.328	12.443	14.195
TrackDT01	4	TrackDT	1.0	SCS215a	20120419.150548	20120419.151222	single-task	8	0.013325	60	10	60-180	60	151	GapExp	0	67	2	3	1	target	1	840	580	166985	13.328	13.308	13.347
TrackDT01	4	TrackDT	1.0	SCS215a	20120419.150548	20120419.151229	single-task	8	0.013325	60	10	60-180	60	177	GapExp	0	68	2	1	0	distractor	1	714	643	167628	13.328	7.992	18.658
TrackDT01	4	TrackDT	1.0	SCS215a	20120419.150548	20120419.151235	single-task	8	0.013325	60	10	60-180	60	177	GapExp	0	69	2	3	1	target	1	625	688	168316	13.328	13.097	13.547
TrackDT01	4	TrackDT	1.0	SCS215a	20120419.150548	20120419.151242	single-task	8	0.013325	60	10	60-180	60	153	GapExp	0	70	2	1	0	distractor	1	777	612	168928	13.328	10.006	16.666
TrackDT01	4	TrackDT	1.0	SCS215a	20120419.150548	20120419.151248	single-task	8	0.013325	60	10	60-180	60	147	GapExp	0	71	2	0	0	distractor	1	604	698	169626	13.328	7.037	19.635
TrackDT01	4	TrackDT	1.0	SCS215a	20120419.150548	20120419.151254	single-task	8	0.013325	60	10	60-180	60	113	GapExp	0	72	2	0	1	target	1	670	665	170291	13.328	13.114	13.559
TrackDT01	4	TrackDT	1.0	SCS215a	20120419.150548	20120419.151300	single-task	8	0.013325	60	10	60-180	60	87	GapExp	0	73	2	30	0	distractor	1	956	522	170813	13.328	13.106	13.551
TrackDT01	4	TrackDT	1.0	SCS215a	20120419.150548	20120419.151306	single-task	8	0.013325	60	10	60-180	60	66	GapExp	0	74	2	3	0	target	0	1460	-1000	169813	13.328	7.681	18.968
TrackDT01	4	TrackDT	1.0	SCS215a	20120419.150548	20120419.151312	single-task	8	0.013325	60	10	60-180	60	128	GapExp	0	75	2	3	1	distractor	0	528	-1000	168813	13.328	13.113	13.537
TrackDT01	4	TrackDT	1.0	SCS215a	20120419.150548	20120419.151317	single-task	8	0.013325	60	10	60-180	60	148	GapExp	0	76	2	0	1	target	1	611	695	169508	13.328	9.674	16.974
TrackDT01	4	TrackDT	1.0	SCS215a	20120419.150548	20120419.151324	single-task	8	0.013325	60	10	60-180	60	145	GapExp	0	77	2	30	0	distractor	1	703	649	170157	13.328	10.138	16.504
TrackDT01	4	TrackDT	1.0	SCS215a	20120419.150548	20120419.151331	single-task	8	0.013325	60	10	60-180	60	137	GapExp	0	78	2	3	1	target	1	512	744	170901	13.328	6.884	19.774
TrackDT01	4	TrackDT	1.0	SCS215a	20120419.150548	20120419.151337	single-task	8	0.013325	60	10	60-180	60	172	GapExp	0	79	2	30	0	distractor	1	608	696	171597	13.328	12.035	14.619
TrackDT01	4	TrackDT	1.0	SCS215a	20120419.150548	20120419.151343	single-task	8	0.013325	60	10	60-180	60	178	GapExp	0	80	2	1	1	distractor	0	769	-1000	170597	13.328	11.628	15.024
TrackDT01	4	TrackDT	1.0	SCS215a	20120419.150548	20120419.151350	single-task	8	0.013325	60	10	60-180	60	151	GapExp	0	81	2	3	0	distractor	1	675	663	171260	13.328	12.945	13.709
TrackDT01	4	TrackDT	1.0	SCS215a	20120419.150548	20120419.151356	single-task	8	0.013325	60	10	60-180	60	127	GapExp	0	82	2	30	1	distractor	0	794	-1000	170260	13.328	12.435	14.219
