exp	sub	code	rev	comp	runtime	trialtime	stdt	nstim	refreshdur	cuedur	gapdur	gapOnsetRange	durPostProbe	gapOnsetTime	blocktype	prac	trial	ntargets	soa	probeTarget	resp	acc	rt	pts	tpts	meanFrameDur	minFrameDur	maxFrameDur
TrackDT01	1	TrackDT	1.0	SCS215a	20120417.121742	20120417.121850	single-task	8	0.013328	60	0	60-180	60	103	NoGap	1	1	2	30	1	target	1	522	739	739	13.328	12.498	14.149
TrackDT01	1	TrackDT	1.0	SCS215a	20120417.121742	20120417.121857	single-task	8	0.013328	60	0	60-180	60	95	NoGap	1	2	2	3	1	target	1	1454	273	1012	13.328	11.742	14.948
TrackDT01	1	TrackDT	1.0	SCS215a	20120417.121742	20120417.121903	single-task	8	0.013328	60	0	60-180	60	123	NoGap	1	3	2	1	0	distractor	1	603	699	1711	13.328	13.224	13.433
TrackDT01	1	TrackDT	1.0	SCS215a	20120417.121742	20120417.121909	single-task	8	0.013328	60	0	60-180	60	78	NoGap	1	4	2	3	0	distractor	1	1145	428	2139	13.328	13.265	13.378
TrackDT01	1	TrackDT	1.0	SCS215a	20120417.121742	20120417.121914	single-task	8	0.013328	60	0	60-180	60	81	NoGap	1	5	2	0	0	distractor	1	356	822	2961	13.328	11.768	14.900
TrackDT01	1	TrackDT	1.0	SCS215a	20120417.121742	20120417.121919	single-task	8	0.013328	60	0	60-180	60	81	NoGap	1	6	2	3	1	target	1	475	763	3724	13.328	12.358	14.323
TrackDT01	1	TrackDT	1.0	SCS215a	20120417.121742	20120417.121924	single-task	8	0.013328	60	0	60-180	60	149	NoGap	1	7	2	30	1	distractor	0	435	-1000	2724	13.328	5.608	21.066
TrackDT01	1	TrackDT	1.0	SCS215a	20120417.121742	20120417.121930	single-task	8	0.013328	60	0	60-180	60	86	NoGap	1	8	2	0	0	distractor	1	735	633	3357	13.328	13.280	13.377
TrackDT01	1	TrackDT	1.0	SCS215a	20120417.121742	20120417.121936	single-task	8	0.013328	60	0	60-180	60	75	NoGap	1	9	2	1	1	target	1	716	642	3999	13.328	12.583	14.069
TrackDT01	1	TrackDT	1.0	SCS215a	20120417.121742	20120417.121941	single-task	8	0.013328	60	0	60-180	60	149	NoGap	1	10	2	30	1	target	1	722	639	4638	13.328	13.065	13.608
TrackDT01	1	TrackDT	1.0	SCS215a	20120417.121742	20120417.121947	single-task	8	0.013328	60	0	60-180	60	166	NoGap	1	11	2	30	0	distractor	1	541	730	5368	13.328	13.109	13.547
TrackDT01	1	TrackDT	1.0	SCS215a	20120417.121742	20120417.121954	single-task	8	0.013328	60	0	60-180	60	156	NoGap	1	12	2	30	0	distractor	1	510	745	6113	13.328	13.082	13.547
TrackDT01	1	TrackDT	1.0	SCS215a	20120417.121742	20120417.122000	single-task	8	0.013328	60	0	60-180	60	124	NoGap	1	13	2	1	1	distractor	0	392	-1000	5113	13.328	13.178	13.477
TrackDT01	1	TrackDT	1.0	SCS215a	20120417.121742	20120417.122006	single-task	8	0.013328	60	0	60-180	60	148	NoGap	1	14	2	1	1	target	1	602	699	5812	13.328	13.191	13.462
TrackDT01	1	TrackDT	1.0	SCS215a	20120417.121742	20120417.122012	single-task	8	0.013328	60	0	60-180	60	63	NoGap	1	15	2	0	1	target	1	659	671	6483	13.328	11.147	15.514
TrackDT01	1	TrackDT	1.0	SCS215a	20120417.121742	20120417.122017	single-task	8	0.013328	60	0	60-180	60	145	NoGap	1	16	2	0	0	distractor	1	558	721	7204	13.328	13.012	13.646
TrackDT01	1	TrackDT	1.0	SCS215a	20120417.121742	20120417.122022	single-task	8	0.013328	60	0	60-180	60	164	NoGap	1	17	2	30	0	distractor	1	467	767	7971	13.328	11.296	15.366
TrackDT01	1	TrackDT	1.0	SCS215a	20120417.121742	20120417.122029	single-task	8	0.013328	60	0	60-180	60	103	NoGap	1	18	2	1	0	distractor	1	665	668	8639	13.328	7.588	19.073
TrackDT01	1	TrackDT	1.0	SCS215a	20120417.121742	20120417.122034	single-task	8	0.013328	60	0	60-180	60	166	NoGap	1	19	2	0	1	target	1	358	821	9460	13.328	12.397	14.414
TrackDT01	1	TrackDT	1.0	SCS215a	20120417.121742	20120417.122040	single-task	8	0.013328	60	0	60-180	60	153	NoGap	1	20	2	1	0	target	0	728	-1000	8460	13.328	12.063	14.604
TrackDT01	1	TrackDT	1.0	SCS215a	20120417.121742	20120417.122046	single-task	8	0.013328	60	0	60-180	60	169	NoGap	1	21	2	3	1	target	1	569	716	9176	13.328	13.112	13.545
TrackDT01	1	TrackDT	1.0	SCS215a	20120417.121742	20120417.122053	single-task	8	0.013328	60	0	60-180	60	104	NoGap	1	22	2	30	0	distractor	1	596	702	9878	13.328	13.181	13.472
TrackDT01	1	TrackDT	1.0	SCS215a	20120417.121742	20120417.122058	single-task	8	0.013328	60	0	60-180	60	99	NoGap	1	23	2	3	1	target	1	545	728	10606	13.328	13.111	13.546
TrackDT01	1	TrackDT	1.0	SCS215a	20120417.121742	20120417.122104	single-task	8	0.013328	60	0	60-180	60	130	NoGap	1	24	2	0	0	distractor	1	662	669	11275	13.328	13.074	13.581
TrackDT01	1	TrackDT	1.0	SCS215a	20120417.121742	20120417.122109	single-task	8	0.013328	60	0	60-180	60	75	NoGap	1	25	2	3	0	distractor	1	643	679	11954	13.328	13.286	13.374
TrackDT01	1	TrackDT	1.0	SCS215a	20120417.121742	20120417.122115	single-task	8	0.013328	60	0	60-180	60	116	NoGap	1	26	2	0	1	target	1	680	660	12614	13.328	13.106	13.549
TrackDT01	1	TrackDT	1.0	SCS215a	20120417.121742	20120417.122120	single-task	8	0.013328	60	0	60-180	60	91	NoGap	1	27	2	3	0	distractor	1	419	791	13405	13.328	10.909	15.743
TrackDT01	1	TrackDT	1.0	SCS215a	20120417.121742	20120417.122125	single-task	8	0.013328	60	0	60-180	60	145	NoGap	1	28	2	0	0	distractor	1	548	726	14131	13.328	13.106	13.548
TrackDT01	1	TrackDT	1.0	SCS215a	20120417.121742	20120417.122131	single-task	8	0.013328	60	0	60-180	60	145	NoGap	1	29	2	1	0	distractor	1	633	684	14815	13.328	13.096	13.560
TrackDT01	1	TrackDT	1.0	SCS215a	20120417.121742	20120417.122137	single-task	8	0.013328	60	0	60-180	60	65	NoGap	1	30	2	1	1	target	1	396	802	15617	13.328	13.199	13.458
TrackDT01	1	TrackDT	1.0	SCS215a	20120417.121742	20120417.122141	single-task	8	0.013328	60	0	60-180	60	106	NoGap	1	31	2	1	0	distractor	1	268	866	16483	13.328	10.274	16.380
TrackDT01	1	TrackDT	1.0	SCS215a	20120417.121742	20120417.122147	single-task	8	0.013328	60	0	60-180	60	97	NoGap	1	32	2	3	1	target	1	536	732	17215	13.328	13.100	13.557
TrackDT01	1	TrackDT	1.0	SCS215a	20120417.121742	20120417.122152	single-task	8	0.013328	60	0	60-180	60	178	NoGap	1	33	2	0	1	target	1	643	679	17894	13.328	6.734	19.935
TrackDT01	1	TrackDT	1.0	SCS215a	20120417.121742	20120417.122158	single-task	8	0.013328	60	0	60-180	60	108	NoGap	1	34	2	30	0	distractor	1	330	835	18729	13.328	10.751	15.918
TrackDT01	1	TrackDT	1.0	SCS215a	20120417.121742	20120417.122204	single-task	8	0.013328	60	0	60-180	60	98	NoGap	1	35	2	3	0	distractor	1	356	822	19551	13.328	13.211	13.445
TrackDT01	1	TrackDT	1.0	SCS215a	20120417.121742	20120417.122209	single-task	8	0.013328	60	0	60-180	60	73	NoGap	1	36	2	1	1	target	1	487	757	20308	13.328	13.095	13.560
TrackDT01	1	TrackDT	1.0	SCS215a	20120417.121742	20120417.122214	single-task	8	0.013328	60	0	60-180	60	140	NoGap	1	37	2	30	1	distractor	0	445	-1000	19308	13.328	13.097	13.560
TrackDT01	1	TrackDT	1.0	SCS215a	20120417.121742	20120417.122220	single-task	8	0.013328	60	0	60-180	60	79	NoGap	1	38	2	30	1	target	1	491	755	20063	13.328	12.505	14.353
TrackDT01	1	TrackDT	1.0	SCS215a	20120417.121742	20120417.122225	single-task	8	0.013328	60	0	60-180	60	116	NoGap	1	39	2	3	0	distractor	1	695	653	20716	13.328	12.741	13.922
TrackDT01	1	TrackDT	1.0	SCS215a	20120417.121742	20120417.122231	single-task	8	0.013328	60	0	60-180	60	151	NoGap	1	40	2	0	1	target	1	305	848	21564	13.328	10.076	16.583
TrackDT01	1	TrackDT	1.0	SCS215a	20120417.122313	20120417.122349	single-task	8	0.013328	60	10	60-180	60	165	GapPrac	1	1	2	1	1	target	1	724	638	22202	13.328	13.301	13.349
TrackDT01	1	TrackDT	1.0	SCS215a	20120417.122313	20120417.122356	single-task	8	0.013328	60	10	60-180	60	166	GapPrac	1	2	2	30	0	distractor	1	857	572	22774	13.328	12.894	13.748
TrackDT01	1	TrackDT	1.0	SCS215a	20120417.122313	20120417.122403	single-task	8	0.013328	60	10	60-180	60	64	GapPrac	1	3	2	3	0	target	0	1084	-1000	21774	13.328	12.916	13.742
TrackDT01	1	TrackDT	1.0	SCS215a	20120417.122313	20120417.122409	single-task	8	0.013328	60	10	60-180	60	177	GapPrac	1	4	2	0	1	target	1	433	784	22558	13.328	12.839	13.822
TrackDT01	1	TrackDT	1.0	SCS215a	20120417.122313	20120417.122415	single-task	8	0.013328	60	10	60-180	60	88	GapPrac	1	5	2	0	0	distractor	1	474	763	23321	13.328	12.987	13.669
TrackDT01	1	TrackDT	1.0	SCS215a	20120417.122313	20120417.122420	single-task	8	0.013328	60	10	60-180	60	99	GapPrac	1	6	2	3	0	distractor	1	991	505	23826	13.328	12.936	13.729
TrackDT01	1	TrackDT	1.0	SCS215a	20120417.122313	20120417.122426	single-task	8	0.013328	60	10	60-180	60	151	GapPrac	1	7	2	3	1	target	1	601	700	24526	13.328	12.921	13.766
TrackDT01	1	TrackDT	1.0	SCS215a	20120417.122313	20120417.122432	single-task	8	0.013328	60	10	60-180	60	84	GapPrac	1	8	2	1	0	distractor	1	717	642	25168	13.329	12.992	13.696
TrackDT01	1	TrackDT	1.0	SCS215a	20120417.122313	20120417.122438	single-task	8	0.013328	60	10	60-180	60	178	GapPrac	1	9	2	1	0	distractor	1	517	742	25910	13.328	13.179	13.465
TrackDT01	1	TrackDT	1.0	SCS215a	20120417.122313	20120417.122444	single-task	8	0.013328	60	10	60-180	60	106	GapPrac	1	10	2	0	0	distractor	1	578	711	26621	13.328	13.307	13.361
TrackDT01	1	TrackDT	1.0	SCS215a	20120417.122313	20120417.122449	single-task	8	0.013328	60	10	60-180	60	118	GapPrac	1	11	2	30	1	target	1	604	698	27319	13.328	12.858	13.797
TrackDT01	1	TrackDT	1.0	SCS215a	20120417.122313	20120417.122455	single-task	8	0.013328	60	10	60-180	60	154	GapPrac	1	12	2	30	0	distractor	1	617	692	28011	13.328	13.017	13.645
TrackDT01	1	TrackDT	1.0	SCS215a	20120417.122313	20120417.122502	single-task	8	0.013328	60	10	60-180	60	158	GapPrac	1	13	2	3	0	distractor	1	710	645	28656	13.328	12.875	13.787
TrackDT01	1	TrackDT	1.0	SCS215a	20120417.122313	20120417.122509	single-task	8	0.013328	60	10	60-180	60	112	GapPrac	1	14	2	0	1	target	1	345	828	29484	13.328	13.302	13.349
TrackDT01	1	TrackDT	1.0	SCS215a	20120417.122313	20120417.122514	single-task	8	0.013328	60	10	60-180	60	150	GapPrac	1	15	2	1	1	target	1	530	735	30219	13.328	12.897	13.760
TrackDT01	1	TrackDT	1.0	SCS215a	20120417.122313	20120417.122520	single-task	8	0.013328	60	10	60-180	60	104	GapPrac	1	16	2	30	0	distractor	1	569	716	30935	13.328	12.919	13.724
TrackDT01	1	TrackDT	1.0	SCS215a	20120417.122313	20120417.122526	single-task	8	0.013328	60	10	60-180	60	168	GapPrac	1	17	2	0	1	distractor	0	404	-1000	29935	13.328	12.864	13.804
TrackDT01	1	TrackDT	1.0	SCS215a	20120417.122313	20120417.122532	single-task	8	0.013328	60	10	60-180	60	78	GapPrac	1	18	2	3	1	target	1	484	758	30693	13.328	13.095	13.554
TrackDT01	1	TrackDT	1.0	SCS215a	20120417.122313	20120417.122537	single-task	8	0.013328	60	10	60-180	60	139	GapPrac	1	19	2	30	1	target	1	472	764	31457	13.328	12.859	13.798
TrackDT01	1	TrackDT	1.0	SCS215a	20120417.122313	20120417.122544	single-task	8	0.013328	60	10	60-180	60	130	GapPrac	1	20	2	1	1	target	1	373	814	32271	13.328	12.992	13.663
TrackDT01	1	TrackDT	1.0	SCS215a	20120417.123100	20120417.123118	single-task	8	0.013299	60	10	60-180	60	179	GapExp	1	1	2	3	1	target	1	767	617	32888	13.328	13.015	13.637
TrackDT01	1	TrackDT	1.0	SCS215a	20120417.123100	20120417.123126	single-task	8	0.013299	60	10	60-180	60	86	GapExp	1	2	2	1	1	target	1	732	634	33522	13.328	11.235	15.414
TrackDT01	1	TrackDT	1.0	SCS215a	20120417.123100	20120417.123131	single-task	8	0.013299	60	10	60-180	60	108	GapExp	1	3	2	0	1	target	1	521	740	34262	13.328	13.308	13.346
TrackDT01	1	TrackDT	1.0	SCS215a	20120417.123100	20120417.123137	single-task	8	0.013299	60	10	60-180	60	100	GapExp	1	4	2	30	1	target	1	342	829	35091	13.328	12.749	13.922
TrackDT01	1	TrackDT	1.0	SCS215a	20120417.123100	20120417.123142	single-task	8	0.013299	60	10	60-180	60	71	GapExp	1	5	2	30	0	distractor	1	315	843	35934	13.328	11.666	14.983
TrackDT01	1	TrackDT	1.0	SCS215a	20120417.123100	20120417.123147	single-task	8	0.013299	60	10	60-180	60	168	GapExp	1	6	2	0	0	target	0	696	-1000	34934	13.328	9.350	17.305
TrackDT01	1	TrackDT	1.0	SCS215a	20120417.123100	20120417.123154	single-task	8	0.013299	60	10	60-180	60	99	GapExp	1	7	2	1	0	distractor	1	456	772	35706	13.328	13.299	13.357
TrackDT01	1	TrackDT	1.0	SCS215a	20120417.123100	20120417.123159	single-task	8	0.013299	60	10	60-180	60	165	GapExp	1	8	2	3	0	distractor	1	488	756	36462	13.328	13.297	13.345
TrackDT01	1	TrackDT	1.0	SCS215a	20120417.123100	20120417.123205	single-task	8	0.013299	60	10	60-180	60	139	GapExp	0	9	2	1	0	distractor	1	686	657	37119	13.328	10.824	15.838
TrackDT01	1	TrackDT	1.0	SCS215a	20120417.123100	20120417.123211	single-task	8	0.013299	60	10	60-180	60	123	GapExp	0	10	2	3	1	distractor	0	1004	-1000	36119	13.328	7.759	18.905
TrackDT01	1	TrackDT	1.0	SCS215a	20120417.123100	20120417.123217	single-task	8	0.013299	60	10	60-180	60	172	GapExp	0	11	2	0	0	distractor	1	759	621	36740	13.328	9.789	16.874
TrackDT01	1	TrackDT	1.0	SCS215a	20120417.123100	20120417.123224	single-task	8	0.013299	60	10	60-180	60	93	GapExp	0	12	2	0	1	target	1	955	523	37263	13.328	11.453	15.216
TrackDT01	1	TrackDT	1.0	SCS215a	20120417.123100	20120417.123230	single-task	8	0.013299	60	10	60-180	60	102	GapExp	0	13	2	3	0	target	0	898	-1000	36263	13.328	13.086	13.565
TrackDT01	1	TrackDT	1.0	SCS215a	20120417.123100	20120417.123236	single-task	8	0.013299	60	10	60-180	60	119	GapExp	0	14	2	0	1	target	1	1184	408	36671	13.328	13.100	13.566
TrackDT01	1	TrackDT	1.0	SCS215a	20120417.123100	20120417.123242	single-task	8	0.013299	60	10	60-180	60	124	GapExp	0	15	2	30	0	distractor	1	462	769	37440	13.328	4.121	22.534
TrackDT01	1	TrackDT	1.0	SCS215a	20120417.123100	20120417.123248	single-task	8	0.013299	60	10	60-180	60	144	GapExp	0	16	2	3	1	distractor	0	355	-1000	36440	13.328	13.310	13.344
TrackDT01	1	TrackDT	1.0	SCS215a	20120417.123100	20120417.123254	single-task	8	0.013299	60	10	60-180	60	61	GapExp	0	17	2	30	1	target	1	606	697	37137	13.328	13.298	13.348
TrackDT01	1	TrackDT	1.0	SCS215a	20120417.123100	20120417.123259	single-task	8	0.013299	60	10	60-180	60	151	GapExp	0	18	2	0	0	target	0	526	-1000	36137	13.328	13.310	13.347
TrackDT01	1	TrackDT	1.0	SCS215a	20120417.123100	20120417.123305	single-task	8	0.013299	60	10	60-180	60	158	GapExp	0	19	2	3	0	distractor	1	336	832	36969	13.328	13.099	13.564
TrackDT01	1	TrackDT	1.0	SCS215a	20120417.123100	20120417.123311	single-task	8	0.013299	60	10	60-180	60	133	GapExp	0	20	2	1	1	target	1	572	714	37683	13.328	13.088	13.565
TrackDT01	1	TrackDT	1.0	SCS215a	20120417.123100	20120417.123317	single-task	8	0.013299	60	10	60-180	60	161	GapExp	0	21	2	0	0	distractor	1	554	723	38406	13.328	12.339	14.328
TrackDT01	1	TrackDT	1.0	SCS215a	20120417.123100	20120417.123323	single-task	8	0.013299	60	10	60-180	60	103	GapExp	0	22	2	30	1	distractor	0	954	-1000	37406	13.328	13.307	13.348
TrackDT01	1	TrackDT	1.0	SCS215a	20120417.123100	20120417.123329	single-task	8	0.013299	60	10	60-180	60	113	GapExp	0	23	2	3	1	distractor	0	335	-1000	36406	13.328	13.307	13.347
TrackDT01	1	TrackDT	1.0	SCS215a	20120417.123100	20120417.123335	single-task	8	0.013299	60	10	60-180	60	118	GapExp	0	24	2	0	0	distractor	1	825	588	36994	13.328	13.114	13.558
TrackDT01	1	TrackDT	1.0	SCS215a	20120417.123100	20120417.123341	single-task	8	0.013299	60	10	60-180	60	160	GapExp	0	25	2	1	1	target	1	415	793	37787	13.328	8.491	18.152
TrackDT01	1	TrackDT	1.0	SCS215a	20120417.123100	20120417.123347	single-task	8	0.013299	60	10	60-180	60	116	GapExp	0	26	2	1	1	target	1	582	709	38496	13.328	10.608	16.043
TrackDT01	1	TrackDT	1.0	SCS215a	20120417.123100	20120417.123353	single-task	8	0.013299	60	10	60-180	60	76	GapExp	0	27	2	1	1	target	1	570	715	39211	13.328	12.750	13.891
TrackDT01	1	TrackDT	1.0	SCS215a	20120417.123100	20120417.123358	single-task	8	0.013299	60	10	60-180	60	88	GapExp	0	28	2	0	0	distractor	1	555	723	39934	13.328	13.206	13.482
TrackDT01	1	TrackDT	1.0	SCS215a	20120417.123100	20120417.123403	single-task	8	0.013299	60	10	60-180	60	179	GapExp	0	29	2	0	0	distractor	1	926	537	40471	13.328	11.024	15.624
TrackDT01	1	TrackDT	1.0	SCS215a	20120417.123100	20120417.123409	single-task	8	0.013299	60	10	60-180	60	120	GapExp	0	30	2	1	0	distractor	1	687	657	41128	13.328	10.858	15.792
TrackDT01	1	TrackDT	1.0	SCS215a	20120417.123100	20120417.123416	single-task	8	0.013299	60	10	60-180	60	157	GapExp	0	31	2	0	1	target	1	408	796	41924	13.328	13.107	13.549
TrackDT01	1	TrackDT	1.0	SCS215a	20120417.123100	20120417.123422	single-task	8	0.013299	60	10	60-180	60	142	GapExp	0	32	2	1	1	target	1	423	789	42713	13.328	13.091	13.550
TrackDT01	1	TrackDT	1.0	SCS215a	20120417.123100	20120417.123427	single-task	8	0.013299	60	10	60-180	60	156	GapExp	0	33	2	30	0	distractor	1	558	721	43434	13.328	12.543	14.106
TrackDT01	1	TrackDT	1.0	SCS215a	20120417.123100	20120417.123434	single-task	8	0.013299	60	10	60-180	60	152	GapExp	0	34	2	1	1	target	1	391	805	44239	13.328	11.546	15.112
TrackDT01	1	TrackDT	1.0	SCS215a	20120417.123100	20120417.123440	single-task	8	0.013299	60	10	60-180	60	143	GapExp	0	35	2	1	0	distractor	1	463	769	45008	13.328	12.230	14.414
TrackDT01	1	TrackDT	1.0	SCS215a	20120417.123100	20120417.123446	single-task	8	0.013299	60	10	60-180	60	61	GapExp	0	36	2	3	0	target	0	746	-1000	44008	13.328	7.305	19.354
TrackDT01	1	TrackDT	1.0	SCS215a	20120417.123100	20120417.123451	single-task	8	0.013299	60	10	60-180	60	87	GapExp	0	37	2	1	1	target	1	535	733	44741	13.328	10.551	16.117
TrackDT01	1	TrackDT	1.0	SCS215a	20120417.123100	20120417.123456	single-task	8	0.013299	60	10	60-180	60	107	GapExp	0	38	2	0	1	target	1	422	789	45530	13.328	8.757	17.906
TrackDT01	1	TrackDT	1.0	SCS215a	20120417.123100	20120417.123501	single-task	8	0.013299	60	10	60-180	60	99	GapExp	0	39	2	0	0	distractor	1	438	781	46311	13.328	11.146	15.525
TrackDT01	1	TrackDT	1.0	SCS215a	20120417.123100	20120417.123507	single-task	8	0.013299	60	10	60-180	60	71	GapExp	0	40	2	3	0	distractor	1	422	789	47100	13.328	13.307	13.356
TrackDT01	1	TrackDT	1.0	SCS215a	20120417.123100	20120417.123511	single-task	8	0.013299	60	10	60-180	60	155	GapExp	0	41	2	1	1	target	1	581	710	47810	13.328	12.289	14.367
TrackDT01	1	TrackDT	1.0	SCS215a	20120417.123100	20120417.123518	single-task	8	0.013299	60	10	60-180	60	70	GapExp	0	42	2	30	1	distractor	0	401	-1000	46810	13.328	13.087	13.565
TrackDT01	1	TrackDT	1.0	SCS215a	20120417.123100	20120417.123523	single-task	8	0.013299	60	10	60-180	60	123	GapExp	0	43	2	1	0	distractor	1	788	606	47416	13.328	10.699	15.968
TrackDT01	1	TrackDT	1.0	SCS215a	20120417.123100	20120417.123529	single-task	8	0.013299	60	10	60-180	60	76	GapExp	0	44	2	3	0	distractor	1	717	642	48058	13.328	13.301	13.355
TrackDT01	1	TrackDT	1.0	SCS215a	20120417.123100	20120417.123534	single-task	8	0.013299	60	10	60-180	60	162	GapExp	0	45	2	0	1	target	1	610	695	48753	13.328	6.295	20.363
TrackDT01	1	TrackDT	1.0	SCS215a	20120417.123100	20120417.123540	single-task	8	0.013299	60	10	60-180	60	111	GapExp	0	46	2	1	0	distractor	1	571	715	49468	13.328	12.642	14.008
TrackDT01	1	TrackDT	1.0	SCS215a	20120417.123100	20120417.123546	single-task	8	0.013299	60	10	60-180	60	85	GapExp	0	47	2	3	0	distractor	1	556	722	50190	13.328	7.021	19.625
TrackDT01	1	TrackDT	1.0	SCS215a	20120417.123100	20120417.123551	single-task	8	0.013299	60	10	60-180	60	135	GapExp	0	48	2	3	0	distractor	1	561	720	50910	13.328	9.546	17.106
TrackDT01	1	TrackDT	1.0	SCS215a	20120417.123100	20120417.123557	single-task	8	0.013299	60	10	60-180	60	132	GapExp	0	49	2	0	1	target	1	385	808	51718	13.328	8.842	17.813
TrackDT01	1	TrackDT	1.0	SCS215a	20120417.123100	20120417.123603	single-task	8	0.013299	60	10	60-180	60	166	GapExp	0	50	2	1	0	distractor	1	471	765	52483	13.328	13.302	13.355
TrackDT01	1	TrackDT	1.0	SCS215a	20120417.123100	20120417.123624	single-task	8	0.013299	60	10	60-180	60	135	GapExp	0	51	2	3	1	target	1	539	731	53214	13.328	13.309	13.346
TrackDT01	1	TrackDT	1.0	SCS215a	20120417.123100	20120417.123631	single-task	8	0.013299	60	10	60-180	60	145	GapExp	0	52	2	0	0	distractor	1	413	794	54008	13.328	7.614	19.056
TrackDT01	1	TrackDT	1.0	SCS215a	20120417.123100	20120417.123637	single-task	8	0.013299	60	10	60-180	60	162	GapExp	0	53	2	3	1	distractor	0	391	-1000	53008	13.328	8.724	17.932
TrackDT01	1	TrackDT	1.0	SCS215a	20120417.123100	20120417.123643	single-task	8	0.013299	60	10	60-180	60	142	GapExp	0	54	2	0	1	target	1	546	727	53735	13.328	11.806	14.858
TrackDT01	1	TrackDT	1.0	SCS215a	20120417.123100	20120417.123648	single-task	8	0.013299	60	10	60-180	60	104	GapExp	0	55	2	30	1	target	1	394	803	54538	13.328	11.737	14.933
TrackDT01	1	TrackDT	1.0	SCS215a	20120417.123100	20120417.123654	single-task	8	0.013299	60	10	60-180	60	151	GapExp	0	56	2	1	0	distractor	1	593	704	55242	13.328	12.837	13.828
TrackDT01	1	TrackDT	1.0	SCS215a	20120417.123100	20120417.123700	single-task	8	0.013299	60	10	60-180	60	169	GapExp	0	57	2	0	1	target	1	388	806	56048	13.328	9.586	17.081
TrackDT01	1	TrackDT	1.0	SCS215a	20120417.123100	20120417.123707	single-task	8	0.013299	60	10	60-180	60	164	GapExp	0	58	2	1	0	distractor	1	480	760	56808	13.328	13.055	13.607
TrackDT01	1	TrackDT	1.0	SCS215a	20120417.123100	20120417.123713	single-task	8	0.013299	60	10	60-180	60	70	GapExp	0	59	2	30	0	distractor	1	480	760	57568	13.328	13.308	13.347
TrackDT01	1	TrackDT	1.0	SCS215a	20120417.123100	20120417.123718	single-task	8	0.013299	60	10	60-180	60	96	GapExp	0	60	2	1	1	target	1	362	819	58387	13.328	8.192	18.474
TrackDT01	1	TrackDT	1.0	SCS215a	20120417.123100	20120417.123723	single-task	8	0.013299	60	10	60-180	60	98	GapExp	0	61	2	1	0	distractor	1	554	723	59110	13.328	8.982	17.687
TrackDT01	1	TrackDT	1.0	SCS215a	20120417.123100	20120417.123728	single-task	8	0.013299	60	10	60-180	60	171	GapExp	0	62	2	1	0	distractor	1	343	829	59939	13.328	13.302	13.355
TrackDT01	1	TrackDT	1.0	SCS215a	20120417.123100	20120417.123734	single-task	8	0.013299	60	10	60-180	60	64	GapExp	0	63	2	30	0	distractor	1	642	679	60618	13.328	7.584	19.063
TrackDT01	1	TrackDT	1.0	SCS215a	20120417.123100	20120417.123740	single-task	8	0.013299	60	10	60-180	60	87	GapExp	0	64	2	0	1	target	1	306	847	61465	13.328	12.583	14.064
TrackDT01	1	TrackDT	1.0	SCS215a	20120417.123100	20120417.123745	single-task	8	0.013299	60	10	60-180	60	97	GapExp	0	65	2	0	1	target	1	314	843	62308	13.328	13.097	13.552
TrackDT01	1	TrackDT	1.0	SCS215a	20120417.123100	20120417.123750	single-task	8	0.013299	60	10	60-180	60	69	GapExp	0	66	2	30	0	distractor	1	404	798	63106	13.328	11.558	15.094
TrackDT01	1	TrackDT	1.0	SCS215a	20120417.123100	20120417.123755	single-task	8	0.013299	60	10	60-180	60	132	GapExp	0	67	2	30	1	target	1	579	711	63817	13.374	4.216	35.757
TrackDT01	1	TrackDT	1.0	SCS215a	20120417.123100	20120417.123801	single-task	8	0.013299	60	10	60-180	60	149	GapExp	0	68	2	1	1	target	1	275	863	64680	13.328	8.781	17.874
TrackDT01	1	TrackDT	1.0	SCS215a	20120417.123100	20120417.123807	single-task	8	0.013299	60	10	60-180	60	81	GapExp	0	69	2	30	1	target	1	527	737	65417	13.328	12.936	13.714
TrackDT01	1	TrackDT	1.0	SCS215a	20120417.123100	20120417.123813	single-task	8	0.013299	60	10	60-180	60	142	GapExp	0	70	2	3	0	distractor	1	349	826	66243	13.328	13.111	13.551
TrackDT01	1	TrackDT	1.0	SCS215a	20120417.123100	20120417.123819	single-task	8	0.013299	60	10	60-180	60	137	GapExp	0	71	2	1	1	target	1	242	879	67122	13.328	9.300	17.364
TrackDT01	1	TrackDT	1.0	SCS215a	20120417.123100	20120417.123824	single-task	8	0.013299	60	10	60-180	60	78	GapExp	0	72	2	0	1	target	1	400	800	67922	13.328	13.307	13.343
TrackDT01	1	TrackDT	1.0	SCS215a	20120417.123100	20120417.123829	single-task	8	0.013299	60	10	60-180	60	114	GapExp	0	73	2	3	1	target	1	313	844	68766	13.328	13.301	13.349
TrackDT01	1	TrackDT	1.0	SCS215a	20120417.123100	20120417.123835	single-task	8	0.013299	60	10	60-180	60	62	GapExp	0	74	2	3	0	distractor	1	553	724	69490	13.328	8.224	18.434
TrackDT01	1	TrackDT	1.0	SCS215a	20120417.123100	20120417.123839	single-task	8	0.013299	60	10	60-180	60	82	GapExp	0	75	2	30	1	target	1	259	871	70361	13.328	10.641	16.014
TrackDT01	1	TrackDT	1.0	SCS215a	20120417.123100	20120417.123845	single-task	8	0.013299	60	10	60-180	60	66	GapExp	0	76	2	30	1	target	1	287	857	71218	13.328	13.223	13.418
TrackDT01	1	TrackDT	1.0	SCS215a	20120417.123100	20120417.123850	single-task	8	0.013299	60	10	60-180	60	75	GapExp	0	77	2	30	0	distractor	1	263	869	72087	13.328	13.085	13.570
TrackDT01	1	TrackDT	1.0	SCS215a	20120417.123100	20120417.123855	single-task	8	0.013299	60	10	60-180	60	136	GapExp	0	78	2	3	0	distractor	1	292	854	72941	13.328	12.781	13.888
TrackDT01	1	TrackDT	1.0	SCS215a	20120417.123100	20120417.123901	single-task	8	0.013299	60	10	60-180	60	144	GapExp	0	79	2	0	1	target	1	259	871	73812	13.328	10.697	15.959
TrackDT01	1	TrackDT	1.0	SCS215a	20120417.123100	20120417.123906	single-task	8	0.013299	60	10	60-180	60	158	GapExp	0	80	2	30	0	distractor	1	395	803	74615	13.328	13.299	13.364
TrackDT01	1	TrackDT	1.0	SCS215a	20120417.123100	20120417.123912	single-task	8	0.013299	60	10	60-180	60	63	GapExp	0	81	2	30	0	distractor	1	454	773	75388	13.328	12.067	14.596
TrackDT01	1	TrackDT	1.0	SCS215a	20120417.123100	20120417.123918	single-task	8	0.013299	60	10	60-180	60	166	GapExp	0	82	2	30	0	target	0	251	-1000	74388	13.328	11.359	15.296
TrackDT01	1	TrackDT	1.0	SCS215a	20120417.123100	20120417.123924	single-task	8	0.013299	60	10	60-180	60	169	GapExp	0	83	2	3	1	target	1	467	767	75155	13.328	13.102	13.551
TrackDT01	1	TrackDT	1.0	SCS215a	20120417.123100	20120417.123931	single-task	8	0.013299	60	10	60-180	60	112	GapExp	0	84	2	0	0	distractor	1	376	812	75967	13.328	9.309	17.346
TrackDT01	1	TrackDT	1.0	SCS215a	20120417.123100	20120417.123936	single-task	8	0.013299	60	10	60-180	60	74	GapExp	0	85	2	30	1	target	1	625	688	76655	13.328	13.308	13.346
TrackDT01	1	TrackDT	1.0	SCS215a	20120417.123100	20120417.123941	single-task	8	0.013299	60	10	60-180	60	155	GapExp	0	86	2	3	1	target	1	320	840	77495	13.328	7.835	18.824
TrackDT01	1	TrackDT	1.0	SCS215a	20120417.123100	20120417.123947	single-task	8	0.013299	60	10	60-180	60	125	GapExp	0	87	2	3	0	distractor	1	437	782	78277	13.328	13.304	13.353
TrackDT01	1	TrackDT	1.0	SCS215a	20120417.123100	20120417.123953	single-task	8	0.013299	60	10	60-180	60	97	GapExp	0	88	2	30	0	distractor	1	318	841	79118	13.328	12.448	14.212
TrackDT01	1	TrackDT	1.0	SCS215a	20120417.123100	20120417.123959	single-task	8	0.013299	60	10	60-180	60	101	GapExp	0	89	2	0	1	distractor	0	400	-1000	78118	13.328	13.113	13.537
TrackDT01	1	TrackDT	1.0	SCS215a	20120417.123100	20120417.124004	single-task	8	0.013299	60	10	60-180	60	170	GapExp	0	90	2	30	0	distractor	1	411	795	78913	13.328	13.083	13.567
TrackDT01	1	TrackDT	1.0	SCS215a	20120417.123100	20120417.124010	single-task	8	0.013299	60	10	60-180	60	178	GapExp	0	91	2	3	1	target	1	496	752	79665	13.328	3.839	22.808
TrackDT01	1	TrackDT	1.0	SCS215a	20120417.123100	20120417.124017	single-task	8	0.013299	60	10	60-180	60	73	GapExp	0	92	2	3	1	target	1	389	806	80471	13.328	11.062	15.593
TrackDT01	1	TrackDT	1.0	SCS215a	20120417.123100	20120417.124021	single-task	8	0.013299	60	10	60-180	60	143	GapExp	0	93	2	3	0	distractor	1	445	778	81249	13.328	6.575	20.089
TrackDT01	1	TrackDT	1.0	SCS215a	20120417.123100	20120417.124028	single-task	8	0.013299	60	10	60-180	60	159	GapExp	0	94	2	30	1	target	1	444	778	82027	13.328	13.086	13.535
TrackDT01	1	TrackDT	1.0	SCS215a	20120417.123100	20120417.124034	single-task	8	0.013299	60	10	60-180	60	118	GapExp	0	95	2	30	1	target	1	368	816	82843	13.328	5.985	20.669
TrackDT01	1	TrackDT	1.0	SCS215a	20120417.123100	20120417.124040	single-task	8	0.013299	60	10	60-180	60	159	GapExp	0	96	2	30	1	target	1	471	765	83608	13.328	8.589	18.068
TrackDT01	1	TrackDT	1.0	SCS215a	20120417.123100	20120417.124046	single-task	8	0.013299	60	10	60-180	60	153	GapExp	0	97	2	0	1	target	1	381	810	84418	13.328	8.897	17.773
TrackDT01	1	TrackDT	1.0	SCS215a	20120417.123100	20120417.124052	single-task	8	0.013299	60	10	60-180	60	83	GapExp	0	98	2	1	0	distractor	1	550	725	85143	13.328	5.773	20.899
TrackDT01	1	TrackDT	1.0	SCS215a	20120417.123100	20120417.124058	single-task	8	0.013299	60	10	60-180	60	121	GapExp	0	99	2	1	0	distractor	1	418	791	85934	13.328	7.325	19.324
TrackDT01	1	TrackDT	1.0	SCS215a	20120417.123100	20120417.124103	single-task	8	0.013299	60	10	60-180	60	157	GapExp	0	100	2	30	1	target	1	265	868	86802	13.328	11.157	15.505
TrackDT01	1	TrackDT	1.0	SCS215a	20120417.123100	20120417.124125	single-task	8	0.013299	60	10	60-180	60	172	GapExp	0	101	2	0	0	target	0	275	-1000	85802	13.328	13.308	13.350
TrackDT01	1	TrackDT	1.0	SCS215a	20120417.123100	20120417.124132	single-task	8	0.013299	60	10	60-180	60	147	GapExp	0	102	2	3	0	distractor	1	441	780	86582	13.328	13.296	13.376
TrackDT01	1	TrackDT	1.0	SCS215a	20120417.123100	20120417.124137	single-task	8	0.013299	60	10	60-180	60	113	GapExp	0	103	2	3	1	target	1	299	851	87433	13.328	13.099	13.558
TrackDT01	1	TrackDT	1.0	SCS215a	20120417.123100	20120417.124143	single-task	8	0.013299	60	10	60-180	60	176	GapExp	0	104	2	3	1	distractor	0	398	-1000	86433	13.328	10.010	16.639
TrackDT01	1	TrackDT	1.0	SCS215a	20120417.123100	20120417.124149	single-task	8	0.013299	60	10	60-180	60	61	GapExp	0	105	2	30	1	distractor	0	686	-1000	85433	13.328	13.301	13.355
TrackDT01	1	TrackDT	1.0	SCS215a	20120417.123100	20120417.124154	single-task	8	0.013299	60	10	60-180	60	156	GapExp	0	106	2	3	0	distractor	1	420	790	86223	13.328	13.307	13.350
TrackDT01	1	TrackDT	1.0	SCS215a	20120417.123100	20120417.124200	single-task	8	0.013299	60	10	60-180	60	96	GapExp	0	107	2	3	1	target	1	368	816	87039	13.328	7.831	18.832
TrackDT01	1	TrackDT	1.0	SCS215a	20120417.123100	20120417.124206	single-task	8	0.013299	60	10	60-180	60	161	GapExp	0	108	2	30	0	distractor	1	513	744	87783	13.328	13.103	13.559
TrackDT01	1	TrackDT	1.0	SCS215a	20120417.123100	20120417.124212	single-task	8	0.013299	60	10	60-180	60	170	GapExp	0	109	2	3	0	distractor	1	508	746	88529	13.328	11.081	15.577
TrackDT01	1	TrackDT	1.0	SCS215a	20120417.123100	20120417.124218	single-task	8	0.013299	60	10	60-180	60	80	GapExp	0	110	2	1	1	target	1	470	765	89294	13.328	13.101	13.563
TrackDT01	1	TrackDT	1.0	SCS215a	20120417.123100	20120417.124223	single-task	8	0.013299	60	10	60-180	60	109	GapExp	0	111	2	1	0	distractor	1	504	748	90042	13.328	13.113	13.536
TrackDT01	1	TrackDT	1.0	SCS215a	20120417.123100	20120417.124229	single-task	8	0.013299	60	10	60-180	60	151	GapExp	0	112	2	1	1	target	1	373	814	90856	13.328	13.007	13.651
TrackDT01	1	TrackDT	1.0	SCS215a	20120417.123100	20120417.124235	single-task	8	0.013299	60	10	60-180	60	174	GapExp	0	113	2	3	0	distractor	1	549	726	91582	13.328	13.289	13.368
TrackDT01	1	TrackDT	1.0	SCS215a	20120417.123100	20120417.124241	single-task	8	0.013299	60	10	60-180	60	171	GapExp	0	114	2	1	0	distractor	1	558	721	92303	13.328	7.003	19.650
TrackDT01	1	TrackDT	1.0	SCS215a	20120417.123100	20120417.124248	single-task	8	0.013299	60	10	60-180	60	151	GapExp	0	115	2	1	1	target	1	335	833	93136	13.328	5.423	21.244
TrackDT01	1	TrackDT	1.0	SCS215a	20120417.123100	20120417.124254	single-task	8	0.013299	60	10	60-180	60	97	GapExp	0	116	2	30	0	distractor	1	439	781	93917	13.328	13.053	13.604
TrackDT01	1	TrackDT	1.0	SCS215a	20120417.123100	20120417.124259	single-task	8	0.013299	60	10	60-180	60	76	GapExp	0	117	2	0	0	distractor	1	826	587	94504	13.388	12.589	27.401
TrackDT01	1	TrackDT	1.0	SCS215a	20120417.123100	20120417.124304	single-task	8	0.013299	60	10	60-180	60	117	GapExp	0	118	2	30	0	target	0	415	-1000	93504	13.328	11.209	15.448
TrackDT01	1	TrackDT	1.0	SCS215a	20120417.123100	20120417.124310	single-task	8	0.013299	60	10	60-180	60	131	GapExp	0	119	2	1	0	distractor	1	671	665	94169	13.328	8.273	18.392
TrackDT01	1	TrackDT	1.0	SCS215a	20120417.123100	20120417.124316	single-task	8	0.013299	60	10	60-180	60	128	GapExp	0	120	2	30	0	target	0	348	-1000	93169	13.328	10.638	16.026
TrackDT01	1	TrackDT	1.0	SCS215a	20120417.123100	20120417.124322	single-task	8	0.013299	60	10	60-180	60	119	GapExp	0	121	2	0	1	distractor	0	625	-1000	92169	13.328	12.577	14.093
TrackDT01	1	TrackDT	1.0	SCS215a	20120417.123100	20120417.124328	single-task	8	0.013299	60	10	60-180	60	80	GapExp	0	122	2	3	0	distractor	1	491	755	92924	13.328	13.305	13.350
TrackDT01	1	TrackDT	1.0	SCS215a	20120417.123100	20120417.124333	single-task	8	0.013299	60	10	60-180	60	162	GapExp	0	123	2	0	0	distractor	1	524	738	93662	13.328	13.308	13.358
TrackDT01	1	TrackDT	1.0	SCS215a	20120417.123100	20120417.124339	single-task	8	0.013299	60	10	60-180	60	86	GapExp	0	124	2	0	0	target	0	574	-1000	92662	13.328	11.175	15.483
TrackDT01	1	TrackDT	1.0	SCS215a	20120417.123100	20120417.124344	single-task	8	0.013299	60	10	60-180	60	77	GapExp	0	125	2	1	1	target	1	596	702	93364	13.328	10.191	16.471
TrackDT01	1	TrackDT	1.0	SCS215a	20120417.123100	20120417.124350	single-task	8	0.013299	60	10	60-180	60	85	GapExp	0	126	2	1	0	distractor	1	472	764	94128	13.328	11.738	14.920
TrackDT01	1	TrackDT	1.0	SCS215a	20120417.123100	20120417.124355	single-task	8	0.013299	60	10	60-180	60	169	GapExp	0	127	2	0	1	target	1	363	819	94947	13.328	10.762	15.898
TrackDT01	1	TrackDT	1.0	SCS215a	20120417.123100	20120417.124401	single-task	8	0.013299	60	10	60-180	60	100	GapExp	0	128	2	0	1	target	1	302	849	95796	13.328	8.256	18.387
TrackDT01	1	TrackDT	1.0	SCS215a	20120417.123100	20120417.124406	single-task	8	0.013299	60	10	60-180	60	83	GapExp	0	129	2	3	1	target	1	302	849	96645	13.328	3.991	22.664
TrackDT01	1	TrackDT	1.0	SCS215a	20120417.123100	20120417.124411	single-task	8	0.013299	60	10	60-180	60	154	GapExp	0	130	2	30	0	distractor	1	260	870	97515	13.328	12.174	14.482
TrackDT01	1	TrackDT	1.0	SCS215a	20120417.123100	20120417.124417	single-task	8	0.013299	60	10	60-180	60	73	GapExp	0	131	2	1	0	target	0	580	-1000	96515	13.328	7.970	18.664
TrackDT01	1	TrackDT	1.0	SCS215a	20120417.123100	20120417.124422	single-task	8	0.013299	60	10	60-180	60	96	GapExp	0	132	2	3	0	distractor	1	362	819	97334	13.328	13.300	13.356
TrackDT01	1	TrackDT	1.0	SCS215a	20120417.123100	20120417.124427	single-task	8	0.013299	60	10	60-180	60	172	GapExp	0	133	2	3	1	target	1	363	819	98153	13.328	8.184	18.471
TrackDT01	1	TrackDT	1.0	SCS215a	20120417.123100	20120417.124433	single-task	8	0.013299	60	10	60-180	60	155	GapExp	0	134	2	1	0	target	0	371	-1000	97153	13.328	12.409	14.240
TrackDT01	1	TrackDT	1.0	SCS215a	20120417.123100	20120417.124439	single-task	8	0.013299	60	10	60-180	60	106	GapExp	0	135	2	1	0	distractor	1	534	733	97886	13.328	10.880	15.763
TrackDT01	1	TrackDT	1.0	SCS215a	20120417.123100	20120417.124445	single-task	8	0.013299	60	10	60-180	60	80	GapExp	0	136	2	1	1	target	1	441	780	98666	13.328	9.223	17.435
TrackDT01	1	TrackDT	1.0	SCS215a	20120417.123100	20120417.124450	single-task	8	0.013299	60	10	60-180	60	129	GapExp	0	137	2	3	1	target	1	289	856	99522	13.328	13.295	13.360
TrackDT01	1	TrackDT	1.0	SCS215a	20120417.123100	20120417.124456	single-task	8	0.013299	60	10	60-180	60	97	GapExp	0	138	2	30	1	target	1	456	772	100294	13.328	10.251	16.397
TrackDT01	1	TrackDT	1.0	SCS215a	20120417.123100	20120417.124501	single-task	8	0.013299	60	10	60-180	60	101	GapExp	0	139	2	30	0	distractor	1	816	592	100886	13.328	11.291	15.366
TrackDT01	1	TrackDT	1.0	SCS215a	20120417.123100	20120417.124507	single-task	8	0.013299	60	10	60-180	60	113	GapExp	0	140	2	30	1	target	1	268	866	101752	13.328	6.988	19.654
TrackDT01	1	TrackDT	1.0	SCS215a	20120417.123100	20120417.124513	single-task	8	0.013299	60	10	60-180	60	103	GapExp	0	141	2	0	0	distractor	1	465	768	102520	13.328	13.106	13.552
TrackDT01	1	TrackDT	1.0	SCS215a	20120417.123100	20120417.124518	single-task	8	0.013299	60	10	60-180	60	72	GapExp	0	142	2	0	1	target	1	331	835	103355	13.328	13.289	13.367
TrackDT01	1	TrackDT	1.0	SCS215a	20120417.123100	20120417.124523	single-task	8	0.013299	60	10	60-180	60	102	GapExp	0	143	2	30	1	target	1	403	799	104154	13.328	9.382	17.283
TrackDT01	1	TrackDT	1.0	SCS215a	20120417.123100	20120417.124529	single-task	8	0.013299	60	10	60-180	60	126	GapExp	0	144	2	30	0	target	0	337	-1000	103154	13.328	13.101	13.559
TrackDT01	1	TrackDT	1.0	SCS215a	20120417.123100	20120417.124535	single-task	8	0.013299	60	10	60-180	60	136	GapExp	0	145	2	3	0	target	0	358	-1000	102154	13.328	12.402	14.269
TrackDT01	1	TrackDT	1.0	SCS215a	20120417.123100	20120417.124540	single-task	8	0.013299	60	10	60-180	60	90	GapExp	0	146	2	0	1	target	1	671	665	102819	13.328	13.042	13.593
TrackDT01	1	TrackDT	1.0	SCS215a	20120417.123100	20120417.124546	single-task	8	0.013299	60	10	60-180	60	164	GapExp	0	147	2	30	1	distractor	0	279	-1000	101819	13.328	8.356	18.300
TrackDT01	1	TrackDT	1.0	SCS215a	20120417.123100	20120417.124552	single-task	8	0.013299	60	10	60-180	60	67	GapExp	0	148	2	30	0	target	0	302	-1000	100819	13.328	10.254	16.388
TrackDT01	1	TrackDT	1.0	SCS215a	20120417.123100	20120417.124557	single-task	8	0.013299	60	10	60-180	60	144	GapExp	0	149	2	1	1	target	1	360	820	101639	13.328	9.131	17.526
TrackDT01	1	TrackDT	1.0	SCS215a	20120417.123100	20120417.124603	single-task	8	0.013299	60	10	60-180	60	175	GapExp	0	150	2	0	0	distractor	1	470	765	102404	13.328	7.257	19.403
TrackDT01	1	TrackDT	1.0	SCS215a	20120417.123100	20120417.124615	single-task	8	0.013299	60	10	60-180	60	66	GapExp	0	151	2	30	0	target	0	522	-1000	101404	13.328	13.307	13.348
TrackDT01	1	TrackDT	1.0	SCS215a	20120417.123100	20120417.124620	single-task	8	0.013299	60	10	60-180	60	94	GapExp	0	152	2	3	1	target	1	302	849	102253	13.328	10.918	15.745
TrackDT01	1	TrackDT	1.0	SCS215a	20120417.123100	20120417.124625	single-task	8	0.013299	60	10	60-180	60	133	GapExp	0	153	2	1	1	target	1	289	856	103109	13.328	13.229	13.419
TrackDT01	1	TrackDT	1.0	SCS215a	20120417.123100	20120417.124631	single-task	8	0.013299	60	10	60-180	60	103	GapExp	0	154	2	1	1	target	1	399	801	103910	13.328	13.098	13.551
TrackDT01	1	TrackDT	1.0	SCS215a	20120417.123100	20120417.124637	single-task	8	0.013299	60	10	60-180	60	178	GapExp	0	155	2	1	0	distractor	1	518	741	104651	13.328	4.542	22.105
TrackDT01	1	TrackDT	1.0	SCS215a	20120417.123100	20120417.124643	single-task	8	0.013299	60	10	60-180	60	76	GapExp	0	156	2	1	0	distractor	1	573	714	105365	13.328	13.304	13.352
TrackDT01	1	TrackDT	1.0	SCS215a	20120417.123100	20120417.124648	single-task	8	0.013299	60	10	60-180	60	135	GapExp	0	157	2	30	1	target	1	415	793	106158	13.328	11.718	15.001
TrackDT01	1	TrackDT	1.0	SCS215a	20120417.123100	20120417.124654	single-task	8	0.013299	60	10	60-180	60	83	GapExp	0	158	2	0	0	target	0	342	-1000	105158	13.328	7.962	18.697
TrackDT01	1	TrackDT	1.0	SCS215a	20120417.123100	20120417.124659	single-task	8	0.013299	60	10	60-180	60	123	GapExp	0	159	2	0	1	target	1	538	731	105889	13.328	11.808	14.830
TrackDT01	1	TrackDT	1.0	SCS215a	20120417.123100	20120417.124704	single-task	8	0.013299	60	10	60-180	60	67	GapExp	0	160	2	30	0	distractor	1	356	822	106711	13.392	10.402	29.149
TrackDT01	1	TrackDT	1.0	SCS215a	20120417.123100	20120417.124710	single-task	8	0.013299	60	10	60-180	60	107	GapExp	0	161	2	3	1	target	1	501	750	107461	13.328	11.248	15.405
TrackDT01	1	TrackDT	1.0	SCS215a	20120417.123100	20120417.124715	single-task	8	0.013299	60	10	60-180	60	76	GapExp	0	162	2	1	1	target	1	426	787	108248	13.328	13.306	13.351
TrackDT01	1	TrackDT	1.0	SCS215a	20120417.123100	20120417.124720	single-task	8	0.013299	60	10	60-180	60	72	GapExp	0	163	2	3	1	target	1	480	760	109008	13.328	8.524	18.146
TrackDT01	1	TrackDT	1.0	SCS215a	20120417.123100	20120417.124725	single-task	8	0.013299	60	10	60-180	60	151	GapExp	0	164	2	1	0	distractor	1	457	772	109780	13.328	12.674	14.009
TrackDT01	1	TrackDT	1.0	SCS215a	20120417.123100	20120417.124731	single-task	8	0.013299	60	10	60-180	60	151	GapExp	0	165	2	30	0	distractor	1	605	698	110478	13.328	11.362	15.285
TrackDT01	1	TrackDT	1.0	SCS215a	20120417.123100	20120417.124737	single-task	8	0.013299	60	10	60-180	60	88	GapExp	0	166	2	0	0	target	0	440	-1000	109478	13.328	10.244	16.412
TrackDT01	1	TrackDT	1.0	SCS215a	20120417.123100	20120417.124743	single-task	8	0.013299	60	10	60-180	60	119	GapExp	0	167	2	0	0	distractor	1	916	542	110020	13.328	12.492	14.178
TrackDT01	1	TrackDT	1.0	SCS215a	20120417.123100	20120417.124749	single-task	8	0.013299	60	10	60-180	60	157	GapExp	0	168	2	30	0	distractor	1	745	628	110648	13.328	13.098	13.551
TrackDT01	1	TrackDT	1.0	SCS215a	20120417.123100	20120417.124755	single-task	8	0.013299	60	10	60-180	60	103	GapExp	0	169	2	1	0	target	0	581	-1000	109648	13.328	8.989	17.662
TrackDT01	1	TrackDT	1.0	SCS215a	20120417.123100	20120417.124801	single-task	8	0.013299	60	10	60-180	60	68	GapExp	0	170	2	0	0	distractor	1	618	691	110339	13.328	8.485	18.453
TrackDT01	1	TrackDT	1.0	SCS215a	20120417.123100	20120417.124806	single-task	8	0.013299	60	10	60-180	60	157	GapExp	0	171	2	1	1	target	1	393	804	111143	13.328	13.296	13.358
TrackDT01	1	TrackDT	1.0	SCS215a	20120417.123100	20120417.124812	single-task	8	0.013299	60	10	60-180	60	81	GapExp	0	172	2	0	1	target	1	436	782	111925	13.328	13.301	13.349
TrackDT01	1	TrackDT	1.0	SCS215a	20120417.123100	20120417.124817	single-task	8	0.013299	60	10	60-180	60	132	GapExp	0	173	2	0	0	distractor	1	610	695	112620	13.328	13.102	13.543
TrackDT01	1	TrackDT	1.0	SCS215a	20120417.123100	20120417.124823	single-task	8	0.013299	60	10	60-180	60	159	GapExp	0	174	2	1	0	distractor	1	493	754	113374	13.328	9.737	16.918
TrackDT01	1	TrackDT	1.0	SCS215a	20120417.123100	20120417.124829	single-task	8	0.013299	60	10	60-180	60	75	GapExp	0	175	2	0	0	distractor	1	522	739	114113	13.328	13.051	13.618
TrackDT01	1	TrackDT	1.0	SCS215a	20120417.123100	20120417.124834	single-task	8	0.013299	60	10	60-180	60	121	GapExp	0	176	2	3	0	distractor	1	498	751	114864	13.328	2.534	24.176
TrackDT01	1	TrackDT	1.0	SCS215a	20120417.123100	20120417.124839	single-task	8	0.013299	60	10	60-180	60	120	GapExp	0	177	2	3	1	target	1	423	789	115653	13.328	6.712	20.000
TrackDT01	1	TrackDT	1.0	SCS215a	20120417.123100	20120417.124845	single-task	8	0.013299	60	10	60-180	60	140	GapExp	0	178	2	0	1	target	1	503	749	116402	13.328	11.949	14.880
TrackDT01	1	TrackDT	1.0	SCS215a	20120417.123100	20120417.124851	single-task	8	0.013299	60	10	60-180	60	103	GapExp	0	179	2	3	1	target	1	544	728	117130	13.328	13.111	13.546
TrackDT01	1	TrackDT	1.0	SCS215a	20120417.123100	20120417.124857	single-task	8	0.013299	60	10	60-180	60	74	GapExp	0	180	2	1	1	target	1	387	807	117937	13.328	8.447	18.198
TrackDT01	1	TrackDT	1.0	SCS215a	20120417.123100	20120417.124901	single-task	8	0.013299	60	10	60-180	60	128	GapExp	0	181	2	30	1	target	1	286	857	118794	13.328	11.225	15.432
TrackDT01	1	TrackDT	1.0	SCS215a	20120417.123100	20120417.124907	single-task	8	0.013299	60	10	60-180	60	170	GapExp	0	182	2	30	1	target	1	332	834	119628	13.328	10.730	15.940
TrackDT01	1	TrackDT	1.0	SCS215a	20120417.123100	20120417.124914	single-task	8	0.013299	60	10	60-180	60	156	GapExp	0	183	2	3	0	target	0	349	-1000	118628	13.328	6.323	20.329
TrackDT01	1	TrackDT	1.0	SCS215a	20120417.123100	20120417.124920	single-task	8	0.013299	60	10	60-180	60	85	GapExp	0	184	2	0	0	distractor	1	646	677	119305	13.328	8.606	18.057
TrackDT01	1	TrackDT	1.0	SCS215a	20120417.123100	20120417.124925	single-task	8	0.013299	60	10	60-180	60	92	GapExp	0	185	2	3	0	distractor	1	481	760	120065	13.328	13.107	13.564
TrackDT01	1	TrackDT	1.0	SCS215a	20120417.123100	20120417.124930	single-task	8	0.013299	60	10	60-180	60	165	GapExp	0	186	2	3	0	distractor	1	578	711	120776	13.328	12.161	14.502
TrackDT01	1	TrackDT	1.0	SCS215a	20120417.123100	20120417.124937	single-task	8	0.013299	60	10	60-180	60	101	GapExp	0	187	2	30	1	target	1	389	806	121582	13.328	6.272	20.390
TrackDT01	1	TrackDT	1.0	SCS215a	20120417.123100	20120417.124942	single-task	8	0.013299	60	10	60-180	60	88	GapExp	0	188	2	3	0	distractor	1	381	810	122392	13.328	12.668	13.987
TrackDT01	1	TrackDT	1.0	SCS215a	20120417.123100	20120417.124947	single-task	8	0.013299	60	10	60-180	60	68	GapExp	0	189	2	3	1	target	1	355	823	123215	13.328	7.607	19.048
TrackDT01	1	TrackDT	1.0	SCS215a	20120417.123100	20120417.124952	single-task	8	0.013299	60	10	60-180	60	69	GapExp	0	190	2	30	1	early	-4	-168	-1000	122215	13.328	13.301	13.360
TrackDT01	1	TrackDT	1.0	SCS215a	20120417.123100	20120417.124958	single-task	8	0.013299	60	10	60-180	60	110	GapExp	0	191	2	0	1	target	1	341	830	123045	13.328	13.290	13.362
TrackDT01	1	TrackDT	1.0	SCS215a	20120417.123100	20120417.125003	single-task	8	0.013299	60	10	60-180	60	86	GapExp	0	192	2	30	0	distractor	1	378	811	123856	13.328	9.774	16.886
TrackDT01	1	TrackDT	1.0	SCS215a	20120417.123100	20120417.125008	single-task	8	0.013299	60	10	60-180	60	78	GapExp	0	193	2	30	1	target	1	270	865	124721	13.328	11.318	15.333
TrackDT01	1	TrackDT	1.0	SCS215a	20120417.123100	20120417.125013	single-task	8	0.013299	60	10	60-180	60	62	GapExp	0	194	2	0	0	distractor	1	412	794	125515	13.328	13.310	13.344
TrackDT01	1	TrackDT	1.0	SCS215a	20120417.123100	20120417.125018	single-task	8	0.013299	60	10	60-180	60	176	GapExp	0	195	2	0	1	target	1	309	846	126361	13.328	9.600	16.247
TrackDT01	1	TrackDT	1.0	SCS215a	20120417.123100	20120417.125024	single-task	8	0.013299	60	10	60-180	60	63	GapExp	0	196	2	1	1	distractor	0	402	-1000	125361	13.328	13.308	13.345
TrackDT01	1	TrackDT	1.0	SCS215a	20120417.123100	20120417.125029	single-task	8	0.013299	60	10	60-180	60	142	GapExp	0	197	2	3	1	target	1	378	811	126172	13.328	12.039	14.597
TrackDT01	1	TrackDT	1.0	SCS215a	20120417.123100	20120417.125035	single-task	8	0.013299	60	10	60-180	60	169	GapExp	0	198	2	1	1	target	1	337	832	127004	13.328	10.844	15.805
TrackDT01	1	TrackDT	1.0	SCS215a	20120417.123100	20120417.125041	single-task	8	0.013299	60	10	60-180	60	108	GapExp	0	199	2	0	0	distractor	1	574	713	127717	13.328	7.768	18.894
TrackDT01	1	TrackDT	1.0	SCS215a	20120417.123100	20120417.125046	single-task	8	0.013299	60	10	60-180	60	170	GapExp	0	200	2	3	1	target	1	321	840	128557	13.328	9.775	16.864
TrackDT01	1	TrackDT	1.0	SCS215a	20120417.125248	20120417.125314	dt-shadow	8	0.013328	60	10	60-180	60	98	GapPrac	1	1	2	30	1	distractor	0	322	-1000	127557	13.328	13.307	13.346
TrackDT01	1	TrackDT	1.0	SCS215a	20120417.125248	20120417.125320	dt-shadow	8	0.013328	60	10	60-180	60	167	GapPrac	1	2	2	3	1	target	1	254	873	128430	13.328	13.301	13.355
TrackDT01	1	TrackDT	1.0	SCS215a	20120417.125248	20120417.125326	dt-shadow	8	0.013328	60	10	60-180	60	82	GapPrac	1	3	2	30	0	distractor	1	361	820	129250	13.328	13.062	13.594
TrackDT01	1	TrackDT	1.0	SCS215a	20120417.125248	20120417.125331	dt-shadow	8	0.013328	60	10	60-180	60	100	GapPrac	1	4	2	3	0	distractor	1	685	658	129908	13.328	13.000	13.663
TrackDT01	1	TrackDT	1.0	SCS215a	20120417.125248	20120417.125337	dt-shadow	8	0.013328	60	10	60-180	60	113	GapPrac	1	5	2	1	1	target	1	277	862	130770	13.328	12.865	13.793
TrackDT01	1	TrackDT	1.0	SCS215a	20120417.125248	20120417.125342	dt-shadow	8	0.013328	60	10	60-180	60	137	GapPrac	1	6	2	1	1	target	1	313	844	131614	13.328	13.058	13.601
TrackDT01	1	TrackDT	1.0	SCS215a	20120417.125248	20120417.125348	dt-shadow	8	0.013328	60	10	60-180	60	87	GapPrac	1	7	2	3	1	target	1	435	783	132397	13.328	12.906	13.756
TrackDT01	1	TrackDT	1.0	SCS215a	20120417.125248	20120417.125353	dt-shadow	8	0.013328	60	10	60-180	60	85	GapPrac	1	8	2	30	0	distractor	1	472	764	133161	13.328	13.098	13.570
TrackDT01	1	TrackDT	1.0	SCS215a	20120417.125248	20120417.125359	dt-shadow	8	0.013328	60	10	60-180	60	104	GapPrac	1	9	2	0	1	target	1	442	779	133940	13.328	12.864	13.785
TrackDT01	1	TrackDT	1.0	SCS215a	20120417.125248	20120417.125404	dt-shadow	8	0.013328	60	10	60-180	60	137	GapPrac	1	10	2	3	0	distractor	1	340	830	134770	13.328	13.063	13.593
TrackDT01	1	TrackDT	1.0	SCS215a	20120417.125248	20120417.125410	dt-shadow	8	0.013328	60	10	60-180	60	161	GapPrac	1	11	2	3	1	target	1	333	834	135604	13.328	13.178	13.463
TrackDT01	1	TrackDT	1.0	SCS215a	20120417.125248	20120417.125416	dt-shadow	8	0.013328	60	10	60-180	60	142	GapPrac	1	12	2	30	0	distractor	1	381	810	136414	13.328	12.825	13.833
TrackDT01	1	TrackDT	1.0	SCS215a	20120417.125248	20120417.125422	dt-shadow	8	0.013328	60	10	60-180	60	95	GapPrac	1	13	2	1	0	distractor	1	721	640	137054	13.328	13.011	13.635
TrackDT01	1	TrackDT	1.0	SCS215a	20120417.125248	20120417.125428	dt-shadow	8	0.013328	60	10	60-180	60	153	GapPrac	1	14	2	0	1	target	1	290	855	137909	13.328	12.980	13.681
TrackDT01	1	TrackDT	1.0	SCS215a	20120417.125248	20120417.125433	dt-shadow	8	0.013328	60	10	60-180	60	91	GapPrac	1	15	2	3	0	distractor	1	420	790	138699	13.328	12.968	13.687
TrackDT01	1	TrackDT	1.0	SCS215a	20120417.125248	20120417.125438	dt-shadow	8	0.013328	60	10	60-180	60	159	GapPrac	1	16	2	30	1	target	1	270	865	139564	13.328	12.987	13.661
TrackDT01	1	TrackDT	1.0	SCS215a	20120417.125248	20120417.125445	dt-shadow	8	0.013328	60	10	60-180	60	163	GapPrac	1	17	2	30	1	target	1	331	835	140399	13.328	12.895	13.765
TrackDT01	1	TrackDT	1.0	SCS215a	20120417.125248	20120417.125451	dt-shadow	8	0.013328	60	10	60-180	60	84	GapPrac	1	18	2	0	0	distractor	1	407	797	141196	13.328	12.862	13.796
TrackDT01	1	TrackDT	1.0	SCS215a	20120417.125248	20120417.125456	dt-shadow	8	0.013328	60	10	60-180	60	96	GapPrac	1	19	2	0	0	distractor	1	533	734	141930	13.328	12.918	13.741
TrackDT01	1	TrackDT	1.0	SCS215a	20120417.125248	20120417.125502	dt-shadow	8	0.013328	60	10	60-180	60	75	GapPrac	1	20	2	1	0	distractor	1	511	745	142675	13.328	12.901	13.755
TrackDT01	1	TrackDT	1.0	SCS215a	20120417.125603	20120417.125612	dt-shadow	8	0.013336	60	10	60-180	60	123	GapExp	1	1	2	0	1	distractor	0	283	-1000	141675	13.328	13.307	13.348
TrackDT01	1	TrackDT	1.0	SCS215a	20120417.125603	20120417.125618	dt-shadow	8	0.013336	60	10	60-180	60	87	GapExp	1	2	2	0	0	distractor	1	550	725	142400	13.328	8.934	17.722
TrackDT01	1	TrackDT	1.0	SCS215a	20120417.125603	20120417.125623	dt-shadow	8	0.013336	60	10	60-180	60	176	GapExp	1	3	2	30	1	target	1	270	865	143265	13.328	13.308	13.346
TrackDT01	1	TrackDT	1.0	SCS215a	20120417.125603	20120417.125629	dt-shadow	8	0.013336	60	10	60-180	60	122	GapExp	1	4	2	1	0	target	0	624	-1000	142265	13.328	13.309	13.345
TrackDT01	1	TrackDT	1.0	SCS215a	20120417.125603	20120417.125635	dt-shadow	8	0.013336	60	10	60-180	60	142	GapExp	1	5	2	3	1	target	1	355	823	143088	13.328	7.916	18.745
TrackDT01	1	TrackDT	1.0	SCS215a	20120417.125603	20120417.125641	dt-shadow	8	0.013336	60	10	60-180	60	74	GapExp	1	6	2	30	0	distractor	1	490	755	143843	13.328	10.630	16.025
TrackDT01	1	TrackDT	1.0	SCS215a	20120417.125603	20120417.125646	dt-shadow	8	0.013336	60	10	60-180	60	65	GapExp	1	7	2	1	1	target	1	369	816	144659	13.328	11.191	15.473
TrackDT01	1	TrackDT	1.0	SCS215a	20120417.125603	20120417.125651	dt-shadow	8	0.013336	60	10	60-180	60	78	GapExp	1	8	2	3	0	distractor	1	880	560	145219	13.328	11.340	15.321
TrackDT01	1	TrackDT	1.0	SCS215a	20120417.125603	20120417.125657	dt-shadow	8	0.013336	60	10	60-180	60	85	GapExp	0	9	2	3	1	target	1	448	776	145995	13.328	11.351	15.291
TrackDT01	1	TrackDT	1.0	SCS215a	20120417.125603	20120417.125702	dt-shadow	8	0.013336	60	10	60-180	60	143	GapExp	0	10	2	1	1	target	1	534	733	146728	13.328	6.699	22.873
TrackDT01	1	TrackDT	1.0	SCS215a	20120417.125603	20120417.125708	dt-shadow	8	0.013336	60	10	60-180	60	120	GapExp	0	11	2	3	0	distractor	1	341	830	147558	13.328	9.260	17.399
TrackDT01	1	TrackDT	1.0	SCS215a	20120417.125603	20120417.125713	dt-shadow	8	0.013336	60	10	60-180	60	94	GapExp	0	12	2	0	1	distractor	0	494	-1000	146558	13.328	7.062	19.592
TrackDT01	1	TrackDT	1.0	SCS215a	20120417.125603	20120417.125718	dt-shadow	8	0.013336	60	10	60-180	60	126	GapExp	0	13	2	1	1	target	1	365	818	147376	13.328	7.810	18.854
TrackDT01	1	TrackDT	1.0	SCS215a	20120417.125603	20120417.125724	dt-shadow	8	0.013336	60	10	60-180	60	102	GapExp	0	14	2	0	1	target	1	356	822	148198	13.328	7.996	18.657
TrackDT01	1	TrackDT	1.0	SCS215a	20120417.125603	20120417.125729	dt-shadow	8	0.013336	60	10	60-180	60	180	GapExp	0	15	2	3	0	distractor	1	467	767	148965	13.328	10.259	16.396
TrackDT01	1	TrackDT	1.0	SCS215a	20120417.125603	20120417.125736	dt-shadow	8	0.013336	60	10	60-180	60	135	GapExp	0	16	2	1	1	target	1	313	844	149809	13.328	8.400	18.250
TrackDT01	1	TrackDT	1.0	SCS215a	20120417.125603	20120417.125741	dt-shadow	8	0.013336	60	10	60-180	60	160	GapExp	0	17	2	1	1	distractor	0	340	-1000	148809	13.328	13.305	13.366
TrackDT01	1	TrackDT	1.0	SCS215a	20120417.125603	20120417.125747	dt-shadow	8	0.013336	60	10	60-180	60	135	GapExp	0	18	2	3	1	target	1	575	713	149522	13.328	9.617	17.037
TrackDT01	1	TrackDT	1.0	SCS215a	20120417.125603	20120417.125753	dt-shadow	8	0.013336	60	10	60-180	60	134	GapExp	0	19	2	0	1	target	1	339	831	150353	13.328	9.511	17.149
TrackDT01	1	TrackDT	1.0	SCS215a	20120417.125603	20120417.125759	dt-shadow	8	0.013336	60	10	60-180	60	146	GapExp	0	20	2	0	1	target	1	522	739	151092	13.328	11.361	15.297
TrackDT01	1	TrackDT	1.0	SCS215a	20120417.125603	20120417.125805	dt-shadow	8	0.013336	60	10	60-180	60	174	GapExp	0	21	2	1	0	distractor	1	461	770	151862	13.328	10.736	15.926
TrackDT01	1	TrackDT	1.0	SCS215a	20120417.125603	20120417.125811	dt-shadow	8	0.013336	60	10	60-180	60	178	GapExp	0	22	2	3	0	distractor	1	518	741	152603	13.328	9.018	17.619
TrackDT01	1	TrackDT	1.0	SCS215a	20120417.125603	20120417.125817	dt-shadow	8	0.013336	60	10	60-180	60	77	GapExp	0	23	2	3	0	distractor	1	643	679	153282	13.328	10.965	15.685
TrackDT01	1	TrackDT	1.0	SCS215a	20120417.125603	20120417.125822	dt-shadow	8	0.013336	60	10	60-180	60	102	GapExp	0	24	2	1	1	target	1	508	746	154028	13.328	12.090	14.567
TrackDT01	1	TrackDT	1.0	SCS215a	20120417.125603	20120417.125828	dt-shadow	8	0.013336	60	10	60-180	60	127	GapExp	0	25	2	0	1	target	1	587	707	154735	13.328	8.955	17.709
TrackDT01	1	TrackDT	1.0	SCS215a	20120417.125603	20120417.125834	dt-shadow	8	0.013336	60	10	60-180	60	108	GapExp	0	26	2	30	0	distractor	1	475	763	155498	13.328	7.245	19.416
TrackDT01	1	TrackDT	1.0	SCS215a	20120417.125603	20120417.125840	dt-shadow	8	0.013336	60	10	60-180	60	87	GapExp	0	27	2	0	0	distractor	1	579	711	156209	13.328	5.196	21.473
TrackDT01	1	TrackDT	1.0	SCS215a	20120417.125603	20120417.125845	dt-shadow	8	0.013336	60	10	60-180	60	77	GapExp	0	28	2	0	0	distractor	1	799	601	156810	13.328	10.987	15.673
TrackDT01	1	TrackDT	1.0	SCS215a	20120417.125603	20120417.125850	dt-shadow	8	0.013336	60	10	60-180	60	74	GapExp	0	29	2	30	0	distractor	1	461	770	157580	13.328	9.452	17.204
TrackDT01	1	TrackDT	1.0	SCS215a	20120417.125603	20120417.125855	dt-shadow	8	0.013336	60	10	60-180	60	170	GapExp	0	30	2	0	1	target	1	340	830	158410	13.328	13.306	13.355
TrackDT01	1	TrackDT	1.0	SCS215a	20120417.125603	20120417.125901	dt-shadow	8	0.013336	60	10	60-180	60	73	GapExp	0	31	2	0	1	target	1	511	745	159155	13.328	7.862	18.791
TrackDT01	1	TrackDT	1.0	SCS215a	20120417.125603	20120417.125907	dt-shadow	8	0.013336	60	10	60-180	60	163	GapExp	0	32	2	30	1	target	1	279	861	160016	13.328	11.788	14.862
TrackDT01	1	TrackDT	1.0	SCS215a	20120417.125603	20120417.125913	dt-shadow	8	0.013336	60	10	60-180	60	101	GapExp	0	33	2	0	0	target	0	368	-1000	159016	13.328	13.296	13.359
TrackDT01	1	TrackDT	1.0	SCS215a	20120417.125603	20120417.125918	dt-shadow	8	0.013336	60	10	60-180	60	146	GapExp	0	34	2	3	0	target	0	629	-1000	158016	13.328	6.517	20.152
TrackDT01	1	TrackDT	1.0	SCS215a	20120417.125603	20120417.125924	dt-shadow	8	0.013336	60	10	60-180	60	89	GapExp	0	35	2	0	1	target	1	635	683	158699	13.328	9.004	17.640
TrackDT01	1	TrackDT	1.0	SCS215a	20120417.125603	20120417.125930	dt-shadow	8	0.013336	60	10	60-180	60	114	GapExp	0	36	2	30	1	target	1	378	811	159510	13.328	13.092	13.565
TrackDT01	1	TrackDT	1.0	SCS215a	20120417.125603	20120417.125935	dt-shadow	8	0.013336	60	10	60-180	60	61	GapExp	0	37	2	30	0	distractor	1	497	752	160262	13.328	13.309	13.347
TrackDT01	1	TrackDT	1.0	SCS215a	20120417.125603	20120417.125941	dt-shadow	8	0.013336	60	10	60-180	60	116	GapExp	0	38	2	3	1	distractor	0	376	-1000	159262	13.328	13.308	13.348
TrackDT01	1	TrackDT	1.0	SCS215a	20120417.125603	20120417.125946	dt-shadow	8	0.013336	60	10	60-180	60	99	GapExp	0	39	2	30	0	distractor	1	478	761	160023	13.328	12.049	14.600
TrackDT01	1	TrackDT	1.0	SCS215a	20120417.125603	20120417.125952	dt-shadow	8	0.013336	60	10	60-180	60	93	GapExp	0	40	2	30	1	target	1	385	808	160831	13.328	10.821	15.829
TrackDT01	1	TrackDT	1.0	SCS215a	20120417.125603	20120417.125957	dt-shadow	8	0.013336	60	10	60-180	60	117	GapExp	0	41	2	3	0	distractor	1	513	744	161575	13.328	9.122	17.540
TrackDT01	1	TrackDT	1.0	SCS215a	20120417.125603	20120417.130003	dt-shadow	8	0.013336	60	10	60-180	60	165	GapExp	0	42	2	3	1	target	1	478	761	162336	13.328	13.098	13.572
TrackDT01	1	TrackDT	1.0	SCS215a	20120417.125603	20120417.130009	dt-shadow	8	0.013336	60	10	60-180	60	146	GapExp	0	43	2	0	0	distractor	1	499	751	163087	13.328	13.091	13.551
TrackDT01	1	TrackDT	1.0	SCS215a	20120417.125603	20120417.130015	dt-shadow	8	0.013336	60	10	60-180	60	107	GapExp	0	44	2	1	0	distractor	1	503	749	163836	13.328	8.353	18.302
TrackDT01	1	TrackDT	1.0	SCS215a	20120417.125603	20120417.130021	dt-shadow	8	0.013336	60	10	60-180	60	77	GapExp	0	45	2	3	1	target	1	370	815	164651	13.328	8.148	18.507
TrackDT01	1	TrackDT	1.0	SCS215a	20120417.125603	20120417.130026	dt-shadow	8	0.013336	60	10	60-180	60	82	GapExp	0	46	2	1	0	distractor	1	536	732	165383	13.328	10.718	15.942
TrackDT01	1	TrackDT	1.0	SCS215a	20120417.125603	20120417.130031	dt-shadow	8	0.013336	60	10	60-180	60	90	GapExp	0	47	2	1	0	distractor	1	893	554	165937	13.328	6.946	19.711
TrackDT01	1	TrackDT	1.0	SCS215a	20120417.125603	20120417.130036	dt-shadow	8	0.013336	60	10	60-180	60	148	GapExp	0	48	2	1	1	target	1	468	766	166703	13.328	9.978	16.664
TrackDT01	1	TrackDT	1.0	SCS215a	20120417.125603	20120417.130042	dt-shadow	8	0.013336	60	10	60-180	60	61	GapExp	0	49	2	30	1	target	1	327	837	167540	13.394	4.837	29.282
TrackDT01	1	TrackDT	1.0	SCS215a	20120417.125603	20120417.130047	dt-shadow	8	0.013336	60	10	60-180	60	173	GapExp	0	50	2	3	0	distractor	1	453	774	168314	13.328	3.332	23.311
TrackDT01	1	TrackDT	1.0	SCS215a	20120417.125603	20120417.130101	dt-shadow	8	0.013336	60	10	60-180	60	146	GapExp	0	51	2	0	0	distractor	1	475	763	169077	13.328	13.093	13.558
TrackDT01	1	TrackDT	1.0	SCS215a	20120417.125603	20120417.130107	dt-shadow	8	0.013336	60	10	60-180	60	114	GapExp	0	52	2	30	1	target	1	261	870	169947	13.328	12.660	13.996
TrackDT01	1	TrackDT	1.0	SCS215a	20120417.125603	20120417.130113	dt-shadow	8	0.013336	60	10	60-180	60	131	GapExp	0	53	2	3	1	target	1	474	763	170710	13.328	8.319	18.334
TrackDT01	1	TrackDT	1.0	SCS215a	20120417.125603	20120417.130119	dt-shadow	8	0.013336	60	10	60-180	60	129	GapExp	0	54	2	0	0	distractor	1	507	747	171457	13.328	13.009	13.671
TrackDT01	1	TrackDT	1.0	SCS215a	20120417.125603	20120417.130124	dt-shadow	8	0.013336	60	10	60-180	60	147	GapExp	0	55	2	1	1	target	1	288	856	172313	13.328	13.119	13.536
TrackDT01	1	TrackDT	1.0	SCS215a	20120417.125603	20120417.130130	dt-shadow	8	0.013336	60	10	60-180	60	153	GapExp	0	56	2	0	0	distractor	1	367	817	173130	13.328	8.693	17.956
TrackDT01	1	TrackDT	1.0	SCS215a	20120417.125603	20120417.130136	dt-shadow	8	0.013336	60	10	60-180	60	164	GapExp	0	57	2	3	1	target	1	404	798	173928	13.328	8.109	18.555
TrackDT01	1	TrackDT	1.0	SCS215a	20120417.125603	20120417.130142	dt-shadow	8	0.013336	60	10	60-180	60	156	GapExp	0	58	2	0	1	target	1	353	824	174752	13.328	11.912	14.746
TrackDT01	1	TrackDT	1.0	SCS215a	20120417.125603	20120417.130148	dt-shadow	8	0.013336	60	10	60-180	60	97	GapExp	0	59	2	30	0	distractor	1	606	697	175449	13.328	10.832	15.841
TrackDT01	1	TrackDT	1.0	SCS215a	20120417.125603	20120417.130154	dt-shadow	8	0.013336	60	10	60-180	60	122	GapExp	0	60	2	3	1	target	1	407	797	176246	13.328	13.095	13.557
TrackDT01	1	TrackDT	1.0	SCS215a	20120417.125603	20120417.130200	dt-shadow	8	0.013336	60	10	60-180	60	82	GapExp	0	61	2	30	1	distractor	0	326	-1000	175246	13.328	13.292	13.354
TrackDT01	1	TrackDT	1.0	SCS215a	20120417.125603	20120417.130205	dt-shadow	8	0.013336	60	10	60-180	60	68	GapExp	0	62	2	3	1	target	1	333	834	176080	13.328	11.566	15.076
TrackDT01	1	TrackDT	1.0	SCS215a	20120417.125603	20120417.130209	dt-shadow	8	0.013336	60	10	60-180	60	87	GapExp	0	63	2	1	1	target	1	403	799	176879	13.328	9.212	17.428
TrackDT01	1	TrackDT	1.0	SCS215a	20120417.125603	20120417.130214	dt-shadow	8	0.013336	60	10	60-180	60	167	GapExp	0	64	2	30	0	distractor	1	698	651	177530	13.328	5.508	21.140
TrackDT01	1	TrackDT	1.0	SCS215a	20120417.125603	20120417.130221	dt-shadow	8	0.013336	60	10	60-180	60	177	GapExp	0	65	2	3	0	target	0	375	-1000	176530	13.328	8.075	18.579
TrackDT01	1	TrackDT	1.0	SCS215a	20120417.125603	20120417.130228	dt-shadow	8	0.013336	60	10	60-180	60	171	GapExp	0	66	2	3	0	distractor	1	379	811	177341	13.328	13.295	13.374
TrackDT01	1	TrackDT	1.0	SCS215a	20120417.125603	20120417.130234	dt-shadow	8	0.013336	60	10	60-180	60	156	GapExp	0	67	2	30	1	target	1	434	783	178124	13.328	10.720	15.928
TrackDT01	1	TrackDT	1.0	SCS215a	20120417.125603	20120417.130240	dt-shadow	8	0.013336	60	10	60-180	60	144	GapExp	0	68	2	1	0	distractor	1	674	663	178787	13.328	13.267	13.390
TrackDT01	1	TrackDT	1.0	SCS215a	20120417.125603	20120417.130246	dt-shadow	8	0.013336	60	10	60-180	60	141	GapExp	0	69	2	3	1	target	1	468	766	179553	13.328	12.232	14.417
TrackDT01	1	TrackDT	1.0	SCS215a	20120417.125603	20120417.130252	dt-shadow	8	0.013336	60	10	60-180	60	153	GapExp	0	70	2	0	1	target	1	375	813	180366	13.328	12.917	13.726
TrackDT01	1	TrackDT	1.0	SCS215a	20120417.125603	20120417.130258	dt-shadow	8	0.013336	60	10	60-180	60	100	GapExp	0	71	2	30	1	target	1	325	838	181204	13.328	13.114	13.550
TrackDT01	1	TrackDT	1.0	SCS215a	20120417.125603	20120417.130304	dt-shadow	8	0.013336	60	10	60-180	60	164	GapExp	0	72	2	1	1	target	1	274	863	182067	13.328	8.454	18.199
TrackDT01	1	TrackDT	1.0	SCS215a	20120417.125603	20120417.130310	dt-shadow	8	0.013336	60	10	60-180	60	127	GapExp	0	73	2	0	0	distractor	1	534	733	182800	13.328	10.673	15.985
TrackDT01	1	TrackDT	1.0	SCS215a	20120417.125603	20120417.130315	dt-shadow	8	0.013336	60	10	60-180	60	109	GapExp	0	74	2	1	0	distractor	1	417	792	183592	13.328	13.306	13.350
TrackDT01	1	TrackDT	1.0	SCS215a	20120417.125603	20120417.130321	dt-shadow	8	0.013336	60	10	60-180	60	133	GapExp	0	75	2	30	0	distractor	1	489	756	184348	13.328	8.777	17.865
TrackDT01	1	TrackDT	1.0	SCS215a	20120417.125603	20120417.130327	dt-shadow	8	0.013336	60	10	60-180	60	111	GapExp	0	76	2	30	1	target	1	321	840	185188	13.328	10.158	16.499
TrackDT01	1	TrackDT	1.0	SCS215a	20120417.125603	20120417.130333	dt-shadow	8	0.013336	60	10	60-180	60	71	GapExp	0	77	2	0	1	target	1	422	789	185977	13.328	6.910	19.749
TrackDT01	1	TrackDT	1.0	SCS215a	20120417.125603	20120417.130338	dt-shadow	8	0.013336	60	10	60-180	60	119	GapExp	0	78	2	0	0	distractor	1	541	730	186707	13.328	5.949	20.702
TrackDT01	1	TrackDT	1.0	SCS215a	20120417.125603	20120417.130343	dt-shadow	8	0.013336	60	10	60-180	60	107	GapExp	0	79	2	30	1	target	1	260	870	187577	13.328	9.378	17.263
TrackDT01	1	TrackDT	1.0	SCS215a	20120417.125603	20120417.130349	dt-shadow	8	0.013336	60	10	60-180	60	82	GapExp	0	80	2	30	0	distractor	1	431	785	188362	13.328	9.168	17.478
TrackDT01	1	TrackDT	1.0	SCS215a	20120417.125603	20120417.130354	dt-shadow	8	0.013336	60	10	60-180	60	115	GapExp	0	81	2	1	0	target	0	416	-1000	187362	13.328	13.109	13.551
TrackDT01	1	TrackDT	1.0	SCS215a	20120417.125603	20120417.130359	dt-shadow	8	0.013336	60	10	60-180	60	89	GapExp	0	82	2	30	0	distractor	1	270	865	188227	13.328	9.891	16.766
TrackDT01	1	TrackDT	1.0	SCS215a	20120417.125603	20120417.130405	dt-shadow	8	0.013336	60	10	60-180	60	109	GapExp	0	83	2	1	1	target	1	333	834	189061	13.328	7.597	19.061
TrackDT01	1	TrackDT	1.0	SCS215a	20120417.125603	20120417.130410	dt-shadow	8	0.013336	60	10	60-180	60	158	GapExp	0	84	2	1	1	target	1	313	844	189905	13.328	8.235	18.414
TrackDT01	1	TrackDT	1.0	SCS215a	20120417.125603	20120417.130416	dt-shadow	8	0.013336	60	10	60-180	60	178	GapExp	0	85	2	30	0	distractor	1	377	812	190717	13.328	11.727	14.938
TrackDT01	1	TrackDT	1.0	SCS215a	20120417.125603	20120417.130423	dt-shadow	8	0.013336	60	10	60-180	60	139	GapExp	0	86	2	1	1	target	1	433	784	191501	13.328	9.623	17.035
TrackDT01	1	TrackDT	1.0	SCS215a	20120417.125603	20120417.130428	dt-shadow	8	0.013336	60	10	60-180	60	134	GapExp	0	87	2	0	1	target	1	454	773	192274	13.328	8.582	18.067
TrackDT01	1	TrackDT	1.0	SCS215a	20120417.125603	20120417.130434	dt-shadow	8	0.013336	60	10	60-180	60	82	GapExp	0	88	2	3	0	distractor	1	386	807	193081	13.328	10.210	16.449
TrackDT01	1	TrackDT	1.0	SCS215a	20120417.125603	20120417.130439	dt-shadow	8	0.013336	60	10	60-180	60	69	GapExp	0	89	2	3	1	target	1	335	833	193914	13.328	13.309	13.346
TrackDT01	1	TrackDT	1.0	SCS215a	20120417.125603	20120417.130444	dt-shadow	8	0.013336	60	10	60-180	60	80	GapExp	0	90	2	1	1	target	1	612	694	194608	13.328	10.023	16.634
TrackDT01	1	TrackDT	1.0	SCS215a	20120417.125603	20120417.130449	dt-shadow	8	0.013336	60	10	60-180	60	72	GapExp	0	91	2	0	0	distractor	1	852	574	195182	13.328	4.031	22.639
TrackDT01	1	TrackDT	1.0	SCS215a	20120417.125603	20120417.130454	dt-shadow	8	0.013336	60	10	60-180	60	168	GapExp	0	92	2	0	0	distractor	1	396	802	195984	13.328	13.131	13.520
TrackDT01	1	TrackDT	1.0	SCS215a	20120417.125603	20120417.130500	dt-shadow	8	0.013336	60	10	60-180	60	89	GapExp	0	93	2	0	1	target	1	434	783	196767	13.328	10.542	16.107
TrackDT01	1	TrackDT	1.0	SCS215a	20120417.125603	20120417.130505	dt-shadow	8	0.013336	60	10	60-180	60	62	GapExp	0	94	2	0	1	target	1	334	833	197600	13.328	7.343	19.311
TrackDT01	1	TrackDT	1.0	SCS215a	20120417.125603	20120417.130510	dt-shadow	8	0.013336	60	10	60-180	60	90	GapExp	0	95	2	30	1	target	1	366	817	198417	13.328	9.668	16.987
TrackDT01	1	TrackDT	1.0	SCS215a	20120417.125603	20120417.130516	dt-shadow	8	0.013336	60	10	60-180	60	116	GapExp	0	96	2	3	1	distractor	0	315	-1000	197417	13.328	10.768	15.895
TrackDT01	1	TrackDT	1.0	SCS215a	20120417.125603	20120417.130521	dt-shadow	8	0.013336	60	10	60-180	60	128	GapExp	0	97	2	30	0	distractor	1	574	713	198130	13.328	13.172	13.493
TrackDT01	1	TrackDT	1.0	SCS215a	20120417.125603	20120417.130527	dt-shadow	8	0.013336	60	10	60-180	60	125	GapExp	0	98	2	3	1	target	1	456	772	198902	13.328	13.108	13.558
TrackDT01	1	TrackDT	1.0	SCS215a	20120417.125603	20120417.130533	dt-shadow	8	0.013336	60	10	60-180	60	108	GapExp	0	99	2	0	1	target	1	529	736	199638	13.328	9.393	17.258
TrackDT01	1	TrackDT	1.0	SCS215a	20120417.125603	20120417.130538	dt-shadow	8	0.013336	60	10	60-180	60	72	GapExp	0	100	2	3	0	distractor	1	535	733	200371	13.328	10.073	16.582
TrackDT01	1	TrackDT	1.0	SCS215a	20120417.125603	20120417.130608	dt-shadow	8	0.013336	60	10	60-180	60	122	GapExp	0	101	2	1	0	distractor	1	406	797	201168	13.328	13.083	13.565
TrackDT01	1	TrackDT	1.0	SCS215a	20120417.125603	20120417.130613	dt-shadow	8	0.013336	60	10	60-180	60	74	GapExp	0	102	2	30	0	target	0	403	-1000	200168	13.328	9.728	16.922
TrackDT01	1	TrackDT	1.0	SCS215a	20120417.125603	20120417.130619	dt-shadow	8	0.013336	60	10	60-180	60	147	GapExp	0	103	2	30	0	distractor	1	490	755	200923	13.328	4.353	22.291
TrackDT01	1	TrackDT	1.0	SCS215a	20120417.125603	20120417.130625	dt-shadow	8	0.013336	60	10	60-180	60	90	GapExp	0	104	2	0	0	target	0	346	-1000	199923	13.328	7.949	18.708
TrackDT01	1	TrackDT	1.0	SCS215a	20120417.125603	20120417.130630	dt-shadow	8	0.013336	60	10	60-180	60	118	GapExp	0	105	2	0	0	target	0	462	-1000	198923	13.328	6.790	19.859
TrackDT01	1	TrackDT	1.0	SCS215a	20120417.125603	20120417.130636	dt-shadow	8	0.013336	60	10	60-180	60	174	GapExp	0	106	2	1	1	target	1	299	851	199774	13.328	7.034	19.634
TrackDT01	1	TrackDT	1.0	SCS215a	20120417.125603	20120417.130642	dt-shadow	8	0.013336	60	10	60-180	60	172	GapExp	0	107	2	1	1	target	1	355	823	200597	13.328	11.599	15.038
TrackDT01	1	TrackDT	1.0	SCS215a	20120417.125603	20120417.130648	dt-shadow	8	0.013336	60	10	60-180	60	162	GapExp	0	108	2	0	1	target	1	310	845	201442	13.329	13.309	13.565
TrackDT01	1	TrackDT	1.0	SCS215a	20120417.125603	20120417.130654	dt-shadow	8	0.013336	60	10	60-180	60	178	GapExp	0	109	2	1	0	distractor	1	443	779	202221	13.328	11.163	15.493
TrackDT01	1	TrackDT	1.0	SCS215a	20120417.125603	20120417.130700	dt-shadow	8	0.013336	60	10	60-180	60	175	GapExp	0	110	2	3	1	target	1	410	795	203016	13.328	8.856	17.807
TrackDT01	1	TrackDT	1.0	SCS215a	20120417.125603	20120417.130706	dt-shadow	8	0.013336	60	10	60-180	60	177	GapExp	0	111	2	1	0	distractor	1	456	772	203788	13.328	6.899	19.768
TrackDT01	1	TrackDT	1.0	SCS215a	20120417.125603	20120417.130713	dt-shadow	8	0.013336	60	10	60-180	60	144	GapExp	0	112	2	30	0	distractor	1	402	799	204587	13.328	11.931	14.710
TrackDT01	1	TrackDT	1.0	SCS215a	20120417.125603	20120417.130719	dt-shadow	8	0.013336	60	10	60-180	60	96	GapExp	0	113	2	3	1	target	1	313	844	205431	13.328	10.395	16.249
TrackDT01	1	TrackDT	1.0	SCS215a	20120417.125603	20120417.130724	dt-shadow	8	0.013336	60	10	60-180	60	146	GapExp	0	114	2	0	1	target	1	312	844	206275	13.328	10.151	16.505
TrackDT01	1	TrackDT	1.0	SCS215a	20120417.125603	20120417.130730	dt-shadow	8	0.013336	60	10	60-180	60	129	GapExp	0	115	2	1	1	target	1	634	683	206958	13.328	11.890	14.767
TrackDT01	1	TrackDT	1.0	SCS215a	20120417.125603	20120417.130736	dt-shadow	8	0.013336	60	10	60-180	60	155	GapExp	0	116	2	1	0	target	0	311	-1000	205958	13.328	13.250	13.419
TrackDT01	1	TrackDT	1.0	SCS215a	20120417.125603	20120417.130741	dt-shadow	8	0.013336	60	10	60-180	60	157	GapExp	0	117	2	0	0	distractor	1	649	676	206634	13.328	10.852	15.811
TrackDT01	1	TrackDT	1.0	SCS215a	20120417.125603	20120417.130748	dt-shadow	8	0.013336	60	10	60-180	60	75	GapExp	0	118	2	3	0	distractor	1	441	780	207414	13.328	13.300	13.360
TrackDT01	1	TrackDT	1.0	SCS215a	20120417.125603	20120417.130752	dt-shadow	8	0.013336	60	10	60-180	60	118	GapExp	0	119	2	0	1	target	1	406	797	208211	13.328	13.019	13.637
TrackDT01	1	TrackDT	1.0	SCS215a	20120417.125603	20120417.130758	dt-shadow	8	0.013336	60	10	60-180	60	78	GapExp	0	120	2	30	0	distractor	1	358	821	209032	13.328	13.302	13.354
TrackDT01	1	TrackDT	1.0	SCS215a	20120417.125603	20120417.130803	dt-shadow	8	0.013336	60	10	60-180	60	129	GapExp	0	121	2	30	0	distractor	1	440	780	209812	13.328	6.917	19.745
TrackDT01	1	TrackDT	1.0	SCS215a	20120417.125603	20120417.130809	dt-shadow	8	0.013336	60	10	60-180	60	93	GapExp	0	122	2	0	1	target	1	337	832	210644	13.328	7.588	19.061
TrackDT01	1	TrackDT	1.0	SCS215a	20120417.125603	20120417.130814	dt-shadow	8	0.013336	60	10	60-180	60	171	GapExp	0	123	2	30	0	distractor	1	535	733	211377	13.328	8.114	18.543
TrackDT01	1	TrackDT	1.0	SCS215a	20120417.125603	20120417.130821	dt-shadow	8	0.013336	60	10	60-180	60	177	GapExp	0	124	2	30	1	target	1	368	816	212193	13.328	13.094	13.562
TrackDT01	1	TrackDT	1.0	SCS215a	20120417.125603	20120417.130828	dt-shadow	8	0.013336	60	10	60-180	60	85	GapExp	0	125	2	3	1	target	1	797	602	212795	13.328	8.575	18.082
TrackDT01	1	TrackDT	1.0	SCS215a	20120417.125603	20120417.130833	dt-shadow	8	0.013336	60	10	60-180	60	111	GapExp	0	126	2	0	0	distractor	1	522	739	213534	13.328	9.309	17.335
TrackDT01	1	TrackDT	1.0	SCS215a	20120417.125603	20120417.130839	dt-shadow	8	0.013336	60	10	60-180	60	168	GapExp	0	127	2	0	0	distractor	1	505	748	214282	13.328	13.304	13.351
TrackDT01	1	TrackDT	1.0	SCS215a	20120417.125603	20120417.130845	dt-shadow	8	0.013336	60	10	60-180	60	98	GapExp	0	128	2	0	0	distractor	1	518	741	215023	13.328	13.143	13.527
TrackDT01	1	TrackDT	1.0	SCS215a	20120417.125603	20120417.130850	dt-shadow	8	0.013336	60	10	60-180	60	135	GapExp	0	129	2	3	1	distractor	0	607	-1000	214023	13.328	10.600	16.057
TrackDT01	1	TrackDT	1.0	SCS215a	20120417.125603	20120417.130856	dt-shadow	8	0.013336	60	10	60-180	60	124	GapExp	0	130	2	3	0	distractor	1	603	699	214722	13.328	13.098	13.552
TrackDT01	1	TrackDT	1.0	SCS215a	20120417.125603	20120417.130902	dt-shadow	8	0.013336	60	10	60-180	60	113	GapExp	0	131	2	30	1	target	1	367	817	215539	13.328	13.105	13.546
TrackDT01	1	TrackDT	1.0	SCS215a	20120417.125603	20120417.130907	dt-shadow	8	0.013336	60	10	60-180	60	126	GapExp	0	132	2	1	0	distractor	1	383	809	216348	13.328	12.541	14.114
TrackDT01	1	TrackDT	1.0	SCS215a	20120417.125603	20120417.130913	dt-shadow	8	0.013336	60	10	60-180	60	79	GapExp	0	133	2	0	0	distractor	1	456	772	217120	13.328	10.276	16.380
TrackDT01	1	TrackDT	1.0	SCS215a	20120417.125603	20120417.130918	dt-shadow	8	0.013336	60	10	60-180	60	76	GapExp	0	134	2	3	0	target	0	472	-1000	216120	13.328	13.093	13.570
TrackDT01	1	TrackDT	1.0	SCS215a	20120417.125603	20120417.130923	dt-shadow	8	0.013336	60	10	60-180	60	123	GapExp	0	135	2	30	0	distractor	1	636	682	216802	13.328	11.291	15.357
TrackDT01	1	TrackDT	1.0	SCS215a	20120417.125603	20120417.130929	dt-shadow	8	0.013336	60	10	60-180	60	105	GapExp	0	136	2	3	1	target	1	311	845	217647	13.328	13.301	13.365
TrackDT01	1	TrackDT	1.0	SCS215a	20120417.125603	20120417.130934	dt-shadow	8	0.013336	60	10	60-180	60	169	GapExp	0	137	2	3	0	distractor	1	451	775	218422	13.328	13.304	13.361
TrackDT01	1	TrackDT	1.0	SCS215a	20120417.125603	20120417.130940	dt-shadow	8	0.013336	60	10	60-180	60	168	GapExp	0	138	2	30	1	target	1	372	814	219236	13.328	12.975	13.693
TrackDT01	1	TrackDT	1.0	SCS215a	20120417.125603	20120417.130947	dt-shadow	8	0.013336	60	10	60-180	60	106	GapExp	0	139	2	1	0	target	0	1095	-1000	218236	13.328	10.866	15.805
TrackDT01	1	TrackDT	1.0	SCS215a	20120417.125603	20120417.130953	dt-shadow	8	0.013336	60	10	60-180	60	102	GapExp	0	140	2	1	1	target	1	708	646	218882	13.328	13.307	13.348
TrackDT01	1	TrackDT	1.0	SCS215a	20120417.125603	20120417.130959	dt-shadow	8	0.013336	60	10	60-180	60	151	GapExp	0	141	2	3	1	target	1	442	779	219661	13.328	13.099	13.557
TrackDT01	1	TrackDT	1.0	SCS215a	20120417.125603	20120417.131005	dt-shadow	8	0.013336	60	10	60-180	60	131	GapExp	0	142	2	30	1	target	1	427	787	220448	13.328	9.345	17.305
TrackDT01	1	TrackDT	1.0	SCS215a	20120417.125603	20120417.131011	dt-shadow	8	0.013336	60	10	60-180	60	84	GapExp	0	143	2	30	1	target	1	297	852	221300	13.328	13.303	13.346
TrackDT01	1	TrackDT	1.0	SCS215a	20120417.125603	20120417.131016	dt-shadow	8	0.013336	60	10	60-180	60	103	GapExp	0	144	2	1	1	target	1	505	748	222048	13.328	8.246	18.419
TrackDT01	1	TrackDT	1.0	SCS215a	20120417.125603	20120417.131022	dt-shadow	8	0.013336	60	10	60-180	60	156	GapExp	0	145	2	1	0	target	0	304	-1000	221048	13.428	7.293	38.674
TrackDT01	1	TrackDT	1.0	SCS215a	20120417.125603	20120417.131028	dt-shadow	8	0.013336	60	10	60-180	60	89	GapExp	0	146	2	1	0	distractor	1	436	782	221830	13.328	12.898	13.758
TrackDT01	1	TrackDT	1.0	SCS215a	20120417.125603	20120417.131033	dt-shadow	8	0.013336	60	10	60-180	60	178	GapExp	0	147	2	1	0	target	0	497	-1000	220830	13.328	13.104	13.538
TrackDT01	1	TrackDT	1.0	SCS215a	20120417.125603	20120417.131039	dt-shadow	8	0.013336	60	10	60-180	60	176	GapExp	0	148	2	3	0	distractor	1	380	810	221640	13.328	10.165	16.485
TrackDT01	1	TrackDT	1.0	SCS215a	20120417.125603	20120417.131045	dt-shadow	8	0.013336	60	10	60-180	60	162	GapExp	0	149	2	0	1	distractor	0	396	-1000	220640	13.328	13.310	13.345
TrackDT01	1	TrackDT	1.0	SCS215a	20120417.125603	20120417.131051	dt-shadow	8	0.013336	60	10	60-180	60	173	GapExp	0	150	2	1	1	target	1	324	838	221478	13.328	10.088	16.567
TrackDT01	1	TrackDT	1.0	SCS215a	20120417.125603	20120417.131122	dt-shadow	8	0.013336	60	10	60-180	60	121	GapExp	0	151	2	1	0	distractor	1	411	795	222273	13.328	13.093	13.558
TrackDT01	1	TrackDT	1.0	SCS215a	20120417.125603	20120417.131127	dt-shadow	8	0.013336	60	10	60-180	60	157	GapExp	0	152	2	1	0	target	0	384	-1000	221273	13.328	8.029	18.632
TrackDT01	1	TrackDT	1.0	SCS215a	20120417.125603	20120417.131134	dt-shadow	8	0.013336	60	10	60-180	60	119	GapExp	0	153	2	1	0	distractor	1	424	788	222061	13.328	8.677	17.987
TrackDT01	1	TrackDT	1.0	SCS215a	20120417.125603	20120417.131139	dt-shadow	8	0.013336	60	10	60-180	60	110	GapExp	0	154	2	1	1	target	1	508	746	222807	13.328	12.415	14.226
TrackDT01	1	TrackDT	1.0	SCS215a	20120417.125603	20120417.131145	dt-shadow	8	0.013336	60	10	60-180	60	136	GapExp	0	155	2	3	1	target	1	361	820	223627	13.328	12.363	14.294
TrackDT01	1	TrackDT	1.0	SCS215a	20120417.125603	20120417.131150	dt-shadow	8	0.013336	60	10	60-180	60	89	GapExp	0	156	2	3	0	distractor	1	616	692	224319	13.328	13.093	13.559
TrackDT01	1	TrackDT	1.0	SCS215a	20120417.125603	20120417.131155	dt-shadow	8	0.013336	60	10	60-180	60	111	GapExp	0	157	2	1	1	target	1	357	822	225141	13.328	12.313	14.344
TrackDT01	1	TrackDT	1.0	SCS215a	20120417.125603	20120417.131201	dt-shadow	8	0.013336	60	10	60-180	60	89	GapExp	0	158	2	30	1	target	1	373	814	225955	13.328	11.912	14.730
TrackDT01	1	TrackDT	1.0	SCS215a	20120417.125603	20120417.131207	dt-shadow	8	0.013336	60	10	60-180	60	91	GapExp	0	159	2	30	1	target	1	312	844	226799	13.328	13.309	13.356
TrackDT01	1	TrackDT	1.0	SCS215a	20120417.125603	20120417.131212	dt-shadow	8	0.013336	60	10	60-180	60	177	GapExp	0	160	2	3	1	target	1	367	817	227616	13.328	10.644	16.016
TrackDT01	1	TrackDT	1.0	SCS215a	20120417.125603	20120417.131218	dt-shadow	8	0.013336	60	10	60-180	60	134	GapExp	0	161	2	0	0	distractor	1	452	774	228390	13.328	13.123	13.525
TrackDT01	1	TrackDT	1.0	SCS215a	20120417.125603	20120417.131224	dt-shadow	8	0.013336	60	10	60-180	60	99	GapExp	0	162	2	3	1	distractor	0	608	-1000	227390	13.328	7.384	19.273
TrackDT01	1	TrackDT	1.0	SCS215a	20120417.125603	20120417.131229	dt-shadow	8	0.013336	60	10	60-180	60	112	GapExp	0	163	2	1	0	target	0	691	-1000	226390	13.328	13.305	13.354
TrackDT01	1	TrackDT	1.0	SCS215a	20120417.125603	20120417.131235	dt-shadow	8	0.013336	60	10	60-180	60	138	GapExp	0	164	2	3	1	distractor	0	666	-1000	225390	13.328	10.741	15.916
TrackDT01	1	TrackDT	1.0	SCS215a	20120417.125603	20120417.131241	dt-shadow	8	0.013336	60	10	60-180	60	152	GapExp	0	165	2	3	0	distractor	1	394	803	226193	13.328	13.305	13.352
TrackDT01	1	TrackDT	1.0	SCS215a	20120417.125603	20120417.131247	dt-shadow	8	0.013336	60	10	60-180	60	116	GapExp	0	166	2	3	0	distractor	1	422	789	226982	13.328	13.071	13.598
TrackDT01	1	TrackDT	1.0	SCS215a	20120417.125603	20120417.131252	dt-shadow	8	0.013336	60	10	60-180	60	61	GapExp	0	167	2	3	0	distractor	1	505	748	227730	13.328	13.307	13.348
TrackDT01	1	TrackDT	1.0	SCS215a	20120417.125603	20120417.131257	dt-shadow	8	0.013336	60	10	60-180	60	113	GapExp	0	168	2	30	1	target	1	372	814	228544	13.328	10.516	16.140
TrackDT01	1	TrackDT	1.0	SCS215a	20120417.125603	20120417.131303	dt-shadow	8	0.013336	60	10	60-180	60	100	GapExp	0	169	2	1	0	distractor	1	389	806	229350	13.328	6.401	20.248
TrackDT01	1	TrackDT	1.0	SCS215a	20120417.125603	20120417.131308	dt-shadow	8	0.013336	60	10	60-180	60	168	GapExp	0	170	2	30	0	distractor	1	323	839	230189	13.328	7.857	18.799
TrackDT01	1	TrackDT	1.0	SCS215a	20120417.125603	20120417.131315	dt-shadow	8	0.013336	60	10	60-180	60	150	GapExp	0	171	2	30	0	target	0	424	-1000	229189	13.328	7.995	18.667
TrackDT01	1	TrackDT	1.0	SCS215a	20120417.125603	20120417.131321	dt-shadow	8	0.013336	60	10	60-180	60	75	GapExp	0	172	2	30	0	target	0	708	-1000	228189	13.328	7.027	19.634
TrackDT01	1	TrackDT	1.0	SCS215a	20120417.125603	20120417.131327	dt-shadow	8	0.013336	60	10	60-180	60	81	GapExp	0	173	2	1	0	target	0	626	-1000	227189	13.328	10.159	16.498
TrackDT01	1	TrackDT	1.0	SCS215a	20120417.125603	20120417.131332	dt-shadow	8	0.013336	60	10	60-180	60	145	GapExp	0	174	2	0	1	target	1	432	784	227973	13.328	6.685	19.983
TrackDT01	1	TrackDT	1.0	SCS215a	20120417.125603	20120417.131337	dt-shadow	8	0.013336	60	10	60-180	60	70	GapExp	0	175	2	1	0	distractor	1	480	760	228733	13.328	6.598	20.052
TrackDT01	1	TrackDT	1.0	SCS215a	20120417.125603	20120417.131342	dt-shadow	8	0.013336	60	10	60-180	60	99	GapExp	0	176	2	1	1	target	1	519	741	229474	13.328	13.101	13.571
TrackDT01	1	TrackDT	1.0	SCS215a	20120417.125603	20120417.131348	dt-shadow	8	0.013336	60	10	60-180	60	92	GapExp	0	177	2	3	1	target	1	395	803	230277	13.328	8.578	18.072
TrackDT01	1	TrackDT	1.0	SCS215a	20120417.125603	20120417.131353	dt-shadow	8	0.013336	60	10	60-180	60	151	GapExp	0	178	2	30	1	target	1	288	856	231133	13.328	12.251	14.404
TrackDT01	1	TrackDT	1.0	SCS215a	20120417.125603	20120417.131359	dt-shadow	8	0.013336	60	10	60-180	60	90	GapExp	0	179	2	3	0	distractor	1	500	750	231883	13.328	12.758	13.893
TrackDT01	1	TrackDT	1.0	SCS215a	20120417.125603	20120417.131404	dt-shadow	8	0.013336	60	10	60-180	60	164	GapExp	0	180	2	30	1	target	1	301	850	232733	13.328	13.092	13.551
TrackDT01	1	TrackDT	1.0	SCS215a	20120417.125603	20120417.131411	dt-shadow	8	0.013336	60	10	60-180	60	160	GapExp	0	181	2	30	0	target	0	1142	-1000	231733	13.328	12.242	14.416
TrackDT01	1	TrackDT	1.0	SCS215a	20120417.125603	20120417.131418	dt-shadow	8	0.013336	60	10	60-180	60	128	GapExp	0	182	2	30	0	distractor	1	467	767	232500	13.328	6.873	19.795
TrackDT01	1	TrackDT	1.0	SCS215a	20120417.125603	20120417.131424	dt-shadow	8	0.013336	60	10	60-180	60	158	GapExp	0	183	2	1	1	target	1	515	743	233243	13.328	10.197	16.447
TrackDT01	1	TrackDT	1.0	SCS215a	20120417.125603	20120417.131430	dt-shadow	8	0.013336	60	10	60-180	60	78	GapExp	0	184	2	0	1	target	1	388	806	234049	13.328	8.753	17.907
TrackDT01	1	TrackDT	1.0	SCS215a	20120417.125603	20120417.131435	dt-shadow	8	0.013336	60	10	60-180	60	124	GapExp	0	185	2	30	0	distractor	1	424	788	234837	13.328	13.308	13.347
TrackDT01	1	TrackDT	1.0	SCS215a	20120417.125603	20120417.131441	dt-shadow	8	0.013336	60	10	60-180	60	111	GapExp	0	186	2	1	1	target	1	321	840	235677	13.328	10.959	15.694
TrackDT01	1	TrackDT	1.0	SCS215a	20120417.125603	20120417.131446	dt-shadow	8	0.013336	60	10	60-180	60	106	GapExp	0	187	2	3	0	distractor	1	444	778	236455	13.328	8.091	18.578
TrackDT01	1	TrackDT	1.0	SCS215a	20120417.125603	20120417.131452	dt-shadow	8	0.013336	60	10	60-180	60	99	GapExp	0	188	2	0	0	distractor	1	396	802	237257	13.328	13.091	13.570
TrackDT01	1	TrackDT	1.0	SCS215a	20120417.125603	20120417.131457	dt-shadow	8	0.013336	60	10	60-180	60	127	GapExp	0	189	2	0	1	target	1	374	813	238070	13.328	7.549	19.115
TrackDT01	1	TrackDT	1.0	SCS215a	20120417.125603	20120417.131503	dt-shadow	8	0.013336	60	10	60-180	60	170	GapExp	0	190	2	0	0	target	0	342	-1000	237070	13.328	13.308	13.348
TrackDT01	1	TrackDT	1.0	SCS215a	20120417.125603	20120417.131509	dt-shadow	8	0.013336	60	10	60-180	60	116	GapExp	0	191	2	0	0	distractor	1	589	706	237776	13.328	13.289	13.358
TrackDT01	1	TrackDT	1.0	SCS215a	20120417.125603	20120417.131514	dt-shadow	8	0.013336	60	10	60-180	60	79	GapExp	0	192	2	0	0	target	0	394	-1000	236776	13.328	6.674	19.990
TrackDT01	1	TrackDT	1.0	SCS215a	20120417.125603	20120417.131519	dt-shadow	8	0.013336	60	10	60-180	60	78	GapExp	0	193	2	3	0	distractor	1	548	726	237502	13.328	12.077	14.585
TrackDT01	1	TrackDT	1.0	SCS215a	20120417.125603	20120417.131525	dt-shadow	8	0.013336	60	10	60-180	60	75	GapExp	0	194	2	30	1	target	1	360	820	238322	13.328	13.300	13.352
TrackDT01	1	TrackDT	1.0	SCS215a	20120417.125603	20120417.131530	dt-shadow	8	0.013336	60	10	60-180	60	156	GapExp	0	195	2	30	1	target	1	412	794	239116	13.328	10.380	16.283
TrackDT01	1	TrackDT	1.0	SCS215a	20120417.125603	20120417.131536	dt-shadow	8	0.013336	60	10	60-180	60	156	GapExp	0	196	2	3	0	distractor	1	691	655	239771	13.328	13.109	13.547
TrackDT01	1	TrackDT	1.0	SCS215a	20120417.125603	20120417.131542	dt-shadow	8	0.013336	60	10	60-180	60	102	GapExp	0	197	2	0	0	target	0	670	-1000	238771	13.328	6.716	19.934
TrackDT01	1	TrackDT	1.0	SCS215a	20120417.125603	20120417.131548	dt-shadow	8	0.013336	60	10	60-180	60	163	GapExp	0	198	2	30	1	target	1	332	834	239605	13.328	13.107	13.562
TrackDT01	1	TrackDT	1.0	SCS215a	20120417.125603	20120417.131554	dt-shadow	8	0.013336	60	10	60-180	60	95	GapExp	0	199	2	1	0	distractor	1	386	807	240412	13.328	7.730	18.920
TrackDT01	1	TrackDT	1.0	SCS215a	20120417.125603	20120417.131600	dt-shadow	8	0.013336	60	10	60-180	60	161	GapExp	0	200	2	0	1	target	1	357	822	241234	13.328	9.885	16.778
TrackDT01	1	TrackDT	1.0	SCS215a	20120417.131655	20120417.131701	dt-generate	8	0.013328	60	10	60-180	60	95	GapPrac	1	1	2	1	0	distractor	1	727	637	241871	13.328	13.297	13.359
TrackDT01	1	TrackDT	1.0	SCS215a	20120417.131655	20120417.131707	dt-generate	8	0.013328	60	10	60-180	60	159	GapPrac	1	2	2	1	1	target	1	285	858	242729	13.328	13.098	13.573
TrackDT01	1	TrackDT	1.0	SCS215a	20120417.131655	20120417.131713	dt-generate	8	0.013328	60	10	60-180	60	143	GapPrac	1	3	2	0	1	target	1	334	833	243562	13.328	12.975	13.669
TrackDT01	1	TrackDT	1.0	SCS215a	20120417.131655	20120417.131719	dt-generate	8	0.013328	60	10	60-180	60	165	GapPrac	1	4	2	3	0	target	0	451	-1000	242562	13.328	12.915	13.739
TrackDT01	1	TrackDT	1.0	SCS215a	20120417.131655	20120417.131725	dt-generate	8	0.013328	60	10	60-180	60	103	GapPrac	1	5	2	30	1	distractor	0	342	-1000	241562	13.328	12.863	13.810
TrackDT01	1	TrackDT	1.0	SCS215a	20120417.131655	20120417.131730	dt-generate	8	0.013328	60	10	60-180	60	62	GapPrac	1	6	2	3	0	target	0	539	-1000	240562	13.328	13.307	13.355
TrackDT01	1	TrackDT	1.0	SCS215a	20120417.131655	20120417.131735	dt-generate	8	0.013328	60	10	60-180	60	145	GapPrac	1	7	2	1	1	target	1	738	631	241193	13.328	13.099	13.553
TrackDT01	1	TrackDT	1.0	SCS215a	20120417.131655	20120417.131742	dt-generate	8	0.013328	60	10	60-180	60	111	GapPrac	1	8	2	3	1	target	1	1105	448	241641	13.328	12.833	13.811
TrackDT01	1	TrackDT	1.0	SCS215a	20120417.131655	20120417.131748	dt-generate	8	0.013328	60	10	60-180	60	119	GapPrac	1	9	2	3	0	distractor	1	793	604	242245	13.328	13.090	13.557
TrackDT01	1	TrackDT	1.0	SCS215a	20120417.131655	20120417.131753	dt-generate	8	0.013328	60	10	60-180	60	115	GapPrac	1	10	2	3	1	target	1	649	676	242921	13.328	12.974	13.692
TrackDT01	1	TrackDT	1.0	SCS215a	20120417.131655	20120417.131759	dt-generate	8	0.013328	60	10	60-180	60	150	GapPrac	1	11	2	1	0	target	0	491	-1000	241921	13.328	12.954	13.704
TrackDT01	1	TrackDT	1.0	SCS215a	20120417.131655	20120417.131805	dt-generate	8	0.013328	60	10	60-180	60	146	GapPrac	1	12	2	30	0	distractor	1	610	695	242616	13.328	12.902	13.757
TrackDT01	1	TrackDT	1.0	SCS215a	20120417.131655	20120417.131811	dt-generate	8	0.013328	60	10	60-180	60	151	GapPrac	1	13	2	0	1	target	1	466	767	243383	13.377	12.878	27.046
TrackDT01	1	TrackDT	1.0	SCS215a	20120417.131655	20120417.131818	dt-generate	8	0.013328	60	10	60-180	60	142	GapPrac	1	14	2	1	0	distractor	1	656	672	244055	13.328	12.854	13.787
TrackDT01	1	TrackDT	1.0	SCS215a	20120417.131655	20120417.131824	dt-generate	8	0.013328	60	10	60-180	60	179	GapPrac	1	15	2	0	0	distractor	1	823	589	244644	13.328	12.879	13.802
TrackDT01	1	TrackDT	1.0	SCS215a	20120417.131655	20120417.131830	dt-generate	8	0.013328	60	10	60-180	60	118	GapPrac	1	16	2	30	1	target	1	623	689	245333	13.328	13.045	13.603
TrackDT01	1	TrackDT	1.0	SCS215a	20120417.131655	20120417.131836	dt-generate	8	0.013328	60	10	60-180	60	100	GapPrac	1	17	2	0	0	target	0	3754	-1000	244333	13.328	13.099	13.564
TrackDT01	1	TrackDT	1.0	SCS215a	20120417.131655	20120417.131845	dt-generate	8	0.013328	60	10	60-180	60	138	GapPrac	1	18	2	1	1	target	1	384	808	245141	13.328	13.041	13.609
TrackDT01	1	TrackDT	1.0	SCS215a	20120417.131655	20120417.131851	dt-generate	8	0.013328	60	10	60-180	60	104	GapPrac	1	19	2	30	0	distractor	1	416	792	245933	13.328	12.895	13.785
TrackDT01	1	TrackDT	1.0	SCS215a	20120417.131655	20120417.131857	dt-generate	8	0.013328	60	10	60-180	60	134	GapPrac	1	20	2	0	1	target	1	434	783	246716	13.328	13.158	13.523
TrackDT01	1	TrackDT	1.0	SCS215a	20120417.131945	20120417.131950	dt-generate	8	0.013328	60	10	60-180	60	74	GapExp	1	1	2	1	1	target	1	1446	277	246993	13.328	11.479	15.205
TrackDT01	1	TrackDT	1.0	SCS215a	20120417.131945	20120417.131957	dt-generate	8	0.013328	60	10	60-180	60	96	GapExp	1	2	2	0	0	target	0	1542	-1000	245993	13.328	12.691	13.958
TrackDT01	1	TrackDT	1.0	SCS215a	20120417.131945	20120417.132003	dt-generate	8	0.013328	60	10	60-180	60	126	GapExp	1	3	2	3	0	distractor	1	719	641	246634	13.328	8.391	18.271
TrackDT01	1	TrackDT	1.0	SCS215a	20120417.131945	20120417.132009	dt-generate	8	0.013328	60	10	60-180	60	137	GapExp	1	4	2	1	0	target	0	519	-1000	245634	13.328	13.099	13.563
TrackDT01	1	TrackDT	1.0	SCS215a	20120417.131945	20120417.132015	dt-generate	8	0.013328	60	10	60-180	60	97	GapExp	1	5	2	30	0	early	-4	-747	-1000	244634	13.328	13.093	13.558
TrackDT01	1	TrackDT	1.0	SCS215a	20120417.131945	20120417.132020	dt-generate	8	0.013328	60	10	60-180	60	139	GapExp	1	6	2	0	1	target	1	605	698	245332	13.328	13.085	13.571
TrackDT01	1	TrackDT	1.0	SCS215a	20120417.131945	20120417.132026	dt-generate	8	0.013328	60	10	60-180	60	117	GapExp	1	7	2	30	1	target	1	871	565	245897	13.328	10.006	16.646
TrackDT01	1	TrackDT	1.0	SCS215a	20120417.131945	20120417.132032	dt-generate	8	0.013328	60	10	60-180	60	145	GapExp	1	8	2	3	1	target	1	582	709	246606	13.328	13.286	13.357
TrackDT01	1	TrackDT	1.0	SCS215a	20120417.131945	20120417.132038	dt-generate	8	0.013328	60	10	60-180	60	148	GapExp	0	9	2	30	1	distractor	0	425	-1000	245606	13.328	13.054	13.596
TrackDT01	1	TrackDT	1.0	SCS215a	20120417.131945	20120417.132045	dt-generate	8	0.013328	60	10	60-180	60	77	GapExp	0	10	2	0	0	target	0	573	-1000	244606	13.328	11.078	15.586
TrackDT01	1	TrackDT	1.0	SCS215a	20120417.131945	20120417.132050	dt-generate	8	0.013328	60	10	60-180	60	148	GapExp	0	11	2	1	1	target	1	461	770	245376	13.328	13.106	13.538
TrackDT01	1	TrackDT	1.0	SCS215a	20120417.131945	20120417.132056	dt-generate	8	0.013328	60	10	60-180	60	151	GapExp	0	12	2	0	0	distractor	1	611	695	246071	13.328	13.093	13.553
TrackDT01	1	TrackDT	1.0	SCS215a	20120417.131945	20120417.132102	dt-generate	8	0.013328	60	10	60-180	60	136	GapExp	0	13	2	30	0	distractor	1	505	748	246819	13.328	11.852	14.792
TrackDT01	1	TrackDT	1.0	SCS215a	20120417.131945	20120417.132108	dt-generate	8	0.013328	60	10	60-180	60	119	GapExp	0	14	2	1	1	target	1	723	639	247458	13.328	8.843	17.817
TrackDT01	1	TrackDT	1.0	SCS215a	20120417.131945	20120417.132114	dt-generate	8	0.013328	60	10	60-180	60	118	GapExp	0	15	2	3	1	target	1	518	741	248199	13.328	9.690	16.960
TrackDT01	1	TrackDT	1.0	SCS215a	20120417.131945	20120417.132119	dt-generate	8	0.013328	60	10	60-180	60	149	GapExp	0	16	2	0	0	target	0	880	-1000	247199	13.328	13.126	13.532
TrackDT01	1	TrackDT	1.0	SCS215a	20120417.131945	20120417.132126	dt-generate	8	0.013328	60	10	60-180	60	135	GapExp	0	17	2	3	1	target	1	628	686	247885	13.328	11.927	14.730
TrackDT01	1	TrackDT	1.0	SCS215a	20120417.131945	20120417.132132	dt-generate	8	0.013328	60	10	60-180	60	81	GapExp	0	18	2	30	1	target	1	322	839	248724	13.328	7.713	18.936
TrackDT01	1	TrackDT	1.0	SCS215a	20120417.131945	20120417.132137	dt-generate	8	0.013328	60	10	60-180	60	179	GapExp	0	19	2	3	0	distractor	1	468	766	249490	13.328	8.285	18.369
TrackDT01	1	TrackDT	1.0	SCS215a	20120417.131945	20120417.132144	dt-generate	8	0.013328	60	10	60-180	60	122	GapExp	0	20	2	30	0	target	0	996	-1000	248490	13.328	13.301	13.349
TrackDT01	1	TrackDT	1.0	SCS215a	20120417.131945	20120417.132150	dt-generate	8	0.013328	60	10	60-180	60	103	GapExp	0	21	2	1	1	target	1	1249	376	248866	13.328	7.198	19.459
TrackDT01	1	TrackDT	1.0	SCS215a	20120417.131945	20120417.132156	dt-generate	8	0.013328	60	10	60-180	60	83	GapExp	0	22	2	1	0	distractor	1	575	713	249579	13.328	11.844	14.805
TrackDT01	1	TrackDT	1.0	SCS215a	20120417.131945	20120417.132201	dt-generate	8	0.013328	60	10	60-180	60	137	GapExp	0	23	2	3	0	target	0	737	-1000	248579	13.328	11.170	15.479
TrackDT01	1	TrackDT	1.0	SCS215a	20120417.131945	20120417.132207	dt-generate	8	0.013328	60	10	60-180	60	137	GapExp	0	24	2	0	1	distractor	0	739	-1000	247579	13.328	13.102	13.546
TrackDT01	1	TrackDT	1.0	SCS215a	20120417.131945	20120417.132213	dt-generate	8	0.013328	60	10	60-180	60	126	GapExp	0	25	2	30	0	early	-4	-929	-1000	246579	13.328	8.313	18.356
TrackDT01	1	TrackDT	1.0	SCS215a	20120417.131945	20120417.132220	dt-generate	8	0.013328	60	10	60-180	60	148	GapExp	0	26	2	1	0	target	0	438	-1000	245579	13.328	13.105	13.551
TrackDT01	1	TrackDT	1.0	SCS215a	20120417.131945	20120417.132226	dt-generate	8	0.013328	60	10	60-180	60	115	GapExp	0	27	2	0	0	target	0	779	-1000	244579	13.328	13.106	13.551
TrackDT01	1	TrackDT	1.0	SCS215a	20120417.131945	20120417.132232	dt-generate	8	0.013328	60	10	60-180	60	112	GapExp	0	28	2	1	0	distractor	1	934	533	245112	13.328	13.121	13.530
TrackDT01	1	TrackDT	1.0	SCS215a	20120417.131945	20120417.132237	dt-generate	8	0.013328	60	10	60-180	60	173	GapExp	0	29	2	1	1	target	1	498	751	245863	13.328	13.308	13.348
TrackDT01	1	TrackDT	1.0	SCS215a	20120417.131945	20120417.132244	dt-generate	8	0.013328	60	10	60-180	60	74	GapExp	0	30	2	0	1	distractor	0	809	-1000	244863	13.328	10.843	15.812
TrackDT01	1	TrackDT	1.0	SCS215a	20120417.131945	20120417.132249	dt-generate	8	0.013328	60	10	60-180	60	94	GapExp	0	31	2	3	0	target	0	679	-1000	243863	13.328	7.306	19.350
TrackDT01	1	TrackDT	1.0	SCS215a	20120417.131945	20120417.132255	dt-generate	8	0.013328	60	10	60-180	60	152	GapExp	0	32	2	30	1	target	1	744	628	244491	13.328	13.085	13.565
TrackDT01	1	TrackDT	1.0	SCS215a	20120417.131945	20120417.132301	dt-generate	8	0.013328	60	10	60-180	60	174	GapExp	0	33	2	0	0	target	0	406	-1000	243491	13.328	13.104	13.545
TrackDT01	1	TrackDT	1.0	SCS215a	20120417.131945	20120417.132307	dt-generate	8	0.013328	60	10	60-180	60	175	GapExp	0	34	2	3	0	distractor	1	479	761	244252	13.328	11.180	15.479
TrackDT01	1	TrackDT	1.0	SCS215a	20120417.131945	20120417.132314	dt-generate	8	0.013328	60	10	60-180	60	86	GapExp	0	35	2	30	0	target	0	489	-1000	243252	13.328	11.325	15.336
TrackDT01	1	TrackDT	1.0	SCS215a	20120417.131945	20120417.132319	dt-generate	8	0.013328	60	10	60-180	60	86	GapExp	0	36	2	0	0	distractor	1	2211	0	243252	13.328	9.813	16.836
TrackDT01	1	TrackDT	1.0	SCS215a	20120417.131945	20120417.132326	dt-generate	8	0.013328	60	10	60-180	60	151	GapExp	0	37	2	1	0	target	0	1746	-1000	242252	13.328	12.598	14.043
TrackDT01	1	TrackDT	1.0	SCS215a	20120417.131945	20120417.132333	dt-generate	8	0.013328	60	10	60-180	60	93	GapExp	0	38	2	30	0	distractor	1	485	758	243010	13.328	13.301	13.354
TrackDT01	1	TrackDT	1.0	SCS215a	20120417.131945	20120417.132339	dt-generate	8	0.013328	60	10	60-180	60	90	GapExp	0	39	2	30	0	target	0	645	-1000	242010	13.328	8.357	18.294
TrackDT01	1	TrackDT	1.0	SCS215a	20120417.131945	20120417.132345	dt-generate	8	0.013328	60	10	60-180	60	175	GapExp	0	40	2	0	0	distractor	1	763	619	242629	13.328	13.107	13.544
TrackDT01	1	TrackDT	1.0	SCS215a	20120417.131945	20120417.132351	dt-generate	8	0.013328	60	10	60-180	60	77	GapExp	0	41	2	3	1	target	1	366	817	243446	13.328	10.810	15.852
TrackDT01	1	TrackDT	1.0	SCS215a	20120417.131945	20120417.132357	dt-generate	8	0.013328	60	10	60-180	60	152	GapExp	0	42	2	3	1	target	1	349	826	244272	13.328	10.641	16.023
TrackDT01	1	TrackDT	1.0	SCS215a	20120417.131945	20120417.132402	dt-generate	8	0.013328	60	10	60-180	60	133	GapExp	0	43	2	3	0	distractor	1	397	802	245074	13.328	13.301	13.356
TrackDT01	1	TrackDT	1.0	SCS215a	20120417.131945	20120417.132408	dt-generate	8	0.013328	60	10	60-180	60	142	GapExp	0	44	2	0	1	target	1	372	814	245888	13.328	7.832	18.831
TrackDT01	1	TrackDT	1.0	SCS215a	20120417.131945	20120417.132414	dt-generate	8	0.013328	60	10	60-180	60	78	GapExp	0	45	2	3	0	early	-4	-481	-1000	244888	13.328	9.062	17.583
TrackDT01	1	TrackDT	1.0	SCS215a	20120417.131945	20120417.132419	dt-generate	8	0.013328	60	10	60-180	60	150	GapExp	0	46	2	3	1	target	1	351	825	245713	13.328	13.097	13.558
TrackDT01	1	TrackDT	1.0	SCS215a	20120417.131945	20120417.132425	dt-generate	8	0.013328	60	10	60-180	60	174	GapExp	0	47	2	0	1	target	1	1124	438	246151	13.328	11.755	14.902
TrackDT01	1	TrackDT	1.0	SCS215a	20120417.131945	20120417.132432	dt-generate	8	0.013328	60	10	60-180	60	173	GapExp	0	48	2	3	1	target	1	424	788	246939	13.328	10.079	16.585
TrackDT01	1	TrackDT	1.0	SCS215a	20120417.131945	20120417.132438	dt-generate	8	0.013328	60	10	60-180	60	93	GapExp	0	49	2	0	1	target	1	435	783	247722	13.328	6.538	20.132
TrackDT01	1	TrackDT	1.0	SCS215a	20120417.131945	20120417.132443	dt-generate	8	0.013328	60	10	60-180	60	130	GapExp	0	50	2	0	0	target	0	1005	-1000	246722	13.328	13.308	13.347
TrackDT01	1	TrackDT	1.0	SCS215a	20120417.131945	20120417.132508	dt-generate	8	0.013328	60	10	60-180	60	136	GapExp	0	51	2	1	1	distractor	0	346	-1000	245722	13.328	13.099	13.557
TrackDT01	1	TrackDT	1.0	SCS215a	20120417.131945	20120417.132514	dt-generate	8	0.013328	60	10	60-180	60	161	GapExp	0	52	2	30	1	target	1	331	835	246557	13.311	8.253	13.542
TrackDT01	1	TrackDT	1.0	SCS215a	20120417.131945	20120417.132520	dt-generate	8	0.013328	60	10	60-180	60	145	GapExp	0	53	2	30	1	distractor	0	459	-1000	245557	13.328	12.563	14.100
TrackDT01	1	TrackDT	1.0	SCS215a	20120417.131945	20120417.132526	dt-generate	8	0.013328	60	10	60-180	60	156	GapExp	0	54	2	3	0	distractor	1	500	750	246307	13.328	9.195	17.469
TrackDT01	1	TrackDT	1.0	SCS215a	20120417.131945	20120417.132532	dt-generate	8	0.013328	60	10	60-180	60	116	GapExp	0	55	2	30	1	target	1	407	797	247104	13.328	8.075	18.585
TrackDT01	1	TrackDT	1.0	SCS215a	20120417.131945	20120417.132538	dt-generate	8	0.013328	60	10	60-180	60	106	GapExp	0	56	2	30	0	target	0	599	-1000	246104	13.328	13.308	13.348
TrackDT01	1	TrackDT	1.0	SCS215a	20120417.131945	20120417.132544	dt-generate	8	0.013328	60	10	60-180	60	170	GapExp	0	57	2	0	0	distractor	1	748	626	246730	13.328	12.854	13.796
TrackDT01	1	TrackDT	1.0	SCS215a	20120417.131945	20120417.132551	dt-generate	8	0.013328	60	10	60-180	60	113	GapExp	0	58	2	3	0	target	0	404	-1000	245730	13.328	6.616	20.050
TrackDT01	1	TrackDT	1.0	SCS215a	20120417.131945	20120417.132556	dt-generate	8	0.013328	60	10	60-180	60	147	GapExp	0	59	2	0	0	distractor	1	672	664	246394	13.328	6.191	20.472
TrackDT01	1	TrackDT	1.0	SCS215a	20120417.131945	20120417.132602	dt-generate	8	0.013328	60	10	60-180	60	107	GapExp	0	60	2	3	0	distractor	1	479	761	247155	13.328	8.141	18.522
TrackDT01	1	TrackDT	1.0	SCS215a	20120417.131945	20120417.132608	dt-generate	8	0.013328	60	10	60-180	60	96	GapExp	0	61	2	3	1	target	1	1443	279	247434	13.328	11.883	14.773
TrackDT01	1	TrackDT	1.0	SCS215a	20120417.131945	20120417.132614	dt-generate	8	0.013328	60	10	60-180	60	125	GapExp	0	62	2	1	1	target	1	1351	325	247759	13.328	13.303	13.347
TrackDT01	1	TrackDT	1.0	SCS215a	20120417.131945	20120417.132621	dt-generate	8	0.013328	60	10	60-180	60	167	GapExp	0	63	2	3	0	distractor	1	646	677	248436	13.328	6.698	19.966
TrackDT01	1	TrackDT	1.0	SCS215a	20120417.131945	20120417.132627	dt-generate	8	0.013328	60	10	60-180	60	142	GapExp	0	64	2	0	0	distractor	1	474	763	249199	13.327	8.704	17.958
TrackDT01	1	TrackDT	1.0	SCS215a	20120417.131945	20120417.132633	dt-generate	8	0.013328	60	10	60-180	60	129	GapExp	0	65	2	1	1	target	1	434	783	249982	13.328	6.580	20.067
TrackDT01	1	TrackDT	1.0	SCS215a	20120417.131945	20120417.132639	dt-generate	8	0.013328	60	10	60-180	60	88	GapExp	0	66	2	1	1	distractor	0	823	-1000	248982	13.328	11.931	14.737
TrackDT01	1	TrackDT	1.0	SCS215a	20120417.131945	20120417.132644	dt-generate	8	0.013328	60	10	60-180	60	167	GapExp	0	67	2	30	0	distractor	1	473	764	249746	13.328	11.345	15.300
TrackDT01	1	TrackDT	1.0	SCS215a	20120417.131945	20120417.132650	dt-generate	8	0.013328	60	10	60-180	60	81	GapExp	0	68	2	3	1	target	1	296	852	250598	13.328	10.542	16.114
TrackDT01	1	TrackDT	1.0	SCS215a	20120417.131945	20120417.132656	dt-generate	8	0.013328	60	10	60-180	60	72	GapExp	0	69	2	1	0	distractor	1	427	787	251385	13.328	13.038	13.611
TrackDT01	1	TrackDT	1.0	SCS215a	20120417.131945	20120417.132701	dt-generate	8	0.013328	60	10	60-180	60	98	GapExp	0	70	2	30	0	target	0	978	-1000	250385	13.328	13.090	13.567
TrackDT01	1	TrackDT	1.0	SCS215a	20120417.131945	20120417.132707	dt-generate	8	0.013328	60	10	60-180	60	96	GapExp	0	71	2	0	1	distractor	0	503	-1000	249385	13.328	13.096	13.560
TrackDT01	1	TrackDT	1.0	SCS215a	20120417.131945	20120417.132712	dt-generate	8	0.013328	60	10	60-180	60	147	GapExp	0	72	2	0	0	distractor	1	444	778	250163	13.328	7.647	19.009
TrackDT01	1	TrackDT	1.0	SCS215a	20120417.131945	20120417.132718	dt-generate	8	0.013328	60	10	60-180	60	79	GapExp	0	73	2	1	1	target	1	385	808	250971	13.328	12.302	14.346
TrackDT01	1	TrackDT	1.0	SCS215a	20120417.131945	20120417.132723	dt-generate	8	0.013328	60	10	60-180	60	80	GapExp	0	74	2	0	0	distractor	1	528	736	251707	13.328	8.538	18.118
TrackDT01	1	TrackDT	1.0	SCS215a	20120417.131945	20120417.132728	dt-generate	8	0.013328	60	10	60-180	60	136	GapExp	0	75	2	1	0	distractor	1	455	773	252480	13.328	6.890	19.764
TrackDT01	1	TrackDT	1.0	SCS215a	20120417.131945	20120417.132734	dt-generate	8	0.013328	60	10	60-180	60	121	GapExp	0	76	2	1	1	target	1	368	816	253296	13.328	8.609	18.041
TrackDT01	1	TrackDT	1.0	SCS215a	20120417.131945	20120417.132739	dt-generate	8	0.013328	60	10	60-180	60	142	GapExp	0	77	2	0	0	target	0	922	-1000	252296	13.328	6.620	20.044
TrackDT01	1	TrackDT	1.0	SCS215a	20120417.131945	20120417.132746	dt-generate	8	0.013328	60	10	60-180	60	94	GapExp	0	78	2	0	0	distractor	1	637	682	252978	13.328	13.310	13.347
TrackDT01	1	TrackDT	1.0	SCS215a	20120417.131945	20120417.132751	dt-generate	8	0.013328	60	10	60-180	60	124	GapExp	0	79	2	1	0	target	0	1008	-1000	251978	13.328	4.096	22.566
TrackDT01	1	TrackDT	1.0	SCS215a	20120417.131945	20120417.132757	dt-generate	8	0.013328	60	10	60-180	60	102	GapExp	0	80	2	3	1	target	1	525	738	252716	13.328	7.831	18.819
TrackDT01	1	TrackDT	1.0	SCS215a	20120417.131945	20120417.132803	dt-generate	8	0.013328	60	10	60-180	60	106	GapExp	0	81	2	30	1	distractor	0	1059	-1000	251716	13.328	11.604	15.045
TrackDT01	1	TrackDT	1.0	SCS215a	20120417.131945	20120417.132809	dt-generate	8	0.013328	60	10	60-180	60	69	GapExp	0	82	2	3	0	distractor	1	557	722	252438	13.328	10.630	16.031
TrackDT01	1	TrackDT	1.0	SCS215a	20120417.131945	20120417.132814	dt-generate	8	0.013328	60	10	60-180	60	134	GapExp	0	83	2	0	1	target	1	346	827	253265	13.328	13.308	13.352
