exp	sub	code	rev	comp	runtime	trialtime	stdt	nstim	refreshdur	cuedur	gapdur	gapOnsetRange	durPostProbe	gapOnsetTime	blocktype	prac	trial	ntargets	soa	probeTarget	resp	acc	rt	pts	tpts	meanFrameDur	minFrameDur	maxFrameDur
TrackDT01	7	TrackDT	1.0	SCS215a	20120426.121812	20120426.121823	single-task	8	0.013327	60	0	60-180	60	87	NoGap	1	1	2	0	0	target	0	1096	-1000	-1000	13.328	12.829	13.840
TrackDT01	7	TrackDT	1.0	SCS215a	20120426.121812	20120426.121830	single-task	8	0.013327	60	0	60-180	60	167	NoGap	1	2	2	0	0	distractor	1	611	695	-305	13.328	10.304	16.360
TrackDT01	7	TrackDT	1.0	SCS215a	20120426.121812	20120426.121836	single-task	8	0.013327	60	0	60-180	60	84	NoGap	1	3	2	1	1	target	1	844	578	273	13.328	7.089	19.611
TrackDT01	7	TrackDT	1.0	SCS215a	20120426.121812	20120426.121841	single-task	8	0.013327	60	0	60-180	60	81	NoGap	1	4	2	1	0	distractor	1	424	788	1061	13.328	13.307	13.350
TrackDT01	7	TrackDT	1.0	SCS215a	20120426.121812	20120426.121846	single-task	8	0.013327	60	0	60-180	60	177	NoGap	1	5	2	3	0	distractor	1	369	816	1877	13.328	13.125	13.436
TrackDT01	7	TrackDT	1.0	SCS215a	20120426.121812	20120426.121852	single-task	8	0.013327	60	0	60-180	60	166	NoGap	1	6	2	30	1	distractor	0	704	-1000	877	13.328	13.001	13.647
TrackDT01	7	TrackDT	1.0	SCS215a	20120426.121812	20120426.121858	single-task	8	0.013327	60	0	60-180	60	70	NoGap	1	7	2	1	1	target	1	598	701	1578	13.328	12.968	13.685
TrackDT01	7	TrackDT	1.0	SCS215a	20120426.121812	20120426.121904	single-task	8	0.013327	60	0	60-180	60	150	NoGap	1	8	2	1	1	target	1	564	718	2296	13.328	10.914	15.748
TrackDT01	7	TrackDT	1.0	SCS215a	20120426.121812	20120426.121910	single-task	8	0.013327	60	0	60-180	60	107	NoGap	1	9	2	0	0	distractor	1	467	767	3063	13.328	12.619	14.024
TrackDT01	7	TrackDT	1.0	SCS215a	20120426.121812	20120426.121915	single-task	8	0.013327	60	0	60-180	60	161	NoGap	1	10	2	30	1	target	1	673	664	3727	13.328	10.231	16.430
TrackDT01	7	TrackDT	1.0	SCS215a	20120426.121812	20120426.121921	single-task	8	0.013327	60	0	60-180	60	135	NoGap	1	11	2	30	0	distractor	1	388	806	4533	13.328	13.165	13.448
TrackDT01	7	TrackDT	1.0	SCS215a	20120426.121812	20120426.121927	single-task	8	0.013327	60	0	60-180	60	112	NoGap	1	12	2	1	0	distractor	1	417	792	5325	13.328	11.413	15.244
TrackDT01	7	TrackDT	1.0	SCS215a	20120426.121812	20120426.121932	single-task	8	0.013327	60	0	60-180	60	91	NoGap	1	13	2	30	0	distractor	1	615	693	6018	13.328	6.296	20.375
TrackDT01	7	TrackDT	1.0	SCS215a	20120426.121812	20120426.121938	single-task	8	0.013327	60	0	60-180	60	156	NoGap	1	14	2	0	1	target	1	369	816	6834	13.328	8.226	18.425
TrackDT01	7	TrackDT	1.0	SCS215a	20120426.121812	20120426.121944	single-task	8	0.013327	60	0	60-180	60	149	NoGap	1	15	2	3	0	distractor	1	464	768	7602	13.328	9.966	16.704
TrackDT01	7	TrackDT	1.0	SCS215a	20120426.121812	20120426.121950	single-task	8	0.013327	60	0	60-180	60	79	NoGap	1	16	2	0	1	distractor	0	353	-1000	6602	13.328	13.278	13.389
TrackDT01	7	TrackDT	1.0	SCS215a	20120426.121812	20120426.121954	single-task	8	0.013327	60	0	60-180	60	164	NoGap	1	17	2	0	1	target	1	467	767	7369	13.328	13.097	13.572
TrackDT01	7	TrackDT	1.0	SCS215a	20120426.121812	20120426.122000	single-task	8	0.013327	60	0	60-180	60	63	NoGap	1	18	2	0	1	target	1	480	760	8129	13.328	13.104	13.558
TrackDT01	7	TrackDT	1.0	SCS215a	20120426.121812	20120426.122005	single-task	8	0.013327	60	0	60-180	60	160	NoGap	1	19	2	3	0	distractor	1	477	762	8891	13.328	13.305	13.345
TrackDT01	7	TrackDT	1.0	SCS215a	20120426.121812	20120426.122011	single-task	8	0.013327	60	0	60-180	60	100	NoGap	1	20	2	30	0	distractor	1	748	626	9517	13.328	13.124	13.441
TrackDT01	7	TrackDT	1.0	SCS215a	20120426.121812	20120426.122017	single-task	8	0.013327	60	0	60-180	60	82	NoGap	1	21	2	1	0	target	0	742	-1000	8517	13.328	12.886	13.775
TrackDT01	7	TrackDT	1.0	SCS215a	20120426.121812	20120426.122022	single-task	8	0.013327	60	0	60-180	60	124	NoGap	1	22	2	3	1	distractor	0	935	-1000	7517	13.328	13.104	13.544
TrackDT01	7	TrackDT	1.0	SCS215a	20120426.121812	20120426.122028	single-task	8	0.013327	60	0	60-180	60	146	NoGap	1	23	2	3	0	distractor	1	278	861	8378	13.328	6.680	19.962
TrackDT01	7	TrackDT	1.0	SCS215a	20120426.121812	20120426.122034	single-task	8	0.013327	60	0	60-180	60	78	NoGap	1	24	2	3	1	target	1	502	749	9127	13.328	13.113	13.496
TrackDT01	7	TrackDT	1.0	SCS215a	20120426.121812	20120426.122038	single-task	8	0.013327	60	0	60-180	60	160	NoGap	1	25	2	0	0	distractor	1	336	832	9959	13.328	10.249	16.408
TrackDT01	7	TrackDT	1.0	SCS215a	20120426.121812	20120426.122045	single-task	8	0.013327	60	0	60-180	60	77	NoGap	1	26	2	1	0	target	0	539	-1000	8959	13.328	9.124	17.522
TrackDT01	7	TrackDT	1.0	SCS215a	20120426.121812	20120426.122050	single-task	8	0.013327	60	0	60-180	60	109	NoGap	1	27	2	30	0	target	0	448	-1000	7959	13.328	10.306	16.464
TrackDT01	7	TrackDT	1.0	SCS215a	20120426.121812	20120426.122055	single-task	8	0.013327	60	0	60-180	60	82	NoGap	1	28	2	3	0	distractor	1	658	671	8630	13.328	11.139	14.551
TrackDT01	7	TrackDT	1.0	SCS215a	20120426.121812	20120426.122100	single-task	8	0.013327	60	0	60-180	60	147	NoGap	1	29	2	0	1	target	1	383	809	9439	13.328	11.788	14.847
TrackDT01	7	TrackDT	1.0	SCS215a	20120426.121812	20120426.122106	single-task	8	0.013327	60	0	60-180	60	165	NoGap	1	30	2	30	1	distractor	0	430	-1000	8439	13.328	5.454	21.190
TrackDT01	7	TrackDT	1.0	SCS215a	20120426.121812	20120426.122112	single-task	8	0.013327	60	0	60-180	60	88	NoGap	1	31	2	3	1	target	1	437	782	9221	13.328	11.650	14.991
TrackDT01	7	TrackDT	1.0	SCS215a	20120426.121812	20120426.122117	single-task	8	0.013327	60	0	60-180	60	111	NoGap	1	32	2	30	0	distractor	1	534	733	9954	13.328	10.046	16.603
TrackDT01	7	TrackDT	1.0	SCS215a	20120426.121812	20120426.122123	single-task	8	0.013327	60	0	60-180	60	170	NoGap	1	33	2	1	1	distractor	0	679	-1000	8954	13.328	9.840	16.823
TrackDT01	7	TrackDT	1.0	SCS215a	20120426.121812	20120426.122129	single-task	8	0.013327	60	0	60-180	60	105	NoGap	1	34	2	3	1	target	1	579	711	9665	13.328	13.304	13.351
TrackDT01	7	TrackDT	1.0	SCS215a	20120426.121812	20120426.122135	single-task	8	0.013327	60	0	60-180	60	62	NoGap	1	35	2	3	1	target	1	490	755	10420	13.328	13.298	13.345
TrackDT01	7	TrackDT	1.0	SCS215a	20120426.121812	20120426.122139	single-task	8	0.013327	60	0	60-180	60	122	NoGap	1	36	2	30	1	target	1	422	789	11209	13.328	12.085	14.569
TrackDT01	7	TrackDT	1.0	SCS215a	20120426.121812	20120426.122145	single-task	8	0.013327	60	0	60-180	60	126	NoGap	1	37	2	30	1	target	1	305	848	12057	13.328	13.104	13.559
TrackDT01	7	TrackDT	1.0	SCS215a	20120426.121812	20120426.122151	single-task	8	0.013327	60	0	60-180	60	115	NoGap	1	38	2	1	1	target	1	418	791	12848	13.328	12.226	14.429
TrackDT01	7	TrackDT	1.0	SCS215a	20120426.121812	20120426.122156	single-task	8	0.013327	60	0	60-180	60	86	NoGap	1	39	2	1	0	distractor	1	454	773	13621	13.677	8.965	35.604
TrackDT01	7	TrackDT	1.0	SCS215a	20120426.121812	20120426.122201	single-task	8	0.013327	60	0	60-180	60	101	NoGap	1	40	2	0	0	distractor	1	527	737	14358	13.328	13.302	13.350
TrackDT01	7	TrackDT	1.0	SCS215a	20120426.122303	20120426.122312	single-task	8	0.013327	60	10	60-180	60	103	GapPrac	1	1	2	30	1	target	1	443	779	15137	13.328	10.570	16.081
TrackDT01	7	TrackDT	1.0	SCS215a	20120426.122303	20120426.122318	single-task	8	0.013327	60	10	60-180	60	93	GapPrac	1	2	2	0	0	distractor	1	565	718	15855	13.328	10.196	16.483
TrackDT01	7	TrackDT	1.0	SCS215a	20120426.122303	20120426.122324	single-task	8	0.013327	60	10	60-180	60	122	GapPrac	1	3	2	30	0	target	0	528	-1000	14855	13.328	11.402	15.247
TrackDT01	7	TrackDT	1.0	SCS215a	20120426.122303	20120426.122330	single-task	8	0.013327	60	10	60-180	60	69	GapPrac	1	4	2	1	0	distractor	1	671	665	15520	13.328	9.620	17.029
TrackDT01	7	TrackDT	1.0	SCS215a	20120426.122303	20120426.122335	single-task	8	0.013327	60	10	60-180	60	153	GapPrac	1	5	2	1	0	target	0	645	-1000	14520	13.328	9.387	17.279
TrackDT01	7	TrackDT	1.0	SCS215a	20120426.122303	20120426.122341	single-task	8	0.013327	60	10	60-180	60	82	GapPrac	1	6	2	0	1	target	1	758	621	15141	13.328	13.139	13.525
TrackDT01	7	TrackDT	1.0	SCS215a	20120426.122303	20120426.122346	single-task	8	0.013327	60	10	60-180	60	98	GapPrac	1	7	2	3	0	distractor	1	690	655	15796	13.328	13.092	13.572
TrackDT01	7	TrackDT	1.0	SCS215a	20120426.122303	20120426.122352	single-task	8	0.013327	60	10	60-180	60	102	GapPrac	1	8	2	3	0	distractor	1	481	760	16556	13.328	13.092	13.558
TrackDT01	7	TrackDT	1.0	SCS215a	20120426.122303	20120426.122357	single-task	8	0.013327	60	10	60-180	60	111	GapPrac	1	9	2	30	0	distractor	1	395	803	17359	13.328	6.938	19.805
TrackDT01	7	TrackDT	1.0	SCS215a	20120426.122303	20120426.122403	single-task	8	0.013327	60	10	60-180	60	87	GapPrac	1	10	2	30	0	distractor	1	404	798	18157	13.328	13.287	13.360
TrackDT01	7	TrackDT	1.0	SCS215a	20120426.122303	20120426.122408	single-task	8	0.013327	60	10	60-180	60	61	GapPrac	1	11	2	0	1	target	1	719	641	18798	13.328	10.998	15.652
TrackDT01	7	TrackDT	1.0	SCS215a	20120426.122303	20120426.122413	single-task	8	0.013327	60	10	60-180	60	143	GapPrac	1	12	2	0	0	target	0	842	-1000	17798	13.328	11.376	15.280
TrackDT01	7	TrackDT	1.0	SCS215a	20120426.122303	20120426.122419	single-task	8	0.013327	60	10	60-180	60	161	GapPrac	1	13	2	0	0	distractor	1	795	603	18401	13.328	11.901	14.778
TrackDT01	7	TrackDT	1.0	SCS215a	20120426.122303	20120426.122426	single-task	8	0.013327	60	10	60-180	60	162	GapPrac	1	14	2	1	1	target	1	645	678	19079	13.328	5.421	21.223
TrackDT01	7	TrackDT	1.0	SCS215a	20120426.122303	20120426.122433	single-task	8	0.013327	60	10	60-180	60	83	GapPrac	1	15	2	1	1	distractor	0	440	-1000	18079	13.329	13.307	13.557
TrackDT01	7	TrackDT	1.0	SCS215a	20120426.122303	20120426.122437	single-task	8	0.013327	60	10	60-180	60	168	GapPrac	1	16	2	3	1	target	1	366	817	18896	13.328	13.294	13.367
TrackDT01	7	TrackDT	1.0	SCS215a	20120426.122303	20120426.122444	single-task	8	0.013327	60	10	60-180	60	116	GapPrac	1	17	2	30	1	target	1	473	764	19660	13.328	5.462	21.183
TrackDT01	7	TrackDT	1.0	SCS215a	20120426.122303	20120426.122449	single-task	8	0.013327	60	10	60-180	60	173	GapPrac	1	18	2	1	0	distractor	1	521	740	20400	13.328	13.250	13.403
TrackDT01	7	TrackDT	1.0	SCS215a	20120426.122303	20120426.122456	single-task	8	0.013327	60	10	60-180	60	97	GapPrac	1	19	2	30	1	target	1	668	666	21066	13.328	13.106	13.549
TrackDT01	7	TrackDT	1.0	SCS215a	20120426.122303	20120426.122502	single-task	8	0.013327	60	10	60-180	60	122	GapPrac	1	20	2	3	1	target	1	463	769	21835	13.328	9.516	17.190
TrackDT01	7	TrackDT	1.0	SCS215a	20120426.122520	20120426.122524	single-task	8	0.013308	60	10	60-180	60	125	GapExp	1	1	2	0	0	target	0	643	-1000	20835	13.328	13.106	13.544
TrackDT01	7	TrackDT	1.0	SCS215a	20120426.122520	20120426.122530	single-task	8	0.013308	60	10	60-180	60	169	GapExp	1	2	2	0	1	distractor	0	507	-1000	19835	13.328	13.093	13.571
TrackDT01	7	TrackDT	1.0	SCS215a	20120426.122520	20120426.122537	single-task	8	0.013308	60	10	60-180	60	93	GapExp	1	3	2	3	1	target	1	391	805	20640	13.328	13.096	13.558
TrackDT01	7	TrackDT	1.0	SCS215a	20120426.122520	20120426.122542	single-task	8	0.013308	60	10	60-180	60	142	GapExp	1	4	2	30	1	target	1	459	771	21411	13.327	13.111	13.544
TrackDT01	7	TrackDT	1.0	SCS215a	20120426.122520	20120426.122548	single-task	8	0.013308	60	10	60-180	60	171	GapExp	1	5	2	30	0	distractor	1	414	793	22204	13.328	6.400	20.246
TrackDT01	7	TrackDT	1.0	SCS215a	20120426.122520	20120426.122554	single-task	8	0.013308	60	10	60-180	60	142	GapExp	1	6	2	3	0	target	0	852	-1000	21204	13.328	12.177	14.479
TrackDT01	7	TrackDT	1.0	SCS215a	20120426.122520	20120426.122601	single-task	8	0.013308	60	10	60-180	60	151	GapExp	1	7	2	1	0	target	0	711	-1000	20204	13.328	13.254	13.445
TrackDT01	7	TrackDT	1.0	SCS215a	20120426.122520	20120426.122607	single-task	8	0.013308	60	10	60-180	60	104	GapExp	1	8	2	1	1	distractor	0	729	-1000	19204	13.328	12.796	13.866
TrackDT01	7	TrackDT	1.0	SCS215a	20120426.122520	20120426.122613	single-task	8	0.013308	60	10	60-180	60	79	GapExp	0	9	2	30	0	distractor	1	458	771	19975	13.386	9.551	24.877
TrackDT01	7	TrackDT	1.0	SCS215a	20120426.122520	20120426.122618	single-task	8	0.013308	60	10	60-180	60	106	GapExp	0	10	2	1	0	distractor	1	658	671	20646	13.328	12.657	13.938
TrackDT01	7	TrackDT	1.0	SCS215a	20120426.122520	20120426.122624	single-task	8	0.013308	60	10	60-180	60	157	GapExp	0	11	2	1	0	distractor	1	710	645	21291	13.354	12.965	21.207
TrackDT01	7	TrackDT	1.0	SCS215a	20120426.122520	20120426.122630	single-task	8	0.013308	60	10	60-180	60	122	GapExp	0	12	2	1	0	distractor	1	559	721	22012	13.328	11.271	14.491
TrackDT01	7	TrackDT	1.0	SCS215a	20120426.122520	20120426.122636	single-task	8	0.013308	60	10	60-180	60	81	GapExp	0	13	2	3	1	distractor	0	804	-1000	21012	13.328	12.216	14.441
TrackDT01	7	TrackDT	1.0	SCS215a	20120426.122520	20120426.122641	single-task	8	0.013308	60	10	60-180	60	162	GapExp	0	14	2	0	1	target	1	617	692	21704	13.328	13.089	13.555
TrackDT01	7	TrackDT	1.0	SCS215a	20120426.122520	20120426.122647	single-task	8	0.013308	60	10	60-180	60	64	GapExp	0	15	2	1	0	distractor	1	486	757	22461	13.328	13.099	13.564
TrackDT01	7	TrackDT	1.0	SCS215a	20120426.122520	20120426.122652	single-task	8	0.013308	60	10	60-180	60	179	GapExp	0	16	2	0	1	target	1	366	817	23278	13.328	12.999	13.646
TrackDT01	7	TrackDT	1.0	SCS215a	20120426.122520	20120426.122658	single-task	8	0.013308	60	10	60-180	60	124	GapExp	0	17	2	0	1	target	1	449	776	24054	13.382	5.480	25.578
TrackDT01	7	TrackDT	1.0	SCS215a	20120426.122520	20120426.122704	single-task	8	0.013308	60	10	60-180	60	129	GapExp	0	18	2	30	0	distractor	1	624	688	24742	13.328	13.309	13.346
TrackDT01	7	TrackDT	1.0	SCS215a	20120426.122520	20120426.122711	single-task	8	0.013308	60	10	60-180	60	104	GapExp	0	19	2	0	1	target	1	658	671	25413	13.328	13.307	13.349
TrackDT01	7	TrackDT	1.0	SCS215a	20120426.122520	20120426.122716	single-task	8	0.013308	60	10	60-180	60	100	GapExp	0	20	2	30	0	distractor	1	361	820	26233	13.328	8.975	17.676
TrackDT01	7	TrackDT	1.0	SCS215a	20120426.122520	20120426.122722	single-task	8	0.013308	60	10	60-180	60	135	GapExp	0	21	2	1	1	target	1	454	773	27006	13.328	13.092	13.564
TrackDT01	7	TrackDT	1.0	SCS215a	20120426.122520	20120426.122727	single-task	8	0.013308	60	10	60-180	60	87	GapExp	0	22	2	30	0	distractor	1	403	799	27805	13.328	13.300	13.350
TrackDT01	7	TrackDT	1.0	SCS215a	20120426.122520	20120426.122733	single-task	8	0.013308	60	10	60-180	60	128	GapExp	0	23	2	1	1	target	1	707	647	28452	13.328	13.276	13.377
TrackDT01	7	TrackDT	1.0	SCS215a	20120426.122520	20120426.122738	single-task	8	0.013308	60	10	60-180	60	84	GapExp	0	24	2	0	1	target	1	482	759	29211	13.328	13.006	13.642
TrackDT01	7	TrackDT	1.0	SCS215a	20120426.122520	20120426.122744	single-task	8	0.013308	60	10	60-180	60	136	GapExp	0	25	2	3	0	distractor	1	449	776	29987	13.328	13.113	13.545
TrackDT01	7	TrackDT	1.0	SCS215a	20120426.122520	20120426.122750	single-task	8	0.013308	60	10	60-180	60	126	GapExp	0	26	2	3	0	distractor	1	728	636	30623	13.328	13.090	13.550
TrackDT01	7	TrackDT	1.0	SCS215a	20120426.122520	20120426.122755	single-task	8	0.013308	60	10	60-180	60	104	GapExp	0	27	2	30	1	distractor	0	573	-1000	29623	13.328	13.092	13.560
TrackDT01	7	TrackDT	1.0	SCS215a	20120426.122520	20120426.122801	single-task	8	0.013308	60	10	60-180	60	156	GapExp	0	28	2	0	1	target	1	376	812	30435	13.328	13.191	13.465
TrackDT01	7	TrackDT	1.0	SCS215a	20120426.122520	20120426.122807	single-task	8	0.013308	60	10	60-180	60	155	GapExp	0	29	2	0	1	target	1	286	857	31292	13.328	5.891	20.772
TrackDT01	7	TrackDT	1.0	SCS215a	20120426.122520	20120426.122813	single-task	8	0.013308	60	10	60-180	60	110	GapExp	0	30	2	1	1	target	1	323	839	32131	13.328	11.439	15.219
TrackDT01	7	TrackDT	1.0	SCS215a	20120426.122520	20120426.122819	single-task	8	0.013308	60	10	60-180	60	125	GapExp	0	31	2	3	1	target	1	261	870	33001	13.328	10.721	15.938
TrackDT01	7	TrackDT	1.0	SCS215a	20120426.122520	20120426.122824	single-task	8	0.013308	60	10	60-180	60	128	GapExp	0	32	2	30	0	distractor	1	268	866	33867	13.328	9.274	17.368
TrackDT01	7	TrackDT	1.0	SCS215a	20120426.122520	20120426.122830	single-task	8	0.013308	60	10	60-180	60	107	GapExp	0	33	2	30	1	distractor	0	481	-1000	32867	13.328	13.299	13.351
TrackDT01	7	TrackDT	1.0	SCS215a	20120426.122520	20120426.122835	single-task	8	0.013308	60	10	60-180	60	100	GapExp	0	34	2	3	0	distractor	1	720	640	33507	13.328	13.077	13.573
TrackDT01	7	TrackDT	1.0	SCS215a	20120426.122520	20120426.122841	single-task	8	0.013308	60	10	60-180	60	86	GapExp	0	35	2	3	0	distractor	1	437	782	34289	13.328	7.376	19.279
TrackDT01	7	TrackDT	1.0	SCS215a	20120426.122520	20120426.122846	single-task	8	0.013308	60	10	60-180	60	144	GapExp	0	36	2	1	0	distractor	1	623	689	34978	13.328	8.278	18.383
TrackDT01	7	TrackDT	1.0	SCS215a	20120426.122520	20120426.122852	single-task	8	0.013308	60	10	60-180	60	136	GapExp	0	37	2	3	1	target	1	443	779	35757	13.328	9.234	17.427
TrackDT01	7	TrackDT	1.0	SCS215a	20120426.122520	20120426.122858	single-task	8	0.013308	60	10	60-180	60	85	GapExp	0	38	2	3	0	distractor	1	656	672	36429	13.328	4.458	22.190
TrackDT01	7	TrackDT	1.0	SCS215a	20120426.122520	20120426.122903	single-task	8	0.013308	60	10	60-180	60	177	GapExp	0	39	2	0	0	distractor	1	515	743	37172	13.328	12.396	14.247
TrackDT01	7	TrackDT	1.0	SCS215a	20120426.122520	20120426.122909	single-task	8	0.013308	60	10	60-180	60	79	GapExp	0	40	2	1	1	target	1	383	809	37981	13.328	12.565	14.075
TrackDT01	7	TrackDT	1.0	SCS215a	20120426.122520	20120426.122914	single-task	8	0.013308	60	10	60-180	60	87	GapExp	0	41	2	0	0	distractor	1	486	757	38738	13.328	13.105	13.558
TrackDT01	7	TrackDT	1.0	SCS215a	20120426.122520	20120426.122919	single-task	8	0.013308	60	10	60-180	60	172	GapExp	0	42	2	1	0	distractor	1	364	818	39556	13.328	13.093	13.557
TrackDT01	7	TrackDT	1.0	SCS215a	20120426.122520	20120426.122926	single-task	8	0.013308	60	10	60-180	60	72	GapExp	0	43	2	0	0	distractor	1	491	755	40311	13.328	13.311	13.356
TrackDT01	7	TrackDT	1.0	SCS215a	20120426.122520	20120426.122931	single-task	8	0.013308	60	10	60-180	60	63	GapExp	0	44	2	0	1	target	1	395	803	41114	13.328	13.302	13.353
TrackDT01	7	TrackDT	1.0	SCS215a	20120426.122520	20120426.122935	single-task	8	0.013308	60	10	60-180	60	84	GapExp	0	45	2	1	0	distractor	1	518	741	41855	13.327	13.106	13.551
TrackDT01	7	TrackDT	1.0	SCS215a	20120426.122520	20120426.122940	single-task	8	0.013308	60	10	60-180	60	147	GapExp	0	46	2	0	0	target	0	696	-1000	40855	13.328	10.237	16.405
TrackDT01	7	TrackDT	1.0	SCS215a	20120426.122520	20120426.122946	single-task	8	0.013308	60	10	60-180	60	81	GapExp	0	47	2	30	1	distractor	0	611	-1000	39855	13.328	13.302	13.351
TrackDT01	7	TrackDT	1.0	SCS215a	20120426.122520	20120426.122952	single-task	8	0.013308	60	10	60-180	60	159	GapExp	0	48	2	1	1	distractor	0	513	-1000	38855	13.328	10.172	16.483
TrackDT01	7	TrackDT	1.0	SCS215a	20120426.122520	20120426.122958	single-task	8	0.013308	60	10	60-180	60	142	GapExp	0	49	2	30	0	distractor	1	488	756	39611	13.328	8.345	18.303
TrackDT01	7	TrackDT	1.0	SCS215a	20120426.122520	20120426.123005	single-task	8	0.013308	60	10	60-180	60	150	GapExp	0	50	2	3	0	distractor	1	628	686	40297	13.328	8.907	17.749
TrackDT01	7	TrackDT	1.0	SCS215a	20120426.122520	20120426.123019	single-task	8	0.013308	60	10	60-180	60	64	GapExp	0	51	2	0	0	target	0	469	-1000	39297	13.328	12.253	14.405
TrackDT01	7	TrackDT	1.0	SCS215a	20120426.122520	20120426.123024	single-task	8	0.013308	60	10	60-180	60	99	GapExp	0	52	2	0	0	target	0	560	-1000	38297	13.328	12.609	14.053
TrackDT01	7	TrackDT	1.0	SCS215a	20120426.122520	20120426.123030	single-task	8	0.013308	60	10	60-180	60	120	GapExp	0	53	2	0	0	distractor	1	538	731	39028	13.328	13.112	13.545
TrackDT01	7	TrackDT	1.0	SCS215a	20120426.122520	20120426.123036	single-task	8	0.013308	60	10	60-180	60	74	GapExp	0	54	2	30	0	distractor	1	459	771	39799	13.328	13.301	13.360
TrackDT01	7	TrackDT	1.0	SCS215a	20120426.122520	20120426.123041	single-task	8	0.013308	60	10	60-180	60	165	GapExp	0	55	2	3	1	target	1	404	798	40597	13.328	13.307	13.347
TrackDT01	7	TrackDT	1.0	SCS215a	20120426.122520	20120426.123047	single-task	8	0.013308	60	10	60-180	60	163	GapExp	0	56	2	3	1	target	1	528	736	41333	13.328	12.957	13.712
TrackDT01	7	TrackDT	1.0	SCS215a	20120426.122520	20120426.123053	single-task	8	0.013308	60	10	60-180	60	107	GapExp	0	57	2	0	0	distractor	1	600	700	42033	13.328	13.307	13.353
TrackDT01	7	TrackDT	1.0	SCS215a	20120426.122520	20120426.123058	single-task	8	0.013308	60	10	60-180	60	70	GapExp	0	58	2	0	1	target	1	349	826	42859	13.328	12.351	14.296
TrackDT01	7	TrackDT	1.0	SCS215a	20120426.122520	20120426.123104	single-task	8	0.013308	60	10	60-180	60	150	GapExp	0	59	2	1	1	target	1	332	834	43693	13.328	13.307	13.352
TrackDT01	7	TrackDT	1.0	SCS215a	20120426.122520	20120426.123109	single-task	8	0.013308	60	10	60-180	60	83	GapExp	0	60	2	3	0	distractor	1	592	704	44397	13.328	13.298	13.358
TrackDT01	7	TrackDT	1.0	SCS215a	20120426.122520	20120426.123114	single-task	8	0.013308	60	10	60-180	60	113	GapExp	0	61	2	0	0	target	0	415	-1000	43397	13.328	7.304	19.364
TrackDT01	7	TrackDT	1.0	SCS215a	20120426.122520	20120426.123120	single-task	8	0.013308	60	10	60-180	60	120	GapExp	0	62	2	3	1	target	1	363	819	44216	13.328	4.606	22.062
TrackDT01	7	TrackDT	1.0	SCS215a	20120426.122520	20120426.123125	single-task	8	0.013308	60	10	60-180	60	171	GapExp	0	63	2	1	1	target	1	725	638	44854	13.328	11.489	15.154
TrackDT01	7	TrackDT	1.0	SCS215a	20120426.122520	20120426.123132	single-task	8	0.013308	60	10	60-180	60	148	GapExp	0	64	2	1	1	target	1	290	855	45709	13.328	12.980	13.663
TrackDT01	7	TrackDT	1.0	SCS215a	20120426.122520	20120426.123138	single-task	8	0.013308	60	10	60-180	60	119	GapExp	0	65	2	0	0	target	0	333	-1000	44709	13.328	12.206	14.429
TrackDT01	7	TrackDT	1.0	SCS215a	20120426.122520	20120426.123143	single-task	8	0.013308	60	10	60-180	60	156	GapExp	0	66	2	3	0	distractor	1	427	787	45496	13.328	13.208	13.455
TrackDT01	7	TrackDT	1.0	SCS215a	20120426.122520	20120426.123149	single-task	8	0.013308	60	10	60-180	60	152	GapExp	0	67	2	0	1	target	1	441	780	46276	13.328	13.096	13.558
TrackDT01	7	TrackDT	1.0	SCS215a	20120426.122520	20120426.123155	single-task	8	0.013308	60	10	60-180	60	136	GapExp	0	68	2	1	1	target	1	524	738	47014	13.328	13.195	13.454
TrackDT01	7	TrackDT	1.0	SCS215a	20120426.122520	20120426.123201	single-task	8	0.013308	60	10	60-180	60	121	GapExp	0	69	2	1	1	target	1	406	797	47811	13.328	11.412	15.251
TrackDT01	7	TrackDT	1.0	SCS215a	20120426.122520	20120426.123206	single-task	8	0.013308	60	10	60-180	60	117	GapExp	0	70	2	3	0	distractor	1	471	765	48576	13.328	12.772	13.881
TrackDT01	7	TrackDT	1.0	SCS215a	20120426.122520	20120426.123212	single-task	8	0.013308	60	10	60-180	60	179	GapExp	0	71	2	1	0	distractor	1	562	719	49295	13.328	10.480	16.188
TrackDT01	7	TrackDT	1.0	SCS215a	20120426.122520	20120426.123219	single-task	8	0.013308	60	10	60-180	60	135	GapExp	0	72	2	3	0	distractor	1	527	737	50032	13.328	13.301	13.346
TrackDT01	7	TrackDT	1.0	SCS215a	20120426.122520	20120426.123224	single-task	8	0.013308	60	10	60-180	60	81	GapExp	0	73	2	0	0	distractor	1	490	755	50787	13.328	13.299	13.356
TrackDT01	7	TrackDT	1.0	SCS215a	20120426.122520	20120426.123229	single-task	8	0.013308	60	10	60-180	60	130	GapExp	0	74	2	30	0	distractor	1	566	717	51504	13.328	9.778	16.884
TrackDT01	7	TrackDT	1.0	SCS215a	20120426.122520	20120426.123235	single-task	8	0.013308	60	10	60-180	60	89	GapExp	0	75	2	30	1	distractor	0	531	-1000	50504	13.328	12.426	14.221
TrackDT01	7	TrackDT	1.0	SCS215a	20120426.122520	20120426.123241	single-task	8	0.013308	60	10	60-180	60	166	GapExp	0	76	2	0	1	target	1	576	712	51216	13.328	12.879	13.777
TrackDT01	7	TrackDT	1.0	SCS215a	20120426.122520	20120426.123248	single-task	8	0.013308	60	10	60-180	60	124	GapExp	0	77	2	1	0	distractor	1	306	847	52063	13.328	13.302	13.353
TrackDT01	7	TrackDT	1.0	SCS215a	20120426.122520	20120426.123253	single-task	8	0.013308	60	10	60-180	60	97	GapExp	0	78	2	1	0	target	0	494	-1000	51063	13.328	10.737	15.921
TrackDT01	7	TrackDT	1.0	SCS215a	20120426.122520	20120426.123258	single-task	8	0.013308	60	10	60-180	60	73	GapExp	0	79	2	0	0	distractor	1	676	662	51725	13.328	6.070	20.586
TrackDT01	7	TrackDT	1.0	SCS215a	20120426.122520	20120426.123303	single-task	8	0.013308	60	10	60-180	60	135	GapExp	0	80	2	30	1	target	1	478	761	52486	13.328	13.288	13.369
TrackDT01	7	TrackDT	1.0	SCS215a	20120426.122520	20120426.123309	single-task	8	0.013308	60	10	60-180	60	159	GapExp	0	81	2	0	1	target	1	302	849	53335	13.328	13.307	13.349
TrackDT01	7	TrackDT	1.0	SCS215a	20120426.122520	20120426.123315	single-task	8	0.013308	60	10	60-180	60	88	GapExp	0	82	2	3	1	target	1	390	805	54140	13.328	13.302	13.346
TrackDT01	7	TrackDT	1.0	SCS215a	20120426.122520	20120426.123321	single-task	8	0.013308	60	10	60-180	60	80	GapExp	0	83	2	1	1	target	1	464	768	54908	13.328	13.312	13.345
TrackDT01	7	TrackDT	1.0	SCS215a	20120426.122520	20120426.123325	single-task	8	0.013308	60	10	60-180	60	80	GapExp	0	84	2	1	1	target	1	400	800	55708	13.328	13.099	13.558
TrackDT01	7	TrackDT	1.0	SCS215a	20120426.122520	20120426.123330	single-task	8	0.013308	60	10	60-180	60	132	GapExp	0	85	2	1	0	distractor	1	493	754	56462	13.328	13.307	13.352
TrackDT01	7	TrackDT	1.0	SCS215a	20120426.122520	20120426.123336	single-task	8	0.013308	60	10	60-180	60	130	GapExp	0	86	2	0	0	target	0	372	-1000	55462	13.328	13.306	13.349
TrackDT01	7	TrackDT	1.0	SCS215a	20120426.122520	20120426.123342	single-task	8	0.013308	60	10	60-180	60	110	GapExp	0	87	2	30	1	target	1	439	781	56243	13.328	6.818	19.848
TrackDT01	7	TrackDT	1.0	SCS215a	20120426.122520	20120426.123347	single-task	8	0.013308	60	10	60-180	60	87	GapExp	0	88	2	3	0	distractor	1	549	726	56969	13.328	6.564	20.082
TrackDT01	7	TrackDT	1.0	SCS215a	20120426.122520	20120426.123353	single-task	8	0.013308	60	10	60-180	60	83	GapExp	0	89	2	3	1	target	1	393	804	57773	13.328	11.018	15.624
TrackDT01	7	TrackDT	1.0	SCS215a	20120426.122520	20120426.123358	single-task	8	0.013308	60	10	60-180	60	169	GapExp	0	90	2	30	0	distractor	1	267	867	58640	13.328	12.958	13.703
TrackDT01	7	TrackDT	1.0	SCS215a	20120426.122520	20120426.123404	single-task	8	0.013308	60	10	60-180	60	142	GapExp	0	91	2	3	1	target	1	470	765	59405	13.378	7.623	31.232
TrackDT01	7	TrackDT	1.0	SCS215a	20120426.122520	20120426.123410	single-task	8	0.013308	60	10	60-180	60	135	GapExp	0	92	2	3	0	distractor	1	305	848	60253	13.328	10.874	15.774
TrackDT01	7	TrackDT	1.0	SCS215a	20120426.122520	20120426.123416	single-task	8	0.013308	60	10	60-180	60	70	GapExp	0	93	2	30	1	target	1	263	869	61122	13.328	10.012	16.631
TrackDT01	7	TrackDT	1.0	SCS215a	20120426.122520	20120426.123421	single-task	8	0.013308	60	10	60-180	60	108	GapExp	0	94	2	1	1	distractor	0	452	-1000	60122	13.328	13.086	13.565
TrackDT01	7	TrackDT	1.0	SCS215a	20120426.122520	20120426.123426	single-task	8	0.013308	60	10	60-180	60	132	GapExp	0	95	2	0	1	target	1	445	778	60900	13.328	13.303	13.347
TrackDT01	7	TrackDT	1.0	SCS215a	20120426.122520	20120426.123432	single-task	8	0.013308	60	10	60-180	60	91	GapExp	0	96	2	3	0	distractor	1	314	843	61743	13.328	13.307	13.353
TrackDT01	7	TrackDT	1.0	SCS215a	20120426.122520	20120426.123437	single-task	8	0.013308	60	10	60-180	60	142	GapExp	0	97	2	30	1	target	1	299	851	62594	13.328	12.120	14.518
TrackDT01	7	TrackDT	1.0	SCS215a	20120426.122520	20120426.123443	single-task	8	0.013308	60	10	60-180	60	126	GapExp	0	98	2	0	0	distractor	1	609	696	63290	13.328	10.662	15.980
TrackDT01	7	TrackDT	1.0	SCS215a	20120426.122520	20120426.123449	single-task	8	0.013308	60	10	60-180	60	90	GapExp	0	99	2	30	1	distractor	0	409	-1000	62290	13.328	8.776	17.866
TrackDT01	7	TrackDT	1.0	SCS215a	20120426.122520	20120426.123454	single-task	8	0.013308	60	10	60-180	60	132	GapExp	0	100	2	1	0	distractor	1	533	734	63024	13.328	13.290	13.372
TrackDT01	7	TrackDT	1.0	SCS215a	20120426.122520	20120426.123509	single-task	8	0.013308	60	10	60-180	60	119	GapExp	0	101	2	3	1	target	1	299	851	63875	13.328	13.102	13.554
TrackDT01	7	TrackDT	1.0	SCS215a	20120426.122520	20120426.123515	single-task	8	0.013308	60	10	60-180	60	129	GapExp	0	102	2	1	0	distractor	1	581	710	64585	13.328	13.308	13.349
TrackDT01	7	TrackDT	1.0	SCS215a	20120426.122520	20120426.123520	single-task	8	0.013308	60	10	60-180	60	95	GapExp	0	103	2	1	1	distractor	0	773	-1000	63585	13.328	12.896	13.758
TrackDT01	7	TrackDT	1.0	SCS215a	20120426.122520	20120426.123526	single-task	8	0.013308	60	10	60-180	60	94	GapExp	0	104	2	3	0	distractor	1	460	770	64355	13.328	12.601	14.060
TrackDT01	7	TrackDT	1.0	SCS215a	20120426.122520	20120426.123531	single-task	8	0.013308	60	10	60-180	60	163	GapExp	0	105	2	1	0	target	0	564	-1000	63355	13.328	8.778	17.871
TrackDT01	7	TrackDT	1.0	SCS215a	20120426.122520	20120426.123538	single-task	8	0.013308	60	10	60-180	60	89	GapExp	0	106	2	30	1	distractor	0	339	-1000	62355	13.328	13.098	13.551
TrackDT01	7	TrackDT	1.0	SCS215a	20120426.122520	20120426.123543	single-task	8	0.013308	60	10	60-180	60	120	GapExp	0	107	2	0	0	distractor	1	514	743	63098	13.328	13.305	13.352
TrackDT01	7	TrackDT	1.0	SCS215a	20120426.122520	20120426.123548	single-task	8	0.013308	60	10	60-180	60	80	GapExp	0	108	2	0	0	distractor	1	498	751	63849	13.328	13.306	13.349
TrackDT01	7	TrackDT	1.0	SCS215a	20120426.122520	20120426.123553	single-task	8	0.013308	60	10	60-180	60	160	GapExp	0	109	2	0	1	target	1	513	744	64593	13.328	11.990	14.658
TrackDT01	7	TrackDT	1.0	SCS215a	20120426.122520	20120426.123559	single-task	8	0.013308	60	10	60-180	60	72	GapExp	0	110	2	1	0	distractor	1	499	751	65344	13.328	13.106	13.552
TrackDT01	7	TrackDT	1.0	SCS215a	20120426.122520	20120426.123605	single-task	8	0.013308	60	10	60-180	60	102	GapExp	0	111	2	0	0	distractor	1	383	809	66153	13.328	13.307	13.347
TrackDT01	7	TrackDT	1.0	SCS215a	20120426.122520	20120426.123610	single-task	8	0.013308	60	10	60-180	60	68	GapExp	0	112	2	3	1	distractor	0	433	-1000	65153	13.328	10.774	16.081
TrackDT01	7	TrackDT	1.0	SCS215a	20120426.122520	20120426.123615	single-task	8	0.013308	60	10	60-180	60	98	GapExp	0	113	2	30	0	distractor	1	331	835	65988	13.328	8.411	18.243
TrackDT01	7	TrackDT	1.0	SCS215a	20120426.122520	20120426.123620	single-task	8	0.013308	60	10	60-180	60	83	GapExp	0	114	2	3	0	target	0	380	-1000	64988	13.328	13.282	13.374
TrackDT01	7	TrackDT	1.0	SCS215a	20120426.122520	20120426.123625	single-task	8	0.013308	60	10	60-180	60	169	GapExp	0	115	2	0	1	distractor	0	334	-1000	63988	13.328	13.308	13.349
TrackDT01	7	TrackDT	1.0	SCS215a	20120426.122520	20120426.123631	single-task	8	0.013308	60	10	60-180	60	73	GapExp	0	116	2	3	0	distractor	1	491	755	64743	13.328	13.302	13.345
TrackDT01	7	TrackDT	1.0	SCS215a	20120426.122520	20120426.123636	single-task	8	0.013308	60	10	60-180	60	134	GapExp	0	117	2	30	0	distractor	1	391	805	65548	13.328	13.298	13.350
TrackDT01	7	TrackDT	1.0	SCS215a	20120426.122520	20120426.123642	single-task	8	0.013308	60	10	60-180	60	105	GapExp	0	118	2	0	1	target	1	533	734	66282	13.328	3.957	22.699
TrackDT01	7	TrackDT	1.0	SCS215a	20120426.122520	20120426.123648	single-task	8	0.013308	60	10	60-180	60	89	GapExp	0	119	2	0	0	distractor	1	748	626	66908	13.328	7.911	18.758
TrackDT01	7	TrackDT	1.0	SCS215a	20120426.122520	20120426.123653	single-task	8	0.013308	60	10	60-180	60	142	GapExp	0	120	2	0	1	target	1	532	734	67642	13.328	13.302	13.347
TrackDT01	7	TrackDT	1.0	SCS215a	20120426.122520	20120426.123659	single-task	8	0.013308	60	10	60-180	60	132	GapExp	0	121	2	3	1	target	1	301	850	68492	13.324	10.260	16.372
TrackDT01	7	TrackDT	1.0	SCS215a	20120426.122520	20120426.123704	single-task	8	0.013308	60	10	60-180	60	132	GapExp	0	122	2	30	0	target	0	642	-1000	67492	13.328	13.306	13.347
TrackDT01	7	TrackDT	1.0	SCS215a	20120426.122520	20120426.123711	single-task	8	0.013308	60	10	60-180	60	133	GapExp	0	123	2	3	1	target	1	392	804	68296	13.328	10.433	16.234
TrackDT01	7	TrackDT	1.0	SCS215a	20120426.122520	20120426.123717	single-task	8	0.013308	60	10	60-180	60	169	GapExp	0	124	2	3	0	distractor	1	431	785	69081	13.328	13.112	13.551
TrackDT01	7	TrackDT	1.0	SCS215a	20120426.122520	20120426.123723	single-task	8	0.013308	60	10	60-180	60	159	GapExp	0	125	2	0	1	target	1	400	800	69881	13.328	12.622	14.049
TrackDT01	7	TrackDT	1.0	SCS215a	20120426.122520	20120426.123729	single-task	8	0.013308	60	10	60-180	60	165	GapExp	0	126	2	30	1	distractor	0	251	-1000	68881	13.328	13.264	13.400
TrackDT01	7	TrackDT	1.0	SCS215a	20120426.122520	20120426.123735	single-task	8	0.013308	60	10	60-180	60	110	GapExp	0	127	2	0	0	distractor	1	604	698	69579	13.328	13.309	13.352
TrackDT01	7	TrackDT	1.0	SCS215a	20120426.122520	20120426.123740	single-task	8	0.013308	60	10	60-180	60	89	GapExp	0	128	2	1	0	distractor	1	627	687	70266	13.328	10.771	16.379
TrackDT01	7	TrackDT	1.0	SCS215a	20120426.122520	20120426.123746	single-task	8	0.013308	60	10	60-180	60	104	GapExp	0	129	2	0	0	distractor	1	749	626	70892	13.328	8.599	18.064
TrackDT01	7	TrackDT	1.0	SCS215a	20120426.122520	20120426.123752	single-task	8	0.013308	60	10	60-180	60	66	GapExp	0	130	2	0	0	distractor	1	493	754	71646	13.328	13.094	13.565
TrackDT01	7	TrackDT	1.0	SCS215a	20120426.122520	20120426.123756	single-task	8	0.013308	60	10	60-180	60	99	GapExp	0	131	2	3	0	target	0	509	-1000	70646	13.328	10.838	15.819
TrackDT01	7	TrackDT	1.0	SCS215a	20120426.122520	20120426.123802	single-task	8	0.013308	60	10	60-180	60	110	GapExp	0	132	2	30	1	target	1	278	861	71507	13.328	13.312	13.346
TrackDT01	7	TrackDT	1.0	SCS215a	20120426.122520	20120426.123807	single-task	8	0.013308	60	10	60-180	60	172	GapExp	0	133	2	0	1	target	1	314	843	72350	13.328	13.099	13.543
TrackDT01	7	TrackDT	1.0	SCS215a	20120426.122520	20120426.123813	single-task	8	0.013308	60	10	60-180	60	90	GapExp	0	134	2	3	1	distractor	0	361	-1000	71350	13.328	12.135	14.529
TrackDT01	7	TrackDT	1.0	SCS215a	20120426.122520	20120426.123819	single-task	8	0.013308	60	10	60-180	60	118	GapExp	0	135	2	1	1	target	1	421	790	72140	13.328	13.094	13.559
TrackDT01	7	TrackDT	1.0	SCS215a	20120426.122520	20120426.123824	single-task	8	0.013308	60	10	60-180	60	175	GapExp	0	136	2	3	1	target	1	349	826	72966	13.328	13.292	13.350
TrackDT01	7	TrackDT	1.0	SCS215a	20120426.122520	20120426.123830	single-task	8	0.013308	60	10	60-180	60	109	GapExp	0	137	2	3	1	target	1	335	833	73799	13.328	13.309	13.352
TrackDT01	7	TrackDT	1.0	SCS215a	20120426.122520	20120426.123835	single-task	8	0.013308	60	10	60-180	60	108	GapExp	0	138	2	30	1	target	1	441	780	74579	13.328	6.958	19.705
TrackDT01	7	TrackDT	1.0	SCS215a	20120426.122520	20120426.123841	single-task	8	0.013308	60	10	60-180	60	148	GapExp	0	139	2	1	1	target	1	464	768	75347	13.328	5.618	21.034
TrackDT01	7	TrackDT	1.0	SCS215a	20120426.122520	20120426.123847	single-task	8	0.013308	60	10	60-180	60	80	GapExp	0	140	2	1	0	distractor	1	562	719	76066	13.328	13.086	13.563
TrackDT01	7	TrackDT	1.0	SCS215a	20120426.122520	20120426.123852	single-task	8	0.013308	60	10	60-180	60	104	GapExp	0	141	2	1	0	distractor	1	638	681	76747	13.328	13.240	13.410
TrackDT01	7	TrackDT	1.0	SCS215a	20120426.122520	20120426.123858	single-task	8	0.013308	60	10	60-180	60	63	GapExp	0	142	2	1	1	target	1	282	859	77606	13.328	9.254	17.400
TrackDT01	7	TrackDT	1.0	SCS215a	20120426.122520	20120426.123902	single-task	8	0.013308	60	10	60-180	60	144	GapExp	0	143	2	0	1	target	1	350	825	78431	13.328	10.548	16.103
TrackDT01	7	TrackDT	1.0	SCS215a	20120426.122520	20120426.123908	single-task	8	0.013308	60	10	60-180	60	86	GapExp	0	144	2	3	1	target	1	334	833	79264	13.328	13.308	13.347
TrackDT01	7	TrackDT	1.0	SCS215a	20120426.122520	20120426.123913	single-task	8	0.013308	60	10	60-180	60	103	GapExp	0	145	2	1	1	target	1	313	844	80108	13.328	13.177	13.493
TrackDT01	7	TrackDT	1.0	SCS215a	20120426.122520	20120426.123918	single-task	8	0.013308	60	10	60-180	60	113	GapExp	0	146	2	3	1	target	1	376	812	80920	13.328	13.305	13.346
TrackDT01	7	TrackDT	1.0	SCS215a	20120426.122520	20120426.123924	single-task	8	0.013308	60	10	60-180	60	141	GapExp	0	147	2	3	1	target	1	373	814	81734	13.328	13.093	13.551
TrackDT01	7	TrackDT	1.0	SCS215a	20120426.122520	20120426.123930	single-task	8	0.013308	60	10	60-180	60	71	GapExp	0	148	2	30	1	target	1	322	839	82573	13.328	12.908	13.742
TrackDT01	7	TrackDT	1.0	SCS215a	20120426.122520	20120426.123935	single-task	8	0.013308	60	10	60-180	60	119	GapExp	0	149	2	30	0	distractor	1	528	736	83309	13.328	8.628	18.019
TrackDT01	7	TrackDT	1.0	SCS215a	20120426.122520	20120426.123940	single-task	8	0.013308	60	10	60-180	60	85	GapExp	0	150	2	30	0	distractor	1	597	702	84011	13.328	13.260	13.388
TrackDT01	7	TrackDT	1.0	SCS215a	20120426.122520	20120426.124001	single-task	8	0.013308	60	10	60-180	60	108	GapExp	0	151	2	3	1	target	1	315	843	84854	13.328	13.306	13.347
TrackDT01	7	TrackDT	1.0	SCS215a	20120426.122520	20120426.124006	single-task	8	0.013308	60	10	60-180	60	82	GapExp	0	152	2	30	0	distractor	1	356	822	85676	13.328	6.897	19.775
TrackDT01	7	TrackDT	1.0	SCS215a	20120426.122520	20120426.124012	single-task	8	0.013308	60	10	60-180	60	155	GapExp	0	153	2	30	1	target	1	341	830	86506	13.328	9.766	17.115
TrackDT01	7	TrackDT	1.0	SCS215a	20120426.122520	20120426.124018	single-task	8	0.013308	60	10	60-180	60	132	GapExp	0	154	2	0	0	target	0	448	-1000	85506	13.328	13.099	13.564
TrackDT01	7	TrackDT	1.0	SCS215a	20120426.122520	20120426.124023	single-task	8	0.013308	60	10	60-180	60	118	GapExp	0	155	2	1	1	target	1	469	766	86272	13.328	12.952	13.696
TrackDT01	7	TrackDT	1.0	SCS215a	20120426.122520	20120426.124029	single-task	8	0.013308	60	10	60-180	60	97	GapExp	0	156	2	1	0	target	0	381	-1000	85272	13.328	8.721	17.929
TrackDT01	7	TrackDT	1.0	SCS215a	20120426.122520	20120426.124034	single-task	8	0.013308	60	10	60-180	60	141	GapExp	0	157	2	30	0	target	0	651	-1000	84272	13.328	12.837	13.819
TrackDT01	7	TrackDT	1.0	SCS215a	20120426.122520	20120426.124041	single-task	8	0.013308	60	10	60-180	60	156	GapExp	0	158	2	30	1	distractor	0	426	-1000	83272	13.328	13.101	13.537
TrackDT01	7	TrackDT	1.0	SCS215a	20120426.122520	20120426.124047	single-task	8	0.013308	60	10	60-180	60	133	GapExp	0	159	2	0	0	distractor	1	458	771	84043	13.328	13.300	13.358
TrackDT01	7	TrackDT	1.0	SCS215a	20120426.122520	20120426.124053	single-task	8	0.013308	60	10	60-180	60	174	GapExp	0	160	2	30	0	distractor	1	277	862	84905	13.328	11.284	15.380
TrackDT01	7	TrackDT	1.0	SCS215a	20120426.122520	20120426.124059	single-task	8	0.013308	60	10	60-180	60	175	GapExp	0	161	2	3	0	target	0	541	-1000	83905	13.328	11.058	15.605
TrackDT01	7	TrackDT	1.0	SCS215a	20120426.122520	20120426.124105	single-task	8	0.013308	60	10	60-180	60	115	GapExp	0	162	2	0	1	target	1	662	669	84574	13.328	11.812	14.862
TrackDT01	7	TrackDT	1.0	SCS215a	20120426.122520	20120426.124111	single-task	8	0.013308	60	10	60-180	60	101	GapExp	0	163	2	3	1	distractor	0	360	-1000	83574	13.328	10.769	15.887
TrackDT01	7	TrackDT	1.0	SCS215a	20120426.122520	20120426.124117	single-task	8	0.013308	60	10	60-180	60	155	GapExp	0	164	2	30	0	distractor	1	385	808	84382	13.328	13.144	13.517
TrackDT01	7	TrackDT	1.0	SCS215a	20120426.122520	20120426.124123	single-task	8	0.013308	60	10	60-180	60	65	GapExp	0	165	2	1	0	target	0	642	-1000	83382	13.328	13.292	13.371
TrackDT01	7	TrackDT	1.0	SCS215a	20120426.122520	20120426.124128	single-task	8	0.013308	60	10	60-180	60	110	GapExp	0	166	2	1	0	target	0	566	-1000	82382	13.328	13.098	13.547
TrackDT01	7	TrackDT	1.0	SCS215a	20120426.122520	20120426.124133	single-task	8	0.013308	60	10	60-180	60	96	GapExp	0	167	2	30	0	distractor	1	490	755	83137	13.328	13.307	13.355
TrackDT01	7	TrackDT	1.0	SCS215a	20120426.122520	20120426.124139	single-task	8	0.013308	60	10	60-180	60	164	GapExp	0	168	2	30	0	distractor	1	385	808	83945	13.328	13.144	13.497
TrackDT01	7	TrackDT	1.0	SCS215a	20120426.122520	20120426.124146	single-task	8	0.013308	60	10	60-180	60	167	GapExp	0	169	2	30	0	distractor	1	406	797	84742	13.328	13.307	13.351
TrackDT01	7	TrackDT	1.0	SCS215a	20120426.122520	20120426.124152	single-task	8	0.013308	60	10	60-180	60	150	GapExp	0	170	2	1	1	target	1	336	832	85574	13.328	13.300	13.346
TrackDT01	7	TrackDT	1.0	SCS215a	20120426.122520	20120426.124158	single-task	8	0.013308	60	10	60-180	60	66	GapExp	0	171	2	30	0	distractor	1	557	722	86296	13.447	2.462	37.506
TrackDT01	7	TrackDT	1.0	SCS215a	20120426.122520	20120426.124203	single-task	8	0.013308	60	10	60-180	60	153	GapExp	0	172	2	3	1	target	1	416	792	87088	13.328	13.105	13.558
TrackDT01	7	TrackDT	1.0	SCS215a	20120426.122520	20120426.124209	single-task	8	0.013308	60	10	60-180	60	179	GapExp	0	173	2	1	0	distractor	1	466	767	87855	13.328	13.105	13.552
TrackDT01	7	TrackDT	1.0	SCS215a	20120426.122520	20120426.124215	single-task	8	0.013308	60	10	60-180	60	148	GapExp	0	174	2	3	0	distractor	1	390	805	88660	13.328	11.518	15.129
TrackDT01	7	TrackDT	1.0	SCS215a	20120426.122520	20120426.124221	single-task	8	0.013308	60	10	60-180	60	130	GapExp	0	175	2	30	1	target	1	708	646	89306	13.328	13.291	13.370
TrackDT01	7	TrackDT	1.0	SCS215a	20120426.122520	20120426.124228	single-task	8	0.013308	60	10	60-180	60	140	GapExp	0	176	2	3	0	target	0	384	-1000	88306	13.328	13.302	13.344
TrackDT01	7	TrackDT	1.0	SCS215a	20120426.122520	20120426.124233	single-task	8	0.013308	60	10	60-180	60	100	GapExp	0	177	2	1	0	target	0	697	-1000	87306	13.328	13.306	13.346
TrackDT01	7	TrackDT	1.0	SCS215a	20120426.122520	20120426.124239	single-task	8	0.013308	60	10	60-180	60	84	GapExp	0	178	2	30	0	target	0	581	-1000	86306	13.328	13.093	13.556
TrackDT01	7	TrackDT	1.0	SCS215a	20120426.122520	20120426.124244	single-task	8	0.013308	60	10	60-180	60	66	GapExp	0	179	2	30	1	target	1	400	800	87106	13.328	13.302	13.349
TrackDT01	7	TrackDT	1.0	SCS215a	20120426.122520	20120426.124249	single-task	8	0.013308	60	10	60-180	60	120	GapExp	0	180	2	1	1	target	1	428	786	87892	13.328	11.336	15.316
TrackDT01	7	TrackDT	1.0	SCS215a	20120426.122520	20120426.124255	single-task	8	0.013308	60	10	60-180	60	111	GapExp	0	181	2	30	1	target	1	485	758	88650	13.328	13.215	13.480
TrackDT01	7	TrackDT	1.0	SCS215a	20120426.122520	20120426.124301	single-task	8	0.013308	60	10	60-180	60	153	GapExp	0	182	2	1	1	target	1	387	807	89457	13.328	11.977	14.685
TrackDT01	7	TrackDT	1.0	SCS215a	20120426.122520	20120426.124307	single-task	8	0.013308	60	10	60-180	60	79	GapExp	0	183	2	30	1	target	1	357	822	90279	13.328	12.459	14.199
TrackDT01	7	TrackDT	1.0	SCS215a	20120426.122520	20120426.124312	single-task	8	0.013308	60	10	60-180	60	108	GapExp	0	184	2	0	1	target	1	528	736	91015	13.328	13.107	13.565
TrackDT01	7	TrackDT	1.0	SCS215a	20120426.122520	20120426.124318	single-task	8	0.013308	60	10	60-180	60	64	GapExp	0	185	2	3	0	distractor	1	574	713	91728	13.328	13.307	13.348
TrackDT01	7	TrackDT	1.0	SCS215a	20120426.122520	20120426.124322	single-task	8	0.013308	60	10	60-180	60	99	GapExp	0	186	2	3	1	target	1	348	826	92554	13.328	13.306	13.350
TrackDT01	7	TrackDT	1.0	SCS215a	20120426.122520	20120426.124328	single-task	8	0.013308	60	10	60-180	60	71	GapExp	0	187	2	30	0	distractor	1	549	726	93280	13.328	8.065	18.621
TrackDT01	7	TrackDT	1.0	SCS215a	20120426.122520	20120426.124333	single-task	8	0.013308	60	10	60-180	60	134	GapExp	0	188	2	3	0	distractor	1	437	782	94062	13.328	13.304	13.348
TrackDT01	7	TrackDT	1.0	SCS215a	20120426.122520	20120426.124339	single-task	8	0.013308	60	10	60-180	60	171	GapExp	0	189	2	1	0	distractor	1	556	722	94784	13.328	10.797	15.858
TrackDT01	7	TrackDT	1.0	SCS215a	20120426.122520	20120426.124345	single-task	8	0.013308	60	10	60-180	60	158	GapExp	0	190	2	1	1	target	1	565	718	95502	13.327	11.809	14.905
TrackDT01	7	TrackDT	1.0	SCS215a	20120426.122520	20120426.124351	single-task	8	0.013308	60	10	60-180	60	83	GapExp	0	191	2	0	1	distractor	0	691	-1000	94502	13.328	12.608	14.029
TrackDT01	7	TrackDT	1.0	SCS215a	20120426.122520	20120426.124356	single-task	8	0.013308	60	10	60-180	60	159	GapExp	0	192	2	0	0	distractor	1	495	753	95255	13.328	9.571	17.085
TrackDT01	7	TrackDT	1.0	SCS215a	20120426.122520	20120426.124403	single-task	8	0.013308	60	10	60-180	60	153	GapExp	0	193	2	30	1	target	1	449	776	96031	13.328	12.104	14.570
TrackDT01	7	TrackDT	1.0	SCS215a	20120426.122520	20120426.124409	single-task	8	0.013308	60	10	60-180	60	177	GapExp	0	194	2	30	1	target	1	344	828	96859	13.328	7.709	19.074
TrackDT01	7	TrackDT	1.0	SCS215a	20120426.122520	20120426.124416	single-task	8	0.013308	60	10	60-180	60	134	GapExp	0	195	2	30	1	target	1	457	772	97631	13.328	11.500	15.149
TrackDT01	7	TrackDT	1.0	SCS215a	20120426.122520	20120426.124422	single-task	8	0.013308	60	10	60-180	60	105	GapExp	0	196	2	3	1	distractor	0	371	-1000	96631	13.328	13.305	13.354
TrackDT01	7	TrackDT	1.0	SCS215a	20120426.122520	20120426.124427	single-task	8	0.013308	60	10	60-180	60	121	GapExp	0	197	2	1	1	target	1	412	794	97425	13.440	10.098	29.878
TrackDT01	7	TrackDT	1.0	SCS215a	20120426.122520	20120426.124433	single-task	8	0.013308	60	10	60-180	60	95	GapExp	0	198	2	30	1	target	1	329	836	98261	13.328	8.979	17.652
TrackDT01	7	TrackDT	1.0	SCS215a	20120426.122520	20120426.124438	single-task	8	0.013308	60	10	60-180	60	77	GapExp	0	199	2	0	1	target	1	412	794	99055	13.328	9.750	16.898
TrackDT01	7	TrackDT	1.0	SCS215a	20120426.122520	20120426.124443	single-task	8	0.013308	60	10	60-180	60	123	GapExp	0	200	2	3	0	target	0	358	-1000	98055	13.328	6.189	20.540
TrackDT01	7	TrackDT	1.0	SCS215a	20120426.124626	20120426.124633	single-task	8	0.013328	60	10	60-180	60	83	GapPrac	1	1	2	1	0	target	0	513	-1000	97055	13.328	13.307	13.348
TrackDT01	7	TrackDT	1.0	SCS215a	20120426.124626	20120426.124639	single-task	8	0.013328	60	10	60-180	60	78	GapPrac	1	2	2	3	0	distractor	1	598	701	97756	13.328	13.308	13.354
TrackDT01	7	TrackDT	1.0	SCS215a	20120426.124626	20120426.124644	single-task	8	0.013328	60	10	60-180	60	68	GapPrac	1	3	2	1	1	target	1	415	793	98549	13.328	12.906	13.751
TrackDT01	7	TrackDT	1.0	SCS215a	20120426.124626	20120426.124649	single-task	8	0.013328	60	10	60-180	60	140	GapPrac	1	4	2	3	1	target	1	372	814	99363	13.328	12.921	13.736
TrackDT01	7	TrackDT	1.0	SCS215a	20120426.124626	20120426.124655	single-task	8	0.013328	60	10	60-180	60	155	GapPrac	1	5	2	0	1	target	1	439	781	100144	13.328	13.206	13.464
TrackDT01	7	TrackDT	1.0	SCS215a	20120426.124626	20120426.124701	single-task	8	0.013328	60	10	60-180	60	180	GapPrac	1	6	2	30	1	target	1	418	791	100935	13.328	13.301	13.355
TrackDT01	7	TrackDT	1.0	SCS215a	20120426.124626	20120426.124707	single-task	8	0.013328	60	10	60-180	60	173	GapPrac	1	7	2	3	1	target	1	384	808	101743	13.328	13.246	13.399
TrackDT01	7	TrackDT	1.0	SCS215a	20120426.124626	20120426.124714	single-task	8	0.013328	60	10	60-180	60	151	GapPrac	1	8	2	0	0	target	0	440	-1000	100743	13.328	12.998	13.655
TrackDT01	7	TrackDT	1.0	SCS215a	20120426.124626	20120426.124720	single-task	8	0.013328	60	10	60-180	60	61	GapPrac	1	9	2	0	0	distractor	1	544	728	101471	13.328	13.105	13.525
TrackDT01	7	TrackDT	1.0	SCS215a	20120426.124626	20120426.124724	single-task	8	0.013328	60	10	60-180	60	165	GapPrac	1	10	2	1	1	target	1	421	790	102261	13.328	13.306	13.351
TrackDT01	7	TrackDT	1.0	SCS215a	20120426.124626	20120426.124730	single-task	8	0.013328	60	10	60-180	60	169	GapPrac	1	11	2	30	0	distractor	1	313	844	103105	13.328	12.913	13.659
TrackDT01	7	TrackDT	1.0	SCS215a	20120426.124626	20120426.124737	single-task	8	0.013328	60	10	60-180	60	120	GapPrac	1	12	2	3	1	target	1	390	805	103910	13.328	13.106	13.563
TrackDT01	7	TrackDT	1.0	SCS215a	20120426.124626	20120426.124742	single-task	8	0.013328	60	10	60-180	60	65	GapPrac	1	13	2	3	0	distractor	1	348	826	104736	13.328	13.297	13.351
TrackDT01	7	TrackDT	1.0	SCS215a	20120426.124626	20120426.124747	single-task	8	0.013328	60	10	60-180	60	128	GapPrac	1	14	2	1	0	distractor	1	407	797	105533	13.328	12.921	13.737
TrackDT01	7	TrackDT	1.0	SCS215a	20120426.124626	20120426.124753	single-task	8	0.013328	60	10	60-180	60	99	GapPrac	1	15	2	3	0	distractor	1	501	750	106283	13.328	12.911	13.744
TrackDT01	7	TrackDT	1.0	SCS215a	20120426.124626	20120426.124758	single-task	8	0.013328	60	10	60-180	60	145	GapPrac	1	16	2	1	1	target	1	365	818	107101	13.328	13.307	13.346
TrackDT01	7	TrackDT	1.0	SCS215a	20120426.124626	20120426.124804	single-task	8	0.013328	60	10	60-180	60	67	GapPrac	1	17	2	1	0	distractor	1	409	796	107897	13.328	12.876	13.772
TrackDT01	7	TrackDT	1.0	SCS215a	20120426.124626	20120426.124808	single-task	8	0.013328	60	10	60-180	60	122	GapPrac	1	18	2	30	0	distractor	1	253	874	108771	13.328	12.904	13.756
TrackDT01	7	TrackDT	1.0	SCS215a	20120426.124626	20120426.124814	single-task	8	0.013328	60	10	60-180	60	96	GapPrac	1	19	2	0	1	target	1	385	808	109579	13.327	13.113	13.538
TrackDT01	7	TrackDT	1.0	SCS215a	20120426.124626	20120426.124820	single-task	8	0.013328	60	10	60-180	60	77	GapPrac	1	20	2	30	1	distractor	0	520	-1000	108579	13.328	12.996	13.655
TrackDT01	7	TrackDT	1.0	SCS215a	20120426.124841	20120426.124846	dt-shadow	8	0.013328	60	10	60-180	60	123	GapExp	1	1	2	1	1	target	1	323	839	109418	13.328	5.968	20.688
TrackDT01	7	TrackDT	1.0	SCS215a	20120426.124841	20120426.124852	dt-shadow	8	0.013328	60	10	60-180	60	167	GapExp	1	2	2	1	0	distractor	1	499	751	110169	13.328	13.301	13.350
TrackDT01	7	TrackDT	1.0	SCS215a	20120426.124841	20120426.124858	dt-shadow	8	0.013328	60	10	60-180	60	159	GapExp	1	3	2	30	0	distractor	1	353	824	110993	13.328	13.300	13.356
TrackDT01	7	TrackDT	1.0	SCS215a	20120426.124841	20120426.124905	dt-shadow	8	0.013328	60	10	60-180	60	109	GapExp	1	4	2	30	1	distractor	0	931	-1000	109993	13.328	7.248	19.402
TrackDT01	7	TrackDT	1.0	SCS215a	20120426.124841	20120426.124911	dt-shadow	8	0.013328	60	10	60-180	60	151	GapExp	1	5	2	3	0	distractor	1	417	792	110785	13.328	13.098	13.544
TrackDT01	7	TrackDT	1.0	SCS215a	20120426.124841	20120426.124917	dt-shadow	8	0.013328	60	10	60-180	60	162	GapExp	1	6	2	0	0	target	0	488	-1000	109785	13.328	13.113	13.550
TrackDT01	7	TrackDT	1.0	SCS215a	20120426.124841	20120426.124923	dt-shadow	8	0.013328	60	10	60-180	60	115	GapExp	1	7	2	3	1	target	1	396	802	110587	13.328	13.112	13.558
TrackDT01	7	TrackDT	1.0	SCS215a	20120426.124841	20120426.124929	dt-shadow	8	0.013328	60	10	60-180	60	170	GapExp	1	8	2	0	1	target	1	431	785	111372	13.328	12.274	14.391
TrackDT01	7	TrackDT	1.0	SCS215a	20120426.124841	20120426.124935	dt-shadow	8	0.013328	60	10	60-180	60	62	GapExp	0	9	2	30	0	distractor	1	469	766	112138	13.328	13.307	13.344
TrackDT01	7	TrackDT	1.0	SCS215a	20120426.124841	20120426.124940	dt-shadow	8	0.013328	60	10	60-180	60	104	GapExp	0	10	2	1	0	distractor	1	354	823	112961	13.328	13.303	13.365
TrackDT01	7	TrackDT	1.0	SCS215a	20120426.124841	20120426.124945	dt-shadow	8	0.013328	60	10	60-180	60	107	GapExp	0	11	2	1	1	target	1	299	851	113812	13.328	11.220	15.439
TrackDT01	7	TrackDT	1.0	SCS215a	20120426.124841	20120426.124950	dt-shadow	8	0.013328	60	10	60-180	60	154	GapExp	0	12	2	3	0	distractor	1	370	815	114627	13.328	8.571	18.079
TrackDT01	7	TrackDT	1.0	SCS215a	20120426.124841	20120426.124956	dt-shadow	8	0.013328	60	10	60-180	60	116	GapExp	0	13	2	1	1	target	1	388	806	115433	13.328	13.296	13.360
TrackDT01	7	TrackDT	1.0	SCS215a	20120426.124841	20120426.125002	dt-shadow	8	0.013328	60	10	60-180	60	176	GapExp	0	14	2	30	1	target	1	375	813	116246	13.328	3.572	23.098
TrackDT01	7	TrackDT	1.0	SCS215a	20120426.124841	20120426.125008	dt-shadow	8	0.013328	60	10	60-180	60	149	GapExp	0	15	2	30	1	target	1	404	798	117044	13.328	7.255	19.401
TrackDT01	7	TrackDT	1.0	SCS215a	20120426.124841	20120426.125014	dt-shadow	8	0.013328	60	10	60-180	60	167	GapExp	0	16	2	0	1	target	1	343	829	117873	13.328	13.308	13.349
TrackDT01	7	TrackDT	1.0	SCS215a	20120426.124841	20120426.125020	dt-shadow	8	0.013328	60	10	60-180	60	112	GapExp	0	17	2	3	0	distractor	1	334	833	118706	13.328	9.025	17.637
TrackDT01	7	TrackDT	1.0	SCS215a	20120426.124841	20120426.125026	dt-shadow	8	0.013328	60	10	60-180	60	88	GapExp	0	18	2	1	0	distractor	1	507	747	119453	13.328	13.305	13.347
TrackDT01	7	TrackDT	1.0	SCS215a	20120426.124841	20120426.125031	dt-shadow	8	0.013328	60	10	60-180	60	114	GapExp	0	19	2	0	0	target	0	596	-1000	118453	13.328	10.178	16.469
TrackDT01	7	TrackDT	1.0	SCS215a	20120426.124841	20120426.125037	dt-shadow	8	0.013328	60	10	60-180	60	139	GapExp	0	20	2	3	0	distractor	1	455	773	119226	13.328	8.228	18.435
TrackDT01	7	TrackDT	1.0	SCS215a	20120426.124841	20120426.125043	dt-shadow	8	0.013328	60	10	60-180	60	80	GapExp	0	21	2	0	0	distractor	1	801	600	119826	13.328	13.098	13.558
TrackDT01	7	TrackDT	1.0	SCS215a	20120426.124841	20120426.125048	dt-shadow	8	0.013328	60	10	60-180	60	72	GapExp	0	22	2	3	1	target	1	403	799	120625	13.328	13.001	13.641
TrackDT01	7	TrackDT	1.0	SCS215a	20120426.124841	20120426.125053	dt-shadow	8	0.013328	60	10	60-180	60	123	GapExp	0	23	2	3	0	target	0	512	-1000	119625	13.328	11.832	14.824
TrackDT01	7	TrackDT	1.0	SCS215a	20120426.124841	20120426.125058	dt-shadow	8	0.013328	60	10	60-180	60	69	GapExp	0	24	2	30	0	distractor	1	531	735	120360	13.328	13.303	13.353
TrackDT01	7	TrackDT	1.0	SCS215a	20120426.124841	20120426.125104	dt-shadow	8	0.013328	60	10	60-180	60	95	GapExp	0	25	2	3	0	distractor	1	624	688	121048	13.328	13.105	13.558
TrackDT01	7	TrackDT	1.0	SCS215a	20120426.124841	20120426.125109	dt-shadow	8	0.013328	60	10	60-180	60	104	GapExp	0	26	2	3	1	target	1	425	788	121836	13.328	13.100	13.571
TrackDT01	7	TrackDT	1.0	SCS215a	20120426.124841	20120426.125115	dt-shadow	8	0.013328	60	10	60-180	60	66	GapExp	0	27	2	0	0	distractor	1	610	695	122531	13.328	11.280	15.368
TrackDT01	7	TrackDT	1.0	SCS215a	20120426.124841	20120426.125119	dt-shadow	8	0.013328	60	10	60-180	60	63	GapExp	0	28	2	30	0	target	0	401	-1000	121531	13.328	13.305	13.352
TrackDT01	7	TrackDT	1.0	SCS215a	20120426.124841	20120426.125124	dt-shadow	8	0.013328	60	10	60-180	60	153	GapExp	0	29	2	0	0	distractor	1	624	688	122219	13.328	12.717	13.940
TrackDT01	7	TrackDT	1.0	SCS215a	20120426.124841	20120426.125131	dt-shadow	8	0.013328	60	10	60-180	60	120	GapExp	0	30	2	1	0	distractor	1	501	750	122969	13.328	13.099	13.571
TrackDT01	7	TrackDT	1.0	SCS215a	20120426.124841	20120426.125136	dt-shadow	8	0.013328	60	10	60-180	60	89	GapExp	0	31	2	0	1	target	1	413	794	123763	13.328	12.536	14.113
TrackDT01	7	TrackDT	1.0	SCS215a	20120426.124841	20120426.125142	dt-shadow	8	0.013328	60	10	60-180	60	122	GapExp	0	32	2	30	1	target	1	507	747	124510	13.328	13.307	13.349
TrackDT01	7	TrackDT	1.0	SCS215a	20120426.124841	20120426.125147	dt-shadow	8	0.013328	60	10	60-180	60	140	GapExp	0	33	2	0	1	target	1	326	837	125347	13.328	13.306	13.352
TrackDT01	7	TrackDT	1.0	SCS215a	20120426.124841	20120426.125153	dt-shadow	8	0.013328	60	10	60-180	60	122	GapExp	0	34	2	30	0	distractor	1	335	833	126180	13.328	13.244	13.410
TrackDT01	7	TrackDT	1.0	SCS215a	20120426.124841	20120426.125159	dt-shadow	8	0.013328	60	10	60-180	60	178	GapExp	0	35	2	30	0	target	0	286	-1000	125180	13.328	9.761	16.867
TrackDT01	7	TrackDT	1.0	SCS215a	20120426.124841	20120426.125205	dt-shadow	8	0.013328	60	10	60-180	60	136	GapExp	0	36	2	1	0	target	0	653	-1000	124180	13.328	13.105	13.557
TrackDT01	7	TrackDT	1.0	SCS215a	20120426.124841	20120426.125212	dt-shadow	8	0.013328	60	10	60-180	60	81	GapExp	0	37	2	0	1	distractor	0	407	-1000	123180	13.328	13.099	13.550
TrackDT01	7	TrackDT	1.0	SCS215a	20120426.124841	20120426.125216	dt-shadow	8	0.013328	60	10	60-180	60	167	GapExp	0	38	2	3	0	distractor	1	525	738	123918	13.328	10.171	16.477
TrackDT01	7	TrackDT	1.0	SCS215a	20120426.124841	20120426.125223	dt-shadow	8	0.013328	60	10	60-180	60	131	GapExp	0	39	2	0	0	distractor	1	524	738	124656	13.328	11.163	15.492
TrackDT01	7	TrackDT	1.0	SCS215a	20120426.124841	20120426.125228	dt-shadow	8	0.013328	60	10	60-180	60	158	GapExp	0	40	2	3	0	distractor	1	417	792	125448	13.328	11.383	15.264
TrackDT01	7	TrackDT	1.0	SCS215a	20120426.124841	20120426.125234	dt-shadow	8	0.013328	60	10	60-180	60	69	GapExp	0	41	2	3	1	target	1	465	768	126216	13.327	13.112	13.550
TrackDT01	7	TrackDT	1.0	SCS215a	20120426.124841	20120426.125239	dt-shadow	8	0.013328	60	10	60-180	60	147	GapExp	0	42	2	3	1	target	1	486	757	126973	13.328	13.091	13.571
TrackDT01	7	TrackDT	1.0	SCS215a	20120426.124841	20120426.125245	dt-shadow	8	0.013328	60	10	60-180	60	129	GapExp	0	43	2	3	0	distractor	1	375	813	127786	13.328	13.302	13.348
TrackDT01	7	TrackDT	1.0	SCS215a	20120426.124841	20120426.125251	dt-shadow	8	0.013328	60	10	60-180	60	89	GapExp	0	44	2	3	1	target	1	376	812	128598	13.328	11.170	15.841
TrackDT01	7	TrackDT	1.0	SCS215a	20120426.124841	20120426.125256	dt-shadow	8	0.013328	60	10	60-180	60	170	GapExp	0	45	2	1	0	distractor	1	483	759	129357	13.328	13.099	13.557
TrackDT01	7	TrackDT	1.0	SCS215a	20120426.124841	20120426.125302	dt-shadow	8	0.013328	60	10	60-180	60	140	GapExp	0	46	2	30	0	target	0	504	-1000	128357	13.328	11.533	15.121
TrackDT01	7	TrackDT	1.0	SCS215a	20120426.124841	20120426.125308	dt-shadow	8	0.013328	60	10	60-180	60	98	GapExp	0	47	2	1	0	target	0	570	-1000	127357	13.328	9.631	17.039
TrackDT01	7	TrackDT	1.0	SCS215a	20120426.124841	20120426.125314	dt-shadow	8	0.013328	60	10	60-180	60	116	GapExp	0	48	2	1	0	distractor	1	800	600	127957	13.328	13.299	13.356
TrackDT01	7	TrackDT	1.0	SCS215a	20120426.124841	20120426.125320	dt-shadow	8	0.013328	60	10	60-180	60	140	GapExp	0	49	2	30	0	distractor	1	397	802	128759	13.328	13.115	13.540
TrackDT01	7	TrackDT	1.0	SCS215a	20120426.124841	20120426.125326	dt-shadow	8	0.013328	60	10	60-180	60	159	GapExp	0	50	2	0	0	distractor	1	500	750	129509	13.328	12.951	13.704
TrackDT01	7	TrackDT	1.0	SCS215a	20120426.124841	20120426.125350	dt-shadow	8	0.013328	60	10	60-180	60	111	GapExp	0	51	2	30	0	distractor	1	341	830	130339	13.328	13.091	13.558
TrackDT01	7	TrackDT	1.0	SCS215a	20120426.124841	20120426.125356	dt-shadow	8	0.013328	60	10	60-180	60	172	GapExp	0	52	2	3	0	distractor	1	413	794	131133	13.328	13.101	13.548
TrackDT01	7	TrackDT	1.0	SCS215a	20120426.124841	20120426.125402	dt-shadow	8	0.013328	60	10	60-180	60	98	GapExp	0	53	2	3	1	target	1	337	832	131965	13.328	13.159	13.491
TrackDT01	7	TrackDT	1.0	SCS215a	20120426.124841	20120426.125407	dt-shadow	8	0.013328	60	10	60-180	60	105	GapExp	0	54	2	1	0	distractor	1	400	800	132765	13.328	13.030	13.632
TrackDT01	7	TrackDT	1.0	SCS215a	20120426.124841	20120426.125412	dt-shadow	8	0.013328	60	10	60-180	60	168	GapExp	0	55	2	1	1	target	1	329	836	133601	13.328	13.106	13.559
TrackDT01	7	TrackDT	1.0	SCS215a	20120426.124841	20120426.125418	dt-shadow	8	0.013328	60	10	60-180	60	155	GapExp	0	56	2	0	0	target	0	321	-1000	132601	13.328	11.334	15.322
TrackDT01	7	TrackDT	1.0	SCS215a	20120426.124841	20120426.125424	dt-shadow	8	0.013328	60	10	60-180	60	177	GapExp	0	57	2	30	1	target	1	446	777	133378	13.328	6.417	20.239
TrackDT01	7	TrackDT	1.0	SCS215a	20120426.124841	20120426.125431	dt-shadow	8	0.013328	60	10	60-180	60	136	GapExp	0	58	2	30	1	target	1	503	749	134127	13.328	11.060	15.595
TrackDT01	7	TrackDT	1.0	SCS215a	20120426.124841	20120426.125437	dt-shadow	8	0.013328	60	10	60-180	60	118	GapExp	0	59	2	30	1	target	1	342	829	134956	13.328	13.308	13.348
TrackDT01	7	TrackDT	1.0	SCS215a	20120426.124841	20120426.125443	dt-shadow	8	0.013328	60	10	60-180	60	145	GapExp	0	60	2	1	1	target	1	363	819	135775	13.328	13.304	13.347
TrackDT01	7	TrackDT	1.0	SCS215a	20120426.124841	20120426.125449	dt-shadow	8	0.013328	60	10	60-180	60	171	GapExp	0	61	2	0	0	target	0	748	-1000	134775	13.328	13.304	13.347
TrackDT01	7	TrackDT	1.0	SCS215a	20120426.124841	20120426.125455	dt-shadow	8	0.013328	60	10	60-180	60	133	GapExp	0	62	2	30	1	distractor	0	290	-1000	133775	13.328	9.031	17.611
TrackDT01	7	TrackDT	1.0	SCS215a	20120426.124841	20120426.125502	dt-shadow	8	0.013328	60	10	60-180	60	161	GapExp	0	63	2	1	1	target	1	318	841	134616	13.328	13.085	13.572
TrackDT01	7	TrackDT	1.0	SCS215a	20120426.124841	20120426.125508	dt-shadow	8	0.013328	60	10	60-180	60	61	GapExp	0	64	2	30	1	distractor	0	660	-1000	133616	13.328	13.103	13.552
TrackDT01	7	TrackDT	1.0	SCS215a	20120426.124841	20120426.125513	dt-shadow	8	0.013328	60	10	60-180	60	74	GapExp	0	65	2	30	1	target	1	442	779	134395	13.328	13.217	13.437
TrackDT01	7	TrackDT	1.0	SCS215a	20120426.124841	20120426.125518	dt-shadow	8	0.013328	60	10	60-180	60	145	GapExp	0	66	2	3	1	target	1	373	814	135209	13.328	8.734	17.902
TrackDT01	7	TrackDT	1.0	SCS215a	20120426.124841	20120426.125524	dt-shadow	8	0.013328	60	10	60-180	60	109	GapExp	0	67	2	0	0	target	0	479	-1000	134209	13.328	13.305	13.346
TrackDT01	7	TrackDT	1.0	SCS215a	20120426.124841	20120426.125529	dt-shadow	8	0.013328	60	10	60-180	60	163	GapExp	0	68	2	0	1	target	1	364	818	135027	13.328	12.735	13.906
TrackDT01	7	TrackDT	1.0	SCS215a	20120426.124841	20120426.125536	dt-shadow	8	0.013328	60	10	60-180	60	167	GapExp	0	69	2	0	0	target	0	828	-1000	134027	13.370	13.105	22.218
TrackDT01	7	TrackDT	1.0	SCS215a	20120426.124841	20120426.125542	dt-shadow	8	0.013328	60	10	60-180	60	177	GapExp	0	70	2	30	0	distractor	1	470	765	134792	13.328	7.772	18.885
TrackDT01	7	TrackDT	1.0	SCS215a	20120426.124841	20120426.125549	dt-shadow	8	0.013328	60	10	60-180	60	106	GapExp	0	71	2	1	1	target	1	466	767	135559	13.328	11.880	14.775
TrackDT01	7	TrackDT	1.0	SCS215a	20120426.124841	20120426.125554	dt-shadow	8	0.013328	60	10	60-180	60	109	GapExp	0	72	2	3	1	target	1	301	850	136409	13.328	7.154	19.510
TrackDT01	7	TrackDT	1.0	SCS215a	20120426.124841	20120426.125559	dt-shadow	8	0.013328	60	10	60-180	60	107	GapExp	0	73	2	0	1	target	1	424	788	137197	13.328	12.416	14.230
TrackDT01	7	TrackDT	1.0	SCS215a	20120426.124841	20120426.125605	dt-shadow	8	0.013328	60	10	60-180	60	174	GapExp	0	74	2	0	1	target	1	481	760	137957	13.328	11.641	15.017
TrackDT01	7	TrackDT	1.0	SCS215a	20120426.124841	20120426.125611	dt-shadow	8	0.013328	60	10	60-180	60	92	GapExp	0	75	2	1	1	target	1	326	837	138794	13.328	13.101	13.562
TrackDT01	7	TrackDT	1.0	SCS215a	20120426.124841	20120426.125617	dt-shadow	8	0.013328	60	10	60-180	60	170	GapExp	0	76	2	30	1	target	1	433	784	139578	13.328	12.096	14.568
TrackDT01	7	TrackDT	1.0	SCS215a	20120426.124841	20120426.125623	dt-shadow	8	0.013328	60	10	60-180	60	65	GapExp	0	77	2	0	1	target	1	552	724	140302	13.328	7.825	18.832
TrackDT01	7	TrackDT	1.0	SCS215a	20120426.124841	20120426.125628	dt-shadow	8	0.013328	60	10	60-180	60	74	GapExp	0	78	2	3	1	target	1	376	812	141114	13.328	11.405	15.254
TrackDT01	7	TrackDT	1.0	SCS215a	20120426.124841	20120426.125633	dt-shadow	8	0.013328	60	10	60-180	60	163	GapExp	0	79	2	1	0	distractor	1	419	791	141905	13.328	6.779	19.877
TrackDT01	7	TrackDT	1.0	SCS215a	20120426.124841	20120426.125639	dt-shadow	8	0.013328	60	10	60-180	60	75	GapExp	0	80	2	30	0	distractor	1	623	689	142594	13.328	7.459	19.197
TrackDT01	7	TrackDT	1.0	SCS215a	20120426.124841	20120426.125645	dt-shadow	8	0.013328	60	10	60-180	60	74	GapExp	0	81	2	0	0	distractor	1	493	754	143348	13.328	13.104	13.559
TrackDT01	7	TrackDT	1.0	SCS215a	20120426.124841	20120426.125649	dt-shadow	8	0.013328	60	10	60-180	60	142	GapExp	0	82	2	1	1	distractor	0	569	-1000	142348	13.328	5.140	21.515
TrackDT01	7	TrackDT	1.0	SCS215a	20120426.124841	20120426.125655	dt-shadow	8	0.013328	60	10	60-180	60	73	GapExp	0	83	2	3	0	target	0	384	-1000	141348	13.327	12.085	14.562
TrackDT01	7	TrackDT	1.0	SCS215a	20120426.124841	20120426.125700	dt-shadow	8	0.013328	60	10	60-180	60	145	GapExp	0	84	2	30	1	target	1	383	809	142157	13.328	9.242	17.413
TrackDT01	7	TrackDT	1.0	SCS215a	20120426.124841	20120426.125706	dt-shadow	8	0.013328	60	10	60-180	60	85	GapExp	0	85	2	30	1	target	1	381	810	142967	13.328	13.084	13.571
TrackDT01	7	TrackDT	1.0	SCS215a	20120426.124841	20120426.125712	dt-shadow	8	0.013328	60	10	60-180	60	151	GapExp	0	86	2	1	0	distractor	1	674	663	143630	13.374	13.097	21.405
TrackDT01	7	TrackDT	1.0	SCS215a	20120426.124841	20120426.125718	dt-shadow	8	0.013328	60	10	60-180	60	78	GapExp	0	87	2	0	1	target	1	422	789	144419	13.327	12.684	13.958
TrackDT01	7	TrackDT	1.0	SCS215a	20120426.124841	20120426.125723	dt-shadow	8	0.013328	60	10	60-180	60	62	GapExp	0	88	2	30	1	target	1	326	837	145256	13.328	10.023	16.642
TrackDT01	7	TrackDT	1.0	SCS215a	20120426.124841	20120426.125728	dt-shadow	8	0.013328	60	10	60-180	60	106	GapExp	0	89	2	3	0	distractor	1	478	761	146017	13.328	9.516	17.153
TrackDT01	7	TrackDT	1.0	SCS215a	20120426.124841	20120426.125733	dt-shadow	8	0.013328	60	10	60-180	60	165	GapExp	0	90	2	0	1	target	1	424	788	146805	13.328	9.913	16.750
TrackDT01	7	TrackDT	1.0	SCS215a	20120426.124841	20120426.125739	dt-shadow	8	0.013328	60	10	60-180	60	79	GapExp	0	91	2	30	1	target	1	336	832	147637	13.328	10.449	16.217
TrackDT01	7	TrackDT	1.0	SCS215a	20120426.124841	20120426.125745	dt-shadow	8	0.013328	60	10	60-180	60	137	GapExp	0	92	2	3	0	distractor	1	463	769	148406	13.328	12.438	14.212
TrackDT01	7	TrackDT	1.0	SCS215a	20120426.124841	20120426.125751	dt-shadow	8	0.013328	60	10	60-180	60	149	GapExp	0	93	2	0	1	target	1	351	825	149231	13.328	7.474	19.175
TrackDT01	7	TrackDT	1.0	SCS215a	20120426.124841	20120426.125756	dt-shadow	8	0.013328	60	10	60-180	60	101	GapExp	0	94	2	30	0	distractor	1	407	797	150028	13.328	11.740	14.919
TrackDT01	7	TrackDT	1.0	SCS215a	20120426.124841	20120426.125802	dt-shadow	8	0.013328	60	10	60-180	60	101	GapExp	0	95	2	0	0	distractor	1	553	724	150752	13.328	7.650	19.021
TrackDT01	7	TrackDT	1.0	SCS215a	20120426.124841	20120426.125807	dt-shadow	8	0.013328	60	10	60-180	60	149	GapExp	0	96	2	30	0	distractor	1	367	817	151569	13.328	6.353	20.310
TrackDT01	7	TrackDT	1.0	SCS215a	20120426.124841	20120426.125813	dt-shadow	8	0.013328	60	10	60-180	60	121	GapExp	0	97	2	3	1	target	1	490	755	152324	13.328	10.660	16.002
TrackDT01	7	TrackDT	1.0	SCS215a	20120426.124841	20120426.125819	dt-shadow	8	0.013328	60	10	60-180	60	176	GapExp	0	98	2	0	1	target	1	406	797	153121	13.328	11.253	15.381
TrackDT01	7	TrackDT	1.0	SCS215a	20120426.124841	20120426.125826	dt-shadow	8	0.013328	60	10	60-180	60	89	GapExp	0	99	2	0	0	distractor	1	599	701	153822	13.328	11.491	15.171
TrackDT01	7	TrackDT	1.0	SCS215a	20120426.124841	20120426.125831	dt-shadow	8	0.013328	60	10	60-180	60	123	GapExp	0	100	2	0	1	target	1	490	755	154577	13.328	13.293	13.357
TrackDT01	7	TrackDT	1.0	SCS215a	20120426.124841	20120426.125846	dt-shadow	8	0.013328	60	10	60-180	60	153	GapExp	0	101	2	1	1	target	1	485	758	155335	13.328	8.711	17.937
TrackDT01	7	TrackDT	1.0	SCS215a	20120426.124841	20120426.125852	dt-shadow	8	0.013328	60	10	60-180	60	177	GapExp	0	102	2	1	1	target	1	349	826	156161	13.328	11.170	15.479
TrackDT01	7	TrackDT	1.0	SCS215a	20120426.124841	20120426.125859	dt-shadow	8	0.013328	60	10	60-180	60	127	GapExp	0	103	2	0	1	target	1	477	762	156923	13.313	7.493	19.239
TrackDT01	7	TrackDT	1.0	SCS215a	20120426.124841	20120426.125904	dt-shadow	8	0.013328	60	10	60-180	60	135	GapExp	0	104	2	3	0	distractor	1	477	762	157685	13.328	13.222	13.434
TrackDT01	7	TrackDT	1.0	SCS215a	20120426.124841	20120426.125910	dt-shadow	8	0.013328	60	10	60-180	60	133	GapExp	0	105	2	3	1	target	1	307	847	158532	13.328	11.997	14.646
TrackDT01	7	TrackDT	1.0	SCS215a	20120426.124841	20120426.125915	dt-shadow	8	0.013328	60	10	60-180	60	102	GapExp	0	106	2	30	0	distractor	1	409	796	159328	13.328	13.308	13.351
TrackDT01	7	TrackDT	1.0	SCS215a	20120426.124841	20120426.125921	dt-shadow	8	0.013328	60	10	60-180	60	93	GapExp	0	107	2	30	0	distractor	1	445	778	160106	13.328	13.106	13.544
TrackDT01	7	TrackDT	1.0	SCS215a	20120426.124841	20120426.125926	dt-shadow	8	0.013328	60	10	60-180	60	113	GapExp	0	108	2	1	1	target	1	319	841	160947	13.328	13.105	13.538
TrackDT01	7	TrackDT	1.0	SCS215a	20120426.124841	20120426.125932	dt-shadow	8	0.013328	60	10	60-180	60	73	GapExp	0	109	2	0	1	target	1	416	792	161739	13.328	9.912	16.744
TrackDT01	7	TrackDT	1.0	SCS215a	20120426.124841	20120426.125937	dt-shadow	8	0.013328	60	10	60-180	60	134	GapExp	0	110	2	3	0	distractor	1	474	763	162502	13.328	13.299	13.349
TrackDT01	7	TrackDT	1.0	SCS215a	20120426.124841	20120426.125943	dt-shadow	8	0.013328	60	10	60-180	60	120	GapExp	0	111	2	0	0	distractor	1	553	724	163226	13.328	8.595	18.124
TrackDT01	7	TrackDT	1.0	SCS215a	20120426.124841	20120426.125948	dt-shadow	8	0.013328	60	10	60-180	60	73	GapExp	0	112	2	1	1	target	1	391	805	164031	13.328	8.069	18.576
TrackDT01	7	TrackDT	1.0	SCS215a	20120426.124841	20120426.125953	dt-shadow	8	0.013328	60	10	60-180	60	106	GapExp	0	113	2	3	1	target	1	495	753	164784	13.328	13.309	13.349
TrackDT01	7	TrackDT	1.0	SCS215a	20120426.124841	20120426.125958	dt-shadow	8	0.013328	60	10	60-180	60	76	GapExp	0	114	2	1	0	distractor	1	596	702	165486	13.328	5.154	21.495
TrackDT01	7	TrackDT	1.0	SCS215a	20120426.124841	20120426.130004	dt-shadow	8	0.013328	60	10	60-180	60	121	GapExp	0	115	2	1	1	target	1	643	679	166165	13.328	13.302	13.346
TrackDT01	7	TrackDT	1.0	SCS215a	20120426.124841	20120426.130009	dt-shadow	8	0.013328	60	10	60-180	60	179	GapExp	0	116	2	3	1	target	1	278	861	167026	13.328	12.996	13.657
TrackDT01	7	TrackDT	1.0	SCS215a	20120426.124841	20120426.130015	dt-shadow	8	0.013328	60	10	60-180	60	112	GapExp	0	117	2	0	0	distractor	1	535	733	167759	13.328	10.307	16.372
TrackDT01	7	TrackDT	1.0	SCS215a	20120426.124841	20120426.130021	dt-shadow	8	0.013328	60	10	60-180	60	180	GapExp	0	118	2	0	0	distractor	1	672	664	168423	13.328	10.389	16.272
TrackDT01	7	TrackDT	1.0	SCS215a	20120426.124841	20120426.130027	dt-shadow	8	0.013328	60	10	60-180	60	94	GapExp	0	119	2	3	1	target	1	330	835	169258	13.328	13.309	13.349
TrackDT01	7	TrackDT	1.0	SCS215a	20120426.124841	20120426.130032	dt-shadow	8	0.013328	60	10	60-180	60	120	GapExp	0	120	2	3	0	distractor	1	388	806	170064	13.328	13.198	13.536
TrackDT01	7	TrackDT	1.0	SCS215a	20120426.124841	20120426.130038	dt-shadow	8	0.013328	60	10	60-180	60	125	GapExp	0	121	2	3	0	distractor	1	529	736	170800	13.328	13.309	13.345
TrackDT01	7	TrackDT	1.0	SCS215a	20120426.124841	20120426.130044	dt-shadow	8	0.013328	60	10	60-180	60	168	GapExp	0	122	2	30	0	distractor	1	423	789	171589	13.328	13.301	13.349
TrackDT01	7	TrackDT	1.0	SCS215a	20120426.124841	20120426.130050	dt-shadow	8	0.013328	60	10	60-180	60	137	GapExp	0	123	2	30	1	distractor	0	380	-1000	170589	13.328	12.834	13.830
TrackDT01	7	TrackDT	1.0	SCS215a	20120426.124841	20120426.130056	dt-shadow	8	0.013328	60	10	60-180	60	91	GapExp	0	124	2	0	1	target	1	387	807	171396	13.328	13.306	13.348
TrackDT01	7	TrackDT	1.0	SCS215a	20120426.124841	20120426.130101	dt-shadow	8	0.013328	60	10	60-180	60	178	GapExp	0	125	2	3	0	distractor	1	445	778	172174	13.372	9.808	30.207
TrackDT01	7	TrackDT	1.0	SCS215a	20120426.124841	20120426.130108	dt-shadow	8	0.013328	60	10	60-180	60	140	GapExp	0	126	2	1	0	target	0	571	-1000	171174	13.328	12.368	14.279
TrackDT01	7	TrackDT	1.0	SCS215a	20120426.124841	20120426.130114	dt-shadow	8	0.013328	60	10	60-180	60	82	GapExp	0	127	2	0	1	target	1	600	700	171874	13.328	7.766	18.897
TrackDT01	7	TrackDT	1.0	SCS215a	20120426.124841	20120426.130119	dt-shadow	8	0.013328	60	10	60-180	60	103	GapExp	0	128	2	1	1	target	1	380	810	172684	13.328	13.158	13.501
TrackDT01	7	TrackDT	1.0	SCS215a	20120426.124841	20120426.130124	dt-shadow	8	0.013328	60	10	60-180	60	67	GapExp	0	129	2	1	1	target	1	525	738	173422	13.328	13.307	13.347
TrackDT01	7	TrackDT	1.0	SCS215a	20120426.124841	20120426.130129	dt-shadow	8	0.013328	60	10	60-180	60	120	GapExp	0	130	2	3	0	distractor	1	540	730	174152	13.327	13.304	13.360
TrackDT01	7	TrackDT	1.0	SCS215a	20120426.124841	20120426.130135	dt-shadow	8	0.013328	60	10	60-180	60	172	GapExp	0	131	2	3	0	distractor	1	430	785	174937	13.328	9.505	17.263
TrackDT01	7	TrackDT	1.0	SCS215a	20120426.124841	20120426.130141	dt-shadow	8	0.013328	60	10	60-180	60	113	GapExp	0	132	2	30	1	target	1	303	849	175786	13.328	7.526	19.132
TrackDT01	7	TrackDT	1.0	SCS215a	20120426.124841	20120426.130147	dt-shadow	8	0.013328	60	10	60-180	60	159	GapExp	0	133	2	1	0	target	0	472	-1000	174786	13.328	13.105	13.544
TrackDT01	7	TrackDT	1.0	SCS215a	20120426.124841	20120426.130153	dt-shadow	8	0.013328	60	10	60-180	60	125	GapExp	0	134	2	3	0	distractor	1	421	790	175576	13.328	13.300	13.361
TrackDT01	7	TrackDT	1.0	SCS215a	20120426.124841	20120426.130159	dt-shadow	8	0.013328	60	10	60-180	60	154	GapExp	0	135	2	30	1	target	1	282	859	176435	13.373	4.223	27.820
TrackDT01	7	TrackDT	1.0	SCS215a	20120426.124841	20120426.130205	dt-shadow	8	0.013328	60	10	60-180	60	90	GapExp	0	136	2	30	1	target	1	336	832	177267	13.328	13.310	13.343
TrackDT01	7	TrackDT	1.0	SCS215a	20120426.124841	20120426.130210	dt-shadow	8	0.013328	60	10	60-180	60	130	GapExp	0	137	2	0	1	distractor	0	643	-1000	176267	13.328	13.033	13.634
TrackDT01	7	TrackDT	1.0	SCS215a	20120426.124841	20120426.130216	dt-shadow	8	0.013328	60	10	60-180	60	116	GapExp	0	138	2	30	0	distractor	1	383	809	177076	13.328	13.106	13.544
TrackDT01	7	TrackDT	1.0	SCS215a	20120426.124841	20120426.130222	dt-shadow	8	0.013328	60	10	60-180	60	171	GapExp	0	139	2	3	1	target	1	366	817	177893	13.328	12.629	14.024
TrackDT01	7	TrackDT	1.0	SCS215a	20120426.124841	20120426.130228	dt-shadow	8	0.013328	60	10	60-180	60	115	GapExp	0	140	2	0	0	distractor	1	516	742	178635	13.328	4.583	22.079
TrackDT01	7	TrackDT	1.0	SCS215a	20120426.124841	20120426.130234	dt-shadow	8	0.013328	60	10	60-180	60	99	GapExp	0	141	2	1	1	target	1	436	782	179417	13.328	13.283	13.355
TrackDT01	7	TrackDT	1.0	SCS215a	20120426.124841	20120426.130239	dt-shadow	8	0.013328	60	10	60-180	60	139	GapExp	0	142	2	1	1	target	1	422	789	180206	13.328	13.289	13.353
TrackDT01	7	TrackDT	1.0	SCS215a	20120426.124841	20120426.130244	dt-shadow	8	0.013328	60	10	60-180	60	77	GapExp	0	143	2	1	1	target	1	427	787	180993	13.328	13.301	13.348
TrackDT01	7	TrackDT	1.0	SCS215a	20120426.124841	20120426.130249	dt-shadow	8	0.013328	60	10	60-180	60	87	GapExp	0	144	2	3	1	target	1	343	829	181822	13.328	10.755	15.907
TrackDT01	7	TrackDT	1.0	SCS215a	20120426.124841	20120426.130255	dt-shadow	8	0.013328	60	10	60-180	60	141	GapExp	0	145	2	0	0	distractor	1	687	657	182479	13.328	7.448	19.196
TrackDT01	7	TrackDT	1.0	SCS215a	20120426.124841	20120426.130301	dt-shadow	8	0.013328	60	10	60-180	60	115	GapExp	0	146	2	0	0	distractor	1	502	749	183228	13.328	7.444	19.224
TrackDT01	7	TrackDT	1.0	SCS215a	20120426.124841	20120426.130306	dt-shadow	8	0.013328	60	10	60-180	60	160	GapExp	0	147	2	30	1	target	1	366	817	184045	13.328	13.307	13.347
TrackDT01	7	TrackDT	1.0	SCS215a	20120426.124841	20120426.130312	dt-shadow	8	0.013328	60	10	60-180	60	116	GapExp	0	148	2	0	0	distractor	1	508	746	184791	13.328	6.917	19.738
TrackDT01	7	TrackDT	1.0	SCS215a	20120426.124841	20120426.130318	dt-shadow	8	0.013328	60	10	60-180	60	151	GapExp	0	149	2	0	1	target	1	592	704	185495	13.328	7.991	18.677
TrackDT01	7	TrackDT	1.0	SCS215a	20120426.124841	20120426.130324	dt-shadow	8	0.013328	60	10	60-180	60	94	GapExp	0	150	2	1	0	distractor	1	687	657	186152	13.328	13.100	13.553
TrackDT01	7	TrackDT	1.0	SCS215a	20120426.124841	20120426.130339	dt-shadow	8	0.013328	60	10	60-180	60	152	GapExp	0	151	2	1	1	distractor	0	427	-1000	185152	13.328	13.112	13.544
TrackDT01	7	TrackDT	1.0	SCS215a	20120426.124841	20120426.130345	dt-shadow	8	0.013328	60	10	60-180	60	171	GapExp	0	152	2	30	1	target	1	245	878	186030	13.328	13.113	13.557
TrackDT01	7	TrackDT	1.0	SCS215a	20120426.124841	20120426.130352	dt-shadow	8	0.013328	60	10	60-180	60	92	GapExp	0	153	2	0	1	target	1	577	712	186742	13.328	13.105	13.545
TrackDT01	7	TrackDT	1.0	SCS215a	20120426.124841	20120426.130357	dt-shadow	8	0.013328	60	10	60-180	60	107	GapExp	0	154	2	1	0	target	0	434	-1000	185742	13.327	13.305	13.358
TrackDT01	7	TrackDT	1.0	SCS215a	20120426.124841	20120426.130403	dt-shadow	8	0.013328	60	10	60-180	60	80	GapExp	0	155	2	30	1	target	1	344	828	186570	13.328	13.306	13.350
TrackDT01	7	TrackDT	1.0	SCS215a	20120426.124841	20120426.130408	dt-shadow	8	0.013328	60	10	60-180	60	149	GapExp	0	156	2	30	1	target	1	470	765	187335	13.328	12.368	14.296
TrackDT01	7	TrackDT	1.0	SCS215a	20120426.124841	20120426.130414	dt-shadow	8	0.013328	60	10	60-180	60	122	GapExp	0	157	2	30	0	target	0	470	-1000	186335	13.328	10.037	16.608
TrackDT01	7	TrackDT	1.0	SCS215a	20120426.124841	20120426.130420	dt-shadow	8	0.013328	60	10	60-180	60	69	GapExp	0	158	2	30	0	distractor	1	409	796	187131	13.327	12.733	14.156
TrackDT01	7	TrackDT	1.0	SCS215a	20120426.124841	20120426.130425	dt-shadow	8	0.013328	60	10	60-180	60	154	GapExp	0	159	2	1	1	target	1	296	852	187983	13.328	13.304	13.352
TrackDT01	7	TrackDT	1.0	SCS215a	20120426.124841	20120426.130431	dt-shadow	8	0.013328	60	10	60-180	60	65	GapExp	0	160	2	1	0	distractor	1	514	743	188726	13.328	10.948	15.720
TrackDT01	7	TrackDT	1.0	SCS215a	20120426.124841	20120426.130436	dt-shadow	8	0.013328	60	10	60-180	60	164	GapExp	0	161	2	3	1	target	1	269	866	189592	13.328	13.290	13.365
TrackDT01	7	TrackDT	1.0	SCS215a	20120426.124841	20120426.130442	dt-shadow	8	0.013328	60	10	60-180	60	89	GapExp	0	162	2	30	0	distractor	1	308	846	190438	13.328	10.477	16.164
TrackDT01	7	TrackDT	1.0	SCS215a	20120426.124841	20120426.130447	dt-shadow	8	0.013328	60	10	60-180	60	107	GapExp	0	163	2	0	1	target	1	323	839	191277	13.328	13.109	13.557
TrackDT01	7	TrackDT	1.0	SCS215a	20120426.124841	20120426.130453	dt-shadow	8	0.013328	60	10	60-180	60	165	GapExp	0	164	2	0	1	target	1	330	835	192112	13.328	13.301	13.352
TrackDT01	7	TrackDT	1.0	SCS215a	20120426.124841	20120426.130458	dt-shadow	8	0.013328	60	10	60-180	60	179	GapExp	0	165	2	3	1	target	1	286	857	192969	13.328	12.595	14.069
TrackDT01	7	TrackDT	1.0	SCS215a	20120426.124841	20120426.130505	dt-shadow	8	0.013328	60	10	60-180	60	160	GapExp	0	166	2	3	0	distractor	1	384	808	193777	13.328	13.308	13.351
TrackDT01	7	TrackDT	1.0	SCS215a	20120426.124841	20120426.130511	dt-shadow	8	0.013328	60	10	60-180	60	73	GapExp	0	167	2	3	1	target	1	378	811	194588	13.328	8.094	18.565
TrackDT01	7	TrackDT	1.0	SCS215a	20120426.124841	20120426.130516	dt-shadow	8	0.013328	60	10	60-180	60	143	GapExp	0	168	2	30	0	distractor	1	300	850	195438	13.328	13.099	13.551
TrackDT01	7	TrackDT	1.0	SCS215a	20120426.124841	20120426.130522	dt-shadow	8	0.013328	60	10	60-180	60	114	GapExp	0	169	2	30	0	distractor	1	359	821	196259	13.328	13.098	13.564
TrackDT01	7	TrackDT	1.0	SCS215a	20120426.124841	20120426.130528	dt-shadow	8	0.013328	60	10	60-180	60	147	GapExp	0	170	2	1	0	distractor	1	539	731	196990	13.328	8.170	18.490
TrackDT01	7	TrackDT	1.0	SCS215a	20120426.124841	20120426.130533	dt-shadow	8	0.013328	60	10	60-180	60	149	GapExp	0	171	2	1	0	distractor	1	425	788	197778	13.328	8.432	18.237
TrackDT01	7	TrackDT	1.0	SCS215a	20120426.124841	20120426.130539	dt-shadow	8	0.013328	60	10	60-180	60	117	GapExp	0	172	2	0	0	distractor	1	760	620	198398	13.328	13.025	13.643
TrackDT01	7	TrackDT	1.0	SCS215a	20120426.124841	20120426.130546	dt-shadow	8	0.013328	60	10	60-180	60	179	GapExp	0	173	2	30	1	target	1	408	796	199194	13.328	13.162	13.494
TrackDT01	7	TrackDT	1.0	SCS215a	20120426.124841	20120426.130552	dt-shadow	8	0.013328	60	10	60-180	60	61	GapExp	0	174	2	0	1	target	1	384	808	200002	13.328	13.109	13.541
TrackDT01	7	TrackDT	1.0	SCS215a	20120426.124841	20120426.130557	dt-shadow	8	0.013328	60	10	60-180	60	63	GapExp	0	175	2	1	1	target	1	398	801	200803	13.327	13.308	13.358
TrackDT01	7	TrackDT	1.0	SCS215a	20120426.124841	20120426.130601	dt-shadow	8	0.013328	60	10	60-180	60	80	GapExp	0	176	2	30	0	distractor	1	402	799	201602	13.328	11.116	15.527
TrackDT01	7	TrackDT	1.0	SCS215a	20120426.124841	20120426.130607	dt-shadow	8	0.013328	60	10	60-180	60	153	GapExp	0	177	2	3	0	distractor	1	323	839	202441	13.328	13.098	13.571
TrackDT01	7	TrackDT	1.0	SCS215a	20120426.124841	20120426.130612	dt-shadow	8	0.013328	60	10	60-180	60	159	GapExp	0	178	2	3	0	target	0	355	-1000	201441	13.328	13.099	13.557
TrackDT01	7	TrackDT	1.0	SCS215a	20120426.124841	20120426.130619	dt-shadow	8	0.013328	60	10	60-180	60	73	GapExp	0	179	2	1	1	distractor	0	376	-1000	200441	13.328	13.305	13.350
TrackDT01	7	TrackDT	1.0	SCS215a	20120426.124841	20120426.130624	dt-shadow	8	0.013328	60	10	60-180	60	64	GapExp	0	180	2	1	1	target	1	341	830	201271	13.328	13.299	13.349
TrackDT01	7	TrackDT	1.0	SCS215a	20120426.124841	20120426.130628	dt-shadow	8	0.013328	60	10	60-180	60	71	GapExp	0	181	2	3	1	target	1	351	825	202096	13.328	13.306	13.343
TrackDT01	7	TrackDT	1.0	SCS215a	20120426.124841	20120426.130633	dt-shadow	8	0.013328	60	10	60-180	60	132	GapExp	0	182	2	30	0	distractor	1	544	728	202824	13.328	13.098	13.565
TrackDT01	7	TrackDT	1.0	SCS215a	20120426.124841	20120426.130639	dt-shadow	8	0.013328	60	10	60-180	60	141	GapExp	0	183	2	1	0	distractor	1	534	733	203557	13.328	11.432	15.223
TrackDT01	7	TrackDT	1.0	SCS215a	20120426.124841	20120426.130645	dt-shadow	8	0.013328	60	10	60-180	60	73	GapExp	0	184	2	30	0	distractor	1	405	798	204355	13.388	10.824	25.203
TrackDT01	7	TrackDT	1.0	SCS215a	20120426.124841	20120426.130651	dt-shadow	8	0.013328	60	10	60-180	60	95	GapExp	0	185	2	1	0	target	0	540	-1000	203355	13.328	12.888	13.775
TrackDT01	7	TrackDT	1.0	SCS215a	20120426.124841	20120426.130656	dt-shadow	8	0.013328	60	10	60-180	60	147	GapExp	0	186	2	3	1	target	1	660	670	204025	13.328	3.270	23.369
TrackDT01	7	TrackDT	1.0	SCS215a	20120426.124841	20120426.130702	dt-shadow	8	0.013328	60	10	60-180	60	118	GapExp	0	187	2	30	1	target	1	362	819	204844	13.328	12.873	13.782
TrackDT01	7	TrackDT	1.0	SCS215a	20120426.124841	20120426.130708	dt-shadow	8	0.013328	60	10	60-180	60	164	GapExp	0	188	2	1	1	target	1	510	745	205589	13.328	13.092	13.558
TrackDT01	7	TrackDT	1.0	SCS215a	20120426.124841	20120426.130714	dt-shadow	8	0.013328	60	10	60-180	60	143	GapExp	0	189	2	1	0	target	0	736	-1000	204589	13.328	13.083	13.572
TrackDT01	7	TrackDT	1.0	SCS215a	20120426.124841	20120426.130720	dt-shadow	8	0.013328	60	10	60-180	60	88	GapExp	0	190	2	0	1	target	1	446	777	205366	13.327	10.476	16.166
TrackDT01	7	TrackDT	1.0	SCS215a	20120426.124841	20120426.130726	dt-shadow	8	0.013328	60	10	60-180	60	76	GapExp	0	191	2	1	0	target	0	403	-1000	204366	13.328	13.308	13.348
TrackDT01	7	TrackDT	1.0	SCS215a	20120426.124841	20120426.130730	dt-shadow	8	0.013328	60	10	60-180	60	117	GapExp	0	192	2	3	0	distractor	1	882	559	204925	13.328	13.081	13.561
TrackDT01	7	TrackDT	1.0	SCS215a	20120426.124841	20120426.130736	dt-shadow	8	0.013328	60	10	60-180	60	64	GapExp	0	193	2	1	0	distractor	1	509	746	205671	13.328	11.264	15.387
TrackDT01	7	TrackDT	1.0	SCS215a	20120426.124841	20120426.130741	dt-shadow	8	0.013328	60	10	60-180	60	175	GapExp	0	194	2	0	0	target	0	599	-1000	204671	13.328	13.299	13.347
TrackDT01	7	TrackDT	1.0	SCS215a	20120426.124841	20120426.130747	dt-shadow	8	0.013328	60	10	60-180	60	68	GapExp	0	195	2	3	1	target	1	413	794	205465	13.328	13.312	13.345
TrackDT01	7	TrackDT	1.0	SCS215a	20120426.124841	20120426.130752	dt-shadow	8	0.013328	60	10	60-180	60	172	GapExp	0	196	2	0	0	distractor	1	457	772	206237	13.328	13.084	13.564
TrackDT01	7	TrackDT	1.0	SCS215a	20120426.124841	20120426.130759	dt-shadow	8	0.013328	60	10	60-180	60	180	GapExp	0	197	2	0	0	distractor	1	675	663	206900	13.328	13.298	13.344
TrackDT01	7	TrackDT	1.0	SCS215a	20120426.124841	20120426.130805	dt-shadow	8	0.013328	60	10	60-180	60	129	GapExp	0	198	2	3	1	target	1	316	842	207742	13.328	7.456	19.195
TrackDT01	7	TrackDT	1.0	SCS215a	20120426.124841	20120426.130811	dt-shadow	8	0.013328	60	10	60-180	60	97	GapExp	0	199	2	3	1	target	1	465	768	208510	13.328	13.092	13.558
TrackDT01	7	TrackDT	1.0	SCS215a	20120426.124841	20120426.130816	dt-shadow	8	0.013328	60	10	60-180	60	123	GapExp	0	200	2	1	0	distractor	1	375	813	209323	13.328	13.196	13.480
TrackDT01	7	TrackDT	1.0	SCS215a	20120426.130903	20120426.130908	dt-generate	8	0.013327	60	10	60-180	60	112	GapPrac	1	1	2	0	1	distractor	0	676	-1000	208323	13.328	13.105	13.551
TrackDT01	7	TrackDT	1.0	SCS215a	20120426.130903	20120426.130914	dt-generate	8	0.013327	60	10	60-180	60	132	GapPrac	1	2	2	0	0	distractor	1	474	763	209086	13.328	8.383	18.278
TrackDT01	7	TrackDT	1.0	SCS215a	20120426.130903	20120426.130919	dt-generate	8	0.013327	60	10	60-180	60	154	GapPrac	1	3	2	3	1	target	1	586	707	209793	13.328	13.304	13.352
TrackDT01	7	TrackDT	1.0	SCS215a	20120426.130903	20120426.130925	dt-generate	8	0.013327	60	10	60-180	60	62	GapPrac	1	4	2	3	0	target	0	9389	-1000	208793	13.328	13.303	13.352
TrackDT01	7	TrackDT	1.0	SCS215a	20120426.130903	20120426.130939	dt-generate	8	0.013327	60	10	60-180	60	70	GapPrac	1	5	2	0	0	distractor	1	468	766	209559	13.328	13.308	13.350
TrackDT01	7	TrackDT	1.0	SCS215a	20120426.130903	20120426.130944	dt-generate	8	0.013327	60	10	60-180	60	67	GapPrac	1	6	2	0	0	target	0	782	-1000	208559	13.328	12.902	13.754
TrackDT01	7	TrackDT	1.0	SCS215a	20120426.130903	20120426.130950	dt-generate	8	0.013327	60	10	60-180	60	169	GapPrac	1	7	2	1	0	distractor	1	570	715	209274	13.328	13.085	13.563
TrackDT01	7	TrackDT	1.0	SCS215a	20120426.130903	20120426.130956	dt-generate	8	0.013327	60	10	60-180	60	76	GapPrac	1	8	2	3	1	target	1	445	778	210052	13.328	13.084	13.570
TrackDT01	7	TrackDT	1.0	SCS215a	20120426.130903	20120426.131001	dt-generate	8	0.013327	60	10	60-180	60	147	GapPrac	1	9	2	30	1	target	1	456	772	210824	13.306	6.901	13.349
TrackDT01	7	TrackDT	1.0	SCS215a	20120426.130903	20120426.131007	dt-generate	8	0.013327	60	10	60-180	60	112	GapPrac	1	10	2	30	1	target	1	785	608	211432	13.328	9.125	17.541
TrackDT01	7	TrackDT	1.0	SCS215a	20120426.130903	20120426.131013	dt-generate	8	0.013327	60	10	60-180	60	96	GapPrac	1	11	2	0	1	target	1	400	800	212232	13.328	12.418	14.244
TrackDT01	7	TrackDT	1.0	SCS215a	20120426.130903	20120426.131019	dt-generate	8	0.013327	60	10	60-180	60	93	GapPrac	1	12	2	0	1	target	1	462	769	213001	13.328	7.625	18.814
TrackDT01	7	TrackDT	1.0	SCS215a	20120426.130903	20120426.131024	dt-generate	8	0.013327	60	10	60-180	60	140	GapPrac	1	13	2	3	0	distractor	1	399	801	213802	13.328	12.757	13.900
TrackDT01	7	TrackDT	1.0	SCS215a	20120426.130903	20120426.131030	dt-generate	8	0.013327	60	10	60-180	60	62	GapPrac	1	14	2	30	0	target	0	625	-1000	212802	13.328	13.310	13.347
TrackDT01	7	TrackDT	1.0	SCS215a	20120426.130903	20120426.131035	dt-generate	8	0.013327	60	10	60-180	60	82	GapPrac	1	15	2	1	1	distractor	0	746	-1000	211802	13.328	13.304	13.352
TrackDT01	7	TrackDT	1.0	SCS215a	20120426.130903	20120426.131040	dt-generate	8	0.013327	60	10	60-180	60	138	GapPrac	1	16	2	1	0	target	0	883	-1000	210802	13.328	13.104	13.551
TrackDT01	7	TrackDT	1.0	SCS215a	20120426.130903	20120426.131046	dt-generate	8	0.013327	60	10	60-180	60	179	GapPrac	1	17	2	1	1	distractor	0	652	-1000	209802	13.328	13.299	13.351
TrackDT01	7	TrackDT	1.0	SCS215a	20120426.130903	20120426.131053	dt-generate	8	0.013327	60	10	60-180	60	161	GapPrac	1	18	2	30	0	target	0	2018	-1000	208802	13.328	11.092	15.562
TrackDT01	7	TrackDT	1.0	SCS215a	20120426.130903	20120426.131101	dt-generate	8	0.013327	60	10	60-180	60	152	GapPrac	1	19	2	3	0	distractor	1	851	575	209377	13.328	13.106	13.550
TrackDT01	7	TrackDT	1.0	SCS215a	20120426.130903	20120426.131107	dt-generate	8	0.013327	60	10	60-180	60	156	GapPrac	1	20	2	3	1	target	1	714	643	210020	13.328	13.098	13.550
TrackDT01	7	TrackDT	1.0	SCS215a	20120426.131136	20120426.131140	dt-generate	8	0.013327	60	10	60-180	60	110	GapExp	1	1	2	1	0	distractor	1	1009	496	210516	13.328	13.041	13.607
TrackDT01	7	TrackDT	1.0	SCS215a	20120426.131136	20120426.131147	dt-generate	8	0.013327	60	10	60-180	60	159	GapExp	1	2	2	30	1	target	1	672	664	211180	13.328	12.138	14.523
TrackDT01	7	TrackDT	1.0	SCS215a	20120426.131136	20120426.131153	dt-generate	8	0.013327	60	10	60-180	60	80	GapExp	1	3	2	3	1	target	1	358	821	212001	13.328	13.310	13.346
TrackDT01	7	TrackDT	1.0	SCS215a	20120426.131136	20120426.131158	dt-generate	8	0.013327	60	10	60-180	60	159	GapExp	1	4	2	3	0	distractor	1	631	685	212686	13.373	5.701	34.274
TrackDT01	7	TrackDT	1.0	SCS215a	20120426.131136	20120426.131204	dt-generate	8	0.013327	60	10	60-180	60	61	GapExp	1	5	2	0	0	target	0	380	-1000	211686	13.328	13.306	13.348
TrackDT01	7	TrackDT	1.0	SCS215a	20120426.131136	20120426.131209	dt-generate	8	0.013327	60	10	60-180	60	179	GapExp	1	6	2	0	1	distractor	0	699	-1000	210686	13.328	9.299	17.371
TrackDT01	7	TrackDT	1.0	SCS215a	20120426.131136	20120426.131216	dt-generate	8	0.013327	60	10	60-180	60	102	GapExp	1	7	2	1	1	distractor	0	758	-1000	209686	13.328	13.109	13.545
TrackDT01	7	TrackDT	1.0	SCS215a	20120426.131136	20120426.131222	dt-generate	8	0.013327	60	10	60-180	60	118	GapExp	1	8	2	30	0	distractor	1	563	719	210405	13.328	13.290	13.356
TrackDT01	7	TrackDT	1.0	SCS215a	20120426.131136	20120426.131227	dt-generate	8	0.013327	60	10	60-180	60	103	GapExp	0	9	2	30	0	target	0	672	-1000	209405	13.328	13.301	13.348
TrackDT01	7	TrackDT	1.0	SCS215a	20120426.131136	20120426.131233	dt-generate	8	0.013327	60	10	60-180	60	72	GapExp	0	10	2	0	1	distractor	0	1556	-1000	208405	13.328	8.995	17.675
TrackDT01	7	TrackDT	1.0	SCS215a	20120426.131136	20120426.131239	dt-generate	8	0.013327	60	10	60-180	60	168	GapExp	0	11	2	30	1	distractor	0	736	-1000	207405	13.328	9.239	17.398
TrackDT01	7	TrackDT	1.0	SCS215a	20120426.131136	20120426.131246	dt-generate	8	0.013327	60	10	60-180	60	90	GapExp	0	12	2	3	1	target	1	469	766	208171	13.328	5.974	20.688
TrackDT01	7	TrackDT	1.0	SCS215a	20120426.131136	20120426.131251	dt-generate	8	0.013327	60	10	60-180	60	82	GapExp	0	13	2	3	0	distractor	1	457	772	208943	13.328	11.210	15.462
TrackDT01	7	TrackDT	1.0	SCS215a	20120426.131136	20120426.131257	dt-generate	8	0.013327	60	10	60-180	60	143	GapExp	0	14	2	30	1	target	1	487	757	209700	13.328	8.794	17.854
TrackDT01	7	TrackDT	1.0	SCS215a	20120426.131136	20120426.131303	dt-generate	8	0.013327	60	10	60-180	60	146	GapExp	0	15	2	0	1	distractor	0	482	-1000	208700	13.328	13.296	13.364
TrackDT01	7	TrackDT	1.0	SCS215a	20120426.131136	20120426.131309	dt-generate	8	0.013327	60	10	60-180	60	75	GapExp	0	16	2	3	1	target	1	322	839	209539	13.328	13.284	13.365
TrackDT01	7	TrackDT	1.0	SCS215a	20120426.131136	20120426.131313	dt-generate	8	0.013327	60	10	60-180	60	133	GapExp	0	17	2	3	1	target	1	395	803	210342	13.328	13.098	13.556
TrackDT01	7	TrackDT	1.0	SCS215a	20120426.131136	20120426.131319	dt-generate	8	0.013327	60	10	60-180	60	99	GapExp	0	18	2	3	0	distractor	1	631	685	211027	13.328	13.107	13.552
TrackDT01	7	TrackDT	1.0	SCS215a	20120426.131136	20120426.131324	dt-generate	8	0.013327	60	10	60-180	60	167	GapExp	0	19	2	1	1	target	1	605	698	211725	13.328	13.094	13.554
TrackDT01	7	TrackDT	1.0	SCS215a	20120426.131136	20120426.131331	dt-generate	8	0.013327	60	10	60-180	60	150	GapExp	0	20	2	3	1	target	1	465	768	212493	13.328	13.304	13.354
TrackDT01	7	TrackDT	1.0	SCS215a	20120426.131136	20120426.131337	dt-generate	8	0.013327	60	10	60-180	60	143	GapExp	0	21	2	30	1	target	1	425	788	213281	13.328	13.218	13.435
TrackDT01	7	TrackDT	1.0	SCS215a	20120426.131136	20120426.131343	dt-generate	8	0.013327	60	10	60-180	60	85	GapExp	0	22	2	0	1	target	1	579	711	213992	13.328	13.308	13.349
TrackDT01	7	TrackDT	1.0	SCS215a	20120426.131136	20120426.131349	dt-generate	8	0.013327	60	10	60-180	60	149	GapExp	0	23	2	1	0	distractor	1	407	797	214789	13.328	13.104	13.548
TrackDT01	7	TrackDT	1.0	SCS215a	20120426.131136	20120426.131354	dt-generate	8	0.013327	60	10	60-180	60	93	GapExp	0	24	2	30	1	target	1	365	818	215607	13.328	13.108	13.555
TrackDT01	7	TrackDT	1.0	SCS215a	20120426.131136	20120426.131400	dt-generate	8	0.013327	60	10	60-180	60	93	GapExp	0	25	2	30	1	target	1	307	847	216454	13.328	13.306	13.345
TrackDT01	7	TrackDT	1.0	SCS215a	20120426.131136	20120426.131406	dt-generate	8	0.013327	60	10	60-180	60	175	GapExp	0	26	2	30	0	distractor	1	873	564	217018	13.328	13.105	13.556
TrackDT01	7	TrackDT	1.0	SCS215a	20120426.131136	20120426.131413	dt-generate	8	0.013327	60	10	60-180	60	137	GapExp	0	27	2	3	0	distractor	1	484	758	217776	13.328	13.308	13.347
TrackDT01	7	TrackDT	1.0	SCS215a	20120426.131136	20120426.131418	dt-generate	8	0.013327	60	10	60-180	60	162	GapExp	0	28	2	30	1	distractor	0	635	-1000	216776	13.328	7.992	18.671
TrackDT01	7	TrackDT	1.0	SCS215a	20120426.131136	20120426.131425	dt-generate	8	0.013327	60	10	60-180	60	89	GapExp	0	29	2	0	1	target	1	391	805	217581	13.328	6.364	20.299
TrackDT01	7	TrackDT	1.0	SCS215a	20120426.131136	20120426.131430	dt-generate	8	0.013327	60	10	60-180	60	97	GapExp	0	30	2	30	0	distractor	1	413	794	218375	13.328	10.616	16.559
TrackDT01	7	TrackDT	1.0	SCS215a	20120426.131136	20120426.131436	dt-generate	8	0.013327	60	10	60-180	60	61	GapExp	0	31	2	30	1	distractor	0	608	-1000	217375	13.328	13.308	13.349
TrackDT01	7	TrackDT	1.0	SCS215a	20120426.131136	20120426.131441	dt-generate	8	0.013327	60	10	60-180	60	151	GapExp	0	32	2	0	1	target	1	522	739	218114	13.328	11.644	15.018
TrackDT01	7	TrackDT	1.0	SCS215a	20120426.131136	20120426.131447	dt-generate	8	0.013327	60	10	60-180	60	75	GapExp	0	33	2	1	1	target	1	504	748	218862	13.328	13.280	13.362
TrackDT01	7	TrackDT	1.0	SCS215a	20120426.131136	20120426.131452	dt-generate	8	0.013327	60	10	60-180	60	139	GapExp	0	34	2	1	0	distractor	1	501	750	219612	13.328	13.099	13.565
TrackDT01	7	TrackDT	1.0	SCS215a	20120426.131136	20120426.131458	dt-generate	8	0.013327	60	10	60-180	60	107	GapExp	0	35	2	0	0	distractor	1	542	729	220341	13.328	13.103	13.552
TrackDT01	7	TrackDT	1.0	SCS215a	20120426.131136	20120426.131503	dt-generate	8	0.013327	60	10	60-180	60	126	GapExp	0	36	2	3	1	target	1	533	734	221075	13.328	9.770	16.875
TrackDT01	7	TrackDT	1.0	SCS215a	20120426.131136	20120426.131509	dt-generate	8	0.013327	60	10	60-180	60	158	GapExp	0	37	2	0	1	target	1	450	775	221850	13.328	3.521	23.110
TrackDT01	7	TrackDT	1.0	SCS215a	20120426.131136	20120426.131515	dt-generate	8	0.013327	60	10	60-180	60	100	GapExp	0	38	2	0	0	target	0	693	-1000	220850	13.328	11.580	15.085
TrackDT01	7	TrackDT	1.0	SCS215a	20120426.131136	20120426.131521	dt-generate	8	0.013327	60	10	60-180	60	96	GapExp	0	39	2	3	0	distractor	1	982	509	221359	13.328	13.106	13.542
TrackDT01	7	TrackDT	1.0	SCS215a	20120426.131136	20120426.131527	dt-generate	8	0.013327	60	10	60-180	60	96	GapExp	0	40	2	0	0	distractor	1	485	758	222117	13.328	13.097	13.552
TrackDT01	7	TrackDT	1.0	SCS215a	20120426.131136	20120426.131532	dt-generate	8	0.013327	60	10	60-180	60	66	GapExp	0	41	2	0	0	distractor	1	519	741	222858	13.328	8.322	18.327
TrackDT01	7	TrackDT	1.0	SCS215a	20120426.131136	20120426.131537	dt-generate	8	0.013327	60	10	60-180	60	131	GapExp	0	42	2	30	0	distractor	1	349	826	223684	13.328	11.705	14.966
TrackDT01	7	TrackDT	1.0	SCS215a	20120426.131136	20120426.131542	dt-generate	8	0.013327	60	10	60-180	60	114	GapExp	0	43	2	1	1	distractor	0	571	-1000	222684	13.328	8.453	18.189
TrackDT01	7	TrackDT	1.0	SCS215a	20120426.131136	20120426.131548	dt-generate	8	0.013327	60	10	60-180	60	121	GapExp	0	44	2	0	1	target	1	730	635	223319	13.328	11.635	15.034
TrackDT01	7	TrackDT	1.0	SCS215a	20120426.131136	20120426.131554	dt-generate	8	0.013327	60	10	60-180	60	99	GapExp	0	45	2	0	1	target	1	495	753	224072	13.328	13.104	13.550
TrackDT01	7	TrackDT	1.0	SCS215a	20120426.131136	20120426.131600	dt-generate	8	0.013327	60	10	60-180	60	105	GapExp	0	46	2	0	1	target	1	432	784	224856	13.328	13.097	13.553
TrackDT01	7	TrackDT	1.0	SCS215a	20120426.131136	20120426.131605	dt-generate	8	0.013327	60	10	60-180	60	144	GapExp	0	47	2	30	0	distractor	1	297	852	225708	13.328	13.304	13.354
TrackDT01	7	TrackDT	1.0	SCS215a	20120426.131136	20120426.131611	dt-generate	8	0.013327	60	10	60-180	60	94	GapExp	0	48	2	30	1	target	1	659	671	226379	13.328	10.191	16.487
TrackDT01	7	TrackDT	1.0	SCS215a	20120426.131136	20120426.131616	dt-generate	8	0.013327	60	10	60-180	60	147	GapExp	0	49	2	1	1	target	1	415	793	227172	13.328	9.341	17.309
TrackDT01	7	TrackDT	1.0	SCS215a	20120426.131136	20120426.131623	dt-generate	8	0.013327	60	10	60-180	60	180	GapExp	0	50	2	0	1	distractor	0	468	-1000	226172	13.328	11.422	15.240
TrackDT01	7	TrackDT	1.0	SCS215a	20120426.131136	20120426.131632	dt-generate	8	0.013327	60	10	60-180	60	153	GapExp	0	51	2	3	0	distractor	1	622	689	226861	13.328	13.305	13.346
TrackDT01	7	TrackDT	1.0	SCS215a	20120426.131136	20120426.131638	dt-generate	8	0.013327	60	10	60-180	60	154	GapExp	0	52	2	1	0	target	0	1419	-1000	225861	13.328	13.304	13.348
TrackDT01	7	TrackDT	1.0	SCS215a	20120426.131136	20120426.131645	dt-generate	8	0.013327	60	10	60-180	60	142	GapExp	0	53	2	1	0	target	0	719	-1000	224861	13.328	10.249	16.401
TrackDT01	7	TrackDT	1.0	SCS215a	20120426.131136	20120426.131651	dt-generate	8	0.013327	60	10	60-180	60	123	GapExp	0	54	2	0	1	target	1	520	740	225601	13.328	10.234	16.434
TrackDT01	7	TrackDT	1.0	SCS215a	20120426.131136	20120426.131657	dt-generate	8	0.013327	60	10	60-180	60	130	GapExp	0	55	2	3	1	target	1	1112	444	226045	13.376	4.437	26.123
TrackDT01	7	TrackDT	1.0	SCS215a	20120426.131136	20120426.131703	dt-generate	8	0.013327	60	10	60-180	60	106	GapExp	0	56	2	3	0	distractor	1	565	718	226763	13.328	12.696	13.959
TrackDT01	7	TrackDT	1.0	SCS215a	20120426.131136	20120426.131709	dt-generate	8	0.013327	60	10	60-180	60	134	GapExp	0	57	2	0	0	distractor	1	462	769	227532	13.328	6.879	19.787
TrackDT01	7	TrackDT	1.0	SCS215a	20120426.131136	20120426.131714	dt-generate	8	0.013327	60	10	60-180	60	166	GapExp	0	58	2	1	1	target	1	422	789	228321	13.328	13.135	13.529
TrackDT01	7	TrackDT	1.0	SCS215a	20120426.131136	20120426.131721	dt-generate	8	0.013327	60	10	60-180	60	116	GapExp	0	59	2	0	0	target	0	606	-1000	227321	13.328	6.097	20.567
TrackDT01	7	TrackDT	1.0	SCS215a	20120426.131136	20120426.131726	dt-generate	8	0.013327	60	10	60-180	60	139	GapExp	0	60	2	1	0	distractor	1	599	701	228022	13.328	11.332	15.311
TrackDT01	7	TrackDT	1.0	SCS215a	20120426.131136	20120426.131732	dt-generate	8	0.013327	60	10	60-180	60	81	GapExp	0	61	2	30	0	distractor	1	455	773	228795	13.328	12.420	14.221
TrackDT01	7	TrackDT	1.0	SCS215a	20120426.131136	20120426.131738	dt-generate	8	0.013327	60	10	60-180	60	166	GapExp	0	62	2	3	0	target	0	446	-1000	227795	13.328	12.809	13.852
TrackDT01	7	TrackDT	1.0	SCS215a	20120426.131136	20120426.131744	dt-generate	8	0.013327	60	10	60-180	60	96	GapExp	0	63	2	0	1	distractor	0	466	-1000	226795	13.328	13.311	13.350
TrackDT01	7	TrackDT	1.0	SCS215a	20120426.131136	20120426.131749	dt-generate	8	0.013327	60	10	60-180	60	175	GapExp	0	64	2	30	1	target	1	716	642	227437	13.328	13.298	13.350
TrackDT01	7	TrackDT	1.0	SCS215a	20120426.131136	20120426.131756	dt-generate	8	0.013327	60	10	60-180	60	133	GapExp	0	65	2	0	0	distractor	1	604	698	228135	13.328	13.312	13.346
TrackDT01	7	TrackDT	1.0	SCS215a	20120426.131136	20120426.131802	dt-generate	8	0.013327	60	10	60-180	60	61	GapExp	0	66	2	0	0	target	0	427	-1000	227135	13.328	7.198	19.463
TrackDT01	7	TrackDT	1.0	SCS215a	20120426.131136	20120426.131807	dt-generate	8	0.013327	60	10	60-180	60	113	GapExp	0	67	2	3	0	distractor	1	417	792	227927	13.328	11.443	15.219
TrackDT01	7	TrackDT	1.0	SCS215a	20120426.131136	20120426.131812	dt-generate	8	0.013327	60	10	60-180	60	170	GapExp	0	68	2	1	0	target	0	653	-1000	226927	13.328	12.188	14.460
TrackDT01	7	TrackDT	1.0	SCS215a	20120426.131136	20120426.131819	dt-generate	8	0.013327	60	10	60-180	60	171	GapExp	0	69	2	1	0	distractor	1	574	713	227640	13.328	12.941	13.729
TrackDT01	7	TrackDT	1.0	SCS215a	20120426.131136	20120426.131825	dt-generate	8	0.013327	60	10	60-180	60	96	GapExp	0	70	2	1	1	target	1	2451	0	227640	13.328	10.916	15.733
TrackDT01	7	TrackDT	1.0	SCS215a	20120426.131136	20120426.131832	dt-generate	8	0.013327	60	10	60-180	60	62	GapExp	0	71	2	1	0	distractor	1	834	583	228223	13.328	9.109	17.558
TrackDT01	7	TrackDT	1.0	SCS215a	20120426.131136	20120426.131838	dt-generate	8	0.013327	60	10	60-180	60	126	GapExp	0	72	2	30	1	target	1	403	799	229022	13.328	13.297	13.347
TrackDT01	7	TrackDT	1.0	SCS215a	20120426.131136	20120426.131844	dt-generate	8	0.013327	60	10	60-180	60	114	GapExp	0	73	2	1	0	distractor	1	512	744	229766	13.328	13.307	13.348
TrackDT01	7	TrackDT	1.0	SCS215a	20120426.131136	20120426.131849	dt-generate	8	0.013327	60	10	60-180	60	137	GapExp	0	74	2	0	0	distractor	1	698	651	230417	13.328	13.104	13.558
TrackDT01	7	TrackDT	1.0	SCS215a	20120426.131136	20120426.131855	dt-generate	8	0.013327	60	10	60-180	60	81	GapExp	0	75	2	0	0	distractor	1	1178	411	230828	13.328	11.393	15.269
TrackDT01	7	TrackDT	1.0	SCS215a	20120426.131136	20120426.131901	dt-generate	8	0.013327	60	10	60-180	60	164	GapExp	0	76	2	30	0	distractor	1	681	660	231488	13.328	6.409	20.258
TrackDT01	7	TrackDT	1.0	SCS215a	20120426.131136	20120426.131908	dt-generate	8	0.013327	60	10	60-180	60	70	GapExp	0	77	2	0	0	distractor	1	558	721	232209	13.328	13.309	13.345
TrackDT01	7	TrackDT	1.0	SCS215a	20120426.131136	20120426.131913	dt-generate	8	0.013327	60	10	60-180	60	124	GapExp	0	78	2	3	0	distractor	1	622	689	232898	13.328	13.305	13.348
TrackDT01	7	TrackDT	1.0	SCS215a	20120426.131136	20120426.131918	dt-generate	8	0.013327	60	10	60-180	60	146	GapExp	0	79	2	0	1	target	1	620	690	233588	13.328	7.618	19.046
TrackDT01	7	TrackDT	1.0	SCS215a	20120426.131136	20120426.131924	dt-generate	8	0.013327	60	10	60-180	60	105	GapExp	0	80	2	3	1	target	1	585	708	234296	13.328	7.518	19.146
TrackDT01	7	TrackDT	1.0	SCS215a	20120426.131136	20120426.131930	dt-generate	8	0.013327	60	10	60-180	60	89	GapExp	0	81	2	3	0	distractor	1	614	693	234989	13.328	8.354	18.356
TrackDT01	7	TrackDT	1.0	SCS215a	20120426.131136	20120426.131935	dt-generate	8	0.013327	60	10	60-180	60	156	GapExp	0	82	2	30	0	target	0	641	-1000	233989	13.328	9.399	17.244
TrackDT01	7	TrackDT	1.0	SCS215a	20120426.131136	20120426.131942	dt-generate	8	0.013327	60	10	60-180	60	103	GapExp	0	83	2	0	1	target	1	485	758	234747	13.328	12.749	13.902
