exp	sub	code	rev	comp	runtime	trialtime	stdt	nstim	refreshdur	cuedur	gapdur	gapOnsetRange	durPostProbe	gapOnsetTime	blocktype	prac	trial	ntargets	soa	probeTarget	resp	acc	rt	pts	tpts	meanFrameDur	minFrameDur	maxFrameDur
TrackDT01	8	TrackDT	1.0	SCS215a	20120426.140901	20120426.140918	single-task	8	0.013327	60	0	60-180	60	62	NoGap	1	1	2	0	0	distractor	1	1381	310	310	13.328	13.307	13.343
TrackDT01	8	TrackDT	1.0	SCS215a	20120426.140901	20120426.140924	single-task	8	0.013327	60	0	60-180	60	108	NoGap	1	2	2	0	0	distractor	1	787	607	917	13.328	9.412	17.228
TrackDT01	8	TrackDT	1.0	SCS215a	20120426.140901	20120426.140929	single-task	8	0.013327	60	0	60-180	60	67	NoGap	1	3	2	0	1	target	1	326	837	1754	13.328	13.272	13.378
TrackDT01	8	TrackDT	1.0	SCS215a	20120426.140901	20120426.140934	single-task	8	0.013327	60	0	60-180	60	176	NoGap	1	4	2	1	1	target	1	497	752	2506	13.328	11.091	15.556
TrackDT01	8	TrackDT	1.0	SCS215a	20120426.140901	20120426.140940	single-task	8	0.013327	60	0	60-180	60	140	NoGap	1	5	2	3	0	distractor	1	778	611	3117	13.328	13.099	13.551
TrackDT01	8	TrackDT	1.0	SCS215a	20120426.140901	20120426.140946	single-task	8	0.013327	60	0	60-180	60	71	NoGap	1	6	2	30	0	distractor	1	567	717	3834	13.328	13.305	13.359
TrackDT01	8	TrackDT	1.0	SCS215a	20120426.140901	20120426.140951	single-task	8	0.013327	60	0	60-180	60	108	NoGap	1	7	2	30	0	distractor	1	509	746	4580	13.328	9.884	16.766
TrackDT01	8	TrackDT	1.0	SCS215a	20120426.140901	20120426.140957	single-task	8	0.013327	60	0	60-180	60	96	NoGap	1	8	2	1	0	distractor	1	437	782	5362	13.328	13.307	13.343
TrackDT01	8	TrackDT	1.0	SCS215a	20120426.140901	20120426.141003	single-task	8	0.013327	60	0	60-180	60	96	NoGap	1	9	2	1	1	target	1	387	807	6169	13.328	13.309	13.345
TrackDT01	8	TrackDT	1.0	SCS215a	20120426.140901	20120426.141008	single-task	8	0.013327	60	0	60-180	60	151	NoGap	1	10	2	3	0	distractor	1	487	757	6926	13.328	13.092	13.564
TrackDT01	8	TrackDT	1.0	SCS215a	20120426.140901	20120426.141013	single-task	8	0.013327	60	0	60-180	60	163	NoGap	1	11	2	1	0	distractor	1	442	779	7705	13.328	8.785	17.859
TrackDT01	8	TrackDT	1.0	SCS215a	20120426.140901	20120426.141019	single-task	8	0.013327	60	0	60-180	60	87	NoGap	1	12	2	3	0	distractor	1	499	751	8456	13.328	8.838	17.833
TrackDT01	8	TrackDT	1.0	SCS215a	20120426.140901	20120426.141024	single-task	8	0.013327	60	0	60-180	60	134	NoGap	1	13	2	30	1	target	1	398	801	9257	13.328	11.899	14.765
TrackDT01	8	TrackDT	1.0	SCS215a	20120426.140901	20120426.141031	single-task	8	0.013327	60	0	60-180	60	180	NoGap	1	14	2	30	1	target	1	388	806	10063	13.328	10.486	16.178
TrackDT01	8	TrackDT	1.0	SCS215a	20120426.140901	20120426.141037	single-task	8	0.013327	60	0	60-180	60	160	NoGap	1	15	2	30	1	target	1	361	820	10883	13.328	12.426	14.224
TrackDT01	8	TrackDT	1.0	SCS215a	20120426.140901	20120426.141044	single-task	8	0.013327	60	0	60-180	60	63	NoGap	1	16	2	1	1	target	1	414	793	11676	13.328	12.297	14.373
TrackDT01	8	TrackDT	1.0	SCS215a	20120426.140901	20120426.141048	single-task	8	0.013327	60	0	60-180	60	172	NoGap	1	17	2	30	0	distractor	1	497	752	12428	13.328	12.004	14.644
TrackDT01	8	TrackDT	1.0	SCS215a	20120426.140901	20120426.141055	single-task	8	0.013327	60	0	60-180	60	171	NoGap	1	18	2	3	1	target	1	363	819	13247	13.328	11.418	15.250
TrackDT01	8	TrackDT	1.0	SCS215a	20120426.140901	20120426.141101	single-task	8	0.013327	60	0	60-180	60	154	NoGap	1	19	2	1	0	distractor	1	314	843	14090	13.327	13.176	13.480
TrackDT01	8	TrackDT	1.0	SCS215a	20120426.140901	20120426.141107	single-task	8	0.013327	60	0	60-180	60	95	NoGap	1	20	2	0	1	target	1	318	841	14931	13.328	13.296	13.348
TrackDT01	8	TrackDT	1.0	SCS215a	20120426.140901	20120426.141112	single-task	8	0.013327	60	0	60-180	60	88	NoGap	1	21	2	0	1	target	1	317	842	15773	13.328	13.307	13.348
TrackDT01	8	TrackDT	1.0	SCS215a	20120426.140901	20120426.141116	single-task	8	0.013327	60	0	60-180	60	128	NoGap	1	22	2	1	0	distractor	1	540	730	16503	13.328	8.661	17.986
TrackDT01	8	TrackDT	1.0	SCS215a	20120426.140901	20120426.141122	single-task	8	0.013327	60	0	60-180	60	102	NoGap	1	23	2	3	1	target	1	316	842	17345	13.328	13.304	13.343
TrackDT01	8	TrackDT	1.0	SCS215a	20120426.140901	20120426.141127	single-task	8	0.013327	60	0	60-180	60	121	NoGap	1	24	2	30	0	distractor	1	330	835	18180	13.328	13.112	13.550
TrackDT01	8	TrackDT	1.0	SCS215a	20120426.140901	20120426.141133	single-task	8	0.013327	60	0	60-180	60	120	NoGap	1	25	2	30	0	distractor	1	422	789	18969	13.328	11.693	14.965
TrackDT01	8	TrackDT	1.0	SCS215a	20120426.140901	20120426.141139	single-task	8	0.013327	60	0	60-180	60	166	NoGap	1	26	2	1	1	target	1	338	831	19800	13.328	13.099	13.566
TrackDT01	8	TrackDT	1.0	SCS215a	20120426.140901	20120426.141145	single-task	8	0.013327	60	0	60-180	60	160	NoGap	1	27	2	0	0	distractor	1	539	731	20531	13.328	12.217	14.458
TrackDT01	8	TrackDT	1.0	SCS215a	20120426.140901	20120426.141151	single-task	8	0.013327	60	0	60-180	60	88	NoGap	1	28	2	1	0	distractor	1	377	812	21343	13.328	13.307	13.349
TrackDT01	8	TrackDT	1.0	SCS215a	20120426.140901	20120426.141156	single-task	8	0.013327	60	0	60-180	60	176	NoGap	1	29	2	3	0	distractor	1	287	857	22200	13.424	7.327	41.995
TrackDT01	8	TrackDT	1.0	SCS215a	20120426.140901	20120426.141202	single-task	8	0.013327	60	0	60-180	60	129	NoGap	1	30	2	3	1	target	1	398	801	23001	13.328	13.112	13.557
TrackDT01	8	TrackDT	1.0	SCS215a	20120426.140901	20120426.141208	single-task	8	0.013327	60	0	60-180	60	85	NoGap	1	31	2	1	1	target	1	423	789	23790	13.328	11.496	15.160
TrackDT01	8	TrackDT	1.0	SCS215a	20120426.140901	20120426.141213	single-task	8	0.013327	60	0	60-180	60	163	NoGap	1	32	2	3	1	target	1	354	823	24613	13.328	13.242	13.414
TrackDT01	8	TrackDT	1.0	SCS215a	20120426.140901	20120426.141219	single-task	8	0.013327	60	0	60-180	60	119	NoGap	1	33	2	0	0	distractor	1	410	795	25408	13.328	12.669	13.996
TrackDT01	8	TrackDT	1.0	SCS215a	20120426.140901	20120426.141224	single-task	8	0.013327	60	0	60-180	60	70	NoGap	1	34	2	3	0	distractor	1	486	757	26165	13.328	13.101	13.560
TrackDT01	8	TrackDT	1.0	SCS215a	20120426.140901	20120426.141229	single-task	8	0.013327	60	0	60-180	60	151	NoGap	1	35	2	0	1	target	1	313	844	27009	13.328	13.091	13.564
TrackDT01	8	TrackDT	1.0	SCS215a	20120426.140901	20120426.141234	single-task	8	0.013327	60	0	60-180	60	121	NoGap	1	36	2	0	0	distractor	1	375	813	27822	13.328	13.305	13.352
TrackDT01	8	TrackDT	1.0	SCS215a	20120426.140901	20120426.141240	single-task	8	0.013327	60	0	60-180	60	118	NoGap	1	37	2	30	1	target	1	319	841	28663	13.328	13.307	13.347
TrackDT01	8	TrackDT	1.0	SCS215a	20120426.140901	20120426.141246	single-task	8	0.013327	60	0	60-180	60	162	NoGap	1	38	2	30	1	target	1	396	802	29465	13.328	13.205	13.458
TrackDT01	8	TrackDT	1.0	SCS215a	20120426.140901	20120426.141252	single-task	8	0.013327	60	0	60-180	60	75	NoGap	1	39	2	0	1	target	1	388	806	30271	13.328	13.289	13.360
TrackDT01	8	TrackDT	1.0	SCS215a	20120426.140901	20120426.141257	single-task	8	0.013327	60	0	60-180	60	147	NoGap	1	40	2	3	1	target	1	364	818	31089	13.328	8.025	18.630
TrackDT01	8	TrackDT	1.0	SCS215a	20120426.141333	20120426.141354	single-task	8	0.013327	60	10	60-180	60	176	GapPrac	1	1	2	3	0	distractor	1	635	683	31772	13.328	13.111	13.552
TrackDT01	8	TrackDT	1.0	SCS215a	20120426.141333	20120426.141402	single-task	8	0.013327	60	10	60-180	60	76	GapPrac	1	2	2	3	1	target	1	387	807	32579	13.328	13.098	13.570
TrackDT01	8	TrackDT	1.0	SCS215a	20120426.141333	20120426.141406	single-task	8	0.013327	60	10	60-180	60	143	GapPrac	1	3	2	0	0	distractor	1	445	778	33357	13.328	12.953	13.699
TrackDT01	8	TrackDT	1.0	SCS215a	20120426.141333	20120426.141412	single-task	8	0.013327	60	10	60-180	60	166	GapPrac	1	4	2	0	1	target	1	420	790	34147	13.328	13.030	13.758
TrackDT01	8	TrackDT	1.0	SCS215a	20120426.141333	20120426.141418	single-task	8	0.013327	60	10	60-180	60	134	GapPrac	1	5	2	1	1	target	1	467	767	34914	13.328	13.309	13.346
TrackDT01	8	TrackDT	1.0	SCS215a	20120426.141333	20120426.141424	single-task	8	0.013327	60	10	60-180	60	67	GapPrac	1	6	2	0	0	distractor	1	393	804	35718	13.327	13.292	13.359
TrackDT01	8	TrackDT	1.0	SCS215a	20120426.141333	20120426.141429	single-task	8	0.013327	60	10	60-180	60	123	GapPrac	1	7	2	3	1	distractor	0	510	-1000	34718	13.328	13.303	13.347
TrackDT01	8	TrackDT	1.0	SCS215a	20120426.141333	20120426.141435	single-task	8	0.013327	60	10	60-180	60	120	GapPrac	1	8	2	1	1	target	1	376	812	35530	13.328	13.098	13.550
TrackDT01	8	TrackDT	1.0	SCS215a	20120426.141333	20120426.141440	single-task	8	0.013327	60	10	60-180	60	86	GapPrac	1	9	2	30	1	target	1	429	786	36316	13.328	13.303	13.348
TrackDT01	8	TrackDT	1.0	SCS215a	20120426.141333	20120426.141446	single-task	8	0.013327	60	10	60-180	60	73	GapPrac	1	10	2	3	0	distractor	1	401	800	37116	13.328	13.307	13.346
TrackDT01	8	TrackDT	1.0	SCS215a	20120426.141333	20120426.141451	single-task	8	0.013327	60	10	60-180	60	85	GapPrac	1	11	2	3	1	target	1	395	803	37919	13.328	13.088	13.576
TrackDT01	8	TrackDT	1.0	SCS215a	20120426.141333	20120426.141456	single-task	8	0.013327	60	10	60-180	60	92	GapPrac	1	12	2	0	1	target	1	785	608	38527	13.328	12.963	13.699
TrackDT01	8	TrackDT	1.0	SCS215a	20120426.141333	20120426.141501	single-task	8	0.013327	60	10	60-180	60	160	GapPrac	1	13	2	30	0	distractor	1	380	810	39337	13.328	13.308	13.347
TrackDT01	8	TrackDT	1.0	SCS215a	20120426.141333	20120426.141508	single-task	8	0.013327	60	10	60-180	60	131	GapPrac	1	14	2	0	0	distractor	1	429	786	40123	13.328	13.294	13.347
TrackDT01	8	TrackDT	1.0	SCS215a	20120426.141333	20120426.141514	single-task	8	0.013327	60	10	60-180	60	147	GapPrac	1	15	2	1	0	distractor	1	480	760	40883	13.328	13.204	13.460
TrackDT01	8	TrackDT	1.0	SCS215a	20120426.141333	20120426.141520	single-task	8	0.013327	60	10	60-180	60	106	GapPrac	1	16	2	0	1	target	1	501	750	41633	13.328	13.290	13.361
TrackDT01	8	TrackDT	1.0	SCS215a	20120426.141333	20120426.141525	single-task	8	0.013327	60	10	60-180	60	164	GapPrac	1	17	2	30	0	distractor	1	340	830	42463	13.328	13.112	13.544
TrackDT01	8	TrackDT	1.0	SCS215a	20120426.141333	20120426.141531	single-task	8	0.013327	60	10	60-180	60	61	GapPrac	1	18	2	1	0	distractor	1	425	788	43251	13.328	12.901	13.761
TrackDT01	8	TrackDT	1.0	SCS215a	20120426.141333	20120426.141536	single-task	8	0.013327	60	10	60-180	60	85	GapPrac	1	19	2	3	0	distractor	1	480	760	44011	13.328	13.020	13.637
TrackDT01	8	TrackDT	1.0	SCS215a	20120426.141333	20120426.141542	single-task	8	0.013327	60	10	60-180	60	171	GapPrac	1	20	2	30	1	target	1	332	834	44845	13.328	13.235	13.420
TrackDT01	8	TrackDT	1.0	SCS215a	20120426.141602	20120426.141636	single-task	8	0.013304	60	10	60-180	60	167	GapExp	1	1	2	0	0	target	0	515	-1000	43845	13.328	11.379	15.248
TrackDT01	8	TrackDT	1.0	SCS215a	20120426.141602	20120426.141643	single-task	8	0.013304	60	10	60-180	60	173	GapExp	1	2	2	0	1	target	1	422	789	44634	13.328	10.711	15.935
TrackDT01	8	TrackDT	1.0	SCS215a	20120426.141602	20120426.141649	single-task	8	0.013304	60	10	60-180	60	142	GapExp	1	3	2	30	0	distractor	1	412	794	45428	13.328	11.821	14.843
TrackDT01	8	TrackDT	1.0	SCS215a	20120426.141602	20120426.141655	single-task	8	0.013304	60	10	60-180	60	164	GapExp	1	4	2	1	0	distractor	1	418	791	46219	13.617	10.177	54.646
TrackDT01	8	TrackDT	1.0	SCS215a	20120426.141602	20120426.141701	single-task	8	0.013304	60	10	60-180	60	115	GapExp	1	5	2	3	0	distractor	1	491	755	46974	13.328	11.140	15.524
TrackDT01	8	TrackDT	1.0	SCS215a	20120426.141602	20120426.141707	single-task	8	0.013304	60	10	60-180	60	113	GapExp	1	6	2	3	1	target	1	484	758	47732	13.328	12.448	14.188
TrackDT01	8	TrackDT	1.0	SCS215a	20120426.141602	20120426.141712	single-task	8	0.013304	60	10	60-180	60	172	GapExp	1	7	2	1	1	target	1	518	741	48473	13.328	10.727	15.925
TrackDT01	8	TrackDT	1.0	SCS215a	20120426.141602	20120426.141719	single-task	8	0.013304	60	10	60-180	60	77	GapExp	1	8	2	30	1	target	1	382	809	49282	13.328	12.292	14.365
TrackDT01	8	TrackDT	1.0	SCS215a	20120426.141602	20120426.141724	single-task	8	0.013304	60	10	60-180	60	73	GapExp	0	9	2	3	0	target	0	599	-1000	48282	13.328	13.092	13.559
TrackDT01	8	TrackDT	1.0	SCS215a	20120426.141602	20120426.141729	single-task	8	0.013304	60	10	60-180	60	73	GapExp	0	10	2	1	1	target	1	607	697	48979	13.368	11.340	21.571
TrackDT01	8	TrackDT	1.0	SCS215a	20120426.141602	20120426.141734	single-task	8	0.013304	60	10	60-180	60	127	GapExp	0	11	2	30	0	distractor	1	397	802	49781	13.328	12.300	14.377
TrackDT01	8	TrackDT	1.0	SCS215a	20120426.141602	20120426.141740	single-task	8	0.013304	60	10	60-180	60	147	GapExp	0	12	2	30	1	target	1	330	835	50616	13.328	7.044	19.604
TrackDT01	8	TrackDT	1.0	SCS215a	20120426.141602	20120426.141747	single-task	8	0.013304	60	10	60-180	60	100	GapExp	0	13	2	30	1	target	1	412	794	51410	13.328	11.056	15.586
TrackDT01	8	TrackDT	1.0	SCS215a	20120426.141602	20120426.141753	single-task	8	0.013304	60	10	60-180	60	146	GapExp	0	14	2	3	1	target	1	436	782	52192	13.328	13.307	13.350
TrackDT01	8	TrackDT	1.0	SCS215a	20120426.141602	20120426.141758	single-task	8	0.013304	60	10	60-180	60	176	GapExp	0	15	2	1	0	distractor	1	369	816	53008	13.328	7.031	19.620
TrackDT01	8	TrackDT	1.0	SCS215a	20120426.141602	20120426.141805	single-task	8	0.013304	60	10	60-180	60	152	GapExp	0	16	2	1	1	target	1	428	786	53794	13.328	13.099	13.550
TrackDT01	8	TrackDT	1.0	SCS215a	20120426.141602	20120426.141811	single-task	8	0.013304	60	10	60-180	60	63	GapExp	0	17	2	3	1	target	1	416	792	54586	13.328	13.160	13.494
TrackDT01	8	TrackDT	1.0	SCS215a	20120426.141602	20120426.141815	single-task	8	0.013304	60	10	60-180	60	152	GapExp	0	18	2	3	1	target	1	404	798	55384	13.328	5.113	21.537
TrackDT01	8	TrackDT	1.0	SCS215a	20120426.141602	20120426.141821	single-task	8	0.013304	60	10	60-180	60	100	GapExp	0	19	2	1	0	distractor	1	507	747	56131	13.328	13.303	13.351
TrackDT01	8	TrackDT	1.0	SCS215a	20120426.141602	20120426.141827	single-task	8	0.013304	60	10	60-180	60	169	GapExp	0	20	2	3	1	target	1	362	819	56950	13.328	13.113	13.545
TrackDT01	8	TrackDT	1.0	SCS215a	20120426.141602	20120426.141833	single-task	8	0.013304	60	10	60-180	60	159	GapExp	0	21	2	30	0	distractor	1	270	865	57815	13.328	12.573	14.081
TrackDT01	8	TrackDT	1.0	SCS215a	20120426.141602	20120426.141839	single-task	8	0.013304	60	10	60-180	60	155	GapExp	0	22	2	3	1	target	1	554	723	58538	13.328	12.487	14.169
TrackDT01	8	TrackDT	1.0	SCS215a	20120426.141602	20120426.141846	single-task	8	0.013304	60	10	60-180	60	138	GapExp	0	23	2	0	1	distractor	0	430	-1000	57538	13.328	10.842	15.808
TrackDT01	8	TrackDT	1.0	SCS215a	20120426.141602	20120426.141851	single-task	8	0.013304	60	10	60-180	60	162	GapExp	0	24	2	30	0	distractor	1	516	742	58280	13.328	5.140	21.516
TrackDT01	8	TrackDT	1.0	SCS215a	20120426.141602	20120426.141858	single-task	8	0.013304	60	10	60-180	60	161	GapExp	0	25	2	0	1	target	1	480	760	59040	13.328	13.236	13.404
TrackDT01	8	TrackDT	1.0	SCS215a	20120426.141602	20120426.141904	single-task	8	0.013304	60	10	60-180	60	121	GapExp	0	26	2	0	0	distractor	1	499	751	59791	13.328	11.416	15.263
TrackDT01	8	TrackDT	1.0	SCS215a	20120426.141602	20120426.141910	single-task	8	0.013304	60	10	60-180	60	149	GapExp	0	27	2	30	0	distractor	1	473	764	60555	13.328	10.942	15.707
TrackDT01	8	TrackDT	1.0	SCS215a	20120426.141602	20120426.141916	single-task	8	0.013304	60	10	60-180	60	75	GapExp	0	28	2	0	0	distractor	1	642	679	61234	13.328	12.555	14.086
TrackDT01	8	TrackDT	1.0	SCS215a	20120426.141602	20120426.141921	single-task	8	0.013304	60	10	60-180	60	148	GapExp	0	29	2	0	0	distractor	1	582	709	61943	13.328	13.107	13.542
TrackDT01	8	TrackDT	1.0	SCS215a	20120426.141602	20120426.141928	single-task	8	0.013304	60	10	60-180	60	111	GapExp	0	30	2	0	0	distractor	1	462	769	62712	13.328	8.623	18.055
TrackDT01	8	TrackDT	1.0	SCS215a	20120426.141602	20120426.141933	single-task	8	0.013304	60	10	60-180	60	100	GapExp	0	31	2	3	0	distractor	1	357	822	63534	13.328	10.785	15.889
TrackDT01	8	TrackDT	1.0	SCS215a	20120426.141602	20120426.141939	single-task	8	0.013304	60	10	60-180	60	137	GapExp	0	32	2	3	1	target	1	438	781	64315	13.328	8.656	18.004
TrackDT01	8	TrackDT	1.0	SCS215a	20120426.141602	20120426.141944	single-task	8	0.013304	60	10	60-180	60	85	GapExp	0	33	2	0	1	target	1	453	774	65089	13.328	13.042	13.594
TrackDT01	8	TrackDT	1.0	SCS215a	20120426.141602	20120426.141949	single-task	8	0.013304	60	10	60-180	60	111	GapExp	0	34	2	3	1	target	1	353	824	65913	13.328	13.109	13.539
TrackDT01	8	TrackDT	1.0	SCS215a	20120426.141602	20120426.141955	single-task	8	0.013304	60	10	60-180	60	113	GapExp	0	35	2	3	0	distractor	1	345	828	66741	13.328	13.298	13.350
TrackDT01	8	TrackDT	1.0	SCS215a	20120426.141602	20120426.142000	single-task	8	0.013304	60	10	60-180	60	173	GapExp	0	36	2	3	1	target	1	361	820	67561	13.328	13.300	13.354
TrackDT01	8	TrackDT	1.0	SCS215a	20120426.141602	20120426.142007	single-task	8	0.013304	60	10	60-180	60	148	GapExp	0	37	2	30	0	distractor	1	324	838	68399	13.328	7.785	18.866
TrackDT01	8	TrackDT	1.0	SCS215a	20120426.141602	20120426.142013	single-task	8	0.013304	60	10	60-180	60	162	GapExp	0	38	2	1	1	target	1	421	790	69189	13.328	11.202	15.474
TrackDT01	8	TrackDT	1.0	SCS215a	20120426.141602	20120426.142019	single-task	8	0.013304	60	10	60-180	60	157	GapExp	0	39	2	1	1	target	1	328	836	70025	13.328	13.096	13.554
TrackDT01	8	TrackDT	1.0	SCS215a	20120426.141602	20120426.142025	single-task	8	0.013304	60	10	60-180	60	133	GapExp	0	40	2	30	0	distractor	1	408	796	70821	13.328	13.088	13.550
TrackDT01	8	TrackDT	1.0	SCS215a	20120426.141602	20120426.142031	single-task	8	0.013304	60	10	60-180	60	152	GapExp	0	41	2	1	1	target	1	384	808	71629	13.328	13.091	13.544
TrackDT01	8	TrackDT	1.0	SCS215a	20120426.141602	20120426.142037	single-task	8	0.013304	60	10	60-180	60	78	GapExp	0	42	2	3	0	distractor	1	500	750	72379	13.328	10.476	16.176
TrackDT01	8	TrackDT	1.0	SCS215a	20120426.141602	20120426.142042	single-task	8	0.013304	60	10	60-180	60	75	GapExp	0	43	2	1	1	distractor	0	367	-1000	71379	13.328	13.310	13.352
TrackDT01	8	TrackDT	1.0	SCS215a	20120426.141602	20120426.142047	single-task	8	0.013304	60	10	60-180	60	165	GapExp	0	44	2	1	1	target	1	431	785	72164	13.328	13.091	13.565
TrackDT01	8	TrackDT	1.0	SCS215a	20120426.141602	20120426.142053	single-task	8	0.013304	60	10	60-180	60	119	GapExp	0	45	2	30	0	distractor	1	307	847	73011	13.328	11.247	15.422
TrackDT01	8	TrackDT	1.0	SCS215a	20120426.141602	20120426.142059	single-task	8	0.013304	60	10	60-180	60	109	GapExp	0	46	2	0	0	distractor	1	448	776	73787	13.329	13.311	13.552
TrackDT01	8	TrackDT	1.0	SCS215a	20120426.141602	20120426.142105	single-task	8	0.013304	60	10	60-180	60	121	GapExp	0	47	2	1	1	target	1	518	741	74528	13.328	9.710	16.933
TrackDT01	8	TrackDT	1.0	SCS215a	20120426.141602	20120426.142111	single-task	8	0.013304	60	10	60-180	60	90	GapExp	0	48	2	30	1	target	1	370	815	75343	13.328	10.169	16.473
TrackDT01	8	TrackDT	1.0	SCS215a	20120426.141602	20120426.142116	single-task	8	0.013304	60	10	60-180	60	96	GapExp	0	49	2	1	1	target	1	410	795	76138	13.328	13.091	13.551
TrackDT01	8	TrackDT	1.0	SCS215a	20120426.141602	20120426.142121	single-task	8	0.013304	60	10	60-180	60	115	GapExp	0	50	2	30	0	distractor	1	481	760	76898	13.328	13.119	13.544
TrackDT01	8	TrackDT	1.0	SCS215a	20120426.141602	20120426.142154	single-task	8	0.013304	60	10	60-180	60	105	GapExp	0	51	2	0	0	distractor	1	463	769	77667	13.328	13.307	13.344
TrackDT01	8	TrackDT	1.0	SCS215a	20120426.141602	20120426.142200	single-task	8	0.013304	60	10	60-180	60	72	GapExp	0	52	2	1	0	distractor	1	493	754	78421	13.328	10.946	15.710
TrackDT01	8	TrackDT	1.0	SCS215a	20120426.141602	20120426.142205	single-task	8	0.013304	60	10	60-180	60	163	GapExp	0	53	2	3	0	distractor	1	425	788	79209	13.328	11.243	15.404
TrackDT01	8	TrackDT	1.0	SCS215a	20120426.141602	20120426.142211	single-task	8	0.013304	60	10	60-180	60	104	GapExp	0	54	2	3	0	distractor	1	471	765	79974	13.328	11.378	15.277
TrackDT01	8	TrackDT	1.0	SCS215a	20120426.141602	20120426.142216	single-task	8	0.013304	60	10	60-180	60	154	GapExp	0	55	2	0	0	distractor	1	413	794	80768	13.328	13.276	13.385
TrackDT01	8	TrackDT	1.0	SCS215a	20120426.141602	20120426.142222	single-task	8	0.013304	60	10	60-180	60	134	GapExp	0	56	2	0	1	target	1	466	767	81535	13.328	11.102	15.545
TrackDT01	8	TrackDT	1.0	SCS215a	20120426.141602	20120426.142228	single-task	8	0.013304	60	10	60-180	60	94	GapExp	0	57	2	0	1	target	1	461	770	82305	13.328	13.309	13.345
TrackDT01	8	TrackDT	1.0	SCS215a	20120426.141602	20120426.142234	single-task	8	0.013304	60	10	60-180	60	69	GapExp	0	58	2	3	0	distractor	1	374	813	83118	13.328	7.236	19.399
TrackDT01	8	TrackDT	1.0	SCS215a	20120426.141602	20120426.142238	single-task	8	0.013304	60	10	60-180	60	82	GapExp	0	59	2	0	0	distractor	1	475	763	83881	13.328	9.284	17.373
TrackDT01	8	TrackDT	1.0	SCS215a	20120426.141602	20120426.142243	single-task	8	0.013304	60	10	60-180	60	136	GapExp	0	60	2	0	1	target	1	386	807	84688	13.328	7.295	19.369
TrackDT01	8	TrackDT	1.0	SCS215a	20120426.141602	20120426.142249	single-task	8	0.013304	60	10	60-180	60	119	GapExp	0	61	2	0	0	distractor	1	573	714	85402	13.292	4.557	13.346
TrackDT01	8	TrackDT	1.0	SCS215a	20120426.141602	20120426.142255	single-task	8	0.013304	60	10	60-180	60	154	GapExp	0	62	2	1	0	distractor	1	423	789	86191	13.328	12.812	13.870
TrackDT01	8	TrackDT	1.0	SCS215a	20120426.141602	20120426.142301	single-task	8	0.013304	60	10	60-180	60	153	GapExp	0	63	2	3	0	distractor	1	442	779	86970	13.328	13.098	13.563
TrackDT01	8	TrackDT	1.0	SCS215a	20120426.141602	20120426.142307	single-task	8	0.013304	60	10	60-180	60	79	GapExp	0	64	2	1	0	distractor	1	487	757	87727	13.328	13.106	13.551
TrackDT01	8	TrackDT	1.0	SCS215a	20120426.141602	20120426.142312	single-task	8	0.013304	60	10	60-180	60	63	GapExp	0	65	2	0	1	target	1	490	755	88482	13.328	13.308	13.352
TrackDT01	8	TrackDT	1.0	SCS215a	20120426.141602	20120426.142317	single-task	8	0.013304	60	10	60-180	60	81	GapExp	0	66	2	30	1	target	1	421	790	89272	13.328	13.309	13.345
TrackDT01	8	TrackDT	1.0	SCS215a	20120426.141602	20120426.142322	single-task	8	0.013304	60	10	60-180	60	128	GapExp	0	67	2	3	0	distractor	1	406	797	90069	13.328	13.312	13.350
TrackDT01	8	TrackDT	1.0	SCS215a	20120426.141602	20120426.142328	single-task	8	0.013304	60	10	60-180	60	159	GapExp	0	68	2	3	1	target	1	396	802	90871	13.328	13.098	13.552
TrackDT01	8	TrackDT	1.0	SCS215a	20120426.141602	20120426.142334	single-task	8	0.013304	60	10	60-180	60	159	GapExp	0	69	2	0	1	target	1	354	823	91694	13.328	12.847	13.828
TrackDT01	8	TrackDT	1.0	SCS215a	20120426.141602	20120426.142340	single-task	8	0.013304	60	10	60-180	60	169	GapExp	0	70	2	1	1	target	1	484	758	92452	13.328	11.772	14.899
TrackDT01	8	TrackDT	1.0	SCS215a	20120426.141602	20120426.142347	single-task	8	0.013304	60	10	60-180	60	151	GapExp	0	71	2	1	0	distractor	1	455	773	93225	13.328	13.092	13.562
TrackDT01	8	TrackDT	1.0	SCS215a	20120426.141602	20120426.142353	single-task	8	0.013304	60	10	60-180	60	64	GapExp	0	72	2	0	1	target	1	474	763	93988	13.328	10.251	16.412
TrackDT01	8	TrackDT	1.0	SCS215a	20120426.141602	20120426.142357	single-task	8	0.013304	60	10	60-180	60	124	GapExp	0	73	2	30	1	target	1	392	804	94792	13.328	13.305	13.350
TrackDT01	8	TrackDT	1.0	SCS215a	20120426.141602	20120426.142403	single-task	8	0.013304	60	10	60-180	60	118	GapExp	0	74	2	30	1	target	1	439	781	95573	13.328	11.718	14.932
TrackDT01	8	TrackDT	1.0	SCS215a	20120426.141602	20120426.142409	single-task	8	0.013304	60	10	60-180	60	139	GapExp	0	75	2	1	0	distractor	1	533	734	96307	13.328	13.098	13.544
TrackDT01	8	TrackDT	1.0	SCS215a	20120426.141602	20120426.142416	single-task	8	0.013304	60	10	60-180	60	129	GapExp	0	76	2	3	0	distractor	1	535	733	97040	13.328	6.996	19.647
TrackDT01	8	TrackDT	1.0	SCS215a	20120426.141602	20120426.142421	single-task	8	0.013304	60	10	60-180	60	66	GapExp	0	77	2	30	1	target	1	441	780	97820	13.328	13.299	13.421
TrackDT01	8	TrackDT	1.0	SCS215a	20120426.141602	20120426.142426	single-task	8	0.013304	60	10	60-180	60	146	GapExp	0	78	2	30	1	target	1	349	826	98646	13.328	7.150	19.501
TrackDT01	8	TrackDT	1.0	SCS215a	20120426.141602	20120426.142433	single-task	8	0.013304	60	10	60-180	60	74	GapExp	0	79	2	0	0	distractor	1	541	730	99376	13.328	13.286	13.369
TrackDT01	8	TrackDT	1.0	SCS215a	20120426.141602	20120426.142438	single-task	8	0.013304	60	10	60-180	60	171	GapExp	0	80	2	30	1	target	1	323	839	100215	13.328	6.327	20.322
TrackDT01	8	TrackDT	1.0	SCS215a	20120426.141602	20120426.142444	single-task	8	0.013304	60	10	60-180	60	122	GapExp	0	81	2	30	0	distractor	1	416	792	101007	13.328	13.102	13.558
TrackDT01	8	TrackDT	1.0	SCS215a	20120426.141602	20120426.142451	single-task	8	0.013304	60	10	60-180	60	64	GapExp	0	82	2	30	0	distractor	1	443	779	101786	13.328	10.889	15.760
TrackDT01	8	TrackDT	1.0	SCS215a	20120426.141602	20120426.142456	single-task	8	0.013304	60	10	60-180	60	126	GapExp	0	83	2	1	1	target	1	445	778	102564	13.328	8.810	17.842
TrackDT01	8	TrackDT	1.0	SCS215a	20120426.141602	20120426.142501	single-task	8	0.013304	60	10	60-180	60	163	GapExp	0	84	2	3	0	distractor	1	479	761	103325	13.328	3.435	23.213
TrackDT01	8	TrackDT	1.0	SCS215a	20120426.141602	20120426.142507	single-task	8	0.013304	60	10	60-180	60	90	GapExp	0	85	2	1	0	distractor	1	476	762	104087	13.328	9.938	16.704
TrackDT01	8	TrackDT	1.0	SCS215a	20120426.141602	20120426.142513	single-task	8	0.013304	60	10	60-180	60	176	GapExp	0	86	2	1	1	target	1	539	731	104818	13.328	13.105	13.544
TrackDT01	8	TrackDT	1.0	SCS215a	20120426.141602	20120426.142519	single-task	8	0.013304	60	10	60-180	60	106	GapExp	0	87	2	0	0	target	0	512	-1000	103818	13.328	13.099	13.551
TrackDT01	8	TrackDT	1.0	SCS215a	20120426.141602	20120426.142525	single-task	8	0.013304	60	10	60-180	60	80	GapExp	0	88	2	0	1	target	1	529	736	104554	13.328	11.543	15.113
TrackDT01	8	TrackDT	1.0	SCS215a	20120426.141602	20120426.142530	single-task	8	0.013304	60	10	60-180	60	111	GapExp	0	89	2	3	0	distractor	1	582	709	105263	13.328	13.304	13.353
TrackDT01	8	TrackDT	1.0	SCS215a	20120426.141602	20120426.142535	single-task	8	0.013304	60	10	60-180	60	79	GapExp	0	90	2	1	1	target	1	401	800	106063	13.328	13.304	13.353
TrackDT01	8	TrackDT	1.0	SCS215a	20120426.141602	20120426.142540	single-task	8	0.013304	60	10	60-180	60	78	GapExp	0	91	2	30	0	distractor	1	534	733	106796	13.328	12.118	14.533
TrackDT01	8	TrackDT	1.0	SCS215a	20120426.141602	20120426.142546	single-task	8	0.013304	60	10	60-180	60	89	GapExp	0	92	2	1	0	distractor	1	578	711	107507	13.328	13.307	13.351
TrackDT01	8	TrackDT	1.0	SCS215a	20120426.141602	20120426.142551	single-task	8	0.013304	60	10	60-180	60	150	GapExp	0	93	2	3	0	distractor	1	493	754	108261	13.328	13.289	13.353
TrackDT01	8	TrackDT	1.0	SCS215a	20120426.141602	20120426.142558	single-task	8	0.013304	60	10	60-180	60	85	GapExp	0	94	2	3	1	target	1	400	800	109061	13.328	13.298	13.348
TrackDT01	8	TrackDT	1.0	SCS215a	20120426.141602	20120426.142603	single-task	8	0.013304	60	10	60-180	60	168	GapExp	0	95	2	0	0	distractor	1	446	777	109838	13.328	13.092	13.558
TrackDT01	8	TrackDT	1.0	SCS215a	20120426.141602	20120426.142609	single-task	8	0.013304	60	10	60-180	60	148	GapExp	0	96	2	3	1	target	1	363	819	110657	13.328	12.591	14.071
TrackDT01	8	TrackDT	1.0	SCS215a	20120426.141602	20120426.142615	single-task	8	0.013304	60	10	60-180	60	178	GapExp	0	97	2	1	1	target	1	445	778	111435	13.328	7.754	18.908
TrackDT01	8	TrackDT	1.0	SCS215a	20120426.141602	20120426.142621	single-task	8	0.013304	60	10	60-180	60	133	GapExp	0	98	2	1	1	target	1	428	786	112221	13.328	13.098	13.563
TrackDT01	8	TrackDT	1.0	SCS215a	20120426.141602	20120426.142627	single-task	8	0.013304	60	10	60-180	60	141	GapExp	0	99	2	30	0	distractor	1	437	782	113003	13.328	13.303	13.349
TrackDT01	8	TrackDT	1.0	SCS215a	20120426.141602	20120426.142633	single-task	8	0.013304	60	10	60-180	60	68	GapExp	0	100	2	3	1	target	1	586	707	113710	13.328	10.265	16.377
TrackDT01	8	TrackDT	1.0	SCS215a	20120426.141602	20120426.142707	single-task	8	0.013304	60	10	60-180	60	172	GapExp	0	101	2	30	1	target	1	293	854	114564	13.328	7.607	19.048
TrackDT01	8	TrackDT	1.0	SCS215a	20120426.141602	20120426.142714	single-task	8	0.013304	60	10	60-180	60	76	GapExp	0	102	2	30	1	target	1	271	865	115429	13.328	11.035	15.609
TrackDT01	8	TrackDT	1.0	SCS215a	20120426.141602	20120426.142719	single-task	8	0.013304	60	10	60-180	60	68	GapExp	0	103	2	0	1	target	1	353	824	116253	13.328	13.098	13.544
TrackDT01	8	TrackDT	1.0	SCS215a	20120426.141602	20120426.142724	single-task	8	0.013304	60	10	60-180	60	150	GapExp	0	104	2	1	0	distractor	1	507	747	117000	13.328	13.092	13.557
TrackDT01	8	TrackDT	1.0	SCS215a	20120426.141602	20120426.142730	single-task	8	0.013304	60	10	60-180	60	168	GapExp	0	105	2	30	1	target	1	436	782	117782	13.328	13.119	13.536
TrackDT01	8	TrackDT	1.0	SCS215a	20120426.141602	20120426.142737	single-task	8	0.013304	60	10	60-180	60	174	GapExp	0	106	2	30	1	target	1	585	708	118490	13.328	13.017	13.630
TrackDT01	8	TrackDT	1.0	SCS215a	20120426.141602	20120426.142744	single-task	8	0.013304	60	10	60-180	60	96	GapExp	0	107	2	1	0	target	0	463	-1000	117490	13.328	13.309	13.355
TrackDT01	8	TrackDT	1.0	SCS215a	20120426.141602	20120426.142749	single-task	8	0.013304	60	10	60-180	60	100	GapExp	0	108	2	1	0	distractor	1	521	740	118230	13.328	8.576	18.087
TrackDT01	8	TrackDT	1.0	SCS215a	20120426.141602	20120426.142755	single-task	8	0.013304	60	10	60-180	60	101	GapExp	0	109	2	3	0	distractor	1	500	750	118980	13.328	13.100	13.547
TrackDT01	8	TrackDT	1.0	SCS215a	20120426.141602	20120426.142800	single-task	8	0.013304	60	10	60-180	60	81	GapExp	0	110	2	30	0	distractor	1	578	711	119691	13.328	7.544	19.123
TrackDT01	8	TrackDT	1.0	SCS215a	20120426.141602	20120426.142805	single-task	8	0.013304	60	10	60-180	60	96	GapExp	0	111	2	30	0	distractor	1	544	728	120419	13.328	13.309	13.348
TrackDT01	8	TrackDT	1.0	SCS215a	20120426.141602	20120426.142811	single-task	8	0.013304	60	10	60-180	60	175	GapExp	0	112	2	3	0	distractor	1	5582	0	120419	13.328	13.291	13.351
TrackDT01	8	TrackDT	1.0	SCS215a	20120426.141602	20120426.142823	single-task	8	0.013304	60	10	60-180	60	118	GapExp	0	113	2	30	1	target	1	273	864	121283	13.328	11.386	15.272
TrackDT01	8	TrackDT	1.0	SCS215a	20120426.141602	20120426.142829	single-task	8	0.013304	60	10	60-180	60	91	GapExp	0	114	2	3	1	target	1	422	789	122072	13.328	5.718	20.939
TrackDT01	8	TrackDT	1.0	SCS215a	20120426.141602	20120426.142834	single-task	8	0.013304	60	10	60-180	60	87	GapExp	0	115	2	1	1	target	1	418	791	122863	13.328	13.313	13.345
TrackDT01	8	TrackDT	1.0	SCS215a	20120426.141602	20120426.142839	single-task	8	0.013304	60	10	60-180	60	139	GapExp	0	116	2	3	0	distractor	1	467	767	123630	13.328	9.675	16.982
TrackDT01	8	TrackDT	1.0	SCS215a	20120426.141602	20120426.142845	single-task	8	0.013304	60	10	60-180	60	83	GapExp	0	117	2	30	1	target	1	339	831	124461	13.328	7.586	19.071
TrackDT01	8	TrackDT	1.0	SCS215a	20120426.141602	20120426.142850	single-task	8	0.013304	60	10	60-180	60	92	GapExp	0	118	2	3	0	distractor	1	5659	0	124461	13.328	13.099	13.562
TrackDT01	8	TrackDT	1.0	SCS215a	20120426.141602	20120426.142901	single-task	8	0.013304	60	10	60-180	60	129	GapExp	0	119	2	0	1	target	1	403	799	125260	13.327	13.161	13.503
TrackDT01	8	TrackDT	1.0	SCS215a	20120426.141602	20120426.142906	single-task	8	0.013304	60	10	60-180	60	171	GapExp	0	120	2	30	0	distractor	1	441	780	126040	13.328	4.379	22.276
TrackDT01	8	TrackDT	1.0	SCS215a	20120426.141602	20120426.142913	single-task	8	0.013304	60	10	60-180	60	94	GapExp	0	121	2	0	1	target	1	439	781	126821	13.328	13.304	13.349
TrackDT01	8	TrackDT	1.0	SCS215a	20120426.141602	20120426.142918	single-task	8	0.013304	60	10	60-180	60	140	GapExp	0	122	2	3	1	target	1	995	503	127324	13.328	11.016	15.877
TrackDT01	8	TrackDT	1.0	SCS215a	20120426.141602	20120426.142924	single-task	8	0.013304	60	10	60-180	60	165	GapExp	0	123	2	1	0	distractor	1	686	657	127981	13.328	7.646	19.008
TrackDT01	8	TrackDT	1.0	SCS215a	20120426.141602	20120426.142931	single-task	8	0.013304	60	10	60-180	60	153	GapExp	0	124	2	30	0	distractor	1	3128	0	127981	13.328	11.394	15.269
TrackDT01	8	TrackDT	1.0	SCS215a	20120426.141602	20120426.142940	single-task	8	0.013304	60	10	60-180	60	61	GapExp	0	125	2	0	0	target	0	489	-1000	126981	13.328	13.085	13.571
TrackDT01	8	TrackDT	1.0	SCS215a	20120426.141602	20120426.142945	single-task	8	0.013304	60	10	60-180	60	105	GapExp	0	126	2	0	1	target	1	521	740	127721	13.328	13.093	13.557
TrackDT01	8	TrackDT	1.0	SCS215a	20120426.141602	20120426.142950	single-task	8	0.013304	60	10	60-180	60	177	GapExp	0	127	2	3	0	distractor	1	391	805	128526	13.328	12.547	14.117
TrackDT01	8	TrackDT	1.0	SCS215a	20120426.141602	20120426.142956	single-task	8	0.013304	60	10	60-180	60	169	GapExp	0	128	2	0	0	distractor	1	417	792	129318	13.328	13.154	13.461
TrackDT01	8	TrackDT	1.0	SCS215a	20120426.141602	20120426.143003	single-task	8	0.013304	60	10	60-180	60	70	GapExp	0	129	2	1	0	distractor	1	481	760	130078	13.328	13.306	13.348
TrackDT01	8	TrackDT	1.0	SCS215a	20120426.141602	20120426.143008	single-task	8	0.013304	60	10	60-180	60	176	GapExp	0	130	2	0	1	target	1	457	772	130850	13.328	8.567	18.096
TrackDT01	8	TrackDT	1.0	SCS215a	20120426.141602	20120426.143014	single-task	8	0.013304	60	10	60-180	60	132	GapExp	0	131	2	1	1	target	1	439	781	131631	13.328	12.360	14.283
TrackDT01	8	TrackDT	1.0	SCS215a	20120426.141602	20120426.143020	single-task	8	0.013304	60	10	60-180	60	126	GapExp	0	132	2	0	1	target	1	382	809	132440	13.328	13.112	13.537
TrackDT01	8	TrackDT	1.0	SCS215a	20120426.141602	20120426.143025	single-task	8	0.013304	60	10	60-180	60	180	GapExp	0	133	2	1	1	target	1	355	823	133263	13.328	12.924	13.750
TrackDT01	8	TrackDT	1.0	SCS215a	20120426.141602	20120426.143032	single-task	8	0.013304	60	10	60-180	60	84	GapExp	0	134	2	30	0	distractor	1	363	819	134082	13.328	12.503	14.283
TrackDT01	8	TrackDT	1.0	SCS215a	20120426.141602	20120426.143037	single-task	8	0.013304	60	10	60-180	60	122	GapExp	0	135	2	30	0	distractor	1	385	808	134890	13.328	13.151	13.522
TrackDT01	8	TrackDT	1.0	SCS215a	20120426.141602	20120426.143043	single-task	8	0.013304	60	10	60-180	60	161	GapExp	0	136	2	0	1	target	1	552	724	135614	13.328	11.374	16.027
TrackDT01	8	TrackDT	1.0	SCS215a	20120426.141602	20120426.143050	single-task	8	0.013304	60	10	60-180	60	141	GapExp	0	137	2	3	0	distractor	1	223	889	136503	13.328	13.106	13.544
TrackDT01	8	TrackDT	1.0	SCS215a	20120426.141602	20120426.143055	single-task	8	0.013304	60	10	60-180	60	120	GapExp	0	138	2	30	1	distractor	0	284	-1000	135503	13.328	12.361	14.273
TrackDT01	8	TrackDT	1.0	SCS215a	20120426.141602	20120426.143101	single-task	8	0.013304	60	10	60-180	60	78	GapExp	0	139	2	1	1	target	1	416	792	136295	13.328	2.791	23.852
TrackDT01	8	TrackDT	1.0	SCS215a	20120426.141602	20120426.143106	single-task	8	0.013304	60	10	60-180	60	157	GapExp	0	140	2	0	0	distractor	1	467	767	137062	13.328	8.639	18.011
TrackDT01	8	TrackDT	1.0	SCS215a	20120426.141602	20120426.143112	single-task	8	0.013304	60	10	60-180	60	180	GapExp	0	141	2	3	1	target	1	461	770	137832	13.328	9.949	16.664
TrackDT01	8	TrackDT	1.0	SCS215a	20120426.141602	20120426.143119	single-task	8	0.013304	60	10	60-180	60	148	GapExp	0	142	2	30	1	distractor	0	1463	-1000	136832	13.328	10.926	15.736
TrackDT01	8	TrackDT	1.0	SCS215a	20120426.141602	20120426.143126	single-task	8	0.013304	60	10	60-180	60	177	GapExp	0	143	2	0	1	target	1	395	803	137635	13.328	13.200	13.447
TrackDT01	8	TrackDT	1.0	SCS215a	20120426.141602	20120426.143132	single-task	8	0.013304	60	10	60-180	60	114	GapExp	0	144	2	0	0	distractor	1	450	775	138410	13.328	10.834	15.822
TrackDT01	8	TrackDT	1.0	SCS215a	20120426.141602	20120426.143138	single-task	8	0.013304	60	10	60-180	60	155	GapExp	0	145	2	30	1	target	1	576	712	139122	13.328	9.574	17.068
TrackDT01	8	TrackDT	1.0	SCS215a	20120426.141602	20120426.143145	single-task	8	0.013304	60	10	60-180	60	166	GapExp	0	146	2	30	1	target	1	308	846	139968	13.328	10.844	15.839
TrackDT01	8	TrackDT	1.0	SCS215a	20120426.141602	20120426.143151	single-task	8	0.013304	60	10	60-180	60	95	GapExp	0	147	2	1	0	distractor	1	425	788	140756	13.328	12.455	14.210
TrackDT01	8	TrackDT	1.0	SCS215a	20120426.141602	20120426.143156	single-task	8	0.013304	60	10	60-180	60	101	GapExp	0	148	2	3	1	target	1	408	796	141552	13.328	9.760	16.899
TrackDT01	8	TrackDT	1.0	SCS215a	20120426.141602	20120426.143202	single-task	8	0.013304	60	10	60-180	60	130	GapExp	0	149	2	0	0	distractor	1	503	749	142301	13.328	13.098	13.566
TrackDT01	8	TrackDT	1.0	SCS215a	20120426.141602	20120426.143207	single-task	8	0.013304	60	10	60-180	60	148	GapExp	0	150	2	3	0	distractor	1	453	774	143075	13.328	10.819	15.836
TrackDT01	8	TrackDT	1.0	SCS215a	20120426.141602	20120426.143241	single-task	8	0.013304	60	10	60-180	60	74	GapExp	0	151	2	1	0	distractor	1	376	812	143887	13.328	13.110	13.547
TrackDT01	8	TrackDT	1.0	SCS215a	20120426.141602	20120426.143247	single-task	8	0.013304	60	10	60-180	60	69	GapExp	0	152	2	0	1	target	1	424	788	144675	13.328	13.308	13.349
TrackDT01	8	TrackDT	1.0	SCS215a	20120426.141602	20120426.143251	single-task	8	0.013304	60	10	60-180	60	118	GapExp	0	153	2	3	1	target	1	368	816	145491	13.328	10.902	15.757
TrackDT01	8	TrackDT	1.0	SCS215a	20120426.141602	20120426.143257	single-task	8	0.013304	60	10	60-180	60	120	GapExp	0	154	2	3	1	target	1	376	812	146303	13.328	11.436	15.289
TrackDT01	8	TrackDT	1.0	SCS215a	20120426.141602	20120426.143302	single-task	8	0.013304	60	10	60-180	60	104	GapExp	0	155	2	1	0	distractor	1	410	795	147098	13.328	12.827	13.814
TrackDT01	8	TrackDT	1.0	SCS215a	20120426.141602	20120426.143308	single-task	8	0.013304	60	10	60-180	60	118	GapExp	0	156	2	1	0	distractor	1	435	783	147881	13.327	8.548	18.114
TrackDT01	8	TrackDT	1.0	SCS215a	20120426.141602	20120426.143313	single-task	8	0.013304	60	10	60-180	60	84	GapExp	0	157	2	3	1	target	1	370	815	148696	13.328	13.292	13.378
TrackDT01	8	TrackDT	1.0	SCS215a	20120426.141602	20120426.143319	single-task	8	0.013304	60	10	60-180	60	159	GapExp	0	158	2	30	1	target	1	297	852	149548	13.328	13.307	13.350
TrackDT01	8	TrackDT	1.0	SCS215a	20120426.141602	20120426.143325	single-task	8	0.013304	60	10	60-180	60	78	GapExp	0	159	2	30	1	target	1	333	834	150382	13.328	13.294	13.356
TrackDT01	8	TrackDT	1.0	SCS215a	20120426.141602	20120426.143330	single-task	8	0.013304	60	10	60-180	60	115	GapExp	0	160	2	3	0	distractor	1	460	770	151152	13.328	13.091	13.551
TrackDT01	8	TrackDT	1.0	SCS215a	20120426.141602	20120426.143336	single-task	8	0.013304	60	10	60-180	60	82	GapExp	0	161	2	1	1	target	1	427	787	151939	13.328	7.979	18.691
TrackDT01	8	TrackDT	1.0	SCS215a	20120426.141602	20120426.143341	single-task	8	0.013304	60	10	60-180	60	159	GapExp	0	162	2	0	0	distractor	1	407	797	152736	13.328	13.308	13.347
TrackDT01	8	TrackDT	1.0	SCS215a	20120426.141602	20120426.143347	single-task	8	0.013304	60	10	60-180	60	86	GapExp	0	163	2	3	1	target	1	427	787	153523	13.328	10.436	16.213
TrackDT01	8	TrackDT	1.0	SCS215a	20120426.141602	20120426.143352	single-task	8	0.013304	60	10	60-180	60	89	GapExp	0	164	2	30	1	target	1	260	870	154393	13.328	13.300	13.360
TrackDT01	8	TrackDT	1.0	SCS215a	20120426.141602	20120426.143358	single-task	8	0.013304	60	10	60-180	60	153	GapExp	0	165	2	1	1	distractor	0	357	-1000	153393	13.328	2.862	23.793
TrackDT01	8	TrackDT	1.0	SCS215a	20120426.141602	20120426.143403	single-task	8	0.013304	60	10	60-180	60	112	GapExp	0	166	2	0	1	target	1	347	827	154220	13.328	13.099	13.551
TrackDT01	8	TrackDT	1.0	SCS215a	20120426.141602	20120426.143409	single-task	8	0.013304	60	10	60-180	60	77	GapExp	0	167	2	1	1	target	1	392	804	155024	13.327	13.304	13.360
TrackDT01	8	TrackDT	1.0	SCS215a	20120426.141602	20120426.143414	single-task	8	0.013304	60	10	60-180	60	125	GapExp	0	168	2	0	0	target	0	340	-1000	154024	13.328	13.308	13.351
TrackDT01	8	TrackDT	1.0	SCS215a	20120426.141602	20120426.143419	single-task	8	0.013304	60	10	60-180	60	81	GapExp	0	169	2	0	1	target	1	474	763	154787	13.328	13.098	13.558
TrackDT01	8	TrackDT	1.0	SCS215a	20120426.141602	20120426.143425	single-task	8	0.013304	60	10	60-180	60	172	GapExp	0	170	2	3	1	target	1	365	818	155605	13.328	12.447	14.205
TrackDT01	8	TrackDT	1.0	SCS215a	20120426.141602	20120426.143431	single-task	8	0.013304	60	10	60-180	60	140	GapExp	0	171	2	3	1	target	1	292	854	156459	13.328	13.259	13.366
TrackDT01	8	TrackDT	1.0	SCS215a	20120426.141602	20120426.143436	single-task	8	0.013304	60	10	60-180	60	137	GapExp	0	172	2	30	1	target	1	459	771	157230	13.328	13.306	13.356
TrackDT01	8	TrackDT	1.0	SCS215a	20120426.141602	20120426.143443	single-task	8	0.013304	60	10	60-180	60	87	GapExp	0	173	2	3	0	distractor	1	586	707	157937	13.328	13.306	13.343
TrackDT01	8	TrackDT	1.0	SCS215a	20120426.141602	20120426.143448	single-task	8	0.013304	60	10	60-180	60	99	GapExp	0	174	2	1	1	target	1	351	825	158762	13.328	13.098	13.538
TrackDT01	8	TrackDT	1.0	SCS215a	20120426.141602	20120426.143453	single-task	8	0.013304	60	10	60-180	60	112	GapExp	0	175	2	3	1	target	1	628	686	159448	13.328	13.112	13.550
TrackDT01	8	TrackDT	1.0	SCS215a	20120426.141602	20120426.143459	single-task	8	0.013304	60	10	60-180	60	61	GapExp	0	176	2	30	1	target	1	306	847	160295	13.328	13.288	13.373
TrackDT01	8	TrackDT	1.0	SCS215a	20120426.141602	20120426.143504	single-task	8	0.013304	60	10	60-180	60	147	GapExp	0	177	2	0	1	distractor	0	405	-1000	159295	13.328	12.151	14.520
TrackDT01	8	TrackDT	1.0	SCS215a	20120426.141602	20120426.143510	single-task	8	0.013304	60	10	60-180	60	143	GapExp	0	178	2	30	0	distractor	1	479	761	160056	13.328	13.279	13.375
TrackDT01	8	TrackDT	1.0	SCS215a	20120426.141602	20120426.143516	single-task	8	0.013304	60	10	60-180	60	123	GapExp	0	179	2	30	0	distractor	1	451	775	160831	13.328	13.308	13.349
TrackDT01	8	TrackDT	1.0	SCS215a	20120426.141602	20120426.143522	single-task	8	0.013304	60	10	60-180	60	156	GapExp	0	180	2	0	0	distractor	1	611	695	161526	13.328	13.068	13.606
TrackDT01	8	TrackDT	1.0	SCS215a	20120426.141602	20120426.143528	single-task	8	0.013304	60	10	60-180	60	137	GapExp	0	181	2	1	1	target	1	377	812	162338	13.328	10.237	16.427
TrackDT01	8	TrackDT	1.0	SCS215a	20120426.141602	20120426.143535	single-task	8	0.013304	60	10	60-180	60	92	GapExp	0	182	2	0	0	distractor	1	503	749	163087	13.328	13.033	13.633
TrackDT01	8	TrackDT	1.0	SCS215a	20120426.141602	20120426.143540	single-task	8	0.013304	60	10	60-180	60	127	GapExp	0	183	2	30	0	distractor	1	407	797	163884	13.328	13.296	13.353
TrackDT01	8	TrackDT	1.0	SCS215a	20120426.141602	20120426.143546	single-task	8	0.013304	60	10	60-180	60	117	GapExp	0	184	2	1	0	distractor	1	410	795	164679	13.328	12.768	13.902
TrackDT01	8	TrackDT	1.0	SCS215a	20120426.141602	20120426.143551	single-task	8	0.013304	60	10	60-180	60	166	GapExp	0	185	2	3	1	target	1	406	797	165476	13.328	13.111	13.538
TrackDT01	8	TrackDT	1.0	SCS215a	20120426.141602	20120426.143557	single-task	8	0.013304	60	10	60-180	60	177	GapExp	0	186	2	1	0	distractor	1	471	765	166241	13.328	13.107	13.550
TrackDT01	8	TrackDT	1.0	SCS215a	20120426.141602	20120426.143604	single-task	8	0.013304	60	10	60-180	60	104	GapExp	0	187	2	0	0	distractor	1	491	755	166996	13.328	12.315	14.344
TrackDT01	8	TrackDT	1.0	SCS215a	20120426.141602	20120426.143609	single-task	8	0.013304	60	10	60-180	60	110	GapExp	0	188	2	3	0	distractor	1	481	760	167756	13.328	10.454	16.202
TrackDT01	8	TrackDT	1.0	SCS215a	20120426.141602	20120426.143615	single-task	8	0.013304	60	10	60-180	60	163	GapExp	0	189	2	0	0	distractor	1	487	757	168513	13.328	12.626	13.831
TrackDT01	8	TrackDT	1.0	SCS215a	20120426.141602	20120426.143621	single-task	8	0.013304	60	10	60-180	60	156	GapExp	0	190	2	30	0	distractor	1	442	779	169292	13.328	13.159	13.479
TrackDT01	8	TrackDT	1.0	SCS215a	20120426.141602	20120426.143627	single-task	8	0.013304	60	10	60-180	60	123	GapExp	0	191	2	30	0	distractor	1	479	761	170053	13.328	13.307	13.349
TrackDT01	8	TrackDT	1.0	SCS215a	20120426.141602	20120426.143633	single-task	8	0.013304	60	10	60-180	60	131	GapExp	0	192	2	30	0	distractor	1	536	732	170785	13.328	13.305	13.347
TrackDT01	8	TrackDT	1.0	SCS215a	20120426.141602	20120426.143640	single-task	8	0.013304	60	10	60-180	60	98	GapExp	0	193	2	1	0	distractor	1	585	708	171493	13.328	11.519	15.108
TrackDT01	8	TrackDT	1.0	SCS215a	20120426.141602	20120426.143645	single-task	8	0.013304	60	10	60-180	60	157	GapExp	0	194	2	0	0	distractor	1	644	678	172171	13.328	12.512	14.144
TrackDT01	8	TrackDT	1.0	SCS215a	20120426.141602	20120426.143651	single-task	8	0.013304	60	10	60-180	60	117	GapExp	0	195	2	0	1	target	1	624	688	172859	13.328	13.112	13.558
TrackDT01	8	TrackDT	1.0	SCS215a	20120426.141602	20120426.143657	single-task	8	0.013304	60	10	60-180	60	116	GapExp	0	196	2	0	1	target	1	465	768	173627	13.666	9.911	57.639
TrackDT01	8	TrackDT	1.0	SCS215a	20120426.141602	20120426.143703	single-task	8	0.013304	60	10	60-180	60	68	GapExp	0	197	2	1	0	distractor	1	536	732	174359	13.328	12.958	13.715
TrackDT01	8	TrackDT	1.0	SCS215a	20120426.141602	20120426.143708	single-task	8	0.013304	60	10	60-180	60	133	GapExp	0	198	2	3	0	target	0	228	-1000	173359	13.328	8.186	18.456
TrackDT01	8	TrackDT	1.0	SCS215a	20120426.141602	20120426.143714	single-task	8	0.013304	60	10	60-180	60	95	GapExp	0	199	2	1	0	distractor	1	539	731	174090	13.328	13.307	13.345
TrackDT01	8	TrackDT	1.0	SCS215a	20120426.141602	20120426.143719	single-task	8	0.013304	60	10	60-180	60	144	GapExp	0	200	2	1	0	distractor	1	460	770	174860	13.328	6.587	20.076
TrackDT01	8	TrackDT	1.0	SCS215a	20120426.143953	20120426.144001	dt-generate	8	0.013328	60	10	60-180	60	146	GapPrac	1	1	2	1	1	target	1	1002	499	175359	13.328	12.896	13.757
TrackDT01	8	TrackDT	1.0	SCS215a	20120426.143953	20120426.144008	dt-generate	8	0.013328	60	10	60-180	60	131	GapPrac	1	2	2	0	1	target	1	619	691	176050	13.328	13.104	13.544
TrackDT01	8	TrackDT	1.0	SCS215a	20120426.143953	20120426.144014	dt-generate	8	0.013328	60	10	60-180	60	160	GapPrac	1	3	2	30	0	distractor	1	711	645	176695	13.328	12.931	13.736
TrackDT01	8	TrackDT	1.0	SCS215a	20120426.143953	20120426.144020	dt-generate	8	0.013328	60	10	60-180	60	90	GapPrac	1	4	2	3	1	target	1	492	754	177449	13.328	13.302	13.354
TrackDT01	8	TrackDT	1.0	SCS215a	20120426.143953	20120426.144026	dt-generate	8	0.013328	60	10	60-180	60	69	GapPrac	1	5	2	30	1	target	1	412	794	178243	13.328	12.906	13.763
TrackDT01	8	TrackDT	1.0	SCS215a	20120426.143953	20120426.144031	dt-generate	8	0.013328	60	10	60-180	60	117	GapPrac	1	6	2	30	1	target	1	722	639	178882	13.328	13.098	13.566
TrackDT01	8	TrackDT	1.0	SCS215a	20120426.143953	20120426.144037	dt-generate	8	0.013328	60	10	60-180	60	67	GapPrac	1	7	2	0	0	distractor	1	642	679	179561	13.328	12.869	13.790
TrackDT01	8	TrackDT	1.0	SCS215a	20120426.143953	20120426.144042	dt-generate	8	0.013328	60	10	60-180	60	103	GapPrac	1	8	2	30	0	distractor	1	465	768	180329	13.328	13.099	13.543
TrackDT01	8	TrackDT	1.0	SCS215a	20120426.143953	20120426.144048	dt-generate	8	0.013328	60	10	60-180	60	126	GapPrac	1	9	2	1	1	target	1	411	795	181124	13.328	13.305	13.348
TrackDT01	8	TrackDT	1.0	SCS215a	20120426.143953	20120426.144054	dt-generate	8	0.013328	60	10	60-180	60	123	GapPrac	1	10	2	3	0	distractor	1	570	715	181839	13.328	12.843	13.806
TrackDT01	8	TrackDT	1.0	SCS215a	20120426.143953	20120426.144059	dt-generate	8	0.013328	60	10	60-180	60	96	GapPrac	1	11	2	0	0	distractor	1	631	685	182524	13.328	13.039	13.610
TrackDT01	8	TrackDT	1.0	SCS215a	20120426.143953	20120426.144105	dt-generate	8	0.013328	60	10	60-180	60	61	GapPrac	1	12	2	0	1	target	1	447	777	183301	13.328	13.303	13.358
TrackDT01	8	TrackDT	1.0	SCS215a	20120426.143953	20120426.144109	dt-generate	8	0.013328	60	10	60-180	60	62	GapPrac	1	13	2	3	0	distractor	1	1614	193	183494	13.328	13.042	13.601
TrackDT01	8	TrackDT	1.0	SCS215a	20120426.143953	20120426.144116	dt-generate	8	0.013328	60	10	60-180	60	125	GapPrac	1	14	2	3	1	target	1	637	682	184176	13.328	13.307	13.348
TrackDT01	8	TrackDT	1.0	SCS215a	20120426.143953	20120426.144122	dt-generate	8	0.013328	60	10	60-180	60	116	GapPrac	1	15	2	1	0	distractor	1	477	762	184938	13.328	13.306	13.354
TrackDT01	8	TrackDT	1.0	SCS215a	20120426.143953	20120426.144127	dt-generate	8	0.013328	60	10	60-180	60	147	GapPrac	1	16	2	1	0	distractor	1	634	683	185621	13.328	13.111	13.558
TrackDT01	8	TrackDT	1.0	SCS215a	20120426.143953	20120426.144133	dt-generate	8	0.013328	60	10	60-180	60	132	GapPrac	1	17	2	30	0	distractor	1	800	600	186221	13.328	13.101	13.569
TrackDT01	8	TrackDT	1.0	SCS215a	20120426.143953	20120426.144140	dt-generate	8	0.013328	60	10	60-180	60	154	GapPrac	1	18	2	0	1	target	1	457	772	186993	13.328	12.998	13.658
TrackDT01	8	TrackDT	1.0	SCS215a	20120426.143953	20120426.144146	dt-generate	8	0.013328	60	10	60-180	60	134	GapPrac	1	19	2	1	1	target	1	456	772	187765	13.328	13.099	13.562
TrackDT01	8	TrackDT	1.0	SCS215a	20120426.143953	20120426.144152	dt-generate	8	0.013328	60	10	60-180	60	179	GapPrac	1	20	2	3	1	target	1	534	733	188498	13.328	13.087	13.558
TrackDT01	8	TrackDT	1.0	SCS215a	20120426.144211	20120426.144217	dt-generate	8	0.013328	60	10	60-180	60	114	GapExp	1	1	2	30	0	distractor	1	965	518	189016	13.328	13.308	13.346
TrackDT01	8	TrackDT	1.0	SCS215a	20120426.144211	20120426.144224	dt-generate	8	0.013328	60	10	60-180	60	105	GapExp	1	2	2	3	1	target	1	1000	500	189516	13.328	12.840	13.830
TrackDT01	8	TrackDT	1.0	SCS215a	20120426.144211	20120426.144230	dt-generate	8	0.013328	60	10	60-180	60	108	GapExp	1	3	2	0	1	target	1	508	746	190262	13.328	13.312	13.344
TrackDT01	8	TrackDT	1.0	SCS215a	20120426.144211	20120426.144236	dt-generate	8	0.013328	60	10	60-180	60	136	GapExp	1	4	2	30	1	target	1	400	800	191062	13.328	13.097	13.565
TrackDT01	8	TrackDT	1.0	SCS215a	20120426.144211	20120426.144242	dt-generate	8	0.013328	60	10	60-180	60	96	GapExp	1	5	2	1	1	target	1	518	741	191803	13.328	13.085	13.571
TrackDT01	8	TrackDT	1.0	SCS215a	20120426.144211	20120426.144247	dt-generate	8	0.013328	60	10	60-180	60	169	GapExp	1	6	2	3	0	distractor	1	597	702	192505	13.328	13.279	13.364
TrackDT01	8	TrackDT	1.0	SCS215a	20120426.144211	20120426.144253	dt-generate	8	0.013328	60	10	60-180	60	78	GapExp	1	7	2	1	0	distractor	1	818	591	193096	13.328	13.303	13.354
TrackDT01	8	TrackDT	1.0	SCS215a	20120426.144211	20120426.144259	dt-generate	8	0.013328	60	10	60-180	60	160	GapExp	1	8	2	0	0	distractor	1	727	637	193733	13.328	8.458	18.200
TrackDT01	8	TrackDT	1.0	SCS215a	20120426.144211	20120426.144306	dt-generate	8	0.013328	60	10	60-180	60	140	GapExp	0	9	2	3	1	distractor	0	1527	-1000	192733	13.328	13.211	13.458
TrackDT01	8	TrackDT	1.0	SCS215a	20120426.144211	20120426.144313	dt-generate	8	0.013328	60	10	60-180	60	95	GapExp	0	10	2	1	0	distractor	1	564	718	193451	13.328	13.303	13.357
TrackDT01	8	TrackDT	1.0	SCS215a	20120426.144211	20120426.144318	dt-generate	8	0.013328	60	10	60-180	60	78	GapExp	0	11	2	1	1	target	1	513	744	194195	13.328	12.765	13.885
TrackDT01	8	TrackDT	1.0	SCS215a	20120426.144211	20120426.144323	dt-generate	8	0.013328	60	10	60-180	60	143	GapExp	0	12	2	30	1	distractor	0	343	-1000	193195	13.328	8.961	17.702
TrackDT01	8	TrackDT	1.0	SCS215a	20120426.144211	20120426.144330	dt-generate	8	0.013328	60	10	60-180	60	128	GapExp	0	13	2	3	0	distractor	1	537	732	193927	13.328	13.306	13.346
TrackDT01	8	TrackDT	1.0	SCS215a	20120426.144211	20120426.144335	dt-generate	8	0.013328	60	10	60-180	60	120	GapExp	0	14	2	3	1	distractor	0	988	-1000	192927	13.328	7.376	19.296
TrackDT01	8	TrackDT	1.0	SCS215a	20120426.144211	20120426.144341	dt-generate	8	0.013328	60	10	60-180	60	68	GapExp	0	15	2	1	1	target	1	539	731	193658	13.328	13.301	13.347
TrackDT01	8	TrackDT	1.0	SCS215a	20120426.144211	20120426.144346	dt-generate	8	0.013328	60	10	60-180	60	62	GapExp	0	16	2	1	1	target	1	481	760	194418	13.328	13.113	13.555
TrackDT01	8	TrackDT	1.0	SCS215a	20120426.144211	20120426.144351	dt-generate	8	0.013328	60	10	60-180	60	117	GapExp	0	17	2	1	0	distractor	1	449	776	195194	13.328	9.764	16.894
TrackDT01	8	TrackDT	1.0	SCS215a	20120426.144211	20120426.144357	dt-generate	8	0.013328	60	10	60-180	60	70	GapExp	0	18	2	0	1	target	1	606	697	195891	13.328	13.308	13.349
TrackDT01	8	TrackDT	1.0	SCS215a	20120426.144211	20120426.144402	dt-generate	8	0.013328	60	10	60-180	60	107	GapExp	0	19	2	30	1	target	1	545	728	196619	13.328	10.831	15.819
TrackDT01	8	TrackDT	1.0	SCS215a	20120426.144211	20120426.144408	dt-generate	8	0.013328	60	10	60-180	60	81	GapExp	0	20	2	1	0	distractor	1	1050	475	197094	13.328	9.159	17.490
TrackDT01	8	TrackDT	1.0	SCS215a	20120426.144211	20120426.144414	dt-generate	8	0.013328	60	10	60-180	60	164	GapExp	0	21	2	3	1	target	1	441	780	197874	13.328	13.098	13.550
TrackDT01	8	TrackDT	1.0	SCS215a	20120426.144211	20120426.144420	dt-generate	8	0.013328	60	10	60-180	60	83	GapExp	0	22	2	3	1	target	1	416	792	198666	13.328	8.159	18.499
TrackDT01	8	TrackDT	1.0	SCS215a	20120426.144211	20120426.144425	dt-generate	8	0.013328	60	10	60-180	60	144	GapExp	0	23	2	30	0	distractor	1	399	801	199467	13.328	11.461	15.216
TrackDT01	8	TrackDT	1.0	SCS215a	20120426.144211	20120426.144431	dt-generate	8	0.013328	60	10	60-180	60	77	GapExp	0	24	2	30	0	distractor	1	427	787	200254	13.328	13.310	13.352
TrackDT01	8	TrackDT	1.0	SCS215a	20120426.144211	20120426.144437	dt-generate	8	0.013328	60	10	60-180	60	107	GapExp	0	25	2	0	0	distractor	1	699	651	200905	13.328	13.284	13.372
TrackDT01	8	TrackDT	1.0	SCS215a	20120426.144211	20120426.144442	dt-generate	8	0.013328	60	10	60-180	60	174	GapExp	0	26	2	1	1	distractor	0	555	-1000	199905	13.328	13.106	13.543
TrackDT01	8	TrackDT	1.0	SCS215a	20120426.144211	20120426.144449	dt-generate	8	0.013328	60	10	60-180	60	86	GapExp	0	27	2	3	1	target	1	640	680	200585	13.328	13.111	13.551
TrackDT01	8	TrackDT	1.0	SCS215a	20120426.144211	20120426.144454	dt-generate	8	0.013328	60	10	60-180	60	139	GapExp	0	28	2	1	0	distractor	1	1952	24	200609	13.328	13.105	13.542
TrackDT01	8	TrackDT	1.0	SCS215a	20120426.144211	20120426.144501	dt-generate	8	0.013328	60	10	60-180	60	174	GapExp	0	29	2	0	0	distractor	1	571	715	201324	13.328	11.098	15.573
TrackDT01	8	TrackDT	1.0	SCS215a	20120426.144211	20120426.144508	dt-generate	8	0.013328	60	10	60-180	60	153	GapExp	0	30	2	30	0	distractor	1	377	812	202136	13.328	13.093	13.550
TrackDT01	8	TrackDT	1.0	SCS215a	20120426.144211	20120426.144514	dt-generate	8	0.013328	60	10	60-180	60	68	GapExp	0	31	2	0	1	distractor	0	825	-1000	201136	13.328	13.309	13.356
TrackDT01	8	TrackDT	1.0	SCS215a	20120426.144211	20120426.144520	dt-generate	8	0.013328	60	10	60-180	60	179	GapExp	0	32	2	0	1	target	1	452	774	201910	13.328	12.426	14.230
TrackDT01	8	TrackDT	1.0	SCS215a	20120426.144211	20120426.144526	dt-generate	8	0.013328	60	10	60-180	60	173	GapExp	0	33	2	3	1	target	1	506	747	202657	13.328	12.971	13.693
TrackDT01	8	TrackDT	1.0	SCS215a	20120426.144211	20120426.144532	dt-generate	8	0.013328	60	10	60-180	60	150	GapExp	0	34	2	3	0	distractor	1	798	601	203258	13.328	13.308	13.350
TrackDT01	8	TrackDT	1.0	SCS215a	20120426.144211	20120426.144539	dt-generate	8	0.013328	60	10	60-180	60	149	GapExp	0	35	2	1	1	target	1	424	788	204046	13.328	6.972	19.694
TrackDT01	8	TrackDT	1.0	SCS215a	20120426.144211	20120426.144545	dt-generate	8	0.013328	60	10	60-180	60	147	GapExp	0	36	2	0	1	target	1	1030	485	204531	13.328	9.465	17.186
TrackDT01	8	TrackDT	1.0	SCS215a	20120426.144211	20120426.144551	dt-generate	8	0.013328	60	10	60-180	60	75	GapExp	0	37	2	0	1	distractor	0	494	-1000	203531	13.328	13.093	13.565
TrackDT01	8	TrackDT	1.0	SCS215a	20120426.144211	20120426.144556	dt-generate	8	0.013328	60	10	60-180	60	64	GapExp	0	38	2	1	1	target	1	424	788	204319	13.328	13.295	13.353
TrackDT01	8	TrackDT	1.0	SCS215a	20120426.144211	20120426.144601	dt-generate	8	0.013328	60	10	60-180	60	172	GapExp	0	39	2	30	1	target	1	614	693	205012	13.328	13.299	13.357
TrackDT01	8	TrackDT	1.0	SCS215a	20120426.144211	20120426.144608	dt-generate	8	0.013328	60	10	60-180	60	100	GapExp	0	40	2	30	0	distractor	1	678	661	205673	13.328	13.297	13.346
TrackDT01	8	TrackDT	1.0	SCS215a	20120426.144211	20120426.144614	dt-generate	8	0.013328	60	10	60-180	60	176	GapExp	0	41	2	30	0	distractor	1	497	752	206425	13.328	13.106	13.563
TrackDT01	8	TrackDT	1.0	SCS215a	20120426.144211	20120426.144621	dt-generate	8	0.013328	60	10	60-180	60	151	GapExp	0	42	2	30	1	target	1	2743	0	206425	13.328	13.112	13.554
TrackDT01	8	TrackDT	1.0	SCS215a	20120426.144211	20120426.144630	dt-generate	8	0.013328	60	10	60-180	60	79	GapExp	0	43	2	30	0	distractor	1	584	708	207133	13.328	8.149	18.500
TrackDT01	8	TrackDT	1.0	SCS215a	20120426.144211	20120426.144635	dt-generate	8	0.013328	60	10	60-180	60	73	GapExp	0	44	2	3	0	distractor	1	442	779	207912	13.328	13.090	13.550
TrackDT01	8	TrackDT	1.0	SCS215a	20120426.144211	20120426.144640	dt-generate	8	0.013328	60	10	60-180	60	93	GapExp	0	45	2	3	0	distractor	1	701	650	208562	13.328	11.358	15.304
TrackDT01	8	TrackDT	1.0	SCS215a	20120426.144211	20120426.144646	dt-generate	8	0.013328	60	10	60-180	60	125	GapExp	0	46	2	30	0	distractor	1	674	663	209225	13.328	13.086	13.564
TrackDT01	8	TrackDT	1.0	SCS215a	20120426.144211	20120426.144652	dt-generate	8	0.013328	60	10	60-180	60	165	GapExp	0	47	2	3	0	distractor	1	699	651	209876	13.328	8.975	17.682
TrackDT01	8	TrackDT	1.0	SCS215a	20120426.144211	20120426.144658	dt-generate	8	0.013328	60	10	60-180	60	78	GapExp	0	48	2	1	1	distractor	0	1551	-1000	208876	13.387	6.199	24.839
TrackDT01	8	TrackDT	1.0	SCS215a	20120426.144211	20120426.144704	dt-generate	8	0.013328	60	10	60-180	60	83	GapExp	0	49	2	30	0	target	0	787	-1000	207876	13.328	7.536	19.133
TrackDT01	8	TrackDT	1.0	SCS215a	20120426.144211	20120426.144710	dt-generate	8	0.013328	60	10	60-180	60	74	GapExp	0	50	2	1	0	distractor	1	484	758	208634	13.328	12.278	14.599
TrackDT01	8	TrackDT	1.0	SCS215a	20120426.144211	20120426.144727	dt-generate	8	0.013328	60	10	60-180	60	132	GapExp	0	51	2	1	0	distractor	1	1084	458	209092	13.328	13.304	13.365
TrackDT01	8	TrackDT	1.0	SCS215a	20120426.144211	20120426.144734	dt-generate	8	0.013328	60	10	60-180	60	177	GapExp	0	52	2	30	0	distractor	1	1395	303	209395	13.328	12.080	14.580
TrackDT01	8	TrackDT	1.0	SCS215a	20120426.144211	20120426.144741	dt-generate	8	0.013328	60	10	60-180	60	82	GapExp	0	53	2	0	0	distractor	1	533	734	210129	13.328	11.911	14.739
TrackDT01	8	TrackDT	1.0	SCS215a	20120426.144211	20120426.144746	dt-generate	8	0.013328	60	10	60-180	60	75	GapExp	0	54	2	0	0	distractor	1	976	512	210641	13.327	13.298	13.357
TrackDT01	8	TrackDT	1.0	SCS215a	20120426.144211	20120426.144752	dt-generate	8	0.013328	60	10	60-180	60	133	GapExp	0	55	2	1	0	distractor	1	502	749	211390	13.431	10.156	29.816
TrackDT01	8	TrackDT	1.0	SCS215a	20120426.144211	20120426.144758	dt-generate	8	0.013328	60	10	60-180	60	155	GapExp	0	56	2	30	1	distractor	0	398	-1000	210390	13.395	7.072	28.175
TrackDT01	8	TrackDT	1.0	SCS215a	20120426.144211	20120426.144804	dt-generate	8	0.013328	60	10	60-180	60	161	GapExp	0	57	2	3	1	target	1	538	731	211121	13.328	11.885	14.840
TrackDT01	8	TrackDT	1.0	SCS215a	20120426.144211	20120426.144811	dt-generate	8	0.013328	60	10	60-180	60	103	GapExp	0	58	2	30	1	target	1	283	859	211980	13.328	9.512	17.161
TrackDT01	8	TrackDT	1.0	SCS215a	20120426.144211	20120426.144816	dt-generate	8	0.013328	60	10	60-180	60	166	GapExp	0	59	2	3	0	distractor	1	666	667	212647	13.328	10.485	16.198
TrackDT01	8	TrackDT	1.0	SCS215a	20120426.144211	20120426.144822	dt-generate	8	0.013328	60	10	60-180	60	165	GapExp	0	60	2	0	0	target	0	788	-1000	211647	13.328	4.535	22.130
TrackDT01	8	TrackDT	1.0	SCS215a	20120426.144211	20120426.144829	dt-generate	8	0.013328	60	10	60-180	60	114	GapExp	0	61	2	1	1	target	1	883	559	212206	13.328	8.231	18.430
TrackDT01	8	TrackDT	1.0	SCS215a	20120426.144211	20120426.144835	dt-generate	8	0.013328	60	10	60-180	60	153	GapExp	0	62	2	30	1	target	1	385	808	213014	13.328	13.305	13.355
TrackDT01	8	TrackDT	1.0	SCS215a	20120426.144211	20120426.144842	dt-generate	8	0.013328	60	10	60-180	60	162	GapExp	0	63	2	1	0	distractor	1	581	710	213724	13.328	10.777	15.872
TrackDT01	8	TrackDT	1.0	SCS215a	20120426.144211	20120426.144848	dt-generate	8	0.013328	60	10	60-180	60	145	GapExp	0	64	2	1	1	target	1	692	654	214378	13.328	12.467	14.206
TrackDT01	8	TrackDT	1.0	SCS215a	20120426.144211	20120426.144854	dt-generate	8	0.013328	60	10	60-180	60	130	GapExp	0	65	2	0	0	distractor	1	1421	290	214668	13.328	7.059	19.588
TrackDT01	8	TrackDT	1.0	SCS215a	20120426.144211	20120426.144900	dt-generate	8	0.013328	60	10	60-180	60	108	GapExp	0	66	2	1	1	target	1	529	736	215404	13.328	12.180	14.469
TrackDT01	8	TrackDT	1.0	SCS215a	20120426.144211	20120426.144906	dt-generate	8	0.013328	60	10	60-180	60	86	GapExp	0	67	2	30	1	target	1	376	812	216216	13.328	8.795	17.855
TrackDT01	8	TrackDT	1.0	SCS215a	20120426.144211	20120426.144912	dt-generate	8	0.013328	60	10	60-180	60	103	GapExp	0	68	2	1	1	target	1	445	778	216994	13.328	13.302	13.349
TrackDT01	8	TrackDT	1.0	SCS215a	20120426.144211	20120426.144917	dt-generate	8	0.013328	60	10	60-180	60	90	GapExp	0	69	2	0	1	target	1	905	548	217542	13.328	13.284	13.359
TrackDT01	8	TrackDT	1.0	SCS215a	20120426.144211	20120426.144923	dt-generate	8	0.013328	60	10	60-180	60	164	GapExp	0	70	2	0	1	target	1	539	731	218273	13.328	12.456	14.221
TrackDT01	8	TrackDT	1.0	SCS215a	20120426.144211	20120426.144929	dt-generate	8	0.013328	60	10	60-180	60	174	GapExp	0	71	2	3	0	distractor	1	548	726	218999	13.328	13.086	13.556
TrackDT01	8	TrackDT	1.0	SCS215a	20120426.144211	20120426.144935	dt-generate	8	0.013328	60	10	60-180	60	137	GapExp	0	72	2	1	1	target	1	418	791	219790	13.328	13.085	13.565
TrackDT01	8	TrackDT	1.0	SCS215a	20120426.144211	20120426.144941	dt-generate	8	0.013328	60	10	60-180	60	105	GapExp	0	73	2	3	1	target	1	660	670	220460	13.328	12.271	14.384
TrackDT01	8	TrackDT	1.0	SCS215a	20120426.144211	20120426.144947	dt-generate	8	0.013328	60	10	60-180	60	175	GapExp	0	74	2	0	0	distractor	1	510	745	221205	13.328	12.047	14.591
TrackDT01	8	TrackDT	1.0	SCS215a	20120426.144211	20120426.144953	dt-generate	8	0.013328	60	10	60-180	60	108	GapExp	0	75	2	0	0	distractor	1	860	570	221775	13.328	11.303	15.338
TrackDT01	8	TrackDT	1.0	SCS215a	20120426.144211	20120426.144959	dt-generate	8	0.013328	60	10	60-180	60	144	GapExp	0	76	2	3	1	target	1	467	767	222542	13.328	10.526	16.137
TrackDT01	8	TrackDT	1.0	SCS215a	20120426.144211	20120426.145005	dt-generate	8	0.013328	60	10	60-180	60	128	GapExp	0	77	2	1	1	target	1	500	750	223292	13.328	13.085	13.557
TrackDT01	8	TrackDT	1.0	SCS215a	20120426.144211	20120426.145011	dt-generate	8	0.013328	60	10	60-180	60	179	GapExp	0	78	2	30	0	distractor	1	299	851	224143	13.328	10.176	16.481
TrackDT01	8	TrackDT	1.0	SCS215a	20120426.144211	20120426.145018	dt-generate	8	0.013328	60	10	60-180	60	94	GapExp	0	79	2	1	1	target	1	1116	442	224585	13.328	12.163	14.505
TrackDT01	8	TrackDT	1.0	SCS215a	20120426.144211	20120426.145023	dt-generate	8	0.013328	60	10	60-180	60	85	GapExp	0	80	2	3	0	distractor	1	570	715	225300	13.328	13.106	13.549
TrackDT01	8	TrackDT	1.0	SCS215a	20120426.144211	20120426.145029	dt-generate	8	0.013328	60	10	60-180	60	137	GapExp	0	81	2	3	0	distractor	1	617	692	225992	13.328	9.230	17.433
TrackDT01	8	TrackDT	1.0	SCS215a	20120426.144211	20120426.145035	dt-generate	8	0.013328	60	10	60-180	60	122	GapExp	0	82	2	1	1	early	-4	-709	-1000	224992	13.328	10.959	15.690
TrackDT01	8	TrackDT	1.0	SCS215a	20120426.144211	20120426.145040	dt-generate	8	0.013328	60	10	60-180	60	105	GapExp	0	83	2	0	0	distractor	1	481	760	225752	13.328	10.752	15.897
TrackDT01	8	TrackDT	1.0	SCS215a	20120426.144211	20120426.145045	dt-generate	8	0.013328	60	10	60-180	60	64	GapExp	0	84	2	0	0	distractor	1	526	737	226489	13.328	13.119	13.537
TrackDT01	8	TrackDT	1.0	SCS215a	20120426.144211	20120426.145050	dt-generate	8	0.013328	60	10	60-180	60	91	GapExp	0	85	2	3	0	distractor	1	395	803	227292	13.328	12.036	14.634
TrackDT01	8	TrackDT	1.0	SCS215a	20120426.144211	20120426.145055	dt-generate	8	0.013328	60	10	60-180	60	107	GapExp	0	86	2	30	1	target	1	316	842	228134	13.328	13.307	13.354
TrackDT01	8	TrackDT	1.0	SCS215a	20120426.144211	20120426.145101	dt-generate	8	0.013328	60	10	60-180	60	64	GapExp	0	87	2	1	0	distractor	1	493	754	228888	13.328	13.105	13.550
TrackDT01	8	TrackDT	1.0	SCS215a	20120426.144211	20120426.145106	dt-generate	8	0.013328	60	10	60-180	60	163	GapExp	0	88	2	0	1	target	1	446	777	229665	13.328	11.688	14.960
TrackDT01	8	TrackDT	1.0	SCS215a	20120426.144211	20120426.145112	dt-generate	8	0.013328	60	10	60-180	60	121	GapExp	0	89	2	1	1	distractor	0	1115	-1000	228665	13.328	13.112	13.550
TrackDT01	8	TrackDT	1.0	SCS215a	20120426.144211	20120426.145118	dt-generate	8	0.013328	60	10	60-180	60	130	GapExp	0	90	2	3	1	target	1	403	799	229464	13.328	11.765	14.891
TrackDT01	8	TrackDT	1.0	SCS215a	20120426.144211	20120426.145124	dt-generate	8	0.013328	60	10	60-180	60	96	GapExp	0	91	2	30	0	distractor	1	612	694	230158	13.328	10.413	16.229
TrackDT01	8	TrackDT	1.0	SCS215a	20120426.144211	20120426.145130	dt-generate	8	0.013328	60	10	60-180	60	113	GapExp	0	92	2	3	0	distractor	1	451	775	230933	13.328	13.302	13.360
TrackDT01	8	TrackDT	1.0	SCS215a	20120426.144211	20120426.145135	dt-generate	8	0.013328	60	10	60-180	60	166	GapExp	0	93	2	30	0	distractor	1	411	795	231728	13.328	10.735	15.914
TrackDT01	8	TrackDT	1.0	SCS215a	20120426.144211	20120426.145142	dt-generate	8	0.013328	60	10	60-180	60	177	GapExp	0	94	2	0	1	distractor	0	960	-1000	230728	13.328	13.098	13.551
TrackDT01	8	TrackDT	1.0	SCS215a	20120426.144211	20120426.145148	dt-generate	8	0.013328	60	10	60-180	60	170	GapExp	0	95	2	1	0	distractor	1	784	608	231336	13.328	13.106	13.543
TrackDT01	8	TrackDT	1.0	SCS215a	20120426.144211	20120426.145155	dt-generate	8	0.013328	60	10	60-180	60	75	GapExp	0	96	2	30	0	distractor	1	446	777	232113	13.328	13.106	13.550
TrackDT01	8	TrackDT	1.0	SCS215a	20120426.144211	20120426.145201	dt-generate	8	0.013328	60	10	60-180	60	156	GapExp	0	97	2	3	0	distractor	1	669	666	232779	13.328	13.091	13.558
TrackDT01	8	TrackDT	1.0	SCS215a	20120426.144211	20120426.145207	dt-generate	8	0.013328	60	10	60-180	60	143	GapExp	0	98	2	30	1	target	1	593	704	233483	13.328	8.334	18.334
TrackDT01	8	TrackDT	1.0	SCS215a	20120426.144211	20120426.145213	dt-generate	8	0.013328	60	10	60-180	60	61	GapExp	0	99	2	3	0	distractor	1	527	737	234220	13.345	13.306	16.561
TrackDT01	8	TrackDT	1.0	SCS215a	20120426.144211	20120426.145218	dt-generate	8	0.013328	60	10	60-180	60	132	GapExp	0	100	2	1	0	distractor	1	542	729	234949	13.328	9.226	17.423
TrackDT01	8	TrackDT	1.0	SCS215a	20120426.144211	20120426.145504	dt-generate	8	0.013328	60	10	60-180	60	65	GapExp	0	101	2	0	1	target	1	485	758	235707	13.328	13.099	13.544
TrackDT01	8	TrackDT	1.0	SCS215a	20120426.144211	20120426.145510	dt-generate	8	0.013328	60	10	60-180	60	61	GapExp	0	102	2	0	1	target	1	464	768	236475	13.328	8.467	18.181
TrackDT01	8	TrackDT	1.0	SCS215a	20120426.144211	20120426.145514	dt-generate	8	0.013328	60	10	60-180	60	69	GapExp	0	103	2	0	1	distractor	0	1465	-1000	235475	13.328	13.308	13.351
TrackDT01	8	TrackDT	1.0	SCS215a	20120426.144211	20120426.145520	dt-generate	8	0.013328	60	10	60-180	60	163	GapExp	0	104	2	30	1	target	1	404	798	236273	13.328	8.493	18.165
TrackDT01	8	TrackDT	1.0	SCS215a	20120426.144211	20120426.145527	dt-generate	8	0.013328	60	10	60-180	60	123	GapExp	0	105	2	3	1	target	1	447	777	237050	13.328	7.163	19.499
TrackDT01	8	TrackDT	1.0	SCS215a	20120426.144211	20120426.145532	dt-generate	8	0.013328	60	10	60-180	60	82	GapExp	0	106	2	0	0	distractor	1	499	751	237801	13.328	7.621	19.035
TrackDT01	8	TrackDT	1.0	SCS215a	20120426.144211	20120426.145537	dt-generate	8	0.013328	60	10	60-180	60	112	GapExp	0	107	2	30	1	target	1	360	820	238621	13.328	11.055	15.617
TrackDT01	8	TrackDT	1.0	SCS215a	20120426.144211	20120426.145543	dt-generate	8	0.013328	60	10	60-180	60	131	GapExp	0	108	2	0	0	distractor	1	472	764	239385	13.328	12.476	14.187
TrackDT01	8	TrackDT	1.0	SCS215a	20120426.144211	20120426.145549	dt-generate	8	0.013328	60	10	60-180	60	114	GapExp	0	109	2	1	0	distractor	1	675	663	240048	13.328	9.560	17.096
TrackDT01	8	TrackDT	1.0	SCS215a	20120426.144211	20120426.145555	dt-generate	8	0.013328	60	10	60-180	60	129	GapExp	0	110	2	0	0	distractor	1	576	712	240760	13.328	13.105	13.551
TrackDT01	8	TrackDT	1.0	SCS215a	20120426.144211	20120426.145600	dt-generate	8	0.013328	60	10	60-180	60	147	GapExp	0	111	2	3	1	target	1	600	700	241460	13.328	12.165	14.503
TrackDT01	8	TrackDT	1.0	SCS215a	20120426.144211	20120426.145606	dt-generate	8	0.013328	60	10	60-180	60	149	GapExp	0	112	2	30	0	distractor	1	744	628	242088	13.328	13.085	13.557
TrackDT01	8	TrackDT	1.0	SCS215a	20120426.144211	20120426.145614	dt-generate	8	0.013328	60	10	60-180	60	104	GapExp	0	113	2	0	1	target	1	923	539	242627	13.328	13.112	13.543
TrackDT01	8	TrackDT	1.0	SCS215a	20120426.144211	20120426.145619	dt-generate	8	0.013328	60	10	60-180	60	146	GapExp	0	114	2	0	1	target	1	1344	328	242955	13.328	12.902	13.747
TrackDT01	8	TrackDT	1.0	SCS215a	20120426.144211	20120426.145626	dt-generate	8	0.013328	60	10	60-180	60	119	GapExp	0	115	2	0	1	target	1	633	684	243639	13.328	11.449	15.221
TrackDT01	8	TrackDT	1.0	SCS215a	20120426.144211	20120426.145632	dt-generate	8	0.013328	60	10	60-180	60	72	GapExp	0	116	2	0	0	distractor	1	762	619	244258	13.328	13.307	13.348
TrackDT01	8	TrackDT	1.0	SCS215a	20120426.144211	20120426.145637	dt-generate	8	0.013328	60	10	60-180	60	94	GapExp	0	117	2	0	0	distractor	1	554	723	244981	13.328	13.292	13.350
TrackDT01	8	TrackDT	1.0	SCS215a	20120426.144211	20120426.145642	dt-generate	8	0.013328	60	10	60-180	60	161	GapExp	0	118	2	30	1	target	1	325	838	245819	13.328	13.118	13.550
TrackDT01	8	TrackDT	1.0	SCS215a	20120426.144211	20120426.145649	dt-generate	8	0.013328	60	10	60-180	60	111	GapExp	0	119	2	3	1	target	1	615	693	246512	13.328	7.728	18.940
TrackDT01	8	TrackDT	1.0	SCS215a	20120426.144211	20120426.145655	dt-generate	8	0.013328	60	10	60-180	60	94	GapExp	0	120	2	1	0	distractor	1	580	710	247222	13.328	9.556	17.094
TrackDT01	8	TrackDT	1.0	SCS215a	20120426.144211	20120426.145700	dt-generate	8	0.013328	60	10	60-180	60	69	GapExp	0	121	2	3	1	target	1	1465	268	247490	13.328	13.304	13.346
TrackDT01	8	TrackDT	1.0	SCS215a	20120426.144211	20120426.145706	dt-generate	8	0.013328	60	10	60-180	60	176	GapExp	0	122	2	30	1	target	1	404	798	248288	13.328	13.304	13.346
TrackDT01	8	TrackDT	1.0	SCS215a	20120426.144211	20120426.145712	dt-generate	8	0.013328	60	10	60-180	60	150	GapExp	0	123	2	3	0	distractor	1	536	732	249020	13.328	10.934	15.726
TrackDT01	8	TrackDT	1.0	SCS215a	20120426.144211	20120426.145718	dt-generate	8	0.013328	60	10	60-180	60	164	GapExp	0	124	2	3	1	target	1	431	785	249805	13.328	13.106	13.544
TrackDT01	8	TrackDT	1.0	SCS215a	20120426.144211	20120426.145725	dt-generate	8	0.013328	60	10	60-180	60	123	GapExp	0	125	2	0	1	target	1	3052	0	249805	13.328	13.091	13.559
TrackDT01	8	TrackDT	1.0	SCS215a	20120426.144211	20120426.145733	dt-generate	8	0.013328	60	10	60-180	60	131	GapExp	0	126	2	3	1	target	1	401	800	250605	13.328	13.098	13.544
TrackDT01	8	TrackDT	1.0	SCS215a	20120426.144211	20120426.145739	dt-generate	8	0.013328	60	10	60-180	60	73	GapExp	0	127	2	1	1	target	1	364	818	251423	13.328	13.104	13.564
TrackDT01	8	TrackDT	1.0	SCS215a	20120426.144211	20120426.145744	dt-generate	8	0.013328	60	10	60-180	60	78	GapExp	0	128	2	30	1	target	1	340	830	252253	13.328	13.121	13.534
TrackDT01	8	TrackDT	1.0	SCS215a	20120426.144211	20120426.145749	dt-generate	8	0.013328	60	10	60-180	60	79	GapExp	0	129	2	1	0	distractor	1	510	745	252998	13.328	3.762	22.887
TrackDT01	8	TrackDT	1.0	SCS215a	20120426.144211	20120426.145754	dt-generate	8	0.013328	60	10	60-180	60	63	GapExp	0	130	2	30	1	target	1	382	809	253807	13.328	13.104	13.564
TrackDT01	8	TrackDT	1.0	SCS215a	20120426.144211	20120426.145800	dt-generate	8	0.013328	60	10	60-180	60	143	GapExp	0	131	2	3	0	distractor	1	420	790	254597	13.328	8.858	17.799
TrackDT01	8	TrackDT	1.0	SCS215a	20120426.144211	20120426.145805	dt-generate	8	0.013328	60	10	60-180	60	152	GapExp	0	132	2	0	1	target	1	544	728	255325	13.328	12.626	14.030
TrackDT01	8	TrackDT	1.0	SCS215a	20120426.144211	20120426.145811	dt-generate	8	0.013328	60	10	60-180	60	170	GapExp	0	133	2	1	1	target	1	348	826	256151	13.328	7.039	19.616
TrackDT01	8	TrackDT	1.0	SCS215a	20120426.144211	20120426.145818	dt-generate	8	0.013328	60	10	60-180	60	83	GapExp	0	134	2	1	0	distractor	1	475	763	256914	13.328	6.003	20.658
TrackDT01	8	TrackDT	1.0	SCS215a	20120426.144211	20120426.145823	dt-generate	8	0.013328	60	10	60-180	60	64	GapExp	0	135	2	3	0	distractor	1	560	720	257634	13.327	13.308	13.348
TrackDT01	8	TrackDT	1.0	SCS215a	20120426.144211	20120426.145828	dt-generate	8	0.013328	60	10	60-180	60	166	GapExp	0	136	2	1	0	target	0	622	-1000	256634	13.328	11.523	15.134
TrackDT01	8	TrackDT	1.0	SCS215a	20120426.144211	20120426.145834	dt-generate	8	0.013328	60	10	60-180	60	99	GapExp	0	137	2	0	1	distractor	0	874	-1000	255634	13.328	9.686	16.964
TrackDT01	8	TrackDT	1.0	SCS215a	20120426.144211	20120426.145840	dt-generate	8	0.013328	60	10	60-180	60	159	GapExp	0	138	2	1	1	target	1	355	823	256457	13.328	13.105	13.557
TrackDT01	8	TrackDT	1.0	SCS215a	20120426.144211	20120426.145846	dt-generate	8	0.013328	60	10	60-180	60	111	GapExp	0	139	2	30	0	distractor	1	433	784	257241	13.328	12.798	13.863
TrackDT01	8	TrackDT	1.0	SCS215a	20120426.144211	20120426.145852	dt-generate	8	0.013328	60	10	60-180	60	94	GapExp	0	140	2	30	1	target	1	330	835	258076	13.328	7.308	19.341
TrackDT01	8	TrackDT	1.0	SCS215a	20120426.144211	20120426.145857	dt-generate	8	0.013328	60	10	60-180	60	75	GapExp	0	141	2	1	1	target	1	622	689	258765	13.328	7.895	18.734
TrackDT01	8	TrackDT	1.0	SCS215a	20120426.144211	20120426.145902	dt-generate	8	0.013328	60	10	60-180	60	80	GapExp	0	142	2	3	0	distractor	1	1742	129	258894	13.328	13.104	13.538
TrackDT01	8	TrackDT	1.0	SCS215a	20120426.144211	20120426.145909	dt-generate	8	0.013328	60	10	60-180	60	111	GapExp	0	143	2	3	0	target	0	722	-1000	257894	13.328	11.595	15.073
TrackDT01	8	TrackDT	1.0	SCS215a	20120426.144211	20120426.145915	dt-generate	8	0.013328	60	10	60-180	60	81	GapExp	0	144	2	30	1	distractor	0	720	-1000	256894	13.328	13.142	13.513
TrackDT01	8	TrackDT	1.0	SCS215a	20120426.144211	20120426.145920	dt-generate	8	0.013328	60	10	60-180	60	149	GapExp	0	145	2	0	1	target	1	516	742	257636	13.328	11.969	14.687
TrackDT01	8	TrackDT	1.0	SCS215a	20120426.144211	20120426.145926	dt-generate	8	0.013328	60	10	60-180	60	159	GapExp	0	146	2	1	1	target	1	865	568	258204	13.328	8.491	18.164
TrackDT01	8	TrackDT	1.0	SCS215a	20120426.144211	20120426.145933	dt-generate	8	0.013328	60	10	60-180	60	121	GapExp	0	147	2	0	0	distractor	1	635	683	258887	13.328	9.712	16.924
TrackDT01	8	TrackDT	1.0	SCS215a	20120426.144211	20120426.145938	dt-generate	8	0.013328	60	10	60-180	60	106	GapExp	0	148	2	3	0	distractor	1	1615	193	259080	13.327	13.111	13.544
TrackDT01	8	TrackDT	1.0	SCS215a	20120426.144211	20120426.145945	dt-generate	8	0.013328	60	10	60-180	60	142	GapExp	0	149	2	30	1	target	1	363	819	259899	13.328	8.095	18.577
TrackDT01	8	TrackDT	1.0	SCS215a	20120426.144211	20120426.145952	dt-generate	8	0.013328	60	10	60-180	60	77	GapExp	0	150	2	0	1	distractor	0	964	-1000	258899	13.328	13.083	13.559
TrackDT01	8	TrackDT	1.0	SCS215a	20120426.144211	20120426.150016	dt-generate	8	0.013328	60	10	60-180	60	155	GapExp	0	151	2	30	0	distractor	1	507	747	259646	13.328	11.365	15.297
TrackDT01	8	TrackDT	1.0	SCS215a	20120426.144211	20120426.150023	dt-generate	8	0.013328	60	10	60-180	60	72	GapExp	0	152	2	3	1	target	1	701	650	260296	13.328	11.351	15.293
TrackDT01	8	TrackDT	1.0	SCS215a	20120426.144211	20120426.150029	dt-generate	8	0.013328	60	10	60-180	60	84	GapExp	0	153	2	1	0	distractor	1	457	772	261068	13.328	7.519	19.051
TrackDT01	8	TrackDT	1.0	SCS215a	20120426.144211	20120426.150034	dt-generate	8	0.013328	60	10	60-180	60	85	GapExp	0	154	2	30	0	distractor	1	536	732	261800	13.328	6.524	20.131
TrackDT01	8	TrackDT	1.0	SCS215a	20120426.144211	20120426.150039	dt-generate	8	0.013328	60	10	60-180	60	174	GapExp	0	155	2	30	0	distractor	1	409	796	262596	13.328	7.646	19.012
TrackDT01	8	TrackDT	1.0	SCS215a	20120426.144211	20120426.150046	dt-generate	8	0.013328	60	10	60-180	60	143	GapExp	0	156	2	3	1	target	1	459	771	263367	13.328	8.786	17.871
TrackDT01	8	TrackDT	1.0	SCS215a	20120426.144211	20120426.150052	dt-generate	8	0.013328	60	10	60-180	60	76	GapExp	0	157	2	3	0	distractor	1	430	785	264152	13.328	13.308	13.348
TrackDT01	8	TrackDT	1.0	SCS215a	20120426.144211	20120426.150057	dt-generate	8	0.013328	60	10	60-180	60	97	GapExp	0	158	2	30	0	distractor	1	455	773	264925	13.328	13.249	13.422
TrackDT01	8	TrackDT	1.0	SCS215a	20120426.144211	20120426.150103	dt-generate	8	0.013328	60	10	60-180	60	130	GapExp	0	159	2	0	0	distractor	1	451	775	265700	13.328	9.473	17.169
TrackDT01	8	TrackDT	1.0	SCS215a	20120426.144211	20120426.150108	dt-generate	8	0.013328	60	10	60-180	60	145	GapExp	0	160	2	0	1	distractor	0	1348	-1000	264700	13.374	11.116	21.648
TrackDT01	8	TrackDT	1.0	SCS215a	20120426.144211	20120426.150115	dt-generate	8	0.013328	60	10	60-180	60	89	GapExp	0	161	2	0	0	distractor	1	476	762	265462	13.328	7.851	18.812
TrackDT01	8	TrackDT	1.0	SCS215a	20120426.144211	20120426.150120	dt-generate	8	0.013328	60	10	60-180	60	177	GapExp	0	162	2	30	1	target	1	319	841	266303	13.328	11.665	14.978
TrackDT01	8	TrackDT	1.0	SCS215a	20120426.144211	20120426.150127	dt-generate	8	0.013328	60	10	60-180	60	174	GapExp	0	163	2	0	1	target	1	526	737	267040	13.328	11.554	15.113
TrackDT01	8	TrackDT	1.0	SCS215a	20120426.144211	20120426.150133	dt-generate	8	0.013328	60	10	60-180	60	110	GapExp	0	164	2	3	1	target	1	437	782	267822	13.328	5.242	21.423
TrackDT01	8	TrackDT	1.0	SCS215a	20120426.144211	20120426.150139	dt-generate	8	0.013328	60	10	60-180	60	123	GapExp	0	165	2	3	1	target	1	424	788	268610	13.329	12.417	14.383
TrackDT01	8	TrackDT	1.0	SCS215a	20120426.144211	20120426.150144	dt-generate	8	0.013328	60	10	60-180	60	78	GapExp	0	166	2	1	1	target	1	715	643	269253	13.328	6.999	19.651
TrackDT01	8	TrackDT	1.0	SCS215a	20120426.144211	20120426.150149	dt-generate	8	0.013328	60	10	60-180	60	95	GapExp	0	167	2	0	0	distractor	1	640	680	269933	13.328	12.926	13.706
TrackDT01	8	TrackDT	1.0	SCS215a	20120426.144211	20120426.150155	dt-generate	8	0.013328	60	10	60-180	60	126	GapExp	0	168	2	30	1	target	1	347	827	270760	13.328	12.771	13.839
TrackDT01	8	TrackDT	1.0	SCS215a	20120426.144211	20120426.150201	dt-generate	8	0.013328	60	10	60-180	60	73	GapExp	0	169	2	1	0	target	0	687	-1000	269760	13.328	13.310	13.346
TrackDT01	8	TrackDT	1.0	SCS215a	20120426.144211	20120426.150206	dt-generate	8	0.013328	60	10	60-180	60	113	GapExp	0	170	2	30	1	target	1	443	779	270539	13.328	13.053	13.620
TrackDT01	8	TrackDT	1.0	SCS215a	20120426.144211	20120426.150212	dt-generate	8	0.013328	60	10	60-180	60	118	GapExp	0	171	2	30	0	target	0	338	-1000	269539	13.328	8.636	18.030
TrackDT01	8	TrackDT	1.0	SCS215a	20120426.144211	20120426.150218	dt-generate	8	0.013328	60	10	60-180	60	170	GapExp	0	172	2	1	0	distractor	1	530	735	270274	13.328	12.212	14.433
TrackDT01	8	TrackDT	1.0	SCS215a	20120426.144211	20120426.150224	dt-generate	8	0.013328	60	10	60-180	60	102	GapExp	0	173	2	0	0	distractor	1	471	765	271039	13.328	13.308	13.348
TrackDT01	8	TrackDT	1.0	SCS215a	20120426.144211	20120426.150229	dt-generate	8	0.013328	60	10	60-180	60	133	GapExp	0	174	2	1	0	distractor	1	652	674	271713	13.328	13.120	13.559
TrackDT01	8	TrackDT	1.0	SCS215a	20120426.144211	20120426.150235	dt-generate	8	0.013328	60	10	60-180	60	128	GapExp	0	175	2	30	1	distractor	0	98	-1000	270713	13.328	11.913	14.738
TrackDT01	8	TrackDT	1.0	SCS215a	20120426.144211	20120426.150241	dt-generate	8	0.013328	60	10	60-180	60	163	GapExp	0	176	2	1	1	target	1	529	736	271449	13.328	13.095	13.563
TrackDT01	8	TrackDT	1.0	SCS215a	20120426.144211	20120426.150248	dt-generate	8	0.013328	60	10	60-180	60	73	GapExp	0	177	2	3	1	distractor	0	469	-1000	270449	13.328	13.092	13.564
TrackDT01	8	TrackDT	1.0	SCS215a	20120426.144211	20120426.150253	dt-generate	8	0.013328	60	10	60-180	60	79	GapExp	0	178	2	30	0	distractor	1	460	770	271219	13.328	10.367	16.295
TrackDT01	8	TrackDT	1.0	SCS215a	20120426.144211	20120426.150258	dt-generate	8	0.013328	60	10	60-180	60	174	GapExp	0	179	2	30	1	target	1	324	838	272057	13.328	12.488	14.179
TrackDT01	8	TrackDT	1.0	SCS215a	20120426.144211	20120426.150304	dt-generate	8	0.013328	60	10	60-180	60	100	GapExp	0	180	2	3	1	target	1	448	776	272833	13.328	6.931	19.719
TrackDT01	8	TrackDT	1.0	SCS215a	20120426.144211	20120426.150310	dt-generate	8	0.013328	60	10	60-180	60	69	GapExp	0	181	2	3	0	distractor	1	607	697	273530	13.328	9.720	16.928
TrackDT01	8	TrackDT	1.0	SCS215a	20120426.144211	20120426.150315	dt-generate	8	0.013328	60	10	60-180	60	81	GapExp	0	182	2	3	0	distractor	1	761	620	274150	13.328	8.764	17.898
TrackDT01	8	TrackDT	1.0	SCS215a	20120426.144211	20120426.150320	dt-generate	8	0.013328	60	10	60-180	60	88	GapExp	0	183	2	3	1	target	1	462	769	274919	13.328	13.309	13.346
TrackDT01	8	TrackDT	1.0	SCS215a	20120426.144211	20120426.150325	dt-generate	8	0.013328	60	10	60-180	60	126	GapExp	0	184	2	0	0	distractor	1	785	608	275527	13.328	13.281	13.388
TrackDT01	8	TrackDT	1.0	SCS215a	20120426.144211	20120426.150331	dt-generate	8	0.013328	60	10	60-180	60	144	GapExp	0	185	2	3	1	distractor	0	900	-1000	274527	13.328	10.237	16.426
TrackDT01	8	TrackDT	1.0	SCS215a	20120426.144211	20120426.150338	dt-generate	8	0.013328	60	10	60-180	60	167	GapExp	0	186	2	0	1	target	1	432	784	275311	13.328	6.943	19.701
TrackDT01	8	TrackDT	1.0	SCS215a	20120426.144211	20120426.150344	dt-generate	8	0.013328	60	10	60-180	60	107	GapExp	0	187	2	1	0	distractor	1	506	747	276058	13.328	13.083	13.563
TrackDT01	8	TrackDT	1.0	SCS215a	20120426.144211	20120426.150350	dt-generate	8	0.013328	60	10	60-180	60	159	GapExp	0	188	2	30	0	distractor	1	652	674	276732	13.328	11.183	15.705
TrackDT01	8	TrackDT	1.0	SCS215a	20120426.144211	20120426.150356	dt-generate	8	0.013328	60	10	60-180	60	99	GapExp	0	189	2	3	0	distractor	1	452	774	277506	13.328	10.042	16.621
TrackDT01	8	TrackDT	1.0	SCS215a	20120426.144211	20120426.150402	dt-generate	8	0.013328	60	10	60-180	60	139	GapExp	0	190	2	1	1	target	1	403	799	278305	13.328	13.302	13.354
TrackDT01	8	TrackDT	1.0	SCS215a	20120426.144211	20120426.150407	dt-generate	8	0.013328	60	10	60-180	60	135	GapExp	0	191	2	1	0	distractor	1	504	748	279053	13.328	13.307	13.347
TrackDT01	8	TrackDT	1.0	SCS215a	20120426.144211	20120426.150413	dt-generate	8	0.013328	60	10	60-180	60	120	GapExp	0	192	2	0	1	target	1	430	785	279838	13.328	13.306	13.347
TrackDT01	8	TrackDT	1.0	SCS215a	20120426.144211	20120426.150418	dt-generate	8	0.013328	60	10	60-180	60	175	GapExp	0	193	2	0	0	distractor	1	853	574	280412	13.328	12.860	13.823
TrackDT01	8	TrackDT	1.0	SCS215a	20120426.144211	20120426.150426	dt-generate	8	0.013328	60	10	60-180	60	174	GapExp	0	194	2	30	0	distractor	1	1305	348	280760	13.328	10.170	16.479
TrackDT01	8	TrackDT	1.0	SCS215a	20120426.144211	20120426.150433	dt-generate	8	0.013328	60	10	60-180	60	136	GapExp	0	195	2	1	0	distractor	1	852	574	281334	13.328	13.093	13.556
TrackDT01	8	TrackDT	1.0	SCS215a	20120426.144211	20120426.150439	dt-generate	8	0.013328	60	10	60-180	60	175	GapExp	0	196	2	0	0	distractor	1	1330	335	281669	13.328	13.098	13.551
TrackDT01	8	TrackDT	1.0	SCS215a	20120426.144211	20120426.150446	dt-generate	8	0.013328	60	10	60-180	60	137	GapExp	0	197	2	3	0	distractor	1	372	814	282483	13.328	13.115	13.550
TrackDT01	8	TrackDT	1.0	SCS215a	20120426.144211	20120426.150452	dt-generate	8	0.013328	60	10	60-180	60	165	GapExp	0	198	2	30	0	distractor	1	708	646	283129	13.328	13.033	13.616
TrackDT01	8	TrackDT	1.0	SCS215a	20120426.144211	20120426.150459	dt-generate	8	0.013328	60	10	60-180	60	143	GapExp	0	199	2	0	0	distractor	1	659	671	283800	13.328	10.046	16.619
TrackDT01	8	TrackDT	1.0	SCS215a	20120426.144211	20120426.150505	dt-generate	8	0.013328	60	10	60-180	60	125	GapExp	0	200	2	1	0	distractor	1	448	776	284576	13.328	13.099	13.560
TrackDT01	8	TrackDT	1.0	SCS215a	20120426.150533	20120426.150545	dt-shadow	8	0.013311	60	10	60-180	60	65	GapPrac	1	1	2	1	1	target	1	683	659	285235	13.328	13.308	13.347
TrackDT01	8	TrackDT	1.0	SCS215a	20120426.150533	20120426.150550	dt-shadow	8	0.013311	60	10	60-180	60	90	GapPrac	1	2	2	0	1	target	1	377	812	286047	13.328	8.966	17.675
TrackDT01	8	TrackDT	1.0	SCS215a	20120426.150533	20120426.150556	dt-shadow	8	0.013311	60	10	60-180	60	138	GapPrac	1	3	2	30	0	distractor	1	361	820	286867	13.328	13.091	13.559
TrackDT01	8	TrackDT	1.0	SCS215a	20120426.150533	20120426.150602	dt-shadow	8	0.013311	60	10	60-180	60	112	GapPrac	1	4	2	3	0	distractor	1	428	786	287653	13.328	13.297	13.354
TrackDT01	8	TrackDT	1.0	SCS215a	20120426.150533	20120426.150607	dt-shadow	8	0.013311	60	10	60-180	60	115	GapPrac	1	5	2	1	1	target	1	415	793	288446	13.327	12.533	14.122
TrackDT01	8	TrackDT	1.0	SCS215a	20120426.150533	20120426.150612	dt-shadow	8	0.013311	60	10	60-180	60	148	GapPrac	1	6	2	0	0	distractor	1	715	643	289089	13.328	13.309	13.361
TrackDT01	8	TrackDT	1.0	SCS215a	20120426.150533	20120426.150618	dt-shadow	8	0.013311	60	10	60-180	60	161	GapPrac	1	7	2	0	1	target	1	440	780	289869	13.328	10.612	16.034
TrackDT01	8	TrackDT	1.0	SCS215a	20120426.150533	20120426.150625	dt-shadow	8	0.013311	60	10	60-180	60	163	GapPrac	1	8	2	30	0	distractor	1	315	843	290712	13.328	13.100	13.542
TrackDT01	8	TrackDT	1.0	SCS215a	20120426.150533	20120426.150631	dt-shadow	8	0.013311	60	10	60-180	60	167	GapPrac	1	9	2	3	0	distractor	1	387	807	291519	13.328	13.115	13.542
TrackDT01	8	TrackDT	1.0	SCS215a	20120426.150533	20120426.150637	dt-shadow	8	0.013311	60	10	60-180	60	82	GapPrac	1	10	2	1	1	target	1	434	783	292302	13.328	13.301	13.357
TrackDT01	8	TrackDT	1.0	SCS215a	20120426.150533	20120426.150642	dt-shadow	8	0.013311	60	10	60-180	60	134	GapPrac	1	11	2	30	0	distractor	1	333	834	293136	13.328	13.306	13.356
TrackDT01	8	TrackDT	1.0	SCS215a	20120426.150533	20120426.150648	dt-shadow	8	0.013311	60	10	60-180	60	179	GapPrac	1	12	2	3	0	distractor	1	464	768	293904	13.328	13.245	13.420
TrackDT01	8	TrackDT	1.0	SCS215a	20120426.150533	20120426.150655	dt-shadow	8	0.013311	60	10	60-180	60	146	GapPrac	1	13	2	3	1	distractor	0	289	-1000	292904	13.328	8.249	18.407
TrackDT01	8	TrackDT	1.0	SCS215a	20120426.150533	20120426.150701	dt-shadow	8	0.013311	60	10	60-180	60	174	GapPrac	1	14	2	1	0	distractor	1	471	765	293669	13.328	8.082	18.581
TrackDT01	8	TrackDT	1.0	SCS215a	20120426.150533	20120426.150707	dt-shadow	8	0.013311	60	10	60-180	60	168	GapPrac	1	15	2	30	1	target	1	457	772	294441	13.328	13.094	13.571
TrackDT01	8	TrackDT	1.0	SCS215a	20120426.150533	20120426.150714	dt-shadow	8	0.013311	60	10	60-180	60	153	GapPrac	1	16	2	0	0	distractor	1	399	801	295242	13.328	11.456	15.200
TrackDT01	8	TrackDT	1.0	SCS215a	20120426.150533	20120426.150720	dt-shadow	8	0.013311	60	10	60-180	60	96	GapPrac	1	17	2	0	1	target	1	544	728	295970	13.328	13.105	13.557
TrackDT01	8	TrackDT	1.0	SCS215a	20120426.150533	20120426.150725	dt-shadow	8	0.013311	60	10	60-180	60	130	GapPrac	1	18	2	30	1	target	1	364	818	296788	13.328	11.218	15.437
TrackDT01	8	TrackDT	1.0	SCS215a	20120426.150533	20120426.150731	dt-shadow	8	0.013311	60	10	60-180	60	121	GapPrac	1	19	2	1	0	distractor	1	533	734	297522	13.328	13.310	13.348
TrackDT01	8	TrackDT	1.0	SCS215a	20120426.150533	20120426.150737	dt-shadow	8	0.013311	60	10	60-180	60	128	GapPrac	1	20	2	3	1	target	1	346	827	298349	13.328	9.956	16.720
TrackDT01	8	TrackDT	1.0	SCS215a	20120426.150753	20120426.150800	dt-shadow	8	0.013327	60	10	60-180	60	130	GapExp	1	1	2	0	0	distractor	1	464	768	299117	13.328	13.108	13.557
TrackDT01	8	TrackDT	1.0	SCS215a	20120426.150753	20120426.150806	dt-shadow	8	0.013327	60	10	60-180	60	176	GapExp	1	2	2	0	1	target	1	437	782	299899	13.328	13.100	13.560
TrackDT01	8	TrackDT	1.0	SCS215a	20120426.150753	20120426.150813	dt-shadow	8	0.013327	60	10	60-180	60	147	GapExp	1	3	2	30	1	target	1	224	888	300787	13.328	12.897	13.763
TrackDT01	8	TrackDT	1.0	SCS215a	20120426.150753	20120426.150819	dt-shadow	8	0.013327	60	10	60-180	60	81	GapExp	1	4	2	3	0	distractor	1	561	720	301507	13.328	12.898	13.752
TrackDT01	8	TrackDT	1.0	SCS215a	20120426.150753	20120426.150824	dt-shadow	8	0.013327	60	10	60-180	60	97	GapExp	1	5	2	1	1	target	1	563	719	302226	13.328	12.858	13.785
TrackDT01	8	TrackDT	1.0	SCS215a	20120426.150753	20120426.150829	dt-shadow	8	0.013327	60	10	60-180	60	179	GapExp	1	6	2	3	1	target	1	338	831	303057	13.328	12.904	13.762
TrackDT01	8	TrackDT	1.0	SCS215a	20120426.150753	20120426.150835	dt-shadow	8	0.013327	60	10	60-180	60	86	GapExp	1	7	2	1	0	target	0	524	-1000	302057	13.328	12.849	13.807
TrackDT01	8	TrackDT	1.0	SCS215a	20120426.150753	20120426.150841	dt-shadow	8	0.013327	60	10	60-180	60	147	GapExp	1	8	2	30	0	distractor	1	341	830	302887	13.328	13.046	13.604
TrackDT01	8	TrackDT	1.0	SCS215a	20120426.150753	20120426.150847	dt-shadow	8	0.013327	60	10	60-180	60	148	GapExp	0	9	2	1	1	target	1	425	788	303675	13.328	13.307	13.348
TrackDT01	8	TrackDT	1.0	SCS215a	20120426.150753	20120426.150853	dt-shadow	8	0.013327	60	10	60-180	60	101	GapExp	0	10	2	1	1	distractor	0	298	-1000	302675	13.328	13.308	13.344
TrackDT01	8	TrackDT	1.0	SCS215a	20120426.150753	20120426.150858	dt-shadow	8	0.013327	60	10	60-180	60	166	GapExp	0	11	2	1	0	distractor	1	544	728	303403	13.328	13.026	13.629
TrackDT01	8	TrackDT	1.0	SCS215a	20120426.150753	20120426.150904	dt-shadow	8	0.013327	60	10	60-180	60	155	GapExp	0	12	2	30	0	distractor	1	434	783	304186	13.328	13.106	13.556
TrackDT01	8	TrackDT	1.0	SCS215a	20120426.150753	20120426.150911	dt-shadow	8	0.013327	60	10	60-180	60	162	GapExp	0	13	2	0	1	target	1	368	816	305002	13.328	13.024	13.626
TrackDT01	8	TrackDT	1.0	SCS215a	20120426.150753	20120426.150917	dt-shadow	8	0.013327	60	10	60-180	60	137	GapExp	0	14	2	30	0	distractor	1	316	842	305844	13.328	13.082	13.574
TrackDT01	8	TrackDT	1.0	SCS215a	20120426.150753	20120426.150923	dt-shadow	8	0.013327	60	10	60-180	60	161	GapExp	0	15	2	1	1	target	1	462	769	306613	13.328	12.847	13.809
TrackDT01	8	TrackDT	1.0	SCS215a	20120426.150753	20120426.150929	dt-shadow	8	0.013327	60	10	60-180	60	88	GapExp	0	16	2	3	0	distractor	1	428	786	307399	13.328	13.308	13.350
TrackDT01	8	TrackDT	1.0	SCS215a	20120426.150753	20120426.150934	dt-shadow	8	0.013327	60	10	60-180	60	125	GapExp	0	17	2	3	0	distractor	1	475	763	308162	13.328	12.962	13.707
TrackDT01	8	TrackDT	1.0	SCS215a	20120426.150753	20120426.150940	dt-shadow	8	0.013327	60	10	60-180	60	131	GapExp	0	18	2	3	1	target	1	640	680	308842	13.328	13.111	13.538
TrackDT01	8	TrackDT	1.0	SCS215a	20120426.150753	20120426.150946	dt-shadow	8	0.013327	60	10	60-180	60	78	GapExp	0	19	2	1	1	distractor	0	511	-1000	307842	13.328	12.893	13.764
TrackDT01	8	TrackDT	1.0	SCS215a	20120426.150753	20120426.150951	dt-shadow	8	0.013327	60	10	60-180	60	78	GapExp	0	20	2	1	1	target	1	611	695	308537	13.328	13.301	13.362
TrackDT01	8	TrackDT	1.0	SCS215a	20120426.150753	20120426.150956	dt-shadow	8	0.013327	60	10	60-180	60	109	GapExp	0	21	2	0	0	distractor	1	786	607	309144	13.328	13.308	13.349
TrackDT01	8	TrackDT	1.0	SCS215a	20120426.150753	20120426.151002	dt-shadow	8	0.013327	60	10	60-180	60	112	GapExp	0	22	2	30	0	distractor	1	358	821	309965	13.328	13.104	13.545
TrackDT01	8	TrackDT	1.0	SCS215a	20120426.150753	20120426.151008	dt-shadow	8	0.013327	60	10	60-180	60	99	GapExp	0	23	2	30	1	distractor	0	325	-1000	308965	13.328	12.917	13.750
TrackDT01	8	TrackDT	1.0	SCS215a	20120426.150753	20120426.151013	dt-shadow	8	0.013327	60	10	60-180	60	180	GapExp	0	24	2	3	1	target	1	410	795	309760	13.328	13.007	13.641
TrackDT01	8	TrackDT	1.0	SCS215a	20120426.150753	20120426.151020	dt-shadow	8	0.013327	60	10	60-180	60	89	GapExp	0	25	2	30	0	distractor	1	413	794	310554	13.328	13.296	13.347
TrackDT01	8	TrackDT	1.0	SCS215a	20120426.150753	20120426.151025	dt-shadow	8	0.013327	60	10	60-180	60	134	GapExp	0	26	2	30	1	target	1	322	839	311393	13.328	13.077	13.564
TrackDT01	8	TrackDT	1.0	SCS215a	20120426.150753	20120426.151031	dt-shadow	8	0.013327	60	10	60-180	60	95	GapExp	0	27	2	0	0	distractor	1	481	760	312153	13.328	13.305	13.347
TrackDT01	8	TrackDT	1.0	SCS215a	20120426.150753	20120426.151037	dt-shadow	8	0.013327	60	10	60-180	60	103	GapExp	0	28	2	30	0	distractor	1	349	826	312979	13.328	12.938	13.716
TrackDT01	8	TrackDT	1.0	SCS215a	20120426.150753	20120426.151042	dt-shadow	8	0.013327	60	10	60-180	60	103	GapExp	0	29	2	30	1	target	1	326	837	313816	13.328	13.099	13.572
TrackDT01	8	TrackDT	1.0	SCS215a	20120426.150753	20120426.151048	dt-shadow	8	0.013327	60	10	60-180	60	101	GapExp	0	30	2	30	0	distractor	1	402	799	314615	13.328	13.303	13.352
TrackDT01	8	TrackDT	1.0	SCS215a	20120426.150753	20120426.151053	dt-shadow	8	0.013327	60	10	60-180	60	158	GapExp	0	31	2	0	0	distractor	1	424	788	315403	13.328	12.941	13.712
TrackDT01	8	TrackDT	1.0	SCS215a	20120426.150753	20120426.151100	dt-shadow	8	0.013327	60	10	60-180	60	174	GapExp	0	32	2	30	1	distractor	0	852	-1000	314403	13.328	12.866	13.785
TrackDT01	8	TrackDT	1.0	SCS215a	20120426.150753	20120426.151107	dt-shadow	8	0.013327	60	10	60-180	60	89	GapExp	0	33	2	1	1	target	1	440	780	315183	13.327	12.923	13.747
TrackDT01	8	TrackDT	1.0	SCS215a	20120426.150753	20120426.151112	dt-shadow	8	0.013327	60	10	60-180	60	75	GapExp	0	34	2	30	1	target	1	361	820	316003	13.328	13.098	13.544
TrackDT01	8	TrackDT	1.0	SCS215a	20120426.150753	20120426.151117	dt-shadow	8	0.013327	60	10	60-180	60	152	GapExp	0	35	2	1	0	distractor	1	485	758	316761	13.328	13.097	13.550
TrackDT01	8	TrackDT	1.0	SCS215a	20120426.150753	20120426.151123	dt-shadow	8	0.013327	60	10	60-180	60	171	GapExp	0	36	2	3	1	target	1	294	853	317614	13.328	13.100	13.563
TrackDT01	8	TrackDT	1.0	SCS215a	20120426.150753	20120426.151129	dt-shadow	8	0.013327	60	10	60-180	60	109	GapExp	0	37	2	3	1	target	1	378	811	318425	13.328	13.303	13.347
TrackDT01	8	TrackDT	1.0	SCS215a	20120426.150753	20120426.151135	dt-shadow	8	0.013327	60	10	60-180	60	94	GapExp	0	38	2	0	0	distractor	1	470	765	319190	13.328	13.291	13.359
TrackDT01	8	TrackDT	1.0	SCS215a	20120426.150753	20120426.151140	dt-shadow	8	0.013327	60	10	60-180	60	121	GapExp	0	39	2	3	0	target	0	324	-1000	318190	13.328	12.968	13.695
TrackDT01	8	TrackDT	1.0	SCS215a	20120426.150753	20120426.151145	dt-shadow	8	0.013327	60	10	60-180	60	106	GapExp	0	40	2	3	0	distractor	1	444	778	318968	13.328	13.111	13.546
TrackDT01	8	TrackDT	1.0	SCS215a	20120426.150753	20120426.151151	dt-shadow	8	0.013327	60	10	60-180	60	72	GapExp	0	41	2	1	0	distractor	1	420	790	319758	13.328	12.929	13.752
TrackDT01	8	TrackDT	1.0	SCS215a	20120426.150753	20120426.151155	dt-shadow	8	0.013327	60	10	60-180	60	115	GapExp	0	42	2	3	1	target	1	373	814	320572	13.328	13.304	13.348
TrackDT01	8	TrackDT	1.0	SCS215a	20120426.150753	20120426.151201	dt-shadow	8	0.013327	60	10	60-180	60	92	GapExp	0	43	2	1	1	target	1	406	797	321369	13.328	13.097	13.559
TrackDT01	8	TrackDT	1.0	SCS215a	20120426.150753	20120426.151206	dt-shadow	8	0.013327	60	10	60-180	60	93	GapExp	0	44	2	3	0	distractor	1	406	797	322166	13.328	13.309	13.345
TrackDT01	8	TrackDT	1.0	SCS215a	20120426.150753	20120426.151212	dt-shadow	8	0.013327	60	10	60-180	60	92	GapExp	0	45	2	30	1	target	1	360	820	322986	13.328	12.834	13.821
TrackDT01	8	TrackDT	1.0	SCS215a	20120426.150753	20120426.151217	dt-shadow	8	0.013327	60	10	60-180	60	134	GapExp	0	46	2	1	0	distractor	1	514	743	323729	13.328	12.936	13.745
TrackDT01	8	TrackDT	1.0	SCS215a	20120426.150753	20120426.151223	dt-shadow	8	0.013327	60	10	60-180	60	76	GapExp	0	47	2	3	0	target	0	409	-1000	322729	13.328	13.297	13.353
TrackDT01	8	TrackDT	1.0	SCS215a	20120426.150753	20120426.151228	dt-shadow	8	0.013327	60	10	60-180	60	152	GapExp	0	48	2	0	1	target	1	656	672	323401	13.328	12.878	13.787
TrackDT01	8	TrackDT	1.0	SCS215a	20120426.150753	20120426.151234	dt-shadow	8	0.013327	60	10	60-180	60	99	GapExp	0	49	2	1	0	distractor	1	537	732	324133	13.328	13.096	13.567
TrackDT01	8	TrackDT	1.0	SCS215a	20120426.150753	20120426.151239	dt-shadow	8	0.013327	60	10	60-180	60	101	GapExp	0	50	2	0	1	target	1	446	777	324910	13.328	13.304	13.348
TrackDT01	8	TrackDT	1.0	SCS215a	20120426.150753	20120426.151256	dt-shadow	8	0.013327	60	10	60-180	60	91	GapExp	0	51	2	1	0	target	0	569	-1000	323910	13.328	12.823	13.828
TrackDT01	8	TrackDT	1.0	SCS215a	20120426.150753	20120426.151302	dt-shadow	8	0.013327	60	10	60-180	60	93	GapExp	0	52	2	1	1	distractor	0	413	-1000	322910	13.328	13.089	13.562
TrackDT01	8	TrackDT	1.0	SCS215a	20120426.150753	20120426.151307	dt-shadow	8	0.013327	60	10	60-180	60	171	GapExp	0	53	2	30	1	distractor	0	421	-1000	321910	13.328	13.280	13.392
TrackDT01	8	TrackDT	1.0	SCS215a	20120426.150753	20120426.151314	dt-shadow	8	0.013327	60	10	60-180	60	97	GapExp	0	54	2	30	1	target	1	370	815	322725	13.328	13.295	13.358
TrackDT01	8	TrackDT	1.0	SCS215a	20120426.150753	20120426.151319	dt-shadow	8	0.013327	60	10	60-180	60	176	GapExp	0	55	2	3	0	distractor	1	503	749	323474	13.328	13.309	13.347
TrackDT01	8	TrackDT	1.0	SCS215a	20120426.150753	20120426.151326	dt-shadow	8	0.013327	60	10	60-180	60	86	GapExp	0	56	2	30	0	distractor	1	527	737	324211	13.328	13.306	13.355
TrackDT01	8	TrackDT	1.0	SCS215a	20120426.150753	20120426.151331	dt-shadow	8	0.013327	60	10	60-180	60	108	GapExp	0	57	2	3	0	distractor	1	466	767	324978	13.328	13.112	13.551
TrackDT01	8	TrackDT	1.0	SCS215a	20120426.150753	20120426.151336	dt-shadow	8	0.013327	60	10	60-180	60	145	GapExp	0	58	2	30	1	distractor	0	368	-1000	323978	13.328	12.976	13.698
TrackDT01	8	TrackDT	1.0	SCS215a	20120426.150753	20120426.151343	dt-shadow	8	0.013327	60	10	60-180	60	66	GapExp	0	59	2	30	0	distractor	1	465	768	324746	13.328	13.020	13.650
TrackDT01	8	TrackDT	1.0	SCS215a	20120426.150753	20120426.151348	dt-shadow	8	0.013327	60	10	60-180	60	84	GapExp	0	60	2	1	1	target	1	494	753	325499	13.328	13.302	13.354
TrackDT01	8	TrackDT	1.0	SCS215a	20120426.150753	20120426.151353	dt-shadow	8	0.013327	60	10	60-180	60	81	GapExp	0	61	2	0	0	distractor	1	995	503	326002	13.328	13.085	13.570
TrackDT01	8	TrackDT	1.0	SCS215a	20120426.150753	20120426.151359	dt-shadow	8	0.013327	60	10	60-180	60	67	GapExp	0	62	2	0	0	distractor	1	616	692	326694	13.328	12.940	13.722
TrackDT01	8	TrackDT	1.0	SCS215a	20120426.150753	20120426.151404	dt-shadow	8	0.013327	60	10	60-180	60	167	GapExp	0	63	2	30	1	target	1	282	859	327553	13.328	13.098	13.551
TrackDT01	8	TrackDT	1.0	SCS215a	20120426.150753	20120426.151410	dt-shadow	8	0.013327	60	10	60-180	60	104	GapExp	0	64	2	3	1	distractor	0	442	-1000	326553	13.328	13.302	13.347
TrackDT01	8	TrackDT	1.0	SCS215a	20120426.150753	20120426.151415	dt-shadow	8	0.013327	60	10	60-180	60	120	GapExp	0	65	2	30	1	target	1	241	880	327433	13.328	13.099	13.541
TrackDT01	8	TrackDT	1.0	SCS215a	20120426.150753	20120426.151421	dt-shadow	8	0.013327	60	10	60-180	60	74	GapExp	0	66	2	1	0	distractor	1	436	782	328215	13.328	13.151	13.514
TrackDT01	8	TrackDT	1.0	SCS215a	20120426.150753	20120426.151426	dt-shadow	8	0.013327	60	10	60-180	60	91	GapExp	0	67	2	1	1	target	1	449	776	328991	13.328	13.091	13.558
TrackDT01	8	TrackDT	1.0	SCS215a	20120426.150753	20120426.151431	dt-shadow	8	0.013327	60	10	60-180	60	108	GapExp	0	68	2	0	1	target	1	392	804	329795	13.328	12.998	13.660
TrackDT01	8	TrackDT	1.0	SCS215a	20120426.150753	20120426.151437	dt-shadow	8	0.013327	60	10	60-180	60	106	GapExp	0	69	2	1	1	target	1	548	726	330521	13.328	13.106	13.537
TrackDT01	8	TrackDT	1.0	SCS215a	20120426.150753	20120426.151442	dt-shadow	8	0.013327	60	10	60-180	60	110	GapExp	0	70	2	3	0	distractor	1	530	735	331256	13.328	13.045	13.603
TrackDT01	8	TrackDT	1.0	SCS215a	20120426.150753	20120426.151448	dt-shadow	8	0.013327	60	10	60-180	60	90	GapExp	0	71	2	3	1	target	1	358	821	332077	13.328	13.090	13.565
TrackDT01	8	TrackDT	1.0	SCS215a	20120426.150753	20120426.151453	dt-shadow	8	0.013327	60	10	60-180	60	140	GapExp	0	72	2	30	1	target	1	416	792	332869	13.328	12.911	13.755
TrackDT01	8	TrackDT	1.0	SCS215a	20120426.150753	20120426.151459	dt-shadow	8	0.013327	60	10	60-180	60	149	GapExp	0	73	2	30	0	distractor	1	400	800	333669	13.328	13.106	13.546
TrackDT01	8	TrackDT	1.0	SCS215a	20120426.150753	20120426.151505	dt-shadow	8	0.013327	60	10	60-180	60	170	GapExp	0	74	2	3	1	target	1	881	560	334229	13.328	13.137	13.520
TrackDT01	8	TrackDT	1.0	SCS215a	20120426.150753	20120426.151512	dt-shadow	8	0.013327	60	10	60-180	60	175	GapExp	0	75	2	3	1	distractor	0	480	-1000	333229	13.327	13.286	13.364
TrackDT01	8	TrackDT	1.0	SCS215a	20120426.150753	20120426.151518	dt-shadow	8	0.013327	60	10	60-180	60	169	GapExp	0	76	2	3	1	target	1	348	826	334055	13.328	13.123	13.514
TrackDT01	8	TrackDT	1.0	SCS215a	20120426.150753	20120426.151525	dt-shadow	8	0.013327	60	10	60-180	60	154	GapExp	0	77	2	0	1	target	1	404	798	334853	13.328	12.868	13.787
TrackDT01	8	TrackDT	1.0	SCS215a	20120426.150753	20120426.151531	dt-shadow	8	0.013327	60	10	60-180	60	67	GapExp	0	78	2	3	0	distractor	1	445	778	335631	13.328	12.878	13.772
TrackDT01	8	TrackDT	1.0	SCS215a	20120426.150753	20120426.151536	dt-shadow	8	0.013327	60	10	60-180	60	164	GapExp	0	79	2	1	1	target	1	459	771	336402	13.328	12.960	13.728
TrackDT01	8	TrackDT	1.0	SCS215a	20120426.150753	20120426.151542	dt-shadow	8	0.013327	60	10	60-180	60	157	GapExp	0	80	2	1	0	distractor	1	464	768	337170	13.328	12.983	13.675
TrackDT01	8	TrackDT	1.0	SCS215a	20120426.150753	20120426.151548	dt-shadow	8	0.013327	60	10	60-180	60	133	GapExp	0	81	2	0	1	target	1	552	724	337894	13.327	13.303	13.347
