exp	sub	code	rev	comp	runtime	trialtime	stdt	nstim	refreshdur	cuedur	gapdur	gapOnsetRange	durPostProbe	gapOnsetTime	blocktype	prac	trial	ntargets	soa	probeTarget	resp	acc	rt	pts	tpts	meanFrameDur	minFrameDur	maxFrameDur
TrackDT01	5	TrackDT	1.0	SCS215a	20120424.121923	20120424.121941	single-task	8	0.013328	60	0	60-180	60	119	NoGap	1	1	2	30	0	distractor	1	1849	76	76	13.328	13.102	13.553
TrackDT01	5	TrackDT	1.0	SCS215a	20120424.121923	20120424.121949	single-task	8	0.013328	60	0	60-180	60	152	NoGap	1	2	2	30	0	distractor	1	1761	120	196	13.328	13.096	13.559
TrackDT01	5	TrackDT	1.0	SCS215a	20120424.121923	20120424.121957	single-task	8	0.013328	60	0	60-180	60	178	NoGap	1	3	2	0	0	distractor	1	1142	429	625	13.328	13.095	13.546
TrackDT01	5	TrackDT	1.0	SCS215a	20120424.121923	20120424.122003	single-task	8	0.013328	60	0	60-180	60	158	NoGap	1	4	2	1	0	distractor	1	1309	346	971	13.328	13.110	13.545
TrackDT01	5	TrackDT	1.0	SCS215a	20120424.121923	20120424.122010	single-task	8	0.013328	60	0	60-180	60	175	NoGap	1	5	2	3	0	distractor	1	1117	442	1413	13.328	11.176	15.481
TrackDT01	5	TrackDT	1.0	SCS215a	20120424.121923	20120424.122017	single-task	8	0.013328	60	0	60-180	60	138	NoGap	1	6	2	30	1	target	1	1161	420	1833	13.328	12.502	14.141
TrackDT01	5	TrackDT	1.0	SCS215a	20120424.121923	20120424.122024	single-task	8	0.013328	60	0	60-180	60	164	NoGap	1	7	2	3	0	distractor	1	1119	441	2274	13.328	13.093	13.538
TrackDT01	5	TrackDT	1.0	SCS215a	20120424.121923	20120424.122031	single-task	8	0.013328	60	0	60-180	60	147	NoGap	1	8	2	0	0	distractor	1	2015	0	2274	13.328	13.109	13.456
TrackDT01	5	TrackDT	1.0	SCS215a	20120424.121923	20120424.122038	single-task	8	0.013328	60	0	60-180	60	164	NoGap	1	9	2	0	1	target	1	608	696	2970	13.328	13.094	13.560
TrackDT01	5	TrackDT	1.0	SCS215a	20120424.121923	20120424.122044	single-task	8	0.013328	60	0	60-180	60	113	NoGap	1	10	2	1	1	target	1	1051	475	3445	13.328	13.123	13.537
TrackDT01	5	TrackDT	1.0	SCS215a	20120424.121923	20120424.122050	single-task	8	0.013328	60	0	60-180	60	70	NoGap	1	11	2	30	1	target	1	565	718	4163	13.328	12.159	14.518
TrackDT01	5	TrackDT	1.0	SCS215a	20120424.121923	20120424.122056	single-task	8	0.013328	60	0	60-180	60	132	NoGap	1	12	2	3	0	distractor	1	737	632	4795	13.328	13.182	13.471
TrackDT01	5	TrackDT	1.0	SCS215a	20120424.121923	20120424.122102	single-task	8	0.013328	60	0	60-180	60	113	NoGap	1	13	2	3	1	target	1	877	562	5357	13.328	8.577	18.097
TrackDT01	5	TrackDT	1.0	SCS215a	20120424.121923	20120424.122107	single-task	8	0.013328	60	0	60-180	60	168	NoGap	1	14	2	3	0	distractor	1	2068	0	5357	13.328	13.164	13.480
TrackDT01	5	TrackDT	1.0	SCS215a	20120424.121923	20120424.122115	single-task	8	0.013328	60	0	60-180	60	172	NoGap	1	15	2	0	1	target	1	746	627	5984	13.328	13.159	13.499
TrackDT01	5	TrackDT	1.0	SCS215a	20120424.121923	20120424.122121	single-task	8	0.013328	60	0	60-180	60	101	NoGap	1	16	2	30	0	distractor	1	1180	410	6394	13.327	13.200	13.406
TrackDT01	5	TrackDT	1.0	SCS215a	20120424.121923	20120424.122128	single-task	8	0.013328	60	0	60-180	60	97	NoGap	1	17	2	1	1	target	1	1016	492	6886	13.328	9.442	15.570
TrackDT01	5	TrackDT	1.0	SCS215a	20120424.121923	20120424.122134	single-task	8	0.013328	60	0	60-180	60	174	NoGap	1	18	2	0	0	distractor	1	1040	480	7366	13.328	13.092	13.562
TrackDT01	5	TrackDT	1.0	SCS215a	20120424.121923	20120424.122140	single-task	8	0.013328	60	0	60-180	60	106	NoGap	1	19	2	1	0	distractor	1	887	557	7923	13.328	13.110	13.546
TrackDT01	5	TrackDT	1.0	SCS215a	20120424.121923	20120424.122146	single-task	8	0.013328	60	0	60-180	60	135	NoGap	1	20	2	3	0	distractor	1	709	646	8569	13.328	13.291	13.368
TrackDT01	5	TrackDT	1.0	SCS215a	20120424.121923	20120424.122152	single-task	8	0.013328	60	0	60-180	60	90	NoGap	1	21	2	30	1	target	1	579	711	9280	13.328	13.270	13.386
TrackDT01	5	TrackDT	1.0	SCS215a	20120424.121923	20120424.122157	single-task	8	0.013328	60	0	60-180	60	156	NoGap	1	22	2	0	0	distractor	1	639	681	9961	13.328	10.380	15.306
TrackDT01	5	TrackDT	1.0	SCS215a	20120424.121923	20120424.122204	single-task	8	0.013328	60	0	60-180	60	163	NoGap	1	23	2	30	0	distractor	1	1057	472	10433	13.328	13.153	13.503
TrackDT01	5	TrackDT	1.0	SCS215a	20120424.121923	20120424.122211	single-task	8	0.013328	60	0	60-180	60	162	NoGap	1	24	2	3	1	target	1	759	621	11054	13.328	11.895	14.764
TrackDT01	5	TrackDT	1.0	SCS215a	20120424.121923	20120424.122217	single-task	8	0.013328	60	0	60-180	60	174	NoGap	1	25	2	30	1	target	1	939	531	11585	13.328	5.282	21.387
TrackDT01	5	TrackDT	1.0	SCS215a	20120424.121923	20120424.122224	single-task	8	0.013328	60	0	60-180	60	129	NoGap	1	26	2	1	0	distractor	1	997	502	12087	13.328	8.802	17.867
TrackDT01	5	TrackDT	1.0	SCS215a	20120424.121923	20120424.122230	single-task	8	0.013328	60	0	60-180	60	124	NoGap	1	27	2	3	1	target	1	793	604	12691	13.328	11.334	15.324
TrackDT01	5	TrackDT	1.0	SCS215a	20120424.121923	20120424.122236	single-task	8	0.013328	60	0	60-180	60	109	NoGap	1	28	2	0	1	target	1	673	664	13355	13.328	10.596	16.065
TrackDT01	5	TrackDT	1.0	SCS215a	20120424.121923	20120424.122242	single-task	8	0.013328	60	0	60-180	60	115	NoGap	1	29	2	3	1	target	1	431	785	14140	13.328	13.093	13.561
TrackDT01	5	TrackDT	1.0	SCS215a	20120424.121923	20120424.122247	single-task	8	0.013328	60	0	60-180	60	165	NoGap	1	30	2	1	1	target	1	458	771	14911	13.328	13.245	13.409
TrackDT01	5	TrackDT	1.0	SCS215a	20120424.121923	20120424.122253	single-task	8	0.013328	60	0	60-180	60	104	NoGap	1	31	2	1	1	target	1	1024	488	15399	13.328	10.979	15.679
TrackDT01	5	TrackDT	1.0	SCS215a	20120424.121923	20120424.122259	single-task	8	0.013328	60	0	60-180	60	155	NoGap	1	32	2	0	1	target	1	508	746	16145	13.328	12.117	14.078
TrackDT01	5	TrackDT	1.0	SCS215a	20120424.121923	20120424.122305	single-task	8	0.013328	60	0	60-180	60	129	NoGap	1	33	2	0	1	target	1	508	746	16891	13.328	13.109	13.546
TrackDT01	5	TrackDT	1.0	SCS215a	20120424.121923	20120424.122311	single-task	8	0.013328	60	0	60-180	60	136	NoGap	1	34	2	0	0	distractor	1	559	721	17612	13.328	13.094	13.559
TrackDT01	5	TrackDT	1.0	SCS215a	20120424.121923	20120424.122317	single-task	8	0.013328	60	0	60-180	60	141	NoGap	1	35	2	3	1	target	1	446	777	18389	13.328	13.078	13.591
TrackDT01	5	TrackDT	1.0	SCS215a	20120424.121923	20120424.122322	single-task	8	0.013328	60	0	60-180	60	67	NoGap	1	36	2	30	0	distractor	1	1036	482	18871	13.328	12.822	13.861
TrackDT01	5	TrackDT	1.0	SCS215a	20120424.121923	20120424.122328	single-task	8	0.013328	60	0	60-180	60	94	NoGap	1	37	2	1	1	target	1	805	598	19469	13.328	12.747	13.946
TrackDT01	5	TrackDT	1.0	SCS215a	20120424.121923	20120424.122333	single-task	8	0.013328	60	0	60-180	60	135	NoGap	1	38	2	1	0	distractor	1	496	752	20221	13.328	12.707	13.993
TrackDT01	5	TrackDT	1.0	SCS215a	20120424.121923	20120424.122339	single-task	8	0.013328	60	0	60-180	60	93	NoGap	1	39	2	1	0	distractor	1	1025	488	20709	13.328	9.864	16.799
TrackDT01	5	TrackDT	1.0	SCS215a	20120424.121923	20120424.122345	single-task	8	0.013328	60	0	60-180	60	83	NoGap	1	40	2	30	1	target	1	497	752	21461	13.329	5.728	20.893
TrackDT01	5	TrackDT	1.0	SCS215a	20120424.122646	20120424.122724	dt-generate	8	0.013328	60	10	60-180	60	83	GapPrac	1	1	2	1	0	distractor	1	1053	474	21935	13.328	13.019	13.621
TrackDT01	5	TrackDT	1.0	SCS215a	20120424.122646	20120424.122731	dt-generate	8	0.013328	60	10	60-180	60	61	GapPrac	1	2	2	0	0	distractor	1	757	622	22557	13.328	12.868	13.781
TrackDT01	5	TrackDT	1.0	SCS215a	20120424.122646	20120424.122736	dt-generate	8	0.013328	60	10	60-180	60	72	GapPrac	1	3	2	3	0	distractor	1	1447	277	22834	13.328	13.074	13.750
TrackDT01	5	TrackDT	1.0	SCS215a	20120424.122646	20120424.122742	dt-generate	8	0.013328	60	10	60-180	60	101	GapPrac	1	4	2	1	1	target	1	631	685	23519	13.328	13.058	13.652
TrackDT01	5	TrackDT	1.0	SCS215a	20120424.122646	20120424.122747	dt-generate	8	0.013328	60	10	60-180	60	67	GapPrac	1	5	2	0	0	distractor	1	616	692	24211	13.328	12.906	13.715
TrackDT01	5	TrackDT	1.0	SCS215a	20120424.122646	20120424.122752	dt-generate	8	0.013328	60	10	60-180	60	124	GapPrac	1	6	2	1	1	target	1	994	503	24714	13.328	13.082	13.567
TrackDT01	5	TrackDT	1.0	SCS215a	20120424.122646	20120424.122758	dt-generate	8	0.013328	60	10	60-180	60	61	GapPrac	1	7	2	3	1	distractor	0	2130	-1000	23714	13.328	12.875	13.781
TrackDT01	5	TrackDT	1.0	SCS215a	20120424.122646	20120424.122805	dt-generate	8	0.013328	60	10	60-180	60	71	GapPrac	1	8	2	30	0	early	-4	-506	-1000	22714	13.328	12.841	13.798
TrackDT01	5	TrackDT	1.0	SCS215a	20120424.122646	20120424.122811	dt-generate	8	0.013328	60	10	60-180	60	71	GapPrac	1	9	2	30	0	early	-4	-1079	-1000	21714	13.328	13.303	13.352
TrackDT01	5	TrackDT	1.0	SCS215a	20120424.122646	20120424.122816	dt-generate	8	0.013328	60	10	60-180	60	110	GapPrac	1	10	2	30	1	target	1	2366	0	21714	13.328	13.035	13.670
TrackDT01	5	TrackDT	1.0	SCS215a	20120424.122646	20120424.122824	dt-generate	8	0.013328	60	10	60-180	60	104	GapPrac	1	11	2	3	1	target	1	2242	0	21714	13.328	13.308	13.346
TrackDT01	5	TrackDT	1.0	SCS215a	20120424.122646	20120424.122831	dt-generate	8	0.013328	60	10	60-180	60	107	GapPrac	1	12	2	0	0	distractor	1	1359	321	22035	13.328	13.283	13.376
TrackDT01	5	TrackDT	1.0	SCS215a	20120424.122646	20120424.122837	dt-generate	8	0.013328	60	10	60-180	60	92	GapPrac	1	13	2	1	0	target	0	1719	-1000	21035	13.328	13.309	13.344
TrackDT01	5	TrackDT	1.0	SCS215a	20120424.122646	20120424.122844	dt-generate	8	0.013328	60	10	60-180	60	174	GapPrac	1	14	2	1	0	early	-4	-2384	-1000	20035	13.328	12.911	13.731
TrackDT01	5	TrackDT	1.0	SCS215a	20120424.122646	20120424.122850	dt-generate	8	0.013328	60	10	60-180	60	138	GapPrac	1	15	2	3	0	target	0	479	-1000	19035	13.328	13.304	13.352
TrackDT01	5	TrackDT	1.0	SCS215a	20120424.122646	20120424.122856	dt-generate	8	0.013328	60	10	60-180	60	84	GapPrac	1	16	2	0	1	early	-4	-630	-1000	18035	13.328	12.870	13.791
TrackDT01	5	TrackDT	1.0	SCS215a	20120424.122646	20120424.122903	dt-generate	8	0.013328	60	10	60-180	60	174	GapPrac	1	17	2	0	1	distractor	0	633	-1000	17035	13.328	13.144	13.522
TrackDT01	5	TrackDT	1.0	SCS215a	20120424.122646	20120424.122910	dt-generate	8	0.013328	60	10	60-180	60	108	GapPrac	1	18	2	30	1	distractor	0	635	-1000	16035	13.328	13.309	13.347
TrackDT01	5	TrackDT	1.0	SCS215a	20120424.122646	20120424.122916	dt-generate	8	0.013328	60	10	60-180	60	137	GapPrac	1	19	2	3	0	distractor	1	629	686	16721	13.328	12.893	13.763
TrackDT01	5	TrackDT	1.0	SCS215a	20120424.122646	20120424.122922	dt-generate	8	0.013328	60	10	60-180	60	130	GapPrac	1	20	2	1	1	target	1	3194	0	16721	13.328	13.095	13.633
TrackDT01	5	TrackDT	1.0	SCS215a	20120424.123016	20120424.123024	dt-generate	8	0.013313	60	10	60-180	60	105	GapExp	1	1	2	0	1	target	1	2364	0	16721	13.328	11.857	14.803
TrackDT01	5	TrackDT	1.0	SCS215a	20120424.123016	20120424.123031	dt-generate	8	0.013313	60	10	60-180	60	91	GapExp	1	2	2	1	1	distractor	0	2901	-1000	15721	13.328	5.703	20.944
TrackDT01	5	TrackDT	1.0	SCS215a	20120424.123016	20120424.123039	dt-generate	8	0.013313	60	10	60-180	60	144	GapExp	1	3	2	1	0	target	0	523	-1000	14721	13.328	13.098	13.557
TrackDT01	5	TrackDT	1.0	SCS215a	20120424.123016	20120424.123045	dt-generate	8	0.013313	60	10	60-180	60	135	GapExp	1	4	2	3	0	distractor	1	680	660	15381	13.328	13.061	13.594
TrackDT01	5	TrackDT	1.0	SCS215a	20120424.123016	20120424.123051	dt-generate	8	0.013313	60	10	60-180	60	147	GapExp	1	5	2	30	0	distractor	1	1990	5	15386	13.328	9.318	17.382
TrackDT01	5	TrackDT	1.0	SCS215a	20120424.123016	20120424.123059	dt-generate	8	0.013313	60	10	60-180	60	79	GapExp	1	6	2	0	0	distractor	1	2135	0	15386	13.328	13.296	13.365
TrackDT01	5	TrackDT	1.0	SCS215a	20120424.123016	20120424.123106	dt-generate	8	0.013313	60	10	60-180	60	68	GapExp	1	7	2	30	1	target	1	1315	343	15729	13.328	13.092	13.552
TrackDT01	5	TrackDT	1.0	SCS215a	20120424.123016	20120424.123112	dt-generate	8	0.013313	60	10	60-180	60	112	GapExp	1	8	2	3	1	distractor	0	3192	-1000	14729	13.328	13.307	13.347
TrackDT01	5	TrackDT	1.0	SCS215a	20120424.123016	20120424.123120	dt-generate	8	0.013313	60	10	60-180	60	151	GapExp	0	9	2	0	0	target	0	1290	-1000	13729	13.328	13.099	13.551
TrackDT01	5	TrackDT	1.0	SCS215a	20120424.123016	20120424.123127	dt-generate	8	0.013313	60	10	60-180	60	79	GapExp	0	10	2	1	1	target	1	4895	0	13729	13.328	13.308	13.352
TrackDT01	5	TrackDT	1.0	SCS215a	20120424.123016	20120424.123137	dt-generate	8	0.013313	60	10	60-180	60	129	GapExp	0	11	2	30	0	target	0	1547	-1000	12729	13.328	12.012	14.644
TrackDT01	5	TrackDT	1.0	SCS215a	20120424.123016	20120424.123144	dt-generate	8	0.013313	60	10	60-180	60	86	GapExp	0	12	2	1	1	distractor	0	3897	-1000	11729	13.328	11.271	15.371
TrackDT01	5	TrackDT	1.0	SCS215a	20120424.123016	20120424.123152	dt-generate	8	0.013313	60	10	60-180	60	161	GapExp	0	13	2	1	1	target	1	1203	399	12128	13.328	13.304	13.346
TrackDT01	5	TrackDT	1.0	SCS215a	20120424.123016	20120424.123159	dt-generate	8	0.013313	60	10	60-180	60	135	GapExp	0	14	2	1	0	target	0	1315	-1000	11128	13.328	13.308	13.351
TrackDT01	5	TrackDT	1.0	SCS215a	20120424.123016	20120424.123206	dt-generate	8	0.013313	60	10	60-180	60	108	GapExp	0	15	2	3	0	distractor	1	2521	0	11128	13.328	8.585	18.091
TrackDT01	5	TrackDT	1.0	SCS215a	20120424.123016	20120424.123214	dt-generate	8	0.013313	60	10	60-180	60	95	GapExp	0	16	2	30	0	distractor	1	1983	9	11137	13.328	10.719	15.940
TrackDT01	5	TrackDT	1.0	SCS215a	20120424.123016	20120424.123221	dt-generate	8	0.013313	60	10	60-180	60	79	GapExp	0	17	2	0	0	distractor	1	1294	353	11490	13.328	12.517	14.132
TrackDT01	5	TrackDT	1.0	SCS215a	20120424.123016	20120424.123226	dt-generate	8	0.013313	60	10	60-180	60	107	GapExp	0	18	2	1	0	distractor	1	2324	0	11490	13.328	13.252	13.399
TrackDT01	5	TrackDT	1.0	SCS215a	20120424.123016	20120424.123234	dt-generate	8	0.013313	60	10	60-180	60	110	GapExp	0	19	2	3	1	distractor	0	1022	-1000	10490	13.328	9.226	17.414
TrackDT01	5	TrackDT	1.0	SCS215a	20120424.123016	20120424.123239	dt-generate	8	0.013313	60	10	60-180	60	112	GapExp	0	20	2	3	0	distractor	1	1492	254	10744	13.328	13.113	13.553
TrackDT01	5	TrackDT	1.0	SCS215a	20120424.123016	20120424.123246	dt-generate	8	0.013313	60	10	60-180	60	159	GapExp	0	21	2	1	1	target	1	1239	381	11125	13.328	12.465	14.198
TrackDT01	5	TrackDT	1.0	SCS215a	20120424.123016	20120424.123253	dt-generate	8	0.013313	60	10	60-180	60	78	GapExp	0	22	2	30	0	early	-4	-790	-1000	10125	13.328	13.090	13.560
TrackDT01	5	TrackDT	1.0	SCS215a	20120424.123016	20120424.123300	dt-generate	8	0.013313	60	10	60-180	60	176	GapExp	0	23	2	3	1	target	1	1014	493	10618	13.328	13.293	13.353
TrackDT01	5	TrackDT	1.0	SCS215a	20120424.123016	20120424.123307	dt-generate	8	0.013313	60	10	60-180	60	129	GapExp	0	24	2	3	0	distractor	1	1579	211	10829	13.328	13.029	13.632
TrackDT01	5	TrackDT	1.0	SCS215a	20120424.123016	20120424.123314	dt-generate	8	0.013313	60	10	60-180	60	147	GapExp	0	25	2	30	1	target	1	654	673	11502	13.328	13.098	13.552
TrackDT01	5	TrackDT	1.0	SCS215a	20120424.123016	20120424.123321	dt-generate	8	0.013313	60	10	60-180	60	133	GapExp	0	26	2	3	1	early	-4	-1386	-1000	10502	13.328	9.906	16.745
TrackDT01	5	TrackDT	1.0	SCS215a	20120424.123016	20120424.123328	dt-generate	8	0.013313	60	10	60-180	60	78	GapExp	0	27	2	1	1	target	1	1649	176	10678	13.328	13.019	13.630
TrackDT01	5	TrackDT	1.0	SCS215a	20120424.123016	20120424.123334	dt-generate	8	0.013313	60	10	60-180	60	63	GapExp	0	28	2	3	0	distractor	1	1053	474	11152	13.328	9.634	17.046
TrackDT01	5	TrackDT	1.0	SCS215a	20120424.123016	20120424.123339	dt-generate	8	0.013313	60	10	60-180	60	72	GapExp	0	29	2	30	0	distractor	1	580	710	11862	13.328	9.739	16.923
TrackDT01	5	TrackDT	1.0	SCS215a	20120424.123016	20120424.123344	dt-generate	8	0.013313	60	10	60-180	60	90	GapExp	0	30	2	0	1	target	1	947	527	12389	13.328	13.304	13.348
TrackDT01	5	TrackDT	1.0	SCS215a	20120424.123016	20120424.123350	dt-generate	8	0.013313	60	10	60-180	60	177	GapExp	0	31	2	3	1	target	1	827	587	12976	13.328	13.301	13.348
TrackDT01	5	TrackDT	1.0	SCS215a	20120424.123016	20120424.123357	dt-generate	8	0.013313	60	10	60-180	60	135	GapExp	0	32	2	1	0	distractor	1	555	723	13699	13.328	13.012	13.656
TrackDT01	5	TrackDT	1.0	SCS215a	20120424.123016	20120424.123403	dt-generate	8	0.013313	60	10	60-180	60	124	GapExp	0	33	2	1	0	distractor	1	1182	409	14108	13.328	11.804	14.835
TrackDT01	5	TrackDT	1.0	SCS215a	20120424.123016	20120424.123409	dt-generate	8	0.013313	60	10	60-180	60	113	GapExp	0	34	2	3	1	distractor	0	2260	-1000	13108	13.328	13.106	13.538
TrackDT01	5	TrackDT	1.0	SCS215a	20120424.123016	20120424.123416	dt-generate	8	0.013313	60	10	60-180	60	64	GapExp	0	35	2	3	1	target	1	901	550	13658	13.328	12.180	14.492
TrackDT01	5	TrackDT	1.0	SCS215a	20120424.123016	20120424.123422	dt-generate	8	0.013313	60	10	60-180	60	104	GapExp	0	36	2	30	0	distractor	1	651	675	14333	13.328	13.098	13.572
TrackDT01	5	TrackDT	1.0	SCS215a	20120424.123016	20120424.123428	dt-generate	8	0.013313	60	10	60-180	60	61	GapExp	0	37	2	0	1	target	1	748	626	14959	13.328	8.694	17.968
TrackDT01	5	TrackDT	1.0	SCS215a	20120424.123016	20120424.123433	dt-generate	8	0.013313	60	10	60-180	60	73	GapExp	0	38	2	0	0	distractor	1	951	525	15484	13.328	13.308	13.345
TrackDT01	5	TrackDT	1.0	SCS215a	20120424.123016	20120424.123438	dt-generate	8	0.013313	60	10	60-180	60	116	GapExp	0	39	2	0	1	early	-4	-475	-1000	14484	13.328	8.693	17.969
TrackDT01	5	TrackDT	1.0	SCS215a	20120424.123016	20120424.123445	dt-generate	8	0.013313	60	10	60-180	60	134	GapExp	0	40	2	3	0	distractor	1	610	695	15179	13.328	13.086	13.572
TrackDT01	5	TrackDT	1.0	SCS215a	20120424.123016	20120424.123451	dt-generate	8	0.013313	60	10	60-180	60	158	GapExp	0	41	2	30	1	early	-4	-657	-1000	14179	13.328	13.000	13.671
TrackDT01	5	TrackDT	1.0	SCS215a	20120424.123016	20120424.123458	dt-generate	8	0.013313	60	10	60-180	60	176	GapExp	0	42	2	1	0	distractor	1	221	890	15069	13.328	10.979	15.678
TrackDT01	5	TrackDT	1.0	SCS215a	20120424.123016	20120424.123504	dt-generate	8	0.013313	60	10	60-180	60	79	GapExp	0	43	2	0	0	distractor	1	1281	360	15429	13.328	13.099	13.559
TrackDT01	5	TrackDT	1.0	SCS215a	20120424.123016	20120424.123510	dt-generate	8	0.013313	60	10	60-180	60	68	GapExp	0	44	2	0	1	target	1	976	512	15941	13.328	13.253	13.402
TrackDT01	5	TrackDT	1.0	SCS215a	20120424.123016	20120424.123515	dt-generate	8	0.013313	60	10	60-180	60	100	GapExp	0	45	2	30	1	distractor	0	964	-1000	14941	13.328	12.556	14.101
TrackDT01	5	TrackDT	1.0	SCS215a	20120424.123016	20120424.123521	dt-generate	8	0.013313	60	10	60-180	60	142	GapExp	0	46	2	3	1	target	1	6602	0	14941	13.328	13.282	13.366
TrackDT01	5	TrackDT	1.0	SCS215a	20120424.123016	20120424.123533	dt-generate	8	0.013313	60	10	60-180	60	63	GapExp	0	47	2	3	0	distractor	1	627	687	15628	13.328	13.092	13.566
TrackDT01	5	TrackDT	1.0	SCS215a	20120424.123016	20120424.123539	dt-generate	8	0.013313	60	10	60-180	60	61	GapExp	0	48	2	30	0	distractor	1	432	784	16412	13.328	13.259	13.399
TrackDT01	5	TrackDT	1.0	SCS215a	20120424.123016	20120424.123544	dt-generate	8	0.013313	60	10	60-180	60	84	GapExp	0	49	2	1	1	target	1	1326	337	16749	13.328	13.306	13.350
TrackDT01	5	TrackDT	1.0	SCS215a	20120424.123016	20120424.123550	dt-generate	8	0.013313	60	10	60-180	60	159	GapExp	0	50	2	30	1	distractor	0	167	-1000	15749	13.328	13.303	13.349
TrackDT01	5	TrackDT	1.0	SCS215a	20120424.123016	20120424.123614	dt-generate	8	0.013313	60	10	60-180	60	175	GapExp	0	51	2	3	0	distractor	1	1394	303	16052	13.328	13.307	13.347
TrackDT01	5	TrackDT	1.0	SCS215a	20120424.123016	20120424.123621	dt-generate	8	0.013313	60	10	60-180	60	113	GapExp	0	52	2	1	0	target	0	1346	-1000	15052	13.328	13.106	13.545
TrackDT01	5	TrackDT	1.0	SCS215a	20120424.123016	20120424.123628	dt-generate	8	0.013313	60	10	60-180	60	99	GapExp	0	53	2	1	0	distractor	1	1061	470	15522	13.328	10.000	16.662
TrackDT01	5	TrackDT	1.0	SCS215a	20120424.123016	20120424.123634	dt-generate	8	0.013313	60	10	60-180	60	178	GapExp	0	54	2	30	0	target	0	1510454	-1000	14522	13.328	8.134	18.535
TrackDT01	5	TrackDT	1.0	SCS215a	20120424.123016	20120424.123640	dt-generate	8	0.013313	60	10	60-180	60	168	GapExp	0	55	2	1	0	distractor	1	1858	71	14593	13.328	13.306	13.352
TrackDT01	5	TrackDT	1.0	SCS215a	20120424.123016	20120424.123647	dt-generate	8	0.013313	60	10	60-180	60	68	GapExp	0	56	2	1	0	distractor	1	896	552	15145	13.328	13.307	13.346
TrackDT01	5	TrackDT	1.0	SCS215a	20120424.123016	20120424.123653	dt-generate	8	0.013313	60	10	60-180	60	87	GapExp	0	57	2	30	0	target	0	1093	-1000	14145	13.328	13.272	13.376
TrackDT01	5	TrackDT	1.0	SCS215a	20120424.123016	20120424.123659	dt-generate	8	0.013313	60	10	60-180	60	90	GapExp	0	58	2	0	1	distractor	0	463	-1000	13145	13.328	13.298	13.349
TrackDT01	5	TrackDT	1.0	SCS215a	20120424.123016	20120424.123704	dt-generate	8	0.013313	60	10	60-180	60	89	GapExp	0	59	2	0	1	early	-4	-186	-1000	12145	13.328	12.978	13.672
TrackDT01	5	TrackDT	1.0	SCS215a	20120424.123016	20120424.123709	dt-generate	8	0.013313	60	10	60-180	60	168	GapExp	0	60	2	1	1	distractor	0	917	-1000	11145	13.328	9.489	17.153
TrackDT01	5	TrackDT	1.0	SCS215a	20120424.123016	20120424.123716	dt-generate	8	0.013313	60	10	60-180	60	175	GapExp	0	61	2	0	0	distractor	1	1521	240	11385	13.328	12.012	14.647
TrackDT01	5	TrackDT	1.0	SCS215a	20120424.123016	20120424.123724	dt-generate	8	0.013313	60	10	60-180	60	94	GapExp	0	62	2	30	1	distractor	0	933	-1000	10385	13.328	12.935	13.728
TrackDT01	5	TrackDT	1.0	SCS215a	20120424.123016	20120424.123730	dt-generate	8	0.013313	60	10	60-180	60	153	GapExp	0	63	2	0	1	distractor	0	952	-1000	9385	13.328	13.307	13.355
TrackDT01	5	TrackDT	1.0	SCS215a	20120424.123016	20120424.123736	dt-generate	8	0.013313	60	10	60-180	60	137	GapExp	0	64	2	30	0	distractor	1	646	677	10062	13.328	13.242	13.414
TrackDT01	5	TrackDT	1.0	SCS215a	20120424.123016	20120424.123742	dt-generate	8	0.013313	60	10	60-180	60	95	GapExp	0	65	2	3	1	target	1	1329	336	10398	13.328	13.286	13.363
TrackDT01	5	TrackDT	1.0	SCS215a	20120424.123016	20120424.123749	dt-generate	8	0.013313	60	10	60-180	60	155	GapExp	0	66	2	30	1	distractor	0	2340	-1000	9398	13.328	13.296	13.348
TrackDT01	5	TrackDT	1.0	SCS215a	20120424.123016	20120424.123757	dt-generate	8	0.013313	60	10	60-180	60	151	GapExp	0	67	2	0	0	distractor	1	588	706	10104	13.328	12.473	14.187
TrackDT01	5	TrackDT	1.0	SCS215a	20120424.123016	20120424.123803	dt-generate	8	0.013313	60	10	60-180	60	82	GapExp	0	68	2	30	1	target	1	656	672	10776	13.328	13.302	13.350
TrackDT01	5	TrackDT	1.0	SCS215a	20120424.123016	20120424.123809	dt-generate	8	0.013313	60	10	60-180	60	78	GapExp	0	69	2	0	0	distractor	1	1102	449	11225	13.328	13.290	13.379
TrackDT01	5	TrackDT	1.0	SCS215a	20120424.123016	20120424.123815	dt-generate	8	0.013313	60	10	60-180	60	176	GapExp	0	70	2	30	1	target	1	955	523	11748	13.328	10.343	16.312
TrackDT01	5	TrackDT	1.0	SCS215a	20120424.123016	20120424.123822	dt-generate	8	0.013313	60	10	60-180	60	167	GapExp	0	71	2	30	1	target	1	1173	414	12162	13.328	13.085	13.550
TrackDT01	5	TrackDT	1.0	SCS215a	20120424.123016	20120424.123830	dt-generate	8	0.013313	60	10	60-180	60	168	GapExp	0	72	2	0	1	distractor	0	450	-1000	11162	13.328	13.307	13.349
TrackDT01	5	TrackDT	1.0	SCS215a	20120424.123016	20120424.123836	dt-generate	8	0.013313	60	10	60-180	60	102	GapExp	0	73	2	1	0	distractor	1	1162	419	11581	13.328	9.196	17.491
TrackDT01	5	TrackDT	1.0	SCS215a	20120424.123016	20120424.123842	dt-generate	8	0.013313	60	10	60-180	60	95	GapExp	0	74	2	0	1	target	1	2625	0	11581	13.328	5.546	21.112
TrackDT01	5	TrackDT	1.0	SCS215a	20120424.123016	20120424.123849	dt-generate	8	0.013313	60	10	60-180	60	83	GapExp	0	75	2	30	1	target	1	1035	483	12064	13.328	13.087	13.557
TrackDT01	5	TrackDT	1.0	SCS215a	20120424.123016	20120424.123855	dt-generate	8	0.013313	60	10	60-180	60	156	GapExp	0	76	2	1	0	distractor	1	501	750	12814	13.328	9.659	17.011
TrackDT01	5	TrackDT	1.0	SCS215a	20120424.123016	20120424.123901	dt-generate	8	0.013313	60	10	60-180	60	109	GapExp	0	77	2	3	1	early	-4	-694	-1000	11814	13.328	13.309	13.354
TrackDT01	5	TrackDT	1.0	SCS215a	20120424.123016	20120424.123909	dt-generate	8	0.013313	60	10	60-180	60	108	GapExp	0	78	2	30	0	distractor	1	514	743	12557	13.328	11.952	14.712
TrackDT01	5	TrackDT	1.0	SCS215a	20120424.123016	20120424.123914	dt-generate	8	0.013313	60	10	60-180	60	86	GapExp	0	79	2	30	0	distractor	1	1921	40	12597	13.328	13.297	13.349
TrackDT01	5	TrackDT	1.0	SCS215a	20120424.123016	20120424.123921	dt-generate	8	0.013313	60	10	60-180	60	96	GapExp	0	80	2	1	0	target	0	2005	-1000	11597	13.328	12.960	13.710
TrackDT01	5	TrackDT	1.0	SCS215a	20120424.123016	20120424.123928	dt-generate	8	0.013313	60	10	60-180	60	104	GapExp	0	81	2	1	1	distractor	0	2979	-1000	10597	13.328	10.699	15.951
TrackDT01	5	TrackDT	1.0	SCS215a	20120424.123016	20120424.123936	dt-generate	8	0.013313	60	10	60-180	60	161	GapExp	0	82	2	30	1	target	1	1459	271	10868	13.328	11.657	15.002
TrackDT01	5	TrackDT	1.0	SCS215a	20120424.123016	20120424.123944	dt-generate	8	0.013313	60	10	60-180	60	156	GapExp	0	83	2	0	1	distractor	0	734	-1000	9868	13.328	13.092	13.551
TrackDT01	5	TrackDT	1.0	SCS215a	20120424.123016	20120424.123950	dt-generate	8	0.013313	60	10	60-180	60	75	GapExp	0	84	2	30	1	distractor	0	466	-1000	8868	13.328	12.598	14.065
TrackDT01	5	TrackDT	1.0	SCS215a	20120424.123016	20120424.123955	dt-generate	8	0.013313	60	10	60-180	60	160	GapExp	0	85	2	1	1	early	-4	-1103	-1000	7868	13.328	13.306	13.348
TrackDT01	5	TrackDT	1.0	SCS215a	20120424.123016	20120424.124002	dt-generate	8	0.013313	60	10	60-180	60	119	GapExp	0	86	2	3	0	distractor	1	1519	241	8109	13.328	12.560	14.104
TrackDT01	5	TrackDT	1.0	SCS215a	20120424.123016	20120424.124009	dt-generate	8	0.013313	60	10	60-180	60	119	GapExp	0	87	2	30	1	target	1	496	752	8861	13.328	12.259	14.404
TrackDT01	5	TrackDT	1.0	SCS215a	20120424.123016	20120424.124015	dt-generate	8	0.013313	60	10	60-180	60	142	GapExp	0	88	2	0	1	target	1	1462	269	9130	13.328	13.104	13.565
TrackDT01	5	TrackDT	1.0	SCS215a	20120424.123016	20120424.124022	dt-generate	8	0.013313	60	10	60-180	60	100	GapExp	0	89	2	3	0	distractor	1	656	672	9802	13.328	13.094	13.565
TrackDT01	5	TrackDT	1.0	SCS215a	20120424.123016	20120424.124027	dt-generate	8	0.013313	60	10	60-180	60	139	GapExp	0	90	2	3	1	distractor	0	1029	-1000	8802	13.328	13.105	13.546
TrackDT01	5	TrackDT	1.0	SCS215a	20120424.123016	20120424.124033	dt-generate	8	0.013313	60	10	60-180	60	116	GapExp	0	91	2	30	1	target	1	1231	385	9187	13.328	13.112	13.551
TrackDT01	5	TrackDT	1.0	SCS215a	20120424.123016	20120424.124041	dt-generate	8	0.013313	60	10	60-180	60	101	GapExp	0	92	2	0	1	target	1	904	548	9735	13.328	13.247	13.416
TrackDT01	5	TrackDT	1.0	SCS215a	20120424.123016	20120424.124046	dt-generate	8	0.013313	60	10	60-180	60	159	GapExp	0	93	2	0	0	target	0	1503	-1000	8735	13.328	5.507	21.148
TrackDT01	5	TrackDT	1.0	SCS215a	20120424.123016	20120424.124053	dt-generate	8	0.013313	60	10	60-180	60	67	GapExp	0	94	2	1	1	distractor	0	1449	-1000	7735	13.328	13.308	13.348
TrackDT01	5	TrackDT	1.0	SCS215a	20120424.123016	20120424.124059	dt-generate	8	0.013313	60	10	60-180	60	73	GapExp	0	95	2	3	1	target	1	783	609	8344	13.328	13.304	13.352
TrackDT01	5	TrackDT	1.0	SCS215a	20120424.123016	20120424.124104	dt-generate	8	0.013313	60	10	60-180	60	172	GapExp	0	96	2	0	0	distractor	1	892	554	8898	13.328	7.796	18.858
TrackDT01	5	TrackDT	1.0	SCS215a	20120424.123016	20120424.124111	dt-generate	8	0.013313	60	10	60-180	60	117	GapExp	0	97	2	30	0	distractor	1	481	760	9658	13.578	13.100	40.007
TrackDT01	5	TrackDT	1.0	SCS215a	20120424.123016	20120424.124117	dt-generate	8	0.013313	60	10	60-180	60	172	GapExp	0	98	2	30	1	target	1	447	777	10435	13.452	7.404	31.664
TrackDT01	5	TrackDT	1.0	SCS215a	20120424.123016	20120424.124124	dt-generate	8	0.013313	60	10	60-180	60	90	GapExp	0	99	2	0	1	distractor	0	838	-1000	9435	13.612	4.206	30.735
TrackDT01	5	TrackDT	1.0	SCS215a	20120424.123016	20120424.124130	dt-generate	8	0.013313	60	10	60-180	60	141	GapExp	0	100	2	1	0	target	0	1667	-1000	8435	13.328	11.693	14.950
TrackDT01	5	TrackDT	1.0	SCS215a	20120424.123016	20120424.124159	dt-generate	8	0.013313	60	10	60-180	60	172	GapExp	0	101	2	30	1	distractor	0	656	-1000	7435	13.328	4.995	21.648
TrackDT01	5	TrackDT	1.0	SCS215a	20120424.123016	20120424.124206	dt-generate	8	0.013313	60	10	60-180	60	80	GapExp	0	102	2	0	0	distractor	1	685	658	8093	13.328	9.407	17.254
TrackDT01	5	TrackDT	1.0	SCS215a	20120424.123016	20120424.124211	dt-generate	8	0.013313	60	10	60-180	60	156	GapExp	0	103	2	3	0	distractor	1	363	819	8912	13.328	12.208	14.456
TrackDT01	5	TrackDT	1.0	SCS215a	20120424.123016	20120424.124217	dt-generate	8	0.013313	60	10	60-180	60	93	GapExp	0	104	2	3	0	distractor	1	1180	410	9322	13.328	13.308	13.346
TrackDT01	5	TrackDT	1.0	SCS215a	20120424.123016	20120424.124223	dt-generate	8	0.013313	60	10	60-180	60	71	GapExp	0	105	2	30	0	distractor	1	531	735	10057	13.328	13.230	13.430
TrackDT01	5	TrackDT	1.0	SCS215a	20120424.123016	20120424.124228	dt-generate	8	0.013313	60	10	60-180	60	173	GapExp	0	106	2	3	0	distractor	1	714	643	10700	13.328	12.767	13.886
TrackDT01	5	TrackDT	1.0	SCS215a	20120424.123016	20120424.124235	dt-generate	8	0.013313	60	10	60-180	60	85	GapExp	0	107	2	0	1	target	1	1003	499	11199	13.328	13.093	13.551
TrackDT01	5	TrackDT	1.0	SCS215a	20120424.123016	20120424.124241	dt-generate	8	0.013313	60	10	60-180	60	113	GapExp	0	108	2	1	0	distractor	1	623	689	11888	13.328	13.099	13.563
TrackDT01	5	TrackDT	1.0	SCS215a	20120424.123016	20120424.124246	dt-generate	8	0.013313	60	10	60-180	60	167	GapExp	0	109	2	1	0	distractor	1	530	735	12623	13.328	13.085	13.557
TrackDT01	5	TrackDT	1.0	SCS215a	20120424.123016	20120424.124252	dt-generate	8	0.013313	60	10	60-180	60	104	GapExp	0	110	2	1	0	distractor	1	590	705	13328	13.328	13.297	13.354
TrackDT01	5	TrackDT	1.0	SCS215a	20120424.123016	20120424.124258	dt-generate	8	0.013313	60	10	60-180	60	163	GapExp	0	111	2	1	0	distractor	1	505	748	14076	13.328	13.302	13.349
TrackDT01	5	TrackDT	1.0	SCS215a	20120424.123016	20120424.124304	dt-generate	8	0.013313	60	10	60-180	60	103	GapExp	0	112	2	1	0	distractor	1	474	763	14839	13.328	13.308	13.344
TrackDT01	5	TrackDT	1.0	SCS215a	20120424.123016	20120424.124309	dt-generate	8	0.013313	60	10	60-180	60	180	GapExp	0	113	2	30	1	distractor	0	1497	-1000	13839	13.328	13.106	13.556
TrackDT01	5	TrackDT	1.0	SCS215a	20120424.123016	20120424.124317	dt-generate	8	0.013313	60	10	60-180	60	156	GapExp	0	114	2	3	1	target	1	1264	368	14207	13.328	13.096	13.558
TrackDT01	5	TrackDT	1.0	SCS215a	20120424.123016	20120424.124324	dt-generate	8	0.013313	60	10	60-180	60	111	GapExp	0	115	2	0	0	distractor	1	529	736	14943	13.328	11.883	14.767
TrackDT01	5	TrackDT	1.0	SCS215a	20120424.123016	20120424.124330	dt-generate	8	0.013313	60	10	60-180	60	106	GapExp	0	116	2	0	0	distractor	1	552	724	15667	13.328	13.285	13.377
TrackDT01	5	TrackDT	1.0	SCS215a	20120424.123016	20120424.124335	dt-generate	8	0.013313	60	10	60-180	60	65	GapExp	0	117	2	30	0	distractor	1	465	768	16435	13.328	7.932	18.728
TrackDT01	5	TrackDT	1.0	SCS215a	20120424.123016	20120424.124340	dt-generate	8	0.013313	60	10	60-180	60	125	GapExp	0	118	2	1	1	distractor	0	782	-1000	15435	13.328	13.305	13.352
TrackDT01	5	TrackDT	1.0	SCS215a	20120424.123016	20120424.124346	dt-generate	8	0.013313	60	10	60-180	60	93	GapExp	0	119	2	3	0	target	0	999	-1000	14435	13.328	11.947	14.712
TrackDT01	5	TrackDT	1.0	SCS215a	20120424.123016	20120424.124353	dt-generate	8	0.013313	60	10	60-180	60	133	GapExp	0	120	2	30	1	distractor	0	1673	-1000	13435	13.328	13.106	13.557
TrackDT01	5	TrackDT	1.0	SCS215a	20120424.123016	20120424.124400	dt-generate	8	0.013313	60	10	60-180	60	135	GapExp	0	121	2	0	1	distractor	0	611	-1000	12435	13.327	13.093	13.346
TrackDT01	5	TrackDT	1.0	SCS215a	20120424.123016	20120424.124406	dt-generate	8	0.013313	60	10	60-180	60	79	GapExp	0	122	2	3	1	target	1	474	763	13198	13.328	8.314	18.362
TrackDT01	5	TrackDT	1.0	SCS215a	20120424.123016	20120424.124411	dt-generate	8	0.013313	60	10	60-180	60	74	GapExp	0	123	2	0	0	distractor	1	802	599	13797	13.328	12.314	14.344
TrackDT01	5	TrackDT	1.0	SCS215a	20120424.123016	20120424.124416	dt-generate	8	0.013313	60	10	60-180	60	90	GapExp	0	124	2	1	0	distractor	1	945	528	14325	13.328	11.965	14.697
TrackDT01	5	TrackDT	1.0	SCS215a	20120424.123016	20120424.124421	dt-generate	8	0.013313	60	10	60-180	60	171	GapExp	0	125	2	1	1	target	1	407	797	15122	13.328	6.703	19.953
TrackDT01	5	TrackDT	1.0	SCS215a	20120424.123016	20120424.124428	dt-generate	8	0.013313	60	10	60-180	60	114	GapExp	0	126	2	3	0	distractor	1	1364	318	15440	13.328	9.994	16.669
TrackDT01	5	TrackDT	1.0	SCS215a	20120424.123016	20120424.124434	dt-generate	8	0.013313	60	10	60-180	60	74	GapExp	0	127	2	30	0	distractor	1	439	781	16221	13.328	13.118	13.545
TrackDT01	5	TrackDT	1.0	SCS215a	20120424.123016	20120424.124440	dt-generate	8	0.013313	60	10	60-180	60	165	GapExp	0	128	2	1	1	distractor	0	573	-1000	15221	13.328	7.272	19.410
TrackDT01	5	TrackDT	1.0	SCS215a	20120424.123016	20120424.124446	dt-generate	8	0.013313	60	10	60-180	60	61	GapExp	0	129	2	0	1	target	1	715	643	15864	13.328	7.866	18.784
TrackDT01	5	TrackDT	1.0	SCS215a	20120424.123016	20120424.124451	dt-generate	8	0.013313	60	10	60-180	60	66	GapExp	0	130	2	1	1	target	1	880	560	16424	13.316	10.968	14.567
TrackDT01	5	TrackDT	1.0	SCS215a	20120424.123016	20120424.124456	dt-generate	8	0.013313	60	10	60-180	60	113	GapExp	0	131	2	30	0	distractor	1	679	661	17085	13.328	13.302	13.350
TrackDT01	5	TrackDT	1.0	SCS215a	20120424.123016	20120424.124503	dt-generate	8	0.013313	60	10	60-180	60	145	GapExp	0	132	2	0	1	target	1	929	536	17621	13.328	13.100	13.550
TrackDT01	5	TrackDT	1.0	SCS215a	20120424.123016	20120424.124509	dt-generate	8	0.013313	60	10	60-180	60	137	GapExp	0	133	2	1	1	target	1	667	667	18288	13.328	10.857	15.796
TrackDT01	5	TrackDT	1.0	SCS215a	20120424.123016	20120424.124515	dt-generate	8	0.013313	60	10	60-180	60	107	GapExp	0	134	2	30	0	distractor	1	455	773	19061	13.328	8.930	17.715
TrackDT01	5	TrackDT	1.0	SCS215a	20120424.123016	20120424.124521	dt-generate	8	0.013313	60	10	60-180	60	97	GapExp	0	135	2	30	0	distractor	1	512	744	19805	13.328	13.100	13.550
TrackDT01	5	TrackDT	1.0	SCS215a	20120424.123016	20120424.124526	dt-generate	8	0.013313	60	10	60-180	60	118	GapExp	0	136	2	0	1	distractor	0	789	-1000	18805	13.328	13.296	13.359
TrackDT01	5	TrackDT	1.0	SCS215a	20120424.123016	20120424.124532	dt-generate	8	0.013313	60	10	60-180	60	123	GapExp	0	137	2	0	0	distractor	1	1098	451	19256	13.328	13.197	13.472
TrackDT01	5	TrackDT	1.0	SCS215a	20120424.123016	20120424.124539	dt-generate	8	0.013313	60	10	60-180	60	128	GapExp	0	138	2	0	0	distractor	1	799	601	19857	13.328	8.888	17.755
TrackDT01	5	TrackDT	1.0	SCS215a	20120424.123016	20120424.124545	dt-generate	8	0.013313	60	10	60-180	60	136	GapExp	0	139	2	30	0	distractor	1	494	753	20610	13.328	12.688	13.960
TrackDT01	5	TrackDT	1.0	SCS215a	20120424.123016	20120424.124551	dt-generate	8	0.013313	60	10	60-180	60	84	GapExp	0	140	2	30	0	distractor	1	420	790	21400	13.328	13.099	13.551
TrackDT01	5	TrackDT	1.0	SCS215a	20120424.123016	20120424.124556	dt-generate	8	0.013313	60	10	60-180	60	161	GapExp	0	141	2	3	0	distractor	1	711	645	22045	13.328	11.202	15.453
TrackDT01	5	TrackDT	1.0	SCS215a	20120424.123016	20120424.124603	dt-generate	8	0.013313	60	10	60-180	60	138	GapExp	0	142	2	0	0	distractor	1	448	776	22821	13.328	11.456	15.235
TrackDT01	5	TrackDT	1.0	SCS215a	20120424.123016	20120424.124609	dt-generate	8	0.013313	60	10	60-180	60	137	GapExp	0	143	2	0	0	distractor	1	421	790	23611	13.328	11.412	15.257
TrackDT01	5	TrackDT	1.0	SCS215a	20120424.123016	20120424.124614	dt-generate	8	0.013313	60	10	60-180	60	142	GapExp	0	144	2	30	1	target	1	551	725	24336	13.328	13.297	13.353
TrackDT01	5	TrackDT	1.0	SCS215a	20120424.123016	20120424.124621	dt-generate	8	0.013313	60	10	60-180	60	124	GapExp	0	145	2	3	0	distractor	1	302	849	25185	13.328	8.748	17.891
TrackDT01	5	TrackDT	1.0	SCS215a	20120424.123016	20120424.124626	dt-generate	8	0.013313	60	10	60-180	60	91	GapExp	0	146	2	3	0	distractor	1	323	839	26024	13.328	7.605	19.059
TrackDT01	5	TrackDT	1.0	SCS215a	20120424.123016	20120424.124631	dt-generate	8	0.013313	60	10	60-180	60	87	GapExp	0	147	2	3	1	target	1	926	537	26561	13.328	9.844	16.812
TrackDT01	5	TrackDT	1.0	SCS215a	20120424.123016	20120424.124637	dt-generate	8	0.013313	60	10	60-180	60	164	GapExp	0	148	2	0	0	distractor	1	474	763	27324	13.328	9.597	17.062
TrackDT01	5	TrackDT	1.0	SCS215a	20120424.123016	20120424.124643	dt-generate	8	0.013313	60	10	60-180	60	83	GapExp	0	149	2	3	1	distractor	0	382	-1000	26324	13.328	13.291	13.385
TrackDT01	5	TrackDT	1.0	SCS215a	20120424.123016	20120424.124648	dt-generate	8	0.013313	60	10	60-180	60	102	GapExp	0	150	2	3	1	distractor	0	449	-1000	25324	13.328	13.308	13.350
TrackDT01	5	TrackDT	1.0	SCS215a	20120424.123016	20120424.124716	dt-generate	8	0.013313	60	10	60-180	60	158	GapExp	0	151	2	1	1	distractor	0	990	-1000	24324	13.328	13.291	13.348
TrackDT01	5	TrackDT	1.0	SCS215a	20120424.123016	20120424.124723	dt-generate	8	0.013313	60	10	60-180	60	64	GapExp	0	152	2	3	0	distractor	1	860	570	24894	13.328	12.737	13.934
TrackDT01	5	TrackDT	1.0	SCS215a	20120424.123016	20120424.124728	dt-generate	8	0.013313	60	10	60-180	60	178	GapExp	0	153	2	3	1	target	1	541	730	25624	13.328	13.113	13.543
TrackDT01	5	TrackDT	1.0	SCS215a	20120424.123016	20120424.124735	dt-generate	8	0.013313	60	10	60-180	60	103	GapExp	0	154	2	1	1	distractor	0	370	-1000	24624	13.328	10.574	16.084
TrackDT01	5	TrackDT	1.0	SCS215a	20120424.123016	20120424.124740	dt-generate	8	0.013313	60	10	60-180	60	134	GapExp	0	155	2	30	1	target	1	400	800	25424	13.328	13.309	13.347
TrackDT01	5	TrackDT	1.0	SCS215a	20120424.123016	20120424.124746	dt-generate	8	0.013313	60	10	60-180	60	77	GapExp	0	156	2	1	1	distractor	0	905	-1000	24424	13.328	13.303	13.344
TrackDT01	5	TrackDT	1.0	SCS215a	20120424.123016	20120424.124751	dt-generate	8	0.013313	60	10	60-180	60	138	GapExp	0	157	2	0	1	target	1	834	583	25007	13.328	10.319	16.343
TrackDT01	5	TrackDT	1.0	SCS215a	20120424.123016	20120424.124758	dt-generate	8	0.013313	60	10	60-180	60	170	GapExp	0	158	2	3	1	distractor	0	689	-1000	24007	13.328	13.286	13.376
TrackDT01	5	TrackDT	1.0	SCS215a	20120424.123016	20120424.124804	dt-generate	8	0.013313	60	10	60-180	60	126	GapExp	0	159	2	3	1	target	1	1452	274	24281	13.328	13.106	13.537
TrackDT01	5	TrackDT	1.0	SCS215a	20120424.123016	20120424.124811	dt-generate	8	0.013313	60	10	60-180	60	123	GapExp	0	160	2	0	0	distractor	1	1048	476	24757	13.328	13.086	13.563
TrackDT01	5	TrackDT	1.0	SCS215a	20120424.123016	20120424.124817	dt-generate	8	0.013313	60	10	60-180	60	129	GapExp	0	161	2	30	1	target	1	496	752	25509	13.328	13.092	13.551
TrackDT01	5	TrackDT	1.0	SCS215a	20120424.123016	20120424.124823	dt-generate	8	0.013313	60	10	60-180	60	97	GapExp	0	162	2	0	0	distractor	1	870	565	26074	13.328	7.422	19.233
TrackDT01	5	TrackDT	1.0	SCS215a	20120424.123016	20120424.124829	dt-generate	8	0.013313	60	10	60-180	60	155	GapExp	0	163	2	3	0	distractor	1	388	806	26880	13.328	13.299	13.346
TrackDT01	5	TrackDT	1.0	SCS215a	20120424.123016	20120424.124835	dt-generate	8	0.013313	60	10	60-180	60	130	GapExp	0	164	2	1	1	distractor	0	592	-1000	25880	13.328	5.321	22.019
TrackDT01	5	TrackDT	1.0	SCS215a	20120424.123016	20120424.124841	dt-generate	8	0.013313	60	10	60-180	60	97	GapExp	0	165	2	1	1	target	1	499	751	26631	13.328	13.308	13.346
TrackDT01	5	TrackDT	1.0	SCS215a	20120424.123016	20120424.124846	dt-generate	8	0.013313	60	10	60-180	60	102	GapExp	0	166	2	0	1	target	1	1056	472	27103	13.328	13.085	13.558
TrackDT01	5	TrackDT	1.0	SCS215a	20120424.123016	20120424.124852	dt-generate	8	0.013313	60	10	60-180	60	91	GapExp	0	167	2	3	0	distractor	1	574	713	27816	13.328	13.106	13.551
TrackDT01	5	TrackDT	1.0	SCS215a	20120424.123016	20120424.124857	dt-generate	8	0.013313	60	10	60-180	60	150	GapExp	0	168	2	30	1	target	1	977	512	28328	13.328	13.106	13.558
TrackDT01	5	TrackDT	1.0	SCS215a	20120424.123016	20120424.124905	dt-generate	8	0.013313	60	10	60-180	60	85	GapExp	0	169	2	1	0	distractor	1	858	571	28899	13.444	9.852	28.306
TrackDT01	5	TrackDT	1.0	SCS215a	20120424.123016	20120424.124910	dt-generate	8	0.013313	60	10	60-180	60	140	GapExp	0	170	2	1	1	target	1	2657	0	28899	13.328	9.025	17.639
TrackDT01	5	TrackDT	1.0	SCS215a	20120424.123016	20120424.124918	dt-generate	8	0.013313	60	10	60-180	60	68	GapExp	0	171	2	3	1	target	1	1760	120	29019	13.328	13.270	13.393
TrackDT01	5	TrackDT	1.0	SCS215a	20120424.123016	20120424.124924	dt-generate	8	0.013313	60	10	60-180	60	141	GapExp	0	172	2	0	1	target	1	657	672	29691	13.328	11.885	14.820
TrackDT01	5	TrackDT	1.0	SCS215a	20120424.123016	20120424.124930	dt-generate	8	0.013313	60	10	60-180	60	70	GapExp	0	173	2	3	0	distractor	1	1090	455	30146	13.328	5.316	21.340
TrackDT01	5	TrackDT	1.0	SCS215a	20120424.123016	20120424.124936	dt-generate	8	0.013313	60	10	60-180	60	100	GapExp	0	174	2	3	1	target	1	1620	190	30336	13.328	6.809	19.834
TrackDT01	5	TrackDT	1.0	SCS215a	20120424.123016	20120424.124943	dt-generate	8	0.013313	60	10	60-180	60	151	GapExp	0	175	2	0	0	distractor	1	1550	225	30561	13.328	13.093	13.572
TrackDT01	5	TrackDT	1.0	SCS215a	20120424.123016	20120424.124950	dt-generate	8	0.013313	60	10	60-180	60	168	GapExp	0	176	2	1	1	target	1	589	706	31267	13.328	13.115	13.550
TrackDT01	5	TrackDT	1.0	SCS215a	20120424.123016	20120424.124956	dt-generate	8	0.013313	60	10	60-180	60	115	GapExp	0	177	2	3	0	distractor	1	971	515	31782	13.328	13.106	13.564
TrackDT01	5	TrackDT	1.0	SCS215a	20120424.123016	20120424.125002	dt-generate	8	0.013313	60	10	60-180	60	140	GapExp	0	178	2	0	0	distractor	1	1545	228	32010	13.328	13.105	13.558
TrackDT01	5	TrackDT	1.0	SCS215a	20120424.123016	20120424.125009	dt-generate	8	0.013313	60	10	60-180	60	112	GapExp	0	179	2	30	1	distractor	0	1418	-1000	31010	13.328	13.308	13.348
TrackDT01	5	TrackDT	1.0	SCS215a	20120424.123016	20120424.125016	dt-generate	8	0.013313	60	10	60-180	60	129	GapExp	0	180	2	1	0	distractor	1	944	528	31538	13.328	8.171	18.486
TrackDT01	5	TrackDT	1.0	SCS215a	20120424.123016	20120424.125022	dt-generate	8	0.013313	60	10	60-180	60	117	GapExp	0	181	2	30	0	distractor	1	1402	299	31837	13.328	13.102	13.556
TrackDT01	5	TrackDT	1.0	SCS215a	20120424.123016	20120424.125029	dt-generate	8	0.013313	60	10	60-180	60	63	GapExp	0	182	2	30	0	distractor	1	1170	415	32252	13.328	9.334	17.302
TrackDT01	5	TrackDT	1.0	SCS215a	20120424.123016	20120424.125035	dt-generate	8	0.013313	60	10	60-180	60	72	GapExp	0	183	2	0	1	distractor	0	1123	-1000	31252	13.328	13.308	13.355
TrackDT01	5	TrackDT	1.0	SCS215a	20120424.123016	20120424.125041	dt-generate	8	0.013313	60	10	60-180	60	124	GapExp	0	184	2	3	0	distractor	1	630	685	31937	13.328	13.264	13.385
TrackDT01	5	TrackDT	1.0	SCS215a	20120424.123016	20120424.125047	dt-generate	8	0.013313	60	10	60-180	60	173	GapExp	0	185	2	1	1	target	1	681	660	32597	13.328	6.378	20.263
TrackDT01	5	TrackDT	1.0	SCS215a	20120424.123016	20120424.125053	dt-generate	8	0.013313	60	10	60-180	60	151	GapExp	0	186	2	1	0	distractor	1	697	652	33249	13.328	13.294	13.365
TrackDT01	5	TrackDT	1.0	SCS215a	20120424.123016	20120424.125059	dt-generate	8	0.013313	60	10	60-180	60	128	GapExp	0	187	2	3	0	distractor	1	485	758	34007	13.328	13.099	13.559
TrackDT01	5	TrackDT	1.0	SCS215a	20120424.123016	20120424.125105	dt-generate	8	0.013313	60	10	60-180	60	170	GapExp	0	188	2	30	0	early	-4	-350	-1000	33007	13.328	10.228	16.452
TrackDT01	5	TrackDT	1.0	SCS215a	20120424.123016	20120424.125112	dt-generate	8	0.013313	60	10	60-180	60	159	GapExp	0	189	2	1	0	distractor	1	369	816	33823	13.328	8.324	18.337
TrackDT01	5	TrackDT	1.0	SCS215a	20120424.123016	20120424.125118	dt-generate	8	0.013313	60	10	60-180	60	122	GapExp	0	190	2	0	1	target	1	877	562	34385	13.328	13.303	13.349
TrackDT01	5	TrackDT	1.0	SCS215a	20120424.123016	20120424.125124	dt-generate	8	0.013313	60	10	60-180	60	70	GapExp	0	191	2	0	0	distractor	1	559	721	35106	13.328	13.161	13.505
TrackDT01	5	TrackDT	1.0	SCS215a	20120424.123016	20120424.125129	dt-generate	8	0.013313	60	10	60-180	60	74	GapExp	0	192	2	0	1	target	1	884	558	35664	13.328	13.307	13.347
TrackDT01	5	TrackDT	1.0	SCS215a	20120424.123016	20120424.125135	dt-generate	8	0.013313	60	10	60-180	60	102	GapExp	0	193	2	0	0	target	0	2738	-1000	34664	13.328	13.112	13.552
TrackDT01	5	TrackDT	1.0	SCS215a	20120424.123016	20120424.125143	dt-generate	8	0.013313	60	10	60-180	60	92	GapExp	0	194	2	1	1	target	1	869	566	35230	13.328	13.099	13.564
TrackDT01	5	TrackDT	1.0	SCS215a	20120424.123016	20120424.125148	dt-generate	8	0.013313	60	10	60-180	60	88	GapExp	0	195	2	30	0	distractor	1	545	728	35958	13.328	13.295	13.360
TrackDT01	5	TrackDT	1.0	SCS215a	20120424.123016	20120424.125154	dt-generate	8	0.013313	60	10	60-180	60	132	GapExp	0	196	2	3	1	target	1	718	641	36599	13.328	13.104	13.558
TrackDT01	5	TrackDT	1.0	SCS215a	20120424.123016	20120424.125200	dt-generate	8	0.013313	60	10	60-180	60	146	GapExp	0	197	2	3	1	target	1	744	628	37227	13.328	13.159	13.488
TrackDT01	5	TrackDT	1.0	SCS215a	20120424.123016	20120424.125206	dt-generate	8	0.013313	60	10	60-180	60	62	GapExp	0	198	2	30	1	target	1	1690	155	37382	13.328	12.436	14.207
TrackDT01	5	TrackDT	1.0	SCS215a	20120424.123016	20120424.125213	dt-generate	8	0.013313	60	10	60-180	60	153	GapExp	0	199	2	1	0	distractor	1	708	646	38028	13.328	5.087	21.566
TrackDT01	5	TrackDT	1.0	SCS215a	20120424.123016	20120424.125219	dt-generate	8	0.013313	60	10	60-180	60	152	GapExp	0	200	2	3	1	target	1	872	564	38592	13.328	13.308	13.353
TrackDT01	5	TrackDT	1.0	SCS215a	20120424.125259	20120424.125316	single-task	8	0.013327	60	10	60-180	60	160	GapPrac	1	1	2	1	1	target	1	568	716	39308	13.328	13.307	13.344
TrackDT01	5	TrackDT	1.0	SCS215a	20120424.125259	20120424.125323	single-task	8	0.013327	60	10	60-180	60	78	GapPrac	1	2	2	3	1	target	1	679	661	39969	13.328	13.294	13.358
TrackDT01	5	TrackDT	1.0	SCS215a	20120424.125259	20120424.125328	single-task	8	0.013327	60	10	60-180	60	109	GapPrac	1	3	2	30	1	target	1	383	809	40778	13.328	13.308	13.347
TrackDT01	5	TrackDT	1.0	SCS215a	20120424.125259	20120424.125334	single-task	8	0.013327	60	10	60-180	60	172	GapPrac	1	4	2	0	1	target	1	389	806	41584	13.328	8.528	18.134
TrackDT01	5	TrackDT	1.0	SCS215a	20120424.125259	20120424.125340	single-task	8	0.013327	60	10	60-180	60	115	GapPrac	1	5	2	3	0	distractor	1	428	786	42370	13.328	13.092	13.552
TrackDT01	5	TrackDT	1.0	SCS215a	20120424.125259	20120424.125345	single-task	8	0.013327	60	10	60-180	60	98	GapPrac	1	6	2	3	1	target	1	342	829	43199	13.328	13.306	13.346
TrackDT01	5	TrackDT	1.0	SCS215a	20120424.125259	20120424.125350	single-task	8	0.013327	60	10	60-180	60	153	GapPrac	1	7	2	30	1	target	1	381	810	44009	13.328	10.459	16.195
TrackDT01	5	TrackDT	1.0	SCS215a	20120424.125259	20120424.125357	single-task	8	0.013327	60	10	60-180	60	136	GapPrac	1	8	2	0	1	target	1	578	711	44720	13.328	7.856	18.808
TrackDT01	5	TrackDT	1.0	SCS215a	20120424.125259	20120424.125403	single-task	8	0.013327	60	10	60-180	60	107	GapPrac	1	9	2	30	1	target	1	302	849	45569	13.328	13.295	13.344
TrackDT01	5	TrackDT	1.0	SCS215a	20120424.125259	20120424.125409	single-task	8	0.013327	60	10	60-180	60	126	GapPrac	1	10	2	1	0	distractor	1	471	765	46334	13.328	12.064	14.592
TrackDT01	5	TrackDT	1.0	SCS215a	20120424.125259	20120424.125414	single-task	8	0.013327	60	10	60-180	60	166	GapPrac	1	11	2	30	0	target	0	525	-1000	45334	13.328	11.206	15.456
TrackDT01	5	TrackDT	1.0	SCS215a	20120424.125259	20120424.125421	single-task	8	0.013327	60	10	60-180	60	89	GapPrac	1	12	2	3	0	distractor	1	469	766	46100	13.328	13.152	13.519
TrackDT01	5	TrackDT	1.0	SCS215a	20120424.125259	20120424.125426	single-task	8	0.013327	60	10	60-180	60	149	GapPrac	1	13	2	30	0	distractor	1	463	769	46869	13.328	8.535	18.122
TrackDT01	5	TrackDT	1.0	SCS215a	20120424.125259	20120424.125433	single-task	8	0.013327	60	10	60-180	60	151	GapPrac	1	14	2	1	1	target	1	511	745	47614	13.328	4.889	21.752
TrackDT01	5	TrackDT	1.0	SCS215a	20120424.125259	20120424.125439	single-task	8	0.013327	60	10	60-180	60	177	GapPrac	1	15	2	0	0	distractor	1	602	699	48313	13.328	13.310	13.348
TrackDT01	5	TrackDT	1.0	SCS215a	20120424.125259	20120424.125445	single-task	8	0.013327	60	10	60-180	60	126	GapPrac	1	16	2	1	1	target	1	438	781	49094	13.328	10.860	15.796
TrackDT01	5	TrackDT	1.0	SCS215a	20120424.125259	20120424.125451	single-task	8	0.013327	60	10	60-180	60	154	GapPrac	1	17	2	0	1	target	1	498	751	49845	13.328	13.112	13.544
TrackDT01	5	TrackDT	1.0	SCS215a	20120424.125259	20120424.125457	single-task	8	0.013327	60	10	60-180	60	100	GapPrac	1	18	2	0	0	distractor	1	431	785	50630	13.328	8.780	17.884
TrackDT01	5	TrackDT	1.0	SCS215a	20120424.125259	20120424.125502	single-task	8	0.013327	60	10	60-180	60	123	GapPrac	1	19	2	3	1	target	1	414	793	51423	13.328	13.309	13.345
TrackDT01	5	TrackDT	1.0	SCS215a	20120424.125259	20120424.125508	single-task	8	0.013327	60	10	60-180	60	162	GapPrac	1	20	2	1	0	target	0	675	-1000	50423	13.328	8.011	18.639
TrackDT01	5	TrackDT	1.0	SCS215a	20120424.125524	20120424.125531	single-task	8	0.013328	60	10	60-180	60	145	GapExp	1	1	2	3	1	target	1	415	793	51216	13.328	3.912	22.751
TrackDT01	5	TrackDT	1.0	SCS215a	20120424.125524	20120424.125538	single-task	8	0.013328	60	10	60-180	60	78	GapExp	1	2	2	30	0	distractor	1	661	670	51886	13.328	10.799	15.865
TrackDT01	5	TrackDT	1.0	SCS215a	20120424.125524	20120424.125543	single-task	8	0.013328	60	10	60-180	60	99	GapExp	1	3	2	0	1	target	1	482	759	52645	13.328	8.973	17.695
TrackDT01	5	TrackDT	1.0	SCS215a	20120424.125524	20120424.125548	single-task	8	0.013328	60	10	60-180	60	121	GapExp	1	4	2	0	0	target	0	787	-1000	51645	13.328	13.297	13.349
TrackDT01	5	TrackDT	1.0	SCS215a	20120424.125524	20120424.125554	single-task	8	0.013328	60	10	60-180	60	75	GapExp	1	5	2	30	1	distractor	0	366	-1000	50645	13.328	12.677	13.985
TrackDT01	5	TrackDT	1.0	SCS215a	20120424.125524	20120424.125559	single-task	8	0.013328	60	10	60-180	60	126	GapExp	1	6	2	1	1	target	1	454	773	51418	13.328	13.104	13.551
TrackDT01	5	TrackDT	1.0	SCS215a	20120424.125524	20120424.125605	single-task	8	0.013328	60	10	60-180	60	99	GapExp	1	7	2	1	0	distractor	1	448	776	52194	13.328	8.053	18.617
TrackDT01	5	TrackDT	1.0	SCS215a	20120424.125524	20120424.125611	single-task	8	0.013328	60	10	60-180	60	91	GapExp	1	8	2	3	0	distractor	1	457	772	52966	13.328	11.757	14.906
TrackDT01	5	TrackDT	1.0	SCS215a	20120424.125524	20120424.125616	single-task	8	0.013328	60	10	60-180	60	61	GapExp	0	9	2	30	1	target	1	373	814	53780	13.328	13.299	13.351
TrackDT01	5	TrackDT	1.0	SCS215a	20120424.125524	20120424.125621	single-task	8	0.013328	60	10	60-180	60	62	GapExp	0	10	2	1	0	distractor	1	411	795	54575	13.328	11.595	15.048
TrackDT01	5	TrackDT	1.0	SCS215a	20120424.125524	20120424.125626	single-task	8	0.013328	60	10	60-180	60	92	GapExp	0	11	2	1	0	distractor	1	886	557	55132	13.328	7.417	19.226
TrackDT01	5	TrackDT	1.0	SCS215a	20120424.125524	20120424.125631	single-task	8	0.013328	60	10	60-180	60	146	GapExp	0	12	2	3	0	distractor	1	414	793	55925	13.328	13.238	13.417
TrackDT01	5	TrackDT	1.0	SCS215a	20120424.125524	20120424.125637	single-task	8	0.013328	60	10	60-180	60	124	GapExp	0	13	2	1	0	distractor	1	402	799	56724	13.328	11.740	14.901
TrackDT01	5	TrackDT	1.0	SCS215a	20120424.125524	20120424.125643	single-task	8	0.013328	60	10	60-180	60	146	GapExp	0	14	2	30	0	distractor	1	363	819	57543	13.328	8.269	18.393
TrackDT01	5	TrackDT	1.0	SCS215a	20120424.125524	20120424.125649	single-task	8	0.013328	60	10	60-180	60	127	GapExp	0	15	2	3	1	target	1	573	714	58257	13.328	13.308	13.345
TrackDT01	5	TrackDT	1.0	SCS215a	20120424.125524	20120424.125655	single-task	8	0.013328	60	10	60-180	60	145	GapExp	0	16	2	30	0	distractor	1	589	706	58963	13.328	12.314	14.329
TrackDT01	5	TrackDT	1.0	SCS215a	20120424.125524	20120424.125701	single-task	8	0.013328	60	10	60-180	60	132	GapExp	0	17	2	30	1	target	1	339	831	59794	13.328	10.113	16.542
TrackDT01	5	TrackDT	1.0	SCS215a	20120424.125524	20120424.125707	single-task	8	0.013328	60	10	60-180	60	62	GapExp	0	18	2	0	1	distractor	0	542	-1000	58794	13.328	13.308	13.346
TrackDT01	5	TrackDT	1.0	SCS215a	20120424.125524	20120424.125712	single-task	8	0.013328	60	10	60-180	60	73	GapExp	0	19	2	3	0	distractor	1	468	766	59560	13.328	13.308	13.347
TrackDT01	5	TrackDT	1.0	SCS215a	20120424.125524	20120424.125717	single-task	8	0.013328	60	10	60-180	60	70	GapExp	0	20	2	1	1	target	1	499	751	60311	13.328	7.773	18.883
TrackDT01	5	TrackDT	1.0	SCS215a	20120424.125524	20120424.125722	single-task	8	0.013328	60	10	60-180	60	159	GapExp	0	21	2	1	1	target	1	492	754	61065	13.328	12.063	14.596
TrackDT01	5	TrackDT	1.0	SCS215a	20120424.125524	20120424.125728	single-task	8	0.013328	60	10	60-180	60	150	GapExp	0	22	2	0	1	target	1	594	703	61768	13.328	9.722	16.933
TrackDT01	5	TrackDT	1.0	SCS215a	20120424.125524	20120424.125734	single-task	8	0.013328	60	10	60-180	60	120	GapExp	0	23	2	1	1	target	1	551	725	62493	13.328	13.308	13.349
TrackDT01	5	TrackDT	1.0	SCS215a	20120424.125524	20120424.125740	single-task	8	0.013328	60	10	60-180	60	132	GapExp	0	24	2	30	0	distractor	1	481	760	63253	13.328	13.297	13.353
TrackDT01	5	TrackDT	1.0	SCS215a	20120424.125524	20120424.125746	single-task	8	0.013328	60	10	60-180	60	66	GapExp	0	25	2	3	1	target	1	670	665	63918	13.328	9.009	17.640
TrackDT01	5	TrackDT	1.0	SCS215a	20120424.125524	20120424.125752	single-task	8	0.013328	60	10	60-180	60	89	GapExp	0	26	2	0	1	target	1	432	784	64702	13.328	3.363	23.279
TrackDT01	5	TrackDT	1.0	SCS215a	20120424.125524	20120424.125757	single-task	8	0.013328	60	10	60-180	60	133	GapExp	0	27	2	3	0	distractor	1	414	793	65495	13.328	13.146	13.517
TrackDT01	5	TrackDT	1.0	SCS215a	20120424.125524	20120424.125802	single-task	8	0.013328	60	10	60-180	60	128	GapExp	0	28	2	1	0	distractor	1	413	794	66289	13.328	9.418	17.244
TrackDT01	5	TrackDT	1.0	SCS215a	20120424.125524	20120424.125808	single-task	8	0.013328	60	10	60-180	60	137	GapExp	0	29	2	3	1	distractor	0	459	-1000	65289	13.328	13.098	13.564
TrackDT01	5	TrackDT	1.0	SCS215a	20120424.125524	20120424.125813	single-task	8	0.013328	60	10	60-180	60	101	GapExp	0	30	2	30	0	distractor	1	400	800	66089	13.328	12.790	13.858
TrackDT01	5	TrackDT	1.0	SCS215a	20120424.125524	20120424.125819	single-task	8	0.013328	60	10	60-180	60	173	GapExp	0	31	2	1	1	target	1	423	789	66878	13.328	13.107	13.550
TrackDT01	5	TrackDT	1.0	SCS215a	20120424.125524	20120424.125826	single-task	8	0.013328	60	10	60-180	60	109	GapExp	0	32	2	0	1	target	1	398	801	67679	13.328	13.303	13.366
TrackDT01	5	TrackDT	1.0	SCS215a	20120424.125524	20120424.125831	single-task	8	0.013328	60	10	60-180	60	62	GapExp	0	33	2	0	1	target	1	494	753	68432	13.328	11.964	14.684
TrackDT01	5	TrackDT	1.0	SCS215a	20120424.125524	20120424.125836	single-task	8	0.013328	60	10	60-180	60	108	GapExp	0	34	2	0	1	distractor	0	502	-1000	67432	13.328	7.938	18.719
TrackDT01	5	TrackDT	1.0	SCS215a	20120424.125524	20120424.125841	single-task	8	0.013328	60	10	60-180	60	149	GapExp	0	35	2	0	0	target	0	816	-1000	66432	13.328	13.105	13.551
TrackDT01	5	TrackDT	1.0	SCS215a	20120424.125524	20120424.125847	single-task	8	0.013328	60	10	60-180	60	150	GapExp	0	36	2	1	0	distractor	1	704	648	67080	13.328	13.106	13.563
TrackDT01	5	TrackDT	1.0	SCS215a	20120424.125524	20120424.125854	single-task	8	0.013328	60	10	60-180	60	136	GapExp	0	37	2	30	1	target	1	346	827	67907	13.328	5.821	20.842
TrackDT01	5	TrackDT	1.0	SCS215a	20120424.125524	20120424.125900	single-task	8	0.013328	60	10	60-180	60	108	GapExp	0	38	2	30	0	distractor	1	439	781	68688	13.328	10.450	16.206
TrackDT01	5	TrackDT	1.0	SCS215a	20120424.125524	20120424.125906	single-task	8	0.013328	60	10	60-180	60	79	GapExp	0	39	2	30	0	distractor	1	500	750	69438	13.328	10.794	15.856
TrackDT01	5	TrackDT	1.0	SCS215a	20120424.125524	20120424.125911	single-task	8	0.013328	60	10	60-180	60	72	GapExp	0	40	2	30	1	target	1	402	799	70237	13.328	13.308	13.345
TrackDT01	5	TrackDT	1.0	SCS215a	20120424.125524	20120424.125916	single-task	8	0.013328	60	10	60-180	60	148	GapExp	0	41	2	0	1	target	1	1185	408	70645	13.328	13.098	13.558
TrackDT01	5	TrackDT	1.0	SCS215a	20120424.125524	20120424.125923	single-task	8	0.013328	60	10	60-180	60	68	GapExp	0	42	2	1	0	distractor	1	521	740	71385	13.328	12.039	14.617
TrackDT01	5	TrackDT	1.0	SCS215a	20120424.125524	20120424.125928	single-task	8	0.013328	60	10	60-180	60	138	GapExp	0	43	2	3	1	target	1	519	741	72126	13.328	13.308	13.356
TrackDT01	5	TrackDT	1.0	SCS215a	20120424.125524	20120424.125934	single-task	8	0.013328	60	10	60-180	60	101	GapExp	0	44	2	30	0	distractor	1	415	793	72919	13.328	7.453	19.204
TrackDT01	5	TrackDT	1.0	SCS215a	20120424.125524	20120424.125940	single-task	8	0.013328	60	10	60-180	60	75	GapExp	0	45	2	3	1	target	1	885	558	73477	13.328	10.188	16.482
TrackDT01	5	TrackDT	1.0	SCS215a	20120424.125524	20120424.125945	single-task	8	0.013328	60	10	60-180	60	124	GapExp	0	46	2	30	0	distractor	1	463	769	74246	13.328	8.959	17.699
TrackDT01	5	TrackDT	1.0	SCS215a	20120424.125524	20120424.125951	single-task	8	0.013328	60	10	60-180	60	149	GapExp	0	47	2	3	0	distractor	1	697	652	74898	13.328	10.872	15.776
TrackDT01	5	TrackDT	1.0	SCS215a	20120424.125524	20120424.125957	single-task	8	0.013328	60	10	60-180	60	139	GapExp	0	48	2	30	1	target	1	384	808	75706	13.328	13.112	13.550
TrackDT01	5	TrackDT	1.0	SCS215a	20120424.125524	20120424.130003	single-task	8	0.013328	60	10	60-180	60	79	GapExp	0	49	2	1	1	target	1	708	646	76352	13.328	13.291	13.350
TrackDT01	5	TrackDT	1.0	SCS215a	20120424.125524	20120424.130009	single-task	8	0.013328	60	10	60-180	60	145	GapExp	0	50	2	3	1	distractor	0	818	-1000	75352	13.328	13.177	13.478
TrackDT01	5	TrackDT	1.0	SCS215a	20120424.125524	20120424.130024	single-task	8	0.013328	60	10	60-180	60	144	GapExp	0	51	2	0	0	distractor	1	523	739	76091	13.328	7.589	19.074
TrackDT01	5	TrackDT	1.0	SCS215a	20120424.125524	20120424.130030	single-task	8	0.013328	60	10	60-180	60	130	GapExp	0	52	2	3	0	distractor	1	422	789	76880	13.328	7.964	18.685
TrackDT01	5	TrackDT	1.0	SCS215a	20120424.125524	20120424.130036	single-task	8	0.013328	60	10	60-180	60	116	GapExp	0	53	2	1	1	distractor	0	413	-1000	75880	13.328	13.306	13.349
TrackDT01	5	TrackDT	1.0	SCS215a	20120424.125524	20120424.130042	single-task	8	0.013328	60	10	60-180	60	117	GapExp	0	54	2	1	1	target	1	644	678	76558	13.328	13.296	13.358
TrackDT01	5	TrackDT	1.0	SCS215a	20120424.125524	20120424.130047	single-task	8	0.013328	60	10	60-180	60	175	GapExp	0	55	2	1	1	target	1	461	770	77328	13.328	4.391	22.265
TrackDT01	5	TrackDT	1.0	SCS215a	20120424.125524	20120424.130054	single-task	8	0.013328	60	10	60-180	60	118	GapExp	0	56	2	3	1	target	1	722	639	77967	13.328	11.320	15.329
TrackDT01	5	TrackDT	1.0	SCS215a	20120424.125524	20120424.130059	single-task	8	0.013328	60	10	60-180	60	92	GapExp	0	57	2	30	1	target	1	376	812	78779	13.328	10.826	15.839
TrackDT01	5	TrackDT	1.0	SCS215a	20120424.125524	20120424.130105	single-task	8	0.013328	60	10	60-180	60	123	GapExp	0	58	2	1	0	distractor	1	595	703	79482	13.328	6.112	20.578
TrackDT01	5	TrackDT	1.0	SCS215a	20120424.125524	20120424.130110	single-task	8	0.013328	60	10	60-180	60	92	GapExp	0	59	2	1	0	distractor	1	484	758	80240	13.328	9.117	17.546
TrackDT01	5	TrackDT	1.0	SCS215a	20120424.125524	20120424.130116	single-task	8	0.013328	60	10	60-180	60	128	GapExp	0	60	2	3	1	target	1	846	577	80817	13.328	9.628	17.026
TrackDT01	5	TrackDT	1.0	SCS215a	20120424.125524	20120424.130122	single-task	8	0.013328	60	10	60-180	60	79	GapExp	0	61	2	30	0	distractor	1	709	646	81463	13.328	6.088	20.573
TrackDT01	5	TrackDT	1.0	SCS215a	20120424.125524	20120424.130128	single-task	8	0.013328	60	10	60-180	60	95	GapExp	0	62	2	3	0	target	0	782	-1000	80463	13.328	13.085	13.558
TrackDT01	5	TrackDT	1.0	SCS215a	20120424.125524	20120424.130133	single-task	8	0.013328	60	10	60-180	60	75	GapExp	0	63	2	0	0	distractor	1	450	775	81238	13.328	13.145	13.513
TrackDT01	5	TrackDT	1.0	SCS215a	20120424.125524	20120424.130138	single-task	8	0.013328	60	10	60-180	60	146	GapExp	0	64	2	1	0	distractor	1	532	734	81972	13.328	13.297	13.358
TrackDT01	5	TrackDT	1.0	SCS215a	20120424.125524	20120424.130144	single-task	8	0.013328	60	10	60-180	60	151	GapExp	0	65	2	0	0	distractor	1	455	773	82745	13.328	13.098	13.556
TrackDT01	5	TrackDT	1.0	SCS215a	20120424.125524	20120424.130151	single-task	8	0.013328	60	10	60-180	60	108	GapExp	0	66	2	3	0	distractor	1	393	804	83549	13.328	13.170	13.467
TrackDT01	5	TrackDT	1.0	SCS215a	20120424.125524	20120424.130156	single-task	8	0.013328	60	10	60-180	60	174	GapExp	0	67	2	30	1	target	1	359	821	84370	13.328	9.626	17.039
TrackDT01	5	TrackDT	1.0	SCS215a	20120424.125524	20120424.130202	single-task	8	0.013328	60	10	60-180	60	167	GapExp	0	68	2	3	1	target	1	437	782	85152	13.328	12.881	13.790
TrackDT01	5	TrackDT	1.0	SCS215a	20120424.125524	20120424.130209	single-task	8	0.013328	60	10	60-180	60	76	GapExp	0	69	2	1	1	target	1	713	644	85796	13.328	8.487	18.175
TrackDT01	5	TrackDT	1.0	SCS215a	20120424.125524	20120424.130214	single-task	8	0.013328	60	10	60-180	60	93	GapExp	0	70	2	0	0	distractor	1	422	789	86585	13.328	8.632	18.023
TrackDT01	5	TrackDT	1.0	SCS215a	20120424.125524	20120424.130219	single-task	8	0.013328	60	10	60-180	60	118	GapExp	0	71	2	30	0	distractor	1	411	795	87380	13.328	6.746	19.918
TrackDT01	5	TrackDT	1.0	SCS215a	20120424.125524	20120424.130225	single-task	8	0.013328	60	10	60-180	60	176	GapExp	0	72	2	3	0	distractor	1	800	600	87980	13.328	7.806	18.853
TrackDT01	5	TrackDT	1.0	SCS215a	20120424.125524	20120424.130232	single-task	8	0.013328	60	10	60-180	60	170	GapExp	0	73	2	3	1	target	1	427	787	88767	13.328	8.715	17.926
TrackDT01	5	TrackDT	1.0	SCS215a	20120424.125524	20120424.130238	single-task	8	0.013328	60	10	60-180	60	76	GapExp	0	74	2	1	0	distractor	1	441	780	89547	13.328	9.561	17.097
TrackDT01	5	TrackDT	1.0	SCS215a	20120424.125524	20120424.130243	single-task	8	0.013328	60	10	60-180	60	103	GapExp	0	75	2	3	1	target	1	546	727	90274	13.328	10.048	16.609
TrackDT01	5	TrackDT	1.0	SCS215a	20120424.125524	20120424.130248	single-task	8	0.013328	60	10	60-180	60	139	GapExp	0	76	2	1	1	target	1	911	545	90819	13.328	13.194	13.419
TrackDT01	5	TrackDT	1.0	SCS215a	20120424.125524	20120424.130255	single-task	8	0.013328	60	10	60-180	60	113	GapExp	0	77	2	0	1	target	1	537	732	91551	13.328	11.404	15.266
TrackDT01	5	TrackDT	1.0	SCS215a	20120424.125524	20120424.130301	single-task	8	0.013328	60	10	60-180	60	158	GapExp	0	78	2	0	0	distractor	1	426	787	92338	13.328	9.987	16.677
TrackDT01	5	TrackDT	1.0	SCS215a	20120424.125524	20120424.130306	single-task	8	0.013328	60	10	60-180	60	143	GapExp	0	79	2	0	1	target	1	827	587	92925	13.328	12.126	14.751
TrackDT01	5	TrackDT	1.0	SCS215a	20120424.125524	20120424.130313	single-task	8	0.013328	60	10	60-180	60	168	GapExp	0	80	2	30	0	distractor	1	542	729	93654	13.328	9.101	17.557
TrackDT01	5	TrackDT	1.0	SCS215a	20120424.125524	20120424.130319	single-task	8	0.013328	60	10	60-180	60	70	GapExp	0	81	2	3	0	target	0	448	-1000	92654	13.328	13.177	13.469
TrackDT01	5	TrackDT	1.0	SCS215a	20120424.125524	20120424.130324	single-task	8	0.013328	60	10	60-180	60	62	GapExp	0	82	2	3	0	distractor	1	579	711	93365	13.328	12.037	14.632
TrackDT01	5	TrackDT	1.0	SCS215a	20120424.125524	20120424.130329	single-task	8	0.013328	60	10	60-180	60	110	GapExp	0	83	2	3	1	target	1	629	686	94051	13.328	12.777	13.878
TrackDT01	5	TrackDT	1.0	SCS215a	20120424.125524	20120424.130335	single-task	8	0.013328	60	10	60-180	60	89	GapExp	0	84	2	30	1	target	1	477	762	94813	13.328	8.142	18.521
TrackDT01	5	TrackDT	1.0	SCS215a	20120424.125524	20120424.130340	single-task	8	0.013328	60	10	60-180	60	154	GapExp	0	85	2	0	0	distractor	1	457	772	95585	13.328	13.105	13.538
TrackDT01	5	TrackDT	1.0	SCS215a	20120424.125524	20120424.130346	single-task	8	0.013328	60	10	60-180	60	173	GapExp	0	86	2	3	0	distractor	1	431	785	96370	13.328	11.426	15.232
TrackDT01	5	TrackDT	1.0	SCS215a	20120424.125524	20120424.130353	single-task	8	0.013328	60	10	60-180	60	127	GapExp	0	87	2	30	1	target	1	370	815	97185	13.328	5.809	20.855
TrackDT01	5	TrackDT	1.0	SCS215a	20120424.125524	20120424.130358	single-task	8	0.013328	60	10	60-180	60	92	GapExp	0	88	2	0	0	distractor	1	428	786	97971	13.328	9.104	17.546
TrackDT01	5	TrackDT	1.0	SCS215a	20120424.125524	20120424.130404	single-task	8	0.013328	60	10	60-180	60	74	GapExp	0	89	2	3	0	distractor	1	495	753	98724	13.328	6.154	20.502
TrackDT01	5	TrackDT	1.0	SCS215a	20120424.125524	20120424.130409	single-task	8	0.013328	60	10	60-180	60	170	GapExp	0	90	2	0	0	distractor	1	465	768	99492	13.328	10.934	15.715
TrackDT01	5	TrackDT	1.0	SCS215a	20120424.125524	20120424.130415	single-task	8	0.013328	60	10	60-180	60	101	GapExp	0	91	2	30	1	distractor	0	375	-1000	98492	13.328	13.253	13.402
TrackDT01	5	TrackDT	1.0	SCS215a	20120424.125524	20120424.130421	single-task	8	0.013328	60	10	60-180	60	119	GapExp	0	92	2	0	0	distractor	1	444	778	99270	13.328	13.304	13.352
TrackDT01	5	TrackDT	1.0	SCS215a	20120424.125524	20120424.130426	single-task	8	0.013328	60	10	60-180	60	165	GapExp	0	93	2	30	1	target	1	361	820	100090	13.328	10.111	16.531
TrackDT01	5	TrackDT	1.0	SCS215a	20120424.125524	20120424.130432	single-task	8	0.013328	60	10	60-180	60	121	GapExp	0	94	2	3	1	target	1	487	757	100847	13.328	13.092	13.551
TrackDT01	5	TrackDT	1.0	SCS215a	20120424.125524	20120424.130438	single-task	8	0.013328	60	10	60-180	60	134	GapExp	0	95	2	3	0	distractor	1	499	751	101598	13.328	13.105	13.558
TrackDT01	5	TrackDT	1.0	SCS215a	20120424.125524	20120424.130444	single-task	8	0.013328	60	10	60-180	60	129	GapExp	0	96	2	30	0	distractor	1	714	643	102241	13.328	9.703	16.952
TrackDT01	5	TrackDT	1.0	SCS215a	20120424.125524	20120424.130451	single-task	8	0.013328	60	10	60-180	60	76	GapExp	0	97	2	0	1	target	1	524	738	102979	13.328	9.761	16.896
TrackDT01	5	TrackDT	1.0	SCS215a	20120424.125524	20120424.130455	single-task	8	0.013328	60	10	60-180	60	102	GapExp	0	98	2	30	0	distractor	1	433	784	103763	13.328	12.147	14.508
TrackDT01	5	TrackDT	1.0	SCS215a	20120424.125524	20120424.130501	single-task	8	0.013328	60	10	60-180	60	132	GapExp	0	99	2	1	1	target	1	503	749	104512	13.328	13.098	13.558
TrackDT01	5	TrackDT	1.0	SCS215a	20120424.125524	20120424.130507	single-task	8	0.013328	60	10	60-180	60	126	GapExp	0	100	2	3	1	target	1	435	783	105295	13.328	13.272	13.391
TrackDT01	5	TrackDT	1.0	SCS215a	20120424.125524	20120424.130525	single-task	8	0.013328	60	10	60-180	60	141	GapExp	0	101	2	0	0	distractor	1	493	754	106049	13.328	12.887	13.770
TrackDT01	5	TrackDT	1.0	SCS215a	20120424.125524	20120424.130531	single-task	8	0.013328	60	10	60-180	60	98	GapExp	0	102	2	0	1	target	1	546	727	106776	13.328	11.447	15.225
TrackDT01	5	TrackDT	1.0	SCS215a	20120424.125524	20120424.130536	single-task	8	0.013328	60	10	60-180	60	65	GapExp	0	103	2	0	1	target	1	588	706	107482	13.328	13.086	13.570
TrackDT01	5	TrackDT	1.0	SCS215a	20120424.125524	20120424.130541	single-task	8	0.013328	60	10	60-180	60	73	GapExp	0	104	2	0	0	distractor	1	410	795	108277	13.328	13.307	13.344
TrackDT01	5	TrackDT	1.0	SCS215a	20120424.125524	20120424.130546	single-task	8	0.013328	60	10	60-180	60	146	GapExp	0	105	2	1	0	distractor	1	420	790	109067	13.328	13.228	13.429
TrackDT01	5	TrackDT	1.0	SCS215a	20120424.125524	20120424.130552	single-task	8	0.013328	60	10	60-180	60	90	GapExp	0	106	2	1	0	target	0	491	-1000	108067	13.328	13.306	13.352
TrackDT01	5	TrackDT	1.0	SCS215a	20120424.125524	20120424.130557	single-task	8	0.013328	60	10	60-180	60	78	GapExp	0	107	2	30	1	target	1	377	812	108879	13.328	13.092	13.550
TrackDT01	5	TrackDT	1.0	SCS215a	20120424.125524	20120424.130603	single-task	8	0.013328	60	10	60-180	60	67	GapExp	0	108	2	1	0	distractor	1	419	791	109670	13.328	13.092	13.564
TrackDT01	5	TrackDT	1.0	SCS215a	20120424.125524	20120424.130607	single-task	8	0.013328	60	10	60-180	60	113	GapExp	0	109	2	30	0	distractor	1	394	803	110473	13.328	11.684	14.972
TrackDT01	5	TrackDT	1.0	SCS215a	20120424.125524	20120424.130613	single-task	8	0.013328	60	10	60-180	60	68	GapExp	0	110	2	30	1	target	1	424	788	111261	13.328	13.295	13.347
TrackDT01	5	TrackDT	1.0	SCS215a	20120424.125524	20120424.130618	single-task	8	0.013328	60	10	60-180	60	90	GapExp	0	111	2	1	0	distractor	1	908	546	111807	13.328	13.311	13.345
TrackDT01	5	TrackDT	1.0	SCS215a	20120424.125524	20120424.130624	single-task	8	0.013328	60	10	60-180	60	129	GapExp	0	112	2	3	0	distractor	1	701	650	112457	13.328	12.870	13.792
TrackDT01	5	TrackDT	1.0	SCS215a	20120424.125524	20120424.130630	single-task	8	0.013328	60	10	60-180	60	96	GapExp	0	113	2	1	0	distractor	1	484	758	113215	13.328	13.300	13.344
TrackDT01	5	TrackDT	1.0	SCS215a	20120424.125524	20120424.130635	single-task	8	0.013328	60	10	60-180	60	161	GapExp	0	114	2	3	1	target	1	683	659	113874	13.328	13.307	13.347
TrackDT01	5	TrackDT	1.0	SCS215a	20120424.125524	20120424.130642	single-task	8	0.013328	60	10	60-180	60	180	GapExp	0	115	2	0	1	target	1	549	726	114600	13.328	12.642	14.007
TrackDT01	5	TrackDT	1.0	SCS215a	20120424.125524	20120424.130648	single-task	8	0.013328	60	10	60-180	60	115	GapExp	0	116	2	3	0	distractor	1	770	615	115215	13.328	12.266	14.397
TrackDT01	5	TrackDT	1.0	SCS215a	20120424.125524	20120424.130654	single-task	8	0.013328	60	10	60-180	60	171	GapExp	0	117	2	3	1	target	1	887	557	115772	13.328	11.832	14.826
TrackDT01	5	TrackDT	1.0	SCS215a	20120424.125524	20120424.130701	single-task	8	0.013328	60	10	60-180	60	64	GapExp	0	118	2	3	0	distractor	1	407	797	116569	13.328	13.112	13.552
TrackDT01	5	TrackDT	1.0	SCS215a	20120424.125524	20120424.130705	single-task	8	0.013328	60	10	60-180	60	150	GapExp	0	119	2	30	0	distractor	1	409	796	117365	13.328	7.633	19.023
TrackDT01	5	TrackDT	1.0	SCS215a	20120424.125524	20120424.130712	single-task	8	0.013328	60	10	60-180	60	77	GapExp	0	120	2	30	1	target	1	367	817	118182	13.328	13.105	13.550
TrackDT01	5	TrackDT	1.0	SCS215a	20120424.125524	20120424.130717	single-task	8	0.013328	60	10	60-180	60	66	GapExp	0	121	2	0	1	distractor	0	469	-1000	117182	13.328	10.451	16.201
TrackDT01	5	TrackDT	1.0	SCS215a	20120424.125524	20120424.130722	single-task	8	0.013328	60	10	60-180	60	125	GapExp	0	122	2	0	0	distractor	1	1192	404	117586	13.328	13.303	13.350
TrackDT01	5	TrackDT	1.0	SCS215a	20120424.125524	20120424.130728	single-task	8	0.013328	60	10	60-180	60	139	GapExp	0	123	2	1	1	target	1	1138	431	118017	13.328	13.070	13.584
TrackDT01	5	TrackDT	1.0	SCS215a	20120424.125524	20120424.130735	single-task	8	0.013328	60	10	60-180	60	167	GapExp	0	124	2	0	0	distractor	1	432	784	118801	13.328	10.368	16.294
TrackDT01	5	TrackDT	1.0	SCS215a	20120424.125524	20120424.130741	single-task	8	0.013328	60	10	60-180	60	92	GapExp	0	125	2	1	0	distractor	1	453	774	119575	13.328	6.284	20.361
TrackDT01	5	TrackDT	1.0	SCS215a	20120424.125524	20120424.130747	single-task	8	0.013328	60	10	60-180	60	120	GapExp	0	126	2	30	1	target	1	390	805	120380	13.328	13.106	13.565
TrackDT01	5	TrackDT	1.0	SCS215a	20120424.125524	20120424.130752	single-task	8	0.013328	60	10	60-180	60	70	GapExp	0	127	2	0	0	distractor	1	527	737	121117	13.328	13.305	13.363
TrackDT01	5	TrackDT	1.0	SCS215a	20120424.125524	20120424.130757	single-task	8	0.013328	60	10	60-180	60	83	GapExp	0	128	2	3	0	distractor	1	365	818	121935	13.328	13.308	13.346
TrackDT01	5	TrackDT	1.0	SCS215a	20120424.125524	20120424.130802	single-task	8	0.013328	60	10	60-180	60	110	GapExp	0	129	2	30	1	target	1	338	831	122766	13.328	12.063	14.352
TrackDT01	5	TrackDT	1.0	SCS215a	20120424.125524	20120424.130808	single-task	8	0.013328	60	10	60-180	60	88	GapExp	0	130	2	30	0	distractor	1	655	673	123439	13.328	13.085	13.570
TrackDT01	5	TrackDT	1.0	SCS215a	20120424.125524	20120424.130814	single-task	8	0.013328	60	10	60-180	60	137	GapExp	0	131	2	30	1	target	1	396	802	124241	13.328	10.614	16.032
TrackDT01	5	TrackDT	1.0	SCS215a	20120424.125524	20120424.130820	single-task	8	0.013328	60	10	60-180	60	89	GapExp	0	132	2	0	0	distractor	1	424	788	125029	13.328	12.898	13.758
TrackDT01	5	TrackDT	1.0	SCS215a	20120424.125524	20120424.130825	single-task	8	0.013328	60	10	60-180	60	135	GapExp	0	133	2	1	1	target	1	552	724	125753	13.328	13.308	13.348
TrackDT01	5	TrackDT	1.0	SCS215a	20120424.125524	20120424.130831	single-task	8	0.013328	60	10	60-180	60	120	GapExp	0	134	2	3	0	distractor	1	395	803	126556	13.328	13.309	13.346
TrackDT01	5	TrackDT	1.0	SCS215a	20120424.125524	20120424.130836	single-task	8	0.013328	60	10	60-180	60	120	GapExp	0	135	2	0	0	distractor	1	537	732	127288	13.328	13.099	13.565
TrackDT01	5	TrackDT	1.0	SCS215a	20120424.125524	20120424.130842	single-task	8	0.013328	60	10	60-180	60	147	GapExp	0	136	2	0	0	distractor	1	439	781	128069	13.328	13.304	13.360
TrackDT01	5	TrackDT	1.0	SCS215a	20120424.125524	20120424.130848	single-task	8	0.013328	60	10	60-180	60	175	GapExp	0	137	2	3	1	distractor	0	391	-1000	127069	13.328	13.227	13.437
TrackDT01	5	TrackDT	1.0	SCS215a	20120424.125524	20120424.130855	single-task	8	0.013328	60	10	60-180	60	64	GapExp	0	138	2	1	1	target	1	472	764	127833	13.328	11.370	15.286
TrackDT01	5	TrackDT	1.0	SCS215a	20120424.125524	20120424.130859	single-task	8	0.013328	60	10	60-180	60	157	GapExp	0	139	2	30	1	target	1	1109	446	128279	13.328	11.560	15.083
TrackDT01	5	TrackDT	1.0	SCS215a	20120424.125524	20120424.130906	single-task	8	0.013328	60	10	60-180	60	67	GapExp	0	140	2	1	0	distractor	1	539	731	129010	13.328	9.774	17.026
TrackDT01	5	TrackDT	1.0	SCS215a	20120424.125524	20120424.130911	single-task	8	0.013328	60	10	60-180	60	180	GapExp	0	141	2	30	0	distractor	1	524	738	129748	13.328	6.491	20.168
TrackDT01	5	TrackDT	1.0	SCS215a	20120424.125524	20120424.130918	single-task	8	0.013328	60	10	60-180	60	136	GapExp	0	142	2	1	1	target	1	923	539	130287	13.328	13.099	13.546
TrackDT01	5	TrackDT	1.0	SCS215a	20120424.125524	20120424.130925	single-task	8	0.013328	60	10	60-180	60	75	GapExp	0	143	2	1	1	target	1	506	747	131034	13.328	13.286	13.366
TrackDT01	5	TrackDT	1.0	SCS215a	20120424.125524	20120424.130930	single-task	8	0.013328	60	10	60-180	60	171	GapExp	0	144	2	0	1	target	1	727	637	131671	13.328	13.254	13.387
TrackDT01	5	TrackDT	1.0	SCS215a	20120424.125524	20120424.130936	single-task	8	0.013328	60	10	60-180	60	175	GapExp	0	145	2	3	1	target	1	443	779	132450	13.328	11.437	15.218
TrackDT01	5	TrackDT	1.0	SCS215a	20120424.125524	20120424.130943	single-task	8	0.013328	60	10	60-180	60	103	GapExp	0	146	2	0	0	distractor	1	537	732	133182	13.328	13.303	13.360
TrackDT01	5	TrackDT	1.0	SCS215a	20120424.125524	20120424.130948	single-task	8	0.013328	60	10	60-180	60	62	GapExp	0	147	2	3	1	target	1	698	651	133833	13.328	11.094	15.568
TrackDT01	5	TrackDT	1.0	SCS215a	20120424.125524	20120424.130953	single-task	8	0.013328	60	10	60-180	60	148	GapExp	0	148	2	0	1	target	1	443	779	134612	13.328	9.043	17.613
TrackDT01	5	TrackDT	1.0	SCS215a	20120424.125524	20120424.130959	single-task	8	0.013328	60	10	60-180	60	87	GapExp	0	149	2	1	0	distractor	1	552	724	135336	13.328	13.287	13.369
TrackDT01	5	TrackDT	1.0	SCS215a	20120424.125524	20120424.131004	single-task	8	0.013328	60	10	60-180	60	171	GapExp	0	150	2	30	0	distractor	1	519	741	136077	13.328	9.391	17.264
TrackDT01	5	TrackDT	1.0	SCS215a	20120424.125524	20120424.131022	single-task	8	0.013328	60	10	60-180	60	105	GapExp	0	151	2	30	0	distractor	1	678	661	136738	13.328	13.098	13.559
TrackDT01	5	TrackDT	1.0	SCS215a	20120424.125524	20120424.131028	single-task	8	0.013328	60	10	60-180	60	168	GapExp	0	152	2	0	1	target	1	857	572	137310	13.328	13.105	13.550
TrackDT01	5	TrackDT	1.0	SCS215a	20120424.125524	20120424.131035	single-task	8	0.013328	60	10	60-180	60	98	GapExp	0	153	2	30	0	distractor	1	348	826	138136	13.328	13.098	13.544
TrackDT01	5	TrackDT	1.0	SCS215a	20120424.125524	20120424.131040	single-task	8	0.013328	60	10	60-180	60	110	GapExp	0	154	2	30	1	target	1	913	544	138680	13.328	13.307	13.348
TrackDT01	5	TrackDT	1.0	SCS215a	20120424.125524	20120424.131047	single-task	8	0.013328	60	10	60-180	60	174	GapExp	0	155	2	30	0	distractor	1	371	815	139495	13.328	7.770	18.889
TrackDT01	5	TrackDT	1.0	SCS215a	20120424.125524	20120424.131053	single-task	8	0.013328	60	10	60-180	60	97	GapExp	0	156	2	0	0	distractor	1	742	629	140124	13.328	11.480	15.174
TrackDT01	5	TrackDT	1.0	SCS215a	20120424.125524	20120424.131059	single-task	8	0.013328	60	10	60-180	60	114	GapExp	0	157	2	0	1	target	1	525	738	140862	13.328	13.086	13.557
TrackDT01	5	TrackDT	1.0	SCS215a	20120424.125524	20120424.131104	single-task	8	0.013328	60	10	60-180	60	75	GapExp	0	158	2	3	0	distractor	1	762	619	141481	13.328	9.973	16.682
TrackDT01	5	TrackDT	1.0	SCS215a	20120424.125524	20120424.131110	single-task	8	0.013328	60	10	60-180	60	146	GapExp	0	159	2	3	1	target	1	610	695	142176	13.423	4.183	35.800
TrackDT01	5	TrackDT	1.0	SCS215a	20120424.125524	20120424.131116	single-task	8	0.013328	60	10	60-180	60	172	GapExp	0	160	2	0	1	target	1	512	744	142920	13.328	13.099	13.544
TrackDT01	5	TrackDT	1.0	SCS215a	20120424.125524	20120424.131122	single-task	8	0.013328	60	10	60-180	60	169	GapExp	0	161	2	1	1	target	1	564	718	143638	13.328	10.617	16.019
TrackDT01	5	TrackDT	1.0	SCS215a	20120424.125524	20120424.131129	single-task	8	0.013328	60	10	60-180	60	171	GapExp	0	162	2	1	1	target	1	433	784	144422	13.328	13.305	13.345
TrackDT01	5	TrackDT	1.0	SCS215a	20120424.125524	20120424.131135	single-task	8	0.013328	60	10	60-180	60	168	GapExp	0	163	2	1	1	target	1	615	693	145115	13.328	12.993	13.675
TrackDT01	5	TrackDT	1.0	SCS215a	20120424.125524	20120424.131142	single-task	8	0.013328	60	10	60-180	60	131	GapExp	0	164	2	30	0	distractor	1	374	813	145928	13.328	9.679	16.984
TrackDT01	5	TrackDT	1.0	SCS215a	20120424.125524	20120424.131147	single-task	8	0.013328	60	10	60-180	60	69	GapExp	0	165	2	3	0	distractor	1	402	799	146727	13.328	13.301	13.357
TrackDT01	5	TrackDT	1.0	SCS215a	20120424.125524	20120424.131152	single-task	8	0.013328	60	10	60-180	60	176	GapExp	0	166	2	3	0	distractor	1	393	804	147531	13.328	13.092	13.572
TrackDT01	5	TrackDT	1.0	SCS215a	20120424.125524	20120424.131158	single-task	8	0.013328	60	10	60-180	60	112	GapExp	0	167	2	0	0	distractor	1	386	807	148338	13.328	10.777	15.874
TrackDT01	5	TrackDT	1.0	SCS215a	20120424.125524	20120424.131204	single-task	8	0.013328	60	10	60-180	60	167	GapExp	0	168	2	1	1	target	1	405	798	149136	13.328	8.317	18.353
TrackDT01	5	TrackDT	1.0	SCS215a	20120424.125524	20120424.131210	single-task	8	0.013328	60	10	60-180	60	118	GapExp	0	169	2	1	1	target	1	469	766	149902	13.328	8.287	18.370
TrackDT01	5	TrackDT	1.0	SCS215a	20120424.125524	20120424.131216	single-task	8	0.013328	60	10	60-180	60	155	GapExp	0	170	2	1	1	target	1	492	754	150656	13.328	11.389	15.268
TrackDT01	5	TrackDT	1.0	SCS215a	20120424.125524	20120424.131222	single-task	8	0.013328	60	10	60-180	60	102	GapExp	0	171	2	1	0	distractor	1	613	694	151350	13.328	13.307	13.351
TrackDT01	5	TrackDT	1.0	SCS215a	20120424.125524	20120424.131227	single-task	8	0.013328	60	10	60-180	60	79	GapExp	0	172	2	1	0	distractor	1	503	749	152099	13.328	8.369	18.267
TrackDT01	5	TrackDT	1.0	SCS215a	20120424.125524	20120424.131232	single-task	8	0.013328	60	10	60-180	60	105	GapExp	0	173	2	3	1	target	1	374	813	152912	13.328	13.304	13.352
TrackDT01	5	TrackDT	1.0	SCS215a	20120424.125524	20120424.131237	single-task	8	0.013328	60	10	60-180	60	69	GapExp	0	174	2	30	1	distractor	0	413	-1000	151912	13.328	7.626	19.017
TrackDT01	5	TrackDT	1.0	SCS215a	20120424.125524	20120424.131243	single-task	8	0.013328	60	10	60-180	60	93	GapExp	0	175	2	30	1	target	1	342	829	152741	13.328	13.110	13.558
TrackDT01	5	TrackDT	1.0	SCS215a	20120424.125524	20120424.131249	single-task	8	0.013328	60	10	60-180	60	130	GapExp	0	176	2	1	0	distractor	1	476	762	153503	13.328	9.891	16.772
TrackDT01	5	TrackDT	1.0	SCS215a	20120424.125524	20120424.131254	single-task	8	0.013328	60	10	60-180	60	62	GapExp	0	177	2	1	0	distractor	1	417	792	154295	13.328	4.430	22.227
TrackDT01	5	TrackDT	1.0	SCS215a	20120424.125524	20120424.131259	single-task	8	0.013328	60	10	60-180	60	176	GapExp	0	178	2	0	1	distractor	0	491	-1000	153295	13.328	13.308	13.346
TrackDT01	5	TrackDT	1.0	SCS215a	20120424.125524	20120424.131305	single-task	8	0.013328	60	10	60-180	60	83	GapExp	0	179	2	30	1	target	1	294	853	154148	13.328	11.183	15.460
TrackDT01	5	TrackDT	1.0	SCS215a	20120424.125524	20120424.131310	single-task	8	0.013328	60	10	60-180	60	102	GapExp	0	180	2	30	1	target	1	474	763	154911	13.328	13.098	13.552
TrackDT01	5	TrackDT	1.0	SCS215a	20120424.125524	20120424.131316	single-task	8	0.013328	60	10	60-180	60	165	GapExp	0	181	2	30	0	distractor	1	422	789	155700	13.328	13.105	13.551
TrackDT01	5	TrackDT	1.0	SCS215a	20120424.125524	20120424.131323	single-task	8	0.013328	60	10	60-180	60	112	GapExp	0	182	2	3	1	target	1	436	782	156482	13.328	13.100	13.543
TrackDT01	5	TrackDT	1.0	SCS215a	20120424.125524	20120424.131329	single-task	8	0.013328	60	10	60-180	60	126	GapExp	0	183	2	1	0	distractor	1	395	803	157285	13.328	13.309	13.346
TrackDT01	5	TrackDT	1.0	SCS215a	20120424.125524	20120424.131334	single-task	8	0.013328	60	10	60-180	60	102	GapExp	0	184	2	1	1	target	1	580	710	157995	13.328	5.954	20.711
TrackDT01	5	TrackDT	1.0	SCS215a	20120424.125524	20120424.131339	single-task	8	0.013328	60	10	60-180	60	86	GapExp	0	185	2	3	1	target	1	575	713	158708	13.328	6.511	20.152
TrackDT01	5	TrackDT	1.0	SCS215a	20120424.125524	20120424.131345	single-task	8	0.013328	60	10	60-180	60	93	GapExp	0	186	2	0	1	target	1	447	777	159485	13.328	11.452	15.190
TrackDT01	5	TrackDT	1.0	SCS215a	20120424.125524	20120424.131350	single-task	8	0.013328	60	10	60-180	60	95	GapExp	0	187	2	0	1	target	1	409	796	160281	13.328	8.125	18.526
TrackDT01	5	TrackDT	1.0	SCS215a	20120424.125524	20120424.131355	single-task	8	0.013328	60	10	60-180	60	90	GapExp	0	188	2	0	0	distractor	1	469	766	161047	13.328	13.309	13.345
TrackDT01	5	TrackDT	1.0	SCS215a	20120424.125524	20120424.131401	single-task	8	0.013328	60	10	60-180	60	151	GapExp	0	189	2	3	0	distractor	1	425	788	161835	13.328	7.858	18.804
TrackDT01	5	TrackDT	1.0	SCS215a	20120424.125524	20120424.131406	single-task	8	0.013328	60	10	60-180	60	108	GapExp	0	190	2	1	1	target	1	433	784	162619	13.328	11.376	15.284
TrackDT01	5	TrackDT	1.0	SCS215a	20120424.125524	20120424.131412	single-task	8	0.013328	60	10	60-180	60	151	GapExp	0	191	2	0	1	target	1	703	649	163268	13.328	11.136	15.511
TrackDT01	5	TrackDT	1.0	SCS215a	20120424.125524	20120424.131418	single-task	8	0.013328	60	10	60-180	60	167	GapExp	0	192	2	3	1	target	1	696	652	163920	13.328	13.104	13.566
TrackDT01	5	TrackDT	1.0	SCS215a	20120424.125524	20120424.131424	single-task	8	0.013328	60	10	60-180	60	131	GapExp	0	193	2	0	0	target	0	463	-1000	162920	13.328	10.000	16.647
TrackDT01	5	TrackDT	1.0	SCS215a	20120424.125524	20120424.131431	single-task	8	0.013328	60	10	60-180	60	101	GapExp	0	194	2	3	0	distractor	1	558	721	163641	13.328	13.266	13.385
TrackDT01	5	TrackDT	1.0	SCS215a	20120424.125524	20120424.131436	single-task	8	0.013328	60	10	60-180	60	118	GapExp	0	195	2	30	0	distractor	1	375	813	164454	13.328	10.164	16.498
TrackDT01	5	TrackDT	1.0	SCS215a	20120424.125524	20120424.131442	single-task	8	0.013328	60	10	60-180	60	62	GapExp	0	196	2	0	1	target	1	451	775	165229	13.328	13.093	13.558
TrackDT01	5	TrackDT	1.0	SCS215a	20120424.125524	20120424.131446	single-task	8	0.013328	60	10	60-180	60	117	GapExp	0	197	2	0	0	distractor	1	557	722	165951	13.328	8.222	18.440
TrackDT01	5	TrackDT	1.0	SCS215a	20120424.125524	20120424.131452	single-task	8	0.013328	60	10	60-180	60	97	GapExp	0	198	2	3	0	distractor	1	408	796	166747	13.328	13.307	13.346
TrackDT01	5	TrackDT	1.0	SCS215a	20120424.125524	20120424.131457	single-task	8	0.013328	60	10	60-180	60	128	GapExp	0	199	2	30	1	target	1	365	818	167565	13.328	8.672	17.969
TrackDT01	5	TrackDT	1.0	SCS215a	20120424.125524	20120424.131503	single-task	8	0.013328	60	10	60-180	60	171	GapExp	0	200	2	1	0	distractor	1	426	787	168352	13.328	8.956	17.686
TrackDT01	5	TrackDT	1.0	SCS215a	20120424.131844	20120424.131848	dt-shadow	8	0.013328	60	10	60-180	60	120	GapPrac	1	1	2	1	1	target	1	921	540	168892	13.328	13.305	13.349
TrackDT01	5	TrackDT	1.0	SCS215a	20120424.131844	20120424.131855	dt-shadow	8	0.013328	60	10	60-180	60	106	GapPrac	1	2	2	1	0	distractor	1	519	741	169633	13.328	12.935	13.733
TrackDT01	5	TrackDT	1.0	SCS215a	20120424.131844	20120424.131900	dt-shadow	8	0.013328	60	10	60-180	60	67	GapPrac	1	3	2	0	0	distractor	1	435	783	170416	13.328	12.943	13.706
TrackDT01	5	TrackDT	1.0	SCS215a	20120424.131844	20120424.131905	dt-shadow	8	0.013328	60	10	60-180	60	126	GapPrac	1	4	2	30	1	target	1	417	792	171208	13.328	13.252	13.412
TrackDT01	5	TrackDT	1.0	SCS215a	20120424.131844	20120424.131911	dt-shadow	8	0.013328	60	10	60-180	60	77	GapPrac	1	5	2	1	1	target	1	498	751	171959	13.328	13.298	13.359
TrackDT01	5	TrackDT	1.0	SCS215a	20120424.131844	20120424.131916	dt-shadow	8	0.013328	60	10	60-180	60	76	GapPrac	1	6	2	1	0	distractor	1	395	803	172762	13.328	12.862	13.800
TrackDT01	5	TrackDT	1.0	SCS215a	20120424.131844	20120424.131921	dt-shadow	8	0.013328	60	10	60-180	60	114	GapPrac	1	7	2	3	0	distractor	1	337	832	173594	13.328	13.093	13.549
TrackDT01	5	TrackDT	1.0	SCS215a	20120424.131844	20120424.131927	dt-shadow	8	0.013328	60	10	60-180	60	124	GapPrac	1	8	2	3	1	target	1	520	740	174334	13.328	13.033	13.615
TrackDT01	5	TrackDT	1.0	SCS215a	20120424.131844	20120424.131932	dt-shadow	8	0.013328	60	10	60-180	60	134	GapPrac	1	9	2	3	1	target	1	651	675	175009	13.328	13.304	13.347
TrackDT01	5	TrackDT	1.0	SCS215a	20120424.131844	20120424.131938	dt-shadow	8	0.013328	60	10	60-180	60	66	GapPrac	1	10	2	30	1	target	1	469	766	175775	13.328	13.309	13.348
TrackDT01	5	TrackDT	1.0	SCS215a	20120424.131844	20120424.131943	dt-shadow	8	0.013328	60	10	60-180	60	79	GapPrac	1	11	2	0	0	distractor	1	378	811	176586	13.328	13.098	13.557
TrackDT01	5	TrackDT	1.0	SCS215a	20120424.131844	20120424.131948	dt-shadow	8	0.013328	60	10	60-180	60	100	GapPrac	1	12	2	1	1	target	1	414	793	177379	13.328	12.922	13.725
TrackDT01	5	TrackDT	1.0	SCS215a	20120424.131844	20120424.131953	dt-shadow	8	0.013328	60	10	60-180	60	120	GapPrac	1	13	2	30	0	distractor	1	375	813	178192	13.378	12.854	26.679
TrackDT01	5	TrackDT	1.0	SCS215a	20120424.131844	20120424.132000	dt-shadow	8	0.013328	60	10	60-180	60	150	GapPrac	1	14	2	0	0	distractor	1	360	820	179012	13.328	13.032	13.625
TrackDT01	5	TrackDT	1.0	SCS215a	20120424.131844	20120424.132006	dt-shadow	8	0.013328	60	10	60-180	60	143	GapPrac	1	15	2	30	1	target	1	435	783	179795	13.328	12.975	13.678
TrackDT01	5	TrackDT	1.0	SCS215a	20120424.131844	20120424.132012	dt-shadow	8	0.013328	60	10	60-180	60	72	GapPrac	1	16	2	1	0	distractor	1	374	813	180608	13.328	12.916	13.728
TrackDT01	5	TrackDT	1.0	SCS215a	20120424.131844	20120424.132016	dt-shadow	8	0.013328	60	10	60-180	60	143	GapPrac	1	17	2	0	1	target	1	614	693	181301	13.328	13.105	13.556
TrackDT01	5	TrackDT	1.0	SCS215a	20120424.131844	20120424.132022	dt-shadow	8	0.013328	60	10	60-180	60	180	GapPrac	1	18	2	0	1	target	1	588	706	182007	13.328	13.008	13.655
TrackDT01	5	TrackDT	1.0	SCS215a	20120424.131844	20120424.132029	dt-shadow	8	0.013328	60	10	60-180	60	69	GapPrac	1	19	2	30	0	distractor	1	537	732	182739	13.328	13.082	13.584
TrackDT01	5	TrackDT	1.0	SCS215a	20120424.131844	20120424.132035	dt-shadow	8	0.013328	60	10	60-180	60	142	GapPrac	1	20	2	3	0	distractor	1	364	818	183557	13.328	12.942	13.702
TrackDT01	5	TrackDT	1.0	SCS215a	20120424.132054	20120424.132059	dt-shadow	8	0.013328	60	10	60-180	60	123	GapExp	1	1	2	30	1	target	1	375	813	184370	13.328	13.091	13.572
TrackDT01	5	TrackDT	1.0	SCS215a	20120424.132054	20120424.132106	dt-shadow	8	0.013328	60	10	60-180	60	159	GapExp	1	2	2	1	0	distractor	1	392	804	185174	13.328	13.090	13.557
TrackDT01	5	TrackDT	1.0	SCS215a	20120424.132054	20120424.132112	dt-shadow	8	0.013328	60	10	60-180	60	102	GapExp	1	3	2	0	1	target	1	533	734	185908	13.328	12.935	13.722
TrackDT01	5	TrackDT	1.0	SCS215a	20120424.132054	20120424.132117	dt-shadow	8	0.013328	60	10	60-180	60	70	GapExp	1	4	2	3	0	distractor	1	326	837	186745	13.328	13.308	13.347
TrackDT01	5	TrackDT	1.0	SCS215a	20120424.132054	20120424.132122	dt-shadow	8	0.013328	60	10	60-180	60	78	GapExp	1	5	2	1	1	target	1	508	746	187491	13.328	12.889	13.755
TrackDT01	5	TrackDT	1.0	SCS215a	20120424.132054	20120424.132127	dt-shadow	8	0.013328	60	10	60-180	60	64	GapExp	1	6	2	30	0	distractor	1	366	817	188308	13.328	13.084	13.572
TrackDT01	5	TrackDT	1.0	SCS215a	20120424.132054	20120424.132132	dt-shadow	8	0.013328	60	10	60-180	60	169	GapExp	1	7	2	3	1	target	1	390	805	189113	13.328	12.916	13.742
TrackDT01	5	TrackDT	1.0	SCS215a	20120424.132054	20120424.132139	dt-shadow	8	0.013328	60	10	60-180	60	105	GapExp	1	8	2	0	0	distractor	1	491	755	189868	13.328	12.945	13.724
TrackDT01	5	TrackDT	1.0	SCS215a	20120424.132054	20120424.132144	dt-shadow	8	0.013328	60	10	60-180	60	81	GapExp	0	9	2	30	1	target	1	365	818	190686	13.328	13.307	13.347
TrackDT01	5	TrackDT	1.0	SCS215a	20120424.132054	20120424.132149	dt-shadow	8	0.013328	60	10	60-180	60	176	GapExp	0	10	2	30	0	distractor	1	431	785	191471	13.328	12.856	13.801
TrackDT01	5	TrackDT	1.0	SCS215a	20120424.132054	20120424.132156	dt-shadow	8	0.013328	60	10	60-180	60	139	GapExp	0	11	2	1	0	distractor	1	419	791	192262	13.328	12.955	13.698
TrackDT01	5	TrackDT	1.0	SCS215a	20120424.132054	20120424.132202	dt-shadow	8	0.013328	60	10	60-180	60	133	GapExp	0	12	2	3	0	distractor	1	595	703	192965	13.328	12.860	13.796
TrackDT01	5	TrackDT	1.0	SCS215a	20120424.132054	20120424.132207	dt-shadow	8	0.013328	60	10	60-180	60	148	GapExp	0	13	2	30	1	target	1	404	798	193763	13.328	13.105	13.556
TrackDT01	5	TrackDT	1.0	SCS215a	20120424.132054	20120424.132214	dt-shadow	8	0.013328	60	10	60-180	60	129	GapExp	0	14	2	0	0	distractor	1	672	664	194427	13.328	13.304	13.347
TrackDT01	5	TrackDT	1.0	SCS215a	20120424.132054	20120424.132220	dt-shadow	8	0.013328	60	10	60-180	60	76	GapExp	0	15	2	30	0	distractor	1	642	679	195106	13.328	13.302	13.350
TrackDT01	5	TrackDT	1.0	SCS215a	20120424.132054	20120424.132225	dt-shadow	8	0.013328	60	10	60-180	60	106	GapExp	0	16	2	3	1	target	1	583	709	195815	13.328	13.304	13.348
TrackDT01	5	TrackDT	1.0	SCS215a	20120424.132054	20120424.132231	dt-shadow	8	0.013328	60	10	60-180	60	77	GapExp	0	17	2	1	0	distractor	1	561	720	196535	13.328	13.079	13.570
TrackDT01	5	TrackDT	1.0	SCS215a	20120424.132054	20120424.132236	dt-shadow	8	0.013328	60	10	60-180	60	109	GapExp	0	18	2	3	1	distractor	0	457	-1000	195535	13.328	13.099	13.545
TrackDT01	5	TrackDT	1.0	SCS215a	20120424.132054	20120424.132241	dt-shadow	8	0.013328	60	10	60-180	60	142	GapExp	0	19	2	3	1	target	1	525	738	196273	13.328	12.929	13.715
TrackDT01	5	TrackDT	1.0	SCS215a	20120424.132054	20120424.132248	dt-shadow	8	0.013328	60	10	60-180	60	136	GapExp	0	20	2	1	1	target	1	565	718	196991	13.328	13.043	13.613
TrackDT01	5	TrackDT	1.0	SCS215a	20120424.132054	20120424.132254	dt-shadow	8	0.013328	60	10	60-180	60	75	GapExp	0	21	2	3	0	distractor	1	384	808	197799	13.328	13.014	13.668
TrackDT01	5	TrackDT	1.0	SCS215a	20120424.132054	20120424.132258	dt-shadow	8	0.013328	60	10	60-180	60	82	GapExp	0	22	2	1	0	distractor	1	403	799	198598	13.328	13.099	13.563
TrackDT01	5	TrackDT	1.0	SCS215a	20120424.132054	20120424.132303	dt-shadow	8	0.013328	60	10	60-180	60	154	GapExp	0	23	2	1	0	distractor	1	385	808	199406	13.328	13.105	13.543
TrackDT01	5	TrackDT	1.0	SCS215a	20120424.132054	20120424.132309	dt-shadow	8	0.013328	60	10	60-180	60	106	GapExp	0	24	2	30	1	target	1	526	737	200143	13.328	13.303	13.361
TrackDT01	5	TrackDT	1.0	SCS215a	20120424.132054	20120424.132315	dt-shadow	8	0.013328	60	10	60-180	60	129	GapExp	0	25	2	3	1	target	1	753	624	200767	13.328	12.883	13.772
TrackDT01	5	TrackDT	1.0	SCS215a	20120424.132054	20120424.132321	dt-shadow	8	0.013328	60	10	60-180	60	80	GapExp	0	26	2	0	1	target	1	907	547	201314	13.328	12.932	13.731
TrackDT01	5	TrackDT	1.0	SCS215a	20120424.132054	20120424.132327	dt-shadow	8	0.013328	60	10	60-180	60	109	GapExp	0	27	2	1	1	target	1	479	761	202075	13.328	13.303	13.347
TrackDT01	5	TrackDT	1.0	SCS215a	20120424.132054	20120424.132332	dt-shadow	8	0.013328	60	10	60-180	60	90	GapExp	0	28	2	30	0	distractor	1	447	777	202852	13.328	13.104	13.551
TrackDT01	5	TrackDT	1.0	SCS215a	20120424.132054	20120424.132338	dt-shadow	8	0.013328	60	10	60-180	60	120	GapExp	0	29	2	0	1	target	1	510	745	203597	13.328	13.192	13.452
TrackDT01	5	TrackDT	1.0	SCS215a	20120424.132054	20120424.132343	dt-shadow	8	0.013328	60	10	60-180	60	92	GapExp	0	30	2	3	0	distractor	1	678	661	204258	13.328	13.302	13.347
TrackDT01	5	TrackDT	1.0	SCS215a	20120424.132054	20120424.132349	dt-shadow	8	0.013328	60	10	60-180	60	63	GapExp	0	31	2	3	0	distractor	1	436	782	205040	13.328	12.924	13.732
TrackDT01	5	TrackDT	1.0	SCS215a	20120424.132054	20120424.132354	dt-shadow	8	0.013328	60	10	60-180	60	90	GapExp	0	32	2	30	1	target	1	804	598	205638	13.328	13.086	13.566
TrackDT01	5	TrackDT	1.0	SCS215a	20120424.132054	20120424.132400	dt-shadow	8	0.013328	60	10	60-180	60	63	GapExp	0	33	2	1	1	target	1	545	728	206366	13.328	13.307	13.349
TrackDT01	5	TrackDT	1.0	SCS215a	20120424.132054	20120424.132405	dt-shadow	8	0.013328	60	10	60-180	60	119	GapExp	0	34	2	1	1	target	1	468	766	207132	13.328	13.306	13.347
TrackDT01	5	TrackDT	1.0	SCS215a	20120424.132054	20120424.132410	dt-shadow	8	0.013328	60	10	60-180	60	156	GapExp	0	35	2	0	1	target	1	753	624	207756	13.328	13.077	13.574
TrackDT01	5	TrackDT	1.0	SCS215a	20120424.132054	20120424.132416	dt-shadow	8	0.013328	60	10	60-180	60	70	GapExp	0	36	2	3	0	distractor	1	412	794	208550	13.328	13.105	13.550
TrackDT01	5	TrackDT	1.0	SCS215a	20120424.132054	20120424.132421	dt-shadow	8	0.013328	60	10	60-180	60	174	GapExp	0	37	2	3	0	distractor	1	366	817	209367	13.328	12.916	13.749
TrackDT01	5	TrackDT	1.0	SCS215a	20120424.132054	20120424.132428	dt-shadow	8	0.013328	60	10	60-180	60	131	GapExp	0	38	2	30	1	target	1	461	770	210137	13.328	13.112	13.549
TrackDT01	5	TrackDT	1.0	SCS215a	20120424.132054	20120424.132434	dt-shadow	8	0.013328	60	10	60-180	60	65	GapExp	0	39	2	30	0	distractor	1	481	760	210897	13.328	13.304	13.350
TrackDT01	5	TrackDT	1.0	SCS215a	20120424.132054	20120424.132439	dt-shadow	8	0.013328	60	10	60-180	60	85	GapExp	0	40	2	1	1	target	1	1067	467	211364	13.328	13.098	13.553
TrackDT01	5	TrackDT	1.0	SCS215a	20120424.132054	20120424.132445	dt-shadow	8	0.013328	60	10	60-180	60	159	GapExp	0	41	2	30	0	distractor	1	660	670	212034	13.328	12.924	13.740
TrackDT01	5	TrackDT	1.0	SCS215a	20120424.132054	20120424.132451	dt-shadow	8	0.013328	60	10	60-180	60	180	GapExp	0	42	2	0	1	target	1	537	732	212766	13.328	12.980	13.683
TrackDT01	5	TrackDT	1.0	SCS215a	20120424.132054	20120424.132458	dt-shadow	8	0.013328	60	10	60-180	60	169	GapExp	0	43	2	0	0	distractor	1	382	809	213575	13.328	13.111	13.537
TrackDT01	5	TrackDT	1.0	SCS215a	20120424.132054	20120424.132504	dt-shadow	8	0.013328	60	10	60-180	60	100	GapExp	0	44	2	30	0	distractor	1	2259	0	213575	13.328	12.951	13.698
TrackDT01	5	TrackDT	1.0	SCS215a	20120424.132054	20120424.132512	dt-shadow	8	0.013328	60	10	60-180	60	168	GapExp	0	45	2	1	0	distractor	1	501	750	214325	13.328	13.083	13.565
TrackDT01	5	TrackDT	1.0	SCS215a	20120424.132054	20120424.132518	dt-shadow	8	0.013328	60	10	60-180	60	77	GapExp	0	46	2	30	1	target	1	440	780	215105	13.328	13.075	13.568
TrackDT01	5	TrackDT	1.0	SCS215a	20120424.132054	20120424.132523	dt-shadow	8	0.013328	60	10	60-180	60	90	GapExp	0	47	2	0	0	distractor	1	865	568	215673	13.328	13.301	13.347
TrackDT01	5	TrackDT	1.0	SCS215a	20120424.132054	20120424.132529	dt-shadow	8	0.013328	60	10	60-180	60	169	GapExp	0	48	2	3	0	distractor	1	483	759	216432	13.328	13.301	13.362
TrackDT01	5	TrackDT	1.0	SCS215a	20120424.132054	20120424.132536	dt-shadow	8	0.013328	60	10	60-180	60	94	GapExp	0	49	2	3	1	target	1	351	825	217257	13.328	13.305	13.345
TrackDT01	5	TrackDT	1.0	SCS215a	20120424.132054	20120424.132541	dt-shadow	8	0.013328	60	10	60-180	60	162	GapExp	0	50	2	0	1	target	1	457	772	218029	13.328	12.877	13.763
TrackDT01	5	TrackDT	1.0	SCS215a	20120424.132054	20120424.132613	dt-shadow	8	0.013328	60	10	60-180	60	162	GapExp	0	51	2	1	1	target	1	423	789	218818	13.328	13.043	13.605
TrackDT01	5	TrackDT	1.0	SCS215a	20120424.132054	20120424.132620	dt-shadow	8	0.013328	60	10	60-180	60	136	GapExp	0	52	2	1	0	target	0	410	-1000	217818	13.328	13.085	13.558
TrackDT01	5	TrackDT	1.0	SCS215a	20120424.132054	20120424.132625	dt-shadow	8	0.013328	60	10	60-180	60	123	GapExp	0	53	2	3	1	target	1	337	832	218650	13.328	13.138	13.532
TrackDT01	5	TrackDT	1.0	SCS215a	20120424.132054	20120424.132631	dt-shadow	8	0.013328	60	10	60-180	60	180	GapExp	0	54	2	3	1	target	1	422	789	219439	13.328	13.209	13.448
TrackDT01	5	TrackDT	1.0	SCS215a	20120424.132054	20120424.132637	dt-shadow	8	0.013328	60	10	60-180	60	94	GapExp	0	55	2	0	0	distractor	1	382	809	220248	13.328	13.308	13.354
TrackDT01	5	TrackDT	1.0	SCS215a	20120424.132054	20120424.132642	dt-shadow	8	0.013328	60	10	60-180	60	97	GapExp	0	56	2	0	1	target	1	655	673	220921	13.328	13.112	13.543
TrackDT01	5	TrackDT	1.0	SCS215a	20120424.132054	20120424.132648	dt-shadow	8	0.013328	60	10	60-180	60	121	GapExp	0	57	2	30	1	target	1	388	806	221727	13.328	13.300	13.370
TrackDT01	5	TrackDT	1.0	SCS215a	20120424.132054	20120424.132654	dt-shadow	8	0.013328	60	10	60-180	60	143	GapExp	0	58	2	1	0	distractor	1	399	801	222528	13.328	13.295	13.361
TrackDT01	5	TrackDT	1.0	SCS215a	20120424.132054	20120424.132700	dt-shadow	8	0.013328	60	10	60-180	60	67	GapExp	0	59	2	1	0	distractor	1	420	790	223318	13.328	13.310	13.353
TrackDT01	5	TrackDT	1.0	SCS215a	20120424.132054	20120424.132705	dt-shadow	8	0.013328	60	10	60-180	60	157	GapExp	0	60	2	1	0	distractor	1	371	815	224133	13.328	12.893	13.771
TrackDT01	5	TrackDT	1.0	SCS215a	20120424.132054	20120424.132710	dt-shadow	8	0.013328	60	10	60-180	60	84	GapExp	0	61	2	1	0	distractor	1	338	831	224964	13.328	12.934	13.728
TrackDT01	5	TrackDT	1.0	SCS215a	20120424.132054	20120424.132715	dt-shadow	8	0.013328	60	10	60-180	60	176	GapExp	0	62	2	30	0	distractor	1	454	773	225737	13.328	13.000	13.635
TrackDT01	5	TrackDT	1.0	SCS215a	20120424.132054	20120424.132722	dt-shadow	8	0.013328	60	10	60-180	60	118	GapExp	0	63	2	30	1	target	1	376	812	226549	13.328	13.305	13.346
TrackDT01	5	TrackDT	1.0	SCS215a	20120424.132054	20120424.132728	dt-shadow	8	0.013328	60	10	60-180	60	154	GapExp	0	64	2	1	0	distractor	1	316	842	227391	13.328	12.990	13.662
TrackDT01	5	TrackDT	1.0	SCS215a	20120424.132054	20120424.132734	dt-shadow	8	0.013328	60	10	60-180	60	155	GapExp	0	65	2	3	1	target	1	424	788	228179	13.328	13.303	13.347
TrackDT01	5	TrackDT	1.0	SCS215a	20120424.132054	20120424.132740	dt-shadow	8	0.013328	60	10	60-180	60	74	GapExp	0	66	2	0	0	distractor	1	368	816	228995	13.328	13.309	13.357
TrackDT01	5	TrackDT	1.0	SCS215a	20120424.132054	20120424.132745	dt-shadow	8	0.013328	60	10	60-180	60	88	GapExp	0	67	2	0	0	distractor	1	397	802	229797	13.328	13.005	13.652
TrackDT01	5	TrackDT	1.0	SCS215a	20120424.132054	20120424.132750	dt-shadow	8	0.013328	60	10	60-180	60	111	GapExp	0	68	2	0	0	distractor	1	364	818	230615	13.328	13.199	13.469
TrackDT01	5	TrackDT	1.0	SCS215a	20120424.132054	20120424.132755	dt-shadow	8	0.013328	60	10	60-180	60	141	GapExp	0	69	2	3	0	distractor	1	357	822	231437	13.328	12.919	13.731
TrackDT01	5	TrackDT	1.0	SCS215a	20120424.132054	20120424.132801	dt-shadow	8	0.013328	60	10	60-180	60	111	GapExp	0	70	2	30	0	distractor	1	474	763	232200	13.328	13.306	13.348
TrackDT01	5	TrackDT	1.0	SCS215a	20120424.132054	20120424.132807	dt-shadow	8	0.013328	60	10	60-180	60	145	GapExp	0	71	2	0	1	distractor	0	383	-1000	231200	13.328	13.098	13.550
TrackDT01	5	TrackDT	1.0	SCS215a	20120424.132054	20120424.132813	dt-shadow	8	0.013328	60	10	60-180	60	132	GapExp	0	72	2	30	1	target	1	306	847	232047	13.328	12.937	13.713
TrackDT01	5	TrackDT	1.0	SCS215a	20120424.132054	20120424.132819	dt-shadow	8	0.013328	60	10	60-180	60	153	GapExp	0	73	2	30	0	distractor	1	788	606	232653	13.328	13.025	13.625
TrackDT01	5	TrackDT	1.0	SCS215a	20120424.132054	20120424.132826	dt-shadow	8	0.013328	60	10	60-180	60	146	GapExp	0	74	2	1	0	distractor	1	757	622	233275	13.328	13.260	13.401
TrackDT01	5	TrackDT	1.0	SCS215a	20120424.132054	20120424.132832	dt-shadow	8	0.013328	60	10	60-180	60	144	GapExp	0	75	2	0	1	distractor	0	477	-1000	232275	13.328	12.894	13.749
TrackDT01	5	TrackDT	1.0	SCS215a	20120424.132054	20120424.132838	dt-shadow	8	0.013328	60	10	60-180	60	175	GapExp	0	76	2	0	0	distractor	1	579	711	232986	13.328	12.923	13.734
TrackDT01	5	TrackDT	1.0	SCS215a	20120424.132054	20120424.132845	dt-shadow	8	0.013328	60	10	60-180	60	68	GapExp	0	77	2	1	0	distractor	1	619	691	233677	13.328	12.902	13.750
TrackDT01	5	TrackDT	1.0	SCS215a	20120424.132054	20120424.132850	dt-shadow	8	0.013328	60	10	60-180	60	173	GapExp	0	78	2	3	0	distractor	1	352	824	234501	13.328	13.089	13.564
TrackDT01	5	TrackDT	1.0	SCS215a	20120424.132054	20120424.132856	dt-shadow	8	0.013328	60	10	60-180	60	155	GapExp	0	79	2	0	1	target	1	517	742	235243	13.328	12.903	13.752
TrackDT01	5	TrackDT	1.0	SCS215a	20120424.132054	20120424.132902	dt-shadow	8	0.013328	60	10	60-180	60	122	GapExp	0	80	2	0	0	distractor	1	420	790	236033	13.328	12.949	13.699
TrackDT01	5	TrackDT	1.0	SCS215a	20120424.132054	20120424.132908	dt-shadow	8	0.013328	60	10	60-180	60	72	GapExp	0	81	2	1	0	distractor	1	476	762	236795	13.328	13.308	13.345
