exp	sub	code	rev	comp	runtime	trialtime	stdt	nstim	refreshdur	cuedur	gapdur	gapOnsetRange	durPostProbe	gapOnsetTime	blocktype	prac	trial	ntargets	soa	probeTarget	resp	acc	rt	pts	tpts	meanFrameDur	minFrameDur	maxFrameDur
TrackDT01	6	TrackDT	1.0	SCS215a	20120424.135324	20120424.135342	single-task	8	0.013328	60	0	60-180	60	80	NoGap	1	1	2	1	0	target	0	3485	-1000	-1000	13.329	13.308	13.524
TrackDT01	6	TrackDT	1.0	SCS215a	20120424.135324	20120424.135351	single-task	8	0.013328	60	0	60-180	60	123	NoGap	1	2	2	30	0	target	0	1858	-1000	-2000	13.328	13.108	13.554
TrackDT01	6	TrackDT	1.0	SCS215a	20120424.135324	20120424.135358	single-task	8	0.013328	60	0	60-180	60	71	NoGap	1	3	2	0	1	target	1	5676	0	-2000	13.328	13.307	13.349
TrackDT01	6	TrackDT	1.0	SCS215a	20120424.135324	20120424.135408	single-task	8	0.013328	60	0	60-180	60	74	NoGap	1	4	2	3	1	target	1	1442	279	-1721	13.328	12.931	13.734
TrackDT01	6	TrackDT	1.0	SCS215a	20120424.135324	20120424.135414	single-task	8	0.013328	60	0	60-180	60	119	NoGap	1	5	2	0	0	distractor	1	763	619	-1102	13.328	13.098	13.570
TrackDT01	6	TrackDT	1.0	SCS215a	20120424.135324	20120424.135420	single-task	8	0.013328	60	0	60-180	60	71	NoGap	1	6	2	1	1	target	1	852	574	-528	13.328	13.310	13.346
TrackDT01	6	TrackDT	1.0	SCS215a	20120424.135324	20120424.135426	single-task	8	0.013328	60	0	60-180	60	111	NoGap	1	7	2	3	0	distractor	1	1245	378	-150	13.328	12.980	13.671
TrackDT01	6	TrackDT	1.0	SCS215a	20120424.135324	20120424.135432	single-task	8	0.013328	60	0	60-180	60	101	NoGap	1	8	2	3	1	target	1	716	642	492	13.328	12.876	13.768
TrackDT01	6	TrackDT	1.0	SCS215a	20120424.135324	20120424.135437	single-task	8	0.013328	60	0	60-180	60	158	NoGap	1	9	2	3	0	distractor	1	1030	485	977	13.328	13.299	13.358
TrackDT01	6	TrackDT	1.0	SCS215a	20120424.135324	20120424.135444	single-task	8	0.013328	60	0	60-180	60	91	NoGap	1	10	2	1	1	target	1	1676	162	1139	13.328	13.093	13.558
TrackDT01	6	TrackDT	1.0	SCS215a	20120424.135324	20120424.135450	single-task	8	0.013328	60	0	60-180	60	122	NoGap	1	11	2	1	1	target	1	645	678	1817	13.328	12.925	13.733
TrackDT01	6	TrackDT	1.0	SCS215a	20120424.135324	20120424.135456	single-task	8	0.013328	60	0	60-180	60	69	NoGap	1	12	2	0	0	distractor	1	645	678	2495	13.328	13.112	13.541
TrackDT01	6	TrackDT	1.0	SCS215a	20120424.135324	20120424.135501	single-task	8	0.013328	60	0	60-180	60	84	NoGap	1	13	2	3	1	target	1	545	728	3223	13.328	13.299	13.350
TrackDT01	6	TrackDT	1.0	SCS215a	20120424.135324	20120424.135506	single-task	8	0.013328	60	0	60-180	60	77	NoGap	1	14	2	30	1	target	1	475	763	3986	13.328	12.979	13.683
TrackDT01	6	TrackDT	1.0	SCS215a	20120424.135324	20120424.135511	single-task	8	0.013328	60	0	60-180	60	117	NoGap	1	15	2	3	1	target	1	457	772	4758	13.328	13.106	13.552
TrackDT01	6	TrackDT	1.0	SCS215a	20120424.135324	20120424.135516	single-task	8	0.013328	60	0	60-180	60	134	NoGap	1	16	2	1	0	distractor	1	632	684	5442	13.328	12.888	13.780
TrackDT01	6	TrackDT	1.0	SCS215a	20120424.135324	20120424.135522	single-task	8	0.013328	60	0	60-180	60	157	NoGap	1	17	2	1	0	target	0	582	-1000	4442	13.328	12.972	13.678
TrackDT01	6	TrackDT	1.0	SCS215a	20120424.135324	20120424.135529	single-task	8	0.013328	60	0	60-180	60	61	NoGap	1	18	2	3	0	distractor	1	1466	267	4709	13.328	12.926	13.711
TrackDT01	6	TrackDT	1.0	SCS215a	20120424.135324	20120424.135534	single-task	8	0.013328	60	0	60-180	60	180	NoGap	1	19	2	0	1	target	1	412	794	5503	13.328	13.305	13.348
TrackDT01	6	TrackDT	1.0	SCS215a	20120424.135324	20120424.135540	single-task	8	0.013328	60	0	60-180	60	99	NoGap	1	20	2	30	0	distractor	1	754	623	6126	13.328	13.304	13.347
TrackDT01	6	TrackDT	1.0	SCS215a	20120424.135324	20120424.135546	single-task	8	0.013328	60	0	60-180	60	173	NoGap	1	21	2	0	1	target	1	383	809	6935	13.328	12.940	13.716
TrackDT01	6	TrackDT	1.0	SCS215a	20120424.135324	20120424.135552	single-task	8	0.013328	60	0	60-180	60	64	NoGap	1	22	2	30	0	distractor	1	1038	481	7416	13.328	12.874	13.775
TrackDT01	6	TrackDT	1.0	SCS215a	20120424.135324	20120424.135558	single-task	8	0.013328	60	0	60-180	60	91	NoGap	1	23	2	30	1	target	1	495	753	8169	13.328	13.098	13.550
TrackDT01	6	TrackDT	1.0	SCS215a	20120424.135324	20120424.135604	single-task	8	0.013328	60	0	60-180	60	156	NoGap	1	24	2	1	0	distractor	1	1034	483	8652	13.328	12.949	13.710
TrackDT01	6	TrackDT	1.0	SCS215a	20120424.135324	20120424.135610	single-task	8	0.013328	60	0	60-180	60	142	NoGap	1	25	2	3	0	distractor	1	537	732	9384	13.328	13.045	13.615
TrackDT01	6	TrackDT	1.0	SCS215a	20120424.135324	20120424.135616	single-task	8	0.013328	60	0	60-180	60	114	NoGap	1	26	2	3	1	target	1	564	718	10102	13.328	13.307	13.361
TrackDT01	6	TrackDT	1.0	SCS215a	20120424.135324	20120424.135622	single-task	8	0.013328	60	0	60-180	60	78	NoGap	1	27	2	1	1	distractor	0	747	-1000	9102	13.328	12.878	13.764
TrackDT01	6	TrackDT	1.0	SCS215a	20120424.135324	20120424.135627	single-task	8	0.013328	60	0	60-180	60	153	NoGap	1	28	2	0	0	distractor	1	549	726	9828	13.328	13.104	13.551
TrackDT01	6	TrackDT	1.0	SCS215a	20120424.135324	20120424.135632	single-task	8	0.013328	60	0	60-180	60	172	NoGap	1	29	2	0	0	target	0	1241	-1000	8828	13.328	13.097	13.545
TrackDT01	6	TrackDT	1.0	SCS215a	20120424.135324	20120424.135640	single-task	8	0.013328	60	0	60-180	60	173	NoGap	1	30	2	0	0	distractor	1	497	752	9580	13.328	12.883	13.781
TrackDT01	6	TrackDT	1.0	SCS215a	20120424.135324	20120424.135646	single-task	8	0.013328	60	0	60-180	60	92	NoGap	1	31	2	0	1	target	1	466	767	10347	13.328	12.910	13.742
TrackDT01	6	TrackDT	1.0	SCS215a	20120424.135324	20120424.135651	single-task	8	0.013328	60	0	60-180	60	153	NoGap	1	32	2	30	1	target	1	716	642	10989	13.328	13.307	13.349
TrackDT01	6	TrackDT	1.0	SCS215a	20120424.135324	20120424.135658	single-task	8	0.013328	60	0	60-180	60	63	NoGap	1	33	2	1	0	distractor	1	798	601	11590	13.328	13.298	13.358
TrackDT01	6	TrackDT	1.0	SCS215a	20120424.135324	20120424.135702	single-task	8	0.013328	60	0	60-180	60	119	NoGap	1	34	2	30	0	distractor	1	513	744	12334	13.328	13.113	13.550
TrackDT01	6	TrackDT	1.0	SCS215a	20120424.135324	20120424.135708	single-task	8	0.013328	60	0	60-180	60	165	NoGap	1	35	2	0	1	target	1	1247	377	12711	13.328	13.102	13.553
TrackDT01	6	TrackDT	1.0	SCS215a	20120424.135324	20120424.135716	single-task	8	0.013328	60	0	60-180	60	164	NoGap	1	36	2	30	0	target	0	994	-1000	11711	13.328	13.293	13.355
TrackDT01	6	TrackDT	1.0	SCS215a	20120424.135324	20120424.135723	single-task	8	0.013328	60	0	60-180	60	65	NoGap	1	37	2	30	1	distractor	0	773	-1000	10711	13.328	13.099	13.571
TrackDT01	6	TrackDT	1.0	SCS215a	20120424.135324	20120424.135728	single-task	8	0.013328	60	0	60-180	60	65	NoGap	1	38	2	30	1	target	1	730	635	11346	13.328	12.873	13.776
TrackDT01	6	TrackDT	1.0	SCS215a	20120424.135324	20120424.135733	single-task	8	0.013328	60	0	60-180	60	180	NoGap	1	39	2	3	0	distractor	1	586	707	12053	13.328	12.875	13.782
TrackDT01	6	TrackDT	1.0	SCS215a	20120424.135324	20120424.135740	single-task	8	0.013328	60	0	60-180	60	113	NoGap	1	40	2	1	1	distractor	0	525	-1000	11053	13.328	12.861	13.793
TrackDT01	6	TrackDT	1.0	SCS215a	20120424.135920	20120424.135952	dt-generate	8	0.013327	60	10	60-180	60	69	GapPrac	1	1	2	0	1	target	1	466	767	11820	13.328	13.110	13.553
TrackDT01	6	TrackDT	1.0	SCS215a	20120424.135920	20120424.135957	dt-generate	8	0.013327	60	10	60-180	60	142	GapPrac	1	2	2	3	0	target	0	581	-1000	10820	13.328	13.098	13.564
TrackDT01	6	TrackDT	1.0	SCS215a	20120424.135920	20120424.140003	dt-generate	8	0.013327	60	10	60-180	60	134	GapPrac	1	3	2	3	1	distractor	0	383	-1000	9820	13.328	13.299	13.353
TrackDT01	6	TrackDT	1.0	SCS215a	20120424.135920	20120424.140009	dt-generate	8	0.013327	60	10	60-180	60	178	GapPrac	1	4	2	30	1	target	1	473	764	10584	13.328	12.994	13.669
TrackDT01	6	TrackDT	1.0	SCS215a	20120424.135920	20120424.140015	dt-generate	8	0.013327	60	10	60-180	60	132	GapPrac	1	5	2	30	1	distractor	0	1702	-1000	9584	13.328	12.918	13.723
TrackDT01	6	TrackDT	1.0	SCS215a	20120424.135920	20120424.140023	dt-generate	8	0.013327	60	10	60-180	60	125	GapPrac	1	6	2	1	0	target	0	857	-1000	8584	13.328	13.308	13.354
TrackDT01	6	TrackDT	1.0	SCS215a	20120424.135920	20120424.140029	dt-generate	8	0.013327	60	10	60-180	60	168	GapPrac	1	7	2	3	0	early	-4	-349	-1000	7584	13.328	12.935	13.728
TrackDT01	6	TrackDT	1.0	SCS215a	20120424.135920	20120424.140042	dt-generate	8	0.013327	60	10	60-180	60	92	GapPrac	1	8	2	30	0	early	-4	-160	-1000	6584	13.328	13.035	13.615
TrackDT01	6	TrackDT	1.0	SCS215a	20120424.135920	20120424.140048	dt-generate	8	0.013327	60	10	60-180	60	90	GapPrac	1	9	2	3	0	distractor	1	326	837	7421	13.328	13.034	13.630
TrackDT01	6	TrackDT	1.0	SCS215a	20120424.135920	20120424.140053	dt-generate	8	0.013327	60	10	60-180	60	158	GapPrac	1	10	2	0	0	target	0	1467	-1000	6421	13.328	12.867	13.776
TrackDT01	6	TrackDT	1.0	SCS215a	20120424.135920	20120424.140101	dt-generate	8	0.013327	60	10	60-180	60	89	GapPrac	1	11	2	3	1	distractor	0	581	-1000	5421	13.328	12.979	13.684
TrackDT01	6	TrackDT	1.0	SCS215a	20120424.135920	20120424.140106	dt-generate	8	0.013327	60	10	60-180	60	114	GapPrac	1	12	2	0	1	target	1	572	714	6135	13.328	12.895	13.780
TrackDT01	6	TrackDT	1.0	SCS215a	20120424.135920	20120424.140111	dt-generate	8	0.013327	60	10	60-180	60	71	GapPrac	1	13	2	30	0	early	-4	-608	-1000	5135	13.328	13.014	13.644
TrackDT01	6	TrackDT	1.0	SCS215a	20120424.135920	20120424.140119	dt-generate	8	0.013327	60	10	60-180	60	62	GapPrac	1	14	2	1	1	target	1	554	723	5858	13.328	13.308	13.353
TrackDT01	6	TrackDT	1.0	SCS215a	20120424.135920	20120424.140124	dt-generate	8	0.013327	60	10	60-180	60	78	GapPrac	1	15	2	0	1	distractor	0	840	-1000	4858	13.328	12.967	13.679
TrackDT01	6	TrackDT	1.0	SCS215a	20120424.135920	20120424.140130	dt-generate	8	0.013327	60	10	60-180	60	174	GapPrac	1	16	2	0	0	target	0	1394	-1000	3858	13.328	12.918	13.731
TrackDT01	6	TrackDT	1.0	SCS215a	20120424.135920	20120424.140137	dt-generate	8	0.013327	60	10	60-180	60	155	GapPrac	1	17	2	3	1	distractor	0	541	-1000	2858	13.329	13.019	13.707
TrackDT01	6	TrackDT	1.0	SCS215a	20120424.135920	20120424.140143	dt-generate	8	0.013327	60	10	60-180	60	176	GapPrac	1	18	2	1	1	target	1	636	682	3540	13.328	13.154	13.513
TrackDT01	6	TrackDT	1.0	SCS215a	20120424.135920	20120424.140150	dt-generate	8	0.013327	60	10	60-180	60	176	GapPrac	1	19	2	30	1	distractor	0	402	-1000	2540	13.328	12.844	13.815
TrackDT01	6	TrackDT	1.0	SCS215a	20120424.135920	20120424.140156	dt-generate	8	0.013327	60	10	60-180	60	164	GapPrac	1	20	2	1	0	target	0	763	-1000	1540	13.328	12.882	13.769
TrackDT01	6	TrackDT	1.0	SCS215a	20120424.140240	20120424.140255	dt-generate	8	0.013327	60	10	60-180	60	99	GapExp	1	1	2	3	0	target	0	732	-1000	540	13.328	12.838	13.812
TrackDT01	6	TrackDT	1.0	SCS215a	20120424.140240	20120424.140302	dt-generate	8	0.013327	60	10	60-180	60	83	GapExp	1	2	2	30	0	target	0	676	-1000	-460	13.328	12.986	13.665
TrackDT01	6	TrackDT	1.0	SCS215a	20120424.140240	20120424.140307	dt-generate	8	0.013327	60	10	60-180	60	92	GapExp	1	3	2	1	1	distractor	0	4057	-1000	-1460	13.328	13.105	13.559
TrackDT01	6	TrackDT	1.0	SCS215a	20120424.140240	20120424.140316	dt-generate	8	0.013327	60	10	60-180	60	93	GapExp	1	4	2	30	1	target	1	1180	410	-1050	13.328	12.896	13.768
TrackDT01	6	TrackDT	1.0	SCS215a	20120424.140240	20120424.140322	dt-generate	8	0.013327	60	10	60-180	60	153	GapExp	1	5	2	0	1	distractor	0	678	-1000	-2050	13.328	13.003	13.666
TrackDT01	6	TrackDT	1.0	SCS215a	20120424.140240	20120424.140329	dt-generate	8	0.013327	60	10	60-180	60	147	GapExp	1	6	2	0	0	target	0	615	-1000	-3050	13.328	12.905	13.754
TrackDT01	6	TrackDT	1.0	SCS215a	20120424.140240	20120424.140335	dt-generate	8	0.013327	60	10	60-180	60	81	GapExp	1	7	2	1	0	distractor	1	3242	0	-3050	13.328	12.885	13.779
TrackDT01	6	TrackDT	1.0	SCS215a	20120424.140240	20120424.140343	dt-generate	8	0.013327	60	10	60-180	60	107	GapExp	1	8	2	3	1	target	1	623	689	-2361	13.327	13.028	13.628
TrackDT01	6	TrackDT	1.0	SCS215a	20120424.140240	20120424.140348	dt-generate	8	0.013327	60	10	60-180	60	95	GapExp	0	9	2	3	0	distractor	1	467	767	-1594	13.328	13.006	13.650
TrackDT01	6	TrackDT	1.0	SCS215a	20120424.140240	20120424.140354	dt-generate	8	0.013327	60	10	60-180	60	133	GapExp	0	10	2	0	0	target	0	716	-1000	-2594	13.328	12.867	13.787
TrackDT01	6	TrackDT	1.0	SCS215a	20120424.140240	20120424.140400	dt-generate	8	0.013327	60	10	60-180	60	140	GapExp	0	11	2	1	0	distractor	1	673	664	-1930	13.328	12.916	13.767
TrackDT01	6	TrackDT	1.0	SCS215a	20120424.140240	20120424.140406	dt-generate	8	0.013327	60	10	60-180	60	147	GapExp	0	12	2	30	1	target	1	507	747	-1183	13.328	12.870	13.793
TrackDT01	6	TrackDT	1.0	SCS215a	20120424.140240	20120424.140412	dt-generate	8	0.013327	60	10	60-180	60	81	GapExp	0	13	2	30	1	distractor	0	962	-1000	-2183	13.328	12.953	13.690
TrackDT01	6	TrackDT	1.0	SCS215a	20120424.140240	20120424.140418	dt-generate	8	0.013327	60	10	60-180	60	148	GapExp	0	14	2	3	0	target	0	450	-1000	-3183	13.328	13.205	13.454
TrackDT01	6	TrackDT	1.0	SCS215a	20120424.140240	20120424.140424	dt-generate	8	0.013327	60	10	60-180	60	95	GapExp	0	15	2	1	1	distractor	0	2723	-1000	-4183	13.328	12.879	13.763
TrackDT01	6	TrackDT	1.0	SCS215a	20120424.140240	20120424.140432	dt-generate	8	0.013327	60	10	60-180	60	104	GapExp	0	16	2	30	1	target	1	42	979	-3204	13.330	12.902	13.778
TrackDT01	6	TrackDT	1.0	SCS215a	20120424.140240	20120424.140438	dt-generate	8	0.013327	60	10	60-180	60	137	GapExp	0	17	2	3	0	target	0	1324	-1000	-4204	13.328	13.098	13.553
TrackDT01	6	TrackDT	1.0	SCS215a	20120424.140240	20120424.140444	dt-generate	8	0.013327	60	10	60-180	60	131	GapExp	0	18	2	30	0	distractor	1	771	615	-3589	13.328	12.974	13.709
TrackDT01	6	TrackDT	1.0	SCS215a	20120424.140240	20120424.140451	dt-generate	8	0.013327	60	10	60-180	60	152	GapExp	0	19	2	3	1	distractor	0	469	-1000	-4589	13.328	13.092	13.572
TrackDT01	6	TrackDT	1.0	SCS215a	20120424.140240	20120424.140457	dt-generate	8	0.013327	60	10	60-180	60	99	GapExp	0	20	2	0	0	target	0	1370	-1000	-5589	13.328	13.102	13.550
TrackDT01	6	TrackDT	1.0	SCS215a	20120424.140240	20120424.140503	dt-generate	8	0.013327	60	10	60-180	60	163	GapExp	0	21	2	1	0	distractor	1	626	687	-4902	13.328	13.307	13.349
TrackDT01	6	TrackDT	1.0	SCS215a	20120424.140240	20120424.140510	dt-generate	8	0.013327	60	10	60-180	60	160	GapExp	0	22	2	0	0	distractor	1	1272	364	-4538	13.328	13.106	13.550
TrackDT01	6	TrackDT	1.0	SCS215a	20120424.140240	20120424.140517	dt-generate	8	0.013327	60	10	60-180	60	172	GapExp	0	23	2	30	0	distractor	1	2817	0	-4538	13.328	13.092	13.572
TrackDT01	6	TrackDT	1.0	SCS215a	20120424.140240	20120424.140526	dt-generate	8	0.013327	60	10	60-180	60	63	GapExp	0	24	2	3	1	distractor	0	932	-1000	-5538	13.328	13.101	13.551
TrackDT01	6	TrackDT	1.0	SCS215a	20120424.140240	20120424.140531	dt-generate	8	0.013327	60	10	60-180	60	158	GapExp	0	25	2	0	1	distractor	0	1343	-1000	-6538	13.328	13.102	13.550
TrackDT01	6	TrackDT	1.0	SCS215a	20120424.140240	20120424.140538	dt-generate	8	0.013327	60	10	60-180	60	171	GapExp	0	26	2	3	0	target	0	1339	-1000	-7538	13.328	12.855	13.801
TrackDT01	6	TrackDT	1.0	SCS215a	20120424.140240	20120424.140545	dt-generate	8	0.013327	60	10	60-180	60	119	GapExp	0	27	2	30	1	distractor	0	3851	-1000	-8538	13.328	12.944	13.719
TrackDT01	6	TrackDT	1.0	SCS215a	20120424.140240	20120424.140555	dt-generate	8	0.013327	60	10	60-180	60	178	GapExp	0	28	2	0	0	target	0	739	-1000	-9538	13.328	12.929	13.733
TrackDT01	6	TrackDT	1.0	SCS215a	20120424.140240	20120424.140601	dt-generate	8	0.013327	60	10	60-180	60	168	GapExp	0	29	2	1	1	distractor	0	493	-1000	-10538	13.328	12.959	13.714
TrackDT01	6	TrackDT	1.0	SCS215a	20120424.140240	20120424.140608	dt-generate	8	0.013327	60	10	60-180	60	167	GapExp	0	30	2	1	1	distractor	0	985	-1000	-11538	13.328	12.997	13.660
TrackDT01	6	TrackDT	1.0	SCS215a	20120424.140240	20120424.140614	dt-generate	8	0.013327	60	10	60-180	60	140	GapExp	0	31	2	0	1	target	1	664	668	-10870	13.328	12.915	13.745
TrackDT01	6	TrackDT	1.0	SCS215a	20120424.140240	20120424.140621	dt-generate	8	0.013327	60	10	60-180	60	113	GapExp	0	32	2	0	0	target	0	1030	-1000	-11870	13.328	12.978	13.665
TrackDT01	6	TrackDT	1.0	SCS215a	20120424.140240	20120424.140627	dt-generate	8	0.013327	60	10	60-180	60	173	GapExp	0	33	2	3	1	distractor	0	677	-1000	-12870	13.328	13.113	13.556
TrackDT01	6	TrackDT	1.0	SCS215a	20120424.140240	20120424.140633	dt-generate	8	0.013327	60	10	60-180	60	135	GapExp	0	34	2	3	1	target	1	539	731	-12139	13.328	13.308	13.343
TrackDT01	6	TrackDT	1.0	SCS215a	20120424.140240	20120424.140639	dt-generate	8	0.013327	60	10	60-180	60	76	GapExp	0	35	2	30	0	distractor	1	2465	0	-12139	13.328	13.274	13.389
TrackDT01	6	TrackDT	1.0	SCS215a	20120424.140240	20120424.140647	dt-generate	8	0.013327	60	10	60-180	60	75	GapExp	0	36	2	1	1	distractor	0	1789	-1000	-13139	13.328	13.185	13.480
TrackDT01	6	TrackDT	1.0	SCS215a	20120424.140240	20120424.140653	dt-generate	8	0.013327	60	10	60-180	60	132	GapExp	0	37	2	1	1	target	1	393	804	-12335	13.328	13.059	13.602
TrackDT01	6	TrackDT	1.0	SCS215a	20120424.140240	20120424.140659	dt-generate	8	0.013327	60	10	60-180	60	131	GapExp	0	38	2	30	1	target	1	2071	0	-12335	13.328	12.840	13.816
TrackDT01	6	TrackDT	1.0	SCS215a	20120424.140240	20120424.140707	dt-generate	8	0.013327	60	10	60-180	60	123	GapExp	0	39	2	30	1	target	1	884	558	-11777	13.328	12.935	13.742
TrackDT01	6	TrackDT	1.0	SCS215a	20120424.140240	20120424.140713	dt-generate	8	0.013327	60	10	60-180	60	65	GapExp	0	40	2	1	1	target	1	734	633	-11144	13.328	13.018	13.745
TrackDT01	6	TrackDT	1.0	SCS215a	20120424.140240	20120424.140718	dt-generate	8	0.013327	60	10	60-180	60	155	GapExp	0	41	2	3	0	distractor	1	829	586	-10558	13.328	13.009	13.648
TrackDT01	6	TrackDT	1.0	SCS215a	20120424.140240	20120424.140725	dt-generate	8	0.013327	60	10	60-180	60	108	GapExp	0	42	2	30	0	distractor	1	28	986	-9572	13.328	13.098	13.559
TrackDT01	6	TrackDT	1.0	SCS215a	20120424.140240	20120424.140730	dt-generate	8	0.013327	60	10	60-180	60	147	GapExp	0	43	2	3	0	target	0	816	-1000	-10572	13.328	12.948	13.709
TrackDT01	6	TrackDT	1.0	SCS215a	20120424.140240	20120424.140737	dt-generate	8	0.013327	60	10	60-180	60	131	GapExp	0	44	2	3	1	target	1	1098	451	-10121	13.328	12.992	13.729
TrackDT01	6	TrackDT	1.0	SCS215a	20120424.140240	20120424.140743	dt-generate	8	0.013327	60	10	60-180	60	131	GapExp	0	45	2	3	0	distractor	1	546	727	-9394	13.328	13.029	13.628
TrackDT01	6	TrackDT	1.0	SCS215a	20120424.140240	20120424.140749	dt-generate	8	0.013327	60	10	60-180	60	152	GapExp	0	46	2	3	1	target	1	2209	0	-9394	13.328	13.307	13.346
TrackDT01	6	TrackDT	1.0	SCS215a	20120424.140240	20120424.140757	dt-generate	8	0.013327	60	10	60-180	60	120	GapExp	0	47	2	30	1	distractor	0	2876	-1000	-10394	13.328	12.851	13.800
TrackDT01	6	TrackDT	1.0	SCS215a	20120424.140240	20120424.140805	dt-generate	8	0.013327	60	10	60-180	60	175	GapExp	0	48	2	3	0	distractor	1	1262	369	-10025	13.328	12.864	13.785
TrackDT01	6	TrackDT	1.0	SCS215a	20120424.140240	20120424.140812	dt-generate	8	0.013327	60	10	60-180	60	76	GapExp	0	49	2	30	1	target	1	1415	293	-9732	13.328	13.307	13.358
TrackDT01	6	TrackDT	1.0	SCS215a	20120424.140240	20120424.140819	dt-generate	8	0.013327	60	10	60-180	60	64	GapExp	0	50	2	30	1	distractor	0	2597	-1000	-10732	13.328	13.095	13.578
TrackDT01	6	TrackDT	1.0	SCS215a	20120424.140240	20120424.140839	dt-generate	8	0.013327	60	10	60-180	60	78	GapExp	0	51	2	3	1	distractor	0	1456	-1000	-11732	13.328	13.308	13.344
TrackDT01	6	TrackDT	1.0	SCS215a	20120424.140240	20120424.140846	dt-generate	8	0.013327	60	10	60-180	60	140	GapExp	0	52	2	0	1	target	1	2018	0	-11732	13.328	13.288	13.360
TrackDT01	6	TrackDT	1.0	SCS215a	20120424.140240	20120424.140853	dt-generate	8	0.013327	60	10	60-180	60	82	GapExp	0	53	2	0	1	target	1	1730	135	-11597	13.328	13.279	13.366
TrackDT01	6	TrackDT	1.0	SCS215a	20120424.140240	20120424.140900	dt-generate	8	0.013327	60	10	60-180	60	164	GapExp	0	54	2	1	1	distractor	0	510	-1000	-12597	13.328	12.883	13.781
TrackDT01	6	TrackDT	1.0	SCS215a	20120424.140240	20120424.140906	dt-generate	8	0.013327	60	10	60-180	60	124	GapExp	0	55	2	3	1	target	1	909	546	-12051	13.328	13.303	13.351
TrackDT01	6	TrackDT	1.0	SCS215a	20120424.140240	20120424.140912	dt-generate	8	0.013327	60	10	60-180	60	151	GapExp	0	56	2	30	0	target	0	407	-1000	-13051	13.328	13.308	13.350
TrackDT01	6	TrackDT	1.0	SCS215a	20120424.140240	20120424.140919	dt-generate	8	0.013327	60	10	60-180	60	154	GapExp	0	57	2	30	1	distractor	0	252	-1000	-14051	13.328	12.953	13.717
TrackDT01	6	TrackDT	1.0	SCS215a	20120424.140240	20120424.140925	dt-generate	8	0.013327	60	10	60-180	60	61	GapExp	0	58	2	3	0	target	0	534	-1000	-15051	13.328	13.101	13.551
TrackDT01	6	TrackDT	1.0	SCS215a	20120424.140240	20120424.140930	dt-generate	8	0.013327	60	10	60-180	60	103	GapExp	0	59	2	30	0	distractor	1	537	732	-14319	13.328	13.307	13.344
TrackDT01	6	TrackDT	1.0	SCS215a	20120424.140240	20120424.140936	dt-generate	8	0.013327	60	10	60-180	60	96	GapExp	0	60	2	0	0	distractor	1	1473	264	-14055	13.328	12.852	13.804
TrackDT01	6	TrackDT	1.0	SCS215a	20120424.140240	20120424.140942	dt-generate	8	0.013327	60	10	60-180	60	67	GapExp	0	61	2	1	0	target	0	1809	-1000	-15055	13.328	13.307	13.344
TrackDT01	6	TrackDT	1.0	SCS215a	20120424.140240	20120424.140948	dt-generate	8	0.013327	60	10	60-180	60	80	GapExp	0	62	2	1	0	distractor	1	999	501	-14554	13.328	13.302	13.361
TrackDT01	6	TrackDT	1.0	SCS215a	20120424.140240	20120424.140954	dt-generate	8	0.013327	60	10	60-180	60	165	GapExp	0	63	2	3	0	distractor	1	935	533	-14021	13.328	13.308	13.345
TrackDT01	6	TrackDT	1.0	SCS215a	20120424.140240	20120424.141001	dt-generate	8	0.013327	60	10	60-180	60	167	GapExp	0	64	2	3	1	distractor	0	1427	-1000	-15021	13.328	13.102	13.565
TrackDT01	6	TrackDT	1.0	SCS215a	20120424.140240	20120424.141008	dt-generate	8	0.013327	60	10	60-180	60	162	GapExp	0	65	2	3	1	target	1	895	553	-14468	13.328	12.854	13.795
TrackDT01	6	TrackDT	1.0	SCS215a	20120424.140240	20120424.141014	dt-generate	8	0.013327	60	10	60-180	60	82	GapExp	0	66	2	3	0	distractor	1	1072	464	-14004	13.328	13.099	13.545
TrackDT01	6	TrackDT	1.0	SCS215a	20120424.140240	20120424.141020	dt-generate	8	0.013327	60	10	60-180	60	93	GapExp	0	67	2	3	1	distractor	0	860	-1000	-15004	13.328	13.101	13.564
TrackDT01	6	TrackDT	1.0	SCS215a	20120424.140240	20120424.141026	dt-generate	8	0.013327	60	10	60-180	60	163	GapExp	0	68	2	3	1	distractor	0	1230	-1000	-16004	13.328	13.094	13.558
TrackDT01	6	TrackDT	1.0	SCS215a	20120424.140240	20120424.141033	dt-generate	8	0.013327	60	10	60-180	60	175	GapExp	0	69	2	30	1	target	1	1409	296	-15708	13.328	13.307	13.350
TrackDT01	6	TrackDT	1.0	SCS215a	20120424.140240	20120424.141041	dt-generate	8	0.013327	60	10	60-180	60	121	GapExp	0	70	2	1	0	distractor	1	580	710	-14998	13.328	13.084	13.565
TrackDT01	6	TrackDT	1.0	SCS215a	20120424.140240	20120424.141046	dt-generate	8	0.013327	60	10	60-180	60	100	GapExp	0	71	2	3	1	target	1	565	718	-14280	13.328	13.304	13.358
TrackDT01	6	TrackDT	1.0	SCS215a	20120424.140240	20120424.141052	dt-generate	8	0.013327	60	10	60-180	60	118	GapExp	0	72	2	30	1	target	1	622	689	-13591	13.328	13.303	13.353
TrackDT01	6	TrackDT	1.0	SCS215a	20120424.140240	20120424.141058	dt-generate	8	0.013327	60	10	60-180	60	79	GapExp	0	73	2	30	0	distractor	1	715	643	-12948	13.328	12.858	13.805
TrackDT01	6	TrackDT	1.0	SCS215a	20120424.140240	20120424.141104	dt-generate	8	0.013327	60	10	60-180	60	166	GapExp	0	74	2	3	1	target	1	769	616	-12332	13.328	12.931	13.739
TrackDT01	6	TrackDT	1.0	SCS215a	20120424.140240	20120424.141111	dt-generate	8	0.013327	60	10	60-180	60	167	GapExp	0	75	2	3	1	target	1	686	657	-11675	13.328	13.307	13.347
TrackDT01	6	TrackDT	1.0	SCS215a	20120424.140240	20120424.141117	dt-generate	8	0.013327	60	10	60-180	60	122	GapExp	0	76	2	30	0	distractor	1	732	634	-11041	13.328	13.100	13.560
TrackDT01	6	TrackDT	1.0	SCS215a	20120424.140240	20120424.141123	dt-generate	8	0.013327	60	10	60-180	60	157	GapExp	0	77	2	0	1	distractor	0	882	-1000	-12041	13.328	13.106	13.559
TrackDT01	6	TrackDT	1.0	SCS215a	20120424.140240	20120424.141130	dt-generate	8	0.013327	60	10	60-180	60	143	GapExp	0	78	2	0	0	target	0	1793	-1000	-13041	13.328	12.939	13.718
TrackDT01	6	TrackDT	1.0	SCS215a	20120424.140240	20120424.141137	dt-generate	8	0.013327	60	10	60-180	60	78	GapExp	0	79	2	3	0	distractor	1	949	526	-12515	13.328	12.911	13.747
TrackDT01	6	TrackDT	1.0	SCS215a	20120424.140240	20120424.141143	dt-generate	8	0.013327	60	10	60-180	60	164	GapExp	0	80	2	0	1	target	1	602	699	-11816	13.328	12.914	13.745
TrackDT01	6	TrackDT	1.0	SCS215a	20120424.140240	20120424.141149	dt-generate	8	0.013327	60	10	60-180	60	76	GapExp	0	81	2	30	1	target	1	570	715	-11101	13.328	13.028	13.628
TrackDT01	6	TrackDT	1.0	SCS215a	20120424.140240	20120424.141155	dt-generate	8	0.013327	60	10	60-180	60	126	GapExp	0	82	2	3	1	distractor	0	1149	-1000	-12101	13.328	13.304	13.351
TrackDT01	6	TrackDT	1.0	SCS215a	20120424.140240	20120424.141201	dt-generate	8	0.013327	60	10	60-180	60	143	GapExp	0	83	2	1	0	target	0	825	-1000	-13101	13.328	13.306	13.346
TrackDT01	6	TrackDT	1.0	SCS215a	20120424.140240	20120424.141208	dt-generate	8	0.013327	60	10	60-180	60	116	GapExp	0	84	2	1	1	target	1	783	609	-12492	13.328	13.304	13.353
TrackDT01	6	TrackDT	1.0	SCS215a	20120424.140240	20120424.141214	dt-generate	8	0.013327	60	10	60-180	60	103	GapExp	0	85	2	3	0	distractor	1	1174	413	-12079	13.328	13.101	13.556
TrackDT01	6	TrackDT	1.0	SCS215a	20120424.140240	20120424.141220	dt-generate	8	0.013327	60	10	60-180	60	160	GapExp	0	86	2	1	1	target	1	629	686	-11393	13.328	13.099	13.551
TrackDT01	6	TrackDT	1.0	SCS215a	20120424.140240	20120424.141226	dt-generate	8	0.013327	60	10	60-180	60	80	GapExp	0	87	2	0	1	target	1	1960	20	-11373	13.328	12.842	13.811
TrackDT01	6	TrackDT	1.0	SCS215a	20120424.140240	20120424.141233	dt-generate	8	0.013327	60	10	60-180	60	117	GapExp	0	88	2	0	0	distractor	1	1682	159	-11214	13.328	12.873	13.777
TrackDT01	6	TrackDT	1.0	SCS215a	20120424.140240	20120424.141240	dt-generate	8	0.013327	60	10	60-180	60	82	GapExp	0	89	2	3	0	distractor	1	1199	401	-10813	13.328	12.853	13.630
TrackDT01	6	TrackDT	1.0	SCS215a	20120424.140240	20120424.141245	dt-generate	8	0.013327	60	10	60-180	60	97	GapExp	0	90	2	0	0	distractor	1	857	572	-10241	13.328	12.857	13.805
TrackDT01	6	TrackDT	1.0	SCS215a	20120424.140240	20120424.141251	dt-generate	8	0.013327	60	10	60-180	60	138	GapExp	0	91	2	3	0	distractor	1	755	623	-9618	13.328	12.983	13.671
TrackDT01	6	TrackDT	1.0	SCS215a	20120424.140240	20120424.141257	dt-generate	8	0.013327	60	10	60-180	60	73	GapExp	0	92	2	1	0	distractor	1	862	569	-9049	13.328	13.296	13.354
TrackDT01	6	TrackDT	1.0	SCS215a	20120424.140240	20120424.141302	dt-generate	8	0.013327	60	10	60-180	60	64	GapExp	0	93	2	30	0	target	0	616	-1000	-10049	13.328	12.915	13.728
TrackDT01	6	TrackDT	1.0	SCS215a	20120424.140240	20120424.141308	dt-generate	8	0.013327	60	10	60-180	60	68	GapExp	0	94	2	1	0	distractor	1	1155	423	-9626	13.328	13.118	13.545
TrackDT01	6	TrackDT	1.0	SCS215a	20120424.140240	20120424.141314	dt-generate	8	0.013327	60	10	60-180	60	87	GapExp	0	95	2	0	0	distractor	1	935	533	-9093	13.328	13.307	13.354
TrackDT01	6	TrackDT	1.0	SCS215a	20120424.140240	20120424.141319	dt-generate	8	0.013327	60	10	60-180	60	152	GapExp	0	96	2	1	0	distractor	1	709	646	-8447	13.328	13.307	13.347
TrackDT01	6	TrackDT	1.0	SCS215a	20120424.140240	20120424.141325	dt-generate	8	0.013327	60	10	60-180	60	158	GapExp	0	97	2	30	1	target	1	731	635	-7812	13.328	13.263	13.407
TrackDT01	6	TrackDT	1.0	SCS215a	20120424.140240	20120424.141332	dt-generate	8	0.013327	60	10	60-180	60	126	GapExp	0	98	2	30	0	distractor	1	526	737	-7075	13.328	12.872	13.786
TrackDT01	6	TrackDT	1.0	SCS215a	20120424.140240	20120424.141339	dt-generate	8	0.013327	60	10	60-180	60	139	GapExp	0	99	2	0	1	target	1	968	516	-6559	13.328	12.922	13.736
TrackDT01	6	TrackDT	1.0	SCS215a	20120424.140240	20120424.141345	dt-generate	8	0.013327	60	10	60-180	60	86	GapExp	0	100	2	1	1	target	1	1231	385	-6174	13.328	13.309	13.344
TrackDT01	6	TrackDT	1.0	SCS215a	20120424.140240	20120424.141356	dt-generate	8	0.013327	60	10	60-180	60	131	GapExp	0	101	2	0	0	distractor	1	991	505	-5669	13.328	13.299	13.350
TrackDT01	6	TrackDT	1.0	SCS215a	20120424.140240	20120424.141403	dt-generate	8	0.013327	60	10	60-180	60	81	GapExp	0	102	2	0	0	distractor	1	716	642	-5027	13.328	13.027	13.636
TrackDT01	6	TrackDT	1.0	SCS215a	20120424.140240	20120424.141408	dt-generate	8	0.013327	60	10	60-180	60	167	GapExp	0	103	2	30	0	distractor	1	1290	355	-4672	13.328	13.297	13.347
TrackDT01	6	TrackDT	1.0	SCS215a	20120424.140240	20120424.141416	dt-generate	8	0.013327	60	10	60-180	60	116	GapExp	0	104	2	3	1	target	1	587	707	-3965	13.328	12.846	13.818
TrackDT01	6	TrackDT	1.0	SCS215a	20120424.140240	20120424.141421	dt-generate	8	0.013327	60	10	60-180	60	68	GapExp	0	105	2	30	0	distractor	1	730	635	-3330	13.328	13.308	13.344
TrackDT01	6	TrackDT	1.0	SCS215a	20120424.140240	20120424.141427	dt-generate	8	0.013327	60	10	60-180	60	130	GapExp	0	106	2	3	0	distractor	1	529	736	-2594	13.328	13.097	13.552
TrackDT01	6	TrackDT	1.0	SCS215a	20120424.140240	20120424.141433	dt-generate	8	0.013327	60	10	60-180	60	142	GapExp	0	107	2	30	0	distractor	1	726	637	-1957	13.328	12.876	13.741
TrackDT01	6	TrackDT	1.0	SCS215a	20120424.140240	20120424.141439	dt-generate	8	0.013327	60	10	60-180	60	115	GapExp	0	108	2	30	1	target	1	812	594	-1363	13.328	12.855	13.806
TrackDT01	6	TrackDT	1.0	SCS215a	20120424.140240	20120424.141445	dt-generate	8	0.013327	60	10	60-180	60	166	GapExp	0	109	2	1	1	target	1	491	755	-608	13.328	13.107	13.558
TrackDT01	6	TrackDT	1.0	SCS215a	20120424.140240	20120424.141452	dt-generate	8	0.013327	60	10	60-180	60	176	GapExp	0	110	2	1	1	target	1	1060	470	-138	13.328	12.885	13.770
TrackDT01	6	TrackDT	1.0	SCS215a	20120424.140240	20120424.141459	dt-generate	8	0.013327	60	10	60-180	60	143	GapExp	0	111	2	1	0	distractor	1	717	642	504	13.328	13.267	13.405
TrackDT01	6	TrackDT	1.0	SCS215a	20120424.140240	20120424.141505	dt-generate	8	0.013327	60	10	60-180	60	61	GapExp	0	112	2	30	0	distractor	1	433	784	1288	13.328	13.303	13.348
TrackDT01	6	TrackDT	1.0	SCS215a	20120424.140240	20120424.141510	dt-generate	8	0.013327	60	10	60-180	60	124	GapExp	0	113	2	3	0	distractor	1	720	640	1928	13.328	13.307	13.347
TrackDT01	6	TrackDT	1.0	SCS215a	20120424.140240	20120424.141516	dt-generate	8	0.013327	60	10	60-180	60	87	GapExp	0	114	2	1	1	target	1	923	539	2467	13.328	13.308	13.348
TrackDT01	6	TrackDT	1.0	SCS215a	20120424.140240	20120424.141522	dt-generate	8	0.013327	60	10	60-180	60	83	GapExp	0	115	2	3	1	distractor	0	1554	-1000	1467	13.328	13.111	13.552
TrackDT01	6	TrackDT	1.0	SCS215a	20120424.140240	20120424.141528	dt-generate	8	0.013327	60	10	60-180	60	157	GapExp	0	116	2	3	0	target	0	3040	-1000	467	13.328	13.110	13.553
TrackDT01	6	TrackDT	1.0	SCS215a	20120424.140240	20120424.141537	dt-generate	8	0.013327	60	10	60-180	60	103	GapExp	0	117	2	1	1	early	-4	-521	-1000	-533	13.328	13.140	13.517
TrackDT01	6	TrackDT	1.0	SCS215a	20120424.140240	20120424.141544	dt-generate	8	0.013327	60	10	60-180	60	149	GapExp	0	118	2	0	0	target	0	711	-1000	-1533	13.328	13.308	13.346
TrackDT01	6	TrackDT	1.0	SCS215a	20120424.140240	20120424.141551	dt-generate	8	0.013327	60	10	60-180	60	103	GapExp	0	119	2	3	1	target	1	610	695	-838	13.328	12.982	13.672
TrackDT01	6	TrackDT	1.0	SCS215a	20120424.140240	20120424.141556	dt-generate	8	0.013327	60	10	60-180	60	78	GapExp	0	120	2	0	0	distractor	1	973	514	-324	13.328	13.106	13.552
TrackDT01	6	TrackDT	1.0	SCS215a	20120424.140240	20120424.141602	dt-generate	8	0.013327	60	10	60-180	60	128	GapExp	0	121	2	1	1	target	1	936	532	208	13.328	12.980	13.677
TrackDT01	6	TrackDT	1.0	SCS215a	20120424.140240	20120424.141608	dt-generate	8	0.013327	60	10	60-180	60	160	GapExp	0	122	2	3	0	distractor	1	705	648	856	13.328	13.304	13.357
TrackDT01	6	TrackDT	1.0	SCS215a	20120424.140240	20120424.141615	dt-generate	8	0.013327	60	10	60-180	60	161	GapExp	0	123	2	1	0	target	0	961	-1000	-144	13.328	13.263	13.412
TrackDT01	6	TrackDT	1.0	SCS215a	20120424.140240	20120424.141621	dt-generate	8	0.013327	60	10	60-180	60	68	GapExp	0	124	2	1	1	distractor	0	1790	-1000	-1144	13.328	13.307	13.343
TrackDT01	6	TrackDT	1.0	SCS215a	20120424.140240	20120424.141627	dt-generate	8	0.013327	60	10	60-180	60	130	GapExp	0	125	2	0	1	target	1	652	674	-470	13.328	13.308	13.361
TrackDT01	6	TrackDT	1.0	SCS215a	20120424.140240	20120424.141634	dt-generate	8	0.013327	60	10	60-180	60	154	GapExp	0	126	2	1	0	distractor	1	1068	466	-4	13.328	12.943	13.716
TrackDT01	6	TrackDT	1.0	SCS215a	20120424.140240	20120424.141640	dt-generate	8	0.013327	60	10	60-180	60	151	GapExp	0	127	2	3	0	distractor	1	853	574	570	13.328	12.893	13.771
TrackDT01	6	TrackDT	1.0	SCS215a	20120424.140240	20120424.141647	dt-generate	8	0.013327	60	10	60-180	60	132	GapExp	0	128	2	1	0	distractor	1	761	620	1190	13.328	12.883	13.793
TrackDT01	6	TrackDT	1.0	SCS215a	20120424.140240	20120424.141653	dt-generate	8	0.013327	60	10	60-180	60	173	GapExp	0	129	2	30	0	distractor	1	389	806	1996	13.328	13.107	13.544
TrackDT01	6	TrackDT	1.0	SCS215a	20120424.140240	20120424.141659	dt-generate	8	0.013327	60	10	60-180	60	66	GapExp	0	130	2	0	1	target	1	1530	235	2231	13.328	12.885	13.771
TrackDT01	6	TrackDT	1.0	SCS215a	20120424.140240	20120424.141706	dt-generate	8	0.013327	60	10	60-180	60	83	GapExp	0	131	2	1	0	distractor	1	856	572	2803	13.328	13.071	13.585
TrackDT01	6	TrackDT	1.0	SCS215a	20120424.140240	20120424.141711	dt-generate	8	0.013327	60	10	60-180	60	96	GapExp	0	132	2	1	1	distractor	0	1629	-1000	1803	13.328	13.308	13.348
TrackDT01	6	TrackDT	1.0	SCS215a	20120424.140240	20120424.141717	dt-generate	8	0.013327	60	10	60-180	60	85	GapExp	0	133	2	30	0	distractor	1	1128	436	2239	13.328	13.310	13.347
TrackDT01	6	TrackDT	1.0	SCS215a	20120424.140240	20120424.141723	dt-generate	8	0.013327	60	10	60-180	60	144	GapExp	0	134	2	30	0	target	0	538	-1000	1239	13.328	12.839	13.810
TrackDT01	6	TrackDT	1.0	SCS215a	20120424.140240	20120424.141730	dt-generate	8	0.013327	60	10	60-180	60	131	GapExp	0	135	2	30	0	distractor	1	1288	356	1595	13.328	13.271	13.391
TrackDT01	6	TrackDT	1.0	SCS215a	20120424.140240	20120424.141737	dt-generate	8	0.013327	60	10	60-180	60	101	GapExp	0	136	2	30	1	distractor	0	866	-1000	595	13.328	13.296	13.365
TrackDT01	6	TrackDT	1.0	SCS215a	20120424.140240	20120424.141743	dt-generate	8	0.013327	60	10	60-180	60	163	GapExp	0	137	2	1	1	target	1	947	527	1122	13.328	13.306	13.356
TrackDT01	6	TrackDT	1.0	SCS215a	20120424.140240	20120424.141750	dt-generate	8	0.013327	60	10	60-180	60	81	GapExp	0	138	2	0	1	distractor	0	855	-1000	122	13.328	13.306	13.349
TrackDT01	6	TrackDT	1.0	SCS215a	20120424.140240	20120424.141755	dt-generate	8	0.013327	60	10	60-180	60	180	GapExp	0	139	2	0	1	target	1	1188	406	528	13.328	13.091	13.565
TrackDT01	6	TrackDT	1.0	SCS215a	20120424.140240	20120424.141802	dt-generate	8	0.013327	60	10	60-180	60	93	GapExp	0	140	2	0	1	target	1	1041	480	1008	13.328	13.093	13.558
TrackDT01	6	TrackDT	1.0	SCS215a	20120424.140240	20120424.141809	dt-generate	8	0.013327	60	10	60-180	60	143	GapExp	0	141	2	30	0	distractor	1	605	698	1706	13.328	12.864	13.793
TrackDT01	6	TrackDT	1.0	SCS215a	20120424.140240	20120424.141815	dt-generate	8	0.013327	60	10	60-180	60	124	GapExp	0	142	2	30	1	target	1	586	707	2413	13.328	13.087	13.555
TrackDT01	6	TrackDT	1.0	SCS215a	20120424.140240	20120424.141821	dt-generate	8	0.013327	60	10	60-180	60	88	GapExp	0	143	2	3	1	target	1	853	574	2987	13.328	13.308	13.346
TrackDT01	6	TrackDT	1.0	SCS215a	20120424.140240	20120424.141827	dt-generate	8	0.013327	60	10	60-180	60	103	GapExp	0	144	2	0	0	distractor	1	624	688	3675	13.328	12.894	13.761
TrackDT01	6	TrackDT	1.0	SCS215a	20120424.140240	20120424.141832	dt-generate	8	0.013327	60	10	60-180	60	152	GapExp	0	145	2	0	1	target	1	585	708	4383	13.328	13.309	13.346
TrackDT01	6	TrackDT	1.0	SCS215a	20120424.140240	20120424.141839	dt-generate	8	0.013327	60	10	60-180	60	148	GapExp	0	146	2	30	1	target	1	1172	414	4797	13.328	13.307	13.357
TrackDT01	6	TrackDT	1.0	SCS215a	20120424.140240	20120424.141846	dt-generate	8	0.013327	60	10	60-180	60	159	GapExp	0	147	2	0	0	distractor	1	740	630	5427	13.328	12.851	13.797
TrackDT01	6	TrackDT	1.0	SCS215a	20120424.140240	20120424.141852	dt-generate	8	0.013327	60	10	60-180	60	125	GapExp	0	148	2	1	1	target	1	690	655	6082	13.328	13.121	13.551
TrackDT01	6	TrackDT	1.0	SCS215a	20120424.140240	20120424.141858	dt-generate	8	0.013327	60	10	60-180	60	112	GapExp	0	149	2	0	1	target	1	707	647	6729	13.328	12.935	13.734
TrackDT01	6	TrackDT	1.0	SCS215a	20120424.140240	20120424.141904	dt-generate	8	0.013327	60	10	60-180	60	142	GapExp	0	150	2	0	0	distractor	1	815	593	7322	13.328	13.089	13.561
TrackDT01	6	TrackDT	1.0	SCS215a	20120424.140240	20120424.141916	dt-generate	8	0.013327	60	10	60-180	60	122	GapExp	0	151	2	0	1	distractor	0	1012	-1000	6322	13.328	13.308	13.347
TrackDT01	6	TrackDT	1.0	SCS215a	20120424.140240	20120424.141922	dt-generate	8	0.013327	60	10	60-180	60	79	GapExp	0	152	2	0	1	target	1	791	605	6927	13.328	13.275	13.367
TrackDT01	6	TrackDT	1.0	SCS215a	20120424.140240	20120424.141927	dt-generate	8	0.013327	60	10	60-180	60	103	GapExp	0	153	2	1	0	distractor	1	806	597	7524	13.328	12.847	13.654
TrackDT01	6	TrackDT	1.0	SCS215a	20120424.140240	20120424.141933	dt-generate	8	0.013327	60	10	60-180	60	152	GapExp	0	154	2	1	0	distractor	1	1136	432	7956	13.328	13.099	13.571
TrackDT01	6	TrackDT	1.0	SCS215a	20120424.140240	20120424.141940	dt-generate	8	0.013327	60	10	60-180	60	65	GapExp	0	155	2	0	1	target	1	1798	101	8057	13.328	13.106	13.542
TrackDT01	6	TrackDT	1.0	SCS215a	20120424.140240	20120424.141946	dt-generate	8	0.013327	60	10	60-180	60	144	GapExp	0	156	2	30	0	distractor	1	637	682	8739	13.328	13.100	13.564
TrackDT01	6	TrackDT	1.0	SCS215a	20120424.140240	20120424.141953	dt-generate	8	0.013327	60	10	60-180	60	128	GapExp	0	157	2	3	1	target	1	716	642	9381	13.328	12.897	13.770
TrackDT01	6	TrackDT	1.0	SCS215a	20120424.140240	20120424.141959	dt-generate	8	0.013327	60	10	60-180	60	69	GapExp	0	158	2	1	0	distractor	1	1068	466	9847	13.328	13.021	13.627
TrackDT01	6	TrackDT	1.0	SCS215a	20120424.140240	20120424.142004	dt-generate	8	0.013327	60	10	60-180	60	155	GapExp	0	159	2	3	1	target	1	719	641	10488	13.328	13.301	13.353
TrackDT01	6	TrackDT	1.0	SCS215a	20120424.140240	20120424.142011	dt-generate	8	0.013327	60	10	60-180	60	122	GapExp	0	160	2	1	1	target	1	900	550	11038	13.328	12.977	13.676
TrackDT01	6	TrackDT	1.0	SCS215a	20120424.140240	20120424.142017	dt-generate	8	0.013327	60	10	60-180	60	170	GapExp	0	161	2	0	0	distractor	1	1977	12	11050	13.328	13.095	13.627
TrackDT01	6	TrackDT	1.0	SCS215a	20120424.140240	20120424.142025	dt-generate	8	0.013327	60	10	60-180	60	95	GapExp	0	162	2	30	0	distractor	1	1213	394	11444	13.328	12.912	13.738
TrackDT01	6	TrackDT	1.0	SCS215a	20120424.140240	20120424.142031	dt-generate	8	0.013327	60	10	60-180	60	167	GapExp	0	163	2	3	1	distractor	0	1576	-1000	10444	13.328	13.292	13.356
TrackDT01	6	TrackDT	1.0	SCS215a	20120424.140240	20120424.142038	dt-generate	8	0.013327	60	10	60-180	60	163	GapExp	0	164	2	1	1	target	1	1183	409	10853	13.328	13.298	13.354
TrackDT01	6	TrackDT	1.0	SCS215a	20120424.140240	20120424.142045	dt-generate	8	0.013327	60	10	60-180	60	123	GapExp	0	165	2	30	1	distractor	0	2189	-1000	9853	13.328	13.297	13.351
TrackDT01	6	TrackDT	1.0	SCS215a	20120424.140240	20120424.142053	dt-generate	8	0.013327	60	10	60-180	60	127	GapExp	0	166	2	0	0	target	0	674	-1000	8853	13.328	13.013	13.643
TrackDT01	6	TrackDT	1.0	SCS215a	20120424.140240	20120424.142059	dt-generate	8	0.013327	60	10	60-180	60	84	GapExp	0	167	2	0	1	target	1	678	661	9514	13.328	12.987	13.654
TrackDT01	6	TrackDT	1.0	SCS215a	20120424.140240	20120424.142105	dt-generate	8	0.013327	60	10	60-180	60	166	GapExp	0	168	2	1	0	distractor	1	576	712	10226	13.328	12.847	13.784
TrackDT01	6	TrackDT	1.0	SCS215a	20120424.140240	20120424.142111	dt-generate	8	0.013327	60	10	60-180	60	65	GapExp	0	169	2	3	0	target	0	1194	-1000	9226	13.328	12.933	13.720
TrackDT01	6	TrackDT	1.0	SCS215a	20120424.140240	20120424.142116	dt-generate	8	0.013327	60	10	60-180	60	79	GapExp	0	170	2	30	0	distractor	1	1142	429	9655	13.328	13.302	13.350
TrackDT01	6	TrackDT	1.0	SCS215a	20120424.140240	20120424.142123	dt-generate	8	0.013327	60	10	60-180	60	144	GapExp	0	171	2	0	1	target	1	633	684	10339	13.328	13.305	13.357
TrackDT01	6	TrackDT	1.0	SCS215a	20120424.140240	20120424.142129	dt-generate	8	0.013327	60	10	60-180	60	128	GapExp	0	172	2	30	0	distractor	1	1193	404	10743	13.328	13.236	13.420
TrackDT01	6	TrackDT	1.0	SCS215a	20120424.140240	20120424.142136	dt-generate	8	0.013327	60	10	60-180	60	116	GapExp	0	173	2	1	0	distractor	1	1165	418	11161	13.328	13.063	13.591
TrackDT01	6	TrackDT	1.0	SCS215a	20120424.140240	20120424.142142	dt-generate	8	0.013327	60	10	60-180	60	179	GapExp	0	174	2	3	0	distractor	1	1165	418	11579	13.328	12.871	13.766
TrackDT01	6	TrackDT	1.0	SCS215a	20120424.140240	20120424.142149	dt-generate	8	0.013327	60	10	60-180	60	131	GapExp	0	175	2	0	1	target	1	1499	251	11830	13.328	13.307	13.351
TrackDT01	6	TrackDT	1.0	SCS215a	20120424.140240	20120424.142156	dt-generate	8	0.013327	60	10	60-180	60	115	GapExp	0	176	2	0	0	distractor	1	890	555	12385	13.328	12.879	13.784
TrackDT01	6	TrackDT	1.0	SCS215a	20120424.140240	20120424.142202	dt-generate	8	0.013327	60	10	60-180	60	147	GapExp	0	177	2	1	0	distractor	1	889	556	12941	13.328	12.947	13.714
TrackDT01	6	TrackDT	1.0	SCS215a	20120424.140240	20120424.142209	dt-generate	8	0.013327	60	10	60-180	60	153	GapExp	0	178	2	30	1	target	1	690	655	13596	13.328	12.935	13.712
TrackDT01	6	TrackDT	1.0	SCS215a	20120424.140240	20120424.142215	dt-generate	8	0.013327	60	10	60-180	60	154	GapExp	0	179	2	1	0	distractor	1	505	748	14344	13.328	13.298	13.365
TrackDT01	6	TrackDT	1.0	SCS215a	20120424.140240	20120424.142221	dt-generate	8	0.013327	60	10	60-180	60	62	GapExp	0	180	2	1	1	target	1	491	755	15099	13.328	13.105	13.558
TrackDT01	6	TrackDT	1.0	SCS215a	20120424.140240	20120424.142226	dt-generate	8	0.013327	60	10	60-180	60	141	GapExp	0	181	2	0	0	distractor	1	841	580	15679	13.328	13.307	13.354
TrackDT01	6	TrackDT	1.0	SCS215a	20120424.140240	20120424.142232	dt-generate	8	0.013327	60	10	60-180	60	66	GapExp	0	182	2	0	1	target	1	568	716	16395	13.328	12.845	13.812
TrackDT01	6	TrackDT	1.0	SCS215a	20120424.140240	20120424.142237	dt-generate	8	0.013327	60	10	60-180	60	81	GapExp	0	183	2	0	0	distractor	1	433	784	17179	13.328	13.307	13.349
TrackDT01	6	TrackDT	1.0	SCS215a	20120424.140240	20120424.142242	dt-generate	8	0.013327	60	10	60-180	60	136	GapExp	0	184	2	1	0	target	0	394	-1000	16179	13.328	12.961	13.690
TrackDT01	6	TrackDT	1.0	SCS215a	20120424.140240	20120424.142248	dt-generate	8	0.013327	60	10	60-180	60	98	GapExp	0	185	2	30	0	distractor	1	38	981	17160	13.328	12.898	13.757
TrackDT01	6	TrackDT	1.0	SCS215a	20120424.140240	20120424.142253	dt-generate	8	0.013327	60	10	60-180	60	180	GapExp	0	186	2	30	1	distractor	0	9974	-1000	16160	13.328	13.100	13.545
TrackDT01	6	TrackDT	1.0	SCS215a	20120424.140240	20120424.142310	dt-generate	8	0.013327	60	10	60-180	60	180	GapExp	0	187	2	30	1	distractor	0	882	-1000	15160	13.328	13.100	13.564
TrackDT01	6	TrackDT	1.0	SCS215a	20120424.140240	20120424.142317	dt-generate	8	0.013327	60	10	60-180	60	68	GapExp	0	188	2	3	0	target	0	407	-1000	14160	13.328	13.111	13.557
TrackDT01	6	TrackDT	1.0	SCS215a	20120424.140240	20120424.142322	dt-generate	8	0.013327	60	10	60-180	60	169	GapExp	0	189	2	1	0	distractor	1	513	744	14904	13.328	13.297	13.346
TrackDT01	6	TrackDT	1.0	SCS215a	20120424.140240	20120424.142328	dt-generate	8	0.013327	60	10	60-180	60	143	GapExp	0	190	2	1	1	distractor	0	634	-1000	13904	13.328	12.871	13.787
TrackDT01	6	TrackDT	1.0	SCS215a	20120424.140240	20120424.142334	dt-generate	8	0.013327	60	10	60-180	60	169	GapExp	0	191	2	0	0	target	0	829	-1000	12904	13.328	12.925	13.731
TrackDT01	6	TrackDT	1.0	SCS215a	20120424.140240	20120424.142341	dt-generate	8	0.013327	60	10	60-180	60	72	GapExp	0	192	2	1	1	distractor	0	454	-1000	11904	13.328	13.307	13.352
TrackDT01	6	TrackDT	1.0	SCS215a	20120424.140240	20120424.142346	dt-generate	8	0.013327	60	10	60-180	60	132	GapExp	0	193	2	0	1	target	1	651	675	12579	13.328	12.993	13.663
TrackDT01	6	TrackDT	1.0	SCS215a	20120424.140240	20120424.142352	dt-generate	8	0.013327	60	10	60-180	60	179	GapExp	0	194	2	30	1	target	1	526	737	13316	13.328	12.860	13.802
TrackDT01	6	TrackDT	1.0	SCS215a	20120424.140240	20120424.142359	dt-generate	8	0.013327	60	10	60-180	60	163	GapExp	0	195	2	3	1	target	1	462	769	14085	13.328	12.917	13.732
TrackDT01	6	TrackDT	1.0	SCS215a	20120424.140240	20120424.142405	dt-generate	8	0.013327	60	10	60-180	60	70	GapExp	0	196	2	1	0	distractor	1	1247	377	14462	13.328	13.086	13.557
TrackDT01	6	TrackDT	1.0	SCS215a	20120424.140240	20120424.142411	dt-generate	8	0.013327	60	10	60-180	60	114	GapExp	0	197	2	0	1	distractor	0	562	-1000	13462	13.328	12.840	13.809
TrackDT01	6	TrackDT	1.0	SCS215a	20120424.140240	20120424.142417	dt-generate	8	0.013327	60	10	60-180	60	101	GapExp	0	198	2	0	0	distractor	1	795	603	14065	13.328	12.916	13.747
TrackDT01	6	TrackDT	1.0	SCS215a	20120424.140240	20120424.142422	dt-generate	8	0.013327	60	10	60-180	60	103	GapExp	0	199	2	3	0	distractor	1	1861	70	14135	13.328	13.308	13.345
TrackDT01	6	TrackDT	1.0	SCS215a	20120424.140240	20120424.142429	dt-generate	8	0.013327	60	10	60-180	60	157	GapExp	0	200	2	30	1	distractor	0	1977	-1000	13135	13.328	13.308	13.348
TrackDT01	6	TrackDT	1.0	SCS215a	20120424.142455	20120424.142505	dt-shadow	8	0.013328	60	10	60-180	60	175	GapPrac	1	1	2	3	1	target	1	662	669	13804	13.328	13.306	13.348
TrackDT01	6	TrackDT	1.0	SCS215a	20120424.142455	20120424.142512	dt-shadow	8	0.013328	60	10	60-180	60	175	GapPrac	1	2	2	0	0	distractor	1	561	720	14524	13.328	6.519	20.133
TrackDT01	6	TrackDT	1.0	SCS215a	20120424.142455	20120424.142519	dt-shadow	8	0.013328	60	10	60-180	60	89	GapPrac	1	3	2	0	1	target	1	781	610	15134	13.328	13.311	13.343
TrackDT01	6	TrackDT	1.0	SCS215a	20120424.142455	20120424.142524	dt-shadow	8	0.013328	60	10	60-180	60	116	GapPrac	1	4	2	1	1	target	1	713	644	15778	13.328	7.427	19.235
TrackDT01	6	TrackDT	1.0	SCS215a	20120424.142455	20120424.142530	dt-shadow	8	0.013328	60	10	60-180	60	65	GapPrac	1	5	2	0	0	distractor	1	842	579	16357	13.328	7.294	19.355
TrackDT01	6	TrackDT	1.0	SCS215a	20120424.142455	20120424.142535	dt-shadow	8	0.013328	60	10	60-180	60	131	GapPrac	1	6	2	3	1	target	1	607	697	17054	13.328	13.301	13.348
TrackDT01	6	TrackDT	1.0	SCS215a	20120424.142455	20120424.142541	dt-shadow	8	0.013328	60	10	60-180	60	106	GapPrac	1	7	2	0	1	target	1	877	562	17616	13.328	13.015	13.649
TrackDT01	6	TrackDT	1.0	SCS215a	20120424.142455	20120424.142547	dt-shadow	8	0.013328	60	10	60-180	60	84	GapPrac	1	8	2	30	0	distractor	1	680	660	18276	13.328	13.307	13.349
TrackDT01	6	TrackDT	1.0	SCS215a	20120424.142455	20120424.142553	dt-shadow	8	0.013328	60	10	60-180	60	114	GapPrac	1	9	2	0	0	distractor	1	1063	469	18745	13.328	9.028	17.633
TrackDT01	6	TrackDT	1.0	SCS215a	20120424.142455	20120424.142559	dt-shadow	8	0.013328	60	10	60-180	60	139	GapPrac	1	10	2	1	0	distractor	1	780	610	19355	13.328	13.106	13.550
TrackDT01	6	TrackDT	1.0	SCS215a	20120424.142455	20120424.142605	dt-shadow	8	0.013328	60	10	60-180	60	150	GapPrac	1	11	2	0	1	target	1	736	632	19987	13.328	6.236	20.433
TrackDT01	6	TrackDT	1.0	SCS215a	20120424.142455	20120424.142611	dt-shadow	8	0.013328	60	10	60-180	60	93	GapPrac	1	12	2	3	0	target	0	808	-1000	18987	13.328	8.461	18.193
TrackDT01	6	TrackDT	1.0	SCS215a	20120424.142455	20120424.142617	dt-shadow	8	0.013328	60	10	60-180	60	64	GapPrac	1	13	2	3	1	target	1	635	683	19670	13.328	11.211	15.450
TrackDT01	6	TrackDT	1.0	SCS215a	20120424.142455	20120424.142622	dt-shadow	8	0.013328	60	10	60-180	60	94	GapPrac	1	14	2	1	1	target	1	1041	480	20150	13.328	13.278	13.370
TrackDT01	6	TrackDT	1.0	SCS215a	20120424.142455	20120424.142628	dt-shadow	8	0.013328	60	10	60-180	60	117	GapPrac	1	15	2	3	0	distractor	1	658	671	20821	13.328	7.924	18.732
TrackDT01	6	TrackDT	1.0	SCS215a	20120424.142455	20120424.142634	dt-shadow	8	0.013328	60	10	60-180	60	110	GapPrac	1	16	2	1	1	target	1	1263	369	21190	13.328	13.084	13.572
TrackDT01	6	TrackDT	1.0	SCS215a	20120424.142455	20120424.142640	dt-shadow	8	0.013328	60	10	60-180	60	164	GapPrac	1	17	2	30	0	distractor	1	1266	367	21557	13.328	13.308	13.346
TrackDT01	6	TrackDT	1.0	SCS215a	20120424.142455	20120424.142647	dt-shadow	8	0.013328	60	10	60-180	60	91	GapPrac	1	18	2	1	0	distractor	1	1847	77	21634	13.328	12.585	14.067
TrackDT01	6	TrackDT	1.0	SCS215a	20120424.142455	20120424.142654	dt-shadow	8	0.013328	60	10	60-180	60	169	GapPrac	1	19	2	30	1	target	1	291	855	22489	13.328	8.518	18.120
TrackDT01	6	TrackDT	1.0	SCS215a	20120424.142455	20120424.142701	dt-shadow	8	0.013328	60	10	60-180	60	75	GapPrac	1	20	2	30	1	target	1	385	808	23297	13.328	13.099	13.551
TrackDT01	6	TrackDT	1.0	SCS215a	20120424.142732	20120424.142739	dt-shadow	8	0.013327	60	10	60-180	60	66	GapExp	1	1	2	0	0	distractor	1	743	629	23926	13.328	13.306	13.355
TrackDT01	6	TrackDT	1.0	SCS215a	20120424.142732	20120424.142745	dt-shadow	8	0.013327	60	10	60-180	60	96	GapExp	1	2	2	3	1	target	1	389	806	24732	13.328	10.047	16.610
TrackDT01	6	TrackDT	1.0	SCS215a	20120424.142732	20120424.142750	dt-shadow	8	0.013327	60	10	60-180	60	172	GapExp	1	3	2	3	0	distractor	1	457	772	25504	13.328	13.304	13.348
TrackDT01	6	TrackDT	1.0	SCS215a	20120424.142732	20120424.142756	dt-shadow	8	0.013327	60	10	60-180	60	75	GapExp	1	4	2	30	0	distractor	1	735	633	26137	13.328	13.085	13.558
TrackDT01	6	TrackDT	1.0	SCS215a	20120424.142732	20120424.142802	dt-shadow	8	0.013327	60	10	60-180	60	177	GapExp	1	5	2	1	1	target	1	491	755	26892	13.328	13.283	13.373
TrackDT01	6	TrackDT	1.0	SCS215a	20120424.142732	20120424.142808	dt-shadow	8	0.013327	60	10	60-180	60	117	GapExp	1	6	2	0	1	target	1	512	744	27636	13.328	13.302	13.360
TrackDT01	6	TrackDT	1.0	SCS215a	20120424.142732	20120424.142814	dt-shadow	8	0.013327	60	10	60-180	60	68	GapExp	1	7	2	30	1	target	1	327	837	28473	13.328	13.308	13.351
TrackDT01	6	TrackDT	1.0	SCS215a	20120424.142732	20120424.142819	dt-shadow	8	0.013327	60	10	60-180	60	147	GapExp	1	8	2	1	0	distractor	1	495	753	29226	13.328	12.928	13.709
TrackDT01	6	TrackDT	1.0	SCS215a	20120424.142732	20120424.142825	dt-shadow	8	0.013327	60	10	60-180	60	154	GapExp	0	9	2	3	0	distractor	1	581	710	29936	13.328	13.098	13.558
TrackDT01	6	TrackDT	1.0	SCS215a	20120424.142732	20120424.142831	dt-shadow	8	0.013327	60	10	60-180	60	87	GapExp	0	10	2	30	1	target	1	453	774	30710	13.328	8.579	18.076
TrackDT01	6	TrackDT	1.0	SCS215a	20120424.142732	20120424.142837	dt-shadow	8	0.013327	60	10	60-180	60	67	GapExp	0	11	2	30	1	distractor	0	666	-1000	29710	13.328	12.595	14.074
TrackDT01	6	TrackDT	1.0	SCS215a	20120424.142732	20120424.142842	dt-shadow	8	0.013327	60	10	60-180	60	124	GapExp	0	12	2	0	1	target	1	453	774	30484	13.328	13.305	13.348
TrackDT01	6	TrackDT	1.0	SCS215a	20120424.142732	20120424.142848	dt-shadow	8	0.013327	60	10	60-180	60	173	GapExp	0	13	2	1	1	distractor	0	523	-1000	29484	13.328	9.417	17.239
TrackDT01	6	TrackDT	1.0	SCS215a	20120424.142732	20120424.142854	dt-shadow	8	0.013327	60	10	60-180	60	172	GapExp	0	14	2	3	0	target	0	579	-1000	28484	13.328	11.562	15.088
TrackDT01	6	TrackDT	1.0	SCS215a	20120424.142732	20120424.142901	dt-shadow	8	0.013327	60	10	60-180	60	117	GapExp	0	15	2	1	0	distractor	1	640	680	29164	13.328	10.967	15.689
TrackDT01	6	TrackDT	1.0	SCS215a	20120424.142732	20120424.142906	dt-shadow	8	0.013327	60	10	60-180	60	82	GapExp	0	16	2	1	1	distractor	0	584	-1000	28164	13.328	13.118	13.544
TrackDT01	6	TrackDT	1.0	SCS215a	20120424.142732	20120424.142912	dt-shadow	8	0.013327	60	10	60-180	60	124	GapExp	0	17	2	1	1	target	1	391	805	28969	13.328	13.309	13.346
TrackDT01	6	TrackDT	1.0	SCS215a	20120424.142732	20120424.142917	dt-shadow	8	0.013327	60	10	60-180	60	105	GapExp	0	18	2	0	1	target	1	512	744	29713	13.328	13.294	13.362
TrackDT01	6	TrackDT	1.0	SCS215a	20120424.142732	20120424.142922	dt-shadow	8	0.013327	60	10	60-180	60	166	GapExp	0	19	2	30	0	distractor	1	730	635	30348	13.328	11.023	15.639
TrackDT01	6	TrackDT	1.0	SCS215a	20120424.142732	20120424.142930	dt-shadow	8	0.013327	60	10	60-180	60	67	GapExp	0	20	2	0	1	distractor	0	465	-1000	29348	13.328	7.837	18.814
TrackDT01	6	TrackDT	1.0	SCS215a	20120424.142732	20120424.142934	dt-shadow	8	0.013327	60	10	60-180	60	140	GapExp	0	21	2	3	1	target	1	418	791	30139	13.328	8.168	18.487
TrackDT01	6	TrackDT	1.0	SCS215a	20120424.142732	20120424.142940	dt-shadow	8	0.013327	60	10	60-180	60	146	GapExp	0	22	2	0	1	distractor	0	846	-1000	29139	13.328	13.114	13.556
TrackDT01	6	TrackDT	1.0	SCS215a	20120424.142732	20120424.142946	dt-shadow	8	0.013327	60	10	60-180	60	136	GapExp	0	23	2	1	1	target	1	430	785	29924	13.328	13.302	13.366
TrackDT01	6	TrackDT	1.0	SCS215a	20120424.142732	20120424.142952	dt-shadow	8	0.013327	60	10	60-180	60	89	GapExp	0	24	2	0	0	distractor	1	615	693	30617	13.328	13.307	13.344
TrackDT01	6	TrackDT	1.0	SCS215a	20120424.142732	20120424.142957	dt-shadow	8	0.013327	60	10	60-180	60	85	GapExp	0	25	2	1	1	target	1	571	715	31332	13.328	13.101	13.547
TrackDT01	6	TrackDT	1.0	SCS215a	20120424.142732	20120424.143003	dt-shadow	8	0.013327	60	10	60-180	60	69	GapExp	0	26	2	0	0	distractor	1	665	668	32000	13.328	13.309	13.348
TrackDT01	6	TrackDT	1.0	SCS215a	20120424.142732	20120424.143008	dt-shadow	8	0.013327	60	10	60-180	60	144	GapExp	0	27	2	0	1	target	1	450	775	32775	13.328	7.075	19.582
TrackDT01	6	TrackDT	1.0	SCS215a	20120424.142732	20120424.143014	dt-shadow	8	0.013327	60	10	60-180	60	77	GapExp	0	28	2	0	0	distractor	1	624	688	33463	13.328	8.305	18.348
TrackDT01	6	TrackDT	1.0	SCS215a	20120424.142732	20120424.143019	dt-shadow	8	0.013327	60	10	60-180	60	99	GapExp	0	29	2	0	0	distractor	1	631	685	34148	13.328	13.307	13.353
TrackDT01	6	TrackDT	1.0	SCS215a	20120424.142732	20120424.143024	dt-shadow	8	0.013327	60	10	60-180	60	70	GapExp	0	30	2	1	0	distractor	1	642	679	34827	13.328	13.085	13.557
TrackDT01	6	TrackDT	1.0	SCS215a	20120424.142732	20120424.143029	dt-shadow	8	0.013327	60	10	60-180	60	64	GapExp	0	31	2	1	0	distractor	1	702	649	35476	13.328	13.232	13.421
TrackDT01	6	TrackDT	1.0	SCS215a	20120424.142732	20120424.143035	dt-shadow	8	0.013327	60	10	60-180	60	109	GapExp	0	32	2	0	0	distractor	1	1117	442	35918	13.328	13.303	13.349
TrackDT01	6	TrackDT	1.0	SCS215a	20120424.142732	20120424.143041	dt-shadow	8	0.013327	60	10	60-180	60	70	GapExp	0	33	2	0	0	distractor	1	1760	120	36038	13.328	13.306	13.344
TrackDT01	6	TrackDT	1.0	SCS215a	20120424.142732	20120424.143047	dt-shadow	8	0.013327	60	10	60-180	60	163	GapExp	0	34	2	3	0	distractor	1	792	604	36642	13.328	11.069	15.579
TrackDT01	6	TrackDT	1.0	SCS215a	20120424.142732	20120424.143053	dt-shadow	8	0.013327	60	10	60-180	60	119	GapExp	0	35	2	3	1	target	1	455	773	37415	13.328	13.106	13.550
TrackDT01	6	TrackDT	1.0	SCS215a	20120424.142732	20120424.143059	dt-shadow	8	0.013327	60	10	60-180	60	83	GapExp	0	36	2	0	1	target	1	1046	477	37892	13.328	12.378	14.271
TrackDT01	6	TrackDT	1.0	SCS215a	20120424.142732	20120424.143105	dt-shadow	8	0.013327	60	10	60-180	60	97	GapExp	0	37	2	30	0	distractor	1	584	708	38600	13.328	3.942	22.725
TrackDT01	6	TrackDT	1.0	SCS215a	20120424.142732	20120424.143111	dt-shadow	8	0.013327	60	10	60-180	60	164	GapExp	0	38	2	30	1	distractor	0	531	-1000	37600	13.328	13.097	13.566
TrackDT01	6	TrackDT	1.0	SCS215a	20120424.142732	20120424.143117	dt-shadow	8	0.013327	60	10	60-180	60	129	GapExp	0	39	2	30	1	target	1	569	716	38316	13.328	13.307	13.344
TrackDT01	6	TrackDT	1.0	SCS215a	20120424.142732	20120424.143124	dt-shadow	8	0.013327	60	10	60-180	60	179	GapExp	0	40	2	0	0	target	0	484	-1000	37316	13.328	13.308	13.347
TrackDT01	6	TrackDT	1.0	SCS215a	20120424.142732	20120424.143130	dt-shadow	8	0.013327	60	10	60-180	60	111	GapExp	0	41	2	30	1	target	1	809	596	37912	13.328	13.297	13.355
TrackDT01	6	TrackDT	1.0	SCS215a	20120424.142732	20120424.143137	dt-shadow	8	0.013327	60	10	60-180	60	147	GapExp	0	42	2	30	0	distractor	1	573	714	38626	13.328	12.775	13.860
TrackDT01	6	TrackDT	1.0	SCS215a	20120424.142732	20120424.143143	dt-shadow	8	0.013327	60	10	60-180	60	99	GapExp	0	43	2	0	0	distractor	1	492	754	39380	13.328	5.139	21.573
TrackDT01	6	TrackDT	1.0	SCS215a	20120424.142732	20120424.143148	dt-shadow	8	0.013327	60	10	60-180	60	116	GapExp	0	44	2	0	0	distractor	1	818	591	39971	13.328	13.098	13.539
TrackDT01	6	TrackDT	1.0	SCS215a	20120424.142732	20120424.143154	dt-shadow	8	0.013327	60	10	60-180	60	71	GapExp	0	45	2	0	0	distractor	1	667	667	40638	13.328	13.297	13.362
TrackDT01	6	TrackDT	1.0	SCS215a	20120424.142732	20120424.143159	dt-shadow	8	0.013327	60	10	60-180	60	138	GapExp	0	46	2	0	1	distractor	0	1297	-1000	39638	13.328	10.311	16.336
TrackDT01	6	TrackDT	1.0	SCS215a	20120424.142732	20120424.143206	dt-shadow	8	0.013327	60	10	60-180	60	143	GapExp	0	47	2	1	1	target	1	666	667	40305	13.328	13.307	13.348
TrackDT01	6	TrackDT	1.0	SCS215a	20120424.142732	20120424.143212	dt-shadow	8	0.013327	60	10	60-180	60	80	GapExp	0	48	2	1	1	target	1	613	694	40999	13.328	13.231	13.433
TrackDT01	6	TrackDT	1.0	SCS215a	20120424.142732	20120424.143217	dt-shadow	8	0.013327	60	10	60-180	60	67	GapExp	0	49	2	3	1	target	1	600	700	41699	13.328	12.687	13.984
TrackDT01	6	TrackDT	1.0	SCS215a	20120424.142732	20120424.143222	dt-shadow	8	0.013327	60	10	60-180	60	86	GapExp	0	50	2	3	1	target	1	818	591	42290	13.328	12.838	13.873
TrackDT01	6	TrackDT	1.0	SCS215a	20120424.142732	20120424.143243	dt-shadow	8	0.013327	60	10	60-180	60	119	GapExp	0	51	2	3	0	distractor	1	623	689	42979	13.328	11.028	15.621
TrackDT01	6	TrackDT	1.0	SCS215a	20120424.142732	20120424.143250	dt-shadow	8	0.013327	60	10	60-180	60	142	GapExp	0	52	2	3	1	target	1	430	785	43764	13.328	9.359	17.295
TrackDT01	6	TrackDT	1.0	SCS215a	20120424.142732	20120424.143255	dt-shadow	8	0.013327	60	10	60-180	60	144	GapExp	0	53	2	1	0	distractor	1	540	730	44494	13.328	10.981	15.662
TrackDT01	6	TrackDT	1.0	SCS215a	20120424.142732	20120424.143301	dt-shadow	8	0.013327	60	10	60-180	60	65	GapExp	0	54	2	1	0	distractor	1	515	743	45237	13.328	13.306	13.343
TrackDT01	6	TrackDT	1.0	SCS215a	20120424.142732	20120424.143306	dt-shadow	8	0.013327	60	10	60-180	60	160	GapExp	0	55	2	1	1	target	1	799	601	45838	13.328	13.112	13.543
TrackDT01	6	TrackDT	1.0	SCS215a	20120424.142732	20120424.143313	dt-shadow	8	0.013327	60	10	60-180	60	116	GapExp	0	56	2	0	0	distractor	1	635	683	46521	13.328	11.418	15.247
TrackDT01	6	TrackDT	1.0	SCS215a	20120424.142732	20120424.143318	dt-shadow	8	0.013327	60	10	60-180	60	95	GapExp	0	57	2	30	1	target	1	488	756	47277	13.328	11.950	14.719
TrackDT01	6	TrackDT	1.0	SCS215a	20120424.142732	20120424.143324	dt-shadow	8	0.013327	60	10	60-180	60	180	GapExp	0	58	2	30	0	distractor	1	513	744	48021	13.328	5.553	21.095
TrackDT01	6	TrackDT	1.0	SCS215a	20120424.142732	20120424.143331	dt-shadow	8	0.013327	60	10	60-180	60	147	GapExp	0	59	2	3	1	target	1	504	748	48769	13.328	6.778	19.878
TrackDT01	6	TrackDT	1.0	SCS215a	20120424.142732	20120424.143337	dt-shadow	8	0.013327	60	10	60-180	60	93	GapExp	0	60	2	30	0	distractor	1	620	690	49459	13.328	13.289	13.367
TrackDT01	6	TrackDT	1.0	SCS215a	20120424.142732	20120424.143343	dt-shadow	8	0.013327	60	10	60-180	60	178	GapExp	0	61	2	30	0	target	0	517	-1000	48459	13.328	7.209	19.430
TrackDT01	6	TrackDT	1.0	SCS215a	20120424.142732	20120424.143350	dt-shadow	8	0.013327	60	10	60-180	60	75	GapExp	0	62	2	3	1	distractor	0	1194	-1000	47459	13.328	10.919	15.744
TrackDT01	6	TrackDT	1.0	SCS215a	20120424.142732	20120424.143356	dt-shadow	8	0.013327	60	10	60-180	60	79	GapExp	0	63	2	3	0	distractor	1	844	578	48037	13.328	9.753	16.909
TrackDT01	6	TrackDT	1.0	SCS215a	20120424.142732	20120424.143401	dt-shadow	8	0.013327	60	10	60-180	60	172	GapExp	0	64	2	30	0	distractor	1	615	693	48730	13.328	5.087	21.574
TrackDT01	6	TrackDT	1.0	SCS215a	20120424.142732	20120424.143408	dt-shadow	8	0.013327	60	10	60-180	60	178	GapExp	0	65	2	1	0	distractor	1	746	627	49357	13.328	10.856	15.808
TrackDT01	6	TrackDT	1.0	SCS215a	20120424.142732	20120424.143414	dt-shadow	8	0.013327	60	10	60-180	60	154	GapExp	0	66	2	1	0	distractor	1	927	537	49894	13.328	8.183	18.462
TrackDT01	6	TrackDT	1.0	SCS215a	20120424.142732	20120424.143421	dt-shadow	8	0.013327	60	10	60-180	60	142	GapExp	0	67	2	0	1	distractor	0	723	-1000	48894	13.328	13.005	13.651
TrackDT01	6	TrackDT	1.0	SCS215a	20120424.142732	20120424.143427	dt-shadow	8	0.013327	60	10	60-180	60	98	GapExp	0	68	2	0	0	target	0	647	-1000	47894	13.328	13.171	13.525
TrackDT01	6	TrackDT	1.0	SCS215a	20120424.142732	20120424.143433	dt-shadow	8	0.013327	60	10	60-180	60	85	GapExp	0	69	2	30	0	distractor	1	544	728	48622	13.328	13.298	13.359
TrackDT01	6	TrackDT	1.0	SCS215a	20120424.142732	20120424.143438	dt-shadow	8	0.013327	60	10	60-180	60	136	GapExp	0	70	2	1	1	target	1	417	792	49414	13.380	5.122	34.872
TrackDT01	6	TrackDT	1.0	SCS215a	20120424.142732	20120424.143444	dt-shadow	8	0.013327	60	10	60-180	60	136	GapExp	0	71	2	3	1	target	1	399	801	50215	13.328	7.725	18.927
TrackDT01	6	TrackDT	1.0	SCS215a	20120424.142732	20120424.143450	dt-shadow	8	0.013327	60	10	60-180	60	118	GapExp	0	72	2	3	0	distractor	1	482	759	50974	13.328	13.084	13.564
TrackDT01	6	TrackDT	1.0	SCS215a	20120424.142732	20120424.143455	dt-shadow	8	0.013327	60	10	60-180	60	152	GapExp	0	73	2	30	0	distractor	1	539	731	51705	13.328	12.970	13.678
TrackDT01	6	TrackDT	1.0	SCS215a	20120424.142732	20120424.143502	dt-shadow	8	0.013327	60	10	60-180	60	169	GapExp	0	74	2	30	0	distractor	1	533	734	52439	13.328	10.023	16.626
TrackDT01	6	TrackDT	1.0	SCS215a	20120424.142732	20120424.143509	dt-shadow	8	0.013327	60	10	60-180	60	78	GapExp	0	75	2	0	0	distractor	1	619	691	53130	13.328	13.295	13.348
TrackDT01	6	TrackDT	1.0	SCS215a	20120424.142732	20120424.143514	dt-shadow	8	0.013327	60	10	60-180	60	114	GapExp	0	76	2	3	0	distractor	1	570	715	53845	13.328	13.308	13.347
TrackDT01	6	TrackDT	1.0	SCS215a	20120424.142732	20120424.143520	dt-shadow	8	0.013327	60	10	60-180	60	64	GapExp	0	77	2	30	1	distractor	0	396	-1000	52845	13.328	13.118	13.550
TrackDT01	6	TrackDT	1.0	SCS215a	20120424.142732	20120424.143525	dt-shadow	8	0.013327	60	10	60-180	60	173	GapExp	0	78	2	3	1	target	1	328	836	53681	13.328	7.427	19.206
TrackDT01	6	TrackDT	1.0	SCS215a	20120424.142732	20120424.143531	dt-shadow	8	0.013327	60	10	60-180	60	155	GapExp	0	79	2	3	0	target	0	851	-1000	52681	13.328	11.624	15.042
TrackDT01	6	TrackDT	1.0	SCS215a	20120424.142732	20120424.143538	dt-shadow	8	0.013327	60	10	60-180	60	166	GapExp	0	80	2	30	1	target	1	443	779	53460	13.328	9.409	17.261
TrackDT01	6	TrackDT	1.0	SCS215a	20120424.142732	20120424.143544	dt-shadow	8	0.013327	60	10	60-180	60	118	GapExp	0	81	2	1	1	target	1	776	612	54072	13.328	13.297	13.355
TrackDT01	6	TrackDT	1.0	SCS215a	20120424.142732	20120424.143550	dt-shadow	8	0.013327	60	10	60-180	60	91	GapExp	0	82	2	0	1	distractor	0	674	-1000	53072	13.328	12.692	13.978
TrackDT01	6	TrackDT	1.0	SCS215a	20120424.142732	20120424.143555	dt-shadow	8	0.013327	60	10	60-180	60	66	GapExp	0	83	2	0	0	target	0	828	-1000	52072	13.328	13.293	13.360
TrackDT01	6	TrackDT	1.0	SCS215a	20120424.142732	20120424.143601	dt-shadow	8	0.013327	60	10	60-180	60	177	GapExp	0	84	2	0	1	distractor	0	683	-1000	51072	13.328	10.748	15.901
TrackDT01	6	TrackDT	1.0	SCS215a	20120424.142732	20120424.143607	dt-shadow	8	0.013327	60	10	60-180	60	109	GapExp	0	85	2	3	1	target	1	490	755	51827	13.328	9.813	16.847
TrackDT01	6	TrackDT	1.0	SCS215a	20120424.142732	20120424.143613	dt-shadow	8	0.013327	60	10	60-180	60	119	GapExp	0	86	2	1	1	target	1	495	753	52580	13.328	12.146	14.504
TrackDT01	6	TrackDT	1.0	SCS215a	20120424.142732	20120424.143619	dt-shadow	8	0.013327	60	10	60-180	60	70	GapExp	0	87	2	30	1	target	1	86	957	53537	13.328	10.167	16.470
TrackDT01	6	TrackDT	1.0	SCS215a	20120424.142732	20120424.143624	dt-shadow	8	0.013327	60	10	60-180	60	98	GapExp	0	88	2	0	1	target	1	132	934	54471	13.328	7.792	18.860
TrackDT01	6	TrackDT	1.0	SCS215a	20120424.142732	20120424.143628	dt-shadow	8	0.013327	60	10	60-180	60	82	GapExp	0	89	2	0	1	target	1	266	867	55338	13.328	8.415	18.239
TrackDT01	6	TrackDT	1.0	SCS215a	20120424.142732	20120424.143633	dt-shadow	8	0.013327	60	10	60-180	60	102	GapExp	0	90	2	1	1	target	1	268	866	56204	13.328	13.100	13.548
TrackDT01	6	TrackDT	1.0	SCS215a	20120424.142732	20120424.143638	dt-shadow	8	0.013327	60	10	60-180	60	115	GapExp	0	91	2	3	0	target	0	404	-1000	55204	13.328	9.344	17.306
TrackDT01	6	TrackDT	1.0	SCS215a	20120424.142732	20120424.143644	dt-shadow	8	0.013327	60	10	60-180	60	135	GapExp	0	92	2	0	0	distractor	1	420	790	55994	13.328	7.056	19.594
TrackDT01	6	TrackDT	1.0	SCS215a	20120424.142732	20120424.143650	dt-shadow	8	0.013327	60	10	60-180	60	78	GapExp	0	93	2	3	1	target	1	396	802	56796	13.328	13.092	13.558
TrackDT01	6	TrackDT	1.0	SCS215a	20120424.142732	20120424.143655	dt-shadow	8	0.013327	60	10	60-180	60	73	GapExp	0	94	2	30	1	distractor	0	396	-1000	55796	13.328	9.125	17.537
TrackDT01	6	TrackDT	1.0	SCS215a	20120424.142732	20120424.143700	dt-shadow	8	0.013327	60	10	60-180	60	165	GapExp	0	95	2	30	0	distractor	1	417	792	56588	13.328	13.138	13.520
TrackDT01	6	TrackDT	1.0	SCS215a	20120424.142732	20120424.143707	dt-shadow	8	0.013327	60	10	60-180	60	169	GapExp	0	96	2	3	1	distractor	0	400	-1000	55588	13.328	4.896	21.759
TrackDT01	6	TrackDT	1.0	SCS215a	20120424.142732	20120424.143713	dt-shadow	8	0.013327	60	10	60-180	60	159	GapExp	0	97	2	1	0	distractor	1	685	658	56246	13.328	13.292	13.370
TrackDT01	6	TrackDT	1.0	SCS215a	20120424.142732	20120424.143720	dt-shadow	8	0.013327	60	10	60-180	60	166	GapExp	0	98	2	3	0	distractor	1	568	716	56962	13.328	13.302	13.354
TrackDT01	6	TrackDT	1.0	SCS215a	20120424.142732	20120424.143726	dt-shadow	8	0.013327	60	10	60-180	60	79	GapExp	0	99	2	0	0	distractor	1	431	785	57747	13.328	13.106	13.557
TrackDT01	6	TrackDT	1.0	SCS215a	20120424.142732	20120424.143731	dt-shadow	8	0.013327	60	10	60-180	60	92	GapExp	0	100	2	30	1	distractor	0	408	-1000	56747	13.328	10.632	16.030
TrackDT01	6	TrackDT	1.0	SCS215a	20120424.142732	20120424.143745	dt-shadow	8	0.013327	60	10	60-180	60	179	GapExp	0	101	2	0	1	target	1	841	580	57327	13.328	10.273	16.431
TrackDT01	6	TrackDT	1.0	SCS215a	20120424.142732	20120424.143753	dt-shadow	8	0.013327	60	10	60-180	60	139	GapExp	0	102	2	1	0	distractor	1	976	512	57839	13.328	13.106	13.551
TrackDT01	6	TrackDT	1.0	SCS215a	20120424.142732	20120424.143759	dt-shadow	8	0.013327	60	10	60-180	60	173	GapExp	0	103	2	3	0	distractor	1	608	696	58535	13.328	7.034	19.827
TrackDT01	6	TrackDT	1.0	SCS215a	20120424.142732	20120424.143805	dt-shadow	8	0.013327	60	10	60-180	60	109	GapExp	0	104	2	3	1	target	1	742	629	59164	13.380	13.085	25.572
TrackDT01	6	TrackDT	1.0	SCS215a	20120424.142732	20120424.143811	dt-shadow	8	0.013327	60	10	60-180	60	78	GapExp	0	105	2	1	0	distractor	1	716	642	59806	13.328	8.533	18.111
TrackDT01	6	TrackDT	1.0	SCS215a	20120424.142732	20120424.143816	dt-shadow	8	0.013327	60	10	60-180	60	168	GapExp	0	106	2	3	0	distractor	1	407	797	60603	13.328	13.171	13.493
TrackDT01	6	TrackDT	1.0	SCS215a	20120424.142732	20120424.143823	dt-shadow	8	0.013327	60	10	60-180	60	131	GapExp	0	107	2	1	0	distractor	1	424	788	61391	13.328	13.305	13.344
TrackDT01	6	TrackDT	1.0	SCS215a	20120424.142732	20120424.143829	dt-shadow	8	0.013327	60	10	60-180	60	136	GapExp	0	108	2	30	0	distractor	1	521	740	62131	13.328	13.085	13.571
TrackDT01	6	TrackDT	1.0	SCS215a	20120424.142732	20120424.143835	dt-shadow	8	0.013327	60	10	60-180	60	169	GapExp	0	109	2	30	0	distractor	1	487	757	62888	13.328	7.261	19.416
TrackDT01	6	TrackDT	1.0	SCS215a	20120424.142732	20120424.143841	dt-shadow	8	0.013327	60	10	60-180	60	172	GapExp	0	110	2	1	1	target	1	574	713	63601	13.328	13.094	13.548
TrackDT01	6	TrackDT	1.0	SCS215a	20120424.142732	20120424.143848	dt-shadow	8	0.013327	60	10	60-180	60	145	GapExp	0	111	2	0	0	distractor	1	576	712	64313	13.328	13.087	13.564
TrackDT01	6	TrackDT	1.0	SCS215a	20120424.142732	20120424.143854	dt-shadow	8	0.013327	60	10	60-180	60	163	GapExp	0	112	2	3	0	distractor	1	717	642	64955	13.328	13.310	13.344
TrackDT01	6	TrackDT	1.0	SCS215a	20120424.142732	20120424.143901	dt-shadow	8	0.013327	60	10	60-180	60	76	GapExp	0	113	2	3	0	target	0	510	-1000	63955	13.328	10.292	16.370
TrackDT01	6	TrackDT	1.0	SCS215a	20120424.142732	20120424.143906	dt-shadow	8	0.013327	60	10	60-180	60	91	GapExp	0	114	2	30	1	target	1	511	745	64700	13.328	13.305	13.351
TrackDT01	6	TrackDT	1.0	SCS215a	20120424.142732	20120424.143911	dt-shadow	8	0.013327	60	10	60-180	60	128	GapExp	0	115	2	1	1	target	1	698	651	65351	13.328	8.694	17.955
TrackDT01	6	TrackDT	1.0	SCS215a	20120424.142732	20120424.143917	dt-shadow	8	0.013327	60	10	60-180	60	133	GapExp	0	116	2	1	1	target	1	1182	409	65760	13.328	13.105	13.557
TrackDT01	6	TrackDT	1.0	SCS215a	20120424.142732	20120424.143924	dt-shadow	8	0.013327	60	10	60-180	60	104	GapExp	0	117	2	3	0	distractor	1	506	747	66507	13.328	5.367	21.281
TrackDT01	6	TrackDT	1.0	SCS215a	20120424.142732	20120424.143929	dt-shadow	8	0.013327	60	10	60-180	60	169	GapExp	0	118	2	0	0	distractor	1	637	682	67189	13.328	13.098	13.559
TrackDT01	6	TrackDT	1.0	SCS215a	20120424.142732	20120424.143936	dt-shadow	8	0.013327	60	10	60-180	60	65	GapExp	0	119	2	30	1	target	1	412	794	67983	13.328	13.302	13.354
TrackDT01	6	TrackDT	1.0	SCS215a	20120424.142732	20120424.143941	dt-shadow	8	0.013327	60	10	60-180	60	176	GapExp	0	120	2	3	1	target	1	496	752	68735	13.328	12.257	14.407
TrackDT01	6	TrackDT	1.0	SCS215a	20120424.142732	20120424.143947	dt-shadow	8	0.013327	60	10	60-180	60	152	GapExp	0	121	2	3	0	target	0	366	-1000	67735	13.328	13.308	13.345
TrackDT01	6	TrackDT	1.0	SCS215a	20120424.142732	20120424.143953	dt-shadow	8	0.013327	60	10	60-180	60	175	GapExp	0	122	2	1	0	distractor	1	661	670	68405	13.328	13.294	13.351
TrackDT01	6	TrackDT	1.0	SCS215a	20120424.142732	20120424.144000	dt-shadow	8	0.013327	60	10	60-180	60	80	GapExp	0	123	2	3	0	target	0	568	-1000	67405	13.328	11.669	14.982
TrackDT01	6	TrackDT	1.0	SCS215a	20120424.142732	20120424.144005	dt-shadow	8	0.013327	60	10	60-180	60	67	GapExp	0	124	2	0	0	distractor	1	522	739	68144	13.328	13.098	13.559
TrackDT01	6	TrackDT	1.0	SCS215a	20120424.142732	20120424.144010	dt-shadow	8	0.013327	60	10	60-180	60	148	GapExp	0	125	2	3	0	distractor	1	419	791	68935	13.328	10.605	16.056
TrackDT01	6	TrackDT	1.0	SCS215a	20120424.142732	20120424.144016	dt-shadow	8	0.013327	60	10	60-180	60	67	GapExp	0	126	2	0	1	target	1	648	676	69611	13.328	12.899	13.747
TrackDT01	6	TrackDT	1.0	SCS215a	20120424.142732	20120424.144021	dt-shadow	8	0.013327	60	10	60-180	60	174	GapExp	0	127	2	1	1	target	1	1185	408	70019	13.328	13.309	13.346
TrackDT01	6	TrackDT	1.0	SCS215a	20120424.142732	20120424.144028	dt-shadow	8	0.013327	60	10	60-180	60	93	GapExp	0	128	2	30	1	target	1	434	783	70802	13.328	8.778	17.858
TrackDT01	6	TrackDT	1.0	SCS215a	20120424.142732	20120424.144034	dt-shadow	8	0.013327	60	10	60-180	60	175	GapExp	0	129	2	1	0	distractor	1	701	650	71452	13.328	13.307	13.347
TrackDT01	6	TrackDT	1.0	SCS215a	20120424.142732	20120424.144040	dt-shadow	8	0.013327	60	10	60-180	60	108	GapExp	0	130	2	30	0	distractor	1	704	648	72100	13.328	9.471	17.179
TrackDT01	6	TrackDT	1.0	SCS215a	20120424.142732	20120424.144046	dt-shadow	8	0.013327	60	10	60-180	60	179	GapExp	0	131	2	0	1	target	1	410	795	72895	13.328	11.395	15.246
TrackDT01	6	TrackDT	1.0	SCS215a	20120424.142732	20120424.144053	dt-shadow	8	0.013327	60	10	60-180	60	109	GapExp	0	132	2	3	1	target	1	777	612	73507	13.328	13.105	13.563
TrackDT01	6	TrackDT	1.0	SCS215a	20120424.142732	20120424.144058	dt-shadow	8	0.013327	60	10	60-180	60	89	GapExp	0	133	2	30	1	target	1	988	506	74013	13.328	7.432	19.233
TrackDT01	6	TrackDT	1.0	SCS215a	20120424.142732	20120424.144105	dt-shadow	8	0.013327	60	10	60-180	60	91	GapExp	0	134	2	30	1	target	1	323	839	74852	13.328	12.854	13.809
TrackDT01	6	TrackDT	1.0	SCS215a	20120424.142732	20120424.144110	dt-shadow	8	0.013327	60	10	60-180	60	179	GapExp	0	135	2	3	1	target	1	668	666	75518	13.328	9.264	17.399
TrackDT01	6	TrackDT	1.0	SCS215a	20120424.142732	20120424.144117	dt-shadow	8	0.013327	60	10	60-180	60	148	GapExp	0	136	2	0	1	target	1	527	737	76255	13.328	13.307	13.344
TrackDT01	6	TrackDT	1.0	SCS215a	20120424.142732	20120424.144123	dt-shadow	8	0.013327	60	10	60-180	60	162	GapExp	0	137	2	1	0	distractor	1	608	696	76951	13.328	13.112	13.550
TrackDT01	6	TrackDT	1.0	SCS215a	20120424.142732	20120424.144129	dt-shadow	8	0.013327	60	10	60-180	60	117	GapExp	0	138	2	0	0	distractor	1	691	655	77606	13.328	13.110	13.538
TrackDT01	6	TrackDT	1.0	SCS215a	20120424.142732	20120424.144135	dt-shadow	8	0.013327	60	10	60-180	60	155	GapExp	0	139	2	3	1	target	1	545	728	78334	13.328	8.127	18.519
TrackDT01	6	TrackDT	1.0	SCS215a	20120424.142732	20120424.144141	dt-shadow	8	0.013327	60	10	60-180	60	132	GapExp	0	140	2	0	1	target	1	839	581	78915	13.328	13.098	13.558
TrackDT01	6	TrackDT	1.0	SCS215a	20120424.142732	20120424.144147	dt-shadow	8	0.013327	60	10	60-180	60	126	GapExp	0	141	2	30	1	target	1	457	772	79687	13.328	13.308	13.350
TrackDT01	6	TrackDT	1.0	SCS215a	20120424.142732	20120424.144153	dt-shadow	8	0.013327	60	10	60-180	60	92	GapExp	0	142	2	30	0	distractor	1	479	761	80448	13.328	10.499	16.155
TrackDT01	6	TrackDT	1.0	SCS215a	20120424.142732	20120424.144159	dt-shadow	8	0.013327	60	10	60-180	60	61	GapExp	0	143	2	3	1	target	1	567	717	81165	13.328	13.311	13.344
TrackDT01	6	TrackDT	1.0	SCS215a	20120424.142732	20120424.144204	dt-shadow	8	0.013327	60	10	60-180	60	79	GapExp	0	144	2	3	1	target	1	578	711	81876	13.328	13.107	13.556
TrackDT01	6	TrackDT	1.0	SCS215a	20120424.142732	20120424.144209	dt-shadow	8	0.013327	60	10	60-180	60	71	GapExp	0	145	2	30	0	distractor	1	318	841	82717	13.328	13.305	13.359
TrackDT01	6	TrackDT	1.0	SCS215a	20120424.142732	20120424.144214	dt-shadow	8	0.013327	60	10	60-180	60	159	GapExp	0	146	2	3	1	target	1	790	605	83322	13.328	13.294	13.351
TrackDT01	6	TrackDT	1.0	SCS215a	20120424.142732	20120424.144221	dt-shadow	8	0.013327	60	10	60-180	60	165	GapExp	0	147	2	3	0	target	0	572	-1000	82322	13.328	13.040	13.615
TrackDT01	6	TrackDT	1.0	SCS215a	20120424.142732	20120424.144227	dt-shadow	8	0.013327	60	10	60-180	60	135	GapExp	0	148	2	1	0	distractor	1	646	677	82999	13.328	13.301	13.348
TrackDT01	6	TrackDT	1.0	SCS215a	20120424.142732	20120424.144233	dt-shadow	8	0.013327	60	10	60-180	60	149	GapExp	0	149	2	1	0	distractor	1	1366	317	83316	13.328	10.638	16.021
TrackDT01	6	TrackDT	1.0	SCS215a	20120424.142732	20120424.144240	dt-shadow	8	0.013327	60	10	60-180	60	75	GapExp	0	150	2	1	0	distractor	1	642	679	83995	13.328	13.107	13.542
TrackDT01	6	TrackDT	1.0	SCS215a	20120424.142732	20120424.144251	dt-shadow	8	0.013327	60	10	60-180	60	80	GapExp	0	151	2	1	0	distractor	1	499	751	84746	13.328	13.291	13.357
TrackDT01	6	TrackDT	1.0	SCS215a	20120424.142732	20120424.144256	dt-shadow	8	0.013327	60	10	60-180	60	150	GapExp	0	152	2	30	1	target	1	373	814	85560	13.328	10.335	16.335
TrackDT01	6	TrackDT	1.0	SCS215a	20120424.142732	20120424.144302	dt-shadow	8	0.013327	60	10	60-180	60	96	GapExp	0	153	2	30	0	target	0	398	-1000	84560	13.328	9.524	17.145
TrackDT01	6	TrackDT	1.0	SCS215a	20120424.142732	20120424.144308	dt-shadow	8	0.013327	60	10	60-180	60	117	GapExp	0	154	2	1	0	distractor	1	628	686	85246	13.328	13.099	13.557
TrackDT01	6	TrackDT	1.0	SCS215a	20120424.142732	20120424.144314	dt-shadow	8	0.013327	60	10	60-180	60	161	GapExp	0	155	2	30	0	distractor	1	346	827	86073	13.328	13.090	13.567
TrackDT01	6	TrackDT	1.0	SCS215a	20120424.142732	20120424.144320	dt-shadow	8	0.013327	60	10	60-180	60	170	GapExp	0	156	2	3	1	target	1	1272	364	86437	13.328	13.307	13.344
TrackDT01	6	TrackDT	1.0	SCS215a	20120424.142732	20120424.144327	dt-shadow	8	0.013327	60	10	60-180	60	120	GapExp	0	157	2	3	1	target	1	1103	449	86886	13.328	13.095	13.575
TrackDT01	6	TrackDT	1.0	SCS215a	20120424.142732	20120424.144333	dt-shadow	8	0.013327	60	10	60-180	60	121	GapExp	0	158	2	30	1	target	1	382	809	87695	13.328	3.894	22.778
TrackDT01	6	TrackDT	1.0	SCS215a	20120424.142732	20120424.144339	dt-shadow	8	0.013327	60	10	60-180	60	174	GapExp	0	159	2	0	1	target	1	374	813	88508	13.328	13.303	13.353
TrackDT01	6	TrackDT	1.0	SCS215a	20120424.142732	20120424.144346	dt-shadow	8	0.013327	60	10	60-180	60	133	GapExp	0	160	2	30	1	target	1	394	803	89311	13.328	13.308	13.345
TrackDT01	6	TrackDT	1.0	SCS215a	20120424.142732	20120424.144352	dt-shadow	8	0.013327	60	10	60-180	60	178	GapExp	0	161	2	0	1	target	1	422	789	90100	13.328	13.251	13.399
TrackDT01	6	TrackDT	1.0	SCS215a	20120424.142732	20120424.144358	dt-shadow	8	0.013327	60	10	60-180	60	162	GapExp	0	162	2	0	0	distractor	1	846	577	90677	13.328	13.302	13.347
TrackDT01	6	TrackDT	1.0	SCS215a	20120424.142732	20120424.144405	dt-shadow	8	0.013327	60	10	60-180	60	142	GapExp	0	163	2	30	0	target	0	562	-1000	89677	13.328	13.084	13.556
TrackDT01	6	TrackDT	1.0	SCS215a	20120424.142732	20120424.144411	dt-shadow	8	0.013327	60	10	60-180	60	123	GapExp	0	164	2	0	0	distractor	1	816	592	90269	13.328	13.105	13.563
TrackDT01	6	TrackDT	1.0	SCS215a	20120424.142732	20120424.144417	dt-shadow	8	0.013327	60	10	60-180	60	130	GapExp	0	165	2	3	0	distractor	1	501	750	91019	13.328	12.812	13.852
TrackDT01	6	TrackDT	1.0	SCS215a	20120424.142732	20120424.144423	dt-shadow	8	0.013327	60	10	60-180	60	179	GapExp	0	166	2	1	1	target	1	944	528	91547	13.328	11.527	15.129
TrackDT01	6	TrackDT	1.0	SCS215a	20120424.142732	20120424.144430	dt-shadow	8	0.013327	60	10	60-180	60	106	GapExp	0	167	2	30	0	distractor	1	792	604	92151	13.328	13.112	13.538
TrackDT01	6	TrackDT	1.0	SCS215a	20120424.142732	20120424.144436	dt-shadow	8	0.013327	60	10	60-180	60	70	GapExp	0	168	2	30	0	distractor	1	436	782	92933	13.328	13.303	13.348
TrackDT01	6	TrackDT	1.0	SCS215a	20120424.142732	20120424.144441	dt-shadow	8	0.013327	60	10	60-180	60	125	GapExp	0	169	2	1	0	distractor	1	566	717	93650	13.328	13.307	13.350
TrackDT01	6	TrackDT	1.0	SCS215a	20120424.142732	20120424.144447	dt-shadow	8	0.013327	60	10	60-180	60	129	GapExp	0	170	2	0	1	distractor	0	1710	-1000	92650	13.328	8.886	17.770
TrackDT01	6	TrackDT	1.0	SCS215a	20120424.142732	20120424.144454	dt-shadow	8	0.013327	60	10	60-180	60	161	GapExp	0	171	2	30	1	target	1	367	817	93467	13.328	13.308	13.345
TrackDT01	6	TrackDT	1.0	SCS215a	20120424.142732	20120424.144501	dt-shadow	8	0.013327	60	10	60-180	60	119	GapExp	0	172	2	3	0	distractor	1	532	734	94201	13.328	11.751	14.907
TrackDT01	6	TrackDT	1.0	SCS215a	20120424.142732	20120424.144506	dt-shadow	8	0.013327	60	10	60-180	60	102	GapExp	0	173	2	1	1	target	1	6079	0	94201	13.328	11.689	14.968
TrackDT01	6	TrackDT	1.0	SCS215a	20120424.142732	20120424.144517	dt-shadow	8	0.013327	60	10	60-180	60	136	GapExp	0	174	2	0	1	target	1	1374	313	94514	13.328	12.143	14.504
TrackDT01	6	TrackDT	1.0	SCS215a	20120424.142732	20120424.144524	dt-shadow	8	0.013327	60	10	60-180	60	106	GapExp	0	175	2	1	1	target	1	992	504	95018	13.328	13.292	13.378
TrackDT01	6	TrackDT	1.0	SCS215a	20120424.142732	20120424.144530	dt-shadow	8	0.013327	60	10	60-180	60	64	GapExp	0	176	2	0	1	target	1	798	601	95619	13.328	13.295	13.360
TrackDT01	6	TrackDT	1.0	SCS215a	20120424.142732	20120424.144535	dt-shadow	8	0.013327	60	10	60-180	60	168	GapExp	0	177	2	3	1	target	1	488	756	96375	13.328	11.357	15.306
TrackDT01	6	TrackDT	1.0	SCS215a	20120424.142732	20120424.144541	dt-shadow	8	0.013327	60	10	60-180	60	87	GapExp	0	178	2	30	1	target	1	638	681	97056	13.320	11.363	13.538
TrackDT01	6	TrackDT	1.0	SCS215a	20120424.142732	20120424.144547	dt-shadow	8	0.013327	60	10	60-180	60	88	GapExp	0	179	2	0	0	distractor	1	1090	455	97511	13.328	13.099	13.556
TrackDT01	6	TrackDT	1.0	SCS215a	20120424.142732	20120424.144553	dt-shadow	8	0.013327	60	10	60-180	60	101	GapExp	0	180	2	3	0	target	0	684	-1000	96511	13.328	13.306	13.346
TrackDT01	6	TrackDT	1.0	SCS215a	20120424.142732	20120424.144559	dt-shadow	8	0.013327	60	10	60-180	60	62	GapExp	0	181	2	1	0	distractor	1	613	694	97205	13.328	8.107	18.551
TrackDT01	6	TrackDT	1.0	SCS215a	20120424.142732	20120424.144604	dt-shadow	8	0.013327	60	10	60-180	60	111	GapExp	0	182	2	3	1	target	1	340	830	98035	13.328	10.586	16.103
TrackDT01	6	TrackDT	1.0	SCS215a	20120424.142732	20120424.144609	dt-shadow	8	0.013327	60	10	60-180	60	85	GapExp	0	183	2	0	1	target	1	592	704	98739	13.328	13.092	13.571
TrackDT01	6	TrackDT	1.0	SCS215a	20120424.142732	20120424.144614	dt-shadow	8	0.013327	60	10	60-180	60	100	GapExp	0	184	2	0	0	distractor	1	667	667	99406	13.328	13.306	13.353
TrackDT01	6	TrackDT	1.0	SCS215a	20120424.142732	20120424.144620	dt-shadow	8	0.013327	60	10	60-180	60	86	GapExp	0	185	2	1	0	distractor	1	690	655	100061	13.328	12.600	14.064
TrackDT01	6	TrackDT	1.0	SCS215a	20120424.142732	20120424.144625	dt-shadow	8	0.013327	60	10	60-180	60	82	GapExp	0	186	2	30	1	target	1	658	671	100732	13.328	13.296	13.346
TrackDT01	6	TrackDT	1.0	SCS215a	20120424.142732	20120424.144631	dt-shadow	8	0.013327	60	10	60-180	60	128	GapExp	0	187	2	0	1	early	-4	-806	-1000	99732	13.328	13.090	13.565
TrackDT01	6	TrackDT	1.0	SCS215a	20120424.142732	20120424.144638	dt-shadow	8	0.013327	60	10	60-180	60	134	GapExp	0	188	2	3	0	target	0	636	-1000	98732	13.328	13.312	13.347
TrackDT01	6	TrackDT	1.0	SCS215a	20120424.142732	20120424.144644	dt-shadow	8	0.013327	60	10	60-180	60	170	GapExp	0	189	2	1	0	distractor	1	485	758	99490	13.328	8.416	18.233
TrackDT01	6	TrackDT	1.0	SCS215a	20120424.142732	20120424.144650	dt-shadow	8	0.013327	60	10	60-180	60	106	GapExp	0	190	2	1	1	distractor	0	1024	-1000	98490	13.328	13.092	13.557
TrackDT01	6	TrackDT	1.0	SCS215a	20120424.142732	20120424.144656	dt-shadow	8	0.013327	60	10	60-180	60	114	GapExp	0	191	2	30	0	target	0	367	-1000	97490	13.328	7.812	18.859
TrackDT01	6	TrackDT	1.0	SCS215a	20120424.142732	20120424.144702	dt-shadow	8	0.013327	60	10	60-180	60	143	GapExp	0	192	2	1	0	distractor	1	621	690	98180	13.328	13.292	13.369
TrackDT01	6	TrackDT	1.0	SCS215a	20120424.142732	20120424.144708	dt-shadow	8	0.013327	60	10	60-180	60	108	GapExp	0	193	2	1	1	target	1	608	696	98876	13.328	13.297	13.357
TrackDT01	6	TrackDT	1.0	SCS215a	20120424.142732	20120424.144714	dt-shadow	8	0.013327	60	10	60-180	60	179	GapExp	0	194	2	3	0	distractor	1	713	644	99520	13.328	7.880	18.775
TrackDT01	6	TrackDT	1.0	SCS215a	20120424.142732	20120424.144720	dt-shadow	8	0.013327	60	10	60-180	60	128	GapExp	0	195	2	1	1	target	1	624	688	100208	13.328	13.092	13.551
TrackDT01	6	TrackDT	1.0	SCS215a	20120424.142732	20120424.144726	dt-shadow	8	0.013327	60	10	60-180	60	180	GapExp	0	196	2	30	1	target	1	452	774	100982	13.328	13.110	13.558
TrackDT01	6	TrackDT	1.0	SCS215a	20120424.142732	20120424.144733	dt-shadow	8	0.013327	60	10	60-180	60	159	GapExp	0	197	2	30	0	distractor	1	440	780	101762	13.328	13.118	13.543
TrackDT01	6	TrackDT	1.0	SCS215a	20120424.142732	20120424.144740	dt-shadow	8	0.013327	60	10	60-180	60	134	GapExp	0	198	2	1	1	target	1	865	568	102330	13.328	13.105	13.549
TrackDT01	6	TrackDT	1.0	SCS215a	20120424.142732	20120424.144746	dt-shadow	8	0.013327	60	10	60-180	60	79	GapExp	0	199	2	1	1	target	1	581	710	103040	13.328	7.694	18.969
TrackDT01	6	TrackDT	1.0	SCS215a	20120424.142732	20120424.144751	dt-shadow	8	0.013327	60	10	60-180	60	148	GapExp	0	200	2	30	0	distractor	1	639	681	103721	13.328	13.304	13.350
TrackDT01	6	TrackDT	1.0	SCS215a	20120424.144817	20120424.144828	single-task	8	0.013328	60	10	60-180	60	110	GapPrac	1	1	2	30	1	target	1	335	833	104554	13.328	13.097	13.551
TrackDT01	6	TrackDT	1.0	SCS215a	20120424.144817	20120424.144834	single-task	8	0.013328	60	10	60-180	60	67	GapPrac	1	2	2	0	0	distractor	1	546	727	105281	13.328	13.296	13.386
TrackDT01	6	TrackDT	1.0	SCS215a	20120424.144817	20120424.144839	single-task	8	0.013328	60	10	60-180	60	72	GapPrac	1	3	2	1	0	distractor	1	594	703	105984	13.328	13.308	13.348
TrackDT01	6	TrackDT	1.0	SCS215a	20120424.144817	20120424.144844	single-task	8	0.013328	60	10	60-180	60	126	GapPrac	1	4	2	0	1	distractor	0	444	-1000	104984	13.328	13.092	13.563
TrackDT01	6	TrackDT	1.0	SCS215a	20120424.144817	20120424.144850	single-task	8	0.013328	60	10	60-180	60	63	GapPrac	1	5	2	30	1	target	1	253	874	105858	13.328	13.181	13.467
TrackDT01	6	TrackDT	1.0	SCS215a	20120424.144817	20120424.144855	single-task	8	0.013328	60	10	60-180	60	112	GapPrac	1	6	2	3	0	distractor	1	671	665	106523	13.328	12.853	13.798
TrackDT01	6	TrackDT	1.0	SCS215a	20120424.144817	20120424.144900	single-task	8	0.013328	60	10	60-180	60	64	GapPrac	1	7	2	1	0	distractor	1	486	757	107280	13.328	13.306	13.345
TrackDT01	6	TrackDT	1.0	SCS215a	20120424.144817	20120424.144906	single-task	8	0.013328	60	10	60-180	60	67	GapPrac	1	8	2	1	1	target	1	348	826	108106	13.328	12.865	13.789
TrackDT01	6	TrackDT	1.0	SCS215a	20120424.144817	20120424.144910	single-task	8	0.013328	60	10	60-180	60	83	GapPrac	1	9	2	3	1	distractor	0	518	-1000	107106	13.328	13.112	13.550
TrackDT01	6	TrackDT	1.0	SCS215a	20120424.144817	20120424.144916	single-task	8	0.013328	60	10	60-180	60	164	GapPrac	1	10	2	0	0	target	0	381	-1000	106106	13.328	13.303	13.353
TrackDT01	6	TrackDT	1.0	SCS215a	20120424.144817	20120424.144922	single-task	8	0.013328	60	10	60-180	60	115	GapPrac	1	11	2	30	0	distractor	1	453	774	106880	13.328	13.303	13.350
TrackDT01	6	TrackDT	1.0	SCS215a	20120424.144817	20120424.144928	single-task	8	0.013328	60	10	60-180	60	67	GapPrac	1	12	2	0	0	distractor	1	471	765	107645	13.328	12.853	13.826
TrackDT01	6	TrackDT	1.0	SCS215a	20120424.144817	20120424.144932	single-task	8	0.013328	60	10	60-180	60	161	GapPrac	1	13	2	0	1	distractor	0	481	-1000	106645	13.328	13.105	13.558
TrackDT01	6	TrackDT	1.0	SCS215a	20120424.144817	20120424.144939	single-task	8	0.013328	60	10	60-180	60	179	GapPrac	1	14	2	3	0	distractor	1	717	642	107287	13.328	12.981	13.682
TrackDT01	6	TrackDT	1.0	SCS215a	20120424.144817	20120424.144945	single-task	8	0.013328	60	10	60-180	60	157	GapPrac	1	15	2	30	1	target	1	487	757	108044	13.328	13.058	13.597
TrackDT01	6	TrackDT	1.0	SCS215a	20120424.144817	20120424.144952	single-task	8	0.013328	60	10	60-180	60	86	GapPrac	1	16	2	1	1	target	1	408	796	108840	13.328	13.304	13.347
TrackDT01	6	TrackDT	1.0	SCS215a	20120424.144817	20120424.144957	single-task	8	0.013328	60	10	60-180	60	167	GapPrac	1	17	2	1	0	distractor	1	419	791	109631	13.328	13.310	13.347
TrackDT01	6	TrackDT	1.0	SCS215a	20120424.144817	20120424.145003	single-task	8	0.013328	60	10	60-180	60	168	GapPrac	1	18	2	0	1	target	1	522	739	110370	13.328	12.985	13.672
TrackDT01	6	TrackDT	1.0	SCS215a	20120424.144817	20120424.145010	single-task	8	0.013328	60	10	60-180	60	110	GapPrac	1	19	2	30	0	distractor	1	602	699	111069	13.328	13.163	13.494
TrackDT01	6	TrackDT	1.0	SCS215a	20120424.144817	20120424.145016	single-task	8	0.013328	60	10	60-180	60	123	GapPrac	1	20	2	3	1	target	1	274	863	111932	13.328	12.975	13.676
TrackDT01	6	TrackDT	1.0	SCS215a	20120424.145029	20120424.145035	single-task	8	0.013327	60	10	60-180	60	152	GapExp	1	1	2	1	0	target	0	398	-1000	110932	13.328	11.859	14.797
TrackDT01	6	TrackDT	1.0	SCS215a	20120424.145029	20120424.145042	single-task	8	0.013327	60	10	60-180	60	139	GapExp	1	2	2	0	1	target	1	459	771	111703	13.328	13.105	13.538
TrackDT01	6	TrackDT	1.0	SCS215a	20120424.145029	20120424.145047	single-task	8	0.013327	60	10	60-180	60	141	GapExp	1	3	2	3	0	distractor	1	514	743	112446	13.328	13.105	13.550
TrackDT01	6	TrackDT	1.0	SCS215a	20120424.145029	20120424.145053	single-task	8	0.013327	60	10	60-180	60	113	GapExp	1	4	2	0	0	target	0	497	-1000	111446	13.328	13.308	13.344
TrackDT01	6	TrackDT	1.0	SCS215a	20120424.145029	20120424.145059	single-task	8	0.013327	60	10	60-180	60	79	GapExp	1	5	2	3	1	target	1	624	688	112134	13.328	7.340	19.314
TrackDT01	6	TrackDT	1.0	SCS215a	20120424.145029	20120424.145104	single-task	8	0.013327	60	10	60-180	60	86	GapExp	1	6	2	1	1	target	1	454	773	112907	13.328	13.276	13.386
TrackDT01	6	TrackDT	1.0	SCS215a	20120424.145029	20120424.145109	single-task	8	0.013327	60	10	60-180	60	144	GapExp	1	7	2	30	1	target	1	383	809	113716	13.328	11.868	14.787
TrackDT01	6	TrackDT	1.0	SCS215a	20120424.145029	20120424.145116	single-task	8	0.013327	60	10	60-180	60	72	GapExp	1	8	2	30	0	distractor	1	547	727	114443	13.328	13.180	13.514
TrackDT01	6	TrackDT	1.0	SCS215a	20120424.145029	20120424.145121	single-task	8	0.013327	60	10	60-180	60	76	GapExp	0	9	2	30	0	target	0	230	-1000	113443	13.328	12.525	14.137
TrackDT01	6	TrackDT	1.0	SCS215a	20120424.145029	20120424.145126	single-task	8	0.013327	60	10	60-180	60	98	GapExp	0	10	2	30	0	distractor	1	346	827	114270	13.328	13.295	13.349
TrackDT01	6	TrackDT	1.0	SCS215a	20120424.145029	20120424.145132	single-task	8	0.013327	60	10	60-180	60	150	GapExp	0	11	2	0	0	distractor	1	408	796	115066	13.328	13.107	13.550
TrackDT01	6	TrackDT	1.0	SCS215a	20120424.145029	20120424.145138	single-task	8	0.013327	60	10	60-180	60	131	GapExp	0	12	2	1	1	target	1	224	888	115954	13.328	13.304	13.345
TrackDT01	6	TrackDT	1.0	SCS215a	20120424.145029	20120424.145143	single-task	8	0.013327	60	10	60-180	60	173	GapExp	0	13	2	3	0	distractor	1	231	885	116839	13.328	8.437	18.231
TrackDT01	6	TrackDT	1.0	SCS215a	20120424.145029	20120424.145150	single-task	8	0.013327	60	10	60-180	60	95	GapExp	0	14	2	0	0	target	0	232	-1000	115839	13.328	3.170	23.501
TrackDT01	6	TrackDT	1.0	SCS215a	20120424.145029	20120424.145155	single-task	8	0.013327	60	10	60-180	60	86	GapExp	0	15	2	0	1	distractor	0	278	-1000	114839	13.397	13.293	24.270
TrackDT01	6	TrackDT	1.0	SCS215a	20120424.145029	20120424.145200	single-task	8	0.013327	60	10	60-180	60	109	GapExp	0	16	2	1	0	target	0	212	-1000	113839	13.328	10.814	15.855
TrackDT01	6	TrackDT	1.0	SCS215a	20120424.145029	20120424.145205	single-task	8	0.013327	60	10	60-180	60	92	GapExp	0	17	2	0	1	target	1	335	833	114672	13.328	6.997	19.653
TrackDT01	6	TrackDT	1.0	SCS215a	20120424.145029	20120424.145210	single-task	8	0.013327	60	10	60-180	60	160	GapExp	0	18	2	0	0	distractor	1	370	815	115487	13.328	13.307	13.359
TrackDT01	6	TrackDT	1.0	SCS215a	20120424.145029	20120424.145216	single-task	8	0.013327	60	10	60-180	60	144	GapExp	0	19	2	30	1	target	1	329	836	116323	13.328	10.012	16.636
TrackDT01	6	TrackDT	1.0	SCS215a	20120424.145029	20120424.145223	single-task	8	0.013327	60	10	60-180	60	98	GapExp	0	20	2	3	1	distractor	0	291	-1000	115323	13.328	6.546	20.110
TrackDT01	6	TrackDT	1.0	SCS215a	20120424.145029	20120424.145228	single-task	8	0.013327	60	10	60-180	60	92	GapExp	0	21	2	0	1	target	1	241	880	116203	13.328	13.097	13.557
TrackDT01	6	TrackDT	1.0	SCS215a	20120424.145029	20120424.145233	single-task	8	0.013327	60	10	60-180	60	127	GapExp	0	22	2	0	1	target	1	246	877	117080	13.328	13.216	13.527
TrackDT01	6	TrackDT	1.0	SCS215a	20120424.145029	20120424.145238	single-task	8	0.013327	60	10	60-180	60	167	GapExp	0	23	2	0	0	distractor	1	406	797	117877	13.328	13.154	13.502
TrackDT01	6	TrackDT	1.0	SCS215a	20120424.145029	20120424.145244	single-task	8	0.013327	60	10	60-180	60	168	GapExp	0	24	2	0	0	target	0	341	-1000	116877	13.328	13.306	13.352
TrackDT01	6	TrackDT	1.0	SCS215a	20120424.145029	20120424.145250	single-task	8	0.013327	60	10	60-180	60	149	GapExp	0	25	2	0	0	distractor	1	457	772	117649	13.328	13.292	13.364
TrackDT01	6	TrackDT	1.0	SCS215a	20120424.145029	20120424.145257	single-task	8	0.013327	60	10	60-180	60	115	GapExp	0	26	2	0	0	distractor	1	383	809	118458	13.328	13.099	13.570
TrackDT01	6	TrackDT	1.0	SCS215a	20120424.145029	20120424.145302	single-task	8	0.013327	60	10	60-180	60	178	GapExp	0	27	2	0	0	distractor	1	452	774	119232	13.328	13.091	13.565
TrackDT01	6	TrackDT	1.0	SCS215a	20120424.145029	20120424.145308	single-task	8	0.013327	60	10	60-180	60	129	GapExp	0	28	2	3	0	distractor	1	426	787	120019	13.328	13.106	13.549
TrackDT01	6	TrackDT	1.0	SCS215a	20120424.145029	20120424.145314	single-task	8	0.013327	60	10	60-180	60	83	GapExp	0	29	2	30	0	distractor	1	59	971	120990	13.328	7.262	19.400
TrackDT01	6	TrackDT	1.0	SCS215a	20120424.145029	20120424.145319	single-task	8	0.013327	60	10	60-180	60	104	GapExp	0	30	2	1	0	distractor	1	71	965	121955	13.328	13.304	13.347
TrackDT01	6	TrackDT	1.0	SCS215a	20120424.145029	20120424.145324	single-task	8	0.013327	60	10	60-180	60	176	GapExp	0	31	2	3	1	distractor	0	219	-1000	120955	13.328	13.091	13.551
TrackDT01	6	TrackDT	1.0	SCS215a	20120424.145029	20120424.145330	single-task	8	0.013327	60	10	60-180	60	90	GapExp	0	32	2	1	0	target	0	305	-1000	119955	13.328	12.882	13.774
TrackDT01	6	TrackDT	1.0	SCS215a	20120424.145029	20120424.145335	single-task	8	0.013327	60	10	60-180	60	99	GapExp	0	33	2	1	0	distractor	1	369	816	120771	13.328	12.519	14.162
TrackDT01	6	TrackDT	1.0	SCS215a	20120424.145029	20120424.145340	single-task	8	0.013327	60	10	60-180	60	146	GapExp	0	34	2	30	0	distractor	1	505	748	121519	13.328	9.877	16.777
TrackDT01	6	TrackDT	1.0	SCS215a	20120424.145029	20120424.145347	single-task	8	0.013327	60	10	60-180	60	110	GapExp	0	35	2	1	1	target	1	319	841	122360	13.328	13.306	13.352
TrackDT01	6	TrackDT	1.0	SCS215a	20120424.145029	20120424.145352	single-task	8	0.013327	60	10	60-180	60	176	GapExp	0	36	2	0	1	distractor	0	275	-1000	121360	13.328	6.660	20.001
TrackDT01	6	TrackDT	1.0	SCS215a	20120424.145029	20120424.145358	single-task	8	0.013327	60	10	60-180	60	93	GapExp	0	37	2	30	0	early	-4	-3	-1000	120360	13.328	8.802	17.868
TrackDT01	6	TrackDT	1.0	SCS215a	20120424.145029	20120424.145404	single-task	8	0.013327	60	10	60-180	60	172	GapExp	0	38	2	30	0	target	0	276	-1000	119360	13.328	13.112	13.544
TrackDT01	6	TrackDT	1.0	SCS215a	20120424.145029	20120424.145410	single-task	8	0.013327	60	10	60-180	60	119	GapExp	0	39	2	3	1	target	1	202	899	120259	13.328	13.308	13.344
TrackDT01	6	TrackDT	1.0	SCS215a	20120424.145029	20120424.145416	single-task	8	0.013327	60	10	60-180	60	104	GapExp	0	40	2	1	1	target	1	294	853	121112	13.328	13.305	13.346
TrackDT01	6	TrackDT	1.0	SCS215a	20120424.145029	20120424.145421	single-task	8	0.013327	60	10	60-180	60	134	GapExp	0	41	2	1	0	target	0	169	-1000	120112	13.328	13.098	13.557
TrackDT01	6	TrackDT	1.0	SCS215a	20120424.145029	20120424.145426	single-task	8	0.013327	60	10	60-180	60	162	GapExp	0	42	2	1	1	distractor	0	200	-1000	119112	13.328	10.708	15.960
TrackDT01	6	TrackDT	1.0	SCS215a	20120424.145029	20120424.145432	single-task	8	0.013327	60	10	60-180	60	87	GapExp	0	43	2	0	0	target	0	262	-1000	118112	13.328	8.328	18.327
TrackDT01	6	TrackDT	1.0	SCS215a	20120424.145029	20120424.145437	single-task	8	0.013327	60	10	60-180	60	77	GapExp	0	44	2	0	1	target	1	306	847	118959	13.328	12.808	13.834
TrackDT01	6	TrackDT	1.0	SCS215a	20120424.145029	20120424.145442	single-task	8	0.013327	60	10	60-180	60	122	GapExp	0	45	2	3	1	target	1	335	833	119792	13.328	13.113	13.554
TrackDT01	6	TrackDT	1.0	SCS215a	20120424.145029	20120424.145448	single-task	8	0.013327	60	10	60-180	60	178	GapExp	0	46	2	1	1	distractor	0	438	-1000	118792	13.328	10.627	16.022
TrackDT01	6	TrackDT	1.0	SCS215a	20120424.145029	20120424.145454	single-task	8	0.013327	60	10	60-180	60	112	GapExp	0	47	2	30	1	target	1	9812093	0	118792	13.328	6.669	19.980
TrackDT01	6	TrackDT	1.0	SCS215a	20120424.145029	20120424.145500	single-task	8	0.013327	60	10	60-180	60	144	GapExp	0	48	2	0	0	target	0	154	-1000	117792	13.328	12.054	14.594
TrackDT01	6	TrackDT	1.0	SCS215a	20120424.145029	20120424.145505	single-task	8	0.013327	60	10	60-180	60	62	GapExp	0	49	2	3	1	distractor	0	364	-1000	116792	13.328	13.307	13.349
TrackDT01	6	TrackDT	1.0	SCS215a	20120424.145029	20120424.145510	single-task	8	0.013327	60	10	60-180	60	131	GapExp	0	50	2	3	0	distractor	1	352	824	117616	13.328	13.307	13.349
TrackDT01	6	TrackDT	1.0	SCS215a	20120424.145029	20120424.145536	single-task	8	0.013327	60	10	60-180	60	77	GapExp	0	51	2	3	0	distractor	1	657	672	118288	13.328	13.090	13.551
TrackDT01	6	TrackDT	1.0	SCS215a	20120424.145029	20120424.145541	single-task	8	0.013327	60	10	60-180	60	66	GapExp	0	52	2	0	1	target	1	527	737	119025	13.328	13.307	13.347
TrackDT01	6	TrackDT	1.0	SCS215a	20120424.145029	20120424.145546	single-task	8	0.013327	60	10	60-180	60	173	GapExp	0	53	2	1	0	distractor	1	376	812	119837	13.328	7.060	19.587
TrackDT01	6	TrackDT	1.0	SCS215a	20120424.145029	20120424.145552	single-task	8	0.013327	60	10	60-180	60	74	GapExp	0	54	2	1	1	target	1	458	771	120608	13.328	6.957	19.699
TrackDT01	6	TrackDT	1.0	SCS215a	20120424.145029	20120424.145557	single-task	8	0.013327	60	10	60-180	60	63	GapExp	0	55	2	30	1	distractor	0	363	-1000	119608	13.328	7.099	19.569
TrackDT01	6	TrackDT	1.0	SCS215a	20120424.145029	20120424.145602	single-task	8	0.013327	60	10	60-180	60	80	GapExp	0	56	2	1	1	target	1	332	834	120442	13.328	13.308	13.346
TrackDT01	6	TrackDT	1.0	SCS215a	20120424.145029	20120424.145607	single-task	8	0.013327	60	10	60-180	60	73	GapExp	0	57	2	30	1	target	1	259	871	121313	13.328	6.234	20.430
TrackDT01	6	TrackDT	1.0	SCS215a	20120424.145029	20120424.145613	single-task	8	0.013327	60	10	60-180	60	99	GapExp	0	58	2	1	0	distractor	1	594	703	122016	13.327	9.882	16.791
TrackDT01	6	TrackDT	1.0	SCS215a	20120424.145029	20120424.145618	single-task	8	0.013327	60	10	60-180	60	155	GapExp	0	59	2	0	1	target	1	399	801	122817	13.328	12.878	13.784
TrackDT01	6	TrackDT	1.0	SCS215a	20120424.145029	20120424.145624	single-task	8	0.013327	60	10	60-180	60	132	GapExp	0	60	2	30	0	distractor	1	302	849	123666	13.328	13.100	13.567
TrackDT01	6	TrackDT	1.0	SCS215a	20120424.145029	20120424.145630	single-task	8	0.013327	60	10	60-180	60	166	GapExp	0	61	2	3	1	target	1	403	799	124465	13.328	13.098	13.550
TrackDT01	6	TrackDT	1.0	SCS215a	20120424.145029	20120424.145636	single-task	8	0.013327	60	10	60-180	60	147	GapExp	0	62	2	1	1	target	1	349	826	125291	13.328	10.206	16.437
TrackDT01	6	TrackDT	1.0	SCS215a	20120424.145029	20120424.145642	single-task	8	0.013327	60	10	60-180	60	106	GapExp	0	63	2	1	1	target	1	434	783	126074	13.328	13.311	13.354
TrackDT01	6	TrackDT	1.0	SCS215a	20120424.145029	20120424.145648	single-task	8	0.013327	60	10	60-180	60	168	GapExp	0	64	2	1	0	distractor	1	468	766	126840	13.328	12.012	14.637
TrackDT01	6	TrackDT	1.0	SCS215a	20120424.145029	20120424.145654	single-task	8	0.013327	60	10	60-180	60	109	GapExp	0	65	2	3	1	target	1	513	744	127584	13.328	13.111	13.544
TrackDT01	6	TrackDT	1.0	SCS215a	20120424.145029	20120424.145700	single-task	8	0.013327	60	10	60-180	60	146	GapExp	0	66	2	0	1	target	1	733	634	128218	13.328	7.042	19.607
TrackDT01	6	TrackDT	1.0	SCS215a	20120424.145029	20120424.145706	single-task	8	0.013327	60	10	60-180	60	107	GapExp	0	67	2	1	0	distractor	1	878	561	128779	13.328	4.696	21.948
TrackDT01	6	TrackDT	1.0	SCS215a	20120424.145029	20120424.145712	single-task	8	0.013327	60	10	60-180	60	67	GapExp	0	68	2	3	1	target	1	898	551	129330	13.328	7.563	19.090
TrackDT01	6	TrackDT	1.0	SCS215a	20120424.145029	20120424.145717	single-task	8	0.013327	60	10	60-180	60	112	GapExp	0	69	2	30	1	target	1	9955075	0	129330	13.328	13.308	13.347
TrackDT01	6	TrackDT	1.0	SCS215a	20120424.145029	20120424.145723	single-task	8	0.013327	60	10	60-180	60	118	GapExp	0	70	2	3	0	distractor	1	700	650	129980	13.328	12.438	14.225
TrackDT01	6	TrackDT	1.0	SCS215a	20120424.145029	20120424.145729	single-task	8	0.013327	60	10	60-180	60	85	GapExp	0	71	2	3	1	target	1	414	793	130773	13.328	11.975	14.696
TrackDT01	6	TrackDT	1.0	SCS215a	20120424.145029	20120424.145734	single-task	8	0.013327	60	10	60-180	60	152	GapExp	0	72	2	0	0	target	0	328	-1000	129773	13.328	13.103	13.557
TrackDT01	6	TrackDT	1.0	SCS215a	20120424.145029	20120424.145740	single-task	8	0.013327	60	10	60-180	60	178	GapExp	0	73	2	1	0	distractor	1	561	720	130493	13.328	12.289	14.367
TrackDT01	6	TrackDT	1.0	SCS215a	20120424.145029	20120424.145746	single-task	8	0.013327	60	10	60-180	60	118	GapExp	0	74	2	1	1	distractor	0	550	-1000	129493	13.328	13.307	13.348
TrackDT01	6	TrackDT	1.0	SCS215a	20120424.145029	20120424.145752	single-task	8	0.013327	60	10	60-180	60	103	GapExp	0	75	2	1	1	target	1	289	856	130349	13.328	13.312	13.348
TrackDT01	6	TrackDT	1.0	SCS215a	20120424.145029	20120424.145757	single-task	8	0.013327	60	10	60-180	60	102	GapExp	0	76	2	30	0	target	0	362	-1000	129349	13.328	13.104	13.565
TrackDT01	6	TrackDT	1.0	SCS215a	20120424.145029	20120424.145803	single-task	8	0.013327	60	10	60-180	60	94	GapExp	0	77	2	1	0	distractor	1	497	752	130101	13.328	13.092	13.564
TrackDT01	6	TrackDT	1.0	SCS215a	20120424.145029	20120424.145808	single-task	8	0.013327	60	10	60-180	60	149	GapExp	0	78	2	3	0	distractor	1	439	781	130882	13.328	13.083	13.574
TrackDT01	6	TrackDT	1.0	SCS215a	20120424.145029	20120424.145814	single-task	8	0.013327	60	10	60-180	60	91	GapExp	0	79	2	30	0	distractor	1	10011960	0	130882	13.328	11.944	14.712
TrackDT01	6	TrackDT	1.0	SCS215a	20120424.145029	20120424.145819	single-task	8	0.013327	60	10	60-180	60	95	GapExp	0	80	2	1	0	distractor	1	754	623	131505	13.328	13.307	13.347
TrackDT01	6	TrackDT	1.0	SCS215a	20120424.145029	20120424.145825	single-task	8	0.013327	60	10	60-180	60	174	GapExp	0	81	2	3	0	target	0	328	-1000	130505	13.328	13.112	13.545
TrackDT01	6	TrackDT	1.0	SCS215a	20120424.145029	20120424.145831	single-task	8	0.013327	60	10	60-180	60	102	GapExp	0	82	2	3	0	distractor	1	401	800	131305	13.328	7.887	18.748
TrackDT01	6	TrackDT	1.0	SCS215a	20120424.145029	20120424.145837	single-task	8	0.013327	60	10	60-180	60	87	GapExp	0	83	2	3	1	target	1	380	810	132115	13.328	4.125	22.535
