exp	sub	code	rev	comp	runtime	trialtime	nstim	refreshdur	cuedur	gapdur	gapOnsetRange	durPostProbe	gapOnsetTime	blocktype	gaptype	prac	trial	ntargets	soa	probeTarget	resp	acc	rt	pts	tpts	meanFrameDur	minFrameDur	maxFrameDur
ProbeTrack13	5	ProbeTrack	13.2	SCS215b	20111102.093249	20111102.093258	8	0.013328	60	0	60-180	60	122	NoGap	None	1	1	2	0	0	target	0	4663	-1000	-1000	13.380	13.301	13.373
ProbeTrack13	5	ProbeTrack	13.2	SCS215b	20111102.093249	20111102.093441	8	0.013328	60	0	60-180	60	107	NoGap	None	1	2	2	0	0	target	0	1013	-1000	-2000	13.328	11.473	15.178
ProbeTrack13	5	ProbeTrack	13.2	SCS215b	20111102.093249	20111102.093451	8	0.013328	60	0	60-180	60	119	NoGap	None	1	3	2	1	0	target	0	1041	-1000	-3000	13.328	12.743	13.942
ProbeTrack13	5	ProbeTrack	13.2	SCS215b	20111102.093249	20111102.093458	8	0.013328	60	0	60-180	60	178	NoGap	None	1	4	2	45	0	target	0	722	-1000	-4000	13.328	12.917	13.729
ProbeTrack13	5	ProbeTrack	13.2	SCS215b	20111102.093249	20111102.093507	8	0.013328	60	0	60-180	60	164	NoGap	None	1	5	2	0	1	distractor	0	896	-1000	-5000	13.328	13.118	13.539
ProbeTrack13	5	ProbeTrack	13.2	SCS215b	20111102.093249	20111102.093515	8	0.013328	60	0	60-180	60	64	NoGap	None	1	6	2	0	0	target	0	560	-1000	-6000	13.328	13.035	13.638
ProbeTrack13	5	ProbeTrack	13.2	SCS215b	20111102.093249	20111102.093521	8	0.013328	60	0	60-180	60	144	NoGap	None	1	7	2	1	0	target	0	592	-1000	-7000	13.328	9.819	17.814
ProbeTrack13	5	ProbeTrack	13.2	SCS215b	20111102.093249	20111102.093527	8	0.013328	60	0	60-180	60	112	NoGap	None	1	8	2	1	0	target	0	699	-1000	-8000	13.328	13.087	13.566
ProbeTrack13	5	ProbeTrack	13.2	SCS215b	20111102.093249	20111102.093533	8	0.013328	60	0	60-180	60	74	NoGap	None	1	9	2	1	1	target	1	605	698	-7302	13.328	13.300	13.350
ProbeTrack13	5	ProbeTrack	13.2	SCS215b	20111102.093249	20111102.093539	8	0.013328	60	0	60-180	60	146	NoGap	None	1	10	2	0	1	distractor	0	809	-1000	-8302	13.520	7.508	40.192
ProbeTrack13	5	ProbeTrack	13.2	SCS215b	20111102.093249	20111102.093546	8	0.013328	60	0	60-180	60	165	NoGap	None	1	11	2	45	1	distractor	0	611	-1000	-9302	13.328	10.177	16.472
ProbeTrack13	5	ProbeTrack	13.2	SCS215b	20111102.093249	20111102.093553	8	0.013328	60	0	60-180	60	145	NoGap	None	1	12	2	1	1	distractor	0	617	-1000	-10302	13.328	9.168	17.498
ProbeTrack13	5	ProbeTrack	13.2	SCS215b	20111102.093249	20111102.093600	8	0.013328	60	0	60-180	60	175	NoGap	None	1	13	2	45	1	distractor	0	557	-1000	-11302	13.328	6.623	20.027
ProbeTrack13	5	ProbeTrack	13.2	SCS215b	20111102.093249	20111102.093607	8	0.013328	60	0	60-180	60	92	NoGap	None	1	14	2	0	1	distractor	0	644	-1000	-12302	13.319	6.904	19.741
ProbeTrack13	5	ProbeTrack	13.2	SCS215b	20111102.093249	20111102.093613	8	0.013328	60	0	60-180	60	147	NoGap	None	1	15	2	45	1	distractor	0	606	-1000	-13302	13.328	11.747	14.916
ProbeTrack13	5	ProbeTrack	13.2	SCS215b	20111102.093249	20111102.093621	8	0.013328	60	0	60-180	60	142	NoGap	None	1	16	2	3	1	distractor	0	571	-1000	-14302	13.328	5.480	21.174
ProbeTrack13	5	ProbeTrack	13.2	SCS215b	20111102.093249	20111102.093627	8	0.013328	60	0	60-180	60	134	NoGap	None	1	17	2	1	0	target	0	698	-1000	-15302	13.328	13.262	13.394
ProbeTrack13	5	ProbeTrack	13.2	SCS215b	20111102.093249	20111102.093634	8	0.013328	60	0	60-180	60	164	NoGap	None	1	18	2	45	1	distractor	0	623	-1000	-16302	13.328	13.243	13.408
ProbeTrack13	5	ProbeTrack	13.2	SCS215b	20111102.093249	20111102.093641	8	0.013328	60	0	60-180	60	68	NoGap	None	1	19	2	3	0	target	0	622	-1000	-17302	13.328	12.969	13.679
ProbeTrack13	5	ProbeTrack	13.2	SCS215b	20111102.093249	20111102.093647	8	0.013328	60	0	60-180	60	123	NoGap	None	1	20	2	45	0	target	0	576	-1000	-18302	13.374	7.645	24.797
ProbeTrack13	5	ProbeTrack	13.2	SCS215b	20111102.093249	20111102.093654	8	0.013328	60	0	60-180	60	118	NoGap	None	1	21	2	0	0	target	0	682	-1000	-19302	13.328	7.127	19.528
ProbeTrack13	5	ProbeTrack	13.2	SCS215b	20111102.093249	20111102.093700	8	0.013328	60	0	60-180	60	153	NoGap	None	1	22	2	45	1	distractor	0	782	-1000	-20302	13.328	12.792	13.977
ProbeTrack13	5	ProbeTrack	13.2	SCS215b	20111102.093249	20111102.093707	8	0.013328	60	0	60-180	60	97	NoGap	None	1	23	2	1	1	target	1	608	696	-19606	13.328	12.395	14.485
ProbeTrack13	5	ProbeTrack	13.2	SCS215b	20111102.093249	20111102.093734	8	0.013328	60	0	60-180	60	114	NoGap	None	1	24	2	0	0	target	0	728	-1000	-20606	13.328	13.093	13.548
ProbeTrack13	5	ProbeTrack	13.2	SCS215b	20111102.093249	20111102.093741	8	0.013328	60	0	60-180	60	160	NoGap	None	1	25	2	1	0	distractor	1	990	505	-20101	13.328	4.974	21.685
ProbeTrack13	5	ProbeTrack	13.2	SCS215b	20111102.093249	20111102.093749	8	0.013328	60	0	60-180	60	126	NoGap	None	1	26	2	3	1	target	1	1056	472	-19629	13.328	8.079	18.560
ProbeTrack13	5	ProbeTrack	13.2	SCS215b	20111102.093249	20111102.093756	8	0.013328	60	0	60-180	60	106	NoGap	None	1	27	2	0	1	target	1	814	593	-19036	13.328	12.762	13.897
ProbeTrack13	5	ProbeTrack	13.2	SCS215b	20111102.093249	20111102.093803	8	0.013328	60	0	60-180	60	119	NoGap	None	1	28	2	3	0	distractor	1	992	504	-18532	13.328	10.767	15.891
ProbeTrack13	5	ProbeTrack	13.2	SCS215b	20111102.093249	20111102.093810	8	0.013328	60	0	60-180	60	179	NoGap	None	1	29	2	45	0	distractor	1	627	687	-17845	13.328	3.799	23.075
ProbeTrack13	5	ProbeTrack	13.2	SCS215b	20111102.093249	20111102.093819	8	0.013328	60	0	60-180	60	88	NoGap	None	1	30	2	3	0	distractor	1	801	600	-17245	13.328	13.265	13.390
ProbeTrack13	5	ProbeTrack	13.2	SCS215b	20111102.093249	20111102.093825	8	0.013328	60	0	60-180	60	125	NoGap	None	1	31	2	3	1	target	1	549	726	-16519	13.328	13.242	13.430
ProbeTrack13	5	ProbeTrack	13.2	SCS215b	20111102.093249	20111102.093833	8	0.013328	60	0	60-180	60	135	NoGap	None	1	32	2	3	0	target	0	718	-1000	-17519	13.378	13.221	19.841
ProbeTrack13	5	ProbeTrack	13.2	SCS215b	20111102.093249	20111102.093839	8	0.013328	60	0	60-180	60	133	NoGap	None	1	33	2	3	0	distractor	1	793	604	-16915	13.328	6.931	19.706
ProbeTrack13	5	ProbeTrack	13.2	SCS215b	20111102.093249	20111102.093846	8	0.013328	60	0	60-180	60	157	NoGap	None	1	34	2	1	1	target	1	693	654	-16261	13.421	8.547	34.526
ProbeTrack13	5	ProbeTrack	13.2	SCS215b	20111102.093249	20111102.093853	8	0.013328	60	0	60-180	60	137	NoGap	None	1	35	2	45	0	distractor	1	570	715	-15546	13.328	12.391	14.314
ProbeTrack13	5	ProbeTrack	13.2	SCS215b	20111102.093249	20111102.093900	8	0.013328	60	0	60-180	60	159	NoGap	None	1	36	2	45	0	distractor	1	830	585	-14961	13.328	9.654	17.019
ProbeTrack13	5	ProbeTrack	13.2	SCS215b	20111102.093249	20111102.093908	8	0.013328	60	0	60-180	60	131	NoGap	None	1	37	2	3	1	target	1	769	616	-14345	13.328	8.212	18.448
ProbeTrack13	5	ProbeTrack	13.2	SCS215b	20111102.093249	20111102.093914	8	0.013328	60	0	60-180	60	77	NoGap	None	1	38	2	0	1	distractor	0	897	-1000	-15345	13.328	10.482	16.200
ProbeTrack13	5	ProbeTrack	13.2	SCS215b	20111102.093249	20111102.093921	8	0.013328	60	0	60-180	60	162	NoGap	None	1	39	2	1	1	target	1	772	614	-14731	13.328	9.403	17.274
ProbeTrack13	5	ProbeTrack	13.2	SCS215b	20111102.093249	20111102.093928	8	0.013328	60	0	60-180	60	144	NoGap	None	1	40	2	3	1	target	1	621	690	-14041	13.377	11.802	20.303
ProbeTrack13	5	ProbeTrack	13.2	SCS215b	20111102.094411	20111102.094419	8	0.013310	60	10	60-180	60	78	GapPrac	BigFlash	1	1	2	1	0	target	0	703	-1000	-15041	13.389	6.851	19.804
ProbeTrack13	5	ProbeTrack	13.2	SCS215b	20111102.094411	20111102.094430	8	0.013310	60	10	60-180	60	180	GapPrac	BigFlash	1	2	2	45	1	target	1	703	649	-14392	13.328	5.081	21.558
ProbeTrack13	5	ProbeTrack	13.2	SCS215b	20111102.094411	20111102.094438	8	0.013310	60	10	60-180	60	136	GapPrac	BigFlash	1	3	2	0	0	distractor	1	909	546	-13846	13.328	9.270	17.376
ProbeTrack13	5	ProbeTrack	13.2	SCS215b	20111102.094411	20111102.094445	8	0.013310	60	10	60-180	60	166	GapPrac	BigFlash	1	4	2	3	0	target	0	662	-1000	-14846	13.328	9.800	16.848
ProbeTrack13	5	ProbeTrack	13.2	SCS215b	20111102.094411	20111102.094452	8	0.013310	60	10	60-180	60	87	GapPrac	BigFlash	1	5	2	3	1	target	1	670	665	-14181	13.328	13.266	13.401
ProbeTrack13	5	ProbeTrack	13.2	SCS215b	20111102.094411	20111102.094459	8	0.013310	60	10	60-180	60	153	GapPrac	BigFlash	1	6	2	1	0	distractor	1	689	656	-13525	13.328	12.286	14.380
ProbeTrack13	5	ProbeTrack	13.2	SCS215b	20111102.094411	20111102.094507	8	0.013310	60	10	60-180	60	106	GapPrac	BigFlash	1	7	2	0	1	target	1	578	711	-12814	13.304	7.786	15.537
ProbeTrack13	5	ProbeTrack	13.2	SCS215b	20111102.094411	20111102.094513	8	0.013310	60	10	60-180	60	149	GapPrac	BigFlash	1	8	2	1	1	target	1	708	646	-12168	13.328	9.250	17.417
ProbeTrack13	5	ProbeTrack	13.2	SCS215b	20111102.094411	20111102.094520	8	0.013310	60	10	60-180	60	120	GapPrac	BigFlash	1	9	2	3	1	target	1	572	714	-11454	13.328	11.058	15.687
ProbeTrack13	5	ProbeTrack	13.2	SCS215b	20111102.094411	20111102.094526	8	0.013310	60	10	60-180	60	62	GapPrac	BigFlash	1	10	2	0	0	distractor	1	530	735	-10719	13.328	12.995	13.675
ProbeTrack13	5	ProbeTrack	13.2	SCS215b	20111102.094411	20111102.094532	8	0.013310	60	10	60-180	60	145	GapPrac	BigFlash	1	11	2	45	1	early	-4	-1	-1000	-11719	13.328	8.758	17.901
ProbeTrack13	5	ProbeTrack	13.2	SCS215b	20111102.094411	20111102.094539	8	0.013310	60	10	60-180	60	179	GapPrac	BigFlash	1	12	2	0	0	distractor	1	711	645	-11074	13.328	7.236	19.426
ProbeTrack13	5	ProbeTrack	13.2	SCS215b	20111102.094411	20111102.094546	8	0.013310	60	10	60-180	60	98	GapPrac	BigFlash	1	13	2	1	1	target	1	605	698	-10376	13.328	5.906	20.744
ProbeTrack13	5	ProbeTrack	13.2	SCS215b	20111102.094411	20111102.094552	8	0.013310	60	10	60-180	60	158	GapPrac	BigFlash	1	14	2	3	0	distractor	1	614	693	-9683	13.328	6.483	20.165
ProbeTrack13	5	ProbeTrack	13.2	SCS215b	20111102.094411	20111102.094559	8	0.013310	60	10	60-180	60	90	GapPrac	BigFlash	1	15	2	0	1	target	1	483	759	-8924	13.328	10.741	15.913
ProbeTrack13	5	ProbeTrack	13.2	SCS215b	20111102.094411	20111102.094604	8	0.013310	60	10	60-180	60	61	GapPrac	BigFlash	1	16	2	45	1	target	1	629	686	-8238	13.328	10.499	16.576
ProbeTrack13	5	ProbeTrack	13.2	SCS215b	20111102.094411	20111102.094612	8	0.013310	60	10	60-180	60	130	GapPrac	BigFlash	1	17	2	1	0	distractor	1	646	677	-7561	13.378	13.074	25.933
ProbeTrack13	5	ProbeTrack	13.2	SCS215b	20111102.094411	20111102.094618	8	0.013310	60	10	60-180	60	71	GapPrac	BigFlash	1	18	2	3	0	distractor	1	604	698	-6863	13.328	13.300	13.354
ProbeTrack13	5	ProbeTrack	13.2	SCS215b	20111102.094411	20111102.094624	8	0.013310	60	10	60-180	60	135	GapPrac	BigFlash	1	19	2	45	0	distractor	1	687	657	-6206	13.328	10.303	16.357
ProbeTrack13	5	ProbeTrack	13.2	SCS215b	20111102.094411	20111102.094631	8	0.013310	60	10	60-180	60	64	GapPrac	BigFlash	1	20	2	45	0	distractor	1	596	702	-5504	13.328	9.421	17.242
ProbeTrack13	5	ProbeTrack	13.2	SCS215b	20111102.094940	20111102.094945	8	0.013328	60	10	60-180	60	129	GapExp	BigFlash	1	1	2	0	0	distractor	1	698	651	-4853	13.378	12.844	13.834
ProbeTrack13	5	ProbeTrack	13.2	SCS215b	20111102.094940	20111102.094955	8	0.013328	60	10	60-180	60	144	GapExp	BigFlash	1	2	2	1	1	target	1	612	694	-4159	13.328	13.097	13.549
ProbeTrack13	5	ProbeTrack	13.2	SCS215b	20111102.094940	20111102.095002	8	0.013328	60	10	60-180	60	65	GapExp	BigFlash	1	3	2	0	1	target	1	592	704	-3455	13.328	12.976	13.692
ProbeTrack13	5	ProbeTrack	13.2	SCS215b	20111102.094940	20111102.095007	8	0.013328	60	10	60-180	60	69	GapExp	BigFlash	1	4	2	45	0	distractor	1	591	705	-2750	13.328	12.857	13.809
ProbeTrack13	5	ProbeTrack	13.2	SCS215b	20111102.094940	20111102.095013	8	0.013328	60	10	60-180	60	74	GapExp	BigFlash	1	5	2	3	0	distractor	1	640	680	-2070	13.328	12.845	13.807
ProbeTrack13	5	ProbeTrack	13.2	SCS215b	20111102.094940	20111102.095020	8	0.013328	60	10	60-180	60	129	GapExp	BigFlash	1	6	2	3	1	target	1	514	743	-1327	13.328	13.075	13.584
ProbeTrack13	5	ProbeTrack	13.2	SCS215b	20111102.094940	20111102.095026	8	0.013328	60	10	60-180	60	123	GapExp	BigFlash	1	7	2	1	0	distractor	1	546	727	-600	13.328	12.831	13.818
ProbeTrack13	5	ProbeTrack	13.2	SCS215b	20111102.094940	20111102.095033	8	0.013328	60	10	60-180	60	115	GapExp	BigFlash	1	8	2	45	1	distractor	0	747	-1000	-1600	13.328	13.104	13.561
ProbeTrack13	5	ProbeTrack	13.2	SCS215b	20111102.094940	20111102.095040	8	0.013328	60	10	60-180	60	175	GapExp	BigFlash	0	9	2	45	1	target	1	727	637	-963	13.328	12.879	13.767
ProbeTrack13	5	ProbeTrack	13.2	SCS215b	20111102.094940	20111102.095047	8	0.013328	60	10	60-180	60	86	GapExp	BigFlash	0	10	2	1	1	target	1	626	687	-276	13.328	13.114	13.554
ProbeTrack13	5	ProbeTrack	13.2	SCS215b	20111102.094940	20111102.095053	8	0.013328	60	10	60-180	60	147	GapExp	BigFlash	0	11	2	3	0	distractor	1	683	659	383	13.328	12.858	13.802
ProbeTrack13	5	ProbeTrack	13.2	SCS215b	20111102.094940	20111102.095100	8	0.013328	60	10	60-180	60	137	GapExp	BigFlash	0	12	2	1	0	distractor	1	694	653	1036	13.328	12.842	13.817
ProbeTrack13	5	ProbeTrack	13.2	SCS215b	20111102.094940	20111102.095107	8	0.013328	60	10	60-180	60	152	GapExp	BigFlash	0	13	2	3	1	target	1	574	713	1749	13.328	12.909	13.736
ProbeTrack13	5	ProbeTrack	13.2	SCS215b	20111102.094940	20111102.095114	8	0.013328	60	10	60-180	60	126	GapExp	BigFlash	0	14	2	0	1	target	1	828	586	2335	13.328	12.990	13.655
ProbeTrack13	5	ProbeTrack	13.2	SCS215b	20111102.094940	20111102.095120	8	0.013328	60	10	60-180	60	169	GapExp	BigFlash	0	15	2	1	1	target	1	564	718	3053	13.328	12.880	13.772
ProbeTrack13	5	ProbeTrack	13.2	SCS215b	20111102.094940	20111102.095127	8	0.013328	60	10	60-180	60	166	GapExp	BigFlash	0	16	2	45	0	distractor	1	494	753	3806	13.328	12.836	13.828
ProbeTrack13	5	ProbeTrack	13.2	SCS215b	20111102.094940	20111102.095135	8	0.013328	60	10	60-180	60	77	GapExp	BigFlash	0	17	2	45	1	target	1	588	706	4512	13.328	12.916	13.748
ProbeTrack13	5	ProbeTrack	13.2	SCS215b	20111102.094940	20111102.095141	8	0.013328	60	10	60-180	60	158	GapExp	BigFlash	0	18	2	0	0	distractor	1	680	660	5172	13.328	12.859	13.802
ProbeTrack13	5	ProbeTrack	13.2	SCS215b	20111102.094940	20111102.095148	8	0.013328	60	10	60-180	60	93	GapExp	BigFlash	0	19	2	1	0	distractor	1	495	753	5925	13.328	12.861	13.810
ProbeTrack13	5	ProbeTrack	13.2	SCS215b	20111102.094940	20111102.095154	8	0.013328	60	10	60-180	60	153	GapExp	BigFlash	0	20	2	0	0	distractor	1	530	735	6660	13.329	12.914	13.754
ProbeTrack13	5	ProbeTrack	13.2	SCS215b	20111102.094940	20111102.095200	8	0.013328	60	10	60-180	60	120	GapExp	BigFlash	0	21	2	3	0	distractor	1	726	637	7297	13.329	12.833	13.826
ProbeTrack13	5	ProbeTrack	13.2	SCS215b	20111102.094940	20111102.095207	8	0.013328	60	10	60-180	60	108	GapExp	BigFlash	0	22	2	0	1	target	1	757	622	7919	13.328	12.961	13.702
ProbeTrack13	5	ProbeTrack	13.2	SCS215b	20111102.094940	20111102.095213	8	0.013328	60	10	60-180	60	83	GapExp	BigFlash	0	23	2	45	0	distractor	1	694	653	8572	13.328	13.013	13.649
ProbeTrack13	5	ProbeTrack	13.2	SCS215b	20111102.094940	20111102.095220	8	0.013328	60	10	60-180	60	140	GapExp	BigFlash	0	24	2	45	1	target	1	549	726	9298	13.328	13.036	13.617
ProbeTrack13	5	ProbeTrack	13.2	SCS215b	20111102.094940	20111102.095227	8	0.013328	60	10	60-180	60	78	GapExp	BigFlash	0	25	2	45	0	distractor	1	891	555	9853	13.378	13.161	26.541
ProbeTrack13	5	ProbeTrack	13.2	SCS215b	20111102.094940	20111102.095233	8	0.013328	60	10	60-180	60	63	GapExp	BigFlash	0	26	2	0	0	distractor	1	549	726	10579	13.328	13.042	13.598
ProbeTrack13	5	ProbeTrack	13.2	SCS215b	20111102.094940	20111102.095239	8	0.013328	60	10	60-180	60	63	GapExp	BigFlash	0	27	2	3	1	target	1	421	790	11369	13.328	13.046	13.603
ProbeTrack13	5	ProbeTrack	13.2	SCS215b	20111102.094940	20111102.095244	8	0.013328	60	10	60-180	60	171	GapExp	BigFlash	0	28	2	3	1	target	1	538	731	12100	13.328	12.814	13.828
ProbeTrack13	5	ProbeTrack	13.2	SCS215b	20111102.094940	20111102.095251	8	0.013328	60	10	60-180	60	174	GapExp	BigFlash	0	29	2	1	0	distractor	1	517	742	12842	13.328	12.848	13.811
ProbeTrack13	5	ProbeTrack	13.2	SCS215b	20111102.094940	20111102.095258	8	0.013328	60	10	60-180	60	106	GapExp	BigFlash	0	30	2	45	0	distractor	1	518	741	13583	13.328	12.872	13.796
ProbeTrack13	5	ProbeTrack	13.2	SCS215b	20111102.094940	20111102.095304	8	0.013328	60	10	60-180	60	103	GapExp	BigFlash	0	31	2	1	0	distractor	1	567	717	14300	13.328	12.855	13.796
ProbeTrack13	5	ProbeTrack	13.2	SCS215b	20111102.094940	20111102.095311	8	0.013328	60	10	60-180	60	66	GapExp	BigFlash	0	32	2	45	1	target	1	572	714	15014	13.328	12.887	13.770
ProbeTrack13	5	ProbeTrack	13.2	SCS215b	20111102.094940	20111102.095317	8	0.013328	60	10	60-180	60	117	GapExp	BigFlash	0	33	2	1	1	target	1	412	794	15808	13.328	13.108	13.537
ProbeTrack13	5	ProbeTrack	13.2	SCS215b	20111102.094940	20111102.095323	8	0.013328	60	10	60-180	60	88	GapExp	BigFlash	0	34	2	45	1	target	1	535	733	16541	13.328	12.878	13.785
ProbeTrack13	5	ProbeTrack	13.2	SCS215b	20111102.094940	20111102.095329	8	0.013328	60	10	60-180	60	165	GapExp	BigFlash	0	35	2	0	1	target	1	428	786	17327	13.328	12.876	13.792
ProbeTrack13	5	ProbeTrack	13.2	SCS215b	20111102.094940	20111102.095336	8	0.013328	60	10	60-180	60	82	GapExp	BigFlash	0	36	2	3	1	target	1	600	700	18027	13.328	13.291	13.372
ProbeTrack13	5	ProbeTrack	13.2	SCS215b	20111102.094940	20111102.095342	8	0.013328	60	10	60-180	60	106	GapExp	BigFlash	0	37	2	1	1	target	1	511	745	18772	13.328	12.929	13.730
ProbeTrack13	5	ProbeTrack	13.2	SCS215b	20111102.094940	20111102.095348	8	0.013328	60	10	60-180	60	97	GapExp	BigFlash	0	38	2	0	0	distractor	1	668	666	19438	13.328	13.069	13.600
ProbeTrack13	5	ProbeTrack	13.2	SCS215b	20111102.094940	20111102.095354	8	0.013328	60	10	60-180	60	74	GapExp	BigFlash	0	39	2	3	0	target	0	663	-1000	18438	13.328	12.962	13.690
ProbeTrack13	5	ProbeTrack	13.2	SCS215b	20111102.094940	20111102.095400	8	0.013328	60	10	60-180	60	152	GapExp	BigFlash	0	40	2	0	0	distractor	1	466	767	19205	13.328	12.873	13.798
ProbeTrack13	5	ProbeTrack	13.2	SCS215b	20111102.094940	20111102.095406	8	0.013328	60	10	60-180	60	148	GapExp	BigFlash	0	41	2	45	0	distractor	1	485	758	19963	13.328	12.884	13.780
ProbeTrack13	5	ProbeTrack	13.2	SCS215b	20111102.094940	20111102.095414	8	0.013328	60	10	60-180	60	162	GapExp	BigFlash	0	42	2	0	0	distractor	1	622	689	20652	13.328	12.888	13.594
ProbeTrack13	5	ProbeTrack	13.2	SCS215b	20111102.094940	20111102.095421	8	0.013328	60	10	60-180	60	68	GapExp	BigFlash	0	43	2	3	0	distractor	1	519	741	21393	13.328	13.303	13.355
ProbeTrack13	5	ProbeTrack	13.2	SCS215b	20111102.094940	20111102.095426	8	0.013328	60	10	60-180	60	165	GapExp	BigFlash	0	44	2	1	0	distractor	1	586	707	22100	13.328	12.821	13.828
ProbeTrack13	5	ProbeTrack	13.2	SCS215b	20111102.094940	20111102.095434	8	0.013328	60	10	60-180	60	130	GapExp	BigFlash	0	45	2	3	1	target	1	517	742	22842	13.328	12.865	13.806
ProbeTrack13	5	ProbeTrack	13.2	SCS215b	20111102.094940	20111102.095440	8	0.013328	60	10	60-180	60	177	GapExp	BigFlash	0	46	2	45	0	target	0	844	-1000	21842	13.328	12.854	13.815
ProbeTrack13	5	ProbeTrack	13.2	SCS215b	20111102.094940	20111102.095448	8	0.013328	60	10	60-180	60	122	GapExp	BigFlash	0	47	2	0	1	target	1	599	701	22543	13.328	12.995	13.665
ProbeTrack13	5	ProbeTrack	13.2	SCS215b	20111102.094940	20111102.095454	8	0.013328	60	10	60-180	60	138	GapExp	BigFlash	0	48	2	45	1	target	1	612	694	23237	13.328	12.846	13.822
ProbeTrack13	5	ProbeTrack	13.2	SCS215b	20111102.094940	20111102.095502	8	0.013328	60	10	60-180	60	101	GapExp	BigFlash	0	49	2	0	0	distractor	1	572	714	23951	13.328	12.943	13.707
ProbeTrack13	5	ProbeTrack	13.2	SCS215b	20111102.094940	20111102.095508	8	0.013328	60	10	60-180	60	174	GapExp	BigFlash	0	50	2	1	1	target	1	633	684	24635	13.328	12.864	13.808
ProbeTrack13	5	ProbeTrack	13.2	SCS215b	20111102.094940	20111102.095515	8	0.013328	60	10	60-180	60	80	GapExp	BigFlash	0	51	2	0	1	target	1	645	678	25313	13.328	12.832	13.810
ProbeTrack13	5	ProbeTrack	13.2	SCS215b	20111102.094940	20111102.095521	8	0.013328	60	10	60-180	60	160	GapExp	BigFlash	0	52	2	0	1	target	1	619	691	26004	13.328	12.882	13.777
ProbeTrack13	5	ProbeTrack	13.2	SCS215b	20111102.094940	20111102.095528	8	0.013328	60	10	60-180	60	143	GapExp	BigFlash	0	53	2	1	1	target	1	452	774	26778	13.328	12.830	13.821
ProbeTrack13	5	ProbeTrack	13.2	SCS215b	20111102.094940	20111102.095534	8	0.013328	60	10	60-180	60	65	GapExp	BigFlash	0	54	2	45	0	distractor	1	635	683	27461	13.326	12.864	13.750
ProbeTrack13	5	ProbeTrack	13.2	SCS215b	20111102.094940	20111102.095540	8	0.013328	60	10	60-180	60	177	GapExp	BigFlash	0	55	2	1	0	distractor	1	531	735	28196	13.328	13.016	13.641
ProbeTrack13	5	ProbeTrack	13.2	SCS215b	20111102.094940	20111102.095547	8	0.013328	60	10	60-180	60	86	GapExp	BigFlash	0	56	2	1	1	target	1	691	655	28851	13.328	13.096	13.545
ProbeTrack13	5	ProbeTrack	13.2	SCS215b	20111102.094940	20111102.095553	8	0.013328	60	10	60-180	60	121	GapExp	BigFlash	0	57	2	3	1	target	1	514	743	29594	13.328	12.841	13.808
ProbeTrack13	5	ProbeTrack	13.2	SCS215b	20111102.094940	20111102.095559	8	0.013328	60	10	60-180	60	72	GapExp	BigFlash	0	58	2	0	1	target	1	490	755	30349	13.328	12.880	13.797
ProbeTrack13	5	ProbeTrack	13.2	SCS215b	20111102.094940	20111102.095605	8	0.013328	60	10	60-180	60	155	GapExp	BigFlash	0	59	2	3	0	distractor	1	591	705	31054	13.328	13.104	13.540
ProbeTrack13	5	ProbeTrack	13.2	SCS215b	20111102.094940	20111102.095611	8	0.013328	60	10	60-180	60	91	GapExp	BigFlash	0	60	2	45	0	distractor	1	798	601	31655	13.328	12.861	13.791
ProbeTrack13	5	ProbeTrack	13.2	SCS215b	20111102.094940	20111102.095618	8	0.013328	60	10	60-180	60	179	GapExp	BigFlash	0	61	2	0	1	early	-4	-3331	-1000	30655	13.328	12.995	13.665
ProbeTrack13	5	ProbeTrack	13.2	SCS215b	20111102.094940	20111102.095625	8	0.013328	60	10	60-180	60	153	GapExp	BigFlash	0	62	2	3	1	target	1	492	754	31409	13.328	12.873	13.781
ProbeTrack13	5	ProbeTrack	13.2	SCS215b	20111102.094940	20111102.095634	8	0.013328	60	10	60-180	60	159	GapExp	BigFlash	0	63	2	1	0	distractor	1	544	728	32137	13.328	13.100	13.568
ProbeTrack13	5	ProbeTrack	13.2	SCS215b	20111102.094940	20111102.095641	8	0.013328	60	10	60-180	60	105	GapExp	BigFlash	0	64	2	0	0	distractor	1	842	579	32716	13.326	12.927	13.736
ProbeTrack13	5	ProbeTrack	13.2	SCS215b	20111102.094940	20111102.095647	8	0.013328	60	10	60-180	60	72	GapExp	BigFlash	0	65	2	0	1	target	1	649	676	33392	13.328	12.844	13.805
ProbeTrack13	5	ProbeTrack	13.2	SCS215b	20111102.094940	20111102.095653	8	0.013328	60	10	60-180	60	112	GapExp	BigFlash	0	66	2	0	0	distractor	1	452	774	34166	13.328	12.960	13.694
ProbeTrack13	5	ProbeTrack	13.2	SCS215b	20111102.094940	20111102.095659	8	0.013328	60	10	60-180	60	124	GapExp	BigFlash	0	67	2	0	1	target	1	519	741	34907	13.328	12.888	13.783
ProbeTrack13	5	ProbeTrack	13.2	SCS215b	20111102.094940	20111102.095705	8	0.013328	60	10	60-180	60	160	GapExp	BigFlash	0	68	2	0	1	target	1	462	769	35676	13.328	13.056	13.612
ProbeTrack13	5	ProbeTrack	13.2	SCS215b	20111102.094940	20111102.095712	8	0.013328	60	10	60-180	60	175	GapExp	BigFlash	0	69	2	0	0	target	0	776	-1000	34676	13.328	12.874	13.781
ProbeTrack13	5	ProbeTrack	13.2	SCS215b	20111102.094940	20111102.095718	8	0.013328	60	10	60-180	60	173	GapExp	BigFlash	0	70	2	3	0	distractor	1	589	706	35382	13.328	13.090	13.553
ProbeTrack13	5	ProbeTrack	13.2	SCS215b	20111102.094940	20111102.095725	8	0.013328	60	10	60-180	60	70	GapExp	BigFlash	0	71	2	1	1	target	1	542	729	36111	13.328	12.890	13.760
ProbeTrack13	5	ProbeTrack	13.2	SCS215b	20111102.094940	20111102.095731	8	0.013328	60	10	60-180	60	76	GapExp	BigFlash	0	72	2	3	0	distractor	1	631	685	36796	13.326	12.883	13.774
ProbeTrack13	5	ProbeTrack	13.2	SCS215b	20111102.094940	20111102.095737	8	0.013328	60	10	60-180	60	105	GapExp	BigFlash	0	73	2	1	1	distractor	0	442	-1000	35796	13.328	12.903	13.758
ProbeTrack13	5	ProbeTrack	13.2	SCS215b	20111102.094940	20111102.095742	8	0.013328	60	10	60-180	60	134	GapExp	BigFlash	0	74	2	0	1	target	1	407	797	36593	13.328	13.302	13.358
ProbeTrack13	5	ProbeTrack	13.2	SCS215b	20111102.094940	20111102.095749	8	0.013328	60	10	60-180	60	109	GapExp	BigFlash	0	75	2	3	1	target	1	513	744	37337	13.328	12.835	13.810
ProbeTrack13	5	ProbeTrack	13.2	SCS215b	20111102.094940	20111102.095754	8	0.013328	60	10	60-180	60	155	GapExp	BigFlash	0	76	2	3	1	target	1	520	740	38077	13.328	13.299	13.363
ProbeTrack13	5	ProbeTrack	13.2	SCS215b	20111102.094940	20111102.095801	8	0.013328	60	10	60-180	60	119	GapExp	BigFlash	0	77	2	3	0	distractor	1	612	694	38771	13.328	12.901	13.773
ProbeTrack13	5	ProbeTrack	13.2	SCS215b	20111102.094940	20111102.095808	8	0.013328	60	10	60-180	60	171	GapExp	BigFlash	0	78	2	3	1	target	1	617	692	39463	13.328	12.850	13.819
ProbeTrack13	5	ProbeTrack	13.2	SCS215b	20111102.094940	20111102.095815	8	0.013328	60	10	60-180	60	172	GapExp	BigFlash	0	79	2	3	0	distractor	1	527	737	40200	13.328	12.856	13.800
ProbeTrack13	5	ProbeTrack	13.2	SCS215b	20111102.094940	20111102.095821	8	0.013328	60	10	60-180	60	88	GapExp	BigFlash	0	80	2	0	0	distractor	1	675	663	40863	13.328	12.842	13.819
ProbeTrack13	5	ProbeTrack	13.2	SCS215b	20111102.094940	20111102.095827	8	0.013328	60	10	60-180	60	131	GapExp	BigFlash	0	81	2	45	0	distractor	1	579	711	41574	13.328	12.869	13.791
ProbeTrack13	5	ProbeTrack	13.2	SCS215b	20111102.094940	20111102.095834	8	0.013328	60	10	60-180	60	89	GapExp	BigFlash	0	82	2	45	1	target	1	634	683	42257	13.328	12.988	13.674
ProbeTrack13	5	ProbeTrack	13.2	SCS215b	20111102.094940	20111102.095841	8	0.013328	60	10	60-180	60	99	GapExp	BigFlash	0	83	2	1	1	target	1	623	689	42946	13.328	12.988	13.553
ProbeTrack13	5	ProbeTrack	13.2	SCS215b	20111102.094940	20111102.095847	8	0.013328	60	10	60-180	60	84	GapExp	BigFlash	0	84	2	1	0	distractor	1	738	631	43577	13.328	13.290	13.358
ProbeTrack13	5	ProbeTrack	13.2	SCS215b	20111102.094940	20111102.095852	8	0.013328	60	10	60-180	60	61	GapExp	BigFlash	0	85	2	0	1	target	1	458	771	44348	13.328	12.955	13.689
ProbeTrack13	5	ProbeTrack	13.2	SCS215b	20111102.094940	20111102.095857	8	0.013328	60	10	60-180	60	115	GapExp	BigFlash	0	86	2	0	1	target	1	536	732	45080	13.328	13.301	13.353
ProbeTrack13	5	ProbeTrack	13.2	SCS215b	20111102.094940	20111102.095903	8	0.013328	60	10	60-180	60	75	GapExp	BigFlash	0	87	2	0	0	distractor	1	460	770	45850	13.328	13.092	13.564
ProbeTrack13	5	ProbeTrack	13.2	SCS215b	20111102.094940	20111102.095908	8	0.013328	60	10	60-180	60	174	GapExp	BigFlash	0	88	2	3	1	target	1	597	702	46552	13.328	12.870	13.794
ProbeTrack13	5	ProbeTrack	13.2	SCS215b	20111102.094940	20111102.095916	8	0.013328	60	10	60-180	60	135	GapExp	BigFlash	0	89	2	1	1	target	1	545	728	47280	13.328	12.866	13.806
ProbeTrack13	5	ProbeTrack	13.2	SCS215b	20111102.094940	20111102.095922	8	0.013328	60	10	60-180	60	88	GapExp	BigFlash	0	90	2	3	0	distractor	1	564	718	47998	13.328	13.084	13.558
ProbeTrack13	5	ProbeTrack	13.2	SCS215b	20111102.094940	20111102.095928	8	0.013328	60	10	60-180	60	135	GapExp	BigFlash	0	91	2	0	0	distractor	1	537	732	48730	13.328	12.931	13.709
ProbeTrack13	5	ProbeTrack	13.2	SCS215b	20111102.094940	20111102.095935	8	0.013328	60	10	60-180	60	113	GapExp	BigFlash	0	92	2	3	1	distractor	0	512	-1000	47730	13.328	13.290	13.463
ProbeTrack13	5	ProbeTrack	13.2	SCS215b	20111102.094940	20111102.095941	8	0.013328	60	10	60-180	60	62	GapExp	BigFlash	0	93	2	0	0	distractor	1	714	643	48373	13.328	12.888	13.787
ProbeTrack13	5	ProbeTrack	13.2	SCS215b	20111102.094940	20111102.095946	8	0.013328	60	10	60-180	60	160	GapExp	BigFlash	0	94	2	45	1	target	1	599	701	49074	13.328	12.856	13.795
ProbeTrack13	5	ProbeTrack	13.2	SCS215b	20111102.094940	20111102.095954	8	0.013328	60	10	60-180	60	174	GapExp	BigFlash	0	95	2	3	1	target	1	474	763	49837	13.328	13.289	13.354
ProbeTrack13	5	ProbeTrack	13.2	SCS215b	20111102.094940	20111102.100000	8	0.013328	60	10	60-180	60	101	GapExp	BigFlash	0	96	2	45	1	target	1	576	712	50549	13.328	12.962	13.698
ProbeTrack13	5	ProbeTrack	13.2	SCS215b	20111102.094940	20111102.100007	8	0.013328	60	10	60-180	60	85	GapExp	BigFlash	0	97	2	3	0	distractor	1	695	653	51202	13.328	12.890	13.782
ProbeTrack13	5	ProbeTrack	13.2	SCS215b	20111102.094940	20111102.100012	8	0.013328	60	10	60-180	60	115	GapExp	BigFlash	0	98	2	45	0	distractor	1	536	732	51934	13.328	12.985	13.673
ProbeTrack13	5	ProbeTrack	13.2	SCS215b	20111102.094940	20111102.100019	8	0.013328	60	10	60-180	60	164	GapExp	BigFlash	0	99	2	1	1	target	1	571	715	52649	13.328	12.843	13.811
ProbeTrack13	5	ProbeTrack	13.2	SCS215b	20111102.094940	20111102.100026	8	0.013328	60	10	60-180	60	125	GapExp	BigFlash	0	100	2	45	1	target	1	609	696	53345	13.328	12.839	13.809
ProbeTrack13	5	ProbeTrack	13.2	SCS215b	20111102.094940	20111102.100032	8	0.013328	60	10	60-180	60	80	GapExp	BigFlash	0	101	2	45	0	target	0	535	-1000	52345	13.328	12.833	13.824
ProbeTrack13	5	ProbeTrack	13.2	SCS215b	20111102.094940	20111102.100038	8	0.013328	60	10	60-180	60	68	GapExp	BigFlash	0	102	2	1	1	target	1	638	681	53026	13.327	12.941	13.721
ProbeTrack13	5	ProbeTrack	13.2	SCS215b	20111102.094940	20111102.100044	8	0.013328	60	10	60-180	60	86	GapExp	BigFlash	0	103	2	3	1	target	1	495	753	53779	13.328	12.905	13.757
ProbeTrack13	5	ProbeTrack	13.2	SCS215b	20111102.094940	20111102.100050	8	0.013328	60	10	60-180	60	81	GapExp	BigFlash	0	104	2	0	0	distractor	1	530	735	54514	13.328	13.299	13.353
ProbeTrack13	5	ProbeTrack	13.2	SCS215b	20111102.094940	20111102.100057	8	0.013328	60	10	60-180	60	66	GapExp	BigFlash	0	105	2	1	1	target	1	426	787	55301	13.328	13.133	13.526
ProbeTrack13	5	ProbeTrack	13.2	SCS215b	20111102.094940	20111102.100102	8	0.013328	60	10	60-180	60	80	GapExp	BigFlash	0	106	2	45	0	target	0	615	-1000	54301	13.328	13.092	13.568
ProbeTrack13	5	ProbeTrack	13.2	SCS215b	20111102.094940	20111102.100108	8	0.013328	60	10	60-180	60	162	GapExp	BigFlash	0	107	2	45	0	distractor	1	824	588	54889	13.328	13.100	13.551
ProbeTrack13	5	ProbeTrack	13.2	SCS215b	20111102.094940	20111102.100116	8	0.013328	60	10	60-180	60	159	GapExp	BigFlash	0	108	2	45	1	target	1	606	697	55586	13.328	12.857	13.786
ProbeTrack13	5	ProbeTrack	13.2	SCS215b	20111102.094940	20111102.100123	8	0.013328	60	10	60-180	60	157	GapExp	BigFlash	0	109	2	3	0	distractor	1	553	724	56310	13.328	13.080	13.576
ProbeTrack13	5	ProbeTrack	13.2	SCS215b	20111102.094940	20111102.100130	8	0.013328	60	10	60-180	60	160	GapExp	BigFlash	0	110	2	45	1	target	1	660	670	56980	13.328	12.982	13.679
ProbeTrack13	5	ProbeTrack	13.2	SCS215b	20111102.094940	20111102.100138	8	0.013328	60	10	60-180	60	114	GapExp	BigFlash	0	111	2	1	1	target	1	572	714	57694	13.328	12.825	13.828
ProbeTrack13	5	ProbeTrack	13.2	SCS215b	20111102.094940	20111102.100143	8	0.013328	60	10	60-180	60	92	GapExp	BigFlash	0	112	2	3	1	target	1	634	683	58377	13.328	12.873	13.784
ProbeTrack13	5	ProbeTrack	13.2	SCS215b	20111102.094940	20111102.100149	8	0.013328	60	10	60-180	60	169	GapExp	BigFlash	0	113	2	1	0	distractor	1	521	740	59117	13.328	12.900	13.754
ProbeTrack13	5	ProbeTrack	13.2	SCS215b	20111102.094940	20111102.100156	8	0.013328	60	10	60-180	60	179	GapExp	BigFlash	0	114	2	45	1	target	1	411	795	59912	13.328	12.868	13.777
ProbeTrack13	5	ProbeTrack	13.2	SCS215b	20111102.094940	20111102.100203	8	0.013328	60	10	60-180	60	172	GapExp	BigFlash	0	115	2	3	0	distractor	1	525	738	60650	13.328	13.020	13.641
ProbeTrack13	5	ProbeTrack	13.2	SCS215b	20111102.094940	20111102.100210	8	0.013328	60	10	60-180	60	102	GapExp	BigFlash	0	116	2	45	0	distractor	1	571	715	61365	13.328	12.846	13.821
ProbeTrack13	5	ProbeTrack	13.2	SCS215b	20111102.094940	20111102.100217	8	0.013328	60	10	60-180	60	112	GapExp	BigFlash	0	117	2	45	1	target	1	604	698	62063	13.328	12.864	13.792
ProbeTrack13	5	ProbeTrack	13.2	SCS215b	20111102.094940	20111102.100223	8	0.013328	60	10	60-180	60	165	GapExp	BigFlash	0	118	2	1	0	distractor	1	568	716	62779	13.328	12.898	13.782
ProbeTrack13	5	ProbeTrack	13.2	SCS215b	20111102.094940	20111102.100230	8	0.013328	60	10	60-180	60	102	GapExp	BigFlash	0	119	2	3	0	distractor	1	613	694	63473	13.328	12.825	13.835
ProbeTrack13	5	ProbeTrack	13.2	SCS215b	20111102.094940	20111102.100236	8	0.013328	60	10	60-180	60	160	GapExp	BigFlash	0	120	2	1	0	distractor	1	590	705	64178	13.327	12.861	13.784
ProbeTrack13	5	ProbeTrack	13.2	SCS215b	20111102.094940	20111102.100243	8	0.013328	60	10	60-180	60	106	GapExp	BigFlash	0	121	2	45	1	target	1	628	686	64864	13.377	12.830	26.411
ProbeTrack13	5	ProbeTrack	13.2	SCS215b	20111102.094940	20111102.100249	8	0.013328	60	10	60-180	60	173	GapExp	BigFlash	0	122	2	0	1	target	1	490	755	65619	13.328	12.894	13.756
ProbeTrack13	5	ProbeTrack	13.2	SCS215b	20111102.094940	20111102.100256	8	0.013328	60	10	60-180	60	118	GapExp	BigFlash	0	123	2	0	1	target	1	506	747	66366	13.328	12.917	13.749
ProbeTrack13	5	ProbeTrack	13.2	SCS215b	20111102.094940	20111102.100302	8	0.013328	60	10	60-180	60	146	GapExp	BigFlash	0	124	2	3	1	target	1	464	768	67134	13.328	12.890	13.771
ProbeTrack13	5	ProbeTrack	13.2	SCS215b	20111102.094940	20111102.100309	8	0.013328	60	10	60-180	60	69	GapExp	BigFlash	0	125	2	0	0	distractor	1	633	684	67818	13.328	12.984	13.674
ProbeTrack13	5	ProbeTrack	13.2	SCS215b	20111102.094940	20111102.100314	8	0.013328	60	10	60-180	60	155	GapExp	BigFlash	0	126	2	45	1	target	1	556	722	68540	13.369	12.854	26.458
ProbeTrack13	5	ProbeTrack	13.2	SCS215b	20111102.094940	20111102.100321	8	0.013328	60	10	60-180	60	112	GapExp	BigFlash	0	127	2	0	1	target	1	549	726	69266	13.328	12.872	13.774
ProbeTrack13	5	ProbeTrack	13.2	SCS215b	20111102.094940	20111102.100327	8	0.013328	60	10	60-180	60	164	GapExp	BigFlash	0	128	2	3	1	target	1	568	716	69982	13.328	12.859	13.828
ProbeTrack13	5	ProbeTrack	13.2	SCS215b	20111102.094940	20111102.100334	8	0.013328	60	10	60-180	60	135	GapExp	BigFlash	0	129	2	0	1	target	1	488	756	70738	13.328	12.846	13.806
ProbeTrack13	5	ProbeTrack	13.2	SCS215b	20111102.094940	20111102.100340	8	0.013328	60	10	60-180	60	86	GapExp	BigFlash	0	130	2	3	0	distractor	1	607	697	71435	13.328	12.860	13.776
ProbeTrack13	5	ProbeTrack	13.2	SCS215b	20111102.094940	20111102.100346	8	0.013328	60	10	60-180	60	116	GapExp	BigFlash	0	131	2	0	0	distractor	1	588	706	72141	13.328	12.863	13.802
ProbeTrack13	5	ProbeTrack	13.2	SCS215b	20111102.094940	20111102.100352	8	0.013328	60	10	60-180	60	119	GapExp	BigFlash	0	132	2	45	0	distractor	1	534	733	72874	13.328	12.905	13.749
ProbeTrack13	5	ProbeTrack	13.2	SCS215b	20111102.094940	20111102.100359	8	0.013328	60	10	60-180	60	92	GapExp	BigFlash	0	133	2	3	1	target	1	591	705	73579	13.328	12.891	13.757
ProbeTrack13	5	ProbeTrack	13.2	SCS215b	20111102.094940	20111102.100405	8	0.013328	60	10	60-180	60	101	GapExp	BigFlash	0	134	2	0	0	target	0	542	-1000	72579	13.328	12.958	13.690
ProbeTrack13	5	ProbeTrack	13.2	SCS215b	20111102.094940	20111102.100411	8	0.013328	60	10	60-180	60	91	GapExp	BigFlash	0	135	2	3	1	target	1	565	718	73297	13.328	12.909	13.740
ProbeTrack13	5	ProbeTrack	13.2	SCS215b	20111102.094940	20111102.100416	8	0.013328	60	10	60-180	60	148	GapExp	BigFlash	0	136	2	3	0	distractor	1	647	677	73974	13.328	13.058	13.582
ProbeTrack13	5	ProbeTrack	13.2	SCS215b	20111102.094940	20111102.100423	8	0.013328	60	10	60-180	60	71	GapExp	BigFlash	0	137	2	3	0	distractor	1	577	712	74686	13.328	13.308	13.355
ProbeTrack13	5	ProbeTrack	13.2	SCS215b	20111102.094940	20111102.100428	8	0.013328	60	10	60-180	60	109	GapExp	BigFlash	0	138	2	1	1	target	1	546	727	75413	13.328	12.960	13.716
ProbeTrack13	5	ProbeTrack	13.2	SCS215b	20111102.094940	20111102.100434	8	0.013328	60	10	60-180	60	74	GapExp	BigFlash	0	139	2	45	0	target	0	2784	-1000	74413	13.328	13.159	13.490
ProbeTrack13	5	ProbeTrack	13.2	SCS215b	20111102.094940	20111102.100443	8	0.013328	60	10	60-180	60	164	GapExp	BigFlash	0	140	2	0	0	distractor	1	587	707	75120	13.328	13.049	13.619
ProbeTrack13	5	ProbeTrack	13.2	SCS215b	20111102.094940	20111102.100450	8	0.013328	60	10	60-180	60	167	GapExp	BigFlash	0	141	2	0	0	distractor	1	543	729	75849	13.328	13.286	13.377
ProbeTrack13	5	ProbeTrack	13.2	SCS215b	20111102.094940	20111102.100457	8	0.013328	60	10	60-180	60	91	GapExp	BigFlash	0	142	2	45	0	distractor	1	594	703	76552	13.328	12.929	13.720
ProbeTrack13	5	ProbeTrack	13.2	SCS215b	20111102.094940	20111102.100503	8	0.013328	60	10	60-180	60	77	GapExp	BigFlash	0	143	2	0	0	distractor	1	551	725	77277	13.328	12.882	13.772
ProbeTrack13	5	ProbeTrack	13.2	SCS215b	20111102.094940	20111102.100508	8	0.013328	60	10	60-180	60	76	GapExp	BigFlash	0	144	2	1	0	distractor	1	513	744	78021	13.328	12.839	13.818
ProbeTrack13	5	ProbeTrack	13.2	SCS215b	20111102.094940	20111102.100515	8	0.013328	60	10	60-180	60	102	GapExp	BigFlash	0	145	2	1	0	distractor	1	509	746	78767	13.328	12.835	13.817
ProbeTrack13	5	ProbeTrack	13.2	SCS215b	20111102.094940	20111102.100521	8	0.013328	60	10	60-180	60	82	GapExp	BigFlash	0	146	2	1	0	distractor	1	513	744	79511	13.328	12.845	13.740
ProbeTrack13	5	ProbeTrack	13.2	SCS215b	20111102.094940	20111102.100526	8	0.013328	60	10	60-180	60	148	GapExp	BigFlash	0	147	2	1	0	target	0	507	-1000	78511	13.328	12.843	13.808
ProbeTrack13	5	ProbeTrack	13.2	SCS215b	20111102.094940	20111102.100533	8	0.013328	60	10	60-180	60	75	GapExp	BigFlash	0	148	2	1	1	distractor	0	470	-1000	77511	13.396	12.939	26.788
ProbeTrack13	5	ProbeTrack	13.2	SCS215b	20111102.094940	20111102.100538	8	0.013328	60	10	60-180	60	78	GapExp	BigFlash	0	149	2	45	1	target	1	535	733	78244	13.328	13.141	13.533
ProbeTrack13	5	ProbeTrack	13.2	SCS215b	20111102.094940	20111102.100544	8	0.013328	60	10	60-180	60	128	GapExp	BigFlash	0	150	2	1	1	target	1	473	764	79008	13.381	12.856	26.731
ProbeTrack13	5	ProbeTrack	13.2	SCS215b	20111102.094940	20111102.100551	8	0.013328	60	10	60-180	60	167	GapExp	BigFlash	0	151	2	1	1	distractor	0	584	-1000	78008	13.328	12.912	13.761
ProbeTrack13	5	ProbeTrack	13.2	SCS215b	20111102.094940	20111102.100559	8	0.013328	60	10	60-180	60	125	GapExp	BigFlash	0	152	2	3	0	distractor	1	397	802	78810	13.328	13.198	13.453
ProbeTrack13	5	ProbeTrack	13.2	SCS215b	20111102.094940	20111102.100605	8	0.013328	60	10	60-180	60	123	GapExp	BigFlash	0	153	2	0	0	distractor	1	779	611	79421	13.328	13.296	13.352
ProbeTrack13	5	ProbeTrack	13.2	SCS215b	20111102.094940	20111102.100612	8	0.013328	60	10	60-180	60	145	GapExp	BigFlash	0	154	2	3	0	target	0	681	-1000	78421	13.328	12.843	13.815
ProbeTrack13	5	ProbeTrack	13.2	SCS215b	20111102.094940	20111102.100618	8	0.013328	60	10	60-180	60	129	GapExp	BigFlash	0	155	2	3	0	distractor	1	781	610	79031	13.328	12.870	13.794
ProbeTrack13	5	ProbeTrack	13.2	SCS215b	20111102.094940	20111102.100625	8	0.013328	60	10	60-180	60	168	GapExp	BigFlash	0	156	2	1	0	distractor	1	533	734	79765	13.328	12.949	13.711
ProbeTrack13	5	ProbeTrack	13.2	SCS215b	20111102.094940	20111102.100633	8	0.013328	60	10	60-180	60	177	GapExp	BigFlash	0	157	2	1	1	target	1	498	751	80516	13.328	12.863	13.798
ProbeTrack13	5	ProbeTrack	13.2	SCS215b	20111102.094940	20111102.100639	8	0.013328	60	10	60-180	60	149	GapExp	BigFlash	0	158	2	3	1	target	1	658	671	81187	13.328	12.853	13.814
ProbeTrack13	5	ProbeTrack	13.2	SCS215b	20111102.094940	20111102.100646	8	0.013328	60	10	60-180	60	106	GapExp	BigFlash	0	159	2	45	0	distractor	1	667	667	81854	13.328	12.897	13.775
ProbeTrack13	5	ProbeTrack	13.2	SCS215b	20111102.094940	20111102.100652	8	0.013328	60	10	60-180	60	161	GapExp	BigFlash	0	160	2	3	1	target	1	557	722	82576	13.328	12.945	13.710
ProbeTrack13	5	ProbeTrack	13.2	SCS215b	20111102.094940	20111102.100659	8	0.013328	60	10	60-180	60	108	GapExp	BigFlash	0	161	2	3	1	target	1	571	715	83291	13.328	12.832	13.842
ProbeTrack13	5	ProbeTrack	13.2	SCS215b	20111102.094940	20111102.100705	8	0.013328	60	10	60-180	60	71	GapExp	BigFlash	0	162	2	45	1	target	1	624	688	83979	13.328	12.869	13.805
ProbeTrack13	5	ProbeTrack	13.2	SCS215b	20111102.094940	20111102.100711	8	0.013328	60	10	60-180	60	103	GapExp	BigFlash	0	163	2	1	0	distractor	1	656	672	84651	13.328	12.840	13.817
ProbeTrack13	5	ProbeTrack	13.2	SCS215b	20111102.094940	20111102.100717	8	0.013328	60	10	60-180	60	142	GapExp	BigFlash	0	164	2	45	0	distractor	1	599	701	85352	13.328	12.878	13.789
ProbeTrack13	5	ProbeTrack	13.2	SCS215b	20111102.094940	20111102.100724	8	0.013328	60	10	60-180	60	144	GapExp	BigFlash	0	165	2	3	1	target	1	599	701	86053	13.328	12.867	13.783
ProbeTrack13	5	ProbeTrack	13.2	SCS215b	20111102.094940	20111102.100732	8	0.013328	60	10	60-180	60	90	GapExp	BigFlash	0	166	2	3	0	distractor	1	853	574	86627	13.328	12.986	13.671
ProbeTrack13	5	ProbeTrack	13.2	SCS215b	20111102.094940	20111102.100738	8	0.013328	60	10	60-180	60	174	GapExp	BigFlash	0	167	2	45	1	target	1	541	730	87357	13.328	12.847	13.810
ProbeTrack13	5	ProbeTrack	13.2	SCS215b	20111102.094940	20111102.100746	8	0.013328	60	10	60-180	60	61	GapExp	BigFlash	0	168	2	45	1	target	1	469	766	88123	13.328	12.850	13.806
ProbeTrack13	5	ProbeTrack	13.2	SCS215b	20111102.094940	20111102.100751	8	0.013328	60	10	60-180	60	104	GapExp	BigFlash	0	169	2	0	1	target	1	382	809	88932	13.328	12.941	13.720
ProbeTrack13	5	ProbeTrack	13.2	SCS215b	20111102.094940	20111102.100757	8	0.013328	60	10	60-180	60	170	GapExp	BigFlash	0	170	2	45	1	target	1	582	709	89641	13.328	12.844	13.791
ProbeTrack13	5	ProbeTrack	13.2	SCS215b	20111102.094940	20111102.100805	8	0.013328	60	10	60-180	60	95	GapExp	BigFlash	0	171	2	45	0	distractor	1	543	729	90370	13.328	12.986	13.675
ProbeTrack13	5	ProbeTrack	13.2	SCS215b	20111102.094940	20111102.100811	8	0.013328	60	10	60-180	60	113	GapExp	BigFlash	0	172	2	45	0	distractor	1	581	710	91080	13.328	12.833	13.817
ProbeTrack13	5	ProbeTrack	13.2	SCS215b	20111102.094940	20111102.100818	8	0.013328	60	10	60-180	60	88	GapExp	BigFlash	0	173	2	3	0	distractor	1	667	667	91747	13.328	12.856	13.770
ProbeTrack13	5	ProbeTrack	13.2	SCS215b	20111102.094940	20111102.100823	8	0.013328	60	10	60-180	60	96	GapExp	BigFlash	0	174	2	3	0	distractor	1	650	675	92422	13.385	12.836	26.448
ProbeTrack13	5	ProbeTrack	13.2	SCS215b	20111102.094940	20111102.100830	8	0.013328	60	10	60-180	60	106	GapExp	BigFlash	0	175	2	1	0	distractor	1	421	790	93212	13.328	12.864	13.800
ProbeTrack13	5	ProbeTrack	13.2	SCS215b	20111102.094940	20111102.100836	8	0.013328	60	10	60-180	60	84	GapExp	BigFlash	0	176	2	3	0	distractor	1	496	752	93964	13.328	12.955	13.691
ProbeTrack13	5	ProbeTrack	13.2	SCS215b	20111102.094940	20111102.100842	8	0.013328	60	10	60-180	60	161	GapExp	BigFlash	0	177	2	1	0	target	0	641	-1000	92964	13.328	12.840	13.808
ProbeTrack13	5	ProbeTrack	13.2	SCS215b	20111102.094940	20111102.100849	8	0.013328	60	10	60-180	60	178	GapExp	BigFlash	0	178	2	0	0	distractor	1	625	688	93652	13.328	12.957	13.700
ProbeTrack13	5	ProbeTrack	13.2	SCS215b	20111102.094940	20111102.100856	8	0.013328	60	10	60-180	60	100	GapExp	BigFlash	0	179	2	45	0	distractor	1	533	734	94386	13.328	12.856	13.799
ProbeTrack13	5	ProbeTrack	13.2	SCS215b	20111102.094940	20111102.100904	8	0.013328	60	10	60-180	60	94	GapExp	BigFlash	0	180	2	1	0	distractor	1	639	681	95067	13.328	12.850	13.831
ProbeTrack13	5	ProbeTrack	13.2	SCS215b	20111102.094940	20111102.100910	8	0.013328	60	10	60-180	60	116	GapExp	BigFlash	0	181	2	0	1	target	1	554	723	95790	13.328	12.895	13.752
ProbeTrack13	5	ProbeTrack	13.2	SCS215b	20111102.094940	20111102.100916	8	0.013328	60	10	60-180	60	67	GapExp	BigFlash	0	182	2	0	0	distractor	1	588	706	96496	13.328	13.124	13.532
ProbeTrack13	5	ProbeTrack	13.2	SCS215b	20111102.094940	20111102.100921	8	0.013328	60	10	60-180	60	67	GapExp	BigFlash	0	183	2	1	1	target	1	630	685	97181	13.328	12.905	13.753
ProbeTrack13	5	ProbeTrack	13.2	SCS215b	20111102.094940	20111102.100927	8	0.013328	60	10	60-180	60	94	GapExp	BigFlash	0	184	2	1	1	target	1	418	791	97972	13.328	13.118	13.556
ProbeTrack13	5	ProbeTrack	13.2	SCS215b	20111102.094940	20111102.100932	8	0.013328	60	10	60-180	60	170	GapExp	BigFlash	0	185	2	0	1	target	1	487	757	98729	13.328	12.902	13.753
ProbeTrack13	5	ProbeTrack	13.2	SCS215b	20111102.094940	20111102.100939	8	0.013328	60	10	60-180	60	129	GapExp	BigFlash	0	186	2	3	1	target	1	717	642	99371	13.328	12.814	13.834
ProbeTrack13	5	ProbeTrack	13.2	SCS215b	20111102.094940	20111102.100946	8	0.013328	60	10	60-180	60	168	GapExp	BigFlash	0	187	2	0	1	target	1	449	776	100147	13.328	12.918	13.749
ProbeTrack13	5	ProbeTrack	13.2	SCS215b	20111102.094940	20111102.100952	8	0.013328	60	10	60-180	60	153	GapExp	BigFlash	0	188	2	0	1	target	1	517	742	100889	13.328	12.965	13.691
ProbeTrack13	5	ProbeTrack	13.2	SCS215b	20111102.094940	20111102.100959	8	0.013328	60	10	60-180	60	97	GapExp	BigFlash	0	189	2	45	0	distractor	1	653	674	101563	13.328	13.085	13.555
ProbeTrack13	5	ProbeTrack	13.2	SCS215b	20111102.094940	20111102.101006	8	0.013328	60	10	60-180	60	146	GapExp	BigFlash	0	190	2	45	0	distractor	1	621	690	102253	13.328	12.893	13.758
ProbeTrack13	5	ProbeTrack	13.2	SCS215b	20111102.094940	20111102.101013	8	0.013328	60	10	60-180	60	63	GapExp	BigFlash	0	191	2	45	1	target	1	508	746	102999	13.328	12.872	13.789
ProbeTrack13	5	ProbeTrack	13.2	SCS215b	20111102.094940	20111102.101020	8	0.013328	60	10	60-180	60	71	GapExp	BigFlash	0	192	2	0	1	target	1	461	770	103769	13.328	12.884	13.767
ProbeTrack13	5	ProbeTrack	13.2	SCS215b	20111102.094940	20111102.101025	8	0.013328	60	10	60-180	60	122	GapExp	BigFlash	0	193	2	1	0	distractor	1	473	764	104533	13.328	12.860	13.803
ProbeTrack13	5	ProbeTrack	13.2	SCS215b	20111102.094940	20111102.101031	8	0.013328	60	10	60-180	60	94	GapExp	BigFlash	0	194	2	1	0	distractor	1	454	773	105306	13.328	12.830	13.801
ProbeTrack13	5	ProbeTrack	13.2	SCS215b	20111102.094940	20111102.101037	8	0.013328	60	10	60-180	60	180	GapExp	BigFlash	0	195	2	1	1	target	1	440	780	106086	13.328	12.881	13.782
ProbeTrack13	5	ProbeTrack	13.2	SCS215b	20111102.094940	20111102.101043	8	0.013328	60	10	60-180	60	95	GapExp	BigFlash	0	196	2	1	1	target	1	551	725	106811	13.328	12.900	13.769
ProbeTrack13	5	ProbeTrack	13.2	SCS215b	20111102.094940	20111102.101049	8	0.013328	60	10	60-180	60	128	GapExp	BigFlash	0	197	2	45	1	target	1	637	682	107493	13.328	13.086	13.561
ProbeTrack13	5	ProbeTrack	13.2	SCS215b	20111102.094940	20111102.101057	8	0.013328	60	10	60-180	60	104	GapExp	BigFlash	0	198	2	1	0	distractor	1	629	686	108179	13.328	13.101	13.549
ProbeTrack13	5	ProbeTrack	13.2	SCS215b	20111102.094940	20111102.101104	8	0.013328	60	10	60-180	60	106	GapExp	BigFlash	0	199	2	45	1	target	1	577	712	108891	13.328	13.030	13.622
ProbeTrack13	5	ProbeTrack	13.2	SCS215b	20111102.094940	20111102.101111	8	0.013328	60	10	60-180	60	63	GapExp	BigFlash	0	200	2	1	0	distractor	1	572	714	109605	13.328	12.860	13.793
ProbeTrack13	5	ProbeTrack	13.2	SCS215b	20111102.101244	20111102.101248	8	0.013327	60	10	60-180	60	137	GapPrac	SmallFlash	1	1	2	45	0	distractor	1	481	760	110365	13.372	6.738	19.910
ProbeTrack13	5	ProbeTrack	13.2	SCS215b	20111102.101244	20111102.101257	8	0.013327	60	10	60-180	60	165	GapPrac	SmallFlash	1	2	2	0	0	distractor	1	706	647	111012	13.328	8.619	18.028
ProbeTrack13	5	ProbeTrack	13.2	SCS215b	20111102.101244	20111102.101306	8	0.013327	60	10	60-180	60	129	GapPrac	SmallFlash	1	3	2	3	0	distractor	1	469	766	111778	13.328	10.701	15.957
ProbeTrack13	5	ProbeTrack	13.2	SCS215b	20111102.101244	20111102.101313	8	0.013327	60	10	60-180	60	164	GapPrac	SmallFlash	1	4	2	3	1	target	1	5375	0	111778	13.328	8.067	18.594
ProbeTrack13	5	ProbeTrack	13.2	SCS215b	20111102.101244	20111102.101324	8	0.013327	60	10	60-180	60	137	GapPrac	SmallFlash	1	5	2	0	0	distractor	1	569	716	112494	13.328	8.243	18.410
ProbeTrack13	5	ProbeTrack	13.2	SCS215b	20111102.101244	20111102.101334	8	0.013327	60	10	60-180	60	86	GapPrac	SmallFlash	1	6	2	3	1	target	1	746	627	113121	13.328	12.303	14.344
ProbeTrack13	5	ProbeTrack	13.2	SCS215b	20111102.101244	20111102.101340	8	0.013327	60	10	60-180	60	89	GapPrac	SmallFlash	1	7	2	45	1	target	1	621	690	113811	13.328	11.964	14.700
ProbeTrack13	5	ProbeTrack	13.2	SCS215b	20111102.101244	20111102.101346	8	0.013327	60	10	60-180	60	154	GapPrac	SmallFlash	1	8	2	3	1	target	1	452	774	114585	13.328	8.593	18.066
ProbeTrack13	5	ProbeTrack	13.2	SCS215b	20111102.101244	20111102.101353	8	0.013327	60	10	60-180	60	152	GapPrac	SmallFlash	1	9	2	3	0	distractor	1	772	614	115199	13.328	6.078	20.575
ProbeTrack13	5	ProbeTrack	13.2	SCS215b	20111102.101244	20111102.101400	8	0.013327	60	10	60-180	60	65	GapPrac	SmallFlash	1	10	2	45	0	distractor	1	734	633	115832	13.328	10.403	16.261
ProbeTrack13	5	ProbeTrack	13.2	SCS215b	20111102.101244	20111102.101407	8	0.013327	60	10	60-180	60	87	GapPrac	SmallFlash	1	11	2	0	0	distractor	1	669	666	116498	13.328	7.858	18.816
ProbeTrack13	5	ProbeTrack	13.2	SCS215b	20111102.101244	20111102.101412	8	0.013327	60	10	60-180	60	124	GapPrac	SmallFlash	1	12	2	1	1	target	1	594	703	117201	13.328	4.143	22.494
ProbeTrack13	5	ProbeTrack	13.2	SCS215b	20111102.101244	20111102.101418	8	0.013327	60	10	60-180	60	104	GapPrac	SmallFlash	1	13	2	0	1	distractor	0	529	-1000	116201	13.328	10.538	16.104
ProbeTrack13	5	ProbeTrack	13.2	SCS215b	20111102.101244	20111102.101424	8	0.013327	60	10	60-180	60	132	GapPrac	SmallFlash	1	14	2	45	1	target	1	544	728	116929	13.372	13.261	20.930
ProbeTrack13	5	ProbeTrack	13.2	SCS215b	20111102.101244	20111102.101431	8	0.013327	60	10	60-180	60	148	GapPrac	SmallFlash	1	15	2	45	0	distractor	1	584	708	117637	13.328	9.611	17.042
ProbeTrack13	5	ProbeTrack	13.2	SCS215b	20111102.101244	20111102.101438	8	0.013327	60	10	60-180	60	126	GapPrac	SmallFlash	1	16	2	0	1	target	1	580	710	118347	13.328	11.803	14.843
ProbeTrack13	5	ProbeTrack	13.2	SCS215b	20111102.101244	20111102.101445	8	0.013327	60	10	60-180	60	178	GapPrac	SmallFlash	1	17	2	1	0	distractor	1	537	732	119079	13.328	9.807	16.842
ProbeTrack13	5	ProbeTrack	13.2	SCS215b	20111102.101244	20111102.101451	8	0.013327	60	10	60-180	60	73	GapPrac	SmallFlash	1	18	2	1	1	target	1	624	688	119767	13.328	4.181	22.474
ProbeTrack13	5	ProbeTrack	13.2	SCS215b	20111102.101244	20111102.101457	8	0.013327	60	10	60-180	60	95	GapPrac	SmallFlash	1	19	2	3	0	distractor	1	571	715	120482	13.328	8.848	17.803
ProbeTrack13	5	ProbeTrack	13.2	SCS215b	20111102.101244	20111102.101502	8	0.013327	60	10	60-180	60	73	GapPrac	SmallFlash	1	20	2	1	0	distractor	1	589	706	121188	13.459	13.096	26.381
ProbeTrack13	5	ProbeTrack	13.2	SCS215b	20111102.101602	20111102.101605	8	0.013328	60	10	60-180	60	88	GapExp	SmallFlash	1	1	2	1	1	target	1	516	742	121930	13.390	12.888	13.768
ProbeTrack13	5	ProbeTrack	13.2	SCS215b	20111102.101602	20111102.101612	8	0.013328	60	10	60-180	60	108	GapExp	SmallFlash	1	2	2	45	0	distractor	1	822	589	122519	13.328	12.902	13.554
ProbeTrack13	5	ProbeTrack	13.2	SCS215b	20111102.101602	20111102.101619	8	0.013328	60	10	60-180	60	76	GapExp	SmallFlash	1	3	2	0	0	distractor	1	551	725	123244	13.328	12.947	13.763
ProbeTrack13	5	ProbeTrack	13.2	SCS215b	20111102.101602	20111102.101624	8	0.013328	60	10	60-180	60	80	GapExp	SmallFlash	1	4	2	1	0	distractor	1	496	752	123996	13.330	12.915	13.793
ProbeTrack13	5	ProbeTrack	13.2	SCS215b	20111102.101602	20111102.101630	8	0.013328	60	10	60-180	60	129	GapExp	SmallFlash	1	5	2	3	1	target	1	548	726	124722	13.328	12.937	13.707
ProbeTrack13	5	ProbeTrack	13.2	SCS215b	20111102.101602	20111102.101636	8	0.013328	60	10	60-180	60	148	GapExp	SmallFlash	1	6	2	0	1	target	1	382	809	125531	13.328	12.846	13.806
ProbeTrack13	5	ProbeTrack	13.2	SCS215b	20111102.101602	20111102.101643	8	0.013328	60	10	60-180	60	106	GapExp	SmallFlash	1	7	2	3	0	distractor	1	513	744	126275	13.328	12.850	13.807
ProbeTrack13	5	ProbeTrack	13.2	SCS215b	20111102.101602	20111102.101648	8	0.013328	60	10	60-180	60	74	GapExp	SmallFlash	1	8	2	45	1	target	1	575	713	126988	13.381	12.916	26.548
ProbeTrack13	5	ProbeTrack	13.2	SCS215b	20111102.101602	20111102.101654	8	0.013328	60	10	60-180	60	149	GapExp	SmallFlash	0	9	2	1	0	distractor	1	493	754	127742	13.328	12.943	13.713
ProbeTrack13	5	ProbeTrack	13.2	SCS215b	20111102.101602	20111102.101701	8	0.013328	60	10	60-180	60	64	GapExp	SmallFlash	0	10	2	45	1	target	1	570	715	128457	13.328	13.022	13.636
ProbeTrack13	5	ProbeTrack	13.2	SCS215b	20111102.101602	20111102.101707	8	0.013328	60	10	60-180	60	142	GapExp	SmallFlash	0	11	2	3	0	distractor	1	447	777	129234	13.328	13.108	13.548
ProbeTrack13	5	ProbeTrack	13.2	SCS215b	20111102.101602	20111102.101714	8	0.013328	60	10	60-180	60	153	GapExp	SmallFlash	0	12	2	0	0	distractor	1	651	675	129909	13.328	12.840	13.807
ProbeTrack13	5	ProbeTrack	13.2	SCS215b	20111102.101602	20111102.101720	8	0.013328	60	10	60-180	60	179	GapExp	SmallFlash	0	13	2	0	1	target	1	526	737	130646	13.328	13.043	13.616
ProbeTrack13	5	ProbeTrack	13.2	SCS215b	20111102.101602	20111102.101727	8	0.013328	60	10	60-180	60	142	GapExp	SmallFlash	0	14	2	0	0	distractor	1	573	714	131360	13.328	12.903	13.761
ProbeTrack13	5	ProbeTrack	13.2	SCS215b	20111102.101602	20111102.101733	8	0.013328	60	10	60-180	60	116	GapExp	SmallFlash	0	15	2	1	1	target	1	487	757	132117	13.328	13.105	13.689
ProbeTrack13	5	ProbeTrack	13.2	SCS215b	20111102.101602	20111102.101740	8	0.013328	60	10	60-180	60	83	GapExp	SmallFlash	0	16	2	0	1	target	1	389	806	132923	13.328	13.115	13.534
ProbeTrack13	5	ProbeTrack	13.2	SCS215b	20111102.101602	20111102.101745	8	0.013328	60	10	60-180	60	119	GapExp	SmallFlash	0	17	2	45	1	target	1	700	650	133573	13.328	9.801	16.841
ProbeTrack13	5	ProbeTrack	13.2	SCS215b	20111102.101602	20111102.101752	8	0.013328	60	10	60-180	60	83	GapExp	SmallFlash	0	18	2	0	0	distractor	1	676	662	134235	13.328	12.853	13.796
ProbeTrack13	5	ProbeTrack	13.2	SCS215b	20111102.101602	20111102.101758	8	0.013328	60	10	60-180	60	77	GapExp	SmallFlash	0	19	2	3	1	target	1	473	764	134999	13.328	12.890	13.756
ProbeTrack13	5	ProbeTrack	13.2	SCS215b	20111102.101602	20111102.101803	8	0.013328	60	10	60-180	60	149	GapExp	SmallFlash	0	20	2	0	0	distractor	1	597	702	135701	13.375	12.984	26.262
ProbeTrack13	5	ProbeTrack	13.2	SCS215b	20111102.101602	20111102.101810	8	0.013328	60	10	60-180	60	122	GapExp	SmallFlash	0	21	2	1	1	target	1	434	783	136484	13.383	13.102	26.528
ProbeTrack13	5	ProbeTrack	13.2	SCS215b	20111102.101602	20111102.101816	8	0.013328	60	10	60-180	60	158	GapExp	SmallFlash	0	22	2	45	1	target	1	639	681	137165	13.328	12.866	13.784
ProbeTrack13	5	ProbeTrack	13.2	SCS215b	20111102.101602	20111102.101823	8	0.013328	60	10	60-180	60	179	GapExp	SmallFlash	0	23	2	1	0	distractor	1	618	691	137856	13.328	12.862	13.780
ProbeTrack13	5	ProbeTrack	13.2	SCS215b	20111102.101602	20111102.101830	8	0.013328	60	10	60-180	60	152	GapExp	SmallFlash	0	24	2	45	1	target	1	575	713	138569	13.328	12.945	13.720
ProbeTrack13	5	ProbeTrack	13.2	SCS215b	20111102.101602	20111102.101837	8	0.013328	60	10	60-180	60	94	GapExp	SmallFlash	0	25	2	1	0	distractor	1	852	574	139143	13.328	13.294	13.358
ProbeTrack13	5	ProbeTrack	13.2	SCS215b	20111102.101602	20111102.101843	8	0.013328	60	10	60-180	60	175	GapExp	SmallFlash	0	26	2	0	1	target	1	466	767	139910	13.328	12.862	13.807
ProbeTrack13	5	ProbeTrack	13.2	SCS215b	20111102.101602	20111102.101850	8	0.013328	60	10	60-180	60	159	GapExp	SmallFlash	0	27	2	0	0	distractor	1	482	759	140669	13.328	12.883	13.777
ProbeTrack13	5	ProbeTrack	13.2	SCS215b	20111102.101602	20111102.101857	8	0.013328	60	10	60-180	60	80	GapExp	SmallFlash	0	28	2	0	0	distractor	1	628	686	141355	13.328	12.915	13.742
ProbeTrack13	5	ProbeTrack	13.2	SCS215b	20111102.101602	20111102.101903	8	0.013328	60	10	60-180	60	70	GapExp	SmallFlash	0	29	2	1	1	target	1	419	791	142146	13.328	12.937	13.791
ProbeTrack13	5	ProbeTrack	13.2	SCS215b	20111102.101602	20111102.101908	8	0.013328	60	10	60-180	60	108	GapExp	SmallFlash	0	30	2	45	0	distractor	1	608	696	142842	13.328	12.852	13.795
ProbeTrack13	5	ProbeTrack	13.2	SCS215b	20111102.101602	20111102.101914	8	0.013328	60	10	60-180	60	129	GapExp	SmallFlash	0	31	2	45	1	target	1	491	755	143597	13.328	12.840	13.819
ProbeTrack13	5	ProbeTrack	13.2	SCS215b	20111102.101602	20111102.101921	8	0.013328	60	10	60-180	60	109	GapExp	SmallFlash	0	32	2	45	0	distractor	1	523	739	144336	13.328	12.845	13.803
ProbeTrack13	5	ProbeTrack	13.2	SCS215b	20111102.101602	20111102.101928	8	0.013328	60	10	60-180	60	152	GapExp	SmallFlash	0	33	2	1	1	target	1	483	759	145095	13.328	12.921	13.720
ProbeTrack13	5	ProbeTrack	13.2	SCS215b	20111102.101602	20111102.101934	8	0.013328	60	10	60-180	60	99	GapExp	SmallFlash	0	34	2	45	1	target	1	478	761	145856	13.328	12.884	13.760
ProbeTrack13	5	ProbeTrack	13.2	SCS215b	20111102.101602	20111102.101940	8	0.013328	60	10	60-180	60	99	GapExp	SmallFlash	0	35	2	45	0	distractor	1	560	720	146576	13.328	12.876	13.790
ProbeTrack13	5	ProbeTrack	13.2	SCS215b	20111102.101602	20111102.101946	8	0.013328	60	10	60-180	60	178	GapExp	SmallFlash	0	36	2	3	1	target	1	491	755	147331	13.328	13.211	13.457
ProbeTrack13	5	ProbeTrack	13.2	SCS215b	20111102.101602	20111102.101954	8	0.013328	60	10	60-180	60	97	GapExp	SmallFlash	0	37	2	45	1	target	1	524	738	148069	13.328	12.897	13.761
ProbeTrack13	5	ProbeTrack	13.2	SCS215b	20111102.101602	20111102.102000	8	0.013328	60	10	60-180	60	98	GapExp	SmallFlash	0	38	2	1	0	distractor	1	553	724	148793	13.327	13.199	13.362
ProbeTrack13	5	ProbeTrack	13.2	SCS215b	20111102.101602	20111102.102006	8	0.013328	60	10	60-180	60	92	GapExp	SmallFlash	0	39	2	45	0	distractor	1	646	677	149470	13.328	12.845	13.802
ProbeTrack13	5	ProbeTrack	13.2	SCS215b	20111102.101602	20111102.102012	8	0.013328	60	10	60-180	60	69	GapExp	SmallFlash	0	40	2	0	0	distractor	1	610	695	150165	13.328	12.852	13.778
ProbeTrack13	5	ProbeTrack	13.2	SCS215b	20111102.101602	20111102.102018	8	0.013328	60	10	60-180	60	84	GapExp	SmallFlash	0	41	2	0	1	target	1	605	698	150863	13.328	12.853	13.831
ProbeTrack13	5	ProbeTrack	13.2	SCS215b	20111102.101602	20111102.102023	8	0.013328	60	10	60-180	60	152	GapExp	SmallFlash	0	42	2	0	0	distractor	1	488	756	151619	13.328	12.881	13.768
ProbeTrack13	5	ProbeTrack	13.2	SCS215b	20111102.101602	20111102.102030	8	0.013328	60	10	60-180	60	71	GapExp	SmallFlash	0	43	2	1	0	distractor	1	710	645	152264	13.391	12.848	26.473
ProbeTrack13	5	ProbeTrack	13.2	SCS215b	20111102.101602	20111102.102035	8	0.013328	60	10	60-180	60	170	GapExp	SmallFlash	0	44	2	45	1	target	1	567	717	152981	13.328	12.865	13.787
ProbeTrack13	5	ProbeTrack	13.2	SCS215b	20111102.101602	20111102.102043	8	0.013328	60	10	60-180	60	100	GapExp	SmallFlash	0	45	2	45	1	target	1	620	690	153671	13.328	12.945	13.719
ProbeTrack13	5	ProbeTrack	13.2	SCS215b	20111102.101602	20111102.102049	8	0.013328	60	10	60-180	60	68	GapExp	SmallFlash	0	46	2	3	1	target	1	490	755	154426	13.328	12.948	13.703
ProbeTrack13	5	ProbeTrack	13.2	SCS215b	20111102.101602	20111102.102054	8	0.013328	60	10	60-180	60	166	GapExp	SmallFlash	0	47	2	0	0	distractor	1	470	765	155191	13.328	13.303	13.365
ProbeTrack13	5	ProbeTrack	13.2	SCS215b	20111102.101602	20111102.102101	8	0.013328	60	10	60-180	60	180	GapExp	SmallFlash	0	48	2	45	0	distractor	1	494	753	155944	13.328	12.860	13.781
ProbeTrack13	5	ProbeTrack	13.2	SCS215b	20111102.101602	20111102.102109	8	0.013328	60	10	60-180	60	168	GapExp	SmallFlash	0	49	2	3	1	target	1	492	754	156698	13.328	12.908	13.764
ProbeTrack13	5	ProbeTrack	13.2	SCS215b	20111102.101602	20111102.102115	8	0.013328	60	10	60-180	60	122	GapExp	SmallFlash	0	50	2	45	0	distractor	1	442	779	157477	13.328	12.898	13.752
ProbeTrack13	5	ProbeTrack	13.2	SCS215b	20111102.101602	20111102.102122	8	0.013328	60	10	60-180	60	122	GapExp	SmallFlash	0	51	2	1	0	distractor	1	493	754	158231	13.328	12.947	13.715
ProbeTrack13	5	ProbeTrack	13.2	SCS215b	20111102.101602	20111102.102128	8	0.013328	60	10	60-180	60	114	GapExp	SmallFlash	0	52	2	3	0	distractor	1	507	747	158978	13.328	12.921	13.740
ProbeTrack13	5	ProbeTrack	13.2	SCS215b	20111102.101602	20111102.102134	8	0.013328	60	10	60-180	60	162	GapExp	SmallFlash	0	53	2	1	1	target	1	524	738	159716	13.328	12.854	13.808
ProbeTrack13	5	ProbeTrack	13.2	SCS215b	20111102.101602	20111102.102141	8	0.013328	60	10	60-180	60	108	GapExp	SmallFlash	0	54	2	45	0	distractor	1	567	717	160433	13.375	12.876	26.309
ProbeTrack13	5	ProbeTrack	13.2	SCS215b	20111102.101602	20111102.102147	8	0.013328	60	10	60-180	60	176	GapExp	SmallFlash	0	55	2	0	1	target	1	606	697	161130	13.328	13.105	13.550
ProbeTrack13	5	ProbeTrack	13.2	SCS215b	20111102.101602	20111102.102154	8	0.013328	60	10	60-180	60	119	GapExp	SmallFlash	0	56	2	45	0	target	0	710	-1000	160130	13.328	12.896	13.766
ProbeTrack13	5	ProbeTrack	13.2	SCS215b	20111102.101602	20111102.102201	8	0.013328	60	10	60-180	60	134	GapExp	SmallFlash	0	57	2	45	0	distractor	1	603	699	160829	13.328	12.836	13.824
ProbeTrack13	5	ProbeTrack	13.2	SCS215b	20111102.101602	20111102.102208	8	0.013328	60	10	60-180	60	91	GapExp	SmallFlash	0	58	2	0	1	target	1	578	711	161540	13.328	12.868	13.777
ProbeTrack13	5	ProbeTrack	13.2	SCS215b	20111102.101602	20111102.102214	8	0.013328	60	10	60-180	60	104	GapExp	SmallFlash	0	59	2	45	0	distractor	1	600	700	162240	13.328	12.913	13.746
ProbeTrack13	5	ProbeTrack	13.2	SCS215b	20111102.101602	20111102.102220	8	0.013328	60	10	60-180	60	88	GapExp	SmallFlash	0	60	2	0	1	target	1	647	677	162917	13.328	12.874	13.791
ProbeTrack13	5	ProbeTrack	13.2	SCS215b	20111102.101602	20111102.102226	8	0.013328	60	10	60-180	60	150	GapExp	SmallFlash	0	61	2	45	0	distractor	1	526	737	163654	13.328	12.953	13.710
ProbeTrack13	5	ProbeTrack	13.2	SCS215b	20111102.101602	20111102.102233	8	0.013328	60	10	60-180	60	143	GapExp	SmallFlash	0	62	2	0	0	distractor	1	502	749	164403	13.328	12.829	13.844
ProbeTrack13	5	ProbeTrack	13.2	SCS215b	20111102.101602	20111102.102240	8	0.013328	60	10	60-180	60	132	GapExp	SmallFlash	0	63	2	1	0	distractor	1	683	659	165062	13.328	12.833	13.834
ProbeTrack13	5	ProbeTrack	13.2	SCS215b	20111102.101602	20111102.102246	8	0.013328	60	10	60-180	60	114	GapExp	SmallFlash	0	64	2	1	1	distractor	0	521	-1000	164062	13.328	12.839	13.823
ProbeTrack13	5	ProbeTrack	13.2	SCS215b	20111102.101602	20111102.102252	8	0.013328	60	10	60-180	60	136	GapExp	SmallFlash	0	65	2	45	1	target	1	494	753	164815	13.328	13.031	13.644
ProbeTrack13	5	ProbeTrack	13.2	SCS215b	20111102.101602	20111102.102259	8	0.013328	60	10	60-180	60	155	GapExp	SmallFlash	0	66	2	3	0	distractor	1	618	691	165506	13.374	12.854	26.561
ProbeTrack13	5	ProbeTrack	13.2	SCS215b	20111102.101602	20111102.102305	8	0.013328	60	10	60-180	60	152	GapExp	SmallFlash	0	67	2	0	1	target	1	528	736	166242	13.425	12.857	39.590
ProbeTrack13	5	ProbeTrack	13.2	SCS215b	20111102.101602	20111102.102312	8	0.013328	60	10	60-180	60	118	GapExp	SmallFlash	0	68	2	0	1	target	1	494	753	166995	13.439	13.090	39.879
ProbeTrack13	5	ProbeTrack	13.2	SCS215b	20111102.101602	20111102.102318	8	0.013328	60	10	60-180	60	141	GapExp	SmallFlash	0	69	2	1	0	distractor	1	550	725	167720	13.328	12.912	13.740
ProbeTrack13	5	ProbeTrack	13.2	SCS215b	20111102.101602	20111102.102324	8	0.013328	60	10	60-180	60	100	GapExp	SmallFlash	0	70	2	45	1	target	1	517	742	168462	13.328	13.122	13.531
ProbeTrack13	5	ProbeTrack	13.2	SCS215b	20111102.101602	20111102.102331	8	0.013328	60	10	60-180	60	139	GapExp	SmallFlash	0	71	2	45	0	distractor	1	618	691	169153	13.328	12.881	13.772
ProbeTrack13	5	ProbeTrack	13.2	SCS215b	20111102.101602	20111102.102338	8	0.013328	60	10	60-180	60	89	GapExp	SmallFlash	0	72	2	1	1	target	1	560	720	169873	13.328	12.909	13.752
ProbeTrack13	5	ProbeTrack	13.2	SCS215b	20111102.101602	20111102.102344	8	0.013328	60	10	60-180	60	142	GapExp	SmallFlash	0	73	2	0	1	target	1	460	770	170643	13.330	13.004	13.746
ProbeTrack13	5	ProbeTrack	13.2	SCS215b	20111102.101602	20111102.102350	8	0.013328	60	10	60-180	60	167	GapExp	SmallFlash	0	74	2	0	0	distractor	1	639	681	171324	13.328	12.864	13.787
ProbeTrack13	5	ProbeTrack	13.2	SCS215b	20111102.101602	20111102.102357	8	0.013328	60	10	60-180	60	167	GapExp	SmallFlash	0	75	2	1	0	distractor	1	428	786	172110	13.328	12.975	13.671
ProbeTrack13	5	ProbeTrack	13.2	SCS215b	20111102.101602	20111102.102403	8	0.013328	60	10	60-180	60	73	GapExp	SmallFlash	0	76	2	1	0	distractor	1	487	757	172867	13.328	12.855	13.810
ProbeTrack13	5	ProbeTrack	13.2	SCS215b	20111102.101602	20111102.102409	8	0.013328	60	10	60-180	60	160	GapExp	SmallFlash	0	77	2	3	1	target	1	731	635	173502	13.328	12.852	13.799
ProbeTrack13	5	ProbeTrack	13.2	SCS215b	20111102.101602	20111102.102416	8	0.013328	60	10	60-180	60	149	GapExp	SmallFlash	0	78	2	3	0	distractor	1	515	743	174245	13.328	13.084	13.558
ProbeTrack13	5	ProbeTrack	13.2	SCS215b	20111102.101602	20111102.102422	8	0.013328	60	10	60-180	60	97	GapExp	SmallFlash	0	79	2	0	1	target	1	470	765	175010	13.328	13.094	13.554
ProbeTrack13	5	ProbeTrack	13.2	SCS215b	20111102.101602	20111102.102428	8	0.013328	60	10	60-180	60	97	GapExp	SmallFlash	0	80	2	3	1	target	1	487	757	175767	13.328	12.848	13.791
ProbeTrack13	5	ProbeTrack	13.2	SCS215b	20111102.101602	20111102.102434	8	0.013328	60	10	60-180	60	125	GapExp	SmallFlash	0	81	2	0	0	distractor	1	509	746	176513	13.328	12.842	13.813
ProbeTrack13	5	ProbeTrack	13.2	SCS215b	20111102.101602	20111102.102440	8	0.013328	60	10	60-180	60	90	GapExp	SmallFlash	0	82	2	0	0	distractor	1	745	628	177141	13.328	13.106	13.532
ProbeTrack13	5	ProbeTrack	13.2	SCS215b	20111102.101602	20111102.102445	8	0.013328	60	10	60-180	60	138	GapExp	SmallFlash	0	83	2	0	1	target	1	466	767	177908	13.328	12.851	13.820
ProbeTrack13	5	ProbeTrack	13.2	SCS215b	20111102.101602	20111102.102452	8	0.013328	60	10	60-180	60	62	GapExp	SmallFlash	0	84	2	1	0	distractor	1	643	679	178587	13.328	12.967	13.687
ProbeTrack13	5	ProbeTrack	13.2	SCS215b	20111102.101602	20111102.102458	8	0.013328	60	10	60-180	60	99	GapExp	SmallFlash	0	85	2	0	1	distractor	0	700	-1000	177587	13.328	12.877	13.781
ProbeTrack13	5	ProbeTrack	13.2	SCS215b	20111102.101602	20111102.102503	8	0.013328	60	10	60-180	60	100	GapExp	SmallFlash	0	86	2	0	0	distractor	1	588	706	178293	13.328	12.851	13.807
ProbeTrack13	5	ProbeTrack	13.2	SCS215b	20111102.101602	20111102.102509	8	0.013328	60	10	60-180	60	105	GapExp	SmallFlash	0	87	2	3	1	target	1	466	767	179060	13.328	12.834	13.816
ProbeTrack13	5	ProbeTrack	13.2	SCS215b	20111102.101602	20111102.102515	8	0.013328	60	10	60-180	60	116	GapExp	SmallFlash	0	88	2	45	0	distractor	1	537	732	179792	13.328	12.844	13.821
ProbeTrack13	5	ProbeTrack	13.2	SCS215b	20111102.101602	20111102.102522	8	0.013328	60	10	60-180	60	120	GapExp	SmallFlash	0	89	2	45	0	distractor	1	500	750	180542	13.328	12.922	13.746
ProbeTrack13	5	ProbeTrack	13.2	SCS215b	20111102.101602	20111102.102530	8	0.013328	60	10	60-180	60	91	GapExp	SmallFlash	0	90	2	45	1	target	1	609	696	181238	13.328	12.867	13.788
ProbeTrack13	5	ProbeTrack	13.2	SCS215b	20111102.101602	20111102.102537	8	0.013328	60	10	60-180	60	96	GapExp	SmallFlash	0	91	2	45	1	target	1	490	755	181993	13.328	12.862	13.798
ProbeTrack13	5	ProbeTrack	13.2	SCS215b	20111102.101602	20111102.102543	8	0.013328	60	10	60-180	60	176	GapExp	SmallFlash	0	92	2	3	0	distractor	1	682	659	182652	13.328	12.893	13.778
ProbeTrack13	5	ProbeTrack	13.2	SCS215b	20111102.101602	20111102.102550	8	0.013328	60	10	60-180	60	133	GapExp	SmallFlash	0	93	2	0	1	target	1	430	785	183437	13.328	12.854	13.802
ProbeTrack13	5	ProbeTrack	13.2	SCS215b	20111102.101602	20111102.102556	8	0.013328	60	10	60-180	60	75	GapExp	SmallFlash	0	94	2	0	1	target	1	513	744	184181	13.328	13.296	13.368
ProbeTrack13	5	ProbeTrack	13.2	SCS215b	20111102.101602	20111102.102602	8	0.013328	60	10	60-180	60	163	GapExp	SmallFlash	0	95	2	3	1	target	1	411	795	184976	13.328	12.885	13.776
ProbeTrack13	5	ProbeTrack	13.2	SCS215b	20111102.101602	20111102.102608	8	0.013328	60	10	60-180	60	90	GapExp	SmallFlash	0	96	2	45	1	target	1	540	730	185706	13.328	12.933	13.708
ProbeTrack13	5	ProbeTrack	13.2	SCS215b	20111102.101602	20111102.102615	8	0.013328	60	10	60-180	60	109	GapExp	SmallFlash	0	97	2	45	0	distractor	1	813	594	186300	13.328	13.103	13.566
ProbeTrack13	5	ProbeTrack	13.2	SCS215b	20111102.101602	20111102.102621	8	0.013328	60	10	60-180	60	114	GapExp	SmallFlash	0	98	2	3	1	target	1	489	756	187056	13.328	12.861	13.782
ProbeTrack13	5	ProbeTrack	13.2	SCS215b	20111102.101602	20111102.102627	8	0.013328	60	10	60-180	60	77	GapExp	SmallFlash	0	99	2	0	0	distractor	1	647	677	187733	13.328	13.096	13.558
ProbeTrack13	5	ProbeTrack	13.2	SCS215b	20111102.101602	20111102.102633	8	0.013328	60	10	60-180	60	144	GapExp	SmallFlash	0	100	2	3	0	distractor	1	419	791	188524	13.329	12.930	13.704
ProbeTrack13	5	ProbeTrack	13.2	SCS215b	20111102.101602	20111102.102640	8	0.013328	60	10	60-180	60	66	GapExp	SmallFlash	0	101	2	3	0	distractor	1	606	697	189221	13.328	12.873	13.805
ProbeTrack13	5	ProbeTrack	13.2	SCS215b	20111102.101602	20111102.102645	8	0.013328	60	10	60-180	60	100	GapExp	SmallFlash	0	102	2	3	0	distractor	1	513	744	189965	13.328	12.954	13.690
ProbeTrack13	5	ProbeTrack	13.2	SCS215b	20111102.101602	20111102.102651	8	0.013328	60	10	60-180	60	132	GapExp	SmallFlash	0	103	2	1	1	target	1	419	791	190756	13.328	12.905	13.751
ProbeTrack13	5	ProbeTrack	13.2	SCS215b	20111102.101602	20111102.102657	8	0.013328	60	10	60-180	60	170	GapExp	SmallFlash	0	104	2	1	1	target	1	424	788	191544	13.328	12.845	13.821
ProbeTrack13	5	ProbeTrack	13.2	SCS215b	20111102.101602	20111102.102704	8	0.013328	60	10	60-180	60	122	GapExp	SmallFlash	0	105	2	3	1	target	1	547	727	192271	13.328	12.831	13.817
ProbeTrack13	5	ProbeTrack	13.2	SCS215b	20111102.101602	20111102.102710	8	0.013328	60	10	60-180	60	126	GapExp	SmallFlash	0	106	2	0	0	distractor	1	586	707	192978	13.328	13.097	13.547
ProbeTrack13	5	ProbeTrack	13.2	SCS215b	20111102.101602	20111102.102716	8	0.013328	60	10	60-180	60	142	GapExp	SmallFlash	0	107	2	1	0	distractor	1	493	754	193732	13.328	12.856	13.811
ProbeTrack13	5	ProbeTrack	13.2	SCS215b	20111102.101602	20111102.102722	8	0.013328	60	10	60-180	60	115	GapExp	SmallFlash	0	108	2	1	0	distractor	1	503	749	194481	13.328	12.898	13.775
ProbeTrack13	5	ProbeTrack	13.2	SCS215b	20111102.101602	20111102.102728	8	0.013328	60	10	60-180	60	80	GapExp	SmallFlash	0	109	2	0	0	target	0	555	-1000	193481	13.328	12.854	13.796
ProbeTrack13	5	ProbeTrack	13.2	SCS215b	20111102.101602	20111102.102734	8	0.013328	60	10	60-180	60	168	GapExp	SmallFlash	0	110	2	0	0	distractor	1	575	713	194194	13.328	12.861	13.787
ProbeTrack13	5	ProbeTrack	13.2	SCS215b	20111102.101602	20111102.102741	8	0.013328	60	10	60-180	60	101	GapExp	SmallFlash	0	111	2	0	0	distractor	1	566	717	194911	13.328	13.083	13.568
ProbeTrack13	5	ProbeTrack	13.2	SCS215b	20111102.101602	20111102.102747	8	0.013328	60	10	60-180	60	132	GapExp	SmallFlash	0	112	2	1	1	target	1	730	635	195546	13.328	12.967	13.687
ProbeTrack13	5	ProbeTrack	13.2	SCS215b	20111102.101602	20111102.102753	8	0.013328	60	10	60-180	60	74	GapExp	SmallFlash	0	113	2	0	1	target	1	579	711	196257	13.328	12.856	13.812
ProbeTrack13	5	ProbeTrack	13.2	SCS215b	20111102.101602	20111102.102759	8	0.013328	60	10	60-180	60	78	GapExp	SmallFlash	0	114	2	45	1	target	1	596	702	196959	13.328	12.833	13.820
ProbeTrack13	5	ProbeTrack	13.2	SCS215b	20111102.101602	20111102.102805	8	0.013328	60	10	60-180	60	98	GapExp	SmallFlash	0	115	2	3	0	distractor	1	843	579	197538	13.328	12.897	13.743
ProbeTrack13	5	ProbeTrack	13.2	SCS215b	20111102.101602	20111102.102811	8	0.013328	60	10	60-180	60	150	GapExp	SmallFlash	0	116	2	3	0	distractor	1	624	688	198226	13.328	12.901	13.768
ProbeTrack13	5	ProbeTrack	13.2	SCS215b	20111102.101602	20111102.102818	8	0.013328	60	10	60-180	60	121	GapExp	SmallFlash	0	117	2	45	0	distractor	1	512	744	198970	13.328	12.854	13.810
ProbeTrack13	5	ProbeTrack	13.2	SCS215b	20111102.101602	20111102.102825	8	0.013328	60	10	60-180	60	152	GapExp	SmallFlash	0	118	2	1	1	target	1	541	730	199700	13.328	12.879	13.778
ProbeTrack13	5	ProbeTrack	13.2	SCS215b	20111102.101602	20111102.102831	8	0.013328	60	10	60-180	60	109	GapExp	SmallFlash	0	119	2	45	0	distractor	1	607	697	200397	13.328	12.907	13.734
ProbeTrack13	5	ProbeTrack	13.2	SCS215b	20111102.101602	20111102.102838	8	0.013328	60	10	60-180	60	145	GapExp	SmallFlash	0	120	2	3	0	distractor	1	459	771	201168	13.328	12.845	13.835
ProbeTrack13	5	ProbeTrack	13.2	SCS215b	20111102.101602	20111102.102845	8	0.013328	60	10	60-180	60	178	GapExp	SmallFlash	0	121	2	3	1	target	1	511	745	201913	13.328	13.279	13.378
ProbeTrack13	5	ProbeTrack	13.2	SCS215b	20111102.101602	20111102.102851	8	0.013328	60	10	60-180	60	91	GapExp	SmallFlash	0	122	2	0	0	distractor	1	810	595	202508	13.328	13.280	13.367
ProbeTrack13	5	ProbeTrack	13.2	SCS215b	20111102.101602	20111102.102857	8	0.013328	60	10	60-180	60	130	GapExp	SmallFlash	0	123	2	3	1	target	1	457	772	203280	13.328	12.895	13.769
ProbeTrack13	5	ProbeTrack	13.2	SCS215b	20111102.101602	20111102.102903	8	0.013328	60	10	60-180	60	94	GapExp	SmallFlash	0	124	2	0	1	target	1	616	692	203972	13.328	12.857	13.817
ProbeTrack13	5	ProbeTrack	13.2	SCS215b	20111102.101602	20111102.102910	8	0.013328	60	10	60-180	60	62	GapExp	SmallFlash	0	125	2	0	1	target	1	546	727	204699	13.328	13.016	13.652
ProbeTrack13	5	ProbeTrack	13.2	SCS215b	20111102.101602	20111102.102915	8	0.013328	60	10	60-180	60	170	GapExp	SmallFlash	0	126	2	45	1	target	1	489	756	205455	13.328	12.875	13.781
ProbeTrack13	5	ProbeTrack	13.2	SCS215b	20111102.101602	20111102.102922	8	0.013328	60	10	60-180	60	75	GapExp	SmallFlash	0	127	2	1	0	distractor	1	568	716	206171	13.328	13.100	13.541
ProbeTrack13	5	ProbeTrack	13.2	SCS215b	20111102.101602	20111102.102928	8	0.013328	60	10	60-180	60	160	GapExp	SmallFlash	0	128	2	1	1	target	1	520	740	206911	13.329	13.037	13.662
ProbeTrack13	5	ProbeTrack	13.2	SCS215b	20111102.101602	20111102.102934	8	0.013328	60	10	60-180	60	85	GapExp	SmallFlash	0	129	2	3	1	target	1	472	764	207675	13.328	12.872	13.787
ProbeTrack13	5	ProbeTrack	13.2	SCS215b	20111102.101602	20111102.102942	8	0.013328	60	10	60-180	60	157	GapExp	SmallFlash	0	130	2	1	0	distractor	1	538	731	208406	13.328	12.863	13.776
ProbeTrack13	5	ProbeTrack	13.2	SCS215b	20111102.101602	20111102.102949	8	0.013328	60	10	60-180	60	154	GapExp	SmallFlash	0	131	2	1	1	target	1	600	700	209106	13.328	12.898	13.752
ProbeTrack13	5	ProbeTrack	13.2	SCS215b	20111102.101602	20111102.102955	8	0.013328	60	10	60-180	60	77	GapExp	SmallFlash	0	132	2	1	1	target	1	454	773	209879	13.328	13.293	13.361
ProbeTrack13	5	ProbeTrack	13.2	SCS215b	20111102.101602	20111102.103002	8	0.013328	60	10	60-180	60	133	GapExp	SmallFlash	0	133	2	3	0	distractor	1	641	680	210559	13.328	12.970	13.686
ProbeTrack13	5	ProbeTrack	13.2	SCS215b	20111102.101602	20111102.103008	8	0.013328	60	10	60-180	60	86	GapExp	SmallFlash	0	134	2	3	1	target	1	542	729	211288	13.328	13.141	13.527
ProbeTrack13	5	ProbeTrack	13.2	SCS215b	20111102.101602	20111102.103014	8	0.013328	60	10	60-180	60	139	GapExp	SmallFlash	0	135	2	3	1	target	1	416	792	212080	13.328	13.229	13.437
ProbeTrack13	5	ProbeTrack	13.2	SCS215b	20111102.101602	20111102.103021	8	0.013328	60	10	60-180	60	64	GapExp	SmallFlash	0	136	2	0	0	distractor	1	567	717	212797	13.328	13.214	13.557
ProbeTrack13	5	ProbeTrack	13.2	SCS215b	20111102.101602	20111102.103026	8	0.013328	60	10	60-180	60	100	GapExp	SmallFlash	0	137	2	0	1	target	1	629	686	213483	13.328	12.859	13.794
ProbeTrack13	5	ProbeTrack	13.2	SCS215b	20111102.101602	20111102.103032	8	0.013328	60	10	60-180	60	124	GapExp	SmallFlash	0	138	2	45	0	distractor	1	589	706	214189	13.328	12.854	13.806
ProbeTrack13	5	ProbeTrack	13.2	SCS215b	20111102.101602	20111102.103043	8	0.013328	60	10	60-180	60	173	GapExp	SmallFlash	0	139	2	45	1	distractor	0	616	-1000	213189	13.328	12.920	13.729
ProbeTrack13	5	ProbeTrack	13.2	SCS215b	20111102.101602	20111102.103051	8	0.013328	60	10	60-180	60	120	GapExp	SmallFlash	0	140	2	1	0	distractor	1	478	761	213950	13.328	12.880	13.781
ProbeTrack13	5	ProbeTrack	13.2	SCS215b	20111102.101602	20111102.103057	8	0.013328	60	10	60-180	60	149	GapExp	SmallFlash	0	141	2	3	1	target	1	737	632	214582	13.328	12.924	13.735
ProbeTrack13	5	ProbeTrack	13.2	SCS215b	20111102.101602	20111102.103103	8	0.013328	60	10	60-180	60	137	GapExp	SmallFlash	0	142	2	1	0	distractor	1	625	688	215270	13.328	13.031	13.623
ProbeTrack13	5	ProbeTrack	13.2	SCS215b	20111102.101602	20111102.103109	8	0.013328	60	10	60-180	60	127	GapExp	SmallFlash	0	143	2	0	1	target	1	592	704	215974	13.328	12.842	13.812
ProbeTrack13	5	ProbeTrack	13.2	SCS215b	20111102.101602	20111102.103116	8	0.013328	60	10	60-180	60	137	GapExp	SmallFlash	0	144	2	45	0	distractor	1	824	588	216562	13.328	13.016	13.650
ProbeTrack13	5	ProbeTrack	13.2	SCS215b	20111102.101602	20111102.103123	8	0.013328	60	10	60-180	60	130	GapExp	SmallFlash	0	145	2	3	1	target	1	500	750	217312	13.328	13.016	13.649
ProbeTrack13	5	ProbeTrack	13.2	SCS215b	20111102.101602	20111102.103129	8	0.013328	60	10	60-180	60	99	GapExp	SmallFlash	0	146	2	45	1	target	1	470	765	218077	13.328	13.043	13.613
ProbeTrack13	5	ProbeTrack	13.2	SCS215b	20111102.101602	20111102.103136	8	0.013328	60	10	60-180	60	147	GapExp	SmallFlash	0	147	2	3	0	distractor	1	609	696	218773	13.328	12.874	13.794
ProbeTrack13	5	ProbeTrack	13.2	SCS215b	20111102.101602	20111102.103142	8	0.013328	60	10	60-180	60	113	GapExp	SmallFlash	0	148	2	1	0	distractor	1	668	666	219439	13.328	12.900	13.758
ProbeTrack13	5	ProbeTrack	13.2	SCS215b	20111102.101602	20111102.103148	8	0.013328	60	10	60-180	60	137	GapExp	SmallFlash	0	149	2	45	1	target	1	537	732	220171	13.328	12.943	13.724
ProbeTrack13	5	ProbeTrack	13.2	SCS215b	20111102.101602	20111102.103156	8	0.013328	60	10	60-180	60	144	GapExp	SmallFlash	0	150	2	0	1	distractor	0	551	-1000	219171	13.328	12.845	13.841
ProbeTrack13	5	ProbeTrack	13.2	SCS215b	20111102.101602	20111102.103206	8	0.013328	60	10	60-180	60	116	GapExp	SmallFlash	0	151	2	45	1	target	1	473	764	219935	13.328	12.833	13.814
ProbeTrack13	5	ProbeTrack	13.2	SCS215b	20111102.101602	20111102.103213	8	0.013328	60	10	60-180	60	79	GapExp	SmallFlash	0	152	2	45	0	target	0	785	-1000	218935	13.328	12.878	13.777
ProbeTrack13	5	ProbeTrack	13.2	SCS215b	20111102.101602	20111102.103219	8	0.013328	60	10	60-180	60	112	GapExp	SmallFlash	0	153	2	45	1	target	1	569	716	219651	13.328	12.923	13.739
ProbeTrack13	5	ProbeTrack	13.2	SCS215b	20111102.101602	20111102.103226	8	0.013328	60	10	60-180	60	149	GapExp	SmallFlash	0	154	2	3	1	target	1	493	754	220405	13.328	13.010	13.650
ProbeTrack13	5	ProbeTrack	13.2	SCS215b	20111102.101602	20111102.103233	8	0.013328	60	10	60-180	60	100	GapExp	SmallFlash	0	155	2	3	1	target	1	484	758	221163	13.328	12.856	13.815
ProbeTrack13	5	ProbeTrack	13.2	SCS215b	20111102.101602	20111102.103239	8	0.013328	60	10	60-180	60	157	GapExp	SmallFlash	0	156	2	1	0	distractor	1	462	769	221932	13.328	12.884	13.779
ProbeTrack13	5	ProbeTrack	13.2	SCS215b	20111102.101602	20111102.103245	8	0.013328	60	10	60-180	60	176	GapExp	SmallFlash	0	157	2	0	0	distractor	1	825	588	222520	13.328	12.877	13.773
ProbeTrack13	5	ProbeTrack	13.2	SCS215b	20111102.101602	20111102.103252	8	0.013328	60	10	60-180	60	132	GapExp	SmallFlash	0	158	2	3	1	target	1	518	741	223261	13.328	12.859	13.807
ProbeTrack13	5	ProbeTrack	13.2	SCS215b	20111102.101602	20111102.103259	8	0.013328	60	10	60-180	60	120	GapExp	SmallFlash	0	159	2	3	0	distractor	1	490	755	224016	13.328	12.906	13.759
ProbeTrack13	5	ProbeTrack	13.2	SCS215b	20111102.101602	20111102.103305	8	0.013328	60	10	60-180	60	179	GapExp	SmallFlash	0	160	2	3	0	distractor	1	661	670	224686	13.328	12.846	13.821
ProbeTrack13	5	ProbeTrack	13.2	SCS215b	20111102.101602	20111102.103312	8	0.013328	60	10	60-180	60	177	GapExp	SmallFlash	0	161	2	3	0	distractor	1	484	758	225444	13.328	13.102	13.561
ProbeTrack13	5	ProbeTrack	13.2	SCS215b	20111102.101602	20111102.103320	8	0.013328	60	10	60-180	60	61	GapExp	SmallFlash	0	162	2	1	1	target	1	495	753	226197	13.328	13.286	13.362
ProbeTrack13	5	ProbeTrack	13.2	SCS215b	20111102.101602	20111102.103326	8	0.013328	60	10	60-180	60	81	GapExp	SmallFlash	0	163	2	1	0	distractor	1	472	764	226961	13.328	13.305	13.355
ProbeTrack13	5	ProbeTrack	13.2	SCS215b	20111102.101602	20111102.103332	8	0.013328	60	10	60-180	60	95	GapExp	SmallFlash	0	164	2	1	1	target	1	555	723	227684	13.328	13.176	13.468
ProbeTrack13	5	ProbeTrack	13.2	SCS215b	20111102.101602	20111102.103337	8	0.013328	60	10	60-180	60	122	GapExp	SmallFlash	0	165	2	1	1	target	1	513	744	228428	13.328	12.830	13.811
ProbeTrack13	5	ProbeTrack	13.2	SCS215b	20111102.101602	20111102.103343	8	0.013328	60	10	60-180	60	144	GapExp	SmallFlash	0	166	2	1	1	target	1	517	742	229170	13.328	12.970	13.687
ProbeTrack13	5	ProbeTrack	13.2	SCS215b	20111102.101602	20111102.103350	8	0.013328	60	10	60-180	60	86	GapExp	SmallFlash	0	167	2	3	1	target	1	501	750	229920	13.328	12.880	13.779
ProbeTrack13	5	ProbeTrack	13.2	SCS215b	20111102.101602	20111102.103356	8	0.013328	60	10	60-180	60	136	GapExp	SmallFlash	0	168	2	0	1	target	1	533	734	230654	13.322	11.812	13.549
ProbeTrack13	5	ProbeTrack	13.2	SCS215b	20111102.101602	20111102.103403	8	0.013328	60	10	60-180	60	158	GapExp	SmallFlash	0	169	2	1	0	distractor	1	617	692	231346	13.328	11.548	15.105
ProbeTrack13	5	ProbeTrack	13.2	SCS215b	20111102.101602	20111102.103409	8	0.013328	60	10	60-180	60	68	GapExp	SmallFlash	0	170	2	45	0	distractor	1	659	671	232017	13.328	13.094	13.557
ProbeTrack13	5	ProbeTrack	13.2	SCS215b	20111102.101602	20111102.103415	8	0.013328	60	10	60-180	60	149	GapExp	SmallFlash	0	171	2	0	0	distractor	1	528	736	232753	13.328	13.101	13.550
ProbeTrack13	5	ProbeTrack	13.2	SCS215b	20111102.101602	20111102.103422	8	0.013328	60	10	60-180	60	151	GapExp	SmallFlash	0	172	2	0	0	distractor	1	597	702	233455	13.328	13.307	13.350
ProbeTrack13	5	ProbeTrack	13.2	SCS215b	20111102.101602	20111102.103428	8	0.013328	60	10	60-180	60	71	GapExp	SmallFlash	0	173	2	3	1	target	1	597	702	234157	13.328	11.996	14.655
ProbeTrack13	5	ProbeTrack	13.2	SCS215b	20111102.101602	20111102.103434	8	0.013328	60	10	60-180	60	95	GapExp	SmallFlash	0	174	2	1	1	target	1	520	740	234897	13.328	9.464	17.207
ProbeTrack13	5	ProbeTrack	13.2	SCS215b	20111102.101602	20111102.103440	8	0.013328	60	10	60-180	60	179	GapExp	SmallFlash	0	175	2	1	0	distractor	1	594	703	235600	13.328	8.988	17.685
ProbeTrack13	5	ProbeTrack	13.2	SCS215b	20111102.101602	20111102.103447	8	0.013328	60	10	60-180	60	87	GapExp	SmallFlash	0	176	2	1	0	distractor	1	574	713	236313	13.328	13.307	13.347
ProbeTrack13	5	ProbeTrack	13.2	SCS215b	20111102.101602	20111102.103453	8	0.013328	60	10	60-180	60	161	GapExp	SmallFlash	0	177	2	3	0	distractor	1	466	767	237080	13.328	3.884	22.775
ProbeTrack13	5	ProbeTrack	13.2	SCS215b	20111102.101602	20111102.103459	8	0.013328	60	10	60-180	60	147	GapExp	SmallFlash	0	178	2	45	0	distractor	1	543	729	237809	13.328	13.104	13.546
ProbeTrack13	5	ProbeTrack	13.2	SCS215b	20111102.101602	20111102.103507	8	0.013328	60	10	60-180	60	130	GapExp	SmallFlash	0	179	2	1	1	target	1	524	738	238547	13.328	8.464	18.187
ProbeTrack13	5	ProbeTrack	13.2	SCS215b	20111102.101602	20111102.103513	8	0.013328	60	10	60-180	60	75	GapExp	SmallFlash	0	180	2	3	1	target	1	442	779	239326	13.328	7.317	19.334
ProbeTrack13	5	ProbeTrack	13.2	SCS215b	20111102.101602	20111102.103518	8	0.013328	60	10	60-180	60	103	GapExp	SmallFlash	0	181	2	3	0	distractor	1	447	777	240103	13.328	13.303	13.354
ProbeTrack13	5	ProbeTrack	13.2	SCS215b	20111102.101602	20111102.103524	8	0.013328	60	10	60-180	60	176	GapExp	SmallFlash	0	182	2	1	0	distractor	1	378	811	240914	13.328	8.968	17.680
ProbeTrack13	5	ProbeTrack	13.2	SCS215b	20111102.101602	20111102.103531	8	0.013328	60	10	60-180	60	150	GapExp	SmallFlash	0	183	2	1	1	target	1	594	703	241617	13.328	7.011	19.761
ProbeTrack13	5	ProbeTrack	13.2	SCS215b	20111102.101602	20111102.103537	8	0.013328	60	10	60-180	60	114	GapExp	SmallFlash	0	184	2	3	0	distractor	1	580	710	242327	13.328	9.866	16.785
ProbeTrack13	5	ProbeTrack	13.2	SCS215b	20111102.101602	20111102.103544	8	0.013328	60	10	60-180	60	154	GapExp	SmallFlash	0	185	2	1	1	target	1	525	738	243065	13.328	12.768	13.903
ProbeTrack13	5	ProbeTrack	13.2	SCS215b	20111102.101602	20111102.103550	8	0.013328	60	10	60-180	60	114	GapExp	SmallFlash	0	186	2	3	0	distractor	1	437	782	243847	13.328	6.740	19.931
ProbeTrack13	5	ProbeTrack	13.2	SCS215b	20111102.101602	20111102.103556	8	0.013328	60	10	60-180	60	151	GapExp	SmallFlash	0	187	2	1	1	distractor	0	606	-1000	242847	13.328	13.084	13.731
ProbeTrack13	5	ProbeTrack	13.2	SCS215b	20111102.101602	20111102.103602	8	0.013328	60	10	60-180	60	128	GapExp	SmallFlash	0	188	2	45	0	distractor	1	579	711	243558	13.328	10.712	15.962
ProbeTrack13	5	ProbeTrack	13.2	SCS215b	20111102.101602	20111102.103610	8	0.013328	60	10	60-180	60	126	GapExp	SmallFlash	0	189	2	3	0	distractor	1	691	655	244213	13.328	12.951	13.700
ProbeTrack13	5	ProbeTrack	13.2	SCS215b	20111102.101602	20111102.103616	8	0.013328	60	10	60-180	60	139	GapExp	SmallFlash	0	190	2	3	1	target	1	570	715	244928	13.328	13.101	13.570
ProbeTrack13	5	ProbeTrack	13.2	SCS215b	20111102.101602	20111102.103623	8	0.013328	60	10	60-180	60	106	GapExp	SmallFlash	0	191	2	45	0	distractor	1	431	785	245713	13.328	10.920	15.729
ProbeTrack13	5	ProbeTrack	13.2	SCS215b	20111102.101602	20111102.103629	8	0.013328	60	10	60-180	60	141	GapExp	SmallFlash	0	192	2	3	0	distractor	1	425	788	246501	13.328	9.638	17.036
ProbeTrack13	5	ProbeTrack	13.2	SCS215b	20111102.101602	20111102.103635	8	0.013328	60	10	60-180	60	177	GapExp	SmallFlash	0	193	2	0	1	target	1	651	675	247176	13.328	13.084	13.567
ProbeTrack13	5	ProbeTrack	13.2	SCS215b	20111102.101602	20111102.103642	8	0.013328	60	10	60-180	60	108	GapExp	SmallFlash	0	194	2	0	1	target	1	478	761	247937	13.328	13.310	13.354
ProbeTrack13	5	ProbeTrack	13.2	SCS215b	20111102.101602	20111102.103648	8	0.013328	60	10	60-180	60	179	GapExp	SmallFlash	0	195	2	45	1	distractor	0	405	-1000	246937	13.328	9.284	17.368
ProbeTrack13	5	ProbeTrack	13.2	SCS215b	20111102.101602	20111102.103655	8	0.013328	60	10	60-180	60	155	GapExp	SmallFlash	0	196	2	1	1	target	1	518	741	247678	13.328	6.911	19.740
ProbeTrack13	5	ProbeTrack	13.2	SCS215b	20111102.101602	20111102.103702	8	0.013328	60	10	60-180	60	162	GapExp	SmallFlash	0	197	2	45	1	target	1	809	596	248274	13.328	5.440	21.232
ProbeTrack13	5	ProbeTrack	13.2	SCS215b	20111102.101602	20111102.103709	8	0.013328	60	10	60-180	60	81	GapExp	SmallFlash	0	198	2	45	1	target	1	585	708	248982	13.328	10.791	15.845
ProbeTrack13	5	ProbeTrack	13.2	SCS215b	20111102.101602	20111102.103716	8	0.013328	60	10	60-180	60	135	GapExp	SmallFlash	0	199	2	3	0	distractor	1	516	742	249724	13.328	7.329	19.310
ProbeTrack13	5	ProbeTrack	13.2	SCS215b	20111102.101602	20111102.103722	8	0.013328	60	10	60-180	60	145	GapExp	SmallFlash	0	200	2	3	0	distractor	1	487	757	250481	13.328	8.443	18.206
ProbeTrack13	5	ProbeTrack	13.2	SCS215b	20111102.103817	20111102.103821	8	0.013328	60	10	60-180	60	125	GapPrac	Blank	1	1	2	3	0	distractor	1	735	633	251114	13.377	9.119	17.531
ProbeTrack13	5	ProbeTrack	13.2	SCS215b	20111102.103817	20111102.103828	8	0.013328	60	10	60-180	60	154	GapPrac	Blank	1	2	2	0	0	distractor	1	668	666	251780	13.328	9.181	17.485
ProbeTrack13	5	ProbeTrack	13.2	SCS215b	20111102.103817	20111102.103835	8	0.013328	60	10	60-180	60	120	GapPrac	Blank	1	3	2	1	1	distractor	0	477	-1000	250780	13.328	7.526	19.128
ProbeTrack13	5	ProbeTrack	13.2	SCS215b	20111102.103817	20111102.103841	8	0.013328	60	10	60-180	60	156	GapPrac	Blank	1	4	2	45	0	target	0	662	-1000	249780	13.328	10.086	16.564
ProbeTrack13	5	ProbeTrack	13.2	SCS215b	20111102.103817	20111102.103848	8	0.013328	60	10	60-180	60	68	GapPrac	Blank	1	5	2	45	0	distractor	1	636	682	250462	13.328	13.287	13.364
ProbeTrack13	5	ProbeTrack	13.2	SCS215b	20111102.103817	20111102.103853	8	0.013328	60	10	60-180	60	146	GapPrac	Blank	1	6	2	1	0	distractor	1	676	662	251124	13.328	6.904	19.746
ProbeTrack13	5	ProbeTrack	13.2	SCS215b	20111102.103817	20111102.103900	8	0.013328	60	10	60-180	60	152	GapPrac	Blank	1	7	2	1	0	distractor	1	583	709	251833	13.328	11.132	15.525
ProbeTrack13	5	ProbeTrack	13.2	SCS215b	20111102.103817	20111102.103907	8	0.013328	60	10	60-180	60	162	GapPrac	Blank	1	8	2	3	0	distractor	1	516	742	252575	13.328	13.298	13.352
ProbeTrack13	5	ProbeTrack	13.2	SCS215b	20111102.103817	20111102.103914	8	0.013328	60	10	60-180	60	95	GapPrac	Blank	1	9	2	0	0	distractor	1	514	743	253318	13.328	12.253	14.418
ProbeTrack13	5	ProbeTrack	13.2	SCS215b	20111102.103817	20111102.103920	8	0.013328	60	10	60-180	60	116	GapPrac	Blank	1	10	2	0	0	distractor	1	544	728	254046	13.328	8.187	18.448
ProbeTrack13	5	ProbeTrack	13.2	SCS215b	20111102.103817	20111102.103925	8	0.013328	60	10	60-180	60	134	GapPrac	Blank	1	11	2	3	1	target	1	478	761	254807	13.328	6.193	20.477
ProbeTrack13	5	ProbeTrack	13.2	SCS215b	20111102.103817	20111102.103932	8	0.013328	60	10	60-180	60	120	GapPrac	Blank	1	12	2	0	1	distractor	0	611	-1000	253807	13.328	4.405	22.255
ProbeTrack13	5	ProbeTrack	13.2	SCS215b	20111102.103817	20111102.103938	8	0.013328	60	10	60-180	60	127	GapPrac	Blank	1	13	2	1	1	target	1	550	725	254532	13.328	8.915	17.737
ProbeTrack13	5	ProbeTrack	13.2	SCS215b	20111102.103817	20111102.103944	8	0.013328	60	10	60-180	60	115	GapPrac	Blank	1	14	2	45	1	target	1	685	658	255190	13.328	7.945	18.711
ProbeTrack13	5	ProbeTrack	13.2	SCS215b	20111102.103817	20111102.103951	8	0.013328	60	10	60-180	60	110	GapPrac	Blank	1	15	2	3	1	target	1	801	600	255790	13.328	8.301	18.369
ProbeTrack13	5	ProbeTrack	13.2	SCS215b	20111102.103817	20111102.103957	8	0.013328	60	10	60-180	60	138	GapPrac	Blank	1	16	2	1	1	target	1	527	737	256527	13.328	13.309	13.349
ProbeTrack13	5	ProbeTrack	13.2	SCS215b	20111102.103817	20111102.104004	8	0.013328	60	10	60-180	60	105	GapPrac	Blank	1	17	2	45	1	distractor	0	584	-1000	255527	13.328	13.219	13.431
ProbeTrack13	5	ProbeTrack	13.2	SCS215b	20111102.103817	20111102.104010	8	0.013328	60	10	60-180	60	163	GapPrac	Blank	1	18	2	45	0	distractor	1	614	693	256220	13.328	12.038	14.632
ProbeTrack13	5	ProbeTrack	13.2	SCS215b	20111102.103817	20111102.104017	8	0.013328	60	10	60-180	60	85	GapPrac	Blank	1	19	2	0	1	target	1	555	723	256943	13.328	6.502	20.156
ProbeTrack13	5	ProbeTrack	13.2	SCS215b	20111102.103817	20111102.104023	8	0.013328	60	10	60-180	60	81	GapPrac	Blank	1	20	2	3	0	distractor	1	472	764	257707	13.328	7.194	19.456
ProbeTrack13	5	ProbeTrack	13.2	SCS215b	20111102.104139	20111102.104142	8	0.013328	60	10	60-180	60	83	GapExp	Blank	1	1	2	0	0	distractor	1	473	764	258471	13.393	13.314	13.348
ProbeTrack13	5	ProbeTrack	13.2	SCS215b	20111102.104139	20111102.104149	8	0.013328	60	10	60-180	60	121	GapExp	Blank	1	2	2	0	1	distractor	0	376	-1000	257471	13.328	13.310	13.347
ProbeTrack13	5	ProbeTrack	13.2	SCS215b	20111102.104139	20111102.104154	8	0.013328	60	10	60-180	60	115	GapExp	Blank	1	3	2	45	0	distractor	1	289	856	258327	13.328	13.278	13.390
ProbeTrack13	5	ProbeTrack	13.2	SCS215b	20111102.104139	20111102.104201	8	0.013328	60	10	60-180	60	156	GapExp	Blank	1	4	2	1	0	distractor	1	689	656	258983	13.328	11.740	14.912
ProbeTrack13	5	ProbeTrack	13.2	SCS215b	20111102.104139	20111102.104207	8	0.013328	60	10	60-180	60	85	GapExp	Blank	1	5	2	3	1	target	1	693	654	259637	13.328	13.101	13.549
ProbeTrack13	5	ProbeTrack	13.2	SCS215b	20111102.104139	20111102.104213	8	0.013328	60	10	60-180	60	179	GapExp	Blank	1	6	2	3	0	distractor	1	602	699	260336	13.328	13.102	13.549
ProbeTrack13	5	ProbeTrack	13.2	SCS215b	20111102.104139	20111102.104220	8	0.013328	60	10	60-180	60	161	GapExp	Blank	1	7	2	45	1	target	1	705	648	260984	13.328	12.228	14.422
ProbeTrack13	5	ProbeTrack	13.2	SCS215b	20111102.104139	20111102.104227	8	0.013328	60	10	60-180	60	80	GapExp	Blank	1	8	2	1	1	target	1	515	743	261727	13.328	13.102	13.546
ProbeTrack13	5	ProbeTrack	13.2	SCS215b	20111102.104139	20111102.104233	8	0.013328	60	10	60-180	60	67	GapExp	Blank	0	9	2	0	1	target	1	523	739	262466	13.328	10.206	16.467
ProbeTrack13	5	ProbeTrack	13.2	SCS215b	20111102.104139	20111102.104238	8	0.013328	60	10	60-180	60	78	GapExp	Blank	0	10	2	45	0	distractor	1	752	624	263090	13.328	12.894	13.760
ProbeTrack13	5	ProbeTrack	13.2	SCS215b	20111102.104139	20111102.104244	8	0.013328	60	10	60-180	60	141	GapExp	Blank	0	11	2	45	1	target	1	421	790	263880	13.328	6.187	20.468
ProbeTrack13	5	ProbeTrack	13.2	SCS215b	20111102.104139	20111102.104251	8	0.013328	60	10	60-180	60	79	GapExp	Blank	0	12	2	0	0	distractor	1	720	640	264520	13.328	7.908	18.748
ProbeTrack13	5	ProbeTrack	13.2	SCS215b	20111102.104139	20111102.104257	8	0.013328	60	10	60-180	60	144	GapExp	Blank	0	13	2	3	0	distractor	1	561	720	265240	13.328	10.738	15.918
ProbeTrack13	5	ProbeTrack	13.2	SCS215b	20111102.104139	20111102.104303	8	0.013328	60	10	60-180	60	123	GapExp	Blank	0	14	2	1	0	distractor	1	485	758	265998	13.328	7.533	19.143
ProbeTrack13	5	ProbeTrack	13.2	SCS215b	20111102.104139	20111102.104309	8	0.013328	60	10	60-180	60	167	GapExp	Blank	0	15	2	0	0	distractor	1	443	779	266777	13.328	12.842	13.843
ProbeTrack13	5	ProbeTrack	13.2	SCS215b	20111102.104139	20111102.104315	8	0.013328	60	10	60-180	60	101	GapExp	Blank	0	16	2	45	0	distractor	1	442	779	267556	13.328	13.084	13.569
ProbeTrack13	5	ProbeTrack	13.2	SCS215b	20111102.104139	20111102.104322	8	0.013328	60	10	60-180	60	176	GapExp	Blank	0	17	2	1	0	distractor	1	465	768	268324	13.328	6.689	19.982
ProbeTrack13	5	ProbeTrack	13.2	SCS215b	20111102.104139	20111102.104329	8	0.013328	60	10	60-180	60	154	GapExp	Blank	0	18	2	3	0	distractor	1	428	786	269110	13.328	11.736	14.931
ProbeTrack13	5	ProbeTrack	13.2	SCS215b	20111102.104139	20111102.104336	8	0.013328	60	10	60-180	60	143	GapExp	Blank	0	19	2	0	1	distractor	0	368	-1000	268110	13.328	13.100	13.553
ProbeTrack13	5	ProbeTrack	13.2	SCS215b	20111102.104139	20111102.104342	8	0.013328	60	10	60-180	60	142	GapExp	Blank	0	20	2	1	0	target	0	383	-1000	267110	13.328	10.127	16.546
ProbeTrack13	5	ProbeTrack	13.2	SCS215b	20111102.104139	20111102.104348	8	0.013328	60	10	60-180	60	156	GapExp	Blank	0	21	2	1	0	distractor	1	528	736	267846	13.328	13.297	13.375
ProbeTrack13	5	ProbeTrack	13.2	SCS215b	20111102.104139	20111102.104355	8	0.013328	60	10	60-180	60	105	GapExp	Blank	0	22	2	3	0	distractor	1	558	721	268567	13.385	6.615	26.488
ProbeTrack13	5	ProbeTrack	13.2	SCS215b	20111102.104139	20111102.104401	8	0.013328	60	10	60-180	60	64	GapExp	Blank	0	23	2	1	1	target	1	614	693	269260	13.328	10.491	16.163
ProbeTrack13	5	ProbeTrack	13.2	SCS215b	20111102.104139	20111102.104406	8	0.013328	60	10	60-180	60	63	GapExp	Blank	0	24	2	3	1	target	1	464	768	270028	13.328	13.100	13.571
ProbeTrack13	5	ProbeTrack	13.2	SCS215b	20111102.104139	20111102.104411	8	0.013328	60	10	60-180	60	143	GapExp	Blank	0	25	2	45	1	target	1	527	737	270765	13.328	10.436	16.213
ProbeTrack13	5	ProbeTrack	13.2	SCS215b	20111102.104139	20111102.104418	8	0.013328	60	10	60-180	60	69	GapExp	Blank	0	26	2	45	1	target	1	447	777	271542	13.328	13.309	13.351
ProbeTrack13	5	ProbeTrack	13.2	SCS215b	20111102.104139	20111102.104424	8	0.013328	60	10	60-180	60	71	GapExp	Blank	0	27	2	45	1	target	1	500	750	272292	13.328	3.345	23.310
ProbeTrack13	5	ProbeTrack	13.2	SCS215b	20111102.104139	20111102.104430	8	0.013328	60	10	60-180	60	72	GapExp	Blank	0	28	2	3	0	distractor	1	508	746	273038	13.328	11.985	14.668
ProbeTrack13	5	ProbeTrack	13.2	SCS215b	20111102.104139	20111102.104436	8	0.013328	60	10	60-180	60	169	GapExp	Blank	0	29	2	3	0	target	0	578	-1000	272038	13.328	6.794	19.856
ProbeTrack13	5	ProbeTrack	13.2	SCS215b	20111102.104139	20111102.104442	8	0.013328	60	10	60-180	60	122	GapExp	Blank	0	30	2	45	0	distractor	1	472	764	272802	13.374	5.379	25.364
ProbeTrack13	5	ProbeTrack	13.2	SCS215b	20111102.104139	20111102.104449	8	0.013328	60	10	60-180	60	81	GapExp	Blank	0	31	2	45	0	distractor	1	889	556	273358	13.328	13.306	13.364
ProbeTrack13	5	ProbeTrack	13.2	SCS215b	20111102.104139	20111102.104455	8	0.013328	60	10	60-180	60	137	GapExp	Blank	0	32	2	3	1	target	1	509	746	274104	13.328	13.303	13.348
ProbeTrack13	5	ProbeTrack	13.2	SCS215b	20111102.104139	20111102.104502	8	0.013328	60	10	60-180	60	70	GapExp	Blank	0	33	2	1	1	target	1	473	764	274868	13.328	13.103	13.549
ProbeTrack13	5	ProbeTrack	13.2	SCS215b	20111102.104139	20111102.104507	8	0.013328	60	10	60-180	60	130	GapExp	Blank	0	34	2	1	1	target	1	454	773	275641	13.328	12.678	13.980
ProbeTrack13	5	ProbeTrack	13.2	SCS215b	20111102.104139	20111102.104513	8	0.013328	60	10	60-180	60	133	GapExp	Blank	0	35	2	1	1	distractor	0	364	-1000	274641	13.328	9.440	17.219
ProbeTrack13	5	ProbeTrack	13.2	SCS215b	20111102.104139	20111102.104519	8	0.013328	60	10	60-180	60	64	GapExp	Blank	0	36	2	3	1	target	1	500	750	275391	13.398	11.420	20.112
ProbeTrack13	5	ProbeTrack	13.2	SCS215b	20111102.104139	20111102.104525	8	0.013328	60	10	60-180	60	117	GapExp	Blank	0	37	2	45	0	distractor	1	597	702	276093	13.373	13.135	24.925
ProbeTrack13	5	ProbeTrack	13.2	SCS215b	20111102.104139	20111102.104531	8	0.013328	60	10	60-180	60	65	GapExp	Blank	0	38	2	45	0	distractor	1	688	656	276749	13.328	11.140	15.506
ProbeTrack13	5	ProbeTrack	13.2	SCS215b	20111102.104139	20111102.104538	8	0.013328	60	10	60-180	60	82	GapExp	Blank	0	39	2	3	0	distractor	1	518	741	277490	13.328	12.861	13.812
ProbeTrack13	5	ProbeTrack	13.2	SCS215b	20111102.104139	20111102.104545	8	0.013328	60	10	60-180	60	80	GapExp	Blank	0	40	2	45	1	target	1	524	738	278228	13.328	13.309	13.353
ProbeTrack13	5	ProbeTrack	13.2	SCS215b	20111102.104139	20111102.104551	8	0.013328	60	10	60-180	60	111	GapExp	Blank	0	41	2	1	1	target	1	591	705	278933	13.328	9.448	17.226
ProbeTrack13	5	ProbeTrack	13.2	SCS215b	20111102.104139	20111102.104557	8	0.013328	60	10	60-180	60	168	GapExp	Blank	0	42	2	1	1	target	1	456	772	279705	13.328	9.547	17.097
ProbeTrack13	5	ProbeTrack	13.2	SCS215b	20111102.104139	20111102.104604	8	0.013328	60	10	60-180	60	126	GapExp	Blank	0	43	2	1	0	distractor	1	587	707	280412	13.380	13.082	25.369
ProbeTrack13	5	ProbeTrack	13.2	SCS215b	20111102.104139	20111102.104610	8	0.013328	60	10	60-180	60	108	GapExp	Blank	0	44	2	3	0	distractor	1	516	742	281154	13.328	13.107	13.550
ProbeTrack13	5	ProbeTrack	13.2	SCS215b	20111102.104139	20111102.104616	8	0.013328	60	10	60-180	60	112	GapExp	Blank	0	45	2	3	1	target	1	605	698	281852	13.328	10.716	15.936
ProbeTrack13	5	ProbeTrack	13.2	SCS215b	20111102.104139	20111102.104622	8	0.013328	60	10	60-180	60	133	GapExp	Blank	0	46	2	0	1	target	1	732	634	282486	13.328	12.672	13.974
ProbeTrack13	5	ProbeTrack	13.2	SCS215b	20111102.104139	20111102.104628	8	0.013328	60	10	60-180	60	127	GapExp	Blank	0	47	2	45	1	distractor	0	697	-1000	281486	13.328	13.289	13.362
ProbeTrack13	5	ProbeTrack	13.2	SCS215b	20111102.104139	20111102.104635	8	0.013328	60	10	60-180	60	103	GapExp	Blank	0	48	2	1	1	target	1	455	773	282259	13.387	12.997	22.480
ProbeTrack13	5	ProbeTrack	13.2	SCS215b	20111102.104139	20111102.104642	8	0.013328	60	10	60-180	60	97	GapExp	Blank	0	49	2	1	0	target	0	880	-1000	281259	13.328	8.189	18.460
ProbeTrack13	5	ProbeTrack	13.2	SCS215b	20111102.104139	20111102.104648	8	0.013328	60	10	60-180	60	104	GapExp	Blank	0	50	2	0	1	target	1	547	727	281986	13.328	13.100	13.547
ProbeTrack13	5	ProbeTrack	13.2	SCS215b	20111102.104139	20111102.104653	8	0.013328	60	10	60-180	60	124	GapExp	Blank	0	51	2	0	0	distractor	1	593	704	282690	13.328	12.876	13.774
ProbeTrack13	5	ProbeTrack	13.2	SCS215b	20111102.104139	20111102.104659	8	0.013328	60	10	60-180	60	131	GapExp	Blank	0	52	2	0	1	target	1	816	592	283282	13.328	7.941	18.710
ProbeTrack13	5	ProbeTrack	13.2	SCS215b	20111102.104139	20111102.104706	8	0.013328	60	10	60-180	60	143	GapExp	Blank	0	53	2	0	0	target	0	525	-1000	282282	13.328	8.499	18.156
ProbeTrack13	5	ProbeTrack	13.2	SCS215b	20111102.104139	20111102.104713	8	0.013328	60	10	60-180	60	132	GapExp	Blank	0	54	2	3	0	distractor	1	707	647	282929	13.376	9.036	21.134
ProbeTrack13	5	ProbeTrack	13.2	SCS215b	20111102.104139	20111102.104719	8	0.013328	60	10	60-180	60	140	GapExp	Blank	0	55	2	0	0	distractor	1	463	769	283698	13.328	12.036	14.615
ProbeTrack13	5	ProbeTrack	13.2	SCS215b	20111102.104139	20111102.104725	8	0.013328	60	10	60-180	60	79	GapExp	Blank	0	56	2	0	0	distractor	1	490	755	284453	13.328	13.296	13.355
ProbeTrack13	5	ProbeTrack	13.2	SCS215b	20111102.104139	20111102.104730	8	0.013328	60	10	60-180	60	166	GapExp	Blank	0	57	2	1	1	target	1	734	633	285086	13.328	9.022	17.614
ProbeTrack13	5	ProbeTrack	13.2	SCS215b	20111102.104139	20111102.104737	8	0.013328	60	10	60-180	60	115	GapExp	Blank	0	58	2	1	1	target	1	478	761	285847	13.440	7.087	26.517
ProbeTrack13	5	ProbeTrack	13.2	SCS215b	20111102.104139	20111102.104743	8	0.013328	60	10	60-180	60	61	GapExp	Blank	0	59	2	1	1	target	1	463	769	286616	13.328	13.101	13.550
ProbeTrack13	5	ProbeTrack	13.2	SCS215b	20111102.104139	20111102.104749	8	0.013328	60	10	60-180	60	67	GapExp	Blank	0	60	2	0	0	distractor	1	872	564	287180	13.454	7.544	39.634
ProbeTrack13	5	ProbeTrack	13.2	SCS215b	20111102.104139	20111102.104754	8	0.013328	60	10	60-180	60	123	GapExp	Blank	0	61	2	0	0	distractor	1	551	725	287905	13.328	12.661	13.991
ProbeTrack13	5	ProbeTrack	13.2	SCS215b	20111102.104139	20111102.104800	8	0.013328	60	10	60-180	60	120	GapExp	Blank	0	62	2	45	0	distractor	1	509	746	288651	13.328	10.395	16.372
ProbeTrack13	5	ProbeTrack	13.2	SCS215b	20111102.104139	20111102.104807	8	0.013328	60	10	60-180	60	98	GapExp	Blank	0	63	2	1	1	target	1	582	709	289360	13.328	13.161	13.492
ProbeTrack13	5	ProbeTrack	13.2	SCS215b	20111102.104139	20111102.104813	8	0.013328	60	10	60-180	60	78	GapExp	Blank	0	64	2	45	0	distractor	1	572	714	290074	13.381	9.676	24.100
ProbeTrack13	5	ProbeTrack	13.2	SCS215b	20111102.104139	20111102.104819	8	0.013328	60	10	60-180	60	99	GapExp	Blank	0	65	2	0	0	target	0	899	-1000	289074	13.383	8.340	26.522
ProbeTrack13	5	ProbeTrack	13.2	SCS215b	20111102.104139	20111102.104825	8	0.013328	60	10	60-180	60	70	GapExp	Blank	0	66	2	0	0	distractor	1	501	750	289824	13.328	10.649	15.998
ProbeTrack13	5	ProbeTrack	13.2	SCS215b	20111102.104139	20111102.104830	8	0.013328	60	10	60-180	60	175	GapExp	Blank	0	67	2	1	0	distractor	1	524	738	290562	13.328	9.049	17.603
