exp	sub	code	rev	comp	runtime	trialtime	nstim	refreshdur	cuedur	gapdur	gapOnsetRange	durPostProbe	gapOnsetTime	blocktype	gaptype	prac	trial	ntargets	soa	probeTarget	resp	acc	rt	pts	tpts	meanFrameDur	minFrameDur	maxFrameDur
ProbeTrack13	11	ProbeTrack	13.2	SCS215b	20111104.133629	20111104.133656	8	0.013328	60	0	60-180	60	122	NoGap	None	1	1	2	1	0	target	0	577	-1000	-1000	13.383	13.091	13.556
ProbeTrack13	11	ProbeTrack	13.2	SCS215b	20111104.133629	20111104.133736	8	0.013328	60	0	60-180	60	85	NoGap	None	1	2	2	3	0	distractor	1	710	645	-355	13.328	12.695	13.962
ProbeTrack13	11	ProbeTrack	13.2	SCS215b	20111104.133629	20111104.133744	8	0.013328	60	0	60-180	60	155	NoGap	None	1	3	2	1	1	target	1	676	662	307	13.328	13.089	13.558
ProbeTrack13	11	ProbeTrack	13.2	SCS215b	20111104.133629	20111104.133804	8	0.013328	60	0	60-180	60	165	NoGap	None	1	4	2	45	0	distractor	1	934	533	840	13.328	6.854	19.808
ProbeTrack13	11	ProbeTrack	13.2	SCS215b	20111104.133629	20111104.133825	8	0.013328	60	0	60-180	60	115	NoGap	None	1	5	2	45	0	distractor	1	590	705	1545	13.328	13.083	13.578
ProbeTrack13	11	ProbeTrack	13.2	SCS215b	20111104.133629	20111104.133832	8	0.013328	60	0	60-180	60	160	NoGap	None	1	6	2	45	0	distractor	1	648	676	2221	13.328	9.669	16.991
ProbeTrack13	11	ProbeTrack	13.2	SCS215b	20111104.133629	20111104.133839	8	0.013328	60	0	60-180	60	154	NoGap	None	1	7	2	3	0	distractor	1	630	685	2906	13.328	11.991	14.661
ProbeTrack13	11	ProbeTrack	13.2	SCS215b	20111104.133629	20111104.133846	8	0.013328	60	0	60-180	60	143	NoGap	None	1	8	2	1	0	distractor	1	677	662	3568	13.328	12.265	14.415
ProbeTrack13	11	ProbeTrack	13.2	SCS215b	20111104.133629	20111104.133853	8	0.013328	60	0	60-180	60	157	NoGap	None	1	9	2	3	1	target	1	428	786	4354	13.328	13.179	13.466
ProbeTrack13	11	ProbeTrack	13.2	SCS215b	20111104.133629	20111104.133900	8	0.013328	60	0	60-180	60	166	NoGap	None	1	10	2	1	0	distractor	1	592	704	5058	13.328	7.386	19.267
ProbeTrack13	11	ProbeTrack	13.2	SCS215b	20111104.133629	20111104.133907	8	0.013328	60	0	60-180	60	120	NoGap	None	1	11	2	45	0	distractor	1	432	784	5842	13.328	12.401	14.239
ProbeTrack13	11	ProbeTrack	13.2	SCS215b	20111104.133629	20111104.133914	8	0.013328	60	0	60-180	60	73	NoGap	None	1	12	2	3	0	distractor	1	569	716	6558	13.328	13.094	13.572
ProbeTrack13	11	ProbeTrack	13.2	SCS215b	20111104.133629	20111104.133920	8	0.013328	60	0	60-180	60	122	NoGap	None	1	13	2	45	0	distractor	1	602	699	7257	13.328	13.087	13.573
ProbeTrack13	11	ProbeTrack	13.2	SCS215b	20111104.133629	20111104.133926	8	0.013328	60	0	60-180	60	160	NoGap	None	1	14	2	0	0	distractor	1	537	732	7989	13.328	10.914	15.748
ProbeTrack13	11	ProbeTrack	13.2	SCS215b	20111104.133629	20111104.133936	8	0.013328	60	0	60-180	60	145	NoGap	None	1	15	2	1	1	target	1	562	719	8708	13.328	10.020	16.657
ProbeTrack13	11	ProbeTrack	13.2	SCS215b	20111104.133629	20111104.133943	8	0.013328	60	0	60-180	60	148	NoGap	None	1	16	2	45	1	target	1	405	798	9506	13.328	11.315	15.349
ProbeTrack13	11	ProbeTrack	13.2	SCS215b	20111104.133629	20111104.133950	8	0.013328	60	0	60-180	60	95	NoGap	None	1	17	2	0	1	target	1	420	790	10296	13.328	4.371	20.170
ProbeTrack13	11	ProbeTrack	13.2	SCS215b	20111104.133629	20111104.133956	8	0.013328	60	0	60-180	60	126	NoGap	None	1	18	2	45	1	target	1	443	779	11075	13.328	10.709	15.956
ProbeTrack13	11	ProbeTrack	13.2	SCS215b	20111104.133629	20111104.134003	8	0.013328	60	0	60-180	60	120	NoGap	None	1	19	2	1	1	target	1	449	776	11851	13.328	6.939	19.724
ProbeTrack13	11	ProbeTrack	13.2	SCS215b	20111104.133629	20111104.134009	8	0.013328	60	0	60-180	60	96	NoGap	None	1	20	2	0	1	target	1	381	810	12661	13.328	13.282	13.392
ProbeTrack13	11	ProbeTrack	13.2	SCS215b	20111104.133629	20111104.134014	8	0.013328	60	0	60-180	60	127	NoGap	None	1	21	2	0	0	distractor	1	452	774	13435	13.328	13.304	13.357
ProbeTrack13	11	ProbeTrack	13.2	SCS215b	20111104.133629	20111104.134020	8	0.013328	60	0	60-180	60	67	NoGap	None	1	22	2	45	1	target	1	447	777	14212	13.328	13.285	13.371
ProbeTrack13	11	ProbeTrack	13.2	SCS215b	20111104.133629	20111104.134027	8	0.013328	60	0	60-180	60	118	NoGap	None	1	23	2	0	1	target	1	396	802	15014	13.328	13.296	13.361
ProbeTrack13	11	ProbeTrack	13.2	SCS215b	20111104.133629	20111104.134033	8	0.013328	60	0	60-180	60	87	NoGap	None	1	24	2	3	1	target	1	410	795	15809	13.328	13.298	13.368
ProbeTrack13	11	ProbeTrack	13.2	SCS215b	20111104.133629	20111104.134039	8	0.013328	60	0	60-180	60	155	NoGap	None	1	25	2	45	1	target	1	393	804	16613	13.372	10.583	23.715
ProbeTrack13	11	ProbeTrack	13.2	SCS215b	20111104.133629	20111104.134046	8	0.013328	60	0	60-180	60	65	NoGap	None	1	26	2	3	0	distractor	1	527	737	17350	13.328	13.305	13.350
ProbeTrack13	11	ProbeTrack	13.2	SCS215b	20111104.133629	20111104.134120	8	0.013328	60	0	60-180	60	111	NoGap	None	1	27	2	3	1	target	1	404	798	18148	13.328	10.653	15.982
ProbeTrack13	11	ProbeTrack	13.2	SCS215b	20111104.133629	20111104.134126	8	0.013328	60	0	60-180	60	120	NoGap	None	1	28	2	0	1	distractor	0	391	-1000	17148	13.328	8.748	17.592
ProbeTrack13	11	ProbeTrack	13.2	SCS215b	20111104.133629	20111104.134132	8	0.013328	60	0	60-180	60	74	NoGap	None	1	29	2	45	1	target	1	387	807	17955	13.328	5.065	21.602
ProbeTrack13	11	ProbeTrack	13.2	SCS215b	20111104.133629	20111104.134138	8	0.013328	60	0	60-180	60	116	NoGap	None	1	30	2	0	1	target	1	402	799	18754	13.328	13.104	13.557
ProbeTrack13	11	ProbeTrack	13.2	SCS215b	20111104.133629	20111104.134202	8	0.013328	60	0	60-180	60	66	NoGap	None	1	31	2	1	1	target	1	391	805	19559	13.328	12.862	13.803
ProbeTrack13	11	ProbeTrack	13.2	SCS215b	20111104.133629	20111104.134207	8	0.013328	60	0	60-180	60	83	NoGap	None	1	32	2	3	1	target	1	382	809	20368	13.328	13.063	13.589
ProbeTrack13	11	ProbeTrack	13.2	SCS215b	20111104.133629	20111104.134212	8	0.013328	60	0	60-180	60	122	NoGap	None	1	33	2	3	1	target	1	363	819	21187	13.328	12.498	14.171
ProbeTrack13	11	ProbeTrack	13.2	SCS215b	20111104.133629	20111104.134220	8	0.013328	60	0	60-180	60	165	NoGap	None	1	34	2	1	1	target	1	451	775	21962	13.328	12.532	14.043
ProbeTrack13	11	ProbeTrack	13.2	SCS215b	20111104.133629	20111104.134227	8	0.013328	60	0	60-180	60	79	NoGap	None	1	35	2	0	0	distractor	1	594	703	22665	13.328	13.271	13.368
ProbeTrack13	11	ProbeTrack	13.2	SCS215b	20111104.133629	20111104.134233	8	0.013328	60	0	60-180	60	83	NoGap	None	1	36	2	0	0	distractor	1	617	692	23357	13.328	9.168	17.496
ProbeTrack13	11	ProbeTrack	13.2	SCS215b	20111104.133629	20111104.134239	8	0.013328	60	0	60-180	60	62	NoGap	None	1	37	2	1	0	distractor	1	619	691	24048	13.328	13.109	13.539
ProbeTrack13	11	ProbeTrack	13.2	SCS215b	20111104.133629	20111104.134244	8	0.013328	60	0	60-180	60	100	NoGap	None	1	38	2	3	0	distractor	1	530	735	24783	13.328	7.908	18.741
ProbeTrack13	11	ProbeTrack	13.2	SCS215b	20111104.133629	20111104.134250	8	0.013328	60	0	60-180	60	83	NoGap	None	1	39	2	1	0	distractor	1	520	740	25523	13.328	13.303	13.350
ProbeTrack13	11	ProbeTrack	13.2	SCS215b	20111104.133629	20111104.134255	8	0.013328	60	0	60-180	60	174	NoGap	None	1	40	2	0	0	distractor	1	534	733	26256	13.328	12.795	13.621
ProbeTrack13	11	ProbeTrack	13.2	SCS215b	20111104.134501	20111104.134530	8	0.013328	60	10	60-180	60	65	GapPrac	BigFlash	1	1	2	0	1	target	1	490	755	27011	13.399	8.960	17.694
ProbeTrack13	11	ProbeTrack	13.2	SCS215b	20111104.134501	20111104.134537	8	0.013328	60	10	60-180	60	106	GapPrac	BigFlash	1	2	2	0	0	distractor	1	648	676	27687	13.328	8.283	18.378
ProbeTrack13	11	ProbeTrack	13.2	SCS215b	20111104.134501	20111104.134545	8	0.013328	60	10	60-180	60	116	GapPrac	BigFlash	1	3	2	1	1	target	1	683	659	28346	13.328	12.815	13.827
ProbeTrack13	11	ProbeTrack	13.2	SCS215b	20111104.134501	20111104.134551	8	0.013328	60	10	60-180	60	138	GapPrac	BigFlash	1	4	2	1	0	distractor	1	534	733	29079	13.328	12.178	14.466
ProbeTrack13	11	ProbeTrack	13.2	SCS215b	20111104.134501	20111104.134559	8	0.013328	60	10	60-180	60	160	GapPrac	BigFlash	1	5	2	0	1	target	1	712	644	29723	13.328	8.421	18.229
ProbeTrack13	11	ProbeTrack	13.2	SCS215b	20111104.134501	20111104.134606	8	0.013328	60	10	60-180	60	130	GapPrac	BigFlash	1	6	2	0	1	target	1	478	761	30484	13.328	10.075	16.572
ProbeTrack13	11	ProbeTrack	13.2	SCS215b	20111104.134501	20111104.134613	8	0.013328	60	10	60-180	60	83	GapPrac	BigFlash	1	7	2	3	0	distractor	1	543	729	31213	13.328	13.302	13.358
ProbeTrack13	11	ProbeTrack	13.2	SCS215b	20111104.134501	20111104.134618	8	0.013328	60	10	60-180	60	117	GapPrac	BigFlash	1	8	2	45	1	target	1	569	716	31929	13.328	13.103	13.554
ProbeTrack13	11	ProbeTrack	13.2	SCS215b	20111104.134501	20111104.134626	8	0.013328	60	10	60-180	60	145	GapPrac	BigFlash	1	9	2	1	0	distractor	1	486	757	32686	13.328	11.968	14.675
ProbeTrack13	11	ProbeTrack	13.2	SCS215b	20111104.134501	20111104.134632	8	0.013328	60	10	60-180	60	85	GapPrac	BigFlash	1	10	2	3	1	target	1	521	740	33426	13.328	4.241	22.423
ProbeTrack13	11	ProbeTrack	13.2	SCS215b	20111104.134501	20111104.134638	8	0.013328	60	10	60-180	60	137	GapPrac	BigFlash	1	11	2	3	0	distractor	1	496	752	34178	13.328	13.303	13.356
ProbeTrack13	11	ProbeTrack	13.2	SCS215b	20111104.134501	20111104.134644	8	0.013328	60	10	60-180	60	179	GapPrac	BigFlash	1	12	2	3	1	target	1	346	827	35005	13.328	3.500	23.147
ProbeTrack13	11	ProbeTrack	13.2	SCS215b	20111104.134501	20111104.134651	8	0.013328	60	10	60-180	60	172	GapPrac	BigFlash	1	13	2	0	0	distractor	1	402	799	35804	13.328	9.486	17.155
ProbeTrack13	11	ProbeTrack	13.2	SCS215b	20111104.134501	20111104.134658	8	0.013328	60	10	60-180	60	80	GapPrac	BigFlash	1	14	2	45	1	target	1	378	811	36615	13.328	10.669	15.984
ProbeTrack13	11	ProbeTrack	13.2	SCS215b	20111104.134501	20111104.134704	8	0.013328	60	10	60-180	60	126	GapPrac	BigFlash	1	15	2	0	0	distractor	1	520	740	37355	13.328	10.033	16.626
ProbeTrack13	11	ProbeTrack	13.2	SCS215b	20111104.134501	20111104.134710	8	0.013328	60	10	60-180	60	70	GapPrac	BigFlash	1	16	2	1	1	target	1	540	730	38085	13.328	12.700	13.966
ProbeTrack13	11	ProbeTrack	13.2	SCS215b	20111104.134501	20111104.134715	8	0.013328	60	10	60-180	60	89	GapPrac	BigFlash	1	17	2	45	0	distractor	1	444	778	38863	13.335	13.090	15.189
ProbeTrack13	11	ProbeTrack	13.2	SCS215b	20111104.134501	20111104.134722	8	0.013328	60	10	60-180	60	97	GapPrac	BigFlash	1	18	2	1	0	distractor	1	442	779	39642	13.328	13.030	13.634
ProbeTrack13	11	ProbeTrack	13.2	SCS215b	20111104.134501	20111104.134728	8	0.013328	60	10	60-180	60	100	GapPrac	BigFlash	1	19	2	45	0	distractor	1	479	761	40403	13.328	6.304	20.353
ProbeTrack13	11	ProbeTrack	13.2	SCS215b	20111104.134501	20111104.134735	8	0.013328	60	10	60-180	60	147	GapPrac	BigFlash	1	20	2	1	1	target	1	442	779	41182	13.328	8.089	18.581
ProbeTrack13	11	ProbeTrack	13.2	SCS215b	20111104.134818	20111104.134852	8	0.013328	60	10	60-180	60	99	GapExp	BigFlash	1	1	2	0	0	distractor	1	488	756	41938	13.388	11.577	15.091
ProbeTrack13	11	ProbeTrack	13.2	SCS215b	20111104.134818	20111104.134859	8	0.013328	60	10	60-180	60	86	GapExp	BigFlash	1	2	2	1	1	target	1	468	766	42704	13.328	13.048	13.612
ProbeTrack13	11	ProbeTrack	13.2	SCS215b	20111104.134818	20111104.134904	8	0.013328	60	10	60-180	60	100	GapExp	BigFlash	1	3	2	0	1	target	1	473	764	43468	13.328	13.246	13.418
ProbeTrack13	11	ProbeTrack	13.2	SCS215b	20111104.134818	20111104.134910	8	0.013328	60	10	60-180	60	68	GapExp	BigFlash	1	4	2	3	0	distractor	1	496	752	44220	13.328	13.121	13.532
ProbeTrack13	11	ProbeTrack	13.2	SCS215b	20111104.134818	20111104.134915	8	0.013328	60	10	60-180	60	169	GapExp	BigFlash	1	5	2	3	1	target	1	423	789	45009	13.328	13.195	13.461
ProbeTrack13	11	ProbeTrack	13.2	SCS215b	20111104.134818	20111104.134925	8	0.013328	60	10	60-180	60	86	GapExp	BigFlash	1	6	2	45	1	target	1	441	780	45789	13.328	9.069	17.600
ProbeTrack13	11	ProbeTrack	13.2	SCS215b	20111104.134818	20111104.134932	8	0.013328	60	10	60-180	60	71	GapExp	BigFlash	1	7	2	1	0	distractor	1	530	735	46524	13.328	5.420	21.236
ProbeTrack13	11	ProbeTrack	13.2	SCS215b	20111104.134818	20111104.134937	8	0.013328	60	10	60-180	60	63	GapExp	BigFlash	1	8	2	45	0	distractor	1	477	762	47286	13.328	6.808	19.833
ProbeTrack13	11	ProbeTrack	13.2	SCS215b	20111104.134818	20111104.134943	8	0.013328	60	10	60-180	60	149	GapExp	BigFlash	0	9	2	45	1	target	1	376	812	48098	13.328	7.743	18.904
ProbeTrack13	11	ProbeTrack	13.2	SCS215b	20111104.134818	20111104.134950	8	0.013328	60	10	60-180	60	172	GapExp	BigFlash	0	10	2	1	0	distractor	1	515	743	48841	13.328	4.111	22.542
ProbeTrack13	11	ProbeTrack	13.2	SCS215b	20111104.134818	20111104.134957	8	0.013328	60	10	60-180	60	87	GapExp	BigFlash	0	11	2	45	0	distractor	1	556	722	49563	13.328	12.729	13.936
ProbeTrack13	11	ProbeTrack	13.2	SCS215b	20111104.134818	20111104.135003	8	0.013328	60	10	60-180	60	81	GapExp	BigFlash	0	12	2	0	0	distractor	1	624	688	50251	13.328	5.584	21.063
ProbeTrack13	11	ProbeTrack	13.2	SCS215b	20111104.134818	20111104.135039	8	0.013328	60	10	60-180	60	128	GapExp	BigFlash	0	13	2	3	1	target	1	455	773	51024	13.328	10.462	16.218
ProbeTrack13	11	ProbeTrack	13.2	SCS215b	20111104.134818	20111104.135046	8	0.013328	60	10	60-180	60	128	GapExp	BigFlash	0	14	2	45	1	target	1	347	827	51851	13.328	13.105	13.539
ProbeTrack13	11	ProbeTrack	13.2	SCS215b	20111104.134818	20111104.135053	8	0.013328	60	10	60-180	60	178	GapExp	BigFlash	0	15	2	3	0	distractor	1	545	728	52579	13.328	11.385	15.279
ProbeTrack13	11	ProbeTrack	13.2	SCS215b	20111104.134818	20111104.135100	8	0.013328	60	10	60-180	60	63	GapExp	BigFlash	0	16	2	45	0	distractor	1	429	786	53365	13.328	10.621	16.055
ProbeTrack13	11	ProbeTrack	13.2	SCS215b	20111104.134818	20111104.135105	8	0.013328	60	10	60-180	60	109	GapExp	BigFlash	0	17	2	45	1	target	1	386	807	54172	13.328	13.298	13.375
ProbeTrack13	11	ProbeTrack	13.2	SCS215b	20111104.134818	20111104.135114	8	0.013328	60	10	60-180	60	147	GapExp	BigFlash	0	18	2	0	1	target	1	398	801	54973	13.328	13.106	13.551
ProbeTrack13	11	ProbeTrack	13.2	SCS215b	20111104.134818	20111104.135121	8	0.013328	60	10	60-180	60	123	GapExp	BigFlash	0	19	2	0	1	target	1	423	789	55762	13.328	11.065	15.599
ProbeTrack13	11	ProbeTrack	13.2	SCS215b	20111104.134818	20111104.135127	8	0.013328	60	10	60-180	60	168	GapExp	BigFlash	0	20	2	3	0	distractor	1	608	696	56458	13.328	12.032	14.645
ProbeTrack13	11	ProbeTrack	13.2	SCS215b	20111104.134818	20111104.135134	8	0.013328	60	10	60-180	60	131	GapExp	BigFlash	0	21	2	0	0	distractor	1	728	636	57094	13.328	6.841	19.823
ProbeTrack13	11	ProbeTrack	13.2	SCS215b	20111104.134818	20111104.135140	8	0.013328	60	10	60-180	60	124	GapExp	BigFlash	0	22	2	45	1	target	1	458	771	57865	13.328	8.744	17.921
ProbeTrack13	11	ProbeTrack	13.2	SCS215b	20111104.134818	20111104.135147	8	0.013328	60	10	60-180	60	130	GapExp	BigFlash	0	23	2	45	1	target	1	451	775	58640	13.328	8.326	18.334
ProbeTrack13	11	ProbeTrack	13.2	SCS215b	20111104.134818	20111104.135154	8	0.013328	60	10	60-180	60	77	GapExp	BigFlash	0	24	2	1	1	target	1	435	783	59423	13.328	13.294	13.359
ProbeTrack13	11	ProbeTrack	13.2	SCS215b	20111104.134818	20111104.135159	8	0.013328	60	10	60-180	60	115	GapExp	BigFlash	0	25	2	1	1	target	1	356	822	60245	13.328	8.275	18.366
ProbeTrack13	11	ProbeTrack	13.2	SCS215b	20111104.134818	20111104.135206	8	0.013328	60	10	60-180	60	108	GapExp	BigFlash	0	26	2	1	0	distractor	1	437	782	61027	13.328	13.301	13.353
ProbeTrack13	11	ProbeTrack	13.2	SCS215b	20111104.134818	20111104.135212	8	0.013328	60	10	60-180	60	174	GapExp	BigFlash	0	27	2	45	0	distractor	1	435	783	61810	13.328	5.190	21.481
ProbeTrack13	11	ProbeTrack	13.2	SCS215b	20111104.134818	20111104.135219	8	0.013328	60	10	60-180	60	160	GapExp	BigFlash	0	28	2	3	1	target	1	386	807	62617	13.328	10.348	16.322
ProbeTrack13	11	ProbeTrack	13.2	SCS215b	20111104.134818	20111104.135226	8	0.013328	60	10	60-180	60	96	GapExp	BigFlash	0	29	2	45	1	target	1	369	816	63433	13.328	7.229	19.419
ProbeTrack13	11	ProbeTrack	13.2	SCS215b	20111104.134818	20111104.135232	8	0.013328	60	10	60-180	60	113	GapExp	BigFlash	0	30	2	3	0	distractor	1	449	776	64209	13.328	6.774	19.880
ProbeTrack13	11	ProbeTrack	13.2	SCS215b	20111104.134818	20111104.135238	8	0.013328	60	10	60-180	60	147	GapExp	BigFlash	0	31	2	45	0	distractor	1	417	792	65001	13.328	10.184	16.463
ProbeTrack13	11	ProbeTrack	13.2	SCS215b	20111104.134818	20111104.135244	8	0.013328	60	10	60-180	60	73	GapExp	BigFlash	0	32	2	45	1	target	1	360	820	65821	13.328	13.247	13.409
ProbeTrack13	11	ProbeTrack	13.2	SCS215b	20111104.134818	20111104.135251	8	0.013328	60	10	60-180	60	143	GapExp	BigFlash	0	33	2	3	0	distractor	1	486	757	66578	13.328	13.005	13.642
ProbeTrack13	11	ProbeTrack	13.2	SCS215b	20111104.134818	20111104.135300	8	0.013328	60	10	60-180	60	178	GapExp	BigFlash	0	34	2	45	1	target	1	316	842	67420	13.328	5.565	21.112
ProbeTrack13	11	ProbeTrack	13.2	SCS215b	20111104.134818	20111104.135308	8	0.013328	60	10	60-180	60	94	GapExp	BigFlash	0	35	2	3	1	target	1	340	830	68250	13.328	13.096	13.568
ProbeTrack13	11	ProbeTrack	13.2	SCS215b	20111104.134818	20111104.135356	8	0.013328	60	10	60-180	60	150	GapExp	BigFlash	0	36	2	0	1	target	1	216	892	69142	13.328	13.108	13.558
ProbeTrack13	11	ProbeTrack	13.2	SCS215b	20111104.134818	20111104.135403	8	0.013328	60	10	60-180	60	108	GapExp	BigFlash	0	37	2	3	0	distractor	1	383	809	69951	13.328	13.201	13.463
ProbeTrack13	11	ProbeTrack	13.2	SCS215b	20111104.134818	20111104.135408	8	0.013328	60	10	60-180	60	98	GapExp	BigFlash	0	38	2	3	0	target	0	365	-1000	68951	13.328	13.299	13.357
ProbeTrack13	11	ProbeTrack	13.2	SCS215b	20111104.134818	20111104.135414	8	0.013328	60	10	60-180	60	122	GapExp	BigFlash	0	39	2	45	0	distractor	1	465	768	69719	13.328	10.530	16.120
ProbeTrack13	11	ProbeTrack	13.2	SCS215b	20111104.134818	20111104.135420	8	0.013328	60	10	60-180	60	97	GapExp	BigFlash	0	40	2	1	0	distractor	1	425	788	70507	13.328	11.859	14.813
ProbeTrack13	11	ProbeTrack	13.2	SCS215b	20111104.134818	20111104.135426	8	0.013328	60	10	60-180	60	97	GapExp	BigFlash	0	41	2	45	0	distractor	1	391	805	71312	13.328	13.167	13.486
ProbeTrack13	11	ProbeTrack	13.2	SCS215b	20111104.134818	20111104.135433	8	0.013328	60	10	60-180	60	112	GapExp	BigFlash	0	42	2	0	1	target	1	354	823	72135	13.328	4.374	22.286
ProbeTrack13	11	ProbeTrack	13.2	SCS215b	20111104.134818	20111104.135438	8	0.013328	60	10	60-180	60	88	GapExp	BigFlash	0	43	2	45	1	target	1	350	825	72960	13.337	9.505	17.163
ProbeTrack13	11	ProbeTrack	13.2	SCS215b	20111104.134818	20111104.135444	8	0.013328	60	10	60-180	60	69	GapExp	BigFlash	0	44	2	0	1	target	1	398	801	73761	13.328	10.357	16.317
ProbeTrack13	11	ProbeTrack	13.2	SCS215b	20111104.134818	20111104.135449	8	0.013328	60	10	60-180	60	125	GapExp	BigFlash	0	45	2	3	0	distractor	1	335	833	74594	13.328	11.008	15.631
ProbeTrack13	11	ProbeTrack	13.2	SCS215b	20111104.134818	20111104.135455	8	0.013328	60	10	60-180	60	139	GapExp	BigFlash	0	46	2	1	1	target	1	319	841	75435	13.328	8.693	17.955
ProbeTrack13	11	ProbeTrack	13.2	SCS215b	20111104.134818	20111104.135501	8	0.013328	60	10	60-180	60	88	GapExp	BigFlash	0	47	2	1	0	target	0	389	-1000	74435	13.328	13.103	13.550
ProbeTrack13	11	ProbeTrack	13.2	SCS215b	20111104.134818	20111104.135506	8	0.013328	60	10	60-180	60	77	GapExp	BigFlash	0	48	2	45	0	distractor	1	349	826	75261	13.328	10.197	16.463
ProbeTrack13	11	ProbeTrack	13.2	SCS215b	20111104.134818	20111104.135538	8	0.013328	60	10	60-180	60	86	GapExp	BigFlash	0	49	2	3	1	target	1	350	825	76086	13.328	5.018	21.627
ProbeTrack13	11	ProbeTrack	13.2	SCS215b	20111104.134818	20111104.135544	8	0.013328	60	10	60-180	60	166	GapExp	BigFlash	0	50	2	0	1	target	1	352	824	76910	13.328	12.755	13.908
ProbeTrack13	11	ProbeTrack	13.2	SCS215b	20111104.134818	20111104.135550	8	0.013328	60	10	60-180	60	171	GapExp	BigFlash	0	51	2	45	0	distractor	1	413	794	77704	13.328	6.748	19.905
ProbeTrack13	11	ProbeTrack	13.2	SCS215b	20111104.134818	20111104.135557	8	0.013328	60	10	60-180	60	149	GapExp	BigFlash	0	52	2	0	0	distractor	1	351	825	78529	13.322	11.779	14.605
ProbeTrack13	11	ProbeTrack	13.2	SCS215b	20111104.134818	20111104.135609	8	0.013328	60	10	60-180	60	173	GapExp	BigFlash	0	53	2	0	1	target	1	343	829	79358	13.328	11.429	15.214
ProbeTrack13	11	ProbeTrack	13.2	SCS215b	20111104.134818	20111104.135615	8	0.013328	60	10	60-180	60	143	GapExp	BigFlash	0	54	2	0	0	distractor	1	396	802	80160	13.328	7.805	18.855
ProbeTrack13	11	ProbeTrack	13.2	SCS215b	20111104.134818	20111104.135621	8	0.013328	60	10	60-180	60	131	GapExp	BigFlash	0	55	2	45	0	distractor	1	604	698	80858	13.328	9.166	17.471
ProbeTrack13	11	ProbeTrack	13.2	SCS215b	20111104.134818	20111104.135628	8	0.013328	60	10	60-180	60	82	GapExp	BigFlash	0	56	2	1	0	distractor	1	400	800	81658	13.328	8.842	17.803
ProbeTrack13	11	ProbeTrack	13.2	SCS215b	20111104.134818	20111104.135633	8	0.013328	60	10	60-180	60	76	GapExp	BigFlash	0	57	2	45	1	target	1	339	831	82489	13.328	13.303	13.352
ProbeTrack13	11	ProbeTrack	13.2	SCS215b	20111104.134818	20111104.135639	8	0.013328	60	10	60-180	60	134	GapExp	BigFlash	0	58	2	1	1	target	1	393	804	83293	13.328	9.994	16.654
ProbeTrack13	11	ProbeTrack	13.2	SCS215b	20111104.134818	20111104.135645	8	0.013328	60	10	60-180	60	154	GapExp	BigFlash	0	59	2	45	1	target	1	333	834	84127	13.328	7.528	19.125
ProbeTrack13	11	ProbeTrack	13.2	SCS215b	20111104.134818	20111104.135652	8	0.013328	60	10	60-180	60	164	GapExp	BigFlash	0	60	2	3	0	distractor	1	369	816	84943	13.328	11.072	15.573
ProbeTrack13	11	ProbeTrack	13.2	SCS215b	20111104.134818	20111104.135659	8	0.013328	60	10	60-180	60	96	GapExp	BigFlash	0	61	2	0	1	target	1	561	720	85663	13.328	7.483	19.158
ProbeTrack13	11	ProbeTrack	13.2	SCS215b	20111104.134818	20111104.135719	8	0.013328	60	10	60-180	60	114	GapExp	BigFlash	0	62	2	0	0	target	0	300	-1000	84663	13.448	13.302	26.640
ProbeTrack13	11	ProbeTrack	13.2	SCS215b	20111104.134818	20111104.135739	8	0.013328	60	10	60-180	60	121	GapExp	BigFlash	0	63	2	1	0	distractor	1	495	753	85416	13.328	10.083	16.572
ProbeTrack13	11	ProbeTrack	13.2	SCS215b	20111104.134818	20111104.135745	8	0.013328	60	10	60-180	60	138	GapExp	BigFlash	0	64	2	1	0	distractor	1	512	744	86160	13.328	11.649	15.005
ProbeTrack13	11	ProbeTrack	13.2	SCS215b	20111104.134818	20111104.135752	8	0.013328	60	10	60-180	60	121	GapExp	BigFlash	0	65	2	0	0	distractor	1	373	814	86974	13.328	6.583	20.087
ProbeTrack13	11	ProbeTrack	13.2	SCS215b	20111104.134818	20111104.135825	8	0.013328	60	10	60-180	60	134	GapExp	BigFlash	0	66	2	0	0	distractor	1	341	830	87804	13.328	7.532	19.123
ProbeTrack13	11	ProbeTrack	13.2	SCS215b	20111104.134818	20111104.135831	8	0.013328	60	10	60-180	60	79	GapExp	BigFlash	0	67	2	1	0	distractor	1	391	805	88609	13.328	13.118	13.559
ProbeTrack13	11	ProbeTrack	13.2	SCS215b	20111104.134818	20111104.135836	8	0.013328	60	10	60-180	60	167	GapExp	BigFlash	0	68	2	0	0	distractor	1	360	820	89429	13.328	11.135	15.544
ProbeTrack13	11	ProbeTrack	13.2	SCS215b	20111104.134818	20111104.135842	8	0.013328	60	10	60-180	60	175	GapExp	BigFlash	0	69	2	3	1	target	1	348	826	90255	13.328	12.917	13.741
ProbeTrack13	11	ProbeTrack	13.2	SCS215b	20111104.134818	20111104.135849	8	0.013328	60	10	60-180	60	116	GapExp	BigFlash	0	70	2	0	1	target	1	312	844	91099	13.328	6.300	20.353
ProbeTrack13	11	ProbeTrack	13.2	SCS215b	20111104.134818	20111104.135916	8	0.013328	60	10	60-180	60	158	GapExp	BigFlash	0	71	2	0	1	target	1	509	746	91845	13.328	13.303	13.355
ProbeTrack13	11	ProbeTrack	13.2	SCS215b	20111104.134818	20111104.135922	8	0.013328	60	10	60-180	60	104	GapExp	BigFlash	0	72	2	3	0	distractor	1	455	773	92618	13.328	8.561	18.088
ProbeTrack13	11	ProbeTrack	13.2	SCS215b	20111104.134818	20111104.135928	8	0.013328	60	10	60-180	60	127	GapExp	BigFlash	0	73	2	45	1	target	1	416	792	93410	13.328	8.349	18.307
ProbeTrack13	11	ProbeTrack	13.2	SCS215b	20111104.134818	20111104.135934	8	0.013328	60	10	60-180	60	78	GapExp	BigFlash	0	74	2	45	1	distractor	0	443	-1000	92410	13.328	13.288	13.358
ProbeTrack13	11	ProbeTrack	13.2	SCS215b	20111104.134818	20111104.135940	8	0.013328	60	10	60-180	60	68	GapExp	BigFlash	0	75	2	1	1	target	1	402	799	93209	13.328	10.161	16.498
ProbeTrack13	11	ProbeTrack	13.2	SCS215b	20111104.134818	20111104.135946	8	0.013328	60	10	60-180	60	142	GapExp	BigFlash	0	76	2	0	0	distractor	1	405	798	94007	13.328	8.199	18.462
ProbeTrack13	11	ProbeTrack	13.2	SCS215b	20111104.134818	20111104.135953	8	0.013328	60	10	60-180	60	165	GapExp	BigFlash	0	77	2	1	1	target	1	319	841	94848	13.328	13.083	13.564
ProbeTrack13	11	ProbeTrack	13.2	SCS215b	20111104.134818	20111104.135959	8	0.013328	60	10	60-180	60	112	GapExp	BigFlash	0	78	2	1	0	distractor	1	406	797	95645	13.328	3.485	23.151
ProbeTrack13	11	ProbeTrack	13.2	SCS215b	20111104.134818	20111104.140006	8	0.013328	60	10	60-180	60	176	GapExp	BigFlash	0	79	2	0	0	distractor	1	499	751	96396	13.328	7.598	19.070
ProbeTrack13	11	ProbeTrack	13.2	SCS215b	20111104.134818	20111104.140012	8	0.013328	60	10	60-180	60	141	GapExp	BigFlash	0	80	2	0	1	target	1	335	833	97229	13.328	11.270	15.403
ProbeTrack13	11	ProbeTrack	13.2	SCS215b	20111104.134818	20111104.140019	8	0.013328	60	10	60-180	60	152	GapExp	BigFlash	0	81	2	1	1	target	1	308	846	98075	13.328	8.655	18.001
ProbeTrack13	11	ProbeTrack	13.2	SCS215b	20111104.134818	20111104.140025	8	0.013328	60	10	60-180	60	168	GapExp	BigFlash	0	82	2	0	1	target	1	406	797	98872	13.328	6.300	20.359
ProbeTrack13	11	ProbeTrack	13.2	SCS215b	20111104.134818	20111104.140031	8	0.013328	60	10	60-180	60	165	GapExp	BigFlash	0	83	2	1	0	distractor	1	412	794	99666	13.328	13.306	13.352
ProbeTrack13	11	ProbeTrack	13.2	SCS215b	20111104.134818	20111104.140038	8	0.013328	60	10	60-180	60	173	GapExp	BigFlash	0	84	2	45	0	distractor	1	482	759	100425	13.328	5.747	20.906
ProbeTrack13	11	ProbeTrack	13.2	SCS215b	20111104.134818	20111104.140046	8	0.013328	60	10	60-180	60	79	GapExp	BigFlash	0	85	2	0	0	distractor	1	398	801	101226	13.318	10.093	16.555
ProbeTrack13	11	ProbeTrack	13.2	SCS215b	20111104.134818	20111104.140051	8	0.013328	60	10	60-180	60	169	GapExp	BigFlash	0	86	2	1	0	distractor	1	417	792	102018	13.328	4.965	21.697
ProbeTrack13	11	ProbeTrack	13.2	SCS215b	20111104.134818	20111104.140058	8	0.013328	60	10	60-180	60	97	GapExp	BigFlash	0	87	2	1	1	target	1	340	830	102848	13.328	9.829	16.823
ProbeTrack13	11	ProbeTrack	13.2	SCS215b	20111104.134818	20111104.140103	8	0.013328	60	10	60-180	60	108	GapExp	BigFlash	0	88	2	1	1	target	1	350	825	103673	13.328	5.247	21.406
ProbeTrack13	11	ProbeTrack	13.2	SCS215b	20111104.134818	20111104.140109	8	0.013328	60	10	60-180	60	118	GapExp	BigFlash	0	89	2	3	0	distractor	1	416	792	104465	13.328	4.842	21.806
ProbeTrack13	11	ProbeTrack	13.2	SCS215b	20111104.134818	20111104.140115	8	0.013328	60	10	60-180	60	150	GapExp	BigFlash	0	90	2	45	1	target	1	352	824	105289	13.328	8.838	17.802
ProbeTrack13	11	ProbeTrack	13.2	SCS215b	20111104.134818	20111104.140122	8	0.013328	60	10	60-180	60	75	GapExp	BigFlash	0	91	2	0	1	distractor	0	353	-1000	104289	13.328	10.553	16.094
ProbeTrack13	11	ProbeTrack	13.2	SCS215b	20111104.134818	20111104.140127	8	0.013328	60	10	60-180	60	105	GapExp	BigFlash	0	92	2	1	1	target	1	293	854	105143	13.328	10.333	16.314
ProbeTrack13	11	ProbeTrack	13.2	SCS215b	20111104.134818	20111104.140132	8	0.013328	60	10	60-180	60	160	GapExp	BigFlash	0	93	2	1	0	target	0	372	-1000	104143	13.328	13.302	13.367
ProbeTrack13	11	ProbeTrack	13.2	SCS215b	20111104.134818	20111104.140139	8	0.013328	60	10	60-180	60	94	GapExp	BigFlash	0	94	2	0	0	distractor	1	402	799	104942	13.328	12.594	14.067
ProbeTrack13	11	ProbeTrack	13.2	SCS215b	20111104.134818	20111104.140222	8	0.013328	60	10	60-180	60	135	GapExp	BigFlash	0	95	2	3	0	distractor	1	389	806	105748	13.328	13.091	13.564
ProbeTrack13	11	ProbeTrack	13.2	SCS215b	20111104.134818	20111104.140229	8	0.013328	60	10	60-180	60	64	GapExp	BigFlash	0	96	2	3	0	target	0	408	-1000	104748	13.328	9.323	17.321
ProbeTrack13	11	ProbeTrack	13.2	SCS215b	20111104.134818	20111104.140234	8	0.013328	60	10	60-180	60	130	GapExp	BigFlash	0	97	2	3	1	target	1	357	822	105570	13.328	10.421	16.241
ProbeTrack13	11	ProbeTrack	13.2	SCS215b	20111104.134818	20111104.140240	8	0.013328	60	10	60-180	60	132	GapExp	BigFlash	0	98	2	45	0	distractor	1	436	782	106352	13.328	13.084	13.578
ProbeTrack13	11	ProbeTrack	13.2	SCS215b	20111104.134818	20111104.140247	8	0.013328	60	10	60-180	60	140	GapExp	BigFlash	0	99	2	45	0	distractor	1	515	743	107095	13.328	6.093	20.565
ProbeTrack13	11	ProbeTrack	13.2	SCS215b	20111104.134818	20111104.140254	8	0.013328	60	10	60-180	60	77	GapExp	BigFlash	0	100	2	0	1	target	1	378	811	107906	13.328	8.120	18.541
ProbeTrack13	11	ProbeTrack	13.2	SCS215b	20111104.134818	20111104.140300	8	0.013328	60	10	60-180	60	73	GapExp	BigFlash	0	101	2	3	0	distractor	1	480	760	108666	13.328	13.299	13.354
ProbeTrack13	11	ProbeTrack	13.2	SCS215b	20111104.134818	20111104.140305	8	0.013328	60	10	60-180	60	95	GapExp	BigFlash	0	102	2	0	0	distractor	1	391	805	109471	13.328	4.542	22.108
ProbeTrack13	11	ProbeTrack	13.2	SCS215b	20111104.134818	20111104.140345	8	0.013328	60	10	60-180	60	125	GapExp	BigFlash	0	103	2	1	0	distractor	1	371	815	110286	13.328	11.607	15.045
ProbeTrack13	11	ProbeTrack	13.2	SCS215b	20111104.134818	20111104.140351	8	0.013328	60	10	60-180	60	166	GapExp	BigFlash	0	104	2	1	1	target	1	395	803	111089	13.328	10.736	15.935
ProbeTrack13	11	ProbeTrack	13.2	SCS215b	20111104.134818	20111104.140358	8	0.013328	60	10	60-180	60	62	GapExp	BigFlash	0	105	2	45	0	distractor	1	395	803	111892	13.328	13.102	13.567
ProbeTrack13	11	ProbeTrack	13.2	SCS215b	20111104.134818	20111104.140404	8	0.013328	60	10	60-180	60	74	GapExp	BigFlash	0	106	2	45	1	target	1	552	724	112616	13.328	4.569	22.079
ProbeTrack13	11	ProbeTrack	13.2	SCS215b	20111104.134818	20111104.140416	8	0.013328	60	10	60-180	60	170	GapExp	BigFlash	0	107	2	0	0	distractor	1	508	746	113362	13.328	13.302	13.358
ProbeTrack13	11	ProbeTrack	13.2	SCS215b	20111104.134818	20111104.140423	8	0.013328	60	10	60-180	60	137	GapExp	BigFlash	0	108	2	45	0	distractor	1	449	776	114138	13.328	4.743	21.927
ProbeTrack13	11	ProbeTrack	13.2	SCS215b	20111104.134818	20111104.140429	8	0.013328	60	10	60-180	60	143	GapExp	BigFlash	0	109	2	0	1	target	1	459	771	114909	13.328	13.273	13.374
ProbeTrack13	11	ProbeTrack	13.2	SCS215b	20111104.134818	20111104.140436	8	0.013328	60	10	60-180	60	75	GapExp	BigFlash	0	110	2	1	1	target	1	321	840	115749	13.328	13.255	13.400
ProbeTrack13	11	ProbeTrack	13.2	SCS215b	20111104.134818	20111104.140441	8	0.013328	60	10	60-180	60	109	GapExp	BigFlash	0	111	2	1	1	target	1	379	811	116560	13.328	13.106	13.554
ProbeTrack13	11	ProbeTrack	13.2	SCS215b	20111104.134818	20111104.140447	8	0.013328	60	10	60-180	60	88	GapExp	BigFlash	0	112	2	45	1	target	1	297	852	117412	13.328	6.939	19.726
ProbeTrack13	11	ProbeTrack	13.2	SCS215b	20111104.134818	20111104.140453	8	0.013328	60	10	60-180	60	152	GapExp	BigFlash	0	113	2	0	1	target	1	302	849	118261	13.328	12.305	14.365
ProbeTrack13	11	ProbeTrack	13.2	SCS215b	20111104.134818	20111104.140459	8	0.013328	60	10	60-180	60	78	GapExp	BigFlash	0	114	2	0	0	distractor	1	414	793	119054	13.328	9.240	17.416
ProbeTrack13	11	ProbeTrack	13.2	SCS215b	20111104.134818	20111104.140504	8	0.013328	60	10	60-180	60	128	GapExp	BigFlash	0	115	2	1	1	target	1	281	860	119914	13.328	7.587	19.073
ProbeTrack13	11	ProbeTrack	13.2	SCS215b	20111104.134818	20111104.140510	8	0.013328	60	10	60-180	60	135	GapExp	BigFlash	0	116	2	3	1	target	1	287	857	120771	13.328	13.120	13.542
ProbeTrack13	11	ProbeTrack	13.2	SCS215b	20111104.134818	20111104.140516	8	0.013328	60	10	60-180	60	135	GapExp	BigFlash	0	117	2	1	0	distractor	1	410	795	121566	13.328	4.706	21.951
ProbeTrack13	11	ProbeTrack	13.2	SCS215b	20111104.134818	20111104.140627	8	0.013328	60	10	60-180	60	71	GapExp	BigFlash	0	118	2	3	1	target	1	310	845	122411	13.331	5.327	21.323
ProbeTrack13	11	ProbeTrack	13.2	SCS215b	20111104.134818	20111104.140632	8	0.013328	60	10	60-180	60	67	GapExp	BigFlash	0	119	2	45	0	distractor	1	462	769	123180	13.328	13.107	13.542
ProbeTrack13	11	ProbeTrack	13.2	SCS215b	20111104.134818	20111104.140638	8	0.013328	60	10	60-180	60	76	GapExp	BigFlash	0	120	2	3	0	distractor	1	306	847	124027	13.328	13.300	13.352
ProbeTrack13	11	ProbeTrack	13.2	SCS215b	20111104.134818	20111104.140643	8	0.013328	60	10	60-180	60	90	GapExp	BigFlash	0	121	2	3	0	distractor	1	325	838	124865	13.328	13.303	13.355
ProbeTrack13	11	ProbeTrack	13.2	SCS215b	20111104.134818	20111104.140649	8	0.013328	60	10	60-180	60	100	GapExp	BigFlash	0	122	2	45	0	distractor	1	369	816	125681	13.328	4.106	22.553
ProbeTrack13	11	ProbeTrack	13.2	SCS215b	20111104.134818	20111104.140655	8	0.013328	60	10	60-180	60	151	GapExp	BigFlash	0	123	2	1	1	target	1	357	822	126503	13.328	12.943	13.714
ProbeTrack13	11	ProbeTrack	13.2	SCS215b	20111104.134818	20111104.140701	8	0.013328	60	10	60-180	60	143	GapExp	BigFlash	0	124	2	1	1	target	1	283	859	127362	13.328	5.646	21.010
ProbeTrack13	11	ProbeTrack	13.2	SCS215b	20111104.134818	20111104.140708	8	0.013328	60	10	60-180	60	154	GapExp	BigFlash	0	125	2	3	1	target	1	291	855	128217	13.328	8.012	18.638
ProbeTrack13	11	ProbeTrack	13.2	SCS215b	20111104.134818	20111104.140714	8	0.013328	60	10	60-180	60	146	GapExp	BigFlash	0	126	2	3	0	distractor	1	405	798	129015	13.328	6.060	20.591
ProbeTrack13	11	ProbeTrack	13.2	SCS215b	20111104.134818	20111104.140720	8	0.013328	60	10	60-180	60	106	GapExp	BigFlash	0	127	2	3	1	target	1	291	855	129870	14.809	8.336	144.304
ProbeTrack13	11	ProbeTrack	13.2	SCS215b	20111104.134818	20111104.140726	8	0.013328	60	10	60-180	60	92	GapExp	BigFlash	0	128	2	45	0	distractor	1	472	764	130634	13.328	12.938	13.726
ProbeTrack13	11	ProbeTrack	13.2	SCS215b	20111104.134818	20111104.140733	8	0.013328	60	10	60-180	60	80	GapExp	BigFlash	0	129	2	0	0	distractor	1	378	811	131445	13.328	5.218	21.431
ProbeTrack13	11	ProbeTrack	13.2	SCS215b	20111104.134818	20111104.140738	8	0.013328	60	10	60-180	60	117	GapExp	BigFlash	0	130	2	0	0	target	0	385	-1000	130445	13.328	11.732	14.906
ProbeTrack13	11	ProbeTrack	13.2	SCS215b	20111104.134818	20111104.140744	8	0.013328	60	10	60-180	60	63	GapExp	BigFlash	0	131	2	3	1	target	1	345	828	131273	13.328	10.294	16.361
ProbeTrack13	11	ProbeTrack	13.2	SCS215b	20111104.134818	20111104.140753	8	0.013328	60	10	60-180	60	73	GapExp	BigFlash	0	132	2	0	1	target	1	304	848	132121	13.328	9.952	16.707
ProbeTrack13	11	ProbeTrack	13.2	SCS215b	20111104.134818	20111104.140758	8	0.013328	60	10	60-180	60	173	GapExp	BigFlash	0	133	2	45	1	target	1	359	821	132942	13.354	7.566	21.926
ProbeTrack13	11	ProbeTrack	13.2	SCS215b	20111104.134818	20111104.140805	8	0.013328	60	10	60-180	60	154	GapExp	BigFlash	0	134	2	0	1	target	1	318	841	133783	13.328	10.281	16.370
ProbeTrack13	11	ProbeTrack	13.2	SCS215b	20111104.134818	20111104.140812	8	0.013328	60	10	60-180	60	132	GapExp	BigFlash	0	135	2	45	1	target	1	374	813	134596	13.328	5.439	21.227
ProbeTrack13	11	ProbeTrack	13.2	SCS215b	20111104.134818	20111104.140818	8	0.013328	60	10	60-180	60	68	GapExp	BigFlash	0	136	2	1	1	target	1	349	826	135422	13.328	13.099	13.568
ProbeTrack13	11	ProbeTrack	13.2	SCS215b	20111104.134818	20111104.140853	8	0.013328	60	10	60-180	60	142	GapExp	BigFlash	0	137	2	45	1	target	1	360	820	136242	13.328	4.434	22.234
ProbeTrack13	11	ProbeTrack	13.2	SCS215b	20111104.134818	20111104.140927	8	0.013328	60	10	60-180	60	132	GapExp	BigFlash	0	138	2	3	1	target	1	309	846	137088	13.328	6.266	20.371
ProbeTrack13	11	ProbeTrack	13.2	SCS215b	20111104.134818	20111104.140933	8	0.013328	60	10	60-180	60	150	GapExp	BigFlash	0	139	2	3	1	target	1	308	846	137934	13.353	4.384	22.282
ProbeTrack13	11	ProbeTrack	13.2	SCS215b	20111104.134818	20111104.140939	8	0.013328	60	10	60-180	60	100	GapExp	BigFlash	0	140	2	0	0	distractor	1	415	793	138727	13.328	9.955	16.709
ProbeTrack13	11	ProbeTrack	13.2	SCS215b	20111104.134818	20111104.140945	8	0.013328	60	10	60-180	60	149	GapExp	BigFlash	0	141	2	3	0	distractor	1	388	806	139533	13.328	9.852	16.807
ProbeTrack13	11	ProbeTrack	13.2	SCS215b	20111104.134818	20111104.140952	8	0.013328	60	10	60-180	60	112	GapExp	BigFlash	0	142	2	0	1	target	1	332	834	140367	13.328	11.389	15.272
ProbeTrack13	11	ProbeTrack	13.2	SCS215b	20111104.134818	20111104.140958	8	0.013328	60	10	60-180	60	62	GapExp	BigFlash	0	143	2	3	0	distractor	1	410	795	141162	13.328	6.615	20.048
ProbeTrack13	11	ProbeTrack	13.2	SCS215b	20111104.134818	20111104.141003	8	0.013328	60	10	60-180	60	66	GapExp	BigFlash	0	144	2	3	1	target	1	318	841	142003	13.328	9.338	17.329
ProbeTrack13	11	ProbeTrack	13.2	SCS215b	20111104.134818	20111104.141009	8	0.013328	60	10	60-180	60	161	GapExp	BigFlash	0	145	2	45	0	distractor	1	405	798	142801	13.328	6.607	20.049
ProbeTrack13	11	ProbeTrack	13.2	SCS215b	20111104.134818	20111104.141016	8	0.013328	60	10	60-180	60	157	GapExp	BigFlash	0	146	2	1	0	distractor	1	351	825	143626	13.328	12.980	13.677
ProbeTrack13	11	ProbeTrack	13.2	SCS215b	20111104.134818	20111104.141022	8	0.013328	60	10	60-180	60	135	GapExp	BigFlash	0	147	2	1	1	distractor	0	352	-1000	142626	13.328	6.649	19.995
ProbeTrack13	11	ProbeTrack	13.2	SCS215b	20111104.134818	20111104.141028	8	0.013328	60	10	60-180	60	103	GapExp	BigFlash	0	148	2	45	1	target	1	361	820	143446	13.328	7.287	19.362
ProbeTrack13	11	ProbeTrack	13.2	SCS215b	20111104.134818	20111104.141034	8	0.013328	60	10	60-180	60	155	GapExp	BigFlash	0	149	2	3	1	distractor	0	399	-1000	142446	13.328	3.916	22.714
ProbeTrack13	11	ProbeTrack	13.2	SCS215b	20111104.134818	20111104.141041	8	0.013328	60	10	60-180	60	147	GapExp	BigFlash	0	150	2	1	0	distractor	1	500	750	143196	13.328	4.082	22.578
ProbeTrack13	11	ProbeTrack	13.2	SCS215b	20111104.134818	20111104.141047	8	0.013328	60	10	60-180	60	123	GapExp	BigFlash	0	151	2	45	1	target	1	360	820	144016	13.328	10.783	15.878
ProbeTrack13	11	ProbeTrack	13.2	SCS215b	20111104.134818	20111104.141055	8	0.013328	60	10	60-180	60	168	GapExp	BigFlash	0	152	2	3	1	target	1	421	790	144806	13.328	4.768	21.880
ProbeTrack13	11	ProbeTrack	13.2	SCS215b	20111104.134818	20111104.141102	8	0.013328	60	10	60-180	60	159	GapExp	BigFlash	0	153	2	1	0	distractor	1	534	733	145539	13.328	6.737	19.924
ProbeTrack13	11	ProbeTrack	13.2	SCS215b	20111104.134818	20111104.141108	8	0.013328	60	10	60-180	60	125	GapExp	BigFlash	0	154	2	45	0	distractor	1	402	799	146338	13.328	6.271	20.384
ProbeTrack13	11	ProbeTrack	13.2	SCS215b	20111104.134818	20111104.141115	8	0.013328	60	10	60-180	60	163	GapExp	BigFlash	0	155	2	1	0	distractor	1	373	814	147152	13.328	8.814	17.836
ProbeTrack13	11	ProbeTrack	13.2	SCS215b	20111104.134818	20111104.141121	8	0.013328	60	10	60-180	60	82	GapExp	BigFlash	0	156	2	3	0	target	0	357	-1000	146152	13.328	5.465	21.196
ProbeTrack13	11	ProbeTrack	13.2	SCS215b	20111104.134818	20111104.141126	8	0.013328	60	10	60-180	60	128	GapExp	BigFlash	0	157	2	1	0	distractor	1	423	789	146941	13.328	13.231	13.433
ProbeTrack13	11	ProbeTrack	13.2	SCS215b	20111104.134818	20111104.141211	8	0.013328	60	10	60-180	60	85	GapExp	BigFlash	0	158	2	1	1	target	1	518	741	147682	13.328	11.462	15.206
ProbeTrack13	11	ProbeTrack	13.2	SCS215b	20111104.134818	20111104.141216	8	0.013328	60	10	60-180	60	104	GapExp	BigFlash	0	159	2	3	1	target	1	527	737	148419	13.328	8.107	18.567
ProbeTrack13	11	ProbeTrack	13.2	SCS215b	20111104.134818	20111104.141222	8	0.013328	60	10	60-180	60	117	GapExp	BigFlash	0	160	2	45	1	target	1	322	839	149258	13.328	10.141	16.507
ProbeTrack13	11	ProbeTrack	13.2	SCS215b	20111104.134818	20111104.141244	8	0.013328	60	10	60-180	60	165	GapExp	BigFlash	0	161	2	3	1	target	1	304	848	150106	13.328	6.987	19.667
ProbeTrack13	11	ProbeTrack	13.2	SCS215b	20111104.134818	20111104.141251	8	0.013328	60	10	60-180	60	168	GapExp	BigFlash	0	162	2	0	1	target	1	333	834	150940	13.328	10.758	15.903
ProbeTrack13	11	ProbeTrack	13.2	SCS215b	20111104.134818	20111104.141257	8	0.013328	60	10	60-180	60	161	GapExp	BigFlash	0	163	2	0	0	distractor	1	380	810	151750	13.328	10.986	15.656
ProbeTrack13	11	ProbeTrack	13.2	SCS215b	20111104.134818	20111104.141303	8	0.013328	60	10	60-180	60	173	GapExp	BigFlash	0	164	2	45	0	distractor	1	402	799	152549	13.328	4.306	22.356
ProbeTrack13	11	ProbeTrack	13.2	SCS215b	20111104.134818	20111104.141311	8	0.013328	60	10	60-180	60	144	GapExp	BigFlash	0	165	2	45	0	distractor	1	382	809	153358	13.328	9.185	17.461
ProbeTrack13	11	ProbeTrack	13.2	SCS215b	20111104.134818	20111104.141318	8	0.013328	60	10	60-180	60	82	GapExp	BigFlash	0	166	2	1	0	distractor	1	488	756	154114	13.328	13.108	13.565
ProbeTrack13	11	ProbeTrack	13.2	SCS215b	20111104.134818	20111104.141324	8	0.013328	60	10	60-180	60	129	GapExp	BigFlash	0	167	2	1	1	target	1	321	840	154954	13.328	6.012	20.641
ProbeTrack13	11	ProbeTrack	13.2	SCS215b	20111104.134818	20111104.141330	8	0.013328	60	10	60-180	60	163	GapExp	BigFlash	0	168	2	0	0	distractor	1	442	779	155733	13.328	6.847	19.815
ProbeTrack13	11	ProbeTrack	13.2	SCS215b	20111104.134818	20111104.141336	8	0.013328	60	10	60-180	60	171	GapExp	BigFlash	0	169	2	3	1	target	1	288	856	156589	13.328	10.522	16.138
ProbeTrack13	11	ProbeTrack	13.2	SCS215b	20111104.134818	20111104.141343	8	0.013328	60	10	60-180	60	101	GapExp	BigFlash	0	170	2	3	0	distractor	1	452	774	157363	13.328	13.295	13.368
ProbeTrack13	11	ProbeTrack	13.2	SCS215b	20111104.134818	20111104.141349	8	0.013328	60	10	60-180	60	169	GapExp	BigFlash	0	171	2	1	1	target	1	305	848	158211	13.328	12.211	14.435
ProbeTrack13	11	ProbeTrack	13.2	SCS215b	20111104.134818	20111104.141355	8	0.013328	60	10	60-180	60	86	GapExp	BigFlash	0	172	2	0	0	distractor	1	391	805	159016	13.328	13.077	13.565
ProbeTrack13	11	ProbeTrack	13.2	SCS215b	20111104.134818	20111104.141400	8	0.013328	60	10	60-180	60	68	GapExp	BigFlash	0	173	2	45	1	target	1	384	808	159824	13.328	12.639	14.005
ProbeTrack13	11	ProbeTrack	13.2	SCS215b	20111104.134818	20111104.141406	8	0.013328	60	10	60-180	60	114	GapExp	BigFlash	0	174	2	0	1	target	1	376	812	160636	13.328	13.305	13.353
ProbeTrack13	11	ProbeTrack	13.2	SCS215b	20111104.134818	20111104.141412	8	0.013328	60	10	60-180	60	111	GapExp	BigFlash	0	175	2	1	0	distractor	1	350	825	161461	13.328	12.873	13.778
ProbeTrack13	11	ProbeTrack	13.2	SCS215b	20111104.134818	20111104.141418	8	0.013328	60	10	60-180	60	126	GapExp	BigFlash	0	176	2	45	0	distractor	1	408	796	162257	13.328	3.951	22.706
ProbeTrack13	11	ProbeTrack	13.2	SCS215b	20111104.134818	20111104.141429	8	0.013328	60	10	60-180	60	140	GapExp	BigFlash	0	177	2	0	1	target	1	387	807	163064	13.328	13.098	13.580
ProbeTrack13	11	ProbeTrack	13.2	SCS215b	20111104.134818	20111104.141435	8	0.013328	60	10	60-180	60	118	GapExp	BigFlash	0	178	2	3	1	target	1	341	830	163894	13.328	8.316	18.324
ProbeTrack13	11	ProbeTrack	13.2	SCS215b	20111104.134818	20111104.141441	8	0.013328	60	10	60-180	60	78	GapExp	BigFlash	0	179	2	0	0	distractor	1	458	771	164665	13.321	12.027	13.357
ProbeTrack13	11	ProbeTrack	13.2	SCS215b	20111104.134818	20111104.141446	8	0.013328	60	10	60-180	60	128	GapExp	BigFlash	0	180	2	3	1	target	1	301	850	165515	13.328	8.077	18.591
ProbeTrack13	11	ProbeTrack	13.2	SCS215b	20111104.134818	20111104.141452	8	0.013328	60	10	60-180	60	134	GapExp	BigFlash	0	181	2	3	0	distractor	1	366	817	166332	13.328	12.282	14.371
ProbeTrack13	11	ProbeTrack	13.2	SCS215b	20111104.134818	20111104.141458	8	0.013328	60	10	60-180	60	86	GapExp	BigFlash	0	182	2	0	1	target	1	331	835	167167	13.328	11.157	15.495
ProbeTrack13	11	ProbeTrack	13.2	SCS215b	20111104.134818	20111104.141503	8	0.013328	60	10	60-180	60	144	GapExp	BigFlash	0	183	2	1	0	distractor	1	373	814	167981	13.328	6.928	19.742
ProbeTrack13	11	ProbeTrack	13.2	SCS215b	20111104.134818	20111104.141510	8	0.013328	60	10	60-180	60	116	GapExp	BigFlash	0	184	2	1	0	distractor	1	464	768	168749	13.328	7.553	19.097
ProbeTrack13	11	ProbeTrack	13.2	SCS215b	20111104.134818	20111104.141515	8	0.013328	60	10	60-180	60	92	GapExp	BigFlash	0	185	2	1	0	distractor	1	435	783	169532	13.328	11.400	15.279
ProbeTrack13	11	ProbeTrack	13.2	SCS215b	20111104.134818	20111104.141521	8	0.013328	60	10	60-180	60	88	GapExp	BigFlash	0	186	2	1	1	target	1	364	818	170350	13.328	11.905	14.758
ProbeTrack13	11	ProbeTrack	13.2	SCS215b	20111104.134818	20111104.141526	8	0.013328	60	10	60-180	60	162	GapExp	BigFlash	0	187	2	0	0	distractor	1	391	805	171155	13.328	11.919	14.744
ProbeTrack13	11	ProbeTrack	13.2	SCS215b	20111104.134818	20111104.141533	8	0.013328	60	10	60-180	60	169	GapExp	BigFlash	0	188	2	45	0	distractor	1	425	788	171943	13.328	7.858	18.792
ProbeTrack13	11	ProbeTrack	13.2	SCS215b	20111104.134818	20111104.141541	8	0.013328	60	10	60-180	60	83	GapExp	BigFlash	0	189	2	3	1	target	1	339	831	172774	13.328	4.302	22.355
ProbeTrack13	11	ProbeTrack	13.2	SCS215b	20111104.134818	20111104.141546	8	0.013328	60	10	60-180	60	133	GapExp	BigFlash	0	190	2	3	0	distractor	1	408	796	173570	13.328	10.037	16.628
ProbeTrack13	11	ProbeTrack	13.2	SCS215b	20111104.134818	20111104.141552	8	0.013328	60	10	60-180	60	153	GapExp	BigFlash	0	191	2	3	0	distractor	1	258	871	174441	13.328	12.688	13.964
ProbeTrack13	11	ProbeTrack	13.2	SCS215b	20111104.134818	20111104.141558	8	0.013328	60	10	60-180	60	63	GapExp	BigFlash	0	192	2	1	1	target	1	374	813	175254	13.328	13.218	13.455
ProbeTrack13	11	ProbeTrack	13.2	SCS215b	20111104.134818	20111104.141603	8	0.013328	60	10	60-180	60	132	GapExp	BigFlash	0	193	2	3	0	distractor	1	389	806	176060	13.328	11.952	14.700
ProbeTrack13	11	ProbeTrack	13.2	SCS215b	20111104.134818	20111104.141609	8	0.013328	60	10	60-180	60	112	GapExp	BigFlash	0	194	2	45	0	distractor	1	385	808	176868	13.328	12.820	13.861
ProbeTrack13	11	ProbeTrack	13.2	SCS215b	20111104.134818	20111104.141616	8	0.013328	60	10	60-180	60	156	GapExp	BigFlash	0	195	2	0	1	target	1	338	831	177699	13.328	12.449	14.201
ProbeTrack13	11	ProbeTrack	13.2	SCS215b	20111104.134818	20111104.141622	8	0.013328	60	10	60-180	60	138	GapExp	BigFlash	0	196	2	3	1	target	1	368	816	178515	13.328	8.396	18.264
ProbeTrack13	11	ProbeTrack	13.2	SCS215b	20111104.134818	20111104.141628	8	0.013328	60	10	60-180	60	67	GapExp	BigFlash	0	197	2	45	1	target	1	347	827	179342	13.328	6.021	20.628
ProbeTrack13	11	ProbeTrack	13.2	SCS215b	20111104.134818	20111104.141634	8	0.013328	60	10	60-180	60	148	GapExp	BigFlash	0	198	2	0	0	distractor	1	399	801	180143	13.328	10.843	15.815
ProbeTrack13	11	ProbeTrack	13.2	SCS215b	20111104.134818	20111104.141640	8	0.013328	60	10	60-180	60	132	GapExp	BigFlash	0	199	2	3	1	target	1	424	788	180931	13.328	4.807	21.850
ProbeTrack13	11	ProbeTrack	13.2	SCS215b	20111104.134818	20111104.141647	8	0.013328	60	10	60-180	60	79	GapExp	BigFlash	0	200	2	1	1	target	1	295	853	181784	13.328	7.027	19.638
ProbeTrack13	11	ProbeTrack	13.2	SCS215b	20111104.141742	20111104.141756	8	0.013328	60	10	60-180	60	98	GapPrac	SmallFlash	1	1	2	0	1	target	1	396	802	182586	13.390	9.708	16.942
ProbeTrack13	11	ProbeTrack	13.2	SCS215b	20111104.141742	20111104.141803	8	0.013328	60	10	60-180	60	121	GapPrac	SmallFlash	1	2	2	0	0	distractor	1	406	797	183383	13.328	7.792	18.865
ProbeTrack13	11	ProbeTrack	13.2	SCS215b	20111104.141742	20111104.141809	8	0.013328	60	10	60-180	60	125	GapPrac	SmallFlash	1	3	2	1	0	distractor	1	649	676	184059	13.328	6.527	20.135
ProbeTrack13	11	ProbeTrack	13.2	SCS215b	20111104.141742	20111104.141815	8	0.013328	60	10	60-180	60	96	GapPrac	SmallFlash	1	4	2	45	0	distractor	1	466	767	184826	13.328	10.001	16.649
ProbeTrack13	11	ProbeTrack	13.2	SCS215b	20111104.141742	20111104.141821	8	0.013328	60	10	60-180	60	139	GapPrac	SmallFlash	1	5	2	0	1	target	1	368	816	185642	13.328	6.743	19.927
ProbeTrack13	11	ProbeTrack	13.2	SCS215b	20111104.141742	20111104.141828	8	0.013328	60	10	60-180	60	70	GapPrac	SmallFlash	1	6	2	45	1	target	1	382	809	186451	13.328	10.305	16.362
ProbeTrack13	11	ProbeTrack	13.2	SCS215b	20111104.141742	20111104.141834	8	0.013328	60	10	60-180	60	144	GapPrac	SmallFlash	1	7	2	3	0	distractor	1	361	820	187271	13.328	8.899	17.739
ProbeTrack13	11	ProbeTrack	13.2	SCS215b	20111104.141742	20111104.141840	8	0.013328	60	10	60-180	60	170	GapPrac	SmallFlash	1	8	2	1	0	distractor	1	506	747	188018	13.328	6.540	20.111
ProbeTrack13	11	ProbeTrack	13.2	SCS215b	20111104.141742	20111104.141847	8	0.013328	60	10	60-180	60	86	GapPrac	SmallFlash	1	9	2	45	0	distractor	1	397	802	188820	13.328	5.185	21.453
ProbeTrack13	11	ProbeTrack	13.2	SCS215b	20111104.141742	20111104.141853	8	0.013328	60	10	60-180	60	178	GapPrac	SmallFlash	1	10	2	1	0	distractor	1	368	816	189636	13.328	9.590	17.070
ProbeTrack13	11	ProbeTrack	13.2	SCS215b	20111104.141742	20111104.141859	8	0.013328	60	10	60-180	60	175	GapPrac	SmallFlash	1	11	2	0	1	target	1	344	828	190464	13.328	10.542	16.095
ProbeTrack13	11	ProbeTrack	13.2	SCS215b	20111104.141742	20111104.141907	8	0.013328	60	10	60-180	60	175	GapPrac	SmallFlash	1	12	2	3	1	target	1	321	840	191304	13.328	6.133	20.541
ProbeTrack13	11	ProbeTrack	13.2	SCS215b	20111104.141742	20111104.141913	8	0.013328	60	10	60-180	60	64	GapPrac	SmallFlash	1	13	2	1	1	distractor	0	705	-1000	190304	13.328	6.848	19.825
ProbeTrack13	11	ProbeTrack	13.2	SCS215b	20111104.141742	20111104.141919	8	0.013328	60	10	60-180	60	90	GapPrac	SmallFlash	1	14	2	3	1	target	1	329	836	191140	13.328	9.553	17.119
ProbeTrack13	11	ProbeTrack	13.2	SCS215b	20111104.141742	20111104.141958	8	0.013328	60	10	60-180	60	106	GapPrac	SmallFlash	1	15	2	1	1	target	1	297	852	191992	13.328	13.093	13.567
ProbeTrack13	11	ProbeTrack	13.2	SCS215b	20111104.141742	20111104.142004	8	0.013328	60	10	60-180	60	157	GapPrac	SmallFlash	1	16	2	3	0	target	0	277	-1000	190992	13.328	11.225	15.441
ProbeTrack13	11	ProbeTrack	13.2	SCS215b	20111104.141742	20111104.142010	8	0.013328	60	10	60-180	60	76	GapPrac	SmallFlash	1	17	2	45	1	target	1	435	783	191775	13.328	3.362	23.287
ProbeTrack13	11	ProbeTrack	13.2	SCS215b	20111104.141742	20111104.142016	8	0.013328	60	10	60-180	60	175	GapPrac	SmallFlash	1	18	2	45	0	target	0	381	-1000	190775	13.328	11.948	14.719
ProbeTrack13	11	ProbeTrack	13.2	SCS215b	20111104.141742	20111104.142023	8	0.013328	60	10	60-180	60	103	GapPrac	SmallFlash	1	19	2	0	0	distractor	1	700	650	191425	13.328	13.299	13.356
ProbeTrack13	11	ProbeTrack	13.2	SCS215b	20111104.141742	20111104.142029	8	0.013328	60	10	60-180	60	180	GapPrac	SmallFlash	1	20	2	0	0	distractor	1	666	667	192092	13.328	4.027	22.634
ProbeTrack13	11	ProbeTrack	13.2	SCS215b	20111104.142257	20111104.142338	8	0.013309	60	10	60-180	60	82	GapExp	SmallFlash	1	1	2	1	0	distractor	1	361	820	192912	13.396	8.951	17.692
ProbeTrack13	11	ProbeTrack	13.2	SCS215b	20111104.142257	20111104.142345	8	0.013309	60	10	60-180	60	79	GapExp	SmallFlash	1	2	2	0	1	target	1	354	823	193735	13.328	13.304	13.351
ProbeTrack13	11	ProbeTrack	13.2	SCS215b	20111104.142257	20111104.142522	8	0.013309	60	10	60-180	60	70	GapExp	SmallFlash	1	3	2	45	0	distractor	1	457	772	194507	13.328	13.283	13.361
ProbeTrack13	11	ProbeTrack	13.2	SCS215b	20111104.142257	20111104.142528	8	0.013309	60	10	60-180	60	170	GapExp	SmallFlash	1	4	2	3	0	distractor	1	370	815	195322	13.328	13.097	13.554
ProbeTrack13	11	ProbeTrack	13.2	SCS215b	20111104.142257	20111104.142534	8	0.013309	60	10	60-180	60	168	GapExp	SmallFlash	1	5	2	1	1	target	1	324	838	196160	13.328	13.094	13.547
ProbeTrack13	11	ProbeTrack	13.2	SCS215b	20111104.142257	20111104.142541	8	0.013309	60	10	60-180	60	172	GapExp	SmallFlash	1	6	2	3	1	target	1	356	822	196982	13.328	9.134	17.514
ProbeTrack13	11	ProbeTrack	13.2	SCS215b	20111104.142257	20111104.142547	8	0.013309	60	10	60-180	60	151	GapExp	SmallFlash	1	7	2	0	0	distractor	1	494	753	197735	13.328	13.119	13.559
ProbeTrack13	11	ProbeTrack	13.2	SCS215b	20111104.142257	20111104.142554	8	0.013309	60	10	60-180	60	176	GapExp	SmallFlash	1	8	2	45	1	target	1	380	810	198545	13.328	10.398	16.259
ProbeTrack13	11	ProbeTrack	13.2	SCS215b	20111104.142257	20111104.142601	8	0.013309	60	10	60-180	60	87	GapExp	SmallFlash	0	9	2	3	0	distractor	1	453	774	199319	13.328	5.542	21.103
ProbeTrack13	11	ProbeTrack	13.2	SCS215b	20111104.142257	20111104.142607	8	0.013309	60	10	60-180	60	159	GapExp	SmallFlash	0	10	2	0	0	distractor	1	447	777	200096	13.328	13.293	13.374
ProbeTrack13	11	ProbeTrack	13.2	SCS215b	20111104.142257	20111104.142613	8	0.013309	60	10	60-180	60	102	GapExp	SmallFlash	0	11	2	3	1	target	1	499	751	200847	13.328	13.025	13.637
ProbeTrack13	11	ProbeTrack	13.2	SCS215b	20111104.142257	20111104.142619	8	0.013309	60	10	60-180	60	162	GapExp	SmallFlash	0	12	2	0	0	distractor	1	365	818	201665	13.328	13.300	13.359
ProbeTrack13	11	ProbeTrack	13.2	SCS215b	20111104.142257	20111104.142626	8	0.013309	60	10	60-180	60	151	GapExp	SmallFlash	0	13	2	0	0	distractor	1	398	801	202466	13.328	13.290	13.353
ProbeTrack13	11	ProbeTrack	13.2	SCS215b	20111104.142257	20111104.142632	8	0.013309	60	10	60-180	60	156	GapExp	SmallFlash	0	14	2	45	0	distractor	1	374	813	203279	13.328	6.147	20.505
ProbeTrack13	11	ProbeTrack	13.2	SCS215b	20111104.142257	20111104.142639	8	0.013309	60	10	60-180	60	85	GapExp	SmallFlash	0	15	2	45	0	distractor	1	417	792	204071	13.328	7.395	19.268
ProbeTrack13	11	ProbeTrack	13.2	SCS215b	20111104.142257	20111104.142645	8	0.013309	60	10	60-180	60	171	GapExp	SmallFlash	0	16	2	0	1	target	1	400	800	204871	13.328	7.254	19.409
ProbeTrack13	11	ProbeTrack	13.2	SCS215b	20111104.142257	20111104.142651	8	0.013309	60	10	60-180	60	122	GapExp	SmallFlash	0	17	2	45	1	target	1	361	820	205691	13.328	10.196	16.454
ProbeTrack13	11	ProbeTrack	13.2	SCS215b	20111104.142257	20111104.142751	8	0.013309	60	10	60-180	60	77	GapExp	SmallFlash	0	18	2	3	0	distractor	1	446	777	206468	13.328	13.306	13.354
ProbeTrack13	11	ProbeTrack	13.2	SCS215b	20111104.142257	20111104.142756	8	0.013309	60	10	60-180	60	79	GapExp	SmallFlash	0	19	2	1	1	target	1	350	825	207293	13.327	13.084	13.353
ProbeTrack13	11	ProbeTrack	13.2	SCS215b	20111104.142257	20111104.142801	8	0.013309	60	10	60-180	60	73	GapExp	SmallFlash	0	20	2	45	0	distractor	1	474	763	208056	13.328	13.103	13.568
ProbeTrack13	11	ProbeTrack	13.2	SCS215b	20111104.142257	20111104.142807	8	0.013309	60	10	60-180	60	91	GapExp	SmallFlash	0	21	2	0	1	target	1	368	816	208872	13.328	9.459	17.192
ProbeTrack13	11	ProbeTrack	13.2	SCS215b	20111104.142257	20111104.142812	8	0.013309	60	10	60-180	60	158	GapExp	SmallFlash	0	22	2	45	0	distractor	1	380	810	209682	13.328	5.091	21.571
ProbeTrack13	11	ProbeTrack	13.2	SCS215b	20111104.142257	20111104.142819	8	0.013309	60	10	60-180	60	106	GapExp	SmallFlash	0	23	2	45	1	distractor	0	381	-1000	208682	13.328	10.115	16.550
ProbeTrack13	11	ProbeTrack	13.2	SCS215b	20111104.142257	20111104.142825	8	0.013309	60	10	60-180	60	135	GapExp	SmallFlash	0	24	2	0	1	target	1	371	815	209497	13.328	11.744	14.913
ProbeTrack13	11	ProbeTrack	13.2	SCS215b	20111104.142257	20111104.142832	8	0.013309	60	10	60-180	60	140	GapExp	SmallFlash	0	25	2	0	0	target	0	371	-1000	208497	13.328	6.447	20.218
ProbeTrack13	11	ProbeTrack	13.2	SCS215b	20111104.142257	20111104.142837	8	0.013309	60	10	60-180	60	102	GapExp	SmallFlash	0	26	2	45	0	distractor	1	464	768	209265	13.328	9.168	17.470
ProbeTrack13	11	ProbeTrack	13.2	SCS215b	20111104.142257	20111104.142949	8	0.013309	60	10	60-180	60	169	GapExp	SmallFlash	0	27	2	45	0	distractor	1	449	776	210041	13.328	8.063	18.585
ProbeTrack13	11	ProbeTrack	13.2	SCS215b	20111104.142257	20111104.143001	8	0.013309	60	10	60-180	60	158	GapExp	SmallFlash	0	28	2	1	0	distractor	1	456	772	210813	13.328	12.591	14.069
ProbeTrack13	11	ProbeTrack	13.2	SCS215b	20111104.142257	20111104.143007	8	0.013309	60	10	60-180	60	128	GapExp	SmallFlash	0	29	2	45	1	distractor	0	395	-1000	209813	13.328	12.472	14.197
ProbeTrack13	11	ProbeTrack	13.2	SCS215b	20111104.142257	20111104.143014	8	0.013309	60	10	60-180	60	142	GapExp	SmallFlash	0	30	2	3	1	target	1	410	795	210608	13.328	11.517	15.133
ProbeTrack13	11	ProbeTrack	13.2	SCS215b	20111104.142257	20111104.143020	8	0.013309	60	10	60-180	60	180	GapExp	SmallFlash	0	31	2	0	1	target	1	372	814	211422	13.328	8.335	18.339
ProbeTrack13	11	ProbeTrack	13.2	SCS215b	20111104.142257	20111104.143027	8	0.013309	60	10	60-180	60	81	GapExp	SmallFlash	0	32	2	0	0	distractor	1	465	768	212190	13.328	6.815	19.837
ProbeTrack13	11	ProbeTrack	13.2	SCS215b	20111104.142257	20111104.143032	8	0.013309	60	10	60-180	60	64	GapExp	SmallFlash	0	33	2	1	0	distractor	1	411	795	212985	13.328	13.296	13.360
ProbeTrack13	11	ProbeTrack	13.2	SCS215b	20111104.142257	20111104.143045	8	0.013309	60	10	60-180	60	90	GapExp	SmallFlash	0	34	2	45	1	target	1	425	788	213773	13.381	11.855	25.224
ProbeTrack13	11	ProbeTrack	13.2	SCS215b	20111104.142257	20111104.143052	8	0.013309	60	10	60-180	60	156	GapExp	SmallFlash	0	35	2	1	1	target	1	333	834	214607	13.328	13.303	13.361
ProbeTrack13	11	ProbeTrack	13.2	SCS215b	20111104.142257	20111104.143058	8	0.013309	60	10	60-180	60	146	GapExp	SmallFlash	0	36	2	45	0	distractor	1	501	750	215357	13.328	11.719	14.935
ProbeTrack13	11	ProbeTrack	13.2	SCS215b	20111104.142257	20111104.143105	8	0.013309	60	10	60-180	60	67	GapExp	SmallFlash	0	37	2	3	0	distractor	1	475	763	216120	13.328	9.618	17.043
ProbeTrack13	11	ProbeTrack	13.2	SCS215b	20111104.142257	20111104.143110	8	0.013309	60	10	60-180	60	168	GapExp	SmallFlash	0	38	2	1	0	distractor	1	450	775	216895	13.328	8.923	17.729
ProbeTrack13	11	ProbeTrack	13.2	SCS215b	20111104.142257	20111104.143116	8	0.013309	60	10	60-180	60	74	GapExp	SmallFlash	0	39	2	0	1	target	1	378	811	217706	13.328	10.625	16.030
ProbeTrack13	11	ProbeTrack	13.2	SCS215b	20111104.142257	20111104.143122	8	0.013309	60	10	60-180	60	137	GapExp	SmallFlash	0	40	2	3	1	target	1	332	834	218540	13.328	7.801	18.860
ProbeTrack13	11	ProbeTrack	13.2	SCS215b	20111104.142257	20111104.143128	8	0.013309	60	10	60-180	60	168	GapExp	SmallFlash	0	41	2	0	1	target	1	354	823	219363	13.328	4.610	22.050
ProbeTrack13	11	ProbeTrack	13.2	SCS215b	20111104.142257	20111104.143134	8	0.013309	60	10	60-180	60	92	GapExp	SmallFlash	0	42	2	0	1	target	1	392	804	220167	13.328	11.973	14.680
ProbeTrack13	11	ProbeTrack	13.2	SCS215b	20111104.142257	20111104.143140	8	0.013309	60	10	60-180	60	176	GapExp	SmallFlash	0	43	2	45	1	target	1	289	856	221023	13.328	10.747	15.916
ProbeTrack13	11	ProbeTrack	13.2	SCS215b	20111104.142257	20111104.143147	8	0.013309	60	10	60-180	60	77	GapExp	SmallFlash	0	44	2	0	0	target	0	402	-1000	220023	13.328	12.326	14.310
ProbeTrack13	11	ProbeTrack	13.2	SCS215b	20111104.142257	20111104.143152	8	0.013309	60	10	60-180	60	157	GapExp	SmallFlash	0	45	2	3	0	distractor	1	447	777	220800	13.328	6.018	20.631
ProbeTrack13	11	ProbeTrack	13.2	SCS215b	20111104.142257	20111104.143233	8	0.013309	60	10	60-180	60	159	GapExp	SmallFlash	0	46	2	3	1	target	1	438	781	221581	13.328	7.212	19.452
ProbeTrack13	11	ProbeTrack	13.2	SCS215b	20111104.142257	20111104.143240	8	0.013309	60	10	60-180	60	89	GapExp	SmallFlash	0	47	2	45	0	distractor	1	463	769	222350	13.328	11.240	15.431
ProbeTrack13	11	ProbeTrack	13.2	SCS215b	20111104.142257	20111104.143246	8	0.013309	60	10	60-180	60	148	GapExp	SmallFlash	0	48	2	1	0	distractor	1	471	765	223115	13.328	6.927	19.734
ProbeTrack13	11	ProbeTrack	13.2	SCS215b	20111104.142257	20111104.143252	8	0.013309	60	10	60-180	60	121	GapExp	SmallFlash	0	49	2	1	0	distractor	1	454	773	223888	13.328	9.374	17.308
ProbeTrack13	11	ProbeTrack	13.2	SCS215b	20111104.142257	20111104.143258	8	0.013309	60	10	60-180	60	61	GapExp	SmallFlash	0	50	2	1	0	distractor	1	645	678	224566	13.328	6.375	20.271
ProbeTrack13	11	ProbeTrack	13.2	SCS215b	20111104.142257	20111104.143304	8	0.013309	60	10	60-180	60	128	GapExp	SmallFlash	0	51	2	0	1	target	1	385	808	225374	13.328	4.704	21.952
ProbeTrack13	11	ProbeTrack	13.2	SCS215b	20111104.142257	20111104.143326	8	0.013309	60	10	60-180	60	79	GapExp	SmallFlash	0	52	2	0	1	distractor	0	428	-1000	224374	13.328	6.039	20.614
ProbeTrack13	11	ProbeTrack	13.2	SCS215b	20111104.142257	20111104.143331	8	0.013309	60	10	60-180	60	124	GapExp	SmallFlash	0	53	2	1	0	distractor	1	399	801	225175	13.328	9.914	16.744
ProbeTrack13	11	ProbeTrack	13.2	SCS215b	20111104.142257	20111104.143338	8	0.013309	60	10	60-180	60	76	GapExp	SmallFlash	0	54	2	0	0	distractor	1	412	794	225969	13.328	13.097	13.546
ProbeTrack13	11	ProbeTrack	13.2	SCS215b	20111104.142257	20111104.143343	8	0.013309	60	10	60-180	60	174	GapExp	SmallFlash	0	55	2	45	1	target	1	556	722	226691	13.328	13.096	13.548
ProbeTrack13	11	ProbeTrack	13.2	SCS215b	20111104.142257	20111104.143350	8	0.013309	60	10	60-180	60	143	GapExp	SmallFlash	0	56	2	0	1	target	1	577	712	227403	13.328	4.546	22.107
ProbeTrack13	11	ProbeTrack	13.2	SCS215b	20111104.142257	20111104.143357	8	0.013309	60	10	60-180	60	143	GapExp	SmallFlash	0	57	2	1	1	target	1	381	810	228213	13.328	5.658	21.008
ProbeTrack13	11	ProbeTrack	13.2	SCS215b	20111104.142257	20111104.143403	8	0.013309	60	10	60-180	60	92	GapExp	SmallFlash	0	58	2	0	1	target	1	434	783	228996	13.328	5.032	21.617
ProbeTrack13	11	ProbeTrack	13.2	SCS215b	20111104.142257	20111104.143409	8	0.013309	60	10	60-180	60	90	GapExp	SmallFlash	0	59	2	0	1	target	1	328	836	229832	13.328	10.043	16.608
ProbeTrack13	11	ProbeTrack	13.2	SCS215b	20111104.142257	20111104.143414	8	0.013309	60	10	60-180	60	162	GapExp	SmallFlash	0	60	2	45	1	target	1	337	832	230664	13.328	9.353	17.302
ProbeTrack13	11	ProbeTrack	13.2	SCS215b	20111104.142257	20111104.143422	8	0.013309	60	10	60-180	60	169	GapExp	SmallFlash	0	61	2	0	0	distractor	1	373	814	231478	13.328	10.959	15.697
ProbeTrack13	11	ProbeTrack	13.2	SCS215b	20111104.142257	20111104.143428	8	0.013309	60	10	60-180	60	154	GapExp	SmallFlash	0	62	2	0	0	distractor	1	439	781	232259	13.328	11.574	15.078
ProbeTrack13	11	ProbeTrack	13.2	SCS215b	20111104.142257	20111104.143526	8	0.013309	60	10	60-180	60	132	GapExp	SmallFlash	0	63	2	45	1	target	1	368	816	233075	13.328	7.530	19.154
ProbeTrack13	11	ProbeTrack	13.2	SCS215b	20111104.142257	20111104.143533	8	0.013309	60	10	60-180	60	114	GapExp	SmallFlash	0	64	2	1	1	target	1	388	806	233881	13.328	13.083	13.578
ProbeTrack13	11	ProbeTrack	13.2	SCS215b	20111104.142257	20111104.143539	8	0.013309	60	10	60-180	60	109	GapExp	SmallFlash	0	65	2	3	1	target	1	361	820	234701	13.328	8.717	17.928
ProbeTrack13	11	ProbeTrack	13.2	SCS215b	20111104.142257	20111104.143544	8	0.013309	60	10	60-180	60	109	GapExp	SmallFlash	0	66	2	3	0	distractor	1	461	770	235471	13.328	13.115	13.540
ProbeTrack13	11	ProbeTrack	13.2	SCS215b	20111104.142257	20111104.143550	8	0.013309	60	10	60-180	60	177	GapExp	SmallFlash	0	67	2	1	1	target	1	441	780	236251	13.328	13.107	13.555
ProbeTrack13	11	ProbeTrack	13.2	SCS215b	20111104.142257	20111104.143557	8	0.013309	60	10	60-180	60	68	GapExp	SmallFlash	0	68	2	1	0	distractor	1	444	778	237029	13.328	12.013	14.639
ProbeTrack13	11	ProbeTrack	13.2	SCS215b	20111104.142257	20111104.143602	8	0.013309	60	10	60-180	60	77	GapExp	SmallFlash	0	69	2	3	0	distractor	1	386	807	237836	13.328	11.938	14.708
ProbeTrack13	11	ProbeTrack	13.2	SCS215b	20111104.142257	20111104.143608	8	0.013309	60	10	60-180	60	120	GapExp	SmallFlash	0	70	2	1	1	target	1	346	827	238663	13.328	11.649	15.031
ProbeTrack13	11	ProbeTrack	13.2	SCS215b	20111104.142257	20111104.143614	8	0.013309	60	10	60-180	60	152	GapExp	SmallFlash	0	71	2	0	0	distractor	1	388	806	239469	13.328	3.450	23.209
ProbeTrack13	11	ProbeTrack	13.2	SCS215b	20111104.142257	20111104.143620	8	0.013309	60	10	60-180	60	113	GapExp	SmallFlash	0	72	2	3	0	distractor	1	336	832	240301	13.328	12.077	14.586
ProbeTrack13	11	ProbeTrack	13.2	SCS215b	20111104.142257	20111104.143626	8	0.013309	60	10	60-180	60	83	GapExp	SmallFlash	0	73	2	1	0	distractor	1	483	759	241060	13.328	9.979	16.665
ProbeTrack13	11	ProbeTrack	13.2	SCS215b	20111104.142257	20111104.143632	8	0.013309	60	10	60-180	60	79	GapExp	SmallFlash	0	74	2	45	0	distractor	1	427	787	241847	13.328	7.652	19.004
ProbeTrack13	11	ProbeTrack	13.2	SCS215b	20111104.142257	20111104.143638	8	0.013309	60	10	60-180	60	114	GapExp	SmallFlash	0	75	2	0	0	distractor	1	365	818	242665	13.328	13.053	13.613
ProbeTrack13	11	ProbeTrack	13.2	SCS215b	20111104.142257	20111104.143644	8	0.013309	60	10	60-180	60	177	GapExp	SmallFlash	0	76	2	3	0	distractor	1	422	789	243454	13.328	6.948	19.713
ProbeTrack13	11	ProbeTrack	13.2	SCS215b	20111104.142257	20111104.143650	8	0.013309	60	10	60-180	60	147	GapExp	SmallFlash	0	77	2	1	0	distractor	1	429	786	244240	13.328	13.229	13.447
ProbeTrack13	11	ProbeTrack	13.2	SCS215b	20111104.142257	20111104.143657	8	0.013309	60	10	60-180	60	76	GapExp	SmallFlash	0	78	2	45	1	target	1	482	759	244999	13.328	10.341	16.339
ProbeTrack13	11	ProbeTrack	13.2	SCS215b	20111104.142257	20111104.143703	8	0.013309	60	10	60-180	60	165	GapExp	SmallFlash	0	79	2	45	0	distractor	1	412	794	245793	13.328	8.921	17.735
ProbeTrack13	11	ProbeTrack	13.2	SCS215b	20111104.142257	20111104.143711	8	0.013309	60	10	60-180	60	157	GapExp	SmallFlash	0	80	2	45	0	distractor	1	421	790	246583	13.328	12.470	14.198
ProbeTrack13	11	ProbeTrack	13.2	SCS215b	20111104.142257	20111104.143718	8	0.013309	60	10	60-180	60	72	GapExp	SmallFlash	0	81	2	3	1	distractor	0	478	-1000	245583	13.328	4.460	22.188
ProbeTrack13	11	ProbeTrack	13.2	SCS215b	20111104.142257	20111104.143723	8	0.013309	60	10	60-180	60	101	GapExp	SmallFlash	0	82	2	45	0	distractor	1	422	789	246372	13.328	6.954	19.697
ProbeTrack13	11	ProbeTrack	13.2	SCS215b	20111104.142257	20111104.143729	8	0.013309	60	10	60-180	60	88	GapExp	SmallFlash	0	83	2	45	0	distractor	1	496	752	247124	13.328	12.898	13.787
ProbeTrack13	11	ProbeTrack	13.2	SCS215b	20111104.142257	20111104.143736	8	0.013309	60	10	60-180	60	106	GapExp	SmallFlash	0	84	2	0	1	target	1	385	808	247932	13.328	9.627	17.022
ProbeTrack13	11	ProbeTrack	13.2	SCS215b	20111104.142257	20111104.143741	8	0.013309	60	10	60-180	60	176	GapExp	SmallFlash	0	85	2	3	1	target	1	363	819	248751	13.328	8.489	17.997
ProbeTrack13	11	ProbeTrack	13.2	SCS215b	20111104.142257	20111104.143748	8	0.013309	60	10	60-180	60	141	GapExp	SmallFlash	0	86	2	3	1	target	1	407	797	249548	13.328	6.214	20.438
ProbeTrack13	11	ProbeTrack	13.2	SCS215b	20111104.142257	20111104.143754	8	0.013309	60	10	60-180	60	128	GapExp	SmallFlash	0	87	2	45	0	distractor	1	368	816	250364	13.328	5.740	20.921
ProbeTrack13	11	ProbeTrack	13.2	SCS215b	20111104.142257	20111104.143800	8	0.013309	60	10	60-180	60	152	GapExp	SmallFlash	0	88	2	1	0	distractor	1	359	821	251185	13.328	3.745	22.906
ProbeTrack13	11	ProbeTrack	13.2	SCS215b	20111104.142257	20111104.143807	8	0.013309	60	10	60-180	60	170	GapExp	SmallFlash	0	89	2	0	1	early	-4	-3983	-1000	250185	13.328	9.623	17.015
ProbeTrack13	11	ProbeTrack	13.2	SCS215b	20111104.142257	20111104.143813	8	0.013309	60	10	60-180	60	178	GapExp	SmallFlash	0	90	2	3	1	target	1	429	786	250971	13.328	5.028	21.619
ProbeTrack13	11	ProbeTrack	13.2	SCS215b	20111104.142257	20111104.143822	8	0.013309	60	10	60-180	60	89	GapExp	SmallFlash	0	91	2	1	0	distractor	1	364	818	251789	13.328	8.257	18.396
ProbeTrack13	11	ProbeTrack	13.2	SCS215b	20111104.142257	20111104.143917	8	0.013309	60	10	60-180	60	141	GapExp	SmallFlash	0	92	2	45	1	target	1	346	827	252616	13.328	12.857	13.801
ProbeTrack13	11	ProbeTrack	13.2	SCS215b	20111104.142257	20111104.143923	8	0.013309	60	10	60-180	60	154	GapExp	SmallFlash	0	93	2	0	0	distractor	1	357	822	253438	13.328	5.777	20.871
ProbeTrack13	11	ProbeTrack	13.2	SCS215b	20111104.142257	20111104.143929	8	0.013309	60	10	60-180	60	123	GapExp	SmallFlash	0	94	2	45	1	target	1	403	799	254237	13.328	5.296	21.355
ProbeTrack13	11	ProbeTrack	13.2	SCS215b	20111104.142257	20111104.143936	8	0.013309	60	10	60-180	60	139	GapExp	SmallFlash	0	95	2	1	1	target	1	622	689	254926	13.318	9.513	17.133
ProbeTrack13	11	ProbeTrack	13.2	SCS215b	20111104.142257	20111104.143942	8	0.013309	60	10	60-180	60	66	GapExp	SmallFlash	0	96	2	1	1	target	1	336	832	255758	13.402	11.768	25.283
ProbeTrack13	11	ProbeTrack	13.2	SCS215b	20111104.142257	20111104.143947	8	0.013309	60	10	60-180	60	127	GapExp	SmallFlash	0	97	2	1	1	target	1	392	804	256562	13.328	8.242	18.430
ProbeTrack13	11	ProbeTrack	13.2	SCS215b	20111104.142257	20111104.143953	8	0.013309	60	10	60-180	60	167	GapExp	SmallFlash	0	98	2	45	1	target	1	410	795	257357	13.328	10.896	15.740
ProbeTrack13	11	ProbeTrack	13.2	SCS215b	20111104.142257	20111104.144000	8	0.013309	60	10	60-180	60	73	GapExp	SmallFlash	0	99	2	3	0	distractor	1	445	778	258135	13.328	11.437	15.213
ProbeTrack13	11	ProbeTrack	13.2	SCS215b	20111104.142257	20111104.144006	8	0.013309	60	10	60-180	60	107	GapExp	SmallFlash	0	100	2	1	1	target	1	370	815	258950	13.328	11.957	14.696
ProbeTrack13	11	ProbeTrack	13.2	SCS215b	20111104.142257	20111104.144012	8	0.013309	60	10	60-180	60	147	GapExp	SmallFlash	0	101	2	0	0	distractor	1	384	808	259758	13.328	10.490	16.160
ProbeTrack13	11	ProbeTrack	13.2	SCS215b	20111104.142257	20111104.144018	8	0.013309	60	10	60-180	60	149	GapExp	SmallFlash	0	102	2	0	1	target	1	352	824	260582	13.328	7.812	18.851
ProbeTrack13	11	ProbeTrack	13.2	SCS215b	20111104.142257	20111104.144024	8	0.013309	60	10	60-180	60	165	GapExp	SmallFlash	0	103	2	3	1	target	1	308	846	261428	13.328	13.274	13.384
ProbeTrack13	11	ProbeTrack	13.2	SCS215b	20111104.142257	20111104.144031	8	0.013309	60	10	60-180	60	146	GapExp	SmallFlash	0	104	2	3	0	distractor	1	448	776	262204	13.328	9.307	17.342
ProbeTrack13	11	ProbeTrack	13.2	SCS215b	20111104.142257	20111104.144037	8	0.013309	60	10	60-180	60	125	GapExp	SmallFlash	0	105	2	3	1	target	1	313	844	263048	13.328	8.207	18.448
ProbeTrack13	11	ProbeTrack	13.2	SCS215b	20111104.142257	20111104.144042	8	0.013309	60	10	60-180	60	121	GapExp	SmallFlash	0	106	2	0	1	target	1	326	837	263885	13.328	11.851	14.796
ProbeTrack13	11	ProbeTrack	13.2	SCS215b	20111104.142257	20111104.144049	8	0.013309	60	10	60-180	60	97	GapExp	SmallFlash	0	107	2	3	0	distractor	1	791	605	264490	13.328	13.302	13.356
ProbeTrack13	11	ProbeTrack	13.2	SCS215b	20111104.142257	20111104.144055	8	0.013309	60	10	60-180	60	176	GapExp	SmallFlash	0	108	2	45	0	distractor	1	409	796	265286	13.339	10.754	17.121
ProbeTrack13	11	ProbeTrack	13.2	SCS215b	20111104.142257	20111104.144102	8	0.013309	60	10	60-180	60	117	GapExp	SmallFlash	0	109	2	1	1	target	1	454	773	266059	13.328	11.469	15.195
ProbeTrack13	11	ProbeTrack	13.2	SCS215b	20111104.142257	20111104.144107	8	0.013309	60	10	60-180	60	99	GapExp	SmallFlash	0	110	2	3	1	target	1	372	814	266873	13.328	13.281	13.370
ProbeTrack13	11	ProbeTrack	13.2	SCS215b	20111104.142257	20111104.144112	8	0.013309	60	10	60-180	60	179	GapExp	SmallFlash	0	111	2	3	0	distractor	1	351	825	267698	13.328	7.420	19.221
ProbeTrack13	11	ProbeTrack	13.2	SCS215b	20111104.142257	20111104.144119	8	0.013309	60	10	60-180	60	131	GapExp	SmallFlash	0	112	2	3	1	target	1	434	783	268481	13.328	11.410	15.241
ProbeTrack13	11	ProbeTrack	13.2	SCS215b	20111104.142257	20111104.144126	8	0.013309	60	10	60-180	60	104	GapExp	SmallFlash	0	113	2	45	0	distractor	1	411	795	269276	13.328	7.410	19.241
ProbeTrack13	11	ProbeTrack	13.2	SCS215b	20111104.142257	20111104.144132	8	0.013309	60	10	60-180	60	149	GapExp	SmallFlash	0	114	2	0	0	distractor	1	348	826	270102	13.328	5.026	21.626
ProbeTrack13	11	ProbeTrack	13.2	SCS215b	20111104.142257	20111104.144138	8	0.013309	60	10	60-180	60	85	GapExp	SmallFlash	0	115	2	1	0	distractor	1	375	813	270915	13.328	6.628	20.042
ProbeTrack13	11	ProbeTrack	13.2	SCS215b	20111104.142257	20111104.144143	8	0.013309	60	10	60-180	60	104	GapExp	SmallFlash	0	116	2	0	1	distractor	0	326	-1000	269915	13.328	9.399	17.256
ProbeTrack13	11	ProbeTrack	13.2	SCS215b	20111104.142257	20111104.144148	8	0.013309	60	10	60-180	60	180	GapExp	SmallFlash	0	117	2	1	1	target	1	312	844	270759	13.328	10.375	16.285
ProbeTrack13	11	ProbeTrack	13.2	SCS215b	20111104.142257	20111104.144252	8	0.013309	60	10	60-180	60	62	GapExp	SmallFlash	0	118	2	3	1	distractor	0	363	-1000	269759	13.328	4.405	22.274
ProbeTrack13	11	ProbeTrack	13.2	SCS215b	20111104.142257	20111104.144256	8	0.013309	60	10	60-180	60	176	GapExp	SmallFlash	0	119	2	45	1	target	1	365	818	270577	13.328	6.393	20.258
ProbeTrack13	11	ProbeTrack	13.2	SCS215b	20111104.142257	20111104.144303	8	0.013309	60	10	60-180	60	65	GapExp	SmallFlash	0	120	2	1	0	distractor	1	563	719	271296	13.328	9.646	17.002
ProbeTrack13	11	ProbeTrack	13.2	SCS215b	20111104.142257	20111104.144308	8	0.013309	60	10	60-180	60	61	GapExp	SmallFlash	0	121	2	45	0	target	0	366	-1000	270296	13.328	6.472	20.206
ProbeTrack13	11	ProbeTrack	13.2	SCS215b	20111104.142257	20111104.144314	8	0.013309	60	10	60-180	60	119	GapExp	SmallFlash	0	122	2	1	0	distractor	1	394	803	271099	13.328	11.901	14.759
ProbeTrack13	11	ProbeTrack	13.2	SCS215b	20111104.142257	20111104.144320	8	0.013309	60	10	60-180	60	140	GapExp	SmallFlash	0	123	2	0	0	distractor	1	398	801	271900	13.328	6.253	20.404
ProbeTrack13	11	ProbeTrack	13.2	SCS215b	20111104.142257	20111104.144326	8	0.013309	60	10	60-180	60	86	GapExp	SmallFlash	0	124	2	3	1	target	1	394	803	272703	13.328	6.679	19.980
ProbeTrack13	11	ProbeTrack	13.2	SCS215b	20111104.142257	20111104.144331	8	0.013309	60	10	60-180	60	93	GapExp	SmallFlash	0	125	2	0	1	target	1	336	832	273535	13.328	13.094	13.566
ProbeTrack13	11	ProbeTrack	13.2	SCS215b	20111104.142257	20111104.144337	8	0.013309	60	10	60-180	60	163	GapExp	SmallFlash	0	126	2	45	0	distractor	1	919	541	274076	13.328	7.171	19.491
ProbeTrack13	11	ProbeTrack	13.2	SCS215b	20111104.142257	20111104.144345	8	0.013309	60	10	60-180	60	135	GapExp	SmallFlash	0	127	2	45	1	target	1	322	839	274915	13.328	8.150	18.507
ProbeTrack13	11	ProbeTrack	13.2	SCS215b	20111104.142257	20111104.144353	8	0.013309	60	10	60-180	60	88	GapExp	SmallFlash	0	128	2	1	1	target	1	389	806	275721	13.328	5.635	21.015
ProbeTrack13	11	ProbeTrack	13.2	SCS215b	20111104.142257	20111104.144359	8	0.013309	60	10	60-180	60	174	GapExp	SmallFlash	0	129	2	1	1	target	1	349	826	276547	13.328	9.959	16.706
ProbeTrack13	11	ProbeTrack	13.2	SCS215b	20111104.142257	20111104.144406	8	0.013309	60	10	60-180	60	149	GapExp	SmallFlash	0	130	2	0	0	distractor	1	405	798	277345	13.352	6.760	19.909
ProbeTrack13	11	ProbeTrack	13.2	SCS215b	20111104.142257	20111104.144412	8	0.013309	60	10	60-180	60	74	GapExp	SmallFlash	0	131	2	3	0	distractor	1	329	836	278181	13.328	13.292	13.365
ProbeTrack13	11	ProbeTrack	13.2	SCS215b	20111104.142257	20111104.144417	8	0.013309	60	10	60-180	60	132	GapExp	SmallFlash	0	132	2	3	1	distractor	0	370	-1000	277181	13.328	11.649	15.000
ProbeTrack13	11	ProbeTrack	13.2	SCS215b	20111104.142257	20111104.144423	8	0.013309	60	10	60-180	60	128	GapExp	SmallFlash	0	133	2	3	0	distractor	1	343	829	278010	13.328	13.263	13.395
ProbeTrack13	11	ProbeTrack	13.2	SCS215b	20111104.142257	20111104.144556	8	0.013309	60	10	60-180	60	166	GapExp	SmallFlash	0	134	2	3	1	target	1	387	807	278817	13.328	11.988	14.655
ProbeTrack13	11	ProbeTrack	13.2	SCS215b	20111104.142257	20111104.144602	8	0.013309	60	10	60-180	60	150	GapExp	SmallFlash	0	135	2	45	0	target	0	381	-1000	277817	13.328	7.086	19.578
ProbeTrack13	11	ProbeTrack	13.2	SCS215b	20111104.142257	20111104.144609	8	0.013309	60	10	60-180	60	78	GapExp	SmallFlash	0	136	2	0	1	target	1	443	779	278596	13.328	13.304	13.358
ProbeTrack13	11	ProbeTrack	13.2	SCS215b	20111104.142257	20111104.144616	8	0.013309	60	10	60-180	60	154	GapExp	SmallFlash	0	137	2	3	1	target	1	379	811	279407	13.328	13.071	13.592
ProbeTrack13	11	ProbeTrack	13.2	SCS215b	20111104.142257	20111104.144623	8	0.013309	60	10	60-180	60	109	GapExp	SmallFlash	0	138	2	3	0	distractor	1	607	697	280104	13.328	13.305	13.354
ProbeTrack13	11	ProbeTrack	13.2	SCS215b	20111104.142257	20111104.144630	8	0.013309	60	10	60-180	60	117	GapExp	SmallFlash	0	139	2	3	1	target	1	362	819	280923	13.328	13.258	13.406
ProbeTrack13	11	ProbeTrack	13.2	SCS215b	20111104.142257	20111104.144636	8	0.013309	60	10	60-180	60	120	GapExp	SmallFlash	0	140	2	0	0	distractor	1	467	767	281690	13.328	13.296	13.358
ProbeTrack13	11	ProbeTrack	13.2	SCS215b	20111104.142257	20111104.144642	8	0.013309	60	10	60-180	60	158	GapExp	SmallFlash	0	141	2	1	1	distractor	0	438	-1000	280690	13.328	10.839	15.811
ProbeTrack13	11	ProbeTrack	13.2	SCS215b	20111104.142257	20111104.144648	8	0.013309	60	10	60-180	60	172	GapExp	SmallFlash	0	142	2	1	1	target	1	381	810	281500	13.328	9.006	17.661
ProbeTrack13	11	ProbeTrack	13.2	SCS215b	20111104.142257	20111104.144655	8	0.013309	60	10	60-180	60	92	GapExp	SmallFlash	0	143	2	0	0	distractor	1	623	689	282189	13.387	3.618	26.623
ProbeTrack13	11	ProbeTrack	13.2	SCS215b	20111104.142257	20111104.144701	8	0.013309	60	10	60-180	60	180	GapExp	SmallFlash	0	144	2	1	0	distractor	1	443	779	282968	13.328	11.721	14.930
ProbeTrack13	11	ProbeTrack	13.2	SCS215b	20111104.142257	20111104.144708	8	0.013309	60	10	60-180	60	69	GapExp	SmallFlash	0	145	2	1	0	distractor	1	433	784	283752	13.366	12.477	20.510
ProbeTrack13	11	ProbeTrack	13.2	SCS215b	20111104.142257	20111104.144713	8	0.013309	60	10	60-180	60	176	GapExp	SmallFlash	0	146	2	45	1	target	1	413	794	284546	13.328	4.777	21.881
ProbeTrack13	11	ProbeTrack	13.2	SCS215b	20111104.142257	20111104.144720	8	0.013309	60	10	60-180	60	127	GapExp	SmallFlash	0	147	2	45	1	target	1	358	821	285367	13.328	8.571	18.093
ProbeTrack13	11	ProbeTrack	13.2	SCS215b	20111104.142257	20111104.144726	8	0.013309	60	10	60-180	60	106	GapExp	SmallFlash	0	148	2	0	0	distractor	1	424	788	286155	13.328	13.303	13.348
ProbeTrack13	11	ProbeTrack	13.2	SCS215b	20111104.142257	20111104.144732	8	0.013309	60	10	60-180	60	121	GapExp	SmallFlash	0	149	2	0	0	distractor	1	417	792	286947	13.328	4.994	21.663
ProbeTrack13	11	ProbeTrack	13.2	SCS215b	20111104.142257	20111104.144738	8	0.013309	60	10	60-180	60	151	GapExp	SmallFlash	0	150	2	45	0	distractor	1	378	811	287758	13.328	12.434	14.223
ProbeTrack13	11	ProbeTrack	13.2	SCS215b	20111104.142257	20111104.144745	8	0.013309	60	10	60-180	60	176	GapExp	SmallFlash	0	151	2	3	0	distractor	1	409	796	288554	13.328	4.013	22.630
ProbeTrack13	11	ProbeTrack	13.2	SCS215b	20111104.142257	20111104.144751	8	0.013309	60	10	60-180	60	118	GapExp	SmallFlash	0	152	2	0	1	distractor	0	340	-1000	287554	13.328	13.119	13.559
ProbeTrack13	11	ProbeTrack	13.2	SCS215b	20111104.142257	20111104.144757	8	0.013309	60	10	60-180	60	89	GapExp	SmallFlash	0	153	2	1	1	target	1	557	722	288276	13.328	8.650	18.010
ProbeTrack13	11	ProbeTrack	13.2	SCS215b	20111104.142257	20111104.144807	8	0.013309	60	10	60-180	60	78	GapExp	SmallFlash	0	154	2	45	0	distractor	1	424	788	289064	13.328	10.603	16.064
ProbeTrack13	11	ProbeTrack	13.2	SCS215b	20111104.142257	20111104.144812	8	0.013309	60	10	60-180	60	162	GapExp	SmallFlash	0	155	2	3	0	distractor	1	359	821	289885	13.328	4.106	22.551
ProbeTrack13	11	ProbeTrack	13.2	SCS215b	20111104.142257	20111104.144819	8	0.013309	60	10	60-180	60	159	GapExp	SmallFlash	0	156	2	3	0	distractor	1	374	813	290698	13.328	6.646	20.011
ProbeTrack13	11	ProbeTrack	13.2	SCS215b	20111104.142257	20111104.144825	8	0.013309	60	10	60-180	60	174	GapExp	SmallFlash	0	157	2	3	0	distractor	1	417	792	291490	13.328	12.099	14.559
ProbeTrack13	11	ProbeTrack	13.2	SCS215b	20111104.142257	20111104.144832	8	0.013309	60	10	60-180	60	61	GapExp	SmallFlash	0	158	2	1	1	target	1	621	690	292180	13.328	5.150	21.497
ProbeTrack13	11	ProbeTrack	13.2	SCS215b	20111104.142257	20111104.144837	8	0.013309	60	10	60-180	60	76	GapExp	SmallFlash	0	159	2	1	0	distractor	1	455	773	292953	13.328	11.807	14.846
ProbeTrack13	11	ProbeTrack	13.2	SCS215b	20111104.142257	20111104.144843	8	0.013309	60	10	60-180	60	68	GapExp	SmallFlash	0	160	2	1	0	distractor	1	356	822	293775	13.328	9.910	16.730
ProbeTrack13	11	ProbeTrack	13.2	SCS215b	20111104.142257	20111104.144848	8	0.013309	60	10	60-180	60	100	GapExp	SmallFlash	0	161	2	3	0	distractor	1	357	822	294597	13.328	5.838	20.818
ProbeTrack13	11	ProbeTrack	13.2	SCS215b	20111104.142257	20111104.144853	8	0.013309	60	10	60-180	60	170	GapExp	SmallFlash	0	162	2	1	1	target	1	310	845	295442	13.328	8.040	21.206
ProbeTrack13	11	ProbeTrack	13.2	SCS215b	20111104.142257	20111104.144900	8	0.013309	60	10	60-180	60	180	GapExp	SmallFlash	0	163	2	45	1	target	1	481	760	296202	13.328	4.025	22.612
ProbeTrack13	11	ProbeTrack	13.2	SCS215b	20111104.142257	20111104.144907	8	0.013309	60	10	60-180	60	155	GapExp	SmallFlash	0	164	2	0	1	target	1	317	842	297044	13.328	9.534	17.124
ProbeTrack13	11	ProbeTrack	13.2	SCS215b	20111104.142257	20111104.144913	8	0.013309	60	10	60-180	60	91	GapExp	SmallFlash	0	165	2	3	0	distractor	1	358	821	297865	13.328	9.733	16.932
ProbeTrack13	11	ProbeTrack	13.2	SCS215b	20111104.142257	20111104.144920	8	0.013309	60	10	60-180	60	128	GapExp	SmallFlash	0	166	2	1	1	target	1	348	826	298691	13.328	9.814	16.839
ProbeTrack13	11	ProbeTrack	13.2	SCS215b	20111104.142257	20111104.144927	8	0.013309	60	10	60-180	60	108	GapExp	SmallFlash	0	167	2	0	1	target	1	304	848	299539	13.328	9.446	17.212
ProbeTrack13	11	ProbeTrack	13.2	SCS215b	20111104.142257	20111104.144932	8	0.013309	60	10	60-180	60	178	GapExp	SmallFlash	0	168	2	1	0	distractor	1	382	809	300348	13.328	6.414	20.237
ProbeTrack13	11	ProbeTrack	13.2	SCS215b	20111104.142257	20111104.144938	8	0.013309	60	10	60-180	60	75	GapExp	SmallFlash	0	169	2	45	1	target	1	351	825	301173	13.328	9.310	17.345
ProbeTrack13	11	ProbeTrack	13.2	SCS215b	20111104.142257	20111104.144945	8	0.013309	60	10	60-180	60	101	GapExp	SmallFlash	0	170	2	3	0	distractor	1	340	830	302003	13.328	7.954	18.697
ProbeTrack13	11	ProbeTrack	13.2	SCS215b	20111104.142257	20111104.144951	8	0.013309	60	10	60-180	60	154	GapExp	SmallFlash	0	171	2	45	1	target	1	338	831	302834	13.328	9.097	17.558
ProbeTrack13	11	ProbeTrack	13.2	SCS215b	20111104.142257	20111104.144957	8	0.013309	60	10	60-180	60	138	GapExp	SmallFlash	0	172	2	0	0	distractor	1	461	770	303604	13.328	5.994	20.659
ProbeTrack13	11	ProbeTrack	13.2	SCS215b	20111104.142257	20111104.145004	8	0.013309	60	10	60-180	60	71	GapExp	SmallFlash	0	173	2	3	1	distractor	0	328	-1000	302604	13.328	11.817	14.831
ProbeTrack13	11	ProbeTrack	13.2	SCS215b	20111104.142257	20111104.145009	8	0.013309	60	10	60-180	60	115	GapExp	SmallFlash	0	174	2	3	1	target	1	364	818	303422	13.328	13.302	13.353
ProbeTrack13	11	ProbeTrack	13.2	SCS215b	20111104.142257	20111104.145014	8	0.013309	60	10	60-180	60	152	GapExp	SmallFlash	0	175	2	45	1	target	1	381	810	304232	13.328	4.519	22.124
ProbeTrack13	11	ProbeTrack	13.2	SCS215b	20111104.142257	20111104.145022	8	0.013309	60	10	60-180	60	180	GapExp	SmallFlash	0	176	2	3	0	distractor	1	432	784	305016	13.328	5.086	21.563
ProbeTrack13	11	ProbeTrack	13.2	SCS215b	20111104.142257	20111104.145201	8	0.013309	60	10	60-180	60	129	GapExp	SmallFlash	0	177	2	45	1	target	1	348	826	305842	13.328	9.781	16.897
ProbeTrack13	11	ProbeTrack	13.2	SCS215b	20111104.142257	20111104.145207	8	0.013309	60	10	60-180	60	119	GapExp	SmallFlash	0	178	2	0	1	target	1	382	809	306651	13.328	11.852	14.796
ProbeTrack13	11	ProbeTrack	13.2	SCS215b	20111104.142257	20111104.145213	8	0.013309	60	10	60-180	60	91	GapExp	SmallFlash	0	179	2	3	0	distractor	1	398	801	307452	13.328	13.302	13.374
ProbeTrack13	11	ProbeTrack	13.2	SCS215b	20111104.142257	20111104.145218	8	0.013309	60	10	60-180	60	92	GapExp	SmallFlash	0	180	2	1	1	distractor	0	387	-1000	306452	13.328	12.639	14.020
ProbeTrack13	11	ProbeTrack	13.2	SCS215b	20111104.142257	20111104.145223	8	0.013309	60	10	60-180	60	159	GapExp	SmallFlash	0	181	2	1	0	distractor	1	412	794	307246	13.328	13.103	13.556
ProbeTrack13	11	ProbeTrack	13.2	SCS215b	20111104.142257	20111104.145230	8	0.013309	60	10	60-180	60	161	GapExp	SmallFlash	0	182	2	45	0	distractor	1	436	782	308028	13.328	13.091	13.551
ProbeTrack13	11	ProbeTrack	13.2	SCS215b	20111104.142257	20111104.145237	8	0.013309	60	10	60-180	60	94	GapExp	SmallFlash	0	183	2	0	0	distractor	1	408	796	308824	13.328	10.897	15.754
ProbeTrack13	11	ProbeTrack	13.2	SCS215b	20111104.142257	20111104.145243	8	0.013309	60	10	60-180	60	148	GapExp	SmallFlash	0	184	2	45	1	distractor	0	556	-1000	307824	13.328	3.686	22.979
ProbeTrack13	11	ProbeTrack	13.2	SCS215b	20111104.142257	20111104.145250	8	0.013309	60	10	60-180	60	146	GapExp	SmallFlash	0	185	2	1	1	target	1	566	717	308541	13.328	8.129	18.535
ProbeTrack13	11	ProbeTrack	13.2	SCS215b	20111104.142257	20111104.145256	8	0.013309	60	10	60-180	60	116	GapExp	SmallFlash	0	186	2	3	1	target	1	605	698	309239	13.328	3.756	22.898
ProbeTrack13	11	ProbeTrack	13.2	SCS215b	20111104.142257	20111104.145302	8	0.013309	60	10	60-180	60	84	GapExp	SmallFlash	0	187	2	0	1	target	1	372	814	310053	13.328	5.940	20.728
ProbeTrack13	11	ProbeTrack	13.2	SCS215b	20111104.142257	20111104.145307	8	0.013309	60	10	60-180	60	145	GapExp	SmallFlash	0	188	2	1	0	distractor	1	334	833	310886	13.328	5.009	21.645
ProbeTrack13	11	ProbeTrack	13.2	SCS215b	20111104.142257	20111104.145314	8	0.013309	60	10	60-180	60	163	GapExp	SmallFlash	0	189	2	0	0	distractor	1	560	720	311606	13.328	8.804	17.850
ProbeTrack13	11	ProbeTrack	13.2	SCS215b	20111104.142257	20111104.145320	8	0.013309	60	10	60-180	60	81	GapExp	SmallFlash	0	190	2	1	1	target	1	472	764	312370	13.328	6.699	19.953
ProbeTrack13	11	ProbeTrack	13.2	SCS215b	20111104.142257	20111104.145326	8	0.013309	60	10	60-180	60	71	GapExp	SmallFlash	0	191	2	1	0	distractor	1	332	834	313204	13.328	7.114	19.535
ProbeTrack13	11	ProbeTrack	13.2	SCS215b	20111104.142257	20111104.145331	8	0.013309	60	10	60-180	60	102	GapExp	SmallFlash	0	192	2	45	0	distractor	1	382	809	314013	13.328	8.847	17.799
ProbeTrack13	11	ProbeTrack	13.2	SCS215b	20111104.142257	20111104.145337	8	0.013309	60	10	60-180	60	168	GapExp	SmallFlash	0	193	2	45	1	target	1	353	824	314837	13.328	6.844	19.801
ProbeTrack13	11	ProbeTrack	13.2	SCS215b	20111104.142257	20111104.145345	8	0.013309	60	10	60-180	60	90	GapExp	SmallFlash	0	194	2	45	1	target	1	385	808	315645	13.328	8.589	18.060
ProbeTrack13	11	ProbeTrack	13.2	SCS215b	20111104.142257	20111104.145350	8	0.013309	60	10	60-180	60	72	GapExp	SmallFlash	0	195	2	1	1	target	1	361	820	316465	13.328	8.787	17.864
ProbeTrack13	11	ProbeTrack	13.2	SCS215b	20111104.142257	20111104.145355	8	0.013309	60	10	60-180	60	140	GapExp	SmallFlash	0	196	2	3	1	target	1	403	799	317264	13.328	7.662	18.989
ProbeTrack13	11	ProbeTrack	13.2	SCS215b	20111104.142257	20111104.145401	8	0.013309	60	10	60-180	60	104	GapExp	SmallFlash	0	197	2	0	0	distractor	1	447	777	318041	13.328	4.887	21.776
ProbeTrack13	11	ProbeTrack	13.2	SCS215b	20111104.142257	20111104.145407	8	0.013309	60	10	60-180	60	157	GapExp	SmallFlash	0	198	2	3	1	target	1	281	860	318901	13.328	9.088	17.575
ProbeTrack13	11	ProbeTrack	13.2	SCS215b	20111104.142257	20111104.145413	8	0.013309	60	10	60-180	60	89	GapExp	SmallFlash	0	199	2	45	0	distractor	1	453	774	319675	13.328	7.715	18.947
ProbeTrack13	11	ProbeTrack	13.2	SCS215b	20111104.142257	20111104.145420	8	0.013309	60	10	60-180	60	173	GapExp	SmallFlash	0	200	2	1	0	distractor	1	455	773	320448	13.328	13.124	13.516
ProbeTrack13	11	ProbeTrack	13.2	SCS215b	20111104.145520	20111104.145534	8	0.013326	60	10	60-180	60	117	GapPrac	Blank	1	1	2	0	1	target	1	430	785	321233	13.384	2.896	23.747
ProbeTrack13	11	ProbeTrack	13.2	SCS215b	20111104.145520	20111104.145540	8	0.013326	60	10	60-180	60	145	GapPrac	Blank	1	2	2	0	0	distractor	1	690	655	321888	13.328	13.104	13.552
ProbeTrack13	11	ProbeTrack	13.2	SCS215b	20111104.145520	20111104.145547	8	0.013326	60	10	60-180	60	112	GapPrac	Blank	1	3	2	3	0	distractor	1	319	841	322729	13.328	11.705	14.947
ProbeTrack13	11	ProbeTrack	13.2	SCS215b	20111104.145520	20111104.145553	8	0.013326	60	10	60-180	60	118	GapPrac	Blank	1	4	2	45	0	target	0	406	-1000	321729	13.328	5.173	21.487
ProbeTrack13	11	ProbeTrack	13.2	SCS215b	20111104.145520	20111104.145559	8	0.013326	60	10	60-180	60	121	GapPrac	Blank	1	5	2	3	1	target	1	331	835	322564	13.328	4.425	22.233
ProbeTrack13	11	ProbeTrack	13.2	SCS215b	20111104.145520	20111104.145608	8	0.013326	60	10	60-180	60	97	GapPrac	Blank	1	6	2	3	0	distractor	1	422	789	323353	13.328	13.013	13.646
ProbeTrack13	11	ProbeTrack	13.2	SCS215b	20111104.145520	20111104.145614	8	0.013326	60	10	60-180	60	126	GapPrac	Blank	1	7	2	3	0	distractor	1	364	818	324171	13.328	10.353	16.317
ProbeTrack13	11	ProbeTrack	13.2	SCS215b	20111104.145520	20111104.145620	8	0.013326	60	10	60-180	60	109	GapPrac	Blank	1	8	2	1	0	distractor	1	372	814	324985	13.328	6.371	20.273
ProbeTrack13	11	ProbeTrack	13.2	SCS215b	20111104.145520	20111104.145625	8	0.013326	60	10	60-180	60	76	GapPrac	Blank	1	9	2	1	0	distractor	1	447	777	325762	13.331	8.576	18.073
ProbeTrack13	11	ProbeTrack	13.2	SCS215b	20111104.145520	20111104.145631	8	0.013326	60	10	60-180	60	100	GapPrac	Blank	1	10	2	1	1	distractor	0	602	-1000	324762	13.328	8.958	17.694
ProbeTrack13	11	ProbeTrack	13.2	SCS215b	20111104.145520	20111104.145636	8	0.013326	60	10	60-180	60	113	GapPrac	Blank	1	11	2	0	0	distractor	1	468	766	325528	13.328	10.997	15.653
ProbeTrack13	11	ProbeTrack	13.2	SCS215b	20111104.145520	20111104.145642	8	0.013326	60	10	60-180	60	143	GapPrac	Blank	1	12	2	0	0	distractor	1	342	829	326357	13.328	6.305	20.346
ProbeTrack13	11	ProbeTrack	13.2	SCS215b	20111104.145520	20111104.145649	8	0.013326	60	10	60-180	60	161	GapPrac	Blank	1	13	2	45	1	target	1	432	784	327141	13.328	6.681	19.964
ProbeTrack13	11	ProbeTrack	13.2	SCS215b	20111104.145520	20111104.145656	8	0.013326	60	10	60-180	60	160	GapPrac	Blank	1	14	2	45	0	distractor	1	398	801	327942	13.328	7.742	18.914
ProbeTrack13	11	ProbeTrack	13.2	SCS215b	20111104.145520	20111104.145703	8	0.013326	60	10	60-180	60	165	GapPrac	Blank	1	15	2	0	1	target	1	446	777	328719	13.328	5.790	20.876
ProbeTrack13	11	ProbeTrack	13.2	SCS215b	20111104.145520	20111104.145710	8	0.013326	60	10	60-180	60	127	GapPrac	Blank	1	16	2	0	1	distractor	0	586	-1000	327719	13.328	9.804	16.853
ProbeTrack13	11	ProbeTrack	13.2	SCS215b	20111104.145520	20111104.145716	8	0.013326	60	10	60-180	60	72	GapPrac	Blank	1	17	2	1	1	target	1	776	612	328331	13.328	13.299	13.354
ProbeTrack13	11	ProbeTrack	13.2	SCS215b	20111104.145520	20111104.145721	8	0.013326	60	10	60-180	60	130	GapPrac	Blank	1	18	2	3	1	target	1	384	808	329139	13.328	5.066	21.586
ProbeTrack13	11	ProbeTrack	13.2	SCS215b	20111104.145520	20111104.145727	8	0.013326	60	10	60-180	60	83	GapPrac	Blank	1	19	2	45	0	distractor	1	529	736	329875	13.328	5.447	21.201
ProbeTrack13	11	ProbeTrack	13.2	SCS215b	20111104.145520	20111104.145735	8	0.013326	60	10	60-180	60	143	GapPrac	Blank	1	20	2	45	1	target	1	444	778	330653	13.328	10.916	15.743
ProbeTrack13	11	ProbeTrack	13.2	SCS215b	20111104.145958	20111104.150002	8	0.013328	60	10	60-180	60	116	GapExp	Blank	1	1	2	0	1	target	1	425	788	331441	13.385	13.023	13.637
ProbeTrack13	11	ProbeTrack	13.2	SCS215b	20111104.145958	20111104.150013	8	0.013328	60	10	60-180	60	147	GapExp	Blank	1	2	2	45	0	target	0	523	-1000	330441	13.328	12.929	13.735
ProbeTrack13	11	ProbeTrack	13.2	SCS215b	20111104.145958	20111104.150019	8	0.013328	60	10	60-180	60	125	GapExp	Blank	1	3	2	0	0	distractor	1	424	788	331229	13.328	12.987	13.656
ProbeTrack13	11	ProbeTrack	13.2	SCS215b	20111104.145958	20111104.150025	8	0.013328	60	10	60-180	60	84	GapExp	Blank	1	4	2	3	0	distractor	1	378	811	332040	13.328	12.868	13.780
ProbeTrack13	11	ProbeTrack	13.2	SCS215b	20111104.145958	20111104.150031	8	0.013328	60	10	60-180	60	96	GapExp	Blank	1	5	2	3	1	target	1	676	662	332702	13.328	12.916	13.751
ProbeTrack13	11	ProbeTrack	13.2	SCS215b	20111104.145958	20111104.150037	8	0.013328	60	10	60-180	60	80	GapExp	Blank	1	6	2	1	1	target	1	338	831	333533	13.328	12.839	13.806
ProbeTrack13	11	ProbeTrack	13.2	SCS215b	20111104.145958	20111104.150043	8	0.013328	60	10	60-180	60	74	GapExp	Blank	1	7	2	1	0	distractor	1	491	755	334288	13.328	12.895	13.767
ProbeTrack13	11	ProbeTrack	13.2	SCS215b	20111104.145958	20111104.150048	8	0.013328	60	10	60-180	60	81	GapExp	Blank	1	8	2	45	1	target	1	339	831	335119	13.328	13.054	13.600
ProbeTrack13	11	ProbeTrack	13.2	SCS215b	20111104.145958	20111104.150054	8	0.013328	60	10	60-180	60	174	GapExp	Blank	0	9	2	45	1	target	1	343	829	335948	13.328	12.889	13.766
ProbeTrack13	11	ProbeTrack	13.2	SCS215b	20111104.145958	20111104.150101	8	0.013328	60	10	60-180	60	159	GapExp	Blank	0	10	2	0	0	distractor	1	881	560	336508	13.328	13.017	13.551
ProbeTrack13	11	ProbeTrack	13.2	SCS215b	20111104.145958	20111104.150120	8	0.013328	60	10	60-180	60	63	GapExp	Blank	0	11	2	1	1	target	1	329	836	337344	13.328	12.927	13.730
ProbeTrack13	11	ProbeTrack	13.2	SCS215b	20111104.145958	20111104.150232	8	0.013328	60	10	60-180	60	168	GapExp	Blank	0	12	2	3	0	distractor	1	444	778	338122	13.328	12.918	13.739
ProbeTrack13	11	ProbeTrack	13.2	SCS215b	20111104.145958	20111104.150238	8	0.013328	60	10	60-180	60	94	GapExp	Blank	0	13	2	0	1	target	1	304	848	338970	13.328	12.907	13.755
ProbeTrack13	11	ProbeTrack	13.2	SCS215b	20111104.145958	20111104.150244	8	0.013328	60	10	60-180	60	133	GapExp	Blank	0	14	2	1	1	target	1	391	805	339775	13.328	13.109	13.559
ProbeTrack13	11	ProbeTrack	13.2	SCS215b	20111104.145958	20111104.150249	8	0.013328	60	10	60-180	60	131	GapExp	Blank	0	15	2	1	1	target	1	502	749	340524	13.328	13.013	13.613
ProbeTrack13	11	ProbeTrack	13.2	SCS215b	20111104.145958	20111104.150255	8	0.013328	60	10	60-180	60	93	GapExp	Blank	0	16	2	0	0	distractor	1	400	800	341324	13.328	12.873	13.794
ProbeTrack13	11	ProbeTrack	13.2	SCS215b	20111104.145958	20111104.150301	8	0.013328	60	10	60-180	60	146	GapExp	Blank	0	17	2	0	0	distractor	1	378	811	342135	13.328	12.919	13.762
ProbeTrack13	11	ProbeTrack	13.2	SCS215b	20111104.145958	20111104.150307	8	0.013328	60	10	60-180	60	92	GapExp	Blank	0	18	2	0	1	target	1	574	713	342848	13.328	13.082	13.574
ProbeTrack13	11	ProbeTrack	13.2	SCS215b	20111104.145958	20111104.150313	8	0.013328	60	10	60-180	60	76	GapExp	Blank	0	19	2	45	0	distractor	1	444	778	343626	13.328	12.909	13.746
ProbeTrack13	11	ProbeTrack	13.2	SCS215b	20111104.145958	20111104.150319	8	0.013328	60	10	60-180	60	87	GapExp	Blank	0	20	2	45	1	distractor	0	559	-1000	342626	13.328	13.089	13.554
ProbeTrack13	11	ProbeTrack	13.2	SCS215b	20111104.145958	20111104.150325	8	0.013328	60	10	60-180	60	113	GapExp	Blank	0	21	2	1	0	distractor	1	478	761	343387	13.328	12.867	13.803
ProbeTrack13	11	ProbeTrack	13.2	SCS215b	20111104.145958	20111104.150331	8	0.013328	60	10	60-180	60	68	GapExp	Blank	0	22	2	0	0	distractor	1	445	778	344165	13.328	12.854	13.808
ProbeTrack13	11	ProbeTrack	13.2	SCS215b	20111104.145958	20111104.150336	8	0.013328	60	10	60-180	60	73	GapExp	Blank	0	23	2	3	0	distractor	1	412	794	344959	13.328	12.969	13.695
ProbeTrack13	11	ProbeTrack	13.2	SCS215b	20111104.145958	20111104.150341	8	0.013328	60	10	60-180	60	67	GapExp	Blank	0	24	2	45	1	target	1	537	732	345691	13.328	12.937	13.716
ProbeTrack13	11	ProbeTrack	13.2	SCS215b	20111104.145958	20111104.150347	8	0.013328	60	10	60-180	60	97	GapExp	Blank	0	25	2	1	1	target	1	389	806	346497	13.328	13.001	13.642
ProbeTrack13	11	ProbeTrack	13.2	SCS215b	20111104.145958	20111104.150431	8	0.013328	60	10	60-180	60	126	GapExp	Blank	0	26	2	0	0	distractor	1	486	757	347254	13.328	12.921	13.711
ProbeTrack13	11	ProbeTrack	13.2	SCS215b	20111104.145958	20111104.150437	8	0.013328	60	10	60-180	60	75	GapExp	Blank	0	27	2	1	0	distractor	1	559	721	347975	13.328	12.873	13.797
ProbeTrack13	11	ProbeTrack	13.2	SCS215b	20111104.145958	20111104.150443	8	0.013328	60	10	60-180	60	117	GapExp	Blank	0	28	2	45	0	distractor	1	430	785	348760	13.328	12.943	13.695
ProbeTrack13	11	ProbeTrack	13.2	SCS215b	20111104.145958	20111104.150449	8	0.013328	60	10	60-180	60	61	GapExp	Blank	0	29	2	1	0	distractor	1	525	738	349498	13.328	12.930	13.744
ProbeTrack13	11	ProbeTrack	13.2	SCS215b	20111104.145958	20111104.150454	8	0.013328	60	10	60-180	60	114	GapExp	Blank	0	30	2	0	1	target	1	570	715	350213	13.328	12.890	13.796
ProbeTrack13	11	ProbeTrack	13.2	SCS215b	20111104.145958	20111104.150500	8	0.013328	60	10	60-180	60	143	GapExp	Blank	0	31	2	45	0	distractor	1	525	738	350951	13.328	12.952	13.732
ProbeTrack13	11	ProbeTrack	13.2	SCS215b	20111104.145958	20111104.150507	8	0.013328	60	10	60-180	60	114	GapExp	Blank	0	32	2	0	1	target	1	704	648	351599	13.328	13.020	13.653
ProbeTrack13	11	ProbeTrack	13.2	SCS215b	20111104.145958	20111104.150513	8	0.013328	60	10	60-180	60	162	GapExp	Blank	0	33	2	3	1	target	1	454	773	352372	13.328	12.915	13.748
ProbeTrack13	11	ProbeTrack	13.2	SCS215b	20111104.145958	20111104.150520	8	0.013328	60	10	60-180	60	132	GapExp	Blank	0	34	2	45	0	distractor	1	491	755	353127	13.328	13.060	13.573
ProbeTrack13	11	ProbeTrack	13.2	SCS215b	20111104.145958	20111104.150526	8	0.013328	60	10	60-180	60	138	GapExp	Blank	0	35	2	3	1	target	1	426	787	353914	13.379	12.915	26.595
ProbeTrack13	11	ProbeTrack	13.2	SCS215b	20111104.145958	20111104.150533	8	0.013328	60	10	60-180	60	104	GapExp	Blank	0	36	2	3	0	distractor	1	357	822	354736	13.328	13.301	13.351
ProbeTrack13	11	ProbeTrack	13.2	SCS215b	20111104.145958	20111104.150540	8	0.013328	60	10	60-180	60	149	GapExp	Blank	0	37	2	0	0	distractor	1	411	795	355531	13.328	12.888	13.780
ProbeTrack13	11	ProbeTrack	13.2	SCS215b	20111104.145958	20111104.150546	8	0.013328	60	10	60-180	60	139	GapExp	Blank	0	38	2	1	1	target	1	394	803	356334	13.328	12.856	13.806
ProbeTrack13	11	ProbeTrack	13.2	SCS215b	20111104.145958	20111104.150552	8	0.013328	60	10	60-180	60	164	GapExp	Blank	0	39	2	45	0	distractor	1	443	779	357113	13.328	13.302	13.355
ProbeTrack13	11	ProbeTrack	13.2	SCS215b	20111104.145958	20111104.150559	8	0.013328	60	10	60-180	60	78	GapExp	Blank	0	40	2	1	1	distractor	0	408	-1000	356113	13.328	12.816	13.830
ProbeTrack13	11	ProbeTrack	13.2	SCS215b	20111104.145958	20111104.150610	8	0.013328	60	10	60-180	60	170	GapExp	Blank	0	41	2	45	1	target	1	649	676	356789	13.328	12.927	13.708
ProbeTrack13	11	ProbeTrack	13.2	SCS215b	20111104.145958	20111104.150617	8	0.013328	60	10	60-180	60	127	GapExp	Blank	0	42	2	0	1	distractor	0	492	-1000	355789	13.328	12.818	13.822
ProbeTrack13	11	ProbeTrack	13.2	SCS215b	20111104.145958	20111104.150623	8	0.013328	60	10	60-180	60	144	GapExp	Blank	0	43	2	45	1	target	1	453	774	356563	13.414	12.825	39.813
ProbeTrack13	11	ProbeTrack	13.2	SCS215b	20111104.145958	20111104.150630	8	0.013328	60	10	60-180	60	158	GapExp	Blank	0	44	2	0	0	distractor	1	432	784	357347	13.328	12.829	13.832
ProbeTrack13	11	ProbeTrack	13.2	SCS215b	20111104.145958	20111104.150636	8	0.013328	60	10	60-180	60	89	GapExp	Blank	0	45	2	1	0	distractor	1	534	733	358080	13.328	12.871	13.784
ProbeTrack13	11	ProbeTrack	13.2	SCS215b	20111104.145958	20111104.150642	8	0.013328	60	10	60-180	60	75	GapExp	Blank	0	46	2	3	0	distractor	1	583	709	358789	13.328	12.920	13.746
ProbeTrack13	11	ProbeTrack	13.2	SCS215b	20111104.145958	20111104.150648	8	0.013328	60	10	60-180	60	162	GapExp	Blank	0	47	2	0	0	distractor	1	494	753	359542	13.328	12.980	13.688
ProbeTrack13	11	ProbeTrack	13.2	SCS215b	20111104.145958	20111104.150654	8	0.013328	60	10	60-180	60	101	GapExp	Blank	0	48	2	1	0	distractor	1	445	778	360320	13.328	12.851	13.818
ProbeTrack13	11	ProbeTrack	13.2	SCS215b	20111104.145958	20111104.150700	8	0.013328	60	10	60-180	60	159	GapExp	Blank	0	49	2	45	1	target	1	629	686	361006	13.328	12.837	13.809
ProbeTrack13	11	ProbeTrack	13.2	SCS215b	20111104.145958	20111104.150707	8	0.013328	60	10	60-180	60	141	GapExp	Blank	0	50	2	45	1	target	1	392	804	361810	13.328	13.299	13.357
ProbeTrack13	11	ProbeTrack	13.2	SCS215b	20111104.145958	20111104.150714	8	0.013328	60	10	60-180	60	63	GapExp	Blank	0	51	2	3	0	distractor	1	445	778	362588	13.328	12.857	13.800
ProbeTrack13	11	ProbeTrack	13.2	SCS215b	20111104.145958	20111104.150738	8	0.013328	60	10	60-180	60	153	GapExp	Blank	0	52	2	0	1	target	1	413	794	363382	13.328	12.855	13.803
ProbeTrack13	11	ProbeTrack	13.2	SCS215b	20111104.145958	20111104.150745	8	0.013328	60	10	60-180	60	102	GapExp	Blank	0	53	2	45	1	target	1	407	797	364179	13.328	13.288	13.393
ProbeTrack13	11	ProbeTrack	13.2	SCS215b	20111104.145958	20111104.150751	8	0.013328	60	10	60-180	60	103	GapExp	Blank	0	54	2	3	0	distractor	1	1082	459	364638	13.328	12.937	13.721
ProbeTrack13	11	ProbeTrack	13.2	SCS215b	20111104.145958	20111104.150757	8	0.013328	60	10	60-180	60	93	GapExp	Blank	0	55	2	45	0	distractor	1	535	733	365371	13.328	12.856	13.801
ProbeTrack13	11	ProbeTrack	13.2	SCS215b	20111104.145958	20111104.150804	8	0.013328	60	10	60-180	60	175	GapExp	Blank	0	56	2	1	1	target	1	498	751	366122	13.328	12.842	13.816
ProbeTrack13	11	ProbeTrack	13.2	SCS215b	20111104.145958	20111104.150810	8	0.013328	60	10	60-180	60	178	GapExp	Blank	0	57	2	3	0	distractor	1	369	816	366938	13.328	12.980	13.664
ProbeTrack13	11	ProbeTrack	13.2	SCS215b	20111104.145958	20111104.150818	8	0.013328	60	10	60-180	60	116	GapExp	Blank	0	58	2	3	1	target	1	383	809	367747	13.328	12.855	13.801
ProbeTrack13	11	ProbeTrack	13.2	SCS215b	20111104.145958	20111104.150823	8	0.013328	60	10	60-180	60	147	GapExp	Blank	0	59	2	1	0	distractor	1	403	799	368546	13.328	12.855	13.788
ProbeTrack13	11	ProbeTrack	13.2	SCS215b	20111104.145958	20111104.150829	8	0.013328	60	10	60-180	60	73	GapExp	Blank	0	60	2	0	0	distractor	1	428	786	369332	13.328	12.956	13.697
ProbeTrack13	11	ProbeTrack	13.2	SCS215b	20111104.145958	20111104.150835	8	0.013328	60	10	60-180	60	118	GapExp	Blank	0	61	2	3	0	distractor	1	470	765	370097	13.328	12.876	13.770
ProbeTrack13	11	ProbeTrack	13.2	SCS215b	20111104.145958	20111104.150841	8	0.013328	60	10	60-180	60	132	GapExp	Blank	0	62	2	1	1	target	1	459	771	370868	13.328	12.921	13.738
ProbeTrack13	11	ProbeTrack	13.2	SCS215b	20111104.145958	20111104.150847	8	0.013328	60	10	60-180	60	143	GapExp	Blank	0	63	2	45	0	distractor	1	476	762	371630	13.328	12.935	13.726
ProbeTrack13	11	ProbeTrack	13.2	SCS215b	20111104.145958	20111104.150854	8	0.013328	60	10	60-180	60	115	GapExp	Blank	0	64	2	1	1	target	1	421	790	372420	13.328	12.930	13.724
