exp	sub	code	rev	comp	runtime	trialtime	nstim	refreshdur	cuedur	gapdur	gapOnsetRange	durPostProbe	gapOnsetTime	blocktype	gaptype	prac	trial	ntargets	soa	probeTarget	resp	acc	rt	pts	tpts	meanFrameDur	minFrameDur	maxFrameDur
ProbeTrack13	9	ProbeTrack	13.2	SCS215a	20111104.092705	20111104.092719	8	0.013328	60	0	60-180	60	145	NoGap	None	1	1	2	1	1	target	1	1840	80	80	13.375	9.649	17.051
ProbeTrack13	9	ProbeTrack	13.2	SCS215a	20111104.092705	20111104.092907	8	0.013328	60	0	60-180	60	76	NoGap	None	1	2	2	45	1	target	1	1330	335	415	13.328	13.094	13.564
ProbeTrack13	9	ProbeTrack	13.2	SCS215a	20111104.092705	20111104.092915	8	0.013328	60	0	60-180	60	155	NoGap	None	1	3	2	3	0	distractor	1	856	572	987	13.328	12.922	13.732
ProbeTrack13	9	ProbeTrack	13.2	SCS215a	20111104.092705	20111104.092923	8	0.013328	60	0	60-180	60	178	NoGap	None	1	4	2	1	0	distractor	1	906	547	1534	13.318	10.308	14.598
ProbeTrack13	9	ProbeTrack	13.2	SCS215a	20111104.092705	20111104.092931	8	0.013328	60	0	60-180	60	155	NoGap	None	1	5	2	3	1	target	1	985	508	2042	13.328	6.059	20.615
ProbeTrack13	9	ProbeTrack	13.2	SCS215a	20111104.092705	20111104.092939	8	0.013328	60	0	60-180	60	107	NoGap	None	1	6	2	1	1	target	1	1673	164	2206	13.328	11.030	15.628
ProbeTrack13	9	ProbeTrack	13.2	SCS215a	20111104.092705	20111104.092947	8	0.013328	60	0	60-180	60	180	NoGap	None	1	7	2	0	0	distractor	1	956	522	2728	13.328	6.611	20.032
ProbeTrack13	9	ProbeTrack	13.2	SCS215a	20111104.092705	20111104.092954	8	0.013328	60	0	60-180	60	180	NoGap	None	1	8	2	3	1	distractor	0	1022	-1000	1728	13.328	13.181	13.469
ProbeTrack13	9	ProbeTrack	13.2	SCS215a	20111104.092705	20111104.093002	8	0.013328	60	0	60-180	60	130	NoGap	None	1	9	2	3	0	distractor	1	832	584	2312	13.328	13.306	13.348
ProbeTrack13	9	ProbeTrack	13.2	SCS215a	20111104.092705	20111104.093009	8	0.013328	60	0	60-180	60	129	NoGap	None	1	10	2	3	1	target	1	756	622	2934	13.378	13.068	26.919
ProbeTrack13	9	ProbeTrack	13.2	SCS215a	20111104.092705	20111104.093016	8	0.013328	60	0	60-180	60	165	NoGap	None	1	11	2	45	0	target	0	843	-1000	1934	13.521	5.910	64.892
ProbeTrack13	9	ProbeTrack	13.2	SCS215a	20111104.092705	20111104.093024	8	0.013328	60	0	60-180	60	109	NoGap	None	1	12	2	1	1	target	1	888	556	2490	13.382	13.149	26.547
ProbeTrack13	9	ProbeTrack	13.2	SCS215a	20111104.092705	20111104.093031	8	0.013328	60	0	60-180	60	97	NoGap	None	1	13	2	0	0	distractor	1	1270	365	2855	13.328	13.105	13.558
ProbeTrack13	9	ProbeTrack	13.2	SCS215a	20111104.092705	20111104.093038	8	0.013328	60	0	60-180	60	178	NoGap	None	1	14	2	3	0	distractor	1	1206	397	3252	13.328	13.102	13.558
ProbeTrack13	9	ProbeTrack	13.2	SCS215a	20111104.092705	20111104.093046	8	0.013328	60	0	60-180	60	77	NoGap	None	1	15	2	45	0	distractor	1	1056	472	3724	13.328	13.096	13.559
ProbeTrack13	9	ProbeTrack	13.2	SCS215a	20111104.092705	20111104.093053	8	0.013328	60	0	60-180	60	168	NoGap	None	1	16	2	3	1	target	1	664	668	4392	13.328	12.959	13.697
ProbeTrack13	9	ProbeTrack	13.2	SCS215a	20111104.092705	20111104.093100	8	0.013328	60	0	60-180	60	168	NoGap	None	1	17	2	45	0	distractor	1	849	576	4968	13.328	13.118	13.548
ProbeTrack13	9	ProbeTrack	13.2	SCS215a	20111104.092705	20111104.093108	8	0.013328	60	0	60-180	60	176	NoGap	None	1	18	2	0	1	target	1	693	654	5622	13.415	9.757	26.443
ProbeTrack13	9	ProbeTrack	13.2	SCS215a	20111104.092705	20111104.093115	8	0.013328	60	0	60-180	60	146	NoGap	None	1	19	2	1	1	target	1	594	703	6325	13.328	13.099	13.558
ProbeTrack13	9	ProbeTrack	13.2	SCS215a	20111104.092705	20111104.093123	8	0.013328	60	0	60-180	60	132	NoGap	None	1	20	2	3	0	target	0	970	-1000	5325	13.328	11.347	15.315
ProbeTrack13	9	ProbeTrack	13.2	SCS215a	20111104.092705	20111104.093129	8	0.013328	60	0	60-180	60	61	NoGap	None	1	21	2	3	0	distractor	1	730	635	5960	13.328	13.222	13.436
ProbeTrack13	9	ProbeTrack	13.2	SCS215a	20111104.092705	20111104.093135	8	0.013328	60	0	60-180	60	93	NoGap	None	1	22	2	45	0	distractor	1	645	678	6638	13.328	13.243	13.413
ProbeTrack13	9	ProbeTrack	13.2	SCS215a	20111104.092705	20111104.093142	8	0.013328	60	0	60-180	60	128	NoGap	None	1	23	2	45	1	target	1	583	709	7347	13.328	13.235	13.424
ProbeTrack13	9	ProbeTrack	13.2	SCS215a	20111104.092705	20111104.093149	8	0.013328	60	0	60-180	60	128	NoGap	None	1	24	2	0	1	target	1	656	672	8019	13.328	11.440	15.217
ProbeTrack13	9	ProbeTrack	13.2	SCS215a	20111104.092705	20111104.093155	8	0.013328	60	0	60-180	60	87	NoGap	None	1	25	2	0	0	target	0	702	-1000	7019	13.328	10.168	16.498
ProbeTrack13	9	ProbeTrack	13.2	SCS215a	20111104.092705	20111104.093201	8	0.013328	60	0	60-180	60	159	NoGap	None	1	26	2	1	0	distractor	1	837	582	7601	13.328	13.179	13.480
ProbeTrack13	9	ProbeTrack	13.2	SCS215a	20111104.092705	20111104.093208	8	0.013328	60	0	60-180	60	111	NoGap	None	1	27	2	0	0	distractor	1	780	610	8211	13.328	9.357	17.305
ProbeTrack13	9	ProbeTrack	13.2	SCS215a	20111104.092705	20111104.093214	8	0.013328	60	0	60-180	60	147	NoGap	None	1	28	2	0	1	target	1	471	765	8976	13.328	13.124	13.568
ProbeTrack13	9	ProbeTrack	13.2	SCS215a	20111104.092705	20111104.093221	8	0.013328	60	0	60-180	60	96	NoGap	None	1	29	2	0	0	distractor	1	982	509	9485	13.328	13.284	13.371
ProbeTrack13	9	ProbeTrack	13.2	SCS215a	20111104.092705	20111104.093228	8	0.013328	60	0	60-180	60	118	NoGap	None	1	30	2	1	0	distractor	1	859	571	10056	13.328	7.074	19.580
ProbeTrack13	9	ProbeTrack	13.2	SCS215a	20111104.092705	20111104.093234	8	0.013328	60	0	60-180	60	121	NoGap	None	1	31	2	1	0	distractor	1	846	577	10633	13.364	7.841	23.135
ProbeTrack13	9	ProbeTrack	13.2	SCS215a	20111104.092705	20111104.093240	8	0.013328	60	0	60-180	60	126	NoGap	None	1	32	2	0	1	target	1	631	685	11318	13.328	12.777	13.883
ProbeTrack13	9	ProbeTrack	13.2	SCS215a	20111104.092705	20111104.093246	8	0.013328	60	0	60-180	60	143	NoGap	None	1	33	2	1	1	target	1	595	703	12021	13.328	10.600	16.051
ProbeTrack13	9	ProbeTrack	13.2	SCS215a	20111104.092705	20111104.093253	8	0.013328	60	0	60-180	60	175	NoGap	None	1	34	2	45	1	target	1	914	543	12564	13.328	10.176	16.493
ProbeTrack13	9	ProbeTrack	13.2	SCS215a	20111104.092705	20111104.093301	8	0.013328	60	0	60-180	60	145	NoGap	None	1	35	2	45	1	target	1	511	745	13309	13.328	11.655	15.005
ProbeTrack13	9	ProbeTrack	13.2	SCS215a	20111104.092705	20111104.093308	8	0.013328	60	0	60-180	60	70	NoGap	None	1	36	2	1	0	distractor	1	848	576	13885	13.328	13.126	13.548
ProbeTrack13	9	ProbeTrack	13.2	SCS215a	20111104.092705	20111104.093313	8	0.013328	60	0	60-180	60	175	NoGap	None	1	37	2	45	0	distractor	1	799	601	14486	13.328	11.447	15.212
ProbeTrack13	9	ProbeTrack	13.2	SCS215a	20111104.092705	20111104.093321	8	0.013328	60	0	60-180	60	173	NoGap	None	1	38	2	45	1	target	1	605	698	15184	13.328	10.593	16.070
ProbeTrack13	9	ProbeTrack	13.2	SCS215a	20111104.092705	20111104.093328	8	0.013328	60	0	60-180	60	112	NoGap	None	1	39	2	0	1	target	1	687	657	15841	13.328	13.115	13.561
ProbeTrack13	9	ProbeTrack	13.2	SCS215a	20111104.092705	20111104.093335	8	0.013328	60	0	60-180	60	95	NoGap	None	1	40	2	3	1	target	1	514	743	16584	13.328	13.106	13.559
ProbeTrack13	9	ProbeTrack	13.2	SCS215a	20111104.093442	20111104.093448	8	0.013328	60	10	60-180	60	101	GapPrac	SmallFlash	1	1	2	1	0	distractor	1	844	578	17162	13.382	12.977	13.676
ProbeTrack13	9	ProbeTrack	13.2	SCS215a	20111104.093442	20111104.093457	8	0.013328	60	10	60-180	60	114	GapPrac	SmallFlash	1	2	2	0	1	target	1	627	687	17849	13.381	13.201	26.721
ProbeTrack13	9	ProbeTrack	13.2	SCS215a	20111104.093442	20111104.093503	8	0.013328	60	10	60-180	60	134	GapPrac	SmallFlash	1	3	2	3	0	distractor	1	758	621	18470	13.328	13.009	13.649
ProbeTrack13	9	ProbeTrack	13.2	SCS215a	20111104.093442	20111104.093510	8	0.013328	60	10	60-180	60	97	GapPrac	SmallFlash	1	4	2	45	1	target	1	612	694	19164	13.328	12.958	13.694
ProbeTrack13	9	ProbeTrack	13.2	SCS215a	20111104.093442	20111104.093516	8	0.013328	60	10	60-180	60	76	GapPrac	SmallFlash	1	5	2	3	0	distractor	1	880	560	19724	13.328	12.927	13.736
ProbeTrack13	9	ProbeTrack	13.2	SCS215a	20111104.093442	20111104.093522	8	0.013328	60	10	60-180	60	75	GapPrac	SmallFlash	1	6	2	45	0	distractor	1	757	622	20346	13.328	12.932	13.738
ProbeTrack13	9	ProbeTrack	13.2	SCS215a	20111104.093442	20111104.093529	8	0.013328	60	10	60-180	60	165	GapPrac	SmallFlash	1	7	2	1	0	distractor	1	706	647	20993	13.328	13.036	13.636
ProbeTrack13	9	ProbeTrack	13.2	SCS215a	20111104.093442	20111104.093536	8	0.013328	60	10	60-180	60	153	GapPrac	SmallFlash	1	8	2	3	0	distractor	1	587	707	21700	13.374	13.014	26.965
ProbeTrack13	9	ProbeTrack	13.2	SCS215a	20111104.093442	20111104.093542	8	0.013328	60	10	60-180	60	107	GapPrac	SmallFlash	1	9	2	45	1	target	1	942	529	22229	13.328	12.874	13.777
ProbeTrack13	9	ProbeTrack	13.2	SCS215a	20111104.093442	20111104.093549	8	0.013328	60	10	60-180	60	100	GapPrac	SmallFlash	1	10	2	0	0	distractor	1	613	694	22923	13.443	12.931	26.649
ProbeTrack13	9	ProbeTrack	13.2	SCS215a	20111104.093442	20111104.093555	8	0.013328	60	10	60-180	60	67	GapPrac	SmallFlash	1	11	2	0	0	distractor	1	595	703	23626	13.329	12.886	13.790
ProbeTrack13	9	ProbeTrack	13.2	SCS215a	20111104.093442	20111104.093601	8	0.013328	60	10	60-180	60	84	GapPrac	SmallFlash	1	12	2	0	1	target	1	620	690	24316	13.389	12.905	26.513
ProbeTrack13	9	ProbeTrack	13.2	SCS215a	20111104.093442	20111104.093607	8	0.013328	60	10	60-180	60	137	GapPrac	SmallFlash	1	13	2	1	1	target	1	437	782	25098	13.328	12.839	13.819
ProbeTrack13	9	ProbeTrack	13.2	SCS215a	20111104.093442	20111104.093613	8	0.013328	60	10	60-180	60	128	GapPrac	SmallFlash	1	14	2	0	1	target	1	517	742	25840	13.328	12.832	13.807
ProbeTrack13	9	ProbeTrack	13.2	SCS215a	20111104.093442	20111104.093620	8	0.013328	60	10	60-180	60	147	GapPrac	SmallFlash	1	15	2	1	1	target	1	486	757	26597	13.377	13.152	26.661
ProbeTrack13	9	ProbeTrack	13.2	SCS215a	20111104.093442	20111104.093626	8	0.013328	60	10	60-180	60	173	GapPrac	SmallFlash	1	16	2	45	0	distractor	1	621	690	27287	13.328	12.956	13.578
ProbeTrack13	9	ProbeTrack	13.2	SCS215a	20111104.093442	20111104.093634	8	0.013328	60	10	60-180	60	101	GapPrac	SmallFlash	1	17	2	45	1	target	1	540	730	28017	13.328	12.859	13.787
ProbeTrack13	9	ProbeTrack	13.2	SCS215a	20111104.093442	20111104.093641	8	0.013328	60	10	60-180	60	67	GapPrac	SmallFlash	1	18	2	3	1	target	1	499	751	28768	13.328	13.120	13.534
ProbeTrack13	9	ProbeTrack	13.2	SCS215a	20111104.093442	20111104.093646	8	0.013328	60	10	60-180	60	159	GapPrac	SmallFlash	1	19	2	3	1	target	1	368	816	29584	13.328	12.900	13.747
ProbeTrack13	9	ProbeTrack	13.2	SCS215a	20111104.093442	20111104.093652	8	0.013328	60	10	60-180	60	123	GapPrac	SmallFlash	1	20	2	1	0	distractor	1	813	594	30178	13.328	12.844	13.807
ProbeTrack13	9	ProbeTrack	13.2	SCS215a	20111104.093727	20111104.093742	8	0.013327	60	10	60-180	60	98	GapExp	SmallFlash	1	1	2	1	0	distractor	1	706	647	30825	13.434	5.817	26.664
ProbeTrack13	9	ProbeTrack	13.2	SCS215a	20111104.093727	20111104.093749	8	0.013327	60	10	60-180	60	166	GapExp	SmallFlash	1	2	2	45	0	distractor	1	622	689	31514	13.366	12.900	27.088
ProbeTrack13	9	ProbeTrack	13.2	SCS215a	20111104.093727	20111104.093757	8	0.013327	60	10	60-180	60	117	GapExp	SmallFlash	1	3	2	1	1	target	1	636	682	32196	13.328	2.521	24.119
ProbeTrack13	9	ProbeTrack	13.2	SCS215a	20111104.093727	20111104.093803	8	0.013327	60	10	60-180	60	130	GapExp	SmallFlash	1	4	2	45	1	target	1	466	767	32963	13.508	4.587	26.656
ProbeTrack13	9	ProbeTrack	13.2	SCS215a	20111104.093727	20111104.093809	8	0.013327	60	10	60-180	60	112	GapExp	SmallFlash	1	5	2	3	1	target	1	443	779	33742	13.384	3.599	26.651
ProbeTrack13	9	ProbeTrack	13.2	SCS215a	20111104.093727	20111104.093815	8	0.013327	60	10	60-180	60	91	GapExp	SmallFlash	1	6	2	0	0	distractor	1	620	690	34432	13.387	8.909	26.666
ProbeTrack13	9	ProbeTrack	13.2	SCS215a	20111104.093727	20111104.093821	8	0.013327	60	10	60-180	60	174	GapExp	SmallFlash	1	7	2	0	1	target	1	460	770	35202	13.373	4.400	26.653
ProbeTrack13	9	ProbeTrack	13.2	SCS215a	20111104.093727	20111104.093828	8	0.013327	60	10	60-180	60	141	GapExp	SmallFlash	1	8	2	3	0	target	0	702	-1000	34202	13.423	2.572	26.458
ProbeTrack13	9	ProbeTrack	13.2	SCS215a	20111104.093727	20111104.093835	8	0.013327	60	10	60-180	60	108	GapExp	SmallFlash	0	9	2	1	1	target	1	478	761	34963	13.328	2.728	23.936
ProbeTrack13	9	ProbeTrack	13.2	SCS215a	20111104.093727	20111104.093840	8	0.013327	60	10	60-180	60	89	GapExp	SmallFlash	0	10	2	1	1	target	1	478	761	35724	13.328	2.719	23.950
ProbeTrack13	9	ProbeTrack	13.2	SCS215a	20111104.093727	20111104.093846	8	0.013327	60	10	60-180	60	118	GapExp	SmallFlash	0	11	2	0	0	target	0	630	-1000	34724	13.381	6.132	27.755
ProbeTrack13	9	ProbeTrack	13.2	SCS215a	20111104.093727	20111104.093853	8	0.013327	60	10	60-180	60	120	GapExp	SmallFlash	0	12	2	45	1	target	1	555	723	35447	13.373	5.743	27.641
ProbeTrack13	9	ProbeTrack	13.2	SCS215a	20111104.093727	20111104.093900	8	0.013327	60	10	60-180	60	90	GapExp	SmallFlash	0	13	2	3	0	distractor	1	655	673	36120	13.386	4.234	25.960
ProbeTrack13	9	ProbeTrack	13.2	SCS215a	20111104.093727	20111104.093906	8	0.013327	60	10	60-180	60	76	GapExp	SmallFlash	0	14	2	45	1	target	1	625	688	36808	13.433	4.816	26.663
ProbeTrack13	9	ProbeTrack	13.2	SCS215a	20111104.093727	20111104.093912	8	0.013327	60	10	60-180	60	89	GapExp	SmallFlash	0	15	2	0	0	distractor	1	717	642	37450	13.328	8.361	18.294
ProbeTrack13	9	ProbeTrack	13.2	SCS215a	20111104.093727	20111104.093918	8	0.013327	60	10	60-180	60	174	GapExp	SmallFlash	0	16	2	1	1	target	1	428	786	38236	13.373	8.294	24.458
ProbeTrack13	9	ProbeTrack	13.2	SCS215a	20111104.093727	20111104.093925	8	0.013327	60	10	60-180	60	112	GapExp	SmallFlash	0	17	2	45	1	target	1	430	785	39021	13.328	3.567	23.096
ProbeTrack13	9	ProbeTrack	13.2	SCS215a	20111104.093727	20111104.093931	8	0.013327	60	10	60-180	60	106	GapExp	SmallFlash	0	18	2	1	1	target	1	506	747	39768	13.328	5.816	20.839
ProbeTrack13	9	ProbeTrack	13.2	SCS215a	20111104.093727	20111104.093937	8	0.013327	60	10	60-180	60	130	GapExp	SmallFlash	0	19	2	0	1	target	1	467	767	40535	13.328	7.046	21.507
ProbeTrack13	9	ProbeTrack	13.2	SCS215a	20111104.093727	20111104.093943	8	0.013327	60	10	60-180	60	160	GapExp	SmallFlash	0	20	2	0	1	target	1	536	732	41267	13.421	7.622	26.670
ProbeTrack13	9	ProbeTrack	13.2	SCS215a	20111104.093727	20111104.093950	8	0.013327	60	10	60-180	60	74	GapExp	SmallFlash	0	21	2	3	1	target	1	495	753	42020	13.394	13.302	26.494
ProbeTrack13	9	ProbeTrack	13.2	SCS215a	20111104.093727	20111104.093956	8	0.013327	60	10	60-180	60	122	GapExp	SmallFlash	0	22	2	0	0	distractor	1	686	657	42677	13.430	8.466	26.450
ProbeTrack13	9	ProbeTrack	13.2	SCS215a	20111104.093727	20111104.094002	8	0.013327	60	10	60-180	60	141	GapExp	SmallFlash	0	23	2	3	1	target	1	462	769	43446	13.428	2.911	26.648
ProbeTrack13	9	ProbeTrack	13.2	SCS215a	20111104.093727	20111104.094008	8	0.013327	60	10	60-180	60	77	GapExp	SmallFlash	0	24	2	3	1	target	1	622	689	44135	13.390	4.037	30.400
ProbeTrack13	9	ProbeTrack	13.2	SCS215a	20111104.093727	20111104.094014	8	0.013327	60	10	60-180	60	122	GapExp	SmallFlash	0	25	2	45	1	target	1	765	618	44753	13.406	10.997	30.032
ProbeTrack13	9	ProbeTrack	13.2	SCS215a	20111104.093727	20111104.094021	8	0.013327	60	10	60-180	60	120	GapExp	SmallFlash	0	26	2	1	0	distractor	1	657	672	45425	13.380	7.478	26.382
ProbeTrack13	9	ProbeTrack	13.2	SCS215a	20111104.093727	20111104.094028	8	0.013327	60	10	60-180	60	61	GapExp	SmallFlash	0	27	2	3	0	distractor	1	676	662	46087	13.328	8.044	18.611
ProbeTrack13	9	ProbeTrack	13.2	SCS215a	20111104.093727	20111104.094033	8	0.013327	60	10	60-180	60	166	GapExp	SmallFlash	0	28	2	1	0	distractor	1	597	702	46789	13.372	4.243	22.428
ProbeTrack13	9	ProbeTrack	13.2	SCS215a	20111104.093727	20111104.094040	8	0.013327	60	10	60-180	60	152	GapExp	SmallFlash	0	29	2	45	1	target	1	633	684	47473	13.368	8.810	26.423
ProbeTrack13	9	ProbeTrack	13.2	SCS215a	20111104.093727	20111104.094047	8	0.013327	60	10	60-180	60	101	GapExp	SmallFlash	0	30	2	3	1	target	1	523	739	48212	13.328	7.445	19.212
ProbeTrack13	9	ProbeTrack	13.2	SCS215a	20111104.093727	20111104.094053	8	0.013327	60	10	60-180	60	102	GapExp	SmallFlash	0	31	2	0	1	target	1	528	736	48948	13.328	13.295	13.350
ProbeTrack13	9	ProbeTrack	13.2	SCS215a	20111104.093727	20111104.094059	8	0.013327	60	10	60-180	60	173	GapExp	SmallFlash	0	32	2	45	1	target	1	491	755	49703	13.328	13.270	13.381
ProbeTrack13	9	ProbeTrack	13.2	SCS215a	20111104.093727	20111104.094107	8	0.013327	60	10	60-180	60	92	GapExp	SmallFlash	0	33	2	45	0	distractor	1	615	693	50396	13.328	11.100	15.546
ProbeTrack13	9	ProbeTrack	13.2	SCS215a	20111104.093727	20111104.094113	8	0.013327	60	10	60-180	60	99	GapExp	SmallFlash	0	34	2	1	0	distractor	1	686	657	51053	13.328	13.114	13.551
ProbeTrack13	9	ProbeTrack	13.2	SCS215a	20111104.093727	20111104.094119	8	0.013327	60	10	60-180	60	85	GapExp	SmallFlash	0	35	2	0	0	distractor	1	550	725	51778	13.328	13.113	13.543
ProbeTrack13	9	ProbeTrack	13.2	SCS215a	20111104.093727	20111104.094124	8	0.013327	60	10	60-180	60	91	GapExp	SmallFlash	0	36	2	45	0	distractor	1	536	732	52510	13.328	12.744	13.919
ProbeTrack13	9	ProbeTrack	13.2	SCS215a	20111104.093727	20111104.094131	8	0.013327	60	10	60-180	60	89	GapExp	SmallFlash	0	37	2	0	1	target	1	545	728	53238	13.328	9.955	16.708
ProbeTrack13	9	ProbeTrack	13.2	SCS215a	20111104.093727	20111104.094137	8	0.013327	60	10	60-180	60	84	GapExp	SmallFlash	0	38	2	3	0	distractor	1	636	682	53920	13.328	13.223	13.444
ProbeTrack13	9	ProbeTrack	13.2	SCS215a	20111104.093727	20111104.094143	8	0.013327	60	10	60-180	60	170	GapExp	SmallFlash	0	39	2	45	0	distractor	1	605	698	54618	13.328	13.306	13.348
ProbeTrack13	9	ProbeTrack	13.2	SCS215a	20111104.093727	20111104.094150	8	0.013327	60	10	60-180	60	177	GapExp	SmallFlash	0	40	2	3	0	distractor	1	839	581	55199	13.369	13.174	26.602
ProbeTrack13	9	ProbeTrack	13.2	SCS215a	20111104.093727	20111104.094157	8	0.013327	60	10	60-180	60	108	GapExp	SmallFlash	0	41	2	3	1	target	1	421	790	55989	13.328	13.307	13.355
ProbeTrack13	9	ProbeTrack	13.2	SCS215a	20111104.093727	20111104.094203	8	0.013327	60	10	60-180	60	152	GapExp	SmallFlash	0	42	2	1	0	distractor	1	632	684	56673	13.328	10.429	16.214
ProbeTrack13	9	ProbeTrack	13.2	SCS215a	20111104.093727	20111104.094210	8	0.013327	60	10	60-180	60	118	GapExp	SmallFlash	0	43	2	45	0	distractor	1	903	549	57222	13.328	9.106	17.551
ProbeTrack13	9	ProbeTrack	13.2	SCS215a	20111104.093727	20111104.094217	8	0.013327	60	10	60-180	60	120	GapExp	SmallFlash	0	44	2	45	0	distractor	1	595	703	57925	13.328	13.258	13.412
ProbeTrack13	9	ProbeTrack	13.2	SCS215a	20111104.093727	20111104.094224	8	0.013327	60	10	60-180	60	63	GapExp	SmallFlash	0	45	2	3	0	distractor	1	846	577	58502	13.328	13.297	13.357
ProbeTrack13	9	ProbeTrack	13.2	SCS215a	20111104.093727	20111104.094229	8	0.013327	60	10	60-180	60	77	GapExp	SmallFlash	0	46	2	1	0	distractor	1	538	731	59233	13.328	11.551	15.106
ProbeTrack13	9	ProbeTrack	13.2	SCS215a	20111104.093727	20111104.094235	8	0.013327	60	10	60-180	60	164	GapExp	SmallFlash	0	47	2	45	0	early	-4	-3980	-1000	58233	13.328	12.610	14.047
ProbeTrack13	9	ProbeTrack	13.2	SCS215a	20111104.093727	20111104.094243	8	0.013327	60	10	60-180	60	114	GapExp	SmallFlash	0	48	2	45	1	target	1	742	629	58862	13.328	13.217	13.426
ProbeTrack13	9	ProbeTrack	13.2	SCS215a	20111104.093727	20111104.094250	8	0.013327	60	10	60-180	60	62	GapExp	SmallFlash	0	49	2	1	0	distractor	1	605	698	59560	13.328	13.105	13.552
ProbeTrack13	9	ProbeTrack	13.2	SCS215a	20111104.093727	20111104.094255	8	0.013327	60	10	60-180	60	163	GapExp	SmallFlash	0	50	2	0	1	target	1	522	739	60299	13.328	13.100	13.545
ProbeTrack13	9	ProbeTrack	13.2	SCS215a	20111104.093727	20111104.094301	8	0.013327	60	10	60-180	60	129	GapExp	SmallFlash	0	51	2	1	0	distractor	1	830	585	60884	13.376	13.093	23.907
ProbeTrack13	9	ProbeTrack	13.2	SCS215a	20111104.093727	20111104.094308	8	0.013327	60	10	60-180	60	114	GapExp	SmallFlash	0	52	2	1	1	target	1	529	736	61620	13.329	13.309	13.556
ProbeTrack13	9	ProbeTrack	13.2	SCS215a	20111104.093727	20111104.094315	8	0.013327	60	10	60-180	60	83	GapExp	SmallFlash	0	53	2	3	0	distractor	1	685	658	62278	13.448	13.303	26.948
ProbeTrack13	9	ProbeTrack	13.2	SCS215a	20111104.093727	20111104.094320	8	0.013327	60	10	60-180	60	128	GapExp	SmallFlash	0	54	2	0	1	target	1	480	760	63038	13.328	13.223	13.438
ProbeTrack13	9	ProbeTrack	13.2	SCS215a	20111104.093727	20111104.094326	8	0.013327	60	10	60-180	60	101	GapExp	SmallFlash	0	55	2	45	1	target	1	422	789	63827	13.328	8.486	18.176
ProbeTrack13	9	ProbeTrack	13.2	SCS215a	20111104.093727	20111104.094332	8	0.013327	60	10	60-180	60	123	GapExp	SmallFlash	0	56	2	0	0	distractor	1	660	670	64497	13.328	10.925	15.944
ProbeTrack13	9	ProbeTrack	13.2	SCS215a	20111104.093727	20111104.094339	8	0.013327	60	10	60-180	60	165	GapExp	SmallFlash	0	57	2	3	1	target	1	460	770	65267	13.328	13.113	13.543
ProbeTrack13	9	ProbeTrack	13.2	SCS215a	20111104.093727	20111104.094345	8	0.013327	60	10	60-180	60	100	GapExp	SmallFlash	0	58	2	3	0	distractor	1	887	557	65824	13.328	7.300	19.357
ProbeTrack13	9	ProbeTrack	13.2	SCS215a	20111104.093727	20111104.094351	8	0.013327	60	10	60-180	60	130	GapExp	SmallFlash	0	59	2	0	0	target	0	394	-1000	64824	13.328	13.126	13.543
ProbeTrack13	9	ProbeTrack	13.2	SCS215a	20111104.093727	20111104.094357	8	0.013327	60	10	60-180	60	71	GapExp	SmallFlash	0	60	2	1	0	distractor	1	646	677	65501	13.328	13.307	13.343
ProbeTrack13	9	ProbeTrack	13.2	SCS215a	20111104.093727	20111104.094403	8	0.013327	60	10	60-180	60	145	GapExp	SmallFlash	0	61	2	3	0	distractor	1	515	743	66244	13.328	13.309	13.349
ProbeTrack13	9	ProbeTrack	13.2	SCS215a	20111104.093727	20111104.094409	8	0.013327	60	10	60-180	60	157	GapExp	SmallFlash	0	62	2	45	0	distractor	1	572	714	66958	13.328	13.105	13.549
ProbeTrack13	9	ProbeTrack	13.2	SCS215a	20111104.093727	20111104.094417	8	0.013327	60	10	60-180	60	111	GapExp	SmallFlash	0	63	2	45	0	distractor	1	553	724	67682	13.328	13.294	13.360
ProbeTrack13	9	ProbeTrack	13.2	SCS215a	20111104.093727	20111104.094423	8	0.013327	60	10	60-180	60	159	GapExp	SmallFlash	0	64	2	0	1	target	1	510	745	68427	13.328	13.200	13.457
ProbeTrack13	9	ProbeTrack	13.2	SCS215a	20111104.093727	20111104.094430	8	0.013327	60	10	60-180	60	81	GapExp	SmallFlash	0	65	2	3	1	target	1	541	730	69157	13.328	11.860	14.811
ProbeTrack13	9	ProbeTrack	13.2	SCS215a	20111104.093727	20111104.094435	8	0.013327	60	10	60-180	60	112	GapExp	SmallFlash	0	66	2	45	1	target	1	508	746	69903	13.328	11.388	15.275
ProbeTrack13	9	ProbeTrack	13.2	SCS215a	20111104.093727	20111104.094442	8	0.013327	60	10	60-180	60	121	GapExp	SmallFlash	0	67	2	1	1	distractor	0	687	-1000	68903	13.379	4.359	30.449
ProbeTrack13	9	ProbeTrack	13.2	SCS215a	20111104.093727	20111104.094448	8	0.013327	60	10	60-180	60	107	GapExp	SmallFlash	0	68	2	3	0	distractor	1	898	551	69454	13.328	11.217	15.468
ProbeTrack13	9	ProbeTrack	13.2	SCS215a	20111104.093727	20111104.094454	8	0.013327	60	10	60-180	60	141	GapExp	SmallFlash	0	69	2	3	1	target	1	493	754	70208	13.428	13.115	30.997
ProbeTrack13	9	ProbeTrack	13.2	SCS215a	20111104.093727	20111104.094500	8	0.013327	60	10	60-180	60	130	GapExp	SmallFlash	0	70	2	3	0	distractor	1	573	714	70922	13.328	9.491	17.159
ProbeTrack13	9	ProbeTrack	13.2	SCS215a	20111104.093727	20111104.094506	8	0.013327	60	10	60-180	60	171	GapExp	SmallFlash	0	71	2	0	0	distractor	1	590	705	71627	13.328	13.005	13.657
ProbeTrack13	9	ProbeTrack	13.2	SCS215a	20111104.093727	20111104.094514	8	0.013327	60	10	60-180	60	112	GapExp	SmallFlash	0	72	2	0	1	target	1	828	586	72213	13.328	13.075	13.674
ProbeTrack13	9	ProbeTrack	13.2	SCS215a	20111104.093727	20111104.094520	8	0.013327	60	10	60-180	60	91	GapExp	SmallFlash	0	73	2	1	1	target	1	476	762	72975	13.328	13.309	13.355
ProbeTrack13	9	ProbeTrack	13.2	SCS215a	20111104.093727	20111104.094525	8	0.013327	60	10	60-180	60	173	GapExp	SmallFlash	0	74	2	45	0	distractor	1	711	645	73620	13.328	6.749	19.919
ProbeTrack13	9	ProbeTrack	13.2	SCS215a	20111104.093727	20111104.094533	8	0.013327	60	10	60-180	60	104	GapExp	SmallFlash	0	75	2	0	0	distractor	1	572	714	74334	13.328	13.302	13.349
ProbeTrack13	9	ProbeTrack	13.2	SCS215a	20111104.093727	20111104.094539	8	0.013327	60	10	60-180	60	111	GapExp	SmallFlash	0	76	2	1	1	target	1	596	702	75036	13.328	13.306	13.345
ProbeTrack13	9	ProbeTrack	13.2	SCS215a	20111104.093727	20111104.094545	8	0.013327	60	10	60-180	60	169	GapExp	SmallFlash	0	77	2	1	1	target	1	462	769	75805	13.374	13.096	21.292
ProbeTrack13	9	ProbeTrack	13.2	SCS215a	20111104.093727	20111104.094552	8	0.013327	60	10	60-180	60	91	GapExp	SmallFlash	0	78	2	3	0	distractor	1	623	689	76494	13.328	11.116	15.534
ProbeTrack13	9	ProbeTrack	13.2	SCS215a	20111104.093727	20111104.094558	8	0.013327	60	10	60-180	60	143	GapExp	SmallFlash	0	79	2	3	1	target	1	503	749	77243	13.328	6.767	19.889
ProbeTrack13	9	ProbeTrack	13.2	SCS215a	20111104.093727	20111104.094604	8	0.013327	60	10	60-180	60	71	GapExp	SmallFlash	0	80	2	45	1	target	1	576	712	77955	13.328	4.635	22.013
ProbeTrack13	9	ProbeTrack	13.2	SCS215a	20111104.093727	20111104.094610	8	0.013327	60	10	60-180	60	177	GapExp	SmallFlash	0	81	2	45	0	target	0	509	-1000	76955	13.328	4.698	21.967
ProbeTrack13	9	ProbeTrack	13.2	SCS215a	20111104.093727	20111104.094618	8	0.013327	60	10	60-180	60	165	GapExp	SmallFlash	0	82	2	3	1	target	1	414	793	77748	13.328	12.034	14.623
ProbeTrack13	9	ProbeTrack	13.2	SCS215a	20111104.093727	20111104.094624	8	0.013327	60	10	60-180	60	179	GapExp	SmallFlash	0	83	2	3	0	distractor	1	613	694	78442	13.328	11.096	15.555
ProbeTrack13	9	ProbeTrack	13.2	SCS215a	20111104.093727	20111104.094631	8	0.013327	60	10	60-180	60	154	GapExp	SmallFlash	0	84	2	1	0	distractor	1	600	700	79142	13.328	13.298	13.362
ProbeTrack13	9	ProbeTrack	13.2	SCS215a	20111104.093727	20111104.094637	8	0.013327	60	10	60-180	60	79	GapExp	SmallFlash	0	85	2	0	1	target	1	522	739	79881	13.328	13.302	13.344
ProbeTrack13	9	ProbeTrack	13.2	SCS215a	20111104.093727	20111104.094642	8	0.013327	60	10	60-180	60	178	GapExp	SmallFlash	0	86	2	3	1	target	1	545	728	80609	13.328	8.773	17.881
ProbeTrack13	9	ProbeTrack	13.2	SCS215a	20111104.093727	20111104.094650	8	0.013327	60	10	60-180	60	179	GapExp	SmallFlash	0	87	2	45	0	distractor	1	722	639	81248	13.313	8.050	13.685
ProbeTrack13	9	ProbeTrack	13.2	SCS215a	20111104.093727	20111104.094657	8	0.013327	60	10	60-180	60	99	GapExp	SmallFlash	0	88	2	1	0	distractor	1	605	698	81946	13.328	6.744	19.909
ProbeTrack13	9	ProbeTrack	13.2	SCS215a	20111104.093727	20111104.094703	8	0.013327	60	10	60-180	60	105	GapExp	SmallFlash	0	89	2	0	0	distractor	1	1070	465	82411	13.328	10.287	16.398
ProbeTrack13	9	ProbeTrack	13.2	SCS215a	20111104.093727	20111104.094709	8	0.013327	60	10	60-180	60	154	GapExp	SmallFlash	0	90	2	45	1	target	1	500	750	83161	13.369	5.443	26.391
ProbeTrack13	9	ProbeTrack	13.2	SCS215a	20111104.093727	20111104.094716	8	0.013327	60	10	60-180	60	115	GapExp	SmallFlash	0	91	2	0	1	target	1	468	766	83927	13.328	12.890	13.774
ProbeTrack13	9	ProbeTrack	13.2	SCS215a	20111104.093727	20111104.094723	8	0.013327	60	10	60-180	60	162	GapExp	SmallFlash	0	92	2	3	1	target	1	445	778	84705	13.374	13.099	26.414
ProbeTrack13	9	ProbeTrack	13.2	SCS215a	20111104.093727	20111104.094729	8	0.013327	60	10	60-180	60	158	GapExp	SmallFlash	0	93	2	1	0	distractor	1	676	662	85367	13.328	13.095	13.552
ProbeTrack13	9	ProbeTrack	13.2	SCS215a	20111104.093727	20111104.094736	8	0.013327	60	10	60-180	60	152	GapExp	SmallFlash	0	94	2	1	1	target	1	511	745	86112	13.328	10.791	15.847
ProbeTrack13	9	ProbeTrack	13.2	SCS215a	20111104.093727	20111104.094742	8	0.013327	60	10	60-180	60	83	GapExp	SmallFlash	0	95	2	3	1	target	1	538	731	86843	13.328	7.271	19.385
ProbeTrack13	9	ProbeTrack	13.2	SCS215a	20111104.093727	20111104.094747	8	0.013327	60	10	60-180	60	172	GapExp	SmallFlash	0	96	2	0	1	target	1	441	780	87623	13.328	11.382	15.287
ProbeTrack13	9	ProbeTrack	13.2	SCS215a	20111104.093727	20111104.094755	8	0.013327	60	10	60-180	60	129	GapExp	SmallFlash	0	97	2	45	1	target	1	614	693	88316	13.328	13.044	13.641
ProbeTrack13	9	ProbeTrack	13.2	SCS215a	20111104.093727	20111104.094802	8	0.013327	60	10	60-180	60	134	GapExp	SmallFlash	0	98	2	3	0	distractor	1	731	635	88951	13.376	13.095	21.602
ProbeTrack13	9	ProbeTrack	13.2	SCS215a	20111104.093727	20111104.094809	8	0.013327	60	10	60-180	60	140	GapExp	SmallFlash	0	99	2	45	1	target	1	504	748	89699	13.328	12.926	13.605
ProbeTrack13	9	ProbeTrack	13.2	SCS215a	20111104.093727	20111104.094815	8	0.013327	60	10	60-180	60	168	GapExp	SmallFlash	0	100	2	3	1	target	1	451	775	90474	13.328	12.974	13.683
ProbeTrack13	9	ProbeTrack	13.2	SCS215a	20111104.093727	20111104.094822	8	0.013327	60	10	60-180	60	157	GapExp	SmallFlash	0	101	2	1	0	distractor	1	603	699	91173	13.374	13.066	26.539
ProbeTrack13	9	ProbeTrack	13.2	SCS215a	20111104.093727	20111104.094829	8	0.013327	60	10	60-180	60	162	GapExp	SmallFlash	0	102	2	1	1	target	1	392	804	91977	13.328	11.580	15.071
ProbeTrack13	9	ProbeTrack	13.2	SCS215a	20111104.093727	20111104.094836	8	0.013327	60	10	60-180	60	118	GapExp	SmallFlash	0	103	2	3	1	target	1	453	774	92751	13.328	11.092	15.562
ProbeTrack13	9	ProbeTrack	13.2	SCS215a	20111104.093727	20111104.094843	8	0.013327	60	10	60-180	60	81	GapExp	SmallFlash	0	104	2	45	1	target	1	407	797	93548	13.328	13.296	13.360
ProbeTrack13	9	ProbeTrack	13.2	SCS215a	20111104.093727	20111104.094849	8	0.013327	60	10	60-180	60	161	GapExp	SmallFlash	0	105	2	45	1	target	1	372	814	94362	13.328	13.295	13.362
ProbeTrack13	9	ProbeTrack	13.2	SCS215a	20111104.093727	20111104.094856	8	0.013327	60	10	60-180	60	99	GapExp	SmallFlash	0	106	2	3	0	target	0	579	-1000	93362	13.385	13.214	26.754
ProbeTrack13	9	ProbeTrack	13.2	SCS215a	20111104.093727	20111104.094902	8	0.013327	60	10	60-180	60	110	GapExp	SmallFlash	0	107	2	45	1	target	1	496	752	94114	13.328	13.194	13.475
ProbeTrack13	9	ProbeTrack	13.2	SCS215a	20111104.093727	20111104.094909	8	0.013327	60	10	60-180	60	147	GapExp	SmallFlash	0	108	2	1	1	target	1	500	750	94864	13.328	7.159	19.498
ProbeTrack13	9	ProbeTrack	13.2	SCS215a	20111104.093727	20111104.094915	8	0.013327	60	10	60-180	60	109	GapExp	SmallFlash	0	109	2	45	1	target	1	547	727	95591	13.375	13.090	23.760
ProbeTrack13	9	ProbeTrack	13.2	SCS215a	20111104.093727	20111104.094921	8	0.013327	60	10	60-180	60	163	GapExp	SmallFlash	0	110	2	1	1	target	1	527	737	96328	13.374	13.115	24.492
ProbeTrack13	9	ProbeTrack	13.2	SCS215a	20111104.093727	20111104.094928	8	0.013327	60	10	60-180	60	83	GapExp	SmallFlash	0	111	2	0	1	target	1	447	777	97105	13.328	12.041	14.646
ProbeTrack13	9	ProbeTrack	13.2	SCS215a	20111104.093727	20111104.094933	8	0.013327	60	10	60-180	60	135	GapExp	SmallFlash	0	112	2	3	1	target	1	440	780	97885	13.328	13.109	13.560
ProbeTrack13	9	ProbeTrack	13.2	SCS215a	20111104.093727	20111104.094940	8	0.013327	60	10	60-180	60	162	GapExp	SmallFlash	0	113	2	0	0	distractor	1	816	592	98477	13.328	7.438	19.420
ProbeTrack13	9	ProbeTrack	13.2	SCS215a	20111104.093727	20111104.094947	8	0.013327	60	10	60-180	60	97	GapExp	SmallFlash	0	114	2	3	1	target	1	488	756	99233	13.447	13.307	26.574
ProbeTrack13	9	ProbeTrack	13.2	SCS215a	20111104.093727	20111104.094953	8	0.013327	60	10	60-180	60	62	GapExp	SmallFlash	0	115	2	45	1	target	1	523	739	99972	13.385	8.332	26.567
ProbeTrack13	9	ProbeTrack	13.2	SCS215a	20111104.093727	20111104.094958	8	0.013327	60	10	60-180	60	124	GapExp	SmallFlash	0	116	2	1	1	target	1	463	769	100741	13.328	13.305	13.347
ProbeTrack13	9	ProbeTrack	13.2	SCS215a	20111104.093727	20111104.095005	8	0.013327	60	10	60-180	60	74	GapExp	SmallFlash	0	117	2	3	0	distractor	1	759	621	101362	13.328	13.279	13.377
ProbeTrack13	9	ProbeTrack	13.2	SCS215a	20111104.093727	20111104.095011	8	0.013327	60	10	60-180	60	133	GapExp	SmallFlash	0	118	2	1	1	distractor	0	609	-1000	100362	13.328	10.689	15.960
ProbeTrack13	9	ProbeTrack	13.2	SCS215a	20111104.093727	20111104.095017	8	0.013327	60	10	60-180	60	84	GapExp	SmallFlash	0	119	2	0	1	target	1	1317	342	100704	13.328	10.201	16.463
ProbeTrack13	9	ProbeTrack	13.2	SCS215a	20111104.093727	20111104.095024	8	0.013327	60	10	60-180	60	108	GapExp	SmallFlash	0	120	2	0	0	distractor	1	715	643	101347	13.328	13.105	13.555
ProbeTrack13	9	ProbeTrack	13.2	SCS215a	20111104.093727	20111104.095030	8	0.013327	60	10	60-180	60	161	GapExp	SmallFlash	0	121	2	0	0	distractor	1	646	677	102024	13.328	12.037	14.607
ProbeTrack13	9	ProbeTrack	13.2	SCS215a	20111104.093727	20111104.095038	8	0.013327	60	10	60-180	60	81	GapExp	SmallFlash	0	122	2	3	1	target	1	629	686	102710	13.328	11.439	15.210
ProbeTrack13	9	ProbeTrack	13.2	SCS215a	20111104.093727	20111104.095044	8	0.013327	60	10	60-180	60	86	GapExp	SmallFlash	0	123	2	45	0	distractor	1	716	642	103352	13.377	9.804	21.634
ProbeTrack13	9	ProbeTrack	13.2	SCS215a	20111104.093727	20111104.095050	8	0.013327	60	10	60-180	60	77	GapExp	SmallFlash	0	124	2	0	0	early	-4	-2168	-1000	102352	13.328	12.203	14.461
ProbeTrack13	9	ProbeTrack	13.2	SCS215a	20111104.093727	20111104.095056	8	0.013327	60	10	60-180	60	80	GapExp	SmallFlash	0	125	2	0	0	distractor	1	857	572	102924	13.328	10.077	16.574
ProbeTrack13	9	ProbeTrack	13.2	SCS215a	20111104.093727	20111104.095101	8	0.013327	60	10	60-180	60	115	GapExp	SmallFlash	0	126	2	0	0	distractor	1	621	690	103614	13.328	13.299	13.351
ProbeTrack13	9	ProbeTrack	13.2	SCS215a	20111104.093727	20111104.095108	8	0.013327	60	10	60-180	60	158	GapExp	SmallFlash	0	127	2	45	0	distractor	1	566	717	104331	13.328	13.186	13.619
ProbeTrack13	9	ProbeTrack	13.2	SCS215a	20111104.093727	20111104.095115	8	0.013327	60	10	60-180	60	67	GapExp	SmallFlash	0	128	2	45	1	target	1	488	756	105087	13.328	13.304	13.348
ProbeTrack13	9	ProbeTrack	13.2	SCS215a	20111104.093727	20111104.095121	8	0.013327	60	10	60-180	60	173	GapExp	SmallFlash	0	129	2	1	0	target	0	538	-1000	104087	13.328	13.074	13.575
ProbeTrack13	9	ProbeTrack	13.2	SCS215a	20111104.093727	20111104.095128	8	0.013327	60	10	60-180	60	68	GapExp	SmallFlash	0	130	2	0	1	target	1	512	744	104831	13.328	13.115	13.558
ProbeTrack13	9	ProbeTrack	13.2	SCS215a	20111104.093727	20111104.095133	8	0.013327	60	10	60-180	60	68	GapExp	SmallFlash	0	131	2	45	0	distractor	1	766	617	105448	13.328	13.080	13.577
ProbeTrack13	9	ProbeTrack	13.2	SCS215a	20111104.093727	20111104.095140	8	0.013327	60	10	60-180	60	139	GapExp	SmallFlash	0	132	2	0	0	distractor	1	583	709	106157	13.329	7.719	18.930
ProbeTrack13	9	ProbeTrack	13.2	SCS215a	20111104.093727	20111104.095147	8	0.013327	60	10	60-180	60	98	GapExp	SmallFlash	0	133	2	1	0	distractor	1	666	667	106824	13.328	13.092	13.558
ProbeTrack13	9	ProbeTrack	13.2	SCS215a	20111104.093727	20111104.095153	8	0.013327	60	10	60-180	60	97	GapExp	SmallFlash	0	134	2	1	1	target	1	474	763	107587	13.450	11.779	37.725
ProbeTrack13	9	ProbeTrack	13.2	SCS215a	20111104.093727	20111104.095158	8	0.013327	60	10	60-180	60	131	GapExp	SmallFlash	0	135	2	45	0	distractor	1	780	610	108197	13.328	8.782	17.868
ProbeTrack13	9	ProbeTrack	13.2	SCS215a	20111104.093727	20111104.095205	8	0.013327	60	10	60-180	60	67	GapExp	SmallFlash	0	136	2	0	1	target	1	612	694	108891	13.395	12.707	24.847
ProbeTrack13	9	ProbeTrack	13.2	SCS215a	20111104.093727	20111104.095211	8	0.013327	60	10	60-180	60	106	GapExp	SmallFlash	0	137	2	3	1	target	1	484	758	109649	13.328	11.448	15.209
ProbeTrack13	9	ProbeTrack	13.2	SCS215a	20111104.093727	20111104.095217	8	0.013327	60	10	60-180	60	129	GapExp	SmallFlash	0	138	2	45	0	distractor	1	597	702	110351	13.328	9.706	16.957
ProbeTrack13	9	ProbeTrack	13.2	SCS215a	20111104.093727	20111104.095223	8	0.013327	60	10	60-180	60	168	GapExp	SmallFlash	0	139	2	3	1	target	1	608	696	111047	13.328	11.475	15.191
ProbeTrack13	9	ProbeTrack	13.2	SCS215a	20111104.093727	20111104.095230	8	0.013327	60	10	60-180	60	133	GapExp	SmallFlash	0	140	2	1	1	target	1	468	766	111813	13.328	7.216	19.440
ProbeTrack13	9	ProbeTrack	13.2	SCS215a	20111104.093727	20111104.095236	8	0.013327	60	10	60-180	60	117	GapExp	SmallFlash	0	141	2	3	0	distractor	1	632	684	112497	13.328	13.106	13.544
ProbeTrack13	9	ProbeTrack	13.2	SCS215a	20111104.093727	20111104.095243	8	0.013327	60	10	60-180	60	173	GapExp	SmallFlash	0	142	2	0	0	distractor	1	774	613	113110	13.328	4.538	22.115
ProbeTrack13	9	ProbeTrack	13.2	SCS215a	20111104.093727	20111104.095250	8	0.013327	60	10	60-180	60	111	GapExp	SmallFlash	0	143	2	3	0	distractor	1	680	660	113770	13.328	13.231	13.437
ProbeTrack13	9	ProbeTrack	13.2	SCS215a	20111104.093727	20111104.095256	8	0.013327	60	10	60-180	60	68	GapExp	SmallFlash	0	144	2	0	1	target	1	530	735	114505	13.328	12.916	13.734
ProbeTrack13	9	ProbeTrack	13.2	SCS215a	20111104.093727	20111104.095302	8	0.013327	60	10	60-180	60	145	GapExp	SmallFlash	0	145	2	0	0	distractor	1	528	736	115241	13.377	13.107	22.064
ProbeTrack13	9	ProbeTrack	13.2	SCS215a	20111104.093727	20111104.095308	8	0.013327	60	10	60-180	60	65	GapExp	SmallFlash	0	146	2	3	0	distractor	1	704	648	115889	13.392	13.271	25.235
ProbeTrack13	9	ProbeTrack	13.2	SCS215a	20111104.093727	20111104.095314	8	0.013327	60	10	60-180	60	92	GapExp	SmallFlash	0	147	2	45	0	distractor	1	631	685	116574	13.377	13.007	22.469
ProbeTrack13	9	ProbeTrack	13.2	SCS215a	20111104.093727	20111104.095320	8	0.013327	60	10	60-180	60	180	GapExp	SmallFlash	0	148	2	1	0	distractor	1	634	683	117257	13.328	13.090	13.567
ProbeTrack13	9	ProbeTrack	13.2	SCS215a	20111104.093727	20111104.095327	8	0.013327	60	10	60-180	60	145	GapExp	SmallFlash	0	149	2	0	1	target	1	533	734	117991	13.377	6.279	22.263
ProbeTrack13	9	ProbeTrack	13.2	SCS215a	20111104.093727	20111104.095334	8	0.013327	60	10	60-180	60	173	GapExp	SmallFlash	0	150	2	0	0	distractor	1	629	686	118677	13.328	13.090	13.556
ProbeTrack13	9	ProbeTrack	13.2	SCS215a	20111104.093727	20111104.095340	8	0.013327	60	10	60-180	60	141	GapExp	SmallFlash	0	151	2	45	0	distractor	1	595	703	119380	13.370	3.864	27.383
ProbeTrack13	9	ProbeTrack	13.2	SCS215a	20111104.093727	20111104.095348	8	0.013327	60	10	60-180	60	172	GapExp	SmallFlash	0	152	2	3	0	distractor	1	441	780	120160	13.328	9.421	17.241
ProbeTrack13	9	ProbeTrack	13.2	SCS215a	20111104.093727	20111104.095355	8	0.013327	60	10	60-180	60	135	GapExp	SmallFlash	0	153	2	1	1	target	1	515	743	120903	13.328	13.308	13.344
ProbeTrack13	9	ProbeTrack	13.2	SCS215a	20111104.093727	20111104.095401	8	0.013327	60	10	60-180	60	179	GapExp	SmallFlash	0	154	2	1	1	target	1	509	746	121649	13.371	12.785	20.060
ProbeTrack13	9	ProbeTrack	13.2	SCS215a	20111104.093727	20111104.095407	8	0.013327	60	10	60-180	60	139	GapExp	SmallFlash	0	155	2	45	1	distractor	0	688	-1000	120649	13.493	10.196	31.208
ProbeTrack13	9	ProbeTrack	13.2	SCS215a	20111104.093727	20111104.095414	8	0.013327	60	10	60-180	60	153	GapExp	SmallFlash	0	156	2	45	1	target	1	521	740	121389	13.328	9.249	17.408
ProbeTrack13	9	ProbeTrack	13.2	SCS215a	20111104.093727	20111104.095422	8	0.013327	60	10	60-180	60	177	GapExp	SmallFlash	0	157	2	1	0	distractor	1	627	687	122076	13.371	13.088	24.325
ProbeTrack13	9	ProbeTrack	13.2	SCS215a	20111104.093727	20111104.095429	8	0.013327	60	10	60-180	60	154	GapExp	SmallFlash	0	158	2	45	1	target	1	486	757	122833	13.328	6.724	19.922
ProbeTrack13	9	ProbeTrack	13.2	SCS215a	20111104.093727	20111104.095436	8	0.013327	60	10	60-180	60	162	GapExp	SmallFlash	0	159	2	1	1	target	1	495	753	123586	13.328	13.065	13.609
ProbeTrack13	9	ProbeTrack	13.2	SCS215a	20111104.093727	20111104.095442	8	0.013327	60	10	60-180	60	127	GapExp	SmallFlash	0	160	2	0	0	distractor	1	579	711	124297	13.328	12.953	13.699
ProbeTrack13	9	ProbeTrack	13.2	SCS215a	20111104.093727	20111104.095448	8	0.013327	60	10	60-180	60	174	GapExp	SmallFlash	0	161	2	45	1	target	1	643	679	124976	13.328	8.082	18.589
ProbeTrack13	9	ProbeTrack	13.2	SCS215a	20111104.093727	20111104.095456	8	0.013327	60	10	60-180	60	167	GapExp	SmallFlash	0	162	2	45	0	distractor	1	706	647	125623	13.366	9.363	21.326
ProbeTrack13	9	ProbeTrack	13.2	SCS215a	20111104.093727	20111104.095504	8	0.013327	60	10	60-180	60	64	GapExp	SmallFlash	0	163	2	45	0	distractor	1	621	690	126313	13.328	13.160	13.488
ProbeTrack13	9	ProbeTrack	13.2	SCS215a	20111104.093727	20111104.095510	8	0.013327	60	10	60-180	60	93	GapExp	SmallFlash	0	164	2	1	1	target	1	479	761	127074	13.328	13.309	13.348
ProbeTrack13	9	ProbeTrack	13.2	SCS215a	20111104.093727	20111104.095515	8	0.013327	60	10	60-180	60	163	GapExp	SmallFlash	0	165	2	1	0	distractor	1	568	716	127790	13.373	13.170	21.996
ProbeTrack13	9	ProbeTrack	13.2	SCS215a	20111104.093727	20111104.095522	8	0.013327	60	10	60-180	60	175	GapExp	SmallFlash	0	166	2	3	0	distractor	1	548	726	128516	13.415	8.414	34.192
ProbeTrack13	9	ProbeTrack	13.2	SCS215a	20111104.093727	20111104.095529	8	0.013327	60	10	60-180	60	92	GapExp	SmallFlash	0	167	2	45	0	distractor	1	661	670	129186	13.328	6.647	20.005
ProbeTrack13	9	ProbeTrack	13.2	SCS215a	20111104.093727	20111104.095535	8	0.013327	60	10	60-180	60	93	GapExp	SmallFlash	0	168	2	3	1	target	1	767	617	129803	13.328	13.273	13.382
ProbeTrack13	9	ProbeTrack	13.2	SCS215a	20111104.093727	20111104.095541	8	0.013327	60	10	60-180	60	126	GapExp	SmallFlash	0	169	2	1	0	distractor	1	701	650	130453	13.328	13.307	13.347
ProbeTrack13	9	ProbeTrack	13.2	SCS215a	20111104.093727	20111104.095548	8	0.013327	60	10	60-180	60	148	GapExp	SmallFlash	0	170	2	0	1	target	1	568	716	131169	13.328	9.586	17.076
ProbeTrack13	9	ProbeTrack	13.2	SCS215a	20111104.093727	20111104.095554	8	0.013327	60	10	60-180	60	147	GapExp	SmallFlash	0	171	2	3	1	target	1	400	800	131969	13.328	13.100	13.571
ProbeTrack13	9	ProbeTrack	13.2	SCS215a	20111104.093727	20111104.095601	8	0.013327	60	10	60-180	60	73	GapExp	SmallFlash	0	172	2	1	0	distractor	1	588	706	132675	13.328	13.107	13.563
ProbeTrack13	9	ProbeTrack	13.2	SCS215a	20111104.093727	20111104.095606	8	0.013327	60	10	60-180	60	112	GapExp	SmallFlash	0	173	2	0	1	target	1	419	791	133466	13.328	12.593	14.070
ProbeTrack13	9	ProbeTrack	13.2	SCS215a	20111104.093727	20111104.095612	8	0.013327	60	10	60-180	60	142	GapExp	SmallFlash	0	174	2	3	0	distractor	1	615	693	134159	13.328	7.806	18.852
ProbeTrack13	9	ProbeTrack	13.2	SCS215a	20111104.093727	20111104.095618	8	0.013327	60	10	60-180	60	64	GapExp	SmallFlash	0	175	2	3	0	distractor	1	758	621	134780	13.328	13.310	13.348
ProbeTrack13	9	ProbeTrack	13.2	SCS215a	20111104.093727	20111104.095623	8	0.013327	60	10	60-180	60	118	GapExp	SmallFlash	0	176	2	0	1	target	1	671	665	135445	13.328	8.551	18.105
ProbeTrack13	9	ProbeTrack	13.2	SCS215a	20111104.093727	20111104.095629	8	0.013327	60	10	60-180	60	97	GapExp	SmallFlash	0	177	2	0	0	distractor	1	477	762	136207	13.389	3.934	22.723
ProbeTrack13	9	ProbeTrack	13.2	SCS215a	20111104.093727	20111104.095635	8	0.013327	60	10	60-180	60	68	GapExp	SmallFlash	0	178	2	3	1	target	1	464	768	136975	13.397	12.427	26.382
ProbeTrack13	9	ProbeTrack	13.2	SCS215a	20111104.093727	20111104.095641	8	0.013327	60	10	60-180	60	105	GapExp	SmallFlash	0	179	2	0	0	distractor	1	581	710	137685	13.328	13.308	13.353
ProbeTrack13	9	ProbeTrack	13.2	SCS215a	20111104.093727	20111104.095646	8	0.013327	60	10	60-180	60	163	GapExp	SmallFlash	0	180	2	0	1	target	1	414	793	138478	13.328	12.543	14.113
ProbeTrack13	9	ProbeTrack	13.2	SCS215a	20111104.093727	20111104.095653	8	0.013327	60	10	60-180	60	104	GapExp	SmallFlash	0	181	2	3	1	target	1	498	751	139229	13.328	10.019	16.650
ProbeTrack13	9	ProbeTrack	13.2	SCS215a	20111104.093727	20111104.095658	8	0.013327	60	10	60-180	60	141	GapExp	SmallFlash	0	182	2	3	0	distractor	1	570	715	139944	13.328	5.314	21.428
ProbeTrack13	9	ProbeTrack	13.2	SCS215a	20111104.093727	20111104.095705	8	0.013327	60	10	60-180	60	129	GapExp	SmallFlash	0	183	2	1	0	distractor	1	569	716	140660	13.379	13.104	21.620
ProbeTrack13	9	ProbeTrack	13.2	SCS215a	20111104.093727	20111104.095711	8	0.013327	60	10	60-180	60	101	GapExp	SmallFlash	0	184	2	3	0	distractor	1	548	726	141386	13.444	8.474	32.633
ProbeTrack13	9	ProbeTrack	13.2	SCS215a	20111104.093727	20111104.095717	8	0.013327	60	10	60-180	60	71	GapExp	SmallFlash	0	185	2	0	1	target	1	472	764	142150	13.328	7.823	18.838
ProbeTrack13	9	ProbeTrack	13.2	SCS215a	20111104.093727	20111104.095722	8	0.013327	60	10	60-180	60	72	GapExp	SmallFlash	0	186	2	1	1	target	1	436	782	142932	13.328	11.430	15.212
ProbeTrack13	9	ProbeTrack	13.2	SCS215a	20111104.093727	20111104.095727	8	0.013327	60	10	60-180	60	146	GapExp	SmallFlash	0	187	2	45	0	distractor	1	505	748	143680	13.328	13.300	13.361
ProbeTrack13	9	ProbeTrack	13.2	SCS215a	20111104.093727	20111104.095734	8	0.013327	60	10	60-180	60	171	GapExp	SmallFlash	0	188	2	45	0	distractor	1	647	677	144357	13.366	13.214	23.967
ProbeTrack13	9	ProbeTrack	13.2	SCS215a	20111104.093727	20111104.095742	8	0.013327	60	10	60-180	60	112	GapExp	SmallFlash	0	189	2	0	1	target	1	3729	0	144357	13.328	12.324	14.438
ProbeTrack13	9	ProbeTrack	13.2	SCS215a	20111104.093727	20111104.095751	8	0.013327	60	10	60-180	60	76	GapExp	SmallFlash	0	190	2	1	1	target	1	33021	0	144357	13.328	13.120	13.530
ProbeTrack13	9	ProbeTrack	13.2	SCS215a	20111104.093727	20111104.095834	8	0.013327	60	10	60-180	60	149	GapExp	SmallFlash	0	191	2	1	0	distractor	1	555	723	145080	13.328	12.649	14.006
ProbeTrack13	9	ProbeTrack	13.2	SCS215a	20111104.093727	20111104.095840	8	0.013327	60	10	60-180	60	114	GapExp	SmallFlash	0	192	2	1	0	distractor	1	461	770	145850	13.328	13.106	13.551
ProbeTrack13	9	ProbeTrack	13.2	SCS215a	20111104.093727	20111104.095846	8	0.013327	60	10	60-180	60	101	GapExp	SmallFlash	0	193	2	45	1	target	1	503	749	146599	13.328	13.100	13.557
ProbeTrack13	9	ProbeTrack	13.2	SCS215a	20111104.093727	20111104.095853	8	0.013327	60	10	60-180	60	153	GapExp	SmallFlash	0	194	2	0	1	target	1	415	793	147392	13.328	11.592	15.058
ProbeTrack13	9	ProbeTrack	13.2	SCS215a	20111104.093727	20111104.095859	8	0.013327	60	10	60-180	60	165	GapExp	SmallFlash	0	195	2	1	0	distractor	1	493	754	148146	13.328	13.309	13.348
ProbeTrack13	9	ProbeTrack	13.2	SCS215a	20111104.093727	20111104.095906	8	0.013327	60	10	60-180	60	84	GapExp	SmallFlash	0	196	2	45	0	distractor	1	631	685	148831	13.328	12.743	13.900
ProbeTrack13	9	ProbeTrack	13.2	SCS215a	20111104.093727	20111104.095912	8	0.013327	60	10	60-180	60	146	GapExp	SmallFlash	0	197	2	0	0	distractor	1	576	712	149543	13.328	13.308	13.348
ProbeTrack13	9	ProbeTrack	13.2	SCS215a	20111104.093727	20111104.095919	8	0.013327	60	10	60-180	60	151	GapExp	SmallFlash	0	198	2	0	0	distractor	1	605	698	150241	13.328	13.280	13.376
ProbeTrack13	9	ProbeTrack	13.2	SCS215a	20111104.093727	20111104.095925	8	0.013327	60	10	60-180	60	176	GapExp	SmallFlash	0	199	2	1	1	target	1	535	733	150974	13.328	13.079	13.557
ProbeTrack13	9	ProbeTrack	13.2	SCS215a	20111104.093727	20111104.095931	8	0.013327	60	10	60-180	60	112	GapExp	SmallFlash	0	200	2	1	0	distractor	1	556	722	151696	13.328	12.483	14.171
ProbeTrack13	9	ProbeTrack	13.2	SCS215a	20111104.100053	20111104.100058	8	0.013328	60	10	60-180	60	137	GapPrac	Blank	1	1	2	45	0	distractor	1	711	645	152341	13.369	13.109	13.538
ProbeTrack13	9	ProbeTrack	13.2	SCS215a	20111104.100053	20111104.100107	8	0.013328	60	10	60-180	60	177	GapPrac	Blank	1	2	2	1	1	target	1	485	758	153099	13.328	13.110	13.561
ProbeTrack13	9	ProbeTrack	13.2	SCS215a	20111104.100053	20111104.100113	8	0.013328	60	10	60-180	60	149	GapPrac	Blank	1	3	2	45	1	target	1	540	730	153829	13.328	13.105	13.543
ProbeTrack13	9	ProbeTrack	13.2	SCS215a	20111104.100053	20111104.100120	8	0.013328	60	10	60-180	60	134	GapPrac	Blank	1	4	2	3	0	distractor	1	745	628	154457	13.328	13.045	13.630
ProbeTrack13	9	ProbeTrack	13.2	SCS215a	20111104.100053	20111104.100127	8	0.013328	60	10	60-180	60	81	GapPrac	Blank	1	5	2	1	0	distractor	1	528	736	155193	13.328	13.310	13.344
ProbeTrack13	9	ProbeTrack	13.2	SCS215a	20111104.100053	20111104.100132	8	0.013328	60	10	60-180	60	110	GapPrac	Blank	1	6	2	0	0	distractor	1	539	731	155924	13.328	8.026	18.623
ProbeTrack13	9	ProbeTrack	13.2	SCS215a	20111104.100053	20111104.100138	8	0.013328	60	10	60-180	60	121	GapPrac	Blank	1	7	2	45	0	target	0	715	-1000	154924	13.371	8.855	31.112
ProbeTrack13	9	ProbeTrack	13.2	SCS215a	20111104.100053	20111104.100145	8	0.013328	60	10	60-180	60	70	GapPrac	Blank	1	8	2	45	1	target	1	408	796	155720	13.328	13.067	13.589
ProbeTrack13	9	ProbeTrack	13.2	SCS215a	20111104.100053	20111104.100151	8	0.013328	60	10	60-180	60	123	GapPrac	Blank	1	9	2	1	1	target	1	469	766	156486	13.328	13.093	13.557
ProbeTrack13	9	ProbeTrack	13.2	SCS215a	20111104.100053	20111104.100157	8	0.013328	60	10	60-180	60	94	GapPrac	Blank	1	10	2	45	0	distractor	1	1524	238	156724	13.328	3.515	23.153
ProbeTrack13	9	ProbeTrack	13.2	SCS215a	20111104.100053	20111104.100204	8	0.013328	60	10	60-180	60	153	GapPrac	Blank	1	11	2	0	0	target	0	573	-1000	155724	13.328	13.093	13.552
ProbeTrack13	9	ProbeTrack	13.2	SCS215a	20111104.100053	20111104.100210	8	0.013328	60	10	60-180	60	133	GapPrac	Blank	1	12	2	0	1	target	1	464	768	156492	13.328	13.108	13.550
ProbeTrack13	9	ProbeTrack	13.2	SCS215a	20111104.100053	20111104.100216	8	0.013328	60	10	60-180	60	86	GapPrac	Blank	1	13	2	1	1	target	1	387	807	157299	13.328	12.593	14.055
ProbeTrack13	9	ProbeTrack	13.2	SCS215a	20111104.100053	20111104.100222	8	0.013328	60	10	60-180	60	65	GapPrac	Blank	1	14	2	3	1	target	1	316	842	158141	13.328	13.306	13.350
ProbeTrack13	9	ProbeTrack	13.2	SCS215a	20111104.100053	20111104.100227	8	0.013328	60	10	60-180	60	81	GapPrac	Blank	1	15	2	3	0	distractor	1	677	662	158803	13.328	13.103	13.545
ProbeTrack13	9	ProbeTrack	13.2	SCS215a	20111104.100053	20111104.100232	8	0.013328	60	10	60-180	60	66	GapPrac	Blank	1	16	2	0	1	target	1	435	783	159586	13.328	9.818	16.837
ProbeTrack13	9	ProbeTrack	13.2	SCS215a	20111104.100053	20111104.100237	8	0.013328	60	10	60-180	60	147	GapPrac	Blank	1	17	2	1	0	distractor	1	434	783	160369	13.328	10.088	16.566
ProbeTrack13	9	ProbeTrack	13.2	SCS215a	20111104.100053	20111104.100244	8	0.013328	60	10	60-180	60	90	GapPrac	Blank	1	18	2	45	1	target	1	456	772	161141	13.328	8.376	18.287
ProbeTrack13	9	ProbeTrack	13.2	SCS215a	20111104.100053	20111104.100250	8	0.013328	60	10	60-180	60	159	GapPrac	Blank	1	19	2	3	0	distractor	1	636	682	161823	13.328	11.086	15.569
ProbeTrack13	9	ProbeTrack	13.2	SCS215a	20111104.100053	20111104.100257	8	0.013328	60	10	60-180	60	101	GapPrac	Blank	1	20	2	3	1	target	1	517	742	162565	13.328	13.307	13.345
ProbeTrack13	9	ProbeTrack	13.2	SCS215a	20111104.100350	20111104.100355	8	0.013327	60	10	60-180	60	88	GapExp	Blank	1	1	2	0	1	target	1	355	823	163388	13.394	13.105	13.565
ProbeTrack13	9	ProbeTrack	13.2	SCS215a	20111104.100350	20111104.100402	8	0.013327	60	10	60-180	60	66	GapExp	Blank	1	2	2	45	1	target	1	605	698	164086	13.328	12.227	14.428
ProbeTrack13	9	ProbeTrack	13.2	SCS215a	20111104.100350	20111104.100408	8	0.013327	60	10	60-180	60	170	GapExp	Blank	1	3	2	45	0	distractor	1	415	793	164879	13.328	13.307	13.348
ProbeTrack13	9	ProbeTrack	13.2	SCS215a	20111104.100350	20111104.100415	8	0.013327	60	10	60-180	60	110	GapExp	Blank	1	4	2	1	0	distractor	1	460	770	165649	13.328	13.123	13.525
ProbeTrack13	9	ProbeTrack	13.2	SCS215a	20111104.100350	20111104.100421	8	0.013327	60	10	60-180	60	70	GapExp	Blank	1	5	2	1	1	target	1	756	622	166271	13.328	13.308	13.347
ProbeTrack13	9	ProbeTrack	13.2	SCS215a	20111104.100350	20111104.100427	8	0.013327	60	10	60-180	60	63	GapExp	Blank	1	6	2	3	0	distractor	1	579	711	166982	13.328	13.299	13.351
ProbeTrack13	9	ProbeTrack	13.2	SCS215a	20111104.100350	20111104.100432	8	0.013327	60	10	60-180	60	107	GapExp	Blank	1	7	2	3	1	target	1	574	713	167695	13.328	11.943	14.705
ProbeTrack13	9	ProbeTrack	13.2	SCS215a	20111104.100350	20111104.100438	8	0.013327	60	10	60-180	60	81	GapExp	Blank	1	8	2	0	0	distractor	1	538	731	168426	13.328	13.100	13.550
ProbeTrack13	9	ProbeTrack	13.2	SCS215a	20111104.100350	20111104.100444	8	0.013327	60	10	60-180	60	154	GapExp	Blank	0	9	2	1	1	target	1	375	813	169239	13.328	13.103	13.553
ProbeTrack13	9	ProbeTrack	13.2	SCS215a	20111104.100350	20111104.100450	8	0.013327	60	10	60-180	60	102	GapExp	Blank	0	10	2	1	0	distractor	1	534	733	169972	13.328	13.300	13.358
ProbeTrack13	9	ProbeTrack	13.2	SCS215a	20111104.100350	20111104.100456	8	0.013327	60	10	60-180	60	127	GapExp	Blank	0	11	2	1	1	target	1	559	721	170693	13.328	8.381	18.288
ProbeTrack13	9	ProbeTrack	13.2	SCS215a	20111104.100350	20111104.100502	8	0.013327	60	10	60-180	60	137	GapExp	Blank	0	12	2	0	0	target	0	548	-1000	169693	13.328	13.306	13.362
ProbeTrack13	9	ProbeTrack	13.2	SCS215a	20111104.100350	20111104.100508	8	0.013327	60	10	60-180	60	153	GapExp	Blank	0	13	2	45	0	target	0	618	-1000	168693	13.328	13.241	13.403
ProbeTrack13	9	ProbeTrack	13.2	SCS215a	20111104.100350	20111104.100516	8	0.013327	60	10	60-180	60	121	GapExp	Blank	0	14	2	0	0	distractor	1	572	714	169407	13.328	7.580	19.077
ProbeTrack13	9	ProbeTrack	13.2	SCS215a	20111104.100350	20111104.100521	8	0.013327	60	10	60-180	60	168	GapExp	Blank	0	15	2	45	1	target	1	453	774	170181	13.328	12.392	14.257
ProbeTrack13	9	ProbeTrack	13.2	SCS215a	20111104.100350	20111104.100528	8	0.013327	60	10	60-180	60	115	GapExp	Blank	0	16	2	3	0	distractor	1	536	732	170913	13.328	13.103	13.551
ProbeTrack13	9	ProbeTrack	13.2	SCS215a	20111104.100350	20111104.100535	8	0.013327	60	10	60-180	60	97	GapExp	Blank	0	17	2	1	1	target	1	435	783	171696	13.328	8.561	18.091
ProbeTrack13	9	ProbeTrack	13.2	SCS215a	20111104.100350	20111104.100541	8	0.013327	60	10	60-180	60	166	GapExp	Blank	0	18	2	45	1	target	1	448	776	172472	13.328	13.297	13.350
ProbeTrack13	9	ProbeTrack	13.2	SCS215a	20111104.100350	20111104.100548	8	0.013327	60	10	60-180	60	165	GapExp	Blank	0	19	2	1	0	distractor	1	750	625	173097	13.328	12.742	13.900
ProbeTrack13	9	ProbeTrack	13.2	SCS215a	20111104.100350	20111104.100554	8	0.013327	60	10	60-180	60	169	GapExp	Blank	0	20	2	0	1	target	1	495	753	173850	13.328	13.091	13.565
ProbeTrack13	9	ProbeTrack	13.2	SCS215a	20111104.100350	20111104.100601	8	0.013327	60	10	60-180	60	177	GapExp	Blank	0	21	2	45	0	distractor	1	575	713	174563	13.328	9.617	17.032
ProbeTrack13	9	ProbeTrack	13.2	SCS215a	20111104.100350	20111104.100608	8	0.013327	60	10	60-180	60	102	GapExp	Blank	0	22	2	0	1	target	1	561	720	175283	13.328	10.276	16.378
ProbeTrack13	9	ProbeTrack	13.2	SCS215a	20111104.100350	20111104.100615	8	0.013327	60	10	60-180	60	91	GapExp	Blank	0	23	2	45	1	target	1	369	816	176099	13.328	8.684	17.989
ProbeTrack13	9	ProbeTrack	13.2	SCS215a	20111104.100350	20111104.100621	8	0.013327	60	10	60-180	60	100	GapExp	Blank	0	24	2	1	1	target	1	448	776	176875	13.328	13.308	13.349
ProbeTrack13	9	ProbeTrack	13.2	SCS215a	20111104.100350	20111104.100627	8	0.013327	60	10	60-180	60	125	GapExp	Blank	0	25	2	0	1	target	1	458	771	177646	13.328	13.309	13.346
ProbeTrack13	9	ProbeTrack	13.2	SCS215a	20111104.100350	20111104.100633	8	0.013327	60	10	60-180	60	81	GapExp	Blank	0	26	2	45	1	target	1	455	773	178419	13.328	13.309	13.348
ProbeTrack13	9	ProbeTrack	13.2	SCS215a	20111104.100350	20111104.100639	8	0.013327	60	10	60-180	60	90	GapExp	Blank	0	27	2	3	0	target	0	544	-1000	177419	13.328	13.100	13.558
ProbeTrack13	9	ProbeTrack	13.2	SCS215a	20111104.100350	20111104.100644	8	0.013327	60	10	60-180	60	86	GapExp	Blank	0	28	2	1	0	distractor	1	673	664	178083	13.328	13.113	13.564
ProbeTrack13	9	ProbeTrack	13.2	SCS215a	20111104.100350	20111104.100651	8	0.013327	60	10	60-180	60	117	GapExp	Blank	0	29	2	45	0	distractor	1	703	649	178732	13.328	9.818	16.826
ProbeTrack13	9	ProbeTrack	13.2	SCS215a	20111104.100350	20111104.100658	8	0.013327	60	10	60-180	60	145	GapExp	Blank	0	30	2	1	1	target	1	373	814	179546	13.328	13.086	13.551
ProbeTrack13	9	ProbeTrack	13.2	SCS215a	20111104.100350	20111104.100704	8	0.013327	60	10	60-180	60	105	GapExp	Blank	0	31	2	0	1	target	1	397	802	180348	13.328	13.106	13.557
ProbeTrack13	9	ProbeTrack	13.2	SCS215a	20111104.100350	20111104.100710	8	0.013327	60	10	60-180	60	163	GapExp	Blank	0	32	2	45	0	distractor	1	512	744	181092	13.328	11.898	14.751
ProbeTrack13	9	ProbeTrack	13.2	SCS215a	20111104.100350	20111104.100717	8	0.013327	60	10	60-180	60	71	GapExp	Blank	0	33	2	1	1	target	1	451	775	181867	13.328	13.307	13.343
ProbeTrack13	9	ProbeTrack	13.2	SCS215a	20111104.100350	20111104.100723	8	0.013327	60	10	60-180	60	179	GapExp	Blank	0	34	2	45	1	target	1	389	806	182673	13.328	8.973	17.682
ProbeTrack13	9	ProbeTrack	13.2	SCS215a	20111104.100350	20111104.100731	8	0.013327	60	10	60-180	60	107	GapExp	Blank	0	35	2	1	0	target	0	79	-1000	181673	13.328	13.259	13.395
ProbeTrack13	9	ProbeTrack	13.2	SCS215a	20111104.100350	20111104.100737	8	0.013327	60	10	60-180	60	112	GapExp	Blank	0	36	2	3	1	target	1	471	765	182438	13.328	13.306	13.350
ProbeTrack13	9	ProbeTrack	13.2	SCS215a	20111104.100350	20111104.100742	8	0.013327	60	10	60-180	60	78	GapExp	Blank	0	37	2	3	0	distractor	1	524	738	183176	13.328	12.862	13.780
ProbeTrack13	9	ProbeTrack	13.2	SCS215a	20111104.100350	20111104.100748	8	0.013327	60	10	60-180	60	138	GapExp	Blank	0	38	2	3	1	target	1	456	772	183948	13.328	12.681	13.969
ProbeTrack13	9	ProbeTrack	13.2	SCS215a	20111104.100350	20111104.100755	8	0.013327	60	10	60-180	60	83	GapExp	Blank	0	39	2	45	0	distractor	1	561	720	184668	13.328	13.262	13.379
ProbeTrack13	9	ProbeTrack	13.2	SCS215a	20111104.100350	20111104.100801	8	0.013327	60	10	60-180	60	172	GapExp	Blank	0	40	2	3	0	distractor	1	496	752	185420	13.328	7.585	19.078
ProbeTrack13	9	ProbeTrack	13.2	SCS215a	20111104.100350	20111104.100808	8	0.013327	60	10	60-180	60	107	GapExp	Blank	0	41	2	45	0	distractor	1	653	674	186094	13.328	13.105	13.544
ProbeTrack13	9	ProbeTrack	13.2	SCS215a	20111104.100350	20111104.100815	8	0.013327	60	10	60-180	60	109	GapExp	Blank	0	42	2	3	0	distractor	1	502	749	186843	13.328	13.114	13.557
ProbeTrack13	9	ProbeTrack	13.2	SCS215a	20111104.100350	20111104.100821	8	0.013327	60	10	60-180	60	141	GapExp	Blank	0	43	2	0	0	distractor	1	696	652	187495	13.328	7.969	18.673
ProbeTrack13	9	ProbeTrack	13.2	SCS215a	20111104.100350	20111104.100828	8	0.013327	60	10	60-180	60	107	GapExp	Blank	0	44	2	3	1	target	1	366	817	188312	13.328	10.389	16.261
ProbeTrack13	9	ProbeTrack	13.2	SCS215a	20111104.100350	20111104.100834	8	0.013327	60	10	60-180	60	119	GapExp	Blank	0	45	2	1	0	distractor	1	487	757	189069	13.328	13.311	13.352
ProbeTrack13	9	ProbeTrack	13.2	SCS215a	20111104.100350	20111104.100840	8	0.013327	60	10	60-180	60	173	GapExp	Blank	0	46	2	0	1	target	1	415	793	189862	13.328	12.529	14.134
ProbeTrack13	9	ProbeTrack	13.2	SCS215a	20111104.100350	20111104.100846	8	0.013327	60	10	60-180	60	123	GapExp	Blank	0	47	2	45	1	target	1	435	783	190645	13.328	13.301	13.355
ProbeTrack13	9	ProbeTrack	13.2	SCS215a	20111104.100350	20111104.100853	8	0.013327	60	10	60-180	60	168	GapExp	Blank	0	48	2	0	1	target	1	406	797	191442	13.328	13.286	13.364
ProbeTrack13	9	ProbeTrack	13.2	SCS215a	20111104.100350	20111104.100900	8	0.013327	60	10	60-180	60	83	GapExp	Blank	0	49	2	1	1	target	1	636	682	192124	13.328	13.272	13.385
ProbeTrack13	9	ProbeTrack	13.2	SCS215a	20111104.100350	20111104.100905	8	0.013327	60	10	60-180	60	104	GapExp	Blank	0	50	2	45	0	distractor	1	618	691	192815	13.328	13.308	13.349
ProbeTrack13	9	ProbeTrack	13.2	SCS215a	20111104.100350	20111104.100912	8	0.013327	60	10	60-180	60	85	GapExp	Blank	0	51	2	3	0	distractor	1	511	745	193560	13.391	13.112	24.773
ProbeTrack13	9	ProbeTrack	13.2	SCS215a	20111104.100350	20111104.100917	8	0.013327	60	10	60-180	60	61	GapExp	Blank	0	52	2	1	0	target	0	519	-1000	192560	13.328	13.239	13.422
ProbeTrack13	9	ProbeTrack	13.2	SCS215a	20111104.100350	20111104.100922	8	0.013327	60	10	60-180	60	126	GapExp	Blank	0	53	2	3	1	target	1	397	802	193362	13.382	13.216	21.583
ProbeTrack13	9	ProbeTrack	13.2	SCS215a	20111104.100350	20111104.100928	8	0.013327	60	10	60-180	60	80	GapExp	Blank	0	54	2	45	0	distractor	1	730	635	193997	13.328	8.289	18.872
ProbeTrack13	9	ProbeTrack	13.2	SCS215a	20111104.100350	20111104.100935	8	0.013327	60	10	60-180	60	123	GapExp	Blank	0	55	2	3	0	distractor	1	469	766	194763	13.328	13.303	13.351
ProbeTrack13	9	ProbeTrack	13.2	SCS215a	20111104.100350	20111104.100941	8	0.013327	60	10	60-180	60	158	GapExp	Blank	0	56	2	45	1	target	1	917	542	195305	13.328	13.307	13.354
ProbeTrack13	9	ProbeTrack	13.2	SCS215a	20111104.100350	20111104.100949	8	0.013327	60	10	60-180	60	63	GapExp	Blank	0	57	2	1	1	target	1	515	743	196048	13.328	13.309	13.345
ProbeTrack13	9	ProbeTrack	13.2	SCS215a	20111104.100350	20111104.100954	8	0.013327	60	10	60-180	60	61	GapExp	Blank	0	58	2	1	1	target	1	388	806	196854	13.478	11.492	27.084
ProbeTrack13	9	ProbeTrack	13.2	SCS215a	20111104.100350	20111104.100959	8	0.013327	60	10	60-180	60	61	GapExp	Blank	0	59	2	3	1	target	1	486	757	197611	13.471	11.766	28.326
ProbeTrack13	9	ProbeTrack	13.2	SCS215a	20111104.100350	20111104.101004	8	0.013327	60	10	60-180	60	157	GapExp	Blank	0	60	2	1	0	distractor	1	736	632	198243	13.372	10.422	21.299
ProbeTrack13	9	ProbeTrack	13.2	SCS215a	20111104.100350	20111104.101011	8	0.013327	60	10	60-180	60	165	GapExp	Blank	0	61	2	0	1	target	1	475	763	199006	13.328	10.720	16.124
ProbeTrack13	9	ProbeTrack	13.2	SCS215a	20111104.100350	20111104.101018	8	0.013327	60	10	60-180	60	161	GapExp	Blank	0	62	2	45	1	target	1	459	771	199777	13.328	10.168	16.496
ProbeTrack13	9	ProbeTrack	13.2	SCS215a	20111104.100350	20111104.101025	8	0.013327	60	10	60-180	60	64	GapExp	Blank	0	63	2	0	0	distractor	1	632	684	200461	13.328	11.769	14.884
ProbeTrack13	9	ProbeTrack	13.2	SCS215a	20111104.100350	20111104.101030	8	0.013327	60	10	60-180	60	165	GapExp	Blank	0	64	2	3	1	target	1	792	604	201065	13.328	13.307	13.346
ProbeTrack13	9	ProbeTrack	13.2	SCS215a	20111104.100350	20111104.101037	8	0.013327	60	10	60-180	60	117	GapExp	Blank	0	65	2	1	1	target	1	425	788	201853	13.384	13.174	24.343
ProbeTrack13	9	ProbeTrack	13.2	SCS215a	20111104.100350	20111104.101043	8	0.013327	60	10	60-180	60	164	GapExp	Blank	0	66	2	1	0	early	-4	-3369	-1000	200853	13.328	7.927	18.729
ProbeTrack13	9	ProbeTrack	13.2	SCS215a	20111104.100350	20111104.101050	8	0.013327	60	10	60-180	60	87	GapExp	Blank	0	67	2	0	0	distractor	1	540	730	201583	13.328	13.105	13.558
ProbeTrack13	9	ProbeTrack	13.2	SCS215a	20111104.100350	20111104.101056	8	0.013327	60	10	60-180	60	148	GapExp	Blank	0	68	2	45	1	target	1	585	708	202291	13.328	5.947	20.699
ProbeTrack13	9	ProbeTrack	13.2	SCS215a	20111104.100350	20111104.101103	8	0.013327	60	10	60-180	60	150	GapExp	Blank	0	69	2	3	0	distractor	1	615	693	202984	13.328	10.069	16.589
ProbeTrack13	9	ProbeTrack	13.2	SCS215a	20111104.100350	20111104.101109	8	0.013327	60	10	60-180	60	178	GapExp	Blank	0	70	2	1	1	distractor	0	472	-1000	201984	13.328	11.279	15.386
ProbeTrack13	9	ProbeTrack	13.2	SCS215a	20111104.100350	20111104.101117	8	0.013327	60	10	60-180	60	71	GapExp	Blank	0	71	2	0	1	target	1	381	810	202794	13.328	12.731	13.926
ProbeTrack13	9	ProbeTrack	13.2	SCS215a	20111104.100350	20111104.101122	8	0.013327	60	10	60-180	60	161	GapExp	Blank	0	72	2	1	0	target	0	382	-1000	201794	13.328	11.823	14.846
ProbeTrack13	9	ProbeTrack	13.2	SCS215a	20111104.100350	20111104.101128	8	0.013327	60	10	60-180	60	153	GapExp	Blank	0	73	2	0	1	target	1	457	772	202566	13.328	7.910	18.740
ProbeTrack13	9	ProbeTrack	13.2	SCS215a	20111104.100350	20111104.101135	8	0.013327	60	10	60-180	60	170	GapExp	Blank	0	74	2	45	0	distractor	1	623	689	203255	13.328	6.593	20.077
ProbeTrack13	9	ProbeTrack	13.2	SCS215a	20111104.100350	20111104.101142	8	0.013327	60	10	60-180	60	177	GapExp	Blank	0	75	2	1	0	distractor	1	615	693	203948	13.328	3.758	22.895
ProbeTrack13	9	ProbeTrack	13.2	SCS215a	20111104.100350	20111104.101149	8	0.013327	60	10	60-180	60	93	GapExp	Blank	0	76	2	3	1	target	1	422	789	204737	13.328	11.952	14.709
ProbeTrack13	9	ProbeTrack	13.2	SCS215a	20111104.100350	20111104.101155	8	0.013327	60	10	60-180	60	165	GapExp	Blank	0	77	2	3	1	target	1	355	823	205560	13.328	12.355	14.313
ProbeTrack13	9	ProbeTrack	13.2	SCS215a	20111104.100350	20111104.101201	8	0.013327	60	10	60-180	60	103	GapExp	Blank	0	78	2	3	0	distractor	1	638	681	206241	13.328	12.969	13.701
ProbeTrack13	9	ProbeTrack	13.2	SCS215a	20111104.100350	20111104.101207	8	0.013327	60	10	60-180	60	162	GapExp	Blank	0	79	2	45	0	target	0	546	-1000	205241	13.328	13.119	13.551
ProbeTrack13	9	ProbeTrack	13.2	SCS215a	20111104.100350	20111104.101214	8	0.013327	60	10	60-180	60	142	GapExp	Blank	0	80	2	45	1	target	1	530	735	205976	13.328	13.100	13.532
ProbeTrack13	9	ProbeTrack	13.2	SCS215a	20111104.100350	20111104.101221	8	0.013327	60	10	60-180	60	166	GapExp	Blank	0	81	2	3	0	distractor	1	553	724	206700	13.328	12.923	13.731
ProbeTrack13	9	ProbeTrack	13.2	SCS215a	20111104.100350	20111104.101228	8	0.013327	60	10	60-180	60	83	GapExp	Blank	0	82	2	1	1	target	1	529	736	207436	13.328	11.911	14.730
ProbeTrack13	9	ProbeTrack	13.2	SCS215a	20111104.100350	20111104.101233	8	0.013327	60	10	60-180	60	94	GapExp	Blank	0	83	2	45	0	distractor	1	570	715	208151	13.328	13.113	13.558
ProbeTrack13	9	ProbeTrack	13.2	SCS215a	20111104.100350	20111104.101239	8	0.013327	60	10	60-180	60	170	GapExp	Blank	0	84	2	0	1	target	1	538	731	208882	13.328	11.098	15.560
ProbeTrack13	9	ProbeTrack	13.2	SCS215a	20111104.100350	20111104.101246	8	0.013327	60	10	60-180	60	78	GapExp	Blank	0	85	2	1	0	distractor	1	591	705	209587	13.328	13.308	13.347
ProbeTrack13	9	ProbeTrack	13.2	SCS215a	20111104.100350	20111104.101252	8	0.013327	60	10	60-180	60	68	GapExp	Blank	0	86	2	3	1	target	1	411	795	210382	13.328	12.304	14.360
ProbeTrack13	9	ProbeTrack	13.2	SCS215a	20111104.100350	20111104.101257	8	0.013327	60	10	60-180	60	149	GapExp	Blank	0	87	2	3	0	distractor	1	522	739	211121	13.328	13.299	13.353
ProbeTrack13	9	ProbeTrack	13.2	SCS215a	20111104.100350	20111104.101304	8	0.013327	60	10	60-180	60	105	GapExp	Blank	0	88	2	3	1	target	1	394	803	211924	13.328	13.092	13.565
ProbeTrack13	9	ProbeTrack	13.2	SCS215a	20111104.100350	20111104.101309	8	0.013327	60	10	60-180	60	74	GapExp	Blank	0	89	2	3	0	distractor	1	726	637	212561	13.328	13.099	13.565
ProbeTrack13	9	ProbeTrack	13.2	SCS215a	20111104.100350	20111104.101315	8	0.013327	60	10	60-180	60	147	GapExp	Blank	0	90	2	3	1	target	1	419	791	213352	13.328	12.571	14.086
ProbeTrack13	9	ProbeTrack	13.2	SCS215a	20111104.100350	20111104.101321	8	0.013327	60	10	60-180	60	62	GapExp	Blank	0	91	2	45	1	target	1	461	770	214122	13.328	12.108	14.547
ProbeTrack13	9	ProbeTrack	13.2	SCS215a	20111104.100350	20111104.101327	8	0.013327	60	10	60-180	60	64	GapExp	Blank	0	92	2	1	0	distractor	1	622	689	214811	13.328	13.303	13.348
ProbeTrack13	9	ProbeTrack	13.2	SCS215a	20111104.100350	20111104.101332	8	0.013327	60	10	60-180	60	165	GapExp	Blank	0	93	2	1	1	target	1	521	740	215551	13.328	11.780	14.875
ProbeTrack13	9	ProbeTrack	13.2	SCS215a	20111104.100350	20111104.101339	8	0.013327	60	10	60-180	60	177	GapExp	Blank	0	94	2	3	1	target	1	351	825	216376	13.328	4.788	21.860
ProbeTrack13	9	ProbeTrack	13.2	SCS215a	20111104.100350	20111104.101345	8	0.013327	60	10	60-180	60	90	GapExp	Blank	0	95	2	0	0	distractor	1	634	683	217059	13.328	10.400	16.237
ProbeTrack13	9	ProbeTrack	13.2	SCS215a	20111104.100350	20111104.101351	8	0.013327	60	10	60-180	60	171	GapExp	Blank	0	96	2	1	0	distractor	1	565	718	217777	13.328	13.110	13.557
ProbeTrack13	9	ProbeTrack	13.2	SCS215a	20111104.100350	20111104.101358	8	0.013327	60	10	60-180	60	88	GapExp	Blank	0	97	2	1	1	target	1	462	769	218546	13.328	13.101	13.557
ProbeTrack13	9	ProbeTrack	13.2	SCS215a	20111104.100350	20111104.101403	8	0.013327	60	10	60-180	60	112	GapExp	Blank	0	98	2	45	0	distractor	1	611	695	219241	13.328	12.362	14.289
ProbeTrack13	9	ProbeTrack	13.2	SCS215a	20111104.100350	20111104.101410	8	0.013327	60	10	60-180	60	64	GapExp	Blank	0	99	2	0	0	distractor	1	458	771	220012	13.328	12.704	13.964
ProbeTrack13	9	ProbeTrack	13.2	SCS215a	20111104.100350	20111104.101416	8	0.013327	60	10	60-180	60	85	GapExp	Blank	0	100	2	3	1	target	1	484	758	220770	13.328	7.173	19.490
ProbeTrack13	9	ProbeTrack	13.2	SCS215a	20111104.100350	20111104.101421	8	0.013327	60	10	60-180	60	70	GapExp	Blank	0	101	2	0	0	distractor	1	575	713	221483	13.328	13.231	13.426
ProbeTrack13	9	ProbeTrack	13.2	SCS215a	20111104.100350	20111104.101426	8	0.013327	60	10	60-180	60	79	GapExp	Blank	0	102	2	45	0	target	0	521	-1000	220483	13.328	13.115	13.551
ProbeTrack13	9	ProbeTrack	13.2	SCS215a	20111104.100350	20111104.101433	8	0.013327	60	10	60-180	60	149	GapExp	Blank	0	103	2	0	0	distractor	1	452	774	221257	13.328	13.101	13.557
ProbeTrack13	9	ProbeTrack	13.2	SCS215a	20111104.100350	20111104.101440	8	0.013327	60	10	60-180	60	133	GapExp	Blank	0	104	2	0	0	target	0	891	-1000	220257	13.328	12.674	13.975
ProbeTrack13	9	ProbeTrack	13.2	SCS215a	20111104.100350	20111104.101446	8	0.013327	60	10	60-180	60	109	GapExp	Blank	0	105	2	45	0	distractor	1	716	642	220899	13.328	13.107	13.562
ProbeTrack13	9	ProbeTrack	13.2	SCS215a	20111104.100350	20111104.101453	8	0.013327	60	10	60-180	60	162	GapExp	Blank	0	106	2	0	1	target	1	364	818	221717	13.328	13.112	13.557
ProbeTrack13	9	ProbeTrack	13.2	SCS215a	20111104.100350	20111104.101459	8	0.013327	60	10	60-180	60	83	GapExp	Blank	0	107	2	45	0	target	0	873	-1000	220717	13.328	9.011	17.638
ProbeTrack13	9	ProbeTrack	13.2	SCS215a	20111104.100350	20111104.101506	8	0.013327	60	10	60-180	60	161	GapExp	Blank	0	108	2	0	0	distractor	1	668	666	221383	13.328	7.317	19.325
ProbeTrack13	9	ProbeTrack	13.2	SCS215a	20111104.100350	20111104.101513	8	0.013327	60	10	60-180	60	83	GapExp	Blank	0	109	2	0	1	target	1	683	659	222042	13.328	13.310	13.349
ProbeTrack13	9	ProbeTrack	13.2	SCS215a	20111104.100350	20111104.101518	8	0.013327	60	10	60-180	60	130	GapExp	Blank	0	110	2	3	0	distractor	1	709	646	222688	13.328	10.143	16.515
ProbeTrack13	9	ProbeTrack	13.2	SCS215a	20111104.100350	20111104.101525	8	0.013327	60	10	60-180	60	94	GapExp	Blank	0	111	2	45	1	target	1	366	817	223505	13.328	13.258	13.406
ProbeTrack13	9	ProbeTrack	13.2	SCS215a	20111104.100350	20111104.101532	8	0.013327	60	10	60-180	60	82	GapExp	Blank	0	112	2	3	1	target	1	401	800	224305	13.328	13.247	13.421
ProbeTrack13	9	ProbeTrack	13.2	SCS215a	20111104.100350	20111104.101538	8	0.013327	60	10	60-180	60	91	GapExp	Blank	0	113	2	45	1	target	1	378	811	225116	13.328	7.095	19.556
ProbeTrack13	9	ProbeTrack	13.2	SCS215a	20111104.100350	20111104.101543	8	0.013327	60	10	60-180	60	118	GapExp	Blank	0	114	2	1	0	distractor	1	554	723	225839	13.328	13.296	13.347
ProbeTrack13	9	ProbeTrack	13.2	SCS215a	20111104.100350	20111104.101549	8	0.013327	60	10	60-180	60	93	GapExp	Blank	0	115	2	3	1	target	1	976	512	226351	13.328	13.086	13.558
ProbeTrack13	9	ProbeTrack	13.2	SCS215a	20111104.100350	20111104.101557	8	0.013327	60	10	60-180	60	90	GapExp	Blank	0	116	2	1	0	target	0	714	-1000	225351	13.328	11.984	14.665
ProbeTrack13	9	ProbeTrack	13.2	SCS215a	20111104.100350	20111104.101602	8	0.013327	60	10	60-180	60	158	GapExp	Blank	0	117	2	45	0	target	0	368	-1000	224351	13.328	12.382	14.270
ProbeTrack13	9	ProbeTrack	13.2	SCS215a	20111104.100350	20111104.101610	8	0.013327	60	10	60-180	60	97	GapExp	Blank	0	118	2	1	0	distractor	1	629	686	225037	13.328	10.679	15.995
ProbeTrack13	9	ProbeTrack	13.2	SCS215a	20111104.100350	20111104.101616	8	0.013327	60	10	60-180	60	162	GapExp	Blank	0	119	2	3	1	target	1	529	736	225773	13.328	4.220	22.435
ProbeTrack13	9	ProbeTrack	13.2	SCS215a	20111104.100350	20111104.101622	8	0.013327	60	10	60-180	60	172	GapExp	Blank	0	120	2	45	1	distractor	0	540	-1000	224773	13.328	13.309	13.348
ProbeTrack13	9	ProbeTrack	13.2	SCS215a	20111104.100350	20111104.101629	8	0.013327	60	10	60-180	60	117	GapExp	Blank	0	121	2	0	0	distractor	1	724	638	225411	13.328	13.309	13.348
ProbeTrack13	9	ProbeTrack	13.2	SCS215a	20111104.100350	20111104.101635	8	0.013327	60	10	60-180	60	154	GapExp	Blank	0	122	2	3	1	target	1	351	825	226236	13.328	13.308	13.347
ProbeTrack13	9	ProbeTrack	13.2	SCS215a	20111104.100350	20111104.101642	8	0.013327	60	10	60-180	60	108	GapExp	Blank	0	123	2	3	1	target	1	396	802	227038	13.328	10.962	15.708
ProbeTrack13	9	ProbeTrack	13.2	SCS215a	20111104.100350	20111104.101648	8	0.013327	60	10	60-180	60	172	GapExp	Blank	0	124	2	3	1	target	1	429	786	227824	13.328	10.368	16.273
ProbeTrack13	9	ProbeTrack	13.2	SCS215a	20111104.100350	20111104.101654	8	0.013327	60	10	60-180	60	156	GapExp	Blank	0	125	2	1	1	target	1	427	787	228611	13.328	12.889	13.771
ProbeTrack13	9	ProbeTrack	13.2	SCS215a	20111104.100350	20111104.101700	8	0.013327	60	10	60-180	60	68	GapExp	Blank	0	126	2	0	1	target	1	616	692	229303	13.328	11.685	14.965
ProbeTrack13	9	ProbeTrack	13.2	SCS215a	20111104.100350	20111104.101705	8	0.013327	60	10	60-180	60	91	GapExp	Blank	0	127	2	1	0	distractor	1	628	686	229989	13.328	12.247	14.410
ProbeTrack13	9	ProbeTrack	13.2	SCS215a	20111104.100350	20111104.101711	8	0.013327	60	10	60-180	60	85	GapExp	Blank	0	128	2	45	0	distractor	1	557	722	230711	13.328	13.307	13.347
ProbeTrack13	9	ProbeTrack	13.2	SCS215a	20111104.100350	20111104.101717	8	0.013327	60	10	60-180	60	81	GapExp	Blank	0	129	2	45	0	distractor	1	561	720	231431	13.328	13.298	13.345
ProbeTrack13	9	ProbeTrack	13.2	SCS215a	20111104.100350	20111104.101723	8	0.013327	60	10	60-180	60	104	GapExp	Blank	0	130	2	3	0	target	0	550	-1000	230431	13.328	13.307	13.344
ProbeTrack13	9	ProbeTrack	13.2	SCS215a	20111104.100350	20111104.101729	8	0.013327	60	10	60-180	60	158	GapExp	Blank	0	131	2	0	0	early	-4	-3584	-1000	229431	13.328	13.106	13.544
ProbeTrack13	9	ProbeTrack	13.2	SCS215a	20111104.100350	20111104.101735	8	0.013327	60	10	60-180	60	105	GapExp	Blank	0	132	2	0	0	distractor	1	696	652	230083	13.328	13.101	13.541
ProbeTrack13	9	ProbeTrack	13.2	SCS215a	20111104.100350	20111104.101741	8	0.013327	60	10	60-180	60	166	GapExp	Blank	0	133	2	0	1	distractor	0	636	-1000	229083	13.328	10.122	16.528
ProbeTrack13	9	ProbeTrack	13.2	SCS215a	20111104.100350	20111104.101748	8	0.013327	60	10	60-180	60	126	GapExp	Blank	0	134	2	0	1	target	1	438	781	229864	13.328	12.479	14.165
ProbeTrack13	9	ProbeTrack	13.2	SCS215a	20111104.100350	20111104.101754	8	0.013327	60	10	60-180	60	148	GapExp	Blank	0	135	2	0	1	target	1	408	796	230660	13.328	13.298	13.347
ProbeTrack13	9	ProbeTrack	13.2	SCS215a	20111104.100350	20111104.101800	8	0.013327	60	10	60-180	60	130	GapExp	Blank	0	136	2	3	0	target	0	819	-1000	229660	13.328	13.303	13.353
ProbeTrack13	9	ProbeTrack	13.2	SCS215a	20111104.100350	20111104.101806	8	0.013327	60	10	60-180	60	110	GapExp	Blank	0	137	2	0	1	target	1	452	774	230434	13.328	10.728	15.928
ProbeTrack13	9	ProbeTrack	13.2	SCS215a	20111104.100350	20111104.101812	8	0.013327	60	10	60-180	60	141	GapExp	Blank	0	138	2	1	1	target	1	410	795	231229	13.328	12.100	14.550
ProbeTrack13	9	ProbeTrack	13.2	SCS215a	20111104.100350	20111104.101819	8	0.013327	60	10	60-180	60	101	GapExp	Blank	0	139	2	1	0	distractor	1	711	645	231874	13.328	13.111	13.558
ProbeTrack13	9	ProbeTrack	13.2	SCS215a	20111104.100350	20111104.101824	8	0.013327	60	10	60-180	60	81	GapExp	Blank	0	140	2	3	1	target	1	463	769	232643	13.328	12.763	13.898
ProbeTrack13	9	ProbeTrack	13.2	SCS215a	20111104.100350	20111104.101830	8	0.013327	60	10	60-180	60	179	GapExp	Blank	0	141	2	45	1	target	1	505	748	233391	13.328	13.306	13.348
ProbeTrack13	9	ProbeTrack	13.2	SCS215a	20111104.100350	20111104.101838	8	0.013327	60	10	60-180	60	158	GapExp	Blank	0	142	2	0	1	target	1	474	763	234154	13.328	13.099	13.547
ProbeTrack13	9	ProbeTrack	13.2	SCS215a	20111104.100350	20111104.101844	8	0.013327	60	10	60-180	60	152	GapExp	Blank	0	143	2	3	1	target	1	367	817	234971	13.328	12.878	13.777
ProbeTrack13	9	ProbeTrack	13.2	SCS215a	20111104.100350	20111104.101851	8	0.013327	60	10	60-180	60	126	GapExp	Blank	0	144	2	0	0	distractor	1	679	661	235632	13.378	9.803	23.263
ProbeTrack13	9	ProbeTrack	13.2	SCS215a	20111104.100350	20111104.101857	8	0.013327	60	10	60-180	60	108	GapExp	Blank	0	145	2	45	1	distractor	0	609	-1000	234632	13.375	13.272	22.005
ProbeTrack13	9	ProbeTrack	13.2	SCS215a	20111104.100350	20111104.101904	8	0.013327	60	10	60-180	60	68	GapExp	Blank	0	146	2	45	1	target	1	426	787	235419	13.328	13.180	13.489
ProbeTrack13	9	ProbeTrack	13.2	SCS215a	20111104.100350	20111104.101909	8	0.013327	60	10	60-180	60	66	GapExp	Blank	0	147	2	0	0	distractor	1	607	697	236116	13.328	13.290	13.348
ProbeTrack13	9	ProbeTrack	13.2	SCS215a	20111104.100350	20111104.101915	8	0.013327	60	10	60-180	60	157	GapExp	Blank	0	148	2	0	1	target	1	419	791	236907	13.328	10.933	15.724
ProbeTrack13	9	ProbeTrack	13.2	SCS215a	20111104.100350	20111104.101922	8	0.013327	60	10	60-180	60	143	GapExp	Blank	0	149	2	3	0	early	-4	-2735	-1000	235907	13.327	6.804	19.850
ProbeTrack13	9	ProbeTrack	13.2	SCS215a	20111104.100350	20111104.101929	8	0.013327	60	10	60-180	60	151	GapExp	Blank	0	150	2	3	0	distractor	1	600	700	236607	13.328	3.551	23.109
ProbeTrack13	9	ProbeTrack	13.2	SCS215a	20111104.100350	20111104.101935	8	0.013327	60	10	60-180	60	95	GapExp	Blank	0	151	2	3	0	early	-4	-2734	-1000	235607	13.328	13.115	13.548
ProbeTrack13	9	ProbeTrack	13.2	SCS215a	20111104.100350	20111104.101941	8	0.013327	60	10	60-180	60	172	GapExp	Blank	0	152	2	45	1	target	1	460	770	236377	13.367	13.048	23.195
ProbeTrack13	9	ProbeTrack	13.2	SCS215a	20111104.100350	20111104.101949	8	0.013327	60	10	60-180	60	168	GapExp	Blank	0	153	2	3	1	target	1	533	734	237111	13.373	8.081	23.145
ProbeTrack13	9	ProbeTrack	13.2	SCS215a	20111104.100350	20111104.101956	8	0.013327	60	10	60-180	60	68	GapExp	Blank	0	154	2	1	1	target	1	486	757	237868	13.328	13.084	13.571
ProbeTrack13	9	ProbeTrack	13.2	SCS215a	20111104.100350	20111104.102001	8	0.013327	60	10	60-180	60	87	GapExp	Blank	0	155	2	0	1	target	1	440	780	238648	13.392	12.712	20.128
ProbeTrack13	9	ProbeTrack	13.2	SCS215a	20111104.100350	20111104.102006	8	0.013327	60	10	60-180	60	177	GapExp	Blank	0	156	2	45	0	target	0	818	-1000	237648	13.400	13.033	33.347
ProbeTrack13	9	ProbeTrack	13.2	SCS215a	20111104.100350	20111104.102014	8	0.013327	60	10	60-180	60	84	GapExp	Blank	0	157	2	3	1	target	1	511	745	238393	13.328	13.307	13.348
ProbeTrack13	9	ProbeTrack	13.2	SCS215a	20111104.100350	20111104.102020	8	0.013327	60	10	60-180	60	131	GapExp	Blank	0	158	2	45	0	distractor	1	670	665	239058	13.328	13.180	13.481
ProbeTrack13	9	ProbeTrack	13.2	SCS215a	20111104.100350	20111104.102027	8	0.013327	60	10	60-180	60	81	GapExp	Blank	0	159	2	0	0	target	0	552	-1000	238058	13.328	13.294	13.349
ProbeTrack13	9	ProbeTrack	13.2	SCS215a	20111104.100350	20111104.102033	8	0.013327	60	10	60-180	60	101	GapExp	Blank	0	160	2	0	0	distractor	1	673	664	238722	13.328	12.174	14.486
ProbeTrack13	9	ProbeTrack	13.2	SCS215a	20111104.100350	20111104.102039	8	0.013327	60	10	60-180	60	90	GapExp	Blank	0	161	2	1	1	target	1	402	799	239521	13.328	13.106	13.543
ProbeTrack13	9	ProbeTrack	13.2	SCS215a	20111104.100350	20111104.102044	8	0.013327	60	10	60-180	60	104	GapExp	Blank	0	162	2	1	1	target	1	516	742	240263	13.328	12.808	13.797
ProbeTrack13	9	ProbeTrack	13.2	SCS215a	20111104.100350	20111104.102050	8	0.013327	60	10	60-180	60	161	GapExp	Blank	0	163	2	3	1	distractor	0	913	-1000	239263	13.328	12.930	13.731
ProbeTrack13	9	ProbeTrack	13.2	SCS215a	20111104.100350	20111104.102057	8	0.013327	60	10	60-180	60	105	GapExp	Blank	0	164	2	0	1	target	1	460	770	240033	13.328	13.297	13.359
ProbeTrack13	9	ProbeTrack	13.2	SCS215a	20111104.100350	20111104.102103	8	0.013327	60	10	60-180	60	177	GapExp	Blank	0	165	2	1	1	target	1	423	789	240822	13.373	13.233	22.781
ProbeTrack13	9	ProbeTrack	13.2	SCS215a	20111104.100350	20111104.102110	8	0.013327	60	10	60-180	60	113	GapExp	Blank	0	166	2	1	0	distractor	1	682	659	241481	13.328	13.311	13.344
ProbeTrack13	9	ProbeTrack	13.2	SCS215a	20111104.100350	20111104.102116	8	0.013327	60	10	60-180	60	113	GapExp	Blank	0	167	2	45	0	early	-4	-3851	-1000	240481	13.328	13.293	13.357
ProbeTrack13	9	ProbeTrack	13.2	SCS215a	20111104.100350	20111104.102122	8	0.013327	60	10	60-180	60	133	GapExp	Blank	0	168	2	45	0	distractor	1	583	709	241190	13.328	10.229	16.422
ProbeTrack13	9	ProbeTrack	13.2	SCS215a	20111104.100350	20111104.102129	8	0.013327	60	10	60-180	60	141	GapExp	Blank	0	169	2	0	1	target	1	424	788	241978	13.328	6.536	20.123
ProbeTrack13	9	ProbeTrack	13.2	SCS215a	20111104.100350	20111104.102136	8	0.013327	60	10	60-180	60	159	GapExp	Blank	0	170	2	3	0	distractor	1	476	762	242740	13.328	11.413	15.266
ProbeTrack13	9	ProbeTrack	13.2	SCS215a	20111104.100350	20111104.102142	8	0.013327	60	10	60-180	60	86	GapExp	Blank	0	171	2	3	0	early	-4	-2903	-1000	241740	13.328	6.991	19.677
ProbeTrack13	9	ProbeTrack	13.2	SCS215a	20111104.100350	20111104.102148	8	0.013327	60	10	60-180	60	104	GapExp	Blank	0	172	2	0	1	target	1	431	785	242525	13.328	13.107	13.557
ProbeTrack13	9	ProbeTrack	13.2	SCS215a	20111104.100350	20111104.102154	8	0.013327	60	10	60-180	60	86	GapExp	Blank	0	173	2	1	0	target	0	377	-1000	241525	13.328	8.763	17.882
ProbeTrack13	9	ProbeTrack	13.2	SCS215a	20111104.100350	20111104.102159	8	0.013327	60	10	60-180	60	75	GapExp	Blank	0	174	2	0	1	target	1	398	801	242326	13.398	10.205	25.622
ProbeTrack13	9	ProbeTrack	13.2	SCS215a	20111104.100350	20111104.102204	8	0.013327	60	10	60-180	60	176	GapExp	Blank	0	175	2	45	1	target	1	419	791	243117	13.328	13.188	13.469
ProbeTrack13	9	ProbeTrack	13.2	SCS215a	20111104.100350	20111104.102212	8	0.013327	60	10	60-180	60	86	GapExp	Blank	0	176	2	0	0	distractor	1	495	753	243870	13.328	13.309	13.348
ProbeTrack13	9	ProbeTrack	13.2	SCS215a	20111104.100350	20111104.102217	8	0.013327	60	10	60-180	60	163	GapExp	Blank	0	177	2	45	1	target	1	485	758	244628	13.328	3.983	22.687
ProbeTrack13	9	ProbeTrack	13.2	SCS215a	20111104.100350	20111104.102224	8	0.013327	60	10	60-180	60	83	GapExp	Blank	0	178	2	45	1	target	1	390	805	245433	13.328	11.606	15.044
ProbeTrack13	9	ProbeTrack	13.2	SCS215a	20111104.100350	20111104.102230	8	0.013327	60	10	60-180	60	83	GapExp	Blank	0	179	2	0	0	target	0	932	-1000	244433	13.328	4.759	21.896
ProbeTrack13	9	ProbeTrack	13.2	SCS215a	20111104.100350	20111104.102236	8	0.013327	60	10	60-180	60	82	GapExp	Blank	0	180	2	45	1	distractor	0	547	-1000	243433	13.328	13.095	13.548
ProbeTrack13	9	ProbeTrack	13.2	SCS215a	20111104.100350	20111104.102243	8	0.013327	60	10	60-180	60	107	GapExp	Blank	0	181	2	1	0	target	0	778	-1000	242433	13.328	9.596	17.067
ProbeTrack13	9	ProbeTrack	13.2	SCS215a	20111104.100350	20111104.102248	8	0.013327	60	10	60-180	60	108	GapExp	Blank	0	182	2	0	0	distractor	1	558	721	243154	13.328	9.516	17.126
ProbeTrack13	9	ProbeTrack	13.2	SCS215a	20111104.100350	20111104.102254	8	0.013327	60	10	60-180	60	156	GapExp	Blank	0	183	2	3	0	distractor	1	566	717	243871	13.328	10.532	16.165
ProbeTrack13	9	ProbeTrack	13.2	SCS215a	20111104.100350	20111104.102301	8	0.013327	60	10	60-180	60	119	GapExp	Blank	0	184	2	3	0	target	0	469	-1000	242871	13.437	13.306	26.489
ProbeTrack13	9	ProbeTrack	13.2	SCS215a	20111104.100350	20111104.102306	8	0.013327	60	10	60-180	60	111	GapExp	Blank	0	185	2	0	0	distractor	1	695	653	243524	13.328	12.796	13.858
ProbeTrack13	9	ProbeTrack	13.2	SCS215a	20111104.100350	20111104.102312	8	0.013327	60	10	60-180	60	149	GapExp	Blank	0	186	2	0	0	distractor	1	585	708	244232	13.328	13.105	13.545
ProbeTrack13	9	ProbeTrack	13.2	SCS215a	20111104.100350	20111104.102319	8	0.013327	60	10	60-180	60	120	GapExp	Blank	0	187	2	1	1	target	1	434	783	245015	13.383	13.093	26.575
ProbeTrack13	9	ProbeTrack	13.2	SCS215a	20111104.100350	20111104.102325	8	0.013327	60	10	60-180	60	94	GapExp	Blank	0	188	2	1	1	target	1	323	839	245854	13.328	9.561	17.101
ProbeTrack13	9	ProbeTrack	13.2	SCS215a	20111104.100350	20111104.102331	8	0.013327	60	10	60-180	60	104	GapExp	Blank	0	189	2	1	0	distractor	1	576	712	246566	13.328	8.120	18.548
ProbeTrack13	9	ProbeTrack	13.2	SCS215a	20111104.100350	20111104.102336	8	0.013327	60	10	60-180	60	141	GapExp	Blank	0	190	2	3	0	target	0	938	-1000	245566	13.374	11.669	28.308
ProbeTrack13	9	ProbeTrack	13.2	SCS215a	20111104.100350	20111104.102343	8	0.013327	60	10	60-180	60	124	GapExp	Blank	0	191	2	45	0	distractor	1	555	723	246289	13.328	8.156	18.492
ProbeTrack13	9	ProbeTrack	13.2	SCS215a	20111104.100350	20111104.102350	8	0.013327	60	10	60-180	60	83	GapExp	Blank	0	192	2	45	1	target	1	614	693	246982	13.328	13.301	13.356
ProbeTrack13	9	ProbeTrack	13.2	SCS215a	20111104.100350	20111104.102357	8	0.013327	60	10	60-180	60	84	GapExp	Blank	0	193	2	1	0	distractor	1	711	645	247627	13.328	13.060	13.622
ProbeTrack13	9	ProbeTrack	13.2	SCS215a	20111104.100350	20111104.102406	8	0.013327	60	10	60-180	60	179	GapExp	Blank	0	194	2	45	1	target	1	393	804	248431	13.328	5.399	21.287
ProbeTrack13	9	ProbeTrack	13.2	SCS215a	20111104.100350	20111104.102414	8	0.013327	60	10	60-180	60	112	GapExp	Blank	0	195	2	1	0	distractor	1	655	673	249104	13.381	13.097	21.971
ProbeTrack13	9	ProbeTrack	13.2	SCS215a	20111104.100350	20111104.102419	8	0.013327	60	10	60-180	60	94	GapExp	Blank	0	196	2	45	0	target	0	727	-1000	248104	13.375	7.438	22.195
ProbeTrack13	9	ProbeTrack	13.2	SCS215a	20111104.100350	20111104.102426	8	0.013327	60	10	60-180	60	130	GapExp	Blank	0	197	2	3	0	distractor	1	502	749	248853	13.380	9.683	21.045
ProbeTrack13	9	ProbeTrack	13.2	SCS215a	20111104.100350	20111104.102432	8	0.013327	60	10	60-180	60	80	GapExp	Blank	0	198	2	1	1	target	1	450	775	249628	13.328	11.310	15.359
ProbeTrack13	9	ProbeTrack	13.2	SCS215a	20111104.100350	20111104.102438	8	0.013327	60	10	60-180	60	138	GapExp	Blank	0	199	2	0	0	target	0	486	-1000	248628	13.328	4.757	21.899
ProbeTrack13	9	ProbeTrack	13.2	SCS215a	20111104.100350	20111104.102444	8	0.013327	60	10	60-180	60	145	GapExp	Blank	0	200	2	1	1	target	1	435	783	249411	13.328	9.795	16.868
ProbeTrack13	9	ProbeTrack	13.2	SCS215a	20111104.102544	20111104.102548	8	0.013320	60	10	60-180	60	77	GapPrac	BigFlash	1	1	2	1	0	distractor	1	683	659	250070	13.389	4.792	21.865
ProbeTrack13	9	ProbeTrack	13.2	SCS215a	20111104.102544	20111104.102555	8	0.013320	60	10	60-180	60	118	GapPrac	BigFlash	1	2	2	3	0	distractor	1	530	735	250805	13.382	13.171	20.318
ProbeTrack13	9	ProbeTrack	13.2	SCS215a	20111104.102544	20111104.102601	8	0.013320	60	10	60-180	60	125	GapPrac	BigFlash	1	3	2	3	1	target	1	427	787	251592	13.328	11.994	14.674
ProbeTrack13	9	ProbeTrack	13.2	SCS215a	20111104.102544	20111104.102607	8	0.013320	60	10	60-180	60	168	GapPrac	BigFlash	1	4	2	0	1	target	1	405	798	252390	13.328	13.094	13.558
ProbeTrack13	9	ProbeTrack	13.2	SCS215a	20111104.102544	20111104.102613	8	0.013320	60	10	60-180	60	167	GapPrac	BigFlash	1	5	2	45	1	target	1	482	759	253149	13.368	13.077	23.892
ProbeTrack13	9	ProbeTrack	13.2	SCS215a	20111104.102544	20111104.102621	8	0.013320	60	10	60-180	60	142	GapPrac	BigFlash	1	6	2	1	0	distractor	1	525	738	253887	13.328	13.306	13.346
ProbeTrack13	9	ProbeTrack	13.2	SCS215a	20111104.102544	20111104.102627	8	0.013320	60	10	60-180	60	119	GapPrac	BigFlash	1	7	2	3	0	distractor	1	668	666	254553	13.328	7.498	19.161
ProbeTrack13	9	ProbeTrack	13.2	SCS215a	20111104.102544	20111104.102633	8	0.013320	60	10	60-180	60	70	GapPrac	BigFlash	1	8	2	45	0	distractor	1	566	717	255270	13.328	13.085	13.550
ProbeTrack13	9	ProbeTrack	13.2	SCS215a	20111104.102544	20111104.102639	8	0.013320	60	10	60-180	60	120	GapPrac	BigFlash	1	9	2	3	1	target	1	546	727	255997	13.328	13.303	13.347
ProbeTrack13	9	ProbeTrack	13.2	SCS215a	20111104.102544	20111104.102645	8	0.013320	60	10	60-180	60	153	GapPrac	BigFlash	1	10	2	0	0	distractor	1	525	738	256735	13.375	10.145	23.889
ProbeTrack13	9	ProbeTrack	13.2	SCS215a	20111104.102544	20111104.102651	8	0.013320	60	10	60-180	60	97	GapPrac	BigFlash	1	11	2	1	1	target	1	552	724	257459	13.328	8.704	17.940
ProbeTrack13	9	ProbeTrack	13.2	SCS215a	20111104.102544	20111104.102658	8	0.013320	60	10	60-180	60	122	GapPrac	BigFlash	1	12	2	0	0	distractor	1	578	711	258170	13.328	9.209	17.472
ProbeTrack13	9	ProbeTrack	13.2	SCS215a	20111104.102544	20111104.102704	8	0.013320	60	10	60-180	60	73	GapPrac	BigFlash	1	13	2	0	1	target	1	469	766	258936	13.328	13.313	13.352
ProbeTrack13	9	ProbeTrack	13.2	SCS215a	20111104.102544	20111104.102709	8	0.013320	60	10	60-180	60	101	GapPrac	BigFlash	1	14	2	45	1	target	1	522	739	259675	13.328	13.098	13.558
ProbeTrack13	9	ProbeTrack	13.2	SCS215a	20111104.102544	20111104.102715	8	0.013320	60	10	60-180	60	68	GapPrac	BigFlash	1	15	2	1	1	target	1	382	809	260484	13.328	13.302	13.349
ProbeTrack13	9	ProbeTrack	13.2	SCS215a	20111104.102544	20111104.102720	8	0.013320	60	10	60-180	60	176	GapPrac	BigFlash	1	16	2	1	0	distractor	1	508	746	261230	13.328	13.305	13.356
ProbeTrack13	9	ProbeTrack	13.2	SCS215a	20111104.102544	20111104.102727	8	0.013320	60	10	60-180	60	172	GapPrac	BigFlash	1	17	2	3	0	distractor	1	537	732	261962	13.328	13.307	13.351
ProbeTrack13	9	ProbeTrack	13.2	SCS215a	20111104.102544	20111104.102734	8	0.013320	60	10	60-180	60	87	GapPrac	BigFlash	1	18	2	45	0	distractor	1	624	688	262650	13.328	11.000	15.844
ProbeTrack13	9	ProbeTrack	13.2	SCS215a	20111104.102544	20111104.102740	8	0.013320	60	10	60-180	60	171	GapPrac	BigFlash	1	19	2	0	1	target	1	550	725	263375	13.328	13.307	13.346
ProbeTrack13	9	ProbeTrack	13.2	SCS215a	20111104.102544	20111104.102747	8	0.013320	60	10	60-180	60	77	GapPrac	BigFlash	1	20	2	3	1	target	1	412	794	264169	13.328	13.313	13.344
ProbeTrack13	9	ProbeTrack	13.2	SCS215a	20111104.102823	20111104.102828	8	0.013328	60	10	60-180	60	93	GapExp	BigFlash	1	1	2	3	1	target	1	379	811	264980	13.391	13.308	13.347
ProbeTrack13	9	ProbeTrack	13.2	SCS215a	20111104.102823	20111104.102835	8	0.013328	60	10	60-180	60	111	GapExp	BigFlash	1	2	2	45	1	target	1	534	733	265713	13.328	4.104	22.547
ProbeTrack13	9	ProbeTrack	13.2	SCS215a	20111104.102823	20111104.102841	8	0.013328	60	10	60-180	60	71	GapExp	BigFlash	1	3	2	0	1	target	1	377	812	266525	13.328	12.796	13.853
ProbeTrack13	9	ProbeTrack	13.2	SCS215a	20111104.102823	20111104.102846	8	0.013328	60	10	60-180	60	141	GapExp	BigFlash	1	4	2	3	0	distractor	1	531	735	267260	13.328	10.582	16.079
ProbeTrack13	9	ProbeTrack	13.2	SCS215a	20111104.102823	20111104.102852	8	0.013328	60	10	60-180	60	112	GapExp	BigFlash	1	5	2	0	0	distractor	1	474	763	268023	13.328	12.180	14.475
ProbeTrack13	9	ProbeTrack	13.2	SCS215a	20111104.102823	20111104.102858	8	0.013328	60	10	60-180	60	131	GapExp	BigFlash	1	6	2	1	0	early	-4	-3313	-1000	267023	13.328	11.732	14.937
ProbeTrack13	9	ProbeTrack	13.2	SCS215a	20111104.102823	20111104.102904	8	0.013328	60	10	60-180	60	146	GapExp	BigFlash	1	7	2	1	1	target	1	357	822	267845	13.328	13.309	13.345
ProbeTrack13	9	ProbeTrack	13.2	SCS215a	20111104.102823	20111104.102911	8	0.013328	60	10	60-180	60	154	GapExp	BigFlash	1	8	2	45	0	distractor	1	650	675	268520	13.328	11.168	15.489
ProbeTrack13	9	ProbeTrack	13.2	SCS215a	20111104.102823	20111104.102918	8	0.013328	60	10	60-180	60	145	GapExp	BigFlash	0	9	2	1	0	distractor	1	529	736	269256	13.328	13.307	13.346
ProbeTrack13	9	ProbeTrack	13.2	SCS215a	20111104.102823	20111104.102924	8	0.013328	60	10	60-180	60	154	GapExp	BigFlash	0	10	2	1	0	distractor	1	485	758	270014	13.328	9.033	17.623
ProbeTrack13	9	ProbeTrack	13.2	SCS215a	20111104.102823	20111104.102931	8	0.013328	60	10	60-180	60	153	GapExp	BigFlash	0	11	2	0	1	target	1	607	697	270711	13.328	13.093	13.551
ProbeTrack13	9	ProbeTrack	13.2	SCS215a	20111104.102823	20111104.102937	8	0.013328	60	10	60-180	60	84	GapExp	BigFlash	0	12	2	3	1	target	1	444	778	271489	13.328	6.509	20.151
ProbeTrack13	9	ProbeTrack	13.2	SCS215a	20111104.102823	20111104.102943	8	0.013328	60	10	60-180	60	160	GapExp	BigFlash	0	13	2	45	0	distractor	1	609	696	272185	13.328	13.298	13.373
ProbeTrack13	9	ProbeTrack	13.2	SCS215a	20111104.102823	20111104.102950	8	0.013328	60	10	60-180	60	69	GapExp	BigFlash	0	14	2	3	1	target	1	453	774	272959	13.328	12.924	13.731
ProbeTrack13	9	ProbeTrack	13.2	SCS215a	20111104.102823	20111104.102955	8	0.013328	60	10	60-180	60	146	GapExp	BigFlash	0	15	2	0	0	distractor	1	943	529	273488	13.328	9.922	16.734
ProbeTrack13	9	ProbeTrack	13.2	SCS215a	20111104.102823	20111104.103002	8	0.013328	60	10	60-180	60	107	GapExp	BigFlash	0	16	2	1	1	target	1	427	787	274275	13.328	11.250	15.413
ProbeTrack13	9	ProbeTrack	13.2	SCS215a	20111104.102823	20111104.103008	8	0.013328	60	10	60-180	60	79	GapExp	BigFlash	0	17	2	0	1	target	1	339	831	275106	13.328	5.710	20.944
ProbeTrack13	9	ProbeTrack	13.2	SCS215a	20111104.102823	20111104.103013	8	0.013328	60	10	60-180	60	162	GapExp	BigFlash	0	18	2	1	0	target	0	594	-1000	274106	13.328	13.310	13.350
ProbeTrack13	9	ProbeTrack	13.2	SCS215a	20111104.102823	20111104.103020	8	0.013328	60	10	60-180	60	176	GapExp	BigFlash	0	19	2	0	1	target	1	410	795	274901	13.373	13.268	26.500
ProbeTrack13	9	ProbeTrack	13.2	SCS215a	20111104.102823	20111104.103027	8	0.013328	60	10	60-180	60	129	GapExp	BigFlash	0	20	2	0	1	target	1	447	777	275678	13.328	13.107	13.555
ProbeTrack13	9	ProbeTrack	13.2	SCS215a	20111104.102823	20111104.103033	8	0.013328	60	10	60-180	60	111	GapExp	BigFlash	0	21	2	3	1	target	1	346	827	276505	13.328	7.225	19.424
ProbeTrack13	9	ProbeTrack	13.2	SCS215a	20111104.102823	20111104.103038	8	0.013328	60	10	60-180	60	143	GapExp	BigFlash	0	22	2	1	1	target	1	418	791	277296	13.328	9.534	17.130
ProbeTrack13	9	ProbeTrack	13.2	SCS215a	20111104.102823	20111104.103045	8	0.013328	60	10	60-180	60	102	GapExp	BigFlash	0	23	2	0	1	target	1	344	828	278124	13.328	12.961	13.694
ProbeTrack13	9	ProbeTrack	13.2	SCS215a	20111104.102823	20111104.103051	8	0.013328	60	10	60-180	60	86	GapExp	BigFlash	0	24	2	1	0	distractor	1	651	675	278799	13.328	13.309	13.345
ProbeTrack13	9	ProbeTrack	13.2	SCS215a	20111104.102823	20111104.103056	8	0.013328	60	10	60-180	60	175	GapExp	BigFlash	0	25	2	45	1	target	1	572	714	279513	13.366	13.045	26.886
ProbeTrack13	9	ProbeTrack	13.2	SCS215a	20111104.102823	20111104.103103	8	0.013328	60	10	60-180	60	91	GapExp	BigFlash	0	26	2	3	0	distractor	1	634	683	280196	13.328	13.297	13.358
ProbeTrack13	9	ProbeTrack	13.2	SCS215a	20111104.102823	20111104.103109	8	0.013328	60	10	60-180	60	117	GapExp	BigFlash	0	27	2	3	0	distractor	1	534	733	280929	13.328	13.308	13.346
ProbeTrack13	9	ProbeTrack	13.2	SCS215a	20111104.102823	20111104.103116	8	0.013328	60	10	60-180	60	158	GapExp	BigFlash	0	28	2	3	1	target	1	444	778	281707	13.328	13.098	13.572
ProbeTrack13	9	ProbeTrack	13.2	SCS215a	20111104.102823	20111104.103122	8	0.013328	60	10	60-180	60	79	GapExp	BigFlash	0	29	2	45	0	distractor	1	747	627	282334	13.328	13.309	13.347
ProbeTrack13	9	ProbeTrack	13.2	SCS215a	20111104.102823	20111104.103128	8	0.013328	60	10	60-180	60	76	GapExp	BigFlash	0	30	2	3	0	distractor	1	643	679	283013	13.328	9.239	17.416
ProbeTrack13	9	ProbeTrack	13.2	SCS215a	20111104.102823	20111104.103133	8	0.013328	60	10	60-180	60	152	GapExp	BigFlash	0	31	2	3	0	distractor	1	506	747	283760	13.328	9.798	16.847
ProbeTrack13	9	ProbeTrack	13.2	SCS215a	20111104.102823	20111104.103140	8	0.013328	60	10	60-180	60	139	GapExp	BigFlash	0	32	2	3	0	distractor	1	503	749	284509	13.328	13.308	13.352
ProbeTrack13	9	ProbeTrack	13.2	SCS215a	20111104.102823	20111104.103146	8	0.013328	60	10	60-180	60	117	GapExp	BigFlash	0	33	2	45	0	distractor	1	629	686	285195	13.328	13.310	13.352
ProbeTrack13	9	ProbeTrack	13.2	SCS215a	20111104.102823	20111104.103153	8	0.013328	60	10	60-180	60	178	GapExp	BigFlash	0	34	2	3	1	target	1	464	768	285963	13.328	13.308	13.347
ProbeTrack13	9	ProbeTrack	13.2	SCS215a	20111104.102823	20111104.103159	8	0.013328	60	10	60-180	60	139	GapExp	BigFlash	0	35	2	1	0	distractor	1	662	669	286632	13.328	7.054	19.631
ProbeTrack13	9	ProbeTrack	13.2	SCS215a	20111104.102823	20111104.103206	8	0.013328	60	10	60-180	60	69	GapExp	BigFlash	0	36	2	45	1	target	1	358	821	287453	13.328	13.306	13.344
ProbeTrack13	9	ProbeTrack	13.2	SCS215a	20111104.102823	20111104.103211	8	0.013328	60	10	60-180	60	90	GapExp	BigFlash	0	37	2	1	1	target	1	389	806	288259	13.328	10.846	15.810
ProbeTrack13	9	ProbeTrack	13.2	SCS215a	20111104.102823	20111104.103217	8	0.013328	60	10	60-180	60	175	GapExp	BigFlash	0	38	2	1	1	target	1	442	779	289038	13.328	9.770	16.879
ProbeTrack13	9	ProbeTrack	13.2	SCS215a	20111104.102823	20111104.103224	8	0.013328	60	10	60-180	60	163	GapExp	BigFlash	0	39	2	0	1	target	1	350	825	289863	13.425	7.588	39.984
ProbeTrack13	9	ProbeTrack	13.2	SCS215a	20111104.102823	20111104.103230	8	0.013328	60	10	60-180	60	130	GapExp	BigFlash	0	40	2	1	0	distractor	1	617	692	290555	13.328	13.307	13.348
ProbeTrack13	9	ProbeTrack	13.2	SCS215a	20111104.102823	20111104.103236	8	0.013328	60	10	60-180	60	179	GapExp	BigFlash	0	41	2	0	0	distractor	1	526	737	291292	13.328	12.712	13.951
ProbeTrack13	9	ProbeTrack	13.2	SCS215a	20111104.102823	20111104.103243	8	0.013328	60	10	60-180	60	148	GapExp	BigFlash	0	42	2	1	0	target	0	511	-1000	290292	13.328	13.274	13.382
ProbeTrack13	9	ProbeTrack	13.2	SCS215a	20111104.102823	20111104.103250	8	0.013328	60	10	60-180	60	113	GapExp	BigFlash	0	43	2	3	0	distractor	1	585	708	291000	13.328	12.851	13.805
ProbeTrack13	9	ProbeTrack	13.2	SCS215a	20111104.102823	20111104.103256	8	0.013328	60	10	60-180	60	80	GapExp	BigFlash	0	44	2	1	0	distractor	1	607	697	291697	13.328	13.296	13.351
ProbeTrack13	9	ProbeTrack	13.2	SCS215a	20111104.102823	20111104.103301	8	0.013328	60	10	60-180	60	162	GapExp	BigFlash	0	45	2	1	1	target	1	431	785	292482	13.328	13.096	13.552
ProbeTrack13	9	ProbeTrack	13.2	SCS215a	20111104.102823	20111104.103307	8	0.013328	60	10	60-180	60	150	GapExp	BigFlash	0	46	2	3	0	distractor	1	510	745	293227	13.328	7.141	19.501
ProbeTrack13	9	ProbeTrack	13.2	SCS215a	20111104.102823	20111104.103314	8	0.013328	60	10	60-180	60	142	GapExp	BigFlash	0	47	2	45	0	distractor	1	673	664	293891	13.328	9.978	16.678
ProbeTrack13	9	ProbeTrack	13.2	SCS215a	20111104.102823	20111104.103321	8	0.013328	60	10	60-180	60	74	GapExp	BigFlash	0	48	2	1	1	target	1	491	755	294646	13.328	13.070	13.574
ProbeTrack13	9	ProbeTrack	13.2	SCS215a	20111104.102823	20111104.103326	8	0.013328	60	10	60-180	60	76	GapExp	BigFlash	0	49	2	3	1	target	1	329	836	295482	13.328	4.063	22.605
ProbeTrack13	9	ProbeTrack	13.2	SCS215a	20111104.102823	20111104.103331	8	0.013328	60	10	60-180	60	148	GapExp	BigFlash	0	50	2	3	0	distractor	1	629	686	296168	13.328	13.297	13.350
ProbeTrack13	9	ProbeTrack	13.2	SCS215a	20111104.102823	20111104.103338	8	0.013328	60	10	60-180	60	100	GapExp	BigFlash	0	51	2	0	0	distractor	1	677	662	296830	13.328	9.477	17.178
ProbeTrack13	9	ProbeTrack	13.2	SCS215a	20111104.102823	20111104.103344	8	0.013328	60	10	60-180	60	124	GapExp	BigFlash	0	52	2	1	0	distractor	1	530	735	297565	13.328	13.098	13.558
ProbeTrack13	9	ProbeTrack	13.2	SCS215a	20111104.102823	20111104.103349	8	0.013328	60	10	60-180	60	100	GapExp	BigFlash	0	53	2	1	1	target	1	424	788	298353	13.328	3.363	23.300
ProbeTrack13	9	ProbeTrack	13.2	SCS215a	20111104.102823	20111104.103355	8	0.013328	60	10	60-180	60	159	GapExp	BigFlash	0	54	2	0	0	target	0	419	-1000	297353	13.328	13.108	13.558
ProbeTrack13	9	ProbeTrack	13.2	SCS215a	20111104.102823	20111104.103402	8	0.013328	60	10	60-180	60	63	GapExp	BigFlash	0	55	2	45	0	target	0	880	-1000	296353	13.328	13.099	13.558
ProbeTrack13	9	ProbeTrack	13.2	SCS215a	20111104.102823	20111104.103408	8	0.013328	60	10	60-180	60	172	GapExp	BigFlash	0	56	2	1	1	target	1	369	816	297169	13.328	8.544	18.123
ProbeTrack13	9	ProbeTrack	13.2	SCS215a	20111104.102823	20111104.103414	8	0.013328	60	10	60-180	60	158	GapExp	BigFlash	0	57	2	3	0	distractor	1	649	676	297845	13.328	12.632	14.037
ProbeTrack13	9	ProbeTrack	13.2	SCS215a	20111104.102823	20111104.103421	8	0.013328	60	10	60-180	60	170	GapExp	BigFlash	0	58	2	0	1	target	1	386	807	298652	13.328	13.284	13.360
ProbeTrack13	9	ProbeTrack	13.2	SCS215a	20111104.102823	20111104.103428	8	0.013328	60	10	60-180	60	179	GapExp	BigFlash	0	59	2	0	1	target	1	407	797	299449	13.328	13.306	13.356
ProbeTrack13	9	ProbeTrack	13.2	SCS215a	20111104.102823	20111104.103434	8	0.013328	60	10	60-180	60	71	GapExp	BigFlash	0	60	2	0	0	distractor	1	708	646	300095	13.328	12.799	13.856
ProbeTrack13	9	ProbeTrack	13.2	SCS215a	20111104.102823	20111104.103439	8	0.013328	60	10	60-180	60	91	GapExp	BigFlash	0	61	2	3	0	distractor	1	512	744	300839	13.328	13.092	13.551
ProbeTrack13	9	ProbeTrack	13.2	SCS215a	20111104.102823	20111104.103445	8	0.013328	60	10	60-180	60	67	GapExp	BigFlash	0	62	2	45	0	distractor	1	706	647	301486	13.328	13.204	13.459
ProbeTrack13	9	ProbeTrack	13.2	SCS215a	20111104.102823	20111104.103451	8	0.013328	60	10	60-180	60	109	GapExp	BigFlash	0	63	2	1	0	distractor	1	572	714	302200	13.328	13.309	13.347
ProbeTrack13	9	ProbeTrack	13.2	SCS215a	20111104.102823	20111104.103457	8	0.013328	60	10	60-180	60	140	GapExp	BigFlash	0	64	2	3	1	target	1	379	811	303011	13.328	13.304	13.351
ProbeTrack13	9	ProbeTrack	13.2	SCS215a	20111104.102823	20111104.103503	8	0.013328	60	10	60-180	60	103	GapExp	BigFlash	0	65	2	45	0	distractor	1	711	645	303656	13.328	13.308	13.348
ProbeTrack13	9	ProbeTrack	13.2	SCS215a	20111104.102823	20111104.103509	8	0.013328	60	10	60-180	60	174	GapExp	BigFlash	0	66	2	3	1	target	1	479	761	304417	13.328	13.309	13.357
ProbeTrack13	9	ProbeTrack	13.2	SCS215a	20111104.102823	20111104.103516	8	0.013328	60	10	60-180	60	100	GapExp	BigFlash	0	67	2	45	0	distractor	1	688	656	305073	13.328	13.303	13.358
ProbeTrack13	9	ProbeTrack	13.2	SCS215a	20111104.102823	20111104.103523	8	0.013328	60	10	60-180	60	166	GapExp	BigFlash	0	68	2	1	0	distractor	1	474	763	305836	13.328	13.307	13.348
ProbeTrack13	9	ProbeTrack	13.2	SCS215a	20111104.102823	20111104.103529	8	0.013328	60	10	60-180	60	143	GapExp	BigFlash	0	69	2	0	1	target	1	367	817	306653	13.328	13.307	13.345
ProbeTrack13	9	ProbeTrack	13.2	SCS215a	20111104.102823	20111104.103536	8	0.013328	60	10	60-180	60	90	GapExp	BigFlash	0	70	2	1	0	distractor	1	520	740	307393	13.328	13.092	13.556
