exp	sub	code	rev	comp	runtime	trialtime	nstim	refreshdur	cuedur	gapdur	gapOnsetRange	durPostProbe	gapOnsetTime	blocktype	gaptype	prac	trial	ntargets	soa	probeTarget	resp	acc	rt	pts	tpts	meanFrameDur	minFrameDur	maxFrameDur
ProbeTrack13	8	ProbeTrack	13.2	SCS215b	20111102.140233	20111102.140238	8	0.013328	60	0	60-180	60	141	NoGap	None	1	1	2	1	0	distractor	1	2533	0	0	13.376	12.890	13.750
ProbeTrack13	8	ProbeTrack	13.2	SCS215b	20111102.140233	20111102.140359	8	0.013328	60	0	60-180	60	101	NoGap	None	1	2	2	0	1	target	1	2798	0	0	13.328	13.071	13.588
ProbeTrack13	8	ProbeTrack	13.2	SCS215b	20111102.140233	20111102.140408	8	0.013328	60	0	60-180	60	176	NoGap	None	1	3	2	0	0	distractor	1	1557	222	222	13.328	12.857	13.790
ProbeTrack13	8	ProbeTrack	13.2	SCS215b	20111102.140233	20111102.140417	8	0.013328	60	0	60-180	60	138	NoGap	None	1	4	2	1	1	target	1	1803	99	321	13.328	12.841	13.810
ProbeTrack13	8	ProbeTrack	13.2	SCS215b	20111102.140233	20111102.140425	8	0.013328	60	0	60-180	60	165	NoGap	None	1	5	2	1	1	distractor	0	1770	-1000	-679	13.328	12.851	13.810
ProbeTrack13	8	ProbeTrack	13.2	SCS215b	20111102.140233	20111102.140435	8	0.013328	60	0	60-180	60	89	NoGap	None	1	6	2	45	1	target	1	1110	445	-234	13.328	13.098	13.554
ProbeTrack13	8	ProbeTrack	13.2	SCS215b	20111102.140233	20111102.140445	8	0.013328	60	0	60-180	60	115	NoGap	None	1	7	2	1	1	target	1	1197	402	168	13.328	12.886	13.767
ProbeTrack13	8	ProbeTrack	13.2	SCS215b	20111102.140233	20111102.140452	8	0.013328	60	0	60-180	60	130	NoGap	None	1	8	2	1	0	distractor	1	795	603	771	13.328	12.942	13.731
ProbeTrack13	8	ProbeTrack	13.2	SCS215b	20111102.140233	20111102.140459	8	0.013328	60	0	60-180	60	97	NoGap	None	1	9	2	3	1	target	1	1495	253	1024	13.328	12.829	13.839
ProbeTrack13	8	ProbeTrack	13.2	SCS215b	20111102.140233	20111102.140506	8	0.013328	60	0	60-180	60	101	NoGap	None	1	10	2	3	1	target	1	1009	496	1520	13.328	12.963	13.693
ProbeTrack13	8	ProbeTrack	13.2	SCS215b	20111102.140233	20111102.140513	8	0.013328	60	0	60-180	60	88	NoGap	None	1	11	2	45	0	distractor	1	1095	453	1973	13.328	12.850	13.797
ProbeTrack13	8	ProbeTrack	13.2	SCS215b	20111102.140233	20111102.140520	8	0.013328	60	0	60-180	60	105	NoGap	None	1	12	2	3	1	target	1	745	628	2601	13.326	12.839	13.561
ProbeTrack13	8	ProbeTrack	13.2	SCS215b	20111102.140233	20111102.140527	8	0.013328	60	0	60-180	60	82	NoGap	None	1	13	2	3	1	distractor	0	649	-1000	1601	13.328	13.168	13.502
ProbeTrack13	8	ProbeTrack	13.2	SCS215b	20111102.140233	20111102.140537	8	0.013328	60	0	60-180	60	69	NoGap	None	1	14	2	0	1	target	1	645	678	2279	13.328	12.887	13.764
ProbeTrack13	8	ProbeTrack	13.2	SCS215b	20111102.140233	20111102.140545	8	0.013328	60	0	60-180	60	105	NoGap	None	1	15	2	45	0	distractor	1	668	666	2945	13.328	13.160	13.506
ProbeTrack13	8	ProbeTrack	13.2	SCS215b	20111102.140233	20111102.140552	8	0.013328	60	0	60-180	60	65	NoGap	None	1	16	2	3	0	distractor	1	641	680	3625	13.328	12.847	13.819
ProbeTrack13	8	ProbeTrack	13.2	SCS215b	20111102.140233	20111102.140558	8	0.013328	60	0	60-180	60	164	NoGap	None	1	17	2	0	0	distractor	1	589	706	4331	13.328	13.226	13.422
ProbeTrack13	8	ProbeTrack	13.2	SCS215b	20111102.140233	20111102.140605	8	0.013328	60	0	60-180	60	106	NoGap	None	1	18	2	45	1	distractor	0	2073	-1000	3331	13.328	12.862	13.800
ProbeTrack13	8	ProbeTrack	13.2	SCS215b	20111102.140233	20111102.140614	8	0.013328	60	0	60-180	60	108	NoGap	None	1	19	2	3	0	distractor	1	848	576	3907	13.328	12.847	13.798
ProbeTrack13	8	ProbeTrack	13.2	SCS215b	20111102.140233	20111102.140622	8	0.013328	60	0	60-180	60	151	NoGap	None	1	20	2	0	0	distractor	1	772	614	4521	13.328	12.961	13.704
ProbeTrack13	8	ProbeTrack	13.2	SCS215b	20111102.140233	20111102.140632	8	0.013328	60	0	60-180	60	131	NoGap	None	1	21	2	1	0	distractor	1	1185	408	4929	13.378	12.942	26.487
ProbeTrack13	8	ProbeTrack	13.2	SCS215b	20111102.140233	20111102.140640	8	0.013328	60	0	60-180	60	179	NoGap	None	1	22	2	45	1	distractor	0	920	-1000	3929	13.327	13.001	13.668
ProbeTrack13	8	ProbeTrack	13.2	SCS215b	20111102.140233	20111102.140648	8	0.013328	60	0	60-180	60	128	NoGap	None	1	23	2	0	0	distractor	1	802	599	4528	13.328	12.922	13.720
ProbeTrack13	8	ProbeTrack	13.2	SCS215b	20111102.140233	20111102.140655	8	0.013328	60	0	60-180	60	66	NoGap	None	1	24	2	0	1	target	1	764	618	5146	13.328	12.948	13.717
ProbeTrack13	8	ProbeTrack	13.2	SCS215b	20111102.140233	20111102.140706	8	0.013328	60	0	60-180	60	166	NoGap	None	1	25	2	0	1	target	1	1339	331	5477	13.328	12.824	13.834
ProbeTrack13	8	ProbeTrack	13.2	SCS215b	20111102.140233	20111102.140713	8	0.013328	60	0	60-180	60	170	NoGap	None	1	26	2	3	1	distractor	0	646	-1000	4477	13.328	12.872	13.800
ProbeTrack13	8	ProbeTrack	13.2	SCS215b	20111102.140233	20111102.140722	8	0.013328	60	0	60-180	60	121	NoGap	None	1	27	2	3	0	distractor	1	1100	450	4927	13.328	13.158	13.779
ProbeTrack13	8	ProbeTrack	13.2	SCS215b	20111102.140233	20111102.140731	8	0.013328	60	0	60-180	60	86	NoGap	None	1	28	2	1	1	target	1	503	749	5676	13.328	12.993	13.663
ProbeTrack13	8	ProbeTrack	13.2	SCS215b	20111102.140233	20111102.140737	8	0.013328	60	0	60-180	60	86	NoGap	None	1	29	2	45	1	target	1	560	720	6396	13.328	12.827	13.821
ProbeTrack13	8	ProbeTrack	13.2	SCS215b	20111102.140233	20111102.140744	8	0.013328	60	0	60-180	60	166	NoGap	None	1	30	2	45	1	target	1	440	780	7176	13.328	12.911	13.748
ProbeTrack13	8	ProbeTrack	13.2	SCS215b	20111102.140233	20111102.140752	8	0.013328	60	0	60-180	60	102	NoGap	None	1	31	2	1	0	distractor	1	630	685	7861	13.328	12.940	13.723
ProbeTrack13	8	ProbeTrack	13.2	SCS215b	20111102.140233	20111102.140758	8	0.013328	60	0	60-180	60	141	NoGap	None	1	32	2	45	0	distractor	1	563	719	8580	13.328	12.919	13.732
ProbeTrack13	8	ProbeTrack	13.2	SCS215b	20111102.140233	20111102.140807	8	0.013328	60	0	60-180	60	106	NoGap	None	1	33	2	3	0	distractor	1	847	577	9157	13.328	12.836	13.825
ProbeTrack13	8	ProbeTrack	13.2	SCS215b	20111102.140233	20111102.140813	8	0.013328	60	0	60-180	60	98	NoGap	None	1	34	2	45	0	distractor	1	646	677	9834	13.328	12.873	13.793
ProbeTrack13	8	ProbeTrack	13.2	SCS215b	20111102.140233	20111102.140820	8	0.013328	60	0	60-180	60	148	NoGap	None	1	35	2	3	0	distractor	1	512	744	10578	13.328	12.865	13.797
ProbeTrack13	8	ProbeTrack	13.2	SCS215b	20111102.140233	20111102.140830	8	0.013328	60	0	60-180	60	119	NoGap	None	1	36	2	1	0	distractor	1	637	682	11260	13.328	13.104	13.552
ProbeTrack13	8	ProbeTrack	13.2	SCS215b	20111102.140233	20111102.140836	8	0.013328	60	0	60-180	60	132	NoGap	None	1	37	2	0	1	target	1	652	674	11934	13.328	12.839	13.810
ProbeTrack13	8	ProbeTrack	13.2	SCS215b	20111102.140233	20111102.140843	8	0.013328	60	0	60-180	60	87	NoGap	None	1	38	2	1	1	target	1	482	759	12693	13.328	12.966	13.674
ProbeTrack13	8	ProbeTrack	13.2	SCS215b	20111102.140233	20111102.140849	8	0.013328	60	0	60-180	60	180	NoGap	None	1	39	2	0	0	distractor	1	485	758	13451	13.328	12.907	13.740
ProbeTrack13	8	ProbeTrack	13.2	SCS215b	20111102.140233	20111102.140857	8	0.013328	60	0	60-180	60	155	NoGap	None	1	40	2	45	0	distractor	1	508	746	14197	13.328	12.941	13.719
ProbeTrack13	8	ProbeTrack	13.2	SCS215b	20111102.141024	20111102.141036	8	0.013318	60	10	60-180	60	61	GapPrac	BigFlash	1	1	2	3	0	distractor	1	1515	243	14440	13.392	8.754	17.919
ProbeTrack13	8	ProbeTrack	13.2	SCS215b	20111102.141024	20111102.141045	8	0.013318	60	10	60-180	60	131	GapPrac	BigFlash	1	2	2	0	0	distractor	1	1115	443	14883	13.328	12.646	14.017
ProbeTrack13	8	ProbeTrack	13.2	SCS215b	20111102.141024	20111102.141057	8	0.013318	60	10	60-180	60	132	GapPrac	BigFlash	1	3	2	45	0	distractor	1	501	750	15633	13.462	12.854	50.309
ProbeTrack13	8	ProbeTrack	13.2	SCS215b	20111102.141024	20111102.141105	8	0.013318	60	10	60-180	60	94	GapPrac	BigFlash	1	4	2	45	1	target	1	471	765	16398	13.328	13.110	13.555
ProbeTrack13	8	ProbeTrack	13.2	SCS215b	20111102.141024	20111102.141112	8	0.013318	60	10	60-180	60	158	GapPrac	BigFlash	1	5	2	0	1	target	1	642	679	17077	13.373	11.163	26.634
ProbeTrack13	8	ProbeTrack	13.2	SCS215b	20111102.141024	20111102.141122	8	0.013318	60	10	60-180	60	155	GapPrac	BigFlash	1	6	2	1	1	target	1	745	628	17705	13.328	4.285	22.363
ProbeTrack13	8	ProbeTrack	13.2	SCS215b	20111102.141024	20111102.141129	8	0.013318	60	10	60-180	60	158	GapPrac	BigFlash	1	7	2	0	1	target	1	553	724	18429	13.328	7.760	18.891
ProbeTrack13	8	ProbeTrack	13.2	SCS215b	20111102.141024	20111102.141136	8	0.013318	60	10	60-180	60	147	GapPrac	BigFlash	1	8	2	45	1	target	1	485	758	19187	13.328	5.527	21.129
ProbeTrack13	8	ProbeTrack	13.2	SCS215b	20111102.141024	20111102.141147	8	0.013318	60	10	60-180	60	139	GapPrac	BigFlash	1	9	2	45	1	target	1	392	804	19991	13.328	6.259	20.392
ProbeTrack13	8	ProbeTrack	13.2	SCS215b	20111102.141024	20111102.141155	8	0.013318	60	10	60-180	60	177	GapPrac	BigFlash	1	10	2	0	0	distractor	1	705	648	20639	13.328	9.889	16.762
ProbeTrack13	8	ProbeTrack	13.2	SCS215b	20111102.141024	20111102.141203	8	0.013318	60	10	60-180	60	129	GapPrac	BigFlash	1	11	2	3	1	target	1	503	749	21388	13.380	7.698	24.475
ProbeTrack13	8	ProbeTrack	13.2	SCS215b	20111102.141024	20111102.141209	8	0.013318	60	10	60-180	60	147	GapPrac	BigFlash	1	12	2	3	0	distractor	1	544	728	22116	13.376	9.051	22.910
ProbeTrack13	8	ProbeTrack	13.2	SCS215b	20111102.141024	20111102.141216	8	0.013318	60	10	60-180	60	88	GapPrac	BigFlash	1	13	2	0	0	distractor	1	517	742	22858	13.328	13.304	13.354
ProbeTrack13	8	ProbeTrack	13.2	SCS215b	20111102.141024	20111102.141222	8	0.013318	60	10	60-180	60	77	GapPrac	BigFlash	1	14	2	1	1	distractor	0	476	-1000	21858	13.328	11.049	15.616
ProbeTrack13	8	ProbeTrack	13.2	SCS215b	20111102.141024	20111102.141232	8	0.013318	60	10	60-180	60	169	GapPrac	BigFlash	1	15	2	3	0	distractor	1	786	607	22465	13.305	6.168	16.599
ProbeTrack13	8	ProbeTrack	13.2	SCS215b	20111102.141024	20111102.141240	8	0.013318	60	10	60-180	60	120	GapPrac	BigFlash	1	16	2	1	0	distractor	1	503	749	23214	13.328	4.983	21.655
ProbeTrack13	8	ProbeTrack	13.2	SCS215b	20111102.141024	20111102.141247	8	0.013318	60	10	60-180	60	166	GapPrac	BigFlash	1	17	2	45	0	distractor	1	780	610	23824	13.328	4.504	22.137
ProbeTrack13	8	ProbeTrack	13.2	SCS215b	20111102.141024	20111102.141255	8	0.013318	60	10	60-180	60	67	GapPrac	BigFlash	1	18	2	1	0	distractor	1	495	753	24577	13.339	7.473	19.179
ProbeTrack13	8	ProbeTrack	13.2	SCS215b	20111102.141024	20111102.141301	8	0.013318	60	10	60-180	60	166	GapPrac	BigFlash	1	19	2	3	1	target	1	670	665	25242	13.328	6.451	20.210
ProbeTrack13	8	ProbeTrack	13.2	SCS215b	20111102.141024	20111102.141309	8	0.013318	60	10	60-180	60	103	GapPrac	BigFlash	1	20	2	45	0	distractor	1	725	638	25880	13.328	6.547	20.113
ProbeTrack13	8	ProbeTrack	13.2	SCS215b	20111102.141340	20111102.141412	8	0.013328	60	10	60-180	60	102	GapExp	BigFlash	1	1	2	1	0	target	0	607	-1000	24880	13.385	4.643	22.022
ProbeTrack13	8	ProbeTrack	13.2	SCS215b	20111102.141340	20111102.141420	8	0.013328	60	10	60-180	60	94	GapExp	BigFlash	1	2	2	45	1	target	1	696	652	25532	13.328	13.072	13.603
ProbeTrack13	8	ProbeTrack	13.2	SCS215b	20111102.141340	20111102.141427	8	0.013328	60	10	60-180	60	127	GapExp	BigFlash	1	3	2	0	1	target	1	531	735	26267	13.328	7.174	19.476
ProbeTrack13	8	ProbeTrack	13.2	SCS215b	20111102.141340	20111102.141436	8	0.013328	60	10	60-180	60	99	GapExp	BigFlash	1	4	2	3	0	distractor	1	551	725	26992	13.328	4.156	22.511
ProbeTrack13	8	ProbeTrack	13.2	SCS215b	20111102.141340	20111102.141445	8	0.013328	60	10	60-180	60	97	GapExp	BigFlash	1	5	2	0	0	distractor	1	699	651	27643	13.328	8.056	18.616
ProbeTrack13	8	ProbeTrack	13.2	SCS215b	20111102.141340	20111102.141452	8	0.013328	60	10	60-180	60	149	GapExp	BigFlash	1	6	2	45	0	distractor	1	575	713	28356	13.328	8.160	18.511
ProbeTrack13	8	ProbeTrack	13.2	SCS215b	20111102.141340	20111102.141459	8	0.013328	60	10	60-180	60	145	GapExp	BigFlash	1	7	2	1	1	target	1	606	697	29053	13.328	9.678	16.997
ProbeTrack13	8	ProbeTrack	13.2	SCS215b	20111102.141340	20111102.141506	8	0.013328	60	10	60-180	60	139	GapExp	BigFlash	1	8	2	3	1	target	1	546	727	29780	13.328	13.305	13.353
ProbeTrack13	8	ProbeTrack	13.2	SCS215b	20111102.141340	20111102.141513	8	0.013328	60	10	60-180	60	99	GapExp	BigFlash	0	9	2	3	0	distractor	1	599	701	30481	13.328	8.036	18.616
ProbeTrack13	8	ProbeTrack	13.2	SCS215b	20111102.141340	20111102.141519	8	0.013328	60	10	60-180	60	72	GapExp	BigFlash	0	10	2	0	1	target	1	615	693	31174	13.328	11.001	15.667
ProbeTrack13	8	ProbeTrack	13.2	SCS215b	20111102.141340	20111102.141524	8	0.013328	60	10	60-180	60	149	GapExp	BigFlash	0	11	2	0	1	target	1	632	684	31858	13.328	6.088	20.559
ProbeTrack13	8	ProbeTrack	13.2	SCS215b	20111102.141340	20111102.141536	8	0.013328	60	10	60-180	60	74	GapExp	BigFlash	0	12	2	3	0	distractor	1	588	706	32564	13.307	8.912	13.555
ProbeTrack13	8	ProbeTrack	13.2	SCS215b	20111102.141340	20111102.141543	8	0.013328	60	10	60-180	60	128	GapExp	BigFlash	0	13	2	0	1	target	1	631	685	33249	13.328	3.618	23.031
ProbeTrack13	8	ProbeTrack	13.2	SCS215b	20111102.141340	20111102.141549	8	0.013328	60	10	60-180	60	100	GapExp	BigFlash	0	14	2	0	0	distractor	1	698	651	33900	13.328	9.449	17.190
ProbeTrack13	8	ProbeTrack	13.2	SCS215b	20111102.141340	20111102.141556	8	0.013328	60	10	60-180	60	104	GapExp	BigFlash	0	15	2	1	0	distractor	1	515	743	34643	13.328	11.809	14.835
ProbeTrack13	8	ProbeTrack	13.2	SCS215b	20111102.141340	20111102.141603	8	0.013328	60	10	60-180	60	78	GapExp	BigFlash	0	16	2	1	1	target	1	500	750	35393	13.328	9.058	17.580
ProbeTrack13	8	ProbeTrack	13.2	SCS215b	20111102.141340	20111102.141609	8	0.013328	60	10	60-180	60	68	GapExp	BigFlash	0	17	2	0	0	distractor	1	536	732	36125	13.328	13.305	13.352
ProbeTrack13	8	ProbeTrack	13.2	SCS215b	20111102.141340	20111102.141614	8	0.013328	60	10	60-180	60	174	GapExp	BigFlash	0	18	2	1	0	distractor	1	476	762	36887	13.328	7.894	18.777
ProbeTrack13	8	ProbeTrack	13.2	SCS215b	20111102.141340	20111102.141621	8	0.013328	60	10	60-180	60	159	GapExp	BigFlash	0	19	2	0	1	target	1	510	745	37632	13.328	3.753	22.885
ProbeTrack13	8	ProbeTrack	13.2	SCS215b	20111102.141340	20111102.141629	8	0.013328	60	10	60-180	60	141	GapExp	BigFlash	0	20	2	3	0	distractor	1	500	750	38382	13.328	3.481	23.169
ProbeTrack13	8	ProbeTrack	13.2	SCS215b	20111102.141340	20111102.141635	8	0.013328	60	10	60-180	60	76	GapExp	BigFlash	0	21	2	45	0	distractor	1	501	750	39132	13.328	12.095	14.567
ProbeTrack13	8	ProbeTrack	13.2	SCS215b	20111102.141340	20111102.141642	8	0.013328	60	10	60-180	60	85	GapExp	BigFlash	0	22	2	1	1	target	1	401	800	39932	13.328	5.553	21.095
ProbeTrack13	8	ProbeTrack	13.2	SCS215b	20111102.141340	20111102.141647	8	0.013328	60	10	60-180	60	151	GapExp	BigFlash	0	23	2	45	1	target	1	550	725	40657	13.328	9.091	17.566
ProbeTrack13	8	ProbeTrack	13.2	SCS215b	20111102.141340	20111102.141655	8	0.013328	60	10	60-180	60	156	GapExp	BigFlash	0	24	2	0	0	distractor	1	455	773	41430	13.328	4.797	21.850
ProbeTrack13	8	ProbeTrack	13.2	SCS215b	20111102.141340	20111102.141702	8	0.013328	60	10	60-180	60	179	GapExp	BigFlash	0	25	2	1	0	distractor	1	583	709	42139	13.328	11.144	15.509
ProbeTrack13	8	ProbeTrack	13.2	SCS215b	20111102.141340	20111102.141709	8	0.013328	60	10	60-180	60	178	GapExp	BigFlash	0	26	2	45	0	distractor	1	602	699	42838	13.328	8.912	17.769
ProbeTrack13	8	ProbeTrack	13.2	SCS215b	20111102.141340	20111102.141717	8	0.013328	60	10	60-180	60	111	GapExp	BigFlash	0	27	2	45	0	distractor	1	555	723	43561	13.328	6.042	20.612
ProbeTrack13	8	ProbeTrack	13.2	SCS215b	20111102.141340	20111102.141723	8	0.013328	60	10	60-180	60	123	GapExp	BigFlash	0	28	2	3	1	target	1	464	768	44329	13.328	3.412	23.244
ProbeTrack13	8	ProbeTrack	13.2	SCS215b	20111102.141340	20111102.141730	8	0.013328	60	10	60-180	60	112	GapExp	BigFlash	0	29	2	45	1	target	1	563	719	45048	13.328	13.096	13.562
ProbeTrack13	8	ProbeTrack	13.2	SCS215b	20111102.141340	20111102.141737	8	0.013328	60	10	60-180	60	179	GapExp	BigFlash	0	30	2	45	1	target	1	553	724	45772	13.328	11.588	15.060
ProbeTrack13	8	ProbeTrack	13.2	SCS215b	20111102.141340	20111102.141745	8	0.013328	60	10	60-180	60	156	GapExp	BigFlash	0	31	2	45	1	target	1	468	766	46538	13.328	8.533	18.126
ProbeTrack13	8	ProbeTrack	13.2	SCS215b	20111102.141340	20111102.141752	8	0.013328	60	10	60-180	60	141	GapExp	BigFlash	0	32	2	45	0	distractor	1	556	722	47260	13.328	6.196	20.457
ProbeTrack13	8	ProbeTrack	13.2	SCS215b	20111102.141340	20111102.141759	8	0.013328	60	10	60-180	60	142	GapExp	BigFlash	0	33	2	1	1	target	1	421	790	48050	13.328	4.932	21.717
ProbeTrack13	8	ProbeTrack	13.2	SCS215b	20111102.141340	20111102.141805	8	0.013328	60	10	60-180	60	111	GapExp	BigFlash	0	34	2	1	1	target	1	379	811	48861	13.328	12.314	14.344
ProbeTrack13	8	ProbeTrack	13.2	SCS215b	20111102.141340	20111102.141812	8	0.013328	60	10	60-180	60	80	GapExp	BigFlash	0	35	2	0	0	distractor	1	651	675	49536	13.328	8.470	18.200
ProbeTrack13	8	ProbeTrack	13.2	SCS215b	20111102.141340	20111102.141819	8	0.013328	60	10	60-180	60	179	GapExp	BigFlash	0	36	2	1	0	distractor	1	496	752	50288	13.328	3.094	23.563
ProbeTrack13	8	ProbeTrack	13.2	SCS215b	20111102.141340	20111102.141826	8	0.013328	60	10	60-180	60	121	GapExp	BigFlash	0	37	2	1	1	target	1	522	739	51027	13.328	8.940	17.709
ProbeTrack13	8	ProbeTrack	13.2	SCS215b	20111102.141340	20111102.141833	8	0.013328	60	10	60-180	60	145	GapExp	BigFlash	0	38	2	3	1	target	1	418	791	51818	13.328	12.158	14.505
ProbeTrack13	8	ProbeTrack	13.2	SCS215b	20111102.141340	20111102.141839	8	0.013328	60	10	60-180	60	100	GapExp	BigFlash	0	39	2	45	0	distractor	1	470	765	52583	13.328	6.767	19.884
ProbeTrack13	8	ProbeTrack	13.2	SCS215b	20111102.141340	20111102.141846	8	0.013328	60	10	60-180	60	69	GapExp	BigFlash	0	40	2	3	1	target	1	552	724	53307	13.328	4.678	21.988
ProbeTrack13	8	ProbeTrack	13.2	SCS215b	20111102.141340	20111102.141852	8	0.013328	60	10	60-180	60	105	GapExp	BigFlash	0	41	2	3	1	target	1	455	773	54080	13.328	13.303	13.356
ProbeTrack13	8	ProbeTrack	13.2	SCS215b	20111102.141340	20111102.141858	8	0.013328	60	10	60-180	60	159	GapExp	BigFlash	0	42	2	1	1	target	1	425	788	54868	13.328	13.282	13.372
ProbeTrack13	8	ProbeTrack	13.2	SCS215b	20111102.141340	20111102.141904	8	0.013328	60	10	60-180	60	83	GapExp	BigFlash	0	43	2	1	0	distractor	1	569	716	55584	13.328	8.997	17.656
ProbeTrack13	8	ProbeTrack	13.2	SCS215b	20111102.141340	20111102.141910	8	0.013328	60	10	60-180	60	65	GapExp	BigFlash	0	44	2	1	1	target	1	565	718	56302	13.328	4.852	21.813
ProbeTrack13	8	ProbeTrack	13.2	SCS215b	20111102.141340	20111102.141915	8	0.013328	60	10	60-180	60	180	GapExp	BigFlash	0	45	2	3	0	distractor	1	529	736	57038	13.328	6.112	20.530
ProbeTrack13	8	ProbeTrack	13.2	SCS215b	20111102.141340	20111102.141923	8	0.013328	60	10	60-180	60	118	GapExp	BigFlash	0	46	2	0	0	distractor	1	561	720	57758	13.328	8.686	17.980
ProbeTrack13	8	ProbeTrack	13.2	SCS215b	20111102.141340	20111102.141929	8	0.013328	60	10	60-180	60	79	GapExp	BigFlash	0	47	2	3	1	target	1	369	816	58574	13.328	13.299	13.357
ProbeTrack13	8	ProbeTrack	13.2	SCS215b	20111102.141340	20111102.141935	8	0.013328	60	10	60-180	60	142	GapExp	BigFlash	0	48	2	1	1	target	1	582	709	59283	13.328	4.946	21.716
ProbeTrack13	8	ProbeTrack	13.2	SCS215b	20111102.141340	20111102.141941	8	0.013328	60	10	60-180	60	123	GapExp	BigFlash	0	49	2	3	1	target	1	446	777	60060	13.328	9.509	17.155
ProbeTrack13	8	ProbeTrack	13.2	SCS215b	20111102.141340	20111102.141947	8	0.013328	60	10	60-180	60	164	GapExp	BigFlash	0	50	2	1	1	target	1	370	815	60875	13.328	9.785	16.879
ProbeTrack13	8	ProbeTrack	13.2	SCS215b	20111102.141340	20111102.141954	8	0.013328	60	10	60-180	60	92	GapExp	BigFlash	0	51	2	3	1	distractor	0	419	-1000	59875	13.328	9.746	16.912
ProbeTrack13	8	ProbeTrack	13.2	SCS215b	20111102.141340	20111102.142016	8	0.013328	60	10	60-180	60	81	GapExp	BigFlash	0	52	2	45	1	target	1	338	831	60706	13.328	12.674	13.991
ProbeTrack13	8	ProbeTrack	13.2	SCS215b	20111102.141340	20111102.142023	8	0.013328	60	10	60-180	60	76	GapExp	BigFlash	0	53	2	45	0	distractor	1	466	767	61473	13.328	13.303	13.352
ProbeTrack13	8	ProbeTrack	13.2	SCS215b	20111102.141340	20111102.142030	8	0.013328	60	10	60-180	60	163	GapExp	BigFlash	0	54	2	0	1	target	1	377	812	62285	13.328	11.150	15.500
ProbeTrack13	8	ProbeTrack	13.2	SCS215b	20111102.141340	20111102.142037	8	0.013328	60	10	60-180	60	103	GapExp	BigFlash	0	55	2	1	1	target	1	376	812	63097	13.328	13.307	13.354
ProbeTrack13	8	ProbeTrack	13.2	SCS215b	20111102.141340	20111102.142043	8	0.013328	60	10	60-180	60	90	GapExp	BigFlash	0	56	2	3	1	target	1	358	821	63918	13.328	13.198	13.465
ProbeTrack13	8	ProbeTrack	13.2	SCS215b	20111102.141340	20111102.142049	8	0.013328	60	10	60-180	60	130	GapExp	BigFlash	0	57	2	0	1	target	1	602	699	64617	13.328	6.619	20.019
ProbeTrack13	8	ProbeTrack	13.2	SCS215b	20111102.141340	20111102.142055	8	0.013328	60	10	60-180	60	118	GapExp	BigFlash	0	58	2	0	1	target	1	388	806	65423	13.328	9.135	17.517
ProbeTrack13	8	ProbeTrack	13.2	SCS215b	20111102.141340	20111102.142102	8	0.013328	60	10	60-180	60	117	GapExp	BigFlash	0	59	2	1	0	distractor	1	750	625	66048	13.328	11.517	15.124
ProbeTrack13	8	ProbeTrack	13.2	SCS215b	20111102.141340	20111102.142108	8	0.013328	60	10	60-180	60	170	GapExp	BigFlash	0	60	2	1	1	target	1	585	708	66756	13.328	9.718	16.938
ProbeTrack13	8	ProbeTrack	13.2	SCS215b	20111102.141340	20111102.142115	8	0.013328	60	10	60-180	60	70	GapExp	BigFlash	0	61	2	3	0	distractor	1	500	750	67506	13.328	4.783	21.864
ProbeTrack13	8	ProbeTrack	13.2	SCS215b	20111102.141340	20111102.142121	8	0.013328	60	10	60-180	60	92	GapExp	BigFlash	0	62	2	1	1	target	1	482	759	68265	13.325	10.278	16.392
ProbeTrack13	8	ProbeTrack	13.2	SCS215b	20111102.141340	20111102.142126	8	0.013328	60	10	60-180	60	92	GapExp	BigFlash	0	63	2	45	1	target	1	466	767	69032	13.328	6.085	20.581
ProbeTrack13	8	ProbeTrack	13.2	SCS215b	20111102.141340	20111102.142133	8	0.013328	60	10	60-180	60	129	GapExp	BigFlash	0	64	2	3	0	distractor	1	454	773	69805	13.328	8.574	18.089
ProbeTrack13	8	ProbeTrack	13.2	SCS215b	20111102.141340	20111102.142139	8	0.013328	60	10	60-180	60	157	GapExp	BigFlash	0	65	2	45	0	distractor	1	463	769	70574	13.328	13.271	13.386
ProbeTrack13	8	ProbeTrack	13.2	SCS215b	20111102.141340	20111102.142147	8	0.013328	60	10	60-180	60	102	GapExp	BigFlash	0	66	2	45	0	distractor	1	725	638	71212	13.328	9.405	17.250
ProbeTrack13	8	ProbeTrack	13.2	SCS215b	20111102.141340	20111102.142153	8	0.013328	60	10	60-180	60	73	GapExp	BigFlash	0	67	2	45	1	target	1	500	750	71962	13.383	10.170	20.478
ProbeTrack13	8	ProbeTrack	13.2	SCS215b	20111102.141340	20111102.142204	8	0.013328	60	10	60-180	60	167	GapExp	BigFlash	0	68	2	3	0	early	-4	-4122	-1000	70962	13.328	9.913	17.057
ProbeTrack13	8	ProbeTrack	13.2	SCS215b	20111102.141340	20111102.142211	8	0.013328	60	10	60-180	60	132	GapExp	BigFlash	0	69	2	0	0	distractor	1	674	663	71625	13.328	6.827	20.489
ProbeTrack13	8	ProbeTrack	13.2	SCS215b	20111102.141340	20111102.142222	8	0.013328	60	10	60-180	60	71	GapExp	BigFlash	0	70	2	1	0	distractor	1	681	660	72285	13.328	9.118	17.545
ProbeTrack13	8	ProbeTrack	13.2	SCS215b	20111102.141340	20111102.142228	8	0.013328	60	10	60-180	60	147	GapExp	BigFlash	0	71	2	3	0	distractor	1	493	754	73039	13.328	12.438	14.220
ProbeTrack13	8	ProbeTrack	13.2	SCS215b	20111102.141340	20111102.142235	8	0.013328	60	10	60-180	60	126	GapExp	BigFlash	0	72	2	45	1	target	1	443	779	73818	13.328	7.170	19.492
ProbeTrack13	8	ProbeTrack	13.2	SCS215b	20111102.141340	20111102.142242	8	0.013328	60	10	60-180	60	174	GapExp	BigFlash	0	73	2	45	1	target	1	366	817	74635	13.328	11.530	15.116
ProbeTrack13	8	ProbeTrack	13.2	SCS215b	20111102.141340	20111102.142249	8	0.013328	60	10	60-180	60	61	GapExp	BigFlash	0	74	2	45	1	target	1	455	773	75408	13.328	13.096	13.548
ProbeTrack13	8	ProbeTrack	13.2	SCS215b	20111102.141340	20111102.142306	8	0.013328	60	10	60-180	60	115	GapExp	BigFlash	0	75	2	45	0	distractor	1	429	786	76194	13.328	9.959	16.705
ProbeTrack13	8	ProbeTrack	13.2	SCS215b	20111102.141340	20111102.142313	8	0.013328	60	10	60-180	60	153	GapExp	BigFlash	0	76	2	3	1	target	1	439	781	76975	13.328	5.490	21.173
ProbeTrack13	8	ProbeTrack	13.2	SCS215b	20111102.141340	20111102.142319	8	0.013328	60	10	60-180	60	95	GapExp	BigFlash	0	77	2	1	1	target	1	468	766	77741	13.328	11.632	15.033
ProbeTrack13	8	ProbeTrack	13.2	SCS215b	20111102.141340	20111102.142327	8	0.013328	60	10	60-180	60	80	GapExp	BigFlash	0	78	2	45	0	distractor	1	663	669	78410	13.328	12.006	14.653
ProbeTrack13	8	ProbeTrack	13.2	SCS215b	20111102.141340	20111102.142340	8	0.013328	60	10	60-180	60	94	GapExp	BigFlash	0	79	2	1	1	target	1	326	837	79247	13.328	13.092	13.570
ProbeTrack13	8	ProbeTrack	13.2	SCS215b	20111102.141340	20111102.142346	8	0.013328	60	10	60-180	60	163	GapExp	BigFlash	0	80	2	0	1	target	1	488	756	80003	13.328	12.700	13.953
ProbeTrack13	8	ProbeTrack	13.2	SCS215b	20111102.141340	20111102.142352	8	0.013328	60	10	60-180	60	118	GapExp	BigFlash	0	81	2	0	1	target	1	512	744	80747	13.328	13.168	13.507
ProbeTrack13	8	ProbeTrack	13.2	SCS215b	20111102.141340	20111102.142359	8	0.013328	60	10	60-180	60	68	GapExp	BigFlash	0	82	2	0	0	distractor	1	744	628	81375	13.328	6.981	19.667
ProbeTrack13	8	ProbeTrack	13.2	SCS215b	20111102.141340	20111102.142407	8	0.013328	60	10	60-180	60	101	GapExp	BigFlash	0	83	2	0	0	distractor	1	538	731	82106	13.328	9.157	17.493
ProbeTrack13	8	ProbeTrack	13.2	SCS215b	20111102.141340	20111102.142413	8	0.013328	60	10	60-180	60	89	GapExp	BigFlash	0	84	2	1	1	target	1	543	729	82835	13.328	10.448	16.184
ProbeTrack13	8	ProbeTrack	13.2	SCS215b	20111102.141340	20111102.142419	8	0.013328	60	10	60-180	60	142	GapExp	BigFlash	0	85	2	1	0	distractor	1	510	745	83580	13.328	10.295	16.355
ProbeTrack13	8	ProbeTrack	13.2	SCS215b	20111102.141340	20111102.142428	8	0.013328	60	10	60-180	60	103	GapExp	BigFlash	0	86	2	3	0	distractor	1	460	770	84350	13.328	12.556	14.102
ProbeTrack13	8	ProbeTrack	13.2	SCS215b	20111102.141340	20111102.142434	8	0.013328	60	10	60-180	60	84	GapExp	BigFlash	0	87	2	1	0	distractor	1	716	642	84992	13.328	8.108	18.528
ProbeTrack13	8	ProbeTrack	13.2	SCS215b	20111102.141340	20111102.142440	8	0.013328	60	10	60-180	60	87	GapExp	BigFlash	0	88	2	0	1	target	1	526	737	85729	13.328	5.735	20.911
ProbeTrack13	8	ProbeTrack	13.2	SCS215b	20111102.141340	20111102.142446	8	0.013328	60	10	60-180	60	121	GapExp	BigFlash	0	89	2	45	1	target	1	594	703	86432	13.328	7.558	19.093
ProbeTrack13	8	ProbeTrack	13.2	SCS215b	20111102.141340	20111102.142453	8	0.013328	60	10	60-180	60	154	GapExp	BigFlash	0	90	2	45	0	distractor	1	440	780	87212	13.328	8.735	17.922
ProbeTrack13	8	ProbeTrack	13.2	SCS215b	20111102.141340	20111102.142500	8	0.013328	60	10	60-180	60	114	GapExp	BigFlash	0	91	2	45	0	distractor	1	516	742	87954	13.328	12.632	14.023
ProbeTrack13	8	ProbeTrack	13.2	SCS215b	20111102.141340	20111102.142506	8	0.013328	60	10	60-180	60	175	GapExp	BigFlash	0	92	2	0	0	distractor	1	512	744	88698	13.328	12.974	13.678
ProbeTrack13	8	ProbeTrack	13.2	SCS215b	20111102.141340	20111102.142513	8	0.013328	60	10	60-180	60	136	GapExp	BigFlash	0	93	2	0	0	distractor	1	664	668	89366	13.328	13.081	13.571
ProbeTrack13	8	ProbeTrack	13.2	SCS215b	20111102.141340	20111102.142520	8	0.013328	60	10	60-180	60	104	GapExp	BigFlash	0	94	2	45	0	distractor	1	493	754	90120	13.328	13.102	13.550
ProbeTrack13	8	ProbeTrack	13.2	SCS215b	20111102.141340	20111102.142527	8	0.013328	60	10	60-180	60	167	GapExp	BigFlash	0	95	2	0	0	distractor	1	513	744	90864	13.328	11.313	15.346
ProbeTrack13	8	ProbeTrack	13.2	SCS215b	20111102.141340	20111102.142533	8	0.013328	60	10	60-180	60	128	GapExp	BigFlash	0	96	2	45	0	distractor	1	559	721	91585	13.328	9.277	17.397
ProbeTrack13	8	ProbeTrack	13.2	SCS215b	20111102.141340	20111102.142540	8	0.013328	60	10	60-180	60	90	GapExp	BigFlash	0	97	2	3	1	target	1	409	796	92381	13.328	10.612	16.039
ProbeTrack13	8	ProbeTrack	13.2	SCS215b	20111102.141340	20111102.142545	8	0.013328	60	10	60-180	60	142	GapExp	BigFlash	0	98	2	0	1	target	1	438	781	93162	13.328	13.101	13.570
ProbeTrack13	8	ProbeTrack	13.2	SCS215b	20111102.141340	20111102.142552	8	0.013328	60	10	60-180	60	163	GapExp	BigFlash	0	99	2	3	1	target	1	501	750	93912	13.328	13.103	13.550
ProbeTrack13	8	ProbeTrack	13.2	SCS215b	20111102.141340	20111102.142559	8	0.013328	60	10	60-180	60	140	GapExp	BigFlash	0	100	2	1	0	distractor	1	545	728	94640	13.378	12.690	24.201
ProbeTrack13	8	ProbeTrack	13.2	SCS215b	20111102.141340	20111102.142605	8	0.013328	60	10	60-180	60	177	GapExp	BigFlash	0	101	2	0	1	target	1	639	681	95321	13.328	13.301	13.351
ProbeTrack13	8	ProbeTrack	13.2	SCS215b	20111102.141340	20111102.142612	8	0.013328	60	10	60-180	60	122	GapExp	BigFlash	0	102	2	45	0	distractor	1	450	775	96096	13.328	13.308	13.348
ProbeTrack13	8	ProbeTrack	13.2	SCS215b	20111102.141340	20111102.142619	8	0.013328	60	10	60-180	60	88	GapExp	BigFlash	0	103	2	45	1	target	1	391	805	96901	13.328	13.308	13.358
ProbeTrack13	8	ProbeTrack	13.2	SCS215b	20111102.141340	20111102.142625	8	0.013328	60	10	60-180	60	74	GapExp	BigFlash	0	104	2	45	1	target	1	367	817	97718	13.328	12.588	14.086
ProbeTrack13	8	ProbeTrack	13.2	SCS215b	20111102.141340	20111102.142631	8	0.013328	60	10	60-180	60	171	GapExp	BigFlash	0	105	2	45	0	distractor	1	579	711	98429	13.328	8.586	18.065
ProbeTrack13	8	ProbeTrack	13.2	SCS215b	20111102.141340	20111102.142639	8	0.013328	60	10	60-180	60	145	GapExp	BigFlash	0	106	2	1	0	distractor	1	595	703	99132	13.328	13.309	13.352
ProbeTrack13	8	ProbeTrack	13.2	SCS215b	20111102.141340	20111102.142645	8	0.013328	60	10	60-180	60	127	GapExp	BigFlash	0	107	2	3	1	target	1	470	765	99897	13.328	8.181	18.469
ProbeTrack13	8	ProbeTrack	13.2	SCS215b	20111102.141340	20111102.142652	8	0.013328	60	10	60-180	60	157	GapExp	BigFlash	0	108	2	3	0	distractor	1	553	724	100621	13.328	13.309	13.347
ProbeTrack13	8	ProbeTrack	13.2	SCS215b	20111102.141340	20111102.142659	8	0.013328	60	10	60-180	60	62	GapExp	BigFlash	0	109	2	3	1	target	1	507	747	101368	13.328	12.258	14.392
ProbeTrack13	8	ProbeTrack	13.2	SCS215b	20111102.141340	20111102.142704	8	0.013328	60	10	60-180	60	166	GapExp	BigFlash	0	110	2	45	1	target	1	742	629	101997	13.328	9.066	17.581
ProbeTrack13	8	ProbeTrack	13.2	SCS215b	20111102.141340	20111102.142712	8	0.013328	60	10	60-180	60	126	GapExp	BigFlash	0	111	2	0	0	distractor	1	479	761	102758	13.328	13.102	13.550
ProbeTrack13	8	ProbeTrack	13.2	SCS215b	20111102.141340	20111102.142718	8	0.013328	60	10	60-180	60	92	GapExp	BigFlash	0	112	2	45	0	distractor	1	424	788	103546	13.328	13.100	13.571
ProbeTrack13	8	ProbeTrack	13.2	SCS215b	20111102.141340	20111102.142725	8	0.013328	60	10	60-180	60	154	GapExp	BigFlash	0	113	2	0	0	distractor	1	446	777	104323	13.328	12.764	13.888
ProbeTrack13	8	ProbeTrack	13.2	SCS215b	20111102.141340	20111102.142732	8	0.013328	60	10	60-180	60	66	GapExp	BigFlash	0	114	2	0	1	target	1	544	728	105051	13.328	13.104	13.550
ProbeTrack13	8	ProbeTrack	13.2	SCS215b	20111102.141340	20111102.142738	8	0.013328	60	10	60-180	60	103	GapExp	BigFlash	0	115	2	3	0	distractor	1	496	752	105803	13.328	13.098	13.553
ProbeTrack13	8	ProbeTrack	13.2	SCS215b	20111102.141340	20111102.142744	8	0.013328	60	10	60-180	60	83	GapExp	BigFlash	0	116	2	1	0	distractor	1	433	784	106587	13.328	13.310	13.353
ProbeTrack13	8	ProbeTrack	13.2	SCS215b	20111102.141340	20111102.142750	8	0.013328	60	10	60-180	60	144	GapExp	BigFlash	0	117	2	0	0	distractor	1	481	760	107347	13.328	13.310	13.352
ProbeTrack13	8	ProbeTrack	13.2	SCS215b	20111102.141340	20111102.142756	8	0.013328	60	10	60-180	60	141	GapExp	BigFlash	0	118	2	45	1	target	1	433	784	108131	13.328	11.724	14.920
ProbeTrack13	8	ProbeTrack	13.2	SCS215b	20111102.141340	20111102.142803	8	0.013328	60	10	60-180	60	108	GapExp	BigFlash	0	119	2	1	0	distractor	1	508	746	108877	13.328	9.312	17.349
ProbeTrack13	8	ProbeTrack	13.2	SCS215b	20111102.141340	20111102.142809	8	0.013328	60	10	60-180	60	87	GapExp	BigFlash	0	120	2	3	0	distractor	1	448	776	109653	13.328	10.972	15.680
ProbeTrack13	8	ProbeTrack	13.2	SCS215b	20111102.141340	20111102.142815	8	0.013328	60	10	60-180	60	118	GapExp	BigFlash	0	121	2	0	0	distractor	1	883	559	110212	13.328	7.199	19.441
ProbeTrack13	8	ProbeTrack	13.2	SCS215b	20111102.141340	20111102.142821	8	0.013328	60	10	60-180	60	177	GapExp	BigFlash	0	122	2	1	1	target	1	550	725	110937	13.328	13.308	13.354
ProbeTrack13	8	ProbeTrack	13.2	SCS215b	20111102.141340	20111102.142832	8	0.013328	60	10	60-180	60	152	GapExp	BigFlash	0	123	2	3	1	target	1	501	750	111687	13.328	10.952	15.705
ProbeTrack13	8	ProbeTrack	13.2	SCS215b	20111102.141340	20111102.142840	8	0.013328	60	10	60-180	60	176	GapExp	BigFlash	0	124	2	3	1	target	1	392	804	112491	13.328	13.109	13.563
ProbeTrack13	8	ProbeTrack	13.2	SCS215b	20111102.141340	20111102.142847	8	0.013328	60	10	60-180	60	103	GapExp	BigFlash	0	125	2	0	0	distractor	1	586	707	113198	13.328	9.776	16.882
ProbeTrack13	8	ProbeTrack	13.2	SCS215b	20111102.141340	20111102.142853	8	0.013328	60	10	60-180	60	68	GapExp	BigFlash	0	126	2	3	0	distractor	1	514	743	113941	13.328	6.933	19.720
ProbeTrack13	8	ProbeTrack	13.2	SCS215b	20111102.141340	20111102.142859	8	0.013328	60	10	60-180	60	69	GapExp	BigFlash	0	127	2	3	0	distractor	1	428	786	114727	13.328	13.312	13.350
ProbeTrack13	8	ProbeTrack	13.2	SCS215b	20111102.141340	20111102.142904	8	0.013328	60	10	60-180	60	149	GapExp	BigFlash	0	128	2	3	0	distractor	1	512	744	115471	13.328	13.098	13.553
ProbeTrack13	8	ProbeTrack	13.2	SCS215b	20111102.141340	20111102.142911	8	0.013328	60	10	60-180	60	146	GapExp	BigFlash	0	129	2	0	1	target	1	420	790	116261	13.328	10.589	16.069
ProbeTrack13	8	ProbeTrack	13.2	SCS215b	20111102.141340	20111102.142918	8	0.013328	60	10	60-180	60	131	GapExp	BigFlash	0	130	2	45	1	target	1	477	762	117023	13.328	9.823	16.844
ProbeTrack13	8	ProbeTrack	13.2	SCS215b	20111102.141340	20111102.142925	8	0.013328	60	10	60-180	60	160	GapExp	BigFlash	0	131	2	3	0	distractor	1	409	796	117819	13.328	13.104	13.550
ProbeTrack13	8	ProbeTrack	13.2	SCS215b	20111102.141340	20111102.142932	8	0.013328	60	10	60-180	60	156	GapExp	BigFlash	0	132	2	45	1	target	1	540	730	118549	13.328	5.346	21.325
ProbeTrack13	8	ProbeTrack	13.2	SCS215b	20111102.141340	20111102.142939	8	0.013328	60	10	60-180	60	115	GapExp	BigFlash	0	133	2	0	0	distractor	1	516	742	119291	13.328	13.084	13.568
ProbeTrack13	8	ProbeTrack	13.2	SCS215b	20111102.141340	20111102.142946	8	0.013328	60	10	60-180	60	151	GapExp	BigFlash	0	134	2	0	0	distractor	1	490	755	120046	13.328	9.890	16.767
ProbeTrack13	8	ProbeTrack	13.2	SCS215b	20111102.141340	20111102.142952	8	0.013328	60	10	60-180	60	128	GapExp	BigFlash	0	135	2	0	0	distractor	1	643	679	120725	13.328	13.101	13.571
ProbeTrack13	8	ProbeTrack	13.2	SCS215b	20111102.141340	20111102.142958	8	0.013328	60	10	60-180	60	113	GapExp	BigFlash	0	136	2	1	0	distractor	1	472	764	121489	13.328	12.745	13.906
ProbeTrack13	8	ProbeTrack	13.2	SCS215b	20111102.141340	20111102.143004	8	0.013328	60	10	60-180	60	119	GapExp	BigFlash	0	137	2	1	1	target	1	636	682	122171	13.318	10.859	13.357
ProbeTrack13	8	ProbeTrack	13.2	SCS215b	20111102.141340	20111102.143011	8	0.013328	60	10	60-180	60	140	GapExp	BigFlash	0	138	2	1	0	distractor	1	636	682	122853	13.328	12.518	14.135
ProbeTrack13	8	ProbeTrack	13.2	SCS215b	20111102.141340	20111102.143018	8	0.013328	60	10	60-180	60	129	GapExp	BigFlash	0	139	2	3	0	distractor	1	505	748	123601	13.328	13.108	13.550
ProbeTrack13	8	ProbeTrack	13.2	SCS215b	20111102.141340	20111102.143050	8	0.013328	60	10	60-180	60	126	GapExp	BigFlash	0	140	2	0	1	target	1	530	735	124336	13.328	13.082	13.571
ProbeTrack13	8	ProbeTrack	13.2	SCS215b	20111102.141340	20111102.143056	8	0.013328	60	10	60-180	60	84	GapExp	BigFlash	0	141	2	3	1	target	1	453	774	125110	13.328	13.309	13.355
ProbeTrack13	8	ProbeTrack	13.2	SCS215b	20111102.141340	20111102.143101	8	0.013328	60	10	60-180	60	65	GapExp	BigFlash	0	142	2	0	0	distractor	1	437	782	125892	13.328	13.103	13.551
ProbeTrack13	8	ProbeTrack	13.2	SCS215b	20111102.141340	20111102.143107	8	0.013328	60	10	60-180	60	177	GapExp	BigFlash	0	143	2	0	1	target	1	660	670	126562	13.328	13.100	13.552
ProbeTrack13	8	ProbeTrack	13.2	SCS215b	20111102.141340	20111102.143116	8	0.013328	60	10	60-180	60	127	GapExp	BigFlash	0	144	2	1	0	distractor	1	554	723	127285	13.328	12.344	14.332
ProbeTrack13	8	ProbeTrack	13.2	SCS215b	20111102.141340	20111102.143128	8	0.013328	60	10	60-180	60	69	GapExp	BigFlash	0	145	2	1	0	distractor	1	606	697	127982	13.328	13.310	13.350
ProbeTrack13	8	ProbeTrack	13.2	SCS215b	20111102.141340	20111102.143133	8	0.013328	60	10	60-180	60	121	GapExp	BigFlash	0	146	2	3	1	target	1	388	806	128788	13.328	12.718	13.953
ProbeTrack13	8	ProbeTrack	13.2	SCS215b	20111102.141340	20111102.143139	8	0.013328	60	10	60-180	60	141	GapExp	BigFlash	0	147	2	45	1	target	1	587	707	129495	13.328	13.102	13.552
ProbeTrack13	8	ProbeTrack	13.2	SCS215b	20111102.141340	20111102.143146	8	0.013328	60	10	60-180	60	109	GapExp	BigFlash	0	148	2	3	0	distractor	1	482	759	130254	13.328	13.103	13.547
ProbeTrack13	8	ProbeTrack	13.2	SCS215b	20111102.141340	20111102.143152	8	0.013328	60	10	60-180	60	159	GapExp	BigFlash	0	149	2	45	0	distractor	1	464	768	131022	13.328	6.229	20.443
ProbeTrack13	8	ProbeTrack	13.2	SCS215b	20111102.141340	20111102.143200	8	0.013328	60	10	60-180	60	85	GapExp	BigFlash	0	150	2	0	1	target	1	431	785	131807	13.328	13.302	13.358
ProbeTrack13	8	ProbeTrack	13.2	SCS215b	20111102.141340	20111102.143206	8	0.013328	60	10	60-180	60	131	GapExp	BigFlash	0	151	2	1	0	distractor	1	470	765	132572	13.328	13.301	13.351
ProbeTrack13	8	ProbeTrack	13.2	SCS215b	20111102.141340	20111102.143212	8	0.013328	60	10	60-180	60	62	GapExp	BigFlash	0	152	2	1	0	distractor	1	439	781	133353	13.328	13.101	13.550
ProbeTrack13	8	ProbeTrack	13.2	SCS215b	20111102.141340	20111102.143217	8	0.013328	60	10	60-180	60	169	GapExp	BigFlash	0	153	2	45	0	target	0	601	-1000	132353	13.328	12.509	14.162
ProbeTrack13	8	ProbeTrack	13.2	SCS215b	20111102.141340	20111102.143225	8	0.013328	60	10	60-180	60	61	GapExp	BigFlash	0	154	2	3	1	target	1	564	718	133071	13.328	13.311	13.346
ProbeTrack13	8	ProbeTrack	13.2	SCS215b	20111102.141340	20111102.143231	8	0.013328	60	10	60-180	60	71	GapExp	BigFlash	0	155	2	1	0	distractor	1	574	713	133784	13.328	13.304	13.350
ProbeTrack13	8	ProbeTrack	13.2	SCS215b	20111102.141340	20111102.143236	8	0.013328	60	10	60-180	60	105	GapExp	BigFlash	0	156	2	45	0	distractor	1	467	767	134551	13.328	12.000	14.650
ProbeTrack13	8	ProbeTrack	13.2	SCS215b	20111102.141340	20111102.143243	8	0.013328	60	10	60-180	60	150	GapExp	BigFlash	0	157	2	45	1	target	1	469	766	135317	13.328	11.279	15.368
ProbeTrack13	8	ProbeTrack	13.2	SCS215b	20111102.141340	20111102.143250	8	0.013328	60	10	60-180	60	138	GapExp	BigFlash	0	158	2	3	1	target	1	627	687	136004	13.328	10.816	15.841
ProbeTrack13	8	ProbeTrack	13.2	SCS215b	20111102.141340	20111102.143256	8	0.013328	60	10	60-180	60	133	GapExp	BigFlash	0	159	2	3	0	distractor	1	542	729	136733	13.328	9.480	17.166
ProbeTrack13	8	ProbeTrack	13.2	SCS215b	20111102.141340	20111102.143306	8	0.013328	60	10	60-180	60	117	GapExp	BigFlash	0	160	2	45	0	distractor	1	576	712	137445	13.328	13.302	13.350
ProbeTrack13	8	ProbeTrack	13.2	SCS215b	20111102.141340	20111102.143312	8	0.013328	60	10	60-180	60	64	GapExp	BigFlash	0	161	2	1	1	target	1	511	745	138190	13.328	12.582	14.081
ProbeTrack13	8	ProbeTrack	13.2	SCS215b	20111102.141340	20111102.143319	8	0.013328	60	10	60-180	60	146	GapExp	BigFlash	0	162	2	1	1	target	1	416	792	138982	13.328	9.678	16.977
ProbeTrack13	8	ProbeTrack	13.2	SCS215b	20111102.141340	20111102.143325	8	0.013328	60	10	60-180	60	106	GapExp	BigFlash	0	163	2	45	1	target	1	376	812	139794	13.328	11.130	15.524
ProbeTrack13	8	ProbeTrack	13.2	SCS215b	20111102.141340	20111102.143334	8	0.013328	60	10	60-180	60	136	GapExp	BigFlash	0	164	2	0	1	target	1	411	795	140589	13.328	11.330	15.322
ProbeTrack13	8	ProbeTrack	13.2	SCS215b	20111102.141340	20111102.143340	8	0.013328	60	10	60-180	60	157	GapExp	BigFlash	0	165	2	1	0	distractor	1	560	720	141309	13.328	13.282	13.368
ProbeTrack13	8	ProbeTrack	13.2	SCS215b	20111102.141340	20111102.143347	8	0.013328	60	10	60-180	60	110	GapExp	BigFlash	0	166	2	45	0	distractor	1	467	767	142076	13.328	13.030	13.622
ProbeTrack13	8	ProbeTrack	13.2	SCS215b	20111102.141340	20111102.143353	8	0.013328	60	10	60-180	60	69	GapExp	BigFlash	0	167	2	3	0	distractor	1	543	729	142805	13.328	11.443	15.241
ProbeTrack13	8	ProbeTrack	13.2	SCS215b	20111102.141340	20111102.143359	8	0.013328	60	10	60-180	60	77	GapExp	BigFlash	0	168	2	3	1	target	1	495	753	143558	13.328	13.039	13.634
ProbeTrack13	8	ProbeTrack	13.2	SCS215b	20111102.141340	20111102.143404	8	0.013328	60	10	60-180	60	176	GapExp	BigFlash	0	169	2	45	0	distractor	1	450	775	144333	13.328	4.909	21.742
ProbeTrack13	8	ProbeTrack	13.2	SCS215b	20111102.141340	20111102.143412	8	0.013328	60	10	60-180	60	115	GapExp	BigFlash	0	170	2	45	0	target	0	3188	-1000	143333	13.372	4.489	26.652
ProbeTrack13	8	ProbeTrack	13.2	SCS215b	20111102.141340	20111102.143421	8	0.013328	60	10	60-180	60	156	GapExp	BigFlash	0	171	2	1	1	target	1	745	628	143961	13.328	8.029	18.624
ProbeTrack13	8	ProbeTrack	13.2	SCS215b	20111102.141340	20111102.143431	8	0.013328	60	10	60-180	60	101	GapExp	BigFlash	0	172	2	0	1	target	1	719	641	144602	13.328	10.455	16.198
ProbeTrack13	8	ProbeTrack	13.2	SCS215b	20111102.141340	20111102.143438	8	0.013328	60	10	60-180	60	122	GapExp	BigFlash	0	173	2	45	1	target	1	390	805	145407	13.328	13.103	13.549
ProbeTrack13	8	ProbeTrack	13.2	SCS215b	20111102.141340	20111102.143445	8	0.013328	60	10	60-180	60	63	GapExp	BigFlash	0	174	2	1	0	distractor	1	566	717	146124	13.328	13.086	13.550
ProbeTrack13	8	ProbeTrack	13.2	SCS215b	20111102.141340	20111102.143451	8	0.013328	60	10	60-180	60	156	GapExp	BigFlash	0	175	2	1	1	target	1	425	788	146912	13.328	11.590	15.082
ProbeTrack13	8	ProbeTrack	13.2	SCS215b	20111102.141340	20111102.143458	8	0.013328	60	10	60-180	60	80	GapExp	BigFlash	0	176	2	0	1	target	1	428	786	147698	13.395	11.324	25.849
ProbeTrack13	8	ProbeTrack	13.2	SCS215b	20111102.141340	20111102.143504	8	0.013328	60	10	60-180	60	97	GapExp	BigFlash	0	177	2	3	1	target	1	867	567	148265	13.328	13.296	13.355
ProbeTrack13	8	ProbeTrack	13.2	SCS215b	20111102.141340	20111102.143510	8	0.013328	60	10	60-180	60	145	GapExp	BigFlash	0	178	2	1	1	target	1	353	824	149089	13.328	13.188	13.460
ProbeTrack13	8	ProbeTrack	13.2	SCS215b	20111102.141340	20111102.143516	8	0.013328	60	10	60-180	60	80	GapExp	BigFlash	0	179	2	1	0	distractor	1	513	744	149833	13.328	13.311	13.348
ProbeTrack13	8	ProbeTrack	13.2	SCS215b	20111102.141340	20111102.143522	8	0.013328	60	10	60-180	60	83	GapExp	BigFlash	0	180	2	0	1	target	1	436	782	150615	13.328	12.911	13.753
ProbeTrack13	8	ProbeTrack	13.2	SCS215b	20111102.141340	20111102.143528	8	0.013328	60	10	60-180	60	83	GapExp	BigFlash	0	181	2	3	0	distractor	1	532	734	151349	13.328	13.078	13.558
ProbeTrack13	8	ProbeTrack	13.2	SCS215b	20111102.141340	20111102.143533	8	0.013328	60	10	60-180	60	75	GapExp	BigFlash	0	182	2	3	0	distractor	1	614	693	152042	13.328	12.577	14.078
ProbeTrack13	8	ProbeTrack	13.2	SCS215b	20111102.141340	20111102.143539	8	0.013328	60	10	60-180	60	117	GapExp	BigFlash	0	183	2	1	1	target	1	580	710	152752	13.328	5.112	21.539
ProbeTrack13	8	ProbeTrack	13.2	SCS215b	20111102.141340	20111102.143545	8	0.013328	60	10	60-180	60	71	GapExp	BigFlash	0	184	2	0	0	distractor	1	496	752	153504	13.370	8.778	21.577
ProbeTrack13	8	ProbeTrack	13.2	SCS215b	20111102.141340	20111102.143550	8	0.013328	60	10	60-180	60	140	GapExp	BigFlash	0	185	2	45	1	target	1	468	766	154270	13.415	9.493	39.672
ProbeTrack13	8	ProbeTrack	13.2	SCS215b	20111102.141340	20111102.143557	8	0.013328	60	10	60-180	60	128	GapExp	BigFlash	0	186	2	45	1	target	1	403	799	155069	13.374	11.338	28.656
ProbeTrack13	8	ProbeTrack	13.2	SCS215b	20111102.141340	20111102.143610	8	0.013328	60	10	60-180	60	150	GapExp	BigFlash	0	187	2	1	1	distractor	0	403	-1000	154069	13.378	2.857	25.187
ProbeTrack13	8	ProbeTrack	13.2	SCS215b	20111102.141340	20111102.143617	8	0.013328	60	10	60-180	60	141	GapExp	BigFlash	0	188	2	0	1	target	1	421	790	154859	13.328	12.339	14.311
ProbeTrack13	8	ProbeTrack	13.2	SCS215b	20111102.141340	20111102.143623	8	0.013328	60	10	60-180	60	128	GapExp	BigFlash	0	189	2	45	1	target	1	361	820	155679	13.328	13.095	13.563
ProbeTrack13	8	ProbeTrack	13.2	SCS215b	20111102.141340	20111102.143631	8	0.013328	60	10	60-180	60	133	GapExp	BigFlash	0	190	2	3	1	target	1	378	811	156490	13.328	5.806	20.841
ProbeTrack13	8	ProbeTrack	13.2	SCS215b	20111102.141340	20111102.143637	8	0.013328	60	10	60-180	60	86	GapExp	BigFlash	0	191	2	0	1	target	1	382	809	157299	13.328	13.308	13.348
ProbeTrack13	8	ProbeTrack	13.2	SCS215b	20111102.141340	20111102.143643	8	0.013328	60	10	60-180	60	62	GapExp	BigFlash	0	192	2	0	0	distractor	1	464	768	158067	13.328	13.313	13.348
ProbeTrack13	8	ProbeTrack	13.2	SCS215b	20111102.141340	20111102.143648	8	0.013328	60	10	60-180	60	171	GapExp	BigFlash	0	193	2	0	0	distractor	1	609	696	158763	13.328	6.825	19.824
ProbeTrack13	8	ProbeTrack	13.2	SCS215b	20111102.141340	20111102.143656	8	0.013328	60	10	60-180	60	146	GapExp	BigFlash	0	194	2	3	1	target	1	392	804	159567	13.323	11.974	13.358
ProbeTrack13	8	ProbeTrack	13.2	SCS215b	20111102.141340	20111102.143702	8	0.013328	60	10	60-180	60	104	GapExp	BigFlash	0	195	2	3	1	target	1	556	722	160289	13.328	8.010	18.641
ProbeTrack13	8	ProbeTrack	13.2	SCS215b	20111102.141340	20111102.143708	8	0.013328	60	10	60-180	60	82	GapExp	BigFlash	0	196	2	3	0	distractor	1	502	749	161038	13.328	9.524	17.131
ProbeTrack13	8	ProbeTrack	13.2	SCS215b	20111102.141340	20111102.143714	8	0.013328	60	10	60-180	60	140	GapExp	BigFlash	0	197	2	3	0	distractor	1	451	775	161813	13.328	10.062	16.609
ProbeTrack13	8	ProbeTrack	13.2	SCS215b	20111102.141340	20111102.143720	8	0.013328	60	10	60-180	60	150	GapExp	BigFlash	0	198	2	0	0	distractor	1	518	741	162554	13.328	9.315	17.338
ProbeTrack13	8	ProbeTrack	13.2	SCS215b	20111102.141340	20111102.143727	8	0.013328	60	10	60-180	60	178	GapExp	BigFlash	0	199	2	0	1	target	1	424	788	163342	13.328	13.088	13.563
ProbeTrack13	8	ProbeTrack	13.2	SCS215b	20111102.141340	20111102.143734	8	0.013328	60	10	60-180	60	180	GapExp	BigFlash	0	200	2	1	0	distractor	1	401	800	164142	13.328	9.384	17.266
ProbeTrack13	8	ProbeTrack	13.2	SCS215b	20111102.143834	20111102.143852	8	0.013328	60	10	60-180	60	177	GapPrac	SmallFlash	1	1	2	0	0	distractor	1	1610	195	164337	13.369	11.481	15.191
ProbeTrack13	8	ProbeTrack	13.2	SCS215b	20111102.143834	20111102.143901	8	0.013328	60	10	60-180	60	105	GapPrac	SmallFlash	1	2	2	3	1	target	1	398	801	165138	13.387	13.070	25.833
ProbeTrack13	8	ProbeTrack	13.2	SCS215b	20111102.143834	20111102.143907	8	0.013328	60	10	60-180	60	178	GapPrac	SmallFlash	1	3	2	3	0	distractor	1	419	791	165929	13.328	8.430	18.222
ProbeTrack13	8	ProbeTrack	13.2	SCS215b	20111102.143834	20111102.143914	8	0.013328	60	10	60-180	60	163	GapPrac	SmallFlash	1	4	2	45	1	target	1	389	806	166735	13.328	12.762	13.880
ProbeTrack13	8	ProbeTrack	13.2	SCS215b	20111102.143834	20111102.143921	8	0.013328	60	10	60-180	60	96	GapPrac	SmallFlash	1	5	2	45	1	target	1	457	772	167507	13.327	3.864	22.796
ProbeTrack13	8	ProbeTrack	13.2	SCS215b	20111102.143834	20111102.143927	8	0.013328	60	10	60-180	60	136	GapPrac	SmallFlash	1	6	2	1	0	distractor	1	907	547	168054	13.328	13.100	13.551
ProbeTrack13	8	ProbeTrack	13.2	SCS215b	20111102.143834	20111102.143934	8	0.013328	60	10	60-180	60	93	GapPrac	SmallFlash	1	7	2	3	0	distractor	1	438	781	168835	13.328	12.989	13.679
ProbeTrack13	8	ProbeTrack	13.2	SCS215b	20111102.143834	20111102.143939	8	0.013328	60	10	60-180	60	87	GapPrac	SmallFlash	1	8	2	1	0	distractor	1	481	760	169595	13.328	13.102	13.570
ProbeTrack13	8	ProbeTrack	13.2	SCS215b	20111102.143834	20111102.143945	8	0.013328	60	10	60-180	60	139	GapPrac	SmallFlash	1	9	2	3	0	distractor	1	593	704	170299	13.328	13.310	13.349
ProbeTrack13	8	ProbeTrack	13.2	SCS215b	20111102.143834	20111102.143951	8	0.013328	60	10	60-180	60	65	GapPrac	SmallFlash	1	10	2	0	1	target	1	377	812	171111	13.328	11.677	14.994
ProbeTrack13	8	ProbeTrack	13.2	SCS215b	20111102.143834	20111102.143956	8	0.013328	60	10	60-180	60	72	GapPrac	SmallFlash	1	11	2	3	1	target	1	469	766	171877	13.328	13.304	13.367
ProbeTrack13	8	ProbeTrack	13.2	SCS215b	20111102.143834	20111102.144002	8	0.013328	60	10	60-180	60	110	GapPrac	SmallFlash	1	12	2	0	1	target	1	499	751	172628	13.328	13.101	13.550
ProbeTrack13	8	ProbeTrack	13.2	SCS215b	20111102.143834	20111102.144008	8	0.013328	60	10	60-180	60	85	GapPrac	SmallFlash	1	13	2	3	1	target	1	352	824	173452	13.328	8.271	18.403
ProbeTrack13	8	ProbeTrack	13.2	SCS215b	20111102.143834	20111102.144013	8	0.013328	60	10	60-180	60	150	GapPrac	SmallFlash	1	14	2	45	0	distractor	1	501	750	174202	13.328	11.076	15.574
ProbeTrack13	8	ProbeTrack	13.2	SCS215b	20111102.143834	20111102.144020	8	0.013328	60	10	60-180	60	126	GapPrac	SmallFlash	1	15	2	45	0	distractor	1	427	787	174989	13.328	10.389	15.455
ProbeTrack13	8	ProbeTrack	13.2	SCS215b	20111102.143834	20111102.144027	8	0.013328	60	10	60-180	60	118	GapPrac	SmallFlash	1	16	2	0	0	distractor	1	411	795	175784	13.328	11.466	15.186
ProbeTrack13	8	ProbeTrack	13.2	SCS215b	20111102.143834	20111102.144032	8	0.013328	60	10	60-180	60	107	GapPrac	SmallFlash	1	17	2	0	0	distractor	1	431	785	176569	13.328	13.265	13.387
ProbeTrack13	8	ProbeTrack	13.2	SCS215b	20111102.143834	20111102.144038	8	0.013328	60	10	60-180	60	96	GapPrac	SmallFlash	1	18	2	1	1	target	1	554	723	177292	13.328	13.306	13.349
ProbeTrack13	8	ProbeTrack	13.2	SCS215b	20111102.143834	20111102.144044	8	0.013328	60	10	60-180	60	87	GapPrac	SmallFlash	1	19	2	1	1	target	1	547	727	178019	13.328	9.833	16.839
ProbeTrack13	8	ProbeTrack	13.2	SCS215b	20111102.143834	20111102.144050	8	0.013328	60	10	60-180	60	84	GapPrac	SmallFlash	1	20	2	45	1	target	1	373	814	178833	13.328	13.103	13.571
ProbeTrack13	8	ProbeTrack	13.2	SCS215b	20111102.144116	20111102.144310	8	0.013328	60	10	60-180	60	82	GapExp	SmallFlash	1	1	2	45	0	distractor	1	412	794	179627	13.383	6.043	20.610
ProbeTrack13	8	ProbeTrack	13.2	SCS215b	20111102.144116	20111102.144318	8	0.013328	60	10	60-180	60	175	GapExp	SmallFlash	1	2	2	3	1	target	1	376	812	180439	13.328	10.917	15.736
ProbeTrack13	8	ProbeTrack	13.2	SCS215b	20111102.144116	20111102.144324	8	0.013328	60	10	60-180	60	160	GapExp	SmallFlash	1	3	2	0	1	target	1	367	817	181256	13.328	13.104	13.566
ProbeTrack13	8	ProbeTrack	13.2	SCS215b	20111102.144116	20111102.144331	8	0.013328	60	10	60-180	60	77	GapExp	SmallFlash	1	4	2	1	0	distractor	1	555	723	181979	13.328	9.098	17.563
ProbeTrack13	8	ProbeTrack	13.2	SCS215b	20111102.144116	20111102.144336	8	0.013328	60	10	60-180	60	77	GapExp	SmallFlash	1	5	2	1	1	target	1	371	815	182794	13.328	13.310	13.347
ProbeTrack13	8	ProbeTrack	13.2	SCS215b	20111102.144116	20111102.144341	8	0.013328	60	10	60-180	60	119	GapExp	SmallFlash	1	6	2	3	0	distractor	1	482	759	183553	13.328	13.101	13.571
ProbeTrack13	8	ProbeTrack	13.2	SCS215b	20111102.144116	20111102.144352	8	0.013328	60	10	60-180	60	157	GapExp	SmallFlash	1	7	2	0	0	distractor	1	513	744	184297	13.328	10.311	16.341
ProbeTrack13	8	ProbeTrack	13.2	SCS215b	20111102.144116	20111102.144359	8	0.013328	60	10	60-180	60	116	GapExp	SmallFlash	1	8	2	45	1	target	1	275	863	185160	13.378	13.102	26.854
ProbeTrack13	8	ProbeTrack	13.2	SCS215b	20111102.144116	20111102.144406	8	0.013328	60	10	60-180	60	139	GapExp	SmallFlash	0	9	2	3	0	distractor	1	375	813	185973	13.328	8.449	18.207
ProbeTrack13	8	ProbeTrack	13.2	SCS215b	20111102.144116	20111102.144418	8	0.013328	60	10	60-180	60	163	GapExp	SmallFlash	0	10	2	0	1	target	1	588	706	186679	13.328	9.890	16.761
ProbeTrack13	8	ProbeTrack	13.2	SCS215b	20111102.144116	20111102.144425	8	0.013328	60	10	60-180	60	71	GapExp	SmallFlash	0	11	2	45	0	distractor	1	424	788	187467	13.328	13.309	13.350
ProbeTrack13	8	ProbeTrack	13.2	SCS215b	20111102.144116	20111102.144431	8	0.013328	60	10	60-180	60	116	GapExp	SmallFlash	0	12	2	1	1	target	1	482	759	188226	13.328	13.299	13.360
ProbeTrack13	8	ProbeTrack	13.2	SCS215b	20111102.144116	20111102.144437	8	0.013328	60	10	60-180	60	85	GapExp	SmallFlash	0	13	2	1	0	distractor	1	459	771	188997	13.328	10.859	15.792
ProbeTrack13	8	ProbeTrack	13.2	SCS215b	20111102.144116	20111102.144442	8	0.013328	60	10	60-180	60	95	GapExp	SmallFlash	0	14	2	1	0	distractor	1	523	739	189736	13.328	10.929	15.744
ProbeTrack13	8	ProbeTrack	13.2	SCS215b	20111102.144116	20111102.144448	8	0.013328	60	10	60-180	60	77	GapExp	SmallFlash	0	15	2	0	1	target	1	369	816	190552	13.328	12.938	13.842
ProbeTrack13	8	ProbeTrack	13.2	SCS215b	20111102.144116	20111102.144454	8	0.013328	60	10	60-180	60	84	GapExp	SmallFlash	0	16	2	3	0	distractor	1	674	663	191215	13.328	13.289	13.382
ProbeTrack13	8	ProbeTrack	13.2	SCS215b	20111102.144116	20111102.144500	8	0.013328	60	10	60-180	60	115	GapExp	SmallFlash	0	17	2	45	0	distractor	1	467	767	191982	13.328	10.987	15.685
ProbeTrack13	8	ProbeTrack	13.2	SCS215b	20111102.144116	20111102.144507	8	0.013328	60	10	60-180	60	80	GapExp	SmallFlash	0	18	2	3	1	target	1	388	806	192788	13.328	13.232	13.529
ProbeTrack13	8	ProbeTrack	13.2	SCS215b	20111102.144116	20111102.144513	8	0.013328	60	10	60-180	60	133	GapExp	SmallFlash	0	19	2	45	0	distractor	1	343	829	193617	13.328	13.272	13.399
ProbeTrack13	8	ProbeTrack	13.2	SCS215b	20111102.144116	20111102.144519	8	0.013328	60	10	60-180	60	179	GapExp	SmallFlash	0	20	2	3	1	target	1	329	836	194453	13.328	8.983	17.673
ProbeTrack13	8	ProbeTrack	13.2	SCS215b	20111102.144116	20111102.144526	8	0.013328	60	10	60-180	60	159	GapExp	SmallFlash	0	21	2	1	1	distractor	0	344	-1000	193453	13.377	6.760	20.560
ProbeTrack13	8	ProbeTrack	13.2	SCS215b	20111102.144116	20111102.144532	8	0.013328	60	10	60-180	60	119	GapExp	SmallFlash	0	22	2	0	1	target	1	371	815	194268	13.385	13.097	25.522
ProbeTrack13	8	ProbeTrack	13.2	SCS215b	20111102.144116	20111102.144538	8	0.013328	60	10	60-180	60	81	GapExp	SmallFlash	0	23	2	0	0	distractor	1	538	731	194999	13.328	13.068	13.571
ProbeTrack13	8	ProbeTrack	13.2	SCS215b	20111102.144116	20111102.144543	8	0.013328	60	10	60-180	60	101	GapExp	SmallFlash	0	24	2	1	0	distractor	1	376	812	195811	13.328	13.100	13.566
ProbeTrack13	8	ProbeTrack	13.2	SCS215b	20111102.144116	20111102.144549	8	0.013328	60	10	60-180	60	91	GapExp	SmallFlash	0	25	2	0	0	distractor	1	414	793	196604	13.328	13.309	13.352
ProbeTrack13	8	ProbeTrack	13.2	SCS215b	20111102.144116	20111102.144554	8	0.013328	60	10	60-180	60	69	GapExp	SmallFlash	0	26	2	3	1	target	1	401	800	197404	13.328	13.305	13.350
ProbeTrack13	8	ProbeTrack	13.2	SCS215b	20111102.144116	20111102.144559	8	0.013328	60	10	60-180	60	167	GapExp	SmallFlash	0	27	2	0	1	target	1	825	588	197992	13.328	12.800	13.850
ProbeTrack13	8	ProbeTrack	13.2	SCS215b	20111102.144116	20111102.144606	8	0.013328	60	10	60-180	60	68	GapExp	SmallFlash	0	28	2	3	0	distractor	1	373	814	198806	13.328	8.522	18.207
ProbeTrack13	8	ProbeTrack	13.2	SCS215b	20111102.144116	20111102.144612	8	0.013328	60	10	60-180	60	61	GapExp	SmallFlash	0	29	2	1	0	distractor	1	386	807	199613	13.328	7.779	18.871
ProbeTrack13	8	ProbeTrack	13.2	SCS215b	20111102.144116	20111102.144616	8	0.013328	60	10	60-180	60	148	GapExp	SmallFlash	0	30	2	3	1	target	1	465	768	200381	13.328	13.301	13.356
ProbeTrack13	8	ProbeTrack	13.2	SCS215b	20111102.144116	20111102.144622	8	0.013328	60	10	60-180	60	74	GapExp	SmallFlash	0	31	2	45	1	target	1	340	830	201211	13.386	5.101	25.933
ProbeTrack13	8	ProbeTrack	13.2	SCS215b	20111102.144116	20111102.144628	8	0.013328	60	10	60-180	60	120	GapExp	SmallFlash	0	32	2	3	1	target	1	450	775	201986	13.383	13.089	26.444
ProbeTrack13	8	ProbeTrack	13.2	SCS215b	20111102.144116	20111102.144634	8	0.013328	60	10	60-180	60	140	GapExp	SmallFlash	0	33	2	0	0	distractor	1	431	785	202771	13.328	13.092	13.559
ProbeTrack13	8	ProbeTrack	13.2	SCS215b	20111102.144116	20111102.144640	8	0.013328	60	10	60-180	60	71	GapExp	SmallFlash	0	34	2	45	0	distractor	1	485	758	203529	13.328	3.467	23.186
ProbeTrack13	8	ProbeTrack	13.2	SCS215b	20111102.144116	20111102.144646	8	0.013328	60	10	60-180	60	62	GapExp	SmallFlash	0	35	2	1	0	distractor	1	410	795	204324	13.328	13.308	13.347
ProbeTrack13	8	ProbeTrack	13.2	SCS215b	20111102.144116	20111102.144651	8	0.013328	60	10	60-180	60	75	GapExp	SmallFlash	0	36	2	0	1	target	1	319	841	205165	13.328	5.289	21.371
ProbeTrack13	8	ProbeTrack	13.2	SCS215b	20111102.144116	20111102.144656	8	0.013328	60	10	60-180	60	179	GapExp	SmallFlash	0	37	2	3	0	distractor	1	392	804	205969	13.418	13.101	36.810
ProbeTrack13	8	ProbeTrack	13.2	SCS215b	20111102.144116	20111102.144703	8	0.013328	60	10	60-180	60	89	GapExp	SmallFlash	0	38	2	1	1	target	1	461	770	206739	13.328	10.185	16.456
ProbeTrack13	8	ProbeTrack	13.2	SCS215b	20111102.144116	20111102.144708	8	0.013328	60	10	60-180	60	149	GapExp	SmallFlash	0	39	2	3	0	distractor	1	346	827	207566	13.328	9.931	16.724
ProbeTrack13	8	ProbeTrack	13.2	SCS215b	20111102.144116	20111102.144714	8	0.013328	60	10	60-180	60	165	GapExp	SmallFlash	0	40	2	3	1	target	1	402	799	208365	13.328	8.205	18.539
ProbeTrack13	8	ProbeTrack	13.2	SCS215b	20111102.144116	20111102.144721	8	0.013328	60	10	60-180	60	90	GapExp	SmallFlash	0	41	2	0	0	distractor	1	435	783	209148	13.328	6.824	19.831
ProbeTrack13	8	ProbeTrack	13.2	SCS215b	20111102.144116	20111102.144726	8	0.013328	60	10	60-180	60	123	GapExp	SmallFlash	0	42	2	3	1	early	-4	-3438	-1000	208148	13.328	12.250	14.424
ProbeTrack13	8	ProbeTrack	13.2	SCS215b	20111102.144116	20111102.144732	8	0.013328	60	10	60-180	60	88	GapExp	SmallFlash	0	43	2	3	0	distractor	1	423	789	208937	13.328	12.939	13.714
ProbeTrack13	8	ProbeTrack	13.2	SCS215b	20111102.144116	20111102.144738	8	0.013328	60	10	60-180	60	78	GapExp	SmallFlash	0	44	2	0	0	distractor	1	384	808	209745	13.328	11.320	15.678
ProbeTrack13	8	ProbeTrack	13.2	SCS215b	20111102.144116	20111102.144746	8	0.013328	60	10	60-180	60	161	GapExp	SmallFlash	0	45	2	0	1	distractor	0	292	-1000	208745	13.328	11.974	14.821
ProbeTrack13	8	ProbeTrack	13.2	SCS215b	20111102.144116	20111102.144752	8	0.013328	60	10	60-180	60	82	GapExp	SmallFlash	0	46	2	45	1	target	1	297	852	209597	13.384	11.948	25.023
ProbeTrack13	8	ProbeTrack	13.2	SCS215b	20111102.144116	20111102.144758	8	0.013328	60	10	60-180	60	117	GapExp	SmallFlash	0	47	2	3	0	distractor	1	409	796	210393	13.328	10.844	15.815
ProbeTrack13	8	ProbeTrack	13.2	SCS215b	20111102.144116	20111102.144804	8	0.013328	60	10	60-180	60	122	GapExp	SmallFlash	0	48	2	45	1	target	1	260	870	211263	13.328	12.050	14.853
ProbeTrack13	8	ProbeTrack	13.2	SCS215b	20111102.144116	20111102.144810	8	0.013328	60	10	60-180	60	107	GapExp	SmallFlash	0	49	2	3	1	target	1	392	804	212067	13.328	11.458	15.181
ProbeTrack13	8	ProbeTrack	13.2	SCS215b	20111102.144116	20111102.144816	8	0.013328	60	10	60-180	60	167	GapExp	SmallFlash	0	50	2	45	1	distractor	0	313	-1000	211067	13.369	10.327	26.460
ProbeTrack13	8	ProbeTrack	13.2	SCS215b	20111102.144116	20111102.144823	8	0.013328	60	10	60-180	60	105	GapExp	SmallFlash	0	51	2	0	1	target	1	309	846	211913	13.390	13.021	26.662
ProbeTrack13	8	ProbeTrack	13.2	SCS215b	20111102.144116	20111102.144829	8	0.013328	60	10	60-180	60	111	GapExp	SmallFlash	0	52	2	1	0	distractor	1	454	773	212686	13.386	12.710	26.510
ProbeTrack13	8	ProbeTrack	13.2	SCS215b	20111102.144116	20111102.144834	8	0.013328	60	10	60-180	60	176	GapExp	SmallFlash	0	53	2	1	0	distractor	1	458	771	213457	13.328	10.770	15.883
ProbeTrack13	8	ProbeTrack	13.2	SCS215b	20111102.144116	20111102.144841	8	0.013328	60	10	60-180	60	178	GapExp	SmallFlash	0	54	2	1	0	early	-4	-4280	-1000	212457	13.327	13.099	13.350
ProbeTrack13	8	ProbeTrack	13.2	SCS215b	20111102.144116	20111102.144848	8	0.013328	60	10	60-180	60	65	GapExp	SmallFlash	0	55	2	0	0	distractor	1	405	798	213255	13.328	12.427	14.220
ProbeTrack13	8	ProbeTrack	13.2	SCS215b	20111102.144116	20111102.144855	8	0.013328	60	10	60-180	60	65	GapExp	SmallFlash	0	56	2	0	0	distractor	1	530	735	213990	13.328	13.082	13.570
ProbeTrack13	8	ProbeTrack	13.2	SCS215b	20111102.144116	20111102.144900	8	0.013328	60	10	60-180	60	103	GapExp	SmallFlash	0	57	2	45	1	target	1	307	847	214837	13.380	13.041	26.647
ProbeTrack13	8	ProbeTrack	13.2	SCS215b	20111102.144116	20111102.144906	8	0.013328	60	10	60-180	60	130	GapExp	SmallFlash	0	58	2	1	1	target	1	445	778	215615	13.328	13.101	13.568
ProbeTrack13	8	ProbeTrack	13.2	SCS215b	20111102.144116	20111102.144912	8	0.013328	60	10	60-180	60	111	GapExp	SmallFlash	0	59	2	1	1	target	1	472	764	216379	13.442	4.834	26.361
ProbeTrack13	8	ProbeTrack	13.2	SCS215b	20111102.144116	20111102.144918	8	0.013328	60	10	60-180	60	166	GapExp	SmallFlash	0	60	2	3	0	distractor	1	456	772	217151	13.374	13.106	26.457
ProbeTrack13	8	ProbeTrack	13.2	SCS215b	20111102.144116	20111102.144926	8	0.013328	60	10	60-180	60	111	GapExp	SmallFlash	0	61	2	0	1	target	1	463	769	217920	13.328	8.111	18.538
ProbeTrack13	8	ProbeTrack	13.2	SCS215b	20111102.144116	20111102.144932	8	0.013328	60	10	60-180	60	159	GapExp	SmallFlash	0	62	2	45	0	distractor	1	437	782	218702	13.328	12.973	13.694
ProbeTrack13	8	ProbeTrack	13.2	SCS215b	20111102.144116	20111102.144939	8	0.013328	60	10	60-180	60	177	GapExp	SmallFlash	0	63	2	3	1	target	1	419	791	219493	13.328	11.839	14.818
ProbeTrack13	8	ProbeTrack	13.2	SCS215b	20111102.144116	20111102.144947	8	0.013328	60	10	60-180	60	90	GapExp	SmallFlash	0	64	2	1	1	target	1	331	835	220328	13.328	12.855	13.798
ProbeTrack13	8	ProbeTrack	13.2	SCS215b	20111102.144116	20111102.144952	8	0.013328	60	10	60-180	60	125	GapExp	SmallFlash	0	65	2	45	0	distractor	1	452	774	221102	13.328	13.015	13.662
ProbeTrack13	8	ProbeTrack	13.2	SCS215b	20111102.144116	20111102.144959	8	0.013328	60	10	60-180	60	72	GapExp	SmallFlash	0	66	2	1	0	distractor	1	457	772	221874	13.328	12.389	14.282
ProbeTrack13	8	ProbeTrack	13.2	SCS215b	20111102.144116	20111102.145005	8	0.013328	60	10	60-180	60	134	GapExp	SmallFlash	0	67	2	45	1	distractor	0	313	-1000	220874	13.374	13.101	21.421
ProbeTrack13	8	ProbeTrack	13.2	SCS215b	20111102.144116	20111102.145011	8	0.013328	60	10	60-180	60	151	GapExp	SmallFlash	0	68	2	45	0	distractor	1	404	798	221672	13.328	10.670	15.974
ProbeTrack13	8	ProbeTrack	13.2	SCS215b	20111102.144116	20111102.145018	8	0.013328	60	10	60-180	60	176	GapExp	SmallFlash	0	69	2	3	1	target	1	351	825	222497	13.328	12.361	14.284
ProbeTrack13	8	ProbeTrack	13.2	SCS215b	20111102.144116	20111102.145025	8	0.013328	60	10	60-180	60	126	GapExp	SmallFlash	0	70	2	45	1	target	1	304	848	223345	13.328	13.226	13.440
ProbeTrack13	8	ProbeTrack	13.2	SCS215b	20111102.144116	20111102.145034	8	0.013328	60	10	60-180	60	87	GapExp	SmallFlash	0	71	2	3	1	target	1	389	806	224151	13.328	13.305	13.354
ProbeTrack13	8	ProbeTrack	13.2	SCS215b	20111102.144116	20111102.145039	8	0.013328	60	10	60-180	60	102	GapExp	SmallFlash	0	72	2	3	0	distractor	1	454	773	224924	13.328	8.992	17.660
ProbeTrack13	8	ProbeTrack	13.2	SCS215b	20111102.144116	20111102.145045	8	0.013328	60	10	60-180	60	175	GapExp	SmallFlash	0	73	2	3	0	distractor	1	407	797	225721	13.373	6.362	26.442
ProbeTrack13	8	ProbeTrack	13.2	SCS215b	20111102.144116	20111102.145051	8	0.013328	60	10	60-180	60	128	GapExp	SmallFlash	0	74	2	45	1	target	1	423	789	226510	13.328	13.040	13.578
ProbeTrack13	8	ProbeTrack	13.2	SCS215b	20111102.144116	20111102.145057	8	0.013328	60	10	60-180	60	179	GapExp	SmallFlash	0	75	2	0	1	target	1	697	652	227162	13.328	12.792	13.867
ProbeTrack13	8	ProbeTrack	13.2	SCS215b	20111102.144116	20111102.145105	8	0.013328	60	10	60-180	60	101	GapExp	SmallFlash	0	76	2	3	0	distractor	1	790	605	227767	13.381	8.605	20.343
ProbeTrack13	8	ProbeTrack	13.2	SCS215b	20111102.144116	20111102.145111	8	0.013328	60	10	60-180	60	61	GapExp	SmallFlash	0	77	2	3	0	distractor	1	495	753	228520	13.328	7.229	14.515
ProbeTrack13	8	ProbeTrack	13.2	SCS215b	20111102.144116	20111102.145116	8	0.013328	60	10	60-180	60	110	GapExp	SmallFlash	0	78	2	45	1	target	1	441	780	229300	13.328	10.641	16.023
ProbeTrack13	8	ProbeTrack	13.2	SCS215b	20111102.144116	20111102.145122	8	0.013328	60	10	60-180	60	176	GapExp	SmallFlash	0	79	2	3	0	distractor	1	417	792	230092	13.373	6.496	26.812
ProbeTrack13	8	ProbeTrack	13.2	SCS215b	20111102.144116	20111102.145129	8	0.013328	60	10	60-180	60	122	GapExp	SmallFlash	0	80	2	45	1	target	1	381	810	230902	13.328	6.835	19.820
ProbeTrack13	8	ProbeTrack	13.2	SCS215b	20111102.144116	20111102.145136	8	0.013328	60	10	60-180	60	146	GapExp	SmallFlash	0	81	2	1	1	target	1	433	784	231686	13.328	13.306	13.348
ProbeTrack13	8	ProbeTrack	13.2	SCS215b	20111102.144116	20111102.145142	8	0.013328	60	10	60-180	60	100	GapExp	SmallFlash	0	82	2	1	1	target	1	520	740	232426	13.328	13.315	13.347
ProbeTrack13	8	ProbeTrack	13.2	SCS215b	20111102.144116	20111102.145148	8	0.013328	60	10	60-180	60	83	GapExp	SmallFlash	0	83	2	0	0	distractor	1	533	734	233160	13.328	13.095	13.559
ProbeTrack13	8	ProbeTrack	13.2	SCS215b	20111102.144116	20111102.145153	8	0.013328	60	10	60-180	60	170	GapExp	SmallFlash	0	84	2	45	1	target	1	354	823	233983	13.328	12.715	13.946
ProbeTrack13	8	ProbeTrack	13.2	SCS215b	20111102.144116	20111102.145200	8	0.013328	60	10	60-180	60	117	GapExp	SmallFlash	0	85	2	1	0	distractor	1	444	778	234761	13.328	12.564	14.089
ProbeTrack13	8	ProbeTrack	13.2	SCS215b	20111102.144116	20111102.145207	8	0.013328	60	10	60-180	60	119	GapExp	SmallFlash	0	86	2	45	1	target	1	421	790	235551	13.328	13.102	13.573
ProbeTrack13	8	ProbeTrack	13.2	SCS215b	20111102.144116	20111102.145214	8	0.013328	60	10	60-180	60	95	GapExp	SmallFlash	0	87	2	1	0	distractor	1	485	758	236309	13.328	13.310	13.352
ProbeTrack13	8	ProbeTrack	13.2	SCS215b	20111102.144116	20111102.145219	8	0.013328	60	10	60-180	60	78	GapExp	SmallFlash	0	88	2	1	0	distractor	1	413	794	237103	13.328	8.725	18.770
ProbeTrack13	8	ProbeTrack	13.2	SCS215b	20111102.144116	20111102.145225	8	0.013328	60	10	60-180	60	179	GapExp	SmallFlash	0	89	2	3	1	target	1	370	815	237918	13.328	5.323	21.349
ProbeTrack13	8	ProbeTrack	13.2	SCS215b	20111102.144116	20111102.145231	8	0.013328	60	10	60-180	60	129	GapExp	SmallFlash	0	90	2	45	0	distractor	1	611	695	238613	13.328	9.803	16.851
ProbeTrack13	8	ProbeTrack	13.2	SCS215b	20111102.144116	20111102.145238	8	0.013328	60	10	60-180	60	114	GapExp	SmallFlash	0	91	2	1	1	target	1	422	789	239402	13.328	10.061	16.589
ProbeTrack13	8	ProbeTrack	13.2	SCS215b	20111102.144116	20111102.145245	8	0.013328	60	10	60-180	60	106	GapExp	SmallFlash	0	92	2	0	1	target	1	421	790	240192	13.328	13.087	13.565
ProbeTrack13	8	ProbeTrack	13.2	SCS215b	20111102.144116	20111102.145250	8	0.013328	60	10	60-180	60	117	GapExp	SmallFlash	0	93	2	0	1	target	1	334	833	241025	13.328	11.690	14.961
ProbeTrack13	8	ProbeTrack	13.2	SCS215b	20111102.144116	20111102.145256	8	0.013328	60	10	60-180	60	133	GapExp	SmallFlash	0	94	2	0	0	distractor	1	403	799	241824	13.328	13.312	13.348
ProbeTrack13	8	ProbeTrack	13.2	SCS215b	20111102.144116	20111102.145302	8	0.013328	60	10	60-180	60	129	GapExp	SmallFlash	0	95	2	0	0	distractor	1	378	811	242635	13.328	13.310	13.352
ProbeTrack13	8	ProbeTrack	13.2	SCS215b	20111102.144116	20111102.145308	8	0.013328	60	10	60-180	60	117	GapExp	SmallFlash	0	96	2	0	1	target	1	368	816	243451	13.328	8.584	18.070
ProbeTrack13	8	ProbeTrack	13.2	SCS215b	20111102.144116	20111102.145314	8	0.013328	60	10	60-180	60	145	GapExp	SmallFlash	0	97	2	1	0	distractor	1	466	767	244218	13.328	10.985	15.666
ProbeTrack13	8	ProbeTrack	13.2	SCS215b	20111102.144116	20111102.145320	8	0.013328	60	10	60-180	60	130	GapExp	SmallFlash	0	98	2	3	1	distractor	0	354	-1000	243218	13.328	10.834	15.818
ProbeTrack13	8	ProbeTrack	13.2	SCS215b	20111102.144116	20111102.145326	8	0.013328	60	10	60-180	60	94	GapExp	SmallFlash	0	99	2	1	0	distractor	1	388	806	244024	13.328	13.311	13.353
ProbeTrack13	8	ProbeTrack	13.2	SCS215b	20111102.144116	20111102.145332	8	0.013328	60	10	60-180	60	109	GapExp	SmallFlash	0	100	2	3	0	distractor	1	347	827	244851	13.387	13.171	26.787
ProbeTrack13	8	ProbeTrack	13.2	SCS215b	20111102.144116	20111102.145337	8	0.013328	60	10	60-180	60	123	GapExp	SmallFlash	0	101	2	0	0	distractor	1	434	783	245634	13.383	12.017	23.743
ProbeTrack13	8	ProbeTrack	13.2	SCS215b	20111102.144116	20111102.145343	8	0.013328	60	10	60-180	60	122	GapExp	SmallFlash	0	102	2	1	1	target	1	340	830	246464	13.442	13.288	37.109
ProbeTrack13	8	ProbeTrack	13.2	SCS215b	20111102.144116	20111102.145349	8	0.013328	60	10	60-180	60	82	GapExp	SmallFlash	0	103	2	0	1	distractor	0	285	-1000	245464	13.398	13.102	25.620
ProbeTrack13	8	ProbeTrack	13.2	SCS215b	20111102.144116	20111102.145354	8	0.013328	60	10	60-180	60	136	GapExp	SmallFlash	0	104	2	1	0	distractor	1	401	800	246264	13.328	12.923	13.729
ProbeTrack13	8	ProbeTrack	13.2	SCS215b	20111102.144116	20111102.145400	8	0.013328	60	10	60-180	60	112	GapExp	SmallFlash	0	105	2	45	1	target	1	309	846	247110	13.328	13.284	13.383
ProbeTrack13	8	ProbeTrack	13.2	SCS215b	20111102.144116	20111102.145406	8	0.013328	60	10	60-180	60	96	GapExp	SmallFlash	0	106	2	1	1	target	1	349	826	247936	13.328	13.295	13.366
ProbeTrack13	8	ProbeTrack	13.2	SCS215b	20111102.144116	20111102.145412	8	0.013328	60	10	60-180	60	140	GapExp	SmallFlash	0	107	2	1	1	target	1	436	782	248718	13.328	13.298	13.353
ProbeTrack13	8	ProbeTrack	13.2	SCS215b	20111102.144116	20111102.145417	8	0.013328	60	10	60-180	60	148	GapExp	SmallFlash	0	108	2	45	0	distractor	1	475	763	249481	13.328	13.301	13.357
ProbeTrack13	8	ProbeTrack	13.2	SCS215b	20111102.144116	20111102.145425	8	0.013328	60	10	60-180	60	167	GapExp	SmallFlash	0	109	2	1	1	target	1	378	811	250292	13.349	13.103	19.248
ProbeTrack13	8	ProbeTrack	13.2	SCS215b	20111102.144116	20111102.145435	8	0.013328	60	10	60-180	60	85	GapExp	SmallFlash	0	110	2	3	0	distractor	1	412	794	251086	13.328	13.311	13.348
ProbeTrack13	8	ProbeTrack	13.2	SCS215b	20111102.144116	20111102.145441	8	0.013328	60	10	60-180	60	151	GapExp	SmallFlash	0	111	2	45	1	target	1	301	850	251936	13.328	12.168	14.482
ProbeTrack13	8	ProbeTrack	13.2	SCS215b	20111102.144116	20111102.145447	8	0.013328	60	10	60-180	60	126	GapExp	SmallFlash	0	112	2	0	0	distractor	1	460	770	252706	13.328	13.299	13.372
ProbeTrack13	8	ProbeTrack	13.2	SCS215b	20111102.144116	20111102.145454	8	0.013328	60	10	60-180	60	125	GapExp	SmallFlash	0	113	2	45	0	distractor	1	377	812	253518	13.328	13.306	13.366
ProbeTrack13	8	ProbeTrack	13.2	SCS215b	20111102.144116	20111102.145501	8	0.013328	60	10	60-180	60	178	GapExp	SmallFlash	0	114	2	1	0	distractor	1	438	781	254299	13.328	13.294	13.357
ProbeTrack13	8	ProbeTrack	13.2	SCS215b	20111102.144116	20111102.145507	8	0.013328	60	10	60-180	60	68	GapExp	SmallFlash	0	115	2	0	0	distractor	1	695	653	254952	13.328	13.266	13.383
ProbeTrack13	8	ProbeTrack	13.2	SCS215b	20111102.144116	20111102.145513	8	0.013328	60	10	60-180	60	115	GapExp	SmallFlash	0	116	2	0	0	distractor	1	416	792	255744	13.328	6.116	20.542
ProbeTrack13	8	ProbeTrack	13.2	SCS215b	20111102.144116	20111102.145519	8	0.013328	60	10	60-180	60	121	GapExp	SmallFlash	0	117	2	1	0	distractor	1	401	800	256544	13.328	7.882	18.774
ProbeTrack13	8	ProbeTrack	13.2	SCS215b	20111102.144116	20111102.145525	8	0.013328	60	10	60-180	60	113	GapExp	SmallFlash	0	118	2	1	0	distractor	1	359	821	257365	13.328	12.738	13.939
ProbeTrack13	8	ProbeTrack	13.2	SCS215b	20111102.144116	20111102.145530	8	0.013328	60	10	60-180	60	89	GapExp	SmallFlash	0	119	2	3	1	target	1	432	784	258149	13.328	13.106	13.551
ProbeTrack13	8	ProbeTrack	13.2	SCS215b	20111102.144116	20111102.145539	8	0.013328	60	10	60-180	60	71	GapExp	SmallFlash	0	120	2	0	1	target	1	501	750	258899	13.328	10.598	16.049
ProbeTrack13	8	ProbeTrack	13.2	SCS215b	20111102.144116	20111102.145549	8	0.013328	60	10	60-180	60	138	GapExp	SmallFlash	0	121	2	0	0	distractor	1	458	771	259670	13.316	10.183	13.347
ProbeTrack13	8	ProbeTrack	13.2	SCS215b	20111102.144116	20111102.145555	8	0.013328	60	10	60-180	60	126	GapExp	SmallFlash	0	122	2	0	1	distractor	0	352	-1000	258670	13.328	13.307	13.350
ProbeTrack13	8	ProbeTrack	13.2	SCS215b	20111102.144116	20111102.145601	8	0.013328	60	10	60-180	60	129	GapExp	SmallFlash	0	123	2	45	1	target	1	310	845	259515	13.328	13.116	13.557
ProbeTrack13	8	ProbeTrack	13.2	SCS215b	20111102.144116	20111102.145607	8	0.013328	60	10	60-180	60	149	GapExp	SmallFlash	0	124	2	45	0	distractor	1	403	799	260314	13.328	13.105	13.550
ProbeTrack13	8	ProbeTrack	13.2	SCS215b	20111102.144116	20111102.145615	8	0.013328	60	10	60-180	60	169	GapExp	SmallFlash	0	125	2	1	1	target	1	403	799	261113	13.328	13.105	13.547
ProbeTrack13	8	ProbeTrack	13.2	SCS215b	20111102.144116	20111102.145621	8	0.013328	60	10	60-180	60	95	GapExp	SmallFlash	0	126	2	45	0	distractor	1	359	821	261934	13.328	8.922	17.749
ProbeTrack13	8	ProbeTrack	13.2	SCS215b	20111102.144116	20111102.145627	8	0.013328	60	10	60-180	60	124	GapExp	SmallFlash	0	127	2	45	0	distractor	1	428	786	262720	13.328	13.102	13.551
ProbeTrack13	8	ProbeTrack	13.2	SCS215b	20111102.144116	20111102.145634	8	0.013328	60	10	60-180	60	154	GapExp	SmallFlash	0	128	2	1	1	target	1	622	689	263409	13.328	10.268	16.380
ProbeTrack13	8	ProbeTrack	13.2	SCS215b	20111102.144116	20111102.145640	8	0.013328	60	10	60-180	60	63	GapExp	SmallFlash	0	129	2	3	0	distractor	1	398	801	264210	13.328	13.268	13.375
ProbeTrack13	8	ProbeTrack	13.2	SCS215b	20111102.144116	20111102.145646	8	0.013328	60	10	60-180	60	62	GapExp	SmallFlash	0	130	2	3	0	distractor	1	410	795	265005	13.328	13.310	13.347
ProbeTrack13	8	ProbeTrack	13.2	SCS215b	20111102.144116	20111102.145651	8	0.013328	60	10	60-180	60	103	GapExp	SmallFlash	0	131	2	1	1	target	1	445	778	265783	13.328	8.069	18.585
ProbeTrack13	8	ProbeTrack	13.2	SCS215b	20111102.144116	20111102.145656	8	0.013328	60	10	60-180	60	169	GapExp	SmallFlash	0	132	2	0	0	distractor	1	459	771	266554	13.328	4.026	22.624
ProbeTrack13	8	ProbeTrack	13.2	SCS215b	20111102.144116	20111102.145703	8	0.013328	60	10	60-180	60	99	GapExp	SmallFlash	0	133	2	3	1	target	1	447	777	267331	13.328	11.123	15.526
ProbeTrack13	8	ProbeTrack	13.2	SCS215b	20111102.144116	20111102.145709	8	0.013328	60	10	60-180	60	76	GapExp	SmallFlash	0	134	2	45	0	distractor	1	380	810	268141	13.328	9.191	17.461
ProbeTrack13	8	ProbeTrack	13.2	SCS215b	20111102.144116	20111102.145715	8	0.013328	60	10	60-180	60	158	GapExp	SmallFlash	0	135	2	45	0	distractor	1	343	829	268970	13.328	13.104	13.547
ProbeTrack13	8	ProbeTrack	13.2	SCS215b	20111102.144116	20111102.145722	8	0.013328	60	10	60-180	60	157	GapExp	SmallFlash	0	136	2	0	0	distractor	1	417	792	269762	13.328	13.040	13.631
ProbeTrack13	8	ProbeTrack	13.2	SCS215b	20111102.144116	20111102.145729	8	0.013328	60	10	60-180	60	146	GapExp	SmallFlash	0	137	2	45	0	distractor	1	367	817	270579	13.328	12.211	14.463
ProbeTrack13	8	ProbeTrack	13.2	SCS215b	20111102.144116	20111102.145736	8	0.013328	60	10	60-180	60	77	GapExp	SmallFlash	0	138	2	45	0	distractor	1	549	726	271305	13.328	10.096	16.577
ProbeTrack13	8	ProbeTrack	13.2	SCS215b	20111102.144116	20111102.145741	8	0.013328	60	10	60-180	60	108	GapExp	SmallFlash	0	139	2	3	0	distractor	1	570	715	272020	13.328	8.449	18.208
ProbeTrack13	8	ProbeTrack	13.2	SCS215b	20111102.144116	20111102.145747	8	0.013328	60	10	60-180	60	142	GapExp	SmallFlash	0	140	2	1	0	distractor	1	398	801	272821	13.328	12.858	13.796
ProbeTrack13	8	ProbeTrack	13.2	SCS215b	20111102.144116	20111102.145754	8	0.013328	60	10	60-180	60	151	GapExp	SmallFlash	0	141	2	0	0	distractor	1	430	785	273606	13.328	13.299	13.354
ProbeTrack13	8	ProbeTrack	13.2	SCS215b	20111102.144116	20111102.145800	8	0.013328	60	10	60-180	60	156	GapExp	SmallFlash	0	142	2	0	0	distractor	1	468	766	274372	13.328	12.879	13.769
ProbeTrack13	8	ProbeTrack	13.2	SCS215b	20111102.144116	20111102.145807	8	0.013328	60	10	60-180	60	162	GapExp	SmallFlash	0	143	2	3	0	distractor	1	452	774	275146	13.328	8.892	17.778
ProbeTrack13	8	ProbeTrack	13.2	SCS215b	20111102.144116	20111102.145813	8	0.013328	60	10	60-180	60	156	GapExp	SmallFlash	0	144	2	3	0	distractor	1	486	757	275903	13.328	9.615	17.036
ProbeTrack13	8	ProbeTrack	13.2	SCS215b	20111102.144116	20111102.145820	8	0.013328	60	10	60-180	60	75	GapExp	SmallFlash	0	145	2	45	0	distractor	1	537	732	276635	13.328	13.101	13.553
ProbeTrack13	8	ProbeTrack	13.2	SCS215b	20111102.144116	20111102.145826	8	0.013328	60	10	60-180	60	101	GapExp	SmallFlash	0	146	2	45	1	target	1	363	819	277454	13.328	13.106	13.570
ProbeTrack13	8	ProbeTrack	13.2	SCS215b	20111102.144116	20111102.145832	8	0.013328	60	10	60-180	60	70	GapExp	SmallFlash	0	147	2	0	1	distractor	0	354	-1000	276454	13.328	13.311	13.357
ProbeTrack13	8	ProbeTrack	13.2	SCS215b	20111102.144116	20111102.145837	8	0.013328	60	10	60-180	60	112	GapExp	SmallFlash	0	148	2	1	1	target	1	398	801	277255	13.328	13.307	13.361
ProbeTrack13	8	ProbeTrack	13.2	SCS215b	20111102.144116	20111102.145843	8	0.013328	60	10	60-180	60	166	GapExp	SmallFlash	0	149	2	0	0	distractor	1	393	804	278059	13.328	13.101	13.550
ProbeTrack13	8	ProbeTrack	13.2	SCS215b	20111102.144116	20111102.145849	8	0.013328	60	10	60-180	60	162	GapExp	SmallFlash	0	150	2	45	1	target	1	335	833	278892	13.328	13.308	13.350
ProbeTrack13	8	ProbeTrack	13.2	SCS215b	20111102.144116	20111102.145913	8	0.013328	60	10	60-180	60	77	GapExp	SmallFlash	0	151	2	45	1	target	1	592	704	279596	13.328	13.302	13.357
ProbeTrack13	8	ProbeTrack	13.2	SCS215b	20111102.144116	20111102.145919	8	0.013328	60	10	60-180	60	84	GapExp	SmallFlash	0	152	2	1	1	target	1	309	846	280442	13.328	7.769	18.890
ProbeTrack13	8	ProbeTrack	13.2	SCS215b	20111102.144116	20111102.145924	8	0.013328	60	10	60-180	60	114	GapExp	SmallFlash	0	153	2	3	1	target	1	362	819	281261	13.328	13.103	13.550
ProbeTrack13	8	ProbeTrack	13.2	SCS215b	20111102.144116	20111102.145930	8	0.013328	60	10	60-180	60	97	GapExp	SmallFlash	0	154	2	3	1	target	1	430	785	282046	13.328	11.253	15.399
ProbeTrack13	8	ProbeTrack	13.2	SCS215b	20111102.144116	20111102.145937	8	0.013328	60	10	60-180	60	123	GapExp	SmallFlash	0	155	2	45	1	target	1	482	759	282805	13.328	12.688	13.970
ProbeTrack13	8	ProbeTrack	13.2	SCS215b	20111102.144116	20111102.145944	8	0.013328	60	10	60-180	60	175	GapExp	SmallFlash	0	156	2	0	0	distractor	1	398	801	283606	13.328	8.744	17.907
ProbeTrack13	8	ProbeTrack	13.2	SCS215b	20111102.144116	20111102.145950	8	0.013328	60	10	60-180	60	87	GapExp	SmallFlash	0	157	2	3	0	distractor	1	368	816	284422	13.329	13.305	13.551
ProbeTrack13	8	ProbeTrack	13.2	SCS215b	20111102.144116	20111102.145956	8	0.013328	60	10	60-180	60	168	GapExp	SmallFlash	0	158	2	1	0	distractor	1	448	776	285198	13.328	12.467	14.190
ProbeTrack13	8	ProbeTrack	13.2	SCS215b	20111102.144116	20111102.150002	8	0.013328	60	10	60-180	60	159	GapExp	SmallFlash	0	159	2	3	1	target	1	651	675	285873	13.328	13.101	13.551
ProbeTrack13	8	ProbeTrack	13.2	SCS215b	20111102.144116	20111102.150018	8	0.013328	60	10	60-180	60	166	GapExp	SmallFlash	0	160	2	45	0	distractor	1	469	766	286639	13.328	7.937	18.724
ProbeTrack13	8	ProbeTrack	13.2	SCS215b	20111102.144116	20111102.150025	8	0.013328	60	10	60-180	60	138	GapExp	SmallFlash	0	161	2	45	1	distractor	0	384	-1000	285639	13.328	13.112	13.561
ProbeTrack13	8	ProbeTrack	13.2	SCS215b	20111102.144116	20111102.150032	8	0.013328	60	10	60-180	60	76	GapExp	SmallFlash	0	162	2	0	0	distractor	1	611	695	286334	13.329	9.898	16.774
ProbeTrack13	8	ProbeTrack	13.2	SCS215b	20111102.144116	20111102.150038	8	0.013328	60	10	60-180	60	154	GapExp	SmallFlash	0	163	2	1	1	target	1	355	823	287157	13.328	12.969	13.684
ProbeTrack13	8	ProbeTrack	13.2	SCS215b	20111102.144116	20111102.150044	8	0.013328	60	10	60-180	60	65	GapExp	SmallFlash	0	164	2	0	1	distractor	0	516	-1000	286157	13.328	13.309	13.348
ProbeTrack13	8	ProbeTrack	13.2	SCS215b	20111102.144116	20111102.150049	8	0.013328	60	10	60-180	60	78	GapExp	SmallFlash	0	165	2	0	1	target	1	364	818	286975	13.328	13.288	13.361
ProbeTrack13	8	ProbeTrack	13.2	SCS215b	20111102.144116	20111102.150054	8	0.013328	60	10	60-180	60	177	GapExp	SmallFlash	0	166	2	3	1	distractor	0	458	-1000	285975	13.328	13.310	13.348
ProbeTrack13	8	ProbeTrack	13.2	SCS215b	20111102.144116	20111102.150101	8	0.013328	60	10	60-180	60	90	GapExp	SmallFlash	0	167	2	45	1	target	1	325	838	286813	13.328	13.101	13.571
ProbeTrack13	8	ProbeTrack	13.2	SCS215b	20111102.144116	20111102.150108	8	0.013328	60	10	60-180	60	137	GapExp	SmallFlash	0	168	2	3	1	target	1	416	792	287605	13.328	11.958	14.695
ProbeTrack13	8	ProbeTrack	13.2	SCS215b	20111102.144116	20111102.150114	8	0.013328	60	10	60-180	60	77	GapExp	SmallFlash	0	169	2	0	0	distractor	1	450	775	288380	13.328	12.315	14.357
ProbeTrack13	8	ProbeTrack	13.2	SCS215b	20111102.144116	20111102.150120	8	0.013328	60	10	60-180	60	152	GapExp	SmallFlash	0	170	2	3	0	distractor	1	430	785	289165	13.328	13.096	13.554
ProbeTrack13	8	ProbeTrack	13.2	SCS215b	20111102.144116	20111102.150127	8	0.013328	60	10	60-180	60	163	GapExp	SmallFlash	0	171	2	3	0	distractor	1	423	789	289954	13.328	13.308	13.348
ProbeTrack13	8	ProbeTrack	13.2	SCS215b	20111102.144116	20111102.150138	8	0.013328	60	10	60-180	60	139	GapExp	SmallFlash	0	172	2	45	0	distractor	1	388	806	290760	13.328	7.586	19.065
ProbeTrack13	8	ProbeTrack	13.2	SCS215b	20111102.144116	20111102.150145	8	0.013328	60	10	60-180	60	114	GapExp	SmallFlash	0	173	2	0	1	target	1	364	818	291578	13.328	8.388	18.263
ProbeTrack13	8	ProbeTrack	13.2	SCS215b	20111102.144116	20111102.150152	8	0.013328	60	10	60-180	60	132	GapExp	SmallFlash	0	174	2	0	1	target	1	357	822	292400	13.328	13.084	13.570
ProbeTrack13	8	ProbeTrack	13.2	SCS215b	20111102.144116	20111102.150157	8	0.013328	60	10	60-180	60	146	GapExp	SmallFlash	0	175	2	3	1	target	1	288	856	293256	13.328	7.466	19.186
ProbeTrack13	8	ProbeTrack	13.2	SCS215b	20111102.144116	20111102.150204	8	0.013328	60	10	60-180	60	151	GapExp	SmallFlash	0	176	2	1	1	target	1	374	813	294069	13.328	13.101	13.550
ProbeTrack13	8	ProbeTrack	13.2	SCS215b	20111102.144116	20111102.150217	8	0.013328	60	10	60-180	60	124	GapExp	SmallFlash	0	177	2	1	1	target	1	374	813	294882	13.328	13.309	13.349
ProbeTrack13	8	ProbeTrack	13.2	SCS215b	20111102.144116	20111102.150223	8	0.013328	60	10	60-180	60	129	GapExp	SmallFlash	0	178	2	3	1	target	1	366	817	295699	13.328	13.311	13.348
ProbeTrack13	8	ProbeTrack	13.2	SCS215b	20111102.144116	20111102.150229	8	0.013328	60	10	60-180	60	90	GapExp	SmallFlash	0	179	2	0	1	target	1	382	809	296508	13.328	13.312	13.352
ProbeTrack13	8	ProbeTrack	13.2	SCS215b	20111102.144116	20111102.150235	8	0.013328	60	10	60-180	60	152	GapExp	SmallFlash	0	180	2	45	0	distractor	1	424	788	297296	13.328	13.267	13.383
ProbeTrack13	8	ProbeTrack	13.2	SCS215b	20111102.144116	20111102.150242	8	0.013328	60	10	60-180	60	61	GapExp	SmallFlash	0	181	2	1	0	target	0	421	-1000	296296	13.328	8.803	17.847
ProbeTrack13	8	ProbeTrack	13.2	SCS215b	20111102.144116	20111102.150247	8	0.013328	60	10	60-180	60	153	GapExp	SmallFlash	0	182	2	1	0	distractor	1	391	805	297101	13.328	12.474	14.196
ProbeTrack13	8	ProbeTrack	13.2	SCS215b	20111102.144116	20111102.150254	8	0.013328	60	10	60-180	60	137	GapExp	SmallFlash	0	183	2	1	1	target	1	390	805	297906	13.328	7.736	18.914
ProbeTrack13	8	ProbeTrack	13.2	SCS215b	20111102.144116	20111102.150306	8	0.013328	60	10	60-180	60	175	GapExp	SmallFlash	0	184	2	3	0	distractor	1	392	804	298710	13.328	10.183	16.468
ProbeTrack13	8	ProbeTrack	13.2	SCS215b	20111102.144116	20111102.150313	8	0.013328	60	10	60-180	60	102	GapExp	SmallFlash	0	185	2	45	1	target	1	480	760	299470	13.328	8.375	18.277
ProbeTrack13	8	ProbeTrack	13.2	SCS215b	20111102.144116	20111102.150323	8	0.013328	60	10	60-180	60	134	GapExp	SmallFlash	0	186	2	0	0	distractor	1	453	774	300244	13.328	13.306	13.347
ProbeTrack13	8	ProbeTrack	13.2	SCS215b	20111102.144116	20111102.150330	8	0.013328	60	10	60-180	60	82	GapExp	SmallFlash	0	187	2	3	1	target	1	501	750	300994	13.328	13.303	13.353
ProbeTrack13	8	ProbeTrack	13.2	SCS215b	20111102.144116	20111102.150335	8	0.013328	60	10	60-180	60	128	GapExp	SmallFlash	0	188	2	45	0	distractor	1	355	823	301817	13.328	13.113	13.550
ProbeTrack13	8	ProbeTrack	13.2	SCS215b	20111102.144116	20111102.150342	8	0.013328	60	10	60-180	60	74	GapExp	SmallFlash	0	189	2	0	1	target	1	464	768	302585	13.328	7.526	19.126
ProbeTrack13	8	ProbeTrack	13.2	SCS215b	20111102.144116	20111102.150348	8	0.013328	60	10	60-180	60	116	GapExp	SmallFlash	0	190	2	45	0	distractor	1	377	812	303397	13.328	6.648	20.015
ProbeTrack13	8	ProbeTrack	13.2	SCS215b	20111102.144116	20111102.150354	8	0.013328	60	10	60-180	60	164	GapExp	SmallFlash	0	191	2	1	1	target	1	463	769	304166	13.328	13.102	13.551
ProbeTrack13	8	ProbeTrack	13.2	SCS215b	20111102.144116	20111102.150402	8	0.013328	60	10	60-180	60	99	GapExp	SmallFlash	0	192	2	45	1	target	1	314	843	305009	13.328	13.099	13.564
ProbeTrack13	8	ProbeTrack	13.2	SCS215b	20111102.144116	20111102.150408	8	0.013328	60	10	60-180	60	176	GapExp	SmallFlash	0	193	2	45	1	target	1	433	784	305793	13.328	13.106	13.550
ProbeTrack13	8	ProbeTrack	13.2	SCS215b	20111102.144116	20111102.150416	8	0.013328	60	10	60-180	60	121	GapExp	SmallFlash	0	194	2	1	1	target	1	381	810	306603	13.328	8.775	17.876
ProbeTrack13	8	ProbeTrack	13.2	SCS215b	20111102.144116	20111102.150422	8	0.013328	60	10	60-180	60	137	GapExp	SmallFlash	0	195	2	0	1	target	1	450	775	307378	13.328	9.074	17.597
ProbeTrack13	8	ProbeTrack	13.2	SCS215b	20111102.144116	20111102.150430	8	0.013328	60	10	60-180	60	137	GapExp	SmallFlash	0	196	2	0	1	distractor	0	398	-1000	306378	13.328	5.191	21.458
ProbeTrack13	8	ProbeTrack	13.2	SCS215b	20111102.144116	20111102.150436	8	0.013328	60	10	60-180	60	79	GapExp	SmallFlash	0	197	2	1	0	distractor	1	1186	407	306785	13.328	13.310	13.362
ProbeTrack13	8	ProbeTrack	13.2	SCS215b	20111102.144116	20111102.150442	8	0.013328	60	10	60-180	60	65	GapExp	SmallFlash	0	198	2	3	1	target	1	387	807	307592	13.328	13.307	13.359
ProbeTrack13	8	ProbeTrack	13.2	SCS215b	20111102.144116	20111102.150447	8	0.013328	60	10	60-180	60	166	GapExp	SmallFlash	0	199	2	1	0	distractor	1	418	791	308383	13.328	8.753	17.899
ProbeTrack13	8	ProbeTrack	13.2	SCS215b	20111102.144116	20111102.150454	8	0.013328	60	10	60-180	60	137	GapExp	SmallFlash	0	200	2	45	0	distractor	1	386	807	309190	13.328	13.116	13.555
ProbeTrack13	8	ProbeTrack	13.2	SCS215b	20111102.150602	20111102.150625	8	0.013328	60	10	60-180	60	126	GapPrac	Blank	1	1	2	45	0	distractor	1	923	539	309729	13.370	9.842	16.851
ProbeTrack13	8	ProbeTrack	13.2	SCS215b	20111102.150602	20111102.150633	8	0.013328	60	10	60-180	60	80	GapPrac	Blank	1	2	2	0	0	distractor	1	340	830	310559	13.328	7.799	18.838
ProbeTrack13	8	ProbeTrack	13.2	SCS215b	20111102.150602	20111102.150638	8	0.013328	60	10	60-180	60	156	GapPrac	Blank	1	3	2	0	1	target	1	396	802	311361	13.328	11.548	15.107
ProbeTrack13	8	ProbeTrack	13.2	SCS215b	20111102.150602	20111102.150644	8	0.013328	60	10	60-180	60	67	GapPrac	Blank	1	4	2	1	1	target	1	555	723	312084	13.328	8.573	18.099
ProbeTrack13	8	ProbeTrack	13.2	SCS215b	20111102.150602	20111102.150649	8	0.013328	60	10	60-180	60	81	GapPrac	Blank	1	5	2	3	0	distractor	1	695	653	312737	13.388	13.085	24.944
ProbeTrack13	8	ProbeTrack	13.2	SCS215b	20111102.150602	20111102.150655	8	0.013328	60	10	60-180	60	84	GapPrac	Blank	1	6	2	3	0	distractor	1	497	752	313489	13.455	7.160	30.177
ProbeTrack13	8	ProbeTrack	13.2	SCS215b	20111102.150602	20111102.150701	8	0.013328	60	10	60-180	60	79	GapPrac	Blank	1	7	2	0	1	target	1	518	741	314230	13.328	7.094	19.565
ProbeTrack13	8	ProbeTrack	13.2	SCS215b	20111102.150602	20111102.150706	8	0.013328	60	10	60-180	60	146	GapPrac	Blank	1	8	2	1	1	target	1	566	717	314947	13.328	13.101	13.552
ProbeTrack13	8	ProbeTrack	13.2	SCS215b	20111102.150602	20111102.150717	8	0.013328	60	10	60-180	60	70	GapPrac	Blank	1	9	2	3	1	target	1	1264	368	315315	13.328	13.298	13.352
ProbeTrack13	8	ProbeTrack	13.2	SCS215b	20111102.150602	20111102.150723	8	0.013328	60	10	60-180	60	153	GapPrac	Blank	1	10	2	0	1	target	1	307	847	316162	13.328	12.146	14.506
ProbeTrack13	8	ProbeTrack	13.2	SCS215b	20111102.150602	20111102.150729	8	0.013328	60	10	60-180	60	131	GapPrac	Blank	1	11	2	1	0	distractor	1	481	760	316922	13.328	13.103	13.551
ProbeTrack13	8	ProbeTrack	13.2	SCS215b	20111102.150602	20111102.150739	8	0.013328	60	10	60-180	60	136	GapPrac	Blank	1	12	2	45	1	distractor	0	292	-1000	315922	13.328	13.099	13.551
ProbeTrack13	8	ProbeTrack	13.2	SCS215b	20111102.150602	20111102.150745	8	0.013328	60	10	60-180	60	62	GapPrac	Blank	1	13	2	1	0	distractor	1	501	750	316672	13.328	7.152	19.499
ProbeTrack13	8	ProbeTrack	13.2	SCS215b	20111102.150602	20111102.150751	8	0.013328	60	10	60-180	60	110	GapPrac	Blank	1	14	2	1	1	target	1	388	806	317478	13.328	13.279	13.375
ProbeTrack13	8	ProbeTrack	13.2	SCS215b	20111102.150602	20111102.150756	8	0.013328	60	10	60-180	60	138	GapPrac	Blank	1	15	2	3	1	target	1	389	806	318284	13.328	10.083	16.569
ProbeTrack13	8	ProbeTrack	13.2	SCS215b	20111102.150602	20111102.150802	8	0.013328	60	10	60-180	60	131	GapPrac	Blank	1	16	2	0	0	distractor	1	424	788	319072	13.328	7.469	19.202
ProbeTrack13	8	ProbeTrack	13.2	SCS215b	20111102.150602	20111102.150816	8	0.013328	60	10	60-180	60	174	GapPrac	Blank	1	17	2	45	0	distractor	1	410	795	319867	13.328	9.044	17.607
ProbeTrack13	8	ProbeTrack	13.2	SCS215b	20111102.150602	20111102.150825	8	0.013328	60	10	60-180	60	172	GapPrac	Blank	1	18	2	45	0	distractor	1	424	788	320655	13.328	13.310	13.349
ProbeTrack13	8	ProbeTrack	13.2	SCS215b	20111102.150602	20111102.150832	8	0.013328	60	10	60-180	60	73	GapPrac	Blank	1	19	2	0	0	distractor	1	645	678	321333	13.328	11.755	14.898
ProbeTrack13	8	ProbeTrack	13.2	SCS215b	20111102.150602	20111102.150838	8	0.013328	60	10	60-180	60	99	GapPrac	Blank	1	20	2	45	1	target	1	344	828	322161	13.328	9.807	16.845
ProbeTrack13	8	ProbeTrack	13.2	SCS215b	20111102.150908	20111102.150944	8	0.013328	60	10	60-180	60	93	GapExp	Blank	1	1	2	3	0	distractor	1	533	734	322895	13.388	11.835	14.819
ProbeTrack13	8	ProbeTrack	13.2	SCS215b	20111102.150908	20111102.150951	8	0.013328	60	10	60-180	60	153	GapExp	Blank	1	2	2	45	1	target	1	426	787	323682	13.328	6.312	20.339
ProbeTrack13	8	ProbeTrack	13.2	SCS215b	20111102.150908	20111102.150958	8	0.013328	60	10	60-180	60	149	GapExp	Blank	1	3	2	0	1	target	1	373	814	324496	13.328	13.309	13.354
ProbeTrack13	8	ProbeTrack	13.2	SCS215b	20111102.150908	20111102.151005	8	0.013328	60	10	60-180	60	115	GapExp	Blank	1	4	2	3	1	distractor	0	368	-1000	323496	13.328	13.282	13.373
ProbeTrack13	8	ProbeTrack	13.2	SCS215b	20111102.150908	20111102.151010	8	0.013328	60	10	60-180	60	93	GapExp	Blank	1	5	2	1	0	distractor	1	524	738	324234	13.328	13.309	13.351
ProbeTrack13	8	ProbeTrack	13.2	SCS215b	20111102.150908	20111102.151016	8	0.013328	60	10	60-180	60	153	GapExp	Blank	1	6	2	45	0	distractor	1	424	788	325022	13.328	13.104	13.548
ProbeTrack13	8	ProbeTrack	13.2	SCS215b	20111102.150908	20111102.151023	8	0.013328	60	10	60-180	60	122	GapExp	Blank	1	7	2	0	0	distractor	1	519	741	325763	13.328	10.794	15.877
ProbeTrack13	8	ProbeTrack	13.2	SCS215b	20111102.150908	20111102.151029	8	0.013328	60	10	60-180	60	145	GapExp	Blank	1	8	2	1	1	target	1	409	796	326559	13.328	9.053	17.606
ProbeTrack13	8	ProbeTrack	13.2	SCS215b	20111102.150908	20111102.151035	8	0.013328	60	10	60-180	60	168	GapExp	Blank	0	9	2	45	0	distractor	1	436	782	327341	13.328	5.639	21.019
ProbeTrack13	8	ProbeTrack	13.2	SCS215b	20111102.150908	20111102.151042	8	0.013328	60	10	60-180	60	97	GapExp	Blank	0	10	2	3	0	distractor	1	452	774	328115	13.328	8.639	18.015
ProbeTrack13	8	ProbeTrack	13.2	SCS215b	20111102.150908	20111102.151047	8	0.013328	60	10	60-180	60	107	GapExp	Blank	0	11	2	0	0	distractor	1	744	628	328743	13.328	13.105	13.563
ProbeTrack13	8	ProbeTrack	13.2	SCS215b	20111102.150908	20111102.151056	8	0.013328	60	10	60-180	60	75	GapExp	Blank	0	12	2	45	0	distractor	1	347	827	329570	13.328	13.308	13.349
ProbeTrack13	8	ProbeTrack	13.2	SCS215b	20111102.150908	20111102.151129	8	0.013328	60	10	60-180	60	171	GapExp	Blank	0	13	2	45	1	target	1	380	810	330380	13.328	13.102	13.550
ProbeTrack13	8	ProbeTrack	13.2	SCS215b	20111102.150908	20111102.151136	8	0.013328	60	10	60-180	60	154	GapExp	Blank	0	14	2	3	1	target	1	368	816	331196	13.328	11.837	14.814
ProbeTrack13	8	ProbeTrack	13.2	SCS215b	20111102.150908	20111102.151142	8	0.013328	60	10	60-180	60	129	GapExp	Blank	0	15	2	0	0	distractor	1	468	766	331962	13.328	12.977	13.678
ProbeTrack13	8	ProbeTrack	13.2	SCS215b	20111102.150908	20111102.151159	8	0.013328	60	10	60-180	60	105	GapExp	Blank	0	16	2	0	1	target	1	782	609	332571	13.328	6.114	20.542
ProbeTrack13	8	ProbeTrack	13.2	SCS215b	20111102.150908	20111102.151206	8	0.013328	60	10	60-180	60	80	GapExp	Blank	0	17	2	3	1	distractor	0	314	-1000	331571	13.328	13.099	13.554
ProbeTrack13	8	ProbeTrack	13.2	SCS215b	20111102.150908	20111102.151213	8	0.013328	60	10	60-180	60	68	GapExp	Blank	0	18	2	1	1	target	1	330	835	332406	13.328	12.063	14.588
ProbeTrack13	8	ProbeTrack	13.2	SCS215b	20111102.150908	20111102.151218	8	0.013328	60	10	60-180	60	64	GapExp	Blank	0	19	2	1	0	distractor	1	520	740	333146	13.328	6.983	19.685
ProbeTrack13	8	ProbeTrack	13.2	SCS215b	20111102.150908	20111102.151223	8	0.013328	60	10	60-180	60	116	GapExp	Blank	0	20	2	3	0	distractor	1	437	782	333928	13.328	4.119	22.540
ProbeTrack13	8	ProbeTrack	13.2	SCS215b	20111102.150908	20111102.151230	8	0.013328	60	10	60-180	60	88	GapExp	Blank	0	21	2	0	1	target	1	412	794	334722	13.328	11.061	15.610
ProbeTrack13	8	ProbeTrack	13.2	SCS215b	20111102.150908	20111102.151235	8	0.013328	60	10	60-180	60	112	GapExp	Blank	0	22	2	1	0	distractor	1	695	653	335375	13.328	10.399	16.251
ProbeTrack13	8	ProbeTrack	13.2	SCS215b	20111102.150908	20111102.151247	8	0.013328	60	10	60-180	60	139	GapExp	Blank	0	23	2	0	1	target	1	333	834	336209	13.328	9.738	16.933
ProbeTrack13	8	ProbeTrack	13.2	SCS215b	20111102.150908	20111102.151254	8	0.013328	60	10	60-180	60	165	GapExp	Blank	0	24	2	3	0	target	0	387	-1000	335209	13.328	13.094	13.555
ProbeTrack13	8	ProbeTrack	13.2	SCS215b	20111102.150908	20111102.151301	8	0.013328	60	10	60-180	60	156	GapExp	Blank	0	25	2	3	0	distractor	1	484	758	335967	13.328	13.309	13.352
ProbeTrack13	8	ProbeTrack	13.2	SCS215b	20111102.150908	20111102.151320	8	0.013328	60	10	60-180	60	153	GapExp	Blank	0	26	2	45	0	distractor	1	370	815	336782	13.328	7.897	18.755
ProbeTrack13	8	ProbeTrack	13.2	SCS215b	20111102.150908	20111102.151330	8	0.013328	60	10	60-180	60	147	GapExp	Blank	0	27	2	0	0	distractor	1	300	850	337632	13.328	13.108	13.544
ProbeTrack13	8	ProbeTrack	13.2	SCS215b	20111102.150908	20111102.151338	8	0.013328	60	10	60-180	60	123	GapExp	Blank	0	28	2	1	1	target	1	309	846	338478	13.328	13.308	13.347
ProbeTrack13	8	ProbeTrack	13.2	SCS215b	20111102.150908	20111102.151344	8	0.013328	60	10	60-180	60	168	GapExp	Blank	0	29	2	1	1	distractor	0	323	-1000	337478	13.328	10.440	16.211
ProbeTrack13	8	ProbeTrack	13.2	SCS215b	20111102.150908	20111102.151350	8	0.013328	60	10	60-180	60	65	GapExp	Blank	0	30	2	3	0	distractor	1	388	806	338284	13.328	6.698	19.961
ProbeTrack13	8	ProbeTrack	13.2	SCS215b	20111102.150908	20111102.151355	8	0.013328	60	10	60-180	60	172	GapExp	Blank	0	31	2	3	1	target	1	423	789	339073	13.328	13.289	13.363
ProbeTrack13	8	ProbeTrack	13.2	SCS215b	20111102.150908	20111102.151402	8	0.013328	60	10	60-180	60	62	GapExp	Blank	0	32	2	1	0	distractor	1	374	813	339886	13.328	9.464	17.209
ProbeTrack13	8	ProbeTrack	13.2	SCS215b	20111102.150908	20111102.151412	8	0.013328	60	10	60-180	60	120	GapExp	Blank	0	33	2	3	0	distractor	1	347	827	340713	13.328	8.373	18.281
ProbeTrack13	8	ProbeTrack	13.2	SCS215b	20111102.150908	20111102.151419	8	0.013328	60	10	60-180	60	126	GapExp	Blank	0	34	2	3	1	distractor	0	235	-1000	339713	13.328	11.057	15.594
ProbeTrack13	8	ProbeTrack	13.2	SCS215b	20111102.150908	20111102.151426	8	0.013328	60	10	60-180	60	120	GapExp	Blank	0	35	2	1	1	target	1	322	839	340552	13.328	13.081	13.570
ProbeTrack13	8	ProbeTrack	13.2	SCS215b	20111102.150908	20111102.151431	8	0.013328	60	10	60-180	60	102	GapExp	Blank	0	36	2	1	0	distractor	1	378	811	341363	13.328	13.296	13.361
ProbeTrack13	8	ProbeTrack	13.2	SCS215b	20111102.150908	20111102.151437	8	0.013328	60	10	60-180	60	84	GapExp	Blank	0	37	2	3	0	distractor	1	344	828	342191	13.328	12.475	14.201
ProbeTrack13	8	ProbeTrack	13.2	SCS215b	20111102.150908	20111102.151442	8	0.013328	60	10	60-180	60	155	GapExp	Blank	0	38	2	0	0	distractor	1	396	802	342993	13.328	12.227	14.429
ProbeTrack13	8	ProbeTrack	13.2	SCS215b	20111102.150908	20111102.151449	8	0.013328	60	10	60-180	60	98	GapExp	Blank	0	39	2	3	1	distractor	0	489	-1000	341993	13.387	9.001	26.399
ProbeTrack13	8	ProbeTrack	13.2	SCS215b	20111102.150908	20111102.151454	8	0.013328	60	10	60-180	60	79	GapExp	Blank	0	40	2	0	0	target	0	623	-1000	340993	13.328	13.103	13.567
ProbeTrack13	8	ProbeTrack	13.2	SCS215b	20111102.150908	20111102.151500	8	0.013328	60	10	60-180	60	130	GapExp	Blank	0	41	2	45	1	distractor	0	413	-1000	339993	13.328	11.197	15.474
ProbeTrack13	8	ProbeTrack	13.2	SCS215b	20111102.150908	20111102.151506	8	0.013328	60	10	60-180	60	153	GapExp	Blank	0	42	2	1	0	target	0	475	-1000	338993	13.328	6.612	20.041
ProbeTrack13	8	ProbeTrack	13.2	SCS215b	20111102.150908	20111102.151514	8	0.013328	60	10	60-180	60	167	GapExp	Blank	0	43	2	3	1	target	1	310	845	339838	13.328	11.945	14.706
ProbeTrack13	8	ProbeTrack	13.2	SCS215b	20111102.150908	20111102.151520	8	0.013328	60	10	60-180	60	111	GapExp	Blank	0	44	2	3	0	distractor	1	366	817	340655	13.328	10.644	16.009
ProbeTrack13	8	ProbeTrack	13.2	SCS215b	20111102.150908	20111102.151526	8	0.013328	60	10	60-180	60	105	GapExp	Blank	0	45	2	1	0	distractor	1	483	759	341414	13.328	5.905	20.750
ProbeTrack13	8	ProbeTrack	13.2	SCS215b	20111102.150908	20111102.151531	8	0.013328	60	10	60-180	60	143	GapExp	Blank	0	46	2	3	0	distractor	1	309	846	342260	13.328	5.113	21.558
ProbeTrack13	8	ProbeTrack	13.2	SCS215b	20111102.150908	20111102.151537	8	0.013328	60	10	60-180	60	154	GapExp	Blank	0	47	2	0	1	target	1	601	700	342960	13.328	7.358	19.295
ProbeTrack13	8	ProbeTrack	13.2	SCS215b	20111102.150908	20111102.151544	8	0.013328	60	10	60-180	60	161	GapExp	Blank	0	48	2	45	0	distractor	1	543	729	343689	13.328	13.095	13.575
ProbeTrack13	8	ProbeTrack	13.2	SCS215b	20111102.150908	20111102.151551	8	0.013328	60	10	60-180	60	64	GapExp	Blank	0	49	2	45	0	distractor	1	467	767	344456	13.328	12.511	14.140
ProbeTrack13	8	ProbeTrack	13.2	SCS215b	20111102.150908	20111102.151557	8	0.013328	60	10	60-180	60	174	GapExp	Blank	0	50	2	1	1	target	1	325	838	345294	13.328	13.307	13.354
ProbeTrack13	8	ProbeTrack	13.2	SCS215b	20111102.150908	20111102.151603	8	0.013328	60	10	60-180	60	123	GapExp	Blank	0	51	2	0	1	target	1	544	728	346022	13.328	13.090	13.568
ProbeTrack13	8	ProbeTrack	13.2	SCS215b	20111102.150908	20111102.151610	8	0.013328	60	10	60-180	60	107	GapExp	Blank	0	52	2	3	0	distractor	1	450	775	346797	13.328	9.521	17.143
ProbeTrack13	8	ProbeTrack	13.2	SCS215b	20111102.150908	20111102.151616	8	0.013328	60	10	60-180	60	131	GapExp	Blank	0	53	2	1	1	target	1	318	841	347638	13.383	4.905	21.747
ProbeTrack13	8	ProbeTrack	13.2	SCS215b	20111102.150908	20111102.151628	8	0.013328	60	10	60-180	60	138	GapExp	Blank	0	54	2	45	1	distractor	0	435	-1000	346638	13.328	13.285	13.359
ProbeTrack13	8	ProbeTrack	13.2	SCS215b	20111102.150908	20111102.151635	8	0.013328	60	10	60-180	60	125	GapExp	Blank	0	55	2	3	1	target	1	281	860	347498	13.385	10.901	21.537
ProbeTrack13	8	ProbeTrack	13.2	SCS215b	20111102.150908	20111102.151641	8	0.013328	60	10	60-180	60	67	GapExp	Blank	0	56	2	3	0	distractor	1	493	754	348252	13.328	13.100	13.536
ProbeTrack13	8	ProbeTrack	13.2	SCS215b	20111102.150908	20111102.151646	8	0.013328	60	10	60-180	60	63	GapExp	Blank	0	57	2	3	0	distractor	1	494	753	349005	13.398	12.149	27.828
ProbeTrack13	8	ProbeTrack	13.2	SCS215b	20111102.150908	20111102.151652	8	0.013328	60	10	60-180	60	178	GapExp	Blank	0	58	2	0	1	target	1	341	830	349835	13.328	13.107	13.550
ProbeTrack13	8	ProbeTrack	13.2	SCS215b	20111102.150908	20111102.151659	8	0.013328	60	10	60-180	60	120	GapExp	Blank	0	59	2	0	0	distractor	1	355	823	350658	13.443	10.270	36.598
ProbeTrack13	8	ProbeTrack	13.2	SCS215b	20111102.150908	20111102.151704	8	0.013328	60	10	60-180	60	120	GapExp	Blank	0	60	2	1	0	distractor	1	335	833	351491	13.328	13.310	13.350
ProbeTrack13	8	ProbeTrack	13.2	SCS215b	20111102.150908	20111102.151712	8	0.013328	60	10	60-180	60	139	GapExp	Blank	0	61	2	45	1	target	1	414	793	352284	13.328	9.808	16.843
ProbeTrack13	8	ProbeTrack	13.2	SCS215b	20111102.150908	20111102.151719	8	0.013328	60	10	60-180	60	102	GapExp	Blank	0	62	2	1	1	target	1	366	817	353101	13.328	10.814	15.850
ProbeTrack13	8	ProbeTrack	13.2	SCS215b	20111102.150908	20111102.151737	8	0.013328	60	10	60-180	60	88	GapExp	Blank	0	63	2	45	1	target	1	492	754	353855	13.328	6.189	20.462
ProbeTrack13	8	ProbeTrack	13.2	SCS215b	20111102.150908	20111102.151744	8	0.013328	60	10	60-180	60	178	GapExp	Blank	0	64	2	45	0	distractor	1	333	834	354689	13.328	11.973	14.674
ProbeTrack13	8	ProbeTrack	13.2	SCS215b	20111102.150908	20111102.151754	8	0.013328	60	10	60-180	60	92	GapExp	Blank	0	65	2	1	0	distractor	1	478	761	355450	13.328	13.312	13.348
ProbeTrack13	8	ProbeTrack	13.2	SCS215b	20111102.150908	20111102.151800	8	0.013328	60	10	60-180	60	142	GapExp	Blank	0	66	2	0	1	target	1	310	845	356295	13.328	9.040	17.615
ProbeTrack13	8	ProbeTrack	13.2	SCS215b	20111102.150908	20111102.151806	8	0.013328	60	10	60-180	60	158	GapExp	Blank	0	67	2	45	1	target	1	419	791	357086	13.328	9.956	16.703
