exp	sub	code	rev	comp	runtime	trialtime	nstim	refreshdur	cuedur	gapdur	gapOnsetRange	durPostProbe	gapOnsetTime	blocktype	gaptype	prac	trial	ntargets	soa	probeTarget	resp	acc	rt	pts	tpts	meanFrameDur	minFrameDur	maxFrameDur
ProbeTrack13	2	ProbeTrack	13.2	SCS215b	20111031.092555	20111031.092616	8	0.013328	60	0	60-180	60	68	NoGap	None	1	1	2	45	0	distractor	1	1907	47	47	13.382	13.115	13.532
ProbeTrack13	2	ProbeTrack	13.2	SCS215b	20111031.092555	20111031.092628	8	0.013328	60	0	60-180	60	127	NoGap	None	1	2	2	1	0	distractor	1	470	765	812	13.328	12.825	13.828
ProbeTrack13	2	ProbeTrack	13.2	SCS215b	20111031.092555	20111031.092647	8	0.013328	60	0	60-180	60	83	NoGap	None	1	3	2	45	1	target	1	417	792	1604	13.328	13.079	13.565
ProbeTrack13	2	ProbeTrack	13.2	SCS215b	20111031.092555	20111031.092655	8	0.013328	60	0	60-180	60	104	NoGap	None	1	4	2	0	1	target	1	291	855	2459	13.328	13.305	13.359
ProbeTrack13	2	ProbeTrack	13.2	SCS215b	20111031.092555	20111031.092720	8	0.013328	60	0	60-180	60	65	NoGap	None	1	5	2	1	1	distractor	0	390	-1000	1459	13.328	12.828	13.844
ProbeTrack13	2	ProbeTrack	13.2	SCS215b	20111031.092555	20111031.092726	8	0.013328	60	0	60-180	60	68	NoGap	None	1	6	2	45	0	distractor	1	553	724	2183	13.328	12.933	13.718
ProbeTrack13	2	ProbeTrack	13.2	SCS215b	20111031.092555	20111031.092734	8	0.013328	60	0	60-180	60	153	NoGap	None	1	7	2	3	0	distractor	1	564	718	2901	13.328	12.820	13.837
ProbeTrack13	2	ProbeTrack	13.2	SCS215b	20111031.092555	20111031.092740	8	0.013328	60	0	60-180	60	86	NoGap	None	1	8	2	45	0	distractor	1	440	780	3681	13.328	13.117	13.528
ProbeTrack13	2	ProbeTrack	13.2	SCS215b	20111031.092555	20111031.092747	8	0.013328	60	0	60-180	60	72	NoGap	None	1	9	2	0	1	distractor	0	375	-1000	2681	13.328	12.866	13.795
ProbeTrack13	2	ProbeTrack	13.2	SCS215b	20111031.092555	20111031.092753	8	0.013328	60	0	60-180	60	127	NoGap	None	1	10	2	3	0	distractor	1	472	764	3445	13.328	13.126	13.537
ProbeTrack13	2	ProbeTrack	13.2	SCS215b	20111031.092555	20111031.092801	8	0.013328	60	0	60-180	60	96	NoGap	None	1	11	2	1	0	distractor	1	431	785	4230	13.328	13.302	13.355
ProbeTrack13	2	ProbeTrack	13.2	SCS215b	20111031.092555	20111031.092808	8	0.013328	60	0	60-180	60	145	NoGap	None	1	12	2	0	1	target	1	559	721	4951	13.328	12.884	13.780
ProbeTrack13	2	ProbeTrack	13.2	SCS215b	20111031.092555	20111031.092815	8	0.013328	60	0	60-180	60	112	NoGap	None	1	13	2	3	1	target	1	588	706	5657	13.328	12.871	13.787
ProbeTrack13	2	ProbeTrack	13.2	SCS215b	20111031.092555	20111031.092822	8	0.013328	60	0	60-180	60	113	NoGap	None	1	14	2	1	1	target	1	553	724	6381	13.328	13.305	13.354
ProbeTrack13	2	ProbeTrack	13.2	SCS215b	20111031.092555	20111031.092829	8	0.013328	60	0	60-180	60	124	NoGap	None	1	15	2	45	0	distractor	1	724	638	7019	13.328	13.075	13.571
ProbeTrack13	2	ProbeTrack	13.2	SCS215b	20111031.092555	20111031.092837	8	0.013328	60	0	60-180	60	92	NoGap	None	1	16	2	45	0	distractor	1	539	731	7750	13.328	12.912	13.735
ProbeTrack13	2	ProbeTrack	13.2	SCS215b	20111031.092555	20111031.092844	8	0.013328	60	0	60-180	60	166	NoGap	None	1	17	2	45	1	target	1	461	770	8520	13.328	12.831	13.814
ProbeTrack13	2	ProbeTrack	13.2	SCS215b	20111031.092555	20111031.092852	8	0.013328	60	0	60-180	60	77	NoGap	None	1	18	2	1	0	distractor	1	540	730	9250	13.328	12.918	13.728
ProbeTrack13	2	ProbeTrack	13.2	SCS215b	20111031.092555	20111031.092858	8	0.013328	60	0	60-180	60	170	NoGap	None	1	19	2	0	0	distractor	1	432	784	10034	13.328	12.930	13.722
ProbeTrack13	2	ProbeTrack	13.2	SCS215b	20111031.092555	20111031.092910	8	0.013328	60	0	60-180	60	168	NoGap	None	1	20	2	45	1	target	1	443	779	10813	13.328	12.935	13.716
ProbeTrack13	2	ProbeTrack	13.2	SCS215b	20111031.092555	20111031.092918	8	0.013328	60	0	60-180	60	102	NoGap	None	1	21	2	0	1	target	1	444	778	11591	13.328	12.884	13.769
ProbeTrack13	2	ProbeTrack	13.2	SCS215b	20111031.092555	20111031.092925	8	0.013328	60	0	60-180	60	139	NoGap	None	1	22	2	0	0	distractor	1	698	651	12242	13.328	13.243	13.419
ProbeTrack13	2	ProbeTrack	13.2	SCS215b	20111031.092555	20111031.092933	8	0.013328	60	0	60-180	60	120	NoGap	None	1	23	2	0	1	target	1	513	744	12986	13.328	12.863	13.785
ProbeTrack13	2	ProbeTrack	13.2	SCS215b	20111031.092555	20111031.092940	8	0.013328	60	0	60-180	60	115	NoGap	None	1	24	2	1	0	distractor	1	533	734	13720	13.328	13.292	13.361
ProbeTrack13	2	ProbeTrack	13.2	SCS215b	20111031.092555	20111031.092947	8	0.013328	60	0	60-180	60	167	NoGap	None	1	25	2	0	0	distractor	1	468	766	14486	13.328	12.866	13.819
ProbeTrack13	2	ProbeTrack	13.2	SCS215b	20111031.092555	20111031.092955	8	0.013328	60	0	60-180	60	156	NoGap	None	1	26	2	3	0	distractor	1	455	773	15259	13.328	12.905	13.756
ProbeTrack13	2	ProbeTrack	13.2	SCS215b	20111031.092555	20111031.093002	8	0.013328	60	0	60-180	60	122	NoGap	None	1	27	2	1	1	target	1	637	682	15941	13.328	12.877	13.751
ProbeTrack13	2	ProbeTrack	13.2	SCS215b	20111031.092555	20111031.093010	8	0.013328	60	0	60-180	60	72	NoGap	None	1	28	2	3	1	target	1	734	633	16574	13.328	12.956	13.703
ProbeTrack13	2	ProbeTrack	13.2	SCS215b	20111031.092555	20111031.093017	8	0.013328	60	0	60-180	60	176	NoGap	None	1	29	2	3	0	distractor	1	510	745	17319	13.327	12.839	13.796
ProbeTrack13	2	ProbeTrack	13.2	SCS215b	20111031.092555	20111031.093024	8	0.013328	60	0	60-180	60	154	NoGap	None	1	30	2	1	1	target	1	389	806	18125	13.328	12.817	13.827
ProbeTrack13	2	ProbeTrack	13.2	SCS215b	20111031.092555	20111031.093031	8	0.013328	60	0	60-180	60	75	NoGap	None	1	31	2	0	0	distractor	1	755	623	18748	13.328	13.098	13.552
ProbeTrack13	2	ProbeTrack	13.2	SCS215b	20111031.092555	20111031.093038	8	0.013328	60	0	60-180	60	105	NoGap	None	1	32	2	3	1	target	1	500	750	19498	13.328	12.871	13.789
ProbeTrack13	2	ProbeTrack	13.2	SCS215b	20111031.092555	20111031.093044	8	0.013328	60	0	60-180	60	155	NoGap	None	1	33	2	45	1	target	1	436	782	20280	13.328	13.011	13.681
ProbeTrack13	2	ProbeTrack	13.2	SCS215b	20111031.092555	20111031.093053	8	0.013328	60	0	60-180	60	120	NoGap	None	1	34	2	1	1	target	1	573	714	20994	13.328	12.856	13.799
ProbeTrack13	2	ProbeTrack	13.2	SCS215b	20111031.092555	20111031.093100	8	0.013328	60	0	60-180	60	171	NoGap	None	1	35	2	45	1	target	1	426	787	21781	13.328	12.866	13.786
ProbeTrack13	2	ProbeTrack	13.2	SCS215b	20111031.092555	20111031.093108	8	0.013328	60	0	60-180	60	138	NoGap	None	1	36	2	3	1	target	1	473	764	22545	13.328	13.251	13.410
ProbeTrack13	2	ProbeTrack	13.2	SCS215b	20111031.092555	20111031.093115	8	0.013328	60	0	60-180	60	93	NoGap	None	1	37	2	0	0	distractor	1	669	666	23211	13.328	12.828	13.825
ProbeTrack13	2	ProbeTrack	13.2	SCS215b	20111031.092555	20111031.093122	8	0.013328	60	0	60-180	60	159	NoGap	None	1	38	2	3	1	target	1	457	772	23983	13.328	12.978	13.684
ProbeTrack13	2	ProbeTrack	13.2	SCS215b	20111031.092555	20111031.093130	8	0.013328	60	0	60-180	60	115	NoGap	None	1	39	2	3	0	distractor	1	553	724	24707	13.328	13.162	13.496
ProbeTrack13	2	ProbeTrack	13.2	SCS215b	20111031.092555	20111031.093136	8	0.013328	60	0	60-180	60	114	NoGap	None	1	40	2	1	0	distractor	1	460	770	25477	13.328	12.847	13.808
ProbeTrack13	2	ProbeTrack	13.2	SCS215b	20111031.093257	20111031.093303	8	0.013327	60	10	60-180	60	148	GapPrac	BigFlash	1	1	2	45	1	target	1	704	648	26125	13.368	12.901	13.763
ProbeTrack13	2	ProbeTrack	13.2	SCS215b	20111031.093257	20111031.093313	8	0.013327	60	10	60-180	60	77	GapPrac	BigFlash	1	2	2	45	0	distractor	1	517	742	26867	13.328	13.253	13.399
ProbeTrack13	2	ProbeTrack	13.2	SCS215b	20111031.093257	20111031.093320	8	0.013327	60	10	60-180	60	116	GapPrac	BigFlash	1	3	2	1	0	distractor	1	439	781	27648	13.328	12.870	13.784
ProbeTrack13	2	ProbeTrack	13.2	SCS215b	20111031.093257	20111031.093327	8	0.013327	60	10	60-180	60	125	GapPrac	BigFlash	1	4	2	1	1	target	1	522	739	28387	13.328	12.960	13.709
ProbeTrack13	2	ProbeTrack	13.2	SCS215b	20111031.093257	20111031.093334	8	0.013327	60	10	60-180	60	177	GapPrac	BigFlash	1	5	2	3	1	target	1	461	770	29157	13.328	12.889	13.761
ProbeTrack13	2	ProbeTrack	13.2	SCS215b	20111031.093257	20111031.093342	8	0.013327	60	10	60-180	60	142	GapPrac	BigFlash	1	6	2	3	1	target	1	502	749	29906	13.328	13.080	13.574
ProbeTrack13	2	ProbeTrack	13.2	SCS215b	20111031.093257	20111031.093350	8	0.013327	60	10	60-180	60	158	GapPrac	BigFlash	1	7	2	0	1	target	1	531	735	30641	13.328	12.932	13.731
ProbeTrack13	2	ProbeTrack	13.2	SCS215b	20111031.093257	20111031.093357	8	0.013327	60	10	60-180	60	80	GapPrac	BigFlash	1	8	2	0	0	distractor	1	616	692	31333	13.328	12.999	13.661
ProbeTrack13	2	ProbeTrack	13.2	SCS215b	20111031.093257	20111031.093403	8	0.013327	60	10	60-180	60	167	GapPrac	BigFlash	1	9	2	45	1	target	1	409	796	32129	13.328	12.851	13.794
ProbeTrack13	2	ProbeTrack	13.2	SCS215b	20111031.093257	20111031.093411	8	0.013327	60	10	60-180	60	111	GapPrac	BigFlash	1	10	2	45	0	distractor	1	550	725	32854	13.328	12.811	13.824
ProbeTrack13	2	ProbeTrack	13.2	SCS215b	20111031.093257	20111031.093418	8	0.013327	60	10	60-180	60	136	GapPrac	BigFlash	1	11	2	45	1	target	1	463	769	33623	13.328	12.929	13.714
ProbeTrack13	2	ProbeTrack	13.2	SCS215b	20111031.093257	20111031.093427	8	0.013327	60	10	60-180	60	176	GapPrac	BigFlash	1	12	2	1	1	target	1	526	737	34360	13.328	12.833	13.828
ProbeTrack13	2	ProbeTrack	13.2	SCS215b	20111031.093257	20111031.093434	8	0.013327	60	10	60-180	60	85	GapPrac	BigFlash	1	13	2	45	0	distractor	1	703	649	35009	13.328	13.198	13.465
ProbeTrack13	2	ProbeTrack	13.2	SCS215b	20111031.093257	20111031.093441	8	0.013327	60	10	60-180	60	97	GapPrac	BigFlash	1	14	2	3	0	distractor	1	531	735	35744	13.328	13.290	13.358
ProbeTrack13	2	ProbeTrack	13.2	SCS215b	20111031.093257	20111031.093447	8	0.013327	60	10	60-180	60	68	GapPrac	BigFlash	1	15	2	1	1	target	1	499	751	36495	13.328	12.946	13.720
ProbeTrack13	2	ProbeTrack	13.2	SCS215b	20111031.093257	20111031.093452	8	0.013327	60	10	60-180	60	114	GapPrac	BigFlash	1	16	2	1	0	distractor	1	385	808	37303	13.328	12.981	13.665
ProbeTrack13	2	ProbeTrack	13.2	SCS215b	20111031.093257	20111031.093500	8	0.013327	60	10	60-180	60	94	GapPrac	BigFlash	1	17	2	0	1	target	1	409	796	38099	13.328	12.968	13.726
ProbeTrack13	2	ProbeTrack	13.2	SCS215b	20111031.093257	20111031.093506	8	0.013327	60	10	60-180	60	89	GapPrac	BigFlash	1	18	2	0	0	distractor	1	482	759	38858	13.328	13.025	13.817
ProbeTrack13	2	ProbeTrack	13.2	SCS215b	20111031.093257	20111031.093512	8	0.013327	60	10	60-180	60	127	GapPrac	BigFlash	1	19	2	3	0	distractor	1	417	792	39650	13.328	12.887	13.800
ProbeTrack13	2	ProbeTrack	13.2	SCS215b	20111031.093257	20111031.093519	8	0.013327	60	10	60-180	60	132	GapPrac	BigFlash	1	20	2	1	0	distractor	1	396	802	40452	13.328	13.094	13.562
ProbeTrack13	2	ProbeTrack	13.2	SCS215b	20111031.093613	20111031.093623	8	0.013328	60	10	60-180	60	111	GapExp	BigFlash	1	1	2	0	1	target	1	438	781	41233	13.386	13.062	13.582
ProbeTrack13	2	ProbeTrack	13.2	SCS215b	20111031.093613	20111031.093632	8	0.013328	60	10	60-180	60	118	GapExp	BigFlash	1	2	2	45	1	target	1	446	777	42010	13.328	13.164	13.497
ProbeTrack13	2	ProbeTrack	13.2	SCS215b	20111031.093613	20111031.093640	8	0.013328	60	10	60-180	60	119	GapExp	BigFlash	1	3	2	3	1	target	1	408	796	42806	13.328	13.303	13.351
ProbeTrack13	2	ProbeTrack	13.2	SCS215b	20111031.093613	20111031.093646	8	0.013328	60	10	60-180	60	159	GapExp	BigFlash	1	4	2	0	0	distractor	1	410	795	43601	13.328	13.302	13.353
ProbeTrack13	2	ProbeTrack	13.2	SCS215b	20111031.093613	20111031.093653	8	0.013328	60	10	60-180	60	81	GapExp	BigFlash	1	5	2	3	0	distractor	1	501	750	44351	13.328	13.052	13.602
ProbeTrack13	2	ProbeTrack	13.2	SCS215b	20111031.093613	20111031.093659	8	0.013328	60	10	60-180	60	93	GapExp	BigFlash	1	6	2	45	0	distractor	1	356	822	45173	13.328	13.243	13.414
ProbeTrack13	2	ProbeTrack	13.2	SCS215b	20111031.093613	20111031.093706	8	0.013328	60	10	60-180	60	126	GapExp	BigFlash	1	7	2	1	1	target	1	409	796	45969	13.328	12.922	13.739
ProbeTrack13	2	ProbeTrack	13.2	SCS215b	20111031.093613	20111031.093713	8	0.013328	60	10	60-180	60	168	GapExp	BigFlash	1	8	2	1	0	distractor	1	392	804	46773	13.328	12.890	13.763
ProbeTrack13	2	ProbeTrack	13.2	SCS215b	20111031.093613	20111031.093720	8	0.013328	60	10	60-180	60	104	GapExp	BigFlash	0	9	2	0	0	distractor	1	426	787	47560	13.328	12.859	13.801
ProbeTrack13	2	ProbeTrack	13.2	SCS215b	20111031.093613	20111031.093726	8	0.013328	60	10	60-180	60	97	GapExp	BigFlash	0	10	2	1	1	target	1	501	750	48310	13.328	12.850	13.808
ProbeTrack13	2	ProbeTrack	13.2	SCS215b	20111031.093613	20111031.093732	8	0.013328	60	10	60-180	60	130	GapExp	BigFlash	0	11	2	0	0	distractor	1	378	811	49121	13.328	12.911	13.753
ProbeTrack13	2	ProbeTrack	13.2	SCS215b	20111031.093613	20111031.093739	8	0.013328	60	10	60-180	60	78	GapExp	BigFlash	0	12	2	3	0	distractor	1	453	774	49895	13.329	13.095	13.567
ProbeTrack13	2	ProbeTrack	13.2	SCS215b	20111031.093613	20111031.093745	8	0.013328	60	10	60-180	60	146	GapExp	BigFlash	0	13	2	3	1	target	1	515	743	50638	13.328	13.097	13.555
ProbeTrack13	2	ProbeTrack	13.2	SCS215b	20111031.093613	20111031.093751	8	0.013328	60	10	60-180	60	97	GapExp	BigFlash	0	14	2	45	0	distractor	1	440	780	51418	13.328	12.884	13.777
ProbeTrack13	2	ProbeTrack	13.2	SCS215b	20111031.093613	20111031.093758	8	0.013328	60	10	60-180	60	171	GapExp	BigFlash	0	15	2	1	0	distractor	1	446	777	52195	13.328	12.853	13.807
ProbeTrack13	2	ProbeTrack	13.2	SCS215b	20111031.093613	20111031.093805	8	0.013328	60	10	60-180	60	107	GapExp	BigFlash	0	16	2	45	0	distractor	1	402	799	52994	13.328	13.103	13.550
ProbeTrack13	2	ProbeTrack	13.2	SCS215b	20111031.093613	20111031.093813	8	0.013328	60	10	60-180	60	172	GapExp	BigFlash	0	17	2	0	1	target	1	413	794	53788	13.328	12.967	13.674
ProbeTrack13	2	ProbeTrack	13.2	SCS215b	20111031.093613	20111031.093820	8	0.013328	60	10	60-180	60	116	GapExp	BigFlash	0	18	2	1	0	distractor	1	433	784	54572	13.328	12.986	13.671
ProbeTrack13	2	ProbeTrack	13.2	SCS215b	20111031.093613	20111031.093826	8	0.013328	60	10	60-180	60	117	GapExp	BigFlash	0	19	2	3	1	target	1	393	804	55376	13.328	12.984	13.681
ProbeTrack13	2	ProbeTrack	13.2	SCS215b	20111031.093613	20111031.093832	8	0.013328	60	10	60-180	60	100	GapExp	BigFlash	0	20	2	0	0	distractor	1	462	769	56145	13.328	13.253	13.408
ProbeTrack13	2	ProbeTrack	13.2	SCS215b	20111031.093613	20111031.093838	8	0.013328	60	10	60-180	60	161	GapExp	BigFlash	0	21	2	3	1	target	1	395	803	56948	13.328	12.973	13.695
ProbeTrack13	2	ProbeTrack	13.2	SCS215b	20111031.093613	20111031.093846	8	0.013328	60	10	60-180	60	178	GapExp	BigFlash	0	22	2	1	1	target	1	392	804	57752	13.328	12.947	13.718
ProbeTrack13	2	ProbeTrack	13.2	SCS215b	20111031.093613	20111031.093853	8	0.013328	60	10	60-180	60	169	GapExp	BigFlash	0	23	2	0	1	target	1	391	805	58557	13.328	12.933	13.719
ProbeTrack13	2	ProbeTrack	13.2	SCS215b	20111031.093613	20111031.093900	8	0.013328	60	10	60-180	60	123	GapExp	BigFlash	0	24	2	3	0	distractor	1	443	779	59336	13.328	13.250	13.416
ProbeTrack13	2	ProbeTrack	13.2	SCS215b	20111031.093613	20111031.093906	8	0.013328	60	10	60-180	60	70	GapExp	BigFlash	0	25	2	0	1	target	1	470	765	60101	13.328	12.812	13.838
ProbeTrack13	2	ProbeTrack	13.2	SCS215b	20111031.093613	20111031.093912	8	0.013328	60	10	60-180	60	85	GapExp	BigFlash	0	26	2	45	0	distractor	1	442	779	60880	13.328	12.991	13.685
ProbeTrack13	2	ProbeTrack	13.2	SCS215b	20111031.093613	20111031.093919	8	0.013328	60	10	60-180	60	147	GapExp	BigFlash	0	27	2	3	1	target	1	340	830	61710	13.328	12.869	13.797
ProbeTrack13	2	ProbeTrack	13.2	SCS215b	20111031.093613	20111031.093926	8	0.013328	60	10	60-180	60	162	GapExp	BigFlash	0	28	2	1	1	target	1	347	827	62537	13.328	13.112	13.536
ProbeTrack13	2	ProbeTrack	13.2	SCS215b	20111031.093613	20111031.093932	8	0.013328	60	10	60-180	60	108	GapExp	BigFlash	0	29	2	0	1	target	1	358	821	63358	13.328	13.307	13.351
ProbeTrack13	2	ProbeTrack	13.2	SCS215b	20111031.093613	20111031.093939	8	0.013328	60	10	60-180	60	169	GapExp	BigFlash	0	30	2	0	1	target	1	305	848	64206	13.328	12.831	13.816
ProbeTrack13	2	ProbeTrack	13.2	SCS215b	20111031.093613	20111031.093946	8	0.013328	60	10	60-180	60	110	GapExp	BigFlash	0	31	2	1	0	distractor	1	504	748	64954	13.328	12.887	13.760
ProbeTrack13	2	ProbeTrack	13.2	SCS215b	20111031.093613	20111031.093953	8	0.013328	60	10	60-180	60	142	GapExp	BigFlash	0	32	2	3	0	distractor	1	402	799	65753	13.328	12.915	13.743
ProbeTrack13	2	ProbeTrack	13.2	SCS215b	20111031.093613	20111031.094000	8	0.013328	60	10	60-180	60	71	GapExp	BigFlash	0	33	2	3	0	distractor	1	428	786	66539	13.330	12.843	13.816
ProbeTrack13	2	ProbeTrack	13.2	SCS215b	20111031.093613	20111031.094005	8	0.013328	60	10	60-180	60	179	GapExp	BigFlash	0	34	2	1	0	distractor	1	459	771	67310	13.328	13.093	13.552
ProbeTrack13	2	ProbeTrack	13.2	SCS215b	20111031.093613	20111031.094013	8	0.013328	60	10	60-180	60	169	GapExp	BigFlash	0	35	2	3	0	distractor	1	315	843	68153	13.328	13.008	13.656
ProbeTrack13	2	ProbeTrack	13.2	SCS215b	20111031.093613	20111031.094020	8	0.013328	60	10	60-180	60	155	GapExp	BigFlash	0	36	2	45	0	target	0	498	-1000	67153	13.328	12.933	13.734
ProbeTrack13	2	ProbeTrack	13.2	SCS215b	20111031.093613	20111031.094028	8	0.013328	60	10	60-180	60	154	GapExp	BigFlash	0	37	2	3	1	target	1	449	776	67929	13.328	12.945	13.712
ProbeTrack13	2	ProbeTrack	13.2	SCS215b	20111031.093613	20111031.094035	8	0.013328	60	10	60-180	60	97	GapExp	BigFlash	0	38	2	3	0	distractor	1	529	736	68665	13.328	12.886	13.764
ProbeTrack13	2	ProbeTrack	13.2	SCS215b	20111031.093613	20111031.094042	8	0.013328	60	10	60-180	60	73	GapExp	BigFlash	0	39	2	45	0	distractor	1	422	789	69454	13.328	12.931	13.723
ProbeTrack13	2	ProbeTrack	13.2	SCS215b	20111031.093613	20111031.094048	8	0.013328	60	10	60-180	60	165	GapExp	BigFlash	0	40	2	0	0	distractor	1	483	759	70213	13.328	13.092	13.571
ProbeTrack13	2	ProbeTrack	13.2	SCS215b	20111031.093613	20111031.094055	8	0.013328	60	10	60-180	60	126	GapExp	BigFlash	0	41	2	45	0	distractor	1	549	726	70939	13.328	13.098	13.549
ProbeTrack13	2	ProbeTrack	13.2	SCS215b	20111031.093613	20111031.094103	8	0.013328	60	10	60-180	60	134	GapExp	BigFlash	0	42	2	0	1	target	1	531	735	71674	13.328	13.035	13.628
ProbeTrack13	2	ProbeTrack	13.2	SCS215b	20111031.093613	20111031.094109	8	0.013328	60	10	60-180	60	127	GapExp	BigFlash	0	43	2	0	0	distractor	1	444	778	72452	13.328	12.933	13.718
ProbeTrack13	2	ProbeTrack	13.2	SCS215b	20111031.093613	20111031.094116	8	0.013328	60	10	60-180	60	153	GapExp	BigFlash	0	44	2	1	0	distractor	1	442	779	73231	13.328	12.842	13.816
ProbeTrack13	2	ProbeTrack	13.2	SCS215b	20111031.093613	20111031.094122	8	0.013328	60	10	60-180	60	160	GapExp	BigFlash	0	45	2	0	0	distractor	1	439	781	74012	13.328	13.158	13.714
ProbeTrack13	2	ProbeTrack	13.2	SCS215b	20111031.093613	20111031.094130	8	0.013328	60	10	60-180	60	162	GapExp	BigFlash	0	46	2	3	1	distractor	0	434	-1000	73012	13.328	12.855	13.796
ProbeTrack13	2	ProbeTrack	13.2	SCS215b	20111031.093613	20111031.094139	8	0.013328	60	10	60-180	60	69	GapExp	BigFlash	0	47	2	0	1	target	1	461	770	73782	13.328	12.868	13.784
ProbeTrack13	2	ProbeTrack	13.2	SCS215b	20111031.093613	20111031.094145	8	0.013328	60	10	60-180	60	69	GapExp	BigFlash	0	48	2	0	0	distractor	1	407	797	74579	13.328	13.006	13.650
ProbeTrack13	2	ProbeTrack	13.2	SCS215b	20111031.093613	20111031.094151	8	0.013328	60	10	60-180	60	154	GapExp	BigFlash	0	49	2	3	0	distractor	1	520	740	75319	13.328	12.868	13.783
ProbeTrack13	2	ProbeTrack	13.2	SCS215b	20111031.093613	20111031.094158	8	0.013328	60	10	60-180	60	87	GapExp	BigFlash	0	50	2	1	1	target	1	481	760	76079	13.328	12.881	13.792
ProbeTrack13	2	ProbeTrack	13.2	SCS215b	20111031.093613	20111031.094204	8	0.013328	60	10	60-180	60	63	GapExp	BigFlash	0	51	2	3	1	target	1	560	720	76799	13.328	13.159	13.497
ProbeTrack13	2	ProbeTrack	13.2	SCS215b	20111031.093613	20111031.094210	8	0.013328	60	10	60-180	60	105	GapExp	BigFlash	0	52	2	1	0	distractor	1	417	792	77591	13.328	13.302	13.354
ProbeTrack13	2	ProbeTrack	13.2	SCS215b	20111031.093613	20111031.094216	8	0.013328	60	10	60-180	60	143	GapExp	BigFlash	0	53	2	0	1	target	1	384	808	78399	13.328	12.882	13.782
ProbeTrack13	2	ProbeTrack	13.2	SCS215b	20111031.093613	20111031.094222	8	0.013328	60	10	60-180	60	80	GapExp	BigFlash	0	54	2	3	0	distractor	1	434	783	79182	13.328	12.872	13.797
ProbeTrack13	2	ProbeTrack	13.2	SCS215b	20111031.093613	20111031.094228	8	0.013328	60	10	60-180	60	82	GapExp	BigFlash	0	55	2	3	0	distractor	1	415	793	79975	13.328	13.111	13.546
ProbeTrack13	2	ProbeTrack	13.2	SCS215b	20111031.093613	20111031.094234	8	0.013328	60	10	60-180	60	75	GapExp	BigFlash	0	56	2	3	1	target	1	482	759	80734	13.328	12.857	13.793
ProbeTrack13	2	ProbeTrack	13.2	SCS215b	20111031.093613	20111031.094239	8	0.013328	60	10	60-180	60	83	GapExp	BigFlash	0	57	2	0	1	target	1	429	786	81520	13.328	12.825	13.832
ProbeTrack13	2	ProbeTrack	13.2	SCS215b	20111031.093613	20111031.094246	8	0.013328	60	10	60-180	60	73	GapExp	BigFlash	0	58	2	0	0	distractor	1	414	793	82313	13.328	13.193	13.456
ProbeTrack13	2	ProbeTrack	13.2	SCS215b	20111031.093613	20111031.094251	8	0.013328	60	10	60-180	60	121	GapExp	BigFlash	0	59	2	3	0	distractor	1	423	789	83102	13.328	12.817	13.819
ProbeTrack13	2	ProbeTrack	13.2	SCS215b	20111031.093613	20111031.094258	8	0.013328	60	10	60-180	60	86	GapExp	BigFlash	0	60	2	1	1	target	1	467	767	83869	13.328	12.888	13.771
ProbeTrack13	2	ProbeTrack	13.2	SCS215b	20111031.093613	20111031.094303	8	0.013328	60	10	60-180	60	128	GapExp	BigFlash	0	61	2	1	1	target	1	385	808	84677	13.328	12.993	13.658
ProbeTrack13	2	ProbeTrack	13.2	SCS215b	20111031.093613	20111031.094310	8	0.013328	60	10	60-180	60	96	GapExp	BigFlash	0	62	2	1	1	target	1	379	811	85488	13.329	12.921	13.754
ProbeTrack13	2	ProbeTrack	13.2	SCS215b	20111031.093613	20111031.094317	8	0.013328	60	10	60-180	60	164	GapExp	BigFlash	0	63	2	3	1	target	1	388	806	86294	13.328	12.893	13.764
ProbeTrack13	2	ProbeTrack	13.2	SCS215b	20111031.093613	20111031.094324	8	0.013328	60	10	60-180	60	88	GapExp	BigFlash	0	64	2	3	1	target	1	381	810	87104	13.328	12.853	13.811
ProbeTrack13	2	ProbeTrack	13.2	SCS215b	20111031.093613	20111031.094330	8	0.013328	60	10	60-180	60	144	GapExp	BigFlash	0	65	2	45	1	target	1	364	818	87922	13.328	12.854	13.807
ProbeTrack13	2	ProbeTrack	13.2	SCS215b	20111031.093613	20111031.094337	8	0.013328	60	10	60-180	60	126	GapExp	BigFlash	0	66	2	45	1	target	1	410	795	88717	13.328	12.876	13.798
ProbeTrack13	2	ProbeTrack	13.2	SCS215b	20111031.093613	20111031.094344	8	0.013328	60	10	60-180	60	138	GapExp	BigFlash	0	67	2	3	1	target	1	390	805	89522	13.328	12.855	13.802
ProbeTrack13	2	ProbeTrack	13.2	SCS215b	20111031.093613	20111031.094351	8	0.013328	60	10	60-180	60	68	GapExp	BigFlash	0	68	2	1	1	target	1	411	795	90317	13.328	12.916	13.743
ProbeTrack13	2	ProbeTrack	13.2	SCS215b	20111031.093613	20111031.094357	8	0.013328	60	10	60-180	60	113	GapExp	BigFlash	0	69	2	0	1	target	1	368	816	91133	13.328	13.091	13.557
ProbeTrack13	2	ProbeTrack	13.2	SCS215b	20111031.093613	20111031.094404	8	0.013328	60	10	60-180	60	180	GapExp	BigFlash	0	70	2	0	0	distractor	1	472	764	91897	13.328	12.993	13.659
ProbeTrack13	2	ProbeTrack	13.2	SCS215b	20111031.093613	20111031.094411	8	0.013328	60	10	60-180	60	63	GapExp	BigFlash	0	71	2	1	0	distractor	1	607	697	92594	13.328	12.879	13.769
ProbeTrack13	2	ProbeTrack	13.2	SCS215b	20111031.093613	20111031.094417	8	0.013328	60	10	60-180	60	64	GapExp	BigFlash	0	72	2	45	1	target	1	342	829	93423	13.328	12.979	13.691
ProbeTrack13	2	ProbeTrack	13.2	SCS215b	20111031.093613	20111031.094424	8	0.013328	60	10	60-180	60	69	GapExp	BigFlash	0	73	2	3	0	distractor	1	438	781	94204	13.328	13.106	13.545
ProbeTrack13	2	ProbeTrack	13.2	SCS215b	20111031.093613	20111031.094430	8	0.013328	60	10	60-180	60	82	GapExp	BigFlash	0	74	2	1	0	distractor	1	495	753	94957	13.328	12.848	13.821
ProbeTrack13	2	ProbeTrack	13.2	SCS215b	20111031.093613	20111031.094436	8	0.013328	60	10	60-180	60	140	GapExp	BigFlash	0	75	2	45	1	distractor	0	350	-1000	93957	13.328	12.861	13.795
ProbeTrack13	2	ProbeTrack	13.2	SCS215b	20111031.093613	20111031.094443	8	0.013328	60	10	60-180	60	136	GapExp	BigFlash	0	76	2	0	0	distractor	1	467	767	94724	13.328	12.883	13.768
ProbeTrack13	2	ProbeTrack	13.2	SCS215b	20111031.093613	20111031.094451	8	0.013328	60	10	60-180	60	62	GapExp	BigFlash	0	77	2	0	0	distractor	1	536	732	95456	13.328	13.304	13.352
ProbeTrack13	2	ProbeTrack	13.2	SCS215b	20111031.093613	20111031.094457	8	0.013328	60	10	60-180	60	132	GapExp	BigFlash	0	78	2	3	0	distractor	1	455	773	96229	13.328	12.896	13.767
ProbeTrack13	2	ProbeTrack	13.2	SCS215b	20111031.093613	20111031.094503	8	0.013328	60	10	60-180	60	179	GapExp	BigFlash	0	79	2	45	0	distractor	1	379	811	97040	13.328	13.297	13.369
ProbeTrack13	2	ProbeTrack	13.2	SCS215b	20111031.093613	20111031.094511	8	0.013328	60	10	60-180	60	147	GapExp	BigFlash	0	80	2	1	0	distractor	1	572	714	97754	13.328	13.008	13.653
ProbeTrack13	2	ProbeTrack	13.2	SCS215b	20111031.093613	20111031.094518	8	0.013328	60	10	60-180	60	138	GapExp	BigFlash	0	81	2	45	0	distractor	1	477	762	98516	13.337	12.988	15.993
ProbeTrack13	2	ProbeTrack	13.2	SCS215b	20111031.093613	20111031.094525	8	0.013328	60	10	60-180	60	142	GapExp	BigFlash	0	82	2	45	0	distractor	1	664	668	99184	13.328	12.992	13.671
ProbeTrack13	2	ProbeTrack	13.2	SCS215b	20111031.093613	20111031.094533	8	0.013328	60	10	60-180	60	138	GapExp	BigFlash	0	83	2	0	1	target	1	620	690	99874	13.328	12.993	13.656
ProbeTrack13	2	ProbeTrack	13.2	SCS215b	20111031.093613	20111031.094540	8	0.013328	60	10	60-180	60	78	GapExp	BigFlash	0	84	2	1	0	distractor	1	525	738	100612	13.328	13.304	13.351
ProbeTrack13	2	ProbeTrack	13.2	SCS215b	20111031.093613	20111031.094546	8	0.013328	60	10	60-180	60	101	GapExp	BigFlash	0	85	2	45	1	target	1	439	781	101393	13.328	12.839	13.813
ProbeTrack13	2	ProbeTrack	13.2	SCS215b	20111031.093613	20111031.094553	8	0.013328	60	10	60-180	60	132	GapExp	BigFlash	0	86	2	1	1	target	1	419	791	102184	13.328	12.956	13.703
ProbeTrack13	2	ProbeTrack	13.2	SCS215b	20111031.093613	20111031.094559	8	0.013328	60	10	60-180	60	103	GapExp	BigFlash	0	87	2	3	1	target	1	417	792	102976	13.328	12.858	13.820
ProbeTrack13	2	ProbeTrack	13.2	SCS215b	20111031.093613	20111031.094605	8	0.013328	60	10	60-180	60	152	GapExp	BigFlash	0	88	2	1	1	target	1	448	776	103752	13.328	12.886	13.794
ProbeTrack13	2	ProbeTrack	13.2	SCS215b	20111031.093613	20111031.094612	8	0.013328	60	10	60-180	60	90	GapExp	BigFlash	0	89	2	45	0	distractor	1	542	729	104481	13.328	13.116	13.445
ProbeTrack13	2	ProbeTrack	13.2	SCS215b	20111031.093613	20111031.094619	8	0.013328	60	10	60-180	60	75	GapExp	BigFlash	0	90	2	0	1	target	1	454	773	105254	13.328	12.907	13.749
ProbeTrack13	2	ProbeTrack	13.2	SCS215b	20111031.093613	20111031.094625	8	0.013328	60	10	60-180	60	127	GapExp	BigFlash	0	91	2	0	1	target	1	369	816	106070	13.328	12.850	13.841
ProbeTrack13	2	ProbeTrack	13.2	SCS215b	20111031.093613	20111031.094631	8	0.013328	60	10	60-180	60	109	GapExp	BigFlash	0	92	2	45	1	target	1	405	798	106868	13.328	12.864	13.821
ProbeTrack13	2	ProbeTrack	13.2	SCS215b	20111031.093613	20111031.094639	8	0.013328	60	10	60-180	60	68	GapExp	BigFlash	0	93	2	1	0	distractor	1	551	725	107593	13.328	12.871	13.792
ProbeTrack13	2	ProbeTrack	13.2	SCS215b	20111031.093613	20111031.094644	8	0.013328	60	10	60-180	60	119	GapExp	BigFlash	0	94	2	45	1	target	1	502	749	108342	13.328	12.925	13.748
ProbeTrack13	2	ProbeTrack	13.2	SCS215b	20111031.093613	20111031.094651	8	0.013328	60	10	60-180	60	149	GapExp	BigFlash	0	95	2	1	1	target	1	352	824	109166	13.328	12.872	13.794
ProbeTrack13	2	ProbeTrack	13.2	SCS215b	20111031.093613	20111031.094658	8	0.013328	60	10	60-180	60	127	GapExp	BigFlash	0	96	2	3	0	distractor	1	441	780	109946	13.328	12.928	13.712
ProbeTrack13	2	ProbeTrack	13.2	SCS215b	20111031.093613	20111031.094704	8	0.013328	60	10	60-180	60	62	GapExp	BigFlash	0	97	2	3	1	target	1	489	756	110702	13.328	13.123	13.535
ProbeTrack13	2	ProbeTrack	13.2	SCS215b	20111031.093613	20111031.094710	8	0.013328	60	10	60-180	60	135	GapExp	BigFlash	0	98	2	1	0	distractor	1	370	815	111517	13.328	12.843	13.811
ProbeTrack13	2	ProbeTrack	13.2	SCS215b	20111031.093613	20111031.094717	8	0.013328	60	10	60-180	60	131	GapExp	BigFlash	0	99	2	45	0	distractor	1	525	738	112255	13.328	12.947	13.744
ProbeTrack13	2	ProbeTrack	13.2	SCS215b	20111031.093613	20111031.094724	8	0.013328	60	10	60-180	60	88	GapExp	BigFlash	0	100	2	0	0	target	0	433	-1000	111255	13.328	13.307	13.352
ProbeTrack13	2	ProbeTrack	13.2	SCS215b	20111031.093613	20111031.094730	8	0.013328	60	10	60-180	60	176	GapExp	BigFlash	0	101	2	1	0	distractor	1	466	767	112022	13.328	12.930	13.725
ProbeTrack13	2	ProbeTrack	13.2	SCS215b	20111031.093613	20111031.094738	8	0.013328	60	10	60-180	60	84	GapExp	BigFlash	0	102	2	45	1	target	1	441	780	112802	13.328	12.984	13.677
ProbeTrack13	2	ProbeTrack	13.2	SCS215b	20111031.093613	20111031.094745	8	0.013328	60	10	60-180	60	139	GapExp	BigFlash	0	103	2	1	1	target	1	400	800	113602	13.328	12.922	13.736
ProbeTrack13	2	ProbeTrack	13.2	SCS215b	20111031.093613	20111031.094752	8	0.013328	60	10	60-180	60	138	GapExp	BigFlash	0	104	2	45	1	target	1	418	791	114393	13.328	12.869	13.796
ProbeTrack13	2	ProbeTrack	13.2	SCS215b	20111031.093613	20111031.094759	8	0.013328	60	10	60-180	60	122	GapExp	BigFlash	0	105	2	45	1	target	1	368	816	115209	13.328	13.152	13.508
ProbeTrack13	2	ProbeTrack	13.2	SCS215b	20111031.093613	20111031.094805	8	0.013328	60	10	60-180	60	86	GapExp	BigFlash	0	106	2	1	1	target	1	454	773	115982	13.328	12.900	13.747
ProbeTrack13	2	ProbeTrack	13.2	SCS215b	20111031.093613	20111031.094811	8	0.013328	60	10	60-180	60	90	GapExp	BigFlash	0	107	2	1	1	target	1	418	791	116773	13.328	13.304	13.353
ProbeTrack13	2	ProbeTrack	13.2	SCS215b	20111031.093613	20111031.094818	8	0.013328	60	10	60-180	60	179	GapExp	BigFlash	0	108	2	45	1	target	1	458	771	117544	13.328	12.857	13.795
ProbeTrack13	2	ProbeTrack	13.2	SCS215b	20111031.093613	20111031.094825	8	0.013328	60	10	60-180	60	118	GapExp	BigFlash	0	109	2	0	0	distractor	1	744	628	118172	13.328	13.045	13.615
ProbeTrack13	2	ProbeTrack	13.2	SCS215b	20111031.093613	20111031.094832	8	0.013328	60	10	60-180	60	116	GapExp	BigFlash	0	110	2	3	1	target	1	446	777	118949	13.328	13.184	13.453
ProbeTrack13	2	ProbeTrack	13.2	SCS215b	20111031.093613	20111031.094838	8	0.013328	60	10	60-180	60	73	GapExp	BigFlash	0	111	2	1	0	distractor	1	519	741	119690	13.328	12.990	13.813
ProbeTrack13	2	ProbeTrack	13.2	SCS215b	20111031.093613	20111031.094844	8	0.013328	60	10	60-180	60	113	GapExp	BigFlash	0	112	2	45	1	target	1	345	828	120518	13.326	12.887	13.764
ProbeTrack13	2	ProbeTrack	13.2	SCS215b	20111031.093613	20111031.094851	8	0.013328	60	10	60-180	60	136	GapExp	BigFlash	0	113	2	0	1	target	1	435	783	121301	13.328	12.956	13.706
ProbeTrack13	2	ProbeTrack	13.2	SCS215b	20111031.093613	20111031.094857	8	0.013328	60	10	60-180	60	66	GapExp	BigFlash	0	114	2	0	0	distractor	1	384	808	122109	13.328	13.266	13.391
ProbeTrack13	2	ProbeTrack	13.2	SCS215b	20111031.093613	20111031.094902	8	0.013328	60	10	60-180	60	133	GapExp	BigFlash	0	115	2	0	1	target	1	317	842	122951	13.328	12.688	13.984
ProbeTrack13	2	ProbeTrack	13.2	SCS215b	20111031.093613	20111031.094909	8	0.013328	60	10	60-180	60	179	GapExp	BigFlash	0	116	2	0	0	distractor	1	394	803	123754	13.328	12.950	13.706
ProbeTrack13	2	ProbeTrack	13.2	SCS215b	20111031.093613	20111031.094916	8	0.013328	60	10	60-180	60	124	GapExp	BigFlash	0	117	2	0	0	distractor	1	381	810	124564	13.328	13.307	13.357
ProbeTrack13	2	ProbeTrack	13.2	SCS215b	20111031.093613	20111031.094923	8	0.013328	60	10	60-180	60	112	GapExp	BigFlash	0	118	2	45	0	distractor	1	435	783	125347	13.328	12.686	13.981
ProbeTrack13	2	ProbeTrack	13.2	SCS215b	20111031.093613	20111031.094929	8	0.013328	60	10	60-180	60	155	GapExp	BigFlash	0	119	2	1	0	distractor	1	412	794	126141	13.328	13.150	13.493
ProbeTrack13	2	ProbeTrack	13.2	SCS215b	20111031.093613	20111031.094936	8	0.013328	60	10	60-180	60	80	GapExp	BigFlash	0	120	2	0	1	target	1	440	780	126921	13.328	12.998	13.680
ProbeTrack13	2	ProbeTrack	13.2	SCS215b	20111031.093613	20111031.094941	8	0.013328	60	10	60-180	60	103	GapExp	BigFlash	0	121	2	45	0	distractor	1	459	771	127692	13.328	13.099	13.559
ProbeTrack13	2	ProbeTrack	13.2	SCS215b	20111031.093613	20111031.094948	8	0.013328	60	10	60-180	60	156	GapExp	BigFlash	0	122	2	45	1	target	1	506	747	128439	13.328	13.006	13.659
ProbeTrack13	2	ProbeTrack	13.2	SCS215b	20111031.093613	20111031.094956	8	0.013328	60	10	60-180	60	104	GapExp	BigFlash	0	123	2	45	0	distractor	1	441	780	129219	13.328	12.845	13.803
ProbeTrack13	2	ProbeTrack	13.2	SCS215b	20111031.093613	20111031.095002	8	0.013328	60	10	60-180	60	163	GapExp	BigFlash	0	124	2	45	0	distractor	1	530	735	129954	13.328	12.880	13.761
ProbeTrack13	2	ProbeTrack	13.2	SCS215b	20111031.093613	20111031.095010	8	0.013328	60	10	60-180	60	120	GapExp	BigFlash	0	125	2	3	0	distractor	1	412	794	130748	13.328	12.877	13.779
ProbeTrack13	2	ProbeTrack	13.2	SCS215b	20111031.093613	20111031.095016	8	0.013328	60	10	60-180	60	139	GapExp	BigFlash	0	126	2	3	1	target	1	468	766	131514	13.328	12.961	13.698
ProbeTrack13	2	ProbeTrack	13.2	SCS215b	20111031.093613	20111031.095023	8	0.013328	60	10	60-180	60	162	GapExp	BigFlash	0	127	2	45	0	distractor	1	489	756	132270	13.328	13.111	13.539
ProbeTrack13	2	ProbeTrack	13.2	SCS215b	20111031.093613	20111031.095031	8	0.013328	60	10	60-180	60	105	GapExp	BigFlash	0	128	2	1	1	target	1	490	755	133025	13.328	12.860	13.796
ProbeTrack13	2	ProbeTrack	13.2	SCS215b	20111031.093613	20111031.095037	8	0.013328	60	10	60-180	60	104	GapExp	BigFlash	0	129	2	45	1	target	1	392	804	133829	13.328	13.092	13.564
ProbeTrack13	2	ProbeTrack	13.2	SCS215b	20111031.093613	20111031.095044	8	0.013328	60	10	60-180	60	74	GapExp	BigFlash	0	130	2	3	0	distractor	1	596	702	134531	13.328	12.911	13.747
ProbeTrack13	2	ProbeTrack	13.2	SCS215b	20111031.093613	20111031.095054	8	0.013328	60	10	60-180	60	73	GapExp	BigFlash	0	131	2	3	0	distractor	1	489	756	135287	13.328	12.943	13.705
ProbeTrack13	2	ProbeTrack	13.2	SCS215b	20111031.093613	20111031.095100	8	0.013328	60	10	60-180	60	171	GapExp	BigFlash	0	132	2	1	0	distractor	1	414	793	136080	13.328	12.956	13.699
ProbeTrack13	2	ProbeTrack	13.2	SCS215b	20111031.093613	20111031.095107	8	0.013328	60	10	60-180	60	146	GapExp	BigFlash	0	133	2	45	0	distractor	1	426	787	136867	13.328	13.014	13.640
ProbeTrack13	2	ProbeTrack	13.2	SCS215b	20111031.093613	20111031.095114	8	0.013328	60	10	60-180	60	154	GapExp	BigFlash	0	134	2	1	1	target	1	403	799	137666	13.328	13.290	13.358
ProbeTrack13	2	ProbeTrack	13.2	SCS215b	20111031.093613	20111031.095121	8	0.013328	60	10	60-180	60	179	GapExp	BigFlash	0	135	2	0	1	target	1	323	839	138505	13.328	12.869	13.792
ProbeTrack13	2	ProbeTrack	13.2	SCS215b	20111031.093613	20111031.095128	8	0.013328	60	10	60-180	60	110	GapExp	BigFlash	0	136	2	3	1	target	1	359	821	139326	13.328	12.842	13.816
ProbeTrack13	2	ProbeTrack	13.2	SCS215b	20111031.093613	20111031.095134	8	0.013328	60	10	60-180	60	154	GapExp	BigFlash	0	137	2	45	0	distractor	1	473	764	140090	13.328	13.130	13.526
ProbeTrack13	2	ProbeTrack	13.2	SCS215b	20111031.093613	20111031.095142	8	0.013328	60	10	60-180	60	139	GapExp	BigFlash	0	138	2	45	0	distractor	1	468	766	140856	13.328	12.839	13.805
ProbeTrack13	2	ProbeTrack	13.2	SCS215b	20111031.093613	20111031.095149	8	0.013328	60	10	60-180	60	131	GapExp	BigFlash	0	139	2	0	1	target	1	324	838	141694	13.328	12.864	13.784
ProbeTrack13	2	ProbeTrack	13.2	SCS215b	20111031.093613	20111031.095155	8	0.013328	60	10	60-180	60	111	GapExp	BigFlash	0	140	2	45	1	distractor	0	364	-1000	140694	13.328	12.832	13.808
ProbeTrack13	2	ProbeTrack	13.2	SCS215b	20111031.093613	20111031.095202	8	0.013328	60	10	60-180	60	90	GapExp	BigFlash	0	141	2	0	1	target	1	368	816	141510	13.328	12.982	13.675
ProbeTrack13	2	ProbeTrack	13.2	SCS215b	20111031.093613	20111031.095208	8	0.013328	60	10	60-180	60	68	GapExp	BigFlash	0	142	2	3	0	distractor	1	580	710	142220	13.328	12.843	13.809
ProbeTrack13	2	ProbeTrack	13.2	SCS215b	20111031.093613	20111031.095215	8	0.013328	60	10	60-180	60	159	GapExp	BigFlash	0	143	2	45	1	target	1	332	834	143054	13.328	12.831	13.822
ProbeTrack13	2	ProbeTrack	13.2	SCS215b	20111031.093613	20111031.095222	8	0.013328	60	10	60-180	60	93	GapExp	BigFlash	0	144	2	0	0	distractor	1	778	611	143665	13.326	12.895	13.634
ProbeTrack13	2	ProbeTrack	13.2	SCS215b	20111031.093613	20111031.095228	8	0.013328	60	10	60-180	60	88	GapExp	BigFlash	0	145	2	1	0	distractor	1	518	741	144406	13.328	13.098	13.556
ProbeTrack13	2	ProbeTrack	13.2	SCS215b	20111031.093613	20111031.095233	8	0.013328	60	10	60-180	60	77	GapExp	BigFlash	0	146	2	1	1	target	1	403	799	145205	13.328	12.864	13.785
ProbeTrack13	2	ProbeTrack	13.2	SCS215b	20111031.093613	20111031.095239	8	0.013328	60	10	60-180	60	171	GapExp	BigFlash	0	147	2	0	1	target	1	363	819	146024	13.328	13.077	13.582
ProbeTrack13	2	ProbeTrack	13.2	SCS215b	20111031.093613	20111031.095246	8	0.013328	60	10	60-180	60	95	GapExp	BigFlash	0	148	2	3	0	distractor	1	495	753	146777	13.328	13.083	13.584
ProbeTrack13	2	ProbeTrack	13.2	SCS215b	20111031.093613	20111031.095252	8	0.013328	60	10	60-180	60	84	GapExp	BigFlash	0	149	2	0	0	distractor	1	451	775	147552	13.328	13.302	13.355
ProbeTrack13	2	ProbeTrack	13.2	SCS215b	20111031.093613	20111031.095258	8	0.013328	60	10	60-180	60	113	GapExp	BigFlash	0	150	2	45	0	distractor	1	475	763	148315	13.328	13.296	13.373
ProbeTrack13	2	ProbeTrack	13.2	SCS215b	20111031.093613	20111031.095304	8	0.013328	60	10	60-180	60	154	GapExp	BigFlash	0	151	2	45	1	target	1	439	781	149096	13.328	12.860	13.813
ProbeTrack13	2	ProbeTrack	13.2	SCS215b	20111031.093613	20111031.095312	8	0.013328	60	10	60-180	60	111	GapExp	BigFlash	0	152	2	3	1	target	1	381	810	149906	13.328	13.011	13.627
ProbeTrack13	2	ProbeTrack	13.2	SCS215b	20111031.093613	20111031.095318	8	0.013328	60	10	60-180	60	102	GapExp	BigFlash	0	153	2	1	0	distractor	1	510	745	150651	13.327	13.096	13.527
ProbeTrack13	2	ProbeTrack	13.2	SCS215b	20111031.093613	20111031.095324	8	0.013328	60	10	60-180	60	121	GapExp	BigFlash	0	154	2	45	1	target	1	344	828	151479	13.328	12.915	13.760
ProbeTrack13	2	ProbeTrack	13.2	SCS215b	20111031.093613	20111031.095332	8	0.013328	60	10	60-180	60	108	GapExp	BigFlash	0	155	2	1	0	distractor	1	436	782	152261	13.328	13.040	13.617
ProbeTrack13	2	ProbeTrack	13.2	SCS215b	20111031.093613	20111031.095338	8	0.013328	60	10	60-180	60	100	GapExp	BigFlash	0	156	2	0	1	target	1	429	786	153047	13.328	12.907	13.744
ProbeTrack13	2	ProbeTrack	13.2	SCS215b	20111031.093613	20111031.095344	8	0.013328	60	10	60-180	60	65	GapExp	BigFlash	0	157	2	1	0	distractor	1	469	766	153813	13.328	13.302	13.353
ProbeTrack13	2	ProbeTrack	13.2	SCS215b	20111031.093613	20111031.095350	8	0.013328	60	10	60-180	60	81	GapExp	BigFlash	0	158	2	0	0	distractor	1	422	789	154602	13.328	12.862	13.804
ProbeTrack13	2	ProbeTrack	13.2	SCS215b	20111031.093613	20111031.095356	8	0.013328	60	10	60-180	60	132	GapExp	BigFlash	0	159	2	45	1	target	1	328	836	155438	13.328	12.828	13.833
ProbeTrack13	2	ProbeTrack	13.2	SCS215b	20111031.093613	20111031.095403	8	0.013328	60	10	60-180	60	101	GapExp	BigFlash	0	160	2	1	1	target	1	446	777	156215	13.328	13.306	13.356
ProbeTrack13	2	ProbeTrack	13.2	SCS215b	20111031.093613	20111031.095409	8	0.013328	60	10	60-180	60	76	GapExp	BigFlash	0	161	2	45	1	target	1	381	810	157025	13.328	12.882	13.792
ProbeTrack13	2	ProbeTrack	13.2	SCS215b	20111031.093613	20111031.095415	8	0.013328	60	10	60-180	60	119	GapExp	BigFlash	0	162	2	1	1	target	1	346	827	157852	13.328	12.886	13.768
ProbeTrack13	2	ProbeTrack	13.2	SCS215b	20111031.093613	20111031.095422	8	0.013328	60	10	60-180	60	162	GapExp	BigFlash	0	163	2	3	1	target	1	323	839	158691	13.328	12.833	13.816
ProbeTrack13	2	ProbeTrack	13.2	SCS215b	20111031.093613	20111031.095429	8	0.013328	60	10	60-180	60	132	GapExp	BigFlash	0	164	2	0	0	distractor	1	424	788	159479	13.328	12.869	13.796
ProbeTrack13	2	ProbeTrack	13.2	SCS215b	20111031.093613	20111031.095435	8	0.013328	60	10	60-180	60	135	GapExp	BigFlash	0	165	2	0	1	target	1	370	815	160294	13.328	12.904	13.752
ProbeTrack13	2	ProbeTrack	13.2	SCS215b	20111031.093613	20111031.095441	8	0.013328	60	10	60-180	60	110	GapExp	BigFlash	0	166	2	1	0	distractor	1	504	748	161042	13.328	12.856	13.812
ProbeTrack13	2	ProbeTrack	13.2	SCS215b	20111031.093613	20111031.095447	8	0.013328	60	10	60-180	60	175	GapExp	BigFlash	0	167	2	1	1	target	1	320	840	161882	13.328	12.940	13.721
ProbeTrack13	2	ProbeTrack	13.2	SCS215b	20111031.093613	20111031.095455	8	0.013328	60	10	60-180	60	118	GapExp	BigFlash	0	168	2	0	1	target	1	494	753	162635	13.328	12.959	13.690
ProbeTrack13	2	ProbeTrack	13.2	SCS215b	20111031.093613	20111031.095501	8	0.013328	60	10	60-180	60	145	GapExp	BigFlash	0	169	2	3	0	distractor	1	451	775	163410	13.328	13.105	13.565
ProbeTrack13	2	ProbeTrack	13.2	SCS215b	20111031.093613	20111031.095508	8	0.013328	60	10	60-180	60	124	GapExp	BigFlash	0	170	2	1	1	target	1	345	828	164238	13.328	12.927	13.729
ProbeTrack13	2	ProbeTrack	13.2	SCS215b	20111031.093613	20111031.095514	8	0.013328	60	10	60-180	60	160	GapExp	BigFlash	0	171	2	0	0	distractor	1	396	802	165040	13.328	12.951	13.717
ProbeTrack13	2	ProbeTrack	13.2	SCS215b	20111031.093613	20111031.095521	8	0.013328	60	10	60-180	60	61	GapExp	BigFlash	0	172	2	3	0	distractor	1	454	773	165813	13.328	12.869	13.804
ProbeTrack13	2	ProbeTrack	13.2	SCS215b	20111031.093613	20111031.095527	8	0.013328	60	10	60-180	60	103	GapExp	BigFlash	0	173	2	3	1	target	1	299	851	166664	13.328	13.119	13.534
ProbeTrack13	2	ProbeTrack	13.2	SCS215b	20111031.093613	20111031.095533	8	0.013328	60	10	60-180	60	61	GapExp	BigFlash	0	174	2	3	1	target	1	299	851	167515	13.328	13.308	13.348
ProbeTrack13	2	ProbeTrack	13.2	SCS215b	20111031.093613	20111031.095538	8	0.013328	60	10	60-180	60	115	GapExp	BigFlash	0	175	2	45	1	target	1	336	832	168347	13.328	12.857	13.787
ProbeTrack13	2	ProbeTrack	13.2	SCS215b	20111031.093613	20111031.095545	8	0.013328	60	10	60-180	60	116	GapExp	BigFlash	0	176	2	1	1	target	1	334	833	169180	13.328	13.103	13.562
ProbeTrack13	2	ProbeTrack	13.2	SCS215b	20111031.093613	20111031.095551	8	0.013328	60	10	60-180	60	100	GapExp	BigFlash	0	177	2	3	1	target	1	344	828	170008	13.328	13.018	13.607
ProbeTrack13	2	ProbeTrack	13.2	SCS215b	20111031.093613	20111031.095557	8	0.013328	60	10	60-180	60	83	GapExp	BigFlash	0	178	2	1	0	distractor	1	460	770	170778	13.328	12.867	13.790
ProbeTrack13	2	ProbeTrack	13.2	SCS215b	20111031.093613	20111031.095603	8	0.013328	60	10	60-180	60	86	GapExp	BigFlash	0	179	2	3	0	distractor	1	449	776	171554	13.328	12.910	13.706
ProbeTrack13	2	ProbeTrack	13.2	SCS215b	20111031.093613	20111031.095608	8	0.013328	60	10	60-180	60	157	GapExp	BigFlash	0	180	2	3	0	distractor	1	470	765	172319	13.328	13.304	13.354
ProbeTrack13	2	ProbeTrack	13.2	SCS215b	20111031.093613	20111031.095615	8	0.013328	60	10	60-180	60	171	GapExp	BigFlash	0	181	2	3	0	distractor	1	428	786	173105	13.328	12.871	13.784
ProbeTrack13	2	ProbeTrack	13.2	SCS215b	20111031.093613	20111031.095621	8	0.013328	60	10	60-180	60	115	GapExp	BigFlash	0	182	2	45	0	distractor	1	1304	348	173453	13.323	11.451	15.215
ProbeTrack13	2	ProbeTrack	13.2	SCS215b	20111031.093613	20111031.095629	8	0.013328	60	10	60-180	60	156	GapExp	BigFlash	0	183	2	3	1	distractor	0	490	-1000	172453	13.328	13.297	13.354
ProbeTrack13	2	ProbeTrack	13.2	SCS215b	20111031.093613	20111031.095637	8	0.013328	60	10	60-180	60	131	GapExp	BigFlash	0	184	2	45	0	distractor	1	484	758	173211	13.328	13.291	13.361
ProbeTrack13	2	ProbeTrack	13.2	SCS215b	20111031.093613	20111031.095644	8	0.013328	60	10	60-180	60	63	GapExp	BigFlash	0	185	2	0	0	distractor	1	477	762	173973	13.316	11.147	13.348
ProbeTrack13	2	ProbeTrack	13.2	SCS215b	20111031.093613	20111031.095649	8	0.013328	60	10	60-180	60	70	GapExp	BigFlash	0	186	2	1	1	target	1	396	802	174775	13.328	9.378	17.295
ProbeTrack13	2	ProbeTrack	13.2	SCS215b	20111031.093613	20111031.095654	8	0.013328	60	10	60-180	60	118	GapExp	BigFlash	0	187	2	1	1	target	1	427	787	175562	13.328	12.107	14.554
ProbeTrack13	2	ProbeTrack	13.2	SCS215b	20111031.093613	20111031.095701	8	0.013328	60	10	60-180	60	162	GapExp	BigFlash	0	188	2	45	0	distractor	1	502	749	176311	13.328	11.514	15.136
ProbeTrack13	2	ProbeTrack	13.2	SCS215b	20111031.093613	20111031.095709	8	0.013328	60	10	60-180	60	105	GapExp	BigFlash	0	189	2	3	1	target	1	350	825	177136	13.328	13.102	13.551
ProbeTrack13	2	ProbeTrack	13.2	SCS215b	20111031.093613	20111031.095715	8	0.013328	60	10	60-180	60	89	GapExp	BigFlash	0	190	2	0	0	distractor	1	406	797	177933	13.328	13.095	13.555
ProbeTrack13	2	ProbeTrack	13.2	SCS215b	20111031.093613	20111031.095720	8	0.013328	60	10	60-180	60	67	GapExp	BigFlash	0	191	2	0	0	distractor	1	407	797	178730	13.328	13.304	13.350
ProbeTrack13	2	ProbeTrack	13.2	SCS215b	20111031.093613	20111031.095726	8	0.013328	60	10	60-180	60	94	GapExp	BigFlash	0	192	2	45	1	target	1	377	812	179542	13.328	8.731	17.923
ProbeTrack13	2	ProbeTrack	13.2	SCS215b	20111031.093613	20111031.095732	8	0.013328	60	10	60-180	60	167	GapExp	BigFlash	0	193	2	45	1	target	1	367	817	180359	13.328	13.303	13.353
ProbeTrack13	2	ProbeTrack	13.2	SCS215b	20111031.093613	20111031.095740	8	0.013328	60	10	60-180	60	145	GapExp	BigFlash	0	194	2	1	0	distractor	1	402	799	181158	13.328	8.510	18.161
ProbeTrack13	2	ProbeTrack	13.2	SCS215b	20111031.093613	20111031.095746	8	0.013328	60	10	60-180	60	143	GapExp	BigFlash	0	195	2	3	0	distractor	1	412	794	181952	13.328	13.306	13.348
ProbeTrack13	2	ProbeTrack	13.2	SCS215b	20111031.093613	20111031.095753	8	0.013328	60	10	60-180	60	163	GapExp	BigFlash	0	196	2	45	0	distractor	1	443	779	182731	13.328	7.915	18.735
ProbeTrack13	2	ProbeTrack	13.2	SCS215b	20111031.093613	20111031.095800	8	0.013328	60	10	60-180	60	129	GapExp	BigFlash	0	197	2	45	1	target	1	373	814	183545	13.328	8.736	17.926
ProbeTrack13	2	ProbeTrack	13.2	SCS215b	20111031.093613	20111031.095807	8	0.013328	60	10	60-180	60	115	GapExp	BigFlash	0	198	2	0	1	distractor	0	330	-1000	182545	13.328	7.868	18.796
ProbeTrack13	2	ProbeTrack	13.2	SCS215b	20111031.093613	20111031.095814	8	0.013328	60	10	60-180	60	100	GapExp	BigFlash	0	199	2	3	1	target	1	334	833	183378	13.328	13.304	13.348
ProbeTrack13	2	ProbeTrack	13.2	SCS215b	20111031.093613	20111031.095820	8	0.013328	60	10	60-180	60	99	GapExp	BigFlash	0	200	2	1	0	distractor	1	490	755	184133	13.328	12.176	14.473
ProbeTrack13	2	ProbeTrack	13.2	SCS215b	20111031.100158	20111031.100203	8	0.013328	60	10	60-180	60	102	GapPrac	SmallFlash	1	1	2	0	0	distractor	1	529	736	184869	13.386	11.329	15.322
ProbeTrack13	2	ProbeTrack	13.2	SCS215b	20111031.100158	20111031.100212	8	0.013328	60	10	60-180	60	103	GapPrac	SmallFlash	1	2	2	3	0	distractor	1	391	805	185674	13.328	6.787	19.858
ProbeTrack13	2	ProbeTrack	13.2	SCS215b	20111031.100158	20111031.100218	8	0.013328	60	10	60-180	60	89	GapPrac	SmallFlash	1	3	2	1	1	target	1	697	652	186326	13.328	13.309	13.347
ProbeTrack13	2	ProbeTrack	13.2	SCS215b	20111031.100158	20111031.100224	8	0.013328	60	10	60-180	60	72	GapPrac	SmallFlash	1	4	2	0	1	target	1	419	791	187117	13.328	10.378	16.261
ProbeTrack13	2	ProbeTrack	13.2	SCS215b	20111031.100158	20111031.100230	8	0.013328	60	10	60-180	60	127	GapPrac	SmallFlash	1	5	2	3	0	distractor	1	356	822	187939	13.328	12.041	14.642
ProbeTrack13	2	ProbeTrack	13.2	SCS215b	20111031.100158	20111031.100236	8	0.013328	60	10	60-180	60	109	GapPrac	SmallFlash	1	6	2	0	1	target	1	298	851	188790	13.328	13.003	13.663
ProbeTrack13	2	ProbeTrack	13.2	SCS215b	20111031.100158	20111031.100242	8	0.013328	60	10	60-180	60	69	GapPrac	SmallFlash	1	7	2	45	1	target	1	327	837	189627	13.328	13.311	13.352
ProbeTrack13	2	ProbeTrack	13.2	SCS215b	20111031.100158	20111031.100248	8	0.013328	60	10	60-180	60	156	GapPrac	SmallFlash	1	8	2	1	1	target	1	268	866	190493	13.328	13.307	13.348
ProbeTrack13	2	ProbeTrack	13.2	SCS215b	20111031.100158	20111031.100255	8	0.013328	60	10	60-180	60	151	GapPrac	SmallFlash	1	9	2	3	1	target	1	287	857	191350	13.328	13.293	13.377
ProbeTrack13	2	ProbeTrack	13.2	SCS215b	20111031.100158	20111031.100301	8	0.013328	60	10	60-180	60	111	GapPrac	SmallFlash	1	10	2	0	0	distractor	1	442	779	192129	13.328	13.312	13.348
ProbeTrack13	2	ProbeTrack	13.2	SCS215b	20111031.100158	20111031.100307	8	0.013328	60	10	60-180	60	125	GapPrac	SmallFlash	1	11	2	1	0	distractor	1	444	778	192907	13.328	11.789	14.861
ProbeTrack13	2	ProbeTrack	13.2	SCS215b	20111031.100158	20111031.100314	8	0.013328	60	10	60-180	60	71	GapPrac	SmallFlash	1	12	2	0	0	distractor	1	491	755	193662	13.328	9.021	17.650
ProbeTrack13	2	ProbeTrack	13.2	SCS215b	20111031.100158	20111031.100320	8	0.013328	60	10	60-180	60	123	GapPrac	SmallFlash	1	13	2	0	1	target	1	376	812	194474	13.328	12.618	14.034
ProbeTrack13	2	ProbeTrack	13.2	SCS215b	20111031.100158	20111031.100326	8	0.013328	60	10	60-180	60	86	GapPrac	SmallFlash	1	14	2	1	0	distractor	1	548	726	195200	13.328	11.531	15.140
ProbeTrack13	2	ProbeTrack	13.2	SCS215b	20111031.100158	20111031.100332	8	0.013328	60	10	60-180	60	115	GapPrac	SmallFlash	1	15	2	3	1	target	1	305	848	196048	13.328	12.127	14.302
ProbeTrack13	2	ProbeTrack	13.2	SCS215b	20111031.100158	20111031.100338	8	0.013328	60	10	60-180	60	156	GapPrac	SmallFlash	1	16	2	45	1	target	1	315	843	196891	13.328	8.626	18.027
ProbeTrack13	2	ProbeTrack	13.2	SCS215b	20111031.100158	20111031.100345	8	0.013328	60	10	60-180	60	69	GapPrac	SmallFlash	1	17	2	45	0	distractor	1	491	755	197646	13.328	13.101	13.549
ProbeTrack13	2	ProbeTrack	13.2	SCS215b	20111031.100158	20111031.100352	8	0.013328	60	10	60-180	60	156	GapPrac	SmallFlash	1	18	2	45	0	distractor	1	459	771	198417	13.328	8.979	17.677
ProbeTrack13	2	ProbeTrack	13.2	SCS215b	20111031.100158	20111031.100359	8	0.013328	60	10	60-180	60	97	GapPrac	SmallFlash	1	19	2	1	1	target	1	387	807	199224	13.328	13.309	13.349
ProbeTrack13	2	ProbeTrack	13.2	SCS215b	20111031.100158	20111031.100405	8	0.013328	60	10	60-180	60	87	GapPrac	SmallFlash	1	20	2	3	0	distractor	1	423	789	200013	13.328	10.317	16.338
ProbeTrack13	2	ProbeTrack	13.2	SCS215b	20111031.100527	20111031.100535	8	0.013328	60	10	60-180	60	80	GapExp	SmallFlash	1	1	2	3	1	target	1	530	735	200748	13.392	13.313	13.348
ProbeTrack13	2	ProbeTrack	13.2	SCS215b	20111031.100527	20111031.100543	8	0.013328	60	10	60-180	60	150	GapExp	SmallFlash	1	2	2	0	0	distractor	1	414	793	201541	13.328	13.300	13.352
ProbeTrack13	2	ProbeTrack	13.2	SCS215b	20111031.100527	20111031.100550	8	0.013328	60	10	60-180	60	110	GapExp	SmallFlash	1	3	2	0	1	target	1	346	827	202368	13.328	13.306	13.351
ProbeTrack13	2	ProbeTrack	13.2	SCS215b	20111031.100527	20111031.100556	8	0.013328	60	10	60-180	60	160	GapExp	SmallFlash	1	4	2	45	1	target	1	297	852	203220	13.328	8.327	18.325
ProbeTrack13	2	ProbeTrack	13.2	SCS215b	20111031.100527	20111031.100603	8	0.013328	60	10	60-180	60	142	GapExp	SmallFlash	1	5	2	1	1	target	1	370	815	204035	13.328	8.480	18.161
ProbeTrack13	2	ProbeTrack	13.2	SCS215b	20111031.100527	20111031.100609	8	0.013328	60	10	60-180	60	144	GapExp	SmallFlash	1	6	2	3	0	distractor	1	431	785	204820	13.328	10.164	16.488
ProbeTrack13	2	ProbeTrack	13.2	SCS215b	20111031.100527	20111031.100616	8	0.013328	60	10	60-180	60	131	GapExp	SmallFlash	1	7	2	45	0	distractor	1	531	735	205555	13.328	8.539	18.115
ProbeTrack13	2	ProbeTrack	13.2	SCS215b	20111031.100527	20111031.100622	8	0.013328	60	10	60-180	60	130	GapExp	SmallFlash	1	8	2	1	0	distractor	1	457	772	206327	13.328	13.310	13.348
ProbeTrack13	2	ProbeTrack	13.2	SCS215b	20111031.100527	20111031.100629	8	0.013328	60	10	60-180	60	155	GapExp	SmallFlash	0	9	2	45	0	distractor	1	434	783	207110	13.328	10.333	16.327
ProbeTrack13	2	ProbeTrack	13.2	SCS215b	20111031.100527	20111031.100636	8	0.013328	60	10	60-180	60	107	GapExp	SmallFlash	0	10	2	1	1	target	1	390	805	207915	13.328	5.550	21.104
ProbeTrack13	2	ProbeTrack	13.2	SCS215b	20111031.100527	20111031.100641	8	0.013328	60	10	60-180	60	127	GapExp	SmallFlash	0	11	2	1	1	target	1	295	853	208768	13.328	12.620	14.051
ProbeTrack13	2	ProbeTrack	13.2	SCS215b	20111031.100527	20111031.100648	8	0.013328	60	10	60-180	60	135	GapExp	SmallFlash	0	12	2	3	0	distractor	1	386	807	209575	13.328	13.088	13.565
ProbeTrack13	2	ProbeTrack	13.2	SCS215b	20111031.100527	20111031.100654	8	0.013328	60	10	60-180	60	64	GapExp	SmallFlash	0	13	2	45	0	distractor	1	429	786	210361	13.328	3.582	23.082
ProbeTrack13	2	ProbeTrack	13.2	SCS215b	20111031.100527	20111031.100700	8	0.013328	60	10	60-180	60	162	GapExp	SmallFlash	0	14	2	0	1	target	1	333	834	211195	13.328	13.311	13.348
ProbeTrack13	2	ProbeTrack	13.2	SCS215b	20111031.100527	20111031.100706	8	0.013328	60	10	60-180	60	86	GapExp	SmallFlash	0	15	2	0	0	distractor	1	516	742	211937	13.328	9.646	17.004
ProbeTrack13	2	ProbeTrack	13.2	SCS215b	20111031.100527	20111031.100712	8	0.013328	60	10	60-180	60	110	GapExp	SmallFlash	0	16	2	45	0	distractor	1	463	769	212706	13.328	7.369	19.285
ProbeTrack13	2	ProbeTrack	13.2	SCS215b	20111031.100527	20111031.100719	8	0.013328	60	10	60-180	60	134	GapExp	SmallFlash	0	17	2	45	0	distractor	1	395	803	213509	13.328	6.366	20.285
ProbeTrack13	2	ProbeTrack	13.2	SCS215b	20111031.100527	20111031.100728	8	0.013328	60	10	60-180	60	83	GapExp	SmallFlash	0	18	2	0	1	target	1	415	793	214302	13.328	13.309	13.349
ProbeTrack13	2	ProbeTrack	13.2	SCS215b	20111031.100527	20111031.100733	8	0.013328	60	10	60-180	60	98	GapExp	SmallFlash	0	19	2	3	1	target	1	334	833	215135	13.328	11.327	15.326
ProbeTrack13	2	ProbeTrack	13.2	SCS215b	20111031.100527	20111031.100739	8	0.013328	60	10	60-180	60	119	GapExp	SmallFlash	0	20	2	1	0	distractor	1	368	816	215951	13.328	13.100	13.551
ProbeTrack13	2	ProbeTrack	13.2	SCS215b	20111031.100527	20111031.100745	8	0.013328	60	10	60-180	60	164	GapExp	SmallFlash	0	21	2	45	0	distractor	1	380	810	216761	13.328	3.961	22.689
ProbeTrack13	2	ProbeTrack	13.2	SCS215b	20111031.100527	20111031.100752	8	0.013328	60	10	60-180	60	155	GapExp	SmallFlash	0	22	2	0	0	distractor	1	396	802	217563	13.328	6.911	19.743
ProbeTrack13	2	ProbeTrack	13.2	SCS215b	20111031.100527	20111031.100759	8	0.013328	60	10	60-180	60	154	GapExp	SmallFlash	0	23	2	45	1	target	1	297	852	218415	13.328	13.063	13.569
ProbeTrack13	2	ProbeTrack	13.2	SCS215b	20111031.100527	20111031.100806	8	0.013328	60	10	60-180	60	99	GapExp	SmallFlash	0	24	2	3	0	distractor	1	560	720	219135	13.311	9.398	13.357
ProbeTrack13	2	ProbeTrack	13.2	SCS215b	20111031.100527	20111031.100812	8	0.013328	60	10	60-180	60	174	GapExp	SmallFlash	0	25	2	0	0	distractor	1	360	820	219955	13.328	9.805	16.845
ProbeTrack13	2	ProbeTrack	13.2	SCS215b	20111031.100527	20111031.100818	8	0.013328	60	10	60-180	60	141	GapExp	SmallFlash	0	26	2	1	1	target	1	422	789	220744	13.328	8.156	18.520
ProbeTrack13	2	ProbeTrack	13.2	SCS215b	20111031.100527	20111031.100825	8	0.013328	60	10	60-180	60	162	GapExp	SmallFlash	0	27	2	45	1	target	1	310	845	221589	13.328	7.521	19.354
ProbeTrack13	2	ProbeTrack	13.2	SCS215b	20111031.100527	20111031.100832	8	0.013328	60	10	60-180	60	180	GapExp	SmallFlash	0	28	2	45	1	target	1	319	841	222430	13.328	10.098	16.563
ProbeTrack13	2	ProbeTrack	13.2	SCS215b	20111031.100527	20111031.100839	8	0.013328	60	10	60-180	60	174	GapExp	SmallFlash	0	29	2	45	1	target	1	281	860	223290	13.328	10.483	16.164
ProbeTrack13	2	ProbeTrack	13.2	SCS215b	20111031.100527	20111031.100846	8	0.013328	60	10	60-180	60	85	GapExp	SmallFlash	0	30	2	0	0	target	0	385	-1000	222290	13.328	8.515	18.139
ProbeTrack13	2	ProbeTrack	13.2	SCS215b	20111031.100527	20111031.100852	8	0.013328	60	10	60-180	60	107	GapExp	SmallFlash	0	31	2	1	0	distractor	1	423	789	223079	13.328	13.310	13.348
ProbeTrack13	2	ProbeTrack	13.2	SCS215b	20111031.100527	20111031.100858	8	0.013328	60	10	60-180	60	174	GapExp	SmallFlash	0	32	2	1	1	target	1	363	819	223898	13.328	7.232	19.437
ProbeTrack13	2	ProbeTrack	13.2	SCS215b	20111031.100527	20111031.100905	8	0.013328	60	10	60-180	60	71	GapExp	SmallFlash	0	33	2	45	1	target	1	328	836	224734	13.306	8.352	16.712
ProbeTrack13	2	ProbeTrack	13.2	SCS215b	20111031.100527	20111031.100910	8	0.013328	60	10	60-180	60	147	GapExp	SmallFlash	0	34	2	3	0	distractor	1	473	764	225498	13.328	8.998	17.675
ProbeTrack13	2	ProbeTrack	13.2	SCS215b	20111031.100527	20111031.100919	8	0.013328	60	10	60-180	60	132	GapExp	SmallFlash	0	35	2	0	0	distractor	1	411	795	226293	13.328	11.272	15.379
ProbeTrack13	2	ProbeTrack	13.2	SCS215b	20111031.100527	20111031.100925	8	0.013328	60	10	60-180	60	61	GapExp	SmallFlash	0	36	2	1	0	distractor	1	489	756	227049	13.328	13.280	13.371
ProbeTrack13	2	ProbeTrack	13.2	SCS215b	20111031.100527	20111031.100931	8	0.013328	60	10	60-180	60	131	GapExp	SmallFlash	0	37	2	45	1	target	1	320	840	227889	13.328	13.096	13.549
ProbeTrack13	2	ProbeTrack	13.2	SCS215b	20111031.100527	20111031.100937	8	0.013328	60	10	60-180	60	126	GapExp	SmallFlash	0	38	2	45	0	distractor	1	472	764	228653	13.328	13.101	13.560
ProbeTrack13	2	ProbeTrack	13.2	SCS215b	20111031.100527	20111031.100944	8	0.013328	60	10	60-180	60	83	GapExp	SmallFlash	0	39	2	1	0	distractor	1	434	783	229436	13.328	10.872	15.781
ProbeTrack13	2	ProbeTrack	13.2	SCS215b	20111031.100527	20111031.100950	8	0.013328	60	10	60-180	60	81	GapExp	SmallFlash	0	40	2	0	1	target	1	481	760	230196	13.328	13.163	13.489
ProbeTrack13	2	ProbeTrack	13.2	SCS215b	20111031.100527	20111031.100955	8	0.013328	60	10	60-180	60	133	GapExp	SmallFlash	0	41	2	1	0	distractor	1	445	778	230974	13.328	13.299	13.352
ProbeTrack13	2	ProbeTrack	13.2	SCS215b	20111031.100527	20111031.101002	8	0.013328	60	10	60-180	60	101	GapExp	SmallFlash	0	42	2	3	0	distractor	1	383	809	231783	13.328	11.615	15.036
ProbeTrack13	2	ProbeTrack	13.2	SCS215b	20111031.100527	20111031.101008	8	0.013328	60	10	60-180	60	172	GapExp	SmallFlash	0	43	2	0	0	distractor	1	432	784	232567	13.328	13.241	13.411
ProbeTrack13	2	ProbeTrack	13.2	SCS215b	20111031.100527	20111031.101014	8	0.013328	60	10	60-180	60	88	GapExp	SmallFlash	0	44	2	3	1	target	1	454	773	233340	13.328	13.285	13.354
ProbeTrack13	2	ProbeTrack	13.2	SCS215b	20111031.100527	20111031.101020	8	0.013328	60	10	60-180	60	74	GapExp	SmallFlash	0	45	2	0	0	distractor	1	364	818	234158	13.328	10.872	16.435
ProbeTrack13	2	ProbeTrack	13.2	SCS215b	20111031.100527	20111031.101025	8	0.013328	60	10	60-180	60	70	GapExp	SmallFlash	0	46	2	0	1	target	1	457	772	234930	13.328	13.310	13.348
ProbeTrack13	2	ProbeTrack	13.2	SCS215b	20111031.100527	20111031.101031	8	0.013328	60	10	60-180	60	131	GapExp	SmallFlash	0	47	2	45	1	target	1	310	845	235775	13.328	9.594	17.080
ProbeTrack13	2	ProbeTrack	13.2	SCS215b	20111031.100527	20111031.101038	8	0.013328	60	10	60-180	60	166	GapExp	SmallFlash	0	48	2	3	0	distractor	1	379	811	236586	13.328	8.485	18.166
ProbeTrack13	2	ProbeTrack	13.2	SCS215b	20111031.100527	20111031.101044	8	0.013328	60	10	60-180	60	98	GapExp	SmallFlash	0	49	2	45	0	distractor	1	471	765	237351	13.328	12.428	14.223
ProbeTrack13	2	ProbeTrack	13.2	SCS215b	20111031.100527	20111031.101051	8	0.013328	60	10	60-180	60	79	GapExp	SmallFlash	0	50	2	45	1	target	1	363	819	238170	13.328	9.398	17.259
ProbeTrack13	2	ProbeTrack	13.2	SCS215b	20111031.100527	20111031.101057	8	0.013328	60	10	60-180	60	117	GapExp	SmallFlash	0	51	2	1	1	target	1	306	847	239017	13.328	10.037	16.617
ProbeTrack13	2	ProbeTrack	13.2	SCS215b	20111031.100527	20111031.101103	8	0.013328	60	10	60-180	60	84	GapExp	SmallFlash	0	52	2	1	0	distractor	1	469	766	239783	13.328	11.846	14.823
ProbeTrack13	2	ProbeTrack	13.2	SCS215b	20111031.100527	20111031.101109	8	0.013328	60	10	60-180	60	105	GapExp	SmallFlash	0	53	2	45	1	target	1	405	798	240581	13.328	13.099	13.552
ProbeTrack13	2	ProbeTrack	13.2	SCS215b	20111031.100527	20111031.101116	8	0.013328	60	10	60-180	60	145	GapExp	SmallFlash	0	54	2	1	0	distractor	1	386	807	241388	13.328	11.121	15.533
ProbeTrack13	2	ProbeTrack	13.2	SCS215b	20111031.100527	20111031.101122	8	0.013328	60	10	60-180	60	159	GapExp	SmallFlash	0	55	2	45	0	distractor	1	398	801	242189	13.328	7.211	19.435
ProbeTrack13	2	ProbeTrack	13.2	SCS215b	20111031.100527	20111031.101129	8	0.013328	60	10	60-180	60	71	GapExp	SmallFlash	0	56	2	1	0	distractor	1	405	798	242987	13.328	10.442	16.214
ProbeTrack13	2	ProbeTrack	13.2	SCS215b	20111031.100527	20111031.101134	8	0.013328	60	10	60-180	60	144	GapExp	SmallFlash	0	57	2	0	1	target	1	353	824	243811	13.328	9.154	17.498
ProbeTrack13	2	ProbeTrack	13.2	SCS215b	20111031.100527	20111031.101141	8	0.013328	60	10	60-180	60	151	GapExp	SmallFlash	0	58	2	0	0	distractor	1	383	809	244620	13.328	13.250	13.471
ProbeTrack13	2	ProbeTrack	13.2	SCS215b	20111031.100527	20111031.101147	8	0.013328	60	10	60-180	60	99	GapExp	SmallFlash	0	59	2	1	0	distractor	1	439	781	245401	13.328	10.393	16.271
ProbeTrack13	2	ProbeTrack	13.2	SCS215b	20111031.100527	20111031.101153	8	0.013328	60	10	60-180	60	158	GapExp	SmallFlash	0	60	2	45	0	distractor	1	396	802	246203	13.328	13.102	13.551
ProbeTrack13	2	ProbeTrack	13.2	SCS215b	20111031.100527	20111031.101200	8	0.013328	60	10	60-180	60	155	GapExp	SmallFlash	0	61	2	3	1	target	1	442	779	246982	13.328	13.084	13.568
ProbeTrack13	2	ProbeTrack	13.2	SCS215b	20111031.100527	20111031.101206	8	0.013328	60	10	60-180	60	144	GapExp	SmallFlash	0	62	2	1	1	target	1	394	803	247785	13.328	13.311	13.350
ProbeTrack13	2	ProbeTrack	13.2	SCS215b	20111031.100527	20111031.101213	8	0.013328	60	10	60-180	60	111	GapExp	SmallFlash	0	63	2	45	0	distractor	1	380	810	248595	13.328	10.872	15.809
ProbeTrack13	2	ProbeTrack	13.2	SCS215b	20111031.100527	20111031.101219	8	0.013328	60	10	60-180	60	64	GapExp	SmallFlash	0	64	2	1	1	target	1	412	794	249389	13.328	13.101	13.551
ProbeTrack13	2	ProbeTrack	13.2	SCS215b	20111031.100527	20111031.101224	8	0.013328	60	10	60-180	60	174	GapExp	SmallFlash	0	65	2	3	0	distractor	1	398	801	250190	13.328	13.096	13.555
ProbeTrack13	2	ProbeTrack	13.2	SCS215b	20111031.100527	20111031.101231	8	0.013328	60	10	60-180	60	179	GapExp	SmallFlash	0	66	2	1	0	distractor	1	391	805	250995	13.328	9.650	17.003
ProbeTrack13	2	ProbeTrack	13.2	SCS215b	20111031.100527	20111031.101238	8	0.013328	60	10	60-180	60	161	GapExp	SmallFlash	0	67	2	1	0	target	0	388	-1000	249995	13.328	9.927	16.725
ProbeTrack13	2	ProbeTrack	13.2	SCS215b	20111031.100527	20111031.101245	8	0.013328	60	10	60-180	60	175	GapExp	SmallFlash	0	68	2	45	0	distractor	1	432	784	250779	13.328	10.865	15.980
ProbeTrack13	2	ProbeTrack	13.2	SCS215b	20111031.100527	20111031.101254	8	0.013328	60	10	60-180	60	102	GapExp	SmallFlash	0	69	2	0	0	distractor	1	436	782	251561	13.328	11.067	15.603
ProbeTrack13	2	ProbeTrack	13.2	SCS215b	20111031.100527	20111031.101300	8	0.013328	60	10	60-180	60	180	GapExp	SmallFlash	0	70	2	1	1	target	1	323	839	252400	13.328	8.184	18.489
ProbeTrack13	2	ProbeTrack	13.2	SCS215b	20111031.100527	20111031.101307	8	0.013328	60	10	60-180	60	133	GapExp	SmallFlash	0	71	2	1	1	target	1	357	822	253222	13.328	13.104	13.551
ProbeTrack13	2	ProbeTrack	13.2	SCS215b	20111031.100527	20111031.101313	8	0.013328	60	10	60-180	60	146	GapExp	SmallFlash	0	72	2	3	0	distractor	1	386	807	254029	13.328	9.194	17.458
ProbeTrack13	2	ProbeTrack	13.2	SCS215b	20111031.100527	20111031.101319	8	0.013328	60	10	60-180	60	96	GapExp	SmallFlash	0	73	2	3	1	target	1	396	802	254831	13.328	9.420	17.242
ProbeTrack13	2	ProbeTrack	13.2	SCS215b	20111031.100527	20111031.101325	8	0.013328	60	10	60-180	60	108	GapExp	SmallFlash	0	74	2	1	0	distractor	1	580	710	255541	13.328	13.025	13.651
ProbeTrack13	2	ProbeTrack	13.2	SCS215b	20111031.100527	20111031.101332	8	0.013328	60	10	60-180	60	164	GapExp	SmallFlash	0	75	2	0	0	distractor	1	349	826	256367	13.328	11.272	15.385
ProbeTrack13	2	ProbeTrack	13.2	SCS215b	20111031.100527	20111031.101339	8	0.013328	60	10	60-180	60	98	GapExp	SmallFlash	0	76	2	45	1	target	1	370	815	257182	13.328	4.797	21.861
ProbeTrack13	2	ProbeTrack	13.2	SCS215b	20111031.100527	20111031.101345	8	0.013328	60	10	60-180	60	114	GapExp	SmallFlash	0	77	2	1	1	target	1	397	802	257984	13.328	13.303	13.364
ProbeTrack13	2	ProbeTrack	13.2	SCS215b	20111031.100527	20111031.101351	8	0.013328	60	10	60-180	60	95	GapExp	SmallFlash	0	78	2	45	1	target	1	345	828	258812	13.328	10.817	15.841
ProbeTrack13	2	ProbeTrack	13.2	SCS215b	20111031.100527	20111031.101358	8	0.013328	60	10	60-180	60	158	GapExp	SmallFlash	0	79	2	1	0	distractor	1	400	800	259612	13.328	12.084	14.587
ProbeTrack13	2	ProbeTrack	13.2	SCS215b	20111031.100527	20111031.101404	8	0.013328	60	10	60-180	60	74	GapExp	SmallFlash	0	80	2	0	0	target	0	395	-1000	258612	13.328	12.877	13.774
ProbeTrack13	2	ProbeTrack	13.2	SCS215b	20111031.100527	20111031.101410	8	0.013328	60	10	60-180	60	68	GapExp	SmallFlash	0	81	2	1	1	target	1	435	783	259395	13.328	9.887	16.801
ProbeTrack13	2	ProbeTrack	13.2	SCS215b	20111031.100527	20111031.101416	8	0.013328	60	10	60-180	60	141	GapExp	SmallFlash	0	82	2	3	1	target	1	331	835	260230	13.328	9.047	17.607
ProbeTrack13	2	ProbeTrack	13.2	SCS215b	20111031.100527	20111031.101423	8	0.013328	60	10	60-180	60	168	GapExp	SmallFlash	0	83	2	1	1	target	1	370	815	261045	13.328	13.305	13.348
ProbeTrack13	2	ProbeTrack	13.2	SCS215b	20111031.100527	20111031.101429	8	0.013328	60	10	60-180	60	178	GapExp	SmallFlash	0	84	2	45	1	target	1	324	838	261883	13.328	12.421	14.261
ProbeTrack13	2	ProbeTrack	13.2	SCS215b	20111031.100527	20111031.101437	8	0.013328	60	10	60-180	60	70	GapExp	SmallFlash	0	85	2	0	1	target	1	410	795	262678	13.328	4.588	22.062
ProbeTrack13	2	ProbeTrack	13.2	SCS215b	20111031.100527	20111031.101442	8	0.013328	60	10	60-180	60	108	GapExp	SmallFlash	0	86	2	0	1	target	1	327	837	263515	13.328	8.080	18.583
ProbeTrack13	2	ProbeTrack	13.2	SCS215b	20111031.100527	20111031.101448	8	0.013328	60	10	60-180	60	141	GapExp	SmallFlash	0	87	2	3	1	target	1	294	853	264368	13.328	7.847	18.810
ProbeTrack13	2	ProbeTrack	13.2	SCS215b	20111031.100527	20111031.101455	8	0.013328	60	10	60-180	60	97	GapExp	SmallFlash	0	88	2	0	0	distractor	1	410	795	265163	13.328	13.312	13.348
ProbeTrack13	2	ProbeTrack	13.2	SCS215b	20111031.100527	20111031.101500	8	0.013328	60	10	60-180	60	155	GapExp	SmallFlash	0	89	2	3	0	distractor	1	378	811	265974	13.328	11.728	14.925
ProbeTrack13	2	ProbeTrack	13.2	SCS215b	20111031.100527	20111031.101507	8	0.013328	60	10	60-180	60	144	GapExp	SmallFlash	0	90	2	3	0	distractor	1	374	813	266787	13.328	13.085	13.560
ProbeTrack13	2	ProbeTrack	13.2	SCS215b	20111031.100527	20111031.101513	8	0.013328	60	10	60-180	60	171	GapExp	SmallFlash	0	91	2	45	1	target	1	284	858	267645	13.328	6.072	20.599
ProbeTrack13	2	ProbeTrack	13.2	SCS215b	20111031.100527	20111031.101520	8	0.013328	60	10	60-180	60	137	GapExp	SmallFlash	0	92	2	1	1	target	1	312	844	268489	13.328	10.842	15.818
ProbeTrack13	2	ProbeTrack	13.2	SCS215b	20111031.100527	20111031.101527	8	0.013328	60	10	60-180	60	115	GapExp	SmallFlash	0	93	2	3	1	target	1	298	851	269340	13.328	7.772	18.883
ProbeTrack13	2	ProbeTrack	13.2	SCS215b	20111031.100527	20111031.101533	8	0.013328	60	10	60-180	60	103	GapExp	SmallFlash	0	94	2	45	0	distractor	1	375	813	270153	13.328	12.608	14.064
ProbeTrack13	2	ProbeTrack	13.2	SCS215b	20111031.100527	20111031.101539	8	0.013328	60	10	60-180	60	75	GapExp	SmallFlash	0	95	2	3	0	distractor	1	367	817	270970	13.328	13.264	13.386
ProbeTrack13	2	ProbeTrack	13.2	SCS215b	20111031.100527	20111031.101545	8	0.013328	60	10	60-180	60	73	GapExp	SmallFlash	0	96	2	0	0	distractor	1	429	786	271756	13.328	13.309	13.348
ProbeTrack13	2	ProbeTrack	13.2	SCS215b	20111031.100527	20111031.101550	8	0.013328	60	10	60-180	60	97	GapExp	SmallFlash	0	97	2	3	1	target	1	433	784	272540	13.328	4.912	21.745
ProbeTrack13	2	ProbeTrack	13.2	SCS215b	20111031.100527	20111031.101556	8	0.013328	60	10	60-180	60	129	GapExp	SmallFlash	0	98	2	0	1	target	1	408	796	273336	13.328	13.099	13.552
ProbeTrack13	2	ProbeTrack	13.2	SCS215b	20111031.100527	20111031.101603	8	0.013328	60	10	60-180	60	116	GapExp	SmallFlash	0	99	2	45	0	distractor	1	382	809	274145	13.328	6.130	20.526
ProbeTrack13	2	ProbeTrack	13.2	SCS215b	20111031.100527	20111031.101609	8	0.013328	60	10	60-180	60	168	GapExp	SmallFlash	0	100	2	45	0	distractor	1	444	778	274923	13.368	8.343	20.552
ProbeTrack13	2	ProbeTrack	13.2	SCS215b	20111031.100527	20111031.101616	8	0.013328	60	10	60-180	60	104	GapExp	SmallFlash	0	101	2	3	1	target	1	357	822	275745	13.328	13.100	13.551
ProbeTrack13	2	ProbeTrack	13.2	SCS215b	20111031.100527	20111031.101623	8	0.013328	60	10	60-180	60	149	GapExp	SmallFlash	0	102	2	1	0	target	0	455	-1000	274745	13.328	10.908	15.747
ProbeTrack13	2	ProbeTrack	13.2	SCS215b	20111031.100527	20111031.101629	8	0.013328	60	10	60-180	60	150	GapExp	SmallFlash	0	103	2	45	1	target	1	325	838	275583	13.328	11.570	15.080
ProbeTrack13	2	ProbeTrack	13.2	SCS215b	20111031.100527	20111031.101637	8	0.013328	60	10	60-180	60	118	GapExp	SmallFlash	0	104	2	0	1	target	1	371	815	276398	13.328	7.116	19.536
ProbeTrack13	2	ProbeTrack	13.2	SCS215b	20111031.100527	20111031.101642	8	0.013328	60	10	60-180	60	118	GapExp	SmallFlash	0	105	2	1	1	target	1	368	816	277214	13.328	9.904	16.748
ProbeTrack13	2	ProbeTrack	13.2	SCS215b	20111031.100527	20111031.101648	8	0.013328	60	10	60-180	60	172	GapExp	SmallFlash	0	106	2	0	0	distractor	1	438	781	277995	13.328	13.269	13.382
ProbeTrack13	2	ProbeTrack	13.2	SCS215b	20111031.100527	20111031.101655	8	0.013328	60	10	60-180	60	101	GapExp	SmallFlash	0	107	2	0	0	distractor	1	616	692	278687	13.328	5.479	21.174
ProbeTrack13	2	ProbeTrack	13.2	SCS215b	20111031.100527	20111031.101701	8	0.013328	60	10	60-180	60	146	GapExp	SmallFlash	0	108	2	1	0	distractor	1	420	790	279477	13.328	12.939	13.805
ProbeTrack13	2	ProbeTrack	13.2	SCS215b	20111031.100527	20111031.101708	8	0.013328	60	10	60-180	60	111	GapExp	SmallFlash	0	109	2	0	0	distractor	1	437	782	280259	13.328	9.184	17.466
ProbeTrack13	2	ProbeTrack	13.2	SCS215b	20111031.100527	20111031.101714	8	0.013328	60	10	60-180	60	109	GapExp	SmallFlash	0	110	2	45	1	target	1	333	834	281093	13.328	11.193	15.461
ProbeTrack13	2	ProbeTrack	13.2	SCS215b	20111031.100527	20111031.101720	8	0.013328	60	10	60-180	60	174	GapExp	SmallFlash	0	111	2	45	0	distractor	1	437	782	281875	13.328	11.172	15.512
ProbeTrack13	2	ProbeTrack	13.2	SCS215b	20111031.100527	20111031.101727	8	0.013328	60	10	60-180	60	62	GapExp	SmallFlash	0	112	2	3	0	distractor	1	490	755	282630	13.328	8.025	17.868
ProbeTrack13	2	ProbeTrack	13.2	SCS215b	20111031.100527	20111031.101732	8	0.013328	60	10	60-180	60	173	GapExp	SmallFlash	0	113	2	45	0	distractor	1	615	693	283323	13.328	13.100	13.551
ProbeTrack13	2	ProbeTrack	13.2	SCS215b	20111031.100527	20111031.101741	8	0.013328	60	10	60-180	60	65	GapExp	SmallFlash	0	114	2	45	0	distractor	1	422	789	284112	13.328	7.360	19.291
ProbeTrack13	2	ProbeTrack	13.2	SCS215b	20111031.100527	20111031.101746	8	0.013328	60	10	60-180	60	71	GapExp	SmallFlash	0	115	2	0	1	target	1	416	792	284904	13.328	13.310	13.350
ProbeTrack13	2	ProbeTrack	13.2	SCS215b	20111031.100527	20111031.101751	8	0.013328	60	10	60-180	60	111	GapExp	SmallFlash	0	116	2	1	0	distractor	1	378	811	285715	13.328	11.065	15.572
ProbeTrack13	2	ProbeTrack	13.2	SCS215b	20111031.100527	20111031.101758	8	0.013328	60	10	60-180	60	140	GapExp	SmallFlash	0	117	2	1	0	distractor	1	431	785	286500	13.328	13.189	13.456
ProbeTrack13	2	ProbeTrack	13.2	SCS215b	20111031.100527	20111031.101804	8	0.013328	60	10	60-180	60	109	GapExp	SmallFlash	0	118	2	0	0	target	0	407	-1000	285500	13.319	11.300	13.360
ProbeTrack13	2	ProbeTrack	13.2	SCS215b	20111031.100527	20111031.101810	8	0.013328	60	10	60-180	60	130	GapExp	SmallFlash	0	119	2	45	0	distractor	1	404	798	286298	13.328	13.101	13.551
ProbeTrack13	2	ProbeTrack	13.2	SCS215b	20111031.100527	20111031.101818	8	0.013328	60	10	60-180	60	163	GapExp	SmallFlash	0	120	2	3	0	distractor	1	447	777	287075	13.328	10.021	16.631
ProbeTrack13	2	ProbeTrack	13.2	SCS215b	20111031.100527	20111031.101824	8	0.013328	60	10	60-180	60	139	GapExp	SmallFlash	0	121	2	0	0	distractor	1	391	805	287880	13.328	13.307	13.348
ProbeTrack13	2	ProbeTrack	13.2	SCS215b	20111031.100527	20111031.101831	8	0.013328	60	10	60-180	60	171	GapExp	SmallFlash	0	122	2	0	1	target	1	450	775	288655	13.328	13.020	13.699
ProbeTrack13	2	ProbeTrack	13.2	SCS215b	20111031.100527	20111031.101838	8	0.013328	60	10	60-180	60	110	GapExp	SmallFlash	0	123	2	0	1	target	1	348	826	289481	13.328	13.100	13.550
ProbeTrack13	2	ProbeTrack	13.2	SCS215b	20111031.100527	20111031.101844	8	0.013328	60	10	60-180	60	91	GapExp	SmallFlash	0	124	2	3	1	target	1	364	818	290299	13.353	13.101	18.417
ProbeTrack13	2	ProbeTrack	13.2	SCS215b	20111031.100527	20111031.101850	8	0.013328	60	10	60-180	60	70	GapExp	SmallFlash	0	125	2	1	1	target	1	416	792	291091	13.328	7.572	19.099
ProbeTrack13	2	ProbeTrack	13.2	SCS215b	20111031.100527	20111031.101855	8	0.013328	60	10	60-180	60	71	GapExp	SmallFlash	0	126	2	45	1	target	1	287	857	291948	13.328	7.196	19.466
ProbeTrack13	2	ProbeTrack	13.2	SCS215b	20111031.100527	20111031.101901	8	0.013328	60	10	60-180	60	147	GapExp	SmallFlash	0	127	2	3	1	target	1	312	844	292792	13.328	10.924	15.744
ProbeTrack13	2	ProbeTrack	13.2	SCS215b	20111031.100527	20111031.101907	8	0.013328	60	10	60-180	60	109	GapExp	SmallFlash	0	128	2	45	0	distractor	1	370	815	293607	13.328	13.301	13.359
ProbeTrack13	2	ProbeTrack	13.2	SCS215b	20111031.100527	20111031.101913	8	0.013328	60	10	60-180	60	168	GapExp	SmallFlash	0	129	2	45	1	target	1	300	850	294457	13.328	9.175	17.489
ProbeTrack13	2	ProbeTrack	13.2	SCS215b	20111031.100527	20111031.101921	8	0.013328	60	10	60-180	60	147	GapExp	SmallFlash	0	130	2	1	0	distractor	1	405	798	295255	13.328	10.859	15.794
ProbeTrack13	2	ProbeTrack	13.2	SCS215b	20111031.100527	20111031.101927	8	0.013328	60	10	60-180	60	131	GapExp	SmallFlash	0	131	2	0	1	target	1	342	829	296084	13.328	13.100	13.552
ProbeTrack13	2	ProbeTrack	13.2	SCS215b	20111031.100527	20111031.101933	8	0.013328	60	10	60-180	60	175	GapExp	SmallFlash	0	132	2	1	1	target	1	296	852	296936	13.328	9.675	13.551
ProbeTrack13	2	ProbeTrack	13.2	SCS215b	20111031.100527	20111031.101940	8	0.013328	60	10	60-180	60	147	GapExp	SmallFlash	0	133	2	1	0	distractor	1	413	794	297730	13.328	12.913	13.737
ProbeTrack13	2	ProbeTrack	13.2	SCS215b	20111031.100527	20111031.101946	8	0.013328	60	10	60-180	60	104	GapExp	SmallFlash	0	134	2	1	0	distractor	1	411	795	298525	13.328	12.594	14.069
ProbeTrack13	2	ProbeTrack	13.2	SCS215b	20111031.100527	20111031.101952	8	0.013328	60	10	60-180	60	174	GapExp	SmallFlash	0	135	2	0	1	target	1	318	841	299366	13.328	10.622	16.041
ProbeTrack13	2	ProbeTrack	13.2	SCS215b	20111031.100527	20111031.101959	8	0.013328	60	10	60-180	60	70	GapExp	SmallFlash	0	136	2	3	1	target	1	323	839	300205	13.328	6.750	19.907
ProbeTrack13	2	ProbeTrack	13.2	SCS215b	20111031.100527	20111031.102004	8	0.013328	60	10	60-180	60	108	GapExp	SmallFlash	0	137	2	1	1	target	1	320	840	301045	13.328	12.185	14.481
ProbeTrack13	2	ProbeTrack	13.2	SCS215b	20111031.100527	20111031.102010	8	0.013328	60	10	60-180	60	166	GapExp	SmallFlash	0	138	2	0	0	distractor	1	334	833	301878	13.328	10.586	16.066
ProbeTrack13	2	ProbeTrack	13.2	SCS215b	20111031.100527	20111031.102016	8	0.013328	60	10	60-180	60	144	GapExp	SmallFlash	0	139	2	1	1	target	1	317	842	302720	13.328	12.806	13.850
ProbeTrack13	2	ProbeTrack	13.2	SCS215b	20111031.100527	20111031.102023	8	0.013328	60	10	60-180	60	161	GapExp	SmallFlash	0	140	2	45	0	distractor	1	362	819	303539	13.328	7.645	19.010
ProbeTrack13	2	ProbeTrack	13.2	SCS215b	20111031.100527	20111031.102030	8	0.013328	60	10	60-180	60	90	GapExp	SmallFlash	0	141	2	3	0	distractor	1	391	805	304344	13.328	6.982	19.671
ProbeTrack13	2	ProbeTrack	13.2	SCS215b	20111031.100527	20111031.102036	8	0.013328	60	10	60-180	60	64	GapExp	SmallFlash	0	142	2	0	1	target	1	336	832	305176	13.328	13.099	13.552
ProbeTrack13	2	ProbeTrack	13.2	SCS215b	20111031.100527	20111031.102041	8	0.013328	60	10	60-180	60	150	GapExp	SmallFlash	0	143	2	45	1	target	1	383	809	305985	13.328	11.522	15.130
ProbeTrack13	2	ProbeTrack	13.2	SCS215b	20111031.100527	20111031.102048	8	0.013328	60	10	60-180	60	147	GapExp	SmallFlash	0	144	2	0	0	distractor	1	360	820	306805	13.328	13.312	13.348
ProbeTrack13	2	ProbeTrack	13.2	SCS215b	20111031.100527	20111031.102055	8	0.013328	60	10	60-180	60	123	GapExp	SmallFlash	0	145	2	0	1	target	1	326	837	307642	13.328	13.309	13.351
ProbeTrack13	2	ProbeTrack	13.2	SCS215b	20111031.100527	20111031.102101	8	0.013328	60	10	60-180	60	154	GapExp	SmallFlash	0	146	2	1	0	distractor	1	465	768	308410	13.328	13.100	13.550
ProbeTrack13	2	ProbeTrack	13.2	SCS215b	20111031.100527	20111031.102109	8	0.013328	60	10	60-180	60	131	GapExp	SmallFlash	0	147	2	45	1	target	1	314	843	309253	13.328	9.722	16.926
ProbeTrack13	2	ProbeTrack	13.2	SCS215b	20111031.100527	20111031.102115	8	0.013328	60	10	60-180	60	98	GapExp	SmallFlash	0	148	2	1	1	target	1	374	813	310066	13.328	13.306	13.353
ProbeTrack13	2	ProbeTrack	13.2	SCS215b	20111031.100527	20111031.102121	8	0.013328	60	10	60-180	60	163	GapExp	SmallFlash	0	149	2	1	1	target	1	329	836	310902	13.328	13.307	13.360
ProbeTrack13	2	ProbeTrack	13.2	SCS215b	20111031.100527	20111031.102128	8	0.013328	60	10	60-180	60	83	GapExp	SmallFlash	0	150	2	1	1	target	1	359	821	311723	13.328	13.315	13.348
ProbeTrack13	2	ProbeTrack	13.2	SCS215b	20111031.100527	20111031.102133	8	0.013328	60	10	60-180	60	126	GapExp	SmallFlash	0	151	2	45	1	target	1	366	817	312540	13.328	11.066	15.607
ProbeTrack13	2	ProbeTrack	13.2	SCS215b	20111031.100527	20111031.102140	8	0.013328	60	10	60-180	60	95	GapExp	SmallFlash	0	152	2	0	1	target	1	377	812	313352	13.328	13.103	13.548
ProbeTrack13	2	ProbeTrack	13.2	SCS215b	20111031.100527	20111031.102146	8	0.013328	60	10	60-180	60	87	GapExp	SmallFlash	0	153	2	45	0	distractor	1	466	767	314119	13.328	13.096	13.557
ProbeTrack13	2	ProbeTrack	13.2	SCS215b	20111031.100527	20111031.102152	8	0.013328	60	10	60-180	60	113	GapExp	SmallFlash	0	154	2	3	1	target	1	413	794	314913	13.328	13.312	13.348
ProbeTrack13	2	ProbeTrack	13.2	SCS215b	20111031.100527	20111031.102205	8	0.013328	60	10	60-180	60	65	GapExp	SmallFlash	0	155	2	3	0	distractor	1	445	778	315691	13.328	12.789	13.873
ProbeTrack13	2	ProbeTrack	13.2	SCS215b	20111031.100527	20111031.102211	8	0.013328	60	10	60-180	60	145	GapExp	SmallFlash	0	156	2	3	0	distractor	1	381	810	316501	13.328	8.058	18.593
ProbeTrack13	2	ProbeTrack	13.2	SCS215b	20111031.100527	20111031.102217	8	0.013328	60	10	60-180	60	116	GapExp	SmallFlash	0	157	2	1	1	target	1	371	815	317316	13.328	10.938	15.716
ProbeTrack13	2	ProbeTrack	13.2	SCS215b	20111031.100527	20111031.102223	8	0.013328	60	10	60-180	60	102	GapExp	SmallFlash	0	158	2	0	0	distractor	1	408	796	318112	13.328	13.313	13.349
ProbeTrack13	2	ProbeTrack	13.2	SCS215b	20111031.100527	20111031.102229	8	0.013328	60	10	60-180	60	167	GapExp	SmallFlash	0	159	2	0	0	distractor	1	455	773	318885	13.328	13.099	13.551
ProbeTrack13	2	ProbeTrack	13.2	SCS215b	20111031.100527	20111031.102236	8	0.013328	60	10	60-180	60	102	GapExp	SmallFlash	0	160	2	3	1	target	1	361	820	319705	13.328	9.916	16.754
ProbeTrack13	2	ProbeTrack	13.2	SCS215b	20111031.100527	20111031.102242	8	0.013328	60	10	60-180	60	132	GapExp	SmallFlash	0	161	2	3	1	target	1	373	814	320519	13.328	12.898	13.785
ProbeTrack13	2	ProbeTrack	13.2	SCS215b	20111031.100527	20111031.102248	8	0.013328	60	10	60-180	60	97	GapExp	SmallFlash	0	162	2	1	1	target	1	358	821	321340	13.328	13.105	13.551
ProbeTrack13	2	ProbeTrack	13.2	SCS215b	20111031.100527	20111031.102254	8	0.013328	60	10	60-180	60	100	GapExp	SmallFlash	0	163	2	3	1	target	1	326	837	322177	13.328	13.308	13.348
ProbeTrack13	2	ProbeTrack	13.2	SCS215b	20111031.100527	20111031.102300	8	0.013328	60	10	60-180	60	100	GapExp	SmallFlash	0	164	2	0	0	distractor	1	445	778	322955	13.328	12.719	13.951
ProbeTrack13	2	ProbeTrack	13.2	SCS215b	20111031.100527	20111031.102306	8	0.013328	60	10	60-180	60	61	GapExp	SmallFlash	0	165	2	3	0	distractor	1	379	811	323766	13.328	11.870	14.780
ProbeTrack13	2	ProbeTrack	13.2	SCS215b	20111031.100527	20111031.102311	8	0.013328	60	10	60-180	60	115	GapExp	SmallFlash	0	166	2	1	0	distractor	1	341	830	324596	13.328	10.696	15.956
ProbeTrack13	2	ProbeTrack	13.2	SCS215b	20111031.100527	20111031.102317	8	0.013328	60	10	60-180	60	65	GapExp	SmallFlash	0	167	2	3	1	target	1	347	827	325423	13.328	13.100	13.572
ProbeTrack13	2	ProbeTrack	13.2	SCS215b	20111031.100527	20111031.102322	8	0.013328	60	10	60-180	60	110	GapExp	SmallFlash	0	168	2	1	0	distractor	1	346	827	326250	13.328	13.311	13.348
ProbeTrack13	2	ProbeTrack	13.2	SCS215b	20111031.100527	20111031.102328	8	0.013328	60	10	60-180	60	91	GapExp	SmallFlash	0	169	2	3	0	distractor	1	354	823	327073	13.328	6.519	20.142
ProbeTrack13	2	ProbeTrack	13.2	SCS215b	20111031.100527	20111031.102334	8	0.013328	60	10	60-180	60	63	GapExp	SmallFlash	0	170	2	45	1	target	1	321	840	327913	13.328	13.310	13.349
ProbeTrack13	2	ProbeTrack	13.2	SCS215b	20111031.100527	20111031.102339	8	0.013328	60	10	60-180	60	65	GapExp	SmallFlash	0	171	2	45	0	distractor	1	376	812	328725	13.328	13.098	13.554
ProbeTrack13	2	ProbeTrack	13.2	SCS215b	20111031.100527	20111031.102346	8	0.013328	60	10	60-180	60	110	GapExp	SmallFlash	0	172	2	3	1	target	1	332	834	329559	13.328	13.298	13.353
ProbeTrack13	2	ProbeTrack	13.2	SCS215b	20111031.100527	20111031.102351	8	0.013328	60	10	60-180	60	169	GapExp	SmallFlash	0	173	2	3	0	distractor	1	396	802	330361	13.328	12.061	14.591
ProbeTrack13	2	ProbeTrack	13.2	SCS215b	20111031.100527	20111031.102358	8	0.013328	60	10	60-180	60	163	GapExp	SmallFlash	0	174	2	0	1	target	1	395	803	331164	13.328	12.219	14.433
ProbeTrack13	2	ProbeTrack	13.2	SCS215b	20111031.100527	20111031.102405	8	0.013328	60	10	60-180	60	95	GapExp	SmallFlash	0	175	2	0	1	target	1	334	833	331997	13.328	12.826	13.846
ProbeTrack13	2	ProbeTrack	13.2	SCS215b	20111031.100527	20111031.102410	8	0.013328	60	10	60-180	60	122	GapExp	SmallFlash	0	176	2	3	1	target	1	314	843	332840	13.328	13.310	13.348
ProbeTrack13	2	ProbeTrack	13.2	SCS215b	20111031.100527	20111031.102417	8	0.013328	60	10	60-180	60	82	GapExp	SmallFlash	0	177	2	3	0	distractor	1	573	714	333554	13.328	13.308	13.352
ProbeTrack13	2	ProbeTrack	13.2	SCS215b	20111031.100527	20111031.102423	8	0.013328	60	10	60-180	60	62	GapExp	SmallFlash	0	178	2	3	0	distractor	1	399	801	334355	13.328	11.421	15.234
ProbeTrack13	2	ProbeTrack	13.2	SCS215b	20111031.100527	20111031.102428	8	0.013328	60	10	60-180	60	173	GapExp	SmallFlash	0	179	2	0	1	target	1	301	850	335205	13.328	13.114	13.557
ProbeTrack13	2	ProbeTrack	13.2	SCS215b	20111031.100527	20111031.102435	8	0.013328	60	10	60-180	60	132	GapExp	SmallFlash	0	180	2	0	0	distractor	1	376	812	336017	13.328	13.100	13.571
ProbeTrack13	2	ProbeTrack	13.2	SCS215b	20111031.100527	20111031.102441	8	0.013328	60	10	60-180	60	78	GapExp	SmallFlash	0	181	2	1	0	distractor	1	380	810	336827	13.328	13.103	13.550
ProbeTrack13	2	ProbeTrack	13.2	SCS215b	20111031.100527	20111031.102447	8	0.013328	60	10	60-180	60	107	GapExp	SmallFlash	0	182	2	45	0	distractor	1	330	835	337662	13.328	5.836	13.549
ProbeTrack13	2	ProbeTrack	13.2	SCS215b	20111031.100527	20111031.102453	8	0.013328	60	10	60-180	60	114	GapExp	SmallFlash	0	183	2	45	1	target	1	367	817	338479	13.328	7.987	18.664
ProbeTrack13	2	ProbeTrack	13.2	SCS215b	20111031.100527	20111031.102459	8	0.013328	60	10	60-180	60	108	GapExp	SmallFlash	0	184	2	0	1	target	1	361	820	339299	13.328	8.976	17.678
ProbeTrack13	2	ProbeTrack	13.2	SCS215b	20111031.100527	20111031.102505	8	0.013328	60	10	60-180	60	110	GapExp	SmallFlash	0	185	2	0	1	target	1	259	871	340170	13.328	7.449	19.207
ProbeTrack13	2	ProbeTrack	13.2	SCS215b	20111031.100527	20111031.102511	8	0.013328	60	10	60-180	60	133	GapExp	SmallFlash	0	186	2	3	0	target	0	323	-1000	339170	13.328	13.305	13.348
ProbeTrack13	2	ProbeTrack	13.2	SCS215b	20111031.100527	20111031.102518	8	0.013328	60	10	60-180	60	122	GapExp	SmallFlash	0	187	2	45	0	distractor	1	376	812	339982	13.328	11.316	15.373
ProbeTrack13	2	ProbeTrack	13.2	SCS215b	20111031.100527	20111031.102525	8	0.013328	60	10	60-180	60	89	GapExp	SmallFlash	0	188	2	45	1	target	1	450	775	340757	13.328	7.745	18.905
ProbeTrack13	2	ProbeTrack	13.2	SCS215b	20111031.100527	20111031.102532	8	0.013328	60	10	60-180	60	115	GapExp	SmallFlash	0	189	2	45	1	target	1	465	768	341525	13.328	13.078	13.593
ProbeTrack13	2	ProbeTrack	13.2	SCS215b	20111031.100527	20111031.102538	8	0.013328	60	10	60-180	60	151	GapExp	SmallFlash	0	190	2	1	1	target	1	328	836	342361	13.328	13.100	13.551
ProbeTrack13	2	ProbeTrack	13.2	SCS215b	20111031.100527	20111031.102544	8	0.013328	60	10	60-180	60	165	GapExp	SmallFlash	0	191	2	3	0	distractor	1	358	821	343182	13.328	10.589	16.064
ProbeTrack13	2	ProbeTrack	13.2	SCS215b	20111031.100527	20111031.102551	8	0.013328	60	10	60-180	60	152	GapExp	SmallFlash	0	192	2	3	1	target	1	367	817	343999	13.328	13.098	13.553
ProbeTrack13	2	ProbeTrack	13.2	SCS215b	20111031.100527	20111031.102558	8	0.013328	60	10	60-180	60	63	GapExp	SmallFlash	0	193	2	3	1	target	1	415	793	344792	13.328	11.304	15.340
ProbeTrack13	2	ProbeTrack	13.2	SCS215b	20111031.100527	20111031.102603	8	0.013328	60	10	60-180	60	117	GapExp	SmallFlash	0	194	2	0	1	target	1	324	838	345630	13.328	8.845	17.826
ProbeTrack13	2	ProbeTrack	13.2	SCS215b	20111031.100527	20111031.102609	8	0.013328	60	10	60-180	60	149	GapExp	SmallFlash	0	195	2	3	1	target	1	310	845	346475	13.328	9.260	17.387
ProbeTrack13	2	ProbeTrack	13.2	SCS215b	20111031.100527	20111031.102615	8	0.013328	60	10	60-180	60	79	GapExp	SmallFlash	0	196	2	3	0	distractor	1	458	771	347246	13.328	13.308	13.356
ProbeTrack13	2	ProbeTrack	13.2	SCS215b	20111031.100527	20111031.102621	8	0.013328	60	10	60-180	60	116	GapExp	SmallFlash	0	197	2	3	1	target	1	341	830	348076	13.328	8.598	18.052
ProbeTrack13	2	ProbeTrack	13.2	SCS215b	20111031.100527	20111031.102627	8	0.013328	60	10	60-180	60	150	GapExp	SmallFlash	0	198	2	0	1	target	1	308	846	348922	13.328	13.022	13.629
ProbeTrack13	2	ProbeTrack	13.2	SCS215b	20111031.100527	20111031.102633	8	0.013328	60	10	60-180	60	65	GapExp	SmallFlash	0	199	2	3	1	target	1	335	833	349755	13.328	8.180	18.492
ProbeTrack13	2	ProbeTrack	13.2	SCS215b	20111031.100527	20111031.102638	8	0.013328	60	10	60-180	60	131	GapExp	SmallFlash	0	200	2	3	0	distractor	1	359	821	350576	13.328	13.311	13.355
ProbeTrack13	2	ProbeTrack	13.2	SCS215b	20111031.102757	20111031.102802	8	0.013328	60	10	60-180	60	167	GapPrac	Blank	1	1	2	1	0	distractor	1	442	779	351355	13.374	7.235	19.416
ProbeTrack13	2	ProbeTrack	13.2	SCS215b	20111031.102757	20111031.102811	8	0.013328	60	10	60-180	60	70	GapPrac	Blank	1	2	2	45	0	distractor	1	526	737	352092	13.328	12.283	14.370
ProbeTrack13	2	ProbeTrack	13.2	SCS215b	20111031.102757	20111031.102817	8	0.013328	60	10	60-180	60	158	GapPrac	Blank	1	3	2	0	0	distractor	1	389	806	352898	13.328	9.085	17.581
ProbeTrack13	2	ProbeTrack	13.2	SCS215b	20111031.102757	20111031.102824	8	0.013328	60	10	60-180	60	89	GapPrac	Blank	1	4	2	3	0	distractor	1	361	820	353718	13.328	13.135	13.519
ProbeTrack13	2	ProbeTrack	13.2	SCS215b	20111031.102757	20111031.102829	8	0.013328	60	10	60-180	60	88	GapPrac	Blank	1	5	2	0	1	target	1	323	839	354557	13.328	7.908	18.744
ProbeTrack13	2	ProbeTrack	13.2	SCS215b	20111031.102757	20111031.102834	8	0.013328	60	10	60-180	60	150	GapPrac	Blank	1	6	2	45	0	distractor	1	352	824	355381	13.328	13.275	13.393
ProbeTrack13	2	ProbeTrack	13.2	SCS215b	20111031.102757	20111031.102842	8	0.013328	60	10	60-180	60	141	GapPrac	Blank	1	7	2	3	0	distractor	1	341	830	356211	13.328	11.754	14.900
ProbeTrack13	2	ProbeTrack	13.2	SCS215b	20111031.102757	20111031.102848	8	0.013328	60	10	60-180	60	144	GapPrac	Blank	1	8	2	0	0	distractor	1	389	806	357017	13.328	12.931	13.722
ProbeTrack13	2	ProbeTrack	13.2	SCS215b	20111031.102757	20111031.102854	8	0.013328	60	10	60-180	60	169	GapPrac	Blank	1	9	2	3	1	target	1	378	811	357828	13.328	13.060	13.607
ProbeTrack13	2	ProbeTrack	13.2	SCS215b	20111031.102757	20111031.102901	8	0.013328	60	10	60-180	60	103	GapPrac	Blank	1	10	2	0	0	distractor	1	495	753	358581	13.328	13.103	13.551
ProbeTrack13	2	ProbeTrack	13.2	SCS215b	20111031.102757	20111031.102907	8	0.013328	60	10	60-180	60	170	GapPrac	Blank	1	11	2	1	1	target	1	446	777	359358	13.328	10.185	16.467
ProbeTrack13	2	ProbeTrack	13.2	SCS215b	20111031.102757	20111031.102914	8	0.013328	60	10	60-180	60	79	GapPrac	Blank	1	12	2	3	0	distractor	1	467	767	360125	13.328	12.644	14.013
ProbeTrack13	2	ProbeTrack	13.2	SCS215b	20111031.102757	20111031.102919	8	0.013328	60	10	60-180	60	164	GapPrac	Blank	1	13	2	45	1	target	1	416	792	360917	13.328	12.208	14.443
ProbeTrack13	2	ProbeTrack	13.2	SCS215b	20111031.102757	20111031.102926	8	0.013328	60	10	60-180	60	146	GapPrac	Blank	1	14	2	1	1	target	1	421	790	361707	13.329	13.295	13.703
ProbeTrack13	2	ProbeTrack	13.2	SCS215b	20111031.102757	20111031.102932	8	0.013328	60	10	60-180	60	65	GapPrac	Blank	1	15	2	3	1	target	1	360	820	362527	13.328	13.306	13.349
ProbeTrack13	2	ProbeTrack	13.2	SCS215b	20111031.102757	20111031.102938	8	0.013328	60	10	60-180	60	81	GapPrac	Blank	1	16	2	45	1	target	1	363	819	363346	13.328	7.018	19.639
ProbeTrack13	2	ProbeTrack	13.2	SCS215b	20111031.102757	20111031.102944	8	0.013328	60	10	60-180	60	71	GapPrac	Blank	1	17	2	0	1	target	1	340	830	364176	13.328	13.309	13.350
ProbeTrack13	2	ProbeTrack	13.2	SCS215b	20111031.102757	20111031.102949	8	0.013328	60	10	60-180	60	129	GapPrac	Blank	1	18	2	1	0	distractor	1	451	775	364951	13.328	11.594	15.074
ProbeTrack13	2	ProbeTrack	13.2	SCS215b	20111031.102757	20111031.102955	8	0.013328	60	10	60-180	60	156	GapPrac	Blank	1	19	2	45	0	distractor	1	456	772	365723	13.328	13.092	13.570
ProbeTrack13	2	ProbeTrack	13.2	SCS215b	20111031.102757	20111031.103003	8	0.013328	60	10	60-180	60	82	GapPrac	Blank	1	20	2	1	0	target	0	471	-1000	364723	13.328	11.036	15.652
ProbeTrack13	2	ProbeTrack	13.2	SCS215b	20111031.103120	20111031.103129	8	0.013328	60	10	60-180	60	125	GapExp	Blank	1	1	2	45	0	distractor	1	449	776	365499	13.374	13.310	13.349
ProbeTrack13	2	ProbeTrack	13.2	SCS215b	20111031.103120	20111031.103144	8	0.013328	60	10	60-180	60	172	GapExp	Blank	1	2	2	1	1	target	1	370	815	366314	13.328	11.920	14.745
ProbeTrack13	2	ProbeTrack	13.2	SCS215b	20111031.103120	20111031.103150	8	0.013328	60	10	60-180	60	116	GapExp	Blank	1	3	2	45	1	target	1	365	818	367132	13.328	11.641	15.010
ProbeTrack13	2	ProbeTrack	13.2	SCS215b	20111031.103120	20111031.103156	8	0.013328	60	10	60-180	60	114	GapExp	Blank	1	4	2	0	1	target	1	343	829	367961	13.328	12.954	13.697
ProbeTrack13	2	ProbeTrack	13.2	SCS215b	20111031.103120	20111031.103202	8	0.013328	60	10	60-180	60	109	GapExp	Blank	1	5	2	3	0	distractor	1	390	805	368766	13.328	6.342	20.309
ProbeTrack13	2	ProbeTrack	13.2	SCS215b	20111031.103120	20111031.103208	8	0.013328	60	10	60-180	60	108	GapExp	Blank	1	6	2	0	0	target	0	514	-1000	367766	13.328	13.110	13.551
ProbeTrack13	2	ProbeTrack	13.2	SCS215b	20111031.103120	20111031.103215	8	0.013328	60	10	60-180	60	134	GapExp	Blank	1	7	2	3	1	target	1	418	791	368557	13.328	13.104	13.550
ProbeTrack13	2	ProbeTrack	13.2	SCS215b	20111031.103120	20111031.103221	8	0.013328	60	10	60-180	60	85	GapExp	Blank	1	8	2	1	0	distractor	1	392	804	369361	13.328	11.925	14.729
ProbeTrack13	2	ProbeTrack	13.2	SCS215b	20111031.103120	20111031.103226	8	0.013328	60	10	60-180	60	68	GapExp	Blank	0	9	2	45	1	target	1	386	807	370168	13.328	13.309	13.349
ProbeTrack13	2	ProbeTrack	13.2	SCS215b	20111031.103120	20111031.103232	8	0.013328	60	10	60-180	60	135	GapExp	Blank	0	10	2	45	1	target	1	392	804	370972	13.328	11.646	15.014
ProbeTrack13	2	ProbeTrack	13.2	SCS215b	20111031.103120	20111031.103239	8	0.013328	60	10	60-180	60	155	GapExp	Blank	0	11	2	3	1	target	1	368	816	371788	13.328	9.587	17.084
ProbeTrack13	2	ProbeTrack	13.2	SCS215b	20111031.103120	20111031.103245	8	0.013328	60	10	60-180	60	106	GapExp	Blank	0	12	2	45	1	target	1	331	835	372623	13.328	13.114	13.551
ProbeTrack13	2	ProbeTrack	13.2	SCS215b	20111031.103120	20111031.103252	8	0.013328	60	10	60-180	60	173	GapExp	Blank	0	13	2	45	1	early	-4	-230	-1000	371623	13.328	10.450	16.207
ProbeTrack13	2	ProbeTrack	13.2	SCS215b	20111031.103120	20111031.103259	8	0.013328	60	10	60-180	60	138	GapExp	Blank	0	14	2	45	1	target	1	373	814	372437	13.328	7.257	19.399
ProbeTrack13	2	ProbeTrack	13.2	SCS215b	20111031.103120	20111031.103307	8	0.013328	60	10	60-180	60	139	GapExp	Blank	0	15	2	1	1	target	1	367	817	373254	13.328	9.609	17.063
ProbeTrack13	2	ProbeTrack	13.2	SCS215b	20111031.103120	20111031.103314	8	0.013328	60	10	60-180	60	152	GapExp	Blank	0	16	2	45	0	distractor	1	353	824	374078	13.328	3.854	22.800
ProbeTrack13	2	ProbeTrack	13.2	SCS215b	20111031.103120	20111031.103322	8	0.013328	60	10	60-180	60	90	GapExp	Blank	0	17	2	45	1	target	1	387	807	374885	13.328	4.623	22.053
ProbeTrack13	2	ProbeTrack	13.2	SCS215b	20111031.103120	20111031.103328	8	0.013328	60	10	60-180	60	149	GapExp	Blank	0	18	2	45	1	target	1	354	823	375708	13.328	13.309	13.348
ProbeTrack13	2	ProbeTrack	13.2	SCS215b	20111031.103120	20111031.103336	8	0.013328	60	10	60-180	60	76	GapExp	Blank	0	19	2	3	0	distractor	1	511	745	376453	13.328	13.270	13.381
ProbeTrack13	2	ProbeTrack	13.2	SCS215b	20111031.103120	20111031.103342	8	0.013328	60	10	60-180	60	108	GapExp	Blank	0	20	2	0	0	target	0	852	-1000	375453	13.328	11.986	14.657
ProbeTrack13	2	ProbeTrack	13.2	SCS215b	20111031.103120	20111031.103348	8	0.013328	60	10	60-180	60	169	GapExp	Blank	0	21	2	1	0	distractor	1	403	799	376252	13.328	13.110	13.548
ProbeTrack13	2	ProbeTrack	13.2	SCS215b	20111031.103120	20111031.103355	8	0.013328	60	10	60-180	60	122	GapExp	Blank	0	22	2	1	0	distractor	1	622	689	376941	13.328	9.945	16.710
ProbeTrack13	2	ProbeTrack	13.2	SCS215b	20111031.103120	20111031.103401	8	0.013328	60	10	60-180	60	64	GapExp	Blank	0	23	2	45	0	distractor	1	388	806	377747	13.328	9.240	17.415
ProbeTrack13	2	ProbeTrack	13.2	SCS215b	20111031.103120	20111031.103408	8	0.013328	60	10	60-180	60	82	GapExp	Blank	0	24	2	0	0	distractor	1	393	804	378551	13.328	6.508	20.144
ProbeTrack13	2	ProbeTrack	13.2	SCS215b	20111031.103120	20111031.103413	8	0.013328	60	10	60-180	60	143	GapExp	Blank	0	25	2	0	1	target	1	371	815	379366	13.328	13.117	13.557
ProbeTrack13	2	ProbeTrack	13.2	SCS215b	20111031.103120	20111031.103420	8	0.013328	60	10	60-180	60	136	GapExp	Blank	0	26	2	1	0	distractor	1	370	815	380181	13.328	8.616	18.038
ProbeTrack13	2	ProbeTrack	13.2	SCS215b	20111031.103120	20111031.103426	8	0.013328	60	10	60-180	60	80	GapExp	Blank	0	27	2	45	1	target	1	319	841	381022	13.328	6.433	20.219
ProbeTrack13	2	ProbeTrack	13.2	SCS215b	20111031.103120	20111031.103432	8	0.013328	60	10	60-180	60	110	GapExp	Blank	0	28	2	45	1	target	1	348	826	381848	13.328	7.912	18.743
ProbeTrack13	2	ProbeTrack	13.2	SCS215b	20111031.103120	20111031.103439	8	0.013328	60	10	60-180	60	169	GapExp	Blank	0	29	2	3	0	distractor	1	356	822	382670	13.328	11.512	15.147
ProbeTrack13	2	ProbeTrack	13.2	SCS215b	20111031.103120	20111031.103446	8	0.013328	60	10	60-180	60	125	GapExp	Blank	0	30	2	0	1	distractor	0	307	-1000	381670	13.328	13.311	13.348
ProbeTrack13	2	ProbeTrack	13.2	SCS215b	20111031.103120	20111031.103454	8	0.013328	60	10	60-180	60	71	GapExp	Blank	0	31	2	1	1	target	1	425	788	382458	13.328	13.307	13.348
ProbeTrack13	2	ProbeTrack	13.2	SCS215b	20111031.103120	20111031.103459	8	0.013328	60	10	60-180	60	123	GapExp	Blank	0	32	2	1	0	distractor	1	391	805	383263	13.328	10.327	16.325
ProbeTrack13	2	ProbeTrack	13.2	SCS215b	20111031.103120	20111031.103506	8	0.013328	60	10	60-180	60	168	GapExp	Blank	0	33	2	1	1	target	1	315	843	384106	13.328	6.259	20.396
ProbeTrack13	2	ProbeTrack	13.2	SCS215b	20111031.103120	20111031.103512	8	0.013328	60	10	60-180	60	73	GapExp	Blank	0	34	2	0	0	distractor	1	369	816	384922	13.328	13.096	13.550
ProbeTrack13	2	ProbeTrack	13.2	SCS215b	20111031.103120	20111031.103518	8	0.013328	60	10	60-180	60	63	GapExp	Blank	0	35	2	0	1	target	1	328	836	385758	13.328	11.934	14.746
ProbeTrack13	2	ProbeTrack	13.2	SCS215b	20111031.103120	20111031.103523	8	0.013328	60	10	60-180	60	164	GapExp	Blank	0	36	2	3	0	distractor	1	347	827	386585	13.313	9.156	13.348
ProbeTrack13	2	ProbeTrack	13.2	SCS215b	20111031.103120	20111031.103530	8	0.013328	60	10	60-180	60	129	GapExp	Blank	0	37	2	1	1	distractor	0	439	-1000	385585	13.328	6.723	19.932
ProbeTrack13	2	ProbeTrack	13.2	SCS215b	20111031.103120	20111031.103536	8	0.013328	60	10	60-180	60	89	GapExp	Blank	0	38	2	45	0	distractor	1	380	810	386395	13.328	3.519	23.151
ProbeTrack13	2	ProbeTrack	13.2	SCS215b	20111031.103120	20111031.103542	8	0.013328	60	10	60-180	60	109	GapExp	Blank	0	39	2	0	1	target	1	313	844	387239	13.328	11.603	15.044
ProbeTrack13	2	ProbeTrack	13.2	SCS215b	20111031.103120	20111031.103548	8	0.013328	60	10	60-180	60	77	GapExp	Blank	0	40	2	3	0	target	0	392	-1000	386239	13.328	13.100	13.550
ProbeTrack13	2	ProbeTrack	13.2	SCS215b	20111031.103120	20111031.103553	8	0.013328	60	10	60-180	60	74	GapExp	Blank	0	41	2	45	1	target	1	462	769	387008	13.328	12.571	14.084
ProbeTrack13	2	ProbeTrack	13.2	SCS215b	20111031.103120	20111031.103559	8	0.013328	60	10	60-180	60	85	GapExp	Blank	0	42	2	0	0	distractor	1	424	788	387796	13.328	13.106	13.550
ProbeTrack13	2	ProbeTrack	13.2	SCS215b	20111031.103120	20111031.103605	8	0.013328	60	10	60-180	60	73	GapExp	Blank	0	43	2	3	0	target	0	378	-1000	386796	13.328	13.304	13.353
ProbeTrack13	2	ProbeTrack	13.2	SCS215b	20111031.103120	20111031.103610	8	0.013328	60	10	60-180	60	94	GapExp	Blank	0	44	2	3	0	distractor	1	355	823	387619	13.328	13.309	13.348
ProbeTrack13	2	ProbeTrack	13.2	SCS215b	20111031.103120	20111031.103616	8	0.013328	60	10	60-180	60	145	GapExp	Blank	0	45	2	0	0	distractor	1	389	806	388425	13.328	13.310	13.348
ProbeTrack13	2	ProbeTrack	13.2	SCS215b	20111031.103120	20111031.103623	8	0.013328	60	10	60-180	60	150	GapExp	Blank	0	46	2	0	1	distractor	0	370	-1000	387425	13.328	10.773	15.887
ProbeTrack13	2	ProbeTrack	13.2	SCS215b	20111031.103120	20111031.103629	8	0.013328	60	10	60-180	60	96	GapExp	Blank	0	47	2	0	1	target	1	343	829	388254	13.328	9.617	13.349
ProbeTrack13	2	ProbeTrack	13.2	SCS215b	20111031.103120	20111031.103634	8	0.013328	60	10	60-180	60	72	GapExp	Blank	0	48	2	1	1	target	1	358	821	389075	13.328	11.581	15.071
ProbeTrack13	2	ProbeTrack	13.2	SCS215b	20111031.103120	20111031.103640	8	0.013328	60	10	60-180	60	130	GapExp	Blank	0	49	2	3	0	distractor	1	401	800	389875	13.328	11.962	14.703
ProbeTrack13	2	ProbeTrack	13.2	SCS215b	20111031.103120	20111031.103646	8	0.013328	60	10	60-180	60	79	GapExp	Blank	0	50	2	1	0	target	0	372	-1000	388875	13.328	13.308	13.348
ProbeTrack13	2	ProbeTrack	13.2	SCS215b	20111031.103120	20111031.103651	8	0.013328	60	10	60-180	60	83	GapExp	Blank	0	51	2	0	1	target	1	370	815	389690	13.328	13.260	13.391
ProbeTrack13	2	ProbeTrack	13.2	SCS215b	20111031.103120	20111031.103658	8	0.013328	60	10	60-180	60	118	GapExp	Blank	0	52	2	45	0	target	0	504	-1000	388690	13.328	10.908	15.751
ProbeTrack13	2	ProbeTrack	13.2	SCS215b	20111031.103120	20111031.103704	8	0.013328	60	10	60-180	60	157	GapExp	Blank	0	53	2	3	0	distractor	1	321	840	389530	13.328	10.903	15.754
ProbeTrack13	2	ProbeTrack	13.2	SCS215b	20111031.103120	20111031.103711	8	0.013328	60	10	60-180	60	86	GapExp	Blank	0	54	2	45	0	distractor	1	428	786	390316	13.328	10.570	16.081
ProbeTrack13	2	ProbeTrack	13.2	SCS215b	20111031.103120	20111031.103718	8	0.013328	60	10	60-180	60	146	GapExp	Blank	0	55	2	1	1	target	1	390	805	391121	13.328	8.512	18.139
ProbeTrack13	2	ProbeTrack	13.2	SCS215b	20111031.103120	20111031.103724	8	0.013328	60	10	60-180	60	67	GapExp	Blank	0	56	2	3	1	target	1	370	815	391936	13.328	13.112	13.550
ProbeTrack13	2	ProbeTrack	13.2	SCS215b	20111031.103120	20111031.103729	8	0.013328	60	10	60-180	60	101	GapExp	Blank	0	57	2	1	0	distractor	1	409	796	392732	13.328	8.758	17.891
ProbeTrack13	2	ProbeTrack	13.2	SCS215b	20111031.103120	20111031.103735	8	0.013328	60	10	60-180	60	149	GapExp	Blank	0	58	2	1	0	distractor	1	562	719	393451	13.328	13.309	13.361
ProbeTrack13	2	ProbeTrack	13.2	SCS215b	20111031.103120	20111031.103741	8	0.013328	60	10	60-180	60	96	GapExp	Blank	0	59	2	1	1	target	1	350	825	394276	13.328	7.762	18.897
ProbeTrack13	2	ProbeTrack	13.2	SCS215b	20111031.103120	20111031.103747	8	0.013328	60	10	60-180	60	148	GapExp	Blank	0	60	2	3	0	distractor	1	418	791	395067	13.328	13.096	13.577
ProbeTrack13	2	ProbeTrack	13.2	SCS215b	20111031.103120	20111031.103753	8	0.013328	60	10	60-180	60	97	GapExp	Blank	0	61	2	3	1	target	1	594	703	395770	13.328	13.101	13.551
ProbeTrack13	2	ProbeTrack	13.2	SCS215b	20111031.103120	20111031.103759	8	0.013328	60	10	60-180	60	180	GapExp	Blank	0	62	2	3	0	distractor	1	420	790	396560	13.328	11.709	14.963
ProbeTrack13	2	ProbeTrack	13.2	SCS215b	20111031.103120	20111031.103806	8	0.013328	60	10	60-180	60	61	GapExp	Blank	0	63	2	45	0	distractor	1	373	814	397374	13.328	13.089	13.565
ProbeTrack13	2	ProbeTrack	13.2	SCS215b	20111031.103120	20111031.103811	8	0.013328	60	10	60-180	60	82	GapExp	Blank	0	64	2	0	1	target	1	450	775	398149	13.328	13.288	13.362
ProbeTrack13	2	ProbeTrack	13.2	SCS215b	20111031.103120	20111031.103817	8	0.013328	60	10	60-180	60	88	GapExp	Blank	0	65	2	1	0	distractor	1	414	793	398942	13.328	8.550	18.102
ProbeTrack13	2	ProbeTrack	13.2	SCS215b	20111031.103120	20111031.103823	8	0.013328	60	10	60-180	60	154	GapExp	Blank	0	66	2	45	0	distractor	1	372	814	399756	13.328	13.272	13.378
ProbeTrack13	2	ProbeTrack	13.2	SCS215b	20111031.103120	20111031.103830	8	0.013328	60	10	60-180	60	130	GapExp	Blank	0	67	2	45	0	distractor	1	614	693	400449	13.328	13.296	13.351
