exp	sub	code	rev	comp	runtime	trialtime	nstim	refreshdur	cuedur	gapdur	gapOnsetRange	durPostProbe	gapOnsetTime	blocktype	gaptype	prac	trial	ntargets	soa	probeTarget	resp	acc	rt	pts	tpts	meanFrameDur	minFrameDur	maxFrameDur
ProbeTrack13	12	ProbeTrack	13.2	SCS215a	20111107.091808	20111107.091813	8	0.013328	60	0	60-180	60	149	NoGap	None	1	1	2	0	0	distractor	1	859	571	571	13.375	6.173	20.486
ProbeTrack13	12	ProbeTrack	13.2	SCS215a	20111107.091808	20111107.091949	8	0.013328	60	0	60-180	60	170	NoGap	None	1	2	2	0	0	distractor	1	679	661	1232	13.328	11.604	15.051
ProbeTrack13	12	ProbeTrack	13.2	SCS215a	20111107.091808	20111107.091957	8	0.013328	60	0	60-180	60	84	NoGap	None	1	3	2	1	1	target	1	598	701	1933	13.328	11.660	15.131
ProbeTrack13	12	ProbeTrack	13.2	SCS215a	20111107.091808	20111107.092003	8	0.013328	60	0	60-180	60	131	NoGap	None	1	4	2	45	0	distractor	1	633	684	2617	13.328	12.504	14.143
ProbeTrack13	12	ProbeTrack	13.2	SCS215a	20111107.091808	20111107.092011	8	0.013328	60	0	60-180	60	121	NoGap	None	1	5	2	0	1	target	1	546	727	3344	13.328	4.742	21.904
ProbeTrack13	12	ProbeTrack	13.2	SCS215a	20111107.091808	20111107.092018	8	0.013328	60	0	60-180	60	63	NoGap	None	1	6	2	45	1	target	1	562	719	4063	13.328	13.093	13.558
ProbeTrack13	12	ProbeTrack	13.2	SCS215a	20111107.091808	20111107.092024	8	0.013328	60	0	60-180	60	104	NoGap	None	1	7	2	0	1	early	-4	-3059	-1000	3063	13.328	12.695	13.963
ProbeTrack13	12	ProbeTrack	13.2	SCS215a	20111107.091808	20111107.092030	8	0.013328	60	0	60-180	60	160	NoGap	None	1	8	2	45	0	distractor	1	609	696	3759	13.328	12.850	13.807
ProbeTrack13	12	ProbeTrack	13.2	SCS215a	20111107.091808	20111107.092038	8	0.013328	60	0	60-180	60	110	NoGap	None	1	9	2	3	0	distractor	1	910	545	4304	13.328	9.443	17.445
ProbeTrack13	12	ProbeTrack	13.2	SCS215a	20111107.091808	20111107.092044	8	0.013328	60	0	60-180	60	142	NoGap	None	1	10	2	3	1	target	1	414	793	5097	13.328	13.107	13.549
ProbeTrack13	12	ProbeTrack	13.2	SCS215a	20111107.091808	20111107.092051	8	0.013328	60	0	60-180	60	71	NoGap	None	1	11	2	3	1	target	1	413	794	5891	13.328	13.113	13.551
ProbeTrack13	12	ProbeTrack	13.2	SCS215a	20111107.091808	20111107.092058	8	0.013328	60	0	60-180	60	163	NoGap	None	1	12	2	45	1	target	1	628	686	6577	13.328	6.673	19.985
ProbeTrack13	12	ProbeTrack	13.2	SCS215a	20111107.091808	20111107.092105	8	0.013328	60	0	60-180	60	131	NoGap	None	1	13	2	0	1	target	1	507	747	7324	13.328	12.851	13.799
ProbeTrack13	12	ProbeTrack	13.2	SCS215a	20111107.091808	20111107.092111	8	0.013328	60	0	60-180	60	121	NoGap	None	1	14	2	0	0	distractor	1	649	676	8000	13.328	10.378	16.279
ProbeTrack13	12	ProbeTrack	13.2	SCS215a	20111107.091808	20111107.092118	8	0.013328	60	0	60-180	60	165	NoGap	None	1	15	2	1	0	distractor	1	544	728	8728	13.328	13.113	13.544
ProbeTrack13	12	ProbeTrack	13.2	SCS215a	20111107.091808	20111107.092125	8	0.013328	60	0	60-180	60	159	NoGap	None	1	16	2	0	0	distractor	1	581	710	9438	13.328	13.104	13.545
ProbeTrack13	12	ProbeTrack	13.2	SCS215a	20111107.091808	20111107.092133	8	0.013328	60	0	60-180	60	99	NoGap	None	1	17	2	3	0	distractor	1	547	727	10165	13.328	13.100	13.555
ProbeTrack13	12	ProbeTrack	13.2	SCS215a	20111107.091808	20111107.092139	8	0.013328	60	0	60-180	60	67	NoGap	None	1	18	2	45	0	distractor	1	547	727	10892	13.328	13.307	13.353
ProbeTrack13	12	ProbeTrack	13.2	SCS215a	20111107.091808	20111107.092145	8	0.013328	60	0	60-180	60	136	NoGap	None	1	19	2	3	1	target	1	424	788	11680	13.328	13.309	13.346
ProbeTrack13	12	ProbeTrack	13.2	SCS215a	20111107.091808	20111107.092151	8	0.013328	60	0	60-180	60	142	NoGap	None	1	20	2	3	1	distractor	0	467	-1000	10680	13.328	13.307	13.351
ProbeTrack13	12	ProbeTrack	13.2	SCS215a	20111107.091808	20111107.092158	8	0.013328	60	0	60-180	60	119	NoGap	None	1	21	2	1	0	distractor	1	830	585	11265	13.328	13.308	13.344
ProbeTrack13	12	ProbeTrack	13.2	SCS215a	20111107.091808	20111107.092205	8	0.013328	60	0	60-180	60	126	NoGap	None	1	22	2	1	0	distractor	1	508	746	12011	13.328	11.288	15.365
ProbeTrack13	12	ProbeTrack	13.2	SCS215a	20111107.091808	20111107.092212	8	0.013328	60	0	60-180	60	84	NoGap	None	1	23	2	0	0	distractor	1	574	713	12724	13.328	13.310	13.346
ProbeTrack13	12	ProbeTrack	13.2	SCS215a	20111107.091808	20111107.092218	8	0.013328	60	0	60-180	60	122	NoGap	None	1	24	2	3	1	distractor	0	471	-1000	11724	13.328	13.307	13.344
ProbeTrack13	12	ProbeTrack	13.2	SCS215a	20111107.091808	20111107.092224	8	0.013328	60	0	60-180	60	121	NoGap	None	1	25	2	45	1	target	1	622	689	12413	13.328	13.097	13.545
ProbeTrack13	12	ProbeTrack	13.2	SCS215a	20111107.091808	20111107.092231	8	0.013328	60	0	60-180	60	125	NoGap	None	1	26	2	0	1	target	1	466	767	13180	13.328	13.024	13.631
ProbeTrack13	12	ProbeTrack	13.2	SCS215a	20111107.091808	20111107.092238	8	0.013328	60	0	60-180	60	164	NoGap	None	1	27	2	3	0	distractor	1	661	670	13850	13.328	13.105	13.557
ProbeTrack13	12	ProbeTrack	13.2	SCS215a	20111107.091808	20111107.092244	8	0.013328	60	0	60-180	60	104	NoGap	None	1	28	2	1	1	target	1	582	709	14559	13.387	8.331	24.462
ProbeTrack13	12	ProbeTrack	13.2	SCS215a	20111107.091808	20111107.092251	8	0.013328	60	0	60-180	60	177	NoGap	None	1	29	2	3	0	distractor	1	509	746	15305	13.328	13.308	13.348
ProbeTrack13	12	ProbeTrack	13.2	SCS215a	20111107.091808	20111107.092258	8	0.013328	60	0	60-180	60	154	NoGap	None	1	30	2	45	0	distractor	1	558	721	16026	13.328	13.097	13.552
ProbeTrack13	12	ProbeTrack	13.2	SCS215a	20111107.091808	20111107.092305	8	0.013328	60	0	60-180	60	112	NoGap	None	1	31	2	1	0	distractor	1	660	670	16696	13.328	13.111	13.558
ProbeTrack13	12	ProbeTrack	13.2	SCS215a	20111107.091808	20111107.092312	8	0.013328	60	0	60-180	60	164	NoGap	None	1	32	2	45	0	distractor	1	553	724	17420	13.328	13.103	13.568
ProbeTrack13	12	ProbeTrack	13.2	SCS215a	20111107.091808	20111107.092319	8	0.013328	60	0	60-180	60	120	NoGap	None	1	33	2	45	1	target	1	539	731	18151	13.328	12.980	13.689
ProbeTrack13	12	ProbeTrack	13.2	SCS215a	20111107.091808	20111107.092326	8	0.013328	60	0	60-180	60	126	NoGap	None	1	34	2	1	1	target	1	514	743	18894	13.328	13.308	13.355
ProbeTrack13	12	ProbeTrack	13.2	SCS215a	20111107.091808	20111107.092333	8	0.013328	60	0	60-180	60	159	NoGap	None	1	35	2	1	1	target	1	517	742	19636	13.328	13.304	13.349
ProbeTrack13	12	ProbeTrack	13.2	SCS215a	20111107.091808	20111107.092341	8	0.013328	60	0	60-180	60	133	NoGap	None	1	36	2	1	1	target	1	514	743	20379	13.328	13.310	13.358
ProbeTrack13	12	ProbeTrack	13.2	SCS215a	20111107.091808	20111107.092348	8	0.013328	60	0	60-180	60	65	NoGap	None	1	37	2	45	1	target	1	556	722	21101	13.328	10.549	16.105
ProbeTrack13	12	ProbeTrack	13.2	SCS215a	20111107.091808	20111107.092354	8	0.013328	60	0	60-180	60	96	NoGap	None	1	38	2	3	0	distractor	1	601	700	21801	13.328	13.101	13.541
ProbeTrack13	12	ProbeTrack	13.2	SCS215a	20111107.091808	20111107.092400	8	0.013328	60	0	60-180	60	170	NoGap	None	1	39	2	1	0	distractor	1	559	721	22522	13.308	7.526	13.568
ProbeTrack13	12	ProbeTrack	13.2	SCS215a	20111107.091808	20111107.092406	8	0.013328	60	0	60-180	60	150	NoGap	None	1	40	2	0	1	target	1	330	835	23357	13.328	13.105	13.552
ProbeTrack13	12	ProbeTrack	13.2	SCS215a	20111107.092600	20111107.092615	8	0.013328	60	10	60-180	60	89	GapPrac	SmallFlash	1	1	2	3	0	distractor	1	933	534	23891	13.384	13.306	13.344
ProbeTrack13	12	ProbeTrack	13.2	SCS215a	20111107.092600	20111107.092625	8	0.013328	60	10	60-180	60	152	GapPrac	SmallFlash	1	2	2	0	1	target	1	507	747	24638	13.328	13.309	13.349
ProbeTrack13	12	ProbeTrack	13.2	SCS215a	20111107.092600	20111107.092632	8	0.013328	60	10	60-180	60	164	GapPrac	SmallFlash	1	3	2	1	1	target	1	573	714	25352	13.328	12.433	14.204
ProbeTrack13	12	ProbeTrack	13.2	SCS215a	20111107.092600	20111107.092639	8	0.013328	60	10	60-180	60	75	GapPrac	SmallFlash	1	4	2	45	1	target	1	469	766	26118	13.328	12.289	14.378
ProbeTrack13	12	ProbeTrack	13.2	SCS215a	20111107.092600	20111107.092645	8	0.013328	60	10	60-180	60	75	GapPrac	SmallFlash	1	5	2	3	1	distractor	0	459	-1000	25118	13.328	13.298	13.359
ProbeTrack13	12	ProbeTrack	13.2	SCS215a	20111107.092600	20111107.092651	8	0.013328	60	10	60-180	60	129	GapPrac	SmallFlash	1	6	2	0	0	distractor	1	444	778	25896	13.328	12.070	14.595
ProbeTrack13	12	ProbeTrack	13.2	SCS215a	20111107.092600	20111107.092657	8	0.013328	60	10	60-180	60	108	GapPrac	SmallFlash	1	7	2	0	0	distractor	1	654	673	26569	13.328	13.042	13.614
ProbeTrack13	12	ProbeTrack	13.2	SCS215a	20111107.092600	20111107.092704	8	0.013328	60	10	60-180	60	109	GapPrac	SmallFlash	1	8	2	3	0	distractor	1	436	782	27351	13.318	9.323	17.337
ProbeTrack13	12	ProbeTrack	13.2	SCS215a	20111107.092600	20111107.092710	8	0.013328	60	10	60-180	60	82	GapPrac	SmallFlash	1	9	2	1	1	target	1	354	823	28174	13.328	13.105	13.556
ProbeTrack13	12	ProbeTrack	13.2	SCS215a	20111107.092600	20111107.092715	8	0.013328	60	10	60-180	60	173	GapPrac	SmallFlash	1	10	2	1	0	distractor	1	530	735	28909	13.328	13.307	13.349
ProbeTrack13	12	ProbeTrack	13.2	SCS215a	20111107.092600	20111107.092722	8	0.013328	60	10	60-180	60	63	GapPrac	SmallFlash	1	11	2	0	1	target	1	396	802	29711	13.328	5.248	21.422
ProbeTrack13	12	ProbeTrack	13.2	SCS215a	20111107.092600	20111107.092728	8	0.013328	60	10	60-180	60	101	GapPrac	SmallFlash	1	12	2	3	0	distractor	1	437	782	30493	13.328	13.087	13.576
ProbeTrack13	12	ProbeTrack	13.2	SCS215a	20111107.092600	20111107.092734	8	0.013328	60	10	60-180	60	171	GapPrac	SmallFlash	1	13	2	45	1	distractor	0	409	-1000	29493	13.328	10.808	15.829
ProbeTrack13	12	ProbeTrack	13.2	SCS215a	20111107.092600	20111107.092741	8	0.013328	60	10	60-180	60	97	GapPrac	SmallFlash	1	14	2	45	0	distractor	1	731	635	30128	13.328	12.499	14.143
ProbeTrack13	12	ProbeTrack	13.2	SCS215a	20111107.092600	20111107.092748	8	0.013328	60	10	60-180	60	64	GapPrac	SmallFlash	1	15	2	0	1	target	1	378	811	30939	13.328	13.304	13.351
ProbeTrack13	12	ProbeTrack	13.2	SCS215a	20111107.092600	20111107.092753	8	0.013328	60	10	60-180	60	72	GapPrac	SmallFlash	1	16	2	1	0	distractor	1	441	780	31719	13.328	13.304	13.353
ProbeTrack13	12	ProbeTrack	13.2	SCS215a	20111107.092600	20111107.092759	8	0.013328	60	10	60-180	60	117	GapPrac	SmallFlash	1	17	2	1	1	target	1	465	768	32487	13.328	7.740	18.923
ProbeTrack13	12	ProbeTrack	13.2	SCS215a	20111107.092600	20111107.092805	8	0.013328	60	10	60-180	60	105	GapPrac	SmallFlash	1	18	2	45	1	target	1	423	789	33276	13.328	13.091	13.566
ProbeTrack13	12	ProbeTrack	13.2	SCS215a	20111107.092600	20111107.092812	8	0.013328	60	10	60-180	60	158	GapPrac	SmallFlash	1	19	2	3	1	target	1	260	870	34146	13.328	3.938	22.715
ProbeTrack13	12	ProbeTrack	13.2	SCS215a	20111107.092600	20111107.092818	8	0.013328	60	10	60-180	60	172	GapPrac	SmallFlash	1	20	2	45	0	distractor	1	429	786	34932	13.328	8.025	18.622
ProbeTrack13	12	ProbeTrack	13.2	SCS215a	20111107.092904	20111107.092909	8	0.013328	60	10	60-180	60	118	GapExp	SmallFlash	1	1	2	3	1	target	1	418	791	35723	13.383	12.873	13.782
ProbeTrack13	12	ProbeTrack	13.2	SCS215a	20111107.092904	20111107.092924	8	0.013328	60	10	60-180	60	122	GapExp	SmallFlash	1	2	2	3	0	distractor	1	441	780	36503	13.328	12.861	13.804
ProbeTrack13	12	ProbeTrack	13.2	SCS215a	20111107.092904	20111107.092931	8	0.013328	60	10	60-180	60	163	GapExp	SmallFlash	1	3	2	0	0	distractor	1	359	821	37324	13.328	12.967	13.709
ProbeTrack13	12	ProbeTrack	13.2	SCS215a	20111107.092904	20111107.092938	8	0.013328	60	10	60-180	60	96	GapExp	SmallFlash	1	4	2	1	0	distractor	1	476	762	38086	13.328	13.083	13.711
ProbeTrack13	12	ProbeTrack	13.2	SCS215a	20111107.092904	20111107.092944	8	0.013328	60	10	60-180	60	74	GapExp	SmallFlash	1	5	2	45	1	target	1	441	780	38866	13.328	13.074	13.717
ProbeTrack13	12	ProbeTrack	13.2	SCS215a	20111107.092904	20111107.092950	8	0.013328	60	10	60-180	60	137	GapExp	SmallFlash	1	6	2	0	1	target	1	412	794	39660	13.329	13.099	13.732
ProbeTrack13	12	ProbeTrack	13.2	SCS215a	20111107.092904	20111107.092958	8	0.013328	60	10	60-180	60	135	GapExp	SmallFlash	1	7	2	45	0	distractor	1	406	797	40457	13.328	12.991	13.672
ProbeTrack13	12	ProbeTrack	13.2	SCS215a	20111107.092904	20111107.093007	8	0.013328	60	10	60-180	60	68	GapExp	SmallFlash	1	8	2	1	1	target	1	478	761	41218	13.328	13.311	13.347
ProbeTrack13	12	ProbeTrack	13.2	SCS215a	20111107.092904	20111107.093014	8	0.013328	60	10	60-180	60	101	GapExp	SmallFlash	0	9	2	1	1	target	1	404	798	42016	13.328	13.067	13.596
ProbeTrack13	12	ProbeTrack	13.2	SCS215a	20111107.092904	20111107.093021	8	0.013328	60	10	60-180	60	126	GapExp	SmallFlash	0	10	2	3	1	target	1	426	787	42803	13.328	13.305	13.348
ProbeTrack13	12	ProbeTrack	13.2	SCS215a	20111107.092904	20111107.093029	8	0.013328	60	10	60-180	60	174	GapExp	SmallFlash	0	11	2	3	1	target	1	290	855	43658	13.328	13.146	13.508
ProbeTrack13	12	ProbeTrack	13.2	SCS215a	20111107.092904	20111107.093037	8	0.013328	60	10	60-180	60	169	GapExp	SmallFlash	0	12	2	1	1	target	1	378	811	44469	13.328	12.868	13.796
ProbeTrack13	12	ProbeTrack	13.2	SCS215a	20111107.092904	20111107.093047	8	0.013328	60	10	60-180	60	134	GapExp	SmallFlash	0	13	2	1	1	target	1	329	836	45305	13.328	12.960	13.696
ProbeTrack13	12	ProbeTrack	13.2	SCS215a	20111107.092904	20111107.093056	8	0.013328	60	10	60-180	60	175	GapExp	SmallFlash	0	14	2	45	1	target	1	394	803	46108	13.328	12.876	13.767
ProbeTrack13	12	ProbeTrack	13.2	SCS215a	20111107.092904	20111107.093110	8	0.013328	60	10	60-180	60	73	GapExp	SmallFlash	0	15	2	3	0	distractor	1	448	776	46884	13.328	13.222	13.433
ProbeTrack13	12	ProbeTrack	13.2	SCS215a	20111107.092904	20111107.093120	8	0.013328	60	10	60-180	60	98	GapExp	SmallFlash	0	16	2	3	1	target	1	336	832	47716	13.328	13.217	13.446
ProbeTrack13	12	ProbeTrack	13.2	SCS215a	20111107.092904	20111107.093126	8	0.013328	60	10	60-180	60	178	GapExp	SmallFlash	0	17	2	3	1	target	1	376	812	48528	13.328	12.866	13.782
ProbeTrack13	12	ProbeTrack	13.2	SCS215a	20111107.092904	20111107.093133	8	0.013328	60	10	60-180	60	70	GapExp	SmallFlash	0	18	2	45	1	target	1	411	795	49323	13.328	13.101	13.559
ProbeTrack13	12	ProbeTrack	13.2	SCS215a	20111107.092904	20111107.093140	8	0.013328	60	10	60-180	60	122	GapExp	SmallFlash	0	19	2	1	0	distractor	1	412	794	50117	13.328	13.304	13.355
ProbeTrack13	12	ProbeTrack	13.2	SCS215a	20111107.092904	20111107.093147	8	0.013328	60	10	60-180	60	139	GapExp	SmallFlash	0	20	2	45	1	target	1	508	746	50863	13.328	13.003	13.680
ProbeTrack13	12	ProbeTrack	13.2	SCS215a	20111107.092904	20111107.093154	8	0.013328	60	10	60-180	60	138	GapExp	SmallFlash	0	21	2	0	1	target	1	485	758	51621	13.328	13.114	13.558
ProbeTrack13	12	ProbeTrack	13.2	SCS215a	20111107.092904	20111107.093219	8	0.013328	60	10	60-180	60	179	GapExp	SmallFlash	0	22	2	1	1	target	1	372	814	52435	13.328	13.309	13.350
ProbeTrack13	12	ProbeTrack	13.2	SCS215a	20111107.092904	20111107.093228	8	0.013328	60	10	60-180	60	94	GapExp	SmallFlash	0	23	2	0	1	target	1	553	724	53159	13.328	13.307	13.345
ProbeTrack13	12	ProbeTrack	13.2	SCS215a	20111107.092904	20111107.093234	8	0.013328	60	10	60-180	60	82	GapExp	SmallFlash	0	24	2	0	1	target	1	468	766	53925	13.328	12.879	13.764
ProbeTrack13	12	ProbeTrack	13.2	SCS215a	20111107.092904	20111107.093240	8	0.013328	60	10	60-180	60	171	GapExp	SmallFlash	0	25	2	1	0	distractor	1	486	757	54682	13.328	12.916	13.741
ProbeTrack13	12	ProbeTrack	13.2	SCS215a	20111107.092904	20111107.093247	8	0.013328	60	10	60-180	60	74	GapExp	SmallFlash	0	26	2	1	1	target	1	414	793	55475	13.328	13.102	13.556
ProbeTrack13	12	ProbeTrack	13.2	SCS215a	20111107.092904	20111107.093254	8	0.013328	60	10	60-180	60	85	GapExp	SmallFlash	0	27	2	3	1	target	1	532	734	56209	13.328	13.299	13.345
ProbeTrack13	12	ProbeTrack	13.2	SCS215a	20111107.092904	20111107.093301	8	0.013328	60	10	60-180	60	147	GapExp	SmallFlash	0	28	2	1	0	distractor	1	422	789	56998	13.328	13.103	13.554
ProbeTrack13	12	ProbeTrack	13.2	SCS215a	20111107.092904	20111107.093309	8	0.013328	60	10	60-180	60	173	GapExp	SmallFlash	0	29	2	3	1	target	1	508	746	57744	13.328	12.973	13.683
ProbeTrack13	12	ProbeTrack	13.2	SCS215a	20111107.092904	20111107.093316	8	0.013328	60	10	60-180	60	150	GapExp	SmallFlash	0	30	2	3	0	distractor	1	542	729	58473	13.328	13.307	13.349
ProbeTrack13	12	ProbeTrack	13.2	SCS215a	20111107.092904	20111107.093323	8	0.013328	60	10	60-180	60	151	GapExp	SmallFlash	0	31	2	45	0	distractor	1	499	751	59224	13.328	12.884	13.794
ProbeTrack13	12	ProbeTrack	13.2	SCS215a	20111107.092904	20111107.093333	8	0.013328	60	10	60-180	60	142	GapExp	SmallFlash	0	32	2	1	1	target	1	402	799	60023	13.328	13.099	13.545
ProbeTrack13	12	ProbeTrack	13.2	SCS215a	20111107.092904	20111107.093340	8	0.013328	60	10	60-180	60	73	GapExp	SmallFlash	0	33	2	1	0	distractor	1	529	736	60759	13.328	13.111	13.546
ProbeTrack13	12	ProbeTrack	13.2	SCS215a	20111107.092904	20111107.093347	8	0.013328	60	10	60-180	60	65	GapExp	SmallFlash	0	34	2	45	0	distractor	1	526	737	61496	13.328	13.309	13.345
ProbeTrack13	12	ProbeTrack	13.2	SCS215a	20111107.092904	20111107.093354	8	0.013328	60	10	60-180	60	140	GapExp	SmallFlash	0	35	2	45	0	distractor	1	580	710	62206	13.328	13.308	13.354
ProbeTrack13	12	ProbeTrack	13.2	SCS215a	20111107.092904	20111107.093401	8	0.013328	60	10	60-180	60	151	GapExp	SmallFlash	0	36	2	0	1	target	1	490	755	62961	13.328	12.929	13.727
ProbeTrack13	12	ProbeTrack	13.2	SCS215a	20111107.092904	20111107.093408	8	0.013328	60	10	60-180	60	78	GapExp	SmallFlash	0	37	2	45	1	target	1	446	777	63738	13.328	13.117	13.540
ProbeTrack13	12	ProbeTrack	13.2	SCS215a	20111107.092904	20111107.093414	8	0.013328	60	10	60-180	60	146	GapExp	SmallFlash	0	38	2	3	0	distractor	1	517	742	64480	13.328	13.308	13.348
ProbeTrack13	12	ProbeTrack	13.2	SCS215a	20111107.092904	20111107.093421	8	0.013328	60	10	60-180	60	83	GapExp	SmallFlash	0	39	2	3	0	distractor	1	529	736	65216	13.328	13.308	13.348
ProbeTrack13	12	ProbeTrack	13.2	SCS215a	20111107.092904	20111107.093426	8	0.013328	60	10	60-180	60	136	GapExp	SmallFlash	0	40	2	3	1	target	1	435	783	65999	13.328	13.307	13.348
ProbeTrack13	12	ProbeTrack	13.2	SCS215a	20111107.092904	20111107.093433	8	0.013328	60	10	60-180	60	166	GapExp	SmallFlash	0	41	2	0	1	target	1	409	796	66795	13.328	12.877	13.767
ProbeTrack13	12	ProbeTrack	13.2	SCS215a	20111107.092904	20111107.093440	8	0.013328	60	10	60-180	60	83	GapExp	SmallFlash	0	42	2	3	1	target	1	436	782	67577	13.328	13.307	13.349
ProbeTrack13	12	ProbeTrack	13.2	SCS215a	20111107.092904	20111107.093446	8	0.013328	60	10	60-180	60	172	GapExp	SmallFlash	0	43	2	3	1	target	1	459	771	68348	13.328	13.099	13.551
ProbeTrack13	12	ProbeTrack	13.2	SCS215a	20111107.092904	20111107.093454	8	0.013328	60	10	60-180	60	77	GapExp	SmallFlash	0	44	2	1	1	target	1	402	799	69147	13.328	13.106	13.559
ProbeTrack13	12	ProbeTrack	13.2	SCS215a	20111107.092904	20111107.093506	8	0.013328	60	10	60-180	60	126	GapExp	SmallFlash	0	45	2	3	1	target	1	412	794	69941	13.328	12.980	13.669
ProbeTrack13	12	ProbeTrack	13.2	SCS215a	20111107.092904	20111107.093513	8	0.013328	60	10	60-180	60	161	GapExp	SmallFlash	0	46	2	0	1	target	1	427	787	70728	13.328	13.093	13.557
ProbeTrack13	12	ProbeTrack	13.2	SCS215a	20111107.092904	20111107.093519	8	0.013328	60	10	60-180	60	119	GapExp	SmallFlash	0	47	2	3	1	target	1	437	782	71510	13.328	13.103	13.560
ProbeTrack13	12	ProbeTrack	13.2	SCS215a	20111107.092904	20111107.093526	8	0.013328	60	10	60-180	60	94	GapExp	SmallFlash	0	48	2	0	0	distractor	1	530	735	72245	13.328	12.983	13.682
ProbeTrack13	12	ProbeTrack	13.2	SCS215a	20111107.092904	20111107.093531	8	0.013328	60	10	60-180	60	131	GapExp	SmallFlash	0	49	2	1	1	target	1	507	747	72992	13.328	13.191	13.460
ProbeTrack13	12	ProbeTrack	13.2	SCS215a	20111107.092904	20111107.093537	8	0.013328	60	10	60-180	60	135	GapExp	SmallFlash	0	50	2	3	0	distractor	1	473	764	73756	13.328	13.193	13.461
ProbeTrack13	12	ProbeTrack	13.2	SCS215a	20111107.092904	20111107.093545	8	0.013328	60	10	60-180	60	111	GapExp	SmallFlash	0	51	2	45	1	target	1	418	791	74547	13.328	12.904	13.744
ProbeTrack13	12	ProbeTrack	13.2	SCS215a	20111107.092904	20111107.093551	8	0.013328	60	10	60-180	60	140	GapExp	SmallFlash	0	52	2	1	1	target	1	356	822	75369	13.328	12.873	13.792
ProbeTrack13	12	ProbeTrack	13.2	SCS215a	20111107.092904	20111107.093557	8	0.013328	60	10	60-180	60	166	GapExp	SmallFlash	0	53	2	1	1	target	1	445	778	76147	13.328	12.904	13.737
ProbeTrack13	12	ProbeTrack	13.2	SCS215a	20111107.092904	20111107.093604	8	0.013328	60	10	60-180	60	86	GapExp	SmallFlash	0	54	2	0	0	distractor	1	502	749	76896	13.328	12.965	13.690
ProbeTrack13	12	ProbeTrack	13.2	SCS215a	20111107.092904	20111107.093610	8	0.013328	60	10	60-180	60	155	GapExp	SmallFlash	0	55	2	1	0	distractor	1	541	730	77626	13.328	13.096	13.545
ProbeTrack13	12	ProbeTrack	13.2	SCS215a	20111107.092904	20111107.093617	8	0.013328	60	10	60-180	60	119	GapExp	SmallFlash	0	56	2	0	1	target	1	427	787	78413	13.328	13.301	13.347
ProbeTrack13	12	ProbeTrack	13.2	SCS215a	20111107.092904	20111107.093623	8	0.013328	60	10	60-180	60	79	GapExp	SmallFlash	0	57	2	3	1	target	1	310	845	79258	13.328	13.099	13.552
ProbeTrack13	12	ProbeTrack	13.2	SCS215a	20111107.092904	20111107.093629	8	0.013328	60	10	60-180	60	87	GapExp	SmallFlash	0	58	2	3	0	distractor	1	408	796	80054	13.328	13.306	13.349
ProbeTrack13	12	ProbeTrack	13.2	SCS215a	20111107.092904	20111107.093634	8	0.013328	60	10	60-180	60	68	GapExp	SmallFlash	0	59	2	3	0	distractor	1	345	828	80882	13.328	12.906	13.738
ProbeTrack13	12	ProbeTrack	13.2	SCS215a	20111107.092904	20111107.093640	8	0.013328	60	10	60-180	60	76	GapExp	SmallFlash	0	60	2	45	0	distractor	1	435	783	81665	13.328	13.309	13.355
ProbeTrack13	12	ProbeTrack	13.2	SCS215a	20111107.092904	20111107.093646	8	0.013328	60	10	60-180	60	94	GapExp	SmallFlash	0	61	2	45	1	target	1	370	815	82480	13.380	13.067	26.813
ProbeTrack13	12	ProbeTrack	13.2	SCS215a	20111107.092904	20111107.093652	8	0.013328	60	10	60-180	60	146	GapExp	SmallFlash	0	62	2	45	0	distractor	1	413	794	83274	13.328	12.882	13.770
ProbeTrack13	12	ProbeTrack	13.2	SCS215a	20111107.092904	20111107.093659	8	0.013328	60	10	60-180	60	145	GapExp	SmallFlash	0	63	2	0	1	target	1	301	850	84124	13.328	13.105	13.544
ProbeTrack13	12	ProbeTrack	13.2	SCS215a	20111107.092904	20111107.093706	8	0.013328	60	10	60-180	60	90	GapExp	SmallFlash	0	64	2	3	0	distractor	1	402	799	84923	13.328	13.099	13.536
ProbeTrack13	12	ProbeTrack	13.2	SCS215a	20111107.092904	20111107.093711	8	0.013328	60	10	60-180	60	87	GapExp	SmallFlash	0	65	2	45	0	distractor	1	513	744	85667	13.328	13.096	13.567
ProbeTrack13	12	ProbeTrack	13.2	SCS215a	20111107.092904	20111107.093717	8	0.013328	60	10	60-180	60	165	GapExp	SmallFlash	0	66	2	1	1	target	1	287	857	86524	13.328	13.129	13.530
ProbeTrack13	12	ProbeTrack	13.2	SCS215a	20111107.092904	20111107.093724	8	0.013328	60	10	60-180	60	104	GapExp	SmallFlash	0	67	2	1	0	distractor	1	690	655	87179	13.328	13.098	13.552
ProbeTrack13	12	ProbeTrack	13.2	SCS215a	20111107.092904	20111107.093730	8	0.013328	60	10	60-180	60	122	GapExp	SmallFlash	0	68	2	0	0	target	0	352	-1000	86179	13.328	13.010	13.654
ProbeTrack13	12	ProbeTrack	13.2	SCS215a	20111107.092904	20111107.093736	8	0.013328	60	10	60-180	60	92	GapExp	SmallFlash	0	69	2	0	1	target	1	744	628	86807	13.328	12.975	13.631
ProbeTrack13	12	ProbeTrack	13.2	SCS215a	20111107.092904	20111107.093742	8	0.013328	60	10	60-180	60	123	GapExp	SmallFlash	0	70	2	1	0	distractor	1	819	591	87398	13.328	12.946	13.764
ProbeTrack13	12	ProbeTrack	13.2	SCS215a	20111107.092904	20111107.093749	8	0.013328	60	10	60-180	60	119	GapExp	SmallFlash	0	71	2	0	0	distractor	1	413	794	88192	13.328	12.868	13.787
ProbeTrack13	12	ProbeTrack	13.2	SCS215a	20111107.092904	20111107.093756	8	0.013328	60	10	60-180	60	117	GapExp	SmallFlash	0	72	2	45	0	distractor	1	441	780	88972	13.328	12.946	13.717
ProbeTrack13	12	ProbeTrack	13.2	SCS215a	20111107.092904	20111107.093802	8	0.013328	60	10	60-180	60	109	GapExp	SmallFlash	0	73	2	45	0	distractor	1	531	735	89707	13.328	12.962	13.685
ProbeTrack13	12	ProbeTrack	13.2	SCS215a	20111107.092904	20111107.093809	8	0.013328	60	10	60-180	60	81	GapExp	SmallFlash	0	74	2	1	0	distractor	1	562	719	90426	13.328	13.085	13.557
ProbeTrack13	12	ProbeTrack	13.2	SCS215a	20111107.092904	20111107.093815	8	0.013328	60	10	60-180	60	128	GapExp	SmallFlash	0	75	2	0	1	target	1	493	754	91180	13.328	12.926	13.737
ProbeTrack13	12	ProbeTrack	13.2	SCS215a	20111107.092904	20111107.093821	8	0.013328	60	10	60-180	60	173	GapExp	SmallFlash	0	76	2	0	0	distractor	1	455	773	91953	13.328	13.101	13.556
ProbeTrack13	12	ProbeTrack	13.2	SCS215a	20111107.092904	20111107.093828	8	0.013328	60	10	60-180	60	157	GapExp	SmallFlash	0	77	2	0	1	target	1	2124	0	91953	13.328	12.998	13.665
ProbeTrack13	12	ProbeTrack	13.2	SCS215a	20111107.092904	20111107.093836	8	0.013328	60	10	60-180	60	153	GapExp	SmallFlash	0	78	2	45	1	target	1	428	786	92739	13.328	13.110	13.683
ProbeTrack13	12	ProbeTrack	13.2	SCS215a	20111107.092904	20111107.093844	8	0.013328	60	10	60-180	60	81	GapExp	SmallFlash	0	79	2	45	0	distractor	1	375	813	93552	13.328	13.092	13.563
ProbeTrack13	12	ProbeTrack	13.2	SCS215a	20111107.092904	20111107.093851	8	0.013328	60	10	60-180	60	128	GapExp	SmallFlash	0	80	2	3	0	distractor	1	529	736	94288	13.328	12.909	13.746
ProbeTrack13	12	ProbeTrack	13.2	SCS215a	20111107.092904	20111107.093857	8	0.013328	60	10	60-180	60	67	GapExp	SmallFlash	0	81	2	1	0	distractor	1	504	748	95036	13.328	13.097	13.573
ProbeTrack13	12	ProbeTrack	13.2	SCS215a	20111107.092904	20111107.093903	8	0.013328	60	10	60-180	60	152	GapExp	SmallFlash	0	82	2	3	1	target	1	410	795	95831	13.328	13.304	13.346
ProbeTrack13	12	ProbeTrack	13.2	SCS215a	20111107.092904	20111107.093910	8	0.013328	60	10	60-180	60	71	GapExp	SmallFlash	0	83	2	1	1	target	1	478	761	96592	13.328	12.856	13.793
ProbeTrack13	12	ProbeTrack	13.2	SCS215a	20111107.092904	20111107.093915	8	0.013328	60	10	60-180	60	108	GapExp	SmallFlash	0	84	2	3	0	distractor	1	467	767	97359	13.328	12.888	13.779
ProbeTrack13	12	ProbeTrack	13.2	SCS215a	20111107.092904	20111107.093921	8	0.013328	60	10	60-180	60	81	GapExp	SmallFlash	0	85	2	3	0	distractor	1	498	751	98110	13.328	13.306	13.353
ProbeTrack13	12	ProbeTrack	13.2	SCS215a	20111107.092904	20111107.093927	8	0.013328	60	10	60-180	60	64	GapExp	SmallFlash	0	86	2	1	1	target	1	404	798	98908	13.328	13.113	13.543
ProbeTrack13	12	ProbeTrack	13.2	SCS215a	20111107.092904	20111107.093932	8	0.013328	60	10	60-180	60	113	GapExp	SmallFlash	0	87	2	1	0	distractor	1	443	779	99687	13.328	13.108	13.562
ProbeTrack13	12	ProbeTrack	13.2	SCS215a	20111107.092904	20111107.093938	8	0.013328	60	10	60-180	60	108	GapExp	SmallFlash	0	88	2	0	0	distractor	1	406	797	100484	13.328	13.309	13.346
ProbeTrack13	12	ProbeTrack	13.2	SCS215a	20111107.092904	20111107.093944	8	0.013328	60	10	60-180	60	148	GapExp	SmallFlash	0	89	2	3	1	target	1	351	825	101309	13.328	13.305	13.362
ProbeTrack13	12	ProbeTrack	13.2	SCS215a	20111107.092904	20111107.093950	8	0.013328	60	10	60-180	60	115	GapExp	SmallFlash	0	90	2	3	1	target	1	380	810	102119	13.328	12.891	13.771
ProbeTrack13	12	ProbeTrack	13.2	SCS215a	20111107.092904	20111107.093956	8	0.013328	60	10	60-180	60	178	GapExp	SmallFlash	0	91	2	0	0	distractor	1	456	772	102891	13.328	12.868	13.780
ProbeTrack13	12	ProbeTrack	13.2	SCS215a	20111107.092904	20111107.094003	8	0.013328	60	10	60-180	60	90	GapExp	SmallFlash	0	92	2	3	1	target	1	542	729	103620	13.328	13.297	13.352
ProbeTrack13	12	ProbeTrack	13.2	SCS215a	20111107.092904	20111107.094009	8	0.013328	60	10	60-180	60	178	GapExp	SmallFlash	0	93	2	0	1	target	1	373	814	104434	13.328	13.102	13.558
ProbeTrack13	12	ProbeTrack	13.2	SCS215a	20111107.092904	20111107.094016	8	0.013328	60	10	60-180	60	128	GapExp	SmallFlash	0	94	2	45	1	target	1	372	814	105248	13.328	13.112	13.553
ProbeTrack13	12	ProbeTrack	13.2	SCS215a	20111107.092904	20111107.094022	8	0.013328	60	10	60-180	60	84	GapExp	SmallFlash	0	95	2	0	1	target	1	436	782	106030	13.328	13.309	13.343
ProbeTrack13	12	ProbeTrack	13.2	SCS215a	20111107.092904	20111107.094036	8	0.013328	60	10	60-180	60	142	GapExp	SmallFlash	0	96	2	1	0	distractor	1	506	747	106777	13.328	13.106	13.558
ProbeTrack13	12	ProbeTrack	13.2	SCS215a	20111107.092904	20111107.094044	8	0.013328	60	10	60-180	60	96	GapExp	SmallFlash	0	97	2	45	1	target	1	396	802	107579	13.328	13.308	13.349
ProbeTrack13	12	ProbeTrack	13.2	SCS215a	20111107.092904	20111107.094059	8	0.013328	60	10	60-180	60	134	GapExp	SmallFlash	0	98	2	0	0	distractor	1	439	781	108360	13.328	12.959	13.690
ProbeTrack13	12	ProbeTrack	13.2	SCS215a	20111107.092904	20111107.094122	8	0.013328	60	10	60-180	60	114	GapExp	SmallFlash	0	99	2	3	0	distractor	1	459	771	109131	13.328	13.308	13.345
ProbeTrack13	12	ProbeTrack	13.2	SCS215a	20111107.092904	20111107.094129	8	0.013328	60	10	60-180	60	106	GapExp	SmallFlash	0	100	2	3	0	distractor	1	392	804	109935	13.328	13.100	13.550
ProbeTrack13	12	ProbeTrack	13.2	SCS215a	20111107.092904	20111107.094137	8	0.013328	60	10	60-180	60	100	GapExp	SmallFlash	0	101	2	1	0	distractor	1	425	788	110723	13.328	13.310	13.345
ProbeTrack13	12	ProbeTrack	13.2	SCS215a	20111107.092904	20111107.094150	8	0.013328	60	10	60-180	60	160	GapExp	SmallFlash	0	102	2	45	1	target	1	422	789	111512	13.328	12.914	13.742
ProbeTrack13	12	ProbeTrack	13.2	SCS215a	20111107.092904	20111107.094158	8	0.013328	60	10	60-180	60	166	GapExp	SmallFlash	0	103	2	1	1	target	1	407	797	112309	13.328	13.111	13.545
ProbeTrack13	12	ProbeTrack	13.2	SCS215a	20111107.092904	20111107.094205	8	0.013328	60	10	60-180	60	69	GapExp	SmallFlash	0	104	2	1	1	target	1	358	821	113130	13.328	13.103	13.553
ProbeTrack13	12	ProbeTrack	13.2	SCS215a	20111107.092904	20111107.094211	8	0.013328	60	10	60-180	60	152	GapExp	SmallFlash	0	105	2	3	0	distractor	1	559	721	113851	13.329	13.307	13.571
ProbeTrack13	12	ProbeTrack	13.2	SCS215a	20111107.092904	20111107.094218	8	0.013328	60	10	60-180	60	94	GapExp	SmallFlash	0	106	2	0	0	distractor	1	577	712	114563	13.328	12.897	13.758
ProbeTrack13	12	ProbeTrack	13.2	SCS215a	20111107.092904	20111107.094224	8	0.013328	60	10	60-180	60	101	GapExp	SmallFlash	0	107	2	45	1	target	1	588	706	115269	13.328	13.074	13.576
ProbeTrack13	12	ProbeTrack	13.2	SCS215a	20111107.092904	20111107.094231	8	0.013328	60	10	60-180	60	104	GapExp	SmallFlash	0	108	2	0	0	target	0	767	-1000	114269	13.328	12.936	13.710
ProbeTrack13	12	ProbeTrack	13.2	SCS215a	20111107.092904	20111107.094237	8	0.013328	60	10	60-180	60	86	GapExp	SmallFlash	0	109	2	45	0	distractor	1	674	663	114932	13.328	13.225	13.432
ProbeTrack13	12	ProbeTrack	13.2	SCS215a	20111107.092904	20111107.094244	8	0.013328	60	10	60-180	60	115	GapExp	SmallFlash	0	110	2	45	0	distractor	1	598	701	115633	13.328	13.306	13.347
ProbeTrack13	12	ProbeTrack	13.2	SCS215a	20111107.092904	20111107.094250	8	0.013328	60	10	60-180	60	81	GapExp	SmallFlash	0	111	2	3	1	target	1	462	769	116402	13.328	13.308	13.347
ProbeTrack13	12	ProbeTrack	13.2	SCS215a	20111107.092904	20111107.094258	8	0.013328	60	10	60-180	60	136	GapExp	SmallFlash	0	112	2	0	0	distractor	1	506	747	117149	13.328	12.919	13.743
ProbeTrack13	12	ProbeTrack	13.2	SCS215a	20111107.092904	20111107.094305	8	0.013328	60	10	60-180	60	71	GapExp	SmallFlash	0	113	2	45	0	distractor	1	644	678	117827	13.328	13.307	13.343
ProbeTrack13	12	ProbeTrack	13.2	SCS215a	20111107.092904	20111107.094313	8	0.013328	60	10	60-180	60	137	GapExp	SmallFlash	0	114	2	0	0	distractor	1	526	737	118564	13.328	12.946	13.727
ProbeTrack13	12	ProbeTrack	13.2	SCS215a	20111107.092904	20111107.094319	8	0.013328	60	10	60-180	60	103	GapExp	SmallFlash	0	115	2	0	0	distractor	1	430	785	119349	13.328	13.298	13.356
ProbeTrack13	12	ProbeTrack	13.2	SCS215a	20111107.092904	20111107.094324	8	0.013328	60	10	60-180	60	172	GapExp	SmallFlash	0	116	2	45	1	target	1	389	806	120155	13.328	13.022	13.645
ProbeTrack13	12	ProbeTrack	13.2	SCS215a	20111107.092904	20111107.094332	8	0.013328	60	10	60-180	60	64	GapExp	SmallFlash	0	117	2	3	1	target	1	408	796	120951	13.328	13.307	13.349
ProbeTrack13	12	ProbeTrack	13.2	SCS215a	20111107.092904	20111107.094338	8	0.013328	60	10	60-180	60	84	GapExp	SmallFlash	0	118	2	1	0	distractor	1	553	724	121675	13.328	13.113	13.544
ProbeTrack13	12	ProbeTrack	13.2	SCS215a	20111107.092904	20111107.094344	8	0.013328	60	10	60-180	60	170	GapExp	SmallFlash	0	119	2	0	0	distractor	1	503	749	122424	13.326	12.927	13.560
ProbeTrack13	12	ProbeTrack	13.2	SCS215a	20111107.092904	20111107.094351	8	0.013328	60	10	60-180	60	178	GapExp	SmallFlash	0	120	2	0	0	distractor	1	497	752	123176	13.328	12.842	13.813
ProbeTrack13	12	ProbeTrack	13.2	SCS215a	20111107.092904	20111107.094357	8	0.013328	60	10	60-180	60	138	GapExp	SmallFlash	0	121	2	45	1	target	1	512	744	123920	13.328	12.935	13.708
ProbeTrack13	12	ProbeTrack	13.2	SCS215a	20111107.092904	20111107.094404	8	0.013328	60	10	60-180	60	66	GapExp	SmallFlash	0	122	2	45	1	target	1	443	779	124699	13.328	13.307	13.350
ProbeTrack13	12	ProbeTrack	13.2	SCS215a	20111107.092904	20111107.094410	8	0.013328	60	10	60-180	60	112	GapExp	SmallFlash	0	123	2	0	1	target	1	380	810	125509	13.328	13.308	13.348
ProbeTrack13	12	ProbeTrack	13.2	SCS215a	20111107.092904	20111107.094416	8	0.013328	60	10	60-180	60	118	GapExp	SmallFlash	0	124	2	3	0	distractor	1	485	758	126267	13.328	13.309	13.345
ProbeTrack13	12	ProbeTrack	13.2	SCS215a	20111107.092904	20111107.094422	8	0.013328	60	10	60-180	60	136	GapExp	SmallFlash	0	125	2	0	0	distractor	1	527	737	127004	13.328	12.972	13.693
ProbeTrack13	12	ProbeTrack	13.2	SCS215a	20111107.092904	20111107.094428	8	0.013328	60	10	60-180	60	155	GapExp	SmallFlash	0	126	2	0	0	distractor	1	625	688	127692	13.328	12.958	13.699
ProbeTrack13	12	ProbeTrack	13.2	SCS215a	20111107.092904	20111107.094435	8	0.013328	60	10	60-180	60	61	GapExp	SmallFlash	0	127	2	45	0	distractor	1	618	691	128383	13.328	12.918	13.745
ProbeTrack13	12	ProbeTrack	13.2	SCS215a	20111107.092904	20111107.094441	8	0.013328	60	10	60-180	60	82	GapExp	SmallFlash	0	128	2	45	0	distractor	1	497	752	129135	13.328	13.009	13.641
ProbeTrack13	12	ProbeTrack	13.2	SCS215a	20111107.092904	20111107.094447	8	0.013328	60	10	60-180	60	109	GapExp	SmallFlash	0	129	2	45	1	distractor	0	356	-1000	128135	13.328	13.049	13.602
ProbeTrack13	12	ProbeTrack	13.2	SCS215a	20111107.092904	20111107.094453	8	0.013328	60	10	60-180	60	103	GapExp	SmallFlash	0	130	2	0	1	target	1	518	741	128876	13.328	13.100	13.560
ProbeTrack13	12	ProbeTrack	13.2	SCS215a	20111107.092904	20111107.094459	8	0.013328	60	10	60-180	60	157	GapExp	SmallFlash	0	131	2	0	0	distractor	1	445	778	129654	13.328	13.099	13.564
ProbeTrack13	12	ProbeTrack	13.2	SCS215a	20111107.092904	20111107.094506	8	0.013328	60	10	60-180	60	81	GapExp	SmallFlash	0	132	2	0	1	target	1	465	768	130422	13.328	13.307	13.347
ProbeTrack13	12	ProbeTrack	13.2	SCS215a	20111107.092904	20111107.094512	8	0.013328	60	10	60-180	60	176	GapExp	SmallFlash	0	133	2	1	1	target	1	370	815	131237	13.328	13.306	13.347
ProbeTrack13	12	ProbeTrack	13.2	SCS215a	20111107.092904	20111107.094519	8	0.013328	60	10	60-180	60	90	GapExp	SmallFlash	0	134	2	45	0	distractor	1	521	740	131977	13.328	13.308	13.359
ProbeTrack13	12	ProbeTrack	13.2	SCS215a	20111107.092904	20111107.094526	8	0.013328	60	10	60-180	60	66	GapExp	SmallFlash	0	135	2	0	1	target	1	495	753	132730	13.328	13.307	13.349
ProbeTrack13	12	ProbeTrack	13.2	SCS215a	20111107.092904	20111107.094531	8	0.013328	60	10	60-180	60	120	GapExp	SmallFlash	0	136	2	3	0	distractor	1	505	748	133478	13.328	13.101	13.558
ProbeTrack13	12	ProbeTrack	13.2	SCS215a	20111107.092904	20111107.094537	8	0.013328	60	10	60-180	60	141	GapExp	SmallFlash	0	137	2	3	0	distractor	1	406	797	134275	13.328	13.034	13.631
ProbeTrack13	12	ProbeTrack	13.2	SCS215a	20111107.092904	20111107.094544	8	0.013328	60	10	60-180	60	64	GapExp	SmallFlash	0	138	2	0	1	target	1	645	678	134953	13.328	13.094	13.562
ProbeTrack13	12	ProbeTrack	13.2	SCS215a	20111107.092904	20111107.094549	8	0.013328	60	10	60-180	60	141	GapExp	SmallFlash	0	139	2	0	1	target	1	461	770	135723	13.328	12.930	13.725
ProbeTrack13	12	ProbeTrack	13.2	SCS215a	20111107.092904	20111107.094556	8	0.013328	60	10	60-180	60	147	GapExp	SmallFlash	0	140	2	1	1	target	1	405	798	136521	13.328	12.870	13.784
ProbeTrack13	12	ProbeTrack	13.2	SCS215a	20111107.092904	20111107.094602	8	0.013328	60	10	60-180	60	136	GapExp	SmallFlash	0	141	2	1	1	target	1	355	823	137344	13.328	13.297	13.351
ProbeTrack13	12	ProbeTrack	13.2	SCS215a	20111107.092904	20111107.094608	8	0.013328	60	10	60-180	60	123	GapExp	SmallFlash	0	142	2	1	1	target	1	347	827	138171	13.328	13.069	13.582
ProbeTrack13	12	ProbeTrack	13.2	SCS215a	20111107.092904	20111107.094615	8	0.013328	60	10	60-180	60	89	GapExp	SmallFlash	0	143	2	45	0	distractor	1	490	755	138926	13.328	13.307	13.344
ProbeTrack13	12	ProbeTrack	13.2	SCS215a	20111107.092904	20111107.094621	8	0.013328	60	10	60-180	60	88	GapExp	SmallFlash	0	144	2	1	1	target	1	382	809	139735	13.328	13.308	13.345
ProbeTrack13	12	ProbeTrack	13.2	SCS215a	20111107.092904	20111107.094626	8	0.013328	60	10	60-180	60	165	GapExp	SmallFlash	0	145	2	3	0	target	0	387	-1000	138735	13.328	12.868	13.795
ProbeTrack13	12	ProbeTrack	13.2	SCS215a	20111107.092904	20111107.094633	8	0.013328	60	10	60-180	60	102	GapExp	SmallFlash	0	146	2	0	0	distractor	1	457	772	139507	13.328	12.941	13.711
ProbeTrack13	12	ProbeTrack	13.2	SCS215a	20111107.092904	20111107.094639	8	0.013328	60	10	60-180	60	76	GapExp	SmallFlash	0	147	2	1	1	target	1	429	786	140293	13.328	13.309	13.344
ProbeTrack13	12	ProbeTrack	13.2	SCS215a	20111107.092904	20111107.094644	8	0.013328	60	10	60-180	60	143	GapExp	SmallFlash	0	148	2	45	0	distractor	1	489	756	141049	13.328	13.309	13.347
ProbeTrack13	12	ProbeTrack	13.2	SCS215a	20111107.092904	20111107.094652	8	0.013328	60	10	60-180	60	91	GapExp	SmallFlash	0	149	2	1	1	target	1	645	678	141727	13.328	13.271	13.386
ProbeTrack13	12	ProbeTrack	13.2	SCS215a	20111107.092904	20111107.094657	8	0.013328	60	10	60-180	60	146	GapExp	SmallFlash	0	150	2	3	1	target	1	443	779	142506	13.328	13.306	13.351
ProbeTrack13	12	ProbeTrack	13.2	SCS215a	20111107.092904	20111107.094704	8	0.013328	60	10	60-180	60	62	GapExp	SmallFlash	0	151	2	1	0	distractor	1	596	702	143208	13.328	13.308	13.351
ProbeTrack13	12	ProbeTrack	13.2	SCS215a	20111107.092904	20111107.094709	8	0.013328	60	10	60-180	60	136	GapExp	SmallFlash	0	152	2	1	0	distractor	1	542	729	143937	13.328	13.090	13.560
ProbeTrack13	12	ProbeTrack	13.2	SCS215a	20111107.092904	20111107.094715	8	0.013328	60	10	60-180	60	175	GapExp	SmallFlash	0	153	2	3	1	target	1	509	746	144683	13.328	13.086	13.571
ProbeTrack13	12	ProbeTrack	13.2	SCS215a	20111107.092904	20111107.094723	8	0.013328	60	10	60-180	60	149	GapExp	SmallFlash	0	154	2	45	0	distractor	1	568	716	145399	13.328	13.098	13.559
ProbeTrack13	12	ProbeTrack	13.2	SCS215a	20111107.092904	20111107.094730	8	0.013328	60	10	60-180	60	154	GapExp	SmallFlash	0	155	2	45	1	target	1	510	745	146144	13.328	12.868	13.777
ProbeTrack13	12	ProbeTrack	13.2	SCS215a	20111107.092904	20111107.094737	8	0.013328	60	10	60-180	60	138	GapExp	SmallFlash	0	156	2	45	0	distractor	1	542	729	146873	13.328	12.959	13.697
ProbeTrack13	12	ProbeTrack	13.2	SCS215a	20111107.092904	20111107.094744	8	0.013328	60	10	60-180	60	168	GapExp	SmallFlash	0	157	2	1	0	distractor	1	516	742	147615	13.328	13.001	13.662
ProbeTrack13	12	ProbeTrack	13.2	SCS215a	20111107.092904	20111107.094751	8	0.013328	60	10	60-180	60	147	GapExp	SmallFlash	0	158	2	3	1	target	1	500	750	148365	13.328	12.977	13.680
ProbeTrack13	12	ProbeTrack	13.2	SCS215a	20111107.092904	20111107.094758	8	0.013328	60	10	60-180	60	74	GapExp	SmallFlash	0	159	2	0	1	target	1	441	780	149145	13.328	13.031	13.619
ProbeTrack13	12	ProbeTrack	13.2	SCS215a	20111107.092904	20111107.094803	8	0.013328	60	10	60-180	60	145	GapExp	SmallFlash	0	160	2	45	0	distractor	1	485	758	149903	13.328	12.840	13.815
ProbeTrack13	12	ProbeTrack	13.2	SCS215a	20111107.092904	20111107.094810	8	0.013328	60	10	60-180	60	107	GapExp	SmallFlash	0	161	2	0	0	distractor	1	497	752	150655	13.328	13.307	13.349
ProbeTrack13	12	ProbeTrack	13.2	SCS215a	20111107.092904	20111107.094816	8	0.013328	60	10	60-180	60	124	GapExp	SmallFlash	0	162	2	0	0	distractor	1	430	785	151440	13.328	13.180	13.473
ProbeTrack13	12	ProbeTrack	13.2	SCS215a	20111107.092904	20111107.094822	8	0.013328	60	10	60-180	60	83	GapExp	SmallFlash	0	163	2	1	0	distractor	1	487	757	152197	13.328	13.309	13.349
ProbeTrack13	12	ProbeTrack	13.2	SCS215a	20111107.092904	20111107.094828	8	0.013328	60	10	60-180	60	110	GapExp	SmallFlash	0	164	2	1	0	distractor	1	496	752	152949	13.328	13.302	13.349
ProbeTrack13	12	ProbeTrack	13.2	SCS215a	20111107.092904	20111107.094835	8	0.013328	60	10	60-180	60	81	GapExp	SmallFlash	0	165	2	0	1	target	1	459	771	153720	13.328	13.086	13.566
ProbeTrack13	12	ProbeTrack	13.2	SCS215a	20111107.092904	20111107.094841	8	0.013328	60	10	60-180	60	119	GapExp	SmallFlash	0	166	2	45	0	distractor	1	516	742	154462	13.328	13.112	13.538
ProbeTrack13	12	ProbeTrack	13.2	SCS215a	20111107.092904	20111107.094847	8	0.013328	60	10	60-180	60	124	GapExp	SmallFlash	0	167	2	1	0	target	0	446	-1000	153462	13.328	13.065	13.595
ProbeTrack13	12	ProbeTrack	13.2	SCS215a	20111107.092904	20111107.094853	8	0.013328	60	10	60-180	60	163	GapExp	SmallFlash	0	168	2	3	1	target	1	624	688	154150	13.328	12.920	13.728
ProbeTrack13	12	ProbeTrack	13.2	SCS215a	20111107.092904	20111107.094900	8	0.013328	60	10	60-180	60	110	GapExp	SmallFlash	0	169	2	45	1	target	1	504	748	154898	13.328	12.922	13.733
ProbeTrack13	12	ProbeTrack	13.2	SCS215a	20111107.092904	20111107.094907	8	0.013328	60	10	60-180	60	106	GapExp	SmallFlash	0	170	2	3	1	target	1	431	785	155683	13.328	12.921	13.727
ProbeTrack13	12	ProbeTrack	13.2	SCS215a	20111107.092904	20111107.094913	8	0.013328	60	10	60-180	60	154	GapExp	SmallFlash	0	171	2	0	1	target	1	452	774	156457	13.328	13.091	13.565
ProbeTrack13	12	ProbeTrack	13.2	SCS215a	20111107.092904	20111107.094919	8	0.013328	60	10	60-180	60	157	GapExp	SmallFlash	0	172	2	1	0	distractor	1	465	768	157225	13.328	12.966	13.697
ProbeTrack13	12	ProbeTrack	13.2	SCS215a	20111107.092904	20111107.094926	8	0.013328	60	10	60-180	60	161	GapExp	SmallFlash	0	173	2	45	1	target	1	441	780	158005	13.328	12.953	13.697
ProbeTrack13	12	ProbeTrack	13.2	SCS215a	20111107.092904	20111107.094933	8	0.013328	60	10	60-180	60	143	GapExp	SmallFlash	0	174	2	3	0	distractor	1	490	755	158760	13.328	13.309	13.347
ProbeTrack13	12	ProbeTrack	13.2	SCS215a	20111107.092904	20111107.094939	8	0.013328	60	10	60-180	60	80	GapExp	SmallFlash	0	175	2	0	1	target	1	427	787	159547	13.328	13.308	13.347
ProbeTrack13	12	ProbeTrack	13.2	SCS215a	20111107.092904	20111107.094945	8	0.013328	60	10	60-180	60	138	GapExp	SmallFlash	0	176	2	3	0	distractor	1	453	774	160321	13.328	13.301	13.349
ProbeTrack13	12	ProbeTrack	13.2	SCS215a	20111107.092904	20111107.094951	8	0.013328	60	10	60-180	60	180	GapExp	SmallFlash	0	177	2	45	1	target	1	391	805	161126	13.328	12.911	13.759
ProbeTrack13	12	ProbeTrack	13.2	SCS215a	20111107.092904	20111107.094959	8	0.013328	60	10	60-180	60	91	GapExp	SmallFlash	0	178	2	1	0	distractor	1	508	746	161872	13.328	13.307	13.344
ProbeTrack13	12	ProbeTrack	13.2	SCS215a	20111107.092904	20111107.095005	8	0.013328	60	10	60-180	60	130	GapExp	SmallFlash	0	179	2	45	0	distractor	1	491	755	162627	13.328	12.922	13.734
ProbeTrack13	12	ProbeTrack	13.2	SCS215a	20111107.092904	20111107.095012	8	0.013328	60	10	60-180	60	135	GapExp	SmallFlash	0	180	2	3	1	target	1	434	783	163410	13.328	13.093	13.555
ProbeTrack13	12	ProbeTrack	13.2	SCS215a	20111107.092904	20111107.095018	8	0.013328	60	10	60-180	60	68	GapExp	SmallFlash	0	181	2	45	0	distractor	1	491	755	164165	13.328	12.945	13.724
ProbeTrack13	12	ProbeTrack	13.2	SCS215a	20111107.092904	20111107.095024	8	0.013328	60	10	60-180	60	71	GapExp	SmallFlash	0	182	2	45	1	target	1	376	812	164977	13.328	12.919	13.751
ProbeTrack13	12	ProbeTrack	13.2	SCS215a	20111107.092904	20111107.095030	8	0.013328	60	10	60-180	60	125	GapExp	SmallFlash	0	183	2	45	0	distractor	1	468	766	165743	13.328	13.106	13.565
ProbeTrack13	12	ProbeTrack	13.2	SCS215a	20111107.092904	20111107.095036	8	0.013328	60	10	60-180	60	171	GapExp	SmallFlash	0	184	2	1	1	target	1	439	781	166524	13.328	12.901	13.755
ProbeTrack13	12	ProbeTrack	13.2	SCS215a	20111107.092904	20111107.095043	8	0.013328	60	10	60-180	60	79	GapExp	SmallFlash	0	185	2	1	0	distractor	1	530	735	167259	13.328	13.305	13.358
ProbeTrack13	12	ProbeTrack	13.2	SCS215a	20111107.092904	20111107.095049	8	0.013328	60	10	60-180	60	169	GapExp	SmallFlash	0	186	2	3	0	distractor	1	494	753	168012	13.328	13.093	13.556
ProbeTrack13	12	ProbeTrack	13.2	SCS215a	20111107.092904	20111107.095055	8	0.013328	60	10	60-180	60	127	GapExp	SmallFlash	0	187	2	0	1	target	1	569	716	168728	13.328	13.308	13.346
ProbeTrack13	12	ProbeTrack	13.2	SCS215a	20111107.092904	20111107.095102	8	0.013328	60	10	60-180	60	130	GapExp	SmallFlash	0	188	2	45	1	target	1	335	833	169561	13.328	13.127	13.521
ProbeTrack13	12	ProbeTrack	13.2	SCS215a	20111107.092904	20111107.095108	8	0.013328	60	10	60-180	60	87	GapExp	SmallFlash	0	189	2	3	0	distractor	1	508	746	170307	13.328	12.962	13.691
ProbeTrack13	12	ProbeTrack	13.2	SCS215a	20111107.092904	20111107.095114	8	0.013328	60	10	60-180	60	160	GapExp	SmallFlash	0	190	2	45	1	target	1	472	764	171071	13.328	12.884	13.772
ProbeTrack13	12	ProbeTrack	13.2	SCS215a	20111107.092904	20111107.095122	8	0.013328	60	10	60-180	60	83	GapExp	SmallFlash	0	191	2	45	1	target	1	388	806	171877	13.328	12.860	13.790
ProbeTrack13	12	ProbeTrack	13.2	SCS215a	20111107.092904	20111107.095128	8	0.013328	60	10	60-180	60	174	GapExp	SmallFlash	0	192	2	0	0	distractor	1	474	763	172640	13.328	13.092	13.565
ProbeTrack13	12	ProbeTrack	13.2	SCS215a	20111107.092904	20111107.095135	8	0.013328	60	10	60-180	60	101	GapExp	SmallFlash	0	193	2	1	1	target	1	511	745	173385	13.328	13.099	13.563
ProbeTrack13	12	ProbeTrack	13.2	SCS215a	20111107.092904	20111107.095141	8	0.013328	60	10	60-180	60	149	GapExp	SmallFlash	0	194	2	0	0	distractor	1	634	683	174068	13.328	13.112	13.560
ProbeTrack13	12	ProbeTrack	13.2	SCS215a	20111107.092904	20111107.095149	8	0.013328	60	10	60-180	60	86	GapExp	SmallFlash	0	195	2	1	0	distractor	1	587	707	174775	13.328	12.945	13.709
ProbeTrack13	12	ProbeTrack	13.2	SCS215a	20111107.092904	20111107.095154	8	0.013328	60	10	60-180	60	102	GapExp	SmallFlash	0	196	2	45	1	target	1	8093	0	174775	13.373	13.307	26.658
ProbeTrack13	12	ProbeTrack	13.2	SCS215a	20111107.092904	20111107.095208	8	0.013328	60	10	60-180	60	69	GapExp	SmallFlash	0	197	2	3	0	distractor	1	531	735	175510	13.328	13.093	13.551
ProbeTrack13	12	ProbeTrack	13.2	SCS215a	20111107.092904	20111107.095215	8	0.013328	60	10	60-180	60	84	GapExp	SmallFlash	0	198	2	0	0	distractor	1	495	753	176263	13.328	13.307	13.348
ProbeTrack13	12	ProbeTrack	13.2	SCS215a	20111107.092904	20111107.095221	8	0.013328	60	10	60-180	60	99	GapExp	SmallFlash	0	199	2	1	0	distractor	1	523	739	177002	13.328	12.948	13.705
ProbeTrack13	12	ProbeTrack	13.2	SCS215a	20111107.092904	20111107.095227	8	0.013328	60	10	60-180	60	117	GapExp	SmallFlash	0	200	2	3	0	distractor	1	424	788	177790	13.328	13.307	13.346
ProbeTrack13	12	ProbeTrack	13.2	SCS215a	20111107.095359	20111107.095405	8	0.013328	60	10	60-180	60	173	GapPrac	Blank	1	1	2	0	1	target	1	713	644	178434	13.370	12.977	13.685
ProbeTrack13	12	ProbeTrack	13.2	SCS215a	20111107.095359	20111107.095414	8	0.013328	60	10	60-180	60	141	GapPrac	Blank	1	2	2	3	1	target	1	554	723	179157	13.328	12.898	13.766
ProbeTrack13	12	ProbeTrack	13.2	SCS215a	20111107.095359	20111107.095421	8	0.013328	60	10	60-180	60	114	GapPrac	Blank	1	3	2	1	1	target	1	508	746	179903	13.328	12.985	13.671
ProbeTrack13	12	ProbeTrack	13.2	SCS215a	20111107.095359	20111107.095427	8	0.013328	60	10	60-180	60	135	GapPrac	Blank	1	4	2	45	0	distractor	1	492	754	180657	13.328	13.086	13.565
ProbeTrack13	12	ProbeTrack	13.2	SCS215a	20111107.095359	20111107.095434	8	0.013328	60	10	60-180	60	164	GapPrac	Blank	1	5	2	1	1	target	1	496	752	181409	13.328	13.297	13.345
ProbeTrack13	12	ProbeTrack	13.2	SCS215a	20111107.095359	20111107.095441	8	0.013328	60	10	60-180	60	131	GapPrac	Blank	1	6	2	45	0	distractor	1	487	757	182166	13.328	12.985	13.668
ProbeTrack13	12	ProbeTrack	13.2	SCS215a	20111107.095359	20111107.095448	8	0.013328	60	10	60-180	60	75	GapPrac	Blank	1	7	2	1	1	target	1	431	785	182951	13.328	13.306	13.352
ProbeTrack13	12	ProbeTrack	13.2	SCS215a	20111107.095359	20111107.095454	8	0.013328	60	10	60-180	60	131	GapPrac	Blank	1	8	2	0	0	distractor	1	537	732	183683	13.328	13.309	13.347
ProbeTrack13	12	ProbeTrack	13.2	SCS215a	20111107.095359	20111107.095501	8	0.013328	60	10	60-180	60	68	GapPrac	Blank	1	9	2	3	0	distractor	1	597	702	184385	13.328	13.300	13.350
ProbeTrack13	12	ProbeTrack	13.2	SCS215a	20111107.095359	20111107.095506	8	0.013328	60	10	60-180	60	173	GapPrac	Blank	1	10	2	3	1	target	1	445	778	185163	13.328	13.106	13.558
ProbeTrack13	12	ProbeTrack	13.2	SCS215a	20111107.095359	20111107.095513	8	0.013328	60	10	60-180	60	151	GapPrac	Blank	1	11	2	3	0	distractor	1	535	733	185896	13.328	13.105	13.544
ProbeTrack13	12	ProbeTrack	13.2	SCS215a	20111107.095359	20111107.095520	8	0.013328	60	10	60-180	60	172	GapPrac	Blank	1	12	2	0	0	target	0	750	-1000	184896	13.328	13.307	13.350
ProbeTrack13	12	ProbeTrack	13.2	SCS215a	20111107.095359	20111107.095527	8	0.013328	60	10	60-180	60	136	GapPrac	Blank	1	13	2	1	0	distractor	1	517	742	185638	13.328	12.852	13.805
ProbeTrack13	12	ProbeTrack	13.2	SCS215a	20111107.095359	20111107.095533	8	0.013328	60	10	60-180	60	73	GapPrac	Blank	1	14	2	45	1	target	1	502	749	186387	13.328	13.107	13.551
ProbeTrack13	12	ProbeTrack	13.2	SCS215a	20111107.095359	20111107.095539	8	0.013328	60	10	60-180	60	167	GapPrac	Blank	1	15	2	0	1	target	1	506	747	187134	13.328	13.100	13.559
ProbeTrack13	12	ProbeTrack	13.2	SCS215a	20111107.095359	20111107.095546	8	0.013328	60	10	60-180	60	119	GapPrac	Blank	1	16	2	45	1	target	1	445	778	187912	13.328	13.086	13.558
ProbeTrack13	12	ProbeTrack	13.2	SCS215a	20111107.095359	20111107.095553	8	0.013328	60	10	60-180	60	127	GapPrac	Blank	1	17	2	1	0	distractor	1	829	586	188498	13.328	12.872	13.789
ProbeTrack13	12	ProbeTrack	13.2	SCS215a	20111107.095359	20111107.095600	8	0.013328	60	10	60-180	60	67	GapPrac	Blank	1	18	2	3	1	target	1	570	715	189213	13.328	13.302	13.349
ProbeTrack13	12	ProbeTrack	13.2	SCS215a	20111107.095359	20111107.095605	8	0.013328	60	10	60-180	60	140	GapPrac	Blank	1	19	2	45	0	target	0	444	-1000	188213	13.328	12.899	13.742
ProbeTrack13	12	ProbeTrack	13.2	SCS215a	20111107.095359	20111107.095612	8	0.013328	60	10	60-180	60	135	GapPrac	Blank	1	20	2	0	1	target	1	601	700	188913	13.328	13.253	13.436
ProbeTrack13	12	ProbeTrack	13.2	SCS215a	20111107.095643	20111107.095650	8	0.013327	60	10	60-180	60	112	GapExp	Blank	1	1	2	45	0	distractor	1	535	733	189646	13.375	10.741	15.923
ProbeTrack13	12	ProbeTrack	13.2	SCS215a	20111107.095643	20111107.095709	8	0.013327	60	10	60-180	60	156	GapExp	Blank	1	2	2	3	0	distractor	1	672	664	190310	13.328	12.046	14.617
ProbeTrack13	12	ProbeTrack	13.2	SCS215a	20111107.095643	20111107.095720	8	0.013327	60	10	60-180	60	110	GapExp	Blank	1	3	2	0	0	distractor	1	566	717	191027	13.328	13.309	13.344
ProbeTrack13	12	ProbeTrack	13.2	SCS215a	20111107.095643	20111107.095727	8	0.013327	60	10	60-180	60	117	GapExp	Blank	1	4	2	3	1	target	1	490	755	191782	13.328	5.102	21.554
ProbeTrack13	12	ProbeTrack	13.2	SCS215a	20111107.095643	20111107.095733	8	0.013327	60	10	60-180	60	91	GapExp	Blank	1	5	2	1	1	target	1	348	826	192608	13.328	10.360	16.296
ProbeTrack13	12	ProbeTrack	13.2	SCS215a	20111107.095643	20111107.095738	8	0.013327	60	10	60-180	60	155	GapExp	Blank	1	6	2	0	1	target	1	538	731	193339	13.328	12.330	14.325
ProbeTrack13	12	ProbeTrack	13.2	SCS215a	20111107.095643	20111107.095745	8	0.013327	60	10	60-180	60	63	GapExp	Blank	1	7	2	1	0	target	0	661	-1000	192339	13.328	13.303	13.344
ProbeTrack13	12	ProbeTrack	13.2	SCS215a	20111107.095643	20111107.095753	8	0.013327	60	10	60-180	60	160	GapExp	Blank	1	8	2	45	1	target	1	441	780	193119	13.328	13.092	13.563
ProbeTrack13	12	ProbeTrack	13.2	SCS215a	20111107.095643	20111107.095800	8	0.013327	60	10	60-180	60	84	GapExp	Blank	0	9	2	3	1	target	1	457	772	193891	13.328	12.748	13.923
ProbeTrack13	12	ProbeTrack	13.2	SCS215a	20111107.095643	20111107.095805	8	0.013327	60	10	60-180	60	156	GapExp	Blank	0	10	2	1	1	target	1	787	607	194498	13.328	12.141	14.514
ProbeTrack13	12	ProbeTrack	13.2	SCS215a	20111107.095643	20111107.095814	8	0.013327	60	10	60-180	60	73	GapExp	Blank	0	11	2	45	1	target	1	409	796	195294	13.328	13.091	13.566
ProbeTrack13	12	ProbeTrack	13.2	SCS215a	20111107.095643	20111107.095821	8	0.013327	60	10	60-180	60	161	GapExp	Blank	0	12	2	45	0	distractor	1	466	767	196061	13.328	10.863	15.786
ProbeTrack13	12	ProbeTrack	13.2	SCS215a	20111107.095643	20111107.095830	8	0.013327	60	10	60-180	60	133	GapExp	Blank	0	13	2	1	1	target	1	575	713	196774	13.328	13.035	13.611
ProbeTrack13	12	ProbeTrack	13.2	SCS215a	20111107.095643	20111107.095839	8	0.013327	60	10	60-180	60	154	GapExp	Blank	0	14	2	3	1	target	1	459	771	197545	13.328	13.308	13.348
ProbeTrack13	12	ProbeTrack	13.2	SCS215a	20111107.095643	20111107.095853	8	0.013327	60	10	60-180	60	155	GapExp	Blank	0	15	2	1	0	distractor	1	537	732	198277	13.328	13.112	13.551
ProbeTrack13	12	ProbeTrack	13.2	SCS215a	20111107.095643	20111107.095901	8	0.013327	60	10	60-180	60	81	GapExp	Blank	0	16	2	3	0	distractor	1	511	745	199022	13.328	13.308	13.348
ProbeTrack13	12	ProbeTrack	13.2	SCS215a	20111107.095643	20111107.095907	8	0.013327	60	10	60-180	60	103	GapExp	Blank	0	17	2	1	0	distractor	1	461	770	199792	13.328	13.309	13.346
ProbeTrack13	12	ProbeTrack	13.2	SCS215a	20111107.095643	20111107.095913	8	0.013327	60	10	60-180	60	132	GapExp	Blank	0	18	2	1	1	target	1	551	725	200517	13.328	13.295	13.358
ProbeTrack13	12	ProbeTrack	13.2	SCS215a	20111107.095643	20111107.095920	8	0.013327	60	10	60-180	60	120	GapExp	Blank	0	19	2	1	1	target	1	581	710	201227	13.328	11.375	15.316
ProbeTrack13	12	ProbeTrack	13.2	SCS215a	20111107.095643	20111107.095926	8	0.013327	60	10	60-180	60	117	GapExp	Blank	0	20	2	3	0	distractor	1	397	802	202029	13.328	9.124	17.541
ProbeTrack13	12	ProbeTrack	13.2	SCS215a	20111107.095643	20111107.095933	8	0.013327	60	10	60-180	60	77	GapExp	Blank	0	21	2	1	1	target	1	593	704	202733	13.328	10.549	16.107
ProbeTrack13	12	ProbeTrack	13.2	SCS215a	20111107.095643	20111107.095938	8	0.013327	60	10	60-180	60	103	GapExp	Blank	0	22	2	0	1	target	1	443	779	203512	13.328	13.109	13.550
ProbeTrack13	12	ProbeTrack	13.2	SCS215a	20111107.095643	20111107.095944	8	0.013327	60	10	60-180	60	149	GapExp	Blank	0	23	2	3	1	target	1	555	723	204235	13.328	13.306	13.357
ProbeTrack13	12	ProbeTrack	13.2	SCS215a	20111107.095643	20111107.095950	8	0.013327	60	10	60-180	60	133	GapExp	Blank	0	24	2	1	1	target	1	485	758	204993	13.328	10.893	15.743
ProbeTrack13	12	ProbeTrack	13.2	SCS215a	20111107.095643	20111107.095957	8	0.013327	60	10	60-180	60	69	GapExp	Blank	0	25	2	45	1	distractor	0	420	-1000	203993	13.328	10.830	15.827
ProbeTrack13	12	ProbeTrack	13.2	SCS215a	20111107.095643	20111107.100003	8	0.013327	60	10	60-180	60	66	GapExp	Blank	0	26	2	0	1	target	1	788	606	204599	13.328	9.782	16.873
ProbeTrack13	12	ProbeTrack	13.2	SCS215a	20111107.095643	20111107.100009	8	0.013327	60	10	60-180	60	145	GapExp	Blank	0	27	2	1	1	target	1	624	688	205287	13.328	13.307	13.350
ProbeTrack13	12	ProbeTrack	13.2	SCS215a	20111107.095643	20111107.100015	8	0.013327	60	10	60-180	60	151	GapExp	Blank	0	28	2	1	0	target	0	633	-1000	204287	13.328	12.230	14.428
ProbeTrack13	12	ProbeTrack	13.2	SCS215a	20111107.095643	20111107.100021	8	0.013327	60	10	60-180	60	121	GapExp	Blank	0	29	2	0	1	target	1	547	727	205014	13.328	13.312	13.347
ProbeTrack13	12	ProbeTrack	13.2	SCS215a	20111107.095643	20111107.100028	8	0.013327	60	10	60-180	60	157	GapExp	Blank	0	30	2	3	1	target	1	437	782	205796	13.328	13.118	13.545
ProbeTrack13	12	ProbeTrack	13.2	SCS215a	20111107.095643	20111107.100034	8	0.013327	60	10	60-180	60	87	GapExp	Blank	0	31	2	3	1	target	1	453	774	206570	13.328	13.110	13.548
ProbeTrack13	12	ProbeTrack	13.2	SCS215a	20111107.095643	20111107.100039	8	0.013327	60	10	60-180	60	130	GapExp	Blank	0	32	2	0	1	target	1	417	792	207362	13.328	13.113	13.551
ProbeTrack13	12	ProbeTrack	13.2	SCS215a	20111107.095643	20111107.100045	8	0.013327	60	10	60-180	60	142	GapExp	Blank	0	33	2	3	0	target	0	673	-1000	206362	13.328	13.156	13.495
ProbeTrack13	12	ProbeTrack	13.2	SCS215a	20111107.095643	20111107.100052	8	0.013327	60	10	60-180	60	148	GapExp	Blank	0	34	2	1	0	distractor	1	543	729	207091	13.328	10.283	16.381
ProbeTrack13	12	ProbeTrack	13.2	SCS215a	20111107.095643	20111107.100058	8	0.013327	60	10	60-180	60	115	GapExp	Blank	0	35	2	45	1	target	1	550	725	207816	13.328	11.976	14.678
ProbeTrack13	12	ProbeTrack	13.2	SCS215a	20111107.095643	20111107.100105	8	0.013327	60	10	60-180	60	87	GapExp	Blank	0	36	2	3	0	distractor	1	665	668	208484	13.328	8.848	17.793
ProbeTrack13	12	ProbeTrack	13.2	SCS215a	20111107.095643	20111107.100112	8	0.013327	60	10	60-180	60	91	GapExp	Blank	0	37	2	45	1	target	1	556	722	209206	13.328	8.469	17.866
ProbeTrack13	12	ProbeTrack	13.2	SCS215a	20111107.095643	20111107.100118	8	0.013327	60	10	60-180	60	143	GapExp	Blank	0	38	2	0	0	distractor	1	698	651	209857	13.328	7.865	18.791
ProbeTrack13	12	ProbeTrack	13.2	SCS215a	20111107.095643	20111107.100125	8	0.013327	60	10	60-180	60	115	GapExp	Blank	0	39	2	3	0	distractor	1	715	643	210500	13.328	10.675	15.975
ProbeTrack13	12	ProbeTrack	13.2	SCS215a	20111107.095643	20111107.100131	8	0.013327	60	10	60-180	60	73	GapExp	Blank	0	40	2	3	0	distractor	1	454	773	211273	13.328	9.419	17.237
ProbeTrack13	12	ProbeTrack	13.2	SCS215a	20111107.095643	20111107.100137	8	0.013327	60	10	60-180	60	116	GapExp	Blank	0	41	2	45	0	distractor	1	430	785	212058	13.328	6.265	20.395
ProbeTrack13	12	ProbeTrack	13.2	SCS215a	20111107.095643	20111107.100144	8	0.013327	60	10	60-180	60	100	GapExp	Blank	0	42	2	0	0	target	0	748	-1000	211058	13.328	12.581	14.094
ProbeTrack13	12	ProbeTrack	13.2	SCS215a	20111107.095643	20111107.100150	8	0.013327	60	10	60-180	60	105	GapExp	Blank	0	43	2	3	1	target	1	844	578	211636	13.328	13.098	13.544
ProbeTrack13	12	ProbeTrack	13.2	SCS215a	20111107.095643	20111107.100156	8	0.013327	60	10	60-180	60	120	GapExp	Blank	0	44	2	0	1	target	1	498	751	212387	13.328	10.083	16.560
ProbeTrack13	12	ProbeTrack	13.2	SCS215a	20111107.095643	20111107.100203	8	0.013327	60	10	60-180	60	175	GapExp	Blank	0	45	2	45	1	target	1	488	756	213143	13.328	7.557	19.087
ProbeTrack13	12	ProbeTrack	13.2	SCS215a	20111107.095643	20111107.100221	8	0.013327	60	10	60-180	60	91	GapExp	Blank	0	46	2	3	0	distractor	1	534	733	213876	13.328	9.834	16.808
ProbeTrack13	12	ProbeTrack	13.2	SCS215a	20111107.095643	20111107.100226	8	0.013327	60	10	60-180	60	178	GapExp	Blank	0	47	2	3	0	distractor	1	434	783	214659	13.328	10.795	15.861
ProbeTrack13	12	ProbeTrack	13.2	SCS215a	20111107.095643	20111107.100233	8	0.013327	60	10	60-180	60	68	GapExp	Blank	0	48	2	1	1	target	1	478	761	215420	13.328	13.297	13.348
ProbeTrack13	12	ProbeTrack	13.2	SCS215a	20111107.095643	20111107.100239	8	0.013327	60	10	60-180	60	115	GapExp	Blank	0	49	2	0	0	distractor	1	590	705	216125	13.328	13.096	13.556
ProbeTrack13	12	ProbeTrack	13.2	SCS215a	20111107.095643	20111107.100308	8	0.013327	60	10	60-180	60	112	GapExp	Blank	0	50	2	1	1	target	1	461	770	216895	13.328	12.668	13.982
ProbeTrack13	12	ProbeTrack	13.2	SCS215a	20111107.095643	20111107.100315	8	0.013327	60	10	60-180	60	102	GapExp	Blank	0	51	2	45	1	target	1	450	775	217670	13.328	5.227	21.424
ProbeTrack13	12	ProbeTrack	13.2	SCS215a	20111107.095643	20111107.100322	8	0.013327	60	10	60-180	60	133	GapExp	Blank	0	52	2	3	0	distractor	1	532	734	218404	13.328	7.923	18.726
ProbeTrack13	12	ProbeTrack	13.2	SCS215a	20111107.095643	20111107.100328	8	0.013327	60	10	60-180	60	116	GapExp	Blank	0	53	2	3	1	target	1	397	802	219206	13.328	12.616	14.033
ProbeTrack13	12	ProbeTrack	13.2	SCS215a	20111107.095643	20111107.100334	8	0.013327	60	10	60-180	60	117	GapExp	Blank	0	54	2	1	1	target	1	495	753	219959	13.328	8.709	17.948
ProbeTrack13	12	ProbeTrack	13.2	SCS215a	20111107.095643	20111107.100355	8	0.013327	60	10	60-180	60	131	GapExp	Blank	0	55	2	1	0	distractor	1	543	729	220688	13.328	13.099	13.572
ProbeTrack13	12	ProbeTrack	13.2	SCS215a	20111107.095643	20111107.100401	8	0.013327	60	10	60-180	60	156	GapExp	Blank	0	56	2	1	1	target	1	469	766	221454	13.328	13.294	13.361
ProbeTrack13	12	ProbeTrack	13.2	SCS215a	20111107.095643	20111107.100408	8	0.013327	60	10	60-180	60	136	GapExp	Blank	0	57	2	3	1	target	1	713	644	222098	13.328	9.853	16.802
ProbeTrack13	12	ProbeTrack	13.2	SCS215a	20111107.095643	20111107.100414	8	0.013327	60	10	60-180	60	96	GapExp	Blank	0	58	2	3	0	distractor	1	451	775	222873	13.328	13.308	13.347
ProbeTrack13	12	ProbeTrack	13.2	SCS215a	20111107.095643	20111107.100421	8	0.013327	60	10	60-180	60	97	GapExp	Blank	0	59	2	45	0	distractor	1	482	759	223632	13.328	6.981	19.667
ProbeTrack13	12	ProbeTrack	13.2	SCS215a	20111107.095643	20111107.100428	8	0.013327	60	10	60-180	60	145	GapExp	Blank	0	60	2	1	0	distractor	1	522	739	224371	13.328	13.308	13.347
ProbeTrack13	12	ProbeTrack	13.2	SCS215a	20111107.095643	20111107.100434	8	0.013327	60	10	60-180	60	178	GapExp	Blank	0	61	2	45	1	target	1	544	728	225099	13.328	13.306	13.348
ProbeTrack13	12	ProbeTrack	13.2	SCS215a	20111107.095643	20111107.100441	8	0.013327	60	10	60-180	60	83	GapExp	Blank	0	62	2	0	0	distractor	1	727	637	225736	13.328	9.118	17.539
ProbeTrack13	12	ProbeTrack	13.2	SCS215a	20111107.095643	20111107.100447	8	0.013327	60	10	60-180	60	76	GapExp	Blank	0	63	2	3	1	target	1	468	766	226502	13.328	13.066	13.599
ProbeTrack13	12	ProbeTrack	13.2	SCS215a	20111107.095643	20111107.100452	8	0.013327	60	10	60-180	60	78	GapExp	Blank	0	64	2	3	1	target	1	527	737	227239	13.328	13.311	13.344
ProbeTrack13	12	ProbeTrack	13.2	SCS215a	20111107.095643	20111107.100457	8	0.013327	60	10	60-180	60	165	GapExp	Blank	0	65	2	0	0	distractor	1	576	712	227951	13.328	13.308	13.354
ProbeTrack13	12	ProbeTrack	13.2	SCS215a	20111107.095643	20111107.100504	8	0.013327	60	10	60-180	60	108	GapExp	Blank	0	66	2	45	0	distractor	1	474	763	228714	13.328	13.307	13.360
ProbeTrack13	12	ProbeTrack	13.2	SCS215a	20111107.095643	20111107.100510	8	0.013327	60	10	60-180	60	103	GapExp	Blank	0	67	2	1	0	target	0	671	-1000	227714	13.328	13.302	13.352
ProbeTrack13	12	ProbeTrack	13.2	SCS215a	20111107.095643	20111107.100516	8	0.013327	60	10	60-180	60	95	GapExp	Blank	0	68	2	45	1	target	1	459	771	228485	13.328	13.307	13.348
ProbeTrack13	12	ProbeTrack	13.2	SCS215a	20111107.095643	20111107.100523	8	0.013327	60	10	60-180	60	123	GapExp	Blank	0	69	2	1	0	distractor	1	441	780	229265	14.147	3.722	76.241
ProbeTrack13	12	ProbeTrack	13.2	SCS215a	20111107.095643	20111107.100529	8	0.013327	60	10	60-180	60	161	GapExp	Blank	0	70	2	3	1	target	1	405	798	230063	13.328	13.310	13.346
ProbeTrack13	12	ProbeTrack	13.2	SCS215a	20111107.095643	20111107.100552	8	0.013327	60	10	60-180	60	133	GapExp	Blank	0	71	2	45	0	distractor	1	458	771	230834	13.328	6.456	20.194
ProbeTrack13	12	ProbeTrack	13.2	SCS215a	20111107.095643	20111107.100558	8	0.013327	60	10	60-180	60	132	GapExp	Blank	0	72	2	45	1	target	1	393	804	231638	13.328	13.092	13.558
ProbeTrack13	12	ProbeTrack	13.2	SCS215a	20111107.095643	20111107.100650	8	0.013327	60	10	60-180	60	97	GapExp	Blank	0	73	2	3	1	target	1	389	806	232444	13.328	13.308	13.346
ProbeTrack13	12	ProbeTrack	13.2	SCS215a	20111107.095643	20111107.100656	8	0.013327	60	10	60-180	60	76	GapExp	Blank	0	74	2	45	1	target	1	381	810	233254	13.328	11.840	15.017
ProbeTrack13	12	ProbeTrack	13.2	SCS215a	20111107.095643	20111107.100702	8	0.013327	60	10	60-180	60	134	GapExp	Blank	0	75	2	0	1	target	1	373	814	234068	13.328	9.590	17.083
ProbeTrack13	12	ProbeTrack	13.2	SCS215a	20111107.095643	20111107.100708	8	0.013327	60	10	60-180	60	152	GapExp	Blank	0	76	2	1	0	distractor	1	489	756	234824	13.328	12.374	14.267
ProbeTrack13	12	ProbeTrack	13.2	SCS215a	20111107.095643	20111107.100714	8	0.013327	60	10	60-180	60	164	GapExp	Blank	0	77	2	45	1	target	1	396	802	235626	13.328	13.092	13.538
ProbeTrack13	12	ProbeTrack	13.2	SCS215a	20111107.095643	20111107.100721	8	0.013327	60	10	60-180	60	139	GapExp	Blank	0	78	2	3	0	distractor	1	401	800	236426	13.328	8.528	18.140
ProbeTrack13	12	ProbeTrack	13.2	SCS215a	20111107.095643	20111107.100727	8	0.013327	60	10	60-180	60	82	GapExp	Blank	0	79	2	45	0	distractor	1	412	794	237220	13.328	11.960	14.707
ProbeTrack13	12	ProbeTrack	13.2	SCS215a	20111107.095643	20111107.100733	8	0.013327	60	10	60-180	60	169	GapExp	Blank	0	80	2	1	1	target	1	406	797	238017	13.328	7.918	18.727
ProbeTrack13	12	ProbeTrack	13.2	SCS215a	20111107.095643	20111107.100740	8	0.013327	60	10	60-180	60	176	GapExp	Blank	0	81	2	0	0	distractor	1	331	835	238852	13.328	4.550	22.118
ProbeTrack13	12	ProbeTrack	13.2	SCS215a	20111107.095643	20111107.100747	8	0.013327	60	10	60-180	60	145	GapExp	Blank	0	82	2	0	1	target	1	431	785	239637	13.328	12.460	14.196
ProbeTrack13	12	ProbeTrack	13.2	SCS215a	20111107.095643	20111107.100753	8	0.013327	60	10	60-180	60	124	GapExp	Blank	0	83	2	45	1	target	1	403	799	240436	13.328	10.189	16.461
ProbeTrack13	12	ProbeTrack	13.2	SCS215a	20111107.095643	20111107.100800	8	0.013327	60	10	60-180	60	74	GapExp	Blank	0	84	2	3	0	distractor	1	531	735	241171	13.328	8.670	17.986
ProbeTrack13	12	ProbeTrack	13.2	SCS215a	20111107.095643	20111107.100805	8	0.013327	60	10	60-180	60	163	GapExp	Blank	0	85	2	45	0	early	-4	-4543	-1000	240171	13.328	11.737	14.933
ProbeTrack13	12	ProbeTrack	13.2	SCS215a	20111107.095643	20111107.100813	8	0.013327	60	10	60-180	60	143	GapExp	Blank	0	86	2	1	1	target	1	445	778	240949	13.328	10.691	15.957
ProbeTrack13	12	ProbeTrack	13.2	SCS215a	20111107.095643	20111107.100820	8	0.013327	60	10	60-180	60	155	GapExp	Blank	0	87	2	45	1	target	1	453	774	241723	13.328	10.918	15.732
ProbeTrack13	12	ProbeTrack	13.2	SCS215a	20111107.095643	20111107.100827	8	0.013327	60	10	60-180	60	93	GapExp	Blank	0	88	2	45	0	target	0	465	-1000	240723	13.327	8.113	18.523
ProbeTrack13	12	ProbeTrack	13.2	SCS215a	20111107.095643	20111107.100834	8	0.013327	60	10	60-180	60	137	GapExp	Blank	0	89	2	45	0	distractor	1	562	719	241442	13.328	4.566	22.077
ProbeTrack13	12	ProbeTrack	13.2	SCS215a	20111107.095643	20111107.100841	8	0.013327	60	10	60-180	60	179	GapExp	Blank	0	90	2	45	0	distractor	1	436	782	242224	13.328	13.023	13.666
ProbeTrack13	12	ProbeTrack	13.2	SCS215a	20111107.095643	20111107.100848	8	0.013327	60	10	60-180	60	72	GapExp	Blank	0	91	2	0	1	target	1	431	785	243009	13.328	13.309	13.347
ProbeTrack13	12	ProbeTrack	13.2	SCS215a	20111107.095643	20111107.100853	8	0.013327	60	10	60-180	60	112	GapExp	Blank	0	92	2	45	0	distractor	1	480	760	243769	13.328	13.307	13.348
ProbeTrack13	12	ProbeTrack	13.2	SCS215a	20111107.095643	20111107.100901	8	0.013327	60	10	60-180	60	144	GapExp	Blank	0	93	2	1	0	distractor	1	623	689	244458	13.328	8.232	18.428
ProbeTrack13	12	ProbeTrack	13.2	SCS215a	20111107.095643	20111107.100908	8	0.013327	60	10	60-180	60	136	GapExp	Blank	0	94	2	0	1	target	1	427	787	245245	13.328	13.308	13.347
ProbeTrack13	12	ProbeTrack	13.2	SCS215a	20111107.095643	20111107.100914	8	0.013327	60	10	60-180	60	96	GapExp	Blank	0	95	2	1	0	distractor	1	537	732	245977	13.328	5.954	20.695
ProbeTrack13	12	ProbeTrack	13.2	SCS215a	20111107.095643	20111107.100919	8	0.013327	60	10	60-180	60	164	GapExp	Blank	0	96	2	0	0	distractor	1	464	768	246745	13.328	8.096	18.570
ProbeTrack13	12	ProbeTrack	13.2	SCS215a	20111107.095643	20111107.100926	8	0.013327	60	10	60-180	60	154	GapExp	Blank	0	97	2	45	0	distractor	1	880	560	247305	13.328	8.953	17.708
ProbeTrack13	12	ProbeTrack	13.2	SCS215a	20111107.095643	20111107.100934	8	0.013327	60	10	60-180	60	158	GapExp	Blank	0	98	2	1	0	distractor	1	539	731	248036	13.328	13.122	13.551
ProbeTrack13	12	ProbeTrack	13.2	SCS215a	20111107.095643	20111107.100940	8	0.013327	60	10	60-180	60	160	GapExp	Blank	0	99	2	1	1	distractor	0	729	-1000	247036	13.328	13.094	13.550
ProbeTrack13	12	ProbeTrack	13.2	SCS215a	20111107.095643	20111107.100947	8	0.013327	60	10	60-180	60	104	GapExp	Blank	0	100	2	3	1	early	-4	-1584	-1000	246036	13.328	13.117	13.553
ProbeTrack13	12	ProbeTrack	13.2	SCS215a	20111107.095643	20111107.100952	8	0.013327	60	10	60-180	60	153	GapExp	Blank	0	101	2	45	1	distractor	0	447	-1000	245036	13.328	11.519	15.131
ProbeTrack13	12	ProbeTrack	13.2	SCS215a	20111107.095643	20111107.101000	8	0.013327	60	10	60-180	60	93	GapExp	Blank	0	102	2	3	1	target	1	507	747	245783	13.328	7.899	18.758
ProbeTrack13	12	ProbeTrack	13.2	SCS215a	20111107.095643	20111107.101006	8	0.013327	60	10	60-180	60	85	GapExp	Blank	0	103	2	3	1	target	1	401	800	246583	13.328	13.309	13.349
ProbeTrack13	12	ProbeTrack	13.2	SCS215a	20111107.095643	20111107.101015	8	0.013327	60	10	60-180	60	150	GapExp	Blank	0	104	2	45	1	target	1	347	827	247410	13.328	13.084	13.556
ProbeTrack13	12	ProbeTrack	13.2	SCS215a	20111107.095643	20111107.101022	8	0.013327	60	10	60-180	60	83	GapExp	Blank	0	105	2	0	1	early	-4	-1897	-1000	246410	13.328	12.882	13.760
ProbeTrack13	12	ProbeTrack	13.2	SCS215a	20111107.095643	20111107.101027	8	0.013327	60	10	60-180	60	162	GapExp	Blank	0	106	2	0	1	target	1	508	746	247156	13.328	13.092	13.545
ProbeTrack13	12	ProbeTrack	13.2	SCS215a	20111107.095643	20111107.101034	8	0.013327	60	10	60-180	60	169	GapExp	Blank	0	107	2	3	0	target	0	441	-1000	246156	13.328	13.085	13.565
ProbeTrack13	12	ProbeTrack	13.2	SCS215a	20111107.095643	20111107.101041	8	0.013327	60	10	60-180	60	166	GapExp	Blank	0	108	2	3	0	distractor	1	454	773	246929	13.328	13.098	13.545
ProbeTrack13	12	ProbeTrack	13.2	SCS215a	20111107.095643	20111107.101047	8	0.013327	60	10	60-180	60	61	GapExp	Blank	0	109	2	45	1	target	1	534	733	247662	13.328	13.146	13.523
ProbeTrack13	12	ProbeTrack	13.2	SCS215a	20111107.095643	20111107.101053	8	0.013327	60	10	60-180	60	122	GapExp	Blank	0	110	2	0	0	distractor	1	639	681	248343	13.328	13.310	13.348
ProbeTrack13	12	ProbeTrack	13.2	SCS215a	20111107.095643	20111107.101100	8	0.013327	60	10	60-180	60	160	GapExp	Blank	0	111	2	1	1	target	1	440	780	249123	13.328	13.306	13.346
ProbeTrack13	12	ProbeTrack	13.2	SCS215a	20111107.095643	20111107.101106	8	0.013327	60	10	60-180	60	102	GapExp	Blank	0	112	2	45	0	distractor	1	424	788	249911	13.328	5.743	20.913
ProbeTrack13	12	ProbeTrack	13.2	SCS215a	20111107.095643	20111107.101114	8	0.013327	60	10	60-180	60	85	GapExp	Blank	0	113	2	45	1	target	1	467	767	250678	13.328	12.880	13.795
ProbeTrack13	12	ProbeTrack	13.2	SCS215a	20111107.095643	20111107.101120	8	0.013327	60	10	60-180	60	82	GapExp	Blank	0	114	2	0	0	distractor	1	563	719	251397	13.328	13.297	13.353
ProbeTrack13	12	ProbeTrack	13.2	SCS215a	20111107.095643	20111107.101125	8	0.013327	60	10	60-180	60	132	GapExp	Blank	0	115	2	0	0	distractor	1	533	734	252131	13.328	13.113	13.538
ProbeTrack13	12	ProbeTrack	13.2	SCS215a	20111107.095643	20111107.101131	8	0.013327	60	10	60-180	60	75	GapExp	Blank	0	116	2	45	1	distractor	0	369	-1000	251131	13.328	13.305	13.349
ProbeTrack13	12	ProbeTrack	13.2	SCS215a	20111107.095643	20111107.101137	8	0.013327	60	10	60-180	60	131	GapExp	Blank	0	117	2	0	0	distractor	1	546	727	251858	13.328	10.206	16.446
ProbeTrack13	12	ProbeTrack	13.2	SCS215a	20111107.095643	20111107.101143	8	0.013327	60	10	60-180	60	116	GapExp	Blank	0	118	2	3	1	target	1	423	789	252647	13.328	3.465	23.746
ProbeTrack13	12	ProbeTrack	13.2	SCS215a	20111107.095643	20111107.101150	8	0.013327	60	10	60-180	60	73	GapExp	Blank	0	119	2	0	1	target	1	412	794	253441	13.328	8.631	13.347
ProbeTrack13	12	ProbeTrack	13.2	SCS215a	20111107.095643	20111107.101155	8	0.013327	60	10	60-180	60	112	GapExp	Blank	0	120	2	45	0	distractor	1	432	784	254225	13.328	13.309	13.352
ProbeTrack13	12	ProbeTrack	13.2	SCS215a	20111107.095643	20111107.101201	8	0.013327	60	10	60-180	60	81	GapExp	Blank	0	121	2	0	0	distractor	1	485	758	254983	13.328	12.333	14.483
ProbeTrack13	12	ProbeTrack	13.2	SCS215a	20111107.095643	20111107.101207	8	0.013327	60	10	60-180	60	156	GapExp	Blank	0	122	2	0	0	distractor	1	491	755	255738	13.328	11.078	15.585
ProbeTrack13	12	ProbeTrack	13.2	SCS215a	20111107.095643	20111107.101213	8	0.013327	60	10	60-180	60	146	GapExp	Blank	0	123	2	45	1	target	1	435	783	256521	13.328	13.105	13.564
ProbeTrack13	12	ProbeTrack	13.2	SCS215a	20111107.095643	20111107.101221	8	0.013327	60	10	60-180	60	134	GapExp	Blank	0	124	2	3	0	distractor	1	485	758	257279	13.328	13.106	13.558
ProbeTrack13	12	ProbeTrack	13.2	SCS215a	20111107.095643	20111107.101227	8	0.013327	60	10	60-180	60	157	GapExp	Blank	0	125	2	3	0	distractor	1	392	804	258083	13.328	10.002	16.653
ProbeTrack13	12	ProbeTrack	13.2	SCS215a	20111107.095643	20111107.101233	8	0.013327	60	10	60-180	60	169	GapExp	Blank	0	126	2	3	1	target	1	348	826	258909	13.328	11.524	15.127
ProbeTrack13	12	ProbeTrack	13.2	SCS215a	20111107.095643	20111107.101240	8	0.013327	60	10	60-180	60	97	GapExp	Blank	0	127	2	1	1	target	1	307	847	259756	13.328	13.308	13.350
ProbeTrack13	12	ProbeTrack	13.2	SCS215a	20111107.095643	20111107.101245	8	0.013327	60	10	60-180	60	142	GapExp	Blank	0	128	2	3	1	distractor	0	418	-1000	258756	13.328	13.303	13.344
ProbeTrack13	12	ProbeTrack	13.2	SCS215a	20111107.095643	20111107.101252	8	0.013327	60	10	60-180	60	133	GapExp	Blank	0	129	2	3	0	target	0	534	-1000	257756	13.328	13.296	13.347
ProbeTrack13	12	ProbeTrack	13.2	SCS215a	20111107.095643	20111107.101258	8	0.013327	60	10	60-180	60	138	GapExp	Blank	0	130	2	1	1	target	1	518	741	258497	13.328	8.172	18.495
ProbeTrack13	12	ProbeTrack	13.2	SCS215a	20111107.095643	20111107.101304	8	0.013327	60	10	60-180	60	148	GapExp	Blank	0	131	2	1	0	distractor	1	487	757	259254	13.328	13.100	13.559
ProbeTrack13	12	ProbeTrack	13.2	SCS215a	20111107.095643	20111107.101310	8	0.013327	60	10	60-180	60	116	GapExp	Blank	0	132	2	1	0	target	0	463	-1000	258254	13.328	13.305	13.351
ProbeTrack13	12	ProbeTrack	13.2	SCS215a	20111107.095643	20111107.101316	8	0.013327	60	10	60-180	60	104	GapExp	Blank	0	133	2	1	0	distractor	1	637	682	258936	13.328	13.105	13.558
ProbeTrack13	12	ProbeTrack	13.2	SCS215a	20111107.095643	20111107.101322	8	0.013327	60	10	60-180	60	149	GapExp	Blank	0	134	2	3	0	distractor	1	537	732	259668	13.328	11.710	14.937
ProbeTrack13	12	ProbeTrack	13.2	SCS215a	20111107.095643	20111107.101328	8	0.013327	60	10	60-180	60	114	GapExp	Blank	0	135	2	3	0	distractor	1	545	728	260396	13.328	13.288	13.358
ProbeTrack13	12	ProbeTrack	13.2	SCS215a	20111107.095643	20111107.101334	8	0.013327	60	10	60-180	60	154	GapExp	Blank	0	136	2	1	0	distractor	1	522	739	261135	13.328	13.309	13.358
ProbeTrack13	12	ProbeTrack	13.2	SCS215a	20111107.095643	20111107.101341	8	0.013327	60	10	60-180	60	116	GapExp	Blank	0	137	2	45	0	distractor	1	408	796	261931	13.328	13.115	13.537
ProbeTrack13	12	ProbeTrack	13.2	SCS215a	20111107.095643	20111107.101347	8	0.013327	60	10	60-180	60	88	GapExp	Blank	0	138	2	0	1	target	1	578	711	262642	13.328	13.308	13.345
ProbeTrack13	12	ProbeTrack	13.2	SCS215a	20111107.095643	20111107.101353	8	0.013327	60	10	60-180	60	139	GapExp	Blank	0	139	2	0	0	distractor	1	477	762	263404	13.328	9.596	17.055
ProbeTrack13	12	ProbeTrack	13.2	SCS215a	20111107.095643	20111107.101359	8	0.013327	60	10	60-180	60	179	GapExp	Blank	0	140	2	3	1	target	1	590	705	264109	13.328	5.785	20.871
ProbeTrack13	12	ProbeTrack	13.2	SCS215a	20111107.095643	20111107.101406	8	0.013327	60	10	60-180	60	140	GapExp	Blank	0	141	2	1	1	target	1	359	821	264930	13.328	13.108	13.550
ProbeTrack13	12	ProbeTrack	13.2	SCS215a	20111107.095643	20111107.101412	8	0.013327	60	10	60-180	60	86	GapExp	Blank	0	142	2	45	1	target	1	443	779	265709	13.328	13.093	13.551
ProbeTrack13	12	ProbeTrack	13.2	SCS215a	20111107.095643	20111107.101418	8	0.013327	60	10	60-180	60	169	GapExp	Blank	0	143	2	3	1	early	-4	-3050	-1000	264709	13.328	5.623	21.027
ProbeTrack13	12	ProbeTrack	13.2	SCS215a	20111107.095643	20111107.101425	8	0.013327	60	10	60-180	60	84	GapExp	Blank	0	144	2	1	0	distractor	1	524	738	265447	13.328	13.308	13.346
ProbeTrack13	12	ProbeTrack	13.2	SCS215a	20111107.095643	20111107.101431	8	0.013327	60	10	60-180	60	146	GapExp	Blank	0	145	2	45	1	target	1	405	798	266245	13.328	10.646	16.018
ProbeTrack13	12	ProbeTrack	13.2	SCS215a	20111107.095643	20111107.101438	8	0.013327	60	10	60-180	60	168	GapExp	Blank	0	146	2	0	1	target	1	386	807	267052	13.328	13.300	13.347
ProbeTrack13	12	ProbeTrack	13.2	SCS215a	20111107.095643	20111107.101444	8	0.013327	60	10	60-180	60	125	GapExp	Blank	0	147	2	1	1	target	1	386	807	267859	13.328	13.304	13.350
ProbeTrack13	12	ProbeTrack	13.2	SCS215a	20111107.095643	20111107.101450	8	0.013327	60	10	60-180	60	67	GapExp	Blank	0	148	2	0	0	distractor	1	489	756	268615	13.328	7.753	18.897
ProbeTrack13	12	ProbeTrack	13.2	SCS215a	20111107.095643	20111107.101456	8	0.013327	60	10	60-180	60	153	GapExp	Blank	0	149	2	0	1	target	1	470	765	269380	13.328	13.047	13.621
ProbeTrack13	12	ProbeTrack	13.2	SCS215a	20111107.095643	20111107.101502	8	0.013327	60	10	60-180	60	137	GapExp	Blank	0	150	2	1	0	distractor	1	627	687	270067	13.328	11.829	14.827
ProbeTrack13	12	ProbeTrack	13.2	SCS215a	20111107.095643	20111107.101508	8	0.013327	60	10	60-180	60	115	GapExp	Blank	0	151	2	0	1	target	1	466	767	270834	13.328	13.104	13.559
ProbeTrack13	12	ProbeTrack	13.2	SCS215a	20111107.095643	20111107.101514	8	0.013327	60	10	60-180	60	105	GapExp	Blank	0	152	2	1	1	target	1	472	764	271598	13.328	12.382	14.289
ProbeTrack13	12	ProbeTrack	13.2	SCS215a	20111107.095643	20111107.101520	8	0.013327	60	10	60-180	60	62	GapExp	Blank	0	153	2	0	1	target	1	456	772	272370	13.328	10.487	13.351
ProbeTrack13	12	ProbeTrack	13.2	SCS215a	20111107.095643	20111107.101525	8	0.013327	60	10	60-180	60	121	GapExp	Blank	0	154	2	0	1	target	1	474	763	273133	13.328	13.290	13.372
ProbeTrack13	12	ProbeTrack	13.2	SCS215a	20111107.095643	20111107.101532	8	0.013327	60	10	60-180	60	125	GapExp	Blank	0	155	2	0	0	distractor	1	496	752	273885	13.328	13.308	13.348
ProbeTrack13	12	ProbeTrack	13.2	SCS215a	20111107.095643	20111107.101537	8	0.013327	60	10	60-180	60	155	GapExp	Blank	0	156	2	45	1	target	1	490	755	274640	13.328	13.097	13.565
ProbeTrack13	12	ProbeTrack	13.2	SCS215a	20111107.095643	20111107.101545	8	0.013327	60	10	60-180	60	127	GapExp	Blank	0	157	2	1	0	distractor	1	504	748	275388	13.328	9.660	16.991
ProbeTrack13	12	ProbeTrack	13.2	SCS215a	20111107.095643	20111107.101551	8	0.013327	60	10	60-180	60	151	GapExp	Blank	0	158	2	45	0	distractor	1	438	781	276169	13.328	5.517	21.146
ProbeTrack13	12	ProbeTrack	13.2	SCS215a	20111107.095643	20111107.101557	8	0.013327	60	10	60-180	60	104	GapExp	Blank	0	159	2	0	1	distractor	0	1161	-1000	275169	13.328	13.047	13.615
ProbeTrack13	12	ProbeTrack	13.2	SCS215a	20111107.095643	20111107.101604	8	0.013327	60	10	60-180	60	152	GapExp	Blank	0	160	2	45	1	target	1	429	786	275955	13.328	13.096	13.552
ProbeTrack13	12	ProbeTrack	13.2	SCS215a	20111107.095643	20111107.101612	8	0.013327	60	10	60-180	60	148	GapExp	Blank	0	161	2	45	0	distractor	1	641	680	276635	13.328	9.962	16.829
ProbeTrack13	12	ProbeTrack	13.2	SCS215a	20111107.095643	20111107.101619	8	0.013327	60	10	60-180	60	86	GapExp	Blank	0	162	2	1	1	distractor	0	711	-1000	275635	13.328	13.093	13.558
ProbeTrack13	12	ProbeTrack	13.2	SCS215a	20111107.095643	20111107.101625	8	0.013327	60	10	60-180	60	63	GapExp	Blank	0	163	2	0	0	distractor	1	621	690	276325	13.328	4.777	21.885
ProbeTrack13	12	ProbeTrack	13.2	SCS215a	20111107.095643	20111107.101630	8	0.013327	60	10	60-180	60	116	GapExp	Blank	0	164	2	3	1	early	-4	-3378	-1000	275325	13.439	10.852	42.031
ProbeTrack13	12	ProbeTrack	13.2	SCS215a	20111107.095643	20111107.101636	8	0.013327	60	10	60-180	60	77	GapExp	Blank	0	165	2	0	1	target	1	469	766	276091	13.328	13.299	13.352
ProbeTrack13	12	ProbeTrack	13.2	SCS215a	20111107.095643	20111107.101642	8	0.013327	60	10	60-180	60	156	GapExp	Blank	0	166	2	1	1	target	1	438	781	276872	13.328	11.885	14.771
ProbeTrack13	12	ProbeTrack	13.2	SCS215a	20111107.095643	20111107.101648	8	0.013327	60	10	60-180	60	141	GapExp	Blank	0	167	2	0	0	target	0	1651	-1000	275872	13.328	12.982	13.689
ProbeTrack13	12	ProbeTrack	13.2	SCS215a	20111107.095643	20111107.101656	8	0.013327	60	10	60-180	60	77	GapExp	Blank	0	168	2	45	0	distractor	1	534	733	276605	13.328	13.308	13.345
ProbeTrack13	12	ProbeTrack	13.2	SCS215a	20111107.095643	20111107.101702	8	0.013327	60	10	60-180	60	148	GapExp	Blank	0	169	2	3	0	early	-4	-3734	-1000	275605	13.328	8.675	17.975
ProbeTrack13	12	ProbeTrack	13.2	SCS215a	20111107.095643	20111107.101709	8	0.013327	60	10	60-180	60	100	GapExp	Blank	0	170	2	3	0	distractor	1	624	688	276293	13.328	9.999	16.649
ProbeTrack13	12	ProbeTrack	13.2	SCS215a	20111107.095643	20111107.101715	8	0.013327	60	10	60-180	60	146	GapExp	Blank	0	171	2	45	0	distractor	1	376	812	277105	13.328	13.113	13.543
ProbeTrack13	12	ProbeTrack	13.2	SCS215a	20111107.095643	20111107.101722	8	0.013327	60	10	60-180	60	70	GapExp	Blank	0	172	2	45	0	distractor	1	449	776	277881	13.328	11.195	13.662
ProbeTrack13	12	ProbeTrack	13.2	SCS215a	20111107.095643	20111107.101728	8	0.013327	60	10	60-180	60	103	GapExp	Blank	0	173	2	3	1	early	-4	-3174	-1000	276881	13.328	12.814	13.841
ProbeTrack13	12	ProbeTrack	13.2	SCS215a	20111107.095643	20111107.101733	8	0.013327	60	10	60-180	60	175	GapExp	Blank	0	174	2	45	1	target	1	468	766	277647	13.328	11.391	15.256
ProbeTrack13	12	ProbeTrack	13.2	SCS215a	20111107.095643	20111107.101741	8	0.013327	60	10	60-180	60	94	GapExp	Blank	0	175	2	45	0	distractor	1	492	754	278401	13.379	3.296	36.666
ProbeTrack13	12	ProbeTrack	13.2	SCS215a	20111107.095643	20111107.101747	8	0.013327	60	10	60-180	60	157	GapExp	Blank	0	176	2	0	1	distractor	0	1115	-1000	277401	13.328	12.855	13.794
ProbeTrack13	12	ProbeTrack	13.2	SCS215a	20111107.095643	20111107.101754	8	0.013327	60	10	60-180	60	83	GapExp	Blank	0	177	2	45	0	distractor	1	566	717	278118	13.328	6.915	19.747
ProbeTrack13	12	ProbeTrack	13.2	SCS215a	20111107.095643	20111107.101800	8	0.013327	60	10	60-180	60	78	GapExp	Blank	0	178	2	3	1	target	1	502	749	278867	13.328	13.302	13.350
ProbeTrack13	12	ProbeTrack	13.2	SCS215a	20111107.095643	20111107.101806	8	0.013327	60	10	60-180	60	64	GapExp	Blank	0	179	2	1	0	distractor	1	487	757	279624	13.328	10.583	16.064
ProbeTrack13	12	ProbeTrack	13.2	SCS215a	20111107.095643	20111107.101811	8	0.013327	60	10	60-180	60	166	GapExp	Blank	0	180	2	0	1	target	1	522	739	280363	13.328	7.560	19.103
ProbeTrack13	12	ProbeTrack	13.2	SCS215a	20111107.095643	20111107.101818	8	0.013327	60	10	60-180	60	165	GapExp	Blank	0	181	2	45	0	distractor	1	424	788	281151	13.328	13.105	13.544
ProbeTrack13	12	ProbeTrack	13.2	SCS215a	20111107.095643	20111107.101825	8	0.013327	60	10	60-180	60	115	GapExp	Blank	0	182	2	1	1	target	1	426	787	281938	13.328	12.364	14.282
ProbeTrack13	12	ProbeTrack	13.2	SCS215a	20111107.095643	20111107.101831	8	0.013327	60	10	60-180	60	63	GapExp	Blank	0	183	2	0	1	target	1	729	636	282574	13.328	8.552	18.102
ProbeTrack13	12	ProbeTrack	13.2	SCS215a	20111107.095643	20111107.101836	8	0.013327	60	10	60-180	60	69	GapExp	Blank	0	184	2	0	0	distractor	1	456	772	283346	13.328	13.034	13.617
ProbeTrack13	12	ProbeTrack	13.2	SCS215a	20111107.095643	20111107.101842	8	0.013327	60	10	60-180	60	124	GapExp	Blank	0	185	2	3	1	target	1	508	746	284092	13.328	12.053	14.605
ProbeTrack13	12	ProbeTrack	13.2	SCS215a	20111107.095643	20111107.101848	8	0.013327	60	10	60-180	60	160	GapExp	Blank	0	186	2	45	0	distractor	1	425	788	284880	13.328	9.618	17.037
ProbeTrack13	12	ProbeTrack	13.2	SCS215a	20111107.095643	20111107.101855	8	0.013327	60	10	60-180	60	91	GapExp	Blank	0	187	2	0	0	distractor	1	498	751	285631	13.328	11.684	14.976
ProbeTrack13	12	ProbeTrack	13.2	SCS215a	20111107.095643	20111107.101901	8	0.013327	60	10	60-180	60	72	GapExp	Blank	0	188	2	0	0	distractor	1	592	704	286335	13.328	13.105	13.545
ProbeTrack13	12	ProbeTrack	13.2	SCS215a	20111107.095643	20111107.101906	8	0.013327	60	10	60-180	60	116	GapExp	Blank	0	189	2	3	0	distractor	1	468	766	287101	13.328	11.194	15.467
ProbeTrack13	12	ProbeTrack	13.2	SCS215a	20111107.095643	20111107.101912	8	0.013327	60	10	60-180	60	160	GapExp	Blank	0	190	2	1	0	distractor	1	632	684	287785	13.328	13.098	13.560
ProbeTrack13	12	ProbeTrack	13.2	SCS215a	20111107.095643	20111107.101919	8	0.013327	60	10	60-180	60	175	GapExp	Blank	0	191	2	1	0	distractor	1	471	765	288550	13.328	5.708	21.816
ProbeTrack13	12	ProbeTrack	13.2	SCS215a	20111107.095643	20111107.101925	8	0.013327	60	10	60-180	60	134	GapExp	Blank	0	192	2	1	0	distractor	1	471	765	289315	13.328	8.255	18.407
ProbeTrack13	12	ProbeTrack	13.2	SCS215a	20111107.095643	20111107.101932	8	0.013327	60	10	60-180	60	78	GapExp	Blank	0	193	2	0	0	distractor	1	436	782	290097	13.328	13.306	13.345
ProbeTrack13	12	ProbeTrack	13.2	SCS215a	20111107.095643	20111107.101937	8	0.013327	60	10	60-180	60	100	GapExp	Blank	0	194	2	0	0	early	-4	-3040	-1000	289097	13.328	13.120	13.530
ProbeTrack13	12	ProbeTrack	13.2	SCS215a	20111107.095643	20111107.101943	8	0.013327	60	10	60-180	60	124	GapExp	Blank	0	195	2	3	0	early	-4	-3422	-1000	288097	13.328	10.247	16.402
ProbeTrack13	12	ProbeTrack	13.2	SCS215a	20111107.095643	20111107.101950	8	0.013327	60	10	60-180	60	176	GapExp	Blank	0	196	2	1	0	distractor	1	428	786	288883	13.328	12.467	14.219
ProbeTrack13	12	ProbeTrack	13.2	SCS215a	20111107.095643	20111107.101959	8	0.013327	60	10	60-180	60	173	GapExp	Blank	0	197	2	0	1	distractor	0	321	-1000	287883	13.328	13.307	13.347
ProbeTrack13	12	ProbeTrack	13.2	SCS215a	20111107.095643	20111107.102005	8	0.013327	60	10	60-180	60	76	GapExp	Blank	0	198	2	1	1	target	1	564	718	288601	13.328	13.308	13.359
ProbeTrack13	12	ProbeTrack	13.2	SCS215a	20111107.095643	20111107.102010	8	0.013327	60	10	60-180	60	170	GapExp	Blank	0	199	2	0	0	distractor	1	463	769	289370	13.328	13.092	13.565
ProbeTrack13	12	ProbeTrack	13.2	SCS215a	20111107.095643	20111107.102018	8	0.013327	60	10	60-180	60	156	GapExp	Blank	0	200	2	3	0	distractor	1	414	793	290163	13.328	13.302	13.354
ProbeTrack13	12	ProbeTrack	13.2	SCS215a	20111107.102102	20111107.102106	8	0.013328	60	10	60-180	60	70	GapPrac	BigFlash	1	1	2	0	1	target	1	1307	347	290510	13.452	13.124	26.636
ProbeTrack13	12	ProbeTrack	13.2	SCS215a	20111107.102102	20111107.102115	8	0.013328	60	10	60-180	60	77	GapPrac	BigFlash	1	2	2	0	0	distractor	1	937	532	291042	13.328	12.868	13.775
ProbeTrack13	12	ProbeTrack	13.2	SCS215a	20111107.102102	20111107.102122	8	0.013328	60	10	60-180	60	107	GapPrac	BigFlash	1	3	2	3	0	distractor	1	411	795	291837	13.328	13.313	13.348
ProbeTrack13	12	ProbeTrack	13.2	SCS215a	20111107.102102	20111107.102127	8	0.013328	60	10	60-180	60	90	GapPrac	BigFlash	1	4	2	1	1	target	1	521	740	292577	13.328	13.094	13.565
ProbeTrack13	12	ProbeTrack	13.2	SCS215a	20111107.102102	20111107.102133	8	0.013328	60	10	60-180	60	105	GapPrac	BigFlash	1	5	2	3	1	distractor	0	279	-1000	291577	13.328	13.102	13.549
ProbeTrack13	12	ProbeTrack	13.2	SCS215a	20111107.102102	20111107.102138	8	0.013328	60	10	60-180	60	91	GapPrac	BigFlash	1	6	2	0	0	distractor	1	535	733	292310	13.328	13.303	13.348
ProbeTrack13	12	ProbeTrack	13.2	SCS215a	20111107.102102	20111107.102144	8	0.013328	60	10	60-180	60	152	GapPrac	BigFlash	1	7	2	45	0	distractor	1	518	741	293051	13.328	13.024	13.649
ProbeTrack13	12	ProbeTrack	13.2	SCS215a	20111107.102102	20111107.102151	8	0.013328	60	10	60-180	60	65	GapPrac	BigFlash	1	8	2	45	0	distractor	1	401	800	293851	13.328	12.854	13.797
ProbeTrack13	12	ProbeTrack	13.2	SCS215a	20111107.102102	20111107.102156	8	0.013328	60	10	60-180	60	150	GapPrac	BigFlash	1	9	2	3	0	distractor	1	418	791	294642	13.328	12.900	13.757
ProbeTrack13	12	ProbeTrack	13.2	SCS215a	20111107.102102	20111107.102203	8	0.013328	60	10	60-180	60	71	GapPrac	BigFlash	1	10	2	45	1	target	1	380	810	295452	13.328	13.101	13.541
ProbeTrack13	12	ProbeTrack	13.2	SCS215a	20111107.102102	20111107.102208	8	0.013328	60	10	60-180	60	140	GapPrac	BigFlash	1	11	2	0	0	distractor	1	446	777	296229	13.328	13.307	13.346
ProbeTrack13	12	ProbeTrack	13.2	SCS215a	20111107.102102	20111107.102214	8	0.013328	60	10	60-180	60	105	GapPrac	BigFlash	1	12	2	0	1	early	-4	-2864	-1000	295229	13.328	12.918	13.739
ProbeTrack13	12	ProbeTrack	13.2	SCS215a	20111107.102102	20111107.102220	8	0.013328	60	10	60-180	60	69	GapPrac	BigFlash	1	13	2	1	0	distractor	1	413	794	296023	13.328	13.307	13.343
ProbeTrack13	12	ProbeTrack	13.2	SCS215a	20111107.102102	20111107.102225	8	0.013328	60	10	60-180	60	177	GapPrac	BigFlash	1	14	2	1	0	distractor	1	441	780	296803	13.328	12.872	13.776
ProbeTrack13	12	ProbeTrack	13.2	SCS215a	20111107.102102	20111107.102232	8	0.013328	60	10	60-180	60	78	GapPrac	BigFlash	1	15	2	3	0	distractor	1	548	726	297529	13.328	13.113	13.524
ProbeTrack13	12	ProbeTrack	13.2	SCS215a	20111107.102102	20111107.102237	8	0.013328	60	10	60-180	60	96	GapPrac	BigFlash	1	16	2	45	1	target	1	401	800	298329	13.328	13.090	13.559
ProbeTrack13	12	ProbeTrack	13.2	SCS215a	20111107.102102	20111107.102243	8	0.013328	60	10	60-180	60	178	GapPrac	BigFlash	1	17	2	1	1	target	1	377	812	299141	13.328	12.855	13.806
ProbeTrack13	12	ProbeTrack	13.2	SCS215a	20111107.102102	20111107.102249	8	0.013328	60	10	60-180	60	109	GapPrac	BigFlash	1	18	2	1	1	target	1	341	830	299971	13.328	13.307	13.349
ProbeTrack13	12	ProbeTrack	13.2	SCS215a	20111107.102102	20111107.102256	8	0.013328	60	10	60-180	60	160	GapPrac	BigFlash	1	19	2	0	1	target	1	351	825	300796	13.328	13.306	13.348
ProbeTrack13	12	ProbeTrack	13.2	SCS215a	20111107.102102	20111107.102302	8	0.013328	60	10	60-180	60	109	GapPrac	BigFlash	1	20	2	3	1	target	1	329	836	301632	13.328	13.309	13.346
ProbeTrack13	12	ProbeTrack	13.2	SCS215a	20111107.102353	20111107.102359	8	0.013311	60	10	60-180	60	98	GapExp	BigFlash	1	1	2	3	0	distractor	1	434	783	302415	13.388	13.092	13.550
ProbeTrack13	12	ProbeTrack	13.2	SCS215a	20111107.102353	20111107.102413	8	0.013311	60	10	60-180	60	101	GapExp	BigFlash	1	2	2	1	1	target	1	395	803	303218	13.328	13.312	13.346
ProbeTrack13	12	ProbeTrack	13.2	SCS215a	20111107.102353	20111107.102419	8	0.013311	60	10	60-180	60	175	GapExp	BigFlash	1	3	2	45	1	target	1	437	782	304000	13.328	13.306	13.356
ProbeTrack13	12	ProbeTrack	13.2	SCS215a	20111107.102353	20111107.102426	8	0.013311	60	10	60-180	60	86	GapExp	BigFlash	1	4	2	0	1	target	1	335	833	304833	13.328	13.307	13.343
ProbeTrack13	12	ProbeTrack	13.2	SCS215a	20111107.102353	20111107.102432	8	0.013311	60	10	60-180	60	174	GapExp	BigFlash	1	5	2	3	1	target	1	363	819	305652	13.328	13.297	13.352
ProbeTrack13	12	ProbeTrack	13.2	SCS215a	20111107.102353	20111107.102439	8	0.013311	60	10	60-180	60	126	GapExp	BigFlash	1	6	2	45	0	distractor	1	503	749	306401	13.328	13.307	13.348
ProbeTrack13	12	ProbeTrack	13.2	SCS215a	20111107.102353	20111107.102446	8	0.013311	60	10	60-180	60	75	GapExp	BigFlash	1	7	2	0	0	distractor	1	482	759	307160	13.328	13.306	13.349
ProbeTrack13	12	ProbeTrack	13.2	SCS215a	20111107.102353	20111107.102452	8	0.013311	60	10	60-180	60	171	GapExp	BigFlash	1	8	2	1	0	early	-4	-4069	-1000	306160	13.328	6.607	20.043
ProbeTrack13	12	ProbeTrack	13.2	SCS215a	20111107.102353	20111107.102458	8	0.013311	60	10	60-180	60	113	GapExp	BigFlash	0	9	2	1	0	distractor	1	422	789	306949	13.328	13.308	13.355
ProbeTrack13	12	ProbeTrack	13.2	SCS215a	20111107.102353	20111107.102505	8	0.013311	60	10	60-180	60	91	GapExp	BigFlash	0	10	2	0	0	distractor	1	446	777	307726	13.328	13.100	13.552
ProbeTrack13	12	ProbeTrack	13.2	SCS215a	20111107.102353	20111107.102510	8	0.013311	60	10	60-180	60	108	GapExp	BigFlash	0	11	2	45	1	early	-4	-3828	-1000	306726	13.328	12.205	14.451
ProbeTrack13	12	ProbeTrack	13.2	SCS215a	20111107.102353	20111107.102518	8	0.013311	60	10	60-180	60	157	GapExp	BigFlash	0	12	2	3	0	distractor	1	472	764	307490	13.328	13.098	13.554
ProbeTrack13	12	ProbeTrack	13.2	SCS215a	20111107.102353	20111107.102524	8	0.013311	60	10	60-180	60	104	GapExp	BigFlash	0	13	2	3	0	early	-4	-3190	-1000	306490	13.328	13.114	13.556
ProbeTrack13	12	ProbeTrack	13.2	SCS215a	20111107.102353	20111107.102530	8	0.013311	60	10	60-180	60	102	GapExp	BigFlash	0	14	2	3	0	distractor	1	507	747	307237	13.328	6.386	20.269
ProbeTrack13	12	ProbeTrack	13.2	SCS215a	20111107.102353	20111107.102535	8	0.013311	60	10	60-180	60	138	GapExp	BigFlash	0	15	2	0	1	target	1	381	810	308047	13.328	9.726	16.915
ProbeTrack13	12	ProbeTrack	13.2	SCS215a	20111107.102353	20111107.102542	8	0.013311	60	10	60-180	60	140	GapExp	BigFlash	0	16	2	0	0	target	0	560	-1000	307047	13.328	7.623	19.024
ProbeTrack13	12	ProbeTrack	13.2	SCS215a	20111107.102353	20111107.102548	8	0.013311	60	10	60-180	60	85	GapExp	BigFlash	0	17	2	1	1	target	1	446	777	307824	13.458	5.638	39.977
ProbeTrack13	12	ProbeTrack	13.2	SCS215a	20111107.102353	20111107.102554	8	0.013311	60	10	60-180	60	149	GapExp	BigFlash	0	18	2	0	0	distractor	1	517	742	308566	13.328	10.583	16.068
ProbeTrack13	12	ProbeTrack	13.2	SCS215a	20111107.102353	20111107.102600	8	0.013311	60	10	60-180	60	63	GapExp	BigFlash	0	19	2	3	1	target	1	741	630	309196	13.328	13.087	13.569
ProbeTrack13	12	ProbeTrack	13.2	SCS215a	20111107.102353	20111107.102606	8	0.013311	60	10	60-180	60	92	GapExp	BigFlash	0	20	2	0	1	target	1	370	815	310011	13.328	13.097	13.551
ProbeTrack13	12	ProbeTrack	13.2	SCS215a	20111107.102353	20111107.102613	8	0.013311	60	10	60-180	60	141	GapExp	BigFlash	0	21	2	1	0	distractor	1	345	828	310839	13.328	8.109	18.548
ProbeTrack13	12	ProbeTrack	13.2	SCS215a	20111107.102353	20111107.102620	8	0.013311	60	10	60-180	60	143	GapExp	BigFlash	0	22	2	0	1	target	1	456	772	311611	13.328	8.957	17.698
ProbeTrack13	12	ProbeTrack	13.2	SCS215a	20111107.102353	20111107.102626	8	0.013311	60	10	60-180	60	164	GapExp	BigFlash	0	23	2	45	0	distractor	1	466	767	312378	13.328	13.085	13.571
ProbeTrack13	12	ProbeTrack	13.2	SCS215a	20111107.102353	20111107.102633	8	0.013311	60	10	60-180	60	151	GapExp	BigFlash	0	24	2	45	1	target	1	488	756	313134	13.328	11.558	15.095
ProbeTrack13	12	ProbeTrack	13.2	SCS215a	20111107.102353	20111107.102640	8	0.013311	60	10	60-180	60	98	GapExp	BigFlash	0	25	2	0	0	distractor	1	403	799	313933	13.328	13.308	13.349
ProbeTrack13	12	ProbeTrack	13.2	SCS215a	20111107.102353	20111107.102645	8	0.013311	60	10	60-180	60	141	GapExp	BigFlash	0	26	2	3	0	distractor	1	327	837	314770	13.328	8.049	18.607
ProbeTrack13	12	ProbeTrack	13.2	SCS215a	20111107.102353	20111107.102652	8	0.013311	60	10	60-180	60	105	GapExp	BigFlash	0	27	2	0	1	target	1	383	809	315579	13.328	7.627	19.017
ProbeTrack13	12	ProbeTrack	13.2	SCS215a	20111107.102353	20111107.102657	8	0.013311	60	10	60-180	60	149	GapExp	BigFlash	0	28	2	3	1	target	1	433	784	316363	13.328	13.090	13.559
ProbeTrack13	12	ProbeTrack	13.2	SCS215a	20111107.102353	20111107.102703	8	0.013311	60	10	60-180	60	127	GapExp	BigFlash	0	29	2	3	1	target	1	482	759	317122	13.328	12.222	14.449
ProbeTrack13	12	ProbeTrack	13.2	SCS215a	20111107.102353	20111107.102709	8	0.013311	60	10	60-180	60	75	GapExp	BigFlash	0	30	2	0	0	distractor	1	478	761	317883	13.328	13.305	13.348
ProbeTrack13	12	ProbeTrack	13.2	SCS215a	20111107.102353	20111107.102714	8	0.013311	60	10	60-180	60	86	GapExp	BigFlash	0	31	2	0	1	target	1	339	831	318714	13.328	13.298	13.350
ProbeTrack13	12	ProbeTrack	13.2	SCS215a	20111107.102353	20111107.102720	8	0.013311	60	10	60-180	60	77	GapExp	BigFlash	0	32	2	3	0	distractor	1	451	775	319489	13.328	13.299	13.344
ProbeTrack13	12	ProbeTrack	13.2	SCS215a	20111107.102353	20111107.102725	8	0.013311	60	10	60-180	60	154	GapExp	BigFlash	0	33	2	3	0	distractor	1	352	824	320313	13.328	13.011	13.638
ProbeTrack13	12	ProbeTrack	13.2	SCS215a	20111107.102353	20111107.102731	8	0.013311	60	10	60-180	60	76	GapExp	BigFlash	0	34	2	45	0	distractor	1	299	851	321164	13.328	11.987	14.675
ProbeTrack13	12	ProbeTrack	13.2	SCS215a	20111107.102353	20111107.102737	8	0.013311	60	10	60-180	60	135	GapExp	BigFlash	0	35	2	3	1	target	1	443	779	321943	13.328	13.114	13.556
ProbeTrack13	12	ProbeTrack	13.2	SCS215a	20111107.102353	20111107.102743	8	0.013311	60	10	60-180	60	168	GapExp	BigFlash	0	36	2	45	1	target	1	427	787	322730	13.328	13.268	13.382
ProbeTrack13	12	ProbeTrack	13.2	SCS215a	20111107.102353	20111107.102750	8	0.013311	60	10	60-180	60	114	GapExp	BigFlash	0	37	2	0	1	target	1	254	873	323603	13.328	11.482	15.220
ProbeTrack13	12	ProbeTrack	13.2	SCS215a	20111107.102353	20111107.102756	8	0.013311	60	10	60-180	60	74	GapExp	BigFlash	0	38	2	45	1	target	1	362	819	324422	13.328	10.413	16.230
ProbeTrack13	12	ProbeTrack	13.2	SCS215a	20111107.102353	20111107.102802	8	0.013311	60	10	60-180	60	159	GapExp	BigFlash	0	39	2	0	1	target	1	325	838	325260	13.328	13.292	13.354
ProbeTrack13	12	ProbeTrack	13.2	SCS215a	20111107.102353	20111107.102808	8	0.013311	60	10	60-180	60	72	GapExp	BigFlash	0	40	2	45	0	distractor	1	373	814	326074	13.328	13.309	13.344
ProbeTrack13	12	ProbeTrack	13.2	SCS215a	20111107.102353	20111107.102814	8	0.013311	60	10	60-180	60	156	GapExp	BigFlash	0	41	2	3	1	target	1	349	826	326900	13.328	13.096	13.559
ProbeTrack13	12	ProbeTrack	13.2	SCS215a	20111107.102353	20111107.102820	8	0.013311	60	10	60-180	60	119	GapExp	BigFlash	0	42	2	45	1	target	1	302	849	327749	13.328	13.300	13.347
ProbeTrack13	12	ProbeTrack	13.2	SCS215a	20111107.102353	20111107.102826	8	0.013311	60	10	60-180	60	164	GapExp	BigFlash	0	43	2	0	1	target	1	375	813	328562	13.328	13.091	13.565
ProbeTrack13	12	ProbeTrack	13.2	SCS215a	20111107.102353	20111107.102833	8	0.013311	60	10	60-180	60	149	GapExp	BigFlash	0	44	2	45	1	target	1	569	716	329278	13.328	13.104	13.551
ProbeTrack13	12	ProbeTrack	13.2	SCS215a	20111107.102353	20111107.102839	8	0.013311	60	10	60-180	60	150	GapExp	BigFlash	0	45	2	0	0	target	0	397	-1000	328278	13.328	13.085	13.557
ProbeTrack13	12	ProbeTrack	13.2	SCS215a	20111107.102353	20111107.102846	8	0.013311	60	10	60-180	60	109	GapExp	BigFlash	0	46	2	1	1	distractor	0	888	-1000	327278	13.328	13.309	13.346
ProbeTrack13	12	ProbeTrack	13.2	SCS215a	20111107.102353	20111107.102852	8	0.013311	60	10	60-180	60	88	GapExp	BigFlash	0	47	2	45	0	distractor	1	388	806	328084	13.328	12.133	14.515
ProbeTrack13	12	ProbeTrack	13.2	SCS215a	20111107.102353	20111107.102859	8	0.013311	60	10	60-180	60	156	GapExp	BigFlash	0	48	2	45	1	target	1	541	730	328814	13.328	11.593	15.072
ProbeTrack13	12	ProbeTrack	13.2	SCS215a	20111107.102353	20111107.102906	8	0.013311	60	10	60-180	60	84	GapExp	BigFlash	0	49	2	45	1	target	1	432	784	329598	13.328	12.117	14.540
ProbeTrack13	12	ProbeTrack	13.2	SCS215a	20111107.102353	20111107.102912	8	0.013311	60	10	60-180	60	159	GapExp	BigFlash	0	50	2	1	1	target	1	370	815	330413	13.328	8.940	17.723
ProbeTrack13	12	ProbeTrack	13.2	SCS215a	20111107.102353	20111107.102918	8	0.013311	60	10	60-180	60	76	GapExp	BigFlash	0	51	2	1	0	distractor	1	451	775	331188	13.328	13.194	13.482
ProbeTrack13	12	ProbeTrack	13.2	SCS215a	20111107.102353	20111107.102930	8	0.013311	60	10	60-180	60	176	GapExp	BigFlash	0	52	2	3	1	distractor	0	352	-1000	330188	13.328	13.090	13.565
ProbeTrack13	12	ProbeTrack	13.2	SCS215a	20111107.102353	20111107.102936	8	0.013311	60	10	60-180	60	74	GapExp	BigFlash	0	53	2	1	0	distractor	1	452	774	330962	13.328	10.703	15.954
ProbeTrack13	12	ProbeTrack	13.2	SCS215a	20111107.102353	20111107.102941	8	0.013311	60	10	60-180	60	146	GapExp	BigFlash	0	54	2	1	0	distractor	1	412	794	331756	13.328	13.305	13.347
ProbeTrack13	12	ProbeTrack	13.2	SCS215a	20111107.102353	20111107.102948	8	0.013311	60	10	60-180	60	125	GapExp	BigFlash	0	55	2	3	0	distractor	1	404	798	332554	13.328	13.298	13.347
ProbeTrack13	12	ProbeTrack	13.2	SCS215a	20111107.102353	20111107.102954	8	0.013311	60	10	60-180	60	150	GapExp	BigFlash	0	56	2	45	1	target	1	361	820	333374	13.328	13.307	13.360
ProbeTrack13	12	ProbeTrack	13.2	SCS215a	20111107.102353	20111107.103001	8	0.013311	60	10	60-180	60	122	GapExp	BigFlash	0	57	2	1	0	distractor	1	363	819	334193	13.328	13.307	13.345
ProbeTrack13	12	ProbeTrack	13.2	SCS215a	20111107.102353	20111107.103007	8	0.013311	60	10	60-180	60	172	GapExp	BigFlash	0	58	2	3	0	distractor	1	383	809	335002	13.328	13.309	13.347
ProbeTrack13	12	ProbeTrack	13.2	SCS215a	20111107.102353	20111107.103013	8	0.013311	60	10	60-180	60	167	GapExp	BigFlash	0	59	2	1	1	target	1	466	767	335769	13.328	13.098	13.572
ProbeTrack13	12	ProbeTrack	13.2	SCS215a	20111107.102353	20111107.103020	8	0.013311	60	10	60-180	60	167	GapExp	BigFlash	0	60	2	0	0	distractor	1	571	715	336484	13.328	12.982	13.667
ProbeTrack13	12	ProbeTrack	13.2	SCS215a	20111107.102353	20111107.103026	8	0.013311	60	10	60-180	60	68	GapExp	BigFlash	0	61	2	3	1	target	1	352	824	337308	13.328	13.101	13.561
ProbeTrack13	12	ProbeTrack	13.2	SCS215a	20111107.102353	20111107.103032	8	0.013311	60	10	60-180	60	105	GapExp	BigFlash	0	62	2	0	0	target	0	418	-1000	336308	13.328	11.361	15.295
ProbeTrack13	12	ProbeTrack	13.2	SCS215a	20111107.102353	20111107.103037	8	0.013311	60	10	60-180	60	95	GapExp	BigFlash	0	63	2	1	0	distractor	1	380	810	337118	13.328	13.307	13.354
ProbeTrack13	12	ProbeTrack	13.2	SCS215a	20111107.102353	20111107.103043	8	0.013311	60	10	60-180	60	89	GapExp	BigFlash	0	64	2	3	0	distractor	1	359	821	337939	13.328	10.690	15.973
ProbeTrack13	12	ProbeTrack	13.2	SCS215a	20111107.102353	20111107.103048	8	0.013311	60	10	60-180	60	83	GapExp	BigFlash	0	65	2	3	1	early	-4	-2962	-1000	336939	13.328	13.112	13.545
ProbeTrack13	12	ProbeTrack	13.2	SCS215a	20111107.102353	20111107.103053	8	0.013311	60	10	60-180	60	170	GapExp	BigFlash	0	66	2	1	0	distractor	1	421	790	337729	13.328	8.672	17.983
