exp	sub	code	rev	comp	runtime	trialtime	nstim	refreshdur	cuedur	gapdur	gapOnsetRange	durPostProbe	gapOnsetTime	blocktype	gaptype	prac	trial	ntargets	soa	probeTarget	resp	acc	rt	pts	tpts	meanFrameDur	minFrameDur	maxFrameDur
ProbeTrack13	6	ProbeTrack	13.2	SCS215a	20111102.094033	20111102.094053	8	0.013327	60	0	60-180	60	109	NoGap	None	1	1	2	45	1	distractor	0	712	-1000	-1000	13.375	13.192	13.511
ProbeTrack13	6	ProbeTrack	13.2	SCS215a	20111102.094033	20111102.094246	8	0.013327	60	0	60-180	60	127	NoGap	None	1	2	2	0	0	distractor	1	726	637	-363	13.328	10.449	16.213
ProbeTrack13	6	ProbeTrack	13.2	SCS215a	20111102.094033	20111102.094256	8	0.013327	60	0	60-180	60	112	NoGap	None	1	3	2	3	0	target	0	787	-1000	-1363	13.328	13.302	13.351
ProbeTrack13	6	ProbeTrack	13.2	SCS215a	20111102.094033	20111102.094304	8	0.013327	60	0	60-180	60	92	NoGap	None	1	4	2	1	1	target	1	671	665	-698	13.328	13.000	13.655
ProbeTrack13	6	ProbeTrack	13.2	SCS215a	20111102.094033	20111102.094313	8	0.013327	60	0	60-180	60	164	NoGap	None	1	5	2	1	1	target	1	534	733	35	13.328	13.136	13.527
ProbeTrack13	6	ProbeTrack	13.2	SCS215a	20111102.094033	20111102.094324	8	0.013327	60	0	60-180	60	61	NoGap	None	1	6	2	45	0	distractor	1	586	707	742	13.328	13.307	13.347
ProbeTrack13	6	ProbeTrack	13.2	SCS215a	20111102.094033	20111102.094330	8	0.013327	60	0	60-180	60	151	NoGap	None	1	7	2	3	1	target	1	445	778	1520	13.328	13.106	13.549
ProbeTrack13	6	ProbeTrack	13.2	SCS215a	20111102.094033	20111102.094337	8	0.013327	60	0	60-180	60	77	NoGap	None	1	8	2	1	1	target	1	406	797	2317	13.328	13.084	13.571
ProbeTrack13	6	ProbeTrack	13.2	SCS215a	20111102.094033	20111102.094342	8	0.013327	60	0	60-180	60	171	NoGap	None	1	9	2	45	0	distractor	1	559	721	3038	13.328	8.351	18.304
ProbeTrack13	6	ProbeTrack	13.2	SCS215a	20111102.094033	20111102.094350	8	0.013327	60	0	60-180	60	151	NoGap	None	1	10	2	45	0	distractor	1	452	774	3812	13.328	13.085	13.557
ProbeTrack13	6	ProbeTrack	13.2	SCS215a	20111102.094033	20111102.094357	8	0.013327	60	0	60-180	60	77	NoGap	None	1	11	2	0	1	target	1	464	768	4580	13.328	13.106	13.551
ProbeTrack13	6	ProbeTrack	13.2	SCS215a	20111102.094033	20111102.094402	8	0.013327	60	0	60-180	60	147	NoGap	None	1	12	2	0	0	target	0	597	-1000	3580	13.328	12.374	14.269
ProbeTrack13	6	ProbeTrack	13.2	SCS215a	20111102.094033	20111102.094409	8	0.013327	60	0	60-180	60	138	NoGap	None	1	13	2	0	1	distractor	0	433	-1000	2580	13.328	13.308	13.352
ProbeTrack13	6	ProbeTrack	13.2	SCS215a	20111102.094033	20111102.094416	8	0.013327	60	0	60-180	60	135	NoGap	None	1	14	2	45	1	target	1	457	772	3352	13.328	9.145	17.518
ProbeTrack13	6	ProbeTrack	13.2	SCS215a	20111102.094033	20111102.094422	8	0.013327	60	0	60-180	60	155	NoGap	None	1	15	2	1	0	distractor	1	596	702	4054	13.328	11.719	14.938
ProbeTrack13	6	ProbeTrack	13.2	SCS215a	20111102.094033	20111102.094429	8	0.013327	60	0	60-180	60	64	NoGap	None	1	16	2	45	1	target	1	593	704	4758	13.328	13.307	13.349
ProbeTrack13	6	ProbeTrack	13.2	SCS215a	20111102.094033	20111102.094436	8	0.013327	60	0	60-180	60	99	NoGap	None	1	17	2	0	1	target	1	406	797	5555	13.328	13.286	13.376
ProbeTrack13	6	ProbeTrack	13.2	SCS215a	20111102.094033	20111102.094441	8	0.013327	60	0	60-180	60	179	NoGap	None	1	18	2	1	1	target	1	387	807	6362	13.328	9.806	16.840
ProbeTrack13	6	ProbeTrack	13.2	SCS215a	20111102.094033	20111102.094448	8	0.013327	60	0	60-180	60	166	NoGap	None	1	19	2	3	1	target	1	373	814	7176	13.328	13.306	13.345
ProbeTrack13	6	ProbeTrack	13.2	SCS215a	20111102.094033	20111102.094454	8	0.013327	60	0	60-180	60	127	NoGap	None	1	20	2	1	0	distractor	1	491	755	7931	13.328	12.093	14.556
ProbeTrack13	6	ProbeTrack	13.2	SCS215a	20111102.094033	20111102.094501	8	0.013327	60	0	60-180	60	113	NoGap	None	1	21	2	0	0	distractor	1	513	744	8675	13.328	13.104	13.551
ProbeTrack13	6	ProbeTrack	13.2	SCS215a	20111102.094033	20111102.094507	8	0.013327	60	0	60-180	60	120	NoGap	None	1	22	2	1	0	distractor	1	531	735	9410	13.328	13.098	13.558
ProbeTrack13	6	ProbeTrack	13.2	SCS215a	20111102.094033	20111102.094514	8	0.013327	60	0	60-180	60	103	NoGap	None	1	23	2	3	0	distractor	1	673	664	10074	13.328	13.098	13.544
ProbeTrack13	6	ProbeTrack	13.2	SCS215a	20111102.094033	20111102.094521	8	0.013327	60	0	60-180	60	127	NoGap	None	1	24	2	45	0	distractor	1	839	581	10655	13.328	8.641	18.028
ProbeTrack13	6	ProbeTrack	13.2	SCS215a	20111102.094033	20111102.094528	8	0.013327	60	0	60-180	60	156	NoGap	None	1	25	2	0	0	distractor	1	533	734	11389	13.328	10.910	15.756
ProbeTrack13	6	ProbeTrack	13.2	SCS215a	20111102.094033	20111102.094535	8	0.013327	60	0	60-180	60	101	NoGap	None	1	26	2	3	1	target	1	461	770	12159	13.328	13.105	13.556
ProbeTrack13	6	ProbeTrack	13.2	SCS215a	20111102.094033	20111102.094541	8	0.013327	60	0	60-180	60	102	NoGap	None	1	27	2	3	0	distractor	1	509	746	12905	13.328	13.309	13.347
ProbeTrack13	6	ProbeTrack	13.2	SCS215a	20111102.094033	20111102.094546	8	0.013327	60	0	60-180	60	75	NoGap	None	1	28	2	3	0	distractor	1	553	724	13629	13.328	13.308	13.345
ProbeTrack13	6	ProbeTrack	13.2	SCS215a	20111102.094033	20111102.094552	8	0.013327	60	0	60-180	60	74	NoGap	None	1	29	2	3	1	target	1	540	730	14359	13.328	13.307	13.348
ProbeTrack13	6	ProbeTrack	13.2	SCS215a	20111102.094033	20111102.094558	8	0.013327	60	0	60-180	60	138	NoGap	None	1	30	2	1	0	distractor	1	391	805	15164	13.328	13.305	13.350
ProbeTrack13	6	ProbeTrack	13.2	SCS215a	20111102.094033	20111102.094604	8	0.013327	60	0	60-180	60	103	NoGap	None	1	31	2	3	0	distractor	1	704	648	15812	13.328	13.105	13.557
ProbeTrack13	6	ProbeTrack	13.2	SCS215a	20111102.094033	20111102.094612	8	0.013327	60	0	60-180	60	143	NoGap	None	1	32	2	0	1	distractor	0	470	-1000	14812	13.328	13.095	13.555
ProbeTrack13	6	ProbeTrack	13.2	SCS215a	20111102.094033	20111102.094619	8	0.013327	60	0	60-180	60	64	NoGap	None	1	33	2	0	0	target	0	646	-1000	13812	13.328	12.594	14.128
ProbeTrack13	6	ProbeTrack	13.2	SCS215a	20111102.094033	20111102.094624	8	0.013327	60	0	60-180	60	62	NoGap	None	1	34	2	45	0	distractor	1	646	677	14489	13.328	13.109	13.545
ProbeTrack13	6	ProbeTrack	13.2	SCS215a	20111102.094033	20111102.094630	8	0.013327	60	0	60-180	60	63	NoGap	None	1	35	2	45	1	target	1	575	713	15202	13.328	13.103	13.558
ProbeTrack13	6	ProbeTrack	13.2	SCS215a	20111102.094033	20111102.094636	8	0.013327	60	0	60-180	60	155	NoGap	None	1	36	2	3	1	target	1	561	720	15922	13.328	11.782	14.888
ProbeTrack13	6	ProbeTrack	13.2	SCS215a	20111102.094033	20111102.094643	8	0.013327	60	0	60-180	60	62	NoGap	None	1	37	2	1	1	target	1	842	579	16501	13.328	13.089	13.563
ProbeTrack13	6	ProbeTrack	13.2	SCS215a	20111102.094033	20111102.094649	8	0.013327	60	0	60-180	60	90	NoGap	None	1	38	2	45	1	target	1	505	748	17249	13.328	13.278	13.377
ProbeTrack13	6	ProbeTrack	13.2	SCS215a	20111102.094033	20111102.094655	8	0.013327	60	0	60-180	60	152	NoGap	None	1	39	2	1	0	distractor	1	700	650	17899	13.328	13.130	13.526
ProbeTrack13	6	ProbeTrack	13.2	SCS215a	20111102.094033	20111102.094702	8	0.013327	60	0	60-180	60	86	NoGap	None	1	40	2	0	1	target	1	693	654	18553	13.328	13.070	13.573
ProbeTrack13	6	ProbeTrack	13.2	SCS215a	20111102.094840	20111102.094848	8	0.013326	60	10	60-180	60	62	GapPrac	SmallFlash	1	1	2	3	1	target	1	526	737	19290	13.397	13.308	13.348
ProbeTrack13	6	ProbeTrack	13.2	SCS215a	20111102.094840	20111102.094856	8	0.013326	60	10	60-180	60	103	GapPrac	SmallFlash	1	2	2	0	1	target	1	356	822	20112	13.328	13.308	13.348
ProbeTrack13	6	ProbeTrack	13.2	SCS215a	20111102.094840	20111102.094902	8	0.013326	60	10	60-180	60	164	GapPrac	SmallFlash	1	3	2	45	1	target	1	448	776	20888	13.328	6.030	20.631
ProbeTrack13	6	ProbeTrack	13.2	SCS215a	20111102.094840	20111102.094909	8	0.013326	60	10	60-180	60	118	GapPrac	SmallFlash	1	4	2	1	0	distractor	1	446	777	21665	13.328	13.308	13.349
ProbeTrack13	6	ProbeTrack	13.2	SCS215a	20111102.094840	20111102.094915	8	0.013326	60	10	60-180	60	153	GapPrac	SmallFlash	1	5	2	3	0	distractor	1	578	711	22376	13.328	6.208	20.449
ProbeTrack13	6	ProbeTrack	13.2	SCS215a	20111102.094840	20111102.094922	8	0.013326	60	10	60-180	60	85	GapPrac	SmallFlash	1	6	2	0	0	target	0	2363	-1000	21376	13.328	7.309	13.688
ProbeTrack13	6	ProbeTrack	13.2	SCS215a	20111102.094840	20111102.094930	8	0.013326	60	10	60-180	60	86	GapPrac	SmallFlash	1	7	2	1	0	distractor	1	587	707	22083	13.328	13.308	13.347
ProbeTrack13	6	ProbeTrack	13.2	SCS215a	20111102.094840	20111102.094936	8	0.013326	60	10	60-180	60	172	GapPrac	SmallFlash	1	8	2	45	0	distractor	1	453	774	22857	13.328	13.303	13.347
ProbeTrack13	6	ProbeTrack	13.2	SCS215a	20111102.094840	20111102.094944	8	0.013326	60	10	60-180	60	105	GapPrac	SmallFlash	1	9	2	45	0	distractor	1	525	738	23595	13.328	13.306	13.356
ProbeTrack13	6	ProbeTrack	13.2	SCS215a	20111102.094840	20111102.094951	8	0.013326	60	10	60-180	60	96	GapPrac	SmallFlash	1	10	2	3	0	distractor	1	707	647	24242	13.328	13.307	13.350
ProbeTrack13	6	ProbeTrack	13.2	SCS215a	20111102.094840	20111102.094957	8	0.013326	60	10	60-180	60	71	GapPrac	SmallFlash	1	11	2	0	1	target	1	633	684	24926	13.328	12.088	14.571
ProbeTrack13	6	ProbeTrack	13.2	SCS215a	20111102.094840	20111102.095003	8	0.013326	60	10	60-180	60	68	GapPrac	SmallFlash	1	12	2	0	1	target	1	400	800	25726	13.328	13.105	13.551
ProbeTrack13	6	ProbeTrack	13.2	SCS215a	20111102.094840	20111102.095008	8	0.013326	60	10	60-180	60	114	GapPrac	SmallFlash	1	13	2	45	1	target	1	413	794	26520	13.328	11.435	15.235
ProbeTrack13	6	ProbeTrack	13.2	SCS215a	20111102.094840	20111102.095015	8	0.013326	60	10	60-180	60	97	GapPrac	SmallFlash	1	14	2	3	1	target	1	415	793	27313	13.328	13.307	13.357
ProbeTrack13	6	ProbeTrack	13.2	SCS215a	20111102.094840	20111102.095020	8	0.013326	60	10	60-180	60	94	GapPrac	SmallFlash	1	15	2	3	1	target	1	558	721	28034	13.328	13.311	13.346
ProbeTrack13	6	ProbeTrack	13.2	SCS215a	20111102.094840	20111102.095026	8	0.013326	60	10	60-180	60	97	GapPrac	SmallFlash	1	16	2	1	0	distractor	1	340	830	28864	13.328	13.309	13.348
ProbeTrack13	6	ProbeTrack	13.2	SCS215a	20111102.094840	20111102.095032	8	0.013326	60	10	60-180	60	142	GapPrac	SmallFlash	1	17	2	45	1	target	1	407	797	29661	13.328	5.182	21.778
ProbeTrack13	6	ProbeTrack	13.2	SCS215a	20111102.094840	20111102.095039	8	0.013326	60	10	60-180	60	91	GapPrac	SmallFlash	1	18	2	1	1	target	1	385	808	30469	13.328	9.281	17.367
ProbeTrack13	6	ProbeTrack	13.2	SCS215a	20111102.094840	20111102.095045	8	0.013326	60	10	60-180	60	99	GapPrac	SmallFlash	1	19	2	0	0	distractor	1	587	707	31176	13.328	13.100	13.550
ProbeTrack13	6	ProbeTrack	13.2	SCS215a	20111102.094840	20111102.095051	8	0.013326	60	10	60-180	60	105	GapPrac	SmallFlash	1	20	2	1	1	target	1	358	821	31997	13.328	12.892	13.758
ProbeTrack13	6	ProbeTrack	13.2	SCS215a	20111102.095123	20111102.095128	8	0.013328	60	10	60-180	60	152	GapExp	SmallFlash	1	1	2	1	1	target	1	416	792	32789	13.377	13.310	13.344
ProbeTrack13	6	ProbeTrack	13.2	SCS215a	20111102.095123	20111102.095137	8	0.013328	60	10	60-180	60	81	GapExp	SmallFlash	1	2	2	0	0	distractor	1	453	774	33563	13.328	12.913	13.753
ProbeTrack13	6	ProbeTrack	13.2	SCS215a	20111102.095123	20111102.095142	8	0.013328	60	10	60-180	60	66	GapExp	SmallFlash	1	3	2	3	1	target	1	306	847	34410	13.328	13.307	13.347
ProbeTrack13	6	ProbeTrack	13.2	SCS215a	20111102.095123	20111102.095147	8	0.013328	60	10	60-180	60	112	GapExp	SmallFlash	1	4	2	45	0	distractor	1	458	771	35181	13.328	13.105	13.556
ProbeTrack13	6	ProbeTrack	13.2	SCS215a	20111102.095123	20111102.095154	8	0.013328	60	10	60-180	60	61	GapExp	SmallFlash	1	5	2	3	0	distractor	1	688	656	35837	13.328	13.096	13.546
ProbeTrack13	6	ProbeTrack	13.2	SCS215a	20111102.095123	20111102.095159	8	0.013328	60	10	60-180	60	150	GapExp	SmallFlash	1	6	2	1	0	distractor	1	447	777	36614	13.328	12.850	13.790
ProbeTrack13	6	ProbeTrack	13.2	SCS215a	20111102.095123	20111102.095206	8	0.013328	60	10	60-180	60	66	GapExp	SmallFlash	1	7	2	0	1	target	1	437	782	37396	13.328	13.310	13.347
ProbeTrack13	6	ProbeTrack	13.2	SCS215a	20111102.095123	20111102.095211	8	0.013328	60	10	60-180	60	127	GapExp	SmallFlash	1	8	2	45	1	target	1	432	784	38180	13.328	13.301	13.354
ProbeTrack13	6	ProbeTrack	13.2	SCS215a	20111102.095123	20111102.095218	8	0.013328	60	10	60-180	60	74	GapExp	SmallFlash	0	9	2	0	0	distractor	1	622	689	38869	13.328	12.862	13.808
ProbeTrack13	6	ProbeTrack	13.2	SCS215a	20111102.095123	20111102.095223	8	0.013328	60	10	60-180	60	151	GapExp	SmallFlash	0	10	2	0	1	target	1	372	814	39683	13.328	13.092	13.550
ProbeTrack13	6	ProbeTrack	13.2	SCS215a	20111102.095123	20111102.095230	8	0.013328	60	10	60-180	60	108	GapExp	SmallFlash	0	11	2	3	1	target	1	421	790	40473	13.328	12.943	13.717
ProbeTrack13	6	ProbeTrack	13.2	SCS215a	20111102.095123	20111102.095235	8	0.013328	60	10	60-180	60	160	GapExp	SmallFlash	0	12	2	1	0	target	0	399	-1000	39473	13.328	13.105	13.564
ProbeTrack13	6	ProbeTrack	13.2	SCS215a	20111102.095123	20111102.095242	8	0.013328	60	10	60-180	60	80	GapExp	SmallFlash	0	13	2	45	1	target	1	650	675	40148	13.328	13.002	13.653
ProbeTrack13	6	ProbeTrack	13.2	SCS215a	20111102.095123	20111102.095248	8	0.013328	60	10	60-180	60	146	GapExp	SmallFlash	0	14	2	0	0	distractor	1	554	723	40871	13.328	13.098	13.557
ProbeTrack13	6	ProbeTrack	13.2	SCS215a	20111102.095123	20111102.095255	8	0.013328	60	10	60-180	60	174	GapExp	SmallFlash	0	15	2	0	0	distractor	1	501	750	41621	13.328	13.308	13.347
ProbeTrack13	6	ProbeTrack	13.2	SCS215a	20111102.095123	20111102.095302	8	0.013328	60	10	60-180	60	180	GapExp	SmallFlash	0	16	2	3	0	distractor	1	544	728	42349	13.328	12.991	13.772
ProbeTrack13	6	ProbeTrack	13.2	SCS215a	20111102.095123	20111102.095309	8	0.013328	60	10	60-180	60	150	GapExp	SmallFlash	0	17	2	1	1	target	1	453	774	43123	13.328	13.307	13.345
ProbeTrack13	6	ProbeTrack	13.2	SCS215a	20111102.095123	20111102.095315	8	0.013328	60	10	60-180	60	83	GapExp	SmallFlash	0	18	2	3	1	target	1	493	754	43877	13.328	13.311	13.346
ProbeTrack13	6	ProbeTrack	13.2	SCS215a	20111102.095123	20111102.095321	8	0.013328	60	10	60-180	60	139	GapExp	SmallFlash	0	19	2	45	0	distractor	1	634	683	44560	13.328	13.299	13.348
ProbeTrack13	6	ProbeTrack	13.2	SCS215a	20111102.095123	20111102.095328	8	0.013328	60	10	60-180	60	70	GapExp	SmallFlash	0	20	2	0	1	target	1	520	740	45300	13.328	13.063	13.600
ProbeTrack13	6	ProbeTrack	13.2	SCS215a	20111102.095123	20111102.095333	8	0.013328	60	10	60-180	60	71	GapExp	SmallFlash	0	21	2	3	1	target	1	376	812	46112	13.328	12.839	13.817
ProbeTrack13	6	ProbeTrack	13.2	SCS215a	20111102.095123	20111102.095339	8	0.013328	60	10	60-180	60	179	GapExp	SmallFlash	0	22	2	45	0	distractor	1	586	707	46819	13.327	12.873	13.779
ProbeTrack13	6	ProbeTrack	13.2	SCS215a	20111102.095123	20111102.095347	8	0.013328	60	10	60-180	60	125	GapExp	SmallFlash	0	23	2	1	1	target	1	478	761	47580	13.328	13.307	13.345
ProbeTrack13	6	ProbeTrack	13.2	SCS215a	20111102.095123	20111102.095353	8	0.013328	60	10	60-180	60	87	GapExp	SmallFlash	0	24	2	0	0	distractor	1	562	719	48299	13.328	12.856	13.813
ProbeTrack13	6	ProbeTrack	13.2	SCS215a	20111102.095123	20111102.095358	8	0.013328	60	10	60-180	60	76	GapExp	SmallFlash	0	25	2	0	1	target	1	447	777	49076	13.328	13.304	13.352
ProbeTrack13	6	ProbeTrack	13.2	SCS215a	20111102.095123	20111102.095404	8	0.013328	60	10	60-180	60	155	GapExp	SmallFlash	0	26	2	1	0	distractor	1	540	730	49806	13.328	12.861	13.792
ProbeTrack13	6	ProbeTrack	13.2	SCS215a	20111102.095123	20111102.095410	8	0.013328	60	10	60-180	60	100	GapExp	SmallFlash	0	27	2	45	0	distractor	1	533	734	50540	13.328	13.304	13.351
ProbeTrack13	6	ProbeTrack	13.2	SCS215a	20111102.095123	20111102.095417	8	0.013328	60	10	60-180	60	147	GapExp	SmallFlash	0	28	2	45	0	distractor	1	531	735	51275	13.328	13.164	13.526
ProbeTrack13	6	ProbeTrack	13.2	SCS215a	20111102.095123	20111102.095424	8	0.013328	60	10	60-180	60	129	GapExp	SmallFlash	0	29	2	45	0	distractor	1	617	692	51967	13.328	13.307	13.350
ProbeTrack13	6	ProbeTrack	13.2	SCS215a	20111102.095123	20111102.095431	8	0.013328	60	10	60-180	60	104	GapExp	SmallFlash	0	30	2	0	1	target	1	425	788	52755	13.328	12.944	13.719
ProbeTrack13	6	ProbeTrack	13.2	SCS215a	20111102.095123	20111102.095437	8	0.013328	60	10	60-180	60	79	GapExp	SmallFlash	0	31	2	1	0	distractor	1	653	674	53429	13.328	12.940	13.711
ProbeTrack13	6	ProbeTrack	13.2	SCS215a	20111102.095123	20111102.095442	8	0.013328	60	10	60-180	60	105	GapExp	SmallFlash	0	32	2	0	0	distractor	1	516	742	54171	13.328	13.105	13.550
ProbeTrack13	6	ProbeTrack	13.2	SCS215a	20111102.095123	20111102.095449	8	0.013328	60	10	60-180	60	157	GapExp	SmallFlash	0	33	2	45	1	target	1	617	692	54863	13.328	13.106	13.543
ProbeTrack13	6	ProbeTrack	13.2	SCS215a	20111102.095123	20111102.095456	8	0.013328	60	10	60-180	60	108	GapExp	SmallFlash	0	34	2	3	1	target	1	443	779	55642	13.328	12.879	13.765
ProbeTrack13	6	ProbeTrack	13.2	SCS215a	20111102.095123	20111102.095502	8	0.013328	60	10	60-180	60	170	GapExp	SmallFlash	0	35	2	0	0	distractor	1	601	700	56342	13.328	12.973	13.666
ProbeTrack13	6	ProbeTrack	13.2	SCS215a	20111102.095123	20111102.095508	8	0.013328	60	10	60-180	60	87	GapExp	SmallFlash	0	36	2	1	1	target	1	488	756	57098	13.328	12.882	13.765
ProbeTrack13	6	ProbeTrack	13.2	SCS215a	20111102.095123	20111102.095514	8	0.013328	60	10	60-180	60	65	GapExp	SmallFlash	0	37	2	0	1	target	1	466	767	57865	13.328	12.896	13.762
ProbeTrack13	6	ProbeTrack	13.2	SCS215a	20111102.095123	20111102.095520	8	0.013328	60	10	60-180	60	115	GapExp	SmallFlash	0	38	2	1	1	target	1	354	823	58688	13.328	13.302	13.353
ProbeTrack13	6	ProbeTrack	13.2	SCS215a	20111102.095123	20111102.095525	8	0.013328	60	10	60-180	60	76	GapExp	SmallFlash	0	39	2	3	1	target	1	344	828	59516	13.328	13.109	13.553
ProbeTrack13	6	ProbeTrack	13.2	SCS215a	20111102.095123	20111102.095530	8	0.013328	60	10	60-180	60	70	GapExp	SmallFlash	0	40	2	3	1	target	1	357	822	60338	13.328	12.877	13.786
ProbeTrack13	6	ProbeTrack	13.2	SCS215a	20111102.095123	20111102.095535	8	0.013328	60	10	60-180	60	179	GapExp	SmallFlash	0	41	2	45	0	distractor	1	626	687	61025	13.328	13.309	13.349
ProbeTrack13	6	ProbeTrack	13.2	SCS215a	20111102.095123	20111102.095543	8	0.013328	60	10	60-180	60	140	GapExp	SmallFlash	0	42	2	0	1	target	1	403	799	61824	13.328	12.874	13.782
ProbeTrack13	6	ProbeTrack	13.2	SCS215a	20111102.095123	20111102.095549	8	0.013328	60	10	60-180	60	134	GapExp	SmallFlash	0	43	2	3	0	distractor	1	547	727	62551	13.328	13.307	13.346
ProbeTrack13	6	ProbeTrack	13.2	SCS215a	20111102.095123	20111102.095555	8	0.013328	60	10	60-180	60	96	GapExp	SmallFlash	0	44	2	0	0	distractor	1	558	721	63272	13.328	13.308	13.348
ProbeTrack13	6	ProbeTrack	13.2	SCS215a	20111102.095123	20111102.095601	8	0.013328	60	10	60-180	60	131	GapExp	SmallFlash	0	45	2	3	1	distractor	0	471	-1000	62272	13.328	12.880	13.763
ProbeTrack13	6	ProbeTrack	13.2	SCS215a	20111102.095123	20111102.095607	8	0.013328	60	10	60-180	60	115	GapExp	SmallFlash	0	46	2	3	0	distractor	1	551	725	62997	13.328	12.864	13.789
ProbeTrack13	6	ProbeTrack	13.2	SCS215a	20111102.095123	20111102.095613	8	0.013328	60	10	60-180	60	89	GapExp	SmallFlash	0	47	2	3	0	distractor	1	596	702	63699	13.328	13.084	13.557
ProbeTrack13	6	ProbeTrack	13.2	SCS215a	20111102.095123	20111102.095619	8	0.013328	60	10	60-180	60	76	GapExp	SmallFlash	0	48	2	45	0	distractor	1	589	706	64405	13.328	12.894	13.759
ProbeTrack13	6	ProbeTrack	13.2	SCS215a	20111102.095123	20111102.095625	8	0.013328	60	10	60-180	60	118	GapExp	SmallFlash	0	49	2	45	0	distractor	1	524	738	65143	13.328	13.307	13.344
ProbeTrack13	6	ProbeTrack	13.2	SCS215a	20111102.095123	20111102.095632	8	0.013328	60	10	60-180	60	152	GapExp	SmallFlash	0	50	2	45	0	distractor	1	607	697	65840	13.328	13.302	13.353
ProbeTrack13	6	ProbeTrack	13.2	SCS215a	20111102.095123	20111102.095639	8	0.013328	60	10	60-180	60	62	GapExp	SmallFlash	0	51	2	0	1	target	1	459	771	66611	13.328	13.233	13.419
ProbeTrack13	6	ProbeTrack	13.2	SCS215a	20111102.095123	20111102.095645	8	0.013328	60	10	60-180	60	96	GapExp	SmallFlash	0	52	2	1	1	target	1	518	741	67352	13.328	12.897	13.752
ProbeTrack13	6	ProbeTrack	13.2	SCS215a	20111102.095123	20111102.095651	8	0.013328	60	10	60-180	60	131	GapExp	SmallFlash	0	53	2	1	1	target	1	383	809	68161	13.327	13.083	13.352
ProbeTrack13	6	ProbeTrack	13.2	SCS215a	20111102.095123	20111102.095658	8	0.013328	60	10	60-180	60	127	GapExp	SmallFlash	0	54	2	0	1	target	1	414	793	68954	13.328	13.297	13.353
ProbeTrack13	6	ProbeTrack	13.2	SCS215a	20111102.095123	20111102.095704	8	0.013328	60	10	60-180	60	104	GapExp	SmallFlash	0	55	2	3	1	target	1	395	803	69757	13.328	13.099	13.549
ProbeTrack13	6	ProbeTrack	13.2	SCS215a	20111102.095123	20111102.095710	8	0.013328	60	10	60-180	60	139	GapExp	SmallFlash	0	56	2	3	1	target	1	323	839	70596	13.328	13.175	13.496
ProbeTrack13	6	ProbeTrack	13.2	SCS215a	20111102.095123	20111102.095716	8	0.013328	60	10	60-180	60	103	GapExp	SmallFlash	0	57	2	0	0	target	0	532	-1000	69596	13.328	13.112	13.551
ProbeTrack13	6	ProbeTrack	13.2	SCS215a	20111102.095123	20111102.095722	8	0.013328	60	10	60-180	60	169	GapExp	SmallFlash	0	58	2	1	0	distractor	1	527	737	70333	13.328	13.097	13.557
ProbeTrack13	6	ProbeTrack	13.2	SCS215a	20111102.095123	20111102.095729	8	0.013328	60	10	60-180	60	131	GapExp	SmallFlash	0	59	2	1	0	distractor	1	571	715	71048	13.328	13.105	13.558
ProbeTrack13	6	ProbeTrack	13.2	SCS215a	20111102.095123	20111102.095736	8	0.013328	60	10	60-180	60	166	GapExp	SmallFlash	0	60	2	0	0	distractor	1	842	579	71627	13.328	13.092	13.562
ProbeTrack13	6	ProbeTrack	13.2	SCS215a	20111102.095123	20111102.095743	8	0.013328	60	10	60-180	60	78	GapExp	SmallFlash	0	61	2	1	1	target	1	716	642	72269	13.328	13.308	13.350
ProbeTrack13	6	ProbeTrack	13.2	SCS215a	20111102.095123	20111102.095750	8	0.013328	60	10	60-180	60	138	GapExp	SmallFlash	0	62	2	1	0	distractor	1	536	732	73001	13.328	13.009	13.641
ProbeTrack13	6	ProbeTrack	13.2	SCS215a	20111102.095123	20111102.095756	8	0.013328	60	10	60-180	60	129	GapExp	SmallFlash	0	63	2	1	1	target	1	409	796	73797	13.328	13.141	13.508
ProbeTrack13	6	ProbeTrack	13.2	SCS215a	20111102.095123	20111102.095802	8	0.013328	60	10	60-180	60	163	GapExp	SmallFlash	0	64	2	0	1	target	1	443	779	74576	13.328	12.907	13.684
ProbeTrack13	6	ProbeTrack	13.2	SCS215a	20111102.095123	20111102.095809	8	0.013328	60	10	60-180	60	166	GapExp	SmallFlash	0	65	2	1	0	distractor	1	554	723	75299	13.328	13.275	13.359
ProbeTrack13	6	ProbeTrack	13.2	SCS215a	20111102.095123	20111102.095816	8	0.013328	60	10	60-180	60	169	GapExp	SmallFlash	0	66	2	3	0	distractor	1	698	651	75950	13.328	13.211	13.476
ProbeTrack13	6	ProbeTrack	13.2	SCS215a	20111102.095123	20111102.095823	8	0.013328	60	10	60-180	60	133	GapExp	SmallFlash	0	67	2	45	1	target	1	401	800	76750	13.328	13.303	13.347
ProbeTrack13	6	ProbeTrack	13.2	SCS215a	20111102.095123	20111102.095830	8	0.013328	60	10	60-180	60	68	GapExp	SmallFlash	0	68	2	45	1	target	1	465	768	77518	13.328	13.284	13.377
ProbeTrack13	6	ProbeTrack	13.2	SCS215a	20111102.095123	20111102.095836	8	0.013328	60	10	60-180	60	129	GapExp	SmallFlash	0	69	2	3	0	distractor	1	502	749	78267	13.328	13.304	13.354
ProbeTrack13	6	ProbeTrack	13.2	SCS215a	20111102.095123	20111102.095842	8	0.013328	60	10	60-180	60	162	GapExp	SmallFlash	0	70	2	1	1	target	1	462	769	79036	13.328	13.031	13.617
ProbeTrack13	6	ProbeTrack	13.2	SCS215a	20111102.095123	20111102.095849	8	0.013328	60	10	60-180	60	147	GapExp	SmallFlash	0	71	2	1	1	target	1	447	777	79813	13.328	13.142	13.526
ProbeTrack13	6	ProbeTrack	13.2	SCS215a	20111102.095123	20111102.095855	8	0.013328	60	10	60-180	60	113	GapExp	SmallFlash	0	72	2	1	0	distractor	1	553	724	80537	13.328	13.099	13.558
ProbeTrack13	6	ProbeTrack	13.2	SCS215a	20111102.095123	20111102.095901	8	0.013328	60	10	60-180	60	114	GapExp	SmallFlash	0	73	2	1	0	distractor	1	594	703	81240	13.328	13.092	13.550
ProbeTrack13	6	ProbeTrack	13.2	SCS215a	20111102.095123	20111102.095907	8	0.013328	60	10	60-180	60	116	GapExp	SmallFlash	0	74	2	3	1	target	1	366	817	82057	13.328	13.107	13.550
ProbeTrack13	6	ProbeTrack	13.2	SCS215a	20111102.095123	20111102.095914	8	0.013328	60	10	60-180	60	150	GapExp	SmallFlash	0	75	2	1	1	target	1	337	832	82889	13.328	13.100	13.547
ProbeTrack13	6	ProbeTrack	13.2	SCS215a	20111102.095123	20111102.095920	8	0.013328	60	10	60-180	60	137	GapExp	SmallFlash	0	76	2	0	0	distractor	1	601	700	83589	13.328	13.306	13.346
ProbeTrack13	6	ProbeTrack	13.2	SCS215a	20111102.095123	20111102.095928	8	0.013328	60	10	60-180	60	142	GapExp	SmallFlash	0	77	2	1	1	target	1	454	773	84362	13.328	13.105	13.537
ProbeTrack13	6	ProbeTrack	13.2	SCS215a	20111102.095123	20111102.095934	8	0.013328	60	10	60-180	60	82	GapExp	SmallFlash	0	78	2	3	1	target	1	341	830	85192	13.328	13.309	13.346
ProbeTrack13	6	ProbeTrack	13.2	SCS215a	20111102.095123	20111102.095940	8	0.013328	60	10	60-180	60	180	GapExp	SmallFlash	0	79	2	0	1	target	1	475	763	85955	13.328	13.044	13.626
ProbeTrack13	6	ProbeTrack	13.2	SCS215a	20111102.095123	20111102.095947	8	0.013328	60	10	60-180	60	69	GapExp	SmallFlash	0	80	2	0	0	distractor	1	753	624	86579	13.328	13.304	13.365
ProbeTrack13	6	ProbeTrack	13.2	SCS215a	20111102.095123	20111102.095953	8	0.013328	60	10	60-180	60	76	GapExp	SmallFlash	0	81	2	1	0	distractor	1	718	641	87220	13.328	12.869	13.784
ProbeTrack13	6	ProbeTrack	13.2	SCS215a	20111102.095123	20111102.095958	8	0.013328	60	10	60-180	60	134	GapExp	SmallFlash	0	82	2	1	1	target	1	496	752	87972	13.328	12.899	13.751
ProbeTrack13	6	ProbeTrack	13.2	SCS215a	20111102.095123	20111102.100004	8	0.013328	60	10	60-180	60	106	GapExp	SmallFlash	0	83	2	1	0	distractor	1	568	716	88688	13.328	13.112	13.545
ProbeTrack13	6	ProbeTrack	13.2	SCS215a	20111102.095123	20111102.100010	8	0.013328	60	10	60-180	60	80	GapExp	SmallFlash	0	84	2	1	0	distractor	1	574	713	89401	13.328	12.994	13.668
ProbeTrack13	6	ProbeTrack	13.2	SCS215a	20111102.095123	20111102.100016	8	0.013328	60	10	60-180	60	88	GapExp	SmallFlash	0	85	2	3	0	distractor	1	660	670	90071	13.328	13.290	13.365
ProbeTrack13	6	ProbeTrack	13.2	SCS215a	20111102.095123	20111102.100022	8	0.013328	60	10	60-180	60	179	GapExp	SmallFlash	0	86	2	1	0	distractor	1	579	711	90782	13.328	12.959	13.697
ProbeTrack13	6	ProbeTrack	13.2	SCS215a	20111102.095123	20111102.100029	8	0.013328	60	10	60-180	60	173	GapExp	SmallFlash	0	87	2	3	0	distractor	1	527	737	91519	13.328	13.292	13.370
ProbeTrack13	6	ProbeTrack	13.2	SCS215a	20111102.095123	20111102.100036	8	0.013328	60	10	60-180	60	154	GapExp	SmallFlash	0	88	2	0	1	target	1	509	746	92265	13.328	12.875	13.777
ProbeTrack13	6	ProbeTrack	13.2	SCS215a	20111102.095123	20111102.100042	8	0.013328	60	10	60-180	60	112	GapExp	SmallFlash	0	89	2	0	1	target	1	418	791	93056	13.328	13.308	13.343
ProbeTrack13	6	ProbeTrack	13.2	SCS215a	20111102.095123	20111102.100048	8	0.013328	60	10	60-180	60	69	GapExp	SmallFlash	0	90	2	45	1	target	1	447	777	93833	13.328	13.106	13.550
ProbeTrack13	6	ProbeTrack	13.2	SCS215a	20111102.095123	20111102.100054	8	0.013328	60	10	60-180	60	115	GapExp	SmallFlash	0	91	2	0	1	target	1	368	816	94649	13.328	12.888	13.767
ProbeTrack13	6	ProbeTrack	13.2	SCS215a	20111102.095123	20111102.100100	8	0.013328	60	10	60-180	60	102	GapExp	SmallFlash	0	92	2	45	0	distractor	1	598	701	95350	13.328	13.307	13.346
ProbeTrack13	6	ProbeTrack	13.2	SCS215a	20111102.095123	20111102.100106	8	0.013328	60	10	60-180	60	170	GapExp	SmallFlash	0	93	2	0	0	distractor	1	508	746	96096	13.328	13.043	13.617
ProbeTrack13	6	ProbeTrack	13.2	SCS215a	20111102.095123	20111102.100113	8	0.013328	60	10	60-180	60	67	GapExp	SmallFlash	0	94	2	0	0	distractor	1	626	687	96783	13.328	13.311	13.345
ProbeTrack13	6	ProbeTrack	13.2	SCS215a	20111102.095123	20111102.100118	8	0.013328	60	10	60-180	60	135	GapExp	SmallFlash	0	95	2	45	1	target	1	395	803	97586	13.328	12.833	13.828
ProbeTrack13	6	ProbeTrack	13.2	SCS215a	20111102.095123	20111102.100125	8	0.013328	60	10	60-180	60	162	GapExp	SmallFlash	0	96	2	3	0	distractor	1	573	714	98300	13.328	13.309	13.343
ProbeTrack13	6	ProbeTrack	13.2	SCS215a	20111102.095123	20111102.100132	8	0.013328	60	10	60-180	60	76	GapExp	SmallFlash	0	97	2	3	0	distractor	1	571	715	99015	13.328	13.306	13.346
ProbeTrack13	6	ProbeTrack	13.2	SCS215a	20111102.095123	20111102.100137	8	0.013328	60	10	60-180	60	158	GapExp	SmallFlash	0	98	2	3	1	target	1	454	773	99788	13.328	12.915	13.749
ProbeTrack13	6	ProbeTrack	13.2	SCS215a	20111102.095123	20111102.100144	8	0.013328	60	10	60-180	60	105	GapExp	SmallFlash	0	99	2	0	1	target	1	441	780	100568	13.328	13.308	13.344
ProbeTrack13	6	ProbeTrack	13.2	SCS215a	20111102.095123	20111102.100150	8	0.013328	60	10	60-180	60	161	GapExp	SmallFlash	0	100	2	45	0	distractor	1	529	736	101304	13.328	13.112	13.543
ProbeTrack13	6	ProbeTrack	13.2	SCS215a	20111102.095123	20111102.100158	8	0.013328	60	10	60-180	60	101	GapExp	SmallFlash	0	101	2	1	1	target	1	483	759	102063	13.328	12.852	13.811
ProbeTrack13	6	ProbeTrack	13.2	SCS215a	20111102.095123	20111102.100204	8	0.013328	60	10	60-180	60	93	GapExp	SmallFlash	0	102	2	0	0	distractor	1	517	742	102805	13.328	13.093	13.550
ProbeTrack13	6	ProbeTrack	13.2	SCS215a	20111102.095123	20111102.100209	8	0.013328	60	10	60-180	60	118	GapExp	SmallFlash	0	103	2	0	0	distractor	1	451	775	103580	13.328	13.308	13.345
ProbeTrack13	6	ProbeTrack	13.2	SCS215a	20111102.095123	20111102.100215	8	0.013328	60	10	60-180	60	73	GapExp	SmallFlash	0	104	2	0	1	target	1	564	718	104298	13.328	13.302	13.359
ProbeTrack13	6	ProbeTrack	13.2	SCS215a	20111102.095123	20111102.100221	8	0.013328	60	10	60-180	60	89	GapExp	SmallFlash	0	105	2	0	0	distractor	1	548	726	105024	13.328	13.299	13.357
ProbeTrack13	6	ProbeTrack	13.2	SCS215a	20111102.095123	20111102.100226	8	0.013328	60	10	60-180	60	84	GapExp	SmallFlash	0	106	2	3	0	distractor	1	538	731	105755	13.328	12.867	13.776
ProbeTrack13	6	ProbeTrack	13.2	SCS215a	20111102.095123	20111102.100232	8	0.013328	60	10	60-180	60	115	GapExp	SmallFlash	0	107	2	1	0	distractor	1	520	740	106495	13.328	12.885	13.758
ProbeTrack13	6	ProbeTrack	13.2	SCS215a	20111102.095123	20111102.100238	8	0.013328	60	10	60-180	60	89	GapExp	SmallFlash	0	108	2	45	1	target	1	508	746	107241	13.328	13.088	13.560
ProbeTrack13	6	ProbeTrack	13.2	SCS215a	20111102.095123	20111102.100244	8	0.013328	60	10	60-180	60	119	GapExp	SmallFlash	0	109	2	1	1	target	1	496	752	107993	13.328	13.066	13.583
ProbeTrack13	6	ProbeTrack	13.2	SCS215a	20111102.095123	20111102.100250	8	0.013328	60	10	60-180	60	62	GapExp	SmallFlash	0	110	2	3	0	distractor	1	526	737	108730	13.328	12.943	13.712
ProbeTrack13	6	ProbeTrack	13.2	SCS215a	20111102.095123	20111102.100255	8	0.013328	60	10	60-180	60	69	GapExp	SmallFlash	0	111	2	45	1	target	1	628	686	109416	13.328	12.885	13.769
ProbeTrack13	6	ProbeTrack	13.2	SCS215a	20111102.095123	20111102.100301	8	0.013328	60	10	60-180	60	97	GapExp	SmallFlash	0	112	2	1	0	distractor	1	647	677	110093	13.328	12.974	13.665
ProbeTrack13	6	ProbeTrack	13.2	SCS215a	20111102.095123	20111102.100308	8	0.013328	60	10	60-180	60	109	GapExp	SmallFlash	0	113	2	0	1	target	1	412	794	110887	13.328	12.885	13.779
ProbeTrack13	6	ProbeTrack	13.2	SCS215a	20111102.095123	20111102.100314	8	0.013328	60	10	60-180	60	176	GapExp	SmallFlash	0	114	2	3	1	target	1	473	764	111651	13.328	12.955	13.708
ProbeTrack13	6	ProbeTrack	13.2	SCS215a	20111102.095123	20111102.100320	8	0.013328	60	10	60-180	60	121	GapExp	SmallFlash	0	115	2	0	1	target	1	345	828	112479	13.328	12.979	13.676
ProbeTrack13	6	ProbeTrack	13.2	SCS215a	20111102.095123	20111102.100326	8	0.013328	60	10	60-180	60	72	GapExp	SmallFlash	0	116	2	1	1	target	1	463	769	113248	13.328	13.313	13.344
ProbeTrack13	6	ProbeTrack	13.2	SCS215a	20111102.095123	20111102.100331	8	0.013328	60	10	60-180	60	163	GapExp	SmallFlash	0	117	2	3	1	target	1	444	778	114026	13.328	12.841	13.820
ProbeTrack13	6	ProbeTrack	13.2	SCS215a	20111102.095123	20111102.100338	8	0.013328	60	10	60-180	60	153	GapExp	SmallFlash	0	118	2	45	1	target	1	367	817	114843	13.328	12.986	13.679
ProbeTrack13	6	ProbeTrack	13.2	SCS215a	20111102.095123	20111102.100345	8	0.013328	60	10	60-180	60	141	GapExp	SmallFlash	0	119	2	1	0	distractor	1	574	713	115556	13.328	12.943	13.708
ProbeTrack13	6	ProbeTrack	13.2	SCS215a	20111102.095123	20111102.100352	8	0.013328	60	10	60-180	60	65	GapExp	SmallFlash	0	120	2	1	1	target	1	392	804	116360	13.328	12.882	13.774
ProbeTrack13	6	ProbeTrack	13.2	SCS215a	20111102.095123	20111102.100357	8	0.013328	60	10	60-180	60	119	GapExp	SmallFlash	0	121	2	1	0	target	0	434	-1000	115360	13.328	12.971	13.696
ProbeTrack13	6	ProbeTrack	13.2	SCS215a	20111102.095123	20111102.100403	8	0.013328	60	10	60-180	60	165	GapExp	SmallFlash	0	122	2	45	0	distractor	1	441	780	116140	13.328	12.878	13.792
ProbeTrack13	6	ProbeTrack	13.2	SCS215a	20111102.095123	20111102.100410	8	0.013328	60	10	60-180	60	161	GapExp	SmallFlash	0	123	2	45	1	target	1	342	829	116969	13.328	13.021	13.642
ProbeTrack13	6	ProbeTrack	13.2	SCS215a	20111102.095123	20111102.100417	8	0.013328	60	10	60-180	60	67	GapExp	SmallFlash	0	124	2	1	0	distractor	1	491	755	117724	13.328	12.954	13.722
ProbeTrack13	6	ProbeTrack	13.2	SCS215a	20111102.095123	20111102.100423	8	0.013328	60	10	60-180	60	140	GapExp	SmallFlash	0	125	2	45	1	target	1	495	753	118477	13.327	13.005	13.635
ProbeTrack13	6	ProbeTrack	13.2	SCS215a	20111102.095123	20111102.100429	8	0.013328	60	10	60-180	60	177	GapExp	SmallFlash	0	126	2	1	0	distractor	1	539	731	119208	13.328	13.089	13.567
ProbeTrack13	6	ProbeTrack	13.2	SCS215a	20111102.095123	20111102.100436	8	0.013328	60	10	60-180	60	71	GapExp	SmallFlash	0	127	2	1	1	target	1	420	790	119998	13.328	12.872	13.784
ProbeTrack13	6	ProbeTrack	13.2	SCS215a	20111102.095123	20111102.100442	8	0.013328	60	10	60-180	60	154	GapExp	SmallFlash	0	128	2	3	1	target	1	426	787	120785	13.328	13.058	13.596
ProbeTrack13	6	ProbeTrack	13.2	SCS215a	20111102.095123	20111102.100448	8	0.013328	60	10	60-180	60	79	GapExp	SmallFlash	0	129	2	3	0	distractor	1	589	706	121491	13.328	12.869	13.795
ProbeTrack13	6	ProbeTrack	13.2	SCS215a	20111102.095123	20111102.100454	8	0.013328	60	10	60-180	60	158	GapExp	SmallFlash	0	130	2	3	0	distractor	1	814	593	122084	13.328	13.297	13.346
ProbeTrack13	6	ProbeTrack	13.2	SCS215a	20111102.095123	20111102.100501	8	0.013328	60	10	60-180	60	85	GapExp	SmallFlash	0	131	2	0	1	target	1	648	676	122760	13.328	13.306	13.352
ProbeTrack13	6	ProbeTrack	13.2	SCS215a	20111102.095123	20111102.100506	8	0.013328	60	10	60-180	60	125	GapExp	SmallFlash	0	132	2	0	0	distractor	1	610	695	123455	13.328	13.111	13.545
ProbeTrack13	6	ProbeTrack	13.2	SCS215a	20111102.095123	20111102.100513	8	0.013328	60	10	60-180	60	63	GapExp	SmallFlash	0	133	2	45	1	target	1	527	737	124192	13.328	13.111	13.557
ProbeTrack13	6	ProbeTrack	13.2	SCS215a	20111102.095123	20111102.100519	8	0.013328	60	10	60-180	60	66	GapExp	SmallFlash	0	134	2	0	1	target	1	450	775	124967	13.328	12.839	13.804
ProbeTrack13	6	ProbeTrack	13.2	SCS215a	20111102.095123	20111102.100524	8	0.013328	60	10	60-180	60	174	GapExp	SmallFlash	0	135	2	0	0	distractor	1	423	789	125756	13.328	12.914	13.750
ProbeTrack13	6	ProbeTrack	13.2	SCS215a	20111102.095123	20111102.100531	8	0.013328	60	10	60-180	60	78	GapExp	SmallFlash	0	136	2	3	1	target	1	428	786	126542	13.328	12.905	13.748
ProbeTrack13	6	ProbeTrack	13.2	SCS215a	20111102.095123	20111102.100536	8	0.013328	60	10	60-180	60	65	GapExp	SmallFlash	0	137	2	0	1	target	1	623	689	127231	13.328	13.313	13.344
ProbeTrack13	6	ProbeTrack	13.2	SCS215a	20111102.095123	20111102.100541	8	0.013328	60	10	60-180	60	131	GapExp	SmallFlash	0	138	2	1	1	target	1	360	820	128051	13.328	12.965	13.690
ProbeTrack13	6	ProbeTrack	13.2	SCS215a	20111102.095123	20111102.100548	8	0.013328	60	10	60-180	60	66	GapExp	SmallFlash	0	139	2	3	1	target	1	397	802	128853	13.328	12.874	13.784
ProbeTrack13	6	ProbeTrack	13.2	SCS215a	20111102.095123	20111102.100553	8	0.013328	60	10	60-180	60	102	GapExp	SmallFlash	0	140	2	3	0	distractor	1	850	575	129428	13.328	13.305	13.344
ProbeTrack13	6	ProbeTrack	13.2	SCS215a	20111102.095123	20111102.100559	8	0.013328	60	10	60-180	60	171	GapExp	SmallFlash	0	141	2	45	1	target	1	352	824	130252	13.328	12.962	13.705
ProbeTrack13	6	ProbeTrack	13.2	SCS215a	20111102.095123	20111102.100606	8	0.013328	60	10	60-180	60	163	GapExp	SmallFlash	0	142	2	45	0	distractor	1	563	719	130971	13.328	13.089	13.561
ProbeTrack13	6	ProbeTrack	13.2	SCS215a	20111102.095123	20111102.100613	8	0.013328	60	10	60-180	60	139	GapExp	SmallFlash	0	143	2	45	0	distractor	1	557	722	131693	13.328	13.306	13.353
ProbeTrack13	6	ProbeTrack	13.2	SCS215a	20111102.095123	20111102.100620	8	0.013328	60	10	60-180	60	72	GapExp	SmallFlash	0	144	2	0	1	target	1	406	797	132490	13.328	13.308	13.361
ProbeTrack13	6	ProbeTrack	13.2	SCS215a	20111102.095123	20111102.100625	8	0.013328	60	10	60-180	60	135	GapExp	SmallFlash	0	145	2	45	1	target	1	361	820	133310	13.328	12.957	13.716
ProbeTrack13	6	ProbeTrack	13.2	SCS215a	20111102.095123	20111102.100632	8	0.013328	60	10	60-180	60	105	GapExp	SmallFlash	0	146	2	3	0	distractor	1	545	728	134038	13.328	13.296	13.355
ProbeTrack13	6	ProbeTrack	13.2	SCS215a	20111102.095123	20111102.100637	8	0.013328	60	10	60-180	60	131	GapExp	SmallFlash	0	147	2	3	1	target	1	417	792	134830	13.328	13.016	13.653
ProbeTrack13	6	ProbeTrack	13.2	SCS215a	20111102.095123	20111102.100643	8	0.013328	60	10	60-180	60	163	GapExp	SmallFlash	0	148	2	0	1	target	1	451	775	135605	13.328	12.877	13.785
ProbeTrack13	6	ProbeTrack	13.2	SCS215a	20111102.095123	20111102.100650	8	0.013328	60	10	60-180	60	84	GapExp	SmallFlash	0	149	2	45	1	target	1	441	780	136385	13.328	12.871	13.780
ProbeTrack13	6	ProbeTrack	13.2	SCS215a	20111102.095123	20111102.100656	8	0.013328	60	10	60-180	60	100	GapExp	SmallFlash	0	150	2	45	0	distractor	1	610	695	137080	13.328	12.886	13.803
ProbeTrack13	6	ProbeTrack	13.2	SCS215a	20111102.095123	20111102.100703	8	0.013328	60	10	60-180	60	67	GapExp	SmallFlash	0	151	2	0	0	distractor	1	467	767	137847	13.328	13.307	13.353
ProbeTrack13	6	ProbeTrack	13.2	SCS215a	20111102.095123	20111102.100708	8	0.013328	60	10	60-180	60	127	GapExp	SmallFlash	0	152	2	45	0	distractor	1	509	746	138593	13.328	13.307	13.345
ProbeTrack13	6	ProbeTrack	13.2	SCS215a	20111102.095123	20111102.100714	8	0.013328	60	10	60-180	60	170	GapExp	SmallFlash	0	153	2	45	0	target	0	565	-1000	137593	13.328	12.852	13.801
ProbeTrack13	6	ProbeTrack	13.2	SCS215a	20111102.095123	20111102.100722	8	0.013328	60	10	60-180	60	176	GapExp	SmallFlash	0	154	2	45	0	distractor	1	536	732	138325	13.328	13.306	13.350
ProbeTrack13	6	ProbeTrack	13.2	SCS215a	20111102.095123	20111102.100729	8	0.013328	60	10	60-180	60	178	GapExp	SmallFlash	0	155	2	1	1	target	1	673	664	138989	13.328	13.199	13.449
ProbeTrack13	6	ProbeTrack	13.2	SCS215a	20111102.095123	20111102.100736	8	0.013328	60	10	60-180	60	77	GapExp	SmallFlash	0	156	2	0	0	distractor	1	615	693	139682	13.328	13.303	13.352
ProbeTrack13	6	ProbeTrack	13.2	SCS215a	20111102.095123	20111102.100741	8	0.013328	60	10	60-180	60	167	GapExp	SmallFlash	0	157	2	45	1	target	1	418	791	140473	13.328	13.293	13.371
ProbeTrack13	6	ProbeTrack	13.2	SCS215a	20111102.095123	20111102.100748	8	0.013328	60	10	60-180	60	66	GapExp	SmallFlash	0	158	2	0	0	distractor	1	667	667	141140	13.328	13.083	13.580
ProbeTrack13	6	ProbeTrack	13.2	SCS215a	20111102.095123	20111102.100754	8	0.013328	60	10	60-180	60	104	GapExp	SmallFlash	0	159	2	0	0	target	0	487	-1000	140140	13.328	13.105	13.537
ProbeTrack13	6	ProbeTrack	13.2	SCS215a	20111102.095123	20111102.100800	8	0.013328	60	10	60-180	60	128	GapExp	SmallFlash	0	160	2	45	0	distractor	1	525	738	140878	13.328	13.058	13.600
ProbeTrack13	6	ProbeTrack	13.2	SCS215a	20111102.095123	20111102.100806	8	0.013328	60	10	60-180	60	84	GapExp	SmallFlash	0	161	2	3	1	target	1	588	706	141584	13.328	13.206	13.429
ProbeTrack13	6	ProbeTrack	13.2	SCS215a	20111102.095123	20111102.100812	8	0.013328	60	10	60-180	60	115	GapExp	SmallFlash	0	162	2	1	0	distractor	1	635	683	142267	13.381	12.908	26.867
ProbeTrack13	6	ProbeTrack	13.2	SCS215a	20111102.095123	20111102.100818	8	0.013328	60	10	60-180	60	132	GapExp	SmallFlash	0	163	2	3	0	distractor	1	733	634	142901	13.328	13.309	13.345
ProbeTrack13	6	ProbeTrack	13.2	SCS215a	20111102.095123	20111102.100824	8	0.013328	60	10	60-180	60	63	GapExp	SmallFlash	0	164	2	0	1	target	1	861	570	143471	13.328	12.904	13.766
ProbeTrack13	6	ProbeTrack	13.2	SCS215a	20111102.095123	20111102.100830	8	0.013328	60	10	60-180	60	81	GapExp	SmallFlash	0	165	2	45	1	target	1	397	802	144273	13.328	12.856	13.792
ProbeTrack13	6	ProbeTrack	13.2	SCS215a	20111102.095123	20111102.100836	8	0.013328	60	10	60-180	60	85	GapExp	SmallFlash	0	166	2	3	0	distractor	1	744	628	144901	13.328	13.112	13.551
ProbeTrack13	6	ProbeTrack	13.2	SCS215a	20111102.095123	20111102.100841	8	0.013328	60	10	60-180	60	166	GapExp	SmallFlash	0	167	2	3	0	distractor	1	693	654	145555	13.328	13.096	13.560
ProbeTrack13	6	ProbeTrack	13.2	SCS215a	20111102.095123	20111102.100848	8	0.013328	60	10	60-180	60	143	GapExp	SmallFlash	0	168	2	45	1	target	1	583	709	146264	13.328	12.955	13.701
ProbeTrack13	6	ProbeTrack	13.2	SCS215a	20111102.095123	20111102.100855	8	0.013328	60	10	60-180	60	119	GapExp	SmallFlash	0	169	2	45	1	target	1	474	763	147027	13.328	12.925	13.739
ProbeTrack13	6	ProbeTrack	13.2	SCS215a	20111102.095123	20111102.100902	8	0.013328	60	10	60-180	60	99	GapExp	SmallFlash	0	170	2	45	1	target	1	847	577	147604	13.328	12.879	13.778
ProbeTrack13	6	ProbeTrack	13.2	SCS215a	20111102.095123	20111102.100909	8	0.013328	60	10	60-180	60	143	GapExp	SmallFlash	0	171	2	3	0	distractor	1	557	722	148326	13.328	13.106	13.556
ProbeTrack13	6	ProbeTrack	13.2	SCS215a	20111102.095123	20111102.100915	8	0.013328	60	10	60-180	60	147	GapExp	SmallFlash	0	172	2	45	0	distractor	1	594	703	149029	13.328	12.842	13.805
ProbeTrack13	6	ProbeTrack	13.2	SCS215a	20111102.095123	20111102.100922	8	0.013328	60	10	60-180	60	96	GapExp	SmallFlash	0	173	2	45	0	distractor	1	618	691	149720	13.328	12.859	13.760
ProbeTrack13	6	ProbeTrack	13.2	SCS215a	20111102.095123	20111102.100929	8	0.013328	60	10	60-180	60	165	GapExp	SmallFlash	0	174	2	1	0	distractor	1	566	717	150437	13.328	12.863	13.751
ProbeTrack13	6	ProbeTrack	13.2	SCS215a	20111102.095123	20111102.100936	8	0.013328	60	10	60-180	60	150	GapExp	SmallFlash	0	175	2	0	0	distractor	1	643	679	151116	13.328	12.862	13.795
ProbeTrack13	6	ProbeTrack	13.2	SCS215a	20111102.095123	20111102.100942	8	0.013328	60	10	60-180	60	146	GapExp	SmallFlash	0	176	2	3	1	target	1	446	777	151893	13.328	12.942	13.740
ProbeTrack13	6	ProbeTrack	13.2	SCS215a	20111102.095123	20111102.100949	8	0.013328	60	10	60-180	60	73	GapExp	SmallFlash	0	177	2	45	1	target	1	443	779	152672	13.328	13.269	13.401
ProbeTrack13	6	ProbeTrack	13.2	SCS215a	20111102.095123	20111102.100954	8	0.013328	60	10	60-180	60	108	GapExp	SmallFlash	0	178	2	3	1	target	1	504	748	153420	13.328	13.308	13.346
ProbeTrack13	6	ProbeTrack	13.2	SCS215a	20111102.095123	20111102.101000	8	0.013328	60	10	60-180	60	88	GapExp	SmallFlash	0	179	2	1	1	target	1	431	785	154205	13.328	13.290	13.366
ProbeTrack13	6	ProbeTrack	13.2	SCS215a	20111102.095123	20111102.101005	8	0.013328	60	10	60-180	60	65	GapExp	SmallFlash	0	180	2	45	1	target	1	392	804	155009	13.328	12.972	13.691
ProbeTrack13	6	ProbeTrack	13.2	SCS215a	20111102.095123	20111102.101012	8	0.013328	60	10	60-180	60	122	GapExp	SmallFlash	0	181	2	1	0	distractor	1	555	723	155732	13.328	12.882	13.788
ProbeTrack13	6	ProbeTrack	13.2	SCS215a	20111102.095123	20111102.101018	8	0.013328	60	10	60-180	60	80	GapExp	SmallFlash	0	182	2	45	0	distractor	1	668	666	156398	13.328	13.286	13.364
ProbeTrack13	6	ProbeTrack	13.2	SCS215a	20111102.095123	20111102.101024	8	0.013328	60	10	60-180	60	95	GapExp	SmallFlash	0	183	2	3	0	distractor	1	585	708	157106	13.328	13.307	13.352
ProbeTrack13	6	ProbeTrack	13.2	SCS215a	20111102.095123	20111102.101029	8	0.013328	60	10	60-180	60	164	GapExp	SmallFlash	0	184	2	45	0	distractor	1	545	728	157834	13.328	12.872	13.711
ProbeTrack13	6	ProbeTrack	13.2	SCS215a	20111102.095123	20111102.101036	8	0.013328	60	10	60-180	60	84	GapExp	SmallFlash	0	185	2	3	0	distractor	1	679	661	158495	13.328	13.294	13.357
ProbeTrack13	6	ProbeTrack	13.2	SCS215a	20111102.095123	20111102.101042	8	0.013328	60	10	60-180	60	94	GapExp	SmallFlash	0	186	2	1	0	distractor	1	634	683	159178	13.328	13.028	13.634
ProbeTrack13	6	ProbeTrack	13.2	SCS215a	20111102.095123	20111102.101048	8	0.013328	60	10	60-180	60	120	GapExp	SmallFlash	0	187	2	1	1	target	1	513	744	159922	13.328	13.105	13.550
ProbeTrack13	6	ProbeTrack	13.2	SCS215a	20111102.095123	20111102.101054	8	0.013328	60	10	60-180	60	150	GapExp	SmallFlash	0	188	2	0	0	distractor	1	536	732	160654	13.328	13.044	13.619
ProbeTrack13	6	ProbeTrack	13.2	SCS215a	20111102.095123	20111102.101100	8	0.013328	60	10	60-180	60	136	GapExp	SmallFlash	0	189	2	1	1	target	1	485	758	161412	13.328	12.861	13.782
ProbeTrack13	6	ProbeTrack	13.2	SCS215a	20111102.095123	20111102.101106	8	0.013328	60	10	60-180	60	111	GapExp	SmallFlash	0	190	2	1	0	distractor	1	760	620	162032	13.328	13.302	13.352
ProbeTrack13	6	ProbeTrack	13.2	SCS215a	20111102.095123	20111102.101113	8	0.013328	60	10	60-180	60	132	GapExp	SmallFlash	0	191	2	3	0	distractor	1	501	750	162782	13.328	12.976	13.529
ProbeTrack13	6	ProbeTrack	13.2	SCS215a	20111102.095123	20111102.101119	8	0.013328	60	10	60-180	60	167	GapExp	SmallFlash	0	192	2	3	1	target	1	575	713	163495	13.328	13.289	13.366
ProbeTrack13	6	ProbeTrack	13.2	SCS215a	20111102.095123	20111102.101126	8	0.013328	60	10	60-180	60	89	GapExp	SmallFlash	0	193	2	0	1	target	1	6692	0	163495	13.328	12.861	13.791
ProbeTrack13	6	ProbeTrack	13.2	SCS215a	20111102.095123	20111102.101137	8	0.013328	60	10	60-180	60	85	GapExp	SmallFlash	0	194	2	45	0	target	0	3486	-1000	162495	13.328	13.111	13.563
ProbeTrack13	6	ProbeTrack	13.2	SCS215a	20111102.095123	20111102.101207	8	0.013328	60	10	60-180	60	173	GapExp	SmallFlash	0	195	2	3	1	target	1	423	789	163284	13.328	12.855	13.801
ProbeTrack13	6	ProbeTrack	13.2	SCS215a	20111102.095123	20111102.101214	8	0.013328	60	10	60-180	60	100	GapExp	SmallFlash	0	196	2	3	1	target	1	437	782	164066	13.328	13.039	13.631
ProbeTrack13	6	ProbeTrack	13.2	SCS215a	20111102.095123	20111102.101220	8	0.013328	60	10	60-180	60	155	GapExp	SmallFlash	0	197	2	3	0	distractor	1	521	740	164806	13.328	12.868	13.782
ProbeTrack13	6	ProbeTrack	13.2	SCS215a	20111102.095123	20111102.101226	8	0.013328	60	10	60-180	60	153	GapExp	SmallFlash	0	198	2	1	1	target	1	381	810	165616	13.328	13.092	13.552
ProbeTrack13	6	ProbeTrack	13.2	SCS215a	20111102.095123	20111102.101232	8	0.013328	60	10	60-180	60	166	GapExp	SmallFlash	0	199	2	45	1	target	1	427	787	166403	13.328	13.113	13.556
ProbeTrack13	6	ProbeTrack	13.2	SCS215a	20111102.095123	20111102.101240	8	0.013328	60	10	60-180	60	98	GapExp	SmallFlash	0	200	2	45	1	target	1	239	881	167284	13.328	13.113	13.542
ProbeTrack13	6	ProbeTrack	13.2	SCS215a	20111102.101339	20111102.101343	8	0.013328	60	10	60-180	60	96	GapPrac	Blank	1	1	2	45	0	distractor	1	565	718	168002	13.377	13.292	13.344
ProbeTrack13	6	ProbeTrack	13.2	SCS215a	20111102.101339	20111102.101352	8	0.013328	60	10	60-180	60	170	GapPrac	Blank	1	2	2	45	1	target	1	492	754	168756	13.328	13.304	13.348
ProbeTrack13	6	ProbeTrack	13.2	SCS215a	20111102.101339	20111102.101359	8	0.013328	60	10	60-180	60	176	GapPrac	Blank	1	3	2	3	1	target	1	530	735	169491	13.328	10.335	16.322
ProbeTrack13	6	ProbeTrack	13.2	SCS215a	20111102.101339	20111102.101406	8	0.013328	60	10	60-180	60	73	GapPrac	Blank	1	4	2	1	0	distractor	1	558	721	170212	13.328	13.307	13.349
ProbeTrack13	6	ProbeTrack	13.2	SCS215a	20111102.101339	20111102.101411	8	0.013328	60	10	60-180	60	96	GapPrac	Blank	1	5	2	0	1	target	1	320	840	171052	13.328	12.470	14.179
ProbeTrack13	6	ProbeTrack	13.2	SCS215a	20111102.101339	20111102.101417	8	0.013328	60	10	60-180	60	95	GapPrac	Blank	1	6	2	3	0	distractor	1	503	749	171801	13.328	13.251	13.376
ProbeTrack13	6	ProbeTrack	13.2	SCS215a	20111102.101339	20111102.101423	8	0.013328	60	10	60-180	60	138	GapPrac	Blank	1	7	2	3	1	target	1	386	807	172608	13.328	13.174	13.425
ProbeTrack13	6	ProbeTrack	13.2	SCS215a	20111102.101339	20111102.101429	8	0.013328	60	10	60-180	60	98	GapPrac	Blank	1	8	2	3	0	distractor	1	541	730	173338	13.328	11.083	15.588
ProbeTrack13	6	ProbeTrack	13.2	SCS215a	20111102.101339	20111102.101435	8	0.013328	60	10	60-180	60	175	GapPrac	Blank	1	9	2	45	1	target	1	354	823	174161	13.328	10.515	16.147
ProbeTrack13	6	ProbeTrack	13.2	SCS215a	20111102.101339	20111102.101442	8	0.013328	60	10	60-180	60	123	GapPrac	Blank	1	10	2	1	1	target	1	373	814	174975	13.328	13.279	13.375
ProbeTrack13	6	ProbeTrack	13.2	SCS215a	20111102.101339	20111102.101447	8	0.013328	60	10	60-180	60	125	GapPrac	Blank	1	11	2	0	0	target	0	499	-1000	173975	13.328	13.087	13.561
ProbeTrack13	6	ProbeTrack	13.2	SCS215a	20111102.101339	20111102.101454	8	0.013328	60	10	60-180	60	96	GapPrac	Blank	1	12	2	45	1	distractor	0	475	-1000	172975	13.328	13.092	13.555
ProbeTrack13	6	ProbeTrack	13.2	SCS215a	20111102.101339	20111102.101500	8	0.013328	60	10	60-180	60	154	GapPrac	Blank	1	13	2	45	0	distractor	1	460	770	173745	13.328	13.306	13.353
ProbeTrack13	6	ProbeTrack	13.2	SCS215a	20111102.101339	20111102.101507	8	0.013328	60	10	60-180	60	101	GapPrac	Blank	1	14	2	1	1	target	1	386	807	174552	13.328	13.105	13.551
ProbeTrack13	6	ProbeTrack	13.2	SCS215a	20111102.101339	20111102.101512	8	0.013328	60	10	60-180	60	177	GapPrac	Blank	1	15	2	1	0	distractor	1	650	675	175227	13.328	13.091	13.549
ProbeTrack13	6	ProbeTrack	13.2	SCS215a	20111102.101339	20111102.101519	8	0.013328	60	10	60-180	60	171	GapPrac	Blank	1	16	2	3	1	target	1	365	818	176045	13.328	11.344	15.309
ProbeTrack13	6	ProbeTrack	13.2	SCS215a	20111102.101339	20111102.101526	8	0.013328	60	10	60-180	60	80	GapPrac	Blank	1	17	2	0	0	distractor	1	687	657	176702	13.328	13.306	13.346
ProbeTrack13	6	ProbeTrack	13.2	SCS215a	20111102.101339	20111102.101532	8	0.013328	60	10	60-180	60	155	GapPrac	Blank	1	18	2	45	0	distractor	1	560	720	177422	13.328	6.320	20.321
ProbeTrack13	6	ProbeTrack	13.2	SCS215a	20111102.101339	20111102.101539	8	0.013328	60	10	60-180	60	66	GapPrac	Blank	1	19	2	0	1	target	1	689	656	178078	13.328	13.158	13.501
ProbeTrack13	6	ProbeTrack	13.2	SCS215a	20111102.101339	20111102.101545	8	0.013328	60	10	60-180	60	165	GapPrac	Blank	1	20	2	1	0	distractor	1	666	667	178745	13.328	13.306	13.344
ProbeTrack13	6	ProbeTrack	13.2	SCS215a	20111102.101634	20111102.101637	8	0.013328	60	10	60-180	60	157	GapExp	Blank	1	1	2	45	1	target	1	427	787	179532	13.369	13.305	13.351
ProbeTrack13	6	ProbeTrack	13.2	SCS215a	20111102.101634	20111102.101645	8	0.013328	60	10	60-180	60	145	GapExp	Blank	1	2	2	45	0	distractor	1	504	748	180280	13.328	13.099	13.550
ProbeTrack13	6	ProbeTrack	13.2	SCS215a	20111102.101634	20111102.101652	8	0.013328	60	10	60-180	60	115	GapExp	Blank	1	3	2	0	0	distractor	1	538	731	181011	13.328	13.106	13.563
ProbeTrack13	6	ProbeTrack	13.2	SCS215a	20111102.101634	20111102.101658	8	0.013328	60	10	60-180	60	72	GapExp	Blank	1	4	2	1	1	target	1	560	720	181731	13.328	13.303	13.354
ProbeTrack13	6	ProbeTrack	13.2	SCS215a	20111102.101634	20111102.101703	8	0.013328	60	10	60-180	60	72	GapExp	Blank	1	5	2	3	0	distractor	1	617	692	182423	13.328	13.296	13.365
ProbeTrack13	6	ProbeTrack	13.2	SCS215a	20111102.101634	20111102.101709	8	0.013328	60	10	60-180	60	83	GapExp	Blank	1	6	2	0	1	target	1	466	767	183190	13.328	13.301	13.353
ProbeTrack13	6	ProbeTrack	13.2	SCS215a	20111102.101634	20111102.101714	8	0.013328	60	10	60-180	60	125	GapExp	Blank	1	7	2	3	1	distractor	0	623	-1000	182190	13.328	13.309	13.349
ProbeTrack13	6	ProbeTrack	13.2	SCS215a	20111102.101634	20111102.101721	8	0.013328	60	10	60-180	60	164	GapExp	Blank	1	8	2	1	0	distractor	1	637	682	182872	13.328	13.098	13.543
ProbeTrack13	6	ProbeTrack	13.2	SCS215a	20111102.101634	20111102.101727	8	0.013328	60	10	60-180	60	124	GapExp	Blank	0	9	2	0	1	target	1	499	751	183623	13.328	13.105	13.551
ProbeTrack13	6	ProbeTrack	13.2	SCS215a	20111102.101634	20111102.101733	8	0.013328	60	10	60-180	60	94	GapExp	Blank	0	10	2	45	1	target	1	3711713	0	183623	13.328	13.307	13.353
ProbeTrack13	6	ProbeTrack	13.2	SCS215a	20111102.101634	20111102.101738	8	0.013328	60	10	60-180	60	70	GapExp	Blank	0	11	2	45	1	target	1	418	791	184414	13.328	13.302	13.358
ProbeTrack13	6	ProbeTrack	13.2	SCS215a	20111102.101634	20111102.101744	8	0.013328	60	10	60-180	60	155	GapExp	Blank	0	12	2	0	1	target	1	448	776	185190	13.328	13.291	13.356
ProbeTrack13	6	ProbeTrack	13.2	SCS215a	20111102.101634	20111102.101750	8	0.013328	60	10	60-180	60	157	GapExp	Blank	0	13	2	0	1	target	1	429	786	185976	13.328	13.280	13.381
ProbeTrack13	6	ProbeTrack	13.2	SCS215a	20111102.101634	20111102.101757	8	0.013328	60	10	60-180	60	159	GapExp	Blank	0	14	2	0	0	target	0	402	-1000	184976	13.328	13.103	13.567
ProbeTrack13	6	ProbeTrack	13.2	SCS215a	20111102.101634	20111102.101803	8	0.013328	60	10	60-180	60	147	GapExp	Blank	0	15	2	0	0	distractor	1	733	634	185610	13.374	13.104	26.673
ProbeTrack13	6	ProbeTrack	13.2	SCS215a	20111102.101634	20111102.101809	8	0.013328	60	10	60-180	60	72	GapExp	Blank	0	16	2	1	1	target	1	403	799	186409	13.328	13.107	13.556
ProbeTrack13	6	ProbeTrack	13.2	SCS215a	20111102.101634	20111102.101814	8	0.013328	60	10	60-180	60	172	GapExp	Blank	0	17	2	1	0	distractor	1	616	692	187101	13.328	13.037	13.630
ProbeTrack13	6	ProbeTrack	13.2	SCS215a	20111102.101634	20111102.101821	8	0.013328	60	10	60-180	60	103	GapExp	Blank	0	18	2	1	1	target	1	564	718	187819	13.328	13.298	13.347
ProbeTrack13	6	ProbeTrack	13.2	SCS215a	20111102.101634	20111102.101827	8	0.013328	60	10	60-180	60	172	GapExp	Blank	0	19	2	0	1	target	1	284	858	188677	13.328	8.800	17.848
ProbeTrack13	6	ProbeTrack	13.2	SCS215a	20111102.101634	20111102.101834	8	0.013328	60	10	60-180	60	96	GapExp	Blank	0	20	2	1	0	target	0	764	-1000	187677	13.328	13.310	13.349
ProbeTrack13	6	ProbeTrack	13.2	SCS215a	20111102.101634	20111102.101840	8	0.013328	60	10	60-180	60	96	GapExp	Blank	0	21	2	3	0	distractor	1	481	760	188437	13.328	13.307	13.348
ProbeTrack13	6	ProbeTrack	13.2	SCS215a	20111102.101634	20111102.101846	8	0.013328	60	10	60-180	60	109	GapExp	Blank	0	22	2	1	1	target	1	500	750	189187	13.328	13.307	13.347
ProbeTrack13	6	ProbeTrack	13.2	SCS215a	20111102.101634	20111102.101852	8	0.013328	60	10	60-180	60	73	GapExp	Blank	0	23	2	45	1	target	1	456	772	189959	13.328	11.358	15.293
ProbeTrack13	6	ProbeTrack	13.2	SCS215a	20111102.101634	20111102.101858	8	0.013328	60	10	60-180	60	99	GapExp	Blank	0	24	2	1	1	target	1	432	784	190743	13.328	10.111	16.553
ProbeTrack13	6	ProbeTrack	13.2	SCS215a	20111102.101634	20111102.101904	8	0.013328	60	10	60-180	60	97	GapExp	Blank	0	25	2	3	0	target	0	631	-1000	189743	13.328	13.309	13.344
ProbeTrack13	6	ProbeTrack	13.2	SCS215a	20111102.101634	20111102.101910	8	0.013328	60	10	60-180	60	151	GapExp	Blank	0	26	2	3	1	target	1	485	758	190501	13.328	13.307	13.350
ProbeTrack13	6	ProbeTrack	13.2	SCS215a	20111102.101634	20111102.101916	8	0.013328	60	10	60-180	60	167	GapExp	Blank	0	27	2	0	0	distractor	1	731	635	191136	13.328	13.306	13.351
ProbeTrack13	6	ProbeTrack	13.2	SCS215a	20111102.101634	20111102.101922	8	0.013328	60	10	60-180	60	103	GapExp	Blank	0	28	2	45	1	target	1	437	782	191918	13.328	13.306	13.352
ProbeTrack13	6	ProbeTrack	13.2	SCS215a	20111102.101634	20111102.101929	8	0.013328	60	10	60-180	60	162	GapExp	Blank	0	29	2	0	1	target	1	494	753	192671	13.328	12.045	14.609
ProbeTrack13	6	ProbeTrack	13.2	SCS215a	20111102.101634	20111102.101936	8	0.013328	60	10	60-180	60	157	GapExp	Blank	0	30	2	1	0	distractor	1	546	727	193398	13.328	10.617	16.092
ProbeTrack13	6	ProbeTrack	13.2	SCS215a	20111102.101634	20111102.101942	8	0.013328	60	10	60-180	60	93	GapExp	Blank	0	31	2	45	1	target	1	626	687	194085	13.328	13.302	13.355
ProbeTrack13	6	ProbeTrack	13.2	SCS215a	20111102.101634	20111102.101948	8	0.013328	60	10	60-180	60	92	GapExp	Blank	0	32	2	0	0	target	0	416	-1000	193085	13.328	8.098	18.546
ProbeTrack13	6	ProbeTrack	13.2	SCS215a	20111102.101634	20111102.101954	8	0.013328	60	10	60-180	60	88	GapExp	Blank	0	33	2	1	1	target	1	545	728	193813	13.328	13.100	13.542
ProbeTrack13	6	ProbeTrack	13.2	SCS215a	20111102.101634	20111102.102000	8	0.013328	60	10	60-180	60	88	GapExp	Blank	0	34	2	3	1	target	1	579	711	194524	13.328	11.410	15.237
ProbeTrack13	6	ProbeTrack	13.2	SCS215a	20111102.101634	20111102.102005	8	0.013328	60	10	60-180	60	95	GapExp	Blank	0	35	2	3	1	target	1	435	783	195307	13.328	13.306	13.348
ProbeTrack13	6	ProbeTrack	13.2	SCS215a	20111102.101634	20111102.102011	8	0.013328	60	10	60-180	60	141	GapExp	Blank	0	36	2	45	1	target	1	531	735	196042	13.328	7.745	18.904
ProbeTrack13	6	ProbeTrack	13.2	SCS215a	20111102.101634	20111102.102018	8	0.013328	60	10	60-180	60	65	GapExp	Blank	0	37	2	0	0	distractor	1	529	736	196778	13.328	13.309	13.347
ProbeTrack13	6	ProbeTrack	13.2	SCS215a	20111102.101634	20111102.102023	8	0.013328	60	10	60-180	60	64	GapExp	Blank	0	38	2	1	0	distractor	1	541	730	197508	13.328	13.106	13.544
ProbeTrack13	6	ProbeTrack	13.2	SCS215a	20111102.101634	20111102.102028	8	0.013328	60	10	60-180	60	124	GapExp	Blank	0	39	2	0	0	distractor	1	833	584	198092	13.328	12.088	14.561
ProbeTrack13	6	ProbeTrack	13.2	SCS215a	20111102.101634	20111102.102034	8	0.013328	60	10	60-180	60	161	GapExp	Blank	0	40	2	1	1	target	1	442	779	198871	13.328	13.120	13.543
ProbeTrack13	6	ProbeTrack	13.2	SCS215a	20111102.101634	20111102.102041	8	0.013328	60	10	60-180	60	160	GapExp	Blank	0	41	2	3	1	distractor	0	666	-1000	197871	13.328	13.260	13.390
ProbeTrack13	6	ProbeTrack	13.2	SCS215a	20111102.101634	20111102.102047	8	0.013328	60	10	60-180	60	88	GapExp	Blank	0	42	2	45	0	target	0	401	-1000	196871	13.328	13.213	13.432
ProbeTrack13	6	ProbeTrack	13.2	SCS215a	20111102.101634	20111102.102053	8	0.013328	60	10	60-180	60	175	GapExp	Blank	0	43	2	0	1	distractor	0	402	-1000	195871	13.328	7.908	18.748
ProbeTrack13	6	ProbeTrack	13.2	SCS215a	20111102.101634	20111102.102100	8	0.013328	60	10	60-180	60	166	GapExp	Blank	0	44	2	45	1	target	1	384	808	196679	13.328	13.307	13.349
ProbeTrack13	6	ProbeTrack	13.2	SCS215a	20111102.101634	20111102.102107	8	0.013328	60	10	60-180	60	106	GapExp	Blank	0	45	2	0	0	distractor	1	578	711	197390	13.328	13.308	13.350
ProbeTrack13	6	ProbeTrack	13.2	SCS215a	20111102.101634	20111102.102113	8	0.013328	60	10	60-180	60	164	GapExp	Blank	0	46	2	3	1	target	1	455	773	198163	13.328	13.085	13.557
ProbeTrack13	6	ProbeTrack	13.2	SCS215a	20111102.101634	20111102.102119	8	0.013328	60	10	60-180	60	148	GapExp	Blank	0	47	2	0	0	distractor	1	617	692	198855	13.328	12.395	14.250
ProbeTrack13	6	ProbeTrack	13.2	SCS215a	20111102.101634	20111102.102126	8	0.013328	60	10	60-180	60	168	GapExp	Blank	0	48	2	45	0	distractor	1	748	626	199481	13.328	13.112	13.535
ProbeTrack13	6	ProbeTrack	13.2	SCS215a	20111102.101634	20111102.102134	8	0.013328	60	10	60-180	60	91	GapExp	Blank	0	49	2	1	0	distractor	1	685	658	200139	13.328	13.113	13.556
ProbeTrack13	6	ProbeTrack	13.2	SCS215a	20111102.101634	20111102.102140	8	0.013328	60	10	60-180	60	139	GapExp	Blank	0	50	2	45	1	target	1	616	692	200831	13.328	9.613	17.090
ProbeTrack13	6	ProbeTrack	13.2	SCS215a	20111102.101634	20111102.102147	8	0.013328	60	10	60-180	60	151	GapExp	Blank	0	51	2	45	1	target	1	422	789	201620	13.328	13.106	13.543
ProbeTrack13	6	ProbeTrack	13.2	SCS215a	20111102.101634	20111102.102154	8	0.013328	60	10	60-180	60	148	GapExp	Blank	0	52	2	1	1	target	1	435	783	202403	13.328	12.741	13.910
ProbeTrack13	6	ProbeTrack	13.2	SCS215a	20111102.101634	20111102.102200	8	0.013328	60	10	60-180	60	132	GapExp	Blank	0	53	2	0	0	distractor	1	841	580	202983	13.328	13.086	13.557
ProbeTrack13	6	ProbeTrack	13.2	SCS215a	20111102.101634	20111102.102206	8	0.013328	60	10	60-180	60	138	GapExp	Blank	0	54	2	0	1	target	1	404	798	203781	13.328	13.102	13.561
ProbeTrack13	6	ProbeTrack	13.2	SCS215a	20111102.101634	20111102.102213	8	0.013328	60	10	60-180	60	81	GapExp	Blank	0	55	2	1	1	target	1	376	812	204593	13.328	11.337	15.333
ProbeTrack13	6	ProbeTrack	13.2	SCS215a	20111102.101634	20111102.102218	8	0.013328	60	10	60-180	60	148	GapExp	Blank	0	56	2	3	0	distractor	1	738	631	205224	13.328	11.486	15.177
ProbeTrack13	6	ProbeTrack	13.2	SCS215a	20111102.101634	20111102.102224	8	0.013328	60	10	60-180	60	92	GapExp	Blank	0	57	2	3	1	target	1	387	807	206031	13.328	13.307	13.346
ProbeTrack13	6	ProbeTrack	13.2	SCS215a	20111102.101634	20111102.102230	8	0.013328	60	10	60-180	60	102	GapExp	Blank	0	58	2	3	0	distractor	1	472	764	206795	13.328	13.105	13.558
ProbeTrack13	6	ProbeTrack	13.2	SCS215a	20111102.101634	20111102.102235	8	0.013328	60	10	60-180	60	65	GapExp	Blank	0	59	2	1	0	distractor	1	459	771	207566	13.328	4.848	21.822
ProbeTrack13	6	ProbeTrack	13.2	SCS215a	20111102.101634	20111102.102240	8	0.013328	60	10	60-180	60	74	GapExp	Blank	0	60	2	45	0	target	0	702	-1000	206566	13.328	13.299	13.358
ProbeTrack13	6	ProbeTrack	13.2	SCS215a	20111102.101634	20111102.102247	8	0.013328	60	10	60-180	60	163	GapExp	Blank	0	61	2	1	1	target	1	589	706	207272	13.328	13.225	13.435
ProbeTrack13	6	ProbeTrack	13.2	SCS215a	20111102.101634	20111102.102253	8	0.013328	60	10	60-180	60	121	GapExp	Blank	0	62	2	0	1	target	1	464	768	208040	13.328	9.888	16.766
ProbeTrack13	6	ProbeTrack	13.2	SCS215a	20111102.101634	20111102.102259	8	0.013328	60	10	60-180	60	176	GapExp	Blank	0	63	2	45	1	target	1	421	790	208830	13.328	10.282	16.386
ProbeTrack13	6	ProbeTrack	13.2	SCS215a	20111102.101634	20111102.102306	8	0.013328	60	10	60-180	60	167	GapExp	Blank	0	64	2	3	0	distractor	1	660	670	209500	13.328	13.295	13.363
ProbeTrack13	6	ProbeTrack	13.2	SCS215a	20111102.101634	20111102.102313	8	0.013328	60	10	60-180	60	162	GapExp	Blank	0	65	2	1	0	distractor	1	645	678	210178	13.328	13.099	13.557
ProbeTrack13	6	ProbeTrack	13.2	SCS215a	20111102.101634	20111102.102330	8	0.013328	60	10	60-180	60	76	GapExp	Blank	0	66	2	0	0	distractor	1	564	718	210896	13.328	12.952	13.717
ProbeTrack13	6	ProbeTrack	13.2	SCS215a	20111102.101634	20111102.102335	8	0.013328	60	10	60-180	60	100	GapExp	Blank	0	67	2	0	1	target	1	564	718	211614	13.328	13.307	13.348
ProbeTrack13	6	ProbeTrack	13.2	SCS215a	20111102.101634	20111102.102341	8	0.013328	60	10	60-180	60	143	GapExp	Blank	0	68	2	3	0	distractor	1	509	746	212360	13.328	11.197	15.453
ProbeTrack13	6	ProbeTrack	13.2	SCS215a	20111102.101634	20111102.102347	8	0.013328	60	10	60-180	60	161	GapExp	Blank	0	69	2	3	1	target	1	555	723	213083	13.328	13.102	13.554
ProbeTrack13	6	ProbeTrack	13.2	SCS215a	20111102.101634	20111102.102353	8	0.013328	60	10	60-180	60	136	GapExp	Blank	0	70	2	45	1	target	1	477	762	213845	13.328	11.853	14.794
ProbeTrack13	6	ProbeTrack	13.2	SCS215a	20111102.101634	20111102.102401	8	0.013328	60	10	60-180	60	141	GapExp	Blank	0	71	2	1	1	target	1	404	798	214643	13.328	13.111	13.551
ProbeTrack13	6	ProbeTrack	13.2	SCS215a	20111102.101634	20111102.102407	8	0.013328	60	10	60-180	60	144	GapExp	Blank	0	72	2	3	1	target	1	476	762	215405	13.328	13.107	13.538
ProbeTrack13	6	ProbeTrack	13.2	SCS215a	20111102.101634	20111102.102413	8	0.013328	60	10	60-180	60	104	GapExp	Blank	0	73	2	0	0	distractor	1	571	715	216120	13.328	13.019	13.645
ProbeTrack13	6	ProbeTrack	13.2	SCS215a	20111102.101634	20111102.102418	8	0.013328	60	10	60-180	60	115	GapExp	Blank	0	74	2	0	0	distractor	1	481	760	216880	13.328	10.228	16.440
ProbeTrack13	6	ProbeTrack	13.2	SCS215a	20111102.101634	20111102.102424	8	0.013328	60	10	60-180	60	91	GapExp	Blank	0	75	2	3	0	distractor	1	575	713	217593	13.328	13.305	13.348
ProbeTrack13	6	ProbeTrack	13.2	SCS215a	20111102.101634	20111102.102430	8	0.013328	60	10	60-180	60	80	GapExp	Blank	0	76	2	0	0	distractor	1	624	688	218281	13.328	13.307	13.351
ProbeTrack13	6	ProbeTrack	13.2	SCS215a	20111102.101634	20111102.102436	8	0.013328	60	10	60-180	60	111	GapExp	Blank	0	77	2	45	0	distractor	1	536	732	219013	13.328	13.093	13.571
ProbeTrack13	6	ProbeTrack	13.2	SCS215a	20111102.101634	20111102.102442	8	0.013328	60	10	60-180	60	107	GapExp	Blank	0	78	2	45	0	distractor	1	625	688	219701	13.328	9.138	17.503
ProbeTrack13	6	ProbeTrack	13.2	SCS215a	20111102.101634	20111102.102448	8	0.013328	60	10	60-180	60	137	GapExp	Blank	0	79	2	45	1	target	1	425	788	220489	13.328	13.113	13.537
ProbeTrack13	6	ProbeTrack	13.2	SCS215a	20111102.101634	20111102.102455	8	0.013328	60	10	60-180	60	131	GapExp	Blank	0	80	2	3	1	distractor	0	734	-1000	219489	13.328	13.106	13.542
ProbeTrack13	6	ProbeTrack	13.2	SCS215a	20111102.101634	20111102.102501	8	0.013328	60	10	60-180	60	118	GapExp	Blank	0	81	2	3	1	target	1	475	763	220252	13.328	13.307	13.348
ProbeTrack13	6	ProbeTrack	13.2	SCS215a	20111102.101634	20111102.102508	8	0.013328	60	10	60-180	60	139	GapExp	Blank	0	82	2	45	0	distractor	1	446	777	221029	13.328	10.548	16.100
ProbeTrack13	6	ProbeTrack	13.2	SCS215a	20111102.101634	20111102.102515	8	0.013328	60	10	60-180	60	103	GapExp	Blank	0	83	2	1	0	distractor	1	600	700	221729	13.328	13.299	13.363
ProbeTrack13	6	ProbeTrack	13.2	SCS215a	20111102.101634	20111102.102520	8	0.013328	60	10	60-180	60	172	GapExp	Blank	0	84	2	0	0	target	0	493	-1000	220729	13.328	13.292	13.356
ProbeTrack13	6	ProbeTrack	13.2	SCS215a	20111102.101634	20111102.102527	8	0.013328	60	10	60-180	60	90	GapExp	Blank	0	85	2	0	1	target	1	582	709	221438	13.328	13.306	13.347
ProbeTrack13	6	ProbeTrack	13.2	SCS215a	20111102.101634	20111102.102532	8	0.013328	60	10	60-180	60	92	GapExp	Blank	0	86	2	1	1	target	1	579	711	222149	13.328	10.135	16.501
ProbeTrack13	6	ProbeTrack	13.2	SCS215a	20111102.101634	20111102.102538	8	0.013328	60	10	60-180	60	175	GapExp	Blank	0	87	2	45	1	target	1	438	781	222930	13.328	9.231	17.419
ProbeTrack13	6	ProbeTrack	13.2	SCS215a	20111102.101634	20111102.102545	8	0.013328	60	10	60-180	60	156	GapExp	Blank	0	88	2	1	0	distractor	1	665	668	223598	13.328	10.069	16.581
ProbeTrack13	6	ProbeTrack	13.2	SCS215a	20111102.101634	20111102.102552	8	0.013328	60	10	60-180	60	95	GapExp	Blank	0	89	2	1	1	distractor	0	670	-1000	222598	13.328	13.106	13.542
ProbeTrack13	6	ProbeTrack	13.2	SCS215a	20111102.101634	20111102.102557	8	0.013328	60	10	60-180	60	71	GapExp	Blank	0	90	2	3	1	target	1	404	798	223396	13.328	12.390	14.252
ProbeTrack13	6	ProbeTrack	13.2	SCS215a	20111102.101634	20111102.102603	8	0.013328	60	10	60-180	60	97	GapExp	Blank	0	91	2	3	0	distractor	1	620	690	224086	13.328	8.634	18.009
ProbeTrack13	6	ProbeTrack	13.2	SCS215a	20111102.101634	20111102.102609	8	0.013328	60	10	60-180	60	112	GapExp	Blank	0	92	2	0	0	target	0	673	-1000	223086	13.328	11.809	14.835
ProbeTrack13	6	ProbeTrack	13.2	SCS215a	20111102.101634	20111102.102614	8	0.013328	60	10	60-180	60	117	GapExp	Blank	0	93	2	45	1	target	1	751	625	223711	13.328	8.503	18.143
ProbeTrack13	6	ProbeTrack	13.2	SCS215a	20111102.101634	20111102.102621	8	0.013328	60	10	60-180	60	134	GapExp	Blank	0	94	2	1	0	distractor	1	516	742	224453	13.328	13.098	13.550
ProbeTrack13	6	ProbeTrack	13.2	SCS215a	20111102.101634	20111102.102627	8	0.013328	60	10	60-180	60	153	GapExp	Blank	0	95	2	3	0	target	0	588	-1000	223453	13.328	13.098	13.555
ProbeTrack13	6	ProbeTrack	13.2	SCS215a	20111102.101634	20111102.102633	8	0.013328	60	10	60-180	60	168	GapExp	Blank	0	96	2	0	1	target	1	523	739	224192	13.328	13.113	13.556
ProbeTrack13	6	ProbeTrack	13.2	SCS215a	20111102.101634	20111102.102641	8	0.013328	60	10	60-180	60	70	GapExp	Blank	0	97	2	3	1	target	1	502	749	224941	13.328	13.310	13.346
ProbeTrack13	6	ProbeTrack	13.2	SCS215a	20111102.101634	20111102.102646	8	0.013328	60	10	60-180	60	169	GapExp	Blank	0	98	2	0	0	target	0	524	-1000	223941	13.328	13.104	13.557
ProbeTrack13	6	ProbeTrack	13.2	SCS215a	20111102.101634	20111102.102652	8	0.013328	60	10	60-180	60	68	GapExp	Blank	0	99	2	1	1	target	1	525	738	224679	13.328	11.179	15.482
ProbeTrack13	6	ProbeTrack	13.2	SCS215a	20111102.101634	20111102.102657	8	0.013328	60	10	60-180	60	118	GapExp	Blank	0	100	2	1	1	target	1	431	785	225464	13.328	13.308	13.346
ProbeTrack13	6	ProbeTrack	13.2	SCS215a	20111102.101634	20111102.102703	8	0.013328	60	10	60-180	60	82	GapExp	Blank	0	101	2	1	0	distractor	1	616	692	226156	13.328	13.106	13.549
ProbeTrack13	6	ProbeTrack	13.2	SCS215a	20111102.101634	20111102.102708	8	0.013328	60	10	60-180	60	63	GapExp	Blank	0	102	2	45	0	distractor	1	601	700	226856	13.328	13.098	13.551
ProbeTrack13	6	ProbeTrack	13.2	SCS215a	20111102.101634	20111102.102715	8	0.013328	60	10	60-180	60	158	GapExp	Blank	0	103	2	3	0	distractor	1	526	737	227593	13.328	13.308	13.355
ProbeTrack13	6	ProbeTrack	13.2	SCS215a	20111102.101634	20111102.102721	8	0.013328	60	10	60-180	60	110	GapExp	Blank	0	104	2	45	1	target	1	463	769	228362	13.328	12.891	13.766
ProbeTrack13	6	ProbeTrack	13.2	SCS215a	20111102.101634	20111102.102727	8	0.013328	60	10	60-180	60	96	GapExp	Blank	0	105	2	1	0	distractor	1	569	716	229078	13.328	13.308	13.346
ProbeTrack13	6	ProbeTrack	13.2	SCS215a	20111102.101634	20111102.102733	8	0.013328	60	10	60-180	60	173	GapExp	Blank	0	106	2	45	1	target	1	414	793	229871	13.328	5.385	21.257
ProbeTrack13	6	ProbeTrack	13.2	SCS215a	20111102.101634	20111102.102740	8	0.013328	60	10	60-180	60	166	GapExp	Blank	0	107	2	3	1	target	1	439	781	230652	13.328	12.450	14.193
ProbeTrack13	6	ProbeTrack	13.2	SCS215a	20111102.101634	20111102.102747	8	0.013328	60	10	60-180	60	96	GapExp	Blank	0	108	2	1	1	target	1	528	736	231388	13.328	11.465	15.197
ProbeTrack13	6	ProbeTrack	13.2	SCS215a	20111102.101634	20111102.102752	8	0.013328	60	10	60-180	60	111	GapExp	Blank	0	109	2	1	0	distractor	1	530	735	232123	13.328	13.302	13.360
ProbeTrack13	6	ProbeTrack	13.2	SCS215a	20111102.101634	20111102.102758	8	0.013328	60	10	60-180	60	75	GapExp	Blank	0	110	2	45	0	distractor	1	532	734	232857	13.317	11.238	13.543
ProbeTrack13	6	ProbeTrack	13.2	SCS215a	20111102.101634	20111102.102804	8	0.013328	60	10	60-180	60	104	GapExp	Blank	0	111	2	0	1	target	1	505	748	233605	13.328	13.105	13.543
ProbeTrack13	6	ProbeTrack	13.2	SCS215a	20111102.101634	20111102.102810	8	0.013328	60	10	60-180	60	78	GapExp	Blank	0	112	2	1	1	target	1	391	805	234410	13.328	6.317	20.333
ProbeTrack13	6	ProbeTrack	13.2	SCS215a	20111102.101634	20111102.102815	8	0.013328	60	10	60-180	60	108	GapExp	Blank	0	113	2	0	0	distractor	1	489	756	235166	13.328	13.012	13.543
ProbeTrack13	6	ProbeTrack	13.2	SCS215a	20111102.101634	20111102.102821	8	0.013328	60	10	60-180	60	80	GapExp	Blank	0	114	2	0	1	target	1	505	748	235914	13.328	9.918	16.743
ProbeTrack13	6	ProbeTrack	13.2	SCS215a	20111102.101634	20111102.102827	8	0.013328	60	10	60-180	60	154	GapExp	Blank	0	115	2	45	1	target	1	336	832	236746	13.328	13.098	13.543
ProbeTrack13	6	ProbeTrack	13.2	SCS215a	20111102.101634	20111102.102834	8	0.013328	60	10	60-180	60	159	GapExp	Blank	0	116	2	45	1	target	1	338	831	237577	13.328	13.098	13.551
ProbeTrack13	6	ProbeTrack	13.2	SCS215a	20111102.101634	20111102.102841	8	0.013328	60	10	60-180	60	81	GapExp	Blank	0	117	2	0	1	target	1	475	763	238340	13.328	13.112	13.555
ProbeTrack13	6	ProbeTrack	13.2	SCS215a	20111102.101634	20111102.102846	8	0.013328	60	10	60-180	60	113	GapExp	Blank	0	118	2	0	0	distractor	1	621	690	239030	13.328	13.102	13.555
ProbeTrack13	6	ProbeTrack	13.2	SCS215a	20111102.101634	20111102.102852	8	0.013328	60	10	60-180	60	86	GapExp	Blank	0	119	2	3	0	distractor	1	516	742	239772	13.328	13.299	13.344
ProbeTrack13	6	ProbeTrack	13.2	SCS215a	20111102.101634	20111102.102858	8	0.013328	60	10	60-180	60	98	GapExp	Blank	0	120	2	1	1	target	1	400	800	240572	13.328	12.559	13.372
ProbeTrack13	6	ProbeTrack	13.2	SCS215a	20111102.101634	20111102.102903	8	0.013328	60	10	60-180	60	98	GapExp	Blank	0	121	2	45	0	target	0	657	-1000	239572	13.328	9.235	17.428
ProbeTrack13	6	ProbeTrack	13.2	SCS215a	20111102.101634	20111102.102909	8	0.013328	60	10	60-180	60	117	GapExp	Blank	0	122	2	0	1	target	1	434	783	240355	13.328	7.643	19.013
ProbeTrack13	6	ProbeTrack	13.2	SCS215a	20111102.101634	20111102.102915	8	0.013328	60	10	60-180	60	120	GapExp	Blank	0	123	2	45	0	target	0	329	-1000	239355	13.328	10.304	16.349
ProbeTrack13	6	ProbeTrack	13.2	SCS215a	20111102.101634	20111102.102921	8	0.013328	60	10	60-180	60	150	GapExp	Blank	0	124	2	0	0	distractor	1	527	737	240092	13.328	12.746	13.898
ProbeTrack13	6	ProbeTrack	13.2	SCS215a	20111102.101634	20111102.102928	8	0.013328	60	10	60-180	60	117	GapExp	Blank	0	125	2	0	0	distractor	1	764	618	240710	13.328	13.309	13.347
ProbeTrack13	6	ProbeTrack	13.2	SCS215a	20111102.101634	20111102.102934	8	0.013328	60	10	60-180	60	121	GapExp	Blank	0	126	2	3	0	distractor	1	574	713	241423	13.328	13.112	13.545
ProbeTrack13	6	ProbeTrack	13.2	SCS215a	20111102.101634	20111102.102940	8	0.013328	60	10	60-180	60	117	GapExp	Blank	0	127	2	45	0	distractor	1	534	733	242156	13.328	9.148	17.500
ProbeTrack13	6	ProbeTrack	13.2	SCS215a	20111102.101634	20111102.102947	8	0.013328	60	10	60-180	60	86	GapExp	Blank	0	128	2	45	0	distractor	1	589	706	242862	13.328	13.308	13.347
ProbeTrack13	6	ProbeTrack	13.2	SCS215a	20111102.101634	20111102.102953	8	0.013328	60	10	60-180	60	153	GapExp	Blank	0	129	2	3	0	target	0	623	-1000	241862	13.328	9.507	17.134
ProbeTrack13	6	ProbeTrack	13.2	SCS215a	20111102.101634	20111102.103000	8	0.013328	60	10	60-180	60	153	GapExp	Blank	0	130	2	3	0	distractor	1	537	732	242594	13.328	12.833	13.824
ProbeTrack13	6	ProbeTrack	13.2	SCS215a	20111102.101634	20111102.103006	8	0.013328	60	10	60-180	60	152	GapExp	Blank	0	131	2	3	0	distractor	1	609	696	243290	13.328	7.205	19.448
ProbeTrack13	6	ProbeTrack	13.2	SCS215a	20111102.101634	20111102.103013	8	0.013328	60	10	60-180	60	88	GapExp	Blank	0	132	2	3	0	distractor	1	689	656	243946	13.328	13.308	13.347
ProbeTrack13	6	ProbeTrack	13.2	SCS215a	20111102.101634	20111102.103018	8	0.013328	60	10	60-180	60	176	GapExp	Blank	0	133	2	0	1	target	1	464	768	244714	13.328	12.723	13.942
ProbeTrack13	6	ProbeTrack	13.2	SCS215a	20111102.101634	20111102.103025	8	0.013328	60	10	60-180	60	140	GapExp	Blank	0	134	2	3	0	target	0	420	-1000	243714	13.328	9.870	16.779
ProbeTrack13	6	ProbeTrack	13.2	SCS215a	20111102.101634	20111102.103031	8	0.013328	60	10	60-180	60	105	GapExp	Blank	0	135	2	0	0	distractor	1	538	731	244445	13.328	12.258	14.398
ProbeTrack13	6	ProbeTrack	13.2	SCS215a	20111102.101634	20111102.103037	8	0.013328	60	10	60-180	60	101	GapExp	Blank	0	136	2	0	1	target	1	536	732	245177	13.328	6.038	20.612
ProbeTrack13	6	ProbeTrack	13.2	SCS215a	20111102.101634	20111102.103043	8	0.013328	60	10	60-180	60	107	GapExp	Blank	0	137	2	45	1	target	1	450	775	245952	13.328	13.309	13.347
ProbeTrack13	6	ProbeTrack	13.2	SCS215a	20111102.101634	20111102.103049	8	0.013328	60	10	60-180	60	106	GapExp	Blank	0	138	2	3	1	target	1	369	816	246768	13.328	13.307	13.353
ProbeTrack13	6	ProbeTrack	13.2	SCS215a	20111102.101634	20111102.103054	8	0.013328	60	10	60-180	60	163	GapExp	Blank	0	139	2	1	0	distractor	1	561	720	247488	13.328	9.704	16.952
ProbeTrack13	6	ProbeTrack	13.2	SCS215a	20111102.101634	20111102.103101	8	0.013328	60	10	60-180	60	108	GapExp	Blank	0	140	2	3	1	target	1	424	788	248276	13.328	7.588	19.059
ProbeTrack13	6	ProbeTrack	13.2	SCS215a	20111102.101634	20111102.103107	8	0.013328	60	10	60-180	60	99	GapExp	Blank	0	141	2	0	1	distractor	0	557	-1000	247276	13.328	8.822	17.838
ProbeTrack13	6	ProbeTrack	13.2	SCS215a	20111102.101634	20111102.103113	8	0.013328	60	10	60-180	60	164	GapExp	Blank	0	142	2	3	1	target	1	499	751	248027	13.328	10.985	15.658
ProbeTrack13	6	ProbeTrack	13.2	SCS215a	20111102.101634	20111102.103119	8	0.013328	60	10	60-180	60	113	GapExp	Blank	0	143	2	3	1	target	1	399	801	248828	13.328	13.098	13.563
ProbeTrack13	6	ProbeTrack	13.2	SCS215a	20111102.101634	20111102.103125	8	0.013328	60	10	60-180	60	97	GapExp	Blank	0	144	2	1	0	distractor	1	554	723	249551	13.328	13.297	13.359
ProbeTrack13	6	ProbeTrack	13.2	SCS215a	20111102.101634	20111102.103130	8	0.013328	60	10	60-180	60	128	GapExp	Blank	0	145	2	3	0	distractor	1	578	711	250262	13.328	13.305	13.351
ProbeTrack13	6	ProbeTrack	13.2	SCS215a	20111102.101634	20111102.103136	8	0.013328	60	10	60-180	60	87	GapExp	Blank	0	146	2	3	0	distractor	1	659	671	250933	13.328	3.717	22.937
ProbeTrack13	6	ProbeTrack	13.2	SCS215a	20111102.101634	20111102.103142	8	0.013328	60	10	60-180	60	84	GapExp	Blank	0	147	2	45	0	target	0	610	-1000	249933	13.328	11.511	15.159
ProbeTrack13	6	ProbeTrack	13.2	SCS215a	20111102.101634	20111102.103148	8	0.013328	60	10	60-180	60	88	GapExp	Blank	0	148	2	45	0	distractor	1	511	745	250678	13.328	13.105	13.559
ProbeTrack13	6	ProbeTrack	13.2	SCS215a	20111102.101634	20111102.103154	8	0.013328	60	10	60-180	60	114	GapExp	Blank	0	149	2	45	0	target	0	563	-1000	249678	13.328	11.421	15.237
ProbeTrack13	6	ProbeTrack	13.2	SCS215a	20111102.101634	20111102.103201	8	0.013328	60	10	60-180	60	117	GapExp	Blank	0	150	2	3	1	target	1	770	615	250293	13.328	13.086	13.564
ProbeTrack13	6	ProbeTrack	13.2	SCS215a	20111102.101634	20111102.103207	8	0.013328	60	10	60-180	60	129	GapExp	Blank	0	151	2	1	1	target	1	402	799	251092	13.328	13.308	13.352
ProbeTrack13	6	ProbeTrack	13.2	SCS215a	20111102.101634	20111102.103213	8	0.013328	60	10	60-180	60	88	GapExp	Blank	0	152	2	45	0	distractor	1	626	687	251779	13.328	13.299	13.351
ProbeTrack13	6	ProbeTrack	13.2	SCS215a	20111102.101634	20111102.103219	8	0.013328	60	10	60-180	60	176	GapExp	Blank	0	153	2	45	0	distractor	1	548	726	252505	13.328	11.754	14.889
ProbeTrack13	6	ProbeTrack	13.2	SCS215a	20111102.101634	20111102.103227	8	0.013328	60	10	60-180	60	177	GapExp	Blank	0	154	2	0	1	target	1	584	708	253213	13.328	10.430	16.238
ProbeTrack13	6	ProbeTrack	13.2	SCS215a	20111102.101634	20111102.103233	8	0.013328	60	10	60-180	60	91	GapExp	Blank	0	155	2	0	0	distractor	1	584	708	253921	13.328	8.451	18.204
ProbeTrack13	6	ProbeTrack	13.2	SCS215a	20111102.101634	20111102.103239	8	0.013328	60	10	60-180	60	75	GapExp	Blank	0	156	2	45	1	target	1	373	814	254735	13.328	13.079	13.576
ProbeTrack13	6	ProbeTrack	13.2	SCS215a	20111102.101634	20111102.103245	8	0.013328	60	10	60-180	60	79	GapExp	Blank	0	157	2	1	1	target	1	713	644	255379	13.328	8.708	17.934
ProbeTrack13	6	ProbeTrack	13.2	SCS215a	20111102.101634	20111102.103251	8	0.013328	60	10	60-180	60	118	GapExp	Blank	0	158	2	1	0	distractor	1	523	739	256118	13.328	13.300	13.354
ProbeTrack13	6	ProbeTrack	13.2	SCS215a	20111102.101634	20111102.103257	8	0.013328	60	10	60-180	60	130	GapExp	Blank	0	159	2	45	1	target	1	465	768	256886	13.328	13.091	13.551
ProbeTrack13	6	ProbeTrack	13.2	SCS215a	20111102.101634	20111102.103303	8	0.013328	60	10	60-180	60	106	GapExp	Blank	0	160	2	1	0	target	0	501	-1000	255886	13.328	13.306	13.346
ProbeTrack13	6	ProbeTrack	13.2	SCS215a	20111102.101634	20111102.103309	8	0.013328	60	10	60-180	60	173	GapExp	Blank	0	161	2	3	1	target	1	478	761	256647	13.328	11.161	15.502
ProbeTrack13	6	ProbeTrack	13.2	SCS215a	20111102.101634	20111102.103316	8	0.013328	60	10	60-180	60	93	GapExp	Blank	0	162	2	45	1	target	1	498	751	257398	13.328	10.475	16.187
ProbeTrack13	6	ProbeTrack	13.2	SCS215a	20111102.101634	20111102.103322	8	0.013328	60	10	60-180	60	165	GapExp	Blank	0	163	2	0	0	distractor	1	602	699	258097	13.328	13.286	13.380
ProbeTrack13	6	ProbeTrack	13.2	SCS215a	20111102.101634	20111102.103328	8	0.013328	60	10	60-180	60	90	GapExp	Blank	0	164	2	1	0	distractor	1	517	742	258839	13.328	13.310	13.348
ProbeTrack13	6	ProbeTrack	13.2	SCS215a	20111102.101634	20111102.103334	8	0.013328	60	10	60-180	60	107	GapExp	Blank	0	165	2	0	1	target	1	504	748	259587	13.328	11.888	14.766
ProbeTrack13	6	ProbeTrack	13.2	SCS215a	20111102.101634	20111102.103339	8	0.013328	60	10	60-180	60	144	GapExp	Blank	0	166	2	0	0	distractor	1	724	638	260225	13.328	13.107	13.543
ProbeTrack13	6	ProbeTrack	13.2	SCS215a	20111102.101634	20111102.103346	8	0.013328	60	10	60-180	60	161	GapExp	Blank	0	167	2	45	1	distractor	0	516	-1000	259225	13.328	13.085	13.555
ProbeTrack13	6	ProbeTrack	13.2	SCS215a	20111102.101634	20111102.103353	8	0.013328	60	10	60-180	60	130	GapExp	Blank	0	168	2	45	0	distractor	1	824	588	259813	13.328	10.446	16.201
ProbeTrack13	6	ProbeTrack	13.2	SCS215a	20111102.101634	20111102.103400	8	0.013328	60	10	60-180	60	149	GapExp	Blank	0	169	2	1	0	distractor	1	595	703	260516	13.328	7.173	19.493
ProbeTrack13	6	ProbeTrack	13.2	SCS215a	20111102.101634	20111102.103407	8	0.013328	60	10	60-180	60	85	GapExp	Blank	0	170	2	1	0	distractor	1	713	644	261160	13.328	5.044	21.610
ProbeTrack13	6	ProbeTrack	13.2	SCS215a	20111102.101634	20111102.103412	8	0.013328	60	10	60-180	60	109	GapExp	Blank	0	171	2	3	1	target	1	589	706	261866	13.328	13.308	13.346
ProbeTrack13	6	ProbeTrack	13.2	SCS215a	20111102.101634	20111102.103418	8	0.013328	60	10	60-180	60	162	GapExp	Blank	0	172	2	0	1	distractor	0	682	-1000	260866	13.328	13.304	13.345
ProbeTrack13	6	ProbeTrack	13.2	SCS215a	20111102.101634	20111102.103426	8	0.013328	60	10	60-180	60	141	GapExp	Blank	0	173	2	3	0	distractor	1	628	686	261552	13.328	7.350	19.306
ProbeTrack13	6	ProbeTrack	13.2	SCS215a	20111102.101634	20111102.103432	8	0.013328	60	10	60-180	60	153	GapExp	Blank	0	174	2	1	1	target	1	477	762	262314	13.328	13.306	13.348
ProbeTrack13	6	ProbeTrack	13.2	SCS215a	20111102.101634	20111102.103439	8	0.013328	60	10	60-180	60	172	GapExp	Blank	0	175	2	45	0	distractor	1	633	684	262998	13.328	13.293	13.371
ProbeTrack13	6	ProbeTrack	13.2	SCS215a	20111102.101634	20111102.103446	8	0.013328	60	10	60-180	60	148	GapExp	Blank	0	176	2	45	0	distractor	1	593	704	263702	13.328	12.431	14.218
ProbeTrack13	6	ProbeTrack	13.2	SCS215a	20111102.101634	20111102.103453	8	0.013328	60	10	60-180	60	64	GapExp	Blank	0	177	2	1	0	distractor	1	597	702	264404	13.328	13.309	13.354
ProbeTrack13	6	ProbeTrack	13.2	SCS215a	20111102.101634	20111102.103459	8	0.013328	60	10	60-180	60	156	GapExp	Blank	0	178	2	0	1	target	1	425	788	265192	13.328	10.549	16.111
ProbeTrack13	6	ProbeTrack	13.2	SCS215a	20111102.101634	20111102.103505	8	0.013328	60	10	60-180	60	86	GapExp	Blank	0	179	2	45	0	distractor	1	599	701	265893	13.328	13.308	13.347
ProbeTrack13	6	ProbeTrack	13.2	SCS215a	20111102.101634	20111102.103511	8	0.013328	60	10	60-180	60	122	GapExp	Blank	0	180	2	1	0	distractor	1	522	739	266632	13.328	7.348	19.322
ProbeTrack13	6	ProbeTrack	13.2	SCS215a	20111102.101634	20111102.103517	8	0.013328	60	10	60-180	60	168	GapExp	Blank	0	181	2	3	0	distractor	1	542	729	267361	13.328	9.097	17.558
ProbeTrack13	6	ProbeTrack	13.2	SCS215a	20111102.101634	20111102.103523	8	0.013328	60	10	60-180	60	94	GapExp	Blank	0	182	2	1	0	distractor	1	676	662	268023	13.328	13.259	13.403
ProbeTrack13	6	ProbeTrack	13.2	SCS215a	20111102.101634	20111102.103530	8	0.013328	60	10	60-180	60	85	GapExp	Blank	0	183	2	45	1	target	1	792	604	268627	13.328	5.830	21.538
ProbeTrack13	6	ProbeTrack	13.2	SCS215a	20111102.101634	20111102.103536	8	0.013328	60	10	60-180	60	96	GapExp	Blank	0	184	2	1	1	target	1	449	776	269403	13.328	13.309	13.344
ProbeTrack13	6	ProbeTrack	13.2	SCS215a	20111102.101634	20111102.103542	8	0.013328	60	10	60-180	60	65	GapExp	Blank	0	185	2	3	0	distractor	1	479	761	270164	13.328	13.298	13.350
ProbeTrack13	6	ProbeTrack	13.2	SCS215a	20111102.101634	20111102.103547	8	0.013328	60	10	60-180	60	103	GapExp	Blank	0	186	2	3	1	target	1	408	796	270960	13.328	13.104	13.555
ProbeTrack13	6	ProbeTrack	13.2	SCS215a	20111102.101634	20111102.103552	8	0.013328	60	10	60-180	60	84	GapExp	Blank	0	187	2	3	1	target	1	352	824	271784	13.328	13.308	13.347
ProbeTrack13	6	ProbeTrack	13.2	SCS215a	20111102.101634	20111102.103558	8	0.013328	60	10	60-180	60	125	GapExp	Blank	0	188	2	45	0	distractor	1	615	693	272477	13.328	13.306	13.346
ProbeTrack13	6	ProbeTrack	13.2	SCS215a	20111102.101634	20111102.103605	8	0.013328	60	10	60-180	60	149	GapExp	Blank	0	189	2	0	1	target	1	426	787	273264	13.328	11.764	14.885
ProbeTrack13	6	ProbeTrack	13.2	SCS215a	20111102.101634	20111102.103611	8	0.013328	60	10	60-180	60	66	GapExp	Blank	0	190	2	0	1	target	1	496	752	274016	13.328	13.306	13.353
ProbeTrack13	6	ProbeTrack	13.2	SCS215a	20111102.101634	20111102.103617	8	0.013328	60	10	60-180	60	134	GapExp	Blank	0	191	2	45	0	distractor	1	797	602	274618	13.328	4.293	22.344
ProbeTrack13	6	ProbeTrack	13.2	SCS215a	20111102.101634	20111102.103624	8	0.013328	60	10	60-180	60	179	GapExp	Blank	0	192	2	3	1	target	1	420	790	275408	13.328	13.299	13.364
ProbeTrack13	6	ProbeTrack	13.2	SCS215a	20111102.101634	20111102.103631	8	0.013328	60	10	60-180	60	82	GapExp	Blank	0	193	2	1	1	target	1	370	815	276223	13.328	13.313	13.358
ProbeTrack13	6	ProbeTrack	13.2	SCS215a	20111102.101634	20111102.103637	8	0.013328	60	10	60-180	60	83	GapExp	Blank	0	194	2	1	0	target	0	2072	-1000	275223	13.328	13.092	13.563
ProbeTrack13	6	ProbeTrack	13.2	SCS215a	20111102.101634	20111102.103644	8	0.013328	60	10	60-180	60	140	GapExp	Blank	0	195	2	1	1	early	-4	-1700	-1000	274223	13.328	13.307	13.344
ProbeTrack13	6	ProbeTrack	13.2	SCS215a	20111102.101634	20111102.103650	8	0.013328	60	10	60-180	60	108	GapExp	Blank	0	196	2	3	1	target	1	525	738	274961	13.328	13.093	13.558
ProbeTrack13	6	ProbeTrack	13.2	SCS215a	20111102.101634	20111102.103656	8	0.013328	60	10	60-180	60	81	GapExp	Blank	0	197	2	3	0	distractor	1	511	745	275706	13.328	10.659	15.992
ProbeTrack13	6	ProbeTrack	13.2	SCS215a	20111102.101634	20111102.103701	8	0.013328	60	10	60-180	60	100	GapExp	Blank	0	198	2	3	0	distractor	1	426	787	276493	13.328	13.301	13.343
ProbeTrack13	6	ProbeTrack	13.2	SCS215a	20111102.101634	20111102.103707	8	0.013328	60	10	60-180	60	143	GapExp	Blank	0	199	2	45	0	distractor	1	341	830	277323	13.328	13.306	13.349
ProbeTrack13	6	ProbeTrack	13.2	SCS215a	20111102.101634	20111102.103714	8	0.013328	60	10	60-180	60	109	GapExp	Blank	0	200	2	1	1	target	1	514	743	278066	13.328	11.672	14.987
ProbeTrack13	6	ProbeTrack	13.2	SCS215a	20111102.103921	20111102.103928	8	0.013328	60	10	60-180	60	65	GapPrac	BigFlash	1	1	2	3	0	distractor	1	737	632	278698	13.391	13.309	13.346
ProbeTrack13	6	ProbeTrack	13.2	SCS215a	20111102.103921	20111102.103934	8	0.013328	60	10	60-180	60	137	GapPrac	BigFlash	1	2	2	0	0	distractor	1	498	751	279449	13.328	13.310	13.350
ProbeTrack13	6	ProbeTrack	13.2	SCS215a	20111102.103921	20111102.103941	8	0.013328	60	10	60-180	60	180	GapPrac	BigFlash	1	3	2	45	0	distractor	1	529	736	280185	13.328	13.263	13.393
ProbeTrack13	6	ProbeTrack	13.2	SCS215a	20111102.103921	20111102.103948	8	0.013328	60	10	60-180	60	177	GapPrac	BigFlash	1	4	2	3	1	target	1	430	785	280970	13.328	13.296	13.361
ProbeTrack13	6	ProbeTrack	13.2	SCS215a	20111102.103921	20111102.103954	8	0.013328	60	10	60-180	60	177	GapPrac	BigFlash	1	5	2	45	1	target	1	433	784	281754	13.328	7.678	18.619
ProbeTrack13	6	ProbeTrack	13.2	SCS215a	20111102.103921	20111102.104001	8	0.013328	60	10	60-180	60	135	GapPrac	BigFlash	1	6	2	3	0	distractor	1	633	684	282438	13.328	9.402	17.252
ProbeTrack13	6	ProbeTrack	13.2	SCS215a	20111102.103921	20111102.104008	8	0.013328	60	10	60-180	60	94	GapPrac	BigFlash	1	7	2	0	1	target	1	479	761	283199	13.328	3.896	22.748
ProbeTrack13	6	ProbeTrack	13.2	SCS215a	20111102.103921	20111102.104013	8	0.013328	60	10	60-180	60	175	GapPrac	BigFlash	1	8	2	1	1	target	1	416	792	283991	13.328	7.327	19.329
ProbeTrack13	6	ProbeTrack	13.2	SCS215a	20111102.103921	20111102.104020	8	0.013328	60	10	60-180	60	97	GapPrac	BigFlash	1	9	2	1	0	distractor	1	565	718	284709	13.328	11.628	15.025
ProbeTrack13	6	ProbeTrack	13.2	SCS215a	20111102.103921	20111102.104026	8	0.013328	60	10	60-180	60	135	GapPrac	BigFlash	1	10	2	1	0	distractor	1	500	750	285459	13.328	13.102	13.550
ProbeTrack13	6	ProbeTrack	13.2	SCS215a	20111102.103921	20111102.104031	8	0.013328	60	10	60-180	60	132	GapPrac	BigFlash	1	11	2	0	0	distractor	1	545	728	286187	13.328	10.319	16.340
ProbeTrack13	6	ProbeTrack	13.2	SCS215a	20111102.103921	20111102.104037	8	0.013328	60	10	60-180	60	61	GapPrac	BigFlash	1	12	2	45	0	distractor	1	599	701	286888	13.328	13.305	13.348
ProbeTrack13	6	ProbeTrack	13.2	SCS215a	20111102.103921	20111102.104044	8	0.013328	60	10	60-180	60	68	GapPrac	BigFlash	1	13	2	0	1	target	1	530	735	287623	13.328	6.489	20.162
ProbeTrack13	6	ProbeTrack	13.2	SCS215a	20111102.103921	20111102.104049	8	0.013328	60	10	60-180	60	131	GapPrac	BigFlash	1	14	2	45	1	distractor	0	519	-1000	286623	13.328	13.093	13.550
ProbeTrack13	6	ProbeTrack	13.2	SCS215a	20111102.103921	20111102.104056	8	0.013328	60	10	60-180	60	149	GapPrac	BigFlash	1	15	2	3	1	target	1	409	796	287419	13.328	13.106	13.550
ProbeTrack13	6	ProbeTrack	13.2	SCS215a	20111102.103921	20111102.104102	8	0.013328	60	10	60-180	60	165	GapPrac	BigFlash	1	16	2	1	1	target	1	397	802	288221	13.328	9.873	16.784
ProbeTrack13	6	ProbeTrack	13.2	SCS215a	20111102.103921	20111102.104108	8	0.013328	60	10	60-180	60	78	GapPrac	BigFlash	1	17	2	0	0	target	0	530	-1000	287221	13.328	13.308	13.344
ProbeTrack13	6	ProbeTrack	13.2	SCS215a	20111102.103921	20111102.104114	8	0.013328	60	10	60-180	60	132	GapPrac	BigFlash	1	18	2	3	1	target	1	414	793	288014	13.328	12.533	14.122
ProbeTrack13	6	ProbeTrack	13.2	SCS215a	20111102.103921	20111102.104120	8	0.013328	60	10	60-180	60	165	GapPrac	BigFlash	1	19	2	3	0	distractor	1	485	758	288772	13.328	13.086	13.571
ProbeTrack13	6	ProbeTrack	13.2	SCS215a	20111102.103921	20111102.104127	8	0.013328	60	10	60-180	60	61	GapPrac	BigFlash	1	20	2	45	0	distractor	1	531	735	289507	13.328	13.280	13.351
ProbeTrack13	6	ProbeTrack	13.2	SCS215a	20111102.104200	20111102.104204	8	0.013328	60	10	60-180	60	129	GapExp	BigFlash	1	1	2	1	1	target	1	402	799	290306	13.382	13.092	13.563
ProbeTrack13	6	ProbeTrack	13.2	SCS215a	20111102.104200	20111102.104212	8	0.013328	60	10	60-180	60	121	GapExp	BigFlash	1	2	2	3	0	distractor	1	969	516	290822	13.328	12.770	13.881
ProbeTrack13	6	ProbeTrack	13.2	SCS215a	20111102.104200	20111102.104219	8	0.013328	60	10	60-180	60	129	GapExp	BigFlash	1	3	2	45	0	distractor	1	534	733	291555	13.328	9.216	17.434
ProbeTrack13	6	ProbeTrack	13.2	SCS215a	20111102.104200	20111102.104225	8	0.013328	60	10	60-180	60	147	GapExp	BigFlash	1	4	2	0	0	distractor	1	522	739	292294	13.328	8.356	18.307
ProbeTrack13	6	ProbeTrack	13.2	SCS215a	20111102.104200	20111102.104232	8	0.013328	60	10	60-180	60	111	GapExp	BigFlash	1	5	2	1	0	distractor	1	488	756	293050	13.328	10.988	15.662
ProbeTrack13	6	ProbeTrack	13.2	SCS215a	20111102.104200	20111102.104237	8	0.013328	60	10	60-180	60	81	GapExp	BigFlash	1	6	2	45	1	target	1	395	803	293853	13.328	13.306	13.346
ProbeTrack13	6	ProbeTrack	13.2	SCS215a	20111102.104200	20111102.104244	8	0.013328	60	10	60-180	60	87	GapExp	BigFlash	1	7	2	3	1	target	1	384	808	294661	13.328	13.308	13.353
ProbeTrack13	6	ProbeTrack	13.2	SCS215a	20111102.104200	20111102.104249	8	0.013328	60	10	60-180	60	79	GapExp	BigFlash	1	8	2	0	1	target	1	528	736	295397	13.328	13.298	13.357
ProbeTrack13	6	ProbeTrack	13.2	SCS215a	20111102.104200	20111102.104254	8	0.013328	60	10	60-180	60	151	GapExp	BigFlash	0	9	2	45	1	target	1	428	786	296183	13.328	13.103	13.558
ProbeTrack13	6	ProbeTrack	13.2	SCS215a	20111102.104200	20111102.104301	8	0.013328	60	10	60-180	60	107	GapExp	BigFlash	0	10	2	3	0	distractor	1	498	751	296934	13.328	10.877	18.208
ProbeTrack13	6	ProbeTrack	13.2	SCS215a	20111102.104200	20111102.104306	8	0.013328	60	10	60-180	60	104	GapExp	BigFlash	0	11	2	45	0	distractor	1	511	745	297679	13.328	13.094	13.547
ProbeTrack13	6	ProbeTrack	13.2	SCS215a	20111102.104200	20111102.104313	8	0.013328	60	10	60-180	60	137	GapExp	BigFlash	0	12	2	0	0	distractor	1	752	624	298303	13.328	13.103	13.566
ProbeTrack13	6	ProbeTrack	13.2	SCS215a	20111102.104200	20111102.104319	8	0.013328	60	10	60-180	60	87	GapExp	BigFlash	0	13	2	45	0	distractor	1	533	734	299037	13.328	12.320	14.328
ProbeTrack13	6	ProbeTrack	13.2	SCS215a	20111102.104200	20111102.104325	8	0.013328	60	10	60-180	60	86	GapExp	BigFlash	0	14	2	3	1	target	1	551	725	299762	13.328	5.129	21.542
ProbeTrack13	6	ProbeTrack	13.2	SCS215a	20111102.104200	20111102.104331	8	0.013328	60	10	60-180	60	164	GapExp	BigFlash	0	15	2	1	0	distractor	1	492	754	300516	13.328	13.246	13.411
ProbeTrack13	6	ProbeTrack	13.2	SCS215a	20111102.104200	20111102.104337	8	0.013328	60	10	60-180	60	112	GapExp	BigFlash	0	16	2	3	0	distractor	1	419	791	301307	13.328	12.972	13.818
ProbeTrack13	6	ProbeTrack	13.2	SCS215a	20111102.104200	20111102.104343	8	0.013328	60	10	60-180	60	63	GapExp	BigFlash	0	17	2	0	0	distractor	1	537	732	302039	13.328	9.283	17.375
ProbeTrack13	6	ProbeTrack	13.2	SCS215a	20111102.104200	20111102.104348	8	0.013328	60	10	60-180	60	68	GapExp	BigFlash	0	18	2	0	0	distractor	1	525	738	302777	13.328	11.764	14.884
ProbeTrack13	6	ProbeTrack	13.2	SCS215a	20111102.104200	20111102.104354	8	0.013328	60	10	60-180	60	78	GapExp	BigFlash	0	19	2	0	0	distractor	1	426	787	303564	13.328	13.312	13.347
ProbeTrack13	6	ProbeTrack	13.2	SCS215a	20111102.104200	20111102.104359	8	0.013328	60	10	60-180	60	85	GapExp	BigFlash	0	20	2	45	1	target	1	387	807	304371	13.328	12.198	14.458
ProbeTrack13	6	ProbeTrack	13.2	SCS215a	20111102.104200	20111102.104405	8	0.013328	60	10	60-180	60	165	GapExp	BigFlash	0	21	2	0	1	target	1	404	798	305169	13.328	13.105	13.564
ProbeTrack13	6	ProbeTrack	13.2	SCS215a	20111102.104200	20111102.104411	8	0.013328	60	10	60-180	60	105	GapExp	BigFlash	0	22	2	45	0	distractor	1	469	766	305935	13.328	13.104	13.565
ProbeTrack13	6	ProbeTrack	13.2	SCS215a	20111102.104200	20111102.104418	8	0.013328	60	10	60-180	60	118	GapExp	BigFlash	0	23	2	1	1	target	1	422	789	306724	13.328	13.093	13.563
ProbeTrack13	6	ProbeTrack	13.2	SCS215a	20111102.104200	20111102.104423	8	0.013328	60	10	60-180	60	153	GapExp	BigFlash	0	24	2	45	1	target	1	373	814	307538	13.328	11.228	15.425
ProbeTrack13	6	ProbeTrack	13.2	SCS215a	20111102.104200	20111102.104430	8	0.013328	60	10	60-180	60	69	GapExp	BigFlash	0	25	2	1	1	target	1	425	788	308326	13.328	13.304	13.342
ProbeTrack13	6	ProbeTrack	13.2	SCS215a	20111102.104200	20111102.104436	8	0.013328	60	10	60-180	60	105	GapExp	BigFlash	0	26	2	45	1	target	1	397	802	309128	13.328	13.301	13.348
ProbeTrack13	6	ProbeTrack	13.2	SCS215a	20111102.104200	20111102.104442	8	0.013328	60	10	60-180	60	153	GapExp	BigFlash	0	27	2	0	0	distractor	1	563	719	309847	13.328	10.044	16.627
ProbeTrack13	6	ProbeTrack	13.2	SCS215a	20111102.104200	20111102.104449	8	0.013328	60	10	60-180	60	78	GapExp	BigFlash	0	28	2	1	1	target	1	465	768	310615	13.328	13.309	13.344
ProbeTrack13	6	ProbeTrack	13.2	SCS215a	20111102.104200	20111102.104454	8	0.013328	60	10	60-180	60	72	GapExp	BigFlash	0	29	2	1	0	distractor	1	489	756	311371	13.328	13.098	13.545
ProbeTrack13	6	ProbeTrack	13.2	SCS215a	20111102.104200	20111102.104459	8	0.013328	60	10	60-180	60	176	GapExp	BigFlash	0	30	2	0	1	target	1	352	824	312195	13.328	10.902	15.749
ProbeTrack13	6	ProbeTrack	13.2	SCS215a	20111102.104200	20111102.104506	8	0.013328	60	10	60-180	60	75	GapExp	BigFlash	0	31	2	45	1	target	1	378	811	313006	13.328	13.302	13.353
ProbeTrack13	6	ProbeTrack	13.2	SCS215a	20111102.104200	20111102.104512	8	0.013328	60	10	60-180	60	133	GapExp	BigFlash	0	32	2	3	0	distractor	1	473	764	313770	13.328	12.049	14.620
ProbeTrack13	6	ProbeTrack	13.2	SCS215a	20111102.104200	20111102.104518	8	0.013328	60	10	60-180	60	165	GapExp	BigFlash	0	33	2	0	1	target	1	378	811	314581	13.328	10.473	16.197
ProbeTrack13	6	ProbeTrack	13.2	SCS215a	20111102.104200	20111102.104524	8	0.013328	60	10	60-180	60	121	GapExp	BigFlash	0	34	2	0	1	target	1	366	817	315398	13.328	8.878	17.784
ProbeTrack13	6	ProbeTrack	13.2	SCS215a	20111102.104200	20111102.104530	8	0.013328	60	10	60-180	60	126	GapExp	BigFlash	0	35	2	45	1	target	1	437	782	316180	13.328	9.785	16.858
ProbeTrack13	6	ProbeTrack	13.2	SCS215a	20111102.104200	20111102.104537	8	0.013328	60	10	60-180	60	67	GapExp	BigFlash	0	36	2	3	1	target	1	372	814	316994	13.328	9.907	16.764
ProbeTrack13	6	ProbeTrack	13.2	SCS215a	20111102.104200	20111102.104542	8	0.013328	60	10	60-180	60	144	GapExp	BigFlash	0	37	2	45	1	target	1	376	812	317806	13.328	13.087	13.550
ProbeTrack13	6	ProbeTrack	13.2	SCS215a	20111102.104200	20111102.104549	8	0.013328	60	10	60-180	60	160	GapExp	BigFlash	0	38	2	1	1	target	1	341	830	318636	13.328	5.706	20.958
ProbeTrack13	6	ProbeTrack	13.2	SCS215a	20111102.104200	20111102.104555	8	0.013328	60	10	60-180	60	164	GapExp	BigFlash	0	39	2	45	0	distractor	1	733	634	319270	13.328	9.943	16.708
ProbeTrack13	6	ProbeTrack	13.2	SCS215a	20111102.104200	20111102.104603	8	0.013328	60	10	60-180	60	93	GapExp	BigFlash	0	40	2	45	0	distractor	1	745	628	319898	13.328	8.915	17.749
ProbeTrack13	6	ProbeTrack	13.2	SCS215a	20111102.104200	20111102.104610	8	0.013328	60	10	60-180	60	121	GapExp	BigFlash	0	41	2	45	1	target	1	2071	0	319898	13.328	13.279	13.363
ProbeTrack13	6	ProbeTrack	13.2	SCS215a	20111102.104200	20111102.104617	8	0.013328	60	10	60-180	60	91	GapExp	BigFlash	0	42	2	1	0	target	0	3698	-1000	318898	13.328	13.092	13.560
ProbeTrack13	6	ProbeTrack	13.2	SCS215a	20111102.104200	20111102.104627	8	0.013328	60	10	60-180	60	89	GapExp	BigFlash	0	43	2	1	1	target	1	956	522	319420	13.328	13.206	13.498
ProbeTrack13	6	ProbeTrack	13.2	SCS215a	20111102.104200	20111102.104633	8	0.013328	60	10	60-180	60	93	GapExp	BigFlash	0	44	2	0	1	target	1	356	822	320242	13.328	5.283	21.356
ProbeTrack13	6	ProbeTrack	13.2	SCS215a	20111102.104200	20111102.104638	8	0.013328	60	10	60-180	60	131	GapExp	BigFlash	0	45	2	1	0	distractor	1	445	778	321020	13.328	10.749	15.893
ProbeTrack13	6	ProbeTrack	13.2	SCS215a	20111102.104200	20111102.104644	8	0.013328	60	10	60-180	60	104	GapExp	BigFlash	0	46	2	0	1	target	1	375	813	321833	13.328	10.741	15.910
ProbeTrack13	6	ProbeTrack	13.2	SCS215a	20111102.104200	20111102.104650	8	0.013328	60	10	60-180	60	148	GapExp	BigFlash	0	47	2	0	0	distractor	1	503	749	322582	13.328	13.099	13.564
ProbeTrack13	6	ProbeTrack	13.2	SCS215a	20111102.104200	20111102.104656	8	0.013328	60	10	60-180	60	71	GapExp	BigFlash	0	48	2	1	1	target	1	419	791	323373	13.328	13.303	13.349
ProbeTrack13	6	ProbeTrack	13.2	SCS215a	20111102.104200	20111102.104701	8	0.013328	60	10	60-180	60	103	GapExp	BigFlash	0	49	2	0	0	distractor	1	440	780	324153	13.328	12.313	14.359
ProbeTrack13	6	ProbeTrack	13.2	SCS215a	20111102.104200	20111102.104707	8	0.013328	60	10	60-180	60	179	GapExp	BigFlash	0	50	2	0	1	target	1	396	802	324955	13.328	13.084	13.565
ProbeTrack13	6	ProbeTrack	13.2	SCS215a	20111102.104200	20111102.104713	8	0.013328	60	10	60-180	60	113	GapExp	BigFlash	0	51	2	0	0	distractor	1	505	748	325703	13.328	13.100	13.562
ProbeTrack13	6	ProbeTrack	13.2	SCS215a	20111102.104200	20111102.104719	8	0.013328	60	10	60-180	60	119	GapExp	BigFlash	0	52	2	45	1	target	1	370	815	326518	13.328	13.307	13.346
ProbeTrack13	6	ProbeTrack	13.2	SCS215a	20111102.104200	20111102.104726	8	0.013328	60	10	60-180	60	108	GapExp	BigFlash	0	53	2	3	1	target	1	339	831	327349	13.328	13.105	13.557
ProbeTrack13	6	ProbeTrack	13.2	SCS215a	20111102.104200	20111102.104731	8	0.013328	60	10	60-180	60	114	GapExp	BigFlash	0	54	2	0	0	distractor	1	405	798	328147	13.328	12.092	14.576
ProbeTrack13	6	ProbeTrack	13.2	SCS215a	20111102.104200	20111102.104738	8	0.013328	60	10	60-180	60	114	GapExp	BigFlash	0	55	2	1	1	target	1	413	794	328941	13.328	13.308	13.350
ProbeTrack13	6	ProbeTrack	13.2	SCS215a	20111102.104200	20111102.104743	8	0.013328	60	10	60-180	60	174	GapExp	BigFlash	0	56	2	3	1	target	1	347	827	329768	13.328	6.885	19.779
ProbeTrack13	6	ProbeTrack	13.2	SCS215a	20111102.104200	20111102.104750	8	0.013328	60	10	60-180	60	146	GapExp	BigFlash	0	57	2	1	1	target	1	368	816	330584	13.328	13.307	13.348
ProbeTrack13	6	ProbeTrack	13.2	SCS215a	20111102.104200	20111102.104756	8	0.013328	60	10	60-180	60	147	GapExp	BigFlash	0	58	2	1	0	distractor	1	487	757	331341	13.328	9.999	16.650
ProbeTrack13	6	ProbeTrack	13.2	SCS215a	20111102.104200	20111102.104802	8	0.013328	60	10	60-180	60	170	GapExp	BigFlash	0	59	2	3	0	target	0	630	-1000	330341	13.328	5.448	22.494
ProbeTrack13	6	ProbeTrack	13.2	SCS215a	20111102.104200	20111102.104809	8	0.013328	60	10	60-180	60	90	GapExp	BigFlash	0	60	2	0	1	target	1	374	813	331154	13.328	13.105	13.551
ProbeTrack13	6	ProbeTrack	13.2	SCS215a	20111102.104200	20111102.104814	8	0.013328	60	10	60-180	60	83	GapExp	BigFlash	0	61	2	45	1	target	1	419	791	331945	13.328	13.104	13.538
ProbeTrack13	6	ProbeTrack	13.2	SCS215a	20111102.104200	20111102.104820	8	0.013328	60	10	60-180	60	108	GapExp	BigFlash	0	62	2	3	0	distractor	1	446	777	332722	13.328	13.301	13.364
ProbeTrack13	6	ProbeTrack	13.2	SCS215a	20111102.104200	20111102.104826	8	0.013328	60	10	60-180	60	91	GapExp	BigFlash	0	63	2	3	1	target	1	502	749	333471	13.328	12.564	14.099
ProbeTrack13	6	ProbeTrack	13.2	SCS215a	20111102.104200	20111102.104832	8	0.013328	60	10	60-180	60	176	GapExp	BigFlash	0	64	2	1	1	distractor	0	635	-1000	332471	13.328	13.308	13.348
ProbeTrack13	6	ProbeTrack	13.2	SCS215a	20111102.104200	20111102.104838	8	0.013328	60	10	60-180	60	117	GapExp	BigFlash	0	65	2	3	1	target	1	415	793	333264	13.328	13.300	13.353
ProbeTrack13	6	ProbeTrack	13.2	SCS215a	20111102.104200	20111102.104844	8	0.013328	60	10	60-180	60	62	GapExp	BigFlash	0	66	2	1	1	target	1	649	676	333940	13.328	13.097	13.551
ProbeTrack13	6	ProbeTrack	13.2	SCS215a	20111102.104200	20111102.104849	8	0.013328	60	10	60-180	60	180	GapExp	BigFlash	0	67	2	45	0	distractor	1	410	795	334735	13.328	13.108	13.548
ProbeTrack13	6	ProbeTrack	13.2	SCS215a	20111102.104200	20111102.104857	8	0.013328	60	10	60-180	60	86	GapExp	BigFlash	0	68	2	45	1	target	1	435	783	335518	13.328	10.340	16.303
ProbeTrack13	6	ProbeTrack	13.2	SCS215a	20111102.104200	20111102.104903	8	0.013328	60	10	60-180	60	149	GapExp	BigFlash	0	69	2	1	0	distractor	1	296	852	336370	13.328	10.836	15.821
ProbeTrack13	6	ProbeTrack	13.2	SCS215a	20111102.104200	20111102.104909	8	0.013328	60	10	60-180	60	123	GapExp	BigFlash	0	70	2	1	1	target	1	404	798	337168	13.328	13.309	13.348
