exp	sub	code	rev	comp	runtime	trialtime	nstim	refreshdur	cuedur	gapdur	gapOnsetRange	durPostProbe	gapOnsetTime	blocktype	gaptype	prac	trial	ntargets	soa	probeTarget	resp	acc	rt	pts	tpts	meanFrameDur	minFrameDur	maxFrameDur
ProbeTrack13	1	ProbeTrack	13.2	SCS215a	20111031.091407	20111031.091429	8	0.013328	60	0	60-180	60	171	NoGap	None	1	1	2	3	0	distractor	1	1638	181	181	13.371	9.558	17.108
ProbeTrack13	1	ProbeTrack	13.2	SCS215a	20111031.091407	20111031.091450	8	0.013328	60	0	60-180	60	124	NoGap	None	1	2	2	3	1	target	1	1307	347	528	13.328	13.098	13.572
ProbeTrack13	1	ProbeTrack	13.2	SCS215a	20111031.091407	20111031.091459	8	0.013328	60	0	60-180	60	136	NoGap	None	1	3	2	0	0	distractor	1	1528	236	764	13.328	13.092	13.550
ProbeTrack13	1	ProbeTrack	13.2	SCS215a	20111031.091407	20111031.091513	8	0.013328	60	0	60-180	60	145	NoGap	None	1	4	2	45	1	target	1	641	680	1444	13.328	11.476	15.183
ProbeTrack13	1	ProbeTrack	13.2	SCS215a	20111031.091407	20111031.091524	8	0.013328	60	0	60-180	60	75	NoGap	None	1	5	2	1	0	target	0	1421	-1000	444	13.328	13.098	13.544
ProbeTrack13	1	ProbeTrack	13.2	SCS215a	20111031.091407	20111031.091532	8	0.013328	60	0	60-180	60	140	NoGap	None	1	6	2	0	1	target	1	973	514	958	13.328	13.092	13.551
ProbeTrack13	1	ProbeTrack	13.2	SCS215a	20111031.091407	20111031.091541	8	0.013328	60	0	60-180	60	91	NoGap	None	1	7	2	1	0	distractor	1	1029	486	1444	13.328	12.463	14.187
ProbeTrack13	1	ProbeTrack	13.2	SCS215a	20111031.091407	20111031.091548	8	0.013328	60	0	60-180	60	64	NoGap	None	1	8	2	0	0	distractor	1	1046	477	1921	13.328	13.309	13.348
ProbeTrack13	1	ProbeTrack	13.2	SCS215a	20111031.091407	20111031.091555	8	0.013328	60	0	60-180	60	122	NoGap	None	1	9	2	1	0	distractor	1	652	674	2595	13.328	4.756	21.900
ProbeTrack13	1	ProbeTrack	13.2	SCS215a	20111031.091407	20111031.091603	8	0.013328	60	0	60-180	60	121	NoGap	None	1	10	2	45	1	target	1	539	731	3326	13.328	10.539	16.126
ProbeTrack13	1	ProbeTrack	13.2	SCS215a	20111031.091407	20111031.091610	8	0.013328	60	0	60-180	60	110	NoGap	None	1	11	2	0	1	target	1	735	633	3959	13.328	10.391	16.272
ProbeTrack13	1	ProbeTrack	13.2	SCS215a	20111031.091407	20111031.091617	8	0.013328	60	0	60-180	60	111	NoGap	None	1	12	2	45	0	distractor	1	1023	489	4448	13.328	13.309	13.348
ProbeTrack13	1	ProbeTrack	13.2	SCS215a	20111031.091407	20111031.091625	8	0.013328	60	0	60-180	60	77	NoGap	None	1	13	2	1	0	target	0	728	-1000	3448	13.328	13.308	13.343
ProbeTrack13	1	ProbeTrack	13.2	SCS215a	20111031.091407	20111031.091631	8	0.013328	60	0	60-180	60	63	NoGap	None	1	14	2	3	1	target	1	1672	164	3612	13.328	13.307	13.350
ProbeTrack13	1	ProbeTrack	13.2	SCS215a	20111031.091407	20111031.091638	8	0.013328	60	0	60-180	60	152	NoGap	None	1	15	2	1	1	target	1	580	710	4322	13.328	13.078	13.600
ProbeTrack13	1	ProbeTrack	13.2	SCS215a	20111031.091407	20111031.091645	8	0.013328	60	0	60-180	60	113	NoGap	None	1	16	2	1	0	distractor	1	748	626	4948	13.328	13.307	13.344
ProbeTrack13	1	ProbeTrack	13.2	SCS215a	20111031.091407	20111031.091652	8	0.013328	60	0	60-180	60	137	NoGap	None	1	17	2	45	1	target	1	475	763	5711	13.328	8.907	17.767
ProbeTrack13	1	ProbeTrack	13.2	SCS215a	20111031.091407	20111031.091700	8	0.013328	60	0	60-180	60	140	NoGap	None	1	18	2	1	1	target	1	508	746	6457	13.328	13.309	13.348
ProbeTrack13	1	ProbeTrack	13.2	SCS215a	20111031.091407	20111031.091707	8	0.013328	60	0	60-180	60	156	NoGap	None	1	19	2	3	0	distractor	1	452	774	7231	13.328	13.309	13.345
ProbeTrack13	1	ProbeTrack	13.2	SCS215a	20111031.091407	20111031.091714	8	0.013328	60	0	60-180	60	99	NoGap	None	1	20	2	45	1	target	1	594	703	7934	13.328	13.312	13.347
ProbeTrack13	1	ProbeTrack	13.2	SCS215a	20111031.091407	20111031.091720	8	0.013328	60	0	60-180	60	177	NoGap	None	1	21	2	45	0	distractor	1	421	790	8724	13.328	13.076	13.581
ProbeTrack13	1	ProbeTrack	13.2	SCS215a	20111031.091407	20111031.091728	8	0.013328	60	0	60-180	60	138	NoGap	None	1	22	2	3	1	target	1	507	747	9471	13.327	12.322	14.358
ProbeTrack13	1	ProbeTrack	13.2	SCS215a	20111031.091407	20111031.091734	8	0.013328	60	0	60-180	60	143	NoGap	None	1	23	2	3	1	target	1	356	822	10293	13.328	8.808	17.859
ProbeTrack13	1	ProbeTrack	13.2	SCS215a	20111031.091407	20111031.091741	8	0.013328	60	0	60-180	60	171	NoGap	None	1	24	2	3	1	distractor	0	356	-1000	9293	13.328	9.841	16.801
ProbeTrack13	1	ProbeTrack	13.2	SCS215a	20111031.091407	20111031.091747	8	0.013328	60	0	60-180	60	119	NoGap	None	1	25	2	3	0	distractor	1	567	717	10010	13.328	13.312	13.347
ProbeTrack13	1	ProbeTrack	13.2	SCS215a	20111031.091407	20111031.091754	8	0.013328	60	0	60-180	60	104	NoGap	None	1	26	2	0	1	target	1	460	770	10780	13.328	13.095	13.547
ProbeTrack13	1	ProbeTrack	13.2	SCS215a	20111031.091407	20111031.091800	8	0.013328	60	0	60-180	60	132	NoGap	None	1	27	2	0	1	target	1	455	773	11553	13.328	10.788	15.917
ProbeTrack13	1	ProbeTrack	13.2	SCS215a	20111031.091407	20111031.091806	8	0.013328	60	0	60-180	60	164	NoGap	None	1	28	2	45	0	distractor	1	338	831	12384	13.328	8.205	18.443
ProbeTrack13	1	ProbeTrack	13.2	SCS215a	20111031.091407	20111031.091814	8	0.013328	60	0	60-180	60	154	NoGap	None	1	29	2	1	1	target	1	382	809	13193	13.328	13.098	13.558
ProbeTrack13	1	ProbeTrack	13.2	SCS215a	20111031.091407	20111031.091820	8	0.013328	60	0	60-180	60	124	NoGap	None	1	30	2	3	0	distractor	1	577	712	13905	13.328	13.106	13.552
ProbeTrack13	1	ProbeTrack	13.2	SCS215a	20111031.091407	20111031.091826	8	0.013328	60	0	60-180	60	144	NoGap	None	1	31	2	0	0	distractor	1	442	779	14684	13.328	13.099	13.549
ProbeTrack13	1	ProbeTrack	13.2	SCS215a	20111031.091407	20111031.091833	8	0.013328	60	0	60-180	60	89	NoGap	None	1	32	2	1	1	target	1	417	792	15476	13.328	13.302	13.348
ProbeTrack13	1	ProbeTrack	13.2	SCS215a	20111031.091407	20111031.091838	8	0.013328	60	0	60-180	60	171	NoGap	None	1	33	2	45	1	target	1	510	745	16221	13.328	13.137	13.520
ProbeTrack13	1	ProbeTrack	13.2	SCS215a	20111031.091407	20111031.091846	8	0.013328	60	0	60-180	60	148	NoGap	None	1	34	2	3	0	distractor	1	622	689	16910	13.328	13.308	13.344
ProbeTrack13	1	ProbeTrack	13.2	SCS215a	20111031.091407	20111031.091853	8	0.013328	60	0	60-180	60	66	NoGap	None	1	35	2	45	0	distractor	1	507	747	17657	13.328	13.310	13.349
ProbeTrack13	1	ProbeTrack	13.2	SCS215a	20111031.091407	20111031.091858	8	0.013328	60	0	60-180	60	149	NoGap	None	1	36	2	0	0	distractor	1	598	701	18358	13.328	10.994	15.651
ProbeTrack13	1	ProbeTrack	13.2	SCS215a	20111031.091407	20111031.091905	8	0.013328	60	0	60-180	60	99	NoGap	None	1	37	2	1	1	target	1	603	699	19057	13.328	13.299	13.351
ProbeTrack13	1	ProbeTrack	13.2	SCS215a	20111031.091407	20111031.091911	8	0.013328	60	0	60-180	60	84	NoGap	None	1	38	2	0	0	distractor	1	482	759	19816	13.328	13.307	13.346
ProbeTrack13	1	ProbeTrack	13.2	SCS215a	20111031.091407	20111031.091916	8	0.013328	60	0	60-180	60	159	NoGap	None	1	39	2	0	1	target	1	348	826	20642	13.328	13.112	13.545
ProbeTrack13	1	ProbeTrack	13.2	SCS215a	20111031.091407	20111031.091923	8	0.013328	60	0	60-180	60	126	NoGap	None	1	40	2	45	0	distractor	1	451	775	21417	13.328	12.473	14.200
ProbeTrack13	1	ProbeTrack	13.2	SCS215a	20111031.092036	20111031.092042	8	0.013328	60	10	60-180	60	140	GapPrac	Blank	1	1	2	1	1	target	1	680	660	22077	13.376	12.657	13.998
ProbeTrack13	1	ProbeTrack	13.2	SCS215a	20111031.092036	20111031.092050	8	0.013328	60	10	60-180	60	132	GapPrac	Blank	1	2	2	45	1	target	1	579	711	22788	13.328	11.643	15.026
ProbeTrack13	1	ProbeTrack	13.2	SCS215a	20111031.092036	20111031.092057	8	0.013328	60	10	60-180	60	171	GapPrac	Blank	1	3	2	0	0	distractor	1	607	697	23485	13.328	12.894	13.767
ProbeTrack13	1	ProbeTrack	13.2	SCS215a	20111031.092036	20111031.092104	8	0.013328	60	10	60-180	60	150	GapPrac	Blank	1	4	2	45	0	target	0	707	-1000	22485	13.328	10.173	16.477
ProbeTrack13	1	ProbeTrack	13.2	SCS215a	20111031.092036	20111031.092111	8	0.013328	60	10	60-180	60	73	GapPrac	Blank	1	5	2	0	0	distractor	1	646	677	23162	13.328	13.306	13.344
ProbeTrack13	1	ProbeTrack	13.2	SCS215a	20111031.092036	20111031.092116	8	0.013328	60	10	60-180	60	146	GapPrac	Blank	1	6	2	0	1	target	1	548	726	23888	13.328	12.873	13.776
ProbeTrack13	1	ProbeTrack	13.2	SCS215a	20111031.092036	20111031.092123	8	0.013328	60	10	60-180	60	173	GapPrac	Blank	1	7	2	45	0	target	0	816	-1000	22888	13.328	13.308	13.349
ProbeTrack13	1	ProbeTrack	13.2	SCS215a	20111031.092036	20111031.092131	8	0.013328	60	10	60-180	60	142	GapPrac	Blank	1	8	2	1	1	target	1	576	712	23600	13.328	8.868	17.783
ProbeTrack13	1	ProbeTrack	13.2	SCS215a	20111031.092036	20111031.092137	8	0.013328	60	10	60-180	60	171	GapPrac	Blank	1	9	2	45	1	target	1	503	749	24349	13.328	12.156	14.494
ProbeTrack13	1	ProbeTrack	13.2	SCS215a	20111031.092036	20111031.092145	8	0.013328	60	10	60-180	60	159	GapPrac	Blank	1	10	2	3	1	target	1	456	772	25121	13.328	13.099	13.559
ProbeTrack13	1	ProbeTrack	13.2	SCS215a	20111031.092036	20111031.092151	8	0.013328	60	10	60-180	60	108	GapPrac	Blank	1	11	2	0	0	distractor	1	530	735	25856	13.328	13.101	13.550
ProbeTrack13	1	ProbeTrack	13.2	SCS215a	20111031.092036	20111031.092158	8	0.013328	60	10	60-180	60	111	GapPrac	Blank	1	12	2	1	0	distractor	1	483	759	26615	13.385	13.307	26.138
ProbeTrack13	1	ProbeTrack	13.2	SCS215a	20111031.092036	20111031.092203	8	0.013328	60	10	60-180	60	146	GapPrac	Blank	1	13	2	3	1	target	1	500	750	27365	13.328	13.094	13.554
ProbeTrack13	1	ProbeTrack	13.2	SCS215a	20111031.092036	20111031.092210	8	0.013328	60	10	60-180	60	143	GapPrac	Blank	1	14	2	0	1	target	1	536	732	28097	13.328	13.304	13.357
ProbeTrack13	1	ProbeTrack	13.2	SCS215a	20111031.092036	20111031.092216	8	0.013328	60	10	60-180	60	103	GapPrac	Blank	1	15	2	3	0	distractor	1	730	635	28732	13.328	10.103	16.559
ProbeTrack13	1	ProbeTrack	13.2	SCS215a	20111031.092036	20111031.092223	8	0.013328	60	10	60-180	60	120	GapPrac	Blank	1	16	2	3	0	distractor	1	557	722	29454	13.328	4.001	22.664
ProbeTrack13	1	ProbeTrack	13.2	SCS215a	20111031.092036	20111031.092229	8	0.013328	60	10	60-180	60	174	GapPrac	Blank	1	17	2	45	0	distractor	1	655	673	30127	13.328	12.514	14.142
ProbeTrack13	1	ProbeTrack	13.2	SCS215a	20111031.092036	20111031.092237	8	0.013328	60	10	60-180	60	121	GapPrac	Blank	1	18	2	1	1	target	1	545	728	30855	13.328	9.898	16.750
ProbeTrack13	1	ProbeTrack	13.2	SCS215a	20111031.092036	20111031.092243	8	0.013328	60	10	60-180	60	126	GapPrac	Blank	1	19	2	1	0	distractor	1	418	791	31646	13.328	9.016	13.374
ProbeTrack13	1	ProbeTrack	13.2	SCS215a	20111031.092036	20111031.092249	8	0.013328	60	10	60-180	60	142	GapPrac	Blank	1	20	2	45	1	distractor	0	412	-1000	30646	13.328	13.301	13.352
ProbeTrack13	1	ProbeTrack	13.2	SCS215a	20111031.092344	20111031.092353	8	0.013328	60	10	60-180	60	171	GapExp	Blank	1	1	2	45	0	distractor	1	438	781	31427	13.368	12.931	13.726
ProbeTrack13	1	ProbeTrack	13.2	SCS215a	20111031.092344	20111031.092403	8	0.013328	60	10	60-180	60	149	GapExp	Blank	1	2	2	1	0	distractor	1	531	735	32162	13.328	12.862	13.810
ProbeTrack13	1	ProbeTrack	13.2	SCS215a	20111031.092344	20111031.092410	8	0.013328	60	10	60-180	60	76	GapExp	Blank	1	3	2	0	0	distractor	1	504	748	32910	13.328	12.863	13.807
ProbeTrack13	1	ProbeTrack	13.2	SCS215a	20111031.092344	20111031.092415	8	0.013328	60	10	60-180	60	104	GapExp	Blank	1	4	2	3	0	distractor	1	388	806	33716	13.328	13.292	13.353
ProbeTrack13	1	ProbeTrack	13.2	SCS215a	20111031.092344	20111031.092421	8	0.013328	60	10	60-180	60	176	GapExp	Blank	1	5	2	0	1	target	1	511	745	34461	13.328	12.866	13.802
ProbeTrack13	1	ProbeTrack	13.2	SCS215a	20111031.092344	20111031.092427	8	0.013328	60	10	60-180	60	64	GapExp	Blank	1	6	2	1	1	target	1	541	730	35191	13.328	13.310	13.351
ProbeTrack13	1	ProbeTrack	13.2	SCS215a	20111031.092344	20111031.092433	8	0.013328	60	10	60-180	60	107	GapExp	Blank	1	7	2	3	1	target	1	468	766	35957	13.328	12.948	13.744
ProbeTrack13	1	ProbeTrack	13.2	SCS215a	20111031.092344	20111031.092439	8	0.013328	60	10	60-180	60	144	GapExp	Blank	1	8	2	45	1	target	1	327	837	36794	13.328	13.109	13.544
ProbeTrack13	1	ProbeTrack	13.2	SCS215a	20111031.092344	20111031.092446	8	0.013328	60	10	60-180	60	71	GapExp	Blank	0	9	2	45	0	distractor	1	429	786	37580	13.328	13.308	13.345
ProbeTrack13	1	ProbeTrack	13.2	SCS215a	20111031.092344	20111031.092452	8	0.013328	60	10	60-180	60	104	GapExp	Blank	0	10	2	0	0	target	0	492	-1000	36580	13.328	13.135	13.518
ProbeTrack13	1	ProbeTrack	13.2	SCS215a	20111031.092344	20111031.092457	8	0.013328	60	10	60-180	60	169	GapExp	Blank	0	11	2	45	0	distractor	1	374	813	37393	13.328	12.895	13.763
ProbeTrack13	1	ProbeTrack	13.2	SCS215a	20111031.092344	20111031.092505	8	0.013328	60	10	60-180	60	145	GapExp	Blank	0	12	2	3	0	target	0	717	-1000	36393	13.328	13.003	13.654
ProbeTrack13	1	ProbeTrack	13.2	SCS215a	20111031.092344	20111031.092512	8	0.013328	60	10	60-180	60	171	GapExp	Blank	0	13	2	3	1	target	1	546	727	37120	13.328	13.090	13.562
ProbeTrack13	1	ProbeTrack	13.2	SCS215a	20111031.092344	20111031.092519	8	0.013328	60	10	60-180	60	106	GapExp	Blank	0	14	2	45	1	target	1	451	775	37895	13.328	13.301	13.363
ProbeTrack13	1	ProbeTrack	13.2	SCS215a	20111031.092344	20111031.092526	8	0.013328	60	10	60-180	60	94	GapExp	Blank	0	15	2	45	0	distractor	1	529	736	38631	13.328	13.041	13.622
ProbeTrack13	1	ProbeTrack	13.2	SCS215a	20111031.092344	20111031.092532	8	0.013328	60	10	60-180	60	113	GapExp	Blank	0	16	2	1	1	target	1	529	736	39367	13.328	13.094	13.577
ProbeTrack13	1	ProbeTrack	13.2	SCS215a	20111031.092344	20111031.092537	8	0.013328	60	10	60-180	60	128	GapExp	Blank	0	17	2	1	0	distractor	1	449	776	40143	13.328	13.309	13.344
ProbeTrack13	1	ProbeTrack	13.2	SCS215a	20111031.092344	20111031.092544	8	0.013328	60	10	60-180	60	77	GapExp	Blank	0	18	2	3	1	target	1	365	818	40961	13.328	13.106	13.537
ProbeTrack13	1	ProbeTrack	13.2	SCS215a	20111031.092344	20111031.092549	8	0.013328	60	10	60-180	60	169	GapExp	Blank	0	19	2	45	0	distractor	1	831	585	41546	13.328	12.896	13.760
ProbeTrack13	1	ProbeTrack	13.2	SCS215a	20111031.092344	20111031.092556	8	0.013328	60	10	60-180	60	87	GapExp	Blank	0	20	2	3	1	target	1	444	778	42324	13.328	13.099	13.551
ProbeTrack13	1	ProbeTrack	13.2	SCS215a	20111031.092344	20111031.092602	8	0.013328	60	10	60-180	60	125	GapExp	Blank	0	21	2	3	1	target	1	402	799	43123	13.328	13.106	13.558
ProbeTrack13	1	ProbeTrack	13.2	SCS215a	20111031.092344	20111031.092608	8	0.013328	60	10	60-180	60	162	GapExp	Blank	0	22	2	45	0	distractor	1	649	676	43799	13.328	13.092	13.551
ProbeTrack13	1	ProbeTrack	13.2	SCS215a	20111031.092344	20111031.092616	8	0.013328	60	10	60-180	60	116	GapExp	Blank	0	23	2	1	0	distractor	1	438	781	44580	13.328	13.304	13.352
ProbeTrack13	1	ProbeTrack	13.2	SCS215a	20111031.092344	20111031.092621	8	0.013328	60	10	60-180	60	110	GapExp	Blank	0	24	2	45	1	target	1	423	789	45369	13.328	13.096	13.569
ProbeTrack13	1	ProbeTrack	13.2	SCS215a	20111031.092344	20111031.092628	8	0.013328	60	10	60-180	60	106	GapExp	Blank	0	25	2	45	0	distractor	1	426	787	46156	13.328	12.909	13.756
ProbeTrack13	1	ProbeTrack	13.2	SCS215a	20111031.092344	20111031.092634	8	0.013328	60	10	60-180	60	120	GapExp	Blank	0	26	2	45	0	target	0	709	-1000	45156	13.328	13.306	13.347
ProbeTrack13	1	ProbeTrack	13.2	SCS215a	20111031.092344	20111031.092640	8	0.013328	60	10	60-180	60	148	GapExp	Blank	0	27	2	1	1	target	1	468	766	45922	13.328	12.850	13.791
ProbeTrack13	1	ProbeTrack	13.2	SCS215a	20111031.092344	20111031.092647	8	0.013328	60	10	60-180	60	161	GapExp	Blank	0	28	2	45	1	target	1	520	740	46662	13.328	12.938	13.726
ProbeTrack13	1	ProbeTrack	13.2	SCS215a	20111031.092344	20111031.092654	8	0.013328	60	10	60-180	60	86	GapExp	Blank	0	29	2	0	1	target	1	400	800	47462	13.328	13.034	13.609
ProbeTrack13	1	ProbeTrack	13.2	SCS215a	20111031.092344	20111031.092659	8	0.013328	60	10	60-180	60	120	GapExp	Blank	0	30	2	3	1	target	1	369	816	48278	13.328	13.307	13.348
ProbeTrack13	1	ProbeTrack	13.2	SCS215a	20111031.092344	20111031.092705	8	0.013328	60	10	60-180	60	102	GapExp	Blank	0	31	2	3	0	distractor	1	450	775	49053	13.328	12.984	13.673
ProbeTrack13	1	ProbeTrack	13.2	SCS215a	20111031.092344	20111031.092710	8	0.013328	60	10	60-180	60	66	GapExp	Blank	0	32	2	45	0	distractor	1	475	763	49816	13.328	12.899	13.347
ProbeTrack13	1	ProbeTrack	13.2	SCS215a	20111031.092344	20111031.092716	8	0.013328	60	10	60-180	60	156	GapExp	Blank	0	33	2	0	1	target	1	368	816	50632	13.328	12.908	13.769
ProbeTrack13	1	ProbeTrack	13.2	SCS215a	20111031.092344	20111031.092723	8	0.013328	60	10	60-180	60	139	GapExp	Blank	0	34	2	3	1	target	1	344	828	51460	13.328	13.307	13.358
ProbeTrack13	1	ProbeTrack	13.2	SCS215a	20111031.092344	20111031.092729	8	0.013328	60	10	60-180	60	77	GapExp	Blank	0	35	2	45	0	distractor	1	609	696	52156	13.328	12.853	13.809
ProbeTrack13	1	ProbeTrack	13.2	SCS215a	20111031.092344	20111031.092736	8	0.013328	60	10	60-180	60	165	GapExp	Blank	0	36	2	0	0	distractor	1	486	757	52913	13.328	12.852	13.807
ProbeTrack13	1	ProbeTrack	13.2	SCS215a	20111031.092344	20111031.092742	8	0.013328	60	10	60-180	60	170	GapExp	Blank	0	37	2	0	1	target	1	345	828	53741	13.328	12.936	13.753
ProbeTrack13	1	ProbeTrack	13.2	SCS215a	20111031.092344	20111031.092749	8	0.013328	60	10	60-180	60	111	GapExp	Blank	0	38	2	1	1	target	1	454	773	54514	13.328	13.088	13.571
ProbeTrack13	1	ProbeTrack	13.2	SCS215a	20111031.092344	20111031.092755	8	0.013328	60	10	60-180	60	169	GapExp	Blank	0	39	2	3	1	target	1	477	762	55276	13.328	12.833	13.830
ProbeTrack13	1	ProbeTrack	13.2	SCS215a	20111031.092344	20111031.092803	8	0.013328	60	10	60-180	60	77	GapExp	Blank	0	40	2	3	0	distractor	1	464	768	56044	13.328	12.903	13.769
ProbeTrack13	1	ProbeTrack	13.2	SCS215a	20111031.092344	20111031.092808	8	0.013328	60	10	60-180	60	97	GapExp	Blank	0	41	2	0	0	distractor	1	555	723	56767	13.328	13.111	13.546
ProbeTrack13	1	ProbeTrack	13.2	SCS215a	20111031.092344	20111031.092814	8	0.013328	60	10	60-180	60	133	GapExp	Blank	0	42	2	3	0	distractor	1	779	611	57378	13.328	12.951	13.566
ProbeTrack13	1	ProbeTrack	13.2	SCS215a	20111031.092344	20111031.092820	8	0.013328	60	10	60-180	60	62	GapExp	Blank	0	43	2	0	0	target	0	539	-1000	56378	13.328	13.149	13.521
ProbeTrack13	1	ProbeTrack	13.2	SCS215a	20111031.092344	20111031.092826	8	0.013328	60	10	60-180	60	104	GapExp	Blank	0	44	2	1	1	target	1	489	756	57134	13.446	12.885	39.956
ProbeTrack13	1	ProbeTrack	13.2	SCS215a	20111031.092344	20111031.092832	8	0.013328	60	10	60-180	60	169	GapExp	Blank	0	45	2	3	0	distractor	1	599	701	57835	13.504	12.848	27.114
ProbeTrack13	1	ProbeTrack	13.2	SCS215a	20111031.092344	20111031.092839	8	0.013328	60	10	60-180	60	71	GapExp	Blank	0	46	2	0	0	distractor	1	585	708	58543	13.328	12.871	13.791
ProbeTrack13	1	ProbeTrack	13.2	SCS215a	20111031.092344	20111031.092845	8	0.013328	60	10	60-180	60	136	GapExp	Blank	0	47	2	0	1	target	1	461	770	59313	13.328	12.834	13.803
ProbeTrack13	1	ProbeTrack	13.2	SCS215a	20111031.092344	20111031.092850	8	0.013328	60	10	60-180	60	154	GapExp	Blank	0	48	2	1	1	target	1	331	835	60148	13.481	12.854	26.962
ProbeTrack13	1	ProbeTrack	13.2	SCS215a	20111031.092344	20111031.092857	8	0.013328	60	10	60-180	60	95	GapExp	Blank	0	49	2	3	0	distractor	1	631	685	60833	14.100	12.854	53.777
ProbeTrack13	1	ProbeTrack	13.2	SCS215a	20111031.092344	20111031.092903	8	0.013328	60	10	60-180	60	134	GapExp	Blank	0	50	2	45	1	target	1	295	853	61686	13.328	12.867	13.680
ProbeTrack13	1	ProbeTrack	13.2	SCS215a	20111031.092344	20111031.092910	8	0.013328	60	10	60-180	60	160	GapExp	Blank	0	51	2	0	1	target	1	711	645	62331	13.328	13.271	13.377
ProbeTrack13	1	ProbeTrack	13.2	SCS215a	20111031.092344	20111031.092917	8	0.013328	60	10	60-180	60	134	GapExp	Blank	0	52	2	3	0	distractor	1	485	758	63089	13.328	13.308	13.344
ProbeTrack13	1	ProbeTrack	13.2	SCS215a	20111031.092344	20111031.092923	8	0.013328	60	10	60-180	60	100	GapExp	Blank	0	53	2	0	0	distractor	1	471	765	63854	13.328	13.302	13.347
ProbeTrack13	1	ProbeTrack	13.2	SCS215a	20111031.092344	20111031.092930	8	0.013328	60	10	60-180	60	127	GapExp	Blank	0	54	2	3	0	distractor	1	407	797	64651	13.328	13.052	13.618
ProbeTrack13	1	ProbeTrack	13.2	SCS215a	20111031.092344	20111031.092936	8	0.013328	60	10	60-180	60	98	GapExp	Blank	0	55	2	45	0	distractor	1	604	698	65349	13.328	12.845	13.812
ProbeTrack13	1	ProbeTrack	13.2	SCS215a	20111031.092344	20111031.092942	8	0.013328	60	10	60-180	60	145	GapExp	Blank	0	56	2	0	0	target	0	380	-1000	64349	13.328	13.310	13.348
ProbeTrack13	1	ProbeTrack	13.2	SCS215a	20111031.092344	20111031.092948	8	0.013328	60	10	60-180	60	122	GapExp	Blank	0	57	2	0	0	distractor	1	450	775	65124	13.328	13.308	13.348
ProbeTrack13	1	ProbeTrack	13.2	SCS215a	20111031.092344	20111031.092955	8	0.013328	60	10	60-180	60	132	GapExp	Blank	0	58	2	3	1	target	1	368	816	65940	13.328	13.099	13.544
ProbeTrack13	1	ProbeTrack	13.2	SCS215a	20111031.092344	20111031.093002	8	0.013328	60	10	60-180	60	83	GapExp	Blank	0	59	2	1	0	distractor	1	459	771	66711	13.328	13.029	13.629
ProbeTrack13	1	ProbeTrack	13.2	SCS215a	20111031.092344	20111031.093007	8	0.013328	60	10	60-180	60	133	GapExp	Blank	0	60	2	1	1	target	1	374	813	67524	13.328	13.098	13.557
ProbeTrack13	1	ProbeTrack	13.2	SCS215a	20111031.092344	20111031.093013	8	0.013328	60	10	60-180	60	139	GapExp	Blank	0	61	2	0	1	target	1	476	762	68286	13.328	13.305	13.346
ProbeTrack13	1	ProbeTrack	13.2	SCS215a	20111031.092344	20111031.093019	8	0.013328	60	10	60-180	60	135	GapExp	Blank	0	62	2	0	1	target	1	469	766	69052	13.328	13.264	13.387
ProbeTrack13	1	ProbeTrack	13.2	SCS215a	20111031.092344	20111031.093025	8	0.013328	60	10	60-180	60	72	GapExp	Blank	0	63	2	3	0	distractor	1	598	701	69753	13.328	13.300	13.363
ProbeTrack13	1	ProbeTrack	13.2	SCS215a	20111031.092344	20111031.093031	8	0.013328	60	10	60-180	60	96	GapExp	Blank	0	64	2	3	0	distractor	1	442	779	70532	13.328	13.304	13.346
ProbeTrack13	1	ProbeTrack	13.2	SCS215a	20111031.092344	20111031.093038	8	0.013328	60	10	60-180	60	131	GapExp	Blank	0	65	2	1	1	target	1	334	833	71365	13.328	13.037	13.632
ProbeTrack13	1	ProbeTrack	13.2	SCS215a	20111031.092344	20111031.093044	8	0.013328	60	10	60-180	60	88	GapExp	Blank	0	66	2	45	1	target	1	422	789	72154	13.328	13.113	13.550
ProbeTrack13	1	ProbeTrack	13.2	SCS215a	20111031.092344	20111031.093050	8	0.013328	60	10	60-180	60	159	GapExp	Blank	0	67	2	3	0	distractor	1	451	775	72929	13.328	12.902	13.753
ProbeTrack13	1	ProbeTrack	13.2	SCS215a	20111031.092344	20111031.093057	8	0.013328	60	10	60-180	60	179	GapExp	Blank	0	68	2	1	0	distractor	1	420	790	73719	13.328	12.886	13.763
ProbeTrack13	1	ProbeTrack	13.2	SCS215a	20111031.092344	20111031.093103	8	0.013328	60	10	60-180	60	84	GapExp	Blank	0	69	2	3	0	distractor	1	478	761	74480	13.328	12.935	13.715
ProbeTrack13	1	ProbeTrack	13.2	SCS215a	20111031.092344	20111031.093109	8	0.013328	60	10	60-180	60	136	GapExp	Blank	0	70	2	0	1	target	1	436	782	75262	13.328	13.310	13.348
ProbeTrack13	1	ProbeTrack	13.2	SCS215a	20111031.092344	20111031.093115	8	0.013328	60	10	60-180	60	112	GapExp	Blank	0	71	2	0	0	distractor	1	632	684	75946	13.328	12.983	13.669
ProbeTrack13	1	ProbeTrack	13.2	SCS215a	20111031.092344	20111031.093121	8	0.013328	60	10	60-180	60	79	GapExp	Blank	0	72	2	3	1	target	1	413	794	76740	13.328	12.906	13.765
ProbeTrack13	1	ProbeTrack	13.2	SCS215a	20111031.092344	20111031.093126	8	0.013328	60	10	60-180	60	128	GapExp	Blank	0	73	2	1	1	target	1	392	804	77544	13.328	12.991	13.659
ProbeTrack13	1	ProbeTrack	13.2	SCS215a	20111031.092344	20111031.093132	8	0.013328	60	10	60-180	60	161	GapExp	Blank	0	74	2	0	1	target	1	359	821	78365	13.328	13.032	13.638
ProbeTrack13	1	ProbeTrack	13.2	SCS215a	20111031.092344	20111031.093139	8	0.013328	60	10	60-180	60	88	GapExp	Blank	0	75	2	0	1	target	1	417	792	79157	13.328	13.111	13.539
ProbeTrack13	1	ProbeTrack	13.2	SCS215a	20111031.092344	20111031.093144	8	0.013328	60	10	60-180	60	70	GapExp	Blank	0	76	2	1	0	distractor	1	485	758	79915	13.328	13.309	13.347
ProbeTrack13	1	ProbeTrack	13.2	SCS215a	20111031.092344	20111031.093149	8	0.013328	60	10	60-180	60	149	GapExp	Blank	0	77	2	0	0	distractor	1	548	726	80641	13.328	13.309	13.345
ProbeTrack13	1	ProbeTrack	13.2	SCS215a	20111031.092344	20111031.093156	8	0.013328	60	10	60-180	60	133	GapExp	Blank	0	78	2	3	0	distractor	1	385	808	81449	13.328	13.285	13.377
ProbeTrack13	1	ProbeTrack	13.2	SCS215a	20111031.092344	20111031.093202	8	0.013328	60	10	60-180	60	176	GapExp	Blank	0	79	2	45	0	distractor	1	413	794	82243	13.328	13.304	13.344
ProbeTrack13	1	ProbeTrack	13.2	SCS215a	20111031.092344	20111031.093211	8	0.013328	60	10	60-180	60	70	GapExp	Blank	0	80	2	0	1	target	1	345	828	83071	13.328	12.953	13.710
ProbeTrack13	1	ProbeTrack	13.2	SCS215a	20111031.092344	20111031.093217	8	0.013328	60	10	60-180	60	117	GapExp	Blank	0	81	2	0	1	target	1	489	756	83827	13.327	12.861	13.748
ProbeTrack13	1	ProbeTrack	13.2	SCS215a	20111031.092344	20111031.093222	8	0.013328	60	10	60-180	60	159	GapExp	Blank	0	82	2	45	0	distractor	1	434	783	84610	13.328	12.880	13.763
ProbeTrack13	1	ProbeTrack	13.2	SCS215a	20111031.092344	20111031.093229	8	0.013328	60	10	60-180	60	68	GapExp	Blank	0	83	2	45	1	target	1	382	809	85419	13.328	12.861	13.760
ProbeTrack13	1	ProbeTrack	13.2	SCS215a	20111031.092344	20111031.093235	8	0.013328	60	10	60-180	60	142	GapExp	Blank	0	84	2	1	0	distractor	1	518	741	86160	13.328	12.887	13.767
ProbeTrack13	1	ProbeTrack	13.2	SCS215a	20111031.092344	20111031.093241	8	0.013328	60	10	60-180	60	151	GapExp	Blank	0	85	2	45	1	target	1	469	766	86926	13.328	12.875	13.789
ProbeTrack13	1	ProbeTrack	13.2	SCS215a	20111031.092344	20111031.093249	8	0.013328	60	10	60-180	60	75	GapExp	Blank	0	86	2	3	0	distractor	1	433	784	87710	13.328	13.104	13.560
ProbeTrack13	1	ProbeTrack	13.2	SCS215a	20111031.092344	20111031.093254	8	0.013328	60	10	60-180	60	168	GapExp	Blank	0	87	2	3	1	distractor	0	889	-1000	86710	13.328	13.090	13.565
ProbeTrack13	1	ProbeTrack	13.2	SCS215a	20111031.092344	20111031.093302	8	0.013328	60	10	60-180	60	96	GapExp	Blank	0	88	2	3	1	target	1	422	789	87499	13.328	12.885	13.766
ProbeTrack13	1	ProbeTrack	13.2	SCS215a	20111031.092344	20111031.093307	8	0.013328	60	10	60-180	60	122	GapExp	Blank	0	89	2	0	0	distractor	1	397	802	88301	13.328	13.300	13.360
ProbeTrack13	1	ProbeTrack	13.2	SCS215a	20111031.092344	20111031.093314	8	0.013328	60	10	60-180	60	142	GapExp	Blank	0	90	2	0	1	target	1	498	751	89052	13.328	13.299	13.358
ProbeTrack13	1	ProbeTrack	13.2	SCS215a	20111031.092344	20111031.093321	8	0.013328	60	10	60-180	60	99	GapExp	Blank	0	91	2	0	1	target	1	395	803	89855	13.328	12.848	13.819
ProbeTrack13	1	ProbeTrack	13.2	SCS215a	20111031.092344	20111031.093326	8	0.013328	60	10	60-180	60	117	GapExp	Blank	0	92	2	0	0	distractor	1	416	792	90647	13.328	12.850	13.804
ProbeTrack13	1	ProbeTrack	13.2	SCS215a	20111031.092344	20111031.093332	8	0.013328	60	10	60-180	60	127	GapExp	Blank	0	93	2	3	0	distractor	1	490	755	91402	13.328	13.023	13.632
ProbeTrack13	1	ProbeTrack	13.2	SCS215a	20111031.092344	20111031.093338	8	0.013328	60	10	60-180	60	148	GapExp	Blank	0	94	2	1	0	distractor	1	576	712	92114	13.328	12.971	13.685
ProbeTrack13	1	ProbeTrack	13.2	SCS215a	20111031.092344	20111031.093345	8	0.013328	60	10	60-180	60	137	GapExp	Blank	0	95	2	1	1	target	1	355	823	92937	13.328	12.935	13.720
ProbeTrack13	1	ProbeTrack	13.2	SCS215a	20111031.092344	20111031.093351	8	0.013328	60	10	60-180	60	79	GapExp	Blank	0	96	2	45	0	distractor	1	477	762	93699	13.328	12.905	13.761
ProbeTrack13	1	ProbeTrack	13.2	SCS215a	20111031.092344	20111031.093357	8	0.013328	60	10	60-180	60	168	GapExp	Blank	0	97	2	1	1	target	1	577	712	94411	13.328	13.307	13.347
ProbeTrack13	1	ProbeTrack	13.2	SCS215a	20111031.092344	20111031.093404	8	0.013328	60	10	60-180	60	100	GapExp	Blank	0	98	2	1	1	target	1	526	737	95148	13.328	12.896	13.756
ProbeTrack13	1	ProbeTrack	13.2	SCS215a	20111031.092344	20111031.093409	8	0.013328	60	10	60-180	60	138	GapExp	Blank	0	99	2	1	1	target	1	444	778	95926	13.328	12.872	13.797
ProbeTrack13	1	ProbeTrack	13.2	SCS215a	20111031.092344	20111031.093415	8	0.013328	60	10	60-180	60	139	GapExp	Blank	0	100	2	3	0	distractor	1	721	640	96566	13.328	13.309	13.344
ProbeTrack13	1	ProbeTrack	13.2	SCS215a	20111031.092344	20111031.093422	8	0.013328	60	10	60-180	60	104	GapExp	Blank	0	101	2	0	1	target	1	545	728	97294	13.328	12.852	13.781
ProbeTrack13	1	ProbeTrack	13.2	SCS215a	20111031.092344	20111031.093428	8	0.013328	60	10	60-180	60	144	GapExp	Blank	0	102	2	1	1	target	1	491	755	98049	13.328	13.092	13.550
ProbeTrack13	1	ProbeTrack	13.2	SCS215a	20111031.092344	20111031.093435	8	0.013328	60	10	60-180	60	89	GapExp	Blank	0	103	2	1	0	distractor	1	498	751	98800	13.328	13.096	13.553
ProbeTrack13	1	ProbeTrack	13.2	SCS215a	20111031.092344	20111031.093440	8	0.013328	60	10	60-180	60	74	GapExp	Blank	0	104	2	3	1	target	1	379	811	99611	13.328	12.982	13.683
ProbeTrack13	1	ProbeTrack	13.2	SCS215a	20111031.092344	20111031.093446	8	0.013328	60	10	60-180	60	128	GapExp	Blank	0	105	2	1	1	target	1	367	817	100428	13.328	12.969	13.693
ProbeTrack13	1	ProbeTrack	13.2	SCS215a	20111031.092344	20111031.093451	8	0.013328	60	10	60-180	60	64	GapExp	Blank	0	106	2	1	1	target	1	480	760	101188	13.328	12.898	13.776
ProbeTrack13	1	ProbeTrack	13.2	SCS215a	20111031.092344	20111031.093457	8	0.013328	60	10	60-180	60	128	GapExp	Blank	0	107	2	45	1	target	1	358	821	102009	13.328	12.859	13.805
ProbeTrack13	1	ProbeTrack	13.2	SCS215a	20111031.092344	20111031.093504	8	0.013328	60	10	60-180	60	115	GapExp	Blank	0	108	2	0	0	distractor	1	427	787	102796	13.328	12.977	13.684
ProbeTrack13	1	ProbeTrack	13.2	SCS215a	20111031.092344	20111031.093509	8	0.013328	60	10	60-180	60	74	GapExp	Blank	0	109	2	0	0	distractor	1	622	689	103485	13.328	12.851	13.797
ProbeTrack13	1	ProbeTrack	13.2	SCS215a	20111031.092344	20111031.093515	8	0.013328	60	10	60-180	60	169	GapExp	Blank	0	110	2	0	1	target	1	389	806	104291	13.328	13.099	13.569
ProbeTrack13	1	ProbeTrack	13.2	SCS215a	20111031.092344	20111031.093521	8	0.013328	60	10	60-180	60	101	GapExp	Blank	0	111	2	45	1	target	1	431	785	105076	13.328	12.876	13.766
ProbeTrack13	1	ProbeTrack	13.2	SCS215a	20111031.092344	20111031.093528	8	0.013328	60	10	60-180	60	114	GapExp	Blank	0	112	2	45	0	distractor	1	444	778	105854	13.328	12.886	13.764
ProbeTrack13	1	ProbeTrack	13.2	SCS215a	20111031.092344	20111031.093535	8	0.013328	60	10	60-180	60	144	GapExp	Blank	0	113	2	45	0	distractor	1	750	625	106479	13.328	12.903	13.763
ProbeTrack13	1	ProbeTrack	13.2	SCS215a	20111031.092344	20111031.093542	8	0.013328	60	10	60-180	60	159	GapExp	Blank	0	114	2	45	0	distractor	1	448	776	107255	13.328	12.920	13.738
ProbeTrack13	1	ProbeTrack	13.2	SCS215a	20111031.092344	20111031.093548	8	0.013328	60	10	60-180	60	152	GapExp	Blank	0	115	2	3	1	target	1	490	755	108010	13.328	13.027	13.625
ProbeTrack13	1	ProbeTrack	13.2	SCS215a	20111031.092344	20111031.093555	8	0.013328	60	10	60-180	60	117	GapExp	Blank	0	116	2	3	1	target	1	448	776	108786	13.328	13.309	13.346
ProbeTrack13	1	ProbeTrack	13.2	SCS215a	20111031.092344	20111031.093601	8	0.013328	60	10	60-180	60	83	GapExp	Blank	0	117	2	45	0	distractor	1	454	773	109559	13.328	12.859	13.783
ProbeTrack13	1	ProbeTrack	13.2	SCS215a	20111031.092344	20111031.093607	8	0.013328	60	10	60-180	60	130	GapExp	Blank	0	118	2	45	1	target	1	383	809	110368	13.328	13.310	13.349
ProbeTrack13	1	ProbeTrack	13.2	SCS215a	20111031.092344	20111031.093614	8	0.013328	60	10	60-180	60	157	GapExp	Blank	0	119	2	0	1	target	1	387	807	111175	13.328	13.111	13.357
ProbeTrack13	1	ProbeTrack	13.2	SCS215a	20111031.092344	20111031.093620	8	0.013328	60	10	60-180	60	90	GapExp	Blank	0	120	2	45	1	target	1	352	824	111999	13.328	13.008	13.661
ProbeTrack13	1	ProbeTrack	13.2	SCS215a	20111031.092344	20111031.093626	8	0.013328	60	10	60-180	60	174	GapExp	Blank	0	121	2	45	1	target	1	253	874	112873	13.328	13.305	13.350
ProbeTrack13	1	ProbeTrack	13.2	SCS215a	20111031.092344	20111031.093634	8	0.013328	60	10	60-180	60	130	GapExp	Blank	0	122	2	45	0	distractor	1	361	820	113693	13.328	12.933	13.717
ProbeTrack13	1	ProbeTrack	13.2	SCS215a	20111031.092344	20111031.093640	8	0.013328	60	10	60-180	60	61	GapExp	Blank	0	123	2	1	0	distractor	1	670	665	114358	13.328	12.873	13.809
ProbeTrack13	1	ProbeTrack	13.2	SCS215a	20111031.092344	20111031.093645	8	0.013328	60	10	60-180	60	113	GapExp	Blank	0	124	2	1	1	target	1	606	697	115055	13.328	12.858	13.804
ProbeTrack13	1	ProbeTrack	13.2	SCS215a	20111031.092344	20111031.093651	8	0.013328	60	10	60-180	60	68	GapExp	Blank	0	125	2	45	1	distractor	0	487	-1000	114055	13.328	13.016	13.632
ProbeTrack13	1	ProbeTrack	13.2	SCS215a	20111031.092344	20111031.093657	8	0.013328	60	10	60-180	60	125	GapExp	Blank	0	126	2	45	1	target	1	343	829	114884	13.328	12.891	13.781
ProbeTrack13	1	ProbeTrack	13.2	SCS215a	20111031.092344	20111031.093704	8	0.013328	60	10	60-180	60	104	GapExp	Blank	0	127	2	3	1	target	1	359	821	115705	13.328	13.028	13.641
ProbeTrack13	1	ProbeTrack	13.2	SCS215a	20111031.092344	20111031.093710	8	0.013328	60	10	60-180	60	157	GapExp	Blank	0	128	2	3	1	target	1	330	835	116540	13.328	13.068	13.574
ProbeTrack13	1	ProbeTrack	13.2	SCS215a	20111031.092344	20111031.093716	8	0.013328	60	10	60-180	60	167	GapExp	Blank	0	129	2	0	1	target	1	377	812	117352	13.328	13.114	13.544
ProbeTrack13	1	ProbeTrack	13.2	SCS215a	20111031.092344	20111031.093723	8	0.013328	60	10	60-180	60	97	GapExp	Blank	0	130	2	1	1	target	1	320	840	118192	13.328	12.986	13.655
ProbeTrack13	1	ProbeTrack	13.2	SCS215a	20111031.092344	20111031.093728	8	0.013328	60	10	60-180	60	72	GapExp	Blank	0	131	2	1	1	target	1	367	817	119009	13.328	13.311	13.343
ProbeTrack13	1	ProbeTrack	13.2	SCS215a	20111031.092344	20111031.093733	8	0.013328	60	10	60-180	60	76	GapExp	Blank	0	132	2	3	0	distractor	1	497	752	119761	13.328	13.309	13.348
ProbeTrack13	1	ProbeTrack	13.2	SCS215a	20111031.092344	20111031.093739	8	0.013328	60	10	60-180	60	70	GapExp	Blank	0	133	2	1	0	distractor	1	591	705	120466	13.328	13.309	13.344
ProbeTrack13	1	ProbeTrack	13.2	SCS215a	20111031.092344	20111031.093745	8	0.013328	60	10	60-180	60	92	GapExp	Blank	0	134	2	1	0	target	0	431	-1000	119466	13.328	13.310	13.344
ProbeTrack13	1	ProbeTrack	13.2	SCS215a	20111031.092344	20111031.093751	8	0.013328	60	10	60-180	60	163	GapExp	Blank	0	135	2	3	1	target	1	423	789	120255	13.328	12.918	13.738
ProbeTrack13	1	ProbeTrack	13.2	SCS215a	20111031.092344	20111031.093757	8	0.013328	60	10	60-180	60	97	GapExp	Blank	0	136	2	45	0	distractor	1	451	775	121030	13.328	13.105	13.550
ProbeTrack13	1	ProbeTrack	13.2	SCS215a	20111031.092344	20111031.093803	8	0.013328	60	10	60-180	60	166	GapExp	Blank	0	137	2	3	1	target	1	427	787	121817	13.328	13.111	13.543
ProbeTrack13	1	ProbeTrack	13.2	SCS215a	20111031.092344	20111031.093810	8	0.013328	60	10	60-180	60	69	GapExp	Blank	0	138	2	3	0	distractor	1	428	786	122603	13.328	13.099	13.544
ProbeTrack13	1	ProbeTrack	13.2	SCS215a	20111031.092344	20111031.093816	8	0.013328	60	10	60-180	60	94	GapExp	Blank	0	139	2	1	0	distractor	1	444	778	123381	13.328	12.956	13.738
ProbeTrack13	1	ProbeTrack	13.2	SCS215a	20111031.092344	20111031.093821	8	0.013328	60	10	60-180	60	63	GapExp	Blank	0	140	2	0	1	target	1	375	813	124194	13.328	12.955	13.698
ProbeTrack13	1	ProbeTrack	13.2	SCS215a	20111031.092344	20111031.093826	8	0.013328	60	10	60-180	60	154	GapExp	Blank	0	141	2	45	1	target	1	356	822	125016	13.328	13.042	13.600
ProbeTrack13	1	ProbeTrack	13.2	SCS215a	20111031.092344	20111031.093833	8	0.013328	60	10	60-180	60	127	GapExp	Blank	0	142	2	3	1	target	1	322	839	125855	13.328	13.092	13.555
ProbeTrack13	1	ProbeTrack	13.2	SCS215a	20111031.092344	20111031.093839	8	0.013328	60	10	60-180	60	86	GapExp	Blank	0	143	2	3	0	distractor	1	533	734	126589	13.328	12.945	13.749
ProbeTrack13	1	ProbeTrack	13.2	SCS215a	20111031.092344	20111031.093845	8	0.013328	60	10	60-180	60	118	GapExp	Blank	0	144	2	1	1	target	1	431	785	127374	13.328	13.106	13.551
ProbeTrack13	1	ProbeTrack	13.2	SCS215a	20111031.092344	20111031.093851	8	0.013328	60	10	60-180	60	168	GapExp	Blank	0	145	2	3	0	distractor	1	351	825	128199	13.328	12.960	13.704
ProbeTrack13	1	ProbeTrack	13.2	SCS215a	20111031.092344	20111031.093858	8	0.013328	60	10	60-180	60	94	GapExp	Blank	0	146	2	45	0	distractor	1	563	719	128918	13.328	13.308	13.347
ProbeTrack13	1	ProbeTrack	13.2	SCS215a	20111031.092344	20111031.093904	8	0.013328	60	10	60-180	60	129	GapExp	Blank	0	147	2	1	0	distractor	1	461	770	129688	13.328	12.996	13.658
ProbeTrack13	1	ProbeTrack	13.2	SCS215a	20111031.092344	20111031.093910	8	0.013328	60	10	60-180	60	133	GapExp	Blank	0	148	2	1	1	target	1	441	780	130468	13.328	13.305	13.351
ProbeTrack13	1	ProbeTrack	13.2	SCS215a	20111031.092344	20111031.093917	8	0.013328	60	10	60-180	60	121	GapExp	Blank	0	149	2	45	1	target	1	417	792	131260	13.328	13.308	13.345
ProbeTrack13	1	ProbeTrack	13.2	SCS215a	20111031.092344	20111031.093923	8	0.013328	60	10	60-180	60	108	GapExp	Blank	0	150	2	1	0	target	0	543	-1000	130260	13.328	12.934	13.690
ProbeTrack13	1	ProbeTrack	13.2	SCS215a	20111031.092344	20111031.093929	8	0.013328	60	10	60-180	60	146	GapExp	Blank	0	151	2	45	1	target	1	432	784	131044	13.328	12.550	13.762
ProbeTrack13	1	ProbeTrack	13.2	SCS215a	20111031.092344	20111031.093935	8	0.013328	60	10	60-180	60	115	GapExp	Blank	0	152	2	1	1	target	1	377	812	131856	13.328	13.106	13.564
ProbeTrack13	1	ProbeTrack	13.2	SCS215a	20111031.092344	20111031.093941	8	0.013328	60	10	60-180	60	88	GapExp	Blank	0	153	2	1	0	distractor	1	444	778	132634	13.328	12.872	13.791
ProbeTrack13	1	ProbeTrack	13.2	SCS215a	20111031.092344	20111031.093947	8	0.013328	60	10	60-180	60	117	GapExp	Blank	0	154	2	1	0	distractor	1	463	769	133403	13.328	12.904	13.746
ProbeTrack13	1	ProbeTrack	13.2	SCS215a	20111031.092344	20111031.093953	8	0.013328	60	10	60-180	60	132	GapExp	Blank	0	155	2	1	0	target	0	433	-1000	132403	13.328	13.032	13.630
ProbeTrack13	1	ProbeTrack	13.2	SCS215a	20111031.092344	20111031.093959	8	0.013328	60	10	60-180	60	86	GapExp	Blank	0	156	2	45	1	target	1	448	776	133179	13.328	12.932	13.722
ProbeTrack13	1	ProbeTrack	13.2	SCS215a	20111031.092344	20111031.094005	8	0.013328	60	10	60-180	60	68	GapExp	Blank	0	157	2	0	0	distractor	1	489	756	133935	13.328	13.105	13.551
ProbeTrack13	1	ProbeTrack	13.2	SCS215a	20111031.092344	20111031.094010	8	0.013328	60	10	60-180	60	163	GapExp	Blank	0	158	2	0	1	target	1	407	797	134732	13.328	12.847	13.795
ProbeTrack13	1	ProbeTrack	13.2	SCS215a	20111031.092344	20111031.094016	8	0.013328	60	10	60-180	60	73	GapExp	Blank	0	159	2	0	0	distractor	1	480	760	135492	13.328	13.048	13.601
ProbeTrack13	1	ProbeTrack	13.2	SCS215a	20111031.092344	20111031.094022	8	0.013328	60	10	60-180	60	88	GapExp	Blank	0	160	2	45	0	distractor	1	474	763	136255	13.328	13.309	13.348
ProbeTrack13	1	ProbeTrack	13.2	SCS215a	20111031.092344	20111031.094028	8	0.013328	60	10	60-180	60	172	GapExp	Blank	0	161	2	3	1	target	1	430	785	137040	13.328	12.953	13.695
ProbeTrack13	1	ProbeTrack	13.2	SCS215a	20111031.092344	20111031.094035	8	0.013328	60	10	60-180	60	91	GapExp	Blank	0	162	2	1	0	distractor	1	456	772	137812	13.328	13.045	13.617
ProbeTrack13	1	ProbeTrack	13.2	SCS215a	20111031.092344	20111031.094040	8	0.013328	60	10	60-180	60	173	GapExp	Blank	0	163	2	0	1	target	1	372	814	138626	13.328	12.892	13.763
ProbeTrack13	1	ProbeTrack	13.2	SCS215a	20111031.092344	20111031.094047	8	0.013328	60	10	60-180	60	138	GapExp	Blank	0	164	2	0	0	target	0	352	-1000	137626	13.328	13.104	13.559
ProbeTrack13	1	ProbeTrack	13.2	SCS215a	20111031.092344	20111031.094053	8	0.013328	60	10	60-180	60	87	GapExp	Blank	0	165	2	45	1	target	1	453	774	138400	13.328	12.917	13.739
ProbeTrack13	1	ProbeTrack	13.2	SCS215a	20111031.092344	20111031.094059	8	0.013328	60	10	60-180	60	62	GapExp	Blank	0	166	2	0	0	distractor	1	517	742	139142	13.328	13.110	13.559
ProbeTrack13	1	ProbeTrack	13.2	SCS215a	20111031.092344	20111031.094104	8	0.013328	60	10	60-180	60	61	GapExp	Blank	0	167	2	45	1	target	1	375	813	139955	13.328	12.975	13.688
ProbeTrack13	1	ProbeTrack	13.2	SCS215a	20111031.092344	20111031.094110	8	0.013328	60	10	60-180	60	175	GapExp	Blank	0	168	2	1	1	target	1	360	820	140775	13.328	12.853	13.809
ProbeTrack13	1	ProbeTrack	13.2	SCS215a	20111031.092344	20111031.094116	8	0.013328	60	10	60-180	60	158	GapExp	Blank	0	169	2	0	0	distractor	1	517	742	141517	13.328	13.309	13.347
ProbeTrack13	1	ProbeTrack	13.2	SCS215a	20111031.092344	20111031.094123	8	0.013328	60	10	60-180	60	114	GapExp	Blank	0	170	2	0	0	distractor	1	419	791	142308	13.328	12.911	13.739
ProbeTrack13	1	ProbeTrack	13.2	SCS215a	20111031.092344	20111031.094130	8	0.013328	60	10	60-180	60	83	GapExp	Blank	0	171	2	3	1	target	1	359	821	143129	13.328	13.307	13.347
ProbeTrack13	1	ProbeTrack	13.2	SCS215a	20111031.092344	20111031.094135	8	0.013328	60	10	60-180	60	162	GapExp	Blank	0	172	2	1	0	distractor	1	450	775	143904	13.328	13.107	13.557
ProbeTrack13	1	ProbeTrack	13.2	SCS215a	20111031.092344	20111031.094141	8	0.013328	60	10	60-180	60	140	GapExp	Blank	0	173	2	1	1	target	1	332	834	144738	13.328	12.873	13.783
ProbeTrack13	1	ProbeTrack	13.2	SCS215a	20111031.092344	20111031.094147	8	0.013328	60	10	60-180	60	169	GapExp	Blank	0	174	2	45	1	target	1	344	828	145566	13.328	12.892	13.787
ProbeTrack13	1	ProbeTrack	13.2	SCS215a	20111031.092344	20111031.094155	8	0.013328	60	10	60-180	60	99	GapExp	Blank	0	175	2	0	0	distractor	1	472	764	146330	13.328	13.105	13.557
ProbeTrack13	1	ProbeTrack	13.2	SCS215a	20111031.092344	20111031.094201	8	0.013328	60	10	60-180	60	108	GapExp	Blank	0	176	2	1	0	distractor	1	461	770	147100	13.328	13.048	13.621
ProbeTrack13	1	ProbeTrack	13.2	SCS215a	20111031.092344	20111031.094207	8	0.013328	60	10	60-180	60	82	GapExp	Blank	0	177	2	0	1	target	1	319	841	147941	13.328	12.900	13.743
ProbeTrack13	1	ProbeTrack	13.2	SCS215a	20111031.092344	20111031.094212	8	0.013328	60	10	60-180	60	148	GapExp	Blank	0	178	2	1	0	distractor	1	406	797	148738	13.328	13.296	13.348
ProbeTrack13	1	ProbeTrack	13.2	SCS215a	20111031.092344	20111031.094218	8	0.013328	60	10	60-180	60	64	GapExp	Blank	0	179	2	3	1	target	1	398	801	149539	13.328	13.162	13.485
ProbeTrack13	1	ProbeTrack	13.2	SCS215a	20111031.092344	20111031.094223	8	0.013328	60	10	60-180	60	162	GapExp	Blank	0	180	2	1	0	distractor	1	372	814	150353	13.328	13.104	13.564
ProbeTrack13	1	ProbeTrack	13.2	SCS215a	20111031.092344	20111031.094230	8	0.013328	60	10	60-180	60	171	GapExp	Blank	0	181	2	0	0	distractor	1	426	787	151140	13.328	13.099	13.543
ProbeTrack13	1	ProbeTrack	13.2	SCS215a	20111031.092344	20111031.094236	8	0.013328	60	10	60-180	60	98	GapExp	Blank	0	182	2	0	1	target	1	389	806	151946	13.328	13.308	13.350
ProbeTrack13	1	ProbeTrack	13.2	SCS215a	20111031.092344	20111031.094242	8	0.013328	60	10	60-180	60	71	GapExp	Blank	0	183	2	45	0	distractor	1	488	756	152702	13.328	12.961	13.709
ProbeTrack13	1	ProbeTrack	13.2	SCS215a	20111031.092344	20111031.094248	8	0.013328	60	10	60-180	60	110	GapExp	Blank	0	184	2	45	1	target	1	455	773	153475	13.328	12.925	13.735
ProbeTrack13	1	ProbeTrack	13.2	SCS215a	20111031.092344	20111031.094254	8	0.013328	60	10	60-180	60	64	GapExp	Blank	0	185	2	45	1	target	1	410	795	154270	13.328	12.899	13.759
ProbeTrack13	1	ProbeTrack	13.2	SCS215a	20111031.092344	20111031.094300	8	0.013328	60	10	60-180	60	63	GapExp	Blank	0	186	2	1	1	target	1	346	827	155097	13.328	13.309	13.353
ProbeTrack13	1	ProbeTrack	13.2	SCS215a	20111031.092344	20111031.094305	8	0.013328	60	10	60-180	60	107	GapExp	Blank	0	187	2	3	0	distractor	1	511	745	155842	13.328	13.106	13.549
ProbeTrack13	1	ProbeTrack	13.2	SCS215a	20111031.092344	20111031.094311	8	0.013328	60	10	60-180	60	90	GapExp	Blank	0	188	2	1	0	distractor	1	428	786	156628	13.328	13.297	13.359
ProbeTrack13	1	ProbeTrack	13.2	SCS215a	20111031.092344	20111031.094316	8	0.013328	60	10	60-180	60	159	GapExp	Blank	0	189	2	3	0	distractor	1	514	743	157371	13.328	12.929	13.729
ProbeTrack13	1	ProbeTrack	13.2	SCS215a	20111031.092344	20111031.094323	8	0.013328	60	10	60-180	60	113	GapExp	Blank	0	190	2	3	0	distractor	1	484	758	158129	13.384	11.572	26.816
ProbeTrack13	1	ProbeTrack	13.2	SCS215a	20111031.092344	20111031.094329	8	0.013328	60	10	60-180	60	123	GapExp	Blank	0	191	2	3	1	target	1	387	807	158936	13.328	12.844	13.820
ProbeTrack13	1	ProbeTrack	13.2	SCS215a	20111031.092344	20111031.094335	8	0.013328	60	10	60-180	60	167	GapExp	Blank	0	192	2	3	0	distractor	1	387	807	159743	13.328	13.303	13.349
ProbeTrack13	1	ProbeTrack	13.2	SCS215a	20111031.092344	20111031.094342	8	0.013328	60	10	60-180	60	140	GapExp	Blank	0	193	2	45	0	distractor	1	448	776	160519	13.328	12.984	13.668
ProbeTrack13	1	ProbeTrack	13.2	SCS215a	20111031.092344	20111031.094348	8	0.013328	60	10	60-180	60	122	GapExp	Blank	0	194	2	45	1	target	1	390	805	161324	13.328	13.106	13.559
ProbeTrack13	1	ProbeTrack	13.2	SCS215a	20111031.092344	20111031.094355	8	0.013328	60	10	60-180	60	171	GapExp	Blank	0	195	2	3	1	target	1	434	783	162107	13.328	13.106	13.563
ProbeTrack13	1	ProbeTrack	13.2	SCS215a	20111031.092344	20111031.094401	8	0.013328	60	10	60-180	60	169	GapExp	Blank	0	196	2	1	0	distractor	1	494	753	162860	13.328	13.081	13.576
ProbeTrack13	1	ProbeTrack	13.2	SCS215a	20111031.092344	20111031.094408	8	0.013328	60	10	60-180	60	108	GapExp	Blank	0	197	2	0	1	target	1	525	738	163598	13.328	12.856	13.789
ProbeTrack13	1	ProbeTrack	13.2	SCS215a	20111031.092344	20111031.094414	8	0.013328	60	10	60-180	60	112	GapExp	Blank	0	198	2	0	0	distractor	1	700	650	164248	13.381	12.964	27.027
ProbeTrack13	1	ProbeTrack	13.2	SCS215a	20111031.092344	20111031.094420	8	0.013328	60	10	60-180	60	120	GapExp	Blank	0	199	2	0	0	distractor	1	344	828	165076	13.328	12.919	13.742
ProbeTrack13	1	ProbeTrack	13.2	SCS215a	20111031.092344	20111031.094426	8	0.013328	60	10	60-180	60	121	GapExp	Blank	0	200	2	45	0	distractor	1	389	806	165882	13.328	12.973	13.683
ProbeTrack13	1	ProbeTrack	13.2	SCS215a	20111031.094545	20111031.094549	8	0.013328	60	10	60-180	60	150	GapPrac	BigFlash	1	1	2	0	0	distractor	1	1208	396	166278	13.373	13.308	13.346
ProbeTrack13	1	ProbeTrack	13.2	SCS215a	20111031.094545	20111031.094558	8	0.013328	60	10	60-180	60	112	GapPrac	BigFlash	1	2	2	0	1	target	1	870	565	166843	13.328	10.137	16.513
ProbeTrack13	1	ProbeTrack	13.2	SCS215a	20111031.094545	20111031.094605	8	0.013328	60	10	60-180	60	62	GapPrac	BigFlash	1	3	2	3	1	target	1	425	788	167631	13.328	13.275	13.374
ProbeTrack13	1	ProbeTrack	13.2	SCS215a	20111031.094545	20111031.094610	8	0.013328	60	10	60-180	60	64	GapPrac	BigFlash	1	4	2	3	0	distractor	1	426	787	168418	13.328	12.184	14.482
ProbeTrack13	1	ProbeTrack	13.2	SCS215a	20111031.094545	20111031.094615	8	0.013328	60	10	60-180	60	100	GapPrac	BigFlash	1	5	2	3	1	target	1	331	835	169253	13.328	13.073	13.587
ProbeTrack13	1	ProbeTrack	13.2	SCS215a	20111031.094545	20111031.094620	8	0.013328	60	10	60-180	60	126	GapPrac	BigFlash	1	6	2	3	0	distractor	1	485	758	170011	13.328	9.788	16.863
ProbeTrack13	1	ProbeTrack	13.2	SCS215a	20111031.094545	20111031.094626	8	0.013328	60	10	60-180	60	112	GapPrac	BigFlash	1	7	2	45	0	distractor	1	415	793	170804	13.328	13.287	13.368
ProbeTrack13	1	ProbeTrack	13.2	SCS215a	20111031.094545	20111031.094633	8	0.013328	60	10	60-180	60	176	GapPrac	BigFlash	1	8	2	3	1	target	1	369	816	171620	13.328	13.099	13.557
ProbeTrack13	1	ProbeTrack	13.2	SCS215a	20111031.094545	20111031.094640	8	0.013328	60	10	60-180	60	119	GapPrac	BigFlash	1	9	2	0	0	distractor	1	508	746	172366	13.328	10.748	15.913
ProbeTrack13	1	ProbeTrack	13.2	SCS215a	20111031.094545	20111031.094646	8	0.013328	60	10	60-180	60	131	GapPrac	BigFlash	1	10	2	1	1	target	1	441	780	173146	13.328	10.779	15.882
ProbeTrack13	1	ProbeTrack	13.2	SCS215a	20111031.094545	20111031.094652	8	0.013328	60	10	60-180	60	148	GapPrac	BigFlash	1	11	2	45	1	target	1	342	829	173975	13.328	8.374	18.299
ProbeTrack13	1	ProbeTrack	13.2	SCS215a	20111031.094545	20111031.094658	8	0.013328	60	10	60-180	60	126	GapPrac	BigFlash	1	12	2	1	0	distractor	1	450	775	174750	13.328	13.303	13.356
ProbeTrack13	1	ProbeTrack	13.2	SCS215a	20111031.094545	20111031.094705	8	0.013328	60	10	60-180	60	118	GapPrac	BigFlash	1	13	2	1	1	target	1	366	817	175567	13.328	13.307	13.350
ProbeTrack13	1	ProbeTrack	13.2	SCS215a	20111031.094545	20111031.094710	8	0.013328	60	10	60-180	60	137	GapPrac	BigFlash	1	14	2	0	1	target	1	364	818	176385	13.328	13.105	13.544
ProbeTrack13	1	ProbeTrack	13.2	SCS215a	20111031.094545	20111031.094717	8	0.013328	60	10	60-180	60	134	GapPrac	BigFlash	1	15	2	3	0	distractor	1	507	747	177132	13.328	11.887	14.771
ProbeTrack13	1	ProbeTrack	13.2	SCS215a	20111031.094545	20111031.094723	8	0.013328	60	10	60-180	60	123	GapPrac	BigFlash	1	16	2	1	0	distractor	1	664	668	177800	13.328	6.593	20.084
ProbeTrack13	1	ProbeTrack	13.2	SCS215a	20111031.094545	20111031.094729	8	0.013328	60	10	60-180	60	144	GapPrac	BigFlash	1	17	2	45	0	distractor	1	513	744	178544	13.328	13.301	13.349
ProbeTrack13	1	ProbeTrack	13.2	SCS215a	20111031.094545	20111031.094736	8	0.013328	60	10	60-180	60	143	GapPrac	BigFlash	1	18	2	45	1	target	1	351	825	179369	13.328	11.403	15.247
ProbeTrack13	1	ProbeTrack	13.2	SCS215a	20111031.094545	20111031.094743	8	0.013328	60	10	60-180	60	149	GapPrac	BigFlash	1	19	2	0	0	distractor	1	451	775	180144	13.328	12.046	14.615
ProbeTrack13	1	ProbeTrack	13.2	SCS215a	20111031.094545	20111031.094749	8	0.013328	60	10	60-180	60	105	GapPrac	BigFlash	1	20	2	0	1	target	1	410	795	180939	13.328	13.306	13.351
ProbeTrack13	1	ProbeTrack	13.2	SCS215a	20111031.094858	20111031.094901	8	0.013328	60	10	60-180	60	156	GapExp	BigFlash	1	1	2	0	1	target	1	452	774	181713	13.376	13.088	13.570
ProbeTrack13	1	ProbeTrack	13.2	SCS215a	20111031.094858	20111031.094908	8	0.013328	60	10	60-180	60	138	GapExp	BigFlash	1	2	2	1	0	distractor	1	503	749	182462	13.328	13.090	13.572
ProbeTrack13	1	ProbeTrack	13.2	SCS215a	20111031.094858	20111031.094915	8	0.013328	60	10	60-180	60	89	GapExp	BigFlash	1	3	2	3	0	distractor	1	556	722	183184	13.328	13.305	13.351
ProbeTrack13	1	ProbeTrack	13.2	SCS215a	20111031.094858	20111031.094920	8	0.013328	60	10	60-180	60	176	GapExp	BigFlash	1	4	2	45	0	distractor	1	389	806	183990	13.328	8.465	20.565
ProbeTrack13	1	ProbeTrack	13.2	SCS215a	20111031.094858	20111031.094928	8	0.013328	60	10	60-180	60	172	GapExp	BigFlash	1	5	2	1	1	target	1	327	837	184827	13.328	11.046	15.618
ProbeTrack13	1	ProbeTrack	13.2	SCS215a	20111031.094858	20111031.094934	8	0.013328	60	10	60-180	60	105	GapExp	BigFlash	1	6	2	45	1	target	1	349	826	185653	13.328	13.141	13.509
ProbeTrack13	1	ProbeTrack	13.2	SCS215a	20111031.094858	20111031.094941	8	0.013328	60	10	60-180	60	113	GapExp	BigFlash	1	7	2	0	0	distractor	1	464	768	186421	13.328	12.999	13.658
ProbeTrack13	1	ProbeTrack	13.2	SCS215a	20111031.094858	20111031.094947	8	0.013328	60	10	60-180	60	143	GapExp	BigFlash	1	8	2	3	1	target	1	309	846	187267	13.328	13.307	13.344
ProbeTrack13	1	ProbeTrack	13.2	SCS215a	20111031.094858	20111031.094953	8	0.013328	60	10	60-180	60	137	GapExp	BigFlash	0	9	2	45	1	distractor	0	423	-1000	186267	13.328	13.306	13.347
ProbeTrack13	1	ProbeTrack	13.2	SCS215a	20111031.094858	20111031.095000	8	0.013328	60	10	60-180	60	97	GapExp	BigFlash	0	10	2	3	0	distractor	1	589	706	186973	13.328	13.111	13.552
ProbeTrack13	1	ProbeTrack	13.2	SCS215a	20111031.094858	20111031.095005	8	0.013328	60	10	60-180	60	165	GapExp	BigFlash	0	11	2	45	1	target	1	463	769	187742	13.328	13.101	13.563
ProbeTrack13	1	ProbeTrack	13.2	SCS215a	20111031.094858	20111031.095013	8	0.013328	60	10	60-180	60	67	GapExp	BigFlash	0	12	2	0	0	distractor	1	519	741	188483	13.328	13.106	13.558
ProbeTrack13	1	ProbeTrack	13.2	SCS215a	20111031.094858	20111031.095018	8	0.013328	60	10	60-180	60	95	GapExp	BigFlash	0	13	2	45	1	target	1	364	818	189301	13.328	13.085	13.556
ProbeTrack13	1	ProbeTrack	13.2	SCS215a	20111031.094858	20111031.095024	8	0.013328	60	10	60-180	60	158	GapExp	BigFlash	0	14	2	3	1	target	1	371	815	190116	13.328	12.976	13.688
ProbeTrack13	1	ProbeTrack	13.2	SCS215a	20111031.094858	20111031.095030	8	0.013328	60	10	60-180	60	81	GapExp	BigFlash	0	15	2	45	0	distractor	1	419	791	190907	13.328	13.306	13.344
ProbeTrack13	1	ProbeTrack	13.2	SCS215a	20111031.094858	20111031.095036	8	0.013328	60	10	60-180	60	114	GapExp	BigFlash	0	16	2	1	0	distractor	1	455	773	191680	13.328	13.304	13.348
ProbeTrack13	1	ProbeTrack	13.2	SCS215a	20111031.094858	20111031.095043	8	0.013328	60	10	60-180	60	95	GapExp	BigFlash	0	17	2	3	1	target	1	352	824	192504	13.328	13.297	13.353
ProbeTrack13	1	ProbeTrack	13.2	SCS215a	20111031.094858	20111031.095048	8	0.013328	60	10	60-180	60	154	GapExp	BigFlash	0	18	2	45	1	target	1	408	796	193300	13.328	12.103	14.564
ProbeTrack13	1	ProbeTrack	13.2	SCS215a	20111031.094858	20111031.095055	8	0.013328	60	10	60-180	60	79	GapExp	BigFlash	0	19	2	0	1	target	1	367	817	194117	13.328	13.086	13.554
ProbeTrack13	1	ProbeTrack	13.2	SCS215a	20111031.094858	20111031.095101	8	0.013328	60	10	60-180	60	179	GapExp	BigFlash	0	20	2	3	0	distractor	1	603	699	194816	13.328	13.113	13.556
ProbeTrack13	1	ProbeTrack	13.2	SCS215a	20111031.094858	20111031.095108	8	0.013328	60	10	60-180	60	109	GapExp	BigFlash	0	21	2	45	0	distractor	1	459	771	195587	13.328	13.112	13.551
ProbeTrack13	1	ProbeTrack	13.2	SCS215a	20111031.094858	20111031.095115	8	0.013328	60	10	60-180	60	149	GapExp	BigFlash	0	22	2	45	0	distractor	1	513	744	196331	13.328	13.104	13.553
ProbeTrack13	1	ProbeTrack	13.2	SCS215a	20111031.094858	20111031.095122	8	0.013328	60	10	60-180	60	155	GapExp	BigFlash	0	23	2	3	1	target	1	733	634	196965	13.328	10.629	16.044
ProbeTrack13	1	ProbeTrack	13.2	SCS215a	20111031.094858	20111031.095129	8	0.013328	60	10	60-180	60	128	GapExp	BigFlash	0	24	2	45	0	distractor	1	486	757	197722	13.328	13.308	13.348
ProbeTrack13	1	ProbeTrack	13.2	SCS215a	20111031.094858	20111031.095136	8	0.013328	60	10	60-180	60	69	GapExp	BigFlash	0	25	2	3	1	target	1	387	807	198529	13.328	13.105	13.545
ProbeTrack13	1	ProbeTrack	13.2	SCS215a	20111031.094858	20111031.095142	8	0.013328	60	10	60-180	60	165	GapExp	BigFlash	0	26	2	1	0	distractor	1	698	651	199180	13.328	10.024	16.626
ProbeTrack13	1	ProbeTrack	13.2	SCS215a	20111031.094858	20111031.095150	8	0.013328	60	10	60-180	60	108	GapExp	BigFlash	0	27	2	0	0	distractor	1	483	759	199939	13.328	7.620	19.038
ProbeTrack13	1	ProbeTrack	13.2	SCS215a	20111031.094858	20111031.095156	8	0.013328	60	10	60-180	60	96	GapExp	BigFlash	0	28	2	3	0	distractor	1	412	794	200733	13.328	9.818	16.856
ProbeTrack13	1	ProbeTrack	13.2	SCS215a	20111031.094858	20111031.095201	8	0.013328	60	10	60-180	60	143	GapExp	BigFlash	0	29	2	0	1	target	1	325	838	201571	13.328	13.307	13.348
ProbeTrack13	1	ProbeTrack	13.2	SCS215a	20111031.094858	20111031.095208	8	0.013328	60	10	60-180	60	104	GapExp	BigFlash	0	30	2	3	1	target	1	438	781	202352	13.328	13.300	13.350
ProbeTrack13	1	ProbeTrack	13.2	SCS215a	20111031.094858	20111031.095213	8	0.013328	60	10	60-180	60	90	GapExp	BigFlash	0	31	2	1	1	target	1	341	830	203182	13.328	7.906	18.743
ProbeTrack13	1	ProbeTrack	13.2	SCS215a	20111031.094858	20111031.095219	8	0.013328	60	10	60-180	60	101	GapExp	BigFlash	0	32	2	1	0	distractor	1	517	742	203924	13.328	13.106	13.550
ProbeTrack13	1	ProbeTrack	13.2	SCS215a	20111031.094858	20111031.095225	8	0.013328	60	10	60-180	60	159	GapExp	BigFlash	0	33	2	1	0	distractor	1	609	696	204620	13.328	13.104	13.565
ProbeTrack13	1	ProbeTrack	13.2	SCS215a	20111031.094858	20111031.095232	8	0.013328	60	10	60-180	60	76	GapExp	BigFlash	0	34	2	1	0	distractor	1	500	750	205370	13.328	13.115	13.548
ProbeTrack13	1	ProbeTrack	13.2	SCS215a	20111031.094858	20111031.095238	8	0.013328	60	10	60-180	60	175	GapExp	BigFlash	0	35	2	0	0	distractor	1	421	790	206160	13.328	13.302	13.356
ProbeTrack13	1	ProbeTrack	13.2	SCS215a	20111031.094858	20111031.095245	8	0.013328	60	10	60-180	60	126	GapExp	BigFlash	0	36	2	45	1	target	1	398	801	206961	13.328	13.105	13.550
ProbeTrack13	1	ProbeTrack	13.2	SCS215a	20111031.094858	20111031.095251	8	0.013328	60	10	60-180	60	114	GapExp	BigFlash	0	37	2	3	1	target	1	384	808	207769	13.328	7.398	13.347
ProbeTrack13	1	ProbeTrack	13.2	SCS215a	20111031.094858	20111031.095258	8	0.013328	60	10	60-180	60	139	GapExp	BigFlash	0	38	2	1	0	distractor	1	608	696	208465	13.328	8.195	18.465
ProbeTrack13	1	ProbeTrack	13.2	SCS215a	20111031.094858	20111031.095304	8	0.013328	60	10	60-180	60	67	GapExp	BigFlash	0	39	2	0	1	target	1	370	815	209280	13.328	8.291	18.368
ProbeTrack13	1	ProbeTrack	13.2	SCS215a	20111031.094858	20111031.095309	8	0.013328	60	10	60-180	60	144	GapExp	BigFlash	0	40	2	0	1	target	1	583	709	209989	13.328	12.951	13.709
ProbeTrack13	1	ProbeTrack	13.2	SCS215a	20111031.094858	20111031.095316	8	0.013328	60	10	60-180	60	169	GapExp	BigFlash	0	41	2	3	1	target	1	363	819	210808	13.328	11.736	14.934
ProbeTrack13	1	ProbeTrack	13.2	SCS215a	20111031.094858	20111031.095323	8	0.013328	60	10	60-180	60	104	GapExp	BigFlash	0	42	2	0	1	target	1	384	808	211616	13.328	13.208	13.436
ProbeTrack13	1	ProbeTrack	13.2	SCS215a	20111031.094858	20111031.095329	8	0.013328	60	10	60-180	60	119	GapExp	BigFlash	0	43	2	3	0	distractor	1	494	753	212369	13.328	12.232	14.438
ProbeTrack13	1	ProbeTrack	13.2	SCS215a	20111031.094858	20111031.095335	8	0.013328	60	10	60-180	60	116	GapExp	BigFlash	0	44	2	0	0	distractor	1	566	717	213086	13.328	13.100	13.570
ProbeTrack13	1	ProbeTrack	13.2	SCS215a	20111031.094858	20111031.095341	8	0.013328	60	10	60-180	60	75	GapExp	BigFlash	0	45	2	45	1	target	1	306	847	213933	13.328	13.308	13.352
ProbeTrack13	1	ProbeTrack	13.2	SCS215a	20111031.094858	20111031.095353	8	0.013328	60	10	60-180	60	90	GapExp	BigFlash	0	46	2	3	0	distractor	1	468	766	214699	13.328	13.307	13.350
ProbeTrack13	1	ProbeTrack	13.2	SCS215a	20111031.094858	20111031.095400	8	0.013328	60	10	60-180	60	105	GapExp	BigFlash	0	47	2	45	1	target	1	475	763	215462	13.328	10.731	15.940
ProbeTrack13	1	ProbeTrack	13.2	SCS215a	20111031.094858	20111031.095406	8	0.013328	60	10	60-180	60	61	GapExp	BigFlash	0	48	2	45	0	distractor	1	432	784	216246	13.328	11.639	15.023
ProbeTrack13	1	ProbeTrack	13.2	SCS215a	20111031.094858	20111031.095412	8	0.013328	60	10	60-180	60	162	GapExp	BigFlash	0	49	2	1	0	target	0	430	-1000	215246	13.328	13.304	13.349
ProbeTrack13	1	ProbeTrack	13.2	SCS215a	20111031.094858	20111031.095420	8	0.013328	60	10	60-180	60	96	GapExp	BigFlash	0	50	2	3	1	target	1	511	745	215991	13.328	13.308	13.349
ProbeTrack13	1	ProbeTrack	13.2	SCS215a	20111031.094858	20111031.095425	8	0.013328	60	10	60-180	60	175	GapExp	BigFlash	0	51	2	0	1	target	1	344	828	216819	13.328	13.093	13.564
ProbeTrack13	1	ProbeTrack	13.2	SCS215a	20111031.094858	20111031.095433	8	0.013328	60	10	60-180	60	164	GapExp	BigFlash	0	52	2	3	0	distractor	1	429	786	217605	13.328	13.112	13.551
ProbeTrack13	1	ProbeTrack	13.2	SCS215a	20111031.094858	20111031.095439	8	0.013328	60	10	60-180	60	123	GapExp	BigFlash	0	53	2	45	1	target	1	623	689	218294	13.328	13.091	13.557
ProbeTrack13	1	ProbeTrack	13.2	SCS215a	20111031.094858	20111031.095446	8	0.013328	60	10	60-180	60	81	GapExp	BigFlash	0	54	2	0	0	distractor	1	443	779	219073	13.328	13.100	13.554
ProbeTrack13	1	ProbeTrack	13.2	SCS215a	20111031.094858	20111031.095452	8	0.013328	60	10	60-180	60	152	GapExp	BigFlash	0	55	2	3	0	distractor	1	481	760	219833	13.328	9.899	16.720
ProbeTrack13	1	ProbeTrack	13.2	SCS215a	20111031.094858	20111031.095458	8	0.013328	60	10	60-180	60	141	GapExp	BigFlash	0	56	2	1	1	target	1	391	805	220638	13.328	8.189	13.544
ProbeTrack13	1	ProbeTrack	13.2	SCS215a	20111031.094858	20111031.095505	8	0.013328	60	10	60-180	60	125	GapExp	BigFlash	0	57	2	0	0	distractor	1	452	774	221412	13.328	13.112	13.544
ProbeTrack13	1	ProbeTrack	13.2	SCS215a	20111031.094858	20111031.095511	8	0.013328	60	10	60-180	60	114	GapExp	BigFlash	0	58	2	45	0	distractor	1	477	762	222174	13.328	13.294	13.355
ProbeTrack13	1	ProbeTrack	13.2	SCS215a	20111031.094858	20111031.095517	8	0.013328	60	10	60-180	60	151	GapExp	BigFlash	0	59	2	1	1	target	1	318	841	223015	13.328	13.311	13.349
ProbeTrack13	1	ProbeTrack	13.2	SCS215a	20111031.094858	20111031.095524	8	0.013328	60	10	60-180	60	94	GapExp	BigFlash	0	60	2	0	1	target	1	364	818	223833	13.328	13.308	13.346
ProbeTrack13	1	ProbeTrack	13.2	SCS215a	20111031.094858	20111031.095530	8	0.013328	60	10	60-180	60	82	GapExp	BigFlash	0	61	2	3	0	distractor	1	525	738	224571	13.328	13.307	13.346
ProbeTrack13	1	ProbeTrack	13.2	SCS215a	20111031.094858	20111031.095536	8	0.013328	60	10	60-180	60	87	GapExp	BigFlash	0	62	2	3	1	target	1	337	832	225403	13.328	12.858	13.802
ProbeTrack13	1	ProbeTrack	13.2	SCS215a	20111031.094858	20111031.095542	8	0.013328	60	10	60-180	60	132	GapExp	BigFlash	0	63	2	0	1	target	1	355	823	226226	13.328	13.111	13.558
ProbeTrack13	1	ProbeTrack	13.2	SCS215a	20111031.094858	20111031.095548	8	0.013328	60	10	60-180	60	77	GapExp	BigFlash	0	64	2	0	1	target	1	411	795	227021	13.328	13.113	13.544
ProbeTrack13	1	ProbeTrack	13.2	SCS215a	20111031.094858	20111031.095553	8	0.013328	60	10	60-180	60	146	GapExp	BigFlash	0	65	2	3	1	target	1	402	799	227820	13.328	13.109	13.545
ProbeTrack13	1	ProbeTrack	13.2	SCS215a	20111031.094858	20111031.095600	8	0.013328	60	10	60-180	60	153	GapExp	BigFlash	0	66	2	1	1	target	1	370	815	228635	13.329	13.308	13.556
ProbeTrack13	1	ProbeTrack	13.2	SCS215a	20111031.094858	20111031.095607	8	0.013328	60	10	60-180	60	97	GapExp	BigFlash	0	67	2	0	0	distractor	1	551	725	229360	13.328	9.315	17.334
ProbeTrack13	1	ProbeTrack	13.2	SCS215a	20111031.094858	20111031.095613	8	0.013328	60	10	60-180	60	104	GapExp	BigFlash	0	68	2	0	0	distractor	1	465	768	230128	13.328	13.307	13.348
ProbeTrack13	1	ProbeTrack	13.2	SCS215a	20111031.094858	20111031.095619	8	0.013328	60	10	60-180	60	168	GapExp	BigFlash	0	69	2	1	1	target	1	389	806	230934	13.328	13.312	13.347
ProbeTrack13	1	ProbeTrack	13.2	SCS215a	20111031.094858	20111031.095626	8	0.013328	60	10	60-180	60	61	GapExp	BigFlash	0	70	2	0	0	target	0	539	-1000	229934	13.328	11.536	15.125
ProbeTrack13	1	ProbeTrack	13.2	SCS215a	20111031.094858	20111031.095631	8	0.013328	60	10	60-180	60	175	GapExp	BigFlash	0	71	2	1	1	target	1	364	818	230752	13.328	13.110	13.546
ProbeTrack13	1	ProbeTrack	13.2	SCS215a	20111031.094858	20111031.095639	8	0.013328	60	10	60-180	60	154	GapExp	BigFlash	0	72	2	0	0	distractor	1	614	693	231445	13.328	8.359	18.292
ProbeTrack13	1	ProbeTrack	13.2	SCS215a	20111031.094858	20111031.095646	8	0.013328	60	10	60-180	60	73	GapExp	BigFlash	0	73	2	1	1	target	1	2879	0	231445	13.328	11.747	14.900
ProbeTrack13	1	ProbeTrack	13.2	SCS215a	20111031.094858	20111031.095654	8	0.013328	60	10	60-180	60	70	GapExp	BigFlash	0	74	2	0	0	distractor	1	464	768	232213	13.328	8.149	18.506
ProbeTrack13	1	ProbeTrack	13.2	SCS215a	20111031.094858	20111031.095700	8	0.013328	60	10	60-180	60	74	GapExp	BigFlash	0	75	2	45	1	target	1	358	821	233034	13.328	13.096	13.560
ProbeTrack13	1	ProbeTrack	13.2	SCS215a	20111031.094858	20111031.095706	8	0.013328	60	10	60-180	60	83	GapExp	BigFlash	0	76	2	0	1	target	1	363	819	233853	13.328	13.312	13.345
ProbeTrack13	1	ProbeTrack	13.2	SCS215a	20111031.094858	20111031.095712	8	0.013328	60	10	60-180	60	121	GapExp	BigFlash	0	77	2	1	1	target	1	436	782	234635	13.328	13.091	13.559
ProbeTrack13	1	ProbeTrack	13.2	SCS215a	20111031.094858	20111031.095717	8	0.013328	60	10	60-180	60	115	GapExp	BigFlash	0	78	2	1	0	distractor	1	461	770	235405	13.328	13.295	13.354
ProbeTrack13	1	ProbeTrack	13.2	SCS215a	20111031.094858	20111031.095723	8	0.013328	60	10	60-180	60	129	GapExp	BigFlash	0	79	2	1	1	target	1	340	830	236235	13.328	3.165	23.489
ProbeTrack13	1	ProbeTrack	13.2	SCS215a	20111031.094858	20111031.095730	8	0.013328	60	10	60-180	60	166	GapExp	BigFlash	0	80	2	1	1	target	1	313	844	237079	13.328	13.306	13.347
ProbeTrack13	1	ProbeTrack	13.2	SCS215a	20111031.094858	20111031.095736	8	0.013328	60	10	60-180	60	132	GapExp	BigFlash	0	81	2	1	1	target	1	351	825	237904	13.328	13.308	13.345
ProbeTrack13	1	ProbeTrack	13.2	SCS215a	20111031.094858	20111031.095743	8	0.013328	60	10	60-180	60	161	GapExp	BigFlash	0	82	2	1	0	distractor	1	539	731	238635	13.328	11.979	14.677
ProbeTrack13	1	ProbeTrack	13.2	SCS215a	20111031.094858	20111031.095750	8	0.013328	60	10	60-180	60	61	GapExp	BigFlash	0	83	2	45	1	target	1	446	777	239412	13.328	7.200	19.456
ProbeTrack13	1	ProbeTrack	13.2	SCS215a	20111031.094858	20111031.095755	8	0.013328	60	10	60-180	60	86	GapExp	BigFlash	0	84	2	3	0	distractor	1	444	778	240190	13.328	12.897	13.758
ProbeTrack13	1	ProbeTrack	13.2	SCS215a	20111031.094858	20111031.095801	8	0.013328	60	10	60-180	60	171	GapExp	BigFlash	0	85	2	0	1	target	1	405	798	240988	13.328	13.099	13.565
ProbeTrack13	1	ProbeTrack	13.2	SCS215a	20111031.094858	20111031.095807	8	0.013328	60	10	60-180	60	101	GapExp	BigFlash	0	86	2	45	1	target	1	484	758	241746	13.328	8.669	17.994
ProbeTrack13	1	ProbeTrack	13.2	SCS215a	20111031.094858	20111031.095814	8	0.013328	60	10	60-180	60	130	GapExp	BigFlash	0	87	2	1	1	target	1	352	824	242570	13.328	13.297	13.368
ProbeTrack13	1	ProbeTrack	13.2	SCS215a	20111031.094858	20111031.095820	8	0.013328	60	10	60-180	60	106	GapExp	BigFlash	0	88	2	3	0	distractor	1	477	762	243332	13.328	12.418	14.226
ProbeTrack13	1	ProbeTrack	13.2	SCS215a	20111031.094858	20111031.095826	8	0.013328	60	10	60-180	60	72	GapExp	BigFlash	0	89	2	3	0	distractor	1	466	767	244099	13.328	13.308	13.346
ProbeTrack13	1	ProbeTrack	13.2	SCS215a	20111031.094858	20111031.095832	8	0.013328	60	10	60-180	60	82	GapExp	BigFlash	0	90	2	45	1	target	1	449	776	244875	13.328	13.299	13.349
ProbeTrack13	1	ProbeTrack	13.2	SCS215a	20111031.094858	20111031.095838	8	0.013328	60	10	60-180	60	67	GapExp	BigFlash	0	91	2	1	0	distractor	1	562	719	245594	13.328	13.309	13.344
ProbeTrack13	1	ProbeTrack	13.2	SCS215a	20111031.094858	20111031.095843	8	0.013328	60	10	60-180	60	106	GapExp	BigFlash	0	92	2	3	1	target	1	353	824	246418	13.328	13.031	13.625
ProbeTrack13	1	ProbeTrack	13.2	SCS215a	20111031.094858	20111031.095850	8	0.013328	60	10	60-180	60	136	GapExp	BigFlash	0	93	2	3	1	target	1	387	807	247225	13.328	13.103	13.556
ProbeTrack13	1	ProbeTrack	13.2	SCS215a	20111031.094858	20111031.095856	8	0.013328	60	10	60-180	60	149	GapExp	BigFlash	0	94	2	1	1	target	1	294	853	248078	13.328	13.107	13.564
ProbeTrack13	1	ProbeTrack	13.2	SCS215a	20111031.094858	20111031.095902	8	0.013328	60	10	60-180	60	99	GapExp	BigFlash	0	95	2	1	0	distractor	1	483	759	248837	13.328	6.259	20.399
ProbeTrack13	1	ProbeTrack	13.2	SCS215a	20111031.094858	20111031.095908	8	0.013328	60	10	60-180	60	150	GapExp	BigFlash	0	96	2	3	0	distractor	1	429	786	249623	13.328	13.305	13.347
ProbeTrack13	1	ProbeTrack	13.2	SCS215a	20111031.094858	20111031.095914	8	0.013328	60	10	60-180	60	170	GapExp	BigFlash	0	97	2	1	0	distractor	1	418	791	250414	13.328	10.225	16.418
ProbeTrack13	1	ProbeTrack	13.2	SCS215a	20111031.094858	20111031.095922	8	0.013328	60	10	60-180	60	132	GapExp	BigFlash	0	98	2	0	1	target	1	431	785	251199	13.328	11.310	15.332
ProbeTrack13	1	ProbeTrack	13.2	SCS215a	20111031.094858	20111031.095928	8	0.013328	60	10	60-180	60	155	GapExp	BigFlash	0	99	2	0	0	distractor	1	363	819	252018	13.328	13.154	13.494
ProbeTrack13	1	ProbeTrack	13.2	SCS215a	20111031.094858	20111031.095934	8	0.013328	60	10	60-180	60	79	GapExp	BigFlash	0	100	2	0	1	target	1	506	747	252765	13.328	13.295	13.359
ProbeTrack13	1	ProbeTrack	13.2	SCS215a	20111031.094858	20111031.095940	8	0.013328	60	10	60-180	60	155	GapExp	BigFlash	0	101	2	0	1	target	1	759	621	253386	13.328	6.157	20.494
ProbeTrack13	1	ProbeTrack	13.2	SCS215a	20111031.094858	20111031.095947	8	0.013328	60	10	60-180	60	121	GapExp	BigFlash	0	102	2	1	1	target	1	388	806	254192	13.328	13.100	13.561
ProbeTrack13	1	ProbeTrack	13.2	SCS215a	20111031.094858	20111031.095953	8	0.013328	60	10	60-180	60	68	GapExp	BigFlash	0	103	2	45	1	target	1	465	768	254960	13.328	11.881	14.762
ProbeTrack13	1	ProbeTrack	13.2	SCS215a	20111031.094858	20111031.095959	8	0.013328	60	10	60-180	60	80	GapExp	BigFlash	0	104	2	0	0	distractor	1	437	782	255742	13.395	13.290	26.711
ProbeTrack13	1	ProbeTrack	13.2	SCS215a	20111031.094858	20111031.100004	8	0.013328	60	10	60-180	60	171	GapExp	BigFlash	0	105	2	3	0	distractor	1	590	705	256447	13.372	4.202	26.337
ProbeTrack13	1	ProbeTrack	13.2	SCS215a	20111031.094858	20111031.100011	8	0.013328	60	10	60-180	60	160	GapExp	BigFlash	0	106	2	3	1	target	1	355	823	257270	13.328	12.891	13.782
ProbeTrack13	1	ProbeTrack	13.2	SCS215a	20111031.094858	20111031.100018	8	0.013328	60	10	60-180	60	141	GapExp	BigFlash	0	107	2	45	1	target	1	395	803	258073	13.328	13.308	13.347
ProbeTrack13	1	ProbeTrack	13.2	SCS215a	20111031.094858	20111031.100025	8	0.013328	60	10	60-180	60	122	GapExp	BigFlash	0	108	2	3	0	distractor	1	414	793	258866	13.328	13.311	13.350
ProbeTrack13	1	ProbeTrack	13.2	SCS215a	20111031.094858	20111031.100031	8	0.013328	60	10	60-180	60	108	GapExp	BigFlash	0	109	2	1	0	distractor	1	421	790	259656	13.328	13.303	13.349
ProbeTrack13	1	ProbeTrack	13.2	SCS215a	20111031.094858	20111031.100037	8	0.013328	60	10	60-180	60	179	GapExp	BigFlash	0	110	2	45	0	distractor	1	398	801	260457	13.328	4.922	21.730
ProbeTrack13	1	ProbeTrack	13.2	SCS215a	20111031.094858	20111031.100044	8	0.013328	60	10	60-180	60	143	GapExp	BigFlash	0	111	2	45	1	distractor	0	362	-1000	259457	13.328	12.655	13.999
ProbeTrack13	1	ProbeTrack	13.2	SCS215a	20111031.094858	20111031.100051	8	0.013328	60	10	60-180	60	87	GapExp	BigFlash	0	112	2	3	0	distractor	1	476	762	260219	13.328	10.344	16.307
ProbeTrack13	1	ProbeTrack	13.2	SCS215a	20111031.094858	20111031.100057	8	0.013328	60	10	60-180	60	73	GapExp	BigFlash	0	113	2	0	1	target	1	479	761	260980	13.328	9.472	17.189
ProbeTrack13	1	ProbeTrack	13.2	SCS215a	20111031.094858	20111031.100103	8	0.013328	60	10	60-180	60	110	GapExp	BigFlash	0	114	2	45	0	distractor	1	702	649	261629	13.328	10.027	16.625
ProbeTrack13	1	ProbeTrack	13.2	SCS215a	20111031.094858	20111031.100109	8	0.013328	60	10	60-180	60	131	GapExp	BigFlash	0	115	2	0	1	target	1	402	799	262428	13.328	8.261	18.396
ProbeTrack13	1	ProbeTrack	13.2	SCS215a	20111031.094858	20111031.100115	8	0.013328	60	10	60-180	60	147	GapExp	BigFlash	0	116	2	0	1	target	1	374	813	263241	13.328	10.017	16.646
ProbeTrack13	1	ProbeTrack	13.2	SCS215a	20111031.094858	20111031.100122	8	0.013328	60	10	60-180	60	102	GapExp	BigFlash	0	117	2	3	0	distractor	1	480	760	264001	13.328	13.309	13.353
ProbeTrack13	1	ProbeTrack	13.2	SCS215a	20111031.094858	20111031.100128	8	0.013328	60	10	60-180	60	126	GapExp	BigFlash	0	118	2	3	0	distractor	1	511	745	264746	13.328	12.906	13.740
ProbeTrack13	1	ProbeTrack	13.2	SCS215a	20111031.094858	20111031.100134	8	0.013328	60	10	60-180	60	125	GapExp	BigFlash	0	119	2	0	0	distractor	1	494	753	265499	13.328	13.303	13.348
ProbeTrack13	1	ProbeTrack	13.2	SCS215a	20111031.094858	20111031.100140	8	0.013328	60	10	60-180	60	166	GapExp	BigFlash	0	120	2	45	1	target	1	576	712	266211	13.328	6.562	20.094
ProbeTrack13	1	ProbeTrack	13.2	SCS215a	20111031.094858	20111031.100148	8	0.013328	60	10	60-180	60	122	GapExp	BigFlash	0	121	2	1	0	distractor	1	603	699	266910	13.328	13.098	13.566
ProbeTrack13	1	ProbeTrack	13.2	SCS215a	20111031.094858	20111031.100154	8	0.013328	60	10	60-180	60	66	GapExp	BigFlash	0	122	2	1	1	target	1	399	801	267711	13.328	4.120	22.550
ProbeTrack13	1	ProbeTrack	13.2	SCS215a	20111031.094858	20111031.100159	8	0.013328	60	10	60-180	60	79	GapExp	BigFlash	0	123	2	1	1	target	1	331	835	268546	13.328	13.308	13.343
ProbeTrack13	1	ProbeTrack	13.2	SCS215a	20111031.094858	20111031.100205	8	0.013328	60	10	60-180	60	177	GapExp	BigFlash	0	124	2	3	1	target	1	413	794	269340	13.328	13.307	13.352
ProbeTrack13	1	ProbeTrack	13.2	SCS215a	20111031.094858	20111031.100211	8	0.013328	60	10	60-180	60	87	GapExp	BigFlash	0	125	2	3	1	target	1	367	817	270157	13.328	9.019	17.635
ProbeTrack13	1	ProbeTrack	13.2	SCS215a	20111031.094858	20111031.100217	8	0.013328	60	10	60-180	60	116	GapExp	BigFlash	0	126	2	1	0	distractor	1	426	787	270944	13.328	10.058	16.604
ProbeTrack13	1	ProbeTrack	13.2	SCS215a	20111031.094858	20111031.100223	8	0.013328	60	10	60-180	60	106	GapExp	BigFlash	0	127	2	1	0	distractor	1	780	610	271554	13.328	13.112	13.545
ProbeTrack13	1	ProbeTrack	13.2	SCS215a	20111031.094858	20111031.100229	8	0.013328	60	10	60-180	60	157	GapExp	BigFlash	0	128	2	45	1	target	1	440	780	272334	13.328	5.145	21.511
ProbeTrack13	1	ProbeTrack	13.2	SCS215a	20111031.094858	20111031.100237	8	0.013328	60	10	60-180	60	93	GapExp	BigFlash	0	129	2	3	1	target	1	375	813	273147	13.328	13.099	13.549
ProbeTrack13	1	ProbeTrack	13.2	SCS215a	20111031.094858	20111031.100242	8	0.013328	60	10	60-180	60	68	GapExp	BigFlash	0	130	2	0	0	distractor	1	554	723	273870	13.328	13.304	13.358
ProbeTrack13	1	ProbeTrack	13.2	SCS215a	20111031.094858	20111031.100248	8	0.013328	60	10	60-180	60	85	GapExp	BigFlash	0	131	2	1	1	target	1	400	800	274670	13.328	12.584	14.084
ProbeTrack13	1	ProbeTrack	13.2	SCS215a	20111031.094858	20111031.100253	8	0.013328	60	10	60-180	60	65	GapExp	BigFlash	0	132	2	0	0	distractor	1	494	753	275423	13.328	13.310	13.347
ProbeTrack13	1	ProbeTrack	13.2	SCS215a	20111031.094858	20111031.100258	8	0.013328	60	10	60-180	60	107	GapExp	BigFlash	0	133	2	0	1	target	1	390	805	276228	13.328	9.543	17.108
ProbeTrack13	1	ProbeTrack	13.2	SCS215a	20111031.094858	20111031.100304	8	0.013328	60	10	60-180	60	68	GapExp	BigFlash	0	134	2	0	1	target	1	346	827	277055	13.328	13.091	13.549
ProbeTrack13	1	ProbeTrack	13.2	SCS215a	20111031.094858	20111031.100310	8	0.013328	60	10	60-180	60	115	GapExp	BigFlash	0	135	2	1	0	distractor	1	669	666	277721	13.328	12.244	14.414
ProbeTrack13	1	ProbeTrack	13.2	SCS215a	20111031.094858	20111031.100316	8	0.013328	60	10	60-180	60	124	GapExp	BigFlash	0	136	2	0	0	distractor	1	500	750	278471	13.328	13.091	13.552
ProbeTrack13	1	ProbeTrack	13.2	SCS215a	20111031.094858	20111031.100322	8	0.013328	60	10	60-180	60	171	GapExp	BigFlash	0	137	2	0	1	target	1	401	800	279271	13.328	12.327	14.330
ProbeTrack13	1	ProbeTrack	13.2	SCS215a	20111031.094858	20111031.100329	8	0.013328	60	10	60-180	60	78	GapExp	BigFlash	0	138	2	3	1	target	1	421	790	280061	13.328	13.312	13.349
ProbeTrack13	1	ProbeTrack	13.2	SCS215a	20111031.094858	20111031.100334	8	0.013328	60	10	60-180	60	102	GapExp	BigFlash	0	139	2	45	0	distractor	1	474	763	280824	13.328	13.294	13.356
ProbeTrack13	1	ProbeTrack	13.2	SCS215a	20111031.094858	20111031.100341	8	0.013328	60	10	60-180	60	112	GapExp	BigFlash	0	140	2	0	0	distractor	1	437	782	281606	13.328	13.307	13.349
ProbeTrack13	1	ProbeTrack	13.2	SCS215a	20111031.094858	20111031.100347	8	0.013328	60	10	60-180	60	123	GapExp	BigFlash	0	141	2	0	1	target	1	341	830	282436	13.328	5.881	20.787
ProbeTrack13	1	ProbeTrack	13.2	SCS215a	20111031.094858	20111031.100353	8	0.013328	60	10	60-180	60	160	GapExp	BigFlash	0	142	2	45	0	distractor	1	485	758	283194	13.328	13.106	13.563
ProbeTrack13	1	ProbeTrack	13.2	SCS215a	20111031.094858	20111031.100400	8	0.013328	60	10	60-180	60	127	GapExp	BigFlash	0	143	2	3	1	target	1	408	796	283990	13.328	11.548	15.121
ProbeTrack13	1	ProbeTrack	13.2	SCS215a	20111031.094858	20111031.100406	8	0.013328	60	10	60-180	60	112	GapExp	BigFlash	0	144	2	3	0	distractor	1	701	650	284640	13.328	13.113	13.549
ProbeTrack13	1	ProbeTrack	13.2	SCS215a	20111031.094858	20111031.100413	8	0.013328	60	10	60-180	60	127	GapExp	BigFlash	0	145	2	3	1	target	1	752	624	285264	13.328	13.086	13.570
ProbeTrack13	1	ProbeTrack	13.2	SCS215a	20111031.094858	20111031.100419	8	0.013328	60	10	60-180	60	171	GapExp	BigFlash	0	146	2	3	1	target	1	296	852	286116	13.328	13.307	13.350
ProbeTrack13	1	ProbeTrack	13.2	SCS215a	20111031.094858	20111031.100426	8	0.013328	60	10	60-180	60	63	GapExp	BigFlash	0	147	2	45	0	early	-4	-1857	-1000	285116	13.328	13.307	13.350
ProbeTrack13	1	ProbeTrack	13.2	SCS215a	20111031.094858	20111031.100432	8	0.013328	60	10	60-180	60	84	GapExp	BigFlash	0	148	2	0	0	distractor	1	631	685	285801	13.328	13.307	13.344
ProbeTrack13	1	ProbeTrack	13.2	SCS215a	20111031.094858	20111031.100439	8	0.013328	60	10	60-180	60	129	GapExp	BigFlash	0	149	2	1	1	target	1	368	816	286617	13.328	13.311	13.347
ProbeTrack13	1	ProbeTrack	13.2	SCS215a	20111031.094858	20111031.100446	8	0.013328	60	10	60-180	60	95	GapExp	BigFlash	0	150	2	3	1	target	1	483	759	287376	13.328	13.307	13.346
ProbeTrack13	1	ProbeTrack	13.2	SCS215a	20111031.094858	20111031.100451	8	0.013328	60	10	60-180	60	115	GapExp	BigFlash	0	151	2	3	1	target	1	401	800	288176	13.328	5.776	20.886
ProbeTrack13	1	ProbeTrack	13.2	SCS215a	20111031.094858	20111031.100458	8	0.013328	60	10	60-180	60	110	GapExp	BigFlash	0	152	2	1	1	target	1	522	739	288915	13.328	13.307	13.349
ProbeTrack13	1	ProbeTrack	13.2	SCS215a	20111031.094858	20111031.100504	8	0.013328	60	10	60-180	60	105	GapExp	BigFlash	0	153	2	3	0	distractor	1	470	765	289680	13.328	12.220	14.431
ProbeTrack13	1	ProbeTrack	13.2	SCS215a	20111031.094858	20111031.100510	8	0.013328	60	10	60-180	60	91	GapExp	BigFlash	0	154	2	0	1	target	1	387	807	290487	13.328	12.391	14.273
ProbeTrack13	1	ProbeTrack	13.2	SCS215a	20111031.094858	20111031.100515	8	0.013328	60	10	60-180	60	145	GapExp	BigFlash	0	155	2	1	0	distractor	1	488	756	291243	13.328	13.096	13.565
ProbeTrack13	1	ProbeTrack	13.2	SCS215a	20111031.094858	20111031.100522	8	0.013328	60	10	60-180	60	87	GapExp	BigFlash	0	156	2	1	0	distractor	1	493	754	291997	13.328	13.090	13.552
ProbeTrack13	1	ProbeTrack	13.2	SCS215a	20111031.094858	20111031.100528	8	0.013328	60	10	60-180	60	166	GapExp	BigFlash	0	157	2	45	0	distractor	1	404	798	292795	13.328	7.780	18.871
ProbeTrack13	1	ProbeTrack	13.2	SCS215a	20111031.094858	20111031.100535	8	0.013328	60	10	60-180	60	131	GapExp	BigFlash	0	158	2	45	1	target	1	489	756	293551	13.328	13.099	13.558
ProbeTrack13	1	ProbeTrack	13.2	SCS215a	20111031.094858	20111031.100542	8	0.013328	60	10	60-180	60	142	GapExp	BigFlash	0	159	2	45	0	distractor	1	493	754	294305	13.328	13.104	13.562
ProbeTrack13	1	ProbeTrack	13.2	SCS215a	20111031.094858	20111031.100549	8	0.013328	60	10	60-180	60	160	GapExp	BigFlash	0	160	2	0	0	distractor	1	476	762	295067	13.328	13.091	13.564
ProbeTrack13	1	ProbeTrack	13.2	SCS215a	20111031.094858	20111031.100557	8	0.013328	60	10	60-180	60	167	GapExp	BigFlash	0	161	2	1	1	target	1	653	674	295741	13.328	8.368	18.289
ProbeTrack13	1	ProbeTrack	13.2	SCS215a	20111031.094858	20111031.100604	8	0.013328	60	10	60-180	60	151	GapExp	BigFlash	0	162	2	3	1	target	1	347	827	296568	13.328	11.789	14.871
ProbeTrack13	1	ProbeTrack	13.2	SCS215a	20111031.094858	20111031.100610	8	0.013328	60	10	60-180	60	148	GapExp	BigFlash	0	163	2	45	0	distractor	1	443	779	297347	13.328	11.872	14.783
ProbeTrack13	1	ProbeTrack	13.2	SCS215a	20111031.094858	20111031.100617	8	0.013328	60	10	60-180	60	149	GapExp	BigFlash	0	164	2	0	0	distractor	1	629	686	298033	13.328	13.099	13.558
ProbeTrack13	1	ProbeTrack	13.2	SCS215a	20111031.094858	20111031.100624	8	0.013328	60	10	60-180	60	87	GapExp	BigFlash	0	165	2	45	0	distractor	1	487	757	298790	13.328	10.633	16.036
ProbeTrack13	1	ProbeTrack	13.2	SCS215a	20111031.094858	20111031.100631	8	0.013328	60	10	60-180	60	153	GapExp	BigFlash	0	166	2	45	1	target	1	406	797	299587	13.328	13.262	13.387
ProbeTrack13	1	ProbeTrack	13.2	SCS215a	20111031.094858	20111031.100638	8	0.013328	60	10	60-180	60	161	GapExp	BigFlash	0	167	2	45	1	target	1	462	769	300356	13.328	13.105	13.564
ProbeTrack13	1	ProbeTrack	13.2	SCS215a	20111031.094858	20111031.100646	8	0.013328	60	10	60-180	60	125	GapExp	BigFlash	0	168	2	1	0	distractor	1	524	738	301094	13.328	13.098	13.558
ProbeTrack13	1	ProbeTrack	13.2	SCS215a	20111031.094858	20111031.100652	8	0.013328	60	10	60-180	60	131	GapExp	BigFlash	0	169	2	45	0	distractor	1	444	778	301872	13.328	8.386	18.263
ProbeTrack13	1	ProbeTrack	13.2	SCS215a	20111031.094858	20111031.100659	8	0.013328	60	10	60-180	60	123	GapExp	BigFlash	0	170	2	3	0	distractor	1	509	746	302618	13.328	4.165	22.493
ProbeTrack13	1	ProbeTrack	13.2	SCS215a	20111031.094858	20111031.100705	8	0.013328	60	10	60-180	60	111	GapExp	BigFlash	0	171	2	3	0	distractor	1	409	796	303414	13.328	13.308	13.344
ProbeTrack13	1	ProbeTrack	13.2	SCS215a	20111031.094858	20111031.100711	8	0.013328	60	10	60-180	60	145	GapExp	BigFlash	0	172	2	1	1	target	1	367	817	304231	13.328	11.790	14.873
ProbeTrack13	1	ProbeTrack	13.2	SCS215a	20111031.094858	20111031.100717	8	0.013328	60	10	60-180	60	104	GapExp	BigFlash	0	173	2	0	0	distractor	1	518	741	304972	13.328	13.308	13.348
ProbeTrack13	1	ProbeTrack	13.2	SCS215a	20111031.094858	20111031.100723	8	0.013328	60	10	60-180	60	112	GapExp	BigFlash	0	174	2	45	0	distractor	1	937	532	305504	13.328	13.107	13.537
ProbeTrack13	1	ProbeTrack	13.2	SCS215a	20111031.094858	20111031.100730	8	0.013328	60	10	60-180	60	116	GapExp	BigFlash	0	175	2	0	1	target	1	358	821	306325	13.328	13.119	13.535
ProbeTrack13	1	ProbeTrack	13.2	SCS215a	20111031.094858	20111031.100736	8	0.013328	60	10	60-180	60	167	GapExp	BigFlash	0	176	2	0	0	distractor	1	506	747	307072	13.328	13.092	13.557
ProbeTrack13	1	ProbeTrack	13.2	SCS215a	20111031.094858	20111031.100743	8	0.013328	60	10	60-180	60	96	GapExp	BigFlash	0	177	2	3	0	distractor	1	411	795	307867	13.328	13.293	13.357
ProbeTrack13	1	ProbeTrack	13.2	SCS215a	20111031.094858	20111031.100749	8	0.013328	60	10	60-180	60	180	GapExp	BigFlash	0	178	2	45	1	target	1	378	811	308678	13.328	13.106	13.550
ProbeTrack13	1	ProbeTrack	13.2	SCS215a	20111031.094858	20111031.100756	8	0.013328	60	10	60-180	60	75	GapExp	BigFlash	0	179	2	1	0	distractor	1	423	789	309467	13.328	13.111	13.538
ProbeTrack13	1	ProbeTrack	13.2	SCS215a	20111031.094858	20111031.100802	8	0.013328	60	10	60-180	60	149	GapExp	BigFlash	0	180	2	1	0	distractor	1	549	726	310193	13.328	7.177	19.493
ProbeTrack13	1	ProbeTrack	13.2	SCS215a	20111031.094858	20111031.100808	8	0.013328	60	10	60-180	60	146	GapExp	BigFlash	0	181	2	3	1	target	1	410	795	310988	13.328	13.308	13.348
ProbeTrack13	1	ProbeTrack	13.2	SCS215a	20111031.094858	20111031.100815	8	0.013328	60	10	60-180	60	162	GapExp	BigFlash	0	182	2	45	1	target	1	371	815	311803	13.328	11.399	15.270
ProbeTrack13	1	ProbeTrack	13.2	SCS215a	20111031.094858	20111031.100822	8	0.013328	60	10	60-180	60	64	GapExp	BigFlash	0	183	2	45	0	distractor	1	516	742	312545	13.328	13.308	13.345
ProbeTrack13	1	ProbeTrack	13.2	SCS215a	20111031.094858	20111031.100827	8	0.013328	60	10	60-180	60	126	GapExp	BigFlash	0	184	2	1	0	distractor	1	462	769	313314	13.328	8.854	17.801
ProbeTrack13	1	ProbeTrack	13.2	SCS215a	20111031.094858	20111031.100833	8	0.013328	60	10	60-180	60	162	GapExp	BigFlash	0	185	2	45	0	distractor	1	595	703	314017	13.328	8.068	18.587
ProbeTrack13	1	ProbeTrack	13.2	SCS215a	20111031.094858	20111031.100841	8	0.013328	60	10	60-180	60	155	GapExp	BigFlash	0	186	2	45	0	distractor	1	457	772	314789	13.328	5.767	20.894
ProbeTrack13	1	ProbeTrack	13.2	SCS215a	20111031.094858	20111031.100848	8	0.013328	60	10	60-180	60	171	GapExp	BigFlash	0	187	2	1	1	target	1	325	838	315627	13.328	10.372	16.299
ProbeTrack13	1	ProbeTrack	13.2	SCS215a	20111031.094858	20111031.100855	8	0.013328	60	10	60-180	60	65	GapExp	BigFlash	0	188	2	1	0	distractor	1	484	758	316385	13.328	12.754	13.904
ProbeTrack13	1	ProbeTrack	13.2	SCS215a	20111031.094858	20111031.100900	8	0.013328	60	10	60-180	60	67	GapExp	BigFlash	0	189	2	1	1	target	1	321	840	317225	13.328	13.099	13.558
ProbeTrack13	1	ProbeTrack	13.2	SCS215a	20111031.094858	20111031.100905	8	0.013328	60	10	60-180	60	97	GapExp	BigFlash	0	190	2	3	0	distractor	1	348	826	318051	13.328	13.307	13.350
ProbeTrack13	1	ProbeTrack	13.2	SCS215a	20111031.094858	20111031.100910	8	0.013328	60	10	60-180	60	75	GapExp	BigFlash	0	191	2	3	0	distractor	1	418	791	318842	13.328	13.302	13.355
ProbeTrack13	1	ProbeTrack	13.2	SCS215a	20111031.094858	20111031.100916	8	0.013328	60	10	60-180	60	128	GapExp	BigFlash	0	192	2	45	0	distractor	1	462	769	319611	13.328	13.096	13.559
ProbeTrack13	1	ProbeTrack	13.2	SCS215a	20111031.094858	20111031.100922	8	0.013328	60	10	60-180	60	99	GapExp	BigFlash	0	193	2	0	1	target	1	386	807	320418	13.328	8.961	17.703
ProbeTrack13	1	ProbeTrack	13.2	SCS215a	20111031.094858	20111031.100928	8	0.013328	60	10	60-180	60	124	GapExp	BigFlash	0	194	2	45	1	distractor	0	372	-1000	319418	13.328	13.097	13.552
ProbeTrack13	1	ProbeTrack	13.2	SCS215a	20111031.094858	20111031.100934	8	0.013328	60	10	60-180	60	140	GapExp	BigFlash	0	195	2	1	1	target	1	331	835	320253	13.328	13.105	13.538
ProbeTrack13	1	ProbeTrack	13.2	SCS215a	20111031.094858	20111031.100941	8	0.013328	60	10	60-180	60	81	GapExp	BigFlash	0	196	2	45	0	distractor	1	476	762	321015	13.328	13.305	13.348
ProbeTrack13	1	ProbeTrack	13.2	SCS215a	20111031.094858	20111031.100947	8	0.013328	60	10	60-180	60	93	GapExp	BigFlash	0	197	2	45	1	target	1	411	795	321810	13.328	12.952	13.697
ProbeTrack13	1	ProbeTrack	13.2	SCS215a	20111031.094858	20111031.100953	8	0.013328	60	10	60-180	60	109	GapExp	BigFlash	0	198	2	45	0	distractor	1	462	769	322579	13.328	13.303	13.354
ProbeTrack13	1	ProbeTrack	13.2	SCS215a	20111031.094858	20111031.100959	8	0.013328	60	10	60-180	60	88	GapExp	BigFlash	0	199	2	45	0	distractor	1	502	749	323328	13.328	7.270	19.378
ProbeTrack13	1	ProbeTrack	13.2	SCS215a	20111031.094858	20111031.101005	8	0.013328	60	10	60-180	60	167	GapExp	BigFlash	0	200	2	0	0	distractor	1	857	572	323900	13.328	10.937	17.097
ProbeTrack13	1	ProbeTrack	13.2	SCS215a	20111031.101120	20111031.101124	8	0.013328	60	10	60-180	60	62	GapPrac	SmallFlash	1	1	2	1	1	target	1	419	791	324691	13.402	13.242	13.427
ProbeTrack13	1	ProbeTrack	13.2	SCS215a	20111031.101120	20111031.101131	8	0.013328	60	10	60-180	60	106	GapPrac	SmallFlash	1	2	2	3	0	distractor	1	454	773	325464	13.328	12.911	13.753
ProbeTrack13	1	ProbeTrack	13.2	SCS215a	20111031.101120	20111031.101137	8	0.013328	60	10	60-180	60	93	GapPrac	SmallFlash	1	3	2	45	1	target	1	440	780	326244	13.328	12.953	13.700
ProbeTrack13	1	ProbeTrack	13.2	SCS215a	20111031.101120	20111031.101143	8	0.013328	60	10	60-180	60	123	GapPrac	SmallFlash	1	4	2	3	1	target	1	304	848	327092	13.328	13.025	13.638
ProbeTrack13	1	ProbeTrack	13.2	SCS215a	20111031.101120	20111031.101149	8	0.013328	60	10	60-180	60	178	GapPrac	SmallFlash	1	5	2	1	0	distractor	1	428	786	327878	13.328	12.929	13.741
ProbeTrack13	1	ProbeTrack	13.2	SCS215a	20111031.101120	20111031.101156	8	0.013328	60	10	60-180	60	155	GapPrac	SmallFlash	1	6	2	0	0	distractor	1	627	687	328565	13.328	12.887	13.758
ProbeTrack13	1	ProbeTrack	13.2	SCS215a	20111031.101120	20111031.101203	8	0.013328	60	10	60-180	60	86	GapPrac	SmallFlash	1	7	2	45	1	target	1	578	711	329276	13.328	13.106	13.551
ProbeTrack13	1	ProbeTrack	13.2	SCS215a	20111031.101120	20111031.101209	8	0.013328	60	10	60-180	60	166	GapPrac	SmallFlash	1	8	2	3	1	target	1	292	854	330130	13.328	12.970	13.694
ProbeTrack13	1	ProbeTrack	13.2	SCS215a	20111031.101120	20111031.101216	8	0.013328	60	10	60-180	60	152	GapPrac	SmallFlash	1	9	2	3	1	target	1	417	792	330922	13.328	13.106	13.550
ProbeTrack13	1	ProbeTrack	13.2	SCS215a	20111031.101120	20111031.101222	8	0.013328	60	10	60-180	60	70	GapPrac	SmallFlash	1	10	2	0	0	distractor	1	457	772	331694	13.328	12.861	13.798
ProbeTrack13	1	ProbeTrack	13.2	SCS215a	20111031.101120	20111031.101227	8	0.013328	60	10	60-180	60	144	GapPrac	SmallFlash	1	11	2	3	0	distractor	1	463	769	332463	13.328	13.198	13.458
ProbeTrack13	1	ProbeTrack	13.2	SCS215a	20111031.101120	20111031.101234	8	0.013328	60	10	60-180	60	73	GapPrac	SmallFlash	1	12	2	1	1	target	1	394	803	333266	13.328	13.308	13.354
ProbeTrack13	1	ProbeTrack	13.2	SCS215a	20111031.101120	20111031.101239	8	0.013328	60	10	60-180	60	129	GapPrac	SmallFlash	1	13	2	1	0	distractor	1	447	777	334043	13.328	12.996	13.668
ProbeTrack13	1	ProbeTrack	13.2	SCS215a	20111031.101120	20111031.101245	8	0.013328	60	10	60-180	60	124	GapPrac	SmallFlash	1	14	2	1	1	target	1	443	779	334822	13.328	12.940	13.724
ProbeTrack13	1	ProbeTrack	13.2	SCS215a	20111031.101120	20111031.101252	8	0.013328	60	10	60-180	60	114	GapPrac	SmallFlash	1	15	2	45	0	target	0	882	-1000	333822	13.328	13.029	13.646
ProbeTrack13	1	ProbeTrack	13.2	SCS215a	20111031.101120	20111031.101259	8	0.013328	60	10	60-180	60	137	GapPrac	SmallFlash	1	16	2	0	1	target	1	374	813	334635	13.328	12.866	13.799
ProbeTrack13	1	ProbeTrack	13.2	SCS215a	20111031.101120	20111031.101306	8	0.013328	60	10	60-180	60	122	GapPrac	SmallFlash	1	17	2	45	0	distractor	1	423	789	335424	13.328	13.090	13.559
ProbeTrack13	1	ProbeTrack	13.2	SCS215a	20111031.101120	20111031.101313	8	0.013328	60	10	60-180	60	134	GapPrac	SmallFlash	1	18	2	3	0	distractor	1	482	759	336183	13.328	12.867	13.789
ProbeTrack13	1	ProbeTrack	13.2	SCS215a	20111031.101120	20111031.101319	8	0.013328	60	10	60-180	60	146	GapPrac	SmallFlash	1	19	2	45	1	target	1	352	824	337007	13.328	13.093	13.549
ProbeTrack13	1	ProbeTrack	13.2	SCS215a	20111031.101120	20111031.101326	8	0.013328	60	10	60-180	60	152	GapPrac	SmallFlash	1	20	2	0	1	target	1	423	789	337796	13.328	13.059	13.597
ProbeTrack13	1	ProbeTrack	13.2	SCS215a	20111031.101415	20111031.101420	8	0.013328	60	10	60-180	60	134	GapExp	SmallFlash	1	1	2	3	0	distractor	1	479	761	338557	13.379	12.866	13.811
ProbeTrack13	1	ProbeTrack	13.2	SCS215a	20111031.101415	20111031.101429	8	0.013328	60	10	60-180	60	153	GapExp	SmallFlash	1	2	2	3	1	target	1	446	777	339334	13.328	12.890	13.759
ProbeTrack13	1	ProbeTrack	13.2	SCS215a	20111031.101415	20111031.101435	8	0.013328	60	10	60-180	60	92	GapExp	SmallFlash	1	3	2	45	1	target	1	322	839	340173	13.328	13.099	13.551
ProbeTrack13	1	ProbeTrack	13.2	SCS215a	20111031.101415	20111031.101441	8	0.013328	60	10	60-180	60	169	GapExp	SmallFlash	1	4	2	45	0	distractor	1	426	787	340960	13.328	12.917	13.742
ProbeTrack13	1	ProbeTrack	13.2	SCS215a	20111031.101415	20111031.101449	8	0.013328	60	10	60-180	60	135	GapExp	SmallFlash	1	5	2	0	0	distractor	1	400	800	341760	13.328	13.306	13.356
ProbeTrack13	1	ProbeTrack	13.2	SCS215a	20111031.101415	20111031.101455	8	0.013328	60	10	60-180	60	64	GapExp	SmallFlash	1	6	2	1	1	target	1	394	803	342563	13.328	13.191	13.477
ProbeTrack13	1	ProbeTrack	13.2	SCS215a	20111031.101415	20111031.101500	8	0.013328	60	10	60-180	60	90	GapExp	SmallFlash	1	7	2	0	1	target	1	368	816	343379	13.328	12.913	13.757
ProbeTrack13	1	ProbeTrack	13.2	SCS215a	20111031.101415	20111031.101506	8	0.013328	60	10	60-180	60	127	GapExp	SmallFlash	1	8	2	1	0	distractor	1	473	764	344143	13.328	13.086	13.577
ProbeTrack13	1	ProbeTrack	13.2	SCS215a	20111031.101415	20111031.101511	8	0.013328	60	10	60-180	60	92	GapExp	SmallFlash	0	9	2	3	1	target	1	391	805	344948	13.328	13.074	13.570
ProbeTrack13	1	ProbeTrack	13.2	SCS215a	20111031.101415	20111031.101517	8	0.013328	60	10	60-180	60	145	GapExp	SmallFlash	0	10	2	1	0	distractor	1	420	790	345738	13.328	12.893	13.784
ProbeTrack13	1	ProbeTrack	13.2	SCS215a	20111031.101415	20111031.101523	8	0.013328	60	10	60-180	60	116	GapExp	SmallFlash	0	11	2	1	1	target	1	362	819	346557	13.328	13.303	13.349
ProbeTrack13	1	ProbeTrack	13.2	SCS215a	20111031.101415	20111031.101529	8	0.013328	60	10	60-180	60	67	GapExp	SmallFlash	0	12	2	1	0	distractor	1	469	766	347323	13.328	13.119	13.537
ProbeTrack13	1	ProbeTrack	13.2	SCS215a	20111031.101415	20111031.101534	8	0.013328	60	10	60-180	60	68	GapExp	SmallFlash	0	13	2	0	1	target	1	391	805	348128	13.328	13.052	13.599
ProbeTrack13	1	ProbeTrack	13.2	SCS215a	20111031.101415	20111031.101540	8	0.013328	60	10	60-180	60	73	GapExp	SmallFlash	0	14	2	0	0	distractor	1	459	771	348899	13.328	12.952	13.697
ProbeTrack13	1	ProbeTrack	13.2	SCS215a	20111031.101415	20111031.101546	8	0.013328	60	10	60-180	60	88	GapExp	SmallFlash	0	15	2	0	0	distractor	1	404	798	349697	13.328	13.099	13.544
ProbeTrack13	1	ProbeTrack	13.2	SCS215a	20111031.101415	20111031.101551	8	0.013328	60	10	60-180	60	98	GapExp	SmallFlash	0	16	2	3	1	target	1	376	812	350509	13.328	13.308	13.347
ProbeTrack13	1	ProbeTrack	13.2	SCS215a	20111031.101415	20111031.101557	8	0.013328	60	10	60-180	60	67	GapExp	SmallFlash	0	17	2	45	1	target	1	308	846	351355	13.328	13.302	13.349
ProbeTrack13	1	ProbeTrack	13.2	SCS215a	20111031.101415	20111031.101602	8	0.013328	60	10	60-180	60	174	GapExp	SmallFlash	0	18	2	45	1	target	1	399	801	352156	13.328	12.967	13.703
ProbeTrack13	1	ProbeTrack	13.2	SCS215a	20111031.101415	20111031.101610	8	0.013328	60	10	60-180	60	111	GapExp	SmallFlash	0	19	2	3	1	target	1	402	799	352955	13.328	13.292	13.361
ProbeTrack13	1	ProbeTrack	13.2	SCS215a	20111031.101415	20111031.101616	8	0.013328	60	10	60-180	60	100	GapExp	SmallFlash	0	20	2	45	0	distractor	1	470	765	353720	13.328	12.903	13.754
ProbeTrack13	1	ProbeTrack	13.2	SCS215a	20111031.101415	20111031.101622	8	0.013328	60	10	60-180	60	118	GapExp	SmallFlash	0	21	2	1	1	target	1	523	739	354459	13.328	13.086	13.564
ProbeTrack13	1	ProbeTrack	13.2	SCS215a	20111031.101415	20111031.101628	8	0.013328	60	10	60-180	60	170	GapExp	SmallFlash	0	22	2	0	0	distractor	1	440	780	355239	13.328	12.942	13.722
ProbeTrack13	1	ProbeTrack	13.2	SCS215a	20111031.101415	20111031.101634	8	0.013328	60	10	60-180	60	130	GapExp	SmallFlash	0	23	2	45	0	distractor	1	367	817	356056	13.328	13.302	13.359
ProbeTrack13	1	ProbeTrack	13.2	SCS215a	20111031.101415	20111031.101641	8	0.013328	60	10	60-180	60	139	GapExp	SmallFlash	0	24	2	3	1	target	1	355	823	356879	13.328	12.885	13.798
ProbeTrack13	1	ProbeTrack	13.2	SCS215a	20111031.101415	20111031.101647	8	0.013328	60	10	60-180	60	118	GapExp	SmallFlash	0	25	2	1	0	distractor	1	475	763	357642	13.326	12.907	13.346
ProbeTrack13	1	ProbeTrack	13.2	SCS215a	20111031.101415	20111031.101653	8	0.013328	60	10	60-180	60	137	GapExp	SmallFlash	0	26	2	45	0	distractor	1	426	787	358429	13.328	12.877	13.619
ProbeTrack13	1	ProbeTrack	13.2	SCS215a	20111031.101415	20111031.101700	8	0.013328	60	10	60-180	60	121	GapExp	SmallFlash	0	27	2	0	1	target	1	406	797	359226	13.328	13.311	13.357
ProbeTrack13	1	ProbeTrack	13.2	SCS215a	20111031.101415	20111031.101706	8	0.013328	60	10	60-180	60	65	GapExp	SmallFlash	0	28	2	3	0	distractor	1	978	511	359737	13.328	13.304	13.348
ProbeTrack13	1	ProbeTrack	13.2	SCS215a	20111031.101415	20111031.101712	8	0.013328	60	10	60-180	60	169	GapExp	SmallFlash	0	29	2	0	1	target	1	363	819	360556	13.328	12.918	13.741
ProbeTrack13	1	ProbeTrack	13.2	SCS215a	20111031.101415	20111031.101719	8	0.013328	60	10	60-180	60	178	GapExp	SmallFlash	0	30	2	0	1	target	1	436	782	361338	13.328	13.084	13.566
ProbeTrack13	1	ProbeTrack	13.2	SCS215a	20111031.101415	20111031.101725	8	0.013328	60	10	60-180	60	94	GapExp	SmallFlash	0	31	2	1	1	target	1	387	807	362145	13.328	12.921	13.746
ProbeTrack13	1	ProbeTrack	13.2	SCS215a	20111031.101415	20111031.101731	8	0.013328	60	10	60-180	60	105	GapExp	SmallFlash	0	32	2	45	0	distractor	1	395	803	362948	13.328	12.580	14.129
ProbeTrack13	1	ProbeTrack	13.2	SCS215a	20111031.101415	20111031.101738	8	0.013328	60	10	60-180	60	132	GapExp	SmallFlash	0	33	2	3	0	distractor	1	436	782	363730	13.328	13.096	13.548
ProbeTrack13	1	ProbeTrack	13.2	SCS215a	20111031.101415	20111031.101744	8	0.013328	60	10	60-180	60	143	GapExp	SmallFlash	0	34	2	3	1	target	1	345	828	364558	13.328	12.879	13.788
ProbeTrack13	1	ProbeTrack	13.2	SCS215a	20111031.101415	20111031.101751	8	0.013328	60	10	60-180	60	77	GapExp	SmallFlash	0	35	2	0	1	target	1	338	831	365389	13.328	13.046	13.630
ProbeTrack13	1	ProbeTrack	13.2	SCS215a	20111031.101415	20111031.101756	8	0.013328	60	10	60-180	60	124	GapExp	SmallFlash	0	36	2	45	1	target	1	324	838	366227	13.328	13.274	13.382
ProbeTrack13	1	ProbeTrack	13.2	SCS215a	20111031.101415	20111031.101802	8	0.013328	60	10	60-180	60	136	GapExp	SmallFlash	0	37	2	1	0	distractor	1	390	805	367032	13.328	13.018	13.645
ProbeTrack13	1	ProbeTrack	13.2	SCS215a	20111031.101415	20111031.101808	8	0.013328	60	10	60-180	60	67	GapExp	SmallFlash	0	38	2	0	1	target	1	444	778	367810	13.328	13.283	13.376
ProbeTrack13	1	ProbeTrack	13.2	SCS215a	20111031.101415	20111031.101813	8	0.013328	60	10	60-180	60	175	GapExp	SmallFlash	0	39	2	1	0	distractor	1	439	781	368591	13.328	13.114	13.543
ProbeTrack13	1	ProbeTrack	13.2	SCS215a	20111031.101415	20111031.101820	8	0.013328	60	10	60-180	60	104	GapExp	SmallFlash	0	40	2	1	1	target	1	343	829	369420	13.328	13.101	13.561
ProbeTrack13	1	ProbeTrack	13.2	SCS215a	20111031.101415	20111031.101826	8	0.013328	60	10	60-180	60	121	GapExp	SmallFlash	0	41	2	1	1	target	1	364	818	370238	13.328	12.864	13.778
ProbeTrack13	1	ProbeTrack	13.2	SCS215a	20111031.101415	20111031.101832	8	0.013328	60	10	60-180	60	174	GapExp	SmallFlash	0	42	2	3	1	target	1	341	830	371068	13.328	12.927	13.729
ProbeTrack13	1	ProbeTrack	13.2	SCS215a	20111031.101415	20111031.101838	8	0.013328	60	10	60-180	60	92	GapExp	SmallFlash	0	43	2	0	1	target	1	423	789	371857	13.328	12.853	13.803
ProbeTrack13	1	ProbeTrack	13.2	SCS215a	20111031.101415	20111031.101844	8	0.013328	60	10	60-180	60	82	GapExp	SmallFlash	0	44	2	45	0	distractor	1	451	775	372632	13.328	13.305	13.348
ProbeTrack13	1	ProbeTrack	13.2	SCS215a	20111031.101415	20111031.101850	8	0.013328	60	10	60-180	60	91	GapExp	SmallFlash	0	45	2	1	0	distractor	1	515	743	373375	13.328	12.885	13.774
ProbeTrack13	1	ProbeTrack	13.2	SCS215a	20111031.101415	20111031.101856	8	0.013328	60	10	60-180	60	79	GapExp	SmallFlash	0	46	2	0	1	target	1	441	780	374155	13.328	13.106	13.552
ProbeTrack13	1	ProbeTrack	13.2	SCS215a	20111031.101415	20111031.101901	8	0.013328	60	10	60-180	60	85	GapExp	SmallFlash	0	47	2	1	1	target	1	327	837	374992	13.328	13.107	13.549
ProbeTrack13	1	ProbeTrack	13.2	SCS215a	20111031.101415	20111031.101907	8	0.013328	60	10	60-180	60	62	GapExp	SmallFlash	0	48	2	3	1	target	1	373	814	375806	13.328	13.309	13.346
ProbeTrack13	1	ProbeTrack	13.2	SCS215a	20111031.101415	20111031.101912	8	0.013328	60	10	60-180	60	90	GapExp	SmallFlash	0	49	2	0	0	distractor	1	380	810	376616	13.328	13.308	13.349
ProbeTrack13	1	ProbeTrack	13.2	SCS215a	20111031.101415	20111031.101918	8	0.013328	60	10	60-180	60	66	GapExp	SmallFlash	0	50	2	3	1	target	1	339	831	377447	13.328	13.044	13.612
ProbeTrack13	1	ProbeTrack	13.2	SCS215a	20111031.101415	20111031.101923	8	0.013328	60	10	60-180	60	72	GapExp	SmallFlash	0	51	2	0	1	target	1	522	739	378186	13.328	12.875	13.763
ProbeTrack13	1	ProbeTrack	13.2	SCS215a	20111031.101415	20111031.101928	8	0.013328	60	10	60-180	60	149	GapExp	SmallFlash	0	52	2	0	0	distractor	1	522	739	378925	13.328	13.287	13.370
ProbeTrack13	1	ProbeTrack	13.2	SCS215a	20111031.101415	20111031.101935	8	0.013328	60	10	60-180	60	170	GapExp	SmallFlash	0	53	2	3	1	target	1	411	795	379720	13.328	13.263	13.385
ProbeTrack13	1	ProbeTrack	13.2	SCS215a	20111031.101415	20111031.101941	8	0.013328	60	10	60-180	60	162	GapExp	SmallFlash	0	54	2	1	0	distractor	1	409	796	380516	13.328	12.892	13.771
ProbeTrack13	1	ProbeTrack	13.2	SCS215a	20111031.101415	20111031.101947	8	0.013328	60	10	60-180	60	79	GapExp	SmallFlash	0	55	2	3	1	target	1	432	784	381300	13.328	13.310	13.345
ProbeTrack13	1	ProbeTrack	13.2	SCS215a	20111031.101415	20111031.101953	8	0.013328	60	10	60-180	60	119	GapExp	SmallFlash	0	56	2	45	1	target	1	313	844	382144	13.328	13.093	13.565
ProbeTrack13	1	ProbeTrack	13.2	SCS215a	20111031.101415	20111031.101959	8	0.013328	60	10	60-180	60	126	GapExp	SmallFlash	0	57	2	45	0	distractor	1	428	786	382930	13.328	12.928	13.735
ProbeTrack13	1	ProbeTrack	13.2	SCS215a	20111031.101415	20111031.102006	8	0.013328	60	10	60-180	60	67	GapExp	SmallFlash	0	58	2	3	0	distractor	1	429	786	383716	13.328	13.093	13.554
ProbeTrack13	1	ProbeTrack	13.2	SCS215a	20111031.101415	20111031.102011	8	0.013328	60	10	60-180	60	63	GapExp	SmallFlash	0	59	2	45	1	target	1	348	826	384542	13.328	13.310	13.356
ProbeTrack13	1	ProbeTrack	13.2	SCS215a	20111031.101415	20111031.102017	8	0.013328	60	10	60-180	60	132	GapExp	SmallFlash	0	60	2	45	1	target	1	348	826	385368	13.328	13.310	13.355
ProbeTrack13	1	ProbeTrack	13.2	SCS215a	20111031.101415	20111031.102023	8	0.013328	60	10	60-180	60	104	GapExp	SmallFlash	0	61	2	1	1	target	1	374	813	386181	13.328	12.896	13.753
ProbeTrack13	1	ProbeTrack	13.2	SCS215a	20111031.101415	20111031.102029	8	0.013328	60	10	60-180	60	125	GapExp	SmallFlash	0	62	2	1	1	target	1	339	831	387012	13.328	13.299	13.357
ProbeTrack13	1	ProbeTrack	13.2	SCS215a	20111031.101415	20111031.102035	8	0.013328	60	10	60-180	60	169	GapExp	SmallFlash	0	63	2	45	1	target	1	347	827	387839	13.328	13.304	13.348
ProbeTrack13	1	ProbeTrack	13.2	SCS215a	20111031.101415	20111031.102042	8	0.013328	60	10	60-180	60	118	GapExp	SmallFlash	0	64	2	0	1	target	1	301	850	388689	13.328	13.090	13.573
ProbeTrack13	1	ProbeTrack	13.2	SCS215a	20111031.101415	20111031.102048	8	0.013328	60	10	60-180	60	74	GapExp	SmallFlash	0	65	2	45	0	distractor	1	462	769	389458	13.328	13.111	13.551
ProbeTrack13	1	ProbeTrack	13.2	SCS215a	20111031.101415	20111031.102053	8	0.013328	60	10	60-180	60	111	GapExp	SmallFlash	0	66	2	45	1	target	1	349	826	390284	13.328	13.093	13.557
ProbeTrack13	1	ProbeTrack	13.2	SCS215a	20111031.101415	20111031.102100	8	0.013328	60	10	60-180	60	99	GapExp	SmallFlash	0	67	2	3	0	distractor	1	505	748	391032	13.328	13.306	13.351
ProbeTrack13	1	ProbeTrack	13.2	SCS215a	20111031.101415	20111031.102106	8	0.013328	60	10	60-180	60	114	GapExp	SmallFlash	0	68	2	0	0	distractor	1	461	770	391802	13.328	13.309	13.347
ProbeTrack13	1	ProbeTrack	13.2	SCS215a	20111031.101415	20111031.102111	8	0.013328	60	10	60-180	60	166	GapExp	SmallFlash	0	69	2	1	0	distractor	1	485	758	392560	13.328	12.995	13.678
ProbeTrack13	1	ProbeTrack	13.2	SCS215a	20111031.101415	20111031.102118	8	0.013328	60	10	60-180	60	132	GapExp	SmallFlash	0	70	2	3	1	target	1	449	776	393336	13.328	13.306	13.350
ProbeTrack13	1	ProbeTrack	13.2	SCS215a	20111031.101415	20111031.102124	8	0.013328	60	10	60-180	60	138	GapExp	SmallFlash	0	71	2	45	0	distractor	1	454	773	394109	13.328	13.105	13.552
