exp	sub	code	rev	comp	runtime	trialtime	nstim	refreshdur	cuedur	gapdur	gapOnsetRange	durPostProbe	gapOnsetTime	blocktype	gaptype	prac	trial	ntargets	soa	probeTarget	resp	acc	rt	pts	tpts	meanFrameDur	minFrameDur	maxFrameDur
ProbeTrack13	16	ProbeTrack	13.2	SCS215a	20111109.092501	20111109.092508	8	0.013328	60	0	60-180	60	175	NoGap	None	1	1	2	1	1	target	1	823	589	589	13.371	13.101	13.564
ProbeTrack13	16	ProbeTrack	13.2	SCS215a	20111109.092501	20111109.092639	8	0.013328	60	0	60-180	60	153	NoGap	None	1	2	2	0	1	target	1	707	647	1236	13.375	13.032	26.647
ProbeTrack13	16	ProbeTrack	13.2	SCS215a	20111109.092501	20111109.092648	8	0.013328	60	0	60-180	60	149	NoGap	None	1	3	2	0	1	target	1	1214	393	1629	13.328	13.304	13.346
ProbeTrack13	16	ProbeTrack	13.2	SCS215a	20111109.092501	20111109.092656	8	0.013328	60	0	60-180	60	167	NoGap	None	1	4	2	45	0	distractor	1	1277	362	1991	13.328	12.860	13.796
ProbeTrack13	16	ProbeTrack	13.2	SCS215a	20111109.092501	20111109.092706	8	0.013328	60	0	60-180	60	160	NoGap	None	1	5	2	45	1	target	1	566	717	2708	13.328	13.297	13.357
ProbeTrack13	16	ProbeTrack	13.2	SCS215a	20111109.092501	20111109.092716	8	0.013328	60	0	60-180	60	110	NoGap	None	1	6	2	1	0	distractor	1	900	550	3258	13.382	13.093	26.620
ProbeTrack13	16	ProbeTrack	13.2	SCS215a	20111109.092501	20111109.092723	8	0.013328	60	0	60-180	60	154	NoGap	None	1	7	2	1	0	distractor	1	954	523	3781	13.374	13.121	26.540
ProbeTrack13	16	ProbeTrack	13.2	SCS215a	20111109.092501	20111109.092731	8	0.013328	60	0	60-180	60	115	NoGap	None	1	8	2	3	0	distractor	1	704	648	4429	13.382	13.022	26.487
ProbeTrack13	16	ProbeTrack	13.2	SCS215a	20111109.092501	20111109.092743	8	0.013328	60	0	60-180	60	85	NoGap	None	1	9	2	3	1	target	1	528	736	5165	13.328	13.310	13.354
ProbeTrack13	16	ProbeTrack	13.2	SCS215a	20111109.092501	20111109.092750	8	0.013328	60	0	60-180	60	99	NoGap	None	1	10	2	3	0	distractor	1	636	682	5847	13.328	13.301	13.354
ProbeTrack13	16	ProbeTrack	13.2	SCS215a	20111109.092501	20111109.092758	8	0.013328	60	0	60-180	60	86	NoGap	None	1	11	2	3	0	distractor	1	633	684	6531	13.328	13.309	13.347
ProbeTrack13	16	ProbeTrack	13.2	SCS215a	20111109.092501	20111109.092804	8	0.013328	60	0	60-180	60	63	NoGap	None	1	12	2	1	0	distractor	1	723	639	7170	13.396	13.198	26.454
ProbeTrack13	16	ProbeTrack	13.2	SCS215a	20111109.092501	20111109.092812	8	0.013328	60	0	60-180	60	165	NoGap	None	1	13	2	1	0	target	0	645	-1000	6170	13.328	12.990	13.673
ProbeTrack13	16	ProbeTrack	13.2	SCS215a	20111109.092501	20111109.092821	8	0.013328	60	0	60-180	60	152	NoGap	None	1	14	2	0	0	distractor	1	800	600	6770	13.328	12.852	13.825
ProbeTrack13	16	ProbeTrack	13.2	SCS215a	20111109.092501	20111109.092830	8	0.013328	60	0	60-180	60	79	NoGap	None	1	15	2	3	0	distractor	1	656	672	7442	13.328	13.101	13.563
ProbeTrack13	16	ProbeTrack	13.2	SCS215a	20111109.092501	20111109.092836	8	0.013328	60	0	60-180	60	90	NoGap	None	1	16	2	0	0	distractor	1	1498	251	7693	13.446	12.834	26.797
ProbeTrack13	16	ProbeTrack	13.2	SCS215a	20111109.092501	20111109.092843	8	0.013328	60	0	60-180	60	81	NoGap	None	1	17	2	0	0	distractor	1	759	621	8314	13.328	13.192	13.474
ProbeTrack13	16	ProbeTrack	13.2	SCS215a	20111109.092501	20111109.092853	8	0.013328	60	0	60-180	60	63	NoGap	None	1	18	2	0	0	distractor	1	647	677	8991	13.328	13.300	13.357
ProbeTrack13	16	ProbeTrack	13.2	SCS215a	20111109.092501	20111109.092900	8	0.013328	60	0	60-180	60	123	NoGap	None	1	19	2	45	1	target	1	527	737	9728	13.328	13.248	13.424
ProbeTrack13	16	ProbeTrack	13.2	SCS215a	20111109.092501	20111109.092908	8	0.013328	60	0	60-180	60	146	NoGap	None	1	20	2	3	1	target	1	518	741	10469	13.328	13.108	13.554
ProbeTrack13	16	ProbeTrack	13.2	SCS215a	20111109.092501	20111109.092915	8	0.013328	60	0	60-180	60	96	NoGap	None	1	21	2	0	1	distractor	0	584	-1000	9469	13.328	13.172	13.571
ProbeTrack13	16	ProbeTrack	13.2	SCS215a	20111109.092501	20111109.092922	8	0.013328	60	0	60-180	60	155	NoGap	None	1	22	2	0	1	target	1	445	778	10247	13.328	13.290	13.364
ProbeTrack13	16	ProbeTrack	13.2	SCS215a	20111109.092501	20111109.092929	8	0.013328	60	0	60-180	60	117	NoGap	None	1	23	2	3	1	target	1	680	660	10907	13.328	13.299	13.353
ProbeTrack13	16	ProbeTrack	13.2	SCS215a	20111109.092501	20111109.092936	8	0.013328	60	0	60-180	60	89	NoGap	None	1	24	2	45	0	distractor	1	713	644	11551	13.328	13.297	13.353
ProbeTrack13	16	ProbeTrack	13.2	SCS215a	20111109.092501	20111109.092943	8	0.013328	60	0	60-180	60	139	NoGap	None	1	25	2	45	1	target	1	506	747	12298	13.328	13.082	13.575
ProbeTrack13	16	ProbeTrack	13.2	SCS215a	20111109.092501	20111109.092953	8	0.013328	60	0	60-180	60	103	NoGap	None	1	26	2	45	1	distractor	0	544	-1000	11298	13.328	13.105	13.558
ProbeTrack13	16	ProbeTrack	13.2	SCS215a	20111109.092501	20111109.093002	8	0.013328	60	0	60-180	60	129	NoGap	None	1	27	2	3	1	target	1	835	583	11881	13.328	13.147	13.517
ProbeTrack13	16	ProbeTrack	13.2	SCS215a	20111109.092501	20111109.093009	8	0.013328	60	0	60-180	60	129	NoGap	None	1	28	2	0	0	distractor	1	904	548	12429	13.328	13.095	13.483
ProbeTrack13	16	ProbeTrack	13.2	SCS215a	20111109.092501	20111109.093016	8	0.013328	60	0	60-180	60	113	NoGap	None	1	29	2	1	1	target	1	526	737	13166	13.328	13.290	13.368
ProbeTrack13	16	ProbeTrack	13.2	SCS215a	20111109.092501	20111109.093024	8	0.013328	60	0	60-180	60	78	NoGap	None	1	30	2	45	0	distractor	1	717	642	13808	13.328	13.212	13.445
ProbeTrack13	16	ProbeTrack	13.2	SCS215a	20111109.092501	20111109.093030	8	0.013328	60	0	60-180	60	88	NoGap	None	1	31	2	45	1	target	1	581	710	14518	13.328	13.296	13.364
ProbeTrack13	16	ProbeTrack	13.2	SCS215a	20111109.092501	20111109.093038	8	0.013328	60	0	60-180	60	153	NoGap	None	1	32	2	1	0	distractor	1	686	657	15175	13.375	13.198	26.539
ProbeTrack13	16	ProbeTrack	13.2	SCS215a	20111109.092501	20111109.093044	8	0.013328	60	0	60-180	60	166	NoGap	None	1	33	2	3	0	distractor	1	775	613	15788	13.328	13.297	13.355
ProbeTrack13	16	ProbeTrack	13.2	SCS215a	20111109.092501	20111109.093052	8	0.013328	60	0	60-180	60	92	NoGap	None	1	34	2	3	1	distractor	0	681	-1000	14788	13.328	13.120	13.544
ProbeTrack13	16	ProbeTrack	13.2	SCS215a	20111109.092501	20111109.093058	8	0.013328	60	0	60-180	60	68	NoGap	None	1	35	2	1	1	target	1	744	628	15416	13.328	13.104	13.550
ProbeTrack13	16	ProbeTrack	13.2	SCS215a	20111109.092501	20111109.093104	8	0.013328	60	0	60-180	60	131	NoGap	None	1	36	2	45	0	distractor	1	857	572	15988	13.328	13.092	13.621
ProbeTrack13	16	ProbeTrack	13.2	SCS215a	20111109.092501	20111109.093112	8	0.013328	60	0	60-180	60	129	NoGap	None	1	37	2	45	0	distractor	1	747	627	16615	13.371	13.099	26.415
ProbeTrack13	16	ProbeTrack	13.2	SCS215a	20111109.092501	20111109.093119	8	0.013328	60	0	60-180	60	148	NoGap	None	1	38	2	1	1	distractor	0	793	-1000	15615	13.328	13.104	13.558
ProbeTrack13	16	ProbeTrack	13.2	SCS215a	20111109.092501	20111109.093126	8	0.013328	60	0	60-180	60	144	NoGap	None	1	39	2	0	1	target	1	1108	446	16061	13.423	13.293	26.845
ProbeTrack13	16	ProbeTrack	13.2	SCS215a	20111109.092501	20111109.093133	8	0.013328	60	0	60-180	60	179	NoGap	None	1	40	2	1	1	target	1	577	712	16773	13.328	13.111	13.546
ProbeTrack13	16	ProbeTrack	13.2	SCS215a	20111109.093440	20111109.093456	8	0.013328	60	10	60-180	60	136	GapPrac	Blank	1	1	2	45	0	distractor	1	1076	462	17235	13.369	5.503	21.349
ProbeTrack13	16	ProbeTrack	13.2	SCS215a	20111109.093440	20111109.093507	8	0.013328	60	10	60-180	60	91	GapPrac	Blank	1	2	2	0	0	distractor	1	692	654	17889	13.328	12.671	13.997
ProbeTrack13	16	ProbeTrack	13.2	SCS215a	20111109.093440	20111109.093521	8	0.013328	60	10	60-180	60	170	GapPrac	Blank	1	3	2	3	1	target	1	758	621	18510	13.328	13.102	13.654
ProbeTrack13	16	ProbeTrack	13.2	SCS215a	20111109.093440	20111109.093529	8	0.013328	60	10	60-180	60	134	GapPrac	Blank	1	4	2	1	1	target	1	638	681	19191	13.328	12.065	14.604
ProbeTrack13	16	ProbeTrack	13.2	SCS215a	20111109.093440	20111109.093536	8	0.013328	60	10	60-180	60	67	GapPrac	Blank	1	5	2	3	1	target	1	645	678	19869	13.393	13.081	26.508
ProbeTrack13	16	ProbeTrack	13.2	SCS215a	20111109.093440	20111109.093544	8	0.013328	60	10	60-180	60	103	GapPrac	Blank	1	6	2	3	1	target	1	553	724	20593	13.328	12.973	13.689
ProbeTrack13	16	ProbeTrack	13.2	SCS215a	20111109.093440	20111109.093551	8	0.013328	60	10	60-180	60	113	GapPrac	Blank	1	7	2	3	0	distractor	1	603	699	21292	13.435	13.294	26.891
ProbeTrack13	16	ProbeTrack	13.2	SCS215a	20111109.093440	20111109.093559	8	0.013328	60	10	60-180	60	143	GapPrac	Blank	1	8	2	45	1	target	1	605	698	21990	13.369	13.308	26.376
ProbeTrack13	16	ProbeTrack	13.2	SCS215a	20111109.093440	20111109.093607	8	0.013328	60	10	60-180	60	83	GapPrac	Blank	1	9	2	0	1	target	1	475	763	22753	13.393	13.299	24.518
ProbeTrack13	16	ProbeTrack	13.2	SCS215a	20111109.093440	20111109.093614	8	0.013328	60	10	60-180	60	117	GapPrac	Blank	1	10	2	1	1	target	1	737	632	23385	13.328	10.173	16.489
ProbeTrack13	16	ProbeTrack	13.2	SCS215a	20111109.093440	20111109.093621	8	0.013328	60	10	60-180	60	170	GapPrac	Blank	1	11	2	45	1	target	1	445	778	24163	13.368	13.092	23.909
ProbeTrack13	16	ProbeTrack	13.2	SCS215a	20111109.093440	20111109.093628	8	0.013328	60	10	60-180	60	126	GapPrac	Blank	1	12	2	0	1	target	1	447	777	24940	13.328	13.110	13.572
ProbeTrack13	16	ProbeTrack	13.2	SCS215a	20111109.093440	20111109.093635	8	0.013328	60	10	60-180	60	144	GapPrac	Blank	1	13	2	1	1	target	1	564	718	25658	13.376	13.016	26.630
ProbeTrack13	16	ProbeTrack	13.2	SCS215a	20111109.093440	20111109.093641	8	0.013328	60	10	60-180	60	136	GapPrac	Blank	1	14	2	1	0	distractor	1	696	652	26310	13.327	13.090	13.572
ProbeTrack13	16	ProbeTrack	13.2	SCS215a	20111109.093440	20111109.093648	8	0.013328	60	10	60-180	60	166	GapPrac	Blank	1	15	2	0	0	distractor	1	729	636	26946	13.371	13.103	26.475
ProbeTrack13	16	ProbeTrack	13.2	SCS215a	20111109.093440	20111109.093656	8	0.013328	60	10	60-180	60	103	GapPrac	Blank	1	16	2	1	0	distractor	1	712	644	27590	13.328	13.306	13.349
ProbeTrack13	16	ProbeTrack	13.2	SCS215a	20111109.093440	20111109.093702	8	0.013328	60	10	60-180	60	89	GapPrac	Blank	1	17	2	45	0	distractor	1	787	607	28197	13.328	12.041	14.615
ProbeTrack13	16	ProbeTrack	13.2	SCS215a	20111109.093440	20111109.093710	8	0.013328	60	10	60-180	60	127	GapPrac	Blank	1	18	2	3	0	distractor	1	639	681	28878	13.328	11.939	14.710
ProbeTrack13	16	ProbeTrack	13.2	SCS215a	20111109.093440	20111109.093716	8	0.013328	60	10	60-180	60	129	GapPrac	Blank	1	19	2	45	0	distractor	1	654	673	29551	13.371	9.936	26.669
ProbeTrack13	16	ProbeTrack	13.2	SCS215a	20111109.093440	20111109.093723	8	0.013328	60	10	60-180	60	156	GapPrac	Blank	1	20	2	0	0	distractor	1	579	711	30262	13.328	13.110	13.564
ProbeTrack13	16	ProbeTrack	13.2	SCS215a	20111109.093808	20111109.093815	8	0.013327	60	10	60-180	60	81	GapExp	Blank	1	1	2	1	1	target	1	698	651	30913	13.448	9.957	23.841
ProbeTrack13	16	ProbeTrack	13.2	SCS215a	20111109.093808	20111109.093825	8	0.013327	60	10	60-180	60	87	GapExp	Blank	1	2	2	45	0	distractor	1	681	660	31573	13.377	8.695	20.960
ProbeTrack13	16	ProbeTrack	13.2	SCS215a	20111109.093808	20111109.093832	8	0.013327	60	10	60-180	60	91	GapExp	Blank	1	3	2	3	1	target	1	530	735	32308	13.328	13.106	13.543
ProbeTrack13	16	ProbeTrack	13.2	SCS215a	20111109.093808	20111109.093838	8	0.013327	60	10	60-180	60	106	GapExp	Blank	1	4	2	45	1	target	1	514	743	33051	13.328	10.750	15.908
ProbeTrack13	16	ProbeTrack	13.2	SCS215a	20111109.093808	20111109.093845	8	0.013327	60	10	60-180	60	153	GapExp	Blank	1	5	2	3	0	distractor	1	672	664	33715	13.328	13.105	13.565
ProbeTrack13	16	ProbeTrack	13.2	SCS215a	20111109.093808	20111109.093852	8	0.013327	60	10	60-180	60	65	GapExp	Blank	1	6	2	0	1	target	1	662	669	34384	13.394	13.092	26.371
ProbeTrack13	16	ProbeTrack	13.2	SCS215a	20111109.093808	20111109.093858	8	0.013327	60	10	60-180	60	160	GapExp	Blank	1	7	2	0	0	distractor	1	611	695	35079	13.328	4.743	21.900
ProbeTrack13	16	ProbeTrack	13.2	SCS215a	20111109.093808	20111109.093906	8	0.013327	60	10	60-180	60	91	GapExp	Blank	1	8	2	1	0	distractor	1	655	673	35752	13.328	11.277	15.377
ProbeTrack13	16	ProbeTrack	13.2	SCS215a	20111109.093808	20111109.093912	8	0.013327	60	10	60-180	60	111	GapExp	Blank	0	9	2	45	1	target	1	559	721	36473	13.328	13.310	13.347
ProbeTrack13	16	ProbeTrack	13.2	SCS215a	20111109.093808	20111109.093919	8	0.013327	60	10	60-180	60	89	GapExp	Blank	0	10	2	45	1	target	1	394	803	37276	13.328	13.298	13.359
ProbeTrack13	16	ProbeTrack	13.2	SCS215a	20111109.093808	20111109.093925	8	0.013327	60	10	60-180	60	90	GapExp	Blank	0	11	2	3	0	distractor	1	719	641	37917	13.328	13.300	13.350
ProbeTrack13	16	ProbeTrack	13.2	SCS215a	20111109.093808	20111109.093932	8	0.013327	60	10	60-180	60	110	GapExp	Blank	0	12	2	3	1	target	1	460	770	38687	13.328	8.359	18.282
ProbeTrack13	16	ProbeTrack	13.2	SCS215a	20111109.093808	20111109.093938	8	0.013327	60	10	60-180	60	176	GapExp	Blank	0	13	2	45	0	distractor	1	775	613	39300	13.328	10.689	15.974
ProbeTrack13	16	ProbeTrack	13.2	SCS215a	20111109.093808	20111109.093946	8	0.013327	60	10	60-180	60	159	GapExp	Blank	0	14	2	3	1	target	1	533	734	40034	13.328	12.429	14.213
ProbeTrack13	16	ProbeTrack	13.2	SCS215a	20111109.093808	20111109.093954	8	0.013327	60	10	60-180	60	120	GapExp	Blank	0	15	2	45	0	target	0	710	-1000	39034	13.328	13.107	13.558
ProbeTrack13	16	ProbeTrack	13.2	SCS215a	20111109.093808	20111109.094001	8	0.013327	60	10	60-180	60	69	GapExp	Blank	0	16	2	45	0	distractor	1	645	678	39712	13.328	6.891	19.760
ProbeTrack13	16	ProbeTrack	13.2	SCS215a	20111109.093808	20111109.094008	8	0.013327	60	10	60-180	60	61	GapExp	Blank	0	17	2	45	1	target	1	456	772	40484	13.328	12.985	13.673
ProbeTrack13	16	ProbeTrack	13.2	SCS215a	20111109.093808	20111109.094014	8	0.013327	60	10	60-180	60	68	GapExp	Blank	0	18	2	0	0	distractor	1	939	531	41015	13.453	6.109	35.766
ProbeTrack13	16	ProbeTrack	13.2	SCS215a	20111109.093808	20111109.094020	8	0.013327	60	10	60-180	60	158	GapExp	Blank	0	19	2	3	0	distractor	1	615	693	41708	13.328	6.342	20.320
ProbeTrack13	16	ProbeTrack	13.2	SCS215a	20111109.093808	20111109.094027	8	0.013327	60	10	60-180	60	133	GapExp	Blank	0	20	2	1	1	target	1	616	692	42400	13.328	13.300	13.356
ProbeTrack13	16	ProbeTrack	13.2	SCS215a	20111109.093808	20111109.094034	8	0.013327	60	10	60-180	60	134	GapExp	Blank	0	21	2	3	0	distractor	1	569	716	43116	13.328	10.023	16.633
ProbeTrack13	16	ProbeTrack	13.2	SCS215a	20111109.093808	20111109.094041	8	0.013327	60	10	60-180	60	136	GapExp	Blank	0	22	2	3	1	distractor	0	621	-1000	42116	13.328	5.578	21.064
ProbeTrack13	16	ProbeTrack	13.2	SCS215a	20111109.093808	20111109.094047	8	0.013327	60	10	60-180	60	146	GapExp	Blank	0	23	2	1	0	distractor	1	547	727	42843	13.328	12.470	14.176
ProbeTrack13	16	ProbeTrack	13.2	SCS215a	20111109.093808	20111109.094058	8	0.013327	60	10	60-180	60	116	GapExp	Blank	0	24	2	1	1	distractor	0	729	-1000	41843	13.328	13.106	13.549
ProbeTrack13	16	ProbeTrack	13.2	SCS215a	20111109.093808	20111109.094105	8	0.013327	60	10	60-180	60	146	GapExp	Blank	0	25	2	0	0	distractor	1	1051	475	42318	13.328	5.621	21.035
ProbeTrack13	16	ProbeTrack	13.2	SCS215a	20111109.093808	20111109.094113	8	0.013327	60	10	60-180	60	74	GapExp	Blank	0	26	2	1	0	distractor	1	792	604	42922	13.388	13.304	26.391
ProbeTrack13	16	ProbeTrack	13.2	SCS215a	20111109.093808	20111109.094121	8	0.013327	60	10	60-180	60	90	GapExp	Blank	0	27	2	0	0	distractor	1	566	717	43639	13.328	12.500	14.147
ProbeTrack13	16	ProbeTrack	13.2	SCS215a	20111109.093808	20111109.094126	8	0.013327	60	10	60-180	60	172	GapExp	Blank	0	28	2	3	1	target	1	569	716	44355	13.459	12.700	29.865
ProbeTrack13	16	ProbeTrack	13.2	SCS215a	20111109.093808	20111109.094134	8	0.013327	60	10	60-180	60	157	GapExp	Blank	0	29	2	3	0	distractor	1	666	667	45022	13.328	10.732	15.918
ProbeTrack13	16	ProbeTrack	13.2	SCS215a	20111109.093808	20111109.094144	8	0.013327	60	10	60-180	60	134	GapExp	Blank	0	30	2	1	1	target	1	743	629	45651	13.328	8.320	18.351
ProbeTrack13	16	ProbeTrack	13.2	SCS215a	20111109.093808	20111109.094153	8	0.013327	60	10	60-180	60	106	GapExp	Blank	0	31	2	1	0	distractor	1	869	566	46217	13.328	13.094	13.554
ProbeTrack13	16	ProbeTrack	13.2	SCS215a	20111109.093808	20111109.094201	8	0.013327	60	10	60-180	60	168	GapExp	Blank	0	32	2	1	1	target	1	534	733	46950	13.328	13.306	13.356
ProbeTrack13	16	ProbeTrack	13.2	SCS215a	20111109.093808	20111109.094208	8	0.013327	60	10	60-180	60	117	GapExp	Blank	0	33	2	3	0	target	0	715	-1000	45950	13.328	9.807	16.836
ProbeTrack13	16	ProbeTrack	13.2	SCS215a	20111109.093808	20111109.094215	8	0.013327	60	10	60-180	60	86	GapExp	Blank	0	34	2	3	1	target	1	714	643	46593	13.328	13.109	13.551
ProbeTrack13	16	ProbeTrack	13.2	SCS215a	20111109.093808	20111109.094221	8	0.013327	60	10	60-180	60	159	GapExp	Blank	0	35	2	1	0	distractor	1	630	685	47278	13.328	13.098	13.563
ProbeTrack13	16	ProbeTrack	13.2	SCS215a	20111109.093808	20111109.094228	8	0.013327	60	10	60-180	60	140	GapExp	Blank	0	36	2	0	0	distractor	1	812	594	47872	13.328	13.101	13.554
ProbeTrack13	16	ProbeTrack	13.2	SCS215a	20111109.093808	20111109.094235	8	0.013327	60	10	60-180	60	167	GapExp	Blank	0	37	2	45	0	distractor	1	791	605	48477	13.328	8.201	18.466
ProbeTrack13	16	ProbeTrack	13.2	SCS215a	20111109.093808	20111109.094243	8	0.013327	60	10	60-180	60	109	GapExp	Blank	0	38	2	0	1	target	1	488	756	49233	13.328	7.944	18.718
ProbeTrack13	16	ProbeTrack	13.2	SCS215a	20111109.093808	20111109.094250	8	0.013327	60	10	60-180	60	146	GapExp	Blank	0	39	2	3	1	target	1	454	773	50006	13.328	11.821	14.829
ProbeTrack13	16	ProbeTrack	13.2	SCS215a	20111109.093808	20111109.094257	8	0.013327	60	10	60-180	60	70	GapExp	Blank	0	40	2	1	0	distractor	1	655	673	50679	13.392	13.092	26.472
ProbeTrack13	16	ProbeTrack	13.2	SCS215a	20111109.093808	20111109.094303	8	0.013327	60	10	60-180	60	176	GapExp	Blank	0	41	2	45	1	distractor	0	626	-1000	49679	13.365	11.812	21.482
ProbeTrack13	16	ProbeTrack	13.2	SCS215a	20111109.093808	20111109.094311	8	0.013327	60	10	60-180	60	164	GapExp	Blank	0	42	2	3	1	target	1	620	690	50369	13.417	2.857	26.922
ProbeTrack13	16	ProbeTrack	13.2	SCS215a	20111109.093808	20111109.094318	8	0.013327	60	10	60-180	60	104	GapExp	Blank	0	43	2	3	0	distractor	1	586	707	51076	13.328	5.600	21.098
ProbeTrack13	16	ProbeTrack	13.2	SCS215a	20111109.093808	20111109.094326	8	0.013327	60	10	60-180	60	172	GapExp	Blank	0	44	2	3	1	target	1	991	505	51581	13.328	13.099	13.551
ProbeTrack13	16	ProbeTrack	13.2	SCS215a	20111109.093808	20111109.094333	8	0.013327	60	10	60-180	60	85	GapExp	Blank	0	45	2	0	1	target	1	482	759	52340	13.328	13.093	13.554
ProbeTrack13	16	ProbeTrack	13.2	SCS215a	20111109.093808	20111109.094339	8	0.013327	60	10	60-180	60	118	GapExp	Blank	0	46	2	1	0	distractor	1	652	674	53014	13.328	10.273	16.385
ProbeTrack13	16	ProbeTrack	13.2	SCS215a	20111109.093808	20111109.094345	8	0.013327	60	10	60-180	60	158	GapExp	Blank	0	47	2	1	1	target	1	513	744	53758	13.328	13.312	13.345
ProbeTrack13	16	ProbeTrack	13.2	SCS215a	20111109.093808	20111109.094352	8	0.013327	60	10	60-180	60	124	GapExp	Blank	0	48	2	45	1	target	1	494	753	54511	13.328	11.281	15.616
ProbeTrack13	16	ProbeTrack	13.2	SCS215a	20111109.093808	20111109.094359	8	0.013327	60	10	60-180	60	112	GapExp	Blank	0	49	2	45	0	target	0	317	-1000	53511	13.378	12.842	21.552
ProbeTrack13	16	ProbeTrack	13.2	SCS215a	20111109.093808	20111109.094406	8	0.013327	60	10	60-180	60	135	GapExp	Blank	0	50	2	3	1	target	1	556	722	54233	13.328	13.302	13.359
ProbeTrack13	16	ProbeTrack	13.2	SCS215a	20111109.093808	20111109.094412	8	0.013327	60	10	60-180	60	169	GapExp	Blank	0	51	2	45	1	target	1	523	739	54972	13.367	6.486	26.442
ProbeTrack13	16	ProbeTrack	13.2	SCS215a	20111109.093808	20111109.094456	8	0.013327	60	10	60-180	60	137	GapExp	Blank	0	52	2	0	1	target	1	539	731	55703	13.328	7.163	19.506
ProbeTrack13	16	ProbeTrack	13.2	SCS215a	20111109.093808	20111109.094504	8	0.013327	60	10	60-180	60	105	GapExp	Blank	0	53	2	45	1	target	1	504	748	56451	13.328	13.098	13.545
ProbeTrack13	16	ProbeTrack	13.2	SCS215a	20111109.093808	20111109.094513	8	0.013327	60	10	60-180	60	145	GapExp	Blank	0	54	2	3	0	distractor	1	592	704	57155	13.328	13.112	13.558
ProbeTrack13	16	ProbeTrack	13.2	SCS215a	20111109.093808	20111109.094520	8	0.013327	60	10	60-180	60	175	GapExp	Blank	0	55	2	0	0	distractor	1	834	583	57738	13.328	12.619	14.046
ProbeTrack13	16	ProbeTrack	13.2	SCS215a	20111109.093808	20111109.094527	8	0.013327	60	10	60-180	60	107	GapExp	Blank	0	56	2	3	1	target	1	491	755	58493	13.385	13.130	20.220
ProbeTrack13	16	ProbeTrack	13.2	SCS215a	20111109.093808	20111109.094534	8	0.013327	60	10	60-180	60	150	GapExp	Blank	0	57	2	45	0	distractor	1	706	647	59140	13.328	13.106	13.564
ProbeTrack13	16	ProbeTrack	13.2	SCS215a	20111109.093808	20111109.094541	8	0.013327	60	10	60-180	60	168	GapExp	Blank	0	58	2	1	0	distractor	1	692	654	59794	13.328	12.183	14.469
ProbeTrack13	16	ProbeTrack	13.2	SCS215a	20111109.093808	20111109.094549	8	0.013327	60	10	60-180	60	146	GapExp	Blank	0	59	2	0	0	distractor	1	612	694	60488	13.328	9.121	17.527
ProbeTrack13	16	ProbeTrack	13.2	SCS215a	20111109.093808	20111109.094556	8	0.013327	60	10	60-180	60	104	GapExp	Blank	0	60	2	0	0	distractor	1	859	571	61059	13.328	7.077	19.579
ProbeTrack13	16	ProbeTrack	13.2	SCS215a	20111109.093808	20111109.094607	8	0.013327	60	10	60-180	60	126	GapExp	Blank	0	61	2	3	1	target	1	654	673	61732	13.378	9.340	26.661
ProbeTrack13	16	ProbeTrack	13.2	SCS215a	20111109.093808	20111109.094616	8	0.013327	60	10	60-180	60	81	GapExp	Blank	0	62	2	0	0	distractor	1	682	659	62391	13.328	7.896	18.746
ProbeTrack13	16	ProbeTrack	13.2	SCS215a	20111109.093808	20111109.094624	8	0.013327	60	10	60-180	60	101	GapExp	Blank	0	63	2	1	0	distractor	1	609	696	63087	13.385	12.986	24.742
ProbeTrack13	16	ProbeTrack	13.2	SCS215a	20111109.093808	20111109.094632	8	0.013327	60	10	60-180	60	63	GapExp	Blank	0	64	2	45	1	target	1	491	755	63842	13.328	13.307	13.348
ProbeTrack13	16	ProbeTrack	13.2	SCS215a	20111109.093808	20111109.094639	8	0.013327	60	10	60-180	60	61	GapExp	Blank	0	65	2	3	1	distractor	0	622	-1000	62842	13.395	9.190	25.511
ProbeTrack13	16	ProbeTrack	13.2	SCS215a	20111109.093808	20111109.094645	8	0.013327	60	10	60-180	60	132	GapExp	Blank	0	66	2	0	0	distractor	1	738	631	63473	13.328	13.308	13.346
ProbeTrack13	16	ProbeTrack	13.2	SCS215a	20111109.093808	20111109.094652	8	0.013327	60	10	60-180	60	140	GapExp	Blank	0	67	2	3	1	target	1	619	691	64164	13.328	13.309	13.344
ProbeTrack13	16	ProbeTrack	13.2	SCS215a	20111109.093808	20111109.094700	8	0.013327	60	10	60-180	60	99	GapExp	Blank	0	68	2	45	0	distractor	1	631	685	64849	13.328	11.410	15.250
ProbeTrack13	16	ProbeTrack	13.2	SCS215a	20111109.093808	20111109.094707	8	0.013327	60	10	60-180	60	168	GapExp	Blank	0	69	2	45	0	distractor	1	833	584	65433	13.328	13.104	13.565
ProbeTrack13	16	ProbeTrack	13.2	SCS215a	20111109.093808	20111109.094716	8	0.013327	60	10	60-180	60	86	GapExp	Blank	0	70	2	45	0	distractor	1	743	629	66062	13.328	10.153	16.482
ProbeTrack13	16	ProbeTrack	13.2	SCS215a	20111109.093808	20111109.094726	8	0.013327	60	10	60-180	60	174	GapExp	Blank	0	71	2	1	1	distractor	0	746	-1000	65062	13.370	7.201	20.404
ProbeTrack13	16	ProbeTrack	13.2	SCS215a	20111109.093808	20111109.094738	8	0.013327	60	10	60-180	60	110	GapExp	Blank	0	72	2	0	0	distractor	1	595	703	65765	13.383	13.299	22.496
ProbeTrack13	16	ProbeTrack	13.2	SCS215a	20111109.093808	20111109.094745	8	0.013327	60	10	60-180	60	88	GapExp	Blank	0	73	2	0	0	distractor	1	643	679	66444	13.328	8.904	17.745
ProbeTrack13	16	ProbeTrack	13.2	SCS215a	20111109.093808	20111109.094752	8	0.013327	60	10	60-180	60	156	GapExp	Blank	0	74	2	0	0	target	0	681	-1000	65444	13.328	13.085	13.573
ProbeTrack13	16	ProbeTrack	13.2	SCS215a	20111109.093808	20111109.094800	8	0.013327	60	10	60-180	60	149	GapExp	Blank	0	75	2	0	0	distractor	1	643	679	66123	13.328	13.307	13.349
ProbeTrack13	16	ProbeTrack	13.2	SCS215a	20111109.093808	20111109.094816	8	0.013327	60	10	60-180	60	177	GapExp	Blank	0	76	2	3	0	distractor	1	679	661	66784	13.328	12.351	14.324
ProbeTrack13	16	ProbeTrack	13.2	SCS215a	20111109.093808	20111109.094824	8	0.013327	60	10	60-180	60	89	GapExp	Blank	0	77	2	0	1	target	1	593	704	67488	13.328	13.308	13.346
ProbeTrack13	16	ProbeTrack	13.2	SCS215a	20111109.093808	20111109.094832	8	0.013327	60	10	60-180	60	120	GapExp	Blank	0	78	2	45	0	distractor	1	766	617	68105	13.328	13.307	13.348
ProbeTrack13	16	ProbeTrack	13.2	SCS215a	20111109.093808	20111109.094839	8	0.013327	60	10	60-180	60	166	GapExp	Blank	0	79	2	0	0	target	0	473	-1000	67105	13.374	8.312	20.136
ProbeTrack13	16	ProbeTrack	13.2	SCS215a	20111109.093808	20111109.094847	8	0.013327	60	10	60-180	60	90	GapExp	Blank	0	80	2	3	0	distractor	1	662	669	67774	13.328	6.726	19.927
ProbeTrack13	16	ProbeTrack	13.2	SCS215a	20111109.093808	20111109.094859	8	0.013327	60	10	60-180	60	87	GapExp	Blank	0	81	2	0	0	distractor	1	732	634	68408	13.446	9.287	41.056
ProbeTrack13	16	ProbeTrack	13.2	SCS215a	20111109.093808	20111109.094907	8	0.013327	60	10	60-180	60	177	GapExp	Blank	0	82	2	0	1	target	1	618	691	69099	13.371	12.467	25.848
ProbeTrack13	16	ProbeTrack	13.2	SCS215a	20111109.093808	20111109.094917	8	0.013327	60	10	60-180	60	155	GapExp	Blank	0	83	2	3	1	target	1	523	739	69838	13.328	5.296	21.368
ProbeTrack13	16	ProbeTrack	13.2	SCS215a	20111109.093808	20111109.094925	8	0.013327	60	10	60-180	60	156	GapExp	Blank	0	84	2	3	0	distractor	1	699	651	70489	13.417	8.892	26.378
ProbeTrack13	16	ProbeTrack	13.2	SCS215a	20111109.093808	20111109.094933	8	0.013327	60	10	60-180	60	167	GapExp	Blank	0	85	2	1	1	target	1	658	671	71160	13.328	12.125	14.536
ProbeTrack13	16	ProbeTrack	13.2	SCS215a	20111109.093808	20111109.094943	8	0.013327	60	10	60-180	60	68	GapExp	Blank	0	86	2	1	0	distractor	1	818	591	71751	13.328	13.119	13.544
ProbeTrack13	16	ProbeTrack	13.2	SCS215a	20111109.093808	20111109.094951	8	0.013327	60	10	60-180	60	122	GapExp	Blank	0	87	2	3	0	distractor	1	855	573	72324	13.328	10.744	15.914
ProbeTrack13	16	ProbeTrack	13.2	SCS215a	20111109.093808	20111109.094958	8	0.013327	60	10	60-180	60	93	GapExp	Blank	0	88	2	1	1	target	1	493	754	73078	13.328	13.304	13.359
ProbeTrack13	16	ProbeTrack	13.2	SCS215a	20111109.093808	20111109.095015	8	0.013327	60	10	60-180	60	141	GapExp	Blank	0	89	2	0	1	target	1	461	770	73848	13.328	9.399	17.265
ProbeTrack13	16	ProbeTrack	13.2	SCS215a	20111109.093808	20111109.095024	8	0.013327	60	10	60-180	60	137	GapExp	Blank	0	90	2	0	1	target	1	431	785	74633	13.328	10.098	16.551
ProbeTrack13	16	ProbeTrack	13.2	SCS215a	20111109.093808	20111109.095031	8	0.013327	60	10	60-180	60	92	GapExp	Blank	0	91	2	0	1	distractor	0	550	-1000	73633	13.328	8.982	17.682
ProbeTrack13	16	ProbeTrack	13.2	SCS215a	20111109.093808	20111109.095037	8	0.013327	60	10	60-180	60	132	GapExp	Blank	0	92	2	3	0	distractor	1	623	689	74322	13.328	10.195	16.485
ProbeTrack13	16	ProbeTrack	13.2	SCS215a	20111109.093808	20111109.095045	8	0.013327	60	10	60-180	60	86	GapExp	Blank	0	93	2	1	1	target	1	430	785	75107	13.328	7.948	18.706
ProbeTrack13	16	ProbeTrack	13.2	SCS215a	20111109.093808	20111109.095051	8	0.013327	60	10	60-180	60	123	GapExp	Blank	0	94	2	3	0	distractor	1	646	677	75784	13.328	12.771	13.896
ProbeTrack13	16	ProbeTrack	13.2	SCS215a	20111109.093808	20111109.095058	8	0.013327	60	10	60-180	60	151	GapExp	Blank	0	95	2	45	0	distractor	1	692	654	76438	13.448	5.559	27.097
ProbeTrack13	16	ProbeTrack	13.2	SCS215a	20111109.093808	20111109.095108	8	0.013327	60	10	60-180	60	145	GapExp	Blank	0	96	2	3	0	distractor	1	614	693	77131	13.328	12.479	14.228
ProbeTrack13	16	ProbeTrack	13.2	SCS215a	20111109.093808	20111109.095116	8	0.013327	60	10	60-180	60	70	GapExp	Blank	0	97	2	45	1	target	1	940	530	77661	13.379	9.683	21.636
ProbeTrack13	16	ProbeTrack	13.2	SCS215a	20111109.093808	20111109.095123	8	0.013327	60	10	60-180	60	128	GapExp	Blank	0	98	2	3	1	target	1	527	737	78398	13.328	6.337	20.331
ProbeTrack13	16	ProbeTrack	13.2	SCS215a	20111109.093808	20111109.095129	8	0.013327	60	10	60-180	60	65	GapExp	Blank	0	99	2	1	0	target	0	624	-1000	77398	13.328	10.836	15.822
ProbeTrack13	16	ProbeTrack	13.2	SCS215a	20111109.093808	20111109.095135	8	0.013327	60	10	60-180	60	110	GapExp	Blank	0	100	2	1	1	target	1	579	711	78109	13.328	11.530	15.170
ProbeTrack13	16	ProbeTrack	13.2	SCS215a	20111109.093808	20111109.095141	8	0.013327	60	10	60-180	60	130	GapExp	Blank	0	101	2	1	1	target	1	498	751	78860	13.328	7.527	19.135
ProbeTrack13	16	ProbeTrack	13.2	SCS215a	20111109.093808	20111109.095231	8	0.013327	60	10	60-180	60	121	GapExp	Blank	0	102	2	1	1	target	1	479	761	79621	13.328	6.023	20.639
ProbeTrack13	16	ProbeTrack	13.2	SCS215a	20111109.093808	20111109.095238	8	0.013327	60	10	60-180	60	120	GapExp	Blank	0	103	2	45	1	target	1	631	685	80306	13.328	8.268	18.396
ProbeTrack13	16	ProbeTrack	13.2	SCS215a	20111109.093808	20111109.095248	8	0.013327	60	10	60-180	60	147	GapExp	Blank	0	104	2	45	1	target	1	586	707	81013	13.369	13.082	22.787
ProbeTrack13	16	ProbeTrack	13.2	SCS215a	20111109.093808	20111109.095302	8	0.013327	60	10	60-180	60	91	GapExp	Blank	0	105	2	1	0	distractor	1	767	617	81630	13.328	7.997	18.673
ProbeTrack13	16	ProbeTrack	13.2	SCS215a	20111109.093808	20111109.095309	8	0.013327	60	10	60-180	60	78	GapExp	Blank	0	106	2	45	1	target	1	525	738	82368	13.328	8.498	18.159
ProbeTrack13	16	ProbeTrack	13.2	SCS215a	20111109.093808	20111109.095316	8	0.013327	60	10	60-180	60	71	GapExp	Blank	0	107	2	1	1	target	1	650	675	83043	13.328	12.802	13.879
ProbeTrack13	16	ProbeTrack	13.2	SCS215a	20111109.093808	20111109.095322	8	0.013327	60	10	60-180	60	80	GapExp	Blank	0	108	2	45	1	target	1	596	702	83745	13.328	13.110	13.545
ProbeTrack13	16	ProbeTrack	13.2	SCS215a	20111109.093808	20111109.095328	8	0.013327	60	10	60-180	60	131	GapExp	Blank	0	109	2	1	1	target	1	561	720	84465	13.328	10.320	16.345
ProbeTrack13	16	ProbeTrack	13.2	SCS215a	20111109.093808	20111109.095337	8	0.013327	60	10	60-180	60	155	GapExp	Blank	0	110	2	1	1	target	1	596	702	85167	13.374	13.015	22.673
ProbeTrack13	16	ProbeTrack	13.2	SCS215a	20111109.093808	20111109.095347	8	0.013327	60	10	60-180	60	85	GapExp	Blank	0	111	2	45	1	target	1	440	780	85947	13.381	13.096	23.100
ProbeTrack13	16	ProbeTrack	13.2	SCS215a	20111109.093808	20111109.095402	8	0.013327	60	10	60-180	60	179	GapExp	Blank	0	112	2	1	1	distractor	0	681	-1000	84947	13.328	13.110	13.546
ProbeTrack13	16	ProbeTrack	13.2	SCS215a	20111109.093808	20111109.095410	8	0.013327	60	10	60-180	60	125	GapExp	Blank	0	113	2	1	1	distractor	0	717	-1000	83947	13.378	10.680	19.460
ProbeTrack13	16	ProbeTrack	13.2	SCS215a	20111109.093808	20111109.095417	8	0.013327	60	10	60-180	60	109	GapExp	Blank	0	114	2	3	1	distractor	0	2076	-1000	82947	13.328	13.282	13.375
ProbeTrack13	16	ProbeTrack	13.2	SCS215a	20111109.093808	20111109.095427	8	0.013327	60	10	60-180	60	71	GapExp	Blank	0	115	2	0	0	target	0	679	-1000	81947	13.328	5.228	18.715
ProbeTrack13	16	ProbeTrack	13.2	SCS215a	20111109.093808	20111109.095442	8	0.013327	60	10	60-180	60	70	GapExp	Blank	0	116	2	45	0	distractor	1	678	661	82608	13.328	12.079	14.581
ProbeTrack13	16	ProbeTrack	13.2	SCS215a	20111109.093808	20111109.095449	8	0.013327	60	10	60-180	60	82	GapExp	Blank	0	117	2	3	1	distractor	0	606	-1000	81608	13.328	11.452	15.212
ProbeTrack13	16	ProbeTrack	13.2	SCS215a	20111109.093808	20111109.095455	8	0.013327	60	10	60-180	60	161	GapExp	Blank	0	118	2	45	0	target	0	469	-1000	80608	13.328	9.964	16.703
ProbeTrack13	16	ProbeTrack	13.2	SCS215a	20111109.093808	20111109.095503	8	0.013327	60	10	60-180	60	157	GapExp	Blank	0	119	2	3	1	target	1	494	753	81361	13.328	10.842	15.815
ProbeTrack13	16	ProbeTrack	13.2	SCS215a	20111109.093808	20111109.095525	8	0.013327	60	10	60-180	60	93	GapExp	Blank	0	120	2	1	1	target	1	643	679	82040	13.328	10.904	15.771
ProbeTrack13	16	ProbeTrack	13.2	SCS215a	20111109.093808	20111109.095531	8	0.013327	60	10	60-180	60	75	GapExp	Blank	0	121	2	45	1	target	1	391	805	82845	13.328	5.993	20.669
ProbeTrack13	16	ProbeTrack	13.2	SCS215a	20111109.093808	20111109.095544	8	0.013327	60	10	60-180	60	152	GapExp	Blank	0	122	2	1	1	target	1	467	767	83612	13.328	10.360	16.298
ProbeTrack13	16	ProbeTrack	13.2	SCS215a	20111109.093808	20111109.095551	8	0.013327	60	10	60-180	60	102	GapExp	Blank	0	123	2	0	1	target	1	679	661	84273	13.328	9.603	17.062
ProbeTrack13	16	ProbeTrack	13.2	SCS215a	20111109.093808	20111109.095559	8	0.013327	60	10	60-180	60	180	GapExp	Blank	0	124	2	0	0	distractor	1	749	626	84899	13.328	9.804	16.859
ProbeTrack13	16	ProbeTrack	13.2	SCS215a	20111109.093808	20111109.095618	8	0.013327	60	10	60-180	60	109	GapExp	Blank	0	125	2	1	0	distractor	1	631	685	85584	13.328	13.287	13.370
ProbeTrack13	16	ProbeTrack	13.2	SCS215a	20111109.093808	20111109.095625	8	0.013327	60	10	60-180	60	174	GapExp	Blank	0	126	2	3	0	distractor	1	683	659	86243	13.328	11.241	15.440
ProbeTrack13	16	ProbeTrack	13.2	SCS215a	20111109.093808	20111109.095633	8	0.013327	60	10	60-180	60	88	GapExp	Blank	0	127	2	0	1	target	1	594	703	86946	13.328	10.056	16.615
ProbeTrack13	16	ProbeTrack	13.2	SCS215a	20111109.093808	20111109.095639	8	0.013327	60	10	60-180	60	116	GapExp	Blank	0	128	2	0	0	distractor	1	616	692	87638	13.328	12.436	14.222
ProbeTrack13	16	ProbeTrack	13.2	SCS215a	20111109.093808	20111109.095645	8	0.013327	60	10	60-180	60	148	GapExp	Blank	0	129	2	1	0	distractor	1	649	676	88314	13.328	7.539	19.124
ProbeTrack13	16	ProbeTrack	13.2	SCS215a	20111109.093808	20111109.095710	8	0.013327	60	10	60-180	60	159	GapExp	Blank	0	130	2	1	0	distractor	1	663	669	88983	13.328	8.085	18.574
ProbeTrack13	16	ProbeTrack	13.2	SCS215a	20111109.093808	20111109.095716	8	0.013327	60	10	60-180	60	165	GapExp	Blank	0	131	2	0	1	distractor	0	1098	-1000	87983	13.328	6.419	20.243
ProbeTrack13	16	ProbeTrack	13.2	SCS215a	20111109.093808	20111109.095724	8	0.013327	60	10	60-180	60	81	GapExp	Blank	0	132	2	3	1	target	1	481	760	88743	13.328	12.073	14.587
ProbeTrack13	16	ProbeTrack	13.2	SCS215a	20111109.093808	20111109.095736	8	0.013327	60	10	60-180	60	147	GapExp	Blank	0	133	2	3	1	target	1	425	788	89531	13.328	12.908	13.756
ProbeTrack13	16	ProbeTrack	13.2	SCS215a	20111109.093808	20111109.095751	8	0.013327	60	10	60-180	60	124	GapExp	Blank	0	134	2	1	1	target	1	407	797	90328	13.328	9.407	17.257
ProbeTrack13	16	ProbeTrack	13.2	SCS215a	20111109.093808	20111109.095759	8	0.013327	60	10	60-180	60	171	GapExp	Blank	0	135	2	45	1	target	1	498	751	91079	13.328	12.249	14.439
ProbeTrack13	16	ProbeTrack	13.2	SCS215a	20111109.093808	20111109.095807	8	0.013327	60	10	60-180	60	62	GapExp	Blank	0	136	2	1	0	distractor	1	673	664	91743	13.328	9.153	17.244
ProbeTrack13	16	ProbeTrack	13.2	SCS215a	20111109.093808	20111109.095817	8	0.013327	60	10	60-180	60	166	GapExp	Blank	0	137	2	3	0	target	0	5197	-1000	90743	13.328	8.001	19.182
ProbeTrack13	16	ProbeTrack	13.2	SCS215a	20111109.093808	20111109.095829	8	0.013327	60	10	60-180	60	159	GapExp	Blank	0	138	2	3	1	target	1	812	594	91337	13.328	11.968	14.691
ProbeTrack13	16	ProbeTrack	13.2	SCS215a	20111109.093808	20111109.095842	8	0.013327	60	10	60-180	60	150	GapExp	Blank	0	139	2	3	1	target	1	484	758	92095	13.328	12.337	14.322
ProbeTrack13	16	ProbeTrack	13.2	SCS215a	20111109.093808	20111109.095849	8	0.013327	60	10	60-180	60	152	GapExp	Blank	0	140	2	1	0	target	0	481	-1000	91095	13.328	13.254	13.402
ProbeTrack13	16	ProbeTrack	13.2	SCS215a	20111109.093808	20111109.095901	8	0.013327	60	10	60-180	60	151	GapExp	Blank	0	141	2	45	0	distractor	1	747	627	91722	13.328	13.098	13.551
ProbeTrack13	16	ProbeTrack	13.2	SCS215a	20111109.093808	20111109.095918	8	0.013327	60	10	60-180	60	136	GapExp	Blank	0	142	2	1	0	distractor	1	687	657	92379	13.328	7.913	18.744
ProbeTrack13	16	ProbeTrack	13.2	SCS215a	20111109.093808	20111109.095927	8	0.013327	60	10	60-180	60	121	GapExp	Blank	0	143	2	3	1	target	1	454	773	93152	13.328	4.038	22.639
ProbeTrack13	16	ProbeTrack	13.2	SCS215a	20111109.093808	20111109.095940	8	0.013327	60	10	60-180	60	114	GapExp	Blank	0	144	2	0	1	target	1	413	794	93946	13.328	13.099	13.559
ProbeTrack13	16	ProbeTrack	13.2	SCS215a	20111109.093808	20111109.095947	8	0.013327	60	10	60-180	60	168	GapExp	Blank	0	145	2	1	0	distractor	1	634	683	94629	13.328	8.298	18.361
ProbeTrack13	16	ProbeTrack	13.2	SCS215a	20111109.093808	20111109.095955	8	0.013327	60	10	60-180	60	84	GapExp	Blank	0	146	2	1	1	target	1	994	503	95132	13.328	12.979	13.711
ProbeTrack13	16	ProbeTrack	13.2	SCS215a	20111109.093808	20111109.100003	8	0.013327	60	10	60-180	60	73	GapExp	Blank	0	147	2	3	0	distractor	1	782	609	95741	13.328	13.298	13.371
ProbeTrack13	16	ProbeTrack	13.2	SCS215a	20111109.093808	20111109.100024	8	0.013327	60	10	60-180	60	137	GapExp	Blank	0	148	2	0	0	target	0	547	-1000	94741	13.328	5.558	21.101
ProbeTrack13	16	ProbeTrack	13.2	SCS215a	20111109.093808	20111109.100031	8	0.013327	60	10	60-180	60	141	GapExp	Blank	0	149	2	0	1	target	1	481	760	95501	13.328	6.076	20.585
ProbeTrack13	16	ProbeTrack	13.2	SCS215a	20111109.093808	20111109.100037	8	0.013327	60	10	60-180	60	138	GapExp	Blank	0	150	2	0	1	target	1	445	778	96279	13.328	9.151	17.508
ProbeTrack13	16	ProbeTrack	13.2	SCS215a	20111109.093808	20111109.100046	8	0.013327	60	10	60-180	60	82	GapExp	Blank	0	151	2	3	0	distractor	1	550	725	97004	13.328	10.046	16.615
ProbeTrack13	16	ProbeTrack	13.2	SCS215a	20111109.093808	20111109.100105	8	0.013327	60	10	60-180	60	112	GapExp	Blank	0	152	2	0	1	target	1	487	757	97761	13.328	7.594	19.070
ProbeTrack13	16	ProbeTrack	13.2	SCS215a	20111109.093808	20111109.100114	8	0.013327	60	10	60-180	60	106	GapExp	Blank	0	153	2	45	1	target	1	451	775	98536	13.328	11.482	15.185
ProbeTrack13	16	ProbeTrack	13.2	SCS215a	20111109.093808	20111109.100123	8	0.013327	60	10	60-180	60	83	GapExp	Blank	0	154	2	45	1	target	1	493	754	99290	13.328	8.079	18.580
ProbeTrack13	16	ProbeTrack	13.2	SCS215a	20111109.093808	20111109.100129	8	0.013327	60	10	60-180	60	147	GapExp	Blank	0	155	2	3	0	distractor	1	625	688	99978	13.328	12.750	13.911
ProbeTrack13	16	ProbeTrack	13.2	SCS215a	20111109.093808	20111109.100137	8	0.013327	60	10	60-180	60	169	GapExp	Blank	0	156	2	0	1	distractor	0	937	-1000	98978	13.328	4.666	22.001
ProbeTrack13	16	ProbeTrack	13.2	SCS215a	20111109.093808	20111109.100144	8	0.013327	60	10	60-180	60	76	GapExp	Blank	0	157	2	45	0	distractor	1	786	607	99585	13.328	9.503	17.160
ProbeTrack13	16	ProbeTrack	13.2	SCS215a	20111109.093808	20111109.100151	8	0.013327	60	10	60-180	60	81	GapExp	Blank	0	158	2	3	1	target	1	485	758	100343	13.328	10.956	15.710
ProbeTrack13	16	ProbeTrack	13.2	SCS215a	20111109.093808	20111109.100208	8	0.013327	60	10	60-180	60	158	GapExp	Blank	0	159	2	3	0	distractor	1	748	626	100969	13.328	10.675	15.985
ProbeTrack13	16	ProbeTrack	13.2	SCS215a	20111109.093808	20111109.100216	8	0.013327	60	10	60-180	60	138	GapExp	Blank	0	160	2	1	1	target	1	353	824	101793	13.328	11.598	15.060
ProbeTrack13	16	ProbeTrack	13.2	SCS215a	20111109.093808	20111109.100222	8	0.013327	60	10	60-180	60	129	GapExp	Blank	0	161	2	45	1	distractor	0	807	-1000	100793	13.328	3.793	22.876
ProbeTrack13	16	ProbeTrack	13.2	SCS215a	20111109.093808	20111109.100231	8	0.013327	60	10	60-180	60	167	GapExp	Blank	0	162	2	3	0	distractor	1	533	734	101527	13.328	11.194	15.469
ProbeTrack13	16	ProbeTrack	13.2	SCS215a	20111109.093808	20111109.100240	8	0.013327	60	10	60-180	60	105	GapExp	Blank	0	163	2	45	0	distractor	1	622	689	102216	13.328	5.898	20.765
ProbeTrack13	16	ProbeTrack	13.2	SCS215a	20111109.093808	20111109.100258	8	0.013327	60	10	60-180	60	96	GapExp	Blank	0	164	2	0	1	target	1	873	564	102780	13.328	6.107	20.567
ProbeTrack13	16	ProbeTrack	13.2	SCS215a	20111109.093808	20111109.100305	8	0.013327	60	10	60-180	60	144	GapExp	Blank	0	165	2	1	0	distractor	1	760	620	103400	13.328	10.148	16.514
ProbeTrack13	16	ProbeTrack	13.2	SCS215a	20111109.093808	20111109.100318	8	0.013327	60	10	60-180	60	91	GapExp	Blank	0	166	2	0	0	distractor	1	743	629	104029	13.385	11.926	24.179
ProbeTrack13	16	ProbeTrack	13.2	SCS215a	20111109.093808	20111109.100325	8	0.013327	60	10	60-180	60	163	GapExp	Blank	0	167	2	0	1	target	1	430	785	104814	13.328	9.527	17.142
ProbeTrack13	16	ProbeTrack	13.2	SCS215a	20111109.093808	20111109.100337	8	0.013327	60	10	60-180	60	176	GapExp	Blank	0	168	2	3	0	target	0	749	-1000	103814	13.328	5.356	21.314
ProbeTrack13	16	ProbeTrack	13.2	SCS215a	20111109.093808	20111109.100344	8	0.013327	60	10	60-180	60	63	GapExp	Blank	0	169	2	45	0	distractor	1	655	673	104487	13.328	13.092	13.558
ProbeTrack13	16	ProbeTrack	13.2	SCS215a	20111109.093808	20111109.100351	8	0.013327	60	10	60-180	60	121	GapExp	Blank	0	170	2	0	0	distractor	1	688	656	105143	13.328	13.181	13.478
ProbeTrack13	16	ProbeTrack	13.2	SCS215a	20111109.093808	20111109.100400	8	0.013327	60	10	60-180	60	163	GapExp	Blank	0	171	2	0	1	target	1	495	753	105896	13.328	13.298	13.363
ProbeTrack13	16	ProbeTrack	13.2	SCS215a	20111109.093808	20111109.100408	8	0.013327	60	10	60-180	60	95	GapExp	Blank	0	172	2	0	0	target	0	822	-1000	104896	13.328	11.779	14.888
ProbeTrack13	16	ProbeTrack	13.2	SCS215a	20111109.093808	20111109.100424	8	0.013327	60	10	60-180	60	147	GapExp	Blank	0	173	2	0	1	target	1	383	809	105705	13.328	7.440	19.230
ProbeTrack13	16	ProbeTrack	13.2	SCS215a	20111109.093808	20111109.100431	8	0.013327	60	10	60-180	60	120	GapExp	Blank	0	174	2	0	1	target	1	537	732	106437	13.328	13.112	13.544
ProbeTrack13	16	ProbeTrack	13.2	SCS215a	20111109.093808	20111109.100441	8	0.013327	60	10	60-180	60	67	GapExp	Blank	0	175	2	45	1	target	1	345	828	107265	13.328	12.299	14.361
ProbeTrack13	16	ProbeTrack	13.2	SCS215a	20111109.093808	20111109.100450	8	0.013327	60	10	60-180	60	97	GapExp	Blank	0	176	2	45	1	target	1	436	782	108047	13.328	12.349	14.324
ProbeTrack13	16	ProbeTrack	13.2	SCS215a	20111109.093808	20111109.100458	8	0.013327	60	10	60-180	60	74	GapExp	Blank	0	177	2	1	0	distractor	1	635	683	108730	13.328	5.957	20.700
ProbeTrack13	16	ProbeTrack	13.2	SCS215a	20111109.093808	20111109.100514	8	0.013327	60	10	60-180	60	67	GapExp	Blank	0	178	2	45	1	target	1	346	827	109557	13.387	11.995	22.979
ProbeTrack13	16	ProbeTrack	13.2	SCS215a	20111109.093808	20111109.100522	8	0.013327	60	10	60-180	60	112	GapExp	Blank	0	179	2	45	0	distractor	1	726	637	110194	13.372	8.862	27.776
ProbeTrack13	16	ProbeTrack	13.2	SCS215a	20111109.093808	20111109.100530	8	0.013327	60	10	60-180	60	167	GapExp	Blank	0	180	2	0	1	target	1	505	748	110942	13.374	10.005	26.886
ProbeTrack13	16	ProbeTrack	13.2	SCS215a	20111109.093808	20111109.100539	8	0.013327	60	10	60-180	60	100	GapExp	Blank	0	181	2	1	1	target	1	356	822	111764	13.328	6.711	19.961
ProbeTrack13	16	ProbeTrack	13.2	SCS215a	20111109.093808	20111109.100544	8	0.013327	60	10	60-180	60	130	GapExp	Blank	0	182	2	45	0	distractor	1	642	679	112443	13.371	11.549	23.217
ProbeTrack13	16	ProbeTrack	13.2	SCS215a	20111109.093808	20111109.100551	8	0.013327	60	10	60-180	60	73	GapExp	Blank	0	183	2	3	0	distractor	1	659	671	113114	13.391	12.953	20.373
ProbeTrack13	16	ProbeTrack	13.2	SCS215a	20111109.093808	20111109.100559	8	0.013327	60	10	60-180	60	129	GapExp	Blank	0	184	2	45	0	distractor	1	739	631	113745	13.328	10.344	16.333
ProbeTrack13	16	ProbeTrack	13.2	SCS215a	20111109.093808	20111109.100607	8	0.013327	60	10	60-180	60	127	GapExp	Blank	0	185	2	45	0	target	0	634	-1000	112745	13.371	11.725	21.251
ProbeTrack13	16	ProbeTrack	13.2	SCS215a	20111109.093808	20111109.100624	8	0.013327	60	10	60-180	60	147	GapExp	Blank	0	186	2	0	0	distractor	1	741	630	113375	13.328	6.587	20.076
ProbeTrack13	16	ProbeTrack	13.2	SCS215a	20111109.093808	20111109.100631	8	0.013327	60	10	60-180	60	179	GapExp	Blank	0	187	2	1	0	target	0	733	-1000	112375	13.328	11.575	15.139
ProbeTrack13	16	ProbeTrack	13.2	SCS215a	20111109.093808	20111109.100641	8	0.013327	60	10	60-180	60	107	GapExp	Blank	0	188	2	45	1	target	1	384	808	113183	13.328	8.744	17.927
ProbeTrack13	16	ProbeTrack	13.2	SCS215a	20111109.093808	20111109.100653	8	0.013327	60	10	60-180	60	74	GapExp	Blank	0	189	2	45	0	distractor	1	766	617	113800	13.328	9.393	17.271
ProbeTrack13	16	ProbeTrack	13.2	SCS215a	20111109.093808	20111109.100702	8	0.013327	60	10	60-180	60	115	GapExp	Blank	0	190	2	45	1	target	1	542	729	114529	13.328	10.575	16.091
ProbeTrack13	16	ProbeTrack	13.2	SCS215a	20111109.093808	20111109.100711	8	0.013327	60	10	60-180	60	121	GapExp	Blank	0	191	2	0	1	target	1	503	749	115278	13.328	10.001	16.682
ProbeTrack13	16	ProbeTrack	13.2	SCS215a	20111109.093808	20111109.100718	8	0.013327	60	10	60-180	60	141	GapExp	Blank	0	192	2	45	0	distractor	1	742	629	115907	13.328	3.708	22.955
ProbeTrack13	16	ProbeTrack	13.2	SCS215a	20111109.093808	20111109.100725	8	0.013327	60	10	60-180	60	116	GapExp	Blank	0	193	2	1	0	distractor	1	660	670	116577	13.328	9.107	17.556
ProbeTrack13	16	ProbeTrack	13.2	SCS215a	20111109.093808	20111109.100732	8	0.013327	60	10	60-180	60	158	GapExp	Blank	0	194	2	1	1	target	1	398	801	117378	13.328	13.262	13.379
ProbeTrack13	16	ProbeTrack	13.2	SCS215a	20111109.093808	20111109.100738	8	0.013327	60	10	60-180	60	156	GapExp	Blank	0	195	2	45	0	target	0	523	-1000	116378	13.328	7.656	19.010
ProbeTrack13	16	ProbeTrack	13.2	SCS215a	20111109.093808	20111109.100746	8	0.013327	60	10	60-180	60	149	GapExp	Blank	0	196	2	1	0	distractor	1	752	624	117002	13.328	9.274	17.381
ProbeTrack13	16	ProbeTrack	13.2	SCS215a	20111109.093808	20111109.100754	8	0.013327	60	10	60-180	60	113	GapExp	Blank	0	197	2	1	0	distractor	1	718	641	117643	13.380	13.064	25.440
ProbeTrack13	16	ProbeTrack	13.2	SCS215a	20111109.093808	20111109.100801	8	0.013327	60	10	60-180	60	161	GapExp	Blank	0	198	2	0	0	distractor	1	693	654	118297	13.328	7.860	18.796
ProbeTrack13	16	ProbeTrack	13.2	SCS215a	20111109.093808	20111109.100808	8	0.013327	60	10	60-180	60	84	GapExp	Blank	0	199	2	0	1	target	1	482	759	119056	13.456	9.640	26.580
ProbeTrack13	16	ProbeTrack	13.2	SCS215a	20111109.093808	20111109.100814	8	0.013327	60	10	60-180	60	144	GapExp	Blank	0	200	2	3	0	distractor	1	656	672	119728	13.328	11.710	14.953
ProbeTrack13	16	ProbeTrack	13.2	SCS215a	20111109.100944	20111109.101002	8	0.013328	60	10	60-180	60	104	GapPrac	BigFlash	1	1	2	45	1	target	1	567	717	120445	13.376	13.113	13.543
ProbeTrack13	16	ProbeTrack	13.2	SCS215a	20111109.100944	20111109.101009	8	0.013328	60	10	60-180	60	75	GapPrac	BigFlash	1	2	2	3	0	distractor	1	767	617	121062	13.328	12.991	13.725
ProbeTrack13	16	ProbeTrack	13.2	SCS215a	20111109.100944	20111109.101018	8	0.013328	60	10	60-180	60	61	GapPrac	BigFlash	1	3	2	45	0	distractor	1	717	642	121704	13.328	13.309	13.351
ProbeTrack13	16	ProbeTrack	13.2	SCS215a	20111109.100944	20111109.101035	8	0.013328	60	10	60-180	60	145	GapPrac	BigFlash	1	4	2	1	1	target	1	469	766	122470	13.328	13.237	13.454
ProbeTrack13	16	ProbeTrack	13.2	SCS215a	20111109.100944	20111109.101043	8	0.013328	60	10	60-180	60	112	GapPrac	BigFlash	1	5	2	0	0	distractor	1	521	740	123210	13.384	12.851	27.055
ProbeTrack13	16	ProbeTrack	13.2	SCS215a	20111109.100944	20111109.101049	8	0.013328	60	10	60-180	60	136	GapPrac	BigFlash	1	6	2	1	1	target	1	466	767	123977	13.328	12.841	13.815
ProbeTrack13	16	ProbeTrack	13.2	SCS215a	20111109.100944	20111109.101055	8	0.013328	60	10	60-180	60	99	GapPrac	BigFlash	1	7	2	3	0	distractor	1	783	609	124586	13.328	13.286	13.363
ProbeTrack13	16	ProbeTrack	13.2	SCS215a	20111109.100944	20111109.101101	8	0.013328	60	10	60-180	60	129	GapPrac	BigFlash	1	8	2	0	1	target	1	511	745	125331	13.328	13.296	13.352
ProbeTrack13	16	ProbeTrack	13.2	SCS215a	20111109.100944	20111109.101107	8	0.013328	60	10	60-180	60	97	GapPrac	BigFlash	1	9	2	45	0	distractor	1	652	674	126005	13.328	12.855	13.789
ProbeTrack13	16	ProbeTrack	13.2	SCS215a	20111109.100944	20111109.101115	8	0.013328	60	10	60-180	60	77	GapPrac	BigFlash	1	10	2	1	1	distractor	0	617	-1000	125005	13.328	12.909	13.753
ProbeTrack13	16	ProbeTrack	13.2	SCS215a	20111109.100944	20111109.101121	8	0.013328	60	10	60-180	60	103	GapPrac	BigFlash	1	11	2	0	0	distractor	1	682	659	125664	13.328	13.097	13.559
ProbeTrack13	16	ProbeTrack	13.2	SCS215a	20111109.100944	20111109.101127	8	0.013328	60	10	60-180	60	158	GapPrac	BigFlash	1	12	2	1	0	distractor	1	743	629	126293	13.328	13.097	13.569
ProbeTrack13	16	ProbeTrack	13.2	SCS215a	20111109.100944	20111109.101134	8	0.013328	60	10	60-180	60	133	GapPrac	BigFlash	1	13	2	3	1	target	1	464	768	127061	13.328	13.097	13.554
ProbeTrack13	16	ProbeTrack	13.2	SCS215a	20111109.100944	20111109.101141	8	0.013328	60	10	60-180	60	107	GapPrac	BigFlash	1	14	2	3	1	target	1	498	751	127812	13.328	13.106	13.550
ProbeTrack13	16	ProbeTrack	13.2	SCS215a	20111109.100944	20111109.101148	8	0.013328	60	10	60-180	60	130	GapPrac	BigFlash	1	15	2	45	0	distractor	1	861	570	128382	13.328	12.902	13.740
ProbeTrack13	16	ProbeTrack	13.2	SCS215a	20111109.100944	20111109.101155	8	0.013328	60	10	60-180	60	125	GapPrac	BigFlash	1	16	2	3	0	distractor	1	843	579	128961	13.328	13.105	13.550
ProbeTrack13	16	ProbeTrack	13.2	SCS215a	20111109.100944	20111109.101201	8	0.013328	60	10	60-180	60	67	GapPrac	BigFlash	1	17	2	45	1	target	1	550	725	129686	13.328	12.858	13.791
ProbeTrack13	16	ProbeTrack	13.2	SCS215a	20111109.100944	20111109.101207	8	0.013328	60	10	60-180	60	124	GapPrac	BigFlash	1	18	2	45	1	target	1	706	647	130333	13.328	13.039	13.604
ProbeTrack13	16	ProbeTrack	13.2	SCS215a	20111109.100944	20111109.101215	8	0.013328	60	10	60-180	60	151	GapPrac	BigFlash	1	19	2	1	0	distractor	1	671	665	130998	13.328	13.099	13.556
ProbeTrack13	16	ProbeTrack	13.2	SCS215a	20111109.100944	20111109.101222	8	0.013328	60	10	60-180	60	76	GapPrac	BigFlash	1	20	2	0	1	target	1	442	779	131777	13.328	13.112	13.547
ProbeTrack13	16	ProbeTrack	13.2	SCS215a	20111109.101259	20111109.101304	8	0.013328	60	10	60-180	60	159	GapExp	BigFlash	1	1	2	45	1	target	1	507	747	132524	13.368	7.760	18.887
ProbeTrack13	16	ProbeTrack	13.2	SCS215a	20111109.101259	20111109.101312	8	0.013328	60	10	60-180	60	160	GapExp	BigFlash	1	2	2	1	0	distractor	1	801	600	133124	13.328	6.662	19.989
ProbeTrack13	16	ProbeTrack	13.2	SCS215a	20111109.101259	20111109.101319	8	0.013328	60	10	60-180	60	117	GapExp	BigFlash	1	3	2	1	1	target	1	549	726	133850	13.328	12.511	14.158
ProbeTrack13	16	ProbeTrack	13.2	SCS215a	20111109.101259	20111109.101325	8	0.013328	60	10	60-180	60	65	GapExp	BigFlash	1	4	2	3	1	target	1	477	762	134612	13.328	5.411	21.250
ProbeTrack13	16	ProbeTrack	13.2	SCS215a	20111109.101259	20111109.101331	8	0.013328	60	10	60-180	60	106	GapExp	BigFlash	1	5	2	0	1	target	1	491	755	135367	13.328	13.310	13.344
ProbeTrack13	16	ProbeTrack	13.2	SCS215a	20111109.101259	20111109.101337	8	0.013328	60	10	60-180	60	73	GapExp	BigFlash	1	6	2	3	0	distractor	1	581	710	136077	13.328	12.007	14.644
ProbeTrack13	16	ProbeTrack	13.2	SCS215a	20111109.101259	20111109.101343	8	0.013328	60	10	60-180	60	113	GapExp	BigFlash	1	7	2	0	0	distractor	1	645	678	136755	13.328	13.302	13.345
ProbeTrack13	16	ProbeTrack	13.2	SCS215a	20111109.101259	20111109.101349	8	0.013328	60	10	60-180	60	125	GapExp	BigFlash	1	8	2	45	0	distractor	1	640	680	137435	13.328	13.297	13.351
ProbeTrack13	16	ProbeTrack	13.2	SCS215a	20111109.101259	20111109.101357	8	0.013328	60	10	60-180	60	66	GapExp	BigFlash	0	9	2	1	0	distractor	1	648	676	138111	13.328	9.496	17.167
ProbeTrack13	16	ProbeTrack	13.2	SCS215a	20111109.101259	20111109.101405	8	0.013328	60	10	60-180	60	115	GapExp	BigFlash	0	10	2	3	1	target	1	504	748	138859	13.328	12.221	14.451
ProbeTrack13	16	ProbeTrack	13.2	SCS215a	20111109.101259	20111109.101411	8	0.013328	60	10	60-180	60	98	GapExp	BigFlash	0	11	2	3	1	target	1	485	758	139617	13.328	10.292	16.380
ProbeTrack13	16	ProbeTrack	13.2	SCS215a	20111109.101259	20111109.101417	8	0.013328	60	10	60-180	60	155	GapExp	BigFlash	0	12	2	1	1	target	1	479	761	140378	13.328	12.613	14.056
ProbeTrack13	16	ProbeTrack	13.2	SCS215a	20111109.101259	20111109.101424	8	0.013328	60	10	60-180	60	169	GapExp	BigFlash	0	13	2	1	0	target	0	505	-1000	139378	13.328	8.180	18.473
ProbeTrack13	16	ProbeTrack	13.2	SCS215a	20111109.101259	20111109.101430	8	0.013328	60	10	60-180	60	78	GapExp	BigFlash	0	14	2	0	0	distractor	1	689	656	140034	13.328	12.762	13.894
ProbeTrack13	16	ProbeTrack	13.2	SCS215a	20111109.101259	20111109.101436	8	0.013328	60	10	60-180	60	107	GapExp	BigFlash	0	15	2	0	0	distractor	1	658	671	140705	13.328	13.098	13.561
ProbeTrack13	16	ProbeTrack	13.2	SCS215a	20111109.101259	20111109.101444	8	0.013328	60	10	60-180	60	141	GapExp	BigFlash	0	16	2	3	0	distractor	1	555	723	141428	13.322	11.887	13.564
ProbeTrack13	16	ProbeTrack	13.2	SCS215a	20111109.101259	20111109.101451	8	0.013328	60	10	60-180	60	118	GapExp	BigFlash	0	17	2	45	1	target	1	510	745	142173	13.328	12.292	14.351
ProbeTrack13	16	ProbeTrack	13.2	SCS215a	20111109.101259	20111109.101457	8	0.013328	60	10	60-180	60	118	GapExp	BigFlash	0	18	2	1	0	distractor	1	699	651	142824	13.328	8.721	17.932
ProbeTrack13	16	ProbeTrack	13.2	SCS215a	20111109.101259	20111109.101503	8	0.013328	60	10	60-180	60	99	GapExp	BigFlash	0	19	2	45	0	distractor	1	642	679	143503	13.328	8.091	18.565
ProbeTrack13	16	ProbeTrack	13.2	SCS215a	20111109.101259	20111109.101511	8	0.013328	60	10	60-180	60	153	GapExp	BigFlash	0	20	2	45	1	target	1	514	743	144246	13.328	7.334	19.308
ProbeTrack13	16	ProbeTrack	13.2	SCS215a	20111109.101259	20111109.101523	8	0.013328	60	10	60-180	60	156	GapExp	BigFlash	0	21	2	45	1	target	1	528	736	144982	13.313	8.431	18.169
ProbeTrack13	16	ProbeTrack	13.2	SCS215a	20111109.101259	20111109.101530	8	0.013328	60	10	60-180	60	113	GapExp	BigFlash	0	22	2	0	0	distractor	1	890	555	145537	13.328	13.307	13.347
ProbeTrack13	16	ProbeTrack	13.2	SCS215a	20111109.101259	20111109.101536	8	0.013328	60	10	60-180	60	141	GapExp	BigFlash	0	23	2	0	0	distractor	1	637	682	146219	13.328	10.946	15.712
ProbeTrack13	16	ProbeTrack	13.2	SCS215a	20111109.101259	20111109.101543	8	0.013328	60	10	60-180	60	165	GapExp	BigFlash	0	24	2	45	1	target	1	472	764	146983	13.328	10.209	16.440
ProbeTrack13	16	ProbeTrack	13.2	SCS215a	20111109.101259	20111109.101550	8	0.013328	60	10	60-180	60	88	GapExp	BigFlash	0	25	2	1	1	target	1	610	695	147678	13.328	9.357	17.308
ProbeTrack13	16	ProbeTrack	13.2	SCS215a	20111109.101259	20111109.101557	8	0.013328	60	10	60-180	60	162	GapExp	BigFlash	0	26	2	0	1	target	1	442	779	148457	13.328	11.840	14.812
ProbeTrack13	16	ProbeTrack	13.2	SCS215a	20111109.101259	20111109.101604	8	0.013328	60	10	60-180	60	94	GapExp	BigFlash	0	27	2	45	0	target	0	789	-1000	147457	13.328	5.313	21.342
ProbeTrack13	16	ProbeTrack	13.2	SCS215a	20111109.101259	20111109.101611	8	0.013328	60	10	60-180	60	145	GapExp	BigFlash	0	28	2	45	0	distractor	1	731	635	148092	13.328	10.009	16.632
ProbeTrack13	16	ProbeTrack	13.2	SCS215a	20111109.101259	20111109.101618	8	0.013328	60	10	60-180	60	179	GapExp	BigFlash	0	29	2	0	1	target	1	464	768	148860	13.328	10.937	15.733
ProbeTrack13	16	ProbeTrack	13.2	SCS215a	20111109.101259	20111109.101625	8	0.013328	60	10	60-180	60	152	GapExp	BigFlash	0	30	2	1	0	distractor	1	593	704	149564	13.328	11.649	15.000
ProbeTrack13	16	ProbeTrack	13.2	SCS215a	20111109.101259	20111109.101633	8	0.013328	60	10	60-180	60	179	GapExp	BigFlash	0	31	2	45	0	distractor	1	590	705	150269	13.328	8.360	18.309
ProbeTrack13	16	ProbeTrack	13.2	SCS215a	20111109.101259	20111109.101641	8	0.013328	60	10	60-180	60	157	GapExp	BigFlash	0	32	2	1	1	target	1	452	774	151043	13.328	5.081	21.576
ProbeTrack13	16	ProbeTrack	13.2	SCS215a	20111109.101259	20111109.101647	8	0.013328	60	10	60-180	60	75	GapExp	BigFlash	0	33	2	1	1	target	1	433	784	151827	13.328	8.864	17.800
ProbeTrack13	16	ProbeTrack	13.2	SCS215a	20111109.101259	20111109.101653	8	0.013328	60	10	60-180	60	169	GapExp	BigFlash	0	34	2	45	1	target	1	411	795	152622	13.328	11.218	15.425
ProbeTrack13	16	ProbeTrack	13.2	SCS215a	20111109.101259	20111109.101700	8	0.013328	60	10	60-180	60	102	GapExp	BigFlash	0	35	2	0	1	target	1	413	794	153416	13.328	11.513	15.149
ProbeTrack13	16	ProbeTrack	13.2	SCS215a	20111109.101259	20111109.101707	8	0.013328	60	10	60-180	60	83	GapExp	BigFlash	0	36	2	1	0	distractor	1	588	706	154122	13.328	5.878	20.780
ProbeTrack13	16	ProbeTrack	13.2	SCS215a	20111109.101259	20111109.101713	8	0.013328	60	10	60-180	60	91	GapExp	BigFlash	0	37	2	1	1	target	1	325	838	154960	13.328	13.310	13.347
ProbeTrack13	16	ProbeTrack	13.2	SCS215a	20111109.101259	20111109.101718	8	0.013328	60	10	60-180	60	96	GapExp	BigFlash	0	38	2	0	1	target	1	421	790	155750	13.328	12.674	13.995
ProbeTrack13	16	ProbeTrack	13.2	SCS215a	20111109.101259	20111109.101724	8	0.013328	60	10	60-180	60	104	GapExp	BigFlash	0	39	2	3	1	target	1	432	784	156534	13.328	13.091	13.550
ProbeTrack13	16	ProbeTrack	13.2	SCS215a	20111109.101259	20111109.101730	8	0.013328	60	10	60-180	60	122	GapExp	BigFlash	0	40	2	45	1	target	1	451	775	157309	13.316	9.990	14.710
ProbeTrack13	16	ProbeTrack	13.2	SCS215a	20111109.101259	20111109.101737	8	0.013328	60	10	60-180	60	171	GapExp	BigFlash	0	41	2	0	0	distractor	1	636	682	157991	13.328	8.209	18.435
ProbeTrack13	16	ProbeTrack	13.2	SCS215a	20111109.101259	20111109.101744	8	0.013328	60	10	60-180	60	94	GapExp	BigFlash	0	42	2	45	0	distractor	1	581	710	158701	13.328	13.302	13.347
ProbeTrack13	16	ProbeTrack	13.2	SCS215a	20111109.101259	20111109.101750	8	0.013328	60	10	60-180	60	147	GapExp	BigFlash	0	43	2	1	0	target	0	532	-1000	157701	13.328	4.894	21.761
ProbeTrack13	16	ProbeTrack	13.2	SCS215a	20111109.101259	20111109.101757	8	0.013328	60	10	60-180	60	112	GapExp	BigFlash	0	44	2	3	1	target	1	405	798	158499	13.328	13.308	13.347
ProbeTrack13	16	ProbeTrack	13.2	SCS215a	20111109.101259	20111109.101803	8	0.013328	60	10	60-180	60	135	GapExp	BigFlash	0	45	2	0	0	target	0	477	-1000	157499	13.338	6.132	20.510
ProbeTrack13	16	ProbeTrack	13.2	SCS215a	20111109.101259	20111109.101810	8	0.013328	60	10	60-180	60	180	GapExp	BigFlash	0	46	2	0	0	distractor	1	607	697	158196	13.328	8.548	18.106
ProbeTrack13	16	ProbeTrack	13.2	SCS215a	20111109.101259	20111109.101817	8	0.013328	60	10	60-180	60	176	GapExp	BigFlash	0	47	2	1	0	distractor	1	629	686	158882	13.328	5.379	21.269
ProbeTrack13	16	ProbeTrack	13.2	SCS215a	20111109.101259	20111109.101824	8	0.013328	60	10	60-180	60	104	GapExp	BigFlash	0	48	2	1	1	target	1	541	730	159612	13.328	9.127	17.543
ProbeTrack13	16	ProbeTrack	13.2	SCS215a	20111109.101259	20111109.101830	8	0.013328	60	10	60-180	60	109	GapExp	BigFlash	0	49	2	3	1	target	1	467	767	160379	13.328	6.967	19.697
ProbeTrack13	16	ProbeTrack	13.2	SCS215a	20111109.101259	20111109.101837	8	0.013328	60	10	60-180	60	135	GapExp	BigFlash	0	50	2	3	0	distractor	1	575	713	161092	13.328	9.120	17.538
ProbeTrack13	16	ProbeTrack	13.2	SCS215a	20111109.101259	20111109.101844	8	0.013328	60	10	60-180	60	86	GapExp	BigFlash	0	51	2	45	1	target	1	497	752	161844	13.328	8.994	17.648
ProbeTrack13	16	ProbeTrack	13.2	SCS215a	20111109.101259	20111109.101850	8	0.013328	60	10	60-180	60	70	GapExp	BigFlash	0	52	2	1	1	target	1	455	773	162617	13.397	13.276	20.131
ProbeTrack13	16	ProbeTrack	13.2	SCS215a	20111109.101259	20111109.101855	8	0.013328	60	10	60-180	60	160	GapExp	BigFlash	0	53	2	3	1	target	1	513	744	163361	13.328	12.830	13.973
ProbeTrack13	16	ProbeTrack	13.2	SCS215a	20111109.101259	20111109.101902	8	0.013328	60	10	60-180	60	157	GapExp	BigFlash	0	54	2	3	0	distractor	1	543	729	164090	13.374	12.129	23.281
ProbeTrack13	16	ProbeTrack	13.2	SCS215a	20111109.101259	20111109.101909	8	0.013328	60	10	60-180	60	102	GapExp	BigFlash	0	55	2	0	0	distractor	1	653	674	164764	13.328	10.465	16.192
ProbeTrack13	16	ProbeTrack	13.2	SCS215a	20111109.101259	20111109.101915	8	0.013328	60	10	60-180	60	96	GapExp	BigFlash	0	56	2	0	0	distractor	1	520	740	165504	13.328	10.030	16.628
ProbeTrack13	16	ProbeTrack	13.2	SCS215a	20111109.101259	20111109.101921	8	0.013328	60	10	60-180	60	99	GapExp	BigFlash	0	57	2	3	0	target	0	520	-1000	164504	13.328	7.824	13.346
ProbeTrack13	16	ProbeTrack	13.2	SCS215a	20111109.101259	20111109.101927	8	0.013328	60	10	60-180	60	105	GapExp	BigFlash	0	58	2	45	0	distractor	1	857	572	165076	13.328	13.302	13.346
ProbeTrack13	16	ProbeTrack	13.2	SCS215a	20111109.101259	20111109.101934	8	0.013328	60	10	60-180	60	155	GapExp	BigFlash	0	59	2	0	1	target	1	434	783	165859	13.328	7.804	18.846
ProbeTrack13	16	ProbeTrack	13.2	SCS215a	20111109.101259	20111109.101941	8	0.013328	60	10	60-180	60	123	GapExp	BigFlash	0	60	2	45	0	distractor	1	619	691	166550	13.372	4.819	26.535
ProbeTrack13	16	ProbeTrack	13.2	SCS215a	20111109.101259	20111109.101948	8	0.013328	60	10	60-180	60	138	GapExp	BigFlash	0	61	2	3	1	target	1	486	757	167307	13.378	7.802	22.512
ProbeTrack13	16	ProbeTrack	13.2	SCS215a	20111109.101259	20111109.101954	8	0.013328	60	10	60-180	60	132	GapExp	BigFlash	0	62	2	3	1	target	1	446	777	168084	13.328	13.307	13.351
ProbeTrack13	16	ProbeTrack	13.2	SCS215a	20111109.101259	20111109.102001	8	0.013328	60	10	60-180	60	74	GapExp	BigFlash	0	63	2	1	0	distractor	1	646	677	168761	13.328	13.310	13.344
ProbeTrack13	16	ProbeTrack	13.2	SCS215a	20111109.101259	20111109.102006	8	0.013328	60	10	60-180	60	117	GapExp	BigFlash	0	64	2	1	0	distractor	1	555	723	169484	13.328	13.093	13.548
ProbeTrack13	16	ProbeTrack	13.2	SCS215a	20111109.101259	20111109.102012	8	0.013328	60	10	60-180	60	146	GapExp	BigFlash	0	65	2	3	1	target	1	425	788	170272	13.328	6.807	19.829
ProbeTrack13	16	ProbeTrack	13.2	SCS215a	20111109.101259	20111109.102019	8	0.013328	60	10	60-180	60	87	GapExp	BigFlash	0	66	2	1	0	distractor	1	668	666	170938	13.387	13.099	21.661
ProbeTrack13	16	ProbeTrack	13.2	SCS215a	20111109.101259	20111109.102025	8	0.013328	60	10	60-180	60	70	GapExp	BigFlash	0	67	2	0	1	target	1	513	744	171682	13.328	13.312	13.343
ProbeTrack13	16	ProbeTrack	13.2	SCS215a	20111109.101259	20111109.102030	8	0.013328	60	10	60-180	60	95	GapExp	BigFlash	0	68	2	3	1	target	1	482	759	172441	13.328	13.265	13.413
ProbeTrack13	16	ProbeTrack	13.2	SCS215a	20111109.101259	20111109.102036	8	0.013328	60	10	60-180	60	169	GapExp	BigFlash	0	69	2	1	0	distractor	1	541	730	173171	13.328	13.090	13.643
ProbeTrack13	16	ProbeTrack	13.2	SCS215a	20111109.101259	20111109.102044	8	0.013328	60	10	60-180	60	110	GapExp	BigFlash	0	70	2	0	1	target	1	455	773	173944	13.385	13.304	26.334
ProbeTrack13	16	ProbeTrack	13.2	SCS215a	20111109.101259	20111109.102050	8	0.013328	60	10	60-180	60	123	GapExp	BigFlash	0	71	2	3	0	target	0	386	-1000	172944	13.383	13.297	26.409
ProbeTrack13	16	ProbeTrack	13.2	SCS215a	20111109.101259	20111109.102058	8	0.013328	60	10	60-180	60	159	GapExp	BigFlash	0	72	2	3	0	distractor	1	532	734	173678	13.328	13.283	13.357
ProbeTrack13	16	ProbeTrack	13.2	SCS215a	20111109.101259	20111109.102104	8	0.013328	60	10	60-180	60	83	GapExp	BigFlash	0	73	2	1	0	distractor	1	716	642	174320	13.328	13.307	13.344
ProbeTrack13	16	ProbeTrack	13.2	SCS215a	20111109.101259	20111109.102110	8	0.013328	60	10	60-180	60	78	GapExp	BigFlash	0	74	2	1	0	distractor	1	794	603	174923	13.328	13.297	13.354
ProbeTrack13	16	ProbeTrack	13.2	SCS215a	20111109.101259	20111109.102116	8	0.013328	60	10	60-180	60	146	GapExp	BigFlash	0	75	2	3	1	target	1	481	760	175683	13.328	12.092	14.570
ProbeTrack13	16	ProbeTrack	13.2	SCS215a	20111109.101259	20111109.102124	8	0.013328	60	10	60-180	60	150	GapExp	BigFlash	0	76	2	45	1	target	1	460	770	176453	13.370	13.120	23.388
ProbeTrack13	16	ProbeTrack	13.2	SCS215a	20111109.101259	20111109.102131	8	0.013328	60	10	60-180	60	151	GapExp	BigFlash	0	77	2	45	1	target	1	532	734	177187	13.328	11.245	15.412
ProbeTrack13	16	ProbeTrack	13.2	SCS215a	20111109.101259	20111109.102138	8	0.013328	60	10	60-180	60	127	GapExp	BigFlash	0	78	2	45	1	target	1	418	791	177978	13.328	13.280	13.377
ProbeTrack13	16	ProbeTrack	13.2	SCS215a	20111109.101259	20111109.102145	8	0.013328	60	10	60-180	60	64	GapExp	BigFlash	0	79	2	45	0	distractor	1	656	672	178650	13.328	11.949	14.700
ProbeTrack13	16	ProbeTrack	13.2	SCS215a	20111109.101259	20111109.102151	8	0.013328	60	10	60-180	60	120	GapExp	BigFlash	0	80	2	1	1	target	1	407	797	179447	13.328	11.828	14.835
ProbeTrack13	16	ProbeTrack	13.2	SCS215a	20111109.101259	20111109.102158	8	0.013328	60	10	60-180	60	171	GapExp	BigFlash	0	81	2	1	0	distractor	1	567	717	180164	13.328	13.093	13.544
ProbeTrack13	16	ProbeTrack	13.2	SCS215a	20111109.101259	20111109.102205	8	0.013328	60	10	60-180	60	85	GapExp	BigFlash	0	82	2	3	0	distractor	1	540	730	180894	13.390	12.313	23.577
ProbeTrack13	16	ProbeTrack	13.2	SCS215a	20111109.101259	20111109.102212	8	0.013328	60	10	60-180	60	63	GapExp	BigFlash	0	83	2	1	1	distractor	0	632	-1000	179894	13.328	13.103	13.554
ProbeTrack13	16	ProbeTrack	13.2	SCS215a	20111109.101259	20111109.102218	8	0.013328	60	10	60-180	60	89	GapExp	BigFlash	0	84	2	0	0	distractor	1	873	564	180458	13.328	7.805	18.837
ProbeTrack13	16	ProbeTrack	13.2	SCS215a	20111109.101259	20111109.102227	8	0.013328	60	10	60-180	60	167	GapExp	BigFlash	0	85	2	0	1	target	1	556	722	181180	13.373	12.593	25.144
ProbeTrack13	16	ProbeTrack	13.2	SCS215a	20111109.101259	20111109.102234	8	0.013328	60	10	60-180	60	63	GapExp	BigFlash	0	86	2	0	0	distractor	1	672	664	181844	13.394	13.168	26.477
ProbeTrack13	16	ProbeTrack	13.2	SCS215a	20111109.101259	20111109.102240	8	0.013328	60	10	60-180	60	63	GapExp	BigFlash	0	87	2	45	1	target	1	638	681	182525	13.438	13.307	26.875
ProbeTrack13	16	ProbeTrack	13.2	SCS215a	20111109.101259	20111109.102251	8	0.013328	60	10	60-180	60	145	GapExp	BigFlash	0	88	2	45	1	target	1	468	766	183291	13.328	12.560	14.104
ProbeTrack13	16	ProbeTrack	13.2	SCS215a	20111109.101259	20111109.102258	8	0.013328	60	10	60-180	60	119	GapExp	BigFlash	0	89	2	3	0	distractor	1	624	688	183979	13.328	13.300	13.358
ProbeTrack13	16	ProbeTrack	13.2	SCS215a	20111109.101259	20111109.102305	8	0.013328	60	10	60-180	60	81	GapExp	BigFlash	0	90	2	0	1	target	1	490	755	184734	13.328	11.745	14.890
ProbeTrack13	16	ProbeTrack	13.2	SCS215a	20111109.101259	20111109.102310	8	0.013328	60	10	60-180	60	170	GapExp	BigFlash	0	91	2	3	1	target	1	450	775	185509	13.419	11.082	31.829
ProbeTrack13	16	ProbeTrack	13.2	SCS215a	20111109.101259	20111109.102317	8	0.013328	60	10	60-180	60	75	GapExp	BigFlash	0	92	2	3	0	distractor	1	718	641	186150	13.328	8.857	17.794
ProbeTrack13	16	ProbeTrack	13.2	SCS215a	20111109.101259	20111109.102323	8	0.013328	60	10	60-180	60	136	GapExp	BigFlash	0	93	2	3	0	distractor	1	652	674	186824	13.328	6.937	19.719
ProbeTrack13	16	ProbeTrack	13.2	SCS215a	20111109.101259	20111109.102329	8	0.013328	60	10	60-180	60	66	GapExp	BigFlash	0	94	2	45	0	distractor	1	612	694	187518	13.328	12.246	14.397
ProbeTrack13	16	ProbeTrack	13.2	SCS215a	20111109.101259	20111109.102336	8	0.013328	60	10	60-180	60	136	GapExp	BigFlash	0	95	2	1	1	target	1	453	774	188292	13.328	6.781	19.883
ProbeTrack13	16	ProbeTrack	13.2	SCS215a	20111109.101259	20111109.102342	8	0.013328	60	10	60-180	60	68	GapExp	BigFlash	0	96	2	0	0	distractor	1	623	689	188981	13.328	13.091	13.565
ProbeTrack13	16	ProbeTrack	13.2	SCS215a	20111109.101259	20111109.102347	8	0.013328	60	10	60-180	60	180	GapExp	BigFlash	0	97	2	3	0	distractor	1	587	707	189688	13.328	12.503	14.136
ProbeTrack13	16	ProbeTrack	13.2	SCS215a	20111109.101259	20111109.102354	8	0.013328	60	10	60-180	60	115	GapExp	BigFlash	0	98	2	0	1	target	1	662	669	190357	13.328	9.009	17.640
ProbeTrack13	16	ProbeTrack	13.2	SCS215a	20111109.101259	20111109.102400	8	0.013328	60	10	60-180	60	79	GapExp	BigFlash	0	99	2	45	0	distractor	1	594	703	191060	13.328	13.308	13.348
ProbeTrack13	16	ProbeTrack	13.2	SCS215a	20111109.101259	20111109.102407	8	0.013328	60	10	60-180	60	158	GapExp	BigFlash	0	100	2	3	0	distractor	1	590	705	191765	13.373	13.044	20.863
ProbeTrack13	16	ProbeTrack	13.2	SCS215a	20111109.101259	20111109.102414	8	0.013328	60	10	60-180	60	102	GapExp	BigFlash	0	101	2	45	0	distractor	1	599	701	192466	13.328	13.304	13.351
ProbeTrack13	16	ProbeTrack	13.2	SCS215a	20111109.101259	20111109.102421	8	0.013328	60	10	60-180	60	96	GapExp	BigFlash	0	102	2	1	1	distractor	0	547	-1000	191466	13.447	4.797	25.330
ProbeTrack13	16	ProbeTrack	13.2	SCS215a	20111109.101259	20111109.102427	8	0.013328	60	10	60-180	60	171	GapExp	BigFlash	0	103	2	3	0	distractor	1	693	654	192120	13.328	10.189	16.479
ProbeTrack13	16	ProbeTrack	13.2	SCS215a	20111109.101259	20111109.102435	8	0.013328	60	10	60-180	60	114	GapExp	BigFlash	0	104	2	45	0	distractor	1	676	662	192782	13.328	13.277	13.373
ProbeTrack13	16	ProbeTrack	13.2	SCS215a	20111109.101259	20111109.102443	8	0.013328	60	10	60-180	60	149	GapExp	BigFlash	0	105	2	45	1	target	1	459	771	193553	13.328	5.939	20.716
ProbeTrack13	16	ProbeTrack	13.2	SCS215a	20111109.101259	20111109.102450	8	0.013328	60	10	60-180	60	148	GapExp	BigFlash	0	106	2	0	1	target	1	371	815	194368	13.328	13.092	13.571
ProbeTrack13	16	ProbeTrack	13.2	SCS215a	20111109.101259	20111109.102457	8	0.013328	60	10	60-180	60	163	GapExp	BigFlash	0	107	2	45	1	target	1	389	806	195174	13.328	5.823	20.814
ProbeTrack13	16	ProbeTrack	13.2	SCS215a	20111109.101259	20111109.102504	8	0.013328	60	10	60-180	60	93	GapExp	BigFlash	0	108	2	0	0	target	0	373	-1000	194174	13.328	13.032	13.637
ProbeTrack13	16	ProbeTrack	13.2	SCS215a	20111109.101259	20111109.102509	8	0.013328	60	10	60-180	60	67	GapExp	BigFlash	0	109	2	1	1	target	1	484	758	194932	13.328	10.592	16.064
ProbeTrack13	16	ProbeTrack	13.2	SCS215a	20111109.101259	20111109.102515	8	0.013328	60	10	60-180	60	169	GapExp	BigFlash	0	110	2	1	1	target	1	535	733	195665	13.418	10.088	37.715
ProbeTrack13	16	ProbeTrack	13.2	SCS215a	20111109.101259	20111109.102522	8	0.013328	60	10	60-180	60	84	GapExp	BigFlash	0	111	2	0	1	target	1	474	763	196428	13.328	12.323	14.471
ProbeTrack13	16	ProbeTrack	13.2	SCS215a	20111109.101259	20111109.102528	8	0.013328	60	10	60-180	60	101	GapExp	BigFlash	0	112	2	3	1	target	1	567	717	197145	13.385	13.097	23.168
ProbeTrack13	16	ProbeTrack	13.2	SCS215a	20111109.101259	20111109.102534	8	0.013328	60	10	60-180	60	177	GapExp	BigFlash	0	113	2	1	0	distractor	1	647	677	197822	13.328	3.414	23.245
ProbeTrack13	16	ProbeTrack	13.2	SCS215a	20111109.101259	20111109.102541	8	0.013328	60	10	60-180	60	89	GapExp	BigFlash	0	114	2	1	1	distractor	0	838	-1000	196822	13.385	7.203	22.452
ProbeTrack13	16	ProbeTrack	13.2	SCS215a	20111109.101259	20111109.102547	8	0.013328	60	10	60-180	60	68	GapExp	BigFlash	0	115	2	0	1	target	1	480	760	197582	13.328	5.647	23.143
ProbeTrack13	16	ProbeTrack	13.2	SCS215a	20111109.101259	20111109.102555	8	0.013328	60	10	60-180	60	132	GapExp	BigFlash	0	116	2	1	0	target	0	611	-1000	196582	13.328	10.399	16.251
ProbeTrack13	16	ProbeTrack	13.2	SCS215a	20111109.101259	20111109.102603	8	0.013328	60	10	60-180	60	168	GapExp	BigFlash	0	117	2	0	0	distractor	1	944	528	197110	13.328	13.098	13.563
ProbeTrack13	16	ProbeTrack	13.2	SCS215a	20111109.101259	20111109.102611	8	0.013328	60	10	60-180	60	134	GapExp	BigFlash	0	118	2	1	1	target	1	478	761	197871	13.328	13.057	13.582
ProbeTrack13	16	ProbeTrack	13.2	SCS215a	20111109.101259	20111109.102618	8	0.013328	60	10	60-180	60	64	GapExp	BigFlash	0	119	2	3	1	target	1	450	775	198646	13.328	13.249	13.394
ProbeTrack13	16	ProbeTrack	13.2	SCS215a	20111109.101259	20111109.102624	8	0.013328	60	10	60-180	60	138	GapExp	BigFlash	0	120	2	45	0	distractor	1	675	663	199309	13.328	13.085	13.558
ProbeTrack13	16	ProbeTrack	13.2	SCS215a	20111109.101259	20111109.102631	8	0.013328	60	10	60-180	60	77	GapExp	BigFlash	0	121	2	3	1	target	1	471	765	200074	13.328	13.091	13.550
ProbeTrack13	16	ProbeTrack	13.2	SCS215a	20111109.101259	20111109.102636	8	0.013328	60	10	60-180	60	155	GapExp	BigFlash	0	122	2	1	1	target	1	446	777	200851	13.328	4.629	22.040
ProbeTrack13	16	ProbeTrack	13.2	SCS215a	20111109.101259	20111109.102643	8	0.013328	60	10	60-180	60	164	GapExp	BigFlash	0	123	2	3	0	distractor	1	653	674	201525	13.328	12.522	14.146
ProbeTrack13	16	ProbeTrack	13.2	SCS215a	20111109.101259	20111109.102651	8	0.013328	60	10	60-180	60	72	GapExp	BigFlash	0	124	2	0	0	distractor	1	812	594	202119	13.328	13.105	13.549
ProbeTrack13	16	ProbeTrack	13.2	SCS215a	20111109.101259	20111109.102656	8	0.013328	60	10	60-180	60	154	GapExp	BigFlash	0	125	2	45	0	distractor	1	633	684	202803	13.328	12.200	14.464
ProbeTrack13	16	ProbeTrack	13.2	SCS215a	20111109.101259	20111109.102704	8	0.013328	60	10	60-180	60	108	GapExp	BigFlash	0	126	2	3	1	target	1	455	773	203576	13.328	10.848	15.807
ProbeTrack13	16	ProbeTrack	13.2	SCS215a	20111109.101259	20111109.102710	8	0.013328	60	10	60-180	60	152	GapExp	BigFlash	0	127	2	3	0	distractor	1	583	709	204285	13.328	12.308	14.350
ProbeTrack13	16	ProbeTrack	13.2	SCS215a	20111109.101259	20111109.102716	8	0.013328	60	10	60-180	60	120	GapExp	BigFlash	0	128	2	1	0	distractor	1	703	649	204934	13.328	13.297	13.355
ProbeTrack13	16	ProbeTrack	13.2	SCS215a	20111109.101259	20111109.102723	8	0.013328	60	10	60-180	60	165	GapExp	BigFlash	0	129	2	1	1	target	1	381	810	205744	13.328	11.278	15.383
ProbeTrack13	16	ProbeTrack	13.2	SCS215a	20111109.101259	20111109.102730	8	0.013328	60	10	60-180	60	155	GapExp	BigFlash	0	130	2	1	1	target	1	396	802	206546	13.328	13.309	13.344
ProbeTrack13	16	ProbeTrack	13.2	SCS215a	20111109.101259	20111109.102736	8	0.013328	60	10	60-180	60	92	GapExp	BigFlash	0	131	2	1	1	target	1	458	771	207317	13.328	13.287	13.355
ProbeTrack13	16	ProbeTrack	13.2	SCS215a	20111109.101259	20111109.102742	8	0.013328	60	10	60-180	60	61	GapExp	BigFlash	0	132	2	3	0	distractor	1	809	596	207913	13.328	13.141	13.510
ProbeTrack13	16	ProbeTrack	13.2	SCS215a	20111109.101259	20111109.102747	8	0.013328	60	10	60-180	60	122	GapExp	BigFlash	0	133	2	3	1	target	1	337	832	208745	13.328	4.866	21.776
ProbeTrack13	16	ProbeTrack	13.2	SCS215a	20111109.101259	20111109.102754	8	0.013328	60	10	60-180	60	130	GapExp	BigFlash	0	134	2	0	0	distractor	1	553	724	209469	13.328	13.099	13.556
ProbeTrack13	16	ProbeTrack	13.2	SCS215a	20111109.101259	20111109.102800	8	0.013328	60	10	60-180	60	82	GapExp	BigFlash	0	135	2	1	0	distractor	1	586	707	210176	13.319	11.520	13.770
ProbeTrack13	16	ProbeTrack	13.2	SCS215a	20111109.101259	20111109.102806	8	0.013328	60	10	60-180	60	164	GapExp	BigFlash	0	136	2	45	1	target	1	409	796	210972	13.369	13.093	21.696
ProbeTrack13	16	ProbeTrack	13.2	SCS215a	20111109.101259	20111109.102813	8	0.013328	60	10	60-180	60	84	GapExp	BigFlash	0	137	2	3	1	target	1	463	769	211741	13.328	13.305	13.346
ProbeTrack13	16	ProbeTrack	13.2	SCS215a	20111109.101259	20111109.102819	8	0.013328	60	10	60-180	60	82	GapExp	BigFlash	0	138	2	0	1	target	1	536	732	212473	13.328	11.312	16.030
ProbeTrack13	16	ProbeTrack	13.2	SCS215a	20111109.101259	20111109.102825	8	0.013328	60	10	60-180	60	97	GapExp	BigFlash	0	139	2	3	0	distractor	1	559	721	213194	13.386	13.072	24.742
ProbeTrack13	16	ProbeTrack	13.2	SCS215a	20111109.101259	20111109.102831	8	0.013328	60	10	60-180	60	153	GapExp	BigFlash	0	140	2	0	0	distractor	1	556	722	213916	13.375	13.051	24.740
ProbeTrack13	16	ProbeTrack	13.2	SCS215a	20111109.101259	20111109.102837	8	0.013328	60	10	60-180	60	155	GapExp	BigFlash	0	141	2	1	0	target	0	562	-1000	212916	13.375	10.657	26.448
ProbeTrack13	16	ProbeTrack	13.2	SCS215a	20111109.101259	20111109.102844	8	0.013328	60	10	60-180	60	142	GapExp	BigFlash	0	142	2	1	0	distractor	1	659	671	213587	13.375	13.041	25.286
ProbeTrack13	16	ProbeTrack	13.2	SCS215a	20111109.101259	20111109.102851	8	0.013328	60	10	60-180	60	176	GapExp	BigFlash	0	143	2	45	1	target	1	489	756	214343	13.328	13.097	13.559
ProbeTrack13	16	ProbeTrack	13.2	SCS215a	20111109.101259	20111109.102859	8	0.013328	60	10	60-180	60	110	GapExp	BigFlash	0	144	2	45	1	target	1	690	655	214998	13.328	13.307	13.348
ProbeTrack13	16	ProbeTrack	13.2	SCS215a	20111109.101259	20111109.102906	8	0.013328	60	10	60-180	60	177	GapExp	BigFlash	0	145	2	45	1	target	1	496	752	215750	13.328	13.309	13.349
ProbeTrack13	16	ProbeTrack	13.2	SCS215a	20111109.101259	20111109.102914	8	0.013328	60	10	60-180	60	115	GapExp	BigFlash	0	146	2	45	0	distractor	1	612	694	216444	13.328	13.307	13.344
ProbeTrack13	16	ProbeTrack	13.2	SCS215a	20111109.101259	20111109.102921	8	0.013328	60	10	60-180	60	175	GapExp	BigFlash	0	147	2	45	0	distractor	1	557	722	217166	13.328	13.308	13.344
ProbeTrack13	16	ProbeTrack	13.2	SCS215a	20111109.101259	20111109.102929	8	0.013328	60	10	60-180	60	179	GapExp	BigFlash	0	148	2	3	0	distractor	1	533	734	217900	13.328	13.308	13.347
ProbeTrack13	16	ProbeTrack	13.2	SCS215a	20111109.101259	20111109.102936	8	0.013328	60	10	60-180	60	157	GapExp	BigFlash	0	149	2	0	1	early	-4	-3887	-1000	216900	13.328	13.174	13.497
ProbeTrack13	16	ProbeTrack	13.2	SCS215a	20111109.101259	20111109.102943	8	0.013328	60	10	60-180	60	92	GapExp	BigFlash	0	150	2	3	0	distractor	1	616	692	217592	13.328	13.309	13.346
ProbeTrack13	16	ProbeTrack	13.2	SCS215a	20111109.101259	20111109.102950	8	0.013328	60	10	60-180	60	74	GapExp	BigFlash	0	151	2	0	0	distractor	1	673	664	218256	13.328	5.371	21.287
ProbeTrack13	16	ProbeTrack	13.2	SCS215a	20111109.101259	20111109.102956	8	0.013328	60	10	60-180	60	165	GapExp	BigFlash	0	152	2	0	0	distractor	1	692	654	218910	13.328	13.308	13.349
ProbeTrack13	16	ProbeTrack	13.2	SCS215a	20111109.101259	20111109.103004	8	0.013328	60	10	60-180	60	112	GapExp	BigFlash	0	153	2	3	1	target	1	309	846	219756	13.328	13.310	13.345
ProbeTrack13	16	ProbeTrack	13.2	SCS215a	20111109.101259	20111109.103010	8	0.013328	60	10	60-180	60	89	GapExp	BigFlash	0	154	2	1	1	target	1	509	746	220502	13.328	13.308	13.347
ProbeTrack13	16	ProbeTrack	13.2	SCS215a	20111109.101259	20111109.103016	8	0.013328	60	10	60-180	60	173	GapExp	BigFlash	0	155	2	1	1	target	1	424	788	221290	13.328	9.060	17.601
ProbeTrack13	16	ProbeTrack	13.2	SCS215a	20111109.101259	20111109.103024	8	0.013328	60	10	60-180	60	164	GapExp	BigFlash	0	156	2	45	0	distractor	1	820	590	221880	13.328	13.304	13.352
ProbeTrack13	16	ProbeTrack	13.2	SCS215a	20111109.101259	20111109.103032	8	0.013328	60	10	60-180	60	104	GapExp	BigFlash	0	157	2	0	1	target	1	437	782	222662	13.328	13.305	13.351
ProbeTrack13	16	ProbeTrack	13.2	SCS215a	20111109.101259	20111109.103037	8	0.013328	60	10	60-180	60	80	GapExp	BigFlash	0	158	2	45	1	target	1	357	822	223484	13.328	11.390	15.254
ProbeTrack13	16	ProbeTrack	13.2	SCS215a	20111109.101259	20111109.103044	8	0.013328	60	10	60-180	60	160	GapExp	BigFlash	0	159	2	45	0	distractor	1	647	677	224161	13.328	13.306	13.348
ProbeTrack13	16	ProbeTrack	13.2	SCS215a	20111109.101259	20111109.103051	8	0.013328	60	10	60-180	60	114	GapExp	BigFlash	0	160	2	45	0	distractor	1	548	726	224887	13.328	13.308	13.347
ProbeTrack13	16	ProbeTrack	13.2	SCS215a	20111109.101259	20111109.103058	8	0.013328	60	10	60-180	60	131	GapExp	BigFlash	0	161	2	3	0	distractor	1	507	747	225634	13.328	13.308	13.346
ProbeTrack13	16	ProbeTrack	13.2	SCS215a	20111109.101259	20111109.103104	8	0.013328	60	10	60-180	60	64	GapExp	BigFlash	0	162	2	1	0	distractor	1	527	737	226371	13.328	13.107	13.543
ProbeTrack13	16	ProbeTrack	13.2	SCS215a	20111109.101259	20111109.103109	8	0.013328	60	10	60-180	60	127	GapExp	BigFlash	0	163	2	0	1	target	1	648	676	227047	13.328	13.305	13.350
ProbeTrack13	16	ProbeTrack	13.2	SCS215a	20111109.101259	20111109.103116	8	0.013328	60	10	60-180	60	69	GapExp	BigFlash	0	164	2	45	0	distractor	1	570	715	227762	13.328	13.098	13.557
ProbeTrack13	16	ProbeTrack	13.2	SCS215a	20111109.101259	20111109.103122	8	0.013328	60	10	60-180	60	136	GapExp	BigFlash	0	165	2	0	1	target	1	369	816	228578	13.328	13.308	13.355
ProbeTrack13	16	ProbeTrack	13.2	SCS215a	20111109.101259	20111109.103128	8	0.013328	60	10	60-180	60	90	GapExp	BigFlash	0	166	2	45	0	distractor	1	622	689	229267	13.328	12.401	14.241
ProbeTrack13	16	ProbeTrack	13.2	SCS215a	20111109.101259	20111109.103135	8	0.013328	60	10	60-180	60	157	GapExp	BigFlash	0	167	2	3	0	distractor	1	598	701	229968	13.328	8.832	17.839
ProbeTrack13	16	ProbeTrack	13.2	SCS215a	20111109.101259	20111109.103141	8	0.013328	60	10	60-180	60	180	GapExp	BigFlash	0	168	2	45	1	target	1	502	749	230717	13.328	11.450	15.200
ProbeTrack13	16	ProbeTrack	13.2	SCS215a	20111109.101259	20111109.103149	8	0.013328	60	10	60-180	60	146	GapExp	BigFlash	0	169	2	0	0	distractor	1	521	740	231457	13.328	13.307	13.347
ProbeTrack13	16	ProbeTrack	13.2	SCS215a	20111109.101259	20111109.103156	8	0.013328	60	10	60-180	60	123	GapExp	BigFlash	0	170	2	1	0	distractor	1	612	694	232151	13.328	8.722	17.940
ProbeTrack13	16	ProbeTrack	13.2	SCS215a	20111109.101259	20111109.103202	8	0.013328	60	10	60-180	60	100	GapExp	BigFlash	0	171	2	1	1	target	1	664	668	232819	13.328	13.302	13.348
ProbeTrack13	16	ProbeTrack	13.2	SCS215a	20111109.101259	20111109.103208	8	0.013328	60	10	60-180	60	68	GapExp	BigFlash	0	172	2	0	0	target	0	786	-1000	231819	13.328	13.311	13.352
ProbeTrack13	16	ProbeTrack	13.2	SCS215a	20111109.101259	20111109.103214	8	0.013328	60	10	60-180	60	94	GapExp	BigFlash	0	173	2	45	0	distractor	1	541	730	232549	13.328	12.436	14.221
ProbeTrack13	16	ProbeTrack	13.2	SCS215a	20111109.101259	20111109.103221	8	0.013328	60	10	60-180	60	102	GapExp	BigFlash	0	174	2	45	1	target	1	463	769	233318	13.328	12.992	13.664
ProbeTrack13	16	ProbeTrack	13.2	SCS215a	20111109.101259	20111109.103227	8	0.013328	60	10	60-180	60	81	GapExp	BigFlash	0	175	2	0	1	target	1	495	753	234071	13.328	13.099	13.549
ProbeTrack13	16	ProbeTrack	13.2	SCS215a	20111109.101259	20111109.103233	8	0.013328	60	10	60-180	60	101	GapExp	BigFlash	0	176	2	0	1	target	1	452	774	234845	13.328	13.098	13.557
ProbeTrack13	16	ProbeTrack	13.2	SCS215a	20111109.101259	20111109.103239	8	0.013328	60	10	60-180	60	151	GapExp	BigFlash	0	177	2	3	1	target	1	438	781	235626	13.328	8.932	17.722
ProbeTrack13	16	ProbeTrack	13.2	SCS215a	20111109.101259	20111109.103245	8	0.013328	60	10	60-180	60	133	GapExp	BigFlash	0	178	2	45	1	target	1	506	747	236373	13.328	13.308	13.351
ProbeTrack13	16	ProbeTrack	13.2	SCS215a	20111109.101259	20111109.103253	8	0.013328	60	10	60-180	60	97	GapExp	BigFlash	0	179	2	1	0	distractor	1	630	685	237058	13.328	13.309	13.347
ProbeTrack13	16	ProbeTrack	13.2	SCS215a	20111109.101259	20111109.103259	8	0.013328	60	10	60-180	60	98	GapExp	BigFlash	0	180	2	1	1	target	1	461	770	237828	13.328	13.306	13.346
ProbeTrack13	16	ProbeTrack	13.2	SCS215a	20111109.101259	20111109.103304	8	0.013328	60	10	60-180	60	92	GapExp	BigFlash	0	181	2	45	0	target	0	820	-1000	236828	13.328	9.223	17.425
ProbeTrack13	16	ProbeTrack	13.2	SCS215a	20111109.101259	20111109.103311	8	0.013328	60	10	60-180	60	170	GapExp	BigFlash	0	182	2	0	0	distractor	1	706	647	237475	13.328	13.307	13.350
ProbeTrack13	16	ProbeTrack	13.2	SCS215a	20111109.101259	20111109.103319	8	0.013328	60	10	60-180	60	109	GapExp	BigFlash	0	183	2	3	1	target	1	469	766	238241	13.328	10.254	19.132
ProbeTrack13	16	ProbeTrack	13.2	SCS215a	20111109.101259	20111109.103325	8	0.013328	60	10	60-180	60	88	GapExp	BigFlash	0	184	2	3	1	target	1	478	761	239002	13.328	13.306	13.349
ProbeTrack13	16	ProbeTrack	13.2	SCS215a	20111109.101259	20111109.103331	8	0.013328	60	10	60-180	60	114	GapExp	BigFlash	0	185	2	3	1	target	1	425	788	239790	13.328	13.105	13.562
ProbeTrack13	16	ProbeTrack	13.2	SCS215a	20111109.101259	20111109.103337	8	0.013328	60	10	60-180	60	135	GapExp	BigFlash	0	186	2	0	1	target	1	416	792	240582	13.328	8.547	18.121
ProbeTrack13	16	ProbeTrack	13.2	SCS215a	20111109.101259	20111109.103343	8	0.013328	60	10	60-180	60	136	GapExp	BigFlash	0	187	2	3	0	distractor	1	607	697	241279	13.328	4.429	22.228
ProbeTrack13	16	ProbeTrack	13.2	SCS215a	20111109.101259	20111109.103350	8	0.013328	60	10	60-180	60	141	GapExp	BigFlash	0	188	2	0	0	distractor	1	787	607	241886	13.324	3.903	22.754
ProbeTrack13	16	ProbeTrack	13.2	SCS215a	20111109.101259	20111109.103357	8	0.013328	60	10	60-180	60	161	GapExp	BigFlash	0	189	2	1	1	target	1	448	776	242662	13.328	7.257	19.409
ProbeTrack13	16	ProbeTrack	13.2	SCS215a	20111109.101259	20111109.103404	8	0.013328	60	10	60-180	60	96	GapExp	BigFlash	0	190	2	1	0	distractor	1	822	589	243251	13.328	13.098	13.544
ProbeTrack13	16	ProbeTrack	13.2	SCS215a	20111109.101259	20111109.103410	8	0.013328	60	10	60-180	60	126	GapExp	BigFlash	0	191	2	45	1	target	1	538	731	243982	13.328	13.091	13.556
ProbeTrack13	16	ProbeTrack	13.2	SCS215a	20111109.101259	20111109.103417	8	0.013328	60	10	60-180	60	76	GapExp	BigFlash	0	192	2	45	1	target	1	637	682	244664	13.328	13.308	13.355
ProbeTrack13	16	ProbeTrack	13.2	SCS215a	20111109.101259	20111109.103423	8	0.013328	60	10	60-180	60	134	GapExp	BigFlash	0	193	2	0	0	distractor	1	580	710	245374	13.328	13.290	13.365
ProbeTrack13	16	ProbeTrack	13.2	SCS215a	20111109.101259	20111109.103430	8	0.013328	60	10	60-180	60	122	GapExp	BigFlash	0	194	2	0	1	target	1	435	783	246157	13.328	13.304	13.354
ProbeTrack13	16	ProbeTrack	13.2	SCS215a	20111109.101259	20111109.103436	8	0.013328	60	10	60-180	60	170	GapExp	BigFlash	0	195	2	3	0	distractor	1	565	718	246875	13.328	12.046	14.609
ProbeTrack13	16	ProbeTrack	13.2	SCS215a	20111109.101259	20111109.103443	8	0.013328	60	10	60-180	60	101	GapExp	BigFlash	0	196	2	0	1	target	1	395	803	247678	13.328	13.309	13.347
ProbeTrack13	16	ProbeTrack	13.2	SCS215a	20111109.101259	20111109.103449	8	0.013328	60	10	60-180	60	150	GapExp	BigFlash	0	197	2	3	0	distractor	1	554	723	248401	13.328	12.847	13.823
ProbeTrack13	16	ProbeTrack	13.2	SCS215a	20111109.101259	20111109.103457	8	0.013328	60	10	60-180	60	136	GapExp	BigFlash	0	198	2	3	1	target	1	447	777	249178	13.328	8.347	18.314
ProbeTrack13	16	ProbeTrack	13.2	SCS215a	20111109.101259	20111109.103503	8	0.013328	60	10	60-180	60	107	GapExp	BigFlash	0	199	2	0	1	target	1	407	797	249975	13.328	13.307	13.346
ProbeTrack13	16	ProbeTrack	13.2	SCS215a	20111109.101259	20111109.103509	8	0.013328	60	10	60-180	60	130	GapExp	BigFlash	0	200	2	45	0	distractor	1	652	674	250649	13.348	10.486	19.755
ProbeTrack13	16	ProbeTrack	13.2	SCS215a	20111109.103550	20111109.103556	8	0.013323	60	10	60-180	60	77	GapPrac	SmallFlash	1	1	2	3	0	distractor	1	662	669	251318	13.389	13.306	13.347
ProbeTrack13	16	ProbeTrack	13.2	SCS215a	20111109.103550	20111109.103603	8	0.013323	60	10	60-180	60	144	GapPrac	SmallFlash	1	2	2	45	0	distractor	1	524	738	252056	13.328	13.102	13.555
ProbeTrack13	16	ProbeTrack	13.2	SCS215a	20111109.103550	20111109.103610	8	0.013323	60	10	60-180	60	137	GapPrac	SmallFlash	1	3	2	0	0	distractor	1	602	699	252755	13.328	13.307	13.346
ProbeTrack13	16	ProbeTrack	13.2	SCS215a	20111109.103550	20111109.103616	8	0.013323	60	10	60-180	60	158	GapPrac	SmallFlash	1	4	2	0	1	target	1	501	750	253505	13.328	13.308	13.353
ProbeTrack13	16	ProbeTrack	13.2	SCS215a	20111109.103550	20111109.103623	8	0.013323	60	10	60-180	60	157	GapPrac	SmallFlash	1	5	2	45	0	distractor	1	609	696	254201	13.328	13.287	13.379
ProbeTrack13	16	ProbeTrack	13.2	SCS215a	20111109.103550	20111109.103630	8	0.013323	60	10	60-180	60	146	GapPrac	SmallFlash	1	6	2	3	0	target	0	529	-1000	253201	13.328	8.338	18.304
ProbeTrack13	16	ProbeTrack	13.2	SCS215a	20111109.103550	20111109.103637	8	0.013323	60	10	60-180	60	67	GapPrac	SmallFlash	1	7	2	1	0	distractor	1	622	689	253890	13.328	13.068	13.587
ProbeTrack13	16	ProbeTrack	13.2	SCS215a	20111109.103550	20111109.103643	8	0.013323	60	10	60-180	60	76	GapPrac	SmallFlash	1	8	2	1	0	distractor	1	584	708	254598	13.328	13.306	13.350
ProbeTrack13	16	ProbeTrack	13.2	SCS215a	20111109.103550	20111109.103649	8	0.013323	60	10	60-180	60	72	GapPrac	SmallFlash	1	9	2	0	0	distractor	1	540	730	255328	13.328	4.602	22.058
ProbeTrack13	16	ProbeTrack	13.2	SCS215a	20111109.103550	20111109.103655	8	0.013323	60	10	60-180	60	122	GapPrac	SmallFlash	1	10	2	3	1	target	1	568	716	256044	13.328	12.886	13.768
ProbeTrack13	16	ProbeTrack	13.2	SCS215a	20111109.103550	20111109.103701	8	0.013323	60	10	60-180	60	154	GapPrac	SmallFlash	1	11	2	1	1	target	1	551	725	256769	13.328	12.039	14.625
ProbeTrack13	16	ProbeTrack	13.2	SCS215a	20111109.103550	20111109.103709	8	0.013323	60	10	60-180	60	129	GapPrac	SmallFlash	1	12	2	1	1	target	1	440	780	257549	13.328	13.097	13.552
ProbeTrack13	16	ProbeTrack	13.2	SCS215a	20111109.103550	20111109.103715	8	0.013323	60	10	60-180	60	162	GapPrac	SmallFlash	1	13	2	45	0	distractor	1	615	693	258242	13.328	13.090	13.568
ProbeTrack13	16	ProbeTrack	13.2	SCS215a	20111109.103550	20111109.103723	8	0.013323	60	10	60-180	60	151	GapPrac	SmallFlash	1	14	2	3	1	target	1	572	714	258956	13.328	13.106	13.544
ProbeTrack13	16	ProbeTrack	13.2	SCS215a	20111109.103550	20111109.103729	8	0.013323	60	10	60-180	60	61	GapPrac	SmallFlash	1	15	2	3	0	distractor	1	658	671	259627	13.328	13.106	13.550
ProbeTrack13	16	ProbeTrack	13.2	SCS215a	20111109.103550	20111109.103735	8	0.013323	60	10	60-180	60	111	GapPrac	SmallFlash	1	16	2	0	0	distractor	1	644	678	260305	13.328	10.326	16.329
ProbeTrack13	16	ProbeTrack	13.2	SCS215a	20111109.103550	20111109.103742	8	0.013323	60	10	60-180	60	64	GapPrac	SmallFlash	1	17	2	45	1	target	1	566	717	261022	13.441	13.309	33.464
ProbeTrack13	16	ProbeTrack	13.2	SCS215a	20111109.103550	20111109.103748	8	0.013323	60	10	60-180	60	119	GapPrac	SmallFlash	1	18	2	0	1	target	1	455	773	261795	13.328	13.296	13.349
ProbeTrack13	16	ProbeTrack	13.2	SCS215a	20111109.103550	20111109.103754	8	0.013323	60	10	60-180	60	137	GapPrac	SmallFlash	1	19	2	0	1	target	1	471	765	262560	13.328	13.175	13.467
ProbeTrack13	16	ProbeTrack	13.2	SCS215a	20111109.103550	20111109.103800	8	0.013323	60	10	60-180	60	126	GapPrac	SmallFlash	1	20	2	45	1	target	1	478	761	263321	13.328	10.841	15.816
ProbeTrack13	16	ProbeTrack	13.2	SCS215a	20111109.103847	20111109.103851	8	0.013328	60	10	60-180	60	175	GapExp	SmallFlash	1	1	2	45	1	target	1	461	770	264091	13.367	13.106	13.557
ProbeTrack13	16	ProbeTrack	13.2	SCS215a	20111109.103847	20111109.103900	8	0.013328	60	10	60-180	60	78	GapExp	SmallFlash	1	2	2	0	1	target	1	443	779	264870	13.328	13.312	13.343
ProbeTrack13	16	ProbeTrack	13.2	SCS215a	20111109.103847	20111109.103907	8	0.013328	60	10	60-180	60	82	GapExp	SmallFlash	1	3	2	1	1	target	1	435	783	265653	13.328	12.889	13.776
ProbeTrack13	16	ProbeTrack	13.2	SCS215a	20111109.103847	20111109.103913	8	0.013328	60	10	60-180	60	144	GapExp	SmallFlash	1	4	2	3	1	target	1	411	795	266448	13.328	13.309	13.349
ProbeTrack13	16	ProbeTrack	13.2	SCS215a	20111109.103847	20111109.103919	8	0.013328	60	10	60-180	60	139	GapExp	SmallFlash	1	5	2	1	0	distractor	1	677	662	267110	13.328	12.834	13.814
ProbeTrack13	16	ProbeTrack	13.2	SCS215a	20111109.103847	20111109.103926	8	0.013328	60	10	60-180	60	66	GapExp	SmallFlash	1	6	2	45	0	distractor	1	644	678	267788	13.328	13.304	13.348
ProbeTrack13	16	ProbeTrack	13.2	SCS215a	20111109.103847	20111109.103933	8	0.013328	60	10	60-180	60	150	GapExp	SmallFlash	1	7	2	3	0	distractor	1	624	688	268476	13.328	13.307	13.348
ProbeTrack13	16	ProbeTrack	13.2	SCS215a	20111109.103847	20111109.103939	8	0.013328	60	10	60-180	60	89	GapExp	SmallFlash	1	8	2	0	0	distractor	1	634	683	269159	13.328	12.883	13.780
ProbeTrack13	16	ProbeTrack	13.2	SCS215a	20111109.103847	20111109.103945	8	0.013328	60	10	60-180	60	86	GapExp	SmallFlash	0	9	2	1	0	distractor	1	610	695	269854	13.328	13.308	13.344
ProbeTrack13	16	ProbeTrack	13.2	SCS215a	20111109.103847	20111109.103951	8	0.013328	60	10	60-180	60	108	GapExp	SmallFlash	0	10	2	3	1	target	1	456	772	270626	13.328	13.085	13.565
ProbeTrack13	16	ProbeTrack	13.2	SCS215a	20111109.103847	20111109.103957	8	0.013328	60	10	60-180	60	99	GapExp	SmallFlash	0	11	2	45	1	target	1	523	739	271365	13.328	13.098	13.545
ProbeTrack13	16	ProbeTrack	13.2	SCS215a	20111109.103847	20111109.104004	8	0.013328	60	10	60-180	60	100	GapExp	SmallFlash	0	12	2	3	1	target	1	533	734	272099	13.328	12.881	13.787
ProbeTrack13	16	ProbeTrack	13.2	SCS215a	20111109.103847	20111109.104010	8	0.013328	60	10	60-180	60	124	GapExp	SmallFlash	0	13	2	45	1	distractor	0	535	-1000	271099	13.328	13.099	13.564
ProbeTrack13	16	ProbeTrack	13.2	SCS215a	20111109.103847	20111109.104017	8	0.013328	60	10	60-180	60	116	GapExp	SmallFlash	0	14	2	45	1	target	1	413	794	271893	13.328	12.895	13.753
ProbeTrack13	16	ProbeTrack	13.2	SCS215a	20111109.103847	20111109.104024	8	0.013328	60	10	60-180	60	177	GapExp	SmallFlash	0	15	2	1	0	distractor	1	541	730	272623	13.328	13.106	13.557
ProbeTrack13	16	ProbeTrack	13.2	SCS215a	20111109.103847	20111109.104031	8	0.013328	60	10	60-180	60	104	GapExp	SmallFlash	0	16	2	1	1	target	1	508	746	273369	13.328	12.916	13.723
ProbeTrack13	16	ProbeTrack	13.2	SCS215a	20111109.103847	20111109.104038	8	0.013328	60	10	60-180	60	127	GapExp	SmallFlash	0	17	2	0	1	target	1	444	778	274147	13.328	13.111	13.558
ProbeTrack13	16	ProbeTrack	13.2	SCS215a	20111109.103847	20111109.104044	8	0.013328	60	10	60-180	60	148	GapExp	SmallFlash	0	18	2	0	1	distractor	0	585	-1000	273147	13.328	12.954	13.728
ProbeTrack13	16	ProbeTrack	13.2	SCS215a	20111109.103847	20111109.104051	8	0.013328	60	10	60-180	60	110	GapExp	SmallFlash	0	19	2	3	0	distractor	1	721	640	273787	13.328	12.973	13.682
ProbeTrack13	16	ProbeTrack	13.2	SCS215a	20111109.103847	20111109.104057	8	0.013328	60	10	60-180	60	120	GapExp	SmallFlash	0	20	2	45	0	distractor	1	681	660	274447	13.328	12.878	13.767
ProbeTrack13	16	ProbeTrack	13.2	SCS215a	20111109.103847	20111109.104104	8	0.013328	60	10	60-180	60	154	GapExp	SmallFlash	0	21	2	45	0	distractor	1	699	651	275098	13.328	13.007	13.648
ProbeTrack13	16	ProbeTrack	13.2	SCS215a	20111109.103847	20111109.104112	8	0.013328	60	10	60-180	60	173	GapExp	SmallFlash	0	22	2	0	1	target	1	798	601	275699	13.328	13.307	13.348
ProbeTrack13	16	ProbeTrack	13.2	SCS215a	20111109.103847	20111109.104119	8	0.013328	60	10	60-180	60	122	GapExp	SmallFlash	0	23	2	0	0	distractor	1	678	661	276360	13.378	12.939	27.075
ProbeTrack13	16	ProbeTrack	13.2	SCS215a	20111109.103847	20111109.104125	8	0.013328	60	10	60-180	60	178	GapExp	SmallFlash	0	24	2	0	1	target	1	558	721	277081	13.415	12.903	27.009
ProbeTrack13	16	ProbeTrack	13.2	SCS215a	20111109.103847	20111109.104132	8	0.013328	60	10	60-180	60	98	GapExp	SmallFlash	0	25	2	3	0	distractor	1	629	686	277767	13.328	13.307	13.347
ProbeTrack13	16	ProbeTrack	13.2	SCS215a	20111109.103847	20111109.104139	8	0.013328	60	10	60-180	60	129	GapExp	SmallFlash	0	26	2	1	1	target	1	503	749	278516	13.328	13.301	13.356
ProbeTrack13	16	ProbeTrack	13.2	SCS215a	20111109.103847	20111109.104146	8	0.013328	60	10	60-180	60	129	GapExp	SmallFlash	0	27	2	0	1	target	1	470	765	279281	13.328	12.899	13.782
ProbeTrack13	16	ProbeTrack	13.2	SCS215a	20111109.103847	20111109.104152	8	0.013328	60	10	60-180	60	85	GapExp	SmallFlash	0	28	2	0	0	distractor	1	571	715	279996	13.328	13.036	13.612
ProbeTrack13	16	ProbeTrack	13.2	SCS215a	20111109.103847	20111109.104158	8	0.013328	60	10	60-180	60	96	GapExp	SmallFlash	0	29	2	45	1	target	1	567	717	280713	13.328	13.308	13.353
ProbeTrack13	16	ProbeTrack	13.2	SCS215a	20111109.103847	20111109.104204	8	0.013328	60	10	60-180	60	149	GapExp	SmallFlash	0	30	2	45	0	distractor	1	712	644	281357	13.328	12.972	13.671
ProbeTrack13	16	ProbeTrack	13.2	SCS215a	20111109.103847	20111109.104212	8	0.013328	60	10	60-180	60	116	GapExp	SmallFlash	0	31	2	45	0	distractor	1	637	682	282039	13.328	13.206	13.436
ProbeTrack13	16	ProbeTrack	13.2	SCS215a	20111109.103847	20111109.104219	8	0.013328	60	10	60-180	60	180	GapExp	SmallFlash	0	32	2	45	1	target	1	502	749	282788	13.328	13.110	13.553
ProbeTrack13	16	ProbeTrack	13.2	SCS215a	20111109.103847	20111109.104227	8	0.013328	60	10	60-180	60	90	GapExp	SmallFlash	0	33	2	0	0	distractor	1	697	652	283440	13.328	13.298	13.346
ProbeTrack13	16	ProbeTrack	13.2	SCS215a	20111109.103847	20111109.104233	8	0.013328	60	10	60-180	60	153	GapExp	SmallFlash	0	34	2	3	1	target	1	482	759	284199	13.328	12.984	13.673
ProbeTrack13	16	ProbeTrack	13.2	SCS215a	20111109.103847	20111109.104239	8	0.013328	60	10	60-180	60	143	GapExp	SmallFlash	0	35	2	0	1	target	1	365	818	285017	13.328	13.084	13.559
ProbeTrack13	16	ProbeTrack	13.2	SCS215a	20111109.103847	20111109.104246	8	0.013328	60	10	60-180	60	75	GapExp	SmallFlash	0	36	2	3	1	target	1	447	777	285794	13.328	13.018	13.639
ProbeTrack13	16	ProbeTrack	13.2	SCS215a	20111109.103847	20111109.104251	8	0.013328	60	10	60-180	60	156	GapExp	SmallFlash	0	37	2	45	1	target	1	347	827	286621	13.328	13.307	13.351
ProbeTrack13	16	ProbeTrack	13.2	SCS215a	20111109.103847	20111109.104259	8	0.013328	60	10	60-180	60	170	GapExp	SmallFlash	0	38	2	3	0	distractor	1	549	726	287347	13.328	12.925	13.733
ProbeTrack13	16	ProbeTrack	13.2	SCS215a	20111109.103847	20111109.104306	8	0.013328	60	10	60-180	60	110	GapExp	SmallFlash	0	39	2	1	1	target	1	470	765	288112	13.328	12.878	13.792
ProbeTrack13	16	ProbeTrack	13.2	SCS215a	20111109.103847	20111109.104311	8	0.013328	60	10	60-180	60	64	GapExp	SmallFlash	0	40	2	0	1	target	1	463	769	288881	13.328	13.287	13.363
ProbeTrack13	16	ProbeTrack	13.2	SCS215a	20111109.103847	20111109.104317	8	0.013328	60	10	60-180	60	109	GapExp	SmallFlash	0	41	2	3	0	distractor	1	686	657	289538	13.328	13.001	13.655
ProbeTrack13	16	ProbeTrack	13.2	SCS215a	20111109.103847	20111109.104323	8	0.013328	60	10	60-180	60	143	GapExp	SmallFlash	0	42	2	3	0	distractor	1	692	654	290192	13.328	13.079	13.344
ProbeTrack13	16	ProbeTrack	13.2	SCS215a	20111109.103847	20111109.104330	8	0.013328	60	10	60-180	60	153	GapExp	SmallFlash	0	43	2	3	1	target	1	647	677	290869	13.328	13.307	13.349
ProbeTrack13	16	ProbeTrack	13.2	SCS215a	20111109.103847	20111109.104337	8	0.013328	60	10	60-180	60	125	GapExp	SmallFlash	0	44	2	0	0	distractor	1	607	697	291566	13.328	12.895	13.344
ProbeTrack13	16	ProbeTrack	13.2	SCS215a	20111109.103847	20111109.104343	8	0.013328	60	10	60-180	60	96	GapExp	SmallFlash	0	45	2	1	0	distractor	1	633	684	292250	13.328	13.255	13.396
ProbeTrack13	16	ProbeTrack	13.2	SCS215a	20111109.103847	20111109.104349	8	0.013328	60	10	60-180	60	155	GapExp	SmallFlash	0	46	2	0	0	distractor	1	624	688	292938	13.328	13.091	13.552
ProbeTrack13	16	ProbeTrack	13.2	SCS215a	20111109.103847	20111109.104356	8	0.013328	60	10	60-180	60	162	GapExp	SmallFlash	0	47	2	45	1	target	1	504	748	293686	13.328	12.831	13.819
ProbeTrack13	16	ProbeTrack	13.2	SCS215a	20111109.103847	20111109.104404	8	0.013328	60	10	60-180	60	100	GapExp	SmallFlash	0	48	2	45	0	distractor	1	936	532	294218	13.328	12.897	13.761
ProbeTrack13	16	ProbeTrack	13.2	SCS215a	20111109.103847	20111109.104410	8	0.013328	60	10	60-180	60	174	GapExp	SmallFlash	0	49	2	1	1	target	1	462	769	294987	13.328	12.941	13.723
ProbeTrack13	16	ProbeTrack	13.2	SCS215a	20111109.103847	20111109.104417	8	0.013328	60	10	60-180	60	127	GapExp	SmallFlash	0	50	2	1	0	distractor	1	610	695	295682	13.328	12.825	13.825
ProbeTrack13	16	ProbeTrack	13.2	SCS215a	20111109.103847	20111109.104423	8	0.013328	60	10	60-180	60	139	GapExp	SmallFlash	0	51	2	1	1	distractor	0	378	-1000	294682	13.328	13.106	13.551
ProbeTrack13	16	ProbeTrack	13.2	SCS215a	20111109.103847	20111109.104430	8	0.013328	60	10	60-180	60	174	GapExp	SmallFlash	0	52	2	45	0	distractor	1	741	630	295312	13.328	13.105	13.544
ProbeTrack13	16	ProbeTrack	13.2	SCS215a	20111109.103847	20111109.104438	8	0.013328	60	10	60-180	60	76	GapExp	SmallFlash	0	53	2	0	0	distractor	1	542	729	296041	13.328	13.309	13.347
ProbeTrack13	16	ProbeTrack	13.2	SCS215a	20111109.103847	20111109.104443	8	0.013328	60	10	60-180	60	102	GapExp	SmallFlash	0	54	2	45	0	target	0	683	-1000	295041	13.328	13.113	13.553
ProbeTrack13	16	ProbeTrack	13.2	SCS215a	20111109.103847	20111109.104450	8	0.013328	60	10	60-180	60	104	GapExp	SmallFlash	0	55	2	0	0	distractor	1	570	715	295756	13.328	12.885	13.763
ProbeTrack13	16	ProbeTrack	13.2	SCS215a	20111109.103847	20111109.104508	8	0.013328	60	10	60-180	60	165	GapExp	SmallFlash	0	56	2	45	0	distractor	1	581	710	296466	13.328	12.905	13.766
ProbeTrack13	16	ProbeTrack	13.2	SCS215a	20111109.103847	20111109.104516	8	0.013328	60	10	60-180	60	110	GapExp	SmallFlash	0	57	2	0	0	target	0	779	-1000	295466	13.328	12.928	13.730
ProbeTrack13	16	ProbeTrack	13.2	SCS215a	20111109.103847	20111109.104522	8	0.013328	60	10	60-180	60	159	GapExp	SmallFlash	0	58	2	45	1	distractor	0	698	-1000	294466	13.328	13.061	13.593
ProbeTrack13	16	ProbeTrack	13.2	SCS215a	20111109.103847	20111109.104530	8	0.013328	60	10	60-180	60	153	GapExp	SmallFlash	0	59	2	0	0	distractor	1	586	707	295173	13.328	12.960	13.697
ProbeTrack13	16	ProbeTrack	13.2	SCS215a	20111109.103847	20111109.104543	8	0.013328	60	10	60-180	60	111	GapExp	SmallFlash	0	60	2	45	0	distractor	1	641	680	295853	13.329	13.308	13.760
ProbeTrack13	16	ProbeTrack	13.2	SCS215a	20111109.103847	20111109.104549	8	0.013328	60	10	60-180	60	121	GapExp	SmallFlash	0	61	2	45	1	target	1	572	714	296567	13.328	12.861	13.699
ProbeTrack13	16	ProbeTrack	13.2	SCS215a	20111109.103847	20111109.104556	8	0.013328	60	10	60-180	60	68	GapExp	SmallFlash	0	62	2	0	1	target	1	550	725	297292	13.328	13.068	13.574
ProbeTrack13	16	ProbeTrack	13.2	SCS215a	20111109.103847	20111109.104602	8	0.013328	60	10	60-180	60	100	GapExp	SmallFlash	0	63	2	45	1	target	1	620	690	297982	13.328	12.858	13.783
ProbeTrack13	16	ProbeTrack	13.2	SCS215a	20111109.103847	20111109.104608	8	0.013328	60	10	60-180	60	180	GapExp	SmallFlash	0	64	2	3	0	distractor	1	576	712	298694	13.328	12.910	13.740
ProbeTrack13	16	ProbeTrack	13.2	SCS215a	20111109.103847	20111109.104616	8	0.013328	60	10	60-180	60	64	GapExp	SmallFlash	0	65	2	0	1	target	1	498	751	299445	13.328	13.122	13.534
ProbeTrack13	16	ProbeTrack	13.2	SCS215a	20111109.103847	20111109.104621	8	0.013328	60	10	60-180	60	86	GapExp	SmallFlash	0	66	2	45	0	distractor	1	594	703	300148	13.327	13.044	13.543
ProbeTrack13	16	ProbeTrack	13.2	SCS215a	20111109.103847	20111109.104628	8	0.013328	60	10	60-180	60	169	GapExp	SmallFlash	0	67	2	1	1	target	1	498	751	300899	13.328	13.091	13.559
ProbeTrack13	16	ProbeTrack	13.2	SCS215a	20111109.103847	20111109.104636	8	0.013328	60	10	60-180	60	74	GapExp	SmallFlash	0	68	2	3	1	target	1	528	736	301635	13.328	12.908	13.755
