exp	sub	code	rev	comp	runtime	trialtime	nstim	refreshdur	cuedur	gapdur	gapOnsetRange	durPostProbe	gapOnsetTime	blocktype	gaptype	prac	trial	ntargets	soa	probeTarget	resp	acc	rt	pts	tpts	meanFrameDur	minFrameDur	maxFrameDur
ProbeTrack13	10	ProbeTrack	13.2	SCS215a	20111104.133251	20111104.133352	8	0.013328	60	0	60-180	60	121	NoGap	None	1	1	2	45	1	target	1	5946	0	0	13.372	13.308	13.359
ProbeTrack13	10	ProbeTrack	13.2	SCS215a	20111104.133251	20111104.133419	8	0.013328	60	0	60-180	60	125	NoGap	None	1	2	2	3	1	target	1	10656	0	0	13.328	13.113	13.549
ProbeTrack13	10	ProbeTrack	13.2	SCS215a	20111104.133251	20111104.133447	8	0.013328	60	0	60-180	60	92	NoGap	None	1	3	2	3	1	target	1	2755	0	0	13.328	13.301	13.353
ProbeTrack13	10	ProbeTrack	13.2	SCS215a	20111104.133251	20111104.133459	8	0.013328	60	0	60-180	60	81	NoGap	None	1	4	2	1	1	target	1	418	791	791	13.328	13.307	13.355
ProbeTrack13	10	ProbeTrack	13.2	SCS215a	20111104.133251	20111104.133520	8	0.013328	60	0	60-180	60	148	NoGap	None	1	5	2	1	1	target	1	510	745	1536	13.328	13.308	13.347
ProbeTrack13	10	ProbeTrack	13.2	SCS215a	20111104.133251	20111104.133529	8	0.013328	60	0	60-180	60	115	NoGap	None	1	6	2	45	1	target	1	340	830	2366	13.328	12.858	13.802
ProbeTrack13	10	ProbeTrack	13.2	SCS215a	20111104.133251	20111104.133542	8	0.013328	60	0	60-180	60	113	NoGap	None	1	7	2	3	1	target	1	321	840	3206	13.328	13.308	13.347
ProbeTrack13	10	ProbeTrack	13.2	SCS215a	20111104.133251	20111104.133549	8	0.013328	60	0	60-180	60	156	NoGap	None	1	8	2	45	1	target	1	304	848	4054	13.328	13.152	13.494
ProbeTrack13	10	ProbeTrack	13.2	SCS215a	20111104.133251	20111104.133556	8	0.013328	60	0	60-180	60	139	NoGap	None	1	9	2	0	0	target	0	364	-1000	3054	13.328	13.292	13.363
ProbeTrack13	10	ProbeTrack	13.2	SCS215a	20111104.133251	20111104.133604	8	0.013328	60	0	60-180	60	86	NoGap	None	1	10	2	0	1	target	1	351	825	3879	13.329	12.869	13.787
ProbeTrack13	10	ProbeTrack	13.2	SCS215a	20111104.133251	20111104.133613	8	0.013328	60	0	60-180	60	104	NoGap	None	1	11	2	45	1	target	1	308	846	4725	13.381	13.137	26.849
ProbeTrack13	10	ProbeTrack	13.2	SCS215a	20111104.133251	20111104.133619	8	0.013328	60	0	60-180	60	113	NoGap	None	1	12	2	45	0	target	0	362	-1000	3725	13.328	13.303	13.385
ProbeTrack13	10	ProbeTrack	13.2	SCS215a	20111104.133251	20111104.133626	8	0.013328	60	0	60-180	60	62	NoGap	None	1	13	2	3	0	distractor	1	848	576	4301	13.328	13.307	13.348
ProbeTrack13	10	ProbeTrack	13.2	SCS215a	20111104.133251	20111104.133634	8	0.013328	60	0	60-180	60	76	NoGap	None	1	14	2	3	0	distractor	1	499	751	5052	13.328	12.860	13.809
ProbeTrack13	10	ProbeTrack	13.2	SCS215a	20111104.133251	20111104.133640	8	0.013328	60	0	60-180	60	151	NoGap	None	1	15	2	1	1	target	1	460	770	5822	13.328	13.308	13.346
ProbeTrack13	10	ProbeTrack	13.2	SCS215a	20111104.133251	20111104.133646	8	0.013328	60	0	60-180	60	117	NoGap	None	1	16	2	45	0	distractor	1	541	730	6552	13.328	13.302	13.345
ProbeTrack13	10	ProbeTrack	13.2	SCS215a	20111104.133251	20111104.133654	8	0.013328	60	0	60-180	60	144	NoGap	None	1	17	2	0	0	distractor	1	348	826	7378	13.328	12.919	13.750
ProbeTrack13	10	ProbeTrack	13.2	SCS215a	20111104.133251	20111104.133700	8	0.013328	60	0	60-180	60	107	NoGap	None	1	18	2	0	0	distractor	1	445	778	8156	13.328	13.273	13.409
ProbeTrack13	10	ProbeTrack	13.2	SCS215a	20111104.133251	20111104.133706	8	0.013328	60	0	60-180	60	62	NoGap	None	1	19	2	0	0	distractor	1	485	758	8914	13.328	13.056	13.597
ProbeTrack13	10	ProbeTrack	13.2	SCS215a	20111104.133251	20111104.133712	8	0.013328	60	0	60-180	60	109	NoGap	None	1	20	2	3	0	distractor	1	370	815	9729	13.328	13.108	13.549
ProbeTrack13	10	ProbeTrack	13.2	SCS215a	20111104.133251	20111104.133719	8	0.013328	60	0	60-180	60	84	NoGap	None	1	21	2	45	0	distractor	1	461	770	10499	13.328	12.934	13.745
ProbeTrack13	10	ProbeTrack	13.2	SCS215a	20111104.133251	20111104.133725	8	0.013328	60	0	60-180	60	179	NoGap	None	1	22	2	0	1	distractor	0	346	-1000	9499	13.328	12.909	13.761
ProbeTrack13	10	ProbeTrack	13.2	SCS215a	20111104.133251	20111104.133732	8	0.013328	60	0	60-180	60	142	NoGap	None	1	23	2	1	0	target	0	534	-1000	8499	13.328	13.118	13.553
ProbeTrack13	10	ProbeTrack	13.2	SCS215a	20111104.133251	20111104.133740	8	0.013328	60	0	60-180	60	149	NoGap	None	1	24	2	45	0	distractor	1	508	746	9245	13.328	13.115	13.550
ProbeTrack13	10	ProbeTrack	13.2	SCS215a	20111104.133251	20111104.133749	8	0.013328	60	0	60-180	60	112	NoGap	None	1	25	2	1	0	distractor	1	480	760	10005	13.328	13.309	13.345
ProbeTrack13	10	ProbeTrack	13.2	SCS215a	20111104.133251	20111104.133755	8	0.013328	60	0	60-180	60	64	NoGap	None	1	26	2	1	1	distractor	0	299	-1000	9005	13.328	12.857	13.807
ProbeTrack13	10	ProbeTrack	13.2	SCS215a	20111104.133251	20111104.133801	8	0.013328	60	0	60-180	60	68	NoGap	None	1	27	2	45	1	target	1	297	852	9857	13.328	13.307	13.347
ProbeTrack13	10	ProbeTrack	13.2	SCS215a	20111104.133251	20111104.133807	8	0.013328	60	0	60-180	60	97	NoGap	None	1	28	2	1	0	distractor	1	535	733	10590	13.328	13.092	13.557
ProbeTrack13	10	ProbeTrack	13.2	SCS215a	20111104.133251	20111104.133813	8	0.013328	60	0	60-180	60	133	NoGap	None	1	29	2	3	0	distractor	1	494	753	11343	13.328	13.112	13.556
ProbeTrack13	10	ProbeTrack	13.2	SCS215a	20111104.133251	20111104.133820	8	0.013328	60	0	60-180	60	137	NoGap	None	1	30	2	0	0	distractor	1	671	665	12008	13.328	13.112	13.545
ProbeTrack13	10	ProbeTrack	13.2	SCS215a	20111104.133251	20111104.133827	8	0.013328	60	0	60-180	60	89	NoGap	None	1	31	2	1	1	target	1	547	727	12735	13.328	13.309	13.345
ProbeTrack13	10	ProbeTrack	13.2	SCS215a	20111104.133251	20111104.133833	8	0.013328	60	0	60-180	60	86	NoGap	None	1	32	2	3	0	distractor	1	647	677	13412	13.328	12.873	13.783
ProbeTrack13	10	ProbeTrack	13.2	SCS215a	20111104.133251	20111104.133843	8	0.013328	60	0	60-180	60	160	NoGap	None	1	33	2	45	0	distractor	1	506	747	14159	13.328	13.106	13.551
ProbeTrack13	10	ProbeTrack	13.2	SCS215a	20111104.133251	20111104.133850	8	0.013328	60	0	60-180	60	169	NoGap	None	1	34	2	0	1	distractor	0	321	-1000	13159	13.328	13.101	13.571
ProbeTrack13	10	ProbeTrack	13.2	SCS215a	20111104.133251	20111104.133857	8	0.013328	60	0	60-180	60	172	NoGap	None	1	35	2	0	1	target	1	597	702	13861	13.328	13.305	13.346
ProbeTrack13	10	ProbeTrack	13.2	SCS215a	20111104.133251	20111104.133907	8	0.013328	60	0	60-180	60	79	NoGap	None	1	36	2	3	1	distractor	0	409	-1000	12861	13.328	12.997	13.660
ProbeTrack13	10	ProbeTrack	13.2	SCS215a	20111104.133251	20111104.133912	8	0.013328	60	0	60-180	60	164	NoGap	None	1	37	2	3	1	target	1	588	706	13567	13.328	13.027	13.621
ProbeTrack13	10	ProbeTrack	13.2	SCS215a	20111104.133251	20111104.133920	8	0.013328	60	0	60-180	60	133	NoGap	None	1	38	2	1	0	distractor	1	593	704	14271	13.328	13.308	13.347
ProbeTrack13	10	ProbeTrack	13.2	SCS215a	20111104.133251	20111104.133928	8	0.013328	60	0	60-180	60	123	NoGap	None	1	39	2	1	0	distractor	1	496	752	15023	13.328	12.985	13.666
ProbeTrack13	10	ProbeTrack	13.2	SCS215a	20111104.133251	20111104.133935	8	0.013328	60	0	60-180	60	156	NoGap	None	1	40	2	0	1	target	1	567	717	15740	13.328	13.309	13.348
ProbeTrack13	10	ProbeTrack	13.2	SCS215a	20111104.134021	20111104.134051	8	0.013327	60	10	60-180	60	111	GapPrac	Blank	1	1	2	45	1	target	1	650	675	16415	13.374	13.310	13.351
ProbeTrack13	10	ProbeTrack	13.2	SCS215a	20111104.134021	20111104.134100	8	0.013327	60	10	60-180	60	93	GapPrac	Blank	1	2	2	3	1	target	1	563	719	17134	13.328	10.181	16.473
ProbeTrack13	10	ProbeTrack	13.2	SCS215a	20111104.134021	20111104.134109	8	0.013327	60	10	60-180	60	137	GapPrac	Blank	1	3	2	0	0	target	0	643	-1000	16134	13.328	9.219	17.446
ProbeTrack13	10	ProbeTrack	13.2	SCS215a	20111104.134021	20111104.134117	8	0.013327	60	10	60-180	60	157	GapPrac	Blank	1	4	2	0	1	target	1	579	711	16845	13.328	13.308	13.347
ProbeTrack13	10	ProbeTrack	13.2	SCS215a	20111104.134021	20111104.134126	8	0.013327	60	10	60-180	60	128	GapPrac	Blank	1	5	2	0	1	target	1	935	533	17378	13.328	7.472	19.172
ProbeTrack13	10	ProbeTrack	13.2	SCS215a	20111104.134021	20111104.134133	8	0.013327	60	10	60-180	60	134	GapPrac	Blank	1	6	2	1	0	distractor	1	711	645	18023	13.328	3.546	23.101
ProbeTrack13	10	ProbeTrack	13.2	SCS215a	20111104.134021	20111104.134140	8	0.013327	60	10	60-180	60	162	GapPrac	Blank	1	7	2	0	1	target	1	472	764	18787	13.328	13.300	13.357
ProbeTrack13	10	ProbeTrack	13.2	SCS215a	20111104.134021	20111104.134147	8	0.013327	60	10	60-180	60	172	GapPrac	Blank	1	8	2	45	0	target	0	136	-1000	17787	13.328	13.293	13.371
ProbeTrack13	10	ProbeTrack	13.2	SCS215a	20111104.134021	20111104.134155	8	0.013327	60	10	60-180	60	173	GapPrac	Blank	1	9	2	1	1	target	1	588	706	18493	13.328	8.256	18.405
ProbeTrack13	10	ProbeTrack	13.2	SCS215a	20111104.134021	20111104.134203	8	0.013327	60	10	60-180	60	82	GapPrac	Blank	1	10	2	3	1	target	1	411	795	19288	13.328	13.227	13.429
ProbeTrack13	10	ProbeTrack	13.2	SCS215a	20111104.134021	20111104.134209	8	0.013327	60	10	60-180	60	179	GapPrac	Blank	1	11	2	45	1	target	1	562	719	20007	13.328	10.566	16.138
ProbeTrack13	10	ProbeTrack	13.2	SCS215a	20111104.134021	20111104.134217	8	0.013327	60	10	60-180	60	128	GapPrac	Blank	1	12	2	45	1	target	1	641	680	20687	13.328	10.212	16.422
ProbeTrack13	10	ProbeTrack	13.2	SCS215a	20111104.134021	20111104.134224	8	0.013327	60	10	60-180	60	123	GapPrac	Blank	1	13	2	0	0	target	0	433	-1000	19687	13.328	8.903	17.738
ProbeTrack13	10	ProbeTrack	13.2	SCS215a	20111104.134021	20111104.134230	8	0.013327	60	10	60-180	60	73	GapPrac	Blank	1	14	2	0	0	target	0	672	-1000	18687	13.328	12.239	14.417
ProbeTrack13	10	ProbeTrack	13.2	SCS215a	20111104.134021	20111104.134236	8	0.013327	60	10	60-180	60	159	GapPrac	Blank	1	15	2	1	0	distractor	1	857	572	19259	13.328	13.307	13.356
ProbeTrack13	10	ProbeTrack	13.2	SCS215a	20111104.134021	20111104.134244	8	0.013327	60	10	60-180	60	145	GapPrac	Blank	1	16	2	3	0	distractor	1	979	511	19770	13.328	7.940	18.715
ProbeTrack13	10	ProbeTrack	13.2	SCS215a	20111104.134021	20111104.134252	8	0.013327	60	10	60-180	60	95	GapPrac	Blank	1	17	2	1	1	target	1	473	764	20534	13.328	11.295	15.370
ProbeTrack13	10	ProbeTrack	13.2	SCS215a	20111104.134021	20111104.134257	8	0.013327	60	10	60-180	60	92	GapPrac	Blank	1	18	2	3	1	target	1	440	780	21314	13.328	13.181	13.492
ProbeTrack13	10	ProbeTrack	13.2	SCS215a	20111104.134021	20111104.134303	8	0.013327	60	10	60-180	60	76	GapPrac	Blank	1	19	2	3	0	distractor	1	556	722	22036	13.328	11.887	14.763
ProbeTrack13	10	ProbeTrack	13.2	SCS215a	20111104.134021	20111104.134309	8	0.013327	60	10	60-180	60	177	GapPrac	Blank	1	20	2	45	0	distractor	1	734	633	22669	13.328	7.849	18.789
ProbeTrack13	10	ProbeTrack	13.2	SCS215a	20111104.134354	20111104.134422	8	0.013317	60	10	60-180	60	89	GapExp	Blank	1	1	2	45	1	target	1	429	786	23455	13.380	13.296	13.364
ProbeTrack13	10	ProbeTrack	13.2	SCS215a	20111104.134354	20111104.134429	8	0.013317	60	10	60-180	60	86	GapExp	Blank	1	2	2	0	0	distractor	1	656	672	24127	13.328	13.307	13.345
ProbeTrack13	10	ProbeTrack	13.2	SCS215a	20111104.134354	20111104.134436	8	0.013317	60	10	60-180	60	69	GapExp	Blank	1	3	2	1	1	distractor	0	697	-1000	23127	13.328	13.291	13.358
ProbeTrack13	10	ProbeTrack	13.2	SCS215a	20111104.134354	20111104.134442	8	0.013317	60	10	60-180	60	64	GapExp	Blank	1	4	2	0	1	target	1	476	762	23889	13.328	13.308	13.344
ProbeTrack13	10	ProbeTrack	13.2	SCS215a	20111104.134354	20111104.134447	8	0.013317	60	10	60-180	60	102	GapExp	Blank	1	5	2	1	0	distractor	1	631	685	24574	13.328	13.308	13.347
ProbeTrack13	10	ProbeTrack	13.2	SCS215a	20111104.134354	20111104.134453	8	0.013317	60	10	60-180	60	95	GapExp	Blank	1	6	2	45	0	distractor	1	639	681	25255	13.328	13.105	13.556
ProbeTrack13	10	ProbeTrack	13.2	SCS215a	20111104.134354	20111104.134501	8	0.013317	60	10	60-180	60	105	GapExp	Blank	1	7	2	3	0	distractor	1	510	745	26000	13.328	13.103	13.552
ProbeTrack13	10	ProbeTrack	13.2	SCS215a	20111104.134354	20111104.134506	8	0.013317	60	10	60-180	60	110	GapExp	Blank	1	8	2	3	1	target	1	468	766	26766	13.328	7.071	19.645
ProbeTrack13	10	ProbeTrack	13.2	SCS215a	20111104.134354	20111104.134513	8	0.013317	60	10	60-180	60	125	GapExp	Blank	0	9	2	3	0	distractor	1	495	753	27519	13.328	13.307	13.347
ProbeTrack13	10	ProbeTrack	13.2	SCS215a	20111104.134354	20111104.134519	8	0.013317	60	10	60-180	60	118	GapExp	Blank	0	10	2	45	1	target	1	560	720	28239	13.328	13.307	13.347
ProbeTrack13	10	ProbeTrack	13.2	SCS215a	20111104.134354	20111104.134526	8	0.013317	60	10	60-180	60	148	GapExp	Blank	0	11	2	45	0	distractor	1	772	614	28853	13.328	13.104	13.551
ProbeTrack13	10	ProbeTrack	13.2	SCS215a	20111104.134354	20111104.134534	8	0.013317	60	10	60-180	60	73	GapExp	Blank	0	12	2	1	1	target	1	532	734	29587	13.328	13.095	13.556
ProbeTrack13	10	ProbeTrack	13.2	SCS215a	20111104.134354	20111104.134541	8	0.013317	60	10	60-180	60	122	GapExp	Blank	0	13	2	1	1	target	1	424	788	30375	13.328	13.294	13.361
ProbeTrack13	10	ProbeTrack	13.2	SCS215a	20111104.134354	20111104.134547	8	0.013317	60	10	60-180	60	102	GapExp	Blank	0	14	2	0	0	distractor	1	650	675	31050	13.328	12.681	13.982
ProbeTrack13	10	ProbeTrack	13.2	SCS215a	20111104.134354	20111104.134553	8	0.013317	60	10	60-180	60	114	GapExp	Blank	0	15	2	1	1	target	1	398	801	31851	13.328	13.306	13.346
ProbeTrack13	10	ProbeTrack	13.2	SCS215a	20111104.134354	20111104.134600	8	0.013317	60	10	60-180	60	78	GapExp	Blank	0	16	2	3	1	target	1	442	779	32630	13.328	13.307	13.346
ProbeTrack13	10	ProbeTrack	13.2	SCS215a	20111104.134354	20111104.134606	8	0.013317	60	10	60-180	60	154	GapExp	Blank	0	17	2	45	0	target	0	517	-1000	31630	13.328	13.304	13.352
ProbeTrack13	10	ProbeTrack	13.2	SCS215a	20111104.134354	20111104.134613	8	0.013317	60	10	60-180	60	180	GapExp	Blank	0	18	2	0	1	target	1	489	756	32386	13.328	13.309	13.349
ProbeTrack13	10	ProbeTrack	13.2	SCS215a	20111104.134354	20111104.134620	8	0.013317	60	10	60-180	60	169	GapExp	Blank	0	19	2	0	0	distractor	1	590	705	33091	13.328	10.196	16.458
ProbeTrack13	10	ProbeTrack	13.2	SCS215a	20111104.134354	20111104.134628	8	0.013317	60	10	60-180	60	92	GapExp	Blank	0	20	2	3	1	target	1	434	783	33874	13.328	7.129	19.546
ProbeTrack13	10	ProbeTrack	13.2	SCS215a	20111104.134354	20111104.134634	8	0.013317	60	10	60-180	60	179	GapExp	Blank	0	21	2	45	0	distractor	1	641	680	34554	13.328	6.715	19.934
ProbeTrack13	10	ProbeTrack	13.2	SCS215a	20111104.134354	20111104.134642	8	0.013317	60	10	60-180	60	173	GapExp	Blank	0	22	2	45	1	target	1	484	758	35312	13.328	13.307	13.346
ProbeTrack13	10	ProbeTrack	13.2	SCS215a	20111104.134354	20111104.134650	8	0.013317	60	10	60-180	60	151	GapExp	Blank	0	23	2	3	1	target	1	457	772	36084	13.328	10.459	16.198
ProbeTrack13	10	ProbeTrack	13.2	SCS215a	20111104.134354	20111104.134656	8	0.013317	60	10	60-180	60	151	GapExp	Blank	0	24	2	45	1	target	1	508	746	36830	13.328	13.310	13.343
ProbeTrack13	10	ProbeTrack	13.2	SCS215a	20111104.134354	20111104.134704	8	0.013317	60	10	60-180	60	97	GapExp	Blank	0	25	2	3	1	distractor	0	626	-1000	35830	13.328	13.311	13.344
ProbeTrack13	10	ProbeTrack	13.2	SCS215a	20111104.134354	20111104.134711	8	0.013317	60	10	60-180	60	69	GapExp	Blank	0	26	2	45	0	distractor	1	684	658	36488	13.328	13.308	13.349
ProbeTrack13	10	ProbeTrack	13.2	SCS215a	20111104.134354	20111104.134724	8	0.013317	60	10	60-180	60	140	GapExp	Blank	0	27	2	45	1	target	1	427	787	37275	13.328	6.744	19.926
ProbeTrack13	10	ProbeTrack	13.2	SCS215a	20111104.134354	20111104.134732	8	0.013317	60	10	60-180	60	164	GapExp	Blank	0	28	2	1	1	target	1	518	741	38016	13.328	9.805	16.932
ProbeTrack13	10	ProbeTrack	13.2	SCS215a	20111104.134354	20111104.134744	8	0.013317	60	10	60-180	60	160	GapExp	Blank	0	29	2	45	0	distractor	1	573	714	38730	13.328	13.306	13.346
ProbeTrack13	10	ProbeTrack	13.2	SCS215a	20111104.134354	20111104.134753	8	0.013317	60	10	60-180	60	66	GapExp	Blank	0	30	2	1	1	target	1	511	745	39475	13.328	13.302	13.342
ProbeTrack13	10	ProbeTrack	13.2	SCS215a	20111104.134354	20111104.134759	8	0.013317	60	10	60-180	60	129	GapExp	Blank	0	31	2	3	0	distractor	1	516	742	40217	13.328	13.306	13.345
ProbeTrack13	10	ProbeTrack	13.2	SCS215a	20111104.134354	20111104.134806	8	0.013317	60	10	60-180	60	151	GapExp	Blank	0	32	2	45	1	target	1	425	788	41005	13.328	13.308	13.349
ProbeTrack13	10	ProbeTrack	13.2	SCS215a	20111104.134354	20111104.134813	8	0.013317	60	10	60-180	60	151	GapExp	Blank	0	33	2	3	1	target	1	368	816	41821	13.328	11.501	15.153
ProbeTrack13	10	ProbeTrack	13.2	SCS215a	20111104.134354	20111104.134820	8	0.013317	60	10	60-180	60	143	GapExp	Blank	0	34	2	0	1	target	1	461	770	42591	13.328	13.307	13.345
ProbeTrack13	10	ProbeTrack	13.2	SCS215a	20111104.134354	20111104.134827	8	0.013317	60	10	60-180	60	160	GapExp	Blank	0	35	2	0	1	target	1	354	823	43414	13.328	10.612	16.040
ProbeTrack13	10	ProbeTrack	13.2	SCS215a	20111104.134354	20111104.134837	8	0.013317	60	10	60-180	60	127	GapExp	Blank	0	36	2	45	1	target	1	336	832	44246	13.328	7.814	18.834
ProbeTrack13	10	ProbeTrack	13.2	SCS215a	20111104.134354	20111104.134931	8	0.013317	60	10	60-180	60	162	GapExp	Blank	0	37	2	1	1	target	1	513	744	44990	13.328	7.748	18.907
ProbeTrack13	10	ProbeTrack	13.2	SCS215a	20111104.134354	20111104.134938	8	0.013317	60	10	60-180	60	88	GapExp	Blank	0	38	2	3	0	distractor	1	718	641	45631	13.328	10.194	16.467
ProbeTrack13	10	ProbeTrack	13.2	SCS215a	20111104.134354	20111104.134944	8	0.013317	60	10	60-180	60	66	GapExp	Blank	0	39	2	45	1	distractor	0	410	-1000	44631	13.328	11.621	15.035
ProbeTrack13	10	ProbeTrack	13.2	SCS215a	20111104.134354	20111104.134950	8	0.013317	60	10	60-180	60	172	GapExp	Blank	0	40	2	45	0	distractor	1	718	641	45272	13.328	13.266	13.395
ProbeTrack13	10	ProbeTrack	13.2	SCS215a	20111104.134354	20111104.134957	8	0.013317	60	10	60-180	60	149	GapExp	Blank	0	41	2	1	1	target	1	483	759	46031	13.328	13.307	13.348
ProbeTrack13	10	ProbeTrack	13.2	SCS215a	20111104.134354	20111104.135004	8	0.013317	60	10	60-180	60	78	GapExp	Blank	0	42	2	1	0	distractor	1	593	704	46735	13.328	13.308	13.346
ProbeTrack13	10	ProbeTrack	13.2	SCS215a	20111104.134354	20111104.135010	8	0.013317	60	10	60-180	60	74	GapExp	Blank	0	43	2	0	1	target	1	380	810	47545	13.328	13.092	13.551
ProbeTrack13	10	ProbeTrack	13.2	SCS215a	20111104.134354	20111104.135015	8	0.013317	60	10	60-180	60	159	GapExp	Blank	0	44	2	1	1	target	1	457	772	48317	13.328	13.082	13.574
ProbeTrack13	10	ProbeTrack	13.2	SCS215a	20111104.134354	20111104.135024	8	0.013317	60	10	60-180	60	176	GapExp	Blank	0	45	2	3	0	distractor	1	499	751	49068	13.328	13.308	13.345
ProbeTrack13	10	ProbeTrack	13.2	SCS215a	20111104.134354	20111104.135031	8	0.013317	60	10	60-180	60	81	GapExp	Blank	0	46	2	3	1	target	1	339	831	49899	13.328	13.112	13.544
ProbeTrack13	10	ProbeTrack	13.2	SCS215a	20111104.134354	20111104.135037	8	0.013317	60	10	60-180	60	160	GapExp	Blank	0	47	2	0	1	target	1	678	661	50560	13.328	13.039	13.618
ProbeTrack13	10	ProbeTrack	13.2	SCS215a	20111104.134354	20111104.135044	8	0.013317	60	10	60-180	60	92	GapExp	Blank	0	48	2	1	0	distractor	1	547	727	51287	13.328	13.111	13.536
ProbeTrack13	10	ProbeTrack	13.2	SCS215a	20111104.134354	20111104.135050	8	0.013317	60	10	60-180	60	176	GapExp	Blank	0	49	2	3	0	distractor	1	584	708	51995	13.328	11.517	14.808
ProbeTrack13	10	ProbeTrack	13.2	SCS215a	20111104.134354	20111104.135057	8	0.013317	60	10	60-180	60	93	GapExp	Blank	0	50	2	1	0	distractor	1	536	732	52727	13.328	13.119	13.549
ProbeTrack13	10	ProbeTrack	13.2	SCS215a	20111104.134354	20111104.135103	8	0.013317	60	10	60-180	60	124	GapExp	Blank	0	51	2	45	1	target	1	587	707	53434	13.314	9.285	13.551
ProbeTrack13	10	ProbeTrack	13.2	SCS215a	20111104.134354	20111104.135110	8	0.013317	60	10	60-180	60	166	GapExp	Blank	0	52	2	0	1	target	1	447	777	54211	13.328	13.091	13.564
ProbeTrack13	10	ProbeTrack	13.2	SCS215a	20111104.134354	20111104.135117	8	0.013317	60	10	60-180	60	156	GapExp	Blank	0	53	2	3	1	target	1	356	822	55033	13.328	13.301	13.355
ProbeTrack13	10	ProbeTrack	13.2	SCS215a	20111104.134354	20111104.135123	8	0.013317	60	10	60-180	60	112	GapExp	Blank	0	54	2	45	0	distractor	1	683	659	55692	13.328	12.533	14.118
ProbeTrack13	10	ProbeTrack	13.2	SCS215a	20111104.134354	20111104.135131	8	0.013317	60	10	60-180	60	84	GapExp	Blank	0	55	2	3	1	target	1	372	814	56506	13.328	13.299	13.351
ProbeTrack13	10	ProbeTrack	13.2	SCS215a	20111104.134354	20111104.135136	8	0.013317	60	10	60-180	60	108	GapExp	Blank	0	56	2	0	0	distractor	1	510	745	57251	13.328	13.308	13.347
ProbeTrack13	10	ProbeTrack	13.2	SCS215a	20111104.134354	20111104.135143	8	0.013317	60	10	60-180	60	133	GapExp	Blank	0	57	2	3	1	target	1	434	783	58034	13.328	13.308	13.347
ProbeTrack13	10	ProbeTrack	13.2	SCS215a	20111104.134354	20111104.135149	8	0.013317	60	10	60-180	60	176	GapExp	Blank	0	58	2	0	0	target	0	359	-1000	57034	13.328	13.305	13.347
ProbeTrack13	10	ProbeTrack	13.2	SCS215a	20111104.134354	20111104.135156	8	0.013317	60	10	60-180	60	68	GapExp	Blank	0	59	2	1	0	distractor	1	443	779	57813	13.328	13.307	13.349
ProbeTrack13	10	ProbeTrack	13.2	SCS215a	20111104.134354	20111104.135202	8	0.013317	60	10	60-180	60	101	GapExp	Blank	0	60	2	0	0	target	0	520	-1000	56813	13.328	13.308	13.345
ProbeTrack13	10	ProbeTrack	13.2	SCS215a	20111104.134354	20111104.135208	8	0.013317	60	10	60-180	60	114	GapExp	Blank	0	61	2	1	1	target	1	433	784	57597	13.328	13.106	13.557
ProbeTrack13	10	ProbeTrack	13.2	SCS215a	20111104.134354	20111104.135214	8	0.013317	60	10	60-180	60	151	GapExp	Blank	0	62	2	0	0	target	0	351	-1000	56597	13.328	4.068	22.594
ProbeTrack13	10	ProbeTrack	13.2	SCS215a	20111104.134354	20111104.135221	8	0.013317	60	10	60-180	60	141	GapExp	Blank	0	63	2	1	0	distractor	1	589	706	57303	13.328	11.642	14.996
ProbeTrack13	10	ProbeTrack	13.2	SCS215a	20111104.134354	20111104.135227	8	0.013317	60	10	60-180	60	74	GapExp	Blank	0	64	2	0	1	target	1	432	784	58087	13.328	13.307	13.345
ProbeTrack13	10	ProbeTrack	13.2	SCS215a	20111104.134354	20111104.135233	8	0.013317	60	10	60-180	60	123	GapExp	Blank	0	65	2	3	0	distractor	1	533	734	58821	13.328	8.384	18.266
ProbeTrack13	10	ProbeTrack	13.2	SCS215a	20111104.134354	20111104.135240	8	0.013317	60	10	60-180	60	86	GapExp	Blank	0	66	2	45	0	distractor	1	565	718	59539	13.328	13.310	13.349
ProbeTrack13	10	ProbeTrack	13.2	SCS215a	20111104.134354	20111104.135247	8	0.013317	60	10	60-180	60	129	GapExp	Blank	0	67	2	1	0	distractor	1	465	768	60307	13.328	13.307	13.355
ProbeTrack13	10	ProbeTrack	13.2	SCS215a	20111104.134354	20111104.135254	8	0.013317	60	10	60-180	60	144	GapExp	Blank	0	68	2	0	1	target	1	436	782	61089	13.328	12.128	14.529
ProbeTrack13	10	ProbeTrack	13.2	SCS215a	20111104.134354	20111104.135303	8	0.013317	60	10	60-180	60	155	GapExp	Blank	0	69	2	3	1	target	1	380	810	61899	13.328	12.534	14.123
ProbeTrack13	10	ProbeTrack	13.2	SCS215a	20111104.134354	20111104.135309	8	0.013317	60	10	60-180	60	169	GapExp	Blank	0	70	2	3	0	distractor	1	566	717	62616	13.328	12.042	14.622
ProbeTrack13	10	ProbeTrack	13.2	SCS215a	20111104.134354	20111104.135316	8	0.013317	60	10	60-180	60	178	GapExp	Blank	0	71	2	45	0	distractor	1	553	724	63340	13.328	13.105	13.543
ProbeTrack13	10	ProbeTrack	13.2	SCS215a	20111104.134354	20111104.135324	8	0.013317	60	10	60-180	60	121	GapExp	Blank	0	72	2	0	1	target	1	467	767	64107	13.328	13.095	13.553
ProbeTrack13	10	ProbeTrack	13.2	SCS215a	20111104.134354	20111104.135330	8	0.013317	60	10	60-180	60	175	GapExp	Blank	0	73	2	45	0	distractor	1	584	708	64815	13.328	10.518	16.132
ProbeTrack13	10	ProbeTrack	13.2	SCS215a	20111104.134354	20111104.135338	8	0.013317	60	10	60-180	60	159	GapExp	Blank	0	74	2	1	0	distractor	1	491	755	65570	13.328	12.909	13.753
ProbeTrack13	10	ProbeTrack	13.2	SCS215a	20111104.134354	20111104.135345	8	0.013317	60	10	60-180	60	146	GapExp	Blank	0	75	2	45	1	target	1	468	766	66336	13.328	13.085	13.563
ProbeTrack13	10	ProbeTrack	13.2	SCS215a	20111104.134354	20111104.135352	8	0.013317	60	10	60-180	60	145	GapExp	Blank	0	76	2	0	1	target	1	337	832	67168	13.328	13.085	13.563
ProbeTrack13	10	ProbeTrack	13.2	SCS215a	20111104.134354	20111104.135359	8	0.013317	60	10	60-180	60	69	GapExp	Blank	0	77	2	45	1	target	1	451	775	67943	13.328	10.337	16.316
ProbeTrack13	10	ProbeTrack	13.2	SCS215a	20111104.134354	20111104.135405	8	0.013317	60	10	60-180	60	91	GapExp	Blank	0	78	2	0	0	target	0	529	-1000	66943	13.328	13.306	13.346
ProbeTrack13	10	ProbeTrack	13.2	SCS215a	20111104.134354	20111104.135411	8	0.013317	60	10	60-180	60	176	GapExp	Blank	0	79	2	0	1	target	1	429	786	67729	13.328	13.299	13.356
ProbeTrack13	10	ProbeTrack	13.2	SCS215a	20111104.134354	20111104.135421	8	0.013317	60	10	60-180	60	88	GapExp	Blank	0	80	2	0	1	target	1	454	773	68502	13.328	11.761	14.893
ProbeTrack13	10	ProbeTrack	13.2	SCS215a	20111104.134354	20111104.135427	8	0.013317	60	10	60-180	60	126	GapExp	Blank	0	81	2	3	1	target	1	372	814	69316	13.328	12.018	14.642
ProbeTrack13	10	ProbeTrack	13.2	SCS215a	20111104.134354	20111104.135434	8	0.013317	60	10	60-180	60	129	GapExp	Blank	0	82	2	45	0	distractor	1	510	745	70061	13.328	12.825	13.840
ProbeTrack13	10	ProbeTrack	13.2	SCS215a	20111104.134354	20111104.135440	8	0.013317	60	10	60-180	60	75	GapExp	Blank	0	83	2	3	0	distractor	1	746	627	70688	13.328	13.304	13.348
ProbeTrack13	10	ProbeTrack	13.2	SCS215a	20111104.134354	20111104.135446	8	0.013317	60	10	60-180	60	143	GapExp	Blank	0	84	2	0	0	distractor	1	495	753	71441	13.328	11.772	14.579
ProbeTrack13	10	ProbeTrack	13.2	SCS215a	20111104.134354	20111104.135453	8	0.013317	60	10	60-180	60	174	GapExp	Blank	0	85	2	0	1	target	1	489	756	72197	13.328	13.309	13.345
ProbeTrack13	10	ProbeTrack	13.2	SCS215a	20111104.134354	20111104.135500	8	0.013317	60	10	60-180	60	76	GapExp	Blank	0	86	2	3	0	distractor	1	574	713	72910	13.328	13.305	13.353
ProbeTrack13	10	ProbeTrack	13.2	SCS215a	20111104.134354	20111104.135507	8	0.013317	60	10	60-180	60	122	GapExp	Blank	0	87	2	3	1	distractor	0	523	-1000	71910	13.328	13.306	13.348
ProbeTrack13	10	ProbeTrack	13.2	SCS215a	20111104.134354	20111104.135513	8	0.013317	60	10	60-180	60	169	GapExp	Blank	0	88	2	45	0	distractor	1	625	688	72598	13.328	9.213	20.700
ProbeTrack13	10	ProbeTrack	13.2	SCS215a	20111104.134354	20111104.135521	8	0.013317	60	10	60-180	60	155	GapExp	Blank	0	89	2	1	1	target	1	495	753	73351	13.318	10.755	15.029
ProbeTrack13	10	ProbeTrack	13.2	SCS215a	20111104.134354	20111104.135527	8	0.013317	60	10	60-180	60	163	GapExp	Blank	0	90	2	1	0	distractor	1	540	730	74081	13.328	13.307	13.348
ProbeTrack13	10	ProbeTrack	13.2	SCS215a	20111104.134354	20111104.135534	8	0.013317	60	10	60-180	60	165	GapExp	Blank	0	91	2	3	1	target	1	341	830	74911	13.328	12.889	13.768
ProbeTrack13	10	ProbeTrack	13.2	SCS215a	20111104.134354	20111104.135541	8	0.013317	60	10	60-180	60	160	GapExp	Blank	0	92	2	45	1	target	1	475	763	75674	13.328	13.308	13.347
ProbeTrack13	10	ProbeTrack	13.2	SCS215a	20111104.134354	20111104.135548	8	0.013317	60	10	60-180	60	130	GapExp	Blank	0	93	2	0	0	distractor	1	515	743	76417	13.328	9.438	17.211
ProbeTrack13	10	ProbeTrack	13.2	SCS215a	20111104.134354	20111104.135555	8	0.013317	60	10	60-180	60	167	GapExp	Blank	0	94	2	3	0	distractor	1	510	745	77162	13.328	9.518	17.139
ProbeTrack13	10	ProbeTrack	13.2	SCS215a	20111104.134354	20111104.135601	8	0.013317	60	10	60-180	60	143	GapExp	Blank	0	95	2	3	0	distractor	1	626	687	77849	13.328	13.312	13.348
ProbeTrack13	10	ProbeTrack	13.2	SCS215a	20111104.134354	20111104.135608	8	0.013317	60	10	60-180	60	130	GapExp	Blank	0	96	2	1	0	distractor	1	520	740	78589	13.328	10.780	15.882
ProbeTrack13	10	ProbeTrack	13.2	SCS215a	20111104.134354	20111104.135615	8	0.013317	60	10	60-180	60	150	GapExp	Blank	0	97	2	0	0	distractor	1	539	731	79320	13.328	13.300	13.346
ProbeTrack13	10	ProbeTrack	13.2	SCS215a	20111104.134354	20111104.135621	8	0.013317	60	10	60-180	60	88	GapExp	Blank	0	98	2	45	1	distractor	0	406	-1000	78320	13.328	13.091	13.572
ProbeTrack13	10	ProbeTrack	13.2	SCS215a	20111104.134354	20111104.135628	8	0.013317	60	10	60-180	60	63	GapExp	Blank	0	99	2	45	1	target	1	448	776	79096	13.328	9.053	17.589
ProbeTrack13	10	ProbeTrack	13.2	SCS215a	20111104.134354	20111104.135634	8	0.013317	60	10	60-180	60	62	GapExp	Blank	0	100	2	3	1	target	1	425	788	79884	13.328	12.776	13.877
ProbeTrack13	10	ProbeTrack	13.2	SCS215a	20111104.134354	20111104.135640	8	0.013317	60	10	60-180	60	176	GapExp	Blank	0	101	2	3	0	distractor	1	552	724	80608	13.328	13.092	13.563
ProbeTrack13	10	ProbeTrack	13.2	SCS215a	20111104.134354	20111104.135648	8	0.013317	60	10	60-180	60	179	GapExp	Blank	0	102	2	0	1	distractor	0	354	-1000	79608	13.328	13.111	13.552
ProbeTrack13	10	ProbeTrack	13.2	SCS215a	20111104.134354	20111104.135655	8	0.013317	60	10	60-180	60	107	GapExp	Blank	0	103	2	3	0	distractor	1	704	648	80256	13.328	8.221	18.431
ProbeTrack13	10	ProbeTrack	13.2	SCS215a	20111104.134354	20111104.135701	8	0.013317	60	10	60-180	60	171	GapExp	Blank	0	104	2	1	1	target	1	360	820	81076	13.328	13.309	13.347
ProbeTrack13	10	ProbeTrack	13.2	SCS215a	20111104.134354	20111104.135708	8	0.013317	60	10	60-180	60	130	GapExp	Blank	0	105	2	0	0	target	0	426	-1000	80076	13.328	11.338	15.327
ProbeTrack13	10	ProbeTrack	13.2	SCS215a	20111104.134354	20111104.135714	8	0.013317	60	10	60-180	60	61	GapExp	Blank	0	106	2	1	0	distractor	1	579	711	80787	13.328	13.309	13.349
ProbeTrack13	10	ProbeTrack	13.2	SCS215a	20111104.134354	20111104.135720	8	0.013317	60	10	60-180	60	162	GapExp	Blank	0	107	2	0	1	target	1	511	745	81532	13.328	13.307	13.344
ProbeTrack13	10	ProbeTrack	13.2	SCS215a	20111104.134354	20111104.135727	8	0.013317	60	10	60-180	60	156	GapExp	Blank	0	108	2	3	1	target	1	441	780	82312	13.328	10.099	16.545
ProbeTrack13	10	ProbeTrack	13.2	SCS215a	20111104.134354	20111104.135733	8	0.013317	60	10	60-180	60	164	GapExp	Blank	0	109	2	1	0	distractor	1	526	737	83049	13.328	13.307	13.347
ProbeTrack13	10	ProbeTrack	13.2	SCS215a	20111104.134354	20111104.135740	8	0.013317	60	10	60-180	60	119	GapExp	Blank	0	110	2	0	1	target	1	436	782	83831	13.328	10.887	15.753
ProbeTrack13	10	ProbeTrack	13.2	SCS215a	20111104.134354	20111104.135746	8	0.013317	60	10	60-180	60	173	GapExp	Blank	0	111	2	0	0	distractor	1	541	730	84561	13.328	11.403	15.254
ProbeTrack13	10	ProbeTrack	13.2	SCS215a	20111104.134354	20111104.135754	8	0.013317	60	10	60-180	60	116	GapExp	Blank	0	112	2	3	0	distractor	1	520	740	85301	13.328	12.852	13.806
ProbeTrack13	10	ProbeTrack	13.2	SCS215a	20111104.134354	20111104.135800	8	0.013317	60	10	60-180	60	81	GapExp	Blank	0	113	2	45	1	target	1	492	754	86055	13.328	13.310	13.346
ProbeTrack13	10	ProbeTrack	13.2	SCS215a	20111104.134354	20111104.135806	8	0.013317	60	10	60-180	60	64	GapExp	Blank	0	114	2	45	1	target	1	421	790	86845	13.328	9.346	13.591
ProbeTrack13	10	ProbeTrack	13.2	SCS215a	20111104.134354	20111104.135812	8	0.013317	60	10	60-180	60	71	GapExp	Blank	0	115	2	3	0	distractor	1	576	712	87557	13.328	12.780	13.876
ProbeTrack13	10	ProbeTrack	13.2	SCS215a	20111104.134354	20111104.135817	8	0.013317	60	10	60-180	60	91	GapExp	Blank	0	116	2	1	1	target	1	416	792	88349	13.328	13.308	13.349
ProbeTrack13	10	ProbeTrack	13.2	SCS215a	20111104.134354	20111104.135823	8	0.013317	60	10	60-180	60	85	GapExp	Blank	0	117	2	3	0	distractor	1	473	764	89113	13.328	13.098	13.570
ProbeTrack13	10	ProbeTrack	13.2	SCS215a	20111104.134354	20111104.135832	8	0.013317	60	10	60-180	60	180	GapExp	Blank	0	118	2	45	0	distractor	1	565	718	89831	13.328	13.090	13.571
ProbeTrack13	10	ProbeTrack	13.2	SCS215a	20111104.134354	20111104.135839	8	0.013317	60	10	60-180	60	178	GapExp	Blank	0	119	2	1	0	distractor	1	467	767	90598	13.328	12.917	13.742
ProbeTrack13	10	ProbeTrack	13.2	SCS215a	20111104.134354	20111104.135847	8	0.013317	60	10	60-180	60	115	GapExp	Blank	0	120	2	1	0	distractor	1	540	730	91328	13.328	13.119	13.550
ProbeTrack13	10	ProbeTrack	13.2	SCS215a	20111104.134354	20111104.135854	8	0.013317	60	10	60-180	60	172	GapExp	Blank	0	121	2	45	0	distractor	1	538	731	92059	13.328	13.100	13.542
ProbeTrack13	10	ProbeTrack	13.2	SCS215a	20111104.134354	20111104.135901	8	0.013317	60	10	60-180	60	113	GapExp	Blank	0	122	2	3	1	target	1	567	717	92776	13.328	9.392	17.272
ProbeTrack13	10	ProbeTrack	13.2	SCS215a	20111104.134354	20111104.135908	8	0.013317	60	10	60-180	60	118	GapExp	Blank	0	123	2	3	1	target	1	497	752	93528	13.328	13.099	13.569
ProbeTrack13	10	ProbeTrack	13.2	SCS215a	20111104.134354	20111104.135914	8	0.013317	60	10	60-180	60	141	GapExp	Blank	0	124	2	0	1	target	1	436	782	94310	13.328	13.291	13.357
ProbeTrack13	10	ProbeTrack	13.2	SCS215a	20111104.134354	20111104.135921	8	0.013317	60	10	60-180	60	168	GapExp	Blank	0	125	2	45	1	distractor	0	420	-1000	93310	13.328	5.667	20.982
ProbeTrack13	10	ProbeTrack	13.2	SCS215a	20111104.134354	20111104.135928	8	0.013317	60	10	60-180	60	129	GapExp	Blank	0	126	2	1	0	distractor	1	564	718	94028	13.328	13.104	13.557
ProbeTrack13	10	ProbeTrack	13.2	SCS215a	20111104.134354	20111104.135935	8	0.013317	60	10	60-180	60	133	GapExp	Blank	0	127	2	1	0	target	0	481	-1000	93028	13.328	13.093	13.557
ProbeTrack13	10	ProbeTrack	13.2	SCS215a	20111104.134354	20111104.135942	8	0.013317	60	10	60-180	60	152	GapExp	Blank	0	128	2	0	1	target	1	584	708	93736	13.328	8.461	18.202
ProbeTrack13	10	ProbeTrack	13.2	SCS215a	20111104.134354	20111104.135949	8	0.013317	60	10	60-180	60	122	GapExp	Blank	0	129	2	1	0	distractor	1	606	697	94433	13.328	13.301	13.347
ProbeTrack13	10	ProbeTrack	13.2	SCS215a	20111104.134354	20111104.135955	8	0.013317	60	10	60-180	60	61	GapExp	Blank	0	130	2	3	1	target	1	478	761	95194	13.328	13.312	13.350
ProbeTrack13	10	ProbeTrack	13.2	SCS215a	20111104.134354	20111104.140001	8	0.013317	60	10	60-180	60	117	GapExp	Blank	0	131	2	3	0	target	0	387	-1000	94194	13.328	13.304	13.353
ProbeTrack13	10	ProbeTrack	13.2	SCS215a	20111104.134354	20111104.140008	8	0.013317	60	10	60-180	60	141	GapExp	Blank	0	132	2	1	0	distractor	1	424	788	94982	13.329	13.059	13.607
ProbeTrack13	10	ProbeTrack	13.2	SCS215a	20111104.134354	20111104.140016	8	0.013317	60	10	60-180	60	61	GapExp	Blank	0	133	2	0	0	distractor	1	608	696	95678	13.328	13.099	13.558
ProbeTrack13	10	ProbeTrack	13.2	SCS215a	20111104.134354	20111104.140023	8	0.013317	60	10	60-180	60	127	GapExp	Blank	0	134	2	3	1	target	1	352	824	96502	13.328	13.308	13.347
ProbeTrack13	10	ProbeTrack	13.2	SCS215a	20111104.134354	20111104.140030	8	0.013317	60	10	60-180	60	136	GapExp	Blank	0	135	2	45	0	distractor	1	513	744	97246	13.328	13.112	13.556
ProbeTrack13	10	ProbeTrack	13.2	SCS215a	20111104.134354	20111104.140038	8	0.013317	60	10	60-180	60	105	GapExp	Blank	0	136	2	3	1	target	1	377	812	98058	13.328	13.098	13.564
ProbeTrack13	10	ProbeTrack	13.2	SCS215a	20111104.134354	20111104.140044	8	0.013317	60	10	60-180	60	175	GapExp	Blank	0	137	2	3	0	distractor	1	499	751	98809	13.328	4.906	21.737
ProbeTrack13	10	ProbeTrack	13.2	SCS215a	20111104.134354	20111104.140051	8	0.013317	60	10	60-180	60	74	GapExp	Blank	0	138	2	45	1	distractor	0	388	-1000	97809	13.328	13.091	13.552
ProbeTrack13	10	ProbeTrack	13.2	SCS215a	20111104.134354	20111104.140058	8	0.013317	60	10	60-180	60	144	GapExp	Blank	0	139	2	0	0	distractor	1	565	718	98527	13.328	13.105	13.565
ProbeTrack13	10	ProbeTrack	13.2	SCS215a	20111104.134354	20111104.140106	8	0.013317	60	10	60-180	60	84	GapExp	Blank	0	140	2	1	1	target	1	374	813	99340	13.328	11.913	14.742
ProbeTrack13	10	ProbeTrack	13.2	SCS215a	20111104.134354	20111104.140112	8	0.013317	60	10	60-180	60	105	GapExp	Blank	0	141	2	45	1	target	1	415	793	100133	13.328	10.774	15.868
ProbeTrack13	10	ProbeTrack	13.2	SCS215a	20111104.134354	20111104.140118	8	0.013317	60	10	60-180	60	104	GapExp	Blank	0	142	2	1	1	target	1	459	771	100904	13.328	8.112	18.538
ProbeTrack13	10	ProbeTrack	13.2	SCS215a	20111104.134354	20111104.140126	8	0.013317	60	10	60-180	60	135	GapExp	Blank	0	143	2	3	1	target	1	286	857	101761	13.328	8.163	18.479
ProbeTrack13	10	ProbeTrack	13.2	SCS215a	20111104.134354	20111104.140132	8	0.013317	60	10	60-180	60	124	GapExp	Blank	0	144	2	45	1	target	1	393	804	102565	13.328	9.314	17.342
ProbeTrack13	10	ProbeTrack	13.2	SCS215a	20111104.134354	20111104.140138	8	0.013317	60	10	60-180	60	170	GapExp	Blank	0	145	2	1	0	distractor	1	499	751	103316	13.328	13.309	13.345
ProbeTrack13	10	ProbeTrack	13.2	SCS215a	20111104.134354	20111104.140145	8	0.013317	60	10	60-180	60	116	GapExp	Blank	0	146	2	1	1	target	1	373	814	104130	13.328	8.383	18.262
ProbeTrack13	10	ProbeTrack	13.2	SCS215a	20111104.134354	20111104.140151	8	0.013317	60	10	60-180	60	178	GapExp	Blank	0	147	2	45	0	distractor	1	385	808	104938	13.328	10.971	15.690
ProbeTrack13	10	ProbeTrack	13.2	SCS215a	20111104.134354	20111104.140159	8	0.013317	60	10	60-180	60	101	GapExp	Blank	0	148	2	0	1	target	1	394	803	105741	13.328	9.363	17.299
ProbeTrack13	10	ProbeTrack	13.2	SCS215a	20111104.134354	20111104.140205	8	0.013317	60	10	60-180	60	114	GapExp	Blank	0	149	2	1	0	distractor	1	487	757	106498	13.328	4.251	20.096
ProbeTrack13	10	ProbeTrack	13.2	SCS215a	20111104.134354	20111104.140211	8	0.013317	60	10	60-180	60	105	GapExp	Blank	0	150	2	0	0	distractor	1	494	753	107251	13.328	13.096	13.557
ProbeTrack13	10	ProbeTrack	13.2	SCS215a	20111104.134354	20111104.140217	8	0.013317	60	10	60-180	60	81	GapExp	Blank	0	151	2	45	0	distractor	1	338	831	108082	13.328	9.448	17.195
ProbeTrack13	10	ProbeTrack	13.2	SCS215a	20111104.134354	20111104.140223	8	0.013317	60	10	60-180	60	87	GapExp	Blank	0	152	2	45	1	distractor	0	341	-1000	107082	13.323	12.074	13.546
ProbeTrack13	10	ProbeTrack	13.2	SCS215a	20111104.134354	20111104.140229	8	0.013317	60	10	60-180	60	138	GapExp	Blank	0	153	2	45	1	target	1	350	825	107907	13.328	13.099	13.549
ProbeTrack13	10	ProbeTrack	13.2	SCS215a	20111104.134354	20111104.140239	8	0.013317	60	10	60-180	60	61	GapExp	Blank	0	154	2	45	0	distractor	1	599	701	108608	13.327	11.969	14.701
ProbeTrack13	10	ProbeTrack	13.2	SCS215a	20111104.134354	20111104.140245	8	0.013317	60	10	60-180	60	138	GapExp	Blank	0	155	2	0	1	target	1	467	767	109375	13.328	13.099	13.557
ProbeTrack13	10	ProbeTrack	13.2	SCS215a	20111104.134354	20111104.140251	8	0.013317	60	10	60-180	60	105	GapExp	Blank	0	156	2	1	0	target	0	603	-1000	108375	13.328	7.787	18.867
ProbeTrack13	10	ProbeTrack	13.2	SCS215a	20111104.134354	20111104.140258	8	0.013317	60	10	60-180	60	64	GapExp	Blank	0	157	2	45	1	distractor	0	347	-1000	107375	13.328	13.301	13.358
ProbeTrack13	10	ProbeTrack	13.2	SCS215a	20111104.134354	20111104.140308	8	0.013317	60	10	60-180	60	61	GapExp	Blank	0	158	2	1	1	target	1	357	822	108197	13.328	13.308	13.343
ProbeTrack13	10	ProbeTrack	13.2	SCS215a	20111104.134354	20111104.140320	8	0.013317	60	10	60-180	60	175	GapExp	Blank	0	159	2	0	1	target	1	398	801	108998	13.328	13.092	13.570
ProbeTrack13	10	ProbeTrack	13.2	SCS215a	20111104.134354	20111104.140326	8	0.013317	60	10	60-180	60	164	GapExp	Blank	0	160	2	1	1	target	1	380	810	109808	13.328	13.085	13.556
ProbeTrack13	10	ProbeTrack	13.2	SCS215a	20111104.134354	20111104.140334	8	0.013317	60	10	60-180	60	131	GapExp	Blank	0	161	2	3	0	distractor	1	612	694	110502	13.328	10.513	16.141
ProbeTrack13	10	ProbeTrack	13.2	SCS215a	20111104.134354	20111104.140340	8	0.013317	60	10	60-180	60	66	GapExp	Blank	0	162	2	1	0	target	0	372	-1000	109502	13.328	11.321	15.347
ProbeTrack13	10	ProbeTrack	13.2	SCS215a	20111104.134354	20111104.140346	8	0.013317	60	10	60-180	60	85	GapExp	Blank	0	163	2	0	0	distractor	1	502	749	110251	13.328	13.298	13.358
ProbeTrack13	10	ProbeTrack	13.2	SCS215a	20111104.134354	20111104.140352	8	0.013317	60	10	60-180	60	89	GapExp	Blank	0	164	2	1	1	target	1	524	738	110989	13.328	10.810	15.859
ProbeTrack13	10	ProbeTrack	13.2	SCS215a	20111104.134354	20111104.140358	8	0.013317	60	10	60-180	60	92	GapExp	Blank	0	165	2	1	1	target	1	390	805	111794	13.328	8.709	17.945
ProbeTrack13	10	ProbeTrack	13.2	SCS215a	20111104.134354	20111104.140404	8	0.013317	60	10	60-180	60	94	GapExp	Blank	0	166	2	0	0	distractor	1	535	733	112527	13.328	10.360	16.300
ProbeTrack13	10	ProbeTrack	13.2	SCS215a	20111104.134354	20111104.140411	8	0.013317	60	10	60-180	60	102	GapExp	Blank	0	167	2	3	0	distractor	1	517	742	113269	13.328	13.199	13.466
ProbeTrack13	10	ProbeTrack	13.2	SCS215a	20111104.134354	20111104.140418	8	0.013317	60	10	60-180	60	131	GapExp	Blank	0	168	2	0	0	distractor	1	582	709	113978	13.328	13.309	13.346
ProbeTrack13	10	ProbeTrack	13.2	SCS215a	20111104.134354	20111104.140424	8	0.013317	60	10	60-180	60	140	GapExp	Blank	0	169	2	0	1	target	1	482	759	114737	13.328	10.351	16.316
ProbeTrack13	10	ProbeTrack	13.2	SCS215a	20111104.134354	20111104.140446	8	0.013317	60	10	60-180	60	116	GapExp	Blank	0	170	2	3	0	distractor	1	432	784	115521	13.328	13.303	13.344
ProbeTrack13	10	ProbeTrack	13.2	SCS215a	20111104.134354	20111104.140452	8	0.013317	60	10	60-180	60	75	GapExp	Blank	0	171	2	45	1	distractor	0	415	-1000	114521	13.328	10.866	15.777
ProbeTrack13	10	ProbeTrack	13.2	SCS215a	20111104.134354	20111104.140458	8	0.013317	60	10	60-180	60	61	GapExp	Blank	0	172	2	3	0	distractor	1	537	732	115253	13.328	13.093	13.564
ProbeTrack13	10	ProbeTrack	13.2	SCS215a	20111104.134354	20111104.140504	8	0.013317	60	10	60-180	60	110	GapExp	Blank	0	173	2	1	1	target	1	508	746	115999	13.328	4.924	21.732
ProbeTrack13	10	ProbeTrack	13.2	SCS215a	20111104.134354	20111104.140510	8	0.013317	60	10	60-180	60	151	GapExp	Blank	0	174	2	0	0	target	0	498	-1000	114999	13.328	13.310	13.344
ProbeTrack13	10	ProbeTrack	13.2	SCS215a	20111104.134354	20111104.140517	8	0.013317	60	10	60-180	60	133	GapExp	Blank	0	175	2	0	1	target	1	410	795	115794	13.328	13.099	13.563
ProbeTrack13	10	ProbeTrack	13.2	SCS215a	20111104.134354	20111104.140524	8	0.013317	60	10	60-180	60	150	GapExp	Blank	0	176	2	1	0	distractor	1	769	616	116410	13.328	13.309	13.348
ProbeTrack13	10	ProbeTrack	13.2	SCS215a	20111104.134354	20111104.140530	8	0.013317	60	10	60-180	60	162	GapExp	Blank	0	177	2	3	1	target	1	345	828	117238	13.328	13.056	13.615
ProbeTrack13	10	ProbeTrack	13.2	SCS215a	20111104.134354	20111104.140538	8	0.013317	60	10	60-180	60	134	GapExp	Blank	0	178	2	45	0	distractor	1	582	709	117947	13.328	12.174	14.489
ProbeTrack13	10	ProbeTrack	13.2	SCS215a	20111104.134354	20111104.140545	8	0.013317	60	10	60-180	60	86	GapExp	Blank	0	179	2	1	1	target	1	389	806	118753	13.328	9.543	17.111
ProbeTrack13	10	ProbeTrack	13.2	SCS215a	20111104.134354	20111104.140551	8	0.013317	60	10	60-180	60	176	GapExp	Blank	0	180	2	0	0	distractor	1	536	732	119485	13.328	13.308	13.348
ProbeTrack13	10	ProbeTrack	13.2	SCS215a	20111104.134354	20111104.140558	8	0.013317	60	10	60-180	60	91	GapExp	Blank	0	181	2	1	1	target	1	415	793	120278	13.328	13.308	13.348
ProbeTrack13	10	ProbeTrack	13.2	SCS215a	20111104.134354	20111104.140604	8	0.013317	60	10	60-180	60	62	GapExp	Blank	0	182	2	3	0	distractor	1	484	758	121036	13.328	13.308	13.348
ProbeTrack13	10	ProbeTrack	13.2	SCS215a	20111104.134354	20111104.140610	8	0.013317	60	10	60-180	60	141	GapExp	Blank	0	183	2	0	0	distractor	1	419	791	121827	13.328	13.121	13.544
ProbeTrack13	10	ProbeTrack	13.2	SCS215a	20111104.134354	20111104.140616	8	0.013317	60	10	60-180	60	150	GapExp	Blank	0	184	2	1	1	distractor	0	352	-1000	120827	13.328	7.345	19.310
ProbeTrack13	10	ProbeTrack	13.2	SCS215a	20111104.134354	20111104.140623	8	0.013317	60	10	60-180	60	132	GapExp	Blank	0	185	2	0	0	target	0	570	-1000	119827	13.328	13.107	13.543
ProbeTrack13	10	ProbeTrack	13.2	SCS215a	20111104.134354	20111104.140629	8	0.013317	60	10	60-180	60	135	GapExp	Blank	0	186	2	3	1	target	1	582	709	120536	13.328	9.134	17.516
ProbeTrack13	10	ProbeTrack	13.2	SCS215a	20111104.134354	20111104.140638	8	0.013317	60	10	60-180	60	72	GapExp	Blank	0	187	2	3	0	distractor	1	556	722	121258	13.328	13.304	13.346
ProbeTrack13	10	ProbeTrack	13.2	SCS215a	20111104.134354	20111104.140643	8	0.013317	60	10	60-180	60	84	GapExp	Blank	0	188	2	1	1	target	1	363	819	122077	13.328	13.301	13.361
ProbeTrack13	10	ProbeTrack	13.2	SCS215a	20111104.134354	20111104.140747	8	0.013317	60	10	60-180	60	85	GapExp	Blank	0	189	2	45	0	distractor	1	364	818	122895	13.328	13.106	13.563
ProbeTrack13	10	ProbeTrack	13.2	SCS215a	20111104.134354	20111104.140754	8	0.013317	60	10	60-180	60	97	GapExp	Blank	0	190	2	45	0	target	0	442	-1000	121895	13.328	8.945	17.710
ProbeTrack13	10	ProbeTrack	13.2	SCS215a	20111104.134354	20111104.140801	8	0.013317	60	10	60-180	60	165	GapExp	Blank	0	191	2	45	1	target	1	532	734	122629	13.328	13.099	13.555
ProbeTrack13	10	ProbeTrack	13.2	SCS215a	20111104.134354	20111104.140809	8	0.013317	60	10	60-180	60	82	GapExp	Blank	0	192	2	45	0	distractor	1	388	806	123435	13.328	11.073	15.599
ProbeTrack13	10	ProbeTrack	13.2	SCS215a	20111104.134354	20111104.140815	8	0.013317	60	10	60-180	60	90	GapExp	Blank	0	193	2	45	0	target	0	451	-1000	122435	13.328	13.307	13.353
ProbeTrack13	10	ProbeTrack	13.2	SCS215a	20111104.134354	20111104.140821	8	0.013317	60	10	60-180	60	82	GapExp	Blank	0	194	2	45	0	distractor	1	432	784	123219	13.328	13.104	13.550
ProbeTrack13	10	ProbeTrack	13.2	SCS215a	20111104.134354	20111104.140827	8	0.013317	60	10	60-180	60	113	GapExp	Blank	0	195	2	1	0	distractor	1	519	741	123960	13.328	13.092	13.550
ProbeTrack13	10	ProbeTrack	13.2	SCS215a	20111104.134354	20111104.140833	8	0.013317	60	10	60-180	60	90	GapExp	Blank	0	196	2	3	1	target	1	462	769	124729	13.328	13.309	13.349
ProbeTrack13	10	ProbeTrack	13.2	SCS215a	20111104.134354	20111104.140839	8	0.013317	60	10	60-180	60	80	GapExp	Blank	0	197	2	0	0	distractor	1	560	720	125449	13.328	13.306	13.353
ProbeTrack13	10	ProbeTrack	13.2	SCS215a	20111104.134354	20111104.140846	8	0.013317	60	10	60-180	60	144	GapExp	Blank	0	198	2	0	0	target	0	510	-1000	124449	13.328	8.525	18.135
ProbeTrack13	10	ProbeTrack	13.2	SCS215a	20111104.134354	20111104.140853	8	0.013317	60	10	60-180	60	112	GapExp	Blank	0	199	2	1	0	distractor	1	489	756	125205	13.328	13.308	13.350
ProbeTrack13	10	ProbeTrack	13.2	SCS215a	20111104.134354	20111104.140859	8	0.013317	60	10	60-180	60	79	GapExp	Blank	0	200	2	0	1	target	1	435	783	125988	13.328	13.308	13.343
ProbeTrack13	10	ProbeTrack	13.2	SCS215a	20111104.140946	20111104.141019	8	0.013328	60	10	60-180	60	77	GapPrac	BigFlash	1	1	2	45	1	target	1	488	756	126744	13.382	9.804	16.839
ProbeTrack13	10	ProbeTrack	13.2	SCS215a	20111104.140946	20111104.141027	8	0.013328	60	10	60-180	60	123	GapPrac	BigFlash	1	2	2	1	0	distractor	1	602	699	127443	13.328	13.307	13.345
ProbeTrack13	10	ProbeTrack	13.2	SCS215a	20111104.140946	20111104.141034	8	0.013328	60	10	60-180	60	165	GapPrac	BigFlash	1	3	2	0	0	distractor	1	756	622	128065	13.328	13.092	13.557
ProbeTrack13	10	ProbeTrack	13.2	SCS215a	20111104.140946	20111104.141041	8	0.013328	60	10	60-180	60	164	GapPrac	BigFlash	1	4	2	45	0	distractor	1	464	768	128833	13.328	6.708	19.939
ProbeTrack13	10	ProbeTrack	13.2	SCS215a	20111104.140946	20111104.141048	8	0.013328	60	10	60-180	60	154	GapPrac	BigFlash	1	5	2	1	0	distractor	1	485	758	129591	13.328	10.333	16.329
ProbeTrack13	10	ProbeTrack	13.2	SCS215a	20111104.140946	20111104.141055	8	0.013328	60	10	60-180	60	163	GapPrac	BigFlash	1	6	2	1	0	distractor	1	456	772	130363	13.328	13.107	13.540
ProbeTrack13	10	ProbeTrack	13.2	SCS215a	20111104.140946	20111104.141102	8	0.013328	60	10	60-180	60	125	GapPrac	BigFlash	1	7	2	0	0	distractor	1	443	779	131142	13.328	13.110	13.561
ProbeTrack13	10	ProbeTrack	13.2	SCS215a	20111104.140946	20111104.141108	8	0.013328	60	10	60-180	60	163	GapPrac	BigFlash	1	8	2	1	1	target	1	445	778	131920	13.328	13.112	13.544
ProbeTrack13	10	ProbeTrack	13.2	SCS215a	20111104.140946	20111104.141115	8	0.013328	60	10	60-180	60	143	GapPrac	BigFlash	1	9	2	45	0	distractor	1	448	776	132696	13.328	12.340	14.320
ProbeTrack13	10	ProbeTrack	13.2	SCS215a	20111104.140946	20111104.141122	8	0.013328	60	10	60-180	60	95	GapPrac	BigFlash	1	10	2	45	1	target	1	407	797	133493	13.328	7.658	19.011
ProbeTrack13	10	ProbeTrack	13.2	SCS215a	20111104.140946	20111104.141129	8	0.013328	60	10	60-180	60	123	GapPrac	BigFlash	1	11	2	3	1	target	1	360	820	134313	13.328	12.896	13.755
ProbeTrack13	10	ProbeTrack	13.2	SCS215a	20111104.140946	20111104.141135	8	0.013328	60	10	60-180	60	106	GapPrac	BigFlash	1	12	2	0	1	target	1	455	773	135086	13.328	13.228	13.417
ProbeTrack13	10	ProbeTrack	13.2	SCS215a	20111104.140946	20111104.141141	8	0.013328	60	10	60-180	60	63	GapPrac	BigFlash	1	13	2	0	0	distractor	1	537	732	135818	13.328	4.159	22.510
ProbeTrack13	10	ProbeTrack	13.2	SCS215a	20111104.140946	20111104.141146	8	0.013328	60	10	60-180	60	122	GapPrac	BigFlash	1	14	2	45	0	distractor	1	487	757	136575	13.328	13.306	13.345
ProbeTrack13	10	ProbeTrack	13.2	SCS215a	20111104.140946	20111104.141153	8	0.013328	60	10	60-180	60	109	GapPrac	BigFlash	1	15	2	3	1	target	1	426	787	137362	13.328	9.407	17.242
ProbeTrack13	10	ProbeTrack	13.2	SCS215a	20111104.140946	20111104.141159	8	0.013328	60	10	60-180	60	116	GapPrac	BigFlash	1	16	2	3	0	distractor	1	488	756	138118	13.328	13.105	13.557
ProbeTrack13	10	ProbeTrack	13.2	SCS215a	20111104.140946	20111104.141205	8	0.013328	60	10	60-180	60	121	GapPrac	BigFlash	1	17	2	0	1	target	1	425	788	138906	13.315	10.346	14.635
ProbeTrack13	10	ProbeTrack	13.2	SCS215a	20111104.140946	20111104.141211	8	0.013328	60	10	60-180	60	108	GapPrac	BigFlash	1	18	2	45	1	target	1	533	734	139640	13.328	6.182	20.483
ProbeTrack13	10	ProbeTrack	13.2	SCS215a	20111104.140946	20111104.141218	8	0.013328	60	10	60-180	60	135	GapPrac	BigFlash	1	19	2	3	0	distractor	1	495	753	140393	13.328	7.731	19.001
ProbeTrack13	10	ProbeTrack	13.2	SCS215a	20111104.140946	20111104.141224	8	0.013328	60	10	60-180	60	144	GapPrac	BigFlash	1	20	2	1	1	target	1	382	809	141202	13.328	13.114	13.537
ProbeTrack13	10	ProbeTrack	13.2	SCS215a	20111104.141301	20111104.141312	8	0.013327	60	10	60-180	60	133	GapExp	BigFlash	1	1	2	0	0	distractor	1	402	799	142001	13.381	13.300	13.348
ProbeTrack13	10	ProbeTrack	13.2	SCS215a	20111104.141301	20111104.141320	8	0.013327	60	10	60-180	60	124	GapExp	BigFlash	1	2	2	45	0	distractor	1	423	789	142790	13.328	13.143	13.470
ProbeTrack13	10	ProbeTrack	13.2	SCS215a	20111104.141301	20111104.141326	8	0.013327	60	10	60-180	60	94	GapExp	BigFlash	1	3	2	0	1	target	1	395	803	143593	13.328	13.304	13.366
ProbeTrack13	10	ProbeTrack	13.2	SCS215a	20111104.141301	20111104.141332	8	0.013327	60	10	60-180	60	96	GapExp	BigFlash	1	4	2	3	0	distractor	1	412	794	144387	13.328	13.308	13.347
ProbeTrack13	10	ProbeTrack	13.2	SCS215a	20111104.141301	20111104.141337	8	0.013327	60	10	60-180	60	143	GapExp	BigFlash	1	5	2	45	1	distractor	0	360	-1000	143387	13.328	13.114	13.541
ProbeTrack13	10	ProbeTrack	13.2	SCS215a	20111104.141301	20111104.141344	8	0.013327	60	10	60-180	60	112	GapExp	BigFlash	1	6	2	1	1	target	1	429	786	144173	13.328	13.095	13.561
ProbeTrack13	10	ProbeTrack	13.2	SCS215a	20111104.141301	20111104.141351	8	0.013327	60	10	60-180	60	111	GapExp	BigFlash	1	7	2	1	0	distractor	1	526	737	144910	13.328	13.099	13.556
ProbeTrack13	10	ProbeTrack	13.2	SCS215a	20111104.141301	20111104.141357	8	0.013327	60	10	60-180	60	153	GapExp	BigFlash	1	8	2	3	1	target	1	487	757	145667	13.328	11.852	14.791
ProbeTrack13	10	ProbeTrack	13.2	SCS215a	20111104.141301	20111104.141403	8	0.013327	60	10	60-180	60	71	GapExp	BigFlash	0	9	2	1	0	distractor	1	602	699	146366	13.328	13.112	13.550
ProbeTrack13	10	ProbeTrack	13.2	SCS215a	20111104.141301	20111104.141409	8	0.013327	60	10	60-180	60	100	GapExp	BigFlash	0	10	2	3	1	target	1	403	799	147165	13.328	9.392	17.251
ProbeTrack13	10	ProbeTrack	13.2	SCS215a	20111104.141301	20111104.141414	8	0.013327	60	10	60-180	60	177	GapExp	BigFlash	0	11	2	3	0	distractor	1	553	724	147889	13.328	7.135	19.507
ProbeTrack13	10	ProbeTrack	13.2	SCS215a	20111104.141301	20111104.141422	8	0.013327	60	10	60-180	60	123	GapExp	BigFlash	0	12	2	0	0	distractor	1	451	775	148664	13.328	13.301	13.355
ProbeTrack13	10	ProbeTrack	13.2	SCS215a	20111104.141301	20111104.141428	8	0.013327	60	10	60-180	60	147	GapExp	BigFlash	0	13	2	0	0	distractor	1	415	793	149457	13.328	13.306	13.350
ProbeTrack13	10	ProbeTrack	13.2	SCS215a	20111104.141301	20111104.141434	8	0.013327	60	10	60-180	60	124	GapExp	BigFlash	0	14	2	0	0	distractor	1	578	711	150168	13.328	9.954	16.717
ProbeTrack13	10	ProbeTrack	13.2	SCS215a	20111104.141301	20111104.141440	8	0.013327	60	10	60-180	60	140	GapExp	BigFlash	0	15	2	3	0	distractor	1	498	751	150919	13.328	13.086	13.563
ProbeTrack13	10	ProbeTrack	13.2	SCS215a	20111104.141301	20111104.141446	8	0.013327	60	10	60-180	60	135	GapExp	BigFlash	0	16	2	45	1	target	1	475	763	151682	13.328	13.096	13.550
ProbeTrack13	10	ProbeTrack	13.2	SCS215a	20111104.141301	20111104.141454	8	0.013327	60	10	60-180	60	158	GapExp	BigFlash	0	17	2	45	0	distractor	1	512	744	152426	13.328	3.336	23.314
ProbeTrack13	10	ProbeTrack	13.2	SCS215a	20111104.141301	20111104.141501	8	0.013327	60	10	60-180	60	171	GapExp	BigFlash	0	18	2	0	1	target	1	598	701	153127	13.328	13.090	13.564
ProbeTrack13	10	ProbeTrack	13.2	SCS215a	20111104.141301	20111104.141508	8	0.013327	60	10	60-180	60	99	GapExp	BigFlash	0	19	2	3	1	target	1	442	779	153906	13.328	12.229	14.426
ProbeTrack13	10	ProbeTrack	13.2	SCS215a	20111104.141301	20111104.141514	8	0.013327	60	10	60-180	60	117	GapExp	BigFlash	0	20	2	0	0	distractor	1	536	732	154638	13.328	4.621	22.039
ProbeTrack13	10	ProbeTrack	13.2	SCS215a	20111104.141301	20111104.141520	8	0.013327	60	10	60-180	60	158	GapExp	BigFlash	0	21	2	3	1	target	1	408	796	155434	13.328	5.858	20.797
ProbeTrack13	10	ProbeTrack	13.2	SCS215a	20111104.141301	20111104.141527	8	0.013327	60	10	60-180	60	61	GapExp	BigFlash	0	22	2	0	0	distractor	1	592	704	156138	13.328	13.306	13.348
ProbeTrack13	10	ProbeTrack	13.2	SCS215a	20111104.141301	20111104.141532	8	0.013327	60	10	60-180	60	125	GapExp	BigFlash	0	23	2	0	1	target	1	451	775	156913	13.328	9.298	17.359
ProbeTrack13	10	ProbeTrack	13.2	SCS215a	20111104.141301	20111104.141538	8	0.013327	60	10	60-180	60	134	GapExp	BigFlash	0	24	2	1	0	distractor	1	527	737	157650	13.328	4.567	22.092
ProbeTrack13	10	ProbeTrack	13.2	SCS215a	20111104.141301	20111104.141544	8	0.013327	60	10	60-180	60	86	GapExp	BigFlash	0	25	2	45	1	target	1	434	783	158433	13.328	8.394	18.261
ProbeTrack13	10	ProbeTrack	13.2	SCS215a	20111104.141301	20111104.141550	8	0.013327	60	10	60-180	60	113	GapExp	BigFlash	0	26	2	0	0	distractor	1	483	759	159192	13.328	13.085	13.570
ProbeTrack13	10	ProbeTrack	13.2	SCS215a	20111104.141301	20111104.141556	8	0.013327	60	10	60-180	60	113	GapExp	BigFlash	0	27	2	3	0	distractor	1	504	748	159940	13.328	13.029	13.642
ProbeTrack13	10	ProbeTrack	13.2	SCS215a	20111104.141301	20111104.141603	8	0.013327	60	10	60-180	60	83	GapExp	BigFlash	0	28	2	1	0	distractor	1	561	720	160660	13.328	13.308	13.347
ProbeTrack13	10	ProbeTrack	13.2	SCS215a	20111104.141301	20111104.141608	8	0.013327	60	10	60-180	60	88	GapExp	BigFlash	0	29	2	45	0	distractor	1	495	753	161413	13.328	13.099	13.556
ProbeTrack13	10	ProbeTrack	13.2	SCS215a	20111104.141301	20111104.141615	8	0.013327	60	10	60-180	60	176	GapExp	BigFlash	0	30	2	0	0	distractor	1	470	765	162178	13.328	13.308	13.349
ProbeTrack13	10	ProbeTrack	13.2	SCS215a	20111104.141301	20111104.141621	8	0.013327	60	10	60-180	60	178	GapExp	BigFlash	0	31	2	1	0	distractor	1	505	748	162926	13.328	10.893	15.757
ProbeTrack13	10	ProbeTrack	13.2	SCS215a	20111104.141301	20111104.141628	8	0.013327	60	10	60-180	60	167	GapExp	BigFlash	0	32	2	45	1	target	1	395	803	163729	13.328	12.724	13.920
ProbeTrack13	10	ProbeTrack	13.2	SCS215a	20111104.141301	20111104.141636	8	0.013327	60	10	60-180	60	175	GapExp	BigFlash	0	33	2	0	1	target	1	372	814	164543	13.328	6.303	20.354
ProbeTrack13	10	ProbeTrack	13.2	SCS215a	20111104.141301	20111104.141715	8	0.013327	60	10	60-180	60	174	GapExp	BigFlash	0	34	2	45	0	distractor	1	591	705	165248	13.328	12.339	14.322
ProbeTrack13	10	ProbeTrack	13.2	SCS215a	20111104.141301	20111104.141722	8	0.013327	60	10	60-180	60	61	GapExp	BigFlash	0	35	2	45	1	target	1	433	784	166032	13.328	13.309	13.346
ProbeTrack13	10	ProbeTrack	13.2	SCS215a	20111104.141301	20111104.141728	8	0.013327	60	10	60-180	60	126	GapExp	BigFlash	0	36	2	3	0	distractor	1	497	752	166784	13.328	13.093	13.563
ProbeTrack13	10	ProbeTrack	13.2	SCS215a	20111104.141301	20111104.141734	8	0.013327	60	10	60-180	60	147	GapExp	BigFlash	0	37	2	45	0	distractor	1	547	727	167511	13.328	13.108	13.552
ProbeTrack13	10	ProbeTrack	13.2	SCS215a	20111104.141301	20111104.141741	8	0.013327	60	10	60-180	60	164	GapExp	BigFlash	0	38	2	3	1	target	1	446	777	168288	13.328	13.302	13.348
ProbeTrack13	10	ProbeTrack	13.2	SCS215a	20111104.141301	20111104.141748	8	0.013327	60	10	60-180	60	93	GapExp	BigFlash	0	39	2	3	1	distractor	0	443	-1000	167288	13.328	8.936	17.736
ProbeTrack13	10	ProbeTrack	13.2	SCS215a	20111104.141301	20111104.141754	8	0.013327	60	10	60-180	60	76	GapExp	BigFlash	0	40	2	0	0	target	0	541	-1000	166288	13.328	13.304	13.345
ProbeTrack13	10	ProbeTrack	13.2	SCS215a	20111104.141301	20111104.141759	8	0.013327	60	10	60-180	60	165	GapExp	BigFlash	0	41	2	3	0	distractor	1	425	788	167076	13.328	13.105	13.543
ProbeTrack13	10	ProbeTrack	13.2	SCS215a	20111104.141301	20111104.141906	8	0.013327	60	10	60-180	60	65	GapExp	BigFlash	0	42	2	45	0	distractor	1	452	774	167850	13.328	13.105	13.536
ProbeTrack13	10	ProbeTrack	13.2	SCS215a	20111104.141301	20111104.141912	8	0.013327	60	10	60-180	60	152	GapExp	BigFlash	0	43	2	1	1	target	1	417	792	168642	13.328	13.104	13.536
ProbeTrack13	10	ProbeTrack	13.2	SCS215a	20111104.141301	20111104.141918	8	0.013327	60	10	60-180	60	144	GapExp	BigFlash	0	44	2	45	1	target	1	391	805	169447	13.328	13.308	13.353
ProbeTrack13	10	ProbeTrack	13.2	SCS215a	20111104.141301	20111104.141925	8	0.013327	60	10	60-180	60	63	GapExp	BigFlash	0	45	2	3	1	target	1	392	804	170251	13.328	13.309	13.343
ProbeTrack13	10	ProbeTrack	13.2	SCS215a	20111104.141301	20111104.141930	8	0.013327	60	10	60-180	60	156	GapExp	BigFlash	0	46	2	1	0	distractor	1	512	744	170995	13.328	13.308	13.361
ProbeTrack13	10	ProbeTrack	13.2	SCS215a	20111104.141301	20111104.141937	8	0.013327	60	10	60-180	60	76	GapExp	BigFlash	0	47	2	45	1	target	1	578	711	171706	13.328	13.306	13.356
ProbeTrack13	10	ProbeTrack	13.2	SCS215a	20111104.141301	20111104.141943	8	0.013327	60	10	60-180	60	138	GapExp	BigFlash	0	48	2	3	0	distractor	1	561	720	172426	13.328	12.902	13.748
ProbeTrack13	10	ProbeTrack	13.2	SCS215a	20111104.141301	20111104.141950	8	0.013327	60	10	60-180	60	74	GapExp	BigFlash	0	49	2	0	1	target	1	337	832	173258	13.328	13.114	13.530
ProbeTrack13	10	ProbeTrack	13.2	SCS215a	20111104.141301	20111104.141955	8	0.013327	60	10	60-180	60	112	GapExp	BigFlash	0	50	2	1	0	distractor	1	467	767	174025	13.328	8.313	18.344
ProbeTrack13	10	ProbeTrack	13.2	SCS215a	20111104.141301	20111104.142001	8	0.013327	60	10	60-180	60	127	GapExp	BigFlash	0	51	2	1	0	distractor	1	451	775	174800	13.328	13.098	13.550
ProbeTrack13	10	ProbeTrack	13.2	SCS215a	20111104.141301	20111104.142007	8	0.013327	60	10	60-180	60	144	GapExp	BigFlash	0	52	2	1	1	target	1	412	794	175594	13.328	13.104	13.559
ProbeTrack13	10	ProbeTrack	13.2	SCS215a	20111104.141301	20111104.142013	8	0.013327	60	10	60-180	60	81	GapExp	BigFlash	0	53	2	0	1	target	1	363	819	176413	13.328	10.864	15.789
ProbeTrack13	10	ProbeTrack	13.2	SCS215a	20111104.141301	20111104.142019	8	0.013327	60	10	60-180	60	96	GapExp	BigFlash	0	54	2	3	1	target	1	462	769	177182	13.328	13.307	13.345
ProbeTrack13	10	ProbeTrack	13.2	SCS215a	20111104.141301	20111104.142025	8	0.013327	60	10	60-180	60	68	GapExp	BigFlash	0	55	2	45	1	target	1	427	787	177969	13.328	10.982	15.676
ProbeTrack13	10	ProbeTrack	13.2	SCS215a	20111104.141301	20111104.142031	8	0.013327	60	10	60-180	60	80	GapExp	BigFlash	0	56	2	1	1	target	1	321	840	178809	13.328	9.265	17.396
ProbeTrack13	10	ProbeTrack	13.2	SCS215a	20111104.141301	20111104.142037	8	0.013327	60	10	60-180	60	175	GapExp	BigFlash	0	57	2	45	0	distractor	1	455	773	179582	13.328	12.034	14.615
ProbeTrack13	10	ProbeTrack	13.2	SCS215a	20111104.141301	20111104.142044	8	0.013327	60	10	60-180	60	155	GapExp	BigFlash	0	58	2	0	0	distractor	1	527	737	180319	13.328	7.021	19.631
ProbeTrack13	10	ProbeTrack	13.2	SCS215a	20111104.141301	20111104.142051	8	0.013327	60	10	60-180	60	62	GapExp	BigFlash	0	59	2	0	1	target	1	358	821	181140	13.328	13.114	13.549
ProbeTrack13	10	ProbeTrack	13.2	SCS215a	20111104.141301	20111104.142056	8	0.013327	60	10	60-180	60	113	GapExp	BigFlash	0	60	2	0	0	target	0	406	-1000	180140	13.328	13.105	13.555
ProbeTrack13	10	ProbeTrack	13.2	SCS215a	20111104.141301	20111104.142102	8	0.013327	60	10	60-180	60	143	GapExp	BigFlash	0	61	2	1	1	target	1	377	812	180952	13.328	13.048	13.606
ProbeTrack13	10	ProbeTrack	13.2	SCS215a	20111104.141301	20111104.142110	8	0.013327	60	10	60-180	60	104	GapExp	BigFlash	0	62	2	3	1	target	1	399	801	181753	13.328	13.308	13.349
ProbeTrack13	10	ProbeTrack	13.2	SCS215a	20111104.141301	20111104.142116	8	0.013327	60	10	60-180	60	122	GapExp	BigFlash	0	63	2	1	0	distractor	1	521	740	182493	13.381	7.053	30.897
ProbeTrack13	10	ProbeTrack	13.2	SCS215a	20111104.141301	20111104.142122	8	0.013327	60	10	60-180	60	112	GapExp	BigFlash	0	64	2	1	1	target	1	397	802	183295	13.328	12.781	13.887
ProbeTrack13	10	ProbeTrack	13.2	SCS215a	20111104.141301	20111104.142128	8	0.013327	60	10	60-180	60	112	GapExp	BigFlash	0	65	2	0	1	target	1	395	803	184098	13.328	13.305	13.350
ProbeTrack13	10	ProbeTrack	13.2	SCS215a	20111104.141301	20111104.142134	8	0.013327	60	10	60-180	60	173	GapExp	BigFlash	0	66	2	0	0	distractor	1	504	748	184846	13.328	12.184	14.476
ProbeTrack13	10	ProbeTrack	13.2	SCS215a	20111104.141301	20111104.142140	8	0.013327	60	10	60-180	60	102	GapExp	BigFlash	0	67	2	3	1	target	1	369	816	185662	13.328	11.591	15.066
ProbeTrack13	10	ProbeTrack	13.2	SCS215a	20111104.141301	20111104.142147	8	0.013327	60	10	60-180	60	93	GapExp	BigFlash	0	68	2	1	0	distractor	1	496	752	186414	13.328	13.098	13.557
ProbeTrack13	10	ProbeTrack	13.2	SCS215a	20111104.141301	20111104.142152	8	0.013327	60	10	60-180	60	118	GapExp	BigFlash	0	69	2	1	0	distractor	1	291	855	187269	13.328	13.111	13.543
ProbeTrack13	10	ProbeTrack	13.2	SCS215a	20111104.141301	20111104.142158	8	0.013327	60	10	60-180	60	99	GapExp	BigFlash	0	70	2	0	0	distractor	1	432	784	188053	13.328	10.142	16.507
ProbeTrack13	10	ProbeTrack	13.2	SCS215a	20111104.141301	20111104.142204	8	0.013327	60	10	60-180	60	82	GapExp	BigFlash	0	71	2	0	1	target	1	380	810	188863	13.328	13.307	13.349
ProbeTrack13	10	ProbeTrack	13.2	SCS215a	20111104.141301	20111104.142209	8	0.013327	60	10	60-180	60	139	GapExp	BigFlash	0	72	2	45	0	distractor	1	463	769	189632	13.328	5.270	21.381
ProbeTrack13	10	ProbeTrack	13.2	SCS215a	20111104.141301	20111104.142216	8	0.013327	60	10	60-180	60	138	GapExp	BigFlash	0	73	2	3	0	distractor	1	488	756	190388	13.328	7.921	18.727
ProbeTrack13	10	ProbeTrack	13.2	SCS215a	20111104.141301	20111104.142223	8	0.013327	60	10	60-180	60	83	GapExp	BigFlash	0	74	2	1	1	target	1	523	739	191127	13.328	13.089	13.561
ProbeTrack13	10	ProbeTrack	13.2	SCS215a	20111104.141301	20111104.142228	8	0.013327	60	10	60-180	60	81	GapExp	BigFlash	0	75	2	1	1	target	1	341	830	191957	13.328	13.308	13.345
ProbeTrack13	10	ProbeTrack	13.2	SCS215a	20111104.141301	20111104.142236	8	0.013327	60	10	60-180	60	131	GapExp	BigFlash	0	76	2	0	0	distractor	1	572	714	192671	13.328	8.288	13.551
ProbeTrack13	10	ProbeTrack	13.2	SCS215a	20111104.141301	20111104.142242	8	0.013327	60	10	60-180	60	134	GapExp	BigFlash	0	77	2	1	0	distractor	1	526	737	193408	13.328	13.307	13.349
ProbeTrack13	10	ProbeTrack	13.2	SCS215a	20111104.141301	20111104.142248	8	0.013327	60	10	60-180	60	98	GapExp	BigFlash	0	78	2	3	0	distractor	1	523	739	194147	13.328	13.104	13.544
ProbeTrack13	10	ProbeTrack	13.2	SCS215a	20111104.141301	20111104.142254	8	0.013327	60	10	60-180	60	176	GapExp	BigFlash	0	79	2	1	1	target	1	395	803	194950	13.328	13.093	13.562
ProbeTrack13	10	ProbeTrack	13.2	SCS215a	20111104.141301	20111104.142301	8	0.013327	60	10	60-180	60	68	GapExp	BigFlash	0	80	2	1	1	target	1	457	772	195722	13.328	12.726	13.928
ProbeTrack13	10	ProbeTrack	13.2	SCS215a	20111104.141301	20111104.142306	8	0.013327	60	10	60-180	60	160	GapExp	BigFlash	0	81	2	0	0	distractor	1	472	764	196486	13.328	13.294	13.349
ProbeTrack13	10	ProbeTrack	13.2	SCS215a	20111104.141301	20111104.142313	8	0.013327	60	10	60-180	60	113	GapExp	BigFlash	0	82	2	45	1	target	1	576	712	197198	13.328	12.400	14.245
ProbeTrack13	10	ProbeTrack	13.2	SCS215a	20111104.141301	20111104.142319	8	0.013327	60	10	60-180	60	75	GapExp	BigFlash	0	83	2	3	1	target	1	391	805	198003	13.328	13.308	13.348
ProbeTrack13	10	ProbeTrack	13.2	SCS215a	20111104.141301	20111104.142325	8	0.013327	60	10	60-180	60	78	GapExp	BigFlash	0	84	2	1	1	target	1	347	827	198830	13.328	11.306	15.340
ProbeTrack13	10	ProbeTrack	13.2	SCS215a	20111104.141301	20111104.142331	8	0.013327	60	10	60-180	60	89	GapExp	BigFlash	0	85	2	45	1	target	1	369	816	199646	13.328	13.099	13.556
ProbeTrack13	10	ProbeTrack	13.2	SCS215a	20111104.141301	20111104.142337	8	0.013327	60	10	60-180	60	64	GapExp	BigFlash	0	86	2	45	1	target	1	327	837	200483	13.328	12.451	14.202
ProbeTrack13	10	ProbeTrack	13.2	SCS215a	20111104.141301	20111104.142342	8	0.013327	60	10	60-180	60	150	GapExp	BigFlash	0	87	2	45	1	target	1	314	843	201326	13.328	13.303	13.349
ProbeTrack13	10	ProbeTrack	13.2	SCS215a	20111104.141301	20111104.142349	8	0.013327	60	10	60-180	60	139	GapExp	BigFlash	0	88	2	1	1	target	1	354	823	202149	13.328	13.308	13.349
ProbeTrack13	10	ProbeTrack	13.2	SCS215a	20111104.141301	20111104.142356	8	0.013327	60	10	60-180	60	105	GapExp	BigFlash	0	89	2	0	1	target	1	400	800	202949	13.328	13.305	13.349
ProbeTrack13	10	ProbeTrack	13.2	SCS215a	20111104.141301	20111104.142402	8	0.013327	60	10	60-180	60	151	GapExp	BigFlash	0	90	2	1	0	distractor	1	467	767	203716	13.328	13.299	13.347
ProbeTrack13	10	ProbeTrack	13.2	SCS215a	20111104.141301	20111104.142408	8	0.013327	60	10	60-180	60	171	GapExp	BigFlash	0	91	2	45	1	target	1	452	774	204490	13.328	13.308	13.347
ProbeTrack13	10	ProbeTrack	13.2	SCS215a	20111104.141301	20111104.142415	8	0.013327	60	10	60-180	60	83	GapExp	BigFlash	0	92	2	1	1	target	1	362	819	205309	13.328	13.301	13.350
ProbeTrack13	10	ProbeTrack	13.2	SCS215a	20111104.141301	20111104.142421	8	0.013327	60	10	60-180	60	104	GapExp	BigFlash	0	93	2	45	0	distractor	1	454	773	206082	13.328	8.306	18.344
ProbeTrack13	10	ProbeTrack	13.2	SCS215a	20111104.141301	20111104.142428	8	0.013327	60	10	60-180	60	81	GapExp	BigFlash	0	94	2	45	0	distractor	1	578	711	206793	13.328	12.647	13.997
ProbeTrack13	10	ProbeTrack	13.2	SCS215a	20111104.141301	20111104.142434	8	0.013327	60	10	60-180	60	148	GapExp	BigFlash	0	95	2	0	0	distractor	1	621	690	207483	13.328	13.095	13.549
ProbeTrack13	10	ProbeTrack	13.2	SCS215a	20111104.141301	20111104.142440	8	0.013327	60	10	60-180	60	166	GapExp	BigFlash	0	96	2	0	1	target	1	495	753	208236	13.328	13.098	13.550
ProbeTrack13	10	ProbeTrack	13.2	SCS215a	20111104.141301	20111104.142447	8	0.013327	60	10	60-180	60	179	GapExp	BigFlash	0	97	2	45	1	target	1	424	788	209024	13.328	7.805	19.990
ProbeTrack13	10	ProbeTrack	13.2	SCS215a	20111104.141301	20111104.142454	8	0.013327	60	10	60-180	60	111	GapExp	BigFlash	0	98	2	1	1	target	1	354	823	209847	13.328	10.837	15.805
ProbeTrack13	10	ProbeTrack	13.2	SCS215a	20111104.141301	20111104.142500	8	0.013327	60	10	60-180	60	164	GapExp	BigFlash	0	99	2	45	1	target	1	381	810	210657	13.328	11.647	15.002
ProbeTrack13	10	ProbeTrack	13.2	SCS215a	20111104.141301	20111104.142507	8	0.013327	60	10	60-180	60	99	GapExp	BigFlash	0	100	2	45	0	distractor	1	716	642	211299	13.328	13.106	13.536
ProbeTrack13	10	ProbeTrack	13.2	SCS215a	20111104.141301	20111104.142514	8	0.013327	60	10	60-180	60	132	GapExp	BigFlash	0	101	2	1	0	distractor	1	540	730	212029	13.328	10.768	15.885
ProbeTrack13	10	ProbeTrack	13.2	SCS215a	20111104.141301	20111104.142521	8	0.013327	60	10	60-180	60	166	GapExp	BigFlash	0	102	2	1	1	target	1	429	786	212815	13.328	8.670	17.993
ProbeTrack13	10	ProbeTrack	13.2	SCS215a	20111104.141301	20111104.142528	8	0.013327	60	10	60-180	60	149	GapExp	BigFlash	0	103	2	45	0	distractor	1	467	767	213582	13.328	13.312	13.347
ProbeTrack13	10	ProbeTrack	13.2	SCS215a	20111104.141301	20111104.142535	8	0.013327	60	10	60-180	60	141	GapExp	BigFlash	0	104	2	3	0	distractor	1	489	756	214338	13.328	13.307	13.349
ProbeTrack13	10	ProbeTrack	13.2	SCS215a	20111104.141301	20111104.142542	8	0.013327	60	10	60-180	60	144	GapExp	BigFlash	0	105	2	1	1	target	1	393	804	215142	13.328	11.215	15.430
ProbeTrack13	10	ProbeTrack	13.2	SCS215a	20111104.141301	20111104.142548	8	0.013327	60	10	60-180	60	130	GapExp	BigFlash	0	106	2	45	0	distractor	1	417	792	215934	13.328	13.309	13.347
ProbeTrack13	10	ProbeTrack	13.2	SCS215a	20111104.141301	20111104.142555	8	0.013327	60	10	60-180	60	125	GapExp	BigFlash	0	107	2	3	0	distractor	1	348	826	216760	13.328	12.049	14.608
ProbeTrack13	10	ProbeTrack	13.2	SCS215a	20111104.141301	20111104.142601	8	0.013327	60	10	60-180	60	108	GapExp	BigFlash	0	108	2	3	0	distractor	1	492	754	217514	13.328	13.309	13.350
ProbeTrack13	10	ProbeTrack	13.2	SCS215a	20111104.141301	20111104.142607	8	0.013327	60	10	60-180	60	66	GapExp	BigFlash	0	109	2	0	0	distractor	1	504	748	218262	13.328	11.072	15.592
ProbeTrack13	10	ProbeTrack	13.2	SCS215a	20111104.141301	20111104.142612	8	0.013327	60	10	60-180	60	105	GapExp	BigFlash	0	110	2	45	1	target	1	432	784	219046	13.328	8.520	18.142
ProbeTrack13	10	ProbeTrack	13.2	SCS215a	20111104.141301	20111104.142618	8	0.013327	60	10	60-180	60	146	GapExp	BigFlash	0	111	2	0	1	target	1	482	759	219805	13.328	13.102	13.552
ProbeTrack13	10	ProbeTrack	13.2	SCS215a	20111104.141301	20111104.142625	8	0.013327	60	10	60-180	60	89	GapExp	BigFlash	0	112	2	3	0	distractor	1	441	780	220585	13.328	9.581	17.079
ProbeTrack13	10	ProbeTrack	13.2	SCS215a	20111104.141301	20111104.142630	8	0.013327	60	10	60-180	60	168	GapExp	BigFlash	0	113	2	3	0	distractor	1	516	742	221327	13.328	13.307	13.344
ProbeTrack13	10	ProbeTrack	13.2	SCS215a	20111104.141301	20111104.142637	8	0.013327	60	10	60-180	60	78	GapExp	BigFlash	0	114	2	45	0	distractor	1	389	806	222133	13.328	12.389	14.266
ProbeTrack13	10	ProbeTrack	13.2	SCS215a	20111104.141301	20111104.142643	8	0.013327	60	10	60-180	60	140	GapExp	BigFlash	0	115	2	3	0	distractor	1	506	747	222880	13.328	4.527	22.116
ProbeTrack13	10	ProbeTrack	13.2	SCS215a	20111104.141301	20111104.142649	8	0.013327	60	10	60-180	60	118	GapExp	BigFlash	0	116	2	1	0	distractor	1	509	746	223626	13.328	13.301	13.344
ProbeTrack13	10	ProbeTrack	13.2	SCS215a	20111104.141301	20111104.142655	8	0.013327	60	10	60-180	60	120	GapExp	BigFlash	0	117	2	0	1	target	1	393	804	224430	13.328	8.650	17.987
ProbeTrack13	10	ProbeTrack	13.2	SCS215a	20111104.141301	20111104.142701	8	0.013327	60	10	60-180	60	170	GapExp	BigFlash	0	118	2	1	0	distractor	1	508	746	225176	13.328	6.235	20.425
ProbeTrack13	10	ProbeTrack	13.2	SCS215a	20111104.141301	20111104.142708	8	0.013327	60	10	60-180	60	88	GapExp	BigFlash	0	119	2	3	1	target	1	496	752	225928	13.328	13.307	13.350
ProbeTrack13	10	ProbeTrack	13.2	SCS215a	20111104.141301	20111104.142713	8	0.013327	60	10	60-180	60	159	GapExp	BigFlash	0	120	2	3	1	target	1	362	819	226747	13.328	13.099	13.557
ProbeTrack13	10	ProbeTrack	13.2	SCS215a	20111104.141301	20111104.142720	8	0.013327	60	10	60-180	60	71	GapExp	BigFlash	0	121	2	1	0	distractor	1	418	791	227538	13.328	13.303	13.349
ProbeTrack13	10	ProbeTrack	13.2	SCS215a	20111104.141301	20111104.142725	8	0.013327	60	10	60-180	60	136	GapExp	BigFlash	0	122	2	3	1	target	1	397	802	228340	13.328	13.309	13.348
ProbeTrack13	10	ProbeTrack	13.2	SCS215a	20111104.141301	20111104.142731	8	0.013327	60	10	60-180	60	157	GapExp	BigFlash	0	123	2	45	1	target	1	376	812	229152	13.328	13.307	13.362
ProbeTrack13	10	ProbeTrack	13.2	SCS215a	20111104.141301	20111104.142739	8	0.013327	60	10	60-180	60	139	GapExp	BigFlash	0	124	2	3	1	target	1	490	755	229907	13.328	13.306	13.355
ProbeTrack13	10	ProbeTrack	13.2	SCS215a	20111104.141301	20111104.142745	8	0.013327	60	10	60-180	60	91	GapExp	BigFlash	0	125	2	0	1	target	1	340	830	230737	13.328	13.304	13.346
ProbeTrack13	10	ProbeTrack	13.2	SCS215a	20111104.141301	20111104.142751	8	0.013327	60	10	60-180	60	126	GapExp	BigFlash	0	126	2	1	1	target	1	323	839	231576	13.328	13.308	13.350
ProbeTrack13	10	ProbeTrack	13.2	SCS215a	20111104.141301	20111104.142758	8	0.013327	60	10	60-180	60	63	GapExp	BigFlash	0	127	2	45	0	distractor	1	626	687	232263	13.328	4.597	19.909
ProbeTrack13	10	ProbeTrack	13.2	SCS215a	20111104.141301	20111104.142804	8	0.013327	60	10	60-180	60	173	GapExp	BigFlash	0	128	2	0	0	distractor	1	524	738	233001	13.328	11.992	14.652
ProbeTrack13	10	ProbeTrack	13.2	SCS215a	20111104.141301	20111104.142811	8	0.013327	60	10	60-180	60	97	GapExp	BigFlash	0	129	2	0	0	distractor	1	649	676	233677	13.328	9.561	17.095
ProbeTrack13	10	ProbeTrack	13.2	SCS215a	20111104.141301	20111104.142817	8	0.013327	60	10	60-180	60	150	GapExp	BigFlash	0	130	2	1	1	target	1	358	821	234498	13.328	13.313	13.345
ProbeTrack13	10	ProbeTrack	13.2	SCS215a	20111104.141301	20111104.142824	8	0.013327	60	10	60-180	60	152	GapExp	BigFlash	0	131	2	0	1	target	1	385	808	235306	13.328	13.104	13.550
ProbeTrack13	10	ProbeTrack	13.2	SCS215a	20111104.141301	20111104.142831	8	0.013327	60	10	60-180	60	63	GapExp	BigFlash	0	132	2	0	0	distractor	1	534	733	236039	13.328	13.301	13.347
ProbeTrack13	10	ProbeTrack	13.2	SCS215a	20111104.141301	20111104.142836	8	0.013327	60	10	60-180	60	110	GapExp	BigFlash	0	133	2	45	1	target	1	482	759	236798	13.328	13.311	13.347
ProbeTrack13	10	ProbeTrack	13.2	SCS215a	20111104.141301	20111104.142843	8	0.013327	60	10	60-180	60	129	GapExp	BigFlash	0	134	2	45	1	target	1	376	812	237610	13.328	5.921	20.729
ProbeTrack13	10	ProbeTrack	13.2	SCS215a	20111104.141301	20111104.142850	8	0.013327	60	10	60-180	60	77	GapExp	BigFlash	0	135	2	3	1	target	1	412	794	238404	13.328	13.307	13.344
ProbeTrack13	10	ProbeTrack	13.2	SCS215a	20111104.141301	20111104.142856	8	0.013327	60	10	60-180	60	71	GapExp	BigFlash	0	136	2	1	0	distractor	1	556	722	239126	13.328	13.304	13.360
ProbeTrack13	10	ProbeTrack	13.2	SCS215a	20111104.141301	20111104.142901	8	0.013327	60	10	60-180	60	152	GapExp	BigFlash	0	137	2	3	1	target	1	331	835	239961	13.328	13.105	13.550
ProbeTrack13	10	ProbeTrack	13.2	SCS215a	20111104.141301	20111104.142907	8	0.013327	60	10	60-180	60	89	GapExp	BigFlash	0	138	2	1	1	target	1	394	803	240764	13.328	13.111	13.538
ProbeTrack13	10	ProbeTrack	13.2	SCS215a	20111104.141301	20111104.142913	8	0.013327	60	10	60-180	60	94	GapExp	BigFlash	0	139	2	3	1	target	1	404	798	241562	13.328	13.098	13.557
ProbeTrack13	10	ProbeTrack	13.2	SCS215a	20111104.141301	20111104.142919	8	0.013327	60	10	60-180	60	172	GapExp	BigFlash	0	140	2	0	1	target	1	454	773	242335	13.328	13.295	13.355
ProbeTrack13	10	ProbeTrack	13.2	SCS215a	20111104.141301	20111104.142926	8	0.013327	60	10	60-180	60	132	GapExp	BigFlash	0	141	2	0	0	distractor	1	555	723	243058	13.328	13.307	13.349
ProbeTrack13	10	ProbeTrack	13.2	SCS215a	20111104.141301	20111104.142932	8	0.013327	60	10	60-180	60	105	GapExp	BigFlash	0	142	2	1	0	distractor	1	565	718	243776	13.328	13.305	13.352
ProbeTrack13	10	ProbeTrack	13.2	SCS215a	20111104.141301	20111104.142938	8	0.013327	60	10	60-180	60	145	GapExp	BigFlash	0	143	2	0	1	target	1	418	791	244567	13.328	7.303	19.355
ProbeTrack13	10	ProbeTrack	13.2	SCS215a	20111104.141301	20111104.142944	8	0.013327	60	10	60-180	60	96	GapExp	BigFlash	0	144	2	3	0	distractor	1	460	770	245337	13.328	13.308	13.355
ProbeTrack13	10	ProbeTrack	13.2	SCS215a	20111104.141301	20111104.142950	8	0.013327	60	10	60-180	60	74	GapExp	BigFlash	0	145	2	45	0	target	0	377	-1000	244337	13.328	13.109	13.560
ProbeTrack13	10	ProbeTrack	13.2	SCS215a	20111104.141301	20111104.142956	8	0.013327	60	10	60-180	60	113	GapExp	BigFlash	0	146	2	45	1	target	1	296	852	245189	13.328	13.307	13.345
ProbeTrack13	10	ProbeTrack	13.2	SCS215a	20111104.141301	20111104.143002	8	0.013327	60	10	60-180	60	170	GapExp	BigFlash	0	147	2	1	0	distractor	1	394	803	245992	13.328	13.099	13.543
ProbeTrack13	10	ProbeTrack	13.2	SCS215a	20111104.141301	20111104.143009	8	0.013327	60	10	60-180	60	116	GapExp	BigFlash	0	148	2	1	1	target	1	305	848	246840	13.328	13.305	13.348
ProbeTrack13	10	ProbeTrack	13.2	SCS215a	20111104.141301	20111104.143015	8	0.013327	60	10	60-180	60	117	GapExp	BigFlash	0	149	2	0	1	target	1	461	770	247610	13.328	10.385	16.279
ProbeTrack13	10	ProbeTrack	13.2	SCS215a	20111104.141301	20111104.143021	8	0.013327	60	10	60-180	60	72	GapExp	BigFlash	0	150	2	3	0	distractor	1	552	724	248334	13.328	13.303	13.351
ProbeTrack13	10	ProbeTrack	13.2	SCS215a	20111104.141301	20111104.143026	8	0.013327	60	10	60-180	60	163	GapExp	BigFlash	0	151	2	3	1	target	1	336	832	249166	13.328	13.296	13.348
ProbeTrack13	10	ProbeTrack	13.2	SCS215a	20111104.141301	20111104.143032	8	0.013327	60	10	60-180	60	118	GapExp	BigFlash	0	152	2	1	0	distractor	1	425	788	249954	13.328	8.853	17.805
ProbeTrack13	10	ProbeTrack	13.2	SCS215a	20111104.141301	20111104.143038	8	0.013327	60	10	60-180	60	76	GapExp	BigFlash	0	153	2	0	0	distractor	1	523	739	250693	13.328	13.092	13.563
ProbeTrack13	10	ProbeTrack	13.2	SCS215a	20111104.141301	20111104.143043	8	0.013327	60	10	60-180	60	71	GapExp	BigFlash	0	154	2	45	0	distractor	1	497	752	251445	13.328	13.308	13.346
ProbeTrack13	10	ProbeTrack	13.2	SCS215a	20111104.141301	20111104.143049	8	0.013327	60	10	60-180	60	86	GapExp	BigFlash	0	155	2	1	0	distractor	1	395	803	252248	13.328	13.308	13.348
ProbeTrack13	10	ProbeTrack	13.2	SCS215a	20111104.141301	20111104.143055	8	0.013327	60	10	60-180	60	174	GapExp	BigFlash	0	156	2	0	1	target	1	461	770	253018	13.328	13.295	13.355
ProbeTrack13	10	ProbeTrack	13.2	SCS215a	20111104.141301	20111104.143102	8	0.013327	60	10	60-180	60	74	GapExp	BigFlash	0	157	2	0	1	target	1	351	825	253843	13.328	12.122	14.540
ProbeTrack13	10	ProbeTrack	13.2	SCS215a	20111104.141301	20111104.143107	8	0.013327	60	10	60-180	60	172	GapExp	BigFlash	0	158	2	0	0	distractor	1	547	727	254570	13.328	13.307	13.348
ProbeTrack13	10	ProbeTrack	13.2	SCS215a	20111104.141301	20111104.143113	8	0.013327	60	10	60-180	60	105	GapExp	BigFlash	0	159	2	1	1	target	1	311	845	255415	13.328	13.098	13.564
ProbeTrack13	10	ProbeTrack	13.2	SCS215a	20111104.141301	20111104.143119	8	0.013327	60	10	60-180	60	166	GapExp	BigFlash	0	160	2	0	1	target	1	359	821	256236	13.328	13.112	13.543
ProbeTrack13	10	ProbeTrack	13.2	SCS215a	20111104.141301	20111104.143126	8	0.013327	60	10	60-180	60	130	GapExp	BigFlash	0	161	2	3	0	distractor	1	439	781	257017	13.328	13.085	13.563
ProbeTrack13	10	ProbeTrack	13.2	SCS215a	20111104.141301	20111104.143132	8	0.013327	60	10	60-180	60	175	GapExp	BigFlash	0	162	2	3	1	target	1	389	806	257823	13.328	7.926	18.736
ProbeTrack13	10	ProbeTrack	13.2	SCS215a	20111104.141301	20111104.143138	8	0.013327	60	10	60-180	60	72	GapExp	BigFlash	0	163	2	45	0	target	0	644	-1000	256823	13.328	13.305	13.353
ProbeTrack13	10	ProbeTrack	13.2	SCS215a	20111104.141301	20111104.143144	8	0.013327	60	10	60-180	60	104	GapExp	BigFlash	0	164	2	45	1	target	1	318	841	257664	13.328	12.488	14.169
ProbeTrack13	10	ProbeTrack	13.2	SCS215a	20111104.141301	20111104.143150	8	0.013327	60	10	60-180	60	89	GapExp	BigFlash	0	165	2	3	0	distractor	1	494	753	258417	13.328	13.311	13.348
ProbeTrack13	10	ProbeTrack	13.2	SCS215a	20111104.141301	20111104.143156	8	0.013327	60	10	60-180	60	172	GapExp	BigFlash	0	166	2	1	0	target	0	564	-1000	257417	13.328	13.105	13.553
ProbeTrack13	10	ProbeTrack	13.2	SCS215a	20111104.141301	20111104.143203	8	0.013327	60	10	60-180	60	174	GapExp	BigFlash	0	167	2	45	0	distractor	1	444	778	258195	13.328	10.456	16.194
ProbeTrack13	10	ProbeTrack	13.2	SCS215a	20111104.141301	20111104.143210	8	0.013327	60	10	60-180	60	68	GapExp	BigFlash	0	168	2	45	1	distractor	0	391	-1000	257195	13.328	8.145	18.496
ProbeTrack13	10	ProbeTrack	13.2	SCS215a	20111104.141301	20111104.143216	8	0.013327	60	10	60-180	60	92	GapExp	BigFlash	0	169	2	3	0	distractor	1	608	696	257891	13.328	12.609	14.297
ProbeTrack13	10	ProbeTrack	13.2	SCS215a	20111104.141301	20111104.143222	8	0.013327	60	10	60-180	60	100	GapExp	BigFlash	0	170	2	45	1	target	1	332	834	258725	13.328	13.089	13.553
ProbeTrack13	10	ProbeTrack	13.2	SCS215a	20111104.141301	20111104.143228	8	0.013327	60	10	60-180	60	170	GapExp	BigFlash	0	171	2	3	0	distractor	1	446	777	259502	13.328	12.743	13.908
ProbeTrack13	10	ProbeTrack	13.2	SCS215a	20111104.141301	20111104.143334	8	0.013327	60	10	60-180	60	117	GapExp	BigFlash	0	172	2	45	1	target	1	368	816	260318	13.328	13.106	13.538
ProbeTrack13	10	ProbeTrack	13.2	SCS215a	20111104.141301	20111104.143340	8	0.013327	60	10	60-180	60	70	GapExp	BigFlash	0	173	2	0	1	target	1	398	801	261119	13.328	13.106	13.543
ProbeTrack13	10	ProbeTrack	13.2	SCS215a	20111104.141301	20111104.143345	8	0.013327	60	10	60-180	60	100	GapExp	BigFlash	0	174	2	3	1	target	1	375	813	261932	13.328	10.541	16.124
ProbeTrack13	10	ProbeTrack	13.2	SCS215a	20111104.141301	20111104.143351	8	0.013327	60	10	60-180	60	116	GapExp	BigFlash	0	175	2	1	1	target	1	337	832	262764	13.328	13.307	13.349
ProbeTrack13	10	ProbeTrack	13.2	SCS215a	20111104.141301	20111104.143357	8	0.013327	60	10	60-180	60	63	GapExp	BigFlash	0	176	2	45	0	distractor	1	487	757	263521	13.328	5.689	20.959
ProbeTrack13	10	ProbeTrack	13.2	SCS215a	20111104.141301	20111104.143402	8	0.013327	60	10	60-180	60	156	GapExp	BigFlash	0	177	2	0	1	target	1	362	819	264340	13.328	12.817	13.831
ProbeTrack13	10	ProbeTrack	13.2	SCS215a	20111104.141301	20111104.143409	8	0.013327	60	10	60-180	60	63	GapExp	BigFlash	0	178	2	1	0	distractor	1	541	730	265070	13.328	7.025	19.644
ProbeTrack13	10	ProbeTrack	13.2	SCS215a	20111104.141301	20111104.143414	8	0.013327	60	10	60-180	60	176	GapExp	BigFlash	0	179	2	1	0	distractor	1	646	677	265747	13.328	11.835	14.826
ProbeTrack13	10	ProbeTrack	13.2	SCS215a	20111104.141301	20111104.143421	8	0.013327	60	10	60-180	60	105	GapExp	BigFlash	0	180	2	0	0	distractor	1	460	770	266517	13.387	9.234	30.764
ProbeTrack13	10	ProbeTrack	13.2	SCS215a	20111104.141301	20111104.143428	8	0.013327	60	10	60-180	60	166	GapExp	BigFlash	0	181	2	3	1	target	1	443	779	267296	13.328	11.872	14.779
ProbeTrack13	10	ProbeTrack	13.2	SCS215a	20111104.141301	20111104.143434	8	0.013327	60	10	60-180	60	130	GapExp	BigFlash	0	182	2	3	1	target	1	389	806	268102	13.328	13.068	13.583
ProbeTrack13	10	ProbeTrack	13.2	SCS215a	20111104.141301	20111104.143441	8	0.013327	60	10	60-180	60	100	GapExp	BigFlash	0	183	2	45	0	distractor	1	455	773	268875	13.328	13.301	13.348
ProbeTrack13	10	ProbeTrack	13.2	SCS215a	20111104.141301	20111104.143447	8	0.013327	60	10	60-180	60	165	GapExp	BigFlash	0	184	2	0	1	target	1	368	816	269691	13.328	9.990	17.012
ProbeTrack13	10	ProbeTrack	13.2	SCS215a	20111104.141301	20111104.143454	8	0.013327	60	10	60-180	60	82	GapExp	BigFlash	0	185	2	45	0	distractor	1	462	769	270460	13.328	11.274	15.386
ProbeTrack13	10	ProbeTrack	13.2	SCS215a	20111104.141301	20111104.143500	8	0.013327	60	10	60-180	60	153	GapExp	BigFlash	0	186	2	45	0	distractor	1	509	746	271206	13.328	13.298	13.350
ProbeTrack13	10	ProbeTrack	13.2	SCS215a	20111104.141301	20111104.143507	8	0.013327	60	10	60-180	60	145	GapExp	BigFlash	0	187	2	45	1	target	1	382	809	272015	13.328	7.692	18.970
ProbeTrack13	10	ProbeTrack	13.2	SCS215a	20111104.141301	20111104.143514	8	0.013327	60	10	60-180	60	161	GapExp	BigFlash	0	188	2	3	1	target	1	338	831	272846	13.328	10.592	16.066
ProbeTrack13	10	ProbeTrack	13.2	SCS215a	20111104.141301	20111104.143520	8	0.013327	60	10	60-180	60	113	GapExp	BigFlash	0	189	2	1	1	target	1	289	856	273702	13.328	7.219	19.429
ProbeTrack13	10	ProbeTrack	13.2	SCS215a	20111104.141301	20111104.143526	8	0.013327	60	10	60-180	60	178	GapExp	BigFlash	0	190	2	0	1	target	1	393	804	274506	13.328	5.379	21.283
ProbeTrack13	10	ProbeTrack	13.2	SCS215a	20111104.141301	20111104.143533	8	0.013327	60	10	60-180	60	128	GapExp	BigFlash	0	191	2	3	1	target	1	303	849	275355	13.328	13.308	13.348
ProbeTrack13	10	ProbeTrack	13.2	SCS215a	20111104.141301	20111104.143539	8	0.013327	60	10	60-180	60	108	GapExp	BigFlash	0	192	2	1	1	target	1	343	829	276184	13.328	11.439	15.230
ProbeTrack13	10	ProbeTrack	13.2	SCS215a	20111104.141301	20111104.143545	8	0.013327	60	10	60-180	60	115	GapExp	BigFlash	0	193	2	3	0	target	0	604	-1000	275184	13.322	11.769	14.227
ProbeTrack13	10	ProbeTrack	13.2	SCS215a	20111104.141301	20111104.143551	8	0.013327	60	10	60-180	60	65	GapExp	BigFlash	0	194	2	3	0	distractor	1	546	727	275911	13.328	10.967	15.702
ProbeTrack13	10	ProbeTrack	13.2	SCS215a	20111104.141301	20111104.143557	8	0.013327	60	10	60-180	60	159	GapExp	BigFlash	0	195	2	45	0	distractor	1	473	764	276675	13.328	10.861	15.798
ProbeTrack13	10	ProbeTrack	13.2	SCS215a	20111104.141301	20111104.143604	8	0.013327	60	10	60-180	60	175	GapExp	BigFlash	0	196	2	3	0	distractor	1	349	826	277501	13.328	10.444	16.212
ProbeTrack13	10	ProbeTrack	13.2	SCS215a	20111104.141301	20111104.143610	8	0.013327	60	10	60-180	60	94	GapExp	BigFlash	0	197	2	0	0	target	0	440	-1000	276501	13.328	13.308	13.345
ProbeTrack13	10	ProbeTrack	13.2	SCS215a	20111104.141301	20111104.143616	8	0.013327	60	10	60-180	60	67	GapExp	BigFlash	0	198	2	3	0	distractor	1	421	790	277291	13.328	13.294	13.361
ProbeTrack13	10	ProbeTrack	13.2	SCS215a	20111104.141301	20111104.143621	8	0.013327	60	10	60-180	60	170	GapExp	BigFlash	0	199	2	1	1	target	1	418	791	278082	13.328	11.328	15.338
ProbeTrack13	10	ProbeTrack	13.2	SCS215a	20111104.141301	20111104.143628	8	0.013327	60	10	60-180	60	153	GapExp	BigFlash	0	200	2	45	0	distractor	1	526	737	278819	13.328	12.586	14.076
ProbeTrack13	10	ProbeTrack	13.2	SCS215a	20111104.143722	20111104.143729	8	0.013328	60	10	60-180	60	175	GapPrac	SmallFlash	1	1	2	3	1	target	1	337	832	279651	13.374	10.850	15.806
ProbeTrack13	10	ProbeTrack	13.2	SCS215a	20111104.143722	20111104.143738	8	0.013328	60	10	60-180	60	161	GapPrac	SmallFlash	1	2	2	1	1	target	1	311	845	280496	13.328	6.306	20.350
ProbeTrack13	10	ProbeTrack	13.2	SCS215a	20111104.143722	20111104.143750	8	0.013328	60	10	60-180	60	132	GapPrac	SmallFlash	1	3	2	0	1	target	1	381	810	281306	13.328	13.298	13.353
ProbeTrack13	10	ProbeTrack	13.2	SCS215a	20111104.143722	20111104.143756	8	0.013328	60	10	60-180	60	100	GapPrac	SmallFlash	1	4	2	3	0	distractor	1	503	749	282055	13.328	13.228	13.410
ProbeTrack13	10	ProbeTrack	13.2	SCS215a	20111104.143722	20111104.143802	8	0.013328	60	10	60-180	60	129	GapPrac	SmallFlash	1	5	2	0	0	distractor	1	431	785	282840	13.328	12.125	14.534
ProbeTrack13	10	ProbeTrack	13.2	SCS215a	20111104.143722	20111104.143808	8	0.013328	60	10	60-180	60	149	GapPrac	SmallFlash	1	6	2	45	0	distractor	1	459	771	283611	13.328	9.739	16.904
ProbeTrack13	10	ProbeTrack	13.2	SCS215a	20111104.143722	20111104.143815	8	0.013328	60	10	60-180	60	146	GapPrac	SmallFlash	1	7	2	1	1	distractor	0	327	-1000	282611	13.328	13.309	13.350
ProbeTrack13	10	ProbeTrack	13.2	SCS215a	20111104.143722	20111104.143821	8	0.013328	60	10	60-180	60	152	GapPrac	SmallFlash	1	8	2	3	1	target	1	361	820	283431	13.328	13.306	13.348
ProbeTrack13	10	ProbeTrack	13.2	SCS215a	20111104.143722	20111104.143828	8	0.013328	60	10	60-180	60	175	GapPrac	SmallFlash	1	9	2	3	1	target	1	376	812	284243	13.325	11.775	14.881
ProbeTrack13	10	ProbeTrack	13.2	SCS215a	20111104.143722	20111104.143835	8	0.013328	60	10	60-180	60	110	GapPrac	SmallFlash	1	10	2	0	1	target	1	351	825	285068	13.328	9.508	17.129
ProbeTrack13	10	ProbeTrack	13.2	SCS215a	20111104.143722	20111104.143840	8	0.013328	60	10	60-180	60	140	GapPrac	SmallFlash	1	11	2	1	0	distractor	1	453	774	285842	13.328	13.085	13.557
ProbeTrack13	10	ProbeTrack	13.2	SCS215a	20111104.143722	20111104.143847	8	0.013328	60	10	60-180	60	114	GapPrac	SmallFlash	1	12	2	0	1	target	1	425	788	286630	13.328	13.118	13.551
ProbeTrack13	10	ProbeTrack	13.2	SCS215a	20111104.143722	20111104.143853	8	0.013328	60	10	60-180	60	111	GapPrac	SmallFlash	1	13	2	45	0	distractor	1	430	785	287415	13.328	10.815	15.853
ProbeTrack13	10	ProbeTrack	13.2	SCS215a	20111104.143722	20111104.143859	8	0.013328	60	10	60-180	60	127	GapPrac	SmallFlash	1	14	2	3	0	distractor	1	430	785	288200	13.328	13.309	13.349
ProbeTrack13	10	ProbeTrack	13.2	SCS215a	20111104.143722	20111104.143905	8	0.013328	60	10	60-180	60	61	GapPrac	SmallFlash	1	15	2	1	1	target	1	388	806	289006	13.328	11.257	15.400
ProbeTrack13	10	ProbeTrack	13.2	SCS215a	20111104.143722	20111104.143911	8	0.013328	60	10	60-180	60	77	GapPrac	SmallFlash	1	16	2	3	0	distractor	1	467	767	289773	13.328	13.103	13.552
ProbeTrack13	10	ProbeTrack	13.2	SCS215a	20111104.143722	20111104.143916	8	0.013328	60	10	60-180	60	82	GapPrac	SmallFlash	1	17	2	45	1	target	1	311	845	290618	13.328	6.826	19.816
ProbeTrack13	10	ProbeTrack	13.2	SCS215a	20111104.143722	20111104.143922	8	0.013328	60	10	60-180	60	83	GapPrac	SmallFlash	1	18	2	45	1	target	1	375	813	291431	13.328	13.013	13.656
ProbeTrack13	10	ProbeTrack	13.2	SCS215a	20111104.143722	20111104.143928	8	0.013328	60	10	60-180	60	63	GapPrac	SmallFlash	1	19	2	1	0	distractor	1	528	736	292167	13.328	13.307	13.345
ProbeTrack13	10	ProbeTrack	13.2	SCS215a	20111104.143722	20111104.143933	8	0.013328	60	10	60-180	60	138	GapPrac	SmallFlash	1	20	2	0	0	distractor	1	375	813	292980	13.328	6.280	20.364
ProbeTrack13	10	ProbeTrack	13.2	SCS215a	20111104.144010	20111104.144019	8	0.013327	60	10	60-180	60	179	GapExp	SmallFlash	1	1	2	3	1	target	1	443	779	293759	13.372	13.118	13.544
ProbeTrack13	10	ProbeTrack	13.2	SCS215a	20111104.144010	20111104.144028	8	0.013327	60	10	60-180	60	144	GapExp	SmallFlash	1	2	2	1	1	target	1	332	834	294593	13.328	11.460	15.182
ProbeTrack13	10	ProbeTrack	13.2	SCS215a	20111104.144010	20111104.144034	8	0.013327	60	10	60-180	60	148	GapExp	SmallFlash	1	3	2	0	1	target	1	351	825	295418	13.328	13.306	13.346
ProbeTrack13	10	ProbeTrack	13.2	SCS215a	20111104.144010	20111104.144040	8	0.013327	60	10	60-180	60	96	GapExp	SmallFlash	1	4	2	0	0	distractor	1	506	747	296165	13.328	12.216	14.442
ProbeTrack13	10	ProbeTrack	13.2	SCS215a	20111104.144010	20111104.144046	8	0.013327	60	10	60-180	60	156	GapExp	SmallFlash	1	5	2	3	0	distractor	1	507	747	296912	13.328	11.489	15.167
ProbeTrack13	10	ProbeTrack	13.2	SCS215a	20111104.144010	20111104.144052	8	0.013327	60	10	60-180	60	90	GapExp	SmallFlash	1	6	2	45	0	distractor	1	533	734	297646	13.328	7.040	19.617
ProbeTrack13	10	ProbeTrack	13.2	SCS215a	20111104.144010	20111104.144059	8	0.013327	60	10	60-180	60	171	GapExp	SmallFlash	1	7	2	45	1	target	1	515	743	298389	13.328	13.098	13.548
ProbeTrack13	10	ProbeTrack	13.2	SCS215a	20111104.144010	20111104.144106	8	0.013327	60	10	60-180	60	75	GapExp	SmallFlash	1	8	2	1	0	distractor	1	457	772	299161	13.328	12.465	14.185
ProbeTrack13	10	ProbeTrack	13.2	SCS215a	20111104.144010	20111104.144112	8	0.013327	60	10	60-180	60	100	GapExp	SmallFlash	0	9	2	0	1	target	1	361	820	299981	13.328	8.147	18.507
ProbeTrack13	10	ProbeTrack	13.2	SCS215a	20111104.144010	20111104.144117	8	0.013327	60	10	60-180	60	79	GapExp	SmallFlash	0	10	2	1	0	distractor	1	440	780	300761	13.328	13.309	13.346
ProbeTrack13	10	ProbeTrack	13.2	SCS215a	20111104.144010	20111104.144123	8	0.013327	60	10	60-180	60	70	GapExp	SmallFlash	0	11	2	1	1	target	1	355	823	301584	13.328	12.392	14.251
ProbeTrack13	10	ProbeTrack	13.2	SCS215a	20111104.144010	20111104.144128	8	0.013327	60	10	60-180	60	83	GapExp	SmallFlash	0	12	2	0	1	target	1	382	809	302393	13.328	13.311	13.348
ProbeTrack13	10	ProbeTrack	13.2	SCS215a	20111104.144010	20111104.144134	8	0.013327	60	10	60-180	60	177	GapExp	SmallFlash	0	13	2	0	0	distractor	1	410	795	303188	13.328	12.456	14.212
ProbeTrack13	10	ProbeTrack	13.2	SCS215a	20111104.144010	20111104.144140	8	0.013327	60	10	60-180	60	144	GapExp	SmallFlash	0	14	2	3	1	target	1	345	828	304016	13.328	13.308	13.347
ProbeTrack13	10	ProbeTrack	13.2	SCS215a	20111104.144010	20111104.144146	8	0.013327	60	10	60-180	60	110	GapExp	SmallFlash	0	15	2	45	0	distractor	1	437	782	304798	13.328	13.312	13.349
ProbeTrack13	10	ProbeTrack	13.2	SCS215a	20111104.144010	20111104.144152	8	0.013327	60	10	60-180	60	136	GapExp	SmallFlash	0	16	2	3	0	distractor	1	414	793	305591	13.328	13.306	13.349
ProbeTrack13	10	ProbeTrack	13.2	SCS215a	20111104.144010	20111104.144159	8	0.013327	60	10	60-180	60	156	GapExp	SmallFlash	0	17	2	0	1	target	1	380	810	306401	13.328	13.112	13.551
ProbeTrack13	10	ProbeTrack	13.2	SCS215a	20111104.144010	20111104.144205	8	0.013327	60	10	60-180	60	164	GapExp	SmallFlash	0	18	2	1	0	distractor	1	448	776	307177	13.328	13.110	13.558
ProbeTrack13	10	ProbeTrack	13.2	SCS215a	20111104.144010	20111104.144212	8	0.013327	60	10	60-180	60	82	GapExp	SmallFlash	0	19	2	0	0	distractor	1	489	756	307933	13.328	12.505	14.169
ProbeTrack13	10	ProbeTrack	13.2	SCS215a	20111104.144010	20111104.144217	8	0.013327	60	10	60-180	60	81	GapExp	SmallFlash	0	20	2	1	1	target	1	398	801	308734	13.328	10.323	16.341
ProbeTrack13	10	ProbeTrack	13.2	SCS215a	20111104.144010	20111104.144223	8	0.013327	60	10	60-180	60	164	GapExp	SmallFlash	0	21	2	3	1	target	1	327	837	309571	13.328	8.454	18.202
ProbeTrack13	10	ProbeTrack	13.2	SCS215a	20111104.144010	20111104.144229	8	0.013327	60	10	60-180	60	107	GapExp	SmallFlash	0	22	2	45	0	distractor	1	684	658	310229	13.328	6.135	20.532
ProbeTrack13	10	ProbeTrack	13.2	SCS215a	20111104.144010	20111104.144236	8	0.013327	60	10	60-180	60	169	GapExp	SmallFlash	0	23	2	45	1	target	1	418	791	311020	13.328	3.484	23.166
ProbeTrack13	10	ProbeTrack	13.2	SCS215a	20111104.144010	20111104.144243	8	0.013327	60	10	60-180	60	139	GapExp	SmallFlash	0	24	2	45	1	target	1	349	826	311846	13.328	13.306	13.348
ProbeTrack13	10	ProbeTrack	13.2	SCS215a	20111104.144010	20111104.144250	8	0.013327	60	10	60-180	60	97	GapExp	SmallFlash	0	25	2	0	0	distractor	1	437	782	312628	13.328	13.307	13.360
ProbeTrack13	10	ProbeTrack	13.2	SCS215a	20111104.144010	20111104.144255	8	0.013327	60	10	60-180	60	128	GapExp	SmallFlash	0	26	2	3	1	target	1	373	814	313442	13.328	10.249	16.416
ProbeTrack13	10	ProbeTrack	13.2	SCS215a	20111104.144010	20111104.144301	8	0.013327	60	10	60-180	60	103	GapExp	SmallFlash	0	27	2	1	0	distractor	1	367	817	314259	13.328	10.141	16.502
ProbeTrack13	10	ProbeTrack	13.2	SCS215a	20111104.144010	20111104.144307	8	0.013327	60	10	60-180	60	114	GapExp	SmallFlash	0	28	2	1	1	distractor	0	390	-1000	313259	13.328	6.584	20.066
ProbeTrack13	10	ProbeTrack	13.2	SCS215a	20111104.144010	20111104.144313	8	0.013327	60	10	60-180	60	118	GapExp	SmallFlash	0	29	2	0	1	target	1	364	818	314077	13.328	9.730	16.924
ProbeTrack13	10	ProbeTrack	13.2	SCS215a	20111104.144010	20111104.144319	8	0.013327	60	10	60-180	60	115	GapExp	SmallFlash	0	30	2	3	1	target	1	522	739	314816	13.328	12.712	13.958
ProbeTrack13	10	ProbeTrack	13.2	SCS215a	20111104.144010	20111104.144325	8	0.013327	60	10	60-180	60	165	GapExp	SmallFlash	0	31	2	45	0	distractor	1	616	692	315508	13.328	13.297	13.348
ProbeTrack13	10	ProbeTrack	13.2	SCS215a	20111104.144010	20111104.144332	8	0.013327	60	10	60-180	60	134	GapExp	SmallFlash	0	32	2	0	1	target	1	365	818	316326	13.328	12.137	14.514
ProbeTrack13	10	ProbeTrack	13.2	SCS215a	20111104.144010	20111104.144338	8	0.013327	60	10	60-180	60	137	GapExp	SmallFlash	0	33	2	1	1	target	1	372	814	317140	13.328	9.134	17.521
ProbeTrack13	10	ProbeTrack	13.2	SCS215a	20111104.144010	20111104.144344	8	0.013327	60	10	60-180	60	140	GapExp	SmallFlash	0	34	2	3	0	distractor	1	427	787	317927	13.328	10.891	15.763
ProbeTrack13	10	ProbeTrack	13.2	SCS215a	20111104.144010	20111104.144351	8	0.013327	60	10	60-180	60	126	GapExp	SmallFlash	0	35	2	1	1	target	1	422	789	318716	13.328	12.178	14.487
ProbeTrack13	10	ProbeTrack	13.2	SCS215a	20111104.144010	20111104.144356	8	0.013327	60	10	60-180	60	98	GapExp	SmallFlash	0	36	2	3	0	distractor	1	477	762	319478	13.328	12.647	14.230
ProbeTrack13	10	ProbeTrack	13.2	SCS215a	20111104.144010	20111104.144402	8	0.013327	60	10	60-180	60	113	GapExp	SmallFlash	0	37	2	1	0	target	0	3076	-1000	318478	13.328	13.106	13.556
ProbeTrack13	10	ProbeTrack	13.2	SCS215a	20111104.144010	20111104.144411	8	0.013327	60	10	60-180	60	147	GapExp	SmallFlash	0	38	2	1	0	distractor	1	432	784	319262	13.328	9.991	16.680
ProbeTrack13	10	ProbeTrack	13.2	SCS215a	20111104.144010	20111104.144437	8	0.013327	60	10	60-180	60	105	GapExp	SmallFlash	0	39	2	3	0	distractor	1	423	789	320051	13.328	13.111	13.550
ProbeTrack13	10	ProbeTrack	13.2	SCS215a	20111104.144010	20111104.144444	8	0.013327	60	10	60-180	60	123	GapExp	SmallFlash	0	40	2	0	0	distractor	1	446	777	320828	13.328	12.673	14.003
ProbeTrack13	10	ProbeTrack	13.2	SCS215a	20111104.144010	20111104.144451	8	0.013327	60	10	60-180	60	123	GapExp	SmallFlash	0	41	2	45	1	target	1	405	798	321626	13.328	6.427	20.242
ProbeTrack13	10	ProbeTrack	13.2	SCS215a	20111104.144010	20111104.144458	8	0.013327	60	10	60-180	60	145	GapExp	SmallFlash	0	42	2	0	0	distractor	1	373	814	322440	13.328	13.281	13.376
ProbeTrack13	10	ProbeTrack	13.2	SCS215a	20111104.144010	20111104.144504	8	0.013327	60	10	60-180	60	130	GapExp	SmallFlash	0	43	2	45	1	target	1	369	816	323256	13.328	7.656	19.018
ProbeTrack13	10	ProbeTrack	13.2	SCS215a	20111104.144010	20111104.144511	8	0.013327	60	10	60-180	60	103	GapExp	SmallFlash	0	44	2	45	0	distractor	1	327	837	324093	13.328	12.988	13.661
ProbeTrack13	10	ProbeTrack	13.2	SCS215a	20111104.144010	20111104.144517	8	0.013327	60	10	60-180	60	103	GapExp	SmallFlash	0	45	2	45	1	target	1	442	779	324872	13.328	13.307	13.347
ProbeTrack13	10	ProbeTrack	13.2	SCS215a	20111104.144010	20111104.144523	8	0.013327	60	10	60-180	60	163	GapExp	SmallFlash	0	46	2	45	1	target	1	380	810	325682	13.328	11.802	14.852
ProbeTrack13	10	ProbeTrack	13.2	SCS215a	20111104.144010	20111104.144531	8	0.013327	60	10	60-180	60	61	GapExp	SmallFlash	0	47	2	0	1	target	1	314	843	326525	13.328	13.309	13.343
ProbeTrack13	10	ProbeTrack	13.2	SCS215a	20111104.144010	20111104.144536	8	0.013327	60	10	60-180	60	119	GapExp	SmallFlash	0	48	2	1	1	distractor	0	352	-1000	325525	13.328	7.350	19.313
ProbeTrack13	10	ProbeTrack	13.2	SCS215a	20111104.144010	20111104.144542	8	0.013327	60	10	60-180	60	98	GapExp	SmallFlash	0	49	2	3	1	target	1	352	824	326349	13.328	6.836	19.820
ProbeTrack13	10	ProbeTrack	13.2	SCS215a	20111104.144010	20111104.144548	8	0.013327	60	10	60-180	60	138	GapExp	SmallFlash	0	50	2	1	0	distractor	1	454	773	327122	13.328	10.062	16.597
ProbeTrack13	10	ProbeTrack	13.2	SCS215a	20111104.144010	20111104.144554	8	0.013327	60	10	60-180	60	63	GapExp	SmallFlash	0	51	2	0	0	target	0	478	-1000	326122	13.328	13.308	13.349
ProbeTrack13	10	ProbeTrack	13.2	SCS215a	20111104.144010	20111104.144559	8	0.013327	60	10	60-180	60	138	GapExp	SmallFlash	0	52	2	45	0	distractor	1	457	772	326894	13.328	12.621	14.029
ProbeTrack13	10	ProbeTrack	13.2	SCS215a	20111104.144010	20111104.144606	8	0.013327	60	10	60-180	60	124	GapExp	SmallFlash	0	53	2	0	1	target	1	435	783	327677	13.328	13.307	13.347
ProbeTrack13	10	ProbeTrack	13.2	SCS215a	20111104.144010	20111104.144612	8	0.013327	60	10	60-180	60	97	GapExp	SmallFlash	0	54	2	3	0	distractor	1	409	796	328473	13.328	8.748	17.893
ProbeTrack13	10	ProbeTrack	13.2	SCS215a	20111104.144010	20111104.144619	8	0.013327	60	10	60-180	60	81	GapExp	SmallFlash	0	55	2	3	0	distractor	1	504	748	329221	13.328	6.617	20.046
ProbeTrack13	10	ProbeTrack	13.2	SCS215a	20111104.144010	20111104.144625	8	0.013327	60	10	60-180	60	62	GapExp	SmallFlash	0	56	2	1	1	target	1	391	805	330026	13.328	10.872	15.775
ProbeTrack13	10	ProbeTrack	13.2	SCS215a	20111104.144010	20111104.144630	8	0.013327	60	10	60-180	60	100	GapExp	SmallFlash	0	57	2	0	0	distractor	1	380	810	330836	13.328	13.090	13.557
ProbeTrack13	10	ProbeTrack	13.2	SCS215a	20111104.144010	20111104.144636	8	0.013327	60	10	60-180	60	91	GapExp	SmallFlash	0	58	2	3	0	distractor	1	451	775	331611	13.328	13.080	13.561
ProbeTrack13	10	ProbeTrack	13.2	SCS215a	20111104.144010	20111104.144641	8	0.013327	60	10	60-180	60	175	GapExp	SmallFlash	0	59	2	3	0	distractor	1	606	697	332308	13.328	13.157	13.491
ProbeTrack13	10	ProbeTrack	13.2	SCS215a	20111104.144010	20111104.144648	8	0.013327	60	10	60-180	60	107	GapExp	SmallFlash	0	60	2	3	0	distractor	1	432	784	333092	13.328	9.984	16.678
ProbeTrack13	10	ProbeTrack	13.2	SCS215a	20111104.144010	20111104.144655	8	0.013327	60	10	60-180	60	144	GapExp	SmallFlash	0	61	2	0	1	target	1	463	769	333861	13.328	10.215	16.429
ProbeTrack13	10	ProbeTrack	13.2	SCS215a	20111104.144010	20111104.144701	8	0.013327	60	10	60-180	60	123	GapExp	SmallFlash	0	62	2	1	1	target	1	351	825	334686	13.328	12.854	13.802
ProbeTrack13	10	ProbeTrack	13.2	SCS215a	20111104.144010	20111104.144707	8	0.013327	60	10	60-180	60	91	GapExp	SmallFlash	0	63	2	0	0	distractor	1	390	805	335491	13.328	13.307	13.353
ProbeTrack13	10	ProbeTrack	13.2	SCS215a	20111104.144010	20111104.144713	8	0.013327	60	10	60-180	60	112	GapExp	SmallFlash	0	64	2	0	0	distractor	1	373	814	336305	13.328	13.298	13.354
ProbeTrack13	10	ProbeTrack	13.2	SCS215a	20111104.144010	20111104.144718	8	0.013327	60	10	60-180	60	100	GapExp	SmallFlash	0	65	2	1	1	target	1	311	845	337150	13.328	13.091	13.570
ProbeTrack13	10	ProbeTrack	13.2	SCS215a	20111104.144010	20111104.144724	8	0.013327	60	10	60-180	60	101	GapExp	SmallFlash	0	66	2	45	1	target	1	378	811	337961	13.328	10.200	16.443
ProbeTrack13	10	ProbeTrack	13.2	SCS215a	20111104.144010	20111104.144730	8	0.013327	60	10	60-180	60	103	GapExp	SmallFlash	0	67	2	3	0	distractor	1	461	770	338731	13.328	8.166	18.497
ProbeTrack13	10	ProbeTrack	13.2	SCS215a	20111104.144010	20111104.144736	8	0.013327	60	10	60-180	60	77	GapExp	SmallFlash	0	68	2	0	1	target	1	436	782	339513	13.328	13.313	13.345
