exp	sub	code	rev	comp	runtime	trialtime	nstim	refreshdur	cuedur	gapdur	gapOnsetRange	durPostProbe	gapOnsetTime	blocktype	gaptype	prac	trial	ntargets	soa	probeTarget	resp	acc	rt	pts	tpts	meanFrameDur	minFrameDur	maxFrameDur
ProbeTrack13	7	ProbeTrack	13.2	SCS215a	20111102.132128	20111102.132141	8	0.013328	60	0	60-180	60	102	NoGap	None	1	1	2	3	1	distractor	0	10895	-1000	-1000	13.383	13.295	13.351
ProbeTrack13	7	ProbeTrack	13.2	SCS215a	20111102.132128	20111102.132318	8	0.013328	60	0	60-180	60	167	NoGap	None	1	2	2	3	1	target	1	9062	0	-1000	13.328	13.082	13.573
ProbeTrack13	7	ProbeTrack	13.2	SCS215a	20111102.132128	20111102.132341	8	0.013328	60	0	60-180	60	97	NoGap	None	1	3	2	0	1	target	1	907	547	-453	13.328	13.306	13.350
ProbeTrack13	7	ProbeTrack	13.2	SCS215a	20111102.132128	20111102.132349	8	0.013328	60	0	60-180	60	117	NoGap	None	1	4	2	45	1	target	1	484	758	305	13.328	11.917	14.736
ProbeTrack13	7	ProbeTrack	13.2	SCS215a	20111102.132128	20111102.132401	8	0.013328	60	0	60-180	60	150	NoGap	None	1	5	2	1	1	target	1	390	805	1110	13.328	9.357	17.311
ProbeTrack13	7	ProbeTrack	13.2	SCS215a	20111102.132128	20111102.132412	8	0.013328	60	0	60-180	60	71	NoGap	None	1	6	2	45	1	target	1	557	722	1832	13.328	13.138	13.512
ProbeTrack13	7	ProbeTrack	13.2	SCS215a	20111102.132128	20111102.132418	8	0.013328	60	0	60-180	60	87	NoGap	None	1	7	2	1	0	target	0	483	-1000	832	13.328	13.307	13.346
ProbeTrack13	7	ProbeTrack	13.2	SCS215a	20111102.132128	20111102.132425	8	0.013328	60	0	60-180	60	111	NoGap	None	1	8	2	0	1	target	1	537	732	1564	13.328	13.303	13.356
ProbeTrack13	7	ProbeTrack	13.2	SCS215a	20111102.132128	20111102.132431	8	0.013328	60	0	60-180	60	130	NoGap	None	1	9	2	1	1	target	1	362	819	2383	13.328	13.309	13.344
ProbeTrack13	7	ProbeTrack	13.2	SCS215a	20111102.132128	20111102.132438	8	0.013328	60	0	60-180	60	145	NoGap	None	1	10	2	0	0	target	0	650	-1000	1383	13.328	13.307	13.352
ProbeTrack13	7	ProbeTrack	13.2	SCS215a	20111102.132128	20111102.132445	8	0.013328	60	0	60-180	60	93	NoGap	None	1	11	2	45	1	target	1	437	782	2165	13.328	13.306	13.348
ProbeTrack13	7	ProbeTrack	13.2	SCS215a	20111102.132128	20111102.132451	8	0.013328	60	0	60-180	60	73	NoGap	None	1	12	2	45	0	distractor	1	799	601	2766	13.328	10.958	15.697
ProbeTrack13	7	ProbeTrack	13.2	SCS215a	20111102.132128	20111102.132459	8	0.013328	60	0	60-180	60	115	NoGap	None	1	13	2	0	0	distractor	1	842	579	3345	13.328	13.307	13.361
ProbeTrack13	7	ProbeTrack	13.2	SCS215a	20111102.132128	20111102.132506	8	0.013328	60	0	60-180	60	148	NoGap	None	1	14	2	45	0	distractor	1	737	632	3977	13.328	13.308	13.349
ProbeTrack13	7	ProbeTrack	13.2	SCS215a	20111102.132128	20111102.132514	8	0.013328	60	0	60-180	60	139	NoGap	None	1	15	2	0	0	distractor	1	776	612	4589	13.328	13.309	13.351
ProbeTrack13	7	ProbeTrack	13.2	SCS215a	20111102.132128	20111102.132520	8	0.013328	60	0	60-180	60	157	NoGap	None	1	16	2	3	1	target	1	940	530	5119	13.328	6.611	20.052
ProbeTrack13	7	ProbeTrack	13.2	SCS215a	20111102.132128	20111102.132528	8	0.013328	60	0	60-180	60	136	NoGap	None	1	17	2	3	1	target	1	777	612	5731	13.328	13.230	13.431
ProbeTrack13	7	ProbeTrack	13.2	SCS215a	20111102.132128	20111102.132535	8	0.013328	60	0	60-180	60	154	NoGap	None	1	18	2	0	0	distractor	1	651	675	6406	13.328	13.307	13.355
ProbeTrack13	7	ProbeTrack	13.2	SCS215a	20111102.132128	20111102.132542	8	0.013328	60	0	60-180	60	93	NoGap	None	1	19	2	1	0	distractor	1	732	634	7040	13.328	12.105	14.545
ProbeTrack13	7	ProbeTrack	13.2	SCS215a	20111102.132128	20111102.132549	8	0.013328	60	0	60-180	60	167	NoGap	None	1	20	2	3	0	distractor	1	855	573	7613	13.328	13.308	13.343
ProbeTrack13	7	ProbeTrack	13.2	SCS215a	20111102.132128	20111102.132556	8	0.013328	60	0	60-180	60	66	NoGap	None	1	21	2	1	0	distractor	1	674	663	8276	13.328	13.307	13.348
ProbeTrack13	7	ProbeTrack	13.2	SCS215a	20111102.132128	20111102.132602	8	0.013328	60	0	60-180	60	100	NoGap	None	1	22	2	3	0	distractor	1	552	724	9000	13.328	11.524	15.132
ProbeTrack13	7	ProbeTrack	13.2	SCS215a	20111102.132128	20111102.132608	8	0.013328	60	0	60-180	60	100	NoGap	None	1	23	2	45	1	target	1	672	664	9664	13.328	13.049	13.615
ProbeTrack13	7	ProbeTrack	13.2	SCS215a	20111102.132128	20111102.132615	8	0.013328	60	0	60-180	60	96	NoGap	None	1	24	2	45	0	distractor	1	591	705	10369	13.328	13.308	13.346
ProbeTrack13	7	ProbeTrack	13.2	SCS215a	20111102.132128	20111102.132622	8	0.013328	60	0	60-180	60	67	NoGap	None	1	25	2	1	1	target	1	555	723	11092	13.328	13.306	13.350
ProbeTrack13	7	ProbeTrack	13.2	SCS215a	20111102.132128	20111102.132628	8	0.013328	60	0	60-180	60	100	NoGap	None	1	26	2	3	0	distractor	1	686	657	11749	13.328	12.683	13.973
ProbeTrack13	7	ProbeTrack	13.2	SCS215a	20111102.132128	20111102.132634	8	0.013328	60	0	60-180	60	174	NoGap	None	1	27	2	1	0	distractor	1	543	729	12478	13.328	13.093	13.554
ProbeTrack13	7	ProbeTrack	13.2	SCS215a	20111102.132128	20111102.132642	8	0.013328	60	0	60-180	60	148	NoGap	None	1	28	2	0	0	distractor	1	622	689	13167	13.328	13.105	13.544
ProbeTrack13	7	ProbeTrack	13.2	SCS215a	20111102.132128	20111102.132649	8	0.013328	60	0	60-180	60	161	NoGap	None	1	29	2	45	0	distractor	1	560	720	13887	13.328	13.008	13.651
ProbeTrack13	7	ProbeTrack	13.2	SCS215a	20111102.132128	20111102.132656	8	0.013328	60	0	60-180	60	145	NoGap	None	1	30	2	45	0	distractor	1	671	665	14552	13.328	13.308	13.347
ProbeTrack13	7	ProbeTrack	13.2	SCS215a	20111102.132128	20111102.132704	8	0.013328	60	0	60-180	60	122	NoGap	None	1	31	2	3	0	distractor	1	616	692	15244	13.328	13.303	13.347
ProbeTrack13	7	ProbeTrack	13.2	SCS215a	20111102.132128	20111102.132710	8	0.013328	60	0	60-180	60	63	NoGap	None	1	32	2	3	0	distractor	1	777	612	15856	13.328	13.105	13.556
ProbeTrack13	7	ProbeTrack	13.2	SCS215a	20111102.132128	20111102.132717	8	0.013328	60	0	60-180	60	75	NoGap	None	1	33	2	0	1	target	1	579	711	16567	13.328	13.097	13.565
ProbeTrack13	7	ProbeTrack	13.2	SCS215a	20111102.132128	20111102.132723	8	0.013328	60	0	60-180	60	169	NoGap	None	1	34	2	1	1	target	1	419	791	17358	13.328	8.791	17.864
ProbeTrack13	7	ProbeTrack	13.2	SCS215a	20111102.132128	20111102.132730	8	0.013328	60	0	60-180	60	158	NoGap	None	1	35	2	1	1	target	1	424	788	18146	13.328	10.910	15.747
ProbeTrack13	7	ProbeTrack	13.2	SCS215a	20111102.132128	20111102.132737	8	0.013328	60	0	60-180	60	137	NoGap	None	1	36	2	3	1	target	1	473	764	18910	13.328	13.103	13.550
ProbeTrack13	7	ProbeTrack	13.2	SCS215a	20111102.132128	20111102.132743	8	0.013328	60	0	60-180	60	124	NoGap	None	1	37	2	0	1	target	1	457	772	19682	13.328	13.117	13.552
ProbeTrack13	7	ProbeTrack	13.2	SCS215a	20111102.132128	20111102.132752	8	0.013328	60	0	60-180	60	77	NoGap	None	1	38	2	1	0	distractor	1	640	680	20362	13.328	13.093	13.558
ProbeTrack13	7	ProbeTrack	13.2	SCS215a	20111102.132128	20111102.132758	8	0.013328	60	0	60-180	60	174	NoGap	None	1	39	2	0	1	target	1	725	638	21000	13.328	12.009	14.637
ProbeTrack13	7	ProbeTrack	13.2	SCS215a	20111102.132128	20111102.132806	8	0.013328	60	0	60-180	60	153	NoGap	None	1	40	2	45	1	target	1	442	779	21779	13.328	13.099	13.556
ProbeTrack13	7	ProbeTrack	13.2	SCS215a	20111102.132857	20111102.132905	8	0.013327	60	10	60-180	60	95	GapPrac	Blank	1	1	2	45	0	distractor	1	802	599	22378	13.374	13.291	13.363
ProbeTrack13	7	ProbeTrack	13.2	SCS215a	20111102.132857	20111102.132913	8	0.013327	60	10	60-180	60	141	GapPrac	Blank	1	2	2	45	1	distractor	0	903	-1000	21378	13.328	13.118	13.551
ProbeTrack13	7	ProbeTrack	13.2	SCS215a	20111102.132857	20111102.132921	8	0.013327	60	10	60-180	60	170	GapPrac	Blank	1	3	2	1	0	target	0	762	-1000	20378	13.328	13.098	13.549
ProbeTrack13	7	ProbeTrack	13.2	SCS215a	20111102.132857	20111102.132928	8	0.013327	60	10	60-180	60	126	GapPrac	Blank	1	4	2	3	1	distractor	0	878	-1000	19378	13.328	12.197	14.459
ProbeTrack13	7	ProbeTrack	13.2	SCS215a	20111102.132857	20111102.132936	8	0.013327	60	10	60-180	60	91	GapPrac	Blank	1	5	2	45	0	target	0	15234709	-1000	18378	13.328	13.076	13.583
ProbeTrack13	7	ProbeTrack	13.2	SCS215a	20111102.132857	20111102.132942	8	0.013327	60	10	60-180	60	171	GapPrac	Blank	1	6	2	45	1	target	1	1466	267	18645	13.328	11.736	14.920
ProbeTrack13	7	ProbeTrack	13.2	SCS215a	20111102.132857	20111102.132951	8	0.013327	60	10	60-180	60	82	GapPrac	Blank	1	7	2	45	0	target	0	15250088	-1000	17645	13.328	13.098	13.556
ProbeTrack13	7	ProbeTrack	13.2	SCS215a	20111102.132857	20111102.132957	8	0.013327	60	10	60-180	60	134	GapPrac	Blank	1	8	2	45	1	target	1	590	705	18350	13.328	7.877	22.197
ProbeTrack13	7	ProbeTrack	13.2	SCS215a	20111102.132857	20111102.133005	8	0.013327	60	10	60-180	60	106	GapPrac	Blank	1	9	2	3	0	target	0	683	-1000	17350	13.328	13.089	13.560
ProbeTrack13	7	ProbeTrack	13.2	SCS215a	20111102.132857	20111102.133012	8	0.013327	60	10	60-180	60	76	GapPrac	Blank	1	10	2	0	1	distractor	0	432	-1000	16350	13.328	13.298	13.346
ProbeTrack13	7	ProbeTrack	13.2	SCS215a	20111102.132857	20111102.133017	8	0.013327	60	10	60-180	60	122	GapPrac	Blank	1	11	2	1	1	target	1	524	738	17088	13.328	12.230	14.444
ProbeTrack13	7	ProbeTrack	13.2	SCS215a	20111102.132857	20111102.133025	8	0.013327	60	10	60-180	60	139	GapPrac	Blank	1	12	2	0	1	target	1	700	650	17738	13.328	9.088	17.568
ProbeTrack13	7	ProbeTrack	13.2	SCS215a	20111102.132857	20111102.133032	8	0.013327	60	10	60-180	60	100	GapPrac	Blank	1	13	2	3	0	distractor	1	1583	209	17947	13.328	10.364	16.292
ProbeTrack13	7	ProbeTrack	13.2	SCS215a	20111102.132857	20111102.133039	8	0.013327	60	10	60-180	60	118	GapPrac	Blank	1	14	2	0	0	distractor	1	748	626	18573	13.328	12.102	14.554
ProbeTrack13	7	ProbeTrack	13.2	SCS215a	20111102.132857	20111102.133046	8	0.013327	60	10	60-180	60	99	GapPrac	Blank	1	15	2	1	0	distractor	1	732	634	19207	13.328	13.305	13.348
ProbeTrack13	7	ProbeTrack	13.2	SCS215a	20111102.132857	20111102.133052	8	0.013327	60	10	60-180	60	73	GapPrac	Blank	1	16	2	0	0	distractor	1	703	649	19856	13.328	13.103	13.552
ProbeTrack13	7	ProbeTrack	13.2	SCS215a	20111102.132857	20111102.133059	8	0.013327	60	10	60-180	60	126	GapPrac	Blank	1	17	2	1	1	target	1	959	521	20377	13.328	8.146	18.499
ProbeTrack13	7	ProbeTrack	13.2	SCS215a	20111102.132857	20111102.133106	8	0.013327	60	10	60-180	60	88	GapPrac	Blank	1	18	2	3	1	target	1	653	674	21051	13.328	10.658	16.003
ProbeTrack13	7	ProbeTrack	13.2	SCS215a	20111102.132857	20111102.133112	8	0.013327	60	10	60-180	60	147	GapPrac	Blank	1	19	2	3	1	target	1	830	585	21636	13.328	12.942	13.727
ProbeTrack13	7	ProbeTrack	13.2	SCS215a	20111102.132857	20111102.133119	8	0.013327	60	10	60-180	60	77	GapPrac	Blank	1	20	2	1	0	distractor	1	744	628	22264	13.328	12.381	14.269
ProbeTrack13	7	ProbeTrack	13.2	SCS215a	20111102.133217	20111102.133224	8	0.013340	60	10	60-180	60	106	GapExp	Blank	1	1	2	3	0	distractor	1	582	709	22973	13.383	4.029	22.636
ProbeTrack13	7	ProbeTrack	13.2	SCS215a	20111102.133217	20111102.133233	8	0.013340	60	10	60-180	60	117	GapExp	Blank	1	2	2	0	1	distractor	0	876	-1000	21973	13.328	9.185	17.484
ProbeTrack13	7	ProbeTrack	13.2	SCS215a	20111102.133217	20111102.133240	8	0.013340	60	10	60-180	60	159	GapExp	Blank	1	3	2	45	0	target	0	776	-1000	20973	13.328	12.379	14.277
ProbeTrack13	7	ProbeTrack	13.2	SCS215a	20111102.133217	20111102.133248	8	0.013340	60	10	60-180	60	95	GapExp	Blank	1	4	2	45	1	target	1	681	660	21633	13.328	10.887	15.763
ProbeTrack13	7	ProbeTrack	13.2	SCS215a	20111102.133217	20111102.133255	8	0.013340	60	10	60-180	60	109	GapExp	Blank	1	5	2	1	0	distractor	1	642	679	22312	13.328	13.310	13.347
ProbeTrack13	7	ProbeTrack	13.2	SCS215a	20111102.133217	20111102.133301	8	0.013340	60	10	60-180	60	131	GapExp	Blank	1	6	2	0	0	distractor	1	628	686	22998	13.328	10.791	17.771
ProbeTrack13	7	ProbeTrack	13.2	SCS215a	20111102.133217	20111102.133308	8	0.013340	60	10	60-180	60	73	GapExp	Blank	1	7	2	1	1	target	1	602	699	23697	13.328	13.308	13.350
ProbeTrack13	7	ProbeTrack	13.2	SCS215a	20111102.133217	20111102.133314	8	0.013340	60	10	60-180	60	173	GapExp	Blank	1	8	2	3	1	target	1	604	698	24395	13.328	9.503	17.156
ProbeTrack13	7	ProbeTrack	13.2	SCS215a	20111102.133217	20111102.133321	8	0.013340	60	10	60-180	60	101	GapExp	Blank	0	9	2	1	0	distractor	1	599	701	25096	13.328	10.359	16.290
ProbeTrack13	7	ProbeTrack	13.2	SCS215a	20111102.133217	20111102.133327	8	0.013340	60	10	60-180	60	81	GapExp	Blank	0	10	2	45	0	distractor	1	579	711	25807	13.328	13.109	13.558
ProbeTrack13	7	ProbeTrack	13.2	SCS215a	20111102.133217	20111102.133333	8	0.013340	60	10	60-180	60	117	GapExp	Blank	0	11	2	3	0	distractor	1	551	725	26532	13.328	11.119	15.521
ProbeTrack13	7	ProbeTrack	13.2	SCS215a	20111102.133217	20111102.133340	8	0.013340	60	10	60-180	60	159	GapExp	Blank	0	12	2	3	0	distractor	1	725	638	27170	13.328	13.085	13.563
ProbeTrack13	7	ProbeTrack	13.2	SCS215a	20111102.133217	20111102.133347	8	0.013340	60	10	60-180	60	165	GapExp	Blank	0	13	2	45	1	target	1	418	791	27961	13.328	11.878	14.777
ProbeTrack13	7	ProbeTrack	13.2	SCS215a	20111102.133217	20111102.133356	8	0.013340	60	10	60-180	60	90	GapExp	Blank	0	14	2	1	0	distractor	1	542	729	28690	13.328	13.098	13.559
ProbeTrack13	7	ProbeTrack	13.2	SCS215a	20111102.133217	20111102.133402	8	0.013340	60	10	60-180	60	130	GapExp	Blank	0	15	2	3	1	target	1	540	730	29420	13.328	13.111	13.550
ProbeTrack13	7	ProbeTrack	13.2	SCS215a	20111102.133217	20111102.133408	8	0.013340	60	10	60-180	60	164	GapExp	Blank	0	16	2	45	0	distractor	1	489	756	30176	13.328	11.217	15.440
ProbeTrack13	7	ProbeTrack	13.2	SCS215a	20111102.133217	20111102.133416	8	0.013340	60	10	60-180	60	81	GapExp	Blank	0	17	2	3	1	target	1	445	778	30954	13.328	13.097	13.564
ProbeTrack13	7	ProbeTrack	13.2	SCS215a	20111102.133217	20111102.133421	8	0.013340	60	10	60-180	60	149	GapExp	Blank	0	18	2	0	1	target	1	477	762	31716	13.328	13.308	13.349
ProbeTrack13	7	ProbeTrack	13.2	SCS215a	20111102.133217	20111102.133428	8	0.013340	60	10	60-180	60	108	GapExp	Blank	0	19	2	3	0	distractor	1	580	710	32426	13.328	13.307	13.354
ProbeTrack13	7	ProbeTrack	13.2	SCS215a	20111102.133217	20111102.133434	8	0.013340	60	10	60-180	60	69	GapExp	Blank	0	20	2	0	0	distractor	1	1101	450	32876	13.328	13.303	13.358
ProbeTrack13	7	ProbeTrack	13.2	SCS215a	20111102.133217	20111102.133440	8	0.013340	60	10	60-180	60	164	GapExp	Blank	0	21	2	0	0	distractor	1	750	625	33501	13.328	8.894	17.774
ProbeTrack13	7	ProbeTrack	13.2	SCS215a	20111102.133217	20111102.133448	8	0.013340	60	10	60-180	60	66	GapExp	Blank	0	22	2	3	0	distractor	1	564	718	34219	13.328	13.308	13.347
ProbeTrack13	7	ProbeTrack	13.2	SCS215a	20111102.133217	20111102.133454	8	0.013340	60	10	60-180	60	142	GapExp	Blank	0	23	2	3	1	target	1	448	776	34995	13.328	8.055	18.588
ProbeTrack13	7	ProbeTrack	13.2	SCS215a	20111102.133217	20111102.133500	8	0.013340	60	10	60-180	60	99	GapExp	Blank	0	24	2	0	1	target	1	472	764	35759	13.328	10.490	16.802
ProbeTrack13	7	ProbeTrack	13.2	SCS215a	20111102.133217	20111102.133506	8	0.013340	60	10	60-180	60	150	GapExp	Blank	0	25	2	3	1	target	1	445	778	36537	13.328	13.099	13.562
ProbeTrack13	7	ProbeTrack	13.2	SCS215a	20111102.133217	20111102.133513	8	0.013340	60	10	60-180	60	158	GapExp	Blank	0	26	2	3	0	distractor	1	634	683	37220	13.328	8.280	18.382
ProbeTrack13	7	ProbeTrack	13.2	SCS215a	20111102.133217	20111102.133520	8	0.013340	60	10	60-180	60	117	GapExp	Blank	0	27	2	0	1	target	1	487	757	37977	13.328	13.085	13.550
ProbeTrack13	7	ProbeTrack	13.2	SCS215a	20111102.133217	20111102.133527	8	0.013340	60	10	60-180	60	136	GapExp	Blank	0	28	2	3	1	target	1	446	777	38754	13.328	13.098	13.543
ProbeTrack13	7	ProbeTrack	13.2	SCS215a	20111102.133217	20111102.133533	8	0.013340	60	10	60-180	60	150	GapExp	Blank	0	29	2	0	0	distractor	1	621	690	39444	13.328	13.088	13.559
ProbeTrack13	7	ProbeTrack	13.2	SCS215a	20111102.133217	20111102.133539	8	0.013340	60	10	60-180	60	154	GapExp	Blank	0	30	2	1	1	target	1	376	812	40256	13.328	13.111	13.545
ProbeTrack13	7	ProbeTrack	13.2	SCS215a	20111102.133217	20111102.133546	8	0.013340	60	10	60-180	60	162	GapExp	Blank	0	31	2	1	0	distractor	1	631	685	40941	13.328	12.200	14.470
ProbeTrack13	7	ProbeTrack	13.2	SCS215a	20111102.133217	20111102.133553	8	0.013340	60	10	60-180	60	130	GapExp	Blank	0	32	2	3	0	distractor	1	553	724	41665	13.328	10.855	15.802
ProbeTrack13	7	ProbeTrack	13.2	SCS215a	20111102.133217	20111102.133600	8	0.013340	60	10	60-180	60	158	GapExp	Blank	0	33	2	1	0	distractor	1	632	684	42349	13.328	9.507	17.135
ProbeTrack13	7	ProbeTrack	13.2	SCS215a	20111102.133217	20111102.133607	8	0.013340	60	10	60-180	60	141	GapExp	Blank	0	34	2	0	0	target	0	927	-1000	41349	13.328	13.092	13.544
ProbeTrack13	7	ProbeTrack	13.2	SCS215a	20111102.133217	20111102.133614	8	0.013340	60	10	60-180	60	172	GapExp	Blank	0	35	2	0	1	target	1	401	800	42149	13.328	13.099	13.557
ProbeTrack13	7	ProbeTrack	13.2	SCS215a	20111102.133217	20111102.133621	8	0.013340	60	10	60-180	60	163	GapExp	Blank	0	36	2	1	0	distractor	1	470	765	42914	13.328	12.602	14.055
ProbeTrack13	7	ProbeTrack	13.2	SCS215a	20111102.133217	20111102.133630	8	0.013340	60	10	60-180	60	143	GapExp	Blank	0	37	2	45	1	target	1	400	800	43714	13.328	13.087	13.564
ProbeTrack13	7	ProbeTrack	13.2	SCS215a	20111102.133217	20111102.133637	8	0.013340	60	10	60-180	60	65	GapExp	Blank	0	38	2	0	1	target	1	498	751	44465	13.328	11.287	15.356
ProbeTrack13	7	ProbeTrack	13.2	SCS215a	20111102.133217	20111102.133642	8	0.013340	60	10	60-180	60	160	GapExp	Blank	0	39	2	45	1	target	1	412	794	45259	13.328	13.108	13.552
ProbeTrack13	7	ProbeTrack	13.2	SCS215a	20111102.133217	20111102.133649	8	0.013340	60	10	60-180	60	106	GapExp	Blank	0	40	2	1	1	target	1	346	827	46086	13.328	13.008	13.641
ProbeTrack13	7	ProbeTrack	13.2	SCS215a	20111102.133217	20111102.133655	8	0.013340	60	10	60-180	60	134	GapExp	Blank	0	41	2	0	1	target	1	391	805	46891	13.328	8.461	18.197
ProbeTrack13	7	ProbeTrack	13.2	SCS215a	20111102.133217	20111102.133702	8	0.013340	60	10	60-180	60	83	GapExp	Blank	0	42	2	1	1	target	1	355	823	47714	13.328	9.554	17.094
ProbeTrack13	7	ProbeTrack	13.2	SCS215a	20111102.133217	20111102.133707	8	0.013340	60	10	60-180	60	112	GapExp	Blank	0	43	2	0	1	target	1	354	823	48537	13.328	13.306	13.348
ProbeTrack13	7	ProbeTrack	13.2	SCS215a	20111102.133217	20111102.133713	8	0.013340	60	10	60-180	60	177	GapExp	Blank	0	44	2	3	1	distractor	0	760	-1000	47537	13.328	13.307	13.354
ProbeTrack13	7	ProbeTrack	13.2	SCS215a	20111102.133217	20111102.133721	8	0.013340	60	10	60-180	60	139	GapExp	Blank	0	45	2	45	0	distractor	1	643	679	48216	13.328	13.308	13.348
ProbeTrack13	7	ProbeTrack	13.2	SCS215a	20111102.133217	20111102.133729	8	0.013340	60	10	60-180	60	170	GapExp	Blank	0	46	2	3	0	distractor	1	609	696	48912	13.328	9.056	17.604
ProbeTrack13	7	ProbeTrack	13.2	SCS215a	20111102.133217	20111102.133736	8	0.013340	60	10	60-180	60	171	GapExp	Blank	0	47	2	1	0	distractor	1	669	666	49578	13.328	5.051	21.612
ProbeTrack13	7	ProbeTrack	13.2	SCS215a	20111102.133217	20111102.133743	8	0.013340	60	10	60-180	60	155	GapExp	Blank	0	48	2	1	0	distractor	1	734	633	50211	13.328	13.113	13.536
ProbeTrack13	7	ProbeTrack	13.2	SCS215a	20111102.133217	20111102.133750	8	0.013340	60	10	60-180	60	99	GapExp	Blank	0	49	2	3	1	target	1	507	747	50958	13.328	12.116	14.541
ProbeTrack13	7	ProbeTrack	13.2	SCS215a	20111102.133217	20111102.133756	8	0.013340	60	10	60-180	60	64	GapExp	Blank	0	50	2	0	0	distractor	1	664	668	51626	13.328	13.307	13.351
ProbeTrack13	7	ProbeTrack	13.2	SCS215a	20111102.133217	20111102.133802	8	0.013340	60	10	60-180	60	88	GapExp	Blank	0	51	2	0	1	target	1	526	737	52363	13.328	7.948	21.767
ProbeTrack13	7	ProbeTrack	13.2	SCS215a	20111102.133217	20111102.133808	8	0.013340	60	10	60-180	60	87	GapExp	Blank	0	52	2	3	1	target	1	404	798	53161	13.328	13.106	13.547
ProbeTrack13	7	ProbeTrack	13.2	SCS215a	20111102.133217	20111102.133813	8	0.013340	60	10	60-180	60	178	GapExp	Blank	0	53	2	3	0	distractor	1	562	719	53880	13.328	12.792	13.869
ProbeTrack13	7	ProbeTrack	13.2	SCS215a	20111102.133217	20111102.133820	8	0.013340	60	10	60-180	60	115	GapExp	Blank	0	54	2	45	1	target	1	388	806	54686	13.328	11.019	15.632
ProbeTrack13	7	ProbeTrack	13.2	SCS215a	20111102.133217	20111102.133827	8	0.013340	60	10	60-180	60	127	GapExp	Blank	0	55	2	0	1	target	1	388	806	55492	13.328	13.100	13.568
ProbeTrack13	7	ProbeTrack	13.2	SCS215a	20111102.133217	20111102.133834	8	0.013340	60	10	60-180	60	132	GapExp	Blank	0	56	2	3	1	distractor	0	557	-1000	54492	13.328	13.306	13.346
ProbeTrack13	7	ProbeTrack	13.2	SCS215a	20111102.133217	20111102.133840	8	0.013340	60	10	60-180	60	124	GapExp	Blank	0	57	2	1	0	distractor	1	660	670	55162	13.328	13.100	13.555
ProbeTrack13	7	ProbeTrack	13.2	SCS215a	20111102.133217	20111102.133847	8	0.013340	60	10	60-180	60	107	GapExp	Blank	0	58	2	1	0	target	0	822	-1000	54162	13.328	13.308	13.349
ProbeTrack13	7	ProbeTrack	13.2	SCS215a	20111102.133217	20111102.133854	8	0.013340	60	10	60-180	60	103	GapExp	Blank	0	59	2	45	0	distractor	1	420	790	54952	13.328	13.307	13.347
ProbeTrack13	7	ProbeTrack	13.2	SCS215a	20111102.133217	20111102.133900	8	0.013340	60	10	60-180	60	69	GapExp	Blank	0	60	2	0	0	target	0	753	-1000	53952	13.328	7.616	19.031
ProbeTrack13	7	ProbeTrack	13.2	SCS215a	20111102.133217	20111102.133906	8	0.013340	60	10	60-180	60	145	GapExp	Blank	0	61	2	0	1	target	1	462	769	54721	13.328	13.307	13.343
ProbeTrack13	7	ProbeTrack	13.2	SCS215a	20111102.133217	20111102.133913	8	0.013340	60	10	60-180	60	143	GapExp	Blank	0	62	2	0	0	distractor	1	539	731	55452	13.328	13.291	13.359
ProbeTrack13	7	ProbeTrack	13.2	SCS215a	20111102.133217	20111102.133919	8	0.013340	60	10	60-180	60	174	GapExp	Blank	0	63	2	1	0	distractor	1	606	697	56149	13.328	11.937	14.720
ProbeTrack13	7	ProbeTrack	13.2	SCS215a	20111102.133217	20111102.133926	8	0.013340	60	10	60-180	60	66	GapExp	Blank	0	64	2	0	0	distractor	1	621	690	56839	13.328	8.902	17.748
ProbeTrack13	7	ProbeTrack	13.2	SCS215a	20111102.133217	20111102.133932	8	0.013340	60	10	60-180	60	89	GapExp	Blank	0	65	2	3	1	target	1	477	762	57601	13.328	13.084	13.557
ProbeTrack13	7	ProbeTrack	13.2	SCS215a	20111102.133217	20111102.133938	8	0.013340	60	10	60-180	60	144	GapExp	Blank	0	66	2	45	1	target	1	506	747	58348	13.328	11.264	15.398
ProbeTrack13	7	ProbeTrack	13.2	SCS215a	20111102.133217	20111102.133945	8	0.013340	60	10	60-180	60	139	GapExp	Blank	0	67	2	45	0	distractor	1	529	736	59084	13.328	13.098	13.550
ProbeTrack13	7	ProbeTrack	13.2	SCS215a	20111102.133217	20111102.133952	8	0.013340	60	10	60-180	60	109	GapExp	Blank	0	68	2	1	1	target	1	529	736	59820	13.328	8.678	17.979
ProbeTrack13	7	ProbeTrack	13.2	SCS215a	20111102.133217	20111102.133958	8	0.013340	60	10	60-180	60	157	GapExp	Blank	0	69	2	0	0	target	0	698	-1000	58820	13.328	13.104	13.548
ProbeTrack13	7	ProbeTrack	13.2	SCS215a	20111102.133217	20111102.134005	8	0.013340	60	10	60-180	60	104	GapExp	Blank	0	70	2	45	0	distractor	1	611	695	59515	13.328	6.396	20.260
ProbeTrack13	7	ProbeTrack	13.2	SCS215a	20111102.133217	20111102.134012	8	0.013340	60	10	60-180	60	119	GapExp	Blank	0	71	2	0	0	distractor	1	636	682	60197	13.328	12.736	13.921
ProbeTrack13	7	ProbeTrack	13.2	SCS215a	20111102.133217	20111102.134019	8	0.013340	60	10	60-180	60	132	GapExp	Blank	0	72	2	1	1	target	1	428	786	60983	13.328	13.105	13.549
ProbeTrack13	7	ProbeTrack	13.2	SCS215a	20111102.133217	20111102.134025	8	0.013340	60	10	60-180	60	142	GapExp	Blank	0	73	2	1	0	distractor	1	880	560	61543	13.328	13.111	13.539
ProbeTrack13	7	ProbeTrack	13.2	SCS215a	20111102.133217	20111102.134032	8	0.013340	60	10	60-180	60	175	GapExp	Blank	0	74	2	3	0	distractor	1	630	685	62228	13.328	5.651	21.005
ProbeTrack13	7	ProbeTrack	13.2	SCS215a	20111102.133217	20111102.134039	8	0.013340	60	10	60-180	60	166	GapExp	Blank	0	75	2	1	1	target	1	339	831	63059	13.328	13.306	13.349
ProbeTrack13	7	ProbeTrack	13.2	SCS215a	20111102.133217	20111102.134046	8	0.013340	60	10	60-180	60	127	GapExp	Blank	0	76	2	1	0	target	0	422	-1000	62059	13.329	13.300	13.654
ProbeTrack13	7	ProbeTrack	13.2	SCS215a	20111102.133217	20111102.134055	8	0.013340	60	10	60-180	60	148	GapExp	Blank	0	77	2	1	0	distractor	1	489	756	62815	13.328	13.104	13.543
ProbeTrack13	7	ProbeTrack	13.2	SCS215a	20111102.133217	20111102.134101	8	0.013340	60	10	60-180	60	93	GapExp	Blank	0	78	2	1	1	target	1	655	673	63488	13.328	7.193	19.472
ProbeTrack13	7	ProbeTrack	13.2	SCS215a	20111102.133217	20111102.134107	8	0.013340	60	10	60-180	60	94	GapExp	Blank	0	79	2	1	0	distractor	1	546	727	64215	13.328	13.300	13.353
ProbeTrack13	7	ProbeTrack	13.2	SCS215a	20111102.133217	20111102.134113	8	0.013340	60	10	60-180	60	152	GapExp	Blank	0	80	2	45	0	target	0	459	-1000	63215	13.328	7.869	18.786
ProbeTrack13	7	ProbeTrack	13.2	SCS215a	20111102.133217	20111102.134120	8	0.013340	60	10	60-180	60	103	GapExp	Blank	0	81	2	45	0	distractor	1	362	819	64034	13.328	13.310	13.346
ProbeTrack13	7	ProbeTrack	13.2	SCS215a	20111102.133217	20111102.134127	8	0.013340	60	10	60-180	60	159	GapExp	Blank	0	82	2	3	0	distractor	1	556	722	64756	13.328	11.012	15.657
ProbeTrack13	7	ProbeTrack	13.2	SCS215a	20111102.133217	20111102.134134	8	0.013340	60	10	60-180	60	103	GapExp	Blank	0	83	2	45	1	target	1	551	725	65481	13.328	6.379	20.265
ProbeTrack13	7	ProbeTrack	13.2	SCS215a	20111102.133217	20111102.134140	8	0.013340	60	10	60-180	60	113	GapExp	Blank	0	84	2	0	1	distractor	0	467	-1000	64481	13.328	8.784	17.885
ProbeTrack13	7	ProbeTrack	13.2	SCS215a	20111102.133217	20111102.134146	8	0.013340	60	10	60-180	60	148	GapExp	Blank	0	85	2	3	1	target	1	432	784	65265	13.328	13.291	13.358
ProbeTrack13	7	ProbeTrack	13.2	SCS215a	20111102.133217	20111102.134153	8	0.013340	60	10	60-180	60	116	GapExp	Blank	0	86	2	3	1	target	1	377	812	66077	13.328	13.298	13.352
ProbeTrack13	7	ProbeTrack	13.2	SCS215a	20111102.133217	20111102.134159	8	0.013340	60	10	60-180	60	108	GapExp	Blank	0	87	2	3	0	distractor	1	516	742	66819	13.328	13.111	13.544
ProbeTrack13	7	ProbeTrack	13.2	SCS215a	20111102.133217	20111102.134206	8	0.013340	60	10	60-180	60	133	GapExp	Blank	0	88	2	45	1	target	1	349	826	67645	13.328	12.581	14.083
ProbeTrack13	7	ProbeTrack	13.2	SCS215a	20111102.133217	20111102.134212	8	0.013340	60	10	60-180	60	110	GapExp	Blank	0	89	2	0	1	target	1	853	574	68219	13.328	12.124	14.540
ProbeTrack13	7	ProbeTrack	13.2	SCS215a	20111102.133217	20111102.134219	8	0.013340	60	10	60-180	60	145	GapExp	Blank	0	90	2	0	0	distractor	1	576	712	68931	13.328	13.104	13.563
ProbeTrack13	7	ProbeTrack	13.2	SCS215a	20111102.133217	20111102.134225	8	0.013340	60	10	60-180	60	110	GapExp	Blank	0	91	2	45	1	target	1	332	834	69765	13.328	13.308	13.346
ProbeTrack13	7	ProbeTrack	13.2	SCS215a	20111102.133217	20111102.134232	8	0.013340	60	10	60-180	60	155	GapExp	Blank	0	92	2	3	1	target	1	414	793	70558	13.328	13.094	13.559
ProbeTrack13	7	ProbeTrack	13.2	SCS215a	20111102.133217	20111102.134239	8	0.013340	60	10	60-180	60	178	GapExp	Blank	0	93	2	3	1	target	1	363	819	71377	13.328	13.111	13.549
ProbeTrack13	7	ProbeTrack	13.2	SCS215a	20111102.133217	20111102.134246	8	0.013340	60	10	60-180	60	112	GapExp	Blank	0	94	2	45	0	distractor	1	520	740	72117	13.328	13.090	13.558
ProbeTrack13	7	ProbeTrack	13.2	SCS215a	20111102.133217	20111102.134253	8	0.013340	60	10	60-180	60	71	GapExp	Blank	0	95	2	0	1	target	1	457	772	72889	13.328	13.299	13.356
ProbeTrack13	7	ProbeTrack	13.2	SCS215a	20111102.133217	20111102.134258	8	0.013340	60	10	60-180	60	152	GapExp	Blank	0	96	2	0	1	target	1	361	820	73709	13.328	13.298	13.347
ProbeTrack13	7	ProbeTrack	13.2	SCS215a	20111102.133217	20111102.134305	8	0.013340	60	10	60-180	60	93	GapExp	Blank	0	97	2	0	1	target	1	419	791	74500	13.328	13.300	13.356
ProbeTrack13	7	ProbeTrack	13.2	SCS215a	20111102.133217	20111102.134311	8	0.013340	60	10	60-180	60	169	GapExp	Blank	0	98	2	3	1	distractor	0	342	-1000	73500	13.328	10.584	16.258
ProbeTrack13	7	ProbeTrack	13.2	SCS215a	20111102.133217	20111102.134317	8	0.013340	60	10	60-180	60	129	GapExp	Blank	0	99	2	45	1	distractor	0	699	-1000	72500	13.328	12.410	13.348
ProbeTrack13	7	ProbeTrack	13.2	SCS215a	20111102.133217	20111102.134325	8	0.013340	60	10	60-180	60	106	GapExp	Blank	0	100	2	3	0	target	0	451	-1000	71500	13.328	13.278	13.376
ProbeTrack13	7	ProbeTrack	13.2	SCS215a	20111102.133217	20111102.134331	8	0.013340	60	10	60-180	60	100	GapExp	Blank	0	101	2	0	0	distractor	1	634	683	72183	13.328	13.301	13.350
ProbeTrack13	7	ProbeTrack	13.2	SCS215a	20111102.133217	20111102.134338	8	0.013340	60	10	60-180	60	79	GapExp	Blank	0	102	2	1	0	distractor	1	584	708	72891	13.328	12.545	13.569
ProbeTrack13	7	ProbeTrack	13.2	SCS215a	20111102.133217	20111102.134344	8	0.013340	60	10	60-180	60	172	GapExp	Blank	0	103	2	45	1	target	1	528	736	73627	13.328	12.030	14.626
ProbeTrack13	7	ProbeTrack	13.2	SCS215a	20111102.133217	20111102.134351	8	0.013340	60	10	60-180	60	139	GapExp	Blank	0	104	2	1	1	target	1	488	756	74383	13.328	12.754	13.923
ProbeTrack13	7	ProbeTrack	13.2	SCS215a	20111102.133217	20111102.134357	8	0.013340	60	10	60-180	60	66	GapExp	Blank	0	105	2	3	1	target	1	518	741	75124	13.328	9.225	17.427
ProbeTrack13	7	ProbeTrack	13.2	SCS215a	20111102.133217	20111102.134403	8	0.013340	60	10	60-180	60	159	GapExp	Blank	0	106	2	45	0	distractor	1	500	750	75874	13.328	12.938	13.712
ProbeTrack13	7	ProbeTrack	13.2	SCS215a	20111102.133217	20111102.134411	8	0.013340	60	10	60-180	60	122	GapExp	Blank	0	107	2	1	0	distractor	1	636	682	76556	13.328	13.074	13.609
ProbeTrack13	7	ProbeTrack	13.2	SCS215a	20111102.133217	20111102.134417	8	0.013340	60	10	60-180	60	130	GapExp	Blank	0	108	2	3	0	distractor	1	522	739	77295	13.328	13.098	13.550
ProbeTrack13	7	ProbeTrack	13.2	SCS215a	20111102.133217	20111102.134424	8	0.013340	60	10	60-180	60	85	GapExp	Blank	0	109	2	45	1	target	1	320	840	78135	13.328	10.328	16.330
ProbeTrack13	7	ProbeTrack	13.2	SCS215a	20111102.133217	20111102.134430	8	0.013340	60	10	60-180	60	127	GapExp	Blank	0	110	2	1	1	target	1	373	814	78949	13.328	7.420	19.235
ProbeTrack13	7	ProbeTrack	13.2	SCS215a	20111102.133217	20111102.134436	8	0.013340	60	10	60-180	60	87	GapExp	Blank	0	111	2	3	1	target	1	445	778	79727	13.328	13.302	13.355
ProbeTrack13	7	ProbeTrack	13.2	SCS215a	20111102.133217	20111102.134442	8	0.013340	60	10	60-180	60	80	GapExp	Blank	0	112	2	45	0	distractor	1	589	706	80433	13.328	12.134	14.516
ProbeTrack13	7	ProbeTrack	13.2	SCS215a	20111102.133217	20111102.134448	8	0.013340	60	10	60-180	60	129	GapExp	Blank	0	113	2	3	0	distractor	1	494	753	81186	13.328	7.781	18.875
ProbeTrack13	7	ProbeTrack	13.2	SCS215a	20111102.133217	20111102.134455	8	0.013340	60	10	60-180	60	91	GapExp	Blank	0	114	2	3	0	distractor	1	565	718	81904	13.328	7.584	19.072
ProbeTrack13	7	ProbeTrack	13.2	SCS215a	20111102.133217	20111102.134500	8	0.013340	60	10	60-180	60	135	GapExp	Blank	0	115	2	45	1	target	1	508	746	82650	13.328	13.088	13.555
ProbeTrack13	7	ProbeTrack	13.2	SCS215a	20111102.133217	20111102.134507	8	0.013340	60	10	60-180	60	128	GapExp	Blank	0	116	2	1	1	target	1	454	773	83423	13.328	13.105	13.565
ProbeTrack13	7	ProbeTrack	13.2	SCS215a	20111102.133217	20111102.134514	8	0.013340	60	10	60-180	60	176	GapExp	Blank	0	117	2	45	1	target	1	389	806	84229	13.328	8.172	18.490
ProbeTrack13	7	ProbeTrack	13.2	SCS215a	20111102.133217	20111102.134521	8	0.013340	60	10	60-180	60	130	GapExp	Blank	0	118	2	1	0	distractor	1	752	624	84853	13.328	12.185	14.478
ProbeTrack13	7	ProbeTrack	13.2	SCS215a	20111102.133217	20111102.134528	8	0.013340	60	10	60-180	60	165	GapExp	Blank	0	119	2	0	0	distractor	1	960	520	85373	13.328	12.993	13.641
ProbeTrack13	7	ProbeTrack	13.2	SCS215a	20111102.133217	20111102.134535	8	0.013340	60	10	60-180	60	136	GapExp	Blank	0	120	2	1	1	target	1	550	725	86098	13.328	11.383	15.275
ProbeTrack13	7	ProbeTrack	13.2	SCS215a	20111102.133217	20111102.134541	8	0.013340	60	10	60-180	60	78	GapExp	Blank	0	121	2	45	1	target	1	394	803	86901	13.328	11.829	14.835
ProbeTrack13	7	ProbeTrack	13.2	SCS215a	20111102.133217	20111102.134548	8	0.013340	60	10	60-180	60	133	GapExp	Blank	0	122	2	0	0	distractor	1	1102	449	87350	13.328	12.026	14.648
ProbeTrack13	7	ProbeTrack	13.2	SCS215a	20111102.133217	20111102.134555	8	0.013340	60	10	60-180	60	164	GapExp	Blank	0	123	2	3	0	target	0	325	-1000	86350	13.328	9.714	16.932
ProbeTrack13	7	ProbeTrack	13.2	SCS215a	20111102.133217	20111102.134601	8	0.013340	60	10	60-180	60	141	GapExp	Blank	0	124	2	3	0	distractor	1	545	728	87078	13.328	12.531	14.207
ProbeTrack13	7	ProbeTrack	13.2	SCS215a	20111102.133217	20111102.134608	8	0.013340	60	10	60-180	60	103	GapExp	Blank	0	125	2	0	0	distractor	1	527	737	87815	13.328	13.306	13.349
ProbeTrack13	7	ProbeTrack	13.2	SCS215a	20111102.133217	20111102.134614	8	0.013340	60	10	60-180	60	129	GapExp	Blank	0	126	2	0	1	target	1	344	828	88643	13.328	13.155	13.509
ProbeTrack13	7	ProbeTrack	13.2	SCS215a	20111102.133217	20111102.134621	8	0.013340	60	10	60-180	60	178	GapExp	Blank	0	127	2	1	1	target	1	394	803	89446	13.328	9.905	16.741
ProbeTrack13	7	ProbeTrack	13.2	SCS215a	20111102.133217	20111102.134627	8	0.013340	60	10	60-180	60	138	GapExp	Blank	0	128	2	1	0	distractor	1	413	794	90240	13.328	11.492	15.167
ProbeTrack13	7	ProbeTrack	13.2	SCS215a	20111102.133217	20111102.134634	8	0.013340	60	10	60-180	60	141	GapExp	Blank	0	129	2	45	0	distractor	1	510	745	90985	13.328	7.378	19.296
ProbeTrack13	7	ProbeTrack	13.2	SCS215a	20111102.133217	20111102.134641	8	0.013340	60	10	60-180	60	79	GapExp	Blank	0	130	2	0	0	distractor	1	494	753	91738	13.328	13.307	13.349
ProbeTrack13	7	ProbeTrack	13.2	SCS215a	20111102.133217	20111102.134646	8	0.013340	60	10	60-180	60	180	GapExp	Blank	0	131	2	45	0	distractor	1	453	774	92512	13.328	8.416	18.247
ProbeTrack13	7	ProbeTrack	13.2	SCS215a	20111102.133217	20111102.134654	8	0.013340	60	10	60-180	60	119	GapExp	Blank	0	132	2	1	1	target	1	346	827	93339	13.328	7.574	19.084
ProbeTrack13	7	ProbeTrack	13.2	SCS215a	20111102.133217	20111102.134700	8	0.013340	60	10	60-180	60	133	GapExp	Blank	0	133	2	3	1	target	1	313	844	94183	13.328	10.185	16.490
ProbeTrack13	7	ProbeTrack	13.2	SCS215a	20111102.133217	20111102.134707	8	0.013340	60	10	60-180	60	90	GapExp	Blank	0	134	2	0	0	distractor	1	430	785	94968	13.328	13.098	13.557
ProbeTrack13	7	ProbeTrack	13.2	SCS215a	20111102.133217	20111102.134712	8	0.013340	60	10	60-180	60	135	GapExp	Blank	0	135	2	0	1	target	1	416	792	95760	13.328	11.766	14.888
ProbeTrack13	7	ProbeTrack	13.2	SCS215a	20111102.133217	20111102.134718	8	0.013340	60	10	60-180	60	152	GapExp	Blank	0	136	2	45	0	distractor	1	639	681	96441	13.328	13.083	13.560
ProbeTrack13	7	ProbeTrack	13.2	SCS215a	20111102.133217	20111102.134726	8	0.013340	60	10	60-180	60	69	GapExp	Blank	0	137	2	0	1	target	1	511	745	97186	13.328	12.725	13.932
ProbeTrack13	7	ProbeTrack	13.2	SCS215a	20111102.133217	20111102.134732	8	0.013340	60	10	60-180	60	143	GapExp	Blank	0	138	2	45	1	target	1	551	725	97911	13.328	12.513	14.155
ProbeTrack13	7	ProbeTrack	13.2	SCS215a	20111102.133217	20111102.134739	8	0.013340	60	10	60-180	60	111	GapExp	Blank	0	139	2	1	1	distractor	0	561	-1000	96911	13.328	13.258	13.387
ProbeTrack13	7	ProbeTrack	13.2	SCS215a	20111102.133217	20111102.134745	8	0.013340	60	10	60-180	60	115	GapExp	Blank	0	140	2	0	0	distractor	1	635	683	97594	13.328	10.766	15.902
ProbeTrack13	7	ProbeTrack	13.2	SCS215a	20111102.133217	20111102.134752	8	0.013340	60	10	60-180	60	142	GapExp	Blank	0	141	2	3	0	target	0	518	-1000	96594	13.328	13.201	13.453
ProbeTrack13	7	ProbeTrack	13.2	SCS215a	20111102.133217	20111102.134759	8	0.013340	60	10	60-180	60	154	GapExp	Blank	0	142	2	45	0	distractor	1	378	811	97405	13.328	12.950	13.710
ProbeTrack13	7	ProbeTrack	13.2	SCS215a	20111102.133217	20111102.134806	8	0.013340	60	10	60-180	60	75	GapExp	Blank	0	143	2	1	0	distractor	1	588	706	98111	13.328	13.307	13.348
ProbeTrack13	7	ProbeTrack	13.2	SCS215a	20111102.133217	20111102.134813	8	0.013340	60	10	60-180	60	94	GapExp	Blank	0	144	2	3	1	target	1	451	775	98886	13.328	11.817	14.830
ProbeTrack13	7	ProbeTrack	13.2	SCS215a	20111102.133217	20111102.134819	8	0.013340	60	10	60-180	60	76	GapExp	Blank	0	145	2	3	1	target	1	395	803	99689	13.328	13.297	13.353
ProbeTrack13	7	ProbeTrack	13.2	SCS215a	20111102.133217	20111102.134824	8	0.013340	60	10	60-180	60	106	GapExp	Blank	0	146	2	0	1	target	1	410	795	100484	13.328	9.108	17.550
ProbeTrack13	7	ProbeTrack	13.2	SCS215a	20111102.133217	20111102.134831	8	0.013340	60	10	60-180	60	126	GapExp	Blank	0	147	2	0	0	target	0	656	-1000	99484	13.328	13.094	13.554
ProbeTrack13	7	ProbeTrack	13.2	SCS215a	20111102.133217	20111102.134837	8	0.013340	60	10	60-180	60	134	GapExp	Blank	0	148	2	45	1	target	1	324	838	100322	13.374	13.098	26.216
ProbeTrack13	7	ProbeTrack	13.2	SCS215a	20111102.133217	20111102.134844	8	0.013340	60	10	60-180	60	111	GapExp	Blank	0	149	2	0	1	distractor	0	482	-1000	99322	13.328	6.670	19.999
ProbeTrack13	7	ProbeTrack	13.2	SCS215a	20111102.133217	20111102.134850	8	0.013340	60	10	60-180	60	143	GapExp	Blank	0	150	2	3	1	target	1	374	813	100135	13.328	12.707	13.938
ProbeTrack13	7	ProbeTrack	13.2	SCS215a	20111102.133217	20111102.134857	8	0.013340	60	10	60-180	60	168	GapExp	Blank	0	151	2	1	1	target	1	397	802	100937	13.328	9.646	17.003
ProbeTrack13	7	ProbeTrack	13.2	SCS215a	20111102.133217	20111102.134904	8	0.013340	60	10	60-180	60	110	GapExp	Blank	0	152	2	0	1	target	1	401	800	101737	13.328	13.299	13.363
ProbeTrack13	7	ProbeTrack	13.2	SCS215a	20111102.133217	20111102.134910	8	0.013340	60	10	60-180	60	152	GapExp	Blank	0	153	2	0	0	distractor	1	590	705	102442	13.328	9.338	17.299
ProbeTrack13	7	ProbeTrack	13.2	SCS215a	20111102.133217	20111102.134916	8	0.013340	60	10	60-180	60	119	GapExp	Blank	0	154	2	1	1	target	1	355	823	103265	13.328	13.303	13.348
ProbeTrack13	7	ProbeTrack	13.2	SCS215a	20111102.133217	20111102.134922	8	0.013340	60	10	60-180	60	65	GapExp	Blank	0	155	2	0	1	distractor	0	596	-1000	102265	13.328	10.122	16.528
ProbeTrack13	7	ProbeTrack	13.2	SCS215a	20111102.133217	20111102.134928	8	0.013340	60	10	60-180	60	164	GapExp	Blank	0	156	2	45	0	distractor	1	399	801	103066	13.328	13.092	13.549
ProbeTrack13	7	ProbeTrack	13.2	SCS215a	20111102.133217	20111102.134935	8	0.013340	60	10	60-180	60	124	GapExp	Blank	0	157	2	45	0	distractor	1	511	745	103811	13.328	13.308	13.347
ProbeTrack13	7	ProbeTrack	13.2	SCS215a	20111102.133217	20111102.134942	8	0.013340	60	10	60-180	60	171	GapExp	Blank	0	158	2	45	1	target	1	359	821	104632	13.328	11.264	15.406
ProbeTrack13	7	ProbeTrack	13.2	SCS215a	20111102.133217	20111102.134950	8	0.013340	60	10	60-180	60	105	GapExp	Blank	0	159	2	3	0	distractor	1	538	731	105363	13.328	9.240	13.353
ProbeTrack13	7	ProbeTrack	13.2	SCS215a	20111102.133217	20111102.134956	8	0.013340	60	10	60-180	60	154	GapExp	Blank	0	160	2	1	0	distractor	1	558	721	106084	13.328	13.108	13.543
ProbeTrack13	7	ProbeTrack	13.2	SCS215a	20111102.133217	20111102.135002	8	0.013340	60	10	60-180	60	126	GapExp	Blank	0	161	2	45	0	distractor	1	425	788	106872	13.374	7.864	21.644
ProbeTrack13	7	ProbeTrack	13.2	SCS215a	20111102.133217	20111102.135010	8	0.013340	60	10	60-180	60	114	GapExp	Blank	0	162	2	3	0	distractor	1	411	795	107667	13.328	10.306	16.356
ProbeTrack13	7	ProbeTrack	13.2	SCS215a	20111102.133217	20111102.135015	8	0.013340	60	10	60-180	60	64	GapExp	Blank	0	163	2	45	1	target	1	434	783	108450	13.328	13.300	13.359
ProbeTrack13	7	ProbeTrack	13.2	SCS215a	20111102.133217	20111102.135021	8	0.013340	60	10	60-180	60	154	GapExp	Blank	0	164	2	1	0	distractor	1	473	764	109214	13.328	13.095	13.552
ProbeTrack13	7	ProbeTrack	13.2	SCS215a	20111102.133217	20111102.135028	8	0.013340	60	10	60-180	60	108	GapExp	Blank	0	165	2	45	1	target	1	460	770	109984	13.328	13.104	13.564
ProbeTrack13	7	ProbeTrack	13.2	SCS215a	20111102.133217	20111102.135034	8	0.013340	60	10	60-180	60	166	GapExp	Blank	0	166	2	1	1	target	1	388	806	110790	13.328	13.085	13.564
ProbeTrack13	7	ProbeTrack	13.2	SCS215a	20111102.133217	20111102.135041	8	0.013340	60	10	60-180	60	81	GapExp	Blank	0	167	2	1	0	distractor	1	456	772	111562	13.328	13.274	13.368
ProbeTrack13	7	ProbeTrack	13.2	SCS215a	20111102.133217	20111102.135047	8	0.013340	60	10	60-180	60	90	GapExp	Blank	0	168	2	45	1	target	1	290	855	112417	13.328	13.308	13.348
ProbeTrack13	7	ProbeTrack	13.2	SCS215a	20111102.133217	20111102.135053	8	0.013340	60	10	60-180	60	141	GapExp	Blank	0	169	2	3	1	target	1	344	828	113245	13.328	12.637	14.025
ProbeTrack13	7	ProbeTrack	13.2	SCS215a	20111102.133217	20111102.135100	8	0.013340	60	10	60-180	60	148	GapExp	Blank	0	170	2	45	1	target	1	492	754	113999	13.328	13.290	13.376
ProbeTrack13	7	ProbeTrack	13.2	SCS215a	20111102.133217	20111102.135107	8	0.013340	60	10	60-180	60	133	GapExp	Blank	0	171	2	1	1	target	1	611	695	114694	13.328	13.306	13.348
ProbeTrack13	7	ProbeTrack	13.2	SCS215a	20111102.133217	20111102.135113	8	0.013340	60	10	60-180	60	81	GapExp	Blank	0	172	2	3	1	target	1	345	828	115522	13.328	9.067	13.345
ProbeTrack13	7	ProbeTrack	13.2	SCS215a	20111102.133217	20111102.135119	8	0.013340	60	10	60-180	60	145	GapExp	Blank	0	173	2	0	0	distractor	1	460	770	116292	13.328	13.306	13.346
ProbeTrack13	7	ProbeTrack	13.2	SCS215a	20111102.133217	20111102.135125	8	0.013340	60	10	60-180	60	139	GapExp	Blank	0	174	2	1	1	distractor	0	266	-1000	115292	13.328	9.673	16.984
ProbeTrack13	7	ProbeTrack	13.2	SCS215a	20111102.133217	20111102.135131	8	0.013340	60	10	60-180	60	107	GapExp	Blank	0	175	2	45	0	distractor	1	348	826	116118	13.328	13.109	13.538
ProbeTrack13	7	ProbeTrack	13.2	SCS215a	20111102.133217	20111102.135138	8	0.013340	60	10	60-180	60	80	GapExp	Blank	0	176	2	3	0	distractor	1	486	757	116875	13.328	13.303	13.356
ProbeTrack13	7	ProbeTrack	13.2	SCS215a	20111102.133217	20111102.135144	8	0.013340	60	10	60-180	60	106	GapExp	Blank	0	177	2	45	1	target	1	343	829	117704	13.328	11.902	14.738
ProbeTrack13	7	ProbeTrack	13.2	SCS215a	20111102.133217	20111102.135151	8	0.013340	60	10	60-180	60	168	GapExp	Blank	0	178	2	3	0	distractor	1	439	781	118485	13.328	13.308	13.345
ProbeTrack13	7	ProbeTrack	13.2	SCS215a	20111102.133217	20111102.135157	8	0.013340	60	10	60-180	60	133	GapExp	Blank	0	179	2	1	1	target	1	458	771	119256	13.328	13.293	13.372
ProbeTrack13	7	ProbeTrack	13.2	SCS215a	20111102.133217	20111102.135204	8	0.013340	60	10	60-180	60	116	GapExp	Blank	0	180	2	45	0	distractor	1	434	783	120039	13.328	10.954	15.694
ProbeTrack13	7	ProbeTrack	13.2	SCS215a	20111102.133217	20111102.135210	8	0.013340	60	10	60-180	60	90	GapExp	Blank	0	181	2	0	0	distractor	1	483	759	120798	13.328	13.304	13.353
ProbeTrack13	7	ProbeTrack	13.2	SCS215a	20111102.133217	20111102.135216	8	0.013340	60	10	60-180	60	154	GapExp	Blank	0	182	2	3	1	target	1	460	770	121568	13.327	13.084	13.346
ProbeTrack13	7	ProbeTrack	13.2	SCS215a	20111102.133217	20111102.135223	8	0.013340	60	10	60-180	60	133	GapExp	Blank	0	183	2	45	0	target	0	54290	-1000	120568	13.328	13.112	13.548
ProbeTrack13	7	ProbeTrack	13.2	SCS215a	20111102.133217	20111102.135324	8	0.013340	60	10	60-180	60	147	GapExp	Blank	0	184	2	1	1	target	1	439	781	121349	13.328	13.302	13.348
ProbeTrack13	7	ProbeTrack	13.2	SCS215a	20111102.133217	20111102.135334	8	0.013340	60	10	60-180	60	84	GapExp	Blank	0	185	2	3	0	distractor	1	814	593	121942	13.328	13.308	13.360
ProbeTrack13	7	ProbeTrack	13.2	SCS215a	20111102.133217	20111102.135340	8	0.013340	60	10	60-180	60	92	GapExp	Blank	0	186	2	0	1	target	1	425	788	122730	13.328	13.097	13.543
ProbeTrack13	7	ProbeTrack	13.2	SCS215a	20111102.133217	20111102.135346	8	0.013340	60	10	60-180	60	93	GapExp	Blank	0	187	2	0	0	distractor	1	515	743	123473	13.328	13.112	13.557
ProbeTrack13	7	ProbeTrack	13.2	SCS215a	20111102.133217	20111102.135352	8	0.013340	60	10	60-180	60	71	GapExp	Blank	0	188	2	1	1	target	1	332	834	124307	13.328	10.122	16.535
ProbeTrack13	7	ProbeTrack	13.2	SCS215a	20111102.133217	20111102.135357	8	0.013340	60	10	60-180	60	175	GapExp	Blank	0	189	2	0	0	distractor	1	414	793	125100	13.328	13.308	13.347
ProbeTrack13	7	ProbeTrack	13.2	SCS215a	20111102.133217	20111102.135404	8	0.013340	60	10	60-180	60	140	GapExp	Blank	0	190	2	45	1	distractor	0	524	-1000	124100	13.328	10.196	16.453
ProbeTrack13	7	ProbeTrack	13.2	SCS215a	20111102.133217	20111102.135411	8	0.013340	60	10	60-180	60	163	GapExp	Blank	0	191	2	45	0	distractor	1	634	683	124783	13.328	8.825	17.823
ProbeTrack13	7	ProbeTrack	13.2	SCS215a	20111102.133217	20111102.135418	8	0.013340	60	10	60-180	60	146	GapExp	Blank	0	192	2	45	1	target	1	396	802	125585	13.328	13.308	13.350
ProbeTrack13	7	ProbeTrack	13.2	SCS215a	20111102.133217	20111102.135425	8	0.013340	60	10	60-180	60	127	GapExp	Blank	0	193	2	45	0	target	0	306	-1000	124585	13.328	5.387	21.268
ProbeTrack13	7	ProbeTrack	13.2	SCS215a	20111102.133217	20111102.135432	8	0.013340	60	10	60-180	60	100	GapExp	Blank	0	194	2	1	1	target	1	457	772	125357	13.328	13.301	13.351
ProbeTrack13	7	ProbeTrack	13.2	SCS215a	20111102.133217	20111102.135438	8	0.013340	60	10	60-180	60	128	GapExp	Blank	0	195	2	45	0	distractor	1	508	746	126103	13.328	10.783	15.866
ProbeTrack13	7	ProbeTrack	13.2	SCS215a	20111102.133217	20111102.135445	8	0.013340	60	10	60-180	60	97	GapExp	Blank	0	196	2	1	0	distractor	1	472	764	126867	13.328	10.246	16.397
ProbeTrack13	7	ProbeTrack	13.2	SCS215a	20111102.133217	20111102.135451	8	0.013340	60	10	60-180	60	71	GapExp	Blank	0	197	2	0	1	target	1	389	806	127673	13.328	13.112	13.549
ProbeTrack13	7	ProbeTrack	13.2	SCS215a	20111102.133217	20111102.135456	8	0.013340	60	10	60-180	60	110	GapExp	Blank	0	198	2	1	1	target	1	386	807	128480	13.328	11.527	15.124
ProbeTrack13	7	ProbeTrack	13.2	SCS215a	20111102.133217	20111102.135501	8	0.013340	60	10	60-180	60	65	GapExp	Blank	0	199	2	1	0	distractor	1	433	784	129264	13.328	13.070	13.603
ProbeTrack13	7	ProbeTrack	13.2	SCS215a	20111102.133217	20111102.135507	8	0.013340	60	10	60-180	60	163	GapExp	Blank	0	200	2	3	0	distractor	1	658	671	129935	13.328	13.304	13.351
ProbeTrack13	7	ProbeTrack	13.2	SCS215a	20111102.135607	20111102.135617	8	0.013324	60	10	60-180	60	78	GapPrac	BigFlash	1	1	2	3	1	target	1	2852	0	129935	13.387	13.310	13.347
ProbeTrack13	7	ProbeTrack	13.2	SCS215a	20111102.135607	20111102.135628	8	0.013324	60	10	60-180	60	170	GapPrac	BigFlash	1	2	2	45	0	distractor	1	457	772	130707	13.328	13.098	13.561
ProbeTrack13	7	ProbeTrack	13.2	SCS215a	20111102.135607	20111102.135636	8	0.013324	60	10	60-180	60	158	GapPrac	BigFlash	1	3	2	3	0	distractor	1	433	784	131491	13.328	13.308	13.348
ProbeTrack13	7	ProbeTrack	13.2	SCS215a	20111102.135607	20111102.135643	8	0.013324	60	10	60-180	60	146	GapPrac	BigFlash	1	4	2	0	0	distractor	1	452	774	132265	13.328	13.082	13.568
ProbeTrack13	7	ProbeTrack	13.2	SCS215a	20111102.135607	20111102.135649	8	0.013324	60	10	60-180	60	128	GapPrac	BigFlash	1	5	2	3	0	distractor	1	482	759	133024	13.328	13.100	13.551
ProbeTrack13	7	ProbeTrack	13.2	SCS215a	20111102.135607	20111102.135656	8	0.013324	60	10	60-180	60	160	GapPrac	BigFlash	1	6	2	45	0	distractor	1	422	789	133813	13.328	8.694	17.969
ProbeTrack13	7	ProbeTrack	13.2	SCS215a	20111102.135607	20111102.135703	8	0.013324	60	10	60-180	60	66	GapPrac	BigFlash	1	7	2	0	1	distractor	0	353	-1000	132813	13.328	7.505	19.150
ProbeTrack13	7	ProbeTrack	13.2	SCS215a	20111102.135607	20111102.135708	8	0.013324	60	10	60-180	60	97	GapPrac	BigFlash	1	8	2	1	1	target	1	408	796	133609	13.328	13.099	13.550
ProbeTrack13	7	ProbeTrack	13.2	SCS215a	20111102.135607	20111102.135714	8	0.013324	60	10	60-180	60	65	GapPrac	BigFlash	1	9	2	45	1	target	1	362	819	134428	13.328	13.166	13.497
ProbeTrack13	7	ProbeTrack	13.2	SCS215a	20111102.135607	20111102.135720	8	0.013324	60	10	60-180	60	78	GapPrac	BigFlash	1	10	2	0	1	target	1	376	812	135240	13.328	13.299	13.358
ProbeTrack13	7	ProbeTrack	13.2	SCS215a	20111102.135607	20111102.135725	8	0.013324	60	10	60-180	60	174	GapPrac	BigFlash	1	11	2	1	0	distractor	1	487	757	135997	13.328	9.767	16.895
ProbeTrack13	7	ProbeTrack	13.2	SCS215a	20111102.135607	20111102.135732	8	0.013324	60	10	60-180	60	163	GapPrac	BigFlash	1	12	2	45	1	target	1	379	811	136808	13.328	13.091	13.356
ProbeTrack13	7	ProbeTrack	13.2	SCS215a	20111102.135607	20111102.135740	8	0.013324	60	10	60-180	60	104	GapPrac	BigFlash	1	13	2	0	0	distractor	1	578	711	137519	13.328	13.278	13.412
ProbeTrack13	7	ProbeTrack	13.2	SCS215a	20111102.135607	20111102.135745	8	0.013324	60	10	60-180	60	69	GapPrac	BigFlash	1	14	2	3	1	target	1	466	767	138286	13.328	11.832	14.825
ProbeTrack13	7	ProbeTrack	13.2	SCS215a	20111102.135607	20111102.135751	8	0.013324	60	10	60-180	60	88	GapPrac	BigFlash	1	15	2	1	0	distractor	1	621	690	138976	13.328	13.104	13.553
ProbeTrack13	7	ProbeTrack	13.2	SCS215a	20111102.135607	20111102.135757	8	0.013324	60	10	60-180	60	175	GapPrac	BigFlash	1	16	2	3	0	distractor	1	428	786	139762	13.328	12.258	14.413
ProbeTrack13	7	ProbeTrack	13.2	SCS215a	20111102.135607	20111102.135804	8	0.013324	60	10	60-180	60	117	GapPrac	BigFlash	1	17	2	1	1	target	1	345	828	140590	13.328	8.433	18.236
ProbeTrack13	7	ProbeTrack	13.2	SCS215a	20111102.135607	20111102.135809	8	0.013324	60	10	60-180	60	135	GapPrac	BigFlash	1	18	2	3	1	target	1	399	801	141391	13.328	13.306	13.356
ProbeTrack13	7	ProbeTrack	13.2	SCS215a	20111102.135607	20111102.135816	8	0.013324	60	10	60-180	60	101	GapPrac	BigFlash	1	19	2	0	0	distractor	1	527	737	142128	13.328	13.298	13.356
ProbeTrack13	7	ProbeTrack	13.2	SCS215a	20111102.135607	20111102.135822	8	0.013324	60	10	60-180	60	65	GapPrac	BigFlash	1	20	2	45	0	distractor	1	435	783	142911	13.328	13.299	13.357
ProbeTrack13	7	ProbeTrack	13.2	SCS215a	20111102.135844	20111102.135854	8	0.013327	60	10	60-180	60	112	GapExp	BigFlash	1	1	2	3	1	target	1	403	799	143710	13.385	13.292	13.362
ProbeTrack13	7	ProbeTrack	13.2	SCS215a	20111102.135844	20111102.135912	8	0.013327	60	10	60-180	60	174	GapExp	BigFlash	1	2	2	45	0	distractor	1	472	764	144474	13.328	13.306	13.347
ProbeTrack13	7	ProbeTrack	13.2	SCS215a	20111102.135844	20111102.135919	8	0.013327	60	10	60-180	60	153	GapExp	BigFlash	1	3	2	0	1	target	1	407	797	145271	13.328	13.309	13.352
ProbeTrack13	7	ProbeTrack	13.2	SCS215a	20111102.135844	20111102.135926	8	0.013327	60	10	60-180	60	94	GapExp	BigFlash	1	4	2	3	0	distractor	1	488	756	146027	13.328	13.302	13.353
ProbeTrack13	7	ProbeTrack	13.2	SCS215a	20111102.135844	20111102.135932	8	0.013327	60	10	60-180	60	133	GapExp	BigFlash	1	5	2	1	1	target	1	400	800	146827	13.328	12.951	13.710
ProbeTrack13	7	ProbeTrack	13.2	SCS215a	20111102.135844	20111102.135938	8	0.013327	60	10	60-180	60	105	GapExp	BigFlash	1	6	2	45	1	target	1	397	802	147629	13.328	13.102	13.555
ProbeTrack13	7	ProbeTrack	13.2	SCS215a	20111102.135844	20111102.135945	8	0.013327	60	10	60-180	60	61	GapExp	BigFlash	1	7	2	0	0	distractor	1	523	739	148368	13.328	12.951	13.699
ProbeTrack13	7	ProbeTrack	13.2	SCS215a	20111102.135844	20111102.135950	8	0.013327	60	10	60-180	60	161	GapExp	BigFlash	1	8	2	1	0	distractor	1	669	666	149034	13.328	12.907	13.742
ProbeTrack13	7	ProbeTrack	13.2	SCS215a	20111102.135844	20111102.135957	8	0.013327	60	10	60-180	60	177	GapExp	BigFlash	0	9	2	3	1	target	1	417	792	149826	13.328	13.092	13.565
ProbeTrack13	7	ProbeTrack	13.2	SCS215a	20111102.135844	20111102.140004	8	0.013327	60	10	60-180	60	141	GapExp	BigFlash	0	10	2	1	0	target	0	519	-1000	148826	13.328	13.099	13.558
ProbeTrack13	7	ProbeTrack	13.2	SCS215a	20111102.135844	20111102.140010	8	0.013327	60	10	60-180	60	167	GapExp	BigFlash	0	11	2	1	1	target	1	446	777	149603	13.328	12.945	13.711
ProbeTrack13	7	ProbeTrack	13.2	SCS215a	20111102.135844	20111102.140018	8	0.013327	60	10	60-180	60	70	GapExp	BigFlash	0	12	2	3	0	distractor	1	476	762	150365	13.328	13.105	13.551
ProbeTrack13	7	ProbeTrack	13.2	SCS215a	20111102.135844	20111102.140023	8	0.013327	60	10	60-180	60	143	GapExp	BigFlash	0	13	2	1	0	distractor	1	536	732	151097	13.377	12.887	26.335
ProbeTrack13	7	ProbeTrack	13.2	SCS215a	20111102.135844	20111102.140030	8	0.013327	60	10	60-180	60	82	GapExp	BigFlash	0	14	2	45	0	distractor	1	446	777	151874	13.328	12.852	13.787
ProbeTrack13	7	ProbeTrack	13.2	SCS215a	20111102.135844	20111102.140036	8	0.013327	60	10	60-180	60	125	GapExp	BigFlash	0	15	2	3	1	target	1	416	792	152666	13.328	12.963	13.693
ProbeTrack13	7	ProbeTrack	13.2	SCS215a	20111102.135844	20111102.140042	8	0.013327	60	10	60-180	60	110	GapExp	BigFlash	0	16	2	45	1	target	1	381	810	153476	13.328	13.209	13.433
ProbeTrack13	7	ProbeTrack	13.2	SCS215a	20111102.135844	20111102.140049	8	0.013327	60	10	60-180	60	78	GapExp	BigFlash	0	17	2	45	0	distractor	1	511	745	154221	13.328	12.865	13.584
ProbeTrack13	7	ProbeTrack	13.2	SCS215a	20111102.135844	20111102.140055	8	0.013327	60	10	60-180	60	87	GapExp	BigFlash	0	18	2	45	0	distractor	1	417	792	155013	13.328	12.932	13.721
ProbeTrack13	7	ProbeTrack	13.2	SCS215a	20111102.135844	20111102.140101	8	0.013327	60	10	60-180	60	72	GapExp	BigFlash	0	19	2	3	0	distractor	1	467	767	155780	13.328	13.097	13.553
ProbeTrack13	7	ProbeTrack	13.2	SCS215a	20111102.135844	20111102.140107	8	0.013327	60	10	60-180	60	80	GapExp	BigFlash	0	20	2	0	0	distractor	1	404	798	156578	13.328	12.904	13.758
ProbeTrack13	7	ProbeTrack	13.2	SCS215a	20111102.135844	20111102.140112	8	0.013327	60	10	60-180	60	62	GapExp	BigFlash	0	21	2	3	0	distractor	1	468	766	157344	13.328	12.962	13.697
ProbeTrack13	7	ProbeTrack	13.2	SCS215a	20111102.135844	20111102.140117	8	0.013327	60	10	60-180	60	118	GapExp	BigFlash	0	22	2	0	1	target	1	344	828	158172	13.328	12.907	13.749
ProbeTrack13	7	ProbeTrack	13.2	SCS215a	20111102.135844	20111102.140124	8	0.013327	60	10	60-180	60	76	GapExp	BigFlash	0	23	2	45	0	distractor	1	373	814	158986	13.328	13.304	13.356
ProbeTrack13	7	ProbeTrack	13.2	SCS215a	20111102.135844	20111102.140130	8	0.013327	60	10	60-180	60	125	GapExp	BigFlash	0	24	2	45	1	target	1	444	778	159764	13.328	11.054	15.606
ProbeTrack13	7	ProbeTrack	13.2	SCS215a	20111102.135844	20111102.140136	8	0.013327	60	10	60-180	60	104	GapExp	BigFlash	0	25	2	1	0	distractor	1	441	780	160544	13.328	13.106	13.557
ProbeTrack13	7	ProbeTrack	13.2	SCS215a	20111102.135844	20111102.140142	8	0.013327	60	10	60-180	60	153	GapExp	BigFlash	0	26	2	0	0	distractor	1	449	776	161320	13.328	13.048	13.626
ProbeTrack13	7	ProbeTrack	13.2	SCS215a	20111102.135844	20111102.140149	8	0.013327	60	10	60-180	60	86	GapExp	BigFlash	0	27	2	1	0	distractor	1	502	749	162069	13.328	12.977	13.549
ProbeTrack13	7	ProbeTrack	13.2	SCS215a	20111102.135844	20111102.140155	8	0.013327	60	10	60-180	60	122	GapExp	BigFlash	0	28	2	0	0	distractor	1	395	803	162872	13.328	12.865	13.799
ProbeTrack13	7	ProbeTrack	13.2	SCS215a	20111102.135844	20111102.140201	8	0.013327	60	10	60-180	60	134	GapExp	BigFlash	0	29	2	3	1	target	1	356	822	163694	13.328	13.066	13.583
ProbeTrack13	7	ProbeTrack	13.2	SCS215a	20111102.135844	20111102.140207	8	0.013327	60	10	60-180	60	156	GapExp	BigFlash	0	30	2	1	1	target	1	342	829	164523	13.328	13.306	13.345
ProbeTrack13	7	ProbeTrack	13.2	SCS215a	20111102.135844	20111102.140213	8	0.013327	60	10	60-180	60	163	GapExp	BigFlash	0	31	2	0	0	distractor	1	425	788	165311	13.328	13.298	13.363
ProbeTrack13	7	ProbeTrack	13.2	SCS215a	20111102.135844	20111102.140220	8	0.013327	60	10	60-180	60	100	GapExp	BigFlash	0	32	2	1	0	distractor	1	426	787	166098	13.328	13.310	13.354
ProbeTrack13	7	ProbeTrack	13.2	SCS215a	20111102.135844	20111102.140226	8	0.013327	60	10	60-180	60	173	GapExp	BigFlash	0	33	2	1	1	target	1	358	821	166919	13.328	13.298	13.346
ProbeTrack13	7	ProbeTrack	13.2	SCS215a	20111102.135844	20111102.140233	8	0.013327	60	10	60-180	60	119	GapExp	BigFlash	0	34	2	45	1	target	1	332	834	167753	13.328	13.310	13.346
ProbeTrack13	7	ProbeTrack	13.2	SCS215a	20111102.135844	20111102.140240	8	0.013327	60	10	60-180	60	175	GapExp	BigFlash	0	35	2	3	1	target	1	354	823	168576	13.328	12.957	13.698
ProbeTrack13	7	ProbeTrack	13.2	SCS215a	20111102.135844	20111102.140246	8	0.013327	60	10	60-180	60	76	GapExp	BigFlash	0	36	2	0	1	target	1	346	827	169403	13.328	13.093	13.550
ProbeTrack13	7	ProbeTrack	13.2	SCS215a	20111102.135844	20111102.140252	8	0.013327	60	10	60-180	60	64	GapExp	BigFlash	0	37	2	45	1	target	1	307	847	170250	13.328	13.108	13.545
ProbeTrack13	7	ProbeTrack	13.2	SCS215a	20111102.135844	20111102.140258	8	0.013327	60	10	60-180	60	116	GapExp	BigFlash	0	38	2	1	1	target	1	413	794	171044	13.328	13.307	13.350
ProbeTrack13	7	ProbeTrack	13.2	SCS215a	20111102.135844	20111102.140304	8	0.013327	60	10	60-180	60	89	GapExp	BigFlash	0	39	2	0	0	distractor	1	402	799	171843	13.328	12.994	13.655
ProbeTrack13	7	ProbeTrack	13.2	SCS215a	20111102.135844	20111102.140310	8	0.013327	60	10	60-180	60	170	GapExp	BigFlash	0	40	2	45	1	target	1	340	830	172673	13.328	12.975	13.674
ProbeTrack13	7	ProbeTrack	13.2	SCS215a	20111102.135844	20111102.140317	8	0.013327	60	10	60-180	60	62	GapExp	BigFlash	0	41	2	45	0	distractor	1	414	793	173466	13.328	13.307	13.345
ProbeTrack13	7	ProbeTrack	13.2	SCS215a	20111102.135844	20111102.140322	8	0.013327	60	10	60-180	60	70	GapExp	BigFlash	0	42	2	1	0	distractor	1	584	708	174174	13.328	13.308	13.347
ProbeTrack13	7	ProbeTrack	13.2	SCS215a	20111102.135844	20111102.140328	8	0.013327	60	10	60-180	60	164	GapExp	BigFlash	0	43	2	0	0	distractor	1	462	769	174943	13.328	13.120	13.551
ProbeTrack13	7	ProbeTrack	13.2	SCS215a	20111102.135844	20111102.140335	8	0.013327	60	10	60-180	60	174	GapExp	BigFlash	0	44	2	3	0	distractor	1	470	765	175708	13.328	13.307	13.347
ProbeTrack13	7	ProbeTrack	13.2	SCS215a	20111102.135844	20111102.140342	8	0.013327	60	10	60-180	60	118	GapExp	BigFlash	0	45	2	0	1	target	1	336	832	176540	13.328	13.098	13.551
ProbeTrack13	7	ProbeTrack	13.2	SCS215a	20111102.135844	20111102.140348	8	0.013327	60	10	60-180	60	160	GapExp	BigFlash	0	46	2	1	1	distractor	0	433	-1000	175540	13.328	12.911	13.752
ProbeTrack13	7	ProbeTrack	13.2	SCS215a	20111102.135844	20111102.140354	8	0.013327	60	10	60-180	60	136	GapExp	BigFlash	0	47	2	3	0	distractor	1	449	776	176316	13.328	12.890	13.763
ProbeTrack13	7	ProbeTrack	13.2	SCS215a	20111102.135844	20111102.140401	8	0.013327	60	10	60-180	60	136	GapExp	BigFlash	0	48	2	3	1	target	1	329	836	177152	13.328	12.927	13.731
ProbeTrack13	7	ProbeTrack	13.2	SCS215a	20111102.135844	20111102.140407	8	0.013327	60	10	60-180	60	158	GapExp	BigFlash	0	49	2	1	0	distractor	1	511	745	177897	13.328	13.001	13.650
ProbeTrack13	7	ProbeTrack	13.2	SCS215a	20111102.135844	20111102.140414	8	0.013327	60	10	60-180	60	128	GapExp	BigFlash	0	50	2	0	0	distractor	1	515	743	178640	13.328	13.242	13.406
ProbeTrack13	7	ProbeTrack	13.2	SCS215a	20111102.135844	20111102.140420	8	0.013327	60	10	60-180	60	156	GapExp	BigFlash	0	51	2	3	1	target	1	411	795	179435	13.328	13.306	13.347
ProbeTrack13	7	ProbeTrack	13.2	SCS215a	20111102.135844	20111102.140426	8	0.013327	60	10	60-180	60	70	GapExp	BigFlash	0	52	2	1	0	distractor	1	492	754	180189	13.328	13.309	13.347
ProbeTrack13	7	ProbeTrack	13.2	SCS215a	20111102.135844	20111102.140432	8	0.013327	60	10	60-180	60	72	GapExp	BigFlash	0	53	2	45	0	distractor	1	426	787	180976	13.328	12.942	13.714
ProbeTrack13	7	ProbeTrack	13.2	SCS215a	20111102.135844	20111102.140438	8	0.013327	60	10	60-180	60	150	GapExp	BigFlash	0	54	2	0	1	target	1	371	815	181791	13.328	13.074	13.588
ProbeTrack13	7	ProbeTrack	13.2	SCS215a	20111102.135844	20111102.140444	8	0.013327	60	10	60-180	60	119	GapExp	BigFlash	0	55	2	1	0	distractor	1	466	767	182558	13.328	12.884	13.766
ProbeTrack13	7	ProbeTrack	13.2	SCS215a	20111102.135844	20111102.140450	8	0.013327	60	10	60-180	60	145	GapExp	BigFlash	0	56	2	3	0	distractor	1	471	765	183323	13.328	12.934	13.731
ProbeTrack13	7	ProbeTrack	13.2	SCS215a	20111102.135844	20111102.140457	8	0.013327	60	10	60-180	60	89	GapExp	BigFlash	0	57	2	45	0	distractor	1	455	773	184096	13.326	12.876	13.557
ProbeTrack13	7	ProbeTrack	13.2	SCS215a	20111102.135844	20111102.140503	8	0.013327	60	10	60-180	60	76	GapExp	BigFlash	0	58	2	45	0	distractor	1	553	724	184820	13.328	12.900	13.749
ProbeTrack13	7	ProbeTrack	13.2	SCS215a	20111102.135844	20111102.140510	8	0.013327	60	10	60-180	60	147	GapExp	BigFlash	0	59	2	3	1	target	1	338	831	185651	13.328	12.910	13.738
ProbeTrack13	7	ProbeTrack	13.2	SCS215a	20111102.135844	20111102.140516	8	0.013327	60	10	60-180	60	104	GapExp	BigFlash	0	60	2	0	0	distractor	1	452	774	186425	13.328	13.306	13.349
ProbeTrack13	7	ProbeTrack	13.2	SCS215a	20111102.135844	20111102.140522	8	0.013327	60	10	60-180	60	136	GapExp	BigFlash	0	61	2	45	0	distractor	1	447	777	187202	13.328	13.308	13.351
ProbeTrack13	7	ProbeTrack	13.2	SCS215a	20111102.135844	20111102.140528	8	0.013327	60	10	60-180	60	83	GapExp	BigFlash	0	62	2	0	1	target	1	398	801	188003	13.328	12.965	13.688
ProbeTrack13	7	ProbeTrack	13.2	SCS215a	20111102.135844	20111102.140534	8	0.013327	60	10	60-180	60	120	GapExp	BigFlash	0	63	2	0	0	distractor	1	463	769	188772	13.328	13.107	13.536
ProbeTrack13	7	ProbeTrack	13.2	SCS215a	20111102.135844	20111102.140540	8	0.013327	60	10	60-180	60	123	GapExp	BigFlash	0	64	2	0	1	target	1	366	817	189589	13.328	13.100	13.563
ProbeTrack13	7	ProbeTrack	13.2	SCS215a	20111102.135844	20111102.140546	8	0.013327	60	10	60-180	60	71	GapExp	BigFlash	0	65	2	0	1	target	1	368	816	190405	13.328	12.872	13.783
ProbeTrack13	7	ProbeTrack	13.2	SCS215a	20111102.135844	20111102.140551	8	0.013327	60	10	60-180	60	176	GapExp	BigFlash	0	66	2	1	1	target	1	376	812	191217	13.328	13.097	13.572
ProbeTrack13	7	ProbeTrack	13.2	SCS215a	20111102.135844	20111102.140558	8	0.013327	60	10	60-180	60	134	GapExp	BigFlash	0	67	2	3	0	distractor	1	482	759	191976	13.328	13.307	13.348
ProbeTrack13	7	ProbeTrack	13.2	SCS215a	20111102.135844	20111102.140604	8	0.013327	60	10	60-180	60	113	GapExp	BigFlash	0	68	2	3	0	distractor	1	500	750	192726	13.328	12.983	13.681
ProbeTrack13	7	ProbeTrack	13.2	SCS215a	20111102.135844	20111102.140611	8	0.013327	60	10	60-180	60	65	GapExp	BigFlash	0	69	2	0	1	target	1	437	782	193508	13.328	13.249	13.397
ProbeTrack13	7	ProbeTrack	13.2	SCS215a	20111102.135844	20111102.140616	8	0.013327	60	10	60-180	60	69	GapExp	BigFlash	0	70	2	0	0	distractor	1	509	746	194254	13.328	12.949	13.713
ProbeTrack13	7	ProbeTrack	13.2	SCS215a	20111102.135844	20111102.140621	8	0.013327	60	10	60-180	60	140	GapExp	BigFlash	0	71	2	0	0	distractor	1	467	767	195021	13.328	13.308	13.348
ProbeTrack13	7	ProbeTrack	13.2	SCS215a	20111102.135844	20111102.140628	8	0.013327	60	10	60-180	60	89	GapExp	BigFlash	0	72	2	45	1	target	1	430	785	195806	13.328	13.104	13.552
ProbeTrack13	7	ProbeTrack	13.2	SCS215a	20111102.135844	20111102.140634	8	0.013327	60	10	60-180	60	113	GapExp	BigFlash	0	73	2	45	1	target	1	289	856	196662	13.328	13.309	13.347
ProbeTrack13	7	ProbeTrack	13.2	SCS215a	20111102.135844	20111102.140640	8	0.013327	60	10	60-180	60	157	GapExp	BigFlash	0	74	2	45	0	distractor	1	464	768	197430	13.328	13.307	13.346
ProbeTrack13	7	ProbeTrack	13.2	SCS215a	20111102.135844	20111102.140648	8	0.013327	60	10	60-180	60	67	GapExp	BigFlash	0	75	2	0	0	distractor	1	535	733	198163	13.328	13.304	13.353
ProbeTrack13	7	ProbeTrack	13.2	SCS215a	20111102.135844	20111102.140653	8	0.013327	60	10	60-180	60	174	GapExp	BigFlash	0	76	2	0	1	target	1	394	803	198966	13.328	13.021	13.652
ProbeTrack13	7	ProbeTrack	13.2	SCS215a	20111102.135844	20111102.140700	8	0.013327	60	10	60-180	60	135	GapExp	BigFlash	0	77	2	45	1	target	1	292	854	199820	13.328	13.311	13.344
ProbeTrack13	7	ProbeTrack	13.2	SCS215a	20111102.135844	20111102.140706	8	0.013327	60	10	60-180	60	111	GapExp	BigFlash	0	78	2	3	1	target	1	386	807	200627	13.328	12.850	13.807
ProbeTrack13	7	ProbeTrack	13.2	SCS215a	20111102.135844	20111102.140712	8	0.013327	60	10	60-180	60	74	GapExp	BigFlash	0	79	2	1	1	target	1	314	843	201470	13.328	13.106	13.565
ProbeTrack13	7	ProbeTrack	13.2	SCS215a	20111102.135844	20111102.140718	8	0.013327	60	10	60-180	60	175	GapExp	BigFlash	0	80	2	3	1	target	1	355	823	202293	13.328	13.104	13.545
ProbeTrack13	7	ProbeTrack	13.2	SCS215a	20111102.135844	20111102.140725	8	0.013327	60	10	60-180	60	171	GapExp	BigFlash	0	81	2	1	0	distractor	1	506	747	203040	13.328	12.909	13.748
ProbeTrack13	7	ProbeTrack	13.2	SCS215a	20111102.135844	20111102.140731	8	0.013327	60	10	60-180	60	172	GapExp	BigFlash	0	82	2	3	0	distractor	1	451	775	203815	13.328	12.951	13.710
ProbeTrack13	7	ProbeTrack	13.2	SCS215a	20111102.135844	20111102.140738	8	0.013327	60	10	60-180	60	105	GapExp	BigFlash	0	83	2	45	0	distractor	1	456	772	204587	13.328	12.868	13.574
ProbeTrack13	7	ProbeTrack	13.2	SCS215a	20111102.135844	20111102.140745	8	0.013327	60	10	60-180	60	178	GapExp	BigFlash	0	84	2	45	1	target	1	311	845	205432	13.328	13.092	13.550
ProbeTrack13	7	ProbeTrack	13.2	SCS215a	20111102.135844	20111102.140752	8	0.013327	60	10	60-180	60	73	GapExp	BigFlash	0	85	2	45	0	distractor	1	422	789	206221	13.328	12.853	13.801
ProbeTrack13	7	ProbeTrack	13.2	SCS215a	20111102.135844	20111102.140758	8	0.013327	60	10	60-180	60	141	GapExp	BigFlash	0	86	2	3	0	distractor	1	412	794	207015	13.328	12.937	13.732
ProbeTrack13	7	ProbeTrack	13.2	SCS215a	20111102.135844	20111102.140804	8	0.013327	60	10	60-180	60	76	GapExp	BigFlash	0	87	2	3	0	distractor	1	620	690	207705	13.328	13.307	13.346
ProbeTrack13	7	ProbeTrack	13.2	SCS215a	20111102.135844	20111102.140810	8	0.013327	60	10	60-180	60	156	GapExp	BigFlash	0	88	2	3	1	target	1	456	772	208477	13.328	13.302	13.352
ProbeTrack13	7	ProbeTrack	13.2	SCS215a	20111102.135844	20111102.140817	8	0.013327	60	10	60-180	60	147	GapExp	BigFlash	0	89	2	3	0	distractor	1	444	778	209255	13.328	13.308	13.345
ProbeTrack13	7	ProbeTrack	13.2	SCS215a	20111102.135844	20111102.140823	8	0.013327	60	10	60-180	60	92	GapExp	BigFlash	0	90	2	1	1	target	1	439	781	210036	13.328	12.849	13.813
ProbeTrack13	7	ProbeTrack	13.2	SCS215a	20111102.135844	20111102.140829	8	0.013327	60	10	60-180	60	130	GapExp	BigFlash	0	91	2	45	1	target	1	340	830	210866	13.328	13.106	13.534
ProbeTrack13	7	ProbeTrack	13.2	SCS215a	20111102.135844	20111102.140835	8	0.013327	60	10	60-180	60	167	GapExp	BigFlash	0	92	2	3	1	target	1	365	818	211684	13.328	13.309	13.348
ProbeTrack13	7	ProbeTrack	13.2	SCS215a	20111102.135844	20111102.140842	8	0.013327	60	10	60-180	60	117	GapExp	BigFlash	0	93	2	45	1	target	1	278	861	212545	13.328	13.099	13.544
ProbeTrack13	7	ProbeTrack	13.2	SCS215a	20111102.135844	20111102.140848	8	0.013327	60	10	60-180	60	144	GapExp	BigFlash	0	94	2	0	1	target	1	332	834	213379	13.328	12.879	13.779
ProbeTrack13	7	ProbeTrack	13.2	SCS215a	20111102.135844	20111102.140855	8	0.013327	60	10	60-180	60	118	GapExp	BigFlash	0	95	2	1	1	target	1	376	812	214191	13.328	12.990	13.665
ProbeTrack13	7	ProbeTrack	13.2	SCS215a	20111102.135844	20111102.140901	8	0.013327	60	10	60-180	60	177	GapExp	BigFlash	0	96	2	1	1	target	1	323	839	215030	13.328	13.231	13.435
ProbeTrack13	7	ProbeTrack	13.2	SCS215a	20111102.135844	20111102.140907	8	0.013327	60	10	60-180	60	99	GapExp	BigFlash	0	97	2	3	0	distractor	1	458	771	215801	13.328	13.308	13.358
ProbeTrack13	7	ProbeTrack	13.2	SCS215a	20111102.135844	20111102.140913	8	0.013327	60	10	60-180	60	102	GapExp	BigFlash	0	98	2	45	0	distractor	1	455	773	216574	13.328	12.928	13.729
ProbeTrack13	7	ProbeTrack	13.2	SCS215a	20111102.135844	20111102.140919	8	0.013327	60	10	60-180	60	122	GapExp	BigFlash	0	99	2	45	0	distractor	1	413	794	217368	13.328	13.310	13.346
ProbeTrack13	7	ProbeTrack	13.2	SCS215a	20111102.135844	20111102.140926	8	0.013327	60	10	60-180	60	146	GapExp	BigFlash	0	100	2	1	0	distractor	1	446	777	218145	13.328	12.980	13.663
ProbeTrack13	7	ProbeTrack	13.2	SCS215a	20111102.135844	20111102.140933	8	0.013327	60	10	60-180	60	128	GapExp	BigFlash	0	101	2	1	0	distractor	1	454	773	218918	13.328	13.309	13.346
ProbeTrack13	7	ProbeTrack	13.2	SCS215a	20111102.135844	20111102.140943	8	0.013327	60	10	60-180	60	133	GapExp	BigFlash	0	102	2	3	0	distractor	1	431	785	219703	13.328	13.306	13.348
ProbeTrack13	7	ProbeTrack	13.2	SCS215a	20111102.135844	20111102.140949	8	0.013327	60	10	60-180	60	72	GapExp	BigFlash	0	103	2	0	0	distractor	1	600	700	220403	13.328	13.307	13.346
ProbeTrack13	7	ProbeTrack	13.2	SCS215a	20111102.135844	20111102.140955	8	0.013327	60	10	60-180	60	101	GapExp	BigFlash	0	104	2	1	1	target	1	388	806	221209	13.328	12.887	13.775
ProbeTrack13	7	ProbeTrack	13.2	SCS215a	20111102.135844	20111102.141001	8	0.013327	60	10	60-180	60	156	GapExp	BigFlash	0	105	2	0	1	target	1	355	823	222032	13.328	13.114	13.543
ProbeTrack13	7	ProbeTrack	13.2	SCS215a	20111102.135844	20111102.141007	8	0.013327	60	10	60-180	60	176	GapExp	BigFlash	0	106	2	1	1	target	1	352	824	222856	13.328	12.840	13.643
ProbeTrack13	7	ProbeTrack	13.2	SCS215a	20111102.135844	20111102.141014	8	0.013327	60	10	60-180	60	100	GapExp	BigFlash	0	107	2	45	1	distractor	0	393	-1000	221856	13.328	12.852	13.810
ProbeTrack13	7	ProbeTrack	13.2	SCS215a	20111102.135844	20111102.141020	8	0.013327	60	10	60-180	60	166	GapExp	BigFlash	0	108	2	1	1	target	1	328	836	222692	13.328	13.112	13.551
ProbeTrack13	7	ProbeTrack	13.2	SCS215a	20111102.135844	20111102.141026	8	0.013327	60	10	60-180	60	136	GapExp	BigFlash	0	109	2	3	1	target	1	396	802	223494	13.328	12.876	13.786
ProbeTrack13	7	ProbeTrack	13.2	SCS215a	20111102.135844	20111102.141033	8	0.013327	60	10	60-180	60	130	GapExp	BigFlash	0	110	2	45	0	target	0	583	-1000	222494	13.328	12.935	13.721
ProbeTrack13	7	ProbeTrack	13.2	SCS215a	20111102.135844	20111102.141040	8	0.013327	60	10	60-180	60	96	GapExp	BigFlash	0	111	2	1	0	distractor	1	478	761	223255	13.328	13.303	13.352
ProbeTrack13	7	ProbeTrack	13.2	SCS215a	20111102.135844	20111102.141046	8	0.013327	60	10	60-180	60	150	GapExp	BigFlash	0	112	2	0	0	distractor	1	513	744	223999	13.328	13.261	13.398
ProbeTrack13	7	ProbeTrack	13.2	SCS215a	20111102.135844	20111102.141052	8	0.013327	60	10	60-180	60	151	GapExp	BigFlash	0	113	2	3	0	distractor	1	510	745	224744	13.328	13.308	13.355
ProbeTrack13	7	ProbeTrack	13.2	SCS215a	20111102.135844	20111102.141059	8	0.013327	60	10	60-180	60	144	GapExp	BigFlash	0	114	2	3	0	distractor	1	399	801	225545	13.328	12.940	13.725
ProbeTrack13	7	ProbeTrack	13.2	SCS215a	20111102.135844	20111102.141106	8	0.013327	60	10	60-180	60	91	GapExp	BigFlash	0	115	2	0	1	target	1	387	807	226352	13.328	13.309	13.348
ProbeTrack13	7	ProbeTrack	13.2	SCS215a	20111102.135844	20111102.141113	8	0.013327	60	10	60-180	60	117	GapExp	BigFlash	0	116	2	1	0	distractor	1	431	785	227137	13.328	12.920	13.749
ProbeTrack13	7	ProbeTrack	13.2	SCS215a	20111102.135844	20111102.141119	8	0.013327	60	10	60-180	60	175	GapExp	BigFlash	0	117	2	0	1	target	1	387	807	227944	13.328	13.237	13.404
ProbeTrack13	7	ProbeTrack	13.2	SCS215a	20111102.135844	20111102.141126	8	0.013327	60	10	60-180	60	66	GapExp	BigFlash	0	118	2	3	1	target	1	439	781	228725	13.328	13.288	13.398
ProbeTrack13	7	ProbeTrack	13.2	SCS215a	20111102.135844	20111102.141131	8	0.013327	60	10	60-180	60	105	GapExp	BigFlash	0	119	2	45	1	target	1	435	783	229508	13.328	12.875	13.773
ProbeTrack13	7	ProbeTrack	13.2	SCS215a	20111102.135844	20111102.141138	8	0.013327	60	10	60-180	60	72	GapExp	BigFlash	0	120	2	1	0	distractor	1	483	759	230267	13.328	13.086	13.571
ProbeTrack13	7	ProbeTrack	13.2	SCS215a	20111102.135844	20111102.141143	8	0.013327	60	10	60-180	60	144	GapExp	BigFlash	0	121	2	1	1	target	1	351	825	231092	13.328	13.109	13.557
ProbeTrack13	7	ProbeTrack	13.2	SCS215a	20111102.135844	20111102.141149	8	0.013327	60	10	60-180	60	151	GapExp	BigFlash	0	122	2	0	1	target	1	376	812	231904	13.328	13.045	13.606
ProbeTrack13	7	ProbeTrack	13.2	SCS215a	20111102.135844	20111102.141155	8	0.013327	60	10	60-180	60	145	GapExp	BigFlash	0	123	2	1	1	target	1	318	841	232745	13.328	13.267	13.375
ProbeTrack13	7	ProbeTrack	13.2	SCS215a	20111102.135844	20111102.141202	8	0.013327	60	10	60-180	60	114	GapExp	BigFlash	0	124	2	3	1	target	1	338	831	233576	13.328	13.275	13.379
ProbeTrack13	7	ProbeTrack	13.2	SCS215a	20111102.135844	20111102.141208	8	0.013327	60	10	60-180	60	118	GapExp	BigFlash	0	125	2	45	0	distractor	1	599	701	234277	13.328	12.908	13.762
ProbeTrack13	7	ProbeTrack	13.2	SCS215a	20111102.135844	20111102.141215	8	0.013327	60	10	60-180	60	100	GapExp	BigFlash	0	126	2	45	0	distractor	1	452	774	235051	13.328	13.205	13.444
ProbeTrack13	7	ProbeTrack	13.2	SCS215a	20111102.135844	20111102.141221	8	0.013327	60	10	60-180	60	101	GapExp	BigFlash	0	127	2	3	1	target	1	394	803	235854	13.328	12.475	14.202
ProbeTrack13	7	ProbeTrack	13.2	SCS215a	20111102.135844	20111102.141227	8	0.013327	60	10	60-180	60	75	GapExp	BigFlash	0	128	2	0	1	target	1	359	821	236675	13.328	12.876	13.773
ProbeTrack13	7	ProbeTrack	13.2	SCS215a	20111102.135844	20111102.141232	8	0.013327	60	10	60-180	60	116	GapExp	BigFlash	0	129	2	1	0	distractor	1	460	770	237445	13.328	13.093	13.563
ProbeTrack13	7	ProbeTrack	13.2	SCS215a	20111102.135844	20111102.141239	8	0.013327	60	10	60-180	60	109	GapExp	BigFlash	0	130	2	45	1	target	1	402	799	238244	13.328	12.897	13.763
ProbeTrack13	7	ProbeTrack	13.2	SCS215a	20111102.135844	20111102.141245	8	0.013327	60	10	60-180	60	149	GapExp	BigFlash	0	131	2	1	1	target	1	391	805	239049	13.328	12.972	13.675
ProbeTrack13	7	ProbeTrack	13.2	SCS215a	20111102.135844	20111102.141251	8	0.013327	60	10	60-180	60	119	GapExp	BigFlash	0	132	2	0	1	target	1	370	815	239864	13.328	13.178	13.445
ProbeTrack13	7	ProbeTrack	13.2	SCS215a	20111102.135844	20111102.141257	8	0.013327	60	10	60-180	60	135	GapExp	BigFlash	0	133	2	0	0	distractor	1	501	750	240614	13.328	13.306	13.348
ProbeTrack13	7	ProbeTrack	13.2	SCS215a	20111102.135844	20111102.141304	8	0.013327	60	10	60-180	60	75	GapExp	BigFlash	0	134	2	3	1	target	1	389	806	241420	13.328	13.302	13.351
ProbeTrack13	7	ProbeTrack	13.2	SCS215a	20111102.135844	20111102.141310	8	0.013327	60	10	60-180	60	144	GapExp	BigFlash	0	135	2	1	0	distractor	1	465	768	242188	13.328	13.105	13.551
ProbeTrack13	7	ProbeTrack	13.2	SCS215a	20111102.135844	20111102.141316	8	0.013327	60	10	60-180	60	106	GapExp	BigFlash	0	136	2	3	0	distractor	1	425	788	242976	13.328	12.888	13.775
ProbeTrack13	7	ProbeTrack	13.2	SCS215a	20111102.135844	20111102.141322	8	0.013327	60	10	60-180	60	170	GapExp	BigFlash	0	137	2	45	1	target	1	312	844	243820	13.329	13.074	13.701
ProbeTrack13	7	ProbeTrack	13.2	SCS215a	20111102.135844	20111102.141329	8	0.013327	60	10	60-180	60	76	GapExp	BigFlash	0	138	2	45	1	target	1	386	807	244627	13.328	12.872	13.792
ProbeTrack13	7	ProbeTrack	13.2	SCS215a	20111102.135844	20111102.141335	8	0.013327	60	10	60-180	60	111	GapExp	BigFlash	0	139	2	0	0	distractor	1	489	756	245383	13.328	12.859	13.797
ProbeTrack13	7	ProbeTrack	13.2	SCS215a	20111102.135844	20111102.141341	8	0.013327	60	10	60-180	60	126	GapExp	BigFlash	0	140	2	1	0	distractor	1	429	786	246169	13.328	12.925	13.757
ProbeTrack13	7	ProbeTrack	13.2	SCS215a	20111102.135844	20111102.141347	8	0.013327	60	10	60-180	60	175	GapExp	BigFlash	0	141	2	0	0	distractor	1	458	771	246940	13.328	12.857	13.793
ProbeTrack13	7	ProbeTrack	13.2	SCS215a	20111102.135844	20111102.141354	8	0.013327	60	10	60-180	60	146	GapExp	BigFlash	0	142	2	3	1	target	1	385	808	247748	13.328	13.307	13.351
ProbeTrack13	7	ProbeTrack	13.2	SCS215a	20111102.135844	20111102.141400	8	0.013327	60	10	60-180	60	68	GapExp	BigFlash	0	143	2	45	1	target	1	366	817	248565	13.328	13.309	13.347
ProbeTrack13	7	ProbeTrack	13.2	SCS215a	20111102.135844	20111102.141406	8	0.013327	60	10	60-180	60	81	GapExp	BigFlash	0	144	2	0	1	target	1	361	820	249385	13.328	12.904	13.745
ProbeTrack13	7	ProbeTrack	13.2	SCS215a	20111102.135844	20111102.141411	8	0.013327	60	10	60-180	60	118	GapExp	BigFlash	0	145	2	45	1	target	1	291	855	250240	13.328	13.003	13.665
ProbeTrack13	7	ProbeTrack	13.2	SCS215a	20111102.135844	20111102.141418	8	0.013327	60	10	60-180	60	176	GapExp	BigFlash	0	146	2	1	1	target	1	357	822	251062	13.328	12.874	13.789
ProbeTrack13	7	ProbeTrack	13.2	SCS215a	20111102.135844	20111102.141424	8	0.013327	60	10	60-180	60	121	GapExp	BigFlash	0	147	2	1	0	distractor	1	441	780	251842	13.328	12.890	13.768
ProbeTrack13	7	ProbeTrack	13.2	SCS215a	20111102.135844	20111102.141430	8	0.013327	60	10	60-180	60	69	GapExp	BigFlash	0	148	2	0	0	distractor	1	434	783	252625	13.328	12.934	13.738
ProbeTrack13	7	ProbeTrack	13.2	SCS215a	20111102.135844	20111102.141436	8	0.013327	60	10	60-180	60	63	GapExp	BigFlash	0	149	2	0	1	target	1	367	817	253442	13.328	12.859	13.804
ProbeTrack13	7	ProbeTrack	13.2	SCS215a	20111102.135844	20111102.141441	8	0.013327	60	10	60-180	60	100	GapExp	BigFlash	0	150	2	0	0	distractor	1	418	791	254233	13.328	13.030	13.628
ProbeTrack13	7	ProbeTrack	13.2	SCS215a	20111102.135844	20111102.141447	8	0.013327	60	10	60-180	60	173	GapExp	BigFlash	0	151	2	0	1	target	1	432	784	255017	13.328	13.108	13.539
ProbeTrack13	7	ProbeTrack	13.2	SCS215a	20111102.135844	20111102.141454	8	0.013327	60	10	60-180	60	130	GapExp	BigFlash	0	152	2	0	0	distractor	1	460	770	255787	13.328	12.911	13.732
ProbeTrack13	7	ProbeTrack	13.2	SCS215a	20111102.135844	20111102.141501	8	0.013327	60	10	60-180	60	69	GapExp	BigFlash	0	153	2	0	0	5	-3	778	-1000	254787	13.328	12.833	13.822
ProbeTrack13	7	ProbeTrack	13.2	SCS215a	20111102.135844	20111102.141507	8	0.013327	60	10	60-180	60	171	GapExp	BigFlash	0	154	2	1	1	target	1	571	715	255502	13.328	13.085	13.559
ProbeTrack13	7	ProbeTrack	13.2	SCS215a	20111102.135844	20111102.141514	8	0.013327	60	10	60-180	60	101	GapExp	BigFlash	0	155	2	45	0	distractor	1	411	795	256297	13.328	13.299	13.358
ProbeTrack13	7	ProbeTrack	13.2	SCS215a	20111102.135844	20111102.141521	8	0.013327	60	10	60-180	60	121	GapExp	BigFlash	0	156	2	1	1	target	1	349	826	257123	13.328	13.084	13.572
ProbeTrack13	7	ProbeTrack	13.2	SCS215a	20111102.135844	20111102.141527	8	0.013327	60	10	60-180	60	99	GapExp	BigFlash	0	157	2	3	0	distractor	1	432	784	257907	13.328	13.115	13.551
ProbeTrack13	7	ProbeTrack	13.2	SCS215a	20111102.135844	20111102.141533	8	0.013327	60	10	60-180	60	121	GapExp	BigFlash	0	158	2	1	1	target	1	409	796	258703	13.328	12.884	13.792
ProbeTrack13	7	ProbeTrack	13.2	SCS215a	20111102.135844	20111102.141538	8	0.013327	60	10	60-180	60	90	GapExp	BigFlash	0	159	2	45	1	target	1	465	768	259471	13.328	13.305	13.351
ProbeTrack13	7	ProbeTrack	13.2	SCS215a	20111102.135844	20111102.141545	8	0.013327	60	10	60-180	60	136	GapExp	BigFlash	0	160	2	0	1	target	1	401	800	260271	13.328	13.308	13.346
ProbeTrack13	7	ProbeTrack	13.2	SCS215a	20111102.135844	20111102.141552	8	0.013327	60	10	60-180	60	161	GapExp	BigFlash	0	161	2	45	1	target	1	467	767	261038	13.328	12.050	14.187
ProbeTrack13	7	ProbeTrack	13.2	SCS215a	20111102.135844	20111102.141559	8	0.013327	60	10	60-180	60	98	GapExp	BigFlash	0	162	2	45	0	distractor	1	505	748	261786	13.328	12.850	13.820
ProbeTrack13	7	ProbeTrack	13.2	SCS215a	20111102.135844	20111102.141605	8	0.013327	60	10	60-180	60	171	GapExp	BigFlash	0	163	2	3	1	target	1	367	817	262603	13.328	13.113	13.535
ProbeTrack13	7	ProbeTrack	13.2	SCS215a	20111102.135844	20111102.141612	8	0.013327	60	10	60-180	60	143	GapExp	BigFlash	0	164	2	45	0	distractor	1	502	749	263352	13.328	12.858	13.803
ProbeTrack13	7	ProbeTrack	13.2	SCS215a	20111102.135844	20111102.141619	8	0.013327	60	10	60-180	60	64	GapExp	BigFlash	0	165	2	3	0	distractor	1	533	734	264086	13.328	13.032	13.624
ProbeTrack13	7	ProbeTrack	13.2	SCS215a	20111102.135844	20111102.141624	8	0.013327	60	10	60-180	60	156	GapExp	BigFlash	0	166	2	0	1	target	1	377	812	264898	13.328	13.091	13.562
ProbeTrack13	7	ProbeTrack	13.2	SCS215a	20111102.135844	20111102.141631	8	0.013327	60	10	60-180	60	143	GapExp	BigFlash	0	167	2	1	0	distractor	1	490	755	265653	13.328	13.048	13.621
ProbeTrack13	7	ProbeTrack	13.2	SCS215a	20111102.135844	20111102.141637	8	0.013327	60	10	60-180	60	132	GapExp	BigFlash	0	168	2	1	0	distractor	1	466	767	266420	13.328	13.113	13.544
ProbeTrack13	7	ProbeTrack	13.2	SCS215a	20111102.135844	20111102.141643	8	0.013327	60	10	60-180	60	91	GapExp	BigFlash	0	169	2	3	0	distractor	1	481	760	267180	13.328	13.313	13.344
ProbeTrack13	7	ProbeTrack	13.2	SCS215a	20111102.135844	20111102.141649	8	0.013327	60	10	60-180	60	158	GapExp	BigFlash	0	170	2	45	1	target	1	367	817	267997	13.328	13.292	13.372
ProbeTrack13	7	ProbeTrack	13.2	SCS215a	20111102.135844	20111102.141656	8	0.013327	60	10	60-180	60	144	GapExp	BigFlash	0	171	2	1	1	target	1	359	821	268818	13.328	13.311	13.350
ProbeTrack13	7	ProbeTrack	13.2	SCS215a	20111102.135844	20111102.141702	8	0.013327	60	10	60-180	60	76	GapExp	BigFlash	0	172	2	0	1	target	1	337	832	269650	13.328	13.279	13.375
ProbeTrack13	7	ProbeTrack	13.2	SCS215a	20111102.135844	20111102.141708	8	0.013327	60	10	60-180	60	130	GapExp	BigFlash	0	173	2	45	0	distractor	1	512	744	270394	13.328	13.099	13.558
ProbeTrack13	7	ProbeTrack	13.2	SCS215a	20111102.135844	20111102.141714	8	0.013327	60	10	60-180	60	152	GapExp	BigFlash	0	174	2	3	0	distractor	1	468	766	271160	13.328	12.854	13.808
ProbeTrack13	7	ProbeTrack	13.2	SCS215a	20111102.135844	20111102.141721	8	0.013327	60	10	60-180	60	106	GapExp	BigFlash	0	175	2	3	1	target	1	362	819	271979	13.328	13.099	13.545
ProbeTrack13	7	ProbeTrack	13.2	SCS215a	20111102.135844	20111102.141727	8	0.013327	60	10	60-180	60	174	GapExp	BigFlash	0	176	2	45	1	target	1	360	820	272799	13.328	13.307	13.349
ProbeTrack13	7	ProbeTrack	13.2	SCS215a	20111102.135844	20111102.141734	8	0.013327	60	10	60-180	60	135	GapExp	BigFlash	0	177	2	0	0	distractor	1	576	712	273511	13.328	13.112	13.545
ProbeTrack13	7	ProbeTrack	13.2	SCS215a	20111102.135844	20111102.141741	8	0.013327	60	10	60-180	60	141	GapExp	BigFlash	0	178	2	45	0	distractor	1	434	783	274294	13.328	12.860	13.804
ProbeTrack13	7	ProbeTrack	13.2	SCS215a	20111102.135844	20111102.141748	8	0.013327	60	10	60-180	60	104	GapExp	BigFlash	0	179	2	1	1	target	1	383	809	275103	13.328	13.106	13.538
ProbeTrack13	7	ProbeTrack	13.2	SCS215a	20111102.135844	20111102.141753	8	0.013327	60	10	60-180	60	148	GapExp	BigFlash	0	180	2	3	1	target	1	319	841	275944	13.328	13.294	13.354
ProbeTrack13	7	ProbeTrack	13.2	SCS215a	20111102.135844	20111102.141800	8	0.013327	60	10	60-180	60	138	GapExp	BigFlash	0	181	2	1	0	distractor	1	482	759	276703	13.328	12.907	13.682
ProbeTrack13	7	ProbeTrack	13.2	SCS215a	20111102.135844	20111102.141806	8	0.013327	60	10	60-180	60	155	GapExp	BigFlash	0	182	2	3	1	target	1	347	827	277530	13.328	13.025	13.627
ProbeTrack13	7	ProbeTrack	13.2	SCS215a	20111102.135844	20111102.141813	8	0.013327	60	10	60-180	60	145	GapExp	BigFlash	0	183	2	0	0	distractor	1	439	781	278311	13.328	13.306	13.349
ProbeTrack13	7	ProbeTrack	13.2	SCS215a	20111102.135844	20111102.141819	8	0.013327	60	10	60-180	60	65	GapExp	BigFlash	0	184	2	0	1	target	1	416	792	279103	13.328	12.969	13.681
ProbeTrack13	7	ProbeTrack	13.2	SCS215a	20111102.135844	20111102.141824	8	0.013327	60	10	60-180	60	150	GapExp	BigFlash	0	185	2	45	0	distractor	1	459	771	279874	13.328	13.109	13.558
ProbeTrack13	7	ProbeTrack	13.2	SCS215a	20111102.135844	20111102.141832	8	0.013327	60	10	60-180	60	138	GapExp	BigFlash	0	186	2	3	1	target	1	326	837	280711	13.328	13.014	13.646
ProbeTrack13	7	ProbeTrack	13.2	SCS215a	20111102.135844	20111102.141838	8	0.013327	60	10	60-180	60	107	GapExp	BigFlash	0	187	2	45	1	target	1	494	753	281464	13.328	12.872	13.785
ProbeTrack13	7	ProbeTrack	13.2	SCS215a	20111102.135844	20111102.141844	8	0.013327	60	10	60-180	60	72	GapExp	BigFlash	0	188	2	1	0	distractor	1	469	766	282230	13.328	13.115	13.551
ProbeTrack13	7	ProbeTrack	13.2	SCS215a	20111102.135844	20111102.141849	8	0.013327	60	10	60-180	60	138	GapExp	BigFlash	0	189	2	3	0	distractor	1	438	781	283011	13.328	12.981	13.687
ProbeTrack13	7	ProbeTrack	13.2	SCS215a	20111102.135844	20111102.141855	8	0.013327	60	10	60-180	60	171	GapExp	BigFlash	0	190	2	3	1	target	1	409	796	283807	13.373	12.849	27.061
ProbeTrack13	7	ProbeTrack	13.2	SCS215a	20111102.135844	20111102.141906	8	0.013327	60	10	60-180	60	106	GapExp	BigFlash	0	191	2	0	1	target	1	399	801	284608	13.328	13.299	13.364
ProbeTrack13	7	ProbeTrack	13.2	SCS215a	20111102.135844	20111102.141911	8	0.013327	60	10	60-180	60	80	GapExp	BigFlash	0	192	2	1	1	target	1	345	828	285436	13.328	12.881	13.784
ProbeTrack13	7	ProbeTrack	13.2	SCS215a	20111102.135844	20111102.141917	8	0.013327	60	10	60-180	60	61	GapExp	BigFlash	0	193	2	3	0	distractor	1	404	798	286234	13.328	13.306	13.352
ProbeTrack13	7	ProbeTrack	13.2	SCS215a	20111102.135844	20111102.141922	8	0.013327	60	10	60-180	60	94	GapExp	BigFlash	0	194	2	3	1	target	1	494	753	286987	13.328	13.308	13.350
ProbeTrack13	7	ProbeTrack	13.2	SCS215a	20111102.135844	20111102.141928	8	0.013327	60	10	60-180	60	176	GapExp	BigFlash	0	195	2	45	1	target	1	373	814	287801	13.328	12.940	13.721
ProbeTrack13	7	ProbeTrack	13.2	SCS215a	20111102.135844	20111102.141935	8	0.013327	60	10	60-180	60	62	GapExp	BigFlash	0	196	2	1	1	target	1	350	825	288626	13.328	13.097	13.558
ProbeTrack13	7	ProbeTrack	13.2	SCS215a	20111102.135844	20111102.141940	8	0.013327	60	10	60-180	60	105	GapExp	BigFlash	0	197	2	45	0	distractor	1	407	797	289423	13.328	13.299	13.343
ProbeTrack13	7	ProbeTrack	13.2	SCS215a	20111102.135844	20111102.141947	8	0.013327	60	10	60-180	60	165	GapExp	BigFlash	0	198	2	3	0	distractor	1	495	753	290176	13.328	13.085	13.572
ProbeTrack13	7	ProbeTrack	13.2	SCS215a	20111102.135844	20111102.141953	8	0.013327	60	10	60-180	60	109	GapExp	BigFlash	0	199	2	1	0	distractor	1	495	753	290929	13.328	12.833	13.823
ProbeTrack13	7	ProbeTrack	13.2	SCS215a	20111102.135844	20111102.141959	8	0.013327	60	10	60-180	60	114	GapExp	BigFlash	0	200	2	0	0	distractor	1	548	726	291655	13.328	13.307	13.346
ProbeTrack13	7	ProbeTrack	13.2	SCS215a	20111102.142100	20111102.142106	8	0.013327	60	10	60-180	60	61	GapPrac	SmallFlash	1	1	2	0	1	target	1	521	740	292395	13.399	12.905	13.759
ProbeTrack13	7	ProbeTrack	13.2	SCS215a	20111102.142100	20111102.142112	8	0.013327	60	10	60-180	60	110	GapPrac	SmallFlash	1	2	2	45	1	distractor	0	523	-1000	291395	13.328	13.093	13.563
ProbeTrack13	7	ProbeTrack	13.2	SCS215a	20111102.142100	20111102.142119	8	0.013327	60	10	60-180	60	147	GapPrac	SmallFlash	1	3	2	1	1	target	1	429	786	292181	13.328	12.870	13.786
ProbeTrack13	7	ProbeTrack	13.2	SCS215a	20111102.142100	20111102.142125	8	0.013327	60	10	60-180	60	92	GapPrac	SmallFlash	1	4	2	0	0	distractor	1	445	778	292959	13.328	13.092	13.570
ProbeTrack13	7	ProbeTrack	13.2	SCS215a	20111102.142100	20111102.142131	8	0.013327	60	10	60-180	60	97	GapPrac	SmallFlash	1	5	2	1	0	distractor	1	524	738	293697	13.328	13.309	13.348
ProbeTrack13	7	ProbeTrack	13.2	SCS215a	20111102.142100	20111102.142137	8	0.013327	60	10	60-180	60	67	GapPrac	SmallFlash	1	6	2	45	0	distractor	1	426	787	294484	13.328	13.303	13.353
ProbeTrack13	7	ProbeTrack	13.2	SCS215a	20111102.142100	20111102.142143	8	0.013327	60	10	60-180	60	136	GapPrac	SmallFlash	1	7	2	3	0	distractor	1	463	769	295253	13.328	13.299	13.366
ProbeTrack13	7	ProbeTrack	13.2	SCS215a	20111102.142100	20111102.142150	8	0.013327	60	10	60-180	60	166	GapPrac	SmallFlash	1	8	2	1	1	target	1	552	724	295977	13.328	12.917	13.678
ProbeTrack13	7	ProbeTrack	13.2	SCS215a	20111102.142100	20111102.142156	8	0.013327	60	10	60-180	60	151	GapPrac	SmallFlash	1	9	2	3	1	target	1	385	808	296785	13.328	13.155	13.494
ProbeTrack13	7	ProbeTrack	13.2	SCS215a	20111102.142100	20111102.142203	8	0.013327	60	10	60-180	60	91	GapPrac	SmallFlash	1	10	2	1	0	distractor	1	465	768	297553	13.328	13.306	13.351
ProbeTrack13	7	ProbeTrack	13.2	SCS215a	20111102.142100	20111102.142208	8	0.013327	60	10	60-180	60	114	GapPrac	SmallFlash	1	11	2	45	1	target	1	346	827	298380	13.328	13.098	13.544
ProbeTrack13	7	ProbeTrack	13.2	SCS215a	20111102.142100	20111102.142215	8	0.013327	60	10	60-180	60	144	GapPrac	SmallFlash	1	12	2	0	0	distractor	1	423	789	299169	13.328	13.098	13.544
ProbeTrack13	7	ProbeTrack	13.2	SCS215a	20111102.142100	20111102.142222	8	0.013327	60	10	60-180	60	112	GapPrac	SmallFlash	1	13	2	3	0	distractor	1	702	649	299818	13.328	13.103	13.559
ProbeTrack13	7	ProbeTrack	13.2	SCS215a	20111102.142100	20111102.142228	8	0.013327	60	10	60-180	60	162	GapPrac	SmallFlash	1	14	2	45	1	target	1	373	814	300632	13.328	13.309	13.344
ProbeTrack13	7	ProbeTrack	13.2	SCS215a	20111102.142100	20111102.142235	8	0.013327	60	10	60-180	60	68	GapPrac	SmallFlash	1	15	2	3	1	target	1	456	772	301404	13.328	13.095	13.546
ProbeTrack13	7	ProbeTrack	13.2	SCS215a	20111102.142100	20111102.142240	8	0.013327	60	10	60-180	60	173	GapPrac	SmallFlash	1	16	2	45	0	distractor	1	461	770	302174	13.328	13.091	13.565
ProbeTrack13	7	ProbeTrack	13.2	SCS215a	20111102.142100	20111102.142248	8	0.013327	60	10	60-180	60	76	GapPrac	SmallFlash	1	17	2	0	1	target	1	409	796	302970	13.328	13.308	13.346
ProbeTrack13	7	ProbeTrack	13.2	SCS215a	20111102.142100	20111102.142254	8	0.013327	60	10	60-180	60	83	GapPrac	SmallFlash	1	18	2	0	0	distractor	1	766	617	303587	13.328	12.903	13.757
ProbeTrack13	7	ProbeTrack	13.2	SCS215a	20111102.142100	20111102.142259	8	0.013327	60	10	60-180	60	117	GapPrac	SmallFlash	1	19	2	0	1	target	1	336	832	304419	13.328	13.299	13.351
ProbeTrack13	7	ProbeTrack	13.2	SCS215a	20111102.142100	20111102.142305	8	0.013327	60	10	60-180	60	178	GapPrac	SmallFlash	1	20	2	1	1	distractor	0	498	-1000	303419	13.328	12.896	13.745
ProbeTrack13	7	ProbeTrack	13.2	SCS215a	20111102.142331	20111102.142406	8	0.013328	60	10	60-180	60	99	GapExp	SmallFlash	1	1	2	0	1	target	1	570	715	304134	13.386	12.271	14.384
ProbeTrack13	7	ProbeTrack	13.2	SCS215a	20111102.142331	20111102.142413	8	0.013328	60	10	60-180	60	89	GapExp	SmallFlash	1	2	2	1	0	distractor	1	541	730	304864	13.328	10.492	16.165
ProbeTrack13	7	ProbeTrack	13.2	SCS215a	20111102.142331	20111102.142419	8	0.013328	60	10	60-180	60	161	GapExp	SmallFlash	1	3	2	1	1	target	1	313	844	305708	13.328	13.083	13.566
ProbeTrack13	7	ProbeTrack	13.2	SCS215a	20111102.142331	20111102.142425	8	0.013328	60	10	60-180	60	112	GapExp	SmallFlash	1	4	2	45	0	distractor	1	485	758	306466	13.328	13.309	13.350
ProbeTrack13	7	ProbeTrack	13.2	SCS215a	20111102.142331	20111102.142432	8	0.013328	60	10	60-180	60	171	GapExp	SmallFlash	1	5	2	3	0	distractor	1	415	793	307259	13.328	12.733	13.924
ProbeTrack13	7	ProbeTrack	13.2	SCS215a	20111102.142331	20111102.142439	8	0.013328	60	10	60-180	60	119	GapExp	SmallFlash	1	6	2	0	0	distractor	1	536	732	307991	13.328	13.308	13.354
ProbeTrack13	7	ProbeTrack	13.2	SCS215a	20111102.142331	20111102.142445	8	0.013328	60	10	60-180	60	73	GapExp	SmallFlash	1	7	2	3	1	target	1	431	785	308776	13.328	13.302	13.347
ProbeTrack13	7	ProbeTrack	13.2	SCS215a	20111102.142331	20111102.142450	8	0.013328	60	10	60-180	60	137	GapExp	SmallFlash	1	8	2	45	1	target	1	355	823	309599	13.328	13.305	13.346
ProbeTrack13	7	ProbeTrack	13.2	SCS215a	20111102.142331	20111102.142457	8	0.013328	60	10	60-180	60	72	GapExp	SmallFlash	0	9	2	3	0	distractor	1	544	728	310327	13.328	11.216	15.440
ProbeTrack13	7	ProbeTrack	13.2	SCS215a	20111102.142331	20111102.142503	8	0.013328	60	10	60-180	60	114	GapExp	SmallFlash	0	10	2	3	0	distractor	1	418	791	311118	13.328	12.693	13.971
ProbeTrack13	7	ProbeTrack	13.2	SCS215a	20111102.142331	20111102.142508	8	0.013328	60	10	60-180	60	125	GapExp	SmallFlash	0	11	2	1	0	distractor	1	433	784	311902	13.328	13.099	13.570
ProbeTrack13	7	ProbeTrack	13.2	SCS215a	20111102.142331	20111102.142514	8	0.013328	60	10	60-180	60	115	GapExp	SmallFlash	0	12	2	1	0	distractor	1	380	810	312712	13.328	13.305	13.343
ProbeTrack13	7	ProbeTrack	13.2	SCS215a	20111102.142331	20111102.142521	8	0.013328	60	10	60-180	60	78	GapExp	SmallFlash	0	13	2	0	0	distractor	1	382	809	313521	13.328	13.307	13.343
ProbeTrack13	7	ProbeTrack	13.2	SCS215a	20111102.142331	20111102.142526	8	0.013328	60	10	60-180	60	136	GapExp	SmallFlash	0	14	2	3	0	distractor	1	393	804	314325	13.328	9.589	17.079
ProbeTrack13	7	ProbeTrack	13.2	SCS215a	20111102.142331	20111102.142532	8	0.013328	60	10	60-180	60	103	GapExp	SmallFlash	0	15	2	1	0	distractor	1	364	818	315143	13.328	8.068	18.597
ProbeTrack13	7	ProbeTrack	13.2	SCS215a	20111102.142331	20111102.142538	8	0.013328	60	10	60-180	60	139	GapExp	SmallFlash	0	16	2	1	0	distractor	1	400	800	315943	13.328	8.093	18.570
ProbeTrack13	7	ProbeTrack	13.2	SCS215a	20111102.142331	20111102.142544	8	0.013328	60	10	60-180	60	115	GapExp	SmallFlash	0	17	2	3	0	distractor	1	343	829	316772	13.328	13.270	13.380
ProbeTrack13	7	ProbeTrack	13.2	SCS215a	20111102.142331	20111102.142550	8	0.013328	60	10	60-180	60	75	GapExp	SmallFlash	0	18	2	45	0	distractor	1	430	785	317557	13.328	13.305	13.348
ProbeTrack13	7	ProbeTrack	13.2	SCS215a	20111102.142331	20111102.142556	8	0.013328	60	10	60-180	60	132	GapExp	SmallFlash	0	19	2	1	0	distractor	1	374	813	318370	13.328	12.049	14.621
ProbeTrack13	7	ProbeTrack	13.2	SCS215a	20111102.142331	20111102.142602	8	0.013328	60	10	60-180	60	99	GapExp	SmallFlash	0	20	2	0	1	target	1	399	801	319171	13.328	12.318	14.351
ProbeTrack13	7	ProbeTrack	13.2	SCS215a	20111102.142331	20111102.142608	8	0.013328	60	10	60-180	60	153	GapExp	SmallFlash	0	21	2	3	0	distractor	1	391	805	319976	13.328	13.310	13.346
ProbeTrack13	7	ProbeTrack	13.2	SCS215a	20111102.142331	20111102.142614	8	0.013328	60	10	60-180	60	89	GapExp	SmallFlash	0	22	2	3	1	target	1	482	759	320735	13.328	10.836	13.384
ProbeTrack13	7	ProbeTrack	13.2	SCS215a	20111102.142331	20111102.142620	8	0.013328	60	10	60-180	60	103	GapExp	SmallFlash	0	23	2	45	1	target	1	411	795	321530	13.328	13.303	13.348
ProbeTrack13	7	ProbeTrack	13.2	SCS215a	20111102.142331	20111102.142626	8	0.013328	60	10	60-180	60	159	GapExp	SmallFlash	0	24	2	1	0	distractor	1	405	798	322328	13.328	8.146	18.511
ProbeTrack13	7	ProbeTrack	13.2	SCS215a	20111102.142331	20111102.142633	8	0.013328	60	10	60-180	60	165	GapExp	SmallFlash	0	25	2	3	1	target	1	338	831	323159	13.328	13.023	13.624
ProbeTrack13	7	ProbeTrack	13.2	SCS215a	20111102.142331	20111102.142639	8	0.013328	60	10	60-180	60	104	GapExp	SmallFlash	0	26	2	3	0	distractor	1	474	763	323922	13.328	12.043	14.607
ProbeTrack13	7	ProbeTrack	13.2	SCS215a	20111102.142331	20111102.142645	8	0.013328	60	10	60-180	60	114	GapExp	SmallFlash	0	27	2	3	1	distractor	0	365	-1000	322922	13.328	8.498	18.170
ProbeTrack13	7	ProbeTrack	13.2	SCS215a	20111102.142331	20111102.142651	8	0.013328	60	10	60-180	60	146	GapExp	SmallFlash	0	28	2	3	0	target	0	338	-1000	321922	13.328	12.538	14.131
ProbeTrack13	7	ProbeTrack	13.2	SCS215a	20111102.142331	20111102.142658	8	0.013328	60	10	60-180	60	69	GapExp	SmallFlash	0	29	2	3	1	target	1	452	774	322696	13.328	8.699	17.937
ProbeTrack13	7	ProbeTrack	13.2	SCS215a	20111102.142331	20111102.142704	8	0.013328	60	10	60-180	60	93	GapExp	SmallFlash	0	30	2	3	1	target	1	347	827	323523	13.328	13.304	13.352
ProbeTrack13	7	ProbeTrack	13.2	SCS215a	20111102.142331	20111102.142709	8	0.013328	60	10	60-180	60	122	GapExp	SmallFlash	0	31	2	1	1	target	1	527	737	324260	13.328	13.104	13.564
ProbeTrack13	7	ProbeTrack	13.2	SCS215a	20111102.142331	20111102.142715	8	0.013328	60	10	60-180	60	129	GapExp	SmallFlash	0	32	2	0	0	distractor	1	515	743	325003	13.328	13.092	13.558
ProbeTrack13	7	ProbeTrack	13.2	SCS215a	20111102.142331	20111102.142721	8	0.013328	60	10	60-180	60	165	GapExp	SmallFlash	0	33	2	0	1	target	1	299	851	325854	13.328	13.100	13.564
ProbeTrack13	7	ProbeTrack	13.2	SCS215a	20111102.142331	20111102.142727	8	0.013328	60	10	60-180	60	69	GapExp	SmallFlash	0	34	2	1	1	target	1	475	763	326617	13.328	11.431	15.215
ProbeTrack13	7	ProbeTrack	13.2	SCS215a	20111102.142331	20111102.142733	8	0.013328	60	10	60-180	60	65	GapExp	SmallFlash	0	35	2	0	1	target	1	383	809	327426	13.328	13.262	13.394
ProbeTrack13	7	ProbeTrack	13.2	SCS215a	20111102.142331	20111102.142738	8	0.013328	60	10	60-180	60	98	GapExp	SmallFlash	0	36	2	1	0	target	0	323	-1000	326426	13.328	13.112	13.550
ProbeTrack13	7	ProbeTrack	13.2	SCS215a	20111102.142331	20111102.142744	8	0.013328	60	10	60-180	60	151	GapExp	SmallFlash	0	37	2	1	1	target	1	426	787	327213	13.328	12.650	14.022
ProbeTrack13	7	ProbeTrack	13.2	SCS215a	20111102.142331	20111102.142750	8	0.013328	60	10	60-180	60	94	GapExp	SmallFlash	0	38	2	1	0	distractor	1	551	725	327938	13.328	13.118	13.557
ProbeTrack13	7	ProbeTrack	13.2	SCS215a	20111102.142331	20111102.142756	8	0.013328	60	10	60-180	60	81	GapExp	SmallFlash	0	39	2	3	0	distractor	1	623	689	328627	13.389	12.178	24.747
ProbeTrack13	7	ProbeTrack	13.2	SCS215a	20111102.142331	20111102.142801	8	0.013328	60	10	60-180	60	167	GapExp	SmallFlash	0	40	2	0	1	target	1	462	769	329396	13.328	12.962	13.721
ProbeTrack13	7	ProbeTrack	13.2	SCS215a	20111102.142331	20111102.142808	8	0.013328	60	10	60-180	60	74	GapExp	SmallFlash	0	41	2	45	1	target	1	331	835	330231	13.328	13.076	13.578
ProbeTrack13	7	ProbeTrack	13.2	SCS215a	20111102.142331	20111102.142814	8	0.013328	60	10	60-180	60	162	GapExp	SmallFlash	0	42	2	0	0	distractor	1	407	797	331028	13.328	13.299	13.351
ProbeTrack13	7	ProbeTrack	13.2	SCS215a	20111102.142331	20111102.142821	8	0.013328	60	10	60-180	60	116	GapExp	SmallFlash	0	43	2	1	1	target	1	324	838	331866	13.328	13.306	13.344
ProbeTrack13	7	ProbeTrack	13.2	SCS215a	20111102.142331	20111102.142827	8	0.013328	60	10	60-180	60	84	GapExp	SmallFlash	0	44	2	1	0	distractor	1	469	766	332632	13.328	13.099	13.550
ProbeTrack13	7	ProbeTrack	13.2	SCS215a	20111102.142331	20111102.142832	8	0.013328	60	10	60-180	60	107	GapExp	SmallFlash	0	45	2	45	1	target	1	331	835	333467	13.328	13.308	13.348
ProbeTrack13	7	ProbeTrack	13.2	SCS215a	20111102.142331	20111102.142839	8	0.013328	60	10	60-180	60	121	GapExp	SmallFlash	0	46	2	3	1	target	1	363	819	334286	13.328	13.095	13.560
ProbeTrack13	7	ProbeTrack	13.2	SCS215a	20111102.142331	20111102.142844	8	0.013328	60	10	60-180	60	155	GapExp	SmallFlash	0	47	2	3	0	distractor	1	414	793	335079	13.328	13.111	13.557
ProbeTrack13	7	ProbeTrack	13.2	SCS215a	20111102.142331	20111102.142851	8	0.013328	60	10	60-180	60	134	GapExp	SmallFlash	0	48	2	3	1	target	1	435	783	335862	13.328	13.305	13.346
ProbeTrack13	7	ProbeTrack	13.2	SCS215a	20111102.142331	20111102.142857	8	0.013328	60	10	60-180	60	104	GapExp	SmallFlash	0	49	2	0	0	distractor	1	513	744	336606	13.328	13.261	13.399
ProbeTrack13	7	ProbeTrack	13.2	SCS215a	20111102.142331	20111102.142903	8	0.013328	60	10	60-180	60	168	GapExp	SmallFlash	0	50	2	0	0	distractor	1	488	756	337362	13.328	13.301	13.353
ProbeTrack13	7	ProbeTrack	13.2	SCS215a	20111102.142331	20111102.142910	8	0.013328	60	10	60-180	60	131	GapExp	SmallFlash	0	51	2	45	1	target	1	334	833	338195	13.328	13.308	13.357
ProbeTrack13	7	ProbeTrack	13.2	SCS215a	20111102.142331	20111102.142916	8	0.013328	60	10	60-180	60	167	GapExp	SmallFlash	0	52	2	1	1	target	1	345	828	339023	13.328	13.299	13.358
ProbeTrack13	7	ProbeTrack	13.2	SCS215a	20111102.142331	20111102.142923	8	0.013328	60	10	60-180	60	179	GapExp	SmallFlash	0	53	2	1	0	distractor	1	379	811	339834	13.328	5.750	20.914
ProbeTrack13	7	ProbeTrack	13.2	SCS215a	20111102.142331	20111102.142929	8	0.013328	60	10	60-180	60	92	GapExp	SmallFlash	0	54	2	1	1	target	1	322	839	340673	13.328	13.099	13.556
ProbeTrack13	7	ProbeTrack	13.2	SCS215a	20111102.142331	20111102.142935	8	0.013328	60	10	60-180	60	118	GapExp	SmallFlash	0	55	2	3	1	target	1	467	767	341440	13.328	13.105	13.559
ProbeTrack13	7	ProbeTrack	13.2	SCS215a	20111102.142331	20111102.142941	8	0.013328	60	10	60-180	60	133	GapExp	SmallFlash	0	56	2	0	0	distractor	1	498	751	342191	13.328	13.307	13.361
ProbeTrack13	7	ProbeTrack	13.2	SCS215a	20111102.142331	20111102.142947	8	0.013328	60	10	60-180	60	123	GapExp	SmallFlash	0	57	2	1	1	target	1	296	852	343043	13.328	10.791	15.875
ProbeTrack13	7	ProbeTrack	13.2	SCS215a	20111102.142331	20111102.142953	8	0.013328	60	10	60-180	60	93	GapExp	SmallFlash	0	58	2	0	0	target	0	381	-1000	342043	13.328	13.307	13.346
ProbeTrack13	7	ProbeTrack	13.2	SCS215a	20111102.142331	20111102.142959	8	0.013328	60	10	60-180	60	116	GapExp	SmallFlash	0	59	2	0	0	distractor	1	478	761	342804	13.328	13.307	13.344
ProbeTrack13	7	ProbeTrack	13.2	SCS215a	20111102.142331	20111102.143005	8	0.013328	60	10	60-180	60	88	GapExp	SmallFlash	0	60	2	3	0	distractor	1	673	664	343468	13.328	13.096	13.564
ProbeTrack13	7	ProbeTrack	13.2	SCS215a	20111102.142331	20111102.143010	8	0.013328	60	10	60-180	60	165	GapExp	SmallFlash	0	61	2	0	1	target	1	317	842	344310	13.328	7.614	19.056
ProbeTrack13	7	ProbeTrack	13.2	SCS215a	20111102.142331	20111102.143017	8	0.013328	60	10	60-180	60	94	GapExp	SmallFlash	0	62	2	3	0	distractor	1	478	761	345071	13.328	13.118	13.551
ProbeTrack13	7	ProbeTrack	13.2	SCS215a	20111102.142331	20111102.143023	8	0.013328	60	10	60-180	60	171	GapExp	SmallFlash	0	63	2	0	0	distractor	1	439	781	345852	13.328	12.650	13.999
ProbeTrack13	7	ProbeTrack	13.2	SCS215a	20111102.142331	20111102.143029	8	0.013328	60	10	60-180	60	71	GapExp	SmallFlash	0	64	2	3	0	distractor	1	767	617	346469	13.328	13.300	13.343
ProbeTrack13	7	ProbeTrack	13.2	SCS215a	20111102.142331	20111102.143035	8	0.013328	60	10	60-180	60	115	GapExp	SmallFlash	0	65	2	0	1	target	1	486	757	347226	13.328	9.122	17.434
ProbeTrack13	7	ProbeTrack	13.2	SCS215a	20111102.142331	20111102.143041	8	0.013328	60	10	60-180	60	150	GapExp	SmallFlash	0	66	2	1	1	target	1	352	824	348050	13.328	10.179	18.879
ProbeTrack13	7	ProbeTrack	13.2	SCS215a	20111102.142331	20111102.143048	8	0.013328	60	10	60-180	60	164	GapExp	SmallFlash	0	67	2	3	0	distractor	1	398	801	348851	13.328	13.297	13.360
ProbeTrack13	7	ProbeTrack	13.2	SCS215a	20111102.142331	20111102.143054	8	0.013328	60	10	60-180	60	150	GapExp	SmallFlash	0	68	2	1	0	distractor	1	448	776	349627	13.328	13.303	13.360
ProbeTrack13	7	ProbeTrack	13.2	SCS215a	20111102.142331	20111102.143101	8	0.013328	60	10	60-180	60	170	GapExp	SmallFlash	0	69	2	0	1	target	1	354	823	350450	13.328	7.495	19.168
ProbeTrack13	7	ProbeTrack	13.2	SCS215a	20111102.142331	20111102.143107	8	0.013328	60	10	60-180	60	97	GapExp	SmallFlash	0	70	2	3	1	target	1	414	793	351243	13.328	13.084	13.565
ProbeTrack13	7	ProbeTrack	13.2	SCS215a	20111102.142331	20111102.143112	8	0.013328	60	10	60-180	60	77	GapExp	SmallFlash	0	71	2	1	1	target	1	506	747	351990	13.328	13.309	13.347
