exp	sub	code	rev	comp	runtime	trialtime	nstim	refreshdur	cuedur	gapdur	gapOnsetRange	durPostProbe	gapOnsetTime	blocktype	gaptype	prac	trial	ntargets	soa	probeTarget	resp	acc	rt	pts	tpts	meanFrameDur	minFrameDur	maxFrameDur
ProbeTrack13	13	ProbeTrack	13.2	SCS215b	20111107.092128	20111107.092136	8	0.013328	60	0	60-180	60	79	NoGap	None	1	1	2	3	0	distractor	1	1779	111	111	13.390	13.107	13.545
ProbeTrack13	13	ProbeTrack	13.2	SCS215b	20111107.092128	20111107.092312	8	0.013328	60	0	60-180	60	67	NoGap	None	1	2	2	45	0	distractor	1	533	734	845	13.328	13.115	13.540
ProbeTrack13	13	ProbeTrack	13.2	SCS215b	20111107.092128	20111107.092323	8	0.013328	60	0	60-180	60	135	NoGap	None	1	3	2	1	1	target	1	963	519	1364	13.328	13.290	13.354
ProbeTrack13	13	ProbeTrack	13.2	SCS215b	20111107.092128	20111107.092333	8	0.013328	60	0	60-180	60	123	NoGap	None	1	4	2	45	0	distractor	1	558	721	2085	13.328	12.914	13.739
ProbeTrack13	13	ProbeTrack	13.2	SCS215b	20111107.092128	20111107.092340	8	0.013328	60	0	60-180	60	77	NoGap	None	1	5	2	3	0	distractor	1	728	636	2721	13.328	13.114	13.525
ProbeTrack13	13	ProbeTrack	13.2	SCS215b	20111107.092128	20111107.092347	8	0.013328	60	0	60-180	60	92	NoGap	None	1	6	2	1	0	distractor	1	573	714	3435	13.328	13.303	13.358
ProbeTrack13	13	ProbeTrack	13.2	SCS215b	20111107.092128	20111107.092353	8	0.013328	60	0	60-180	60	144	NoGap	None	1	7	2	45	1	target	1	1080	460	3895	13.493	12.939	40.317
ProbeTrack13	13	ProbeTrack	13.2	SCS215b	20111107.092128	20111107.092400	8	0.013328	60	0	60-180	60	166	NoGap	None	1	8	2	45	1	distractor	0	655	-1000	2895	13.328	13.106	13.553
ProbeTrack13	13	ProbeTrack	13.2	SCS215b	20111107.092128	20111107.092408	8	0.013328	60	0	60-180	60	82	NoGap	None	1	9	2	0	0	distractor	1	884	558	3453	13.328	13.086	13.574
ProbeTrack13	13	ProbeTrack	13.2	SCS215b	20111107.092128	20111107.092414	8	0.013328	60	0	60-180	60	104	NoGap	None	1	10	2	3	1	target	1	1130	435	3888	13.328	13.100	13.550
ProbeTrack13	13	ProbeTrack	13.2	SCS215b	20111107.092128	20111107.092421	8	0.013328	60	0	60-180	60	71	NoGap	None	1	11	2	0	0	distractor	1	886	557	4445	13.328	13.255	13.400
ProbeTrack13	13	ProbeTrack	13.2	SCS215b	20111107.092128	20111107.092426	8	0.013328	60	0	60-180	60	141	NoGap	None	1	12	2	0	0	target	0	1048	-1000	3445	13.328	13.087	13.560
ProbeTrack13	13	ProbeTrack	13.2	SCS215b	20111107.092128	20111107.092434	8	0.013328	60	0	60-180	60	97	NoGap	None	1	13	2	0	1	target	1	987	507	3952	13.328	12.956	13.726
ProbeTrack13	13	ProbeTrack	13.2	SCS215b	20111107.092128	20111107.092440	8	0.013328	60	0	60-180	60	74	NoGap	None	1	14	2	45	1	target	1	700	650	4602	13.328	12.840	13.824
ProbeTrack13	13	ProbeTrack	13.2	SCS215b	20111107.092128	20111107.092446	8	0.013328	60	0	60-180	60	152	NoGap	None	1	15	2	1	0	distractor	1	814	593	5195	13.467	13.063	39.996
ProbeTrack13	13	ProbeTrack	13.2	SCS215b	20111107.092128	20111107.092453	8	0.013328	60	0	60-180	60	90	NoGap	None	1	16	2	3	0	target	0	1042	-1000	4195	13.328	13.248	13.412
ProbeTrack13	13	ProbeTrack	13.2	SCS215b	20111107.092128	20111107.092500	8	0.013328	60	0	60-180	60	92	NoGap	None	1	17	2	1	1	target	1	654	673	4868	13.328	12.871	13.805
ProbeTrack13	13	ProbeTrack	13.2	SCS215b	20111107.092128	20111107.092506	8	0.013328	60	0	60-180	60	69	NoGap	None	1	18	2	3	0	distractor	1	575	713	5581	13.328	13.121	13.454
ProbeTrack13	13	ProbeTrack	13.2	SCS215b	20111107.092128	20111107.092512	8	0.013328	60	0	60-180	60	79	NoGap	None	1	19	2	45	1	target	1	613	694	6275	13.328	12.961	13.686
ProbeTrack13	13	ProbeTrack	13.2	SCS215b	20111107.092128	20111107.092518	8	0.013328	60	0	60-180	60	107	NoGap	None	1	20	2	0	1	target	1	519	741	7016	13.328	12.981	13.678
ProbeTrack13	13	ProbeTrack	13.2	SCS215b	20111107.092128	20111107.092524	8	0.013328	60	0	60-180	60	100	NoGap	None	1	21	2	1	0	distractor	1	601	700	7716	13.328	12.871	13.794
ProbeTrack13	13	ProbeTrack	13.2	SCS215b	20111107.092128	20111107.092530	8	0.013328	60	0	60-180	60	86	NoGap	None	1	22	2	3	1	target	1	763	619	8335	13.328	12.867	13.785
ProbeTrack13	13	ProbeTrack	13.2	SCS215b	20111107.092128	20111107.092536	8	0.013328	60	0	60-180	60	104	NoGap	None	1	23	2	45	0	distractor	1	627	687	9022	13.328	12.841	13.830
ProbeTrack13	13	ProbeTrack	13.2	SCS215b	20111107.092128	20111107.092542	8	0.013328	60	0	60-180	60	79	NoGap	None	1	24	2	3	1	target	1	711	645	9667	13.328	12.878	13.777
ProbeTrack13	13	ProbeTrack	13.2	SCS215b	20111107.092128	20111107.092548	8	0.013328	60	0	60-180	60	138	NoGap	None	1	25	2	45	1	target	1	410	795	10462	13.328	12.863	13.797
ProbeTrack13	13	ProbeTrack	13.2	SCS215b	20111107.092128	20111107.092555	8	0.013328	60	0	60-180	60	161	NoGap	None	1	26	2	3	1	target	1	710	645	11107	13.328	12.889	13.689
ProbeTrack13	13	ProbeTrack	13.2	SCS215b	20111107.092128	20111107.092602	8	0.013328	60	0	60-180	60	67	NoGap	None	1	27	2	0	1	target	1	708	646	11753	13.328	13.240	13.403
ProbeTrack13	13	ProbeTrack	13.2	SCS215b	20111107.092128	20111107.092607	8	0.013328	60	0	60-180	60	134	NoGap	None	1	28	2	45	0	distractor	1	496	752	12505	13.328	12.860	13.810
ProbeTrack13	13	ProbeTrack	13.2	SCS215b	20111107.092128	20111107.092614	8	0.013328	60	0	60-180	60	155	NoGap	None	1	29	2	45	0	target	0	395	-1000	11505	13.329	12.995	13.654
ProbeTrack13	13	ProbeTrack	13.2	SCS215b	20111107.092128	20111107.092621	8	0.013328	60	0	60-180	60	61	NoGap	None	1	30	2	0	0	distractor	1	833	584	12089	13.328	13.309	13.363
ProbeTrack13	13	ProbeTrack	13.2	SCS215b	20111107.092128	20111107.092628	8	0.013328	60	0	60-180	60	98	NoGap	None	1	31	2	1	0	distractor	1	816	592	12681	13.328	12.979	13.671
ProbeTrack13	13	ProbeTrack	13.2	SCS215b	20111107.092128	20111107.092634	8	0.013328	60	0	60-180	60	90	NoGap	None	1	32	2	0	0	distractor	1	525	738	13419	13.328	13.109	13.557
ProbeTrack13	13	ProbeTrack	13.2	SCS215b	20111107.092128	20111107.092639	8	0.013328	60	0	60-180	60	107	NoGap	None	1	33	2	1	1	target	1	390	805	14224	13.328	13.306	13.354
ProbeTrack13	13	ProbeTrack	13.2	SCS215b	20111107.092128	20111107.092645	8	0.013328	60	0	60-180	60	116	NoGap	None	1	34	2	0	1	distractor	0	315	-1000	13224	13.328	12.998	13.663
ProbeTrack13	13	ProbeTrack	13.2	SCS215b	20111107.092128	20111107.092651	8	0.013328	60	0	60-180	60	137	NoGap	None	1	35	2	3	1	target	1	551	725	13949	13.328	12.935	13.730
ProbeTrack13	13	ProbeTrack	13.2	SCS215b	20111107.092128	20111107.092657	8	0.013328	60	0	60-180	60	105	NoGap	None	1	36	2	1	0	distractor	1	430	785	14734	13.328	13.020	13.624
ProbeTrack13	13	ProbeTrack	13.2	SCS215b	20111107.092128	20111107.092703	8	0.013328	60	0	60-180	60	145	NoGap	None	1	37	2	1	1	target	1	398	801	15535	13.328	12.922	13.743
ProbeTrack13	13	ProbeTrack	13.2	SCS215b	20111107.092128	20111107.092709	8	0.013328	60	0	60-180	60	114	NoGap	None	1	38	2	0	1	target	1	323	839	16374	13.328	13.102	13.556
ProbeTrack13	13	ProbeTrack	13.2	SCS215b	20111107.092128	20111107.092715	8	0.013328	60	0	60-180	60	167	NoGap	None	1	39	2	3	0	distractor	1	424	788	17162	13.327	12.893	13.682
ProbeTrack13	13	ProbeTrack	13.2	SCS215b	20111107.092128	20111107.092721	8	0.013328	60	0	60-180	60	104	NoGap	None	1	40	2	1	1	target	1	558	721	17883	13.328	13.007	13.639
ProbeTrack13	13	ProbeTrack	13.2	SCS215b	20111107.092811	20111107.092822	8	0.013328	60	10	60-180	60	103	GapPrac	Blank	1	1	2	3	0	target	0	1089	-1000	16883	13.381	10.257	16.399
ProbeTrack13	13	ProbeTrack	13.2	SCS215b	20111107.092811	20111107.092832	8	0.013328	60	10	60-180	60	98	GapPrac	Blank	1	2	2	0	1	target	1	1121	440	17323	13.328	5.039	21.619
ProbeTrack13	13	ProbeTrack	13.2	SCS215b	20111107.092811	20111107.092840	8	0.013328	60	10	60-180	60	107	GapPrac	Blank	1	3	2	45	1	distractor	0	578	-1000	16323	13.328	9.344	17.314
ProbeTrack13	13	ProbeTrack	13.2	SCS215b	20111107.092811	20111107.092847	8	0.013328	60	10	60-180	60	152	GapPrac	Blank	1	4	2	1	0	target	0	627	-1000	15323	13.328	9.049	17.610
ProbeTrack13	13	ProbeTrack	13.2	SCS215b	20111107.092811	20111107.092854	8	0.013328	60	10	60-180	60	117	GapPrac	Blank	1	5	2	3	0	distractor	1	765	618	15941	13.328	11.542	15.107
ProbeTrack13	13	ProbeTrack	13.2	SCS215b	20111107.092811	20111107.092901	8	0.013328	60	10	60-180	60	64	GapPrac	Blank	1	6	2	45	1	target	1	569	716	16657	13.328	10.489	16.177
ProbeTrack13	13	ProbeTrack	13.2	SCS215b	20111107.092811	20111107.092908	8	0.013328	60	10	60-180	60	84	GapPrac	Blank	1	7	2	3	1	target	1	729	636	17293	13.328	10.886	15.769
ProbeTrack13	13	ProbeTrack	13.2	SCS215b	20111107.092811	20111107.092914	8	0.013328	60	10	60-180	60	66	GapPrac	Blank	1	8	2	45	0	distractor	1	820	590	17883	13.328	11.368	15.282
ProbeTrack13	13	ProbeTrack	13.2	SCS215b	20111107.092811	20111107.092920	8	0.013328	60	10	60-180	60	107	GapPrac	Blank	1	9	2	1	1	target	1	661	670	18553	13.437	9.817	38.895
ProbeTrack13	13	ProbeTrack	13.2	SCS215b	20111107.092811	20111107.092926	8	0.013328	60	10	60-180	60	139	GapPrac	Blank	1	10	2	45	0	distractor	1	665	668	19221	13.328	10.245	16.397
ProbeTrack13	13	ProbeTrack	13.2	SCS215b	20111107.092811	20111107.092933	8	0.013328	60	10	60-180	60	71	GapPrac	Blank	1	11	2	0	1	target	1	672	664	19885	13.299	7.274	15.962
ProbeTrack13	13	ProbeTrack	13.2	SCS215b	20111107.092811	20111107.092939	8	0.013328	60	10	60-180	60	71	GapPrac	Blank	1	12	2	1	0	distractor	1	607	697	20582	13.328	10.353	16.298
ProbeTrack13	13	ProbeTrack	13.2	SCS215b	20111107.092811	20111107.092945	8	0.013328	60	10	60-180	60	163	GapPrac	Blank	1	13	2	45	1	target	1	690	655	21237	13.328	4.282	22.377
ProbeTrack13	13	ProbeTrack	13.2	SCS215b	20111107.092811	20111107.092952	8	0.013328	60	10	60-180	60	162	GapPrac	Blank	1	14	2	0	1	target	1	761	620	21857	13.328	13.300	13.366
ProbeTrack13	13	ProbeTrack	13.2	SCS215b	20111107.092811	20111107.092959	8	0.013328	60	10	60-180	60	119	GapPrac	Blank	1	15	2	3	1	target	1	648	676	22533	13.327	4.756	21.885
ProbeTrack13	13	ProbeTrack	13.2	SCS215b	20111107.092811	20111107.093005	8	0.013328	60	10	60-180	60	134	GapPrac	Blank	1	16	2	0	0	distractor	1	659	671	23204	13.328	5.879	20.775
ProbeTrack13	13	ProbeTrack	13.2	SCS215b	20111107.092811	20111107.093012	8	0.013328	60	10	60-180	60	66	GapPrac	Blank	1	17	2	1	1	target	1	639	681	23885	13.328	5.818	20.853
ProbeTrack13	13	ProbeTrack	13.2	SCS215b	20111107.092811	20111107.093017	8	0.013328	60	10	60-180	60	88	GapPrac	Blank	1	18	2	0	0	distractor	1	637	682	24567	13.328	4.018	22.629
ProbeTrack13	13	ProbeTrack	13.2	SCS215b	20111107.092811	20111107.093023	8	0.013328	60	10	60-180	60	73	GapPrac	Blank	1	19	2	3	0	distractor	1	771	615	25182	13.328	6.110	20.554
ProbeTrack13	13	ProbeTrack	13.2	SCS215b	20111107.092811	20111107.093028	8	0.013328	60	10	60-180	60	144	GapPrac	Blank	1	20	2	1	0	distractor	1	737	632	25814	13.328	13.285	13.369
ProbeTrack13	13	ProbeTrack	13.2	SCS215b	20111107.093107	20111107.093111	8	0.013328	60	10	60-180	60	98	GapExp	Blank	1	1	2	0	1	target	1	471	765	26579	13.389	13.090	13.555
ProbeTrack13	13	ProbeTrack	13.2	SCS215b	20111107.093107	20111107.093119	8	0.013328	60	10	60-180	60	62	GapExp	Blank	1	2	2	0	0	distractor	1	565	718	27297	13.328	12.932	13.722
ProbeTrack13	13	ProbeTrack	13.2	SCS215b	20111107.093107	20111107.093124	8	0.013328	60	10	60-180	60	106	GapExp	Blank	1	3	2	3	0	distractor	1	766	617	27914	13.328	13.031	13.624
ProbeTrack13	13	ProbeTrack	13.2	SCS215b	20111107.093107	20111107.093130	8	0.013328	60	10	60-180	60	72	GapExp	Blank	1	4	2	1	1	target	1	541	730	28644	13.328	13.189	13.476
ProbeTrack13	13	ProbeTrack	13.2	SCS215b	20111107.093107	20111107.093135	8	0.013328	60	10	60-180	60	68	GapExp	Blank	1	5	2	3	1	distractor	0	646	-1000	27644	13.328	12.868	13.791
ProbeTrack13	13	ProbeTrack	13.2	SCS215b	20111107.093107	20111107.093140	8	0.013328	60	10	60-180	60	157	GapExp	Blank	1	6	2	45	0	distractor	1	582	709	28353	13.328	12.868	13.778
ProbeTrack13	13	ProbeTrack	13.2	SCS215b	20111107.093107	20111107.093148	8	0.013328	60	10	60-180	60	175	GapExp	Blank	1	7	2	45	1	target	1	674	663	29016	13.328	12.874	13.777
ProbeTrack13	13	ProbeTrack	13.2	SCS215b	20111107.093107	20111107.093156	8	0.013328	60	10	60-180	60	85	GapExp	Blank	1	8	2	1	0	target	0	644	-1000	28016	13.328	12.900	13.772
ProbeTrack13	13	ProbeTrack	13.2	SCS215b	20111107.093107	20111107.093202	8	0.013328	60	10	60-180	60	138	GapExp	Blank	0	9	2	3	0	distractor	1	798	601	28617	13.328	12.843	13.829
ProbeTrack13	13	ProbeTrack	13.2	SCS215b	20111107.093107	20111107.093208	8	0.013328	60	10	60-180	60	149	GapExp	Blank	0	10	2	3	0	distractor	1	775	613	29230	13.328	13.040	13.628
ProbeTrack13	13	ProbeTrack	13.2	SCS215b	20111107.093107	20111107.093215	8	0.013328	60	10	60-180	60	109	GapExp	Blank	0	11	2	3	0	distractor	1	998	501	29731	13.328	12.926	13.732
ProbeTrack13	13	ProbeTrack	13.2	SCS215b	20111107.093107	20111107.093221	8	0.013328	60	10	60-180	60	147	GapExp	Blank	0	12	2	0	1	target	1	801	600	30331	13.328	12.947	13.723
ProbeTrack13	13	ProbeTrack	13.2	SCS215b	20111107.093107	20111107.093228	8	0.013328	60	10	60-180	60	99	GapExp	Blank	0	13	2	45	1	target	1	425	788	31119	13.328	12.938	13.724
ProbeTrack13	13	ProbeTrack	13.2	SCS215b	20111107.093107	20111107.093234	8	0.013328	60	10	60-180	60	99	GapExp	Blank	0	14	2	3	0	distractor	1	596	702	31821	13.328	12.871	13.793
ProbeTrack13	13	ProbeTrack	13.2	SCS215b	20111107.093107	20111107.093240	8	0.013328	60	10	60-180	60	134	GapExp	Blank	0	15	2	0	1	target	1	598	701	32522	13.328	12.967	13.692
ProbeTrack13	13	ProbeTrack	13.2	SCS215b	20111107.093107	20111107.093246	8	0.013328	60	10	60-180	60	174	GapExp	Blank	0	16	2	0	1	target	1	602	699	33221	13.328	12.865	13.805
ProbeTrack13	13	ProbeTrack	13.2	SCS215b	20111107.093107	20111107.093253	8	0.013328	60	10	60-180	60	78	GapExp	Blank	0	17	2	3	1	target	1	657	672	33893	13.328	13.002	13.661
ProbeTrack13	13	ProbeTrack	13.2	SCS215b	20111107.093107	20111107.093259	8	0.013328	60	10	60-180	60	144	GapExp	Blank	0	18	2	1	1	target	1	608	696	34589	13.328	12.892	13.763
ProbeTrack13	13	ProbeTrack	13.2	SCS215b	20111107.093107	20111107.093306	8	0.013328	60	10	60-180	60	169	GapExp	Blank	0	19	2	3	1	target	1	568	716	35305	13.328	12.932	13.799
ProbeTrack13	13	ProbeTrack	13.2	SCS215b	20111107.093107	20111107.093313	8	0.013328	60	10	60-180	60	135	GapExp	Blank	0	20	2	3	1	target	1	459	771	36076	13.328	12.829	13.820
ProbeTrack13	13	ProbeTrack	13.2	SCS215b	20111107.093107	20111107.093319	8	0.013328	60	10	60-180	60	160	GapExp	Blank	0	21	2	3	0	distractor	1	604	698	36774	13.328	12.909	13.742
ProbeTrack13	13	ProbeTrack	13.2	SCS215b	20111107.093107	20111107.093326	8	0.013328	60	10	60-180	60	146	GapExp	Blank	0	22	2	0	0	distractor	1	625	688	37462	13.328	12.864	13.802
ProbeTrack13	13	ProbeTrack	13.2	SCS215b	20111107.093107	20111107.093332	8	0.013328	60	10	60-180	60	166	GapExp	Blank	0	23	2	0	1	target	1	357	822	38284	13.328	12.916	13.743
ProbeTrack13	13	ProbeTrack	13.2	SCS215b	20111107.093107	20111107.093339	8	0.013328	60	10	60-180	60	117	GapExp	Blank	0	24	2	45	0	distractor	1	522	739	39023	13.328	13.018	13.641
ProbeTrack13	13	ProbeTrack	13.2	SCS215b	20111107.093107	20111107.093345	8	0.013328	60	10	60-180	60	142	GapExp	Blank	0	25	2	0	1	target	1	502	749	39772	13.328	13.036	13.615
ProbeTrack13	13	ProbeTrack	13.2	SCS215b	20111107.093107	20111107.093351	8	0.013328	60	10	60-180	60	136	GapExp	Blank	0	26	2	1	0	distractor	1	693	654	40426	13.328	12.871	13.792
ProbeTrack13	13	ProbeTrack	13.2	SCS215b	20111107.093107	20111107.093357	8	0.013328	60	10	60-180	60	174	GapExp	Blank	0	27	2	3	1	target	1	457	772	41198	13.328	12.819	13.844
ProbeTrack13	13	ProbeTrack	13.2	SCS215b	20111107.093107	20111107.093405	8	0.013328	60	10	60-180	60	100	GapExp	Blank	0	28	2	45	1	target	1	363	819	42017	13.328	12.954	13.682
ProbeTrack13	13	ProbeTrack	13.2	SCS215b	20111107.093107	20111107.093411	8	0.013328	60	10	60-180	60	63	GapExp	Blank	0	29	2	1	1	target	1	556	722	42739	13.328	13.286	13.363
ProbeTrack13	13	ProbeTrack	13.2	SCS215b	20111107.093107	20111107.093416	8	0.013328	60	10	60-180	60	180	GapExp	Blank	0	30	2	1	0	distractor	1	613	694	43433	13.328	13.305	13.364
ProbeTrack13	13	ProbeTrack	13.2	SCS215b	20111107.093107	20111107.093422	8	0.013328	60	10	60-180	60	128	GapExp	Blank	0	31	2	3	0	distractor	1	593	704	44137	13.328	12.850	13.804
ProbeTrack13	13	ProbeTrack	13.2	SCS215b	20111107.093107	20111107.093429	8	0.013328	60	10	60-180	60	97	GapExp	Blank	0	32	2	45	1	target	1	561	720	44857	13.328	13.095	13.569
ProbeTrack13	13	ProbeTrack	13.2	SCS215b	20111107.093107	20111107.093435	8	0.013328	60	10	60-180	60	78	GapExp	Blank	0	33	2	0	1	target	1	474	763	45620	13.328	13.088	13.556
ProbeTrack13	13	ProbeTrack	13.2	SCS215b	20111107.093107	20111107.093441	8	0.013328	60	10	60-180	60	80	GapExp	Blank	0	34	2	3	0	distractor	1	513	744	46364	13.328	13.021	13.648
ProbeTrack13	13	ProbeTrack	13.2	SCS215b	20111107.093107	20111107.093446	8	0.013328	60	10	60-180	60	146	GapExp	Blank	0	35	2	0	1	target	1	584	708	47072	13.328	12.992	13.671
ProbeTrack13	13	ProbeTrack	13.2	SCS215b	20111107.093107	20111107.093452	8	0.013328	60	10	60-180	60	109	GapExp	Blank	0	36	2	3	0	target	0	272	-1000	46072	13.328	12.864	13.776
ProbeTrack13	13	ProbeTrack	13.2	SCS215b	20111107.093107	20111107.093458	8	0.013328	60	10	60-180	60	87	GapExp	Blank	0	37	2	3	0	distractor	1	560	720	46792	13.328	12.885	13.808
ProbeTrack13	13	ProbeTrack	13.2	SCS215b	20111107.093107	20111107.093504	8	0.013328	60	10	60-180	60	81	GapExp	Blank	0	38	2	3	1	target	1	518	741	47533	13.328	12.886	13.761
ProbeTrack13	13	ProbeTrack	13.2	SCS215b	20111107.093107	20111107.093510	8	0.013328	60	10	60-180	60	84	GapExp	Blank	0	39	2	0	1	target	1	548	726	48259	13.328	12.868	13.816
ProbeTrack13	13	ProbeTrack	13.2	SCS215b	20111107.093107	20111107.093515	8	0.013328	60	10	60-180	60	98	GapExp	Blank	0	40	2	1	0	distractor	1	420	790	49049	13.328	12.849	13.805
ProbeTrack13	13	ProbeTrack	13.2	SCS215b	20111107.093107	20111107.093521	8	0.013328	60	10	60-180	60	150	GapExp	Blank	0	41	2	0	0	distractor	1	533	734	49783	13.328	13.031	13.639
ProbeTrack13	13	ProbeTrack	13.2	SCS215b	20111107.093107	20111107.093527	8	0.013328	60	10	60-180	60	149	GapExp	Blank	0	42	2	1	0	distractor	1	628	686	50469	13.328	12.964	13.708
ProbeTrack13	13	ProbeTrack	13.2	SCS215b	20111107.093107	20111107.093534	8	0.013328	60	10	60-180	60	137	GapExp	Blank	0	43	2	45	0	distractor	1	676	662	51131	13.328	12.911	13.735
ProbeTrack13	13	ProbeTrack	13.2	SCS215b	20111107.093107	20111107.093541	8	0.013328	60	10	60-180	60	154	GapExp	Blank	0	44	2	0	1	target	1	572	714	51845	13.328	12.882	13.777
ProbeTrack13	13	ProbeTrack	13.2	SCS215b	20111107.093107	20111107.093548	8	0.013328	60	10	60-180	60	67	GapExp	Blank	0	45	2	45	0	distractor	1	497	752	52597	13.328	13.301	13.366
ProbeTrack13	13	ProbeTrack	13.2	SCS215b	20111107.093107	20111107.093554	8	0.013328	60	10	60-180	60	119	GapExp	Blank	0	46	2	3	1	target	1	486	757	53354	13.328	13.005	13.653
ProbeTrack13	13	ProbeTrack	13.2	SCS215b	20111107.093107	20111107.093600	8	0.013328	60	10	60-180	60	67	GapExp	Blank	0	47	2	0	0	distractor	1	601	700	54054	13.328	13.304	13.354
ProbeTrack13	13	ProbeTrack	13.2	SCS215b	20111107.093107	20111107.093605	8	0.013328	60	10	60-180	60	69	GapExp	Blank	0	48	2	1	0	distractor	1	450	775	54829	13.328	13.303	13.352
ProbeTrack13	13	ProbeTrack	13.2	SCS215b	20111107.093107	20111107.093610	8	0.013328	60	10	60-180	60	88	GapExp	Blank	0	49	2	3	1	target	1	423	789	55618	13.328	13.256	13.385
ProbeTrack13	13	ProbeTrack	13.2	SCS215b	20111107.093107	20111107.093616	8	0.013328	60	10	60-180	60	73	GapExp	Blank	0	50	2	3	0	distractor	1	503	749	56367	13.328	12.845	13.809
ProbeTrack13	13	ProbeTrack	13.2	SCS215b	20111107.093107	20111107.093621	8	0.013328	60	10	60-180	60	91	GapExp	Blank	0	51	2	0	0	target	0	515	-1000	55367	13.328	13.093	13.566
ProbeTrack13	13	ProbeTrack	13.2	SCS215b	20111107.093107	20111107.093627	8	0.013328	60	10	60-180	60	65	GapExp	Blank	0	52	2	0	0	distractor	1	426	787	56154	13.401	12.885	27.097
ProbeTrack13	13	ProbeTrack	13.2	SCS215b	20111107.093107	20111107.093632	8	0.013328	60	10	60-180	60	174	GapExp	Blank	0	53	2	1	1	target	1	733	634	56788	13.328	13.063	13.602
ProbeTrack13	13	ProbeTrack	13.2	SCS215b	20111107.093107	20111107.093639	8	0.013328	60	10	60-180	60	143	GapExp	Blank	0	54	2	0	1	target	1	423	789	57577	13.329	12.985	13.669
ProbeTrack13	13	ProbeTrack	13.2	SCS215b	20111107.093107	20111107.093645	8	0.013328	60	10	60-180	60	88	GapExp	Blank	0	55	2	1	0	distractor	1	538	731	58308	13.328	12.975	13.672
ProbeTrack13	13	ProbeTrack	13.2	SCS215b	20111107.093107	20111107.093651	8	0.013328	60	10	60-180	60	110	GapExp	Blank	0	56	2	45	0	distractor	1	587	707	59015	13.328	13.305	13.356
ProbeTrack13	13	ProbeTrack	13.2	SCS215b	20111107.093107	20111107.093658	8	0.013328	60	10	60-180	60	137	GapExp	Blank	0	57	2	3	0	target	0	1016	-1000	58015	13.328	13.035	13.612
ProbeTrack13	13	ProbeTrack	13.2	SCS215b	20111107.093107	20111107.093705	8	0.013328	60	10	60-180	60	64	GapExp	Blank	0	58	2	1	1	target	1	476	762	58777	13.328	12.998	13.665
ProbeTrack13	13	ProbeTrack	13.2	SCS215b	20111107.093107	20111107.093710	8	0.013328	60	10	60-180	60	175	GapExp	Blank	0	59	2	0	0	distractor	1	578	711	59488	13.328	12.940	13.713
ProbeTrack13	13	ProbeTrack	13.2	SCS215b	20111107.093107	20111107.093717	8	0.013328	60	10	60-180	60	101	GapExp	Blank	0	60	2	1	1	target	1	453	774	60262	13.328	12.977	13.682
ProbeTrack13	13	ProbeTrack	13.2	SCS215b	20111107.093107	20111107.093723	8	0.013328	60	10	60-180	60	90	GapExp	Blank	0	61	2	45	0	distractor	1	357	822	61084	13.328	13.109	13.554
ProbeTrack13	13	ProbeTrack	13.2	SCS215b	20111107.093107	20111107.093729	8	0.013328	60	10	60-180	60	77	GapExp	Blank	0	62	2	45	1	target	1	417	792	61876	13.328	12.995	13.660
ProbeTrack13	13	ProbeTrack	13.2	SCS215b	20111107.093107	20111107.093735	8	0.013328	60	10	60-180	60	83	GapExp	Blank	0	63	2	45	1	target	1	473	764	62640	13.327	12.993	13.661
ProbeTrack13	13	ProbeTrack	13.2	SCS215b	20111107.093107	20111107.093740	8	0.013328	60	10	60-180	60	72	GapExp	Blank	0	64	2	45	1	target	1	522	739	63379	13.328	13.301	13.367
ProbeTrack13	13	ProbeTrack	13.2	SCS215b	20111107.093107	20111107.093746	8	0.013328	60	10	60-180	60	81	GapExp	Blank	0	65	2	3	0	distractor	1	627	687	64066	13.328	12.893	13.759
ProbeTrack13	13	ProbeTrack	13.2	SCS215b	20111107.093107	20111107.093752	8	0.013328	60	10	60-180	60	114	GapExp	Blank	0	66	2	1	0	distractor	1	584	708	64774	13.328	12.862	13.789
ProbeTrack13	13	ProbeTrack	13.2	SCS215b	20111107.093107	20111107.093758	8	0.013328	60	10	60-180	60	136	GapExp	Blank	0	67	2	45	1	distractor	0	387	-1000	63774	13.328	12.912	13.756
ProbeTrack13	13	ProbeTrack	13.2	SCS215b	20111107.093107	20111107.093805	8	0.013328	60	10	60-180	60	80	GapExp	Blank	0	68	2	45	1	target	1	334	833	64607	13.328	13.014	13.638
ProbeTrack13	13	ProbeTrack	13.2	SCS215b	20111107.093107	20111107.093810	8	0.013328	60	10	60-180	60	78	GapExp	Blank	0	69	2	1	0	distractor	1	458	771	65378	13.328	12.837	13.800
ProbeTrack13	13	ProbeTrack	13.2	SCS215b	20111107.093107	20111107.093816	8	0.013328	60	10	60-180	60	132	GapExp	Blank	0	70	2	45	0	distractor	1	632	684	66062	13.328	12.861	13.807
ProbeTrack13	13	ProbeTrack	13.2	SCS215b	20111107.093107	20111107.093822	8	0.013328	60	10	60-180	60	146	GapExp	Blank	0	71	2	0	0	distractor	1	733	634	66696	13.328	12.939	13.747
ProbeTrack13	13	ProbeTrack	13.2	SCS215b	20111107.093107	20111107.093829	8	0.013328	60	10	60-180	60	95	GapExp	Blank	0	72	2	45	0	target	0	444	-1000	65696	13.328	12.922	13.787
ProbeTrack13	13	ProbeTrack	13.2	SCS215b	20111107.093107	20111107.093835	8	0.013328	60	10	60-180	60	123	GapExp	Blank	0	73	2	0	0	distractor	1	712	644	66340	13.328	13.112	13.551
ProbeTrack13	13	ProbeTrack	13.2	SCS215b	20111107.093107	20111107.093842	8	0.013328	60	10	60-180	60	114	GapExp	Blank	0	74	2	0	0	distractor	1	618	691	67031	13.328	12.919	13.769
ProbeTrack13	13	ProbeTrack	13.2	SCS215b	20111107.093107	20111107.093848	8	0.013328	60	10	60-180	60	70	GapExp	Blank	0	75	2	0	0	distractor	1	596	702	67733	13.328	12.922	13.738
ProbeTrack13	13	ProbeTrack	13.2	SCS215b	20111107.093107	20111107.093853	8	0.013328	60	10	60-180	60	157	GapExp	Blank	0	76	2	45	1	distractor	0	719	-1000	66733	13.328	13.113	13.549
ProbeTrack13	13	ProbeTrack	13.2	SCS215b	20111107.093107	20111107.093901	8	0.013328	60	10	60-180	60	155	GapExp	Blank	0	77	2	45	1	target	1	534	733	67466	13.328	12.885	13.770
ProbeTrack13	13	ProbeTrack	13.2	SCS215b	20111107.093107	20111107.093908	8	0.013328	60	10	60-180	60	175	GapExp	Blank	0	78	2	0	1	target	1	536	732	68198	13.328	13.096	13.564
ProbeTrack13	13	ProbeTrack	13.2	SCS215b	20111107.093107	20111107.093915	8	0.013328	60	10	60-180	60	128	GapExp	Blank	0	79	2	45	0	target	0	664	-1000	67198	13.328	13.093	13.575
ProbeTrack13	13	ProbeTrack	13.2	SCS215b	20111107.093107	20111107.093922	8	0.013328	60	10	60-180	60	151	GapExp	Blank	0	80	2	45	1	distractor	0	538	-1000	66198	13.328	12.868	13.780
ProbeTrack13	13	ProbeTrack	13.2	SCS215b	20111107.093107	20111107.093929	8	0.013328	60	10	60-180	60	133	GapExp	Blank	0	81	2	1	1	target	1	439	781	66979	13.328	13.130	13.535
ProbeTrack13	13	ProbeTrack	13.2	SCS215b	20111107.093107	20111107.093936	8	0.013328	60	10	60-180	60	147	GapExp	Blank	0	82	2	45	0	distractor	1	460	770	67749	13.328	13.002	13.643
ProbeTrack13	13	ProbeTrack	13.2	SCS215b	20111107.093107	20111107.093943	8	0.013328	60	10	60-180	60	179	GapExp	Blank	0	83	2	1	1	target	1	573	714	68463	13.328	13.089	13.571
ProbeTrack13	13	ProbeTrack	13.2	SCS215b	20111107.093107	20111107.093950	8	0.013328	60	10	60-180	60	149	GapExp	Blank	0	84	2	1	1	target	1	483	759	69222	13.328	12.830	13.819
ProbeTrack13	13	ProbeTrack	13.2	SCS215b	20111107.093107	20111107.093956	8	0.013328	60	10	60-180	60	91	GapExp	Blank	0	85	2	1	1	target	1	407	797	70019	13.328	13.306	13.357
ProbeTrack13	13	ProbeTrack	13.2	SCS215b	20111107.093107	20111107.094002	8	0.013328	60	10	60-180	60	67	GapExp	Blank	0	86	2	0	0	distractor	1	638	681	70700	13.328	12.824	13.840
ProbeTrack13	13	ProbeTrack	13.2	SCS215b	20111107.093107	20111107.094007	8	0.013328	60	10	60-180	60	140	GapExp	Blank	0	87	2	1	0	distractor	1	524	738	71438	13.328	12.866	13.788
ProbeTrack13	13	ProbeTrack	13.2	SCS215b	20111107.093107	20111107.094014	8	0.013328	60	10	60-180	60	157	GapExp	Blank	0	88	2	0	0	distractor	1	612	694	72132	13.328	13.303	13.354
ProbeTrack13	13	ProbeTrack	13.2	SCS215b	20111107.093107	20111107.094021	8	0.013328	60	10	60-180	60	85	GapExp	Blank	0	89	2	3	1	target	1	604	698	72830	13.328	12.864	13.784
ProbeTrack13	13	ProbeTrack	13.2	SCS215b	20111107.093107	20111107.094027	8	0.013328	60	10	60-180	60	165	GapExp	Blank	0	90	2	0	0	distractor	1	666	667	73497	13.328	12.885	13.768
ProbeTrack13	13	ProbeTrack	13.2	SCS215b	20111107.093107	20111107.094034	8	0.013328	60	10	60-180	60	100	GapExp	Blank	0	91	2	45	0	distractor	1	423	789	74286	13.328	13.095	13.575
ProbeTrack13	13	ProbeTrack	13.2	SCS215b	20111107.093107	20111107.094040	8	0.013328	60	10	60-180	60	174	GapExp	Blank	0	92	2	1	0	distractor	1	451	775	75061	13.328	13.014	13.658
ProbeTrack13	13	ProbeTrack	13.2	SCS215b	20111107.093107	20111107.094047	8	0.013328	60	10	60-180	60	97	GapExp	Blank	0	93	2	3	1	distractor	0	632	-1000	74061	13.328	13.086	13.564
ProbeTrack13	13	ProbeTrack	13.2	SCS215b	20111107.093107	20111107.094052	8	0.013328	60	10	60-180	60	105	GapExp	Blank	0	94	2	45	0	distractor	1	428	786	74847	13.328	12.835	13.833
ProbeTrack13	13	ProbeTrack	13.2	SCS215b	20111107.093107	20111107.094059	8	0.013328	60	10	60-180	60	86	GapExp	Blank	0	95	2	3	1	distractor	0	754	-1000	73847	13.328	13.267	13.385
ProbeTrack13	13	ProbeTrack	13.2	SCS215b	20111107.093107	20111107.094104	8	0.013328	60	10	60-180	60	89	GapExp	Blank	0	96	2	3	1	distractor	0	445	-1000	72847	13.328	12.868	13.778
ProbeTrack13	13	ProbeTrack	13.2	SCS215b	20111107.093107	20111107.094111	8	0.013328	60	10	60-180	60	75	GapExp	Blank	0	97	2	1	0	target	0	663	-1000	71847	13.391	12.833	26.648
ProbeTrack13	13	ProbeTrack	13.2	SCS215b	20111107.093107	20111107.094116	8	0.013328	60	10	60-180	60	91	GapExp	Blank	0	98	2	3	0	distractor	1	439	781	72628	13.328	13.102	13.548
ProbeTrack13	13	ProbeTrack	13.2	SCS215b	20111107.093107	20111107.094122	8	0.013328	60	10	60-180	60	145	GapExp	Blank	0	99	2	45	0	distractor	1	538	731	73359	13.328	12.861	13.794
ProbeTrack13	13	ProbeTrack	13.2	SCS215b	20111107.093107	20111107.094129	8	0.013328	60	10	60-180	60	122	GapExp	Blank	0	100	2	0	1	target	1	680	660	74019	13.326	12.873	13.584
ProbeTrack13	13	ProbeTrack	13.2	SCS215b	20111107.093107	20111107.094135	8	0.013328	60	10	60-180	60	94	GapExp	Blank	0	101	2	1	1	distractor	0	518	-1000	73019	13.328	13.287	13.362
ProbeTrack13	13	ProbeTrack	13.2	SCS215b	20111107.093107	20111107.094140	8	0.013328	60	10	60-180	60	150	GapExp	Blank	0	102	2	45	0	distractor	1	606	697	73716	13.328	12.857	13.811
ProbeTrack13	13	ProbeTrack	13.2	SCS215b	20111107.093107	20111107.094148	8	0.013328	60	10	60-180	60	100	GapExp	Blank	0	103	2	1	0	target	0	390	-1000	72716	13.328	12.835	13.822
ProbeTrack13	13	ProbeTrack	13.2	SCS215b	20111107.093107	20111107.094154	8	0.013328	60	10	60-180	60	93	GapExp	Blank	0	104	2	0	1	target	1	527	737	73453	13.328	12.835	13.827
ProbeTrack13	13	ProbeTrack	13.2	SCS215b	20111107.093107	20111107.094159	8	0.013328	60	10	60-180	60	90	GapExp	Blank	0	105	2	1	1	target	1	503	749	74202	13.328	13.103	13.550
ProbeTrack13	13	ProbeTrack	13.2	SCS215b	20111107.093107	20111107.094205	8	0.013328	60	10	60-180	60	169	GapExp	Blank	0	106	2	1	0	distractor	1	490	755	74957	13.328	13.092	13.576
ProbeTrack13	13	ProbeTrack	13.2	SCS215b	20111107.093107	20111107.094211	8	0.013328	60	10	60-180	60	153	GapExp	Blank	0	107	2	3	1	target	1	579	711	75668	13.328	13.094	13.558
ProbeTrack13	13	ProbeTrack	13.2	SCS215b	20111107.093107	20111107.094217	8	0.013328	60	10	60-180	60	100	GapExp	Blank	0	108	2	3	0	distractor	1	667	667	76335	13.328	12.951	13.718
ProbeTrack13	13	ProbeTrack	13.2	SCS215b	20111107.093107	20111107.094224	8	0.013328	60	10	60-180	60	149	GapExp	Blank	0	109	2	1	1	target	1	512	744	77079	13.328	13.046	13.632
ProbeTrack13	13	ProbeTrack	13.2	SCS215b	20111107.093107	20111107.094230	8	0.013328	60	10	60-180	60	106	GapExp	Blank	0	110	2	0	1	target	1	493	754	77833	13.328	12.900	13.749
ProbeTrack13	13	ProbeTrack	13.2	SCS215b	20111107.093107	20111107.094236	8	0.013328	60	10	60-180	60	98	GapExp	Blank	0	111	2	45	0	distractor	1	444	778	78611	13.328	12.841	13.821
ProbeTrack13	13	ProbeTrack	13.2	SCS215b	20111107.093107	20111107.094242	8	0.013328	60	10	60-180	60	179	GapExp	Blank	0	112	2	3	1	target	1	517	742	79353	13.328	12.967	13.695
ProbeTrack13	13	ProbeTrack	13.2	SCS215b	20111107.093107	20111107.094248	8	0.013328	60	10	60-180	60	132	GapExp	Blank	0	113	2	3	0	target	0	578	-1000	78353	13.328	13.101	13.567
ProbeTrack13	13	ProbeTrack	13.2	SCS215b	20111107.093107	20111107.094255	8	0.013328	60	10	60-180	60	117	GapExp	Blank	0	114	2	1	1	target	1	558	721	79074	13.328	12.861	13.820
ProbeTrack13	13	ProbeTrack	13.2	SCS215b	20111107.093107	20111107.094301	8	0.013328	60	10	60-180	60	121	GapExp	Blank	0	115	2	3	0	distractor	1	619	691	79765	13.328	12.904	13.753
ProbeTrack13	13	ProbeTrack	13.2	SCS215b	20111107.093107	20111107.094307	8	0.013328	60	10	60-180	60	145	GapExp	Blank	0	116	2	0	0	target	0	604	-1000	78765	13.328	13.094	13.574
ProbeTrack13	13	ProbeTrack	13.2	SCS215b	20111107.093107	20111107.094313	8	0.013328	60	10	60-180	60	174	GapExp	Blank	0	117	2	0	0	distractor	1	596	702	79467	13.328	12.824	13.838
ProbeTrack13	13	ProbeTrack	13.2	SCS215b	20111107.093107	20111107.094320	8	0.013328	60	10	60-180	60	144	GapExp	Blank	0	118	2	45	0	distractor	1	496	752	80219	13.328	12.846	13.793
ProbeTrack13	13	ProbeTrack	13.2	SCS215b	20111107.093107	20111107.094327	8	0.013328	60	10	60-180	60	76	GapExp	Blank	0	119	2	3	1	target	1	413	794	81013	13.328	13.303	13.351
ProbeTrack13	13	ProbeTrack	13.2	SCS215b	20111107.093107	20111107.094332	8	0.013328	60	10	60-180	60	102	GapExp	Blank	0	120	2	1	1	target	1	379	811	81824	13.328	13.162	13.490
ProbeTrack13	13	ProbeTrack	13.2	SCS215b	20111107.093107	20111107.094337	8	0.013328	60	10	60-180	60	91	GapExp	Blank	0	121	2	3	0	distractor	1	515	743	82567	13.328	12.852	13.820
ProbeTrack13	13	ProbeTrack	13.2	SCS215b	20111107.093107	20111107.094343	8	0.013328	60	10	60-180	60	121	GapExp	Blank	0	122	2	0	0	distractor	1	673	664	83231	13.328	13.094	13.561
ProbeTrack13	13	ProbeTrack	13.2	SCS215b	20111107.093107	20111107.094349	8	0.013328	60	10	60-180	60	78	GapExp	Blank	0	123	2	45	1	target	1	568	716	83947	13.328	13.088	13.575
ProbeTrack13	13	ProbeTrack	13.2	SCS215b	20111107.093107	20111107.094355	8	0.013328	60	10	60-180	60	77	GapExp	Blank	0	124	2	1	0	distractor	1	627	687	84634	13.328	12.923	13.720
ProbeTrack13	13	ProbeTrack	13.2	SCS215b	20111107.093107	20111107.094401	8	0.013328	60	10	60-180	60	179	GapExp	Blank	0	125	2	0	1	target	1	483	759	85393	13.328	12.982	13.667
ProbeTrack13	13	ProbeTrack	13.2	SCS215b	20111107.093107	20111107.094407	8	0.013328	60	10	60-180	60	115	GapExp	Blank	0	126	2	0	0	distractor	1	616	692	86085	13.328	13.213	13.449
ProbeTrack13	13	ProbeTrack	13.2	SCS215b	20111107.093107	20111107.094413	8	0.013328	60	10	60-180	60	100	GapExp	Blank	0	127	2	1	0	target	0	842	-1000	85085	13.328	12.980	13.672
ProbeTrack13	13	ProbeTrack	13.2	SCS215b	20111107.093107	20111107.094419	8	0.013328	60	10	60-180	60	70	GapExp	Blank	0	128	2	0	1	target	1	649	676	85761	13.328	12.963	13.688
ProbeTrack13	13	ProbeTrack	13.2	SCS215b	20111107.093107	20111107.094424	8	0.013328	60	10	60-180	60	75	GapExp	Blank	0	129	2	3	1	target	1	406	797	86558	13.328	13.099	13.548
ProbeTrack13	13	ProbeTrack	13.2	SCS215b	20111107.093107	20111107.094430	8	0.013328	60	10	60-180	60	121	GapExp	Blank	0	130	2	3	1	target	1	462	769	87327	13.328	13.306	13.353
ProbeTrack13	13	ProbeTrack	13.2	SCS215b	20111107.093107	20111107.094436	8	0.013328	60	10	60-180	60	171	GapExp	Blank	0	131	2	0	1	target	1	383	809	88136	13.328	13.305	13.359
ProbeTrack13	13	ProbeTrack	13.2	SCS215b	20111107.093107	20111107.094443	8	0.013328	60	10	60-180	60	138	GapExp	Blank	0	132	2	1	1	target	1	593	704	88840	13.328	12.881	13.778
ProbeTrack13	13	ProbeTrack	13.2	SCS215b	20111107.093107	20111107.094449	8	0.013328	60	10	60-180	60	102	GapExp	Blank	0	133	2	3	1	target	1	394	803	89643	13.328	13.059	13.591
ProbeTrack13	13	ProbeTrack	13.2	SCS215b	20111107.093107	20111107.094455	8	0.013328	60	10	60-180	60	89	GapExp	Blank	0	134	2	1	0	distractor	1	516	742	90385	13.328	12.874	13.795
ProbeTrack13	13	ProbeTrack	13.2	SCS215b	20111107.093107	20111107.094500	8	0.013328	60	10	60-180	60	69	GapExp	Blank	0	135	2	45	1	distractor	0	330	-1000	89385	13.328	13.095	13.560
ProbeTrack13	13	ProbeTrack	13.2	SCS215b	20111107.093107	20111107.094506	8	0.013328	60	10	60-180	60	76	GapExp	Blank	0	136	2	1	1	target	1	421	790	90175	13.328	12.866	13.785
ProbeTrack13	13	ProbeTrack	13.2	SCS215b	20111107.093107	20111107.094511	8	0.013328	60	10	60-180	60	90	GapExp	Blank	0	137	2	3	0	distractor	1	523	739	90914	13.328	12.956	13.690
ProbeTrack13	13	ProbeTrack	13.2	SCS215b	20111107.093107	20111107.094517	8	0.013328	60	10	60-180	60	156	GapExp	Blank	0	138	2	45	1	distractor	0	371	-1000	89914	13.328	13.037	13.612
ProbeTrack13	13	ProbeTrack	13.2	SCS215b	20111107.093107	20111107.094524	8	0.013328	60	10	60-180	60	134	GapExp	Blank	0	139	2	45	0	distractor	1	602	699	90613	13.328	13.133	13.505
ProbeTrack13	13	ProbeTrack	13.2	SCS215b	20111107.093107	20111107.094531	8	0.013328	60	10	60-180	60	179	GapExp	Blank	0	140	2	1	1	distractor	0	720	-1000	89613	13.328	12.849	13.819
ProbeTrack13	13	ProbeTrack	13.2	SCS215b	20111107.093107	20111107.094538	8	0.013328	60	10	60-180	60	158	GapExp	Blank	0	141	2	1	1	target	1	554	723	90336	13.328	13.266	13.404
ProbeTrack13	13	ProbeTrack	13.2	SCS215b	20111107.093107	20111107.094546	8	0.013328	60	10	60-180	60	127	GapExp	Blank	0	142	2	0	1	target	1	385	808	91144	13.328	13.003	13.665
ProbeTrack13	13	ProbeTrack	13.2	SCS215b	20111107.093107	20111107.094552	8	0.013328	60	10	60-180	60	140	GapExp	Blank	0	143	2	0	0	distractor	1	497	752	91896	13.328	13.254	13.405
ProbeTrack13	13	ProbeTrack	13.2	SCS215b	20111107.093107	20111107.094558	8	0.013328	60	10	60-180	60	140	GapExp	Blank	0	144	2	3	1	target	1	737	632	92528	13.328	12.845	13.804
ProbeTrack13	13	ProbeTrack	13.2	SCS215b	20111107.093107	20111107.094605	8	0.013328	60	10	60-180	60	130	GapExp	Blank	0	145	2	3	0	distractor	1	543	729	93257	13.328	12.827	13.824
ProbeTrack13	13	ProbeTrack	13.2	SCS215b	20111107.093107	20111107.094611	8	0.013328	60	10	60-180	60	133	GapExp	Blank	0	146	2	45	1	distractor	0	262	-1000	92257	13.328	13.076	13.571
ProbeTrack13	13	ProbeTrack	13.2	SCS215b	20111107.093107	20111107.094618	8	0.013328	60	10	60-180	60	175	GapExp	Blank	0	147	2	0	0	distractor	1	429	786	93043	13.328	12.834	13.825
ProbeTrack13	13	ProbeTrack	13.2	SCS215b	20111107.093107	20111107.094624	8	0.013328	60	10	60-180	60	66	GapExp	Blank	0	148	2	3	1	target	1	426	787	93830	13.328	12.864	13.787
ProbeTrack13	13	ProbeTrack	13.2	SCS215b	20111107.093107	20111107.094629	8	0.013328	60	10	60-180	60	82	GapExp	Blank	0	149	2	0	1	target	1	516	742	94572	13.328	13.294	13.364
ProbeTrack13	13	ProbeTrack	13.2	SCS215b	20111107.093107	20111107.094635	8	0.013328	60	10	60-180	60	111	GapExp	Blank	0	150	2	45	0	distractor	1	329	836	95408	13.328	12.946	13.716
ProbeTrack13	13	ProbeTrack	13.2	SCS215b	20111107.093107	20111107.094641	8	0.013328	60	10	60-180	60	65	GapExp	Blank	0	151	2	3	0	distractor	1	556	722	96130	13.327	13.136	13.356
ProbeTrack13	13	ProbeTrack	13.2	SCS215b	20111107.093107	20111107.094646	8	0.013328	60	10	60-180	60	167	GapExp	Blank	0	152	2	0	1	target	1	382	809	96939	13.328	13.093	13.565
ProbeTrack13	13	ProbeTrack	13.2	SCS215b	20111107.093107	20111107.094653	8	0.013328	60	10	60-180	60	89	GapExp	Blank	0	153	2	1	1	target	1	452	774	97713	13.328	13.095	13.554
ProbeTrack13	13	ProbeTrack	13.2	SCS215b	20111107.093107	20111107.094658	8	0.013328	60	10	60-180	60	82	GapExp	Blank	0	154	2	45	0	distractor	1	499	751	98464	13.326	12.953	13.354
ProbeTrack13	13	ProbeTrack	13.2	SCS215b	20111107.093107	20111107.094704	8	0.013328	60	10	60-180	60	84	GapExp	Blank	0	155	2	3	0	distractor	1	483	759	99223	13.328	12.944	13.755
ProbeTrack13	13	ProbeTrack	13.2	SCS215b	20111107.093107	20111107.094710	8	0.013328	60	10	60-180	60	100	GapExp	Blank	0	156	2	45	1	target	1	579	711	99934	13.328	13.302	13.356
ProbeTrack13	13	ProbeTrack	13.2	SCS215b	20111107.093107	20111107.094716	8	0.013328	60	10	60-180	60	69	GapExp	Blank	0	157	2	0	1	distractor	0	516	-1000	98934	13.328	12.854	13.812
ProbeTrack13	13	ProbeTrack	13.2	SCS215b	20111107.093107	20111107.094722	8	0.013328	60	10	60-180	60	65	GapExp	Blank	0	158	2	0	0	distractor	1	655	673	99607	13.328	13.048	13.606
ProbeTrack13	13	ProbeTrack	13.2	SCS215b	20111107.093107	20111107.094727	8	0.013328	60	10	60-180	60	139	GapExp	Blank	0	159	2	45	1	target	1	349	826	100433	13.328	13.100	13.570
ProbeTrack13	13	ProbeTrack	13.2	SCS215b	20111107.093107	20111107.094734	8	0.013328	60	10	60-180	60	88	GapExp	Blank	0	160	2	0	0	distractor	1	550	725	101158	13.328	13.300	13.358
ProbeTrack13	13	ProbeTrack	13.2	SCS215b	20111107.093107	20111107.094740	8	0.013328	60	10	60-180	60	153	GapExp	Blank	0	161	2	1	0	distractor	1	590	705	101863	13.328	13.098	13.559
ProbeTrack13	13	ProbeTrack	13.2	SCS215b	20111107.093107	20111107.094746	8	0.013328	60	10	60-180	60	113	GapExp	Blank	0	162	2	0	1	target	1	426	787	102650	13.328	13.283	13.390
ProbeTrack13	13	ProbeTrack	13.2	SCS215b	20111107.093107	20111107.094752	8	0.013328	60	10	60-180	60	169	GapExp	Blank	0	163	2	1	0	distractor	1	611	695	103345	13.328	13.240	13.417
ProbeTrack13	13	ProbeTrack	13.2	SCS215b	20111107.093107	20111107.094759	8	0.013328	60	10	60-180	60	156	GapExp	Blank	0	164	2	1	0	distractor	1	630	685	104030	13.328	13.303	13.353
ProbeTrack13	13	ProbeTrack	13.2	SCS215b	20111107.093107	20111107.094806	8	0.013328	60	10	60-180	60	75	GapExp	Blank	0	165	2	1	1	distractor	0	509	-1000	103030	13.328	13.149	13.524
ProbeTrack13	13	ProbeTrack	13.2	SCS215b	20111107.093107	20111107.094811	8	0.013328	60	10	60-180	60	131	GapExp	Blank	0	166	2	1	0	distractor	1	626	687	103717	13.328	12.862	13.786
ProbeTrack13	13	ProbeTrack	13.2	SCS215b	20111107.093107	20111107.094817	8	0.013328	60	10	60-180	60	83	GapExp	Blank	0	167	2	45	1	target	1	597	702	104419	13.328	12.830	13.830
ProbeTrack13	13	ProbeTrack	13.2	SCS215b	20111107.093107	20111107.094823	8	0.013328	60	10	60-180	60	160	GapExp	Blank	0	168	2	1	0	distractor	1	597	702	105121	13.328	12.870	13.803
ProbeTrack13	13	ProbeTrack	13.2	SCS215b	20111107.093107	20111107.094830	8	0.013328	60	10	60-180	60	163	GapExp	Blank	0	169	2	0	1	target	1	363	819	105940	13.328	12.866	13.786
ProbeTrack13	13	ProbeTrack	13.2	SCS215b	20111107.093107	20111107.094836	8	0.013328	60	10	60-180	60	172	GapExp	Blank	0	170	2	3	0	target	0	459	-1000	104940	13.328	13.001	13.634
ProbeTrack13	13	ProbeTrack	13.2	SCS215b	20111107.093107	20111107.094843	8	0.013328	60	10	60-180	60	116	GapExp	Blank	0	171	2	3	1	target	1	702	649	105589	13.328	13.304	13.350
ProbeTrack13	13	ProbeTrack	13.2	SCS215b	20111107.093107	20111107.094850	8	0.013328	60	10	60-180	60	168	GapExp	Blank	0	172	2	1	1	target	1	625	688	106277	13.328	12.874	13.781
ProbeTrack13	13	ProbeTrack	13.2	SCS215b	20111107.093107	20111107.094856	8	0.013328	60	10	60-180	60	162	GapExp	Blank	0	173	2	45	0	target	0	456	-1000	105277	13.328	12.844	13.807
ProbeTrack13	13	ProbeTrack	13.2	SCS215b	20111107.093107	20111107.094904	8	0.013328	60	10	60-180	60	155	GapExp	Blank	0	174	2	1	0	distractor	1	547	727	106004	13.328	12.911	13.757
ProbeTrack13	13	ProbeTrack	13.2	SCS215b	20111107.093107	20111107.094911	8	0.013328	60	10	60-180	60	107	GapExp	Blank	0	175	2	0	0	distractor	1	729	636	106640	13.328	12.879	13.777
ProbeTrack13	13	ProbeTrack	13.2	SCS215b	20111107.093107	20111107.094917	8	0.013328	60	10	60-180	60	125	GapExp	Blank	0	176	2	3	0	distractor	1	710	645	107285	13.328	12.918	13.744
ProbeTrack13	13	ProbeTrack	13.2	SCS215b	20111107.093107	20111107.094923	8	0.013328	60	10	60-180	60	86	GapExp	Blank	0	177	2	45	0	distractor	1	427	787	108072	13.328	13.298	13.354
ProbeTrack13	13	ProbeTrack	13.2	SCS215b	20111107.093107	20111107.094929	8	0.013328	60	10	60-180	60	92	GapExp	Blank	0	178	2	1	1	target	1	502	749	108821	13.328	12.949	13.706
ProbeTrack13	13	ProbeTrack	13.2	SCS215b	20111107.093107	20111107.094935	8	0.013328	60	10	60-180	60	84	GapExp	Blank	0	179	2	45	0	distractor	1	475	763	109584	13.328	12.946	13.721
ProbeTrack13	13	ProbeTrack	13.2	SCS215b	20111107.093107	20111107.094940	8	0.013328	60	10	60-180	60	136	GapExp	Blank	0	180	2	1	1	target	1	497	752	110336	13.328	13.021	13.632
ProbeTrack13	13	ProbeTrack	13.2	SCS215b	20111107.093107	20111107.094946	8	0.013328	60	10	60-180	60	72	GapExp	Blank	0	181	2	45	0	distractor	1	347	827	111163	13.328	13.077	13.580
ProbeTrack13	13	ProbeTrack	13.2	SCS215b	20111107.093107	20111107.094952	8	0.013328	60	10	60-180	60	175	GapExp	Blank	0	182	2	3	1	distractor	0	539	-1000	110163	13.328	12.911	13.747
ProbeTrack13	13	ProbeTrack	13.2	SCS215b	20111107.093107	20111107.094959	8	0.013328	60	10	60-180	60	137	GapExp	Blank	0	183	2	45	1	target	1	519	741	110904	13.328	12.959	13.703
ProbeTrack13	13	ProbeTrack	13.2	SCS215b	20111107.093107	20111107.095006	8	0.013328	60	10	60-180	60	167	GapExp	Blank	0	184	2	1	0	distractor	1	794	603	111507	13.328	13.096	13.563
ProbeTrack13	13	ProbeTrack	13.2	SCS215b	20111107.093107	20111107.095013	8	0.013328	60	10	60-180	60	165	GapExp	Blank	0	185	2	3	1	target	1	401	800	112307	13.328	13.304	13.362
ProbeTrack13	13	ProbeTrack	13.2	SCS215b	20111107.093107	20111107.095019	8	0.013328	60	10	60-180	60	167	GapExp	Blank	0	186	2	45	1	target	1	442	779	113086	13.328	12.841	13.812
ProbeTrack13	13	ProbeTrack	13.2	SCS215b	20111107.093107	20111107.095026	8	0.013328	60	10	60-180	60	152	GapExp	Blank	0	187	2	3	0	distractor	1	535	733	113819	13.328	13.061	13.599
ProbeTrack13	13	ProbeTrack	13.2	SCS215b	20111107.093107	20111107.095032	8	0.013328	60	10	60-180	60	119	GapExp	Blank	0	188	2	45	0	distractor	1	574	713	114532	13.328	12.862	13.789
ProbeTrack13	13	ProbeTrack	13.2	SCS215b	20111107.093107	20111107.095039	8	0.013328	60	10	60-180	60	161	GapExp	Blank	0	189	2	0	0	distractor	1	755	623	115155	13.328	12.966	13.688
ProbeTrack13	13	ProbeTrack	13.2	SCS215b	20111107.093107	20111107.095046	8	0.013328	60	10	60-180	60	88	GapExp	Blank	0	190	2	3	1	target	1	467	767	115922	13.328	13.031	13.607
ProbeTrack13	13	ProbeTrack	13.2	SCS215b	20111107.093107	20111107.095051	8	0.013328	60	10	60-180	60	170	GapExp	Blank	0	191	2	45	1	target	1	405	798	116720	13.328	12.948	13.703
ProbeTrack13	13	ProbeTrack	13.2	SCS215b	20111107.093107	20111107.095058	8	0.013328	60	10	60-180	60	75	GapExp	Blank	0	192	2	45	1	distractor	0	483	-1000	115720	13.328	12.908	13.673
ProbeTrack13	13	ProbeTrack	13.2	SCS215b	20111107.093107	20111107.095104	8	0.013328	60	10	60-180	60	137	GapExp	Blank	0	193	2	0	1	target	1	561	720	116440	13.328	12.999	13.670
ProbeTrack13	13	ProbeTrack	13.2	SCS215b	20111107.093107	20111107.095110	8	0.013328	60	10	60-180	60	73	GapExp	Blank	0	194	2	3	1	target	1	2665	0	116440	13.328	13.022	13.628
ProbeTrack13	13	ProbeTrack	13.2	SCS215b	20111107.093107	20111107.095118	8	0.013328	60	10	60-180	60	126	GapExp	Blank	0	195	2	45	1	distractor	0	305	-1000	115440	13.328	12.895	13.770
ProbeTrack13	13	ProbeTrack	13.2	SCS215b	20111107.093107	20111107.095207	8	0.013328	60	10	60-180	60	101	GapExp	Blank	0	196	2	1	1	target	1	506	747	116187	13.328	12.860	13.808
ProbeTrack13	13	ProbeTrack	13.2	SCS215b	20111107.093107	20111107.095213	8	0.013328	60	10	60-180	60	106	GapExp	Blank	0	197	2	1	0	distractor	1	550	725	116912	13.328	12.876	13.764
ProbeTrack13	13	ProbeTrack	13.2	SCS215b	20111107.093107	20111107.095219	8	0.013328	60	10	60-180	60	121	GapExp	Blank	0	198	2	0	0	distractor	1	515	743	117655	13.328	12.901	13.757
ProbeTrack13	13	ProbeTrack	13.2	SCS215b	20111107.093107	20111107.095225	8	0.013328	60	10	60-180	60	94	GapExp	Blank	0	199	2	45	0	distractor	1	370	815	118470	13.328	12.915	13.747
ProbeTrack13	13	ProbeTrack	13.2	SCS215b	20111107.093107	20111107.095231	8	0.013328	60	10	60-180	60	90	GapExp	Blank	0	200	2	45	1	target	1	336	832	119302	13.328	12.845	13.818
ProbeTrack13	13	ProbeTrack	13.2	SCS215b	20111107.095304	20111107.095308	8	0.013328	60	10	60-180	60	80	GapPrac	BigFlash	1	1	2	3	1	target	1	648	676	119978	13.389	12.865	13.803
ProbeTrack13	13	ProbeTrack	13.2	SCS215b	20111107.095304	20111107.095316	8	0.013328	60	10	60-180	60	124	GapPrac	BigFlash	1	2	2	1	1	target	1	538	731	120709	13.328	12.931	13.709
ProbeTrack13	13	ProbeTrack	13.2	SCS215b	20111107.095304	20111107.095322	8	0.013328	60	10	60-180	60	105	GapPrac	BigFlash	1	3	2	45	0	distractor	1	476	762	121471	13.328	13.031	13.630
ProbeTrack13	13	ProbeTrack	13.2	SCS215b	20111107.095304	20111107.095328	8	0.013328	60	10	60-180	60	153	GapPrac	BigFlash	1	4	2	0	0	target	0	461	-1000	120471	13.328	12.938	13.728
ProbeTrack13	13	ProbeTrack	13.2	SCS215b	20111107.095304	20111107.095335	8	0.013328	60	10	60-180	60	165	GapPrac	BigFlash	1	5	2	1	1	target	1	641	680	121151	13.328	13.181	13.460
ProbeTrack13	13	ProbeTrack	13.2	SCS215b	20111107.095304	20111107.095342	8	0.013328	60	10	60-180	60	85	GapPrac	BigFlash	1	6	2	1	0	distractor	1	575	713	121864	13.328	12.984	13.683
ProbeTrack13	13	ProbeTrack	13.2	SCS215b	20111107.095304	20111107.095348	8	0.013328	60	10	60-180	60	155	GapPrac	BigFlash	1	7	2	0	1	target	1	402	799	122663	13.328	13.041	13.621
ProbeTrack13	13	ProbeTrack	13.2	SCS215b	20111107.095304	20111107.095354	8	0.013328	60	10	60-180	60	74	GapPrac	BigFlash	1	8	2	3	0	distractor	1	606	697	123360	13.328	12.938	13.727
ProbeTrack13	13	ProbeTrack	13.2	SCS215b	20111107.095304	20111107.095400	8	0.013328	60	10	60-180	60	79	GapPrac	BigFlash	1	9	2	1	1	target	1	518	741	124101	13.328	13.302	13.353
ProbeTrack13	13	ProbeTrack	13.2	SCS215b	20111107.095304	20111107.095405	8	0.013328	60	10	60-180	60	143	GapPrac	BigFlash	1	10	2	45	1	target	1	332	834	124935	13.328	12.926	13.731
ProbeTrack13	13	ProbeTrack	13.2	SCS215b	20111107.095304	20111107.095412	8	0.013328	60	10	60-180	60	129	GapPrac	BigFlash	1	11	2	45	1	target	1	298	851	125786	13.328	13.090	13.567
ProbeTrack13	13	ProbeTrack	13.2	SCS215b	20111107.095304	20111107.095419	8	0.013328	60	10	60-180	60	167	GapPrac	BigFlash	1	12	2	0	0	distractor	1	535	733	126519	13.328	13.101	13.553
ProbeTrack13	13	ProbeTrack	13.2	SCS215b	20111107.095304	20111107.095425	8	0.013328	60	10	60-180	60	97	GapPrac	BigFlash	1	13	2	1	0	target	0	471	-1000	125519	13.328	12.851	13.797
ProbeTrack13	13	ProbeTrack	13.2	SCS215b	20111107.095304	20111107.095431	8	0.013328	60	10	60-180	60	66	GapPrac	BigFlash	1	14	2	3	1	target	1	431	785	126304	13.328	12.926	13.754
ProbeTrack13	13	ProbeTrack	13.2	SCS215b	20111107.095304	20111107.095436	8	0.013328	60	10	60-180	60	113	GapPrac	BigFlash	1	15	2	0	0	distractor	1	618	691	126995	13.328	13.244	13.423
ProbeTrack13	13	ProbeTrack	13.2	SCS215b	20111107.095304	20111107.095442	8	0.013328	60	10	60-180	60	91	GapPrac	BigFlash	1	16	2	3	1	target	1	542	729	127724	13.328	13.091	13.568
ProbeTrack13	13	ProbeTrack	13.2	SCS215b	20111107.095304	20111107.095448	8	0.013328	60	10	60-180	60	67	GapPrac	BigFlash	1	17	2	3	0	distractor	1	598	701	128425	13.328	12.999	13.666
ProbeTrack13	13	ProbeTrack	13.2	SCS215b	20111107.095304	20111107.095453	8	0.013328	60	10	60-180	60	94	GapPrac	BigFlash	1	18	2	0	1	target	1	521	740	129165	13.328	12.842	13.799
ProbeTrack13	13	ProbeTrack	13.2	SCS215b	20111107.095304	20111107.095500	8	0.013328	60	10	60-180	60	100	GapPrac	BigFlash	1	19	2	45	0	target	0	893	-1000	128165	13.328	13.241	13.429
ProbeTrack13	13	ProbeTrack	13.2	SCS215b	20111107.095304	20111107.095507	8	0.013328	60	10	60-180	60	128	GapPrac	BigFlash	1	20	2	45	0	distractor	1	484	758	128923	13.328	13.234	13.426
ProbeTrack13	13	ProbeTrack	13.2	SCS215b	20111107.095542	20111107.095548	8	0.013328	60	10	60-180	60	107	GapExp	BigFlash	1	1	2	3	0	distractor	1	516	742	129665	13.385	12.887	13.787
ProbeTrack13	13	ProbeTrack	13.2	SCS215b	20111107.095542	20111107.095555	8	0.013328	60	10	60-180	60	124	GapExp	BigFlash	1	2	2	1	1	target	1	380	810	130475	13.328	12.857	13.805
ProbeTrack13	13	ProbeTrack	13.2	SCS215b	20111107.095542	20111107.095602	8	0.013328	60	10	60-180	60	95	GapExp	BigFlash	1	3	2	3	1	target	1	509	746	131221	13.328	13.301	13.362
ProbeTrack13	13	ProbeTrack	13.2	SCS215b	20111107.095542	20111107.095607	8	0.013328	60	10	60-180	60	77	GapExp	BigFlash	1	4	2	45	1	target	1	412	794	132015	13.328	13.307	13.355
ProbeTrack13	13	ProbeTrack	13.2	SCS215b	20111107.095542	20111107.095613	8	0.013328	60	10	60-180	60	101	GapExp	BigFlash	1	5	2	0	0	distractor	1	504	748	132763	13.328	12.997	13.652
ProbeTrack13	13	ProbeTrack	13.2	SCS215b	20111107.095542	20111107.095619	8	0.013328	60	10	60-180	60	158	GapExp	BigFlash	1	6	2	0	1	target	1	467	767	133530	13.328	12.932	13.743
ProbeTrack13	13	ProbeTrack	13.2	SCS215b	20111107.095542	20111107.095625	8	0.013328	60	10	60-180	60	123	GapExp	BigFlash	1	7	2	45	0	distractor	1	490	755	134285	13.328	12.956	13.698
ProbeTrack13	13	ProbeTrack	13.2	SCS215b	20111107.095542	20111107.095632	8	0.013328	60	10	60-180	60	161	GapExp	BigFlash	1	8	2	1	0	distractor	1	509	746	135031	13.328	12.943	13.702
ProbeTrack13	13	ProbeTrack	13.2	SCS215b	20111107.095542	20111107.095639	8	0.013328	60	10	60-180	60	133	GapExp	BigFlash	0	9	2	0	0	distractor	1	451	775	135806	13.328	12.868	13.784
ProbeTrack13	13	ProbeTrack	13.2	SCS215b	20111107.095542	20111107.095645	8	0.013328	60	10	60-180	60	171	GapExp	BigFlash	0	10	2	0	0	distractor	1	442	779	136585	13.328	12.900	13.789
ProbeTrack13	13	ProbeTrack	13.2	SCS215b	20111107.095542	20111107.095651	8	0.013328	60	10	60-180	60	160	GapExp	BigFlash	0	11	2	1	0	distractor	1	965	518	137103	13.328	12.844	13.810
ProbeTrack13	13	ProbeTrack	13.2	SCS215b	20111107.095542	20111107.095659	8	0.013328	60	10	60-180	60	117	GapExp	BigFlash	0	12	2	45	0	distractor	1	332	834	137937	13.328	12.853	13.809
ProbeTrack13	13	ProbeTrack	13.2	SCS215b	20111107.095542	20111107.095706	8	0.013328	60	10	60-180	60	127	GapExp	BigFlash	0	13	2	1	1	distractor	0	375	-1000	136937	13.328	13.295	13.378
ProbeTrack13	13	ProbeTrack	13.2	SCS215b	20111107.095542	20111107.095711	8	0.013328	60	10	60-180	60	120	GapExp	BigFlash	0	14	2	45	1	target	1	329	836	137773	13.328	12.918	13.758
ProbeTrack13	13	ProbeTrack	13.2	SCS215b	20111107.095542	20111107.095718	8	0.013328	60	10	60-180	60	131	GapExp	BigFlash	0	15	2	3	1	target	1	595	703	138476	13.378	12.868	27.023
ProbeTrack13	13	ProbeTrack	13.2	SCS215b	20111107.095542	20111107.095724	8	0.013328	60	10	60-180	60	180	GapExp	BigFlash	0	16	2	1	1	target	1	383	809	139285	13.328	13.106	13.561
ProbeTrack13	13	ProbeTrack	13.2	SCS215b	20111107.095542	20111107.095731	8	0.013328	60	10	60-180	60	68	GapExp	BigFlash	0	17	2	3	0	distractor	1	626	687	139972	13.328	12.853	13.826
ProbeTrack13	13	ProbeTrack	13.2	SCS215b	20111107.095542	20111107.095736	8	0.013328	60	10	60-180	60	169	GapExp	BigFlash	0	18	2	1	0	distractor	1	532	734	140706	13.328	12.958	13.705
ProbeTrack13	13	ProbeTrack	13.2	SCS215b	20111107.095542	20111107.095743	8	0.013328	60	10	60-180	60	109	GapExp	BigFlash	0	19	2	45	1	target	1	421	790	141496	13.328	12.844	13.814
ProbeTrack13	13	ProbeTrack	13.2	SCS215b	20111107.095542	20111107.095749	8	0.013328	60	10	60-180	60	135	GapExp	BigFlash	0	20	2	1	1	target	1	472	764	142260	13.328	12.931	13.728
ProbeTrack13	13	ProbeTrack	13.2	SCS215b	20111107.095542	20111107.095755	8	0.013328	60	10	60-180	60	171	GapExp	BigFlash	0	21	2	1	1	target	1	425	788	143048	13.328	12.851	13.811
ProbeTrack13	13	ProbeTrack	13.2	SCS215b	20111107.095542	20111107.095803	8	0.013328	60	10	60-180	60	137	GapExp	BigFlash	0	22	2	45	1	target	1	512	744	143792	13.328	12.926	13.742
ProbeTrack13	13	ProbeTrack	13.2	SCS215b	20111107.095542	20111107.095810	8	0.013328	60	10	60-180	60	113	GapExp	BigFlash	0	23	2	0	1	target	1	669	666	144458	13.328	13.103	13.572
ProbeTrack13	13	ProbeTrack	13.2	SCS215b	20111107.095542	20111107.095816	8	0.013328	60	10	60-180	60	115	GapExp	BigFlash	0	24	2	0	0	distractor	1	542	729	145187	13.328	12.923	13.737
ProbeTrack13	13	ProbeTrack	13.2	SCS215b	20111107.095542	20111107.095822	8	0.013328	60	10	60-180	60	92	GapExp	BigFlash	0	25	2	45	0	distractor	1	439	781	145968	13.328	12.852	13.799
ProbeTrack13	13	ProbeTrack	13.2	SCS215b	20111107.095542	20111107.095828	8	0.013328	60	10	60-180	60	107	GapExp	BigFlash	0	26	2	1	1	target	1	378	811	146779	13.328	13.012	13.656
ProbeTrack13	13	ProbeTrack	13.2	SCS215b	20111107.095542	20111107.095833	8	0.013328	60	10	60-180	60	81	GapExp	BigFlash	0	27	2	45	0	distractor	1	412	794	147573	13.328	12.845	13.807
ProbeTrack13	13	ProbeTrack	13.2	SCS215b	20111107.095542	20111107.095840	8	0.013328	60	10	60-180	60	72	GapExp	BigFlash	0	28	2	3	1	target	1	382	809	148382	13.328	12.940	13.723
ProbeTrack13	13	ProbeTrack	13.2	SCS215b	20111107.095542	20111107.095845	8	0.013328	60	10	60-180	60	92	GapExp	BigFlash	0	29	2	3	0	distractor	1	529	736	149118	13.328	12.956	13.701
ProbeTrack13	13	ProbeTrack	13.2	SCS215b	20111107.095542	20111107.095850	8	0.013328	60	10	60-180	60	72	GapExp	BigFlash	0	30	2	3	1	target	1	390	805	149923	13.328	12.868	13.800
ProbeTrack13	13	ProbeTrack	13.2	SCS215b	20111107.095542	20111107.095855	8	0.013328	60	10	60-180	60	99	GapExp	BigFlash	0	31	2	3	0	distractor	1	513	744	150667	13.328	12.859	13.789
ProbeTrack13	13	ProbeTrack	13.2	SCS215b	20111107.095542	20111107.095901	8	0.013328	60	10	60-180	60	75	GapExp	BigFlash	0	32	2	1	1	target	1	442	779	151446	13.328	12.889	13.767
ProbeTrack13	13	ProbeTrack	13.2	SCS215b	20111107.095542	20111107.095906	8	0.013328	60	10	60-180	60	89	GapExp	BigFlash	0	33	2	45	1	distractor	0	301	-1000	150446	13.329	12.876	13.784
ProbeTrack13	13	ProbeTrack	13.2	SCS215b	20111107.095542	20111107.095912	8	0.013328	60	10	60-180	60	76	GapExp	BigFlash	0	34	2	1	1	target	1	369	816	151262	13.328	12.972	13.675
ProbeTrack13	13	ProbeTrack	13.2	SCS215b	20111107.095542	20111107.095917	8	0.013328	60	10	60-180	60	95	GapExp	BigFlash	0	35	2	3	0	distractor	1	670	665	151927	13.328	12.861	13.799
ProbeTrack13	13	ProbeTrack	13.2	SCS215b	20111107.095542	20111107.095923	8	0.013328	60	10	60-180	60	122	GapExp	BigFlash	0	36	2	45	0	distractor	1	421	790	152717	13.328	12.928	13.742
ProbeTrack13	13	ProbeTrack	13.2	SCS215b	20111107.095542	20111107.095929	8	0.013328	60	10	60-180	60	170	GapExp	BigFlash	0	37	2	3	1	target	1	338	831	153548	13.328	12.832	13.837
ProbeTrack13	13	ProbeTrack	13.2	SCS215b	20111107.095542	20111107.095936	8	0.013328	60	10	60-180	60	102	GapExp	BigFlash	0	38	2	45	1	target	1	570	715	154263	13.328	13.098	13.556
ProbeTrack13	13	ProbeTrack	13.2	SCS215b	20111107.095542	20111107.095942	8	0.013328	60	10	60-180	60	169	GapExp	BigFlash	0	39	2	0	1	target	1	410	795	155058	13.328	12.867	13.777
ProbeTrack13	13	ProbeTrack	13.2	SCS215b	20111107.095542	20111107.095949	8	0.013328	60	10	60-180	60	108	GapExp	BigFlash	0	40	2	1	0	distractor	1	588	706	155764	13.328	12.860	13.820
ProbeTrack13	13	ProbeTrack	13.2	SCS215b	20111107.095542	20111107.095955	8	0.013328	60	10	60-180	60	71	GapExp	BigFlash	0	41	2	45	1	target	1	330	835	156599	13.328	12.864	13.799
ProbeTrack13	13	ProbeTrack	13.2	SCS215b	20111107.095542	20111107.100001	8	0.013328	60	10	60-180	60	141	GapExp	BigFlash	0	42	2	3	0	distractor	1	529	736	157335	13.328	13.074	13.591
ProbeTrack13	13	ProbeTrack	13.2	SCS215b	20111107.095542	20111107.100007	8	0.013328	60	10	60-180	60	124	GapExp	BigFlash	0	43	2	3	0	distractor	1	459	771	158106	13.328	12.873	13.781
ProbeTrack13	13	ProbeTrack	13.2	SCS215b	20111107.095542	20111107.100013	8	0.013328	60	10	60-180	60	93	GapExp	BigFlash	0	44	2	0	1	target	1	608	696	158802	13.328	13.302	13.354
ProbeTrack13	13	ProbeTrack	13.2	SCS215b	20111107.095542	20111107.100019	8	0.013328	60	10	60-180	60	174	GapExp	BigFlash	0	45	2	1	0	distractor	1	348	826	159628	13.328	12.959	13.710
ProbeTrack13	13	ProbeTrack	13.2	SCS215b	20111107.095542	20111107.100025	8	0.013328	60	10	60-180	60	87	GapExp	BigFlash	0	46	2	0	0	distractor	1	540	730	160358	13.328	13.301	13.352
ProbeTrack13	13	ProbeTrack	13.2	SCS215b	20111107.095542	20111107.100031	8	0.013328	60	10	60-180	60	67	GapExp	BigFlash	0	47	2	45	0	distractor	1	506	747	161105	13.328	12.944	13.712
ProbeTrack13	13	ProbeTrack	13.2	SCS215b	20111107.095542	20111107.100036	8	0.013328	60	10	60-180	60	137	GapExp	BigFlash	0	48	2	3	0	distractor	1	472	764	161869	13.329	13.303	13.643
ProbeTrack13	13	ProbeTrack	13.2	SCS215b	20111107.095542	20111107.100043	8	0.013328	60	10	60-180	60	75	GapExp	BigFlash	0	49	2	45	0	distractor	1	498	751	162620	13.328	13.056	13.595
ProbeTrack13	13	ProbeTrack	13.2	SCS215b	20111107.095542	20111107.100048	8	0.013328	60	10	60-180	60	115	GapExp	BigFlash	0	50	2	3	0	distractor	1	552	724	163344	13.328	13.094	13.561
ProbeTrack13	13	ProbeTrack	13.2	SCS215b	20111107.095542	20111107.100055	8	0.013328	60	10	60-180	60	139	GapExp	BigFlash	0	51	2	3	1	target	1	477	762	164106	13.328	13.298	13.352
ProbeTrack13	13	ProbeTrack	13.2	SCS215b	20111107.095542	20111107.100101	8	0.013328	60	10	60-180	60	85	GapExp	BigFlash	0	52	2	45	0	distractor	1	358	821	164927	13.328	12.850	13.811
ProbeTrack13	13	ProbeTrack	13.2	SCS215b	20111107.095542	20111107.100107	8	0.013328	60	10	60-180	60	175	GapExp	BigFlash	0	53	2	1	1	target	1	434	783	165710	13.328	12.904	13.750
ProbeTrack13	13	ProbeTrack	13.2	SCS215b	20111107.095542	20111107.100113	8	0.013328	60	10	60-180	60	74	GapExp	BigFlash	0	54	2	1	0	distractor	1	541	730	166440	13.328	13.101	13.562
ProbeTrack13	13	ProbeTrack	13.2	SCS215b	20111107.095542	20111107.100118	8	0.013328	60	10	60-180	60	83	GapExp	BigFlash	0	55	2	3	1	target	1	525	738	167178	13.328	13.169	13.484
ProbeTrack13	13	ProbeTrack	13.2	SCS215b	20111107.095542	20111107.100124	8	0.013328	60	10	60-180	60	88	GapExp	BigFlash	0	56	2	0	0	distractor	1	487	757	167935	13.328	12.943	13.714
ProbeTrack13	13	ProbeTrack	13.2	SCS215b	20111107.095542	20111107.100130	8	0.013328	60	10	60-180	60	107	GapExp	BigFlash	0	57	2	0	1	target	1	401	800	168735	13.328	12.897	13.771
ProbeTrack13	13	ProbeTrack	13.2	SCS215b	20111107.095542	20111107.100135	8	0.013328	60	10	60-180	60	71	GapExp	BigFlash	0	58	2	0	0	distractor	1	508	746	169481	13.328	13.159	13.492
ProbeTrack13	13	ProbeTrack	13.2	SCS215b	20111107.095542	20111107.100140	8	0.013328	60	10	60-180	60	124	GapExp	BigFlash	0	59	2	0	1	target	1	431	785	170266	13.328	13.110	13.556
ProbeTrack13	13	ProbeTrack	13.2	SCS215b	20111107.095542	20111107.100146	8	0.013328	60	10	60-180	60	107	GapExp	BigFlash	0	60	2	3	1	target	1	382	809	171075	13.328	12.914	13.760
ProbeTrack13	13	ProbeTrack	13.2	SCS215b	20111107.095542	20111107.100151	8	0.013328	60	10	60-180	60	71	GapExp	BigFlash	0	61	2	45	1	target	1	415	793	171868	13.328	12.871	13.787
ProbeTrack13	13	ProbeTrack	13.2	SCS215b	20111107.095542	20111107.100157	8	0.013328	60	10	60-180	60	174	GapExp	BigFlash	0	62	2	1	1	target	1	439	781	172649	13.328	13.301	13.355
ProbeTrack13	13	ProbeTrack	13.2	SCS215b	20111107.095542	20111107.100204	8	0.013328	60	10	60-180	60	116	GapExp	BigFlash	0	63	2	45	0	distractor	1	469	766	173415	13.328	13.077	13.578
ProbeTrack13	13	ProbeTrack	13.2	SCS215b	20111107.095542	20111107.100211	8	0.013328	60	10	60-180	60	107	GapExp	BigFlash	0	64	2	0	1	target	1	455	773	174188	13.328	12.952	13.703
ProbeTrack13	13	ProbeTrack	13.2	SCS215b	20111107.095542	20111107.100216	8	0.013328	60	10	60-180	60	79	GapExp	BigFlash	0	65	2	45	1	target	1	431	785	174973	13.328	12.891	13.769
ProbeTrack13	13	ProbeTrack	13.2	SCS215b	20111107.095542	20111107.100222	8	0.013328	60	10	60-180	60	121	GapExp	BigFlash	0	66	2	0	1	target	1	402	799	175772	13.328	12.896	13.754
ProbeTrack13	13	ProbeTrack	13.2	SCS215b	20111107.095542	20111107.100228	8	0.013328	60	10	60-180	60	109	GapExp	BigFlash	0	67	2	45	1	target	1	346	827	176599	13.328	13.274	13.369
ProbeTrack13	13	ProbeTrack	13.2	SCS215b	20111107.095542	20111107.100234	8	0.013328	60	10	60-180	60	117	GapExp	BigFlash	0	68	2	1	0	distractor	1	542	729	177328	13.328	13.120	13.514
ProbeTrack13	13	ProbeTrack	13.2	SCS215b	20111107.095542	20111107.100240	8	0.013328	60	10	60-180	60	158	GapExp	BigFlash	0	69	2	45	1	target	1	437	782	178110	13.328	13.243	13.402
ProbeTrack13	13	ProbeTrack	13.2	SCS215b	20111107.095542	20111107.100247	8	0.013328	60	10	60-180	60	76	GapExp	BigFlash	0	70	2	3	1	target	1	475	763	178873	13.328	12.848	13.802
ProbeTrack13	13	ProbeTrack	13.2	SCS215b	20111107.095542	20111107.100253	8	0.013328	60	10	60-180	60	171	GapExp	BigFlash	0	71	2	0	1	target	1	445	778	179651	13.328	13.091	13.550
ProbeTrack13	13	ProbeTrack	13.2	SCS215b	20111107.095542	20111107.100259	8	0.013328	60	10	60-180	60	121	GapExp	BigFlash	0	72	2	1	0	distractor	1	525	738	180389	13.328	12.886	13.789
ProbeTrack13	13	ProbeTrack	13.2	SCS215b	20111107.095542	20111107.100305	8	0.013328	60	10	60-180	60	73	GapExp	BigFlash	0	73	2	1	0	distractor	1	474	763	181152	13.328	12.830	13.834
ProbeTrack13	13	ProbeTrack	13.2	SCS215b	20111107.095542	20111107.100310	8	0.013328	60	10	60-180	60	131	GapExp	BigFlash	0	74	2	1	0	distractor	1	493	754	181906	13.328	12.873	13.819
ProbeTrack13	13	ProbeTrack	13.2	SCS215b	20111107.095542	20111107.100316	8	0.013328	60	10	60-180	60	104	GapExp	BigFlash	0	75	2	45	1	target	1	297	852	182758	13.328	13.305	13.354
ProbeTrack13	13	ProbeTrack	13.2	SCS215b	20111107.095542	20111107.100322	8	0.013328	60	10	60-180	60	110	GapExp	BigFlash	0	76	2	1	1	target	1	437	782	183540	13.328	12.924	13.711
ProbeTrack13	13	ProbeTrack	13.2	SCS215b	20111107.095542	20111107.100328	8	0.013328	60	10	60-180	60	102	GapExp	BigFlash	0	77	2	45	1	target	1	453	774	184314	13.328	12.882	13.788
ProbeTrack13	13	ProbeTrack	13.2	SCS215b	20111107.095542	20111107.100334	8	0.013328	60	10	60-180	60	135	GapExp	BigFlash	0	78	2	0	0	distractor	1	392	804	185118	13.328	12.852	13.791
ProbeTrack13	13	ProbeTrack	13.2	SCS215b	20111107.095542	20111107.100340	8	0.013328	60	10	60-180	60	152	GapExp	BigFlash	0	79	2	1	0	distractor	1	431	785	185903	13.328	12.866	13.802
ProbeTrack13	13	ProbeTrack	13.2	SCS215b	20111107.095542	20111107.100347	8	0.013328	60	10	60-180	60	74	GapExp	BigFlash	0	80	2	45	1	target	1	424	788	186691	13.328	13.069	13.591
ProbeTrack13	13	ProbeTrack	13.2	SCS215b	20111107.095542	20111107.100352	8	0.013328	60	10	60-180	60	91	GapExp	BigFlash	0	81	2	45	0	distractor	1	511	745	187436	13.328	12.923	13.725
ProbeTrack13	13	ProbeTrack	13.2	SCS215b	20111107.095542	20111107.100358	8	0.013328	60	10	60-180	60	132	GapExp	BigFlash	0	82	2	1	1	target	1	385	808	188244	13.328	13.299	13.351
ProbeTrack13	13	ProbeTrack	13.2	SCS215b	20111107.095542	20111107.100404	8	0.013328	60	10	60-180	60	177	GapExp	BigFlash	0	83	2	0	1	target	1	388	806	189050	13.328	13.027	13.636
ProbeTrack13	13	ProbeTrack	13.2	SCS215b	20111107.095542	20111107.100411	8	0.013328	60	10	60-180	60	109	GapExp	BigFlash	0	84	2	0	1	target	1	416	792	189842	13.328	12.991	13.661
ProbeTrack13	13	ProbeTrack	13.2	SCS215b	20111107.095542	20111107.100416	8	0.013328	60	10	60-180	60	97	GapExp	BigFlash	0	85	2	3	0	distractor	1	475	763	190605	13.328	13.094	13.562
ProbeTrack13	13	ProbeTrack	13.2	SCS215b	20111107.095542	20111107.100422	8	0.013328	60	10	60-180	60	173	GapExp	BigFlash	0	86	2	1	1	target	1	352	824	191429	13.328	12.986	13.669
ProbeTrack13	13	ProbeTrack	13.2	SCS215b	20111107.095542	20111107.100429	8	0.013328	60	10	60-180	60	79	GapExp	BigFlash	0	87	2	1	1	target	1	466	767	192196	13.328	12.835	13.830
ProbeTrack13	13	ProbeTrack	13.2	SCS215b	20111107.095542	20111107.100434	8	0.013328	60	10	60-180	60	152	GapExp	BigFlash	0	88	2	0	0	distractor	1	357	822	193018	13.328	12.955	13.689
ProbeTrack13	13	ProbeTrack	13.2	SCS215b	20111107.095542	20111107.100440	8	0.013328	60	10	60-180	60	156	GapExp	BigFlash	0	89	2	3	1	target	1	430	785	193803	13.328	12.883	13.757
ProbeTrack13	13	ProbeTrack	13.2	SCS215b	20111107.095542	20111107.100446	8	0.013328	60	10	60-180	60	90	GapExp	BigFlash	0	90	2	0	0	distractor	1	518	741	194544	13.328	13.307	13.350
ProbeTrack13	13	ProbeTrack	13.2	SCS215b	20111107.095542	20111107.100452	8	0.013328	60	10	60-180	60	179	GapExp	BigFlash	0	91	2	45	1	target	1	292	854	195398	13.328	13.301	13.355
ProbeTrack13	13	ProbeTrack	13.2	SCS215b	20111107.095542	20111107.100459	8	0.013328	60	10	60-180	60	148	GapExp	BigFlash	0	92	2	3	0	distractor	1	507	747	196145	13.328	13.164	13.488
ProbeTrack13	13	ProbeTrack	13.2	SCS215b	20111107.095542	20111107.100506	8	0.013328	60	10	60-180	60	116	GapExp	BigFlash	0	93	2	3	0	distractor	1	490	755	196900	13.328	12.884	13.770
ProbeTrack13	13	ProbeTrack	13.2	SCS215b	20111107.095542	20111107.100512	8	0.013328	60	10	60-180	60	134	GapExp	BigFlash	0	94	2	0	1	target	1	376	812	197712	13.542	12.828	40.182
ProbeTrack13	13	ProbeTrack	13.2	SCS215b	20111107.095542	20111107.100518	8	0.013328	60	10	60-180	60	178	GapExp	BigFlash	0	95	2	1	1	target	1	353	824	198536	13.328	13.108	13.533
ProbeTrack13	13	ProbeTrack	13.2	SCS215b	20111107.095542	20111107.100524	8	0.013328	60	10	60-180	60	66	GapExp	BigFlash	0	96	2	0	0	distractor	1	537	732	199268	13.328	13.218	13.410
ProbeTrack13	13	ProbeTrack	13.2	SCS215b	20111107.095542	20111107.100530	8	0.013328	60	10	60-180	60	90	GapExp	BigFlash	0	97	2	3	1	distractor	0	491	-1000	198268	13.328	12.914	13.747
ProbeTrack13	13	ProbeTrack	13.2	SCS215b	20111107.095542	20111107.100535	8	0.013328	60	10	60-180	60	73	GapExp	BigFlash	0	98	2	0	1	target	1	458	771	199039	13.328	13.303	13.366
ProbeTrack13	13	ProbeTrack	13.2	SCS215b	20111107.095542	20111107.100541	8	0.013328	60	10	60-180	60	160	GapExp	BigFlash	0	99	2	1	0	distractor	1	327	837	199876	13.328	12.916	13.768
ProbeTrack13	13	ProbeTrack	13.2	SCS215b	20111107.095542	20111107.100547	8	0.013328	60	10	60-180	60	161	GapExp	BigFlash	0	100	2	1	1	target	1	366	817	200693	13.328	12.945	13.712
ProbeTrack13	13	ProbeTrack	13.2	SCS215b	20111107.095542	20111107.100553	8	0.013328	60	10	60-180	60	179	GapExp	BigFlash	0	101	2	1	1	target	1	458	771	201464	13.328	12.857	13.801
ProbeTrack13	13	ProbeTrack	13.2	SCS215b	20111107.095542	20111107.100601	8	0.013328	60	10	60-180	60	154	GapExp	BigFlash	0	102	2	45	1	distractor	0	477	-1000	200464	13.328	12.834	13.823
ProbeTrack13	13	ProbeTrack	13.2	SCS215b	20111107.095542	20111107.100607	8	0.013328	60	10	60-180	60	125	GapExp	BigFlash	0	103	2	3	1	target	1	396	802	201266	13.328	13.107	13.547
ProbeTrack13	13	ProbeTrack	13.2	SCS215b	20111107.095542	20111107.100613	8	0.013328	60	10	60-180	60	178	GapExp	BigFlash	0	104	2	3	1	target	1	429	786	202052	13.328	12.854	13.796
ProbeTrack13	13	ProbeTrack	13.2	SCS215b	20111107.095542	20111107.100620	8	0.013328	60	10	60-180	60	72	GapExp	BigFlash	0	105	2	1	1	target	1	353	824	202876	13.328	13.173	13.512
ProbeTrack13	13	ProbeTrack	13.2	SCS215b	20111107.095542	20111107.100625	8	0.013328	60	10	60-180	60	151	GapExp	BigFlash	0	106	2	3	1	target	1	495	753	203629	13.328	12.899	13.762
ProbeTrack13	13	ProbeTrack	13.2	SCS215b	20111107.095542	20111107.100632	8	0.013328	60	10	60-180	60	130	GapExp	BigFlash	0	107	2	45	0	distractor	1	545	728	204357	13.328	12.868	13.807
ProbeTrack13	13	ProbeTrack	13.2	SCS215b	20111107.095542	20111107.100638	8	0.013328	60	10	60-180	60	120	GapExp	BigFlash	0	108	2	45	0	distractor	1	531	735	205092	13.328	13.190	13.446
ProbeTrack13	13	ProbeTrack	13.2	SCS215b	20111107.095542	20111107.100645	8	0.013328	60	10	60-180	60	93	GapExp	BigFlash	0	109	2	0	1	target	1	381	810	205902	13.328	13.094	13.550
ProbeTrack13	13	ProbeTrack	13.2	SCS215b	20111107.095542	20111107.100650	8	0.013328	60	10	60-180	60	95	GapExp	BigFlash	0	110	2	0	1	target	1	608	696	206598	13.328	12.861	13.791
ProbeTrack13	13	ProbeTrack	13.2	SCS215b	20111107.095542	20111107.100656	8	0.013328	60	10	60-180	60	113	GapExp	BigFlash	0	111	2	3	0	distractor	1	390	805	207403	13.328	13.064	13.790
ProbeTrack13	13	ProbeTrack	13.2	SCS215b	20111107.095542	20111107.100702	8	0.013328	60	10	60-180	60	168	GapExp	BigFlash	0	112	2	1	0	distractor	1	436	782	208185	13.328	12.954	13.695
ProbeTrack13	13	ProbeTrack	13.2	SCS215b	20111107.095542	20111107.100708	8	0.013328	60	10	60-180	60	147	GapExp	BigFlash	0	113	2	1	0	distractor	1	494	753	208938	13.328	13.110	13.540
ProbeTrack13	13	ProbeTrack	13.2	SCS215b	20111107.095542	20111107.100715	8	0.013328	60	10	60-180	60	169	GapExp	BigFlash	0	114	2	1	0	distractor	1	485	758	209696	13.374	12.889	27.028
ProbeTrack13	13	ProbeTrack	13.2	SCS215b	20111107.095542	20111107.100721	8	0.013328	60	10	60-180	60	122	GapExp	BigFlash	0	115	2	45	1	target	1	360	820	210516	13.328	12.919	13.787
ProbeTrack13	13	ProbeTrack	13.2	SCS215b	20111107.095542	20111107.100727	8	0.013328	60	10	60-180	60	120	GapExp	BigFlash	0	116	2	0	0	distractor	1	509	746	211262	13.328	12.839	13.824
ProbeTrack13	13	ProbeTrack	13.2	SCS215b	20111107.095542	20111107.100734	8	0.013328	60	10	60-180	60	72	GapExp	BigFlash	0	117	2	3	1	target	1	584	708	211970	13.328	12.882	13.782
ProbeTrack13	13	ProbeTrack	13.2	SCS215b	20111107.095542	20111107.100739	8	0.013328	60	10	60-180	60	76	GapExp	BigFlash	0	118	2	45	1	target	1	334	833	212803	13.328	12.853	13.806
ProbeTrack13	13	ProbeTrack	13.2	SCS215b	20111107.095542	20111107.100744	8	0.013328	60	10	60-180	60	159	GapExp	BigFlash	0	119	2	45	1	target	1	417	792	213595	13.328	12.828	13.824
ProbeTrack13	13	ProbeTrack	13.2	SCS215b	20111107.095542	20111107.100751	8	0.013328	60	10	60-180	60	118	GapExp	BigFlash	0	120	2	3	1	target	1	398	801	214396	13.328	12.867	13.772
ProbeTrack13	13	ProbeTrack	13.2	SCS215b	20111107.095542	20111107.100757	8	0.013328	60	10	60-180	60	137	GapExp	BigFlash	0	121	2	0	1	target	1	363	819	215215	13.328	12.863	13.789
ProbeTrack13	13	ProbeTrack	13.2	SCS215b	20111107.095542	20111107.100803	8	0.013328	60	10	60-180	60	136	GapExp	BigFlash	0	122	2	3	0	distractor	1	544	728	215943	13.328	12.832	13.826
ProbeTrack13	13	ProbeTrack	13.2	SCS215b	20111107.095542	20111107.100809	8	0.013328	60	10	60-180	60	61	GapExp	BigFlash	0	123	2	3	1	target	1	583	709	216652	13.328	13.205	13.466
ProbeTrack13	13	ProbeTrack	13.2	SCS215b	20111107.095542	20111107.100814	8	0.013328	60	10	60-180	60	146	GapExp	BigFlash	0	124	2	0	0	distractor	1	427	787	217439	13.328	13.083	13.560
ProbeTrack13	13	ProbeTrack	13.2	SCS215b	20111107.095542	20111107.100820	8	0.013328	60	10	60-180	60	80	GapExp	BigFlash	0	125	2	0	0	distractor	1	574	713	218152	13.328	13.065	13.575
ProbeTrack13	13	ProbeTrack	13.2	SCS215b	20111107.095542	20111107.100826	8	0.013328	60	10	60-180	60	174	GapExp	BigFlash	0	126	2	1	1	target	1	419	791	218943	13.328	12.846	13.813
ProbeTrack13	13	ProbeTrack	13.2	SCS215b	20111107.095542	20111107.100833	8	0.013328	60	10	60-180	60	125	GapExp	BigFlash	0	127	2	1	0	distractor	1	451	775	219718	13.328	12.904	13.742
ProbeTrack13	13	ProbeTrack	13.2	SCS215b	20111107.095542	20111107.100839	8	0.013328	60	10	60-180	60	130	GapExp	BigFlash	0	128	2	0	0	distractor	1	458	771	220489	13.328	13.111	13.561
ProbeTrack13	13	ProbeTrack	13.2	SCS215b	20111107.095542	20111107.100845	8	0.013328	60	10	60-180	60	101	GapExp	BigFlash	0	129	2	1	1	target	1	393	804	221293	13.328	13.289	13.360
ProbeTrack13	13	ProbeTrack	13.2	SCS215b	20111107.095542	20111107.100851	8	0.013328	60	10	60-180	60	64	GapExp	BigFlash	0	130	2	3	0	distractor	1	753	624	221917	13.391	12.867	26.865
ProbeTrack13	13	ProbeTrack	13.2	SCS215b	20111107.095542	20111107.100856	8	0.013328	60	10	60-180	60	140	GapExp	BigFlash	0	131	2	1	1	target	1	462	769	222686	13.328	12.911	13.748
ProbeTrack13	13	ProbeTrack	13.2	SCS215b	20111107.095542	20111107.100902	8	0.013328	60	10	60-180	60	63	GapExp	BigFlash	0	132	2	0	0	distractor	1	795	603	223289	13.328	12.826	13.815
ProbeTrack13	13	ProbeTrack	13.2	SCS215b	20111107.095542	20111107.100908	8	0.013328	60	10	60-180	60	144	GapExp	BigFlash	0	133	2	3	0	distractor	1	585	708	223997	13.328	12.962	13.692
ProbeTrack13	13	ProbeTrack	13.2	SCS215b	20111107.095542	20111107.100915	8	0.013328	60	10	60-180	60	149	GapExp	BigFlash	0	134	2	0	1	target	1	514	743	224740	13.328	13.118	13.514
ProbeTrack13	13	ProbeTrack	13.2	SCS215b	20111107.095542	20111107.100921	8	0.013328	60	10	60-180	60	117	GapExp	BigFlash	0	135	2	1	1	target	1	348	826	225566	13.328	12.968	13.668
ProbeTrack13	13	ProbeTrack	13.2	SCS215b	20111107.095542	20111107.100927	8	0.013328	60	10	60-180	60	88	GapExp	BigFlash	0	136	2	1	0	distractor	1	435	783	226349	13.328	13.033	13.614
ProbeTrack13	13	ProbeTrack	13.2	SCS215b	20111107.095542	20111107.100932	8	0.013328	60	10	60-180	60	119	GapExp	BigFlash	0	137	2	45	0	distractor	1	586	707	227056	13.328	12.892	13.783
ProbeTrack13	13	ProbeTrack	13.2	SCS215b	20111107.095542	20111107.100939	8	0.013328	60	10	60-180	60	80	GapExp	BigFlash	0	138	2	1	1	target	1	441	780	227836	13.328	13.297	13.360
ProbeTrack13	13	ProbeTrack	13.2	SCS215b	20111107.095542	20111107.100944	8	0.013328	60	10	60-180	60	75	GapExp	BigFlash	0	139	2	45	0	distractor	1	497	752	228588	13.328	13.090	13.556
ProbeTrack13	13	ProbeTrack	13.2	SCS215b	20111107.095542	20111107.100950	8	0.013328	60	10	60-180	60	129	GapExp	BigFlash	0	140	2	1	0	distractor	1	443	779	229367	13.328	13.170	13.479
ProbeTrack13	13	ProbeTrack	13.2	SCS215b	20111107.095542	20111107.100956	8	0.013328	60	10	60-180	60	66	GapExp	BigFlash	0	141	2	0	0	distractor	1	736	632	229999	13.328	12.893	13.773
ProbeTrack13	13	ProbeTrack	13.2	SCS215b	20111107.095542	20111107.101002	8	0.013328	60	10	60-180	60	123	GapExp	BigFlash	0	142	2	3	1	target	1	410	795	230794	13.328	13.016	13.665
ProbeTrack13	13	ProbeTrack	13.2	SCS215b	20111107.095542	20111107.101008	8	0.013328	60	10	60-180	60	123	GapExp	BigFlash	0	143	2	45	1	target	1	319	841	231635	13.328	13.000	13.571
ProbeTrack13	13	ProbeTrack	13.2	SCS215b	20111107.095542	20111107.101014	8	0.013328	60	10	60-180	60	135	GapExp	BigFlash	0	144	2	3	0	distractor	1	443	779	232414	13.328	13.097	13.562
ProbeTrack13	13	ProbeTrack	13.2	SCS215b	20111107.095542	20111107.101020	8	0.013328	60	10	60-180	60	82	GapExp	BigFlash	0	145	2	0	0	distractor	1	435	783	233197	13.328	12.984	13.659
ProbeTrack13	13	ProbeTrack	13.2	SCS215b	20111107.095542	20111107.101026	8	0.013328	60	10	60-180	60	176	GapExp	BigFlash	0	146	2	1	0	distractor	1	488	756	233953	13.328	12.927	13.736
ProbeTrack13	13	ProbeTrack	13.2	SCS215b	20111107.095542	20111107.101033	8	0.013328	60	10	60-180	60	134	GapExp	BigFlash	0	147	2	45	0	distractor	1	437	782	234735	13.328	12.982	13.659
ProbeTrack13	13	ProbeTrack	13.2	SCS215b	20111107.095542	20111107.101040	8	0.013328	60	10	60-180	60	75	GapExp	BigFlash	0	148	2	0	0	distractor	1	518	741	235476	13.328	12.871	13.782
ProbeTrack13	13	ProbeTrack	13.2	SCS215b	20111107.095542	20111107.101048	8	0.013328	60	10	60-180	60	83	GapExp	BigFlash	0	149	2	0	1	target	1	529	736	236212	13.328	12.906	13.806
ProbeTrack13	13	ProbeTrack	13.2	SCS215b	20111107.095542	20111107.101054	8	0.013328	60	10	60-180	60	169	GapExp	BigFlash	0	150	2	1	1	target	1	478	761	236973	13.328	12.875	13.794
ProbeTrack13	13	ProbeTrack	13.2	SCS215b	20111107.095542	20111107.101101	8	0.013328	60	10	60-180	60	90	GapExp	BigFlash	0	151	2	0	1	target	1	374	813	237786	13.328	12.918	13.744
ProbeTrack13	13	ProbeTrack	13.2	SCS215b	20111107.095542	20111107.101106	8	0.013328	60	10	60-180	60	146	GapExp	BigFlash	0	152	2	3	0	distractor	1	412	794	238580	13.328	13.048	13.623
ProbeTrack13	13	ProbeTrack	13.2	SCS215b	20111107.095542	20111107.101112	8	0.013328	60	10	60-180	60	154	GapExp	BigFlash	0	153	2	3	1	distractor	0	434	-1000	237580	13.328	12.925	13.738
ProbeTrack13	13	ProbeTrack	13.2	SCS215b	20111107.095542	20111107.101119	8	0.013328	60	10	60-180	60	173	GapExp	BigFlash	0	154	2	1	0	distractor	1	532	734	238314	13.328	12.978	13.678
ProbeTrack13	13	ProbeTrack	13.2	SCS215b	20111107.095542	20111107.101126	8	0.013328	60	10	60-180	60	160	GapExp	BigFlash	0	155	2	45	0	distractor	1	447	777	239091	13.328	12.983	13.681
ProbeTrack13	13	ProbeTrack	13.2	SCS215b	20111107.095542	20111107.101133	8	0.013328	60	10	60-180	60	165	GapExp	BigFlash	0	156	2	45	1	target	1	313	844	239935	13.328	12.879	13.792
ProbeTrack13	13	ProbeTrack	13.2	SCS215b	20111107.095542	20111107.101140	8	0.013328	60	10	60-180	60	77	GapExp	BigFlash	0	157	2	45	0	target	0	577	-1000	238935	13.328	12.857	13.807
ProbeTrack13	13	ProbeTrack	13.2	SCS215b	20111107.095542	20111107.101146	8	0.013328	60	10	60-180	60	119	GapExp	BigFlash	0	158	2	3	0	distractor	1	820	590	239525	13.328	12.875	13.789
ProbeTrack13	13	ProbeTrack	13.2	SCS215b	20111107.095542	20111107.101152	8	0.013328	60	10	60-180	60	71	GapExp	BigFlash	0	159	2	0	1	target	1	458	771	240296	13.328	12.961	13.715
ProbeTrack13	13	ProbeTrack	13.2	SCS215b	20111107.095542	20111107.101158	8	0.013328	60	10	60-180	60	71	GapExp	BigFlash	0	160	2	3	0	distractor	1	495	753	241049	13.328	12.976	13.683
ProbeTrack13	13	ProbeTrack	13.2	SCS215b	20111107.095542	20111107.101203	8	0.013328	60	10	60-180	60	172	GapExp	BigFlash	0	161	2	3	1	target	1	431	785	241834	13.328	12.948	13.714
ProbeTrack13	13	ProbeTrack	13.2	SCS215b	20111107.095542	20111107.101210	8	0.013328	60	10	60-180	60	94	GapExp	BigFlash	0	162	2	0	0	distractor	1	676	662	242496	13.328	12.940	13.720
ProbeTrack13	13	ProbeTrack	13.2	SCS215b	20111107.095542	20111107.101215	8	0.013328	60	10	60-180	60	100	GapExp	BigFlash	0	163	2	0	1	target	1	368	816	243312	13.328	13.033	13.628
ProbeTrack13	13	ProbeTrack	13.2	SCS215b	20111107.095542	20111107.101221	8	0.013328	60	10	60-180	60	99	GapExp	BigFlash	0	164	2	45	0	distractor	1	416	792	244104	13.328	13.104	13.550
ProbeTrack13	13	ProbeTrack	13.2	SCS215b	20111107.095542	20111107.101227	8	0.013328	60	10	60-180	60	142	GapExp	BigFlash	0	165	2	3	1	target	1	400	800	244904	13.328	12.887	13.768
ProbeTrack13	13	ProbeTrack	13.2	SCS215b	20111107.095542	20111107.101233	8	0.013328	60	10	60-180	60	121	GapExp	BigFlash	0	166	2	1	0	distractor	1	588	706	245610	13.328	13.120	13.515
ProbeTrack13	13	ProbeTrack	13.2	SCS215b	20111107.095542	20111107.101239	8	0.013328	60	10	60-180	60	137	GapExp	BigFlash	0	167	2	0	0	distractor	1	377	812	246422	13.328	12.846	13.821
ProbeTrack13	13	ProbeTrack	13.2	SCS215b	20111107.095542	20111107.101245	8	0.013328	60	10	60-180	60	98	GapExp	BigFlash	0	168	2	1	0	distractor	1	488	756	247178	13.328	12.832	13.828
ProbeTrack13	13	ProbeTrack	13.2	SCS215b	20111107.095542	20111107.101251	8	0.013328	60	10	60-180	60	73	GapExp	BigFlash	0	169	2	0	1	target	1	512	744	247922	13.328	12.839	13.828
ProbeTrack13	13	ProbeTrack	13.2	SCS215b	20111107.095542	20111107.101256	8	0.013328	60	10	60-180	60	132	GapExp	BigFlash	0	170	2	3	1	distractor	0	385	-1000	246922	13.328	12.950	13.689
ProbeTrack13	13	ProbeTrack	13.2	SCS215b	20111107.095542	20111107.101302	8	0.013328	60	10	60-180	60	72	GapExp	BigFlash	0	171	2	45	0	distractor	1	438	781	247703	13.328	12.901	13.772
ProbeTrack13	13	ProbeTrack	13.2	SCS215b	20111107.095542	20111107.101308	8	0.013328	60	10	60-180	60	118	GapExp	BigFlash	0	172	2	45	1	target	1	321	840	248543	13.328	12.859	13.797
ProbeTrack13	13	ProbeTrack	13.2	SCS215b	20111107.095542	20111107.101314	8	0.013328	60	10	60-180	60	110	GapExp	BigFlash	0	173	2	0	0	distractor	1	550	725	249268	13.328	12.908	13.753
ProbeTrack13	13	ProbeTrack	13.2	SCS215b	20111107.095542	20111107.101320	8	0.013328	60	10	60-180	60	71	GapExp	BigFlash	0	174	2	0	1	target	1	823	589	249857	13.328	13.304	13.357
ProbeTrack13	13	ProbeTrack	13.2	SCS215b	20111107.095542	20111107.101325	8	0.013328	60	10	60-180	60	64	GapExp	BigFlash	0	175	2	3	0	distractor	1	575	713	250570	13.328	12.933	13.724
ProbeTrack13	13	ProbeTrack	13.2	SCS215b	20111107.095542	20111107.101331	8	0.013328	60	10	60-180	60	164	GapExp	BigFlash	0	176	2	45	0	target	0	534	-1000	249570	13.328	12.838	13.817
ProbeTrack13	13	ProbeTrack	13.2	SCS215b	20111107.095542	20111107.101338	8	0.013328	60	10	60-180	60	153	GapExp	BigFlash	0	177	2	3	1	target	1	490	755	250325	13.328	12.897	13.755
ProbeTrack13	13	ProbeTrack	13.2	SCS215b	20111107.095542	20111107.101345	8	0.013328	60	10	60-180	60	122	GapExp	BigFlash	0	178	2	3	1	target	1	361	820	251145	13.328	13.045	13.603
ProbeTrack13	13	ProbeTrack	13.2	SCS215b	20111107.095542	20111107.101350	8	0.013328	60	10	60-180	60	142	GapExp	BigFlash	0	179	2	3	0	distractor	1	364	818	251963	13.328	12.956	13.703
ProbeTrack13	13	ProbeTrack	13.2	SCS215b	20111107.095542	20111107.101357	8	0.013328	60	10	60-180	60	68	GapExp	BigFlash	0	180	2	3	0	distractor	1	650	675	252638	13.328	12.835	13.835
ProbeTrack13	13	ProbeTrack	13.2	SCS215b	20111107.095542	20111107.101402	8	0.013328	60	10	60-180	60	132	GapExp	BigFlash	0	181	2	45	0	distractor	1	454	773	253411	13.328	13.007	13.670
ProbeTrack13	13	ProbeTrack	13.2	SCS215b	20111107.095542	20111107.101408	8	0.013328	60	10	60-180	60	110	GapExp	BigFlash	0	182	2	0	0	distractor	1	435	783	254194	13.328	12.992	13.659
ProbeTrack13	13	ProbeTrack	13.2	SCS215b	20111107.095542	20111107.101414	8	0.013328	60	10	60-180	60	136	GapExp	BigFlash	0	183	2	0	1	target	1	382	809	255003	13.328	13.303	13.353
ProbeTrack13	13	ProbeTrack	13.2	SCS215b	20111107.095542	20111107.101420	8	0.013328	60	10	60-180	60	61	GapExp	BigFlash	0	184	2	45	0	distractor	1	466	767	255770	13.328	13.026	13.641
ProbeTrack13	13	ProbeTrack	13.2	SCS215b	20111107.095542	20111107.101426	8	0.013328	60	10	60-180	60	153	GapExp	BigFlash	0	185	2	0	0	distractor	1	417	792	256562	13.328	12.869	13.777
ProbeTrack13	13	ProbeTrack	13.2	SCS215b	20111107.095542	20111107.101432	8	0.013328	60	10	60-180	60	63	GapExp	BigFlash	0	186	2	45	0	distractor	1	495	753	257315	13.328	13.007	13.650
ProbeTrack13	13	ProbeTrack	13.2	SCS215b	20111107.095542	20111107.101438	8	0.013328	60	10	60-180	60	161	GapExp	BigFlash	0	187	2	45	1	target	1	584	708	258023	13.368	12.905	26.695
ProbeTrack13	13	ProbeTrack	13.2	SCS215b	20111107.095542	20111107.101445	8	0.013328	60	10	60-180	60	69	GapExp	BigFlash	0	188	2	1	0	target	0	419	-1000	257023	13.328	12.863	13.799
ProbeTrack13	13	ProbeTrack	13.2	SCS215b	20111107.095542	20111107.101450	8	0.013328	60	10	60-180	60	172	GapExp	BigFlash	0	189	2	3	1	target	1	481	760	257783	13.328	13.079	13.578
ProbeTrack13	13	ProbeTrack	13.2	SCS215b	20111107.095542	20111107.101457	8	0.013328	60	10	60-180	60	152	GapExp	BigFlash	0	190	2	3	0	distractor	1	393	804	258587	13.328	13.183	13.476
ProbeTrack13	13	ProbeTrack	13.2	SCS215b	20111107.095542	20111107.101504	8	0.013328	60	10	60-180	60	95	GapExp	BigFlash	0	191	2	45	0	distractor	1	494	753	259340	13.328	13.291	13.364
ProbeTrack13	13	ProbeTrack	13.2	SCS215b	20111107.095542	20111107.101510	8	0.013328	60	10	60-180	60	132	GapExp	BigFlash	0	192	2	45	1	target	1	419	791	260131	13.328	12.880	13.782
ProbeTrack13	13	ProbeTrack	13.2	SCS215b	20111107.095542	20111107.101517	8	0.013328	60	10	60-180	60	81	GapExp	BigFlash	0	193	2	0	0	distractor	1	473	764	260895	13.328	13.022	13.648
ProbeTrack13	13	ProbeTrack	13.2	SCS215b	20111107.095542	20111107.101522	8	0.013328	60	10	60-180	60	175	GapExp	BigFlash	0	194	2	1	0	distractor	1	444	778	261673	13.328	12.856	13.797
ProbeTrack13	13	ProbeTrack	13.2	SCS215b	20111107.095542	20111107.101529	8	0.013328	60	10	60-180	60	94	GapExp	BigFlash	0	195	2	1	0	distractor	1	501	750	262423	13.328	13.276	13.398
ProbeTrack13	13	ProbeTrack	13.2	SCS215b	20111107.095542	20111107.101534	8	0.013328	60	10	60-180	60	85	GapExp	BigFlash	0	196	2	1	1	target	1	512	744	263167	13.328	12.849	13.821
ProbeTrack13	13	ProbeTrack	13.2	SCS215b	20111107.095542	20111107.101540	8	0.013328	60	10	60-180	60	64	GapExp	BigFlash	0	197	2	45	1	target	1	373	814	263981	13.328	12.892	13.784
ProbeTrack13	13	ProbeTrack	13.2	SCS215b	20111107.095542	20111107.101545	8	0.013328	60	10	60-180	60	121	GapExp	BigFlash	0	198	2	3	0	target	0	5579	-1000	262981	13.328	13.085	13.576
ProbeTrack13	13	ProbeTrack	13.2	SCS215b	20111107.095542	20111107.101556	8	0.013328	60	10	60-180	60	161	GapExp	BigFlash	0	199	2	0	1	target	1	376	812	263793	13.328	13.101	13.551
ProbeTrack13	13	ProbeTrack	13.2	SCS215b	20111107.095542	20111107.101603	8	0.013328	60	10	60-180	60	137	GapExp	BigFlash	0	200	2	45	0	target	0	560	-1000	262793	13.328	12.557	14.098
ProbeTrack13	13	ProbeTrack	13.2	SCS215b	20111107.101723	20111107.101729	8	0.013328	60	10	60-180	60	132	GapPrac	SmallFlash	1	1	2	1	1	target	1	364	818	263611	13.382	13.291	13.353
ProbeTrack13	13	ProbeTrack	13.2	SCS215b	20111107.101723	20111107.101736	8	0.013328	60	10	60-180	60	120	GapPrac	SmallFlash	1	2	2	0	0	distractor	1	388	806	264417	13.328	13.301	13.352
ProbeTrack13	13	ProbeTrack	13.2	SCS215b	20111107.101723	20111107.101742	8	0.013328	60	10	60-180	60	139	GapPrac	SmallFlash	1	3	2	45	0	distractor	1	428	786	265203	13.328	11.546	15.108
ProbeTrack13	13	ProbeTrack	13.2	SCS215b	20111107.101723	20111107.101749	8	0.013328	60	10	60-180	60	149	GapPrac	SmallFlash	1	4	2	45	1	target	1	366	817	266020	13.328	11.700	14.984
ProbeTrack13	13	ProbeTrack	13.2	SCS215b	20111107.101723	20111107.101755	8	0.013328	60	10	60-180	60	131	GapPrac	SmallFlash	1	5	2	3	0	distractor	1	384	808	266828	13.328	12.629	14.025
ProbeTrack13	13	ProbeTrack	13.2	SCS215b	20111107.101723	20111107.101801	8	0.013328	60	10	60-180	60	115	GapPrac	SmallFlash	1	6	2	45	1	target	1	367	817	267645	13.328	10.110	16.533
ProbeTrack13	13	ProbeTrack	13.2	SCS215b	20111107.101723	20111107.101808	8	0.013328	60	10	60-180	60	63	GapPrac	SmallFlash	1	7	2	45	0	distractor	1	524	738	268383	13.328	11.242	15.416
ProbeTrack13	13	ProbeTrack	13.2	SCS215b	20111107.101723	20111107.101814	8	0.013328	60	10	60-180	60	101	GapPrac	SmallFlash	1	8	2	1	0	target	0	704	-1000	267383	13.328	11.878	14.776
ProbeTrack13	13	ProbeTrack	13.2	SCS215b	20111107.101723	20111107.101819	8	0.013328	60	10	60-180	60	65	GapPrac	SmallFlash	1	9	2	0	0	target	0	516	-1000	266383	13.328	13.310	13.355
ProbeTrack13	13	ProbeTrack	13.2	SCS215b	20111107.101723	20111107.101825	8	0.013328	60	10	60-180	60	160	GapPrac	SmallFlash	1	10	2	0	0	distractor	1	616	692	267075	13.328	12.672	13.985
ProbeTrack13	13	ProbeTrack	13.2	SCS215b	20111107.101723	20111107.101831	8	0.013328	60	10	60-180	60	130	GapPrac	SmallFlash	1	11	2	3	1	distractor	0	4105198	-1000	266075	13.328	10.559	16.105
ProbeTrack13	13	ProbeTrack	13.2	SCS215b	20111107.101723	20111107.101837	8	0.013328	60	10	60-180	60	180	GapPrac	SmallFlash	1	12	2	45	1	early	-4	-1198	-1000	265075	13.328	12.627	14.014
ProbeTrack13	13	ProbeTrack	13.2	SCS215b	20111107.101723	20111107.101845	8	0.013328	60	10	60-180	60	115	GapPrac	SmallFlash	1	13	2	3	0	distractor	1	575	713	265788	13.328	9.707	16.944
ProbeTrack13	13	ProbeTrack	13.2	SCS215b	20111107.101723	20111107.101851	8	0.013328	60	10	60-180	60	112	GapPrac	SmallFlash	1	14	2	0	1	target	1	389	806	266594	13.328	13.094	13.550
ProbeTrack13	13	ProbeTrack	13.2	SCS215b	20111107.101723	20111107.101857	8	0.013328	60	10	60-180	60	85	GapPrac	SmallFlash	1	15	2	1	1	distractor	0	379	-1000	265594	13.328	13.308	13.351
ProbeTrack13	13	ProbeTrack	13.2	SCS215b	20111107.101723	20111107.101903	8	0.013328	60	10	60-180	60	157	GapPrac	SmallFlash	1	16	2	1	1	target	1	347	827	266421	13.328	9.129	17.519
ProbeTrack13	13	ProbeTrack	13.2	SCS215b	20111107.101723	20111107.101909	8	0.013328	60	10	60-180	60	85	GapPrac	SmallFlash	1	17	2	45	0	distractor	1	474	763	267184	13.328	9.267	17.380
ProbeTrack13	13	ProbeTrack	13.2	SCS215b	20111107.101723	20111107.101916	8	0.013328	60	10	60-180	60	127	GapPrac	SmallFlash	1	18	2	1	0	distractor	1	415	793	267977	13.328	13.305	13.356
ProbeTrack13	13	ProbeTrack	13.2	SCS215b	20111107.101723	20111107.101922	8	0.013328	60	10	60-180	60	169	GapPrac	SmallFlash	1	19	2	3	1	target	1	450	775	268752	13.328	13.289	13.367
ProbeTrack13	13	ProbeTrack	13.2	SCS215b	20111107.101723	20111107.101928	8	0.013328	60	10	60-180	60	152	GapPrac	SmallFlash	1	20	2	0	1	target	1	389	806	269558	13.328	13.306	13.348
ProbeTrack13	13	ProbeTrack	13.2	SCS215b	20111107.102011	20111107.102022	8	0.013328	60	10	60-180	60	63	GapExp	SmallFlash	1	1	2	45	0	distractor	1	540	730	270288	13.385	13.101	13.552
ProbeTrack13	13	ProbeTrack	13.2	SCS215b	20111107.102011	20111107.102029	8	0.013328	60	10	60-180	60	152	GapExp	SmallFlash	1	2	2	1	0	distractor	1	531	735	271023	13.328	11.529	15.123
ProbeTrack13	13	ProbeTrack	13.2	SCS215b	20111107.102011	20111107.102036	8	0.013328	60	10	60-180	60	124	GapExp	SmallFlash	1	3	2	0	0	distractor	1	678	661	271684	13.328	11.666	14.986
ProbeTrack13	13	ProbeTrack	13.2	SCS215b	20111107.102011	20111107.102042	8	0.013328	60	10	60-180	60	100	GapExp	SmallFlash	1	4	2	1	1	target	1	408	796	272480	13.328	13.303	13.368
ProbeTrack13	13	ProbeTrack	13.2	SCS215b	20111107.102011	20111107.102047	8	0.013328	60	10	60-180	60	123	GapExp	SmallFlash	1	5	2	45	1	target	1	666	667	273147	13.328	10.796	15.858
ProbeTrack13	13	ProbeTrack	13.2	SCS215b	20111107.102011	20111107.102054	8	0.013328	60	10	60-180	60	100	GapExp	SmallFlash	1	6	2	3	1	target	1	437	782	273929	13.328	9.829	16.841
ProbeTrack13	13	ProbeTrack	13.2	SCS215b	20111107.102011	20111107.102100	8	0.013328	60	10	60-180	60	99	GapExp	SmallFlash	1	7	2	0	1	target	1	388	806	274735	13.328	13.312	13.348
ProbeTrack13	13	ProbeTrack	13.2	SCS215b	20111107.102011	20111107.102105	8	0.013328	60	10	60-180	60	110	GapExp	SmallFlash	1	8	2	3	0	target	0	396	-1000	273735	13.328	13.102	13.570
ProbeTrack13	13	ProbeTrack	13.2	SCS215b	20111107.102011	20111107.102111	8	0.013328	60	10	60-180	60	139	GapExp	SmallFlash	0	9	2	1	1	distractor	0	374	-1000	272735	13.328	12.615	14.030
ProbeTrack13	13	ProbeTrack	13.2	SCS215b	20111107.102011	20111107.102117	8	0.013328	60	10	60-180	60	103	GapExp	SmallFlash	0	10	2	1	0	distractor	1	439	781	273516	13.328	8.218	18.437
ProbeTrack13	13	ProbeTrack	13.2	SCS215b	20111107.102011	20111107.102123	8	0.013328	60	10	60-180	60	140	GapExp	SmallFlash	0	11	2	0	0	target	0	640	-1000	272516	13.328	13.309	13.362
ProbeTrack13	13	ProbeTrack	13.2	SCS215b	20111107.102011	20111107.102129	8	0.013328	60	10	60-180	60	73	GapExp	SmallFlash	0	12	2	45	1	target	1	391	805	273321	13.328	13.313	13.352
ProbeTrack13	13	ProbeTrack	13.2	SCS215b	20111107.102011	20111107.102135	8	0.013328	60	10	60-180	60	167	GapExp	SmallFlash	0	13	2	45	0	target	0	378	-1000	272321	13.328	13.203	13.448
ProbeTrack13	13	ProbeTrack	13.2	SCS215b	20111107.102011	20111107.102142	8	0.013328	60	10	60-180	60	111	GapExp	SmallFlash	0	14	2	1	0	distractor	1	480	760	273081	13.328	12.388	14.304
ProbeTrack13	13	ProbeTrack	13.2	SCS215b	20111107.102011	20111107.102148	8	0.013328	60	10	60-180	60	156	GapExp	SmallFlash	0	15	2	45	0	distractor	1	631	685	273766	13.328	13.106	13.543
ProbeTrack13	13	ProbeTrack	13.2	SCS215b	20111107.102011	20111107.102155	8	0.013328	60	10	60-180	60	97	GapExp	SmallFlash	0	16	2	0	0	distractor	1	648	676	274442	13.328	8.643	18.008
ProbeTrack13	13	ProbeTrack	13.2	SCS215b	20111107.102011	20111107.102200	8	0.013328	60	10	60-180	60	148	GapExp	SmallFlash	0	17	2	0	1	target	1	575	713	275155	13.328	11.599	15.053
ProbeTrack13	13	ProbeTrack	13.2	SCS215b	20111107.102011	20111107.102207	8	0.013328	60	10	60-180	60	91	GapExp	SmallFlash	0	18	2	45	1	distractor	0	452	-1000	274155	13.328	10.816	15.836
ProbeTrack13	13	ProbeTrack	13.2	SCS215b	20111107.102011	20111107.102213	8	0.013328	60	10	60-180	60	179	GapExp	SmallFlash	0	19	2	45	1	target	1	367	817	274972	13.328	7.858	18.800
ProbeTrack13	13	ProbeTrack	13.2	SCS215b	20111107.102011	20111107.102220	8	0.013328	60	10	60-180	60	107	GapExp	SmallFlash	0	20	2	1	1	target	1	528	736	275708	13.328	9.950	16.724
ProbeTrack13	13	ProbeTrack	13.2	SCS215b	20111107.102011	20111107.102225	8	0.013328	60	10	60-180	60	101	GapExp	SmallFlash	0	21	2	3	1	target	1	401	800	276508	13.328	13.074	13.581
ProbeTrack13	13	ProbeTrack	13.2	SCS215b	20111107.102011	20111107.102231	8	0.013328	60	10	60-180	60	98	GapExp	SmallFlash	0	22	2	1	1	target	1	388	806	277314	13.328	13.169	13.482
ProbeTrack13	13	ProbeTrack	13.2	SCS215b	20111107.102011	20111107.102236	8	0.013328	60	10	60-180	60	114	GapExp	SmallFlash	0	23	2	45	1	target	1	437	782	278096	13.328	9.839	16.812
ProbeTrack13	13	ProbeTrack	13.2	SCS215b	20111107.102011	20111107.102244	8	0.013328	60	10	60-180	60	81	GapExp	SmallFlash	0	24	2	45	0	distractor	1	438	781	278877	13.328	12.932	13.721
ProbeTrack13	13	ProbeTrack	13.2	SCS215b	20111107.102011	20111107.102250	8	0.013328	60	10	60-180	60	115	GapExp	SmallFlash	0	25	2	0	1	distractor	0	418	-1000	277877	13.328	13.086	13.570
ProbeTrack13	13	ProbeTrack	13.2	SCS215b	20111107.102011	20111107.102256	8	0.013328	60	10	60-180	60	64	GapExp	SmallFlash	0	26	2	1	0	distractor	1	696	652	278529	13.328	7.555	19.097
ProbeTrack13	13	ProbeTrack	13.2	SCS215b	20111107.102011	20111107.102302	8	0.013328	60	10	60-180	60	115	GapExp	SmallFlash	0	27	2	3	0	distractor	1	489	756	279285	13.328	9.143	17.527
ProbeTrack13	13	ProbeTrack	13.2	SCS215b	20111107.102011	20111107.102307	8	0.013328	60	10	60-180	60	101	GapExp	SmallFlash	0	28	2	0	0	distractor	1	467	767	280052	13.328	13.304	13.355
ProbeTrack13	13	ProbeTrack	13.2	SCS215b	20111107.102011	20111107.102313	8	0.013328	60	10	60-180	60	180	GapExp	SmallFlash	0	29	2	1	0	distractor	1	481	760	280812	13.328	13.104	13.550
ProbeTrack13	13	ProbeTrack	13.2	SCS215b	20111107.102011	20111107.102323	8	0.013328	60	10	60-180	60	102	GapExp	SmallFlash	0	30	2	0	0	distractor	1	708	646	281458	13.328	6.851	19.787
ProbeTrack13	13	ProbeTrack	13.2	SCS215b	20111107.102011	20111107.102328	8	0.013328	60	10	60-180	60	114	GapExp	SmallFlash	0	31	2	45	0	distractor	1	4398746	0	281458	13.328	13.308	13.359
ProbeTrack13	13	ProbeTrack	13.2	SCS215b	20111107.102011	20111107.102341	8	0.013328	60	10	60-180	60	65	GapExp	SmallFlash	0	32	2	1	1	target	1	404	798	282256	13.328	13.304	13.348
ProbeTrack13	13	ProbeTrack	13.2	SCS215b	20111107.102011	20111107.102346	8	0.013328	60	10	60-180	60	147	GapExp	SmallFlash	0	33	2	45	0	distractor	1	424	788	283044	13.328	12.168	14.485
ProbeTrack13	13	ProbeTrack	13.2	SCS215b	20111107.102011	20111107.102354	8	0.013328	60	10	60-180	60	101	GapExp	SmallFlash	0	34	2	0	0	distractor	1	469	766	283810	13.328	12.406	14.258
ProbeTrack13	13	ProbeTrack	13.2	SCS215b	20111107.102011	20111107.102359	8	0.013328	60	10	60-180	60	85	GapExp	SmallFlash	0	35	2	0	1	target	1	732	634	284444	13.328	9.908	16.744
ProbeTrack13	13	ProbeTrack	13.2	SCS215b	20111107.102011	20111107.102405	8	0.013328	60	10	60-180	60	79	GapExp	SmallFlash	0	36	2	1	0	distractor	1	552	724	285168	13.332	13.310	14.131
ProbeTrack13	13	ProbeTrack	13.2	SCS215b	20111107.102011	20111107.102410	8	0.013328	60	10	60-180	60	81	GapExp	SmallFlash	0	37	2	3	1	target	1	522	739	285907	13.328	11.180	15.472
ProbeTrack13	13	ProbeTrack	13.2	SCS215b	20111107.102011	20111107.102416	8	0.013328	60	10	60-180	60	169	GapExp	SmallFlash	0	38	2	3	1	target	1	516	742	286649	13.328	13.294	13.362
ProbeTrack13	13	ProbeTrack	13.2	SCS215b	20111107.102011	20111107.102422	8	0.013328	60	10	60-180	60	108	GapExp	SmallFlash	0	39	2	45	1	target	1	566	717	287366	13.328	8.108	18.533
ProbeTrack13	13	ProbeTrack	13.2	SCS215b	20111107.102011	20111107.102429	8	0.013328	60	10	60-180	60	109	GapExp	SmallFlash	0	40	2	1	1	target	1	447	777	288143	13.328	10.705	15.949
ProbeTrack13	13	ProbeTrack	13.2	SCS215b	20111107.102011	20111107.102434	8	0.013328	60	10	60-180	60	67	GapExp	SmallFlash	0	41	2	0	0	distractor	1	556	722	288865	13.328	8.788	17.883
ProbeTrack13	13	ProbeTrack	13.2	SCS215b	20111107.102011	20111107.102440	8	0.013328	60	10	60-180	60	178	GapExp	SmallFlash	0	42	2	45	1	target	1	550	725	289590	13.328	13.091	13.561
ProbeTrack13	13	ProbeTrack	13.2	SCS215b	20111107.102011	20111107.102447	8	0.013328	60	10	60-180	60	69	GapExp	SmallFlash	0	43	2	3	0	distractor	1	647	677	290267	13.328	6.882	19.774
ProbeTrack13	13	ProbeTrack	13.2	SCS215b	20111107.102011	20111107.102452	8	0.013328	60	10	60-180	60	172	GapExp	SmallFlash	0	44	2	0	0	distractor	1	509	746	291013	13.373	7.022	23.360
ProbeTrack13	13	ProbeTrack	13.2	SCS215b	20111107.102011	20111107.102459	8	0.013328	60	10	60-180	60	124	GapExp	SmallFlash	0	45	2	3	0	distractor	1	516	742	291755	13.328	13.284	13.357
ProbeTrack13	13	ProbeTrack	13.2	SCS215b	20111107.102011	20111107.102505	8	0.013328	60	10	60-180	60	155	GapExp	SmallFlash	0	46	2	1	1	target	1	491	755	292510	13.328	7.062	19.590
ProbeTrack13	13	ProbeTrack	13.2	SCS215b	20111107.102011	20111107.102511	8	0.013328	60	10	60-180	60	73	GapExp	SmallFlash	0	47	2	0	1	target	1	505	748	293258	13.328	10.173	16.500
ProbeTrack13	13	ProbeTrack	13.2	SCS215b	20111107.102011	20111107.102516	8	0.013328	60	10	60-180	60	167	GapExp	SmallFlash	0	48	2	1	1	target	1	369	816	294074	13.328	11.303	15.347
ProbeTrack13	13	ProbeTrack	13.2	SCS215b	20111107.102011	20111107.102522	8	0.013328	60	10	60-180	60	82	GapExp	SmallFlash	0	49	2	0	0	distractor	1	528	736	294810	13.328	10.692	15.962
ProbeTrack13	13	ProbeTrack	13.2	SCS215b	20111107.102011	20111107.102528	8	0.013328	60	10	60-180	60	145	GapExp	SmallFlash	0	50	2	1	1	target	1	456	772	295582	13.328	8.694	17.977
ProbeTrack13	13	ProbeTrack	13.2	SCS215b	20111107.102011	20111107.102534	8	0.013328	60	10	60-180	60	86	GapExp	SmallFlash	0	51	2	45	1	target	1	465	768	296350	13.328	10.153	13.349
ProbeTrack13	13	ProbeTrack	13.2	SCS215b	20111107.102011	20111107.102540	8	0.013328	60	10	60-180	60	154	GapExp	SmallFlash	0	52	2	3	0	distractor	1	494	753	297103	13.328	3.463	23.189
ProbeTrack13	13	ProbeTrack	13.2	SCS215b	20111107.102011	20111107.102547	8	0.013328	60	10	60-180	60	165	GapExp	SmallFlash	0	53	2	3	0	target	0	835	-1000	296103	13.328	11.976	14.698
ProbeTrack13	13	ProbeTrack	13.2	SCS215b	20111107.102011	20111107.102553	8	0.013328	60	10	60-180	60	100	GapExp	SmallFlash	0	54	2	45	1	target	1	505	748	296851	13.328	10.583	16.073
ProbeTrack13	13	ProbeTrack	13.2	SCS215b	20111107.102011	20111107.102559	8	0.013328	60	10	60-180	60	111	GapExp	SmallFlash	0	55	2	1	0	distractor	1	442	779	297630	13.328	9.889	16.763
ProbeTrack13	13	ProbeTrack	13.2	SCS215b	20111107.102011	20111107.102606	8	0.013328	60	10	60-180	60	126	GapExp	SmallFlash	0	56	2	3	0	distractor	1	438	781	298411	13.328	12.018	14.636
ProbeTrack13	13	ProbeTrack	13.2	SCS215b	20111107.102011	20111107.102612	8	0.013328	60	10	60-180	60	149	GapExp	SmallFlash	0	57	2	0	0	distractor	1	431	785	299196	13.328	9.169	17.504
ProbeTrack13	13	ProbeTrack	13.2	SCS215b	20111107.102011	20111107.102618	8	0.013328	60	10	60-180	60	94	GapExp	SmallFlash	0	58	2	1	0	distractor	1	745	628	299824	13.328	7.065	19.582
ProbeTrack13	13	ProbeTrack	13.2	SCS215b	20111107.102011	20111107.102624	8	0.013328	60	10	60-180	60	65	GapExp	SmallFlash	0	59	2	1	1	target	1	590	705	300529	13.328	11.529	15.123
ProbeTrack13	13	ProbeTrack	13.2	SCS215b	20111107.102011	20111107.102629	8	0.013328	60	10	60-180	60	169	GapExp	SmallFlash	0	60	2	1	1	target	1	405	798	301327	13.375	2.328	31.254
ProbeTrack13	13	ProbeTrack	13.2	SCS215b	20111107.102011	20111107.102635	8	0.013328	60	10	60-180	60	91	GapExp	SmallFlash	0	61	2	3	1	target	1	529	736	302063	13.328	10.021	16.629
ProbeTrack13	13	ProbeTrack	13.2	SCS215b	20111107.102011	20111107.102641	8	0.013328	60	10	60-180	60	95	GapExp	SmallFlash	0	62	2	0	1	target	1	523	739	302802	13.328	7.885	18.769
ProbeTrack13	13	ProbeTrack	13.2	SCS215b	20111107.102011	20111107.102647	8	0.013328	60	10	60-180	60	179	GapExp	SmallFlash	0	63	2	1	0	distractor	1	433	784	303586	13.328	12.917	13.953
ProbeTrack13	13	ProbeTrack	13.2	SCS215b	20111107.102011	20111107.102654	8	0.013328	60	10	60-180	60	66	GapExp	SmallFlash	0	64	2	45	0	distractor	1	654	673	304259	13.328	13.123	13.570
ProbeTrack13	13	ProbeTrack	13.2	SCS215b	20111107.102011	20111107.102700	8	0.013328	60	10	60-180	60	156	GapExp	SmallFlash	0	65	2	3	1	target	1	524	738	304997	13.328	7.439	19.213
ProbeTrack13	13	ProbeTrack	13.2	SCS215b	20111107.102011	20111107.102706	8	0.013328	60	10	60-180	60	63	GapExp	SmallFlash	0	66	2	3	1	target	1	407	797	305794	13.401	12.374	27.051
ProbeTrack13	13	ProbeTrack	13.2	SCS215b	20111107.102011	20111107.102711	8	0.013328	60	10	60-180	60	148	GapExp	SmallFlash	0	67	2	3	0	distractor	1	467	767	306561	13.328	12.984	13.668
