exp	sub	code	rev	comp	runtime	trialtime	nstim	refreshdur	cuedur	gapdur	gapOnsetRange	durPostProbe	gapOnsetTime	blocktype	gaptype	prac	trial	ntargets	soa	probeTarget	resp	acc	rt	pts	tpts	meanFrameDur	minFrameDur	maxFrameDur
ProbeTrack13	17	ProbeTrack	13.2	SCS215b	20111109.093138	20111109.093145	8	0.013328	60	0	60-180	60	134	NoGap	None	1	1	2	3	1	distractor	0	557	-1000	-1000	13.380	5.120	21.535
ProbeTrack13	17	ProbeTrack	13.2	SCS215b	20111109.093138	20111109.093326	8	0.013328	60	0	60-180	60	102	NoGap	None	1	2	2	45	0	target	0	435	-1000	-2000	13.328	6.376	20.284
ProbeTrack13	17	ProbeTrack	13.2	SCS215b	20111109.093138	20111109.093339	8	0.013328	60	0	60-180	60	80	NoGap	None	1	3	2	45	1	target	1	429	786	-1214	13.328	12.306	14.341
ProbeTrack13	17	ProbeTrack	13.2	SCS215b	20111109.093138	20111109.093346	8	0.013328	60	0	60-180	60	168	NoGap	None	1	4	2	0	1	target	1	388	806	-408	13.328	10.227	13.699
ProbeTrack13	17	ProbeTrack	13.2	SCS215b	20111109.093138	20111109.093353	8	0.013328	60	0	60-180	60	132	NoGap	None	1	5	2	3	1	target	1	354	823	415	13.328	5.149	21.528
ProbeTrack13	17	ProbeTrack	13.2	SCS215b	20111109.093138	20111109.093400	8	0.013328	60	0	60-180	60	119	NoGap	None	1	6	2	3	0	target	0	370	-1000	-585	13.328	10.632	16.031
ProbeTrack13	17	ProbeTrack	13.2	SCS215b	20111109.093138	20111109.093406	8	0.013328	60	0	60-180	60	171	NoGap	None	1	7	2	45	0	distractor	1	490	755	170	13.409	13.096	26.621
ProbeTrack13	17	ProbeTrack	13.2	SCS215b	20111109.093138	20111109.093414	8	0.013328	60	0	60-180	60	104	NoGap	None	1	8	2	1	1	target	1	413	794	964	13.328	9.637	17.027
ProbeTrack13	17	ProbeTrack	13.2	SCS215b	20111109.093138	20111109.093420	8	0.013328	60	0	60-180	60	174	NoGap	None	1	9	2	0	0	target	0	334	-1000	-36	13.328	12.040	14.644
ProbeTrack13	17	ProbeTrack	13.2	SCS215b	20111109.093138	20111109.093427	8	0.013328	60	0	60-180	60	130	NoGap	None	1	10	2	45	0	distractor	1	577	712	676	13.328	6.642	20.013
ProbeTrack13	17	ProbeTrack	13.2	SCS215b	20111109.093138	20111109.093437	8	0.013328	60	0	60-180	60	125	NoGap	None	1	11	2	0	1	target	1	378	811	1487	13.328	12.006	14.638
ProbeTrack13	17	ProbeTrack	13.2	SCS215b	20111109.093138	20111109.093443	8	0.013328	60	0	60-180	60	69	NoGap	None	1	12	2	0	0	distractor	1	525	738	2225	13.328	13.105	13.551
ProbeTrack13	17	ProbeTrack	13.2	SCS215b	20111109.093138	20111109.093449	8	0.013328	60	0	60-180	60	159	NoGap	None	1	13	2	0	0	distractor	1	694	653	2878	13.328	8.637	18.020
ProbeTrack13	17	ProbeTrack	13.2	SCS215b	20111109.093138	20111109.093456	8	0.013328	60	0	60-180	60	165	NoGap	None	1	14	2	45	1	distractor	0	373	-1000	1878	13.328	11.156	15.508
ProbeTrack13	17	ProbeTrack	13.2	SCS215b	20111109.093138	20111109.093503	8	0.013328	60	0	60-180	60	113	NoGap	None	1	15	2	0	1	target	1	774	613	2491	13.593	6.960	47.755
ProbeTrack13	17	ProbeTrack	13.2	SCS215b	20111109.093138	20111109.093509	8	0.013328	60	0	60-180	60	75	NoGap	None	1	16	2	0	1	target	1	615	693	3184	13.328	9.088	17.569
ProbeTrack13	17	ProbeTrack	13.2	SCS215b	20111109.093138	20111109.093515	8	0.013328	60	0	60-180	60	118	NoGap	None	1	17	2	0	0	distractor	1	460	770	3954	13.328	12.957	13.710
ProbeTrack13	17	ProbeTrack	13.2	SCS215b	20111109.093138	20111109.093521	8	0.013328	60	0	60-180	60	125	NoGap	None	1	18	2	3	0	distractor	1	531	735	4689	13.328	5.483	21.178
ProbeTrack13	17	ProbeTrack	13.2	SCS215b	20111109.093138	20111109.093528	8	0.013328	60	0	60-180	60	171	NoGap	None	1	19	2	1	0	distractor	1	486	757	5446	13.328	6.622	20.048
ProbeTrack13	17	ProbeTrack	13.2	SCS215b	20111109.093138	20111109.093535	8	0.013328	60	0	60-180	60	170	NoGap	None	1	20	2	1	1	target	1	378	811	6257	13.328	13.273	13.380
ProbeTrack13	17	ProbeTrack	13.2	SCS215b	20111109.093138	20111109.093542	8	0.013328	60	0	60-180	60	118	NoGap	None	1	21	2	1	0	distractor	1	502	749	7006	13.328	13.241	13.417
ProbeTrack13	17	ProbeTrack	13.2	SCS215b	20111109.093138	20111109.093548	8	0.013328	60	0	60-180	60	133	NoGap	None	1	22	2	45	0	distractor	1	522	739	7745	13.328	11.473	15.171
ProbeTrack13	17	ProbeTrack	13.2	SCS215b	20111109.093138	20111109.093555	8	0.013328	60	0	60-180	60	177	NoGap	None	1	23	2	45	1	target	1	329	836	8581	13.328	6.466	20.204
ProbeTrack13	17	ProbeTrack	13.2	SCS215b	20111109.093138	20111109.093602	8	0.013328	60	0	60-180	60	77	NoGap	None	1	24	2	3	0	distractor	1	445	778	9359	13.328	10.902	15.757
ProbeTrack13	17	ProbeTrack	13.2	SCS215b	20111109.093138	20111109.093608	8	0.013328	60	0	60-180	60	107	NoGap	None	1	25	2	1	1	target	1	437	782	10141	13.328	8.258	13.614
ProbeTrack13	17	ProbeTrack	13.2	SCS215b	20111109.093138	20111109.093614	8	0.013328	60	0	60-180	60	116	NoGap	None	1	26	2	3	1	target	1	536	732	10873	13.328	6.951	19.711
ProbeTrack13	17	ProbeTrack	13.2	SCS215b	20111109.093138	20111109.093620	8	0.013328	60	0	60-180	60	117	NoGap	None	1	27	2	3	1	distractor	0	356	-1000	9873	13.328	10.105	16.563
ProbeTrack13	17	ProbeTrack	13.2	SCS215b	20111109.093138	20111109.093627	8	0.013328	60	0	60-180	60	150	NoGap	None	1	28	2	1	0	target	0	776	-1000	8873	13.328	13.114	13.547
ProbeTrack13	17	ProbeTrack	13.2	SCS215b	20111109.093138	20111109.093634	8	0.013328	60	0	60-180	60	145	NoGap	None	1	29	2	1	1	target	1	371	815	9688	13.328	13.121	13.541
ProbeTrack13	17	ProbeTrack	13.2	SCS215b	20111109.093138	20111109.093640	8	0.013328	60	0	60-180	60	82	NoGap	None	1	30	2	45	0	distractor	1	510	745	10433	13.328	5.795	20.865
ProbeTrack13	17	ProbeTrack	13.2	SCS215b	20111109.093138	20111109.093647	8	0.013328	60	0	60-180	60	159	NoGap	None	1	31	2	3	1	target	1	500	750	11183	13.328	12.433	14.234
ProbeTrack13	17	ProbeTrack	13.2	SCS215b	20111109.093138	20111109.093653	8	0.013328	60	0	60-180	60	143	NoGap	None	1	32	2	1	0	distractor	1	510	745	11928	13.328	11.842	14.817
ProbeTrack13	17	ProbeTrack	13.2	SCS215b	20111109.093138	20111109.093700	8	0.013328	60	0	60-180	60	166	NoGap	None	1	33	2	0	1	target	1	379	811	12739	13.328	13.157	13.502
ProbeTrack13	17	ProbeTrack	13.2	SCS215b	20111109.093138	20111109.093706	8	0.013328	60	0	60-180	60	154	NoGap	None	1	34	2	0	0	target	0	564	-1000	11739	13.328	10.769	15.869
ProbeTrack13	17	ProbeTrack	13.2	SCS215b	20111109.093138	20111109.093713	8	0.013328	60	0	60-180	60	167	NoGap	None	1	35	2	45	1	target	1	446	777	12516	13.328	12.785	13.867
ProbeTrack13	17	ProbeTrack	13.2	SCS215b	20111109.093138	20111109.093720	8	0.013328	60	0	60-180	60	174	NoGap	None	1	36	2	1	1	target	1	380	810	13326	13.328	13.047	13.620
ProbeTrack13	17	ProbeTrack	13.2	SCS215b	20111109.093138	20111109.093726	8	0.013328	60	0	60-180	60	145	NoGap	None	1	37	2	1	0	distractor	1	483	759	14085	13.328	13.270	13.379
ProbeTrack13	17	ProbeTrack	13.2	SCS215b	20111109.093138	20111109.093733	8	0.013328	60	0	60-180	60	161	NoGap	None	1	38	2	3	0	distractor	1	485	758	14843	13.328	11.648	15.016
ProbeTrack13	17	ProbeTrack	13.2	SCS215b	20111109.093138	20111109.093740	8	0.013328	60	0	60-180	60	107	NoGap	None	1	39	2	45	1	target	1	308	846	15689	13.328	8.765	17.921
ProbeTrack13	17	ProbeTrack	13.2	SCS215b	20111109.093138	20111109.093746	8	0.013328	60	0	60-180	60	177	NoGap	None	1	40	2	3	0	distractor	1	567	717	16406	13.328	13.116	13.550
ProbeTrack13	17	ProbeTrack	13.2	SCS215b	20111109.093848	20111109.093859	8	0.013328	60	10	60-180	60	107	GapPrac	BigFlash	1	1	2	45	0	distractor	1	660	670	17076	13.374	11.301	15.400
ProbeTrack13	17	ProbeTrack	13.2	SCS215b	20111109.093848	20111109.093907	8	0.013328	60	10	60-180	60	66	GapPrac	BigFlash	1	2	2	3	1	target	1	680	660	17736	13.328	12.256	14.428
ProbeTrack13	17	ProbeTrack	13.2	SCS215b	20111109.093848	20111109.093913	8	0.013328	60	10	60-180	60	90	GapPrac	BigFlash	1	3	2	1	0	distractor	1	361	820	18556	13.328	4.827	21.827
ProbeTrack13	17	ProbeTrack	13.2	SCS215b	20111109.093848	20111109.093919	8	0.013328	60	10	60-180	60	78	GapPrac	BigFlash	1	4	2	0	0	distractor	1	359	821	19377	13.328	11.152	15.501
ProbeTrack13	17	ProbeTrack	13.2	SCS215b	20111109.093848	20111109.093924	8	0.013328	60	10	60-180	60	120	GapPrac	BigFlash	1	5	2	45	0	distractor	1	433	784	20161	13.328	13.102	13.551
ProbeTrack13	17	ProbeTrack	13.2	SCS215b	20111109.093848	20111109.093930	8	0.013328	60	10	60-180	60	71	GapPrac	BigFlash	1	6	2	0	0	distractor	1	489	756	20917	13.328	13.084	13.568
ProbeTrack13	17	ProbeTrack	13.2	SCS215b	20111109.093848	20111109.093936	8	0.013328	60	10	60-180	60	130	GapPrac	BigFlash	1	7	2	45	1	target	1	429	786	21703	13.328	11.734	14.920
ProbeTrack13	17	ProbeTrack	13.2	SCS215b	20111109.093848	20111109.093943	8	0.013328	60	10	60-180	60	117	GapPrac	BigFlash	1	8	2	0	0	distractor	1	441	780	22483	13.328	11.922	14.727
ProbeTrack13	17	ProbeTrack	13.2	SCS215b	20111109.093848	20111109.093948	8	0.013328	60	10	60-180	60	92	GapPrac	BigFlash	1	9	2	3	1	target	1	391	805	23288	13.328	7.327	19.343
ProbeTrack13	17	ProbeTrack	13.2	SCS215b	20111109.093848	20111109.093954	8	0.013328	60	10	60-180	60	137	GapPrac	BigFlash	1	10	2	1	1	target	1	412	794	24082	13.328	13.309	13.378
ProbeTrack13	17	ProbeTrack	13.2	SCS215b	20111109.093848	20111109.094000	8	0.013328	60	10	60-180	60	172	GapPrac	BigFlash	1	11	2	45	0	distractor	1	445	778	24860	13.328	7.611	19.050
ProbeTrack13	17	ProbeTrack	13.2	SCS215b	20111109.093848	20111109.094007	8	0.013328	60	10	60-180	60	133	GapPrac	BigFlash	1	12	2	1	0	distractor	1	535	733	25593	13.328	13.088	13.559
ProbeTrack13	17	ProbeTrack	13.2	SCS215b	20111109.093848	20111109.094013	8	0.013328	60	10	60-180	60	176	GapPrac	BigFlash	1	13	2	1	1	target	1	373	814	26407	13.328	12.065	14.601
ProbeTrack13	17	ProbeTrack	13.2	SCS215b	20111109.093848	20111109.094020	8	0.013328	60	10	60-180	60	120	GapPrac	BigFlash	1	14	2	45	1	target	1	388	806	27213	13.328	5.856	20.793
ProbeTrack13	17	ProbeTrack	13.2	SCS215b	20111109.093848	20111109.094026	8	0.013328	60	10	60-180	60	132	GapPrac	BigFlash	1	15	2	3	1	target	1	391	805	28018	13.328	12.312	14.339
ProbeTrack13	17	ProbeTrack	13.2	SCS215b	20111109.093848	20111109.094032	8	0.013328	60	10	60-180	60	117	GapPrac	BigFlash	1	16	2	0	1	target	1	352	824	28842	13.328	9.471	17.179
ProbeTrack13	17	ProbeTrack	13.2	SCS215b	20111109.093848	20111109.094038	8	0.013328	60	10	60-180	60	88	GapPrac	BigFlash	1	17	2	0	1	target	1	346	827	29669	13.328	13.290	13.360
ProbeTrack13	17	ProbeTrack	13.2	SCS215b	20111109.093848	20111109.094044	8	0.013328	60	10	60-180	60	104	GapPrac	BigFlash	1	18	2	3	0	distractor	1	446	777	30446	13.328	5.037	21.627
ProbeTrack13	17	ProbeTrack	13.2	SCS215b	20111109.093848	20111109.094050	8	0.013328	60	10	60-180	60	137	GapPrac	BigFlash	1	19	2	1	0	distractor	1	378	811	31257	13.328	13.137	13.510
ProbeTrack13	17	ProbeTrack	13.2	SCS215b	20111109.093848	20111109.094056	8	0.013328	60	10	60-180	60	93	GapPrac	BigFlash	1	20	2	3	0	distractor	1	481	760	32017	13.328	12.716	13.948
ProbeTrack13	17	ProbeTrack	13.2	SCS215b	20111109.094141	20111109.094146	8	0.013328	60	10	60-180	60	173	GapExp	BigFlash	1	1	2	1	0	distractor	1	368	816	32833	13.374	12.530	14.120
ProbeTrack13	17	ProbeTrack	13.2	SCS215b	20111109.094141	20111109.094201	8	0.013328	60	10	60-180	60	89	GapExp	BigFlash	1	2	2	45	0	distractor	1	440	780	33613	13.328	10.132	16.567
ProbeTrack13	17	ProbeTrack	13.2	SCS215b	20111109.094141	20111109.094207	8	0.013328	60	10	60-180	60	130	GapExp	BigFlash	1	3	2	45	1	target	1	322	839	34452	13.328	13.039	13.624
ProbeTrack13	17	ProbeTrack	13.2	SCS215b	20111109.094141	20111109.094214	8	0.013328	60	10	60-180	60	134	GapExp	BigFlash	1	4	2	3	0	distractor	1	416	792	35244	13.328	9.886	16.764
ProbeTrack13	17	ProbeTrack	13.2	SCS215b	20111109.094141	20111109.094220	8	0.013328	60	10	60-180	60	171	GapExp	BigFlash	1	5	2	0	0	distractor	1	507	747	35991	13.328	6.384	20.265
ProbeTrack13	17	ProbeTrack	13.2	SCS215b	20111109.094141	20111109.094227	8	0.013328	60	10	60-180	60	142	GapExp	BigFlash	1	6	2	3	1	target	1	406	797	36788	13.328	11.139	15.521
ProbeTrack13	17	ProbeTrack	13.2	SCS215b	20111109.094141	20111109.094234	8	0.013328	60	10	60-180	60	85	GapExp	BigFlash	1	7	2	1	1	target	1	411	795	37583	13.328	13.107	13.557
ProbeTrack13	17	ProbeTrack	13.2	SCS215b	20111109.094141	20111109.094239	8	0.013328	60	10	60-180	60	73	GapExp	BigFlash	1	8	2	0	1	target	1	402	799	38382	13.328	6.530	20.130
ProbeTrack13	17	ProbeTrack	13.2	SCS215b	20111109.094141	20111109.094244	8	0.013328	60	10	60-180	60	80	GapExp	BigFlash	0	9	2	1	0	distractor	1	409	796	39178	13.328	7.758	18.906
ProbeTrack13	17	ProbeTrack	13.2	SCS215b	20111109.094141	20111109.094249	8	0.013328	60	10	60-180	60	120	GapExp	BigFlash	0	10	2	45	0	distractor	1	381	810	39988	13.328	6.624	20.029
ProbeTrack13	17	ProbeTrack	13.2	SCS215b	20111109.094141	20111109.094256	8	0.013328	60	10	60-180	60	140	GapExp	BigFlash	0	11	2	0	1	target	1	332	834	40822	13.328	12.614	14.014
ProbeTrack13	17	ProbeTrack	13.2	SCS215b	20111109.094141	20111109.094302	8	0.013328	60	10	60-180	60	100	GapExp	BigFlash	0	12	2	1	0	distractor	1	415	793	41615	13.328	10.015	16.645
ProbeTrack13	17	ProbeTrack	13.2	SCS215b	20111109.094141	20111109.094308	8	0.013328	60	10	60-180	60	123	GapExp	BigFlash	0	13	2	45	0	distractor	1	603	699	42314	13.328	12.313	14.354
ProbeTrack13	17	ProbeTrack	13.2	SCS215b	20111109.094141	20111109.094315	8	0.013328	60	10	60-180	60	132	GapExp	BigFlash	0	14	2	45	0	distractor	1	361	820	43134	13.328	4.320	22.329
ProbeTrack13	17	ProbeTrack	13.2	SCS215b	20111109.094141	20111109.094322	8	0.013328	60	10	60-180	60	74	GapExp	BigFlash	0	15	2	45	1	target	1	404	798	43932	13.328	11.010	15.628
ProbeTrack13	17	ProbeTrack	13.2	SCS215b	20111109.094141	20111109.094328	8	0.013328	60	10	60-180	60	94	GapExp	BigFlash	0	16	2	3	0	distractor	1	443	779	44711	13.328	8.269	18.374
ProbeTrack13	17	ProbeTrack	13.2	SCS215b	20111109.094141	20111109.094333	8	0.013328	60	10	60-180	60	90	GapExp	BigFlash	0	17	2	1	1	target	1	365	818	45529	13.328	7.907	18.726
ProbeTrack13	17	ProbeTrack	13.2	SCS215b	20111109.094141	20111109.094339	8	0.013328	60	10	60-180	60	129	GapExp	BigFlash	0	18	2	3	1	target	1	319	841	46370	13.328	13.064	13.604
ProbeTrack13	17	ProbeTrack	13.2	SCS215b	20111109.094141	20111109.094346	8	0.013328	60	10	60-180	60	76	GapExp	BigFlash	0	19	2	0	1	target	1	336	832	47202	13.328	8.515	13.349
ProbeTrack13	17	ProbeTrack	13.2	SCS215b	20111109.094141	20111109.094351	8	0.013328	60	10	60-180	60	135	GapExp	BigFlash	0	20	2	45	1	target	1	283	859	48061	13.328	12.972	13.683
ProbeTrack13	17	ProbeTrack	13.2	SCS215b	20111109.094141	20111109.094357	8	0.013328	60	10	60-180	60	158	GapExp	BigFlash	0	21	2	45	1	target	1	301	850	48911	13.328	13.084	13.572
ProbeTrack13	17	ProbeTrack	13.2	SCS215b	20111109.094141	20111109.094404	8	0.013328	60	10	60-180	60	97	GapExp	BigFlash	0	22	2	45	0	distractor	1	401	800	49711	13.328	5.419	21.235
ProbeTrack13	17	ProbeTrack	13.2	SCS215b	20111109.094141	20111109.094411	8	0.013328	60	10	60-180	60	121	GapExp	BigFlash	0	23	2	3	1	target	1	371	815	50526	13.328	10.035	16.628
ProbeTrack13	17	ProbeTrack	13.2	SCS215b	20111109.094141	20111109.094417	8	0.013328	60	10	60-180	60	85	GapExp	BigFlash	0	24	2	3	1	target	1	344	828	51354	13.328	13.304	13.355
ProbeTrack13	17	ProbeTrack	13.2	SCS215b	20111109.094141	20111109.094422	8	0.013328	60	10	60-180	60	168	GapExp	BigFlash	0	25	2	3	1	target	1	387	807	52161	13.328	13.292	13.356
ProbeTrack13	17	ProbeTrack	13.2	SCS215b	20111109.094141	20111109.094429	8	0.013328	60	10	60-180	60	156	GapExp	BigFlash	0	26	2	45	1	target	1	351	825	52986	13.328	9.972	16.676
ProbeTrack13	17	ProbeTrack	13.2	SCS215b	20111109.094141	20111109.094436	8	0.013328	60	10	60-180	60	68	GapExp	BigFlash	0	27	2	1	0	distractor	1	528	736	53722	13.328	13.283	13.378
ProbeTrack13	17	ProbeTrack	13.2	SCS215b	20111109.094141	20111109.094442	8	0.013328	60	10	60-180	60	85	GapExp	BigFlash	0	28	2	1	0	distractor	1	420	790	54512	13.328	7.890	18.759
ProbeTrack13	17	ProbeTrack	13.2	SCS215b	20111109.094141	20111109.094448	8	0.013328	60	10	60-180	60	100	GapExp	BigFlash	0	29	2	45	0	distractor	1	371	815	55327	13.328	11.526	15.126
ProbeTrack13	17	ProbeTrack	13.2	SCS215b	20111109.094141	20111109.094454	8	0.013328	60	10	60-180	60	130	GapExp	BigFlash	0	30	2	0	0	distractor	1	727	637	55964	13.328	8.512	18.159
ProbeTrack13	17	ProbeTrack	13.2	SCS215b	20111109.094141	20111109.094501	8	0.013328	60	10	60-180	60	108	GapExp	BigFlash	0	31	2	45	1	target	1	406	797	56761	13.328	7.504	19.157
ProbeTrack13	17	ProbeTrack	13.2	SCS215b	20111109.094141	20111109.094509	8	0.013328	60	10	60-180	60	96	GapExp	BigFlash	0	32	2	1	1	target	1	524	738	57499	13.328	12.462	14.194
ProbeTrack13	17	ProbeTrack	13.2	SCS215b	20111109.094141	20111109.094515	8	0.013328	60	10	60-180	60	163	GapExp	BigFlash	0	33	2	45	0	distractor	1	375	813	58312	13.328	13.105	13.570
ProbeTrack13	17	ProbeTrack	13.2	SCS215b	20111109.094141	20111109.094522	8	0.013328	60	10	60-180	60	96	GapExp	BigFlash	0	34	2	3	0	distractor	1	384	808	59120	13.328	13.099	13.552
ProbeTrack13	17	ProbeTrack	13.2	SCS215b	20111109.094141	20111109.094528	8	0.013328	60	10	60-180	60	139	GapExp	BigFlash	0	35	2	3	1	target	1	352	824	59944	13.328	13.086	13.552
ProbeTrack13	17	ProbeTrack	13.2	SCS215b	20111109.094141	20111109.094535	8	0.013328	60	10	60-180	60	179	GapExp	BigFlash	0	36	2	1	0	distractor	1	500	750	60694	13.328	11.283	15.381
ProbeTrack13	17	ProbeTrack	13.2	SCS215b	20111109.094141	20111109.094543	8	0.013328	60	10	60-180	60	180	GapExp	BigFlash	0	37	2	1	1	target	1	363	819	61513	13.463	5.423	39.947
ProbeTrack13	17	ProbeTrack	13.2	SCS215b	20111109.094141	20111109.094550	8	0.013328	60	10	60-180	60	96	GapExp	BigFlash	0	38	2	1	0	distractor	1	349	826	62339	13.328	7.971	18.678
ProbeTrack13	17	ProbeTrack	13.2	SCS215b	20111109.094141	20111109.094556	8	0.013328	60	10	60-180	60	120	GapExp	BigFlash	0	39	2	0	1	target	1	357	822	63161	13.328	9.900	16.839
ProbeTrack13	17	ProbeTrack	13.2	SCS215b	20111109.094141	20111109.094601	8	0.013328	60	10	60-180	60	65	GapExp	BigFlash	0	40	2	3	1	target	1	519	741	63902	13.328	11.999	14.669
ProbeTrack13	17	ProbeTrack	13.2	SCS215b	20111109.094141	20111109.094607	8	0.013328	60	10	60-180	60	105	GapExp	BigFlash	0	41	2	45	1	target	1	366	817	64719	13.328	3.556	23.095
ProbeTrack13	17	ProbeTrack	13.2	SCS215b	20111109.094141	20111109.094614	8	0.013328	60	10	60-180	60	115	GapExp	BigFlash	0	42	2	1	0	distractor	1	455	773	65492	13.328	11.869	14.767
ProbeTrack13	17	ProbeTrack	13.2	SCS215b	20111109.094141	20111109.094619	8	0.013328	60	10	60-180	60	75	GapExp	BigFlash	0	43	2	0	1	target	1	422	789	66281	13.328	11.324	15.306
ProbeTrack13	17	ProbeTrack	13.2	SCS215b	20111109.094141	20111109.094625	8	0.013328	60	10	60-180	60	119	GapExp	BigFlash	0	44	2	0	0	distractor	1	462	769	67050	13.328	12.642	14.028
ProbeTrack13	17	ProbeTrack	13.2	SCS215b	20111109.094141	20111109.094632	8	0.013328	60	10	60-180	60	167	GapExp	BigFlash	0	45	2	3	0	distractor	1	400	800	67850	13.328	7.760	18.894
ProbeTrack13	17	ProbeTrack	13.2	SCS215b	20111109.094141	20111109.094638	8	0.013328	60	10	60-180	60	90	GapExp	BigFlash	0	46	2	0	0	distractor	1	404	798	68648	13.328	4.003	22.661
ProbeTrack13	17	ProbeTrack	13.2	SCS215b	20111109.094141	20111109.094644	8	0.013328	60	10	60-180	60	150	GapExp	BigFlash	0	47	2	3	1	target	1	388	806	69454	13.328	6.280	20.355
ProbeTrack13	17	ProbeTrack	13.2	SCS215b	20111109.094141	20111109.094650	8	0.013328	60	10	60-180	60	83	GapExp	BigFlash	0	48	2	0	1	target	1	381	810	70264	13.328	9.166	17.499
ProbeTrack13	17	ProbeTrack	13.2	SCS215b	20111109.094141	20111109.094657	8	0.013328	60	10	60-180	60	179	GapExp	BigFlash	0	49	2	45	1	target	1	393	804	71068	13.328	3.704	22.968
ProbeTrack13	17	ProbeTrack	13.2	SCS215b	20111109.094141	20111109.094704	8	0.013328	60	10	60-180	60	131	GapExp	BigFlash	0	50	2	3	0	distractor	1	494	753	71821	13.328	4.545	22.117
ProbeTrack13	17	ProbeTrack	13.2	SCS215b	20111109.094141	20111109.094710	8	0.013328	60	10	60-180	60	94	GapExp	BigFlash	0	51	2	45	1	target	1	328	836	72657	13.328	9.185	17.471
ProbeTrack13	17	ProbeTrack	13.2	SCS215b	20111109.094141	20111109.094722	8	0.013328	60	10	60-180	60	164	GapExp	BigFlash	0	52	2	1	0	distractor	1	562	719	73376	13.340	9.362	17.294
ProbeTrack13	17	ProbeTrack	13.2	SCS215b	20111109.094141	20111109.094730	8	0.013328	60	10	60-180	60	113	GapExp	BigFlash	0	53	2	3	0	distractor	1	473	764	74140	13.328	6.807	19.848
ProbeTrack13	17	ProbeTrack	13.2	SCS215b	20111109.094141	20111109.094736	8	0.013328	60	10	60-180	60	157	GapExp	BigFlash	0	54	2	45	1	target	1	351	825	74965	13.328	10.011	16.655
ProbeTrack13	17	ProbeTrack	13.2	SCS215b	20111109.094141	20111109.094742	8	0.013328	60	10	60-180	60	140	GapExp	BigFlash	0	55	2	1	1	target	1	441	780	75745	13.328	13.099	13.559
ProbeTrack13	17	ProbeTrack	13.2	SCS215b	20111109.094141	20111109.094749	8	0.013328	60	10	60-180	60	162	GapExp	BigFlash	0	56	2	0	1	target	1	324	838	76583	13.377	10.117	26.684
ProbeTrack13	17	ProbeTrack	13.2	SCS215b	20111109.094141	20111109.094755	8	0.013328	60	10	60-180	60	161	GapExp	BigFlash	0	57	2	45	1	target	1	353	824	77407	13.328	5.174	21.482
ProbeTrack13	17	ProbeTrack	13.2	SCS215b	20111109.094141	20111109.094803	8	0.013328	60	10	60-180	60	87	GapExp	BigFlash	0	58	2	1	1	target	1	386	807	78214	13.328	7.728	18.925
ProbeTrack13	17	ProbeTrack	13.2	SCS215b	20111109.094141	20111109.094808	8	0.013328	60	10	60-180	60	168	GapExp	BigFlash	0	59	2	3	0	distractor	1	435	783	78997	13.328	7.740	18.685
ProbeTrack13	17	ProbeTrack	13.2	SCS215b	20111109.094141	20111109.094815	8	0.013328	60	10	60-180	60	172	GapExp	BigFlash	0	60	2	0	0	distractor	1	402	799	79796	13.374	4.685	30.032
ProbeTrack13	17	ProbeTrack	13.2	SCS215b	20111109.094141	20111109.094822	8	0.013328	60	10	60-180	60	105	GapExp	BigFlash	0	61	2	45	0	distractor	1	464	768	80564	13.328	8.281	18.471
ProbeTrack13	17	ProbeTrack	13.2	SCS215b	20111109.094141	20111109.094829	8	0.013328	60	10	60-180	60	177	GapExp	BigFlash	0	62	2	0	0	distractor	1	418	791	81355	13.298	4.380	20.444
ProbeTrack13	17	ProbeTrack	13.2	SCS215b	20111109.094141	20111109.094836	8	0.013328	60	10	60-180	60	115	GapExp	BigFlash	0	63	2	45	0	distractor	1	437	782	82137	13.328	11.899	14.761
ProbeTrack13	17	ProbeTrack	13.2	SCS215b	20111109.094141	20111109.094843	8	0.013328	60	10	60-180	60	154	GapExp	BigFlash	0	64	2	1	0	distractor	1	439	781	82918	13.328	4.863	21.782
ProbeTrack13	17	ProbeTrack	13.2	SCS215b	20111109.094141	20111109.094850	8	0.013328	60	10	60-180	60	73	GapExp	BigFlash	0	65	2	1	0	distractor	1	479	761	83679	13.328	10.444	16.206
ProbeTrack13	17	ProbeTrack	13.2	SCS215b	20111109.094141	20111109.094856	8	0.013328	60	10	60-180	60	92	GapExp	BigFlash	0	66	2	45	0	distractor	1	430	785	84464	13.328	8.962	16.882
ProbeTrack13	17	ProbeTrack	13.2	SCS215b	20111109.094141	20111109.094902	8	0.013328	60	10	60-180	60	92	GapExp	BigFlash	0	67	2	0	0	distractor	1	419	791	85255	13.328	4.143	22.523
ProbeTrack13	17	ProbeTrack	13.2	SCS215b	20111109.094141	20111109.094908	8	0.013328	60	10	60-180	60	109	GapExp	BigFlash	0	68	2	0	1	target	1	343	829	86084	13.328	13.272	13.384
ProbeTrack13	17	ProbeTrack	13.2	SCS215b	20111109.094141	20111109.094914	8	0.013328	60	10	60-180	60	112	GapExp	BigFlash	0	69	2	1	1	distractor	0	348	-1000	85084	13.328	8.959	17.701
ProbeTrack13	17	ProbeTrack	13.2	SCS215b	20111109.094141	20111109.094919	8	0.013328	60	10	60-180	60	136	GapExp	BigFlash	0	70	2	3	0	distractor	1	616	692	85776	13.328	3.912	22.753
ProbeTrack13	17	ProbeTrack	13.2	SCS215b	20111109.094141	20111109.094927	8	0.013328	60	10	60-180	60	74	GapExp	BigFlash	0	71	2	45	1	target	1	379	811	86587	13.328	11.244	15.413
ProbeTrack13	17	ProbeTrack	13.2	SCS215b	20111109.094141	20111109.094933	8	0.013328	60	10	60-180	60	165	GapExp	BigFlash	0	72	2	1	0	distractor	1	422	789	87376	13.328	5.896	20.781
ProbeTrack13	17	ProbeTrack	13.2	SCS215b	20111109.094141	20111109.094940	8	0.013328	60	10	60-180	60	119	GapExp	BigFlash	0	73	2	0	1	target	1	406	797	88173	13.328	6.922	19.728
ProbeTrack13	17	ProbeTrack	13.2	SCS215b	20111109.094141	20111109.094946	8	0.013328	60	10	60-180	60	157	GapExp	BigFlash	0	74	2	1	1	target	1	358	821	88994	13.328	8.584	18.069
ProbeTrack13	17	ProbeTrack	13.2	SCS215b	20111109.094141	20111109.094953	8	0.013328	60	10	60-180	60	161	GapExp	BigFlash	0	75	2	1	0	distractor	1	415	793	89787	13.328	12.736	13.921
ProbeTrack13	17	ProbeTrack	13.2	SCS215b	20111109.094141	20111109.095001	8	0.013328	60	10	60-180	60	154	GapExp	BigFlash	0	76	2	3	0	distractor	1	410	795	90582	13.328	8.979	17.702
ProbeTrack13	17	ProbeTrack	13.2	SCS215b	20111109.094141	20111109.095007	8	0.013328	60	10	60-180	60	70	GapExp	BigFlash	0	77	2	3	0	distractor	1	500	750	91332	13.328	13.306	13.352
ProbeTrack13	17	ProbeTrack	13.2	SCS215b	20111109.094141	20111109.095013	8	0.013328	60	10	60-180	60	79	GapExp	BigFlash	0	78	2	3	1	target	1	357	822	92154	13.328	10.925	15.735
ProbeTrack13	17	ProbeTrack	13.2	SCS215b	20111109.094141	20111109.095019	8	0.013328	60	10	60-180	60	90	GapExp	BigFlash	0	79	2	1	0	distractor	1	523	739	92893	13.357	3.682	22.969
ProbeTrack13	17	ProbeTrack	13.2	SCS215b	20111109.094141	20111109.095025	8	0.013328	60	10	60-180	60	90	GapExp	BigFlash	0	80	2	3	0	distractor	1	373	814	93707	13.328	11.149	15.511
ProbeTrack13	17	ProbeTrack	13.2	SCS215b	20111109.094141	20111109.095031	8	0.013328	60	10	60-180	60	119	GapExp	BigFlash	0	81	2	3	1	target	1	341	830	94537	13.328	9.894	16.774
ProbeTrack13	17	ProbeTrack	13.2	SCS215b	20111109.094141	20111109.095036	8	0.013328	60	10	60-180	60	89	GapExp	BigFlash	0	82	2	0	0	distractor	1	477	762	95299	13.328	5.304	21.349
ProbeTrack13	17	ProbeTrack	13.2	SCS215b	20111109.094141	20111109.095042	8	0.013328	60	10	60-180	60	84	GapExp	BigFlash	0	83	2	3	1	target	1	341	830	96129	13.328	9.121	17.511
ProbeTrack13	17	ProbeTrack	13.2	SCS215b	20111109.094141	20111109.095048	8	0.013328	60	10	60-180	60	142	GapExp	BigFlash	0	84	2	45	1	target	1	453	774	96903	13.328	11.918	14.746
ProbeTrack13	17	ProbeTrack	13.2	SCS215b	20111109.094141	20111109.095055	8	0.013328	60	10	60-180	60	86	GapExp	BigFlash	0	85	2	0	0	distractor	1	594	703	97606	13.328	13.101	13.546
ProbeTrack13	17	ProbeTrack	13.2	SCS215b	20111109.094141	20111109.095101	8	0.013328	60	10	60-180	60	100	GapExp	BigFlash	0	86	2	3	0	distractor	1	431	785	98391	13.328	12.077	14.595
ProbeTrack13	17	ProbeTrack	13.2	SCS215b	20111109.094141	20111109.095107	8	0.013328	60	10	60-180	60	117	GapExp	BigFlash	0	87	2	3	0	distractor	1	473	764	99155	13.328	5.651	20.996
ProbeTrack13	17	ProbeTrack	13.2	SCS215b	20111109.094141	20111109.095113	8	0.013328	60	10	60-180	60	92	GapExp	BigFlash	0	88	2	3	1	target	1	461	770	99925	13.328	13.303	13.353
ProbeTrack13	17	ProbeTrack	13.2	SCS215b	20111109.094141	20111109.095120	8	0.013328	60	10	60-180	60	124	GapExp	BigFlash	0	89	2	45	0	distractor	1	476	762	100687	13.328	9.228	17.414
ProbeTrack13	17	ProbeTrack	13.2	SCS215b	20111109.094141	20111109.095127	8	0.013328	60	10	60-180	60	173	GapExp	BigFlash	0	90	2	0	1	target	1	387	807	101494	13.374	8.386	20.783
ProbeTrack13	17	ProbeTrack	13.2	SCS215b	20111109.094141	20111109.095134	8	0.013328	60	10	60-180	60	155	GapExp	BigFlash	0	91	2	0	1	target	1	439	781	102275	13.328	10.549	16.124
ProbeTrack13	17	ProbeTrack	13.2	SCS215b	20111109.094141	20111109.095140	8	0.013328	60	10	60-180	60	115	GapExp	BigFlash	0	92	2	1	0	distractor	1	480	760	103035	13.328	6.885	19.780
ProbeTrack13	17	ProbeTrack	13.2	SCS215b	20111109.094141	20111109.095147	8	0.013328	60	10	60-180	60	82	GapExp	BigFlash	0	93	2	45	0	distractor	1	476	762	103797	13.311	5.796	20.871
ProbeTrack13	17	ProbeTrack	13.2	SCS215b	20111109.094141	20111109.095153	8	0.013328	60	10	60-180	60	151	GapExp	BigFlash	0	94	2	45	1	target	1	461	770	104567	13.328	9.278	17.374
ProbeTrack13	17	ProbeTrack	13.2	SCS215b	20111109.094141	20111109.095200	8	0.013328	60	10	60-180	60	133	GapExp	BigFlash	0	95	2	3	1	target	1	396	802	105369	13.328	10.233	16.430
ProbeTrack13	17	ProbeTrack	13.2	SCS215b	20111109.094141	20111109.095206	8	0.013328	60	10	60-180	60	146	GapExp	BigFlash	0	96	2	3	0	distractor	1	485	758	106127	13.328	3.347	23.314
ProbeTrack13	17	ProbeTrack	13.2	SCS215b	20111109.094141	20111109.095213	8	0.013328	60	10	60-180	60	172	GapExp	BigFlash	0	97	2	3	1	target	1	388	806	106933	13.328	6.097	20.543
ProbeTrack13	17	ProbeTrack	13.2	SCS215b	20111109.094141	20111109.095219	8	0.013328	60	10	60-180	60	104	GapExp	BigFlash	0	98	2	3	0	distractor	1	481	760	107693	13.328	4.748	21.903
ProbeTrack13	17	ProbeTrack	13.2	SCS215b	20111109.094141	20111109.095226	8	0.013328	60	10	60-180	60	139	GapExp	BigFlash	0	99	2	0	0	distractor	1	416	792	108485	13.328	5.620	21.033
ProbeTrack13	17	ProbeTrack	13.2	SCS215b	20111109.094141	20111109.095232	8	0.013328	60	10	60-180	60	67	GapExp	BigFlash	0	100	2	3	1	target	1	403	799	109284	13.328	12.192	13.832
ProbeTrack13	17	ProbeTrack	13.2	SCS215b	20111109.094141	20111109.095237	8	0.013328	60	10	60-180	60	147	GapExp	BigFlash	0	101	2	0	1	target	1	398	801	110085	13.328	10.463	16.185
ProbeTrack13	17	ProbeTrack	13.2	SCS215b	20111109.094141	20111109.095305	8	0.013328	60	10	60-180	60	126	GapExp	BigFlash	0	102	2	45	0	distractor	1	437	782	110867	13.328	6.787	19.859
ProbeTrack13	17	ProbeTrack	13.2	SCS215b	20111109.094141	20111109.095312	8	0.013328	60	10	60-180	60	168	GapExp	BigFlash	0	103	2	1	1	target	1	404	798	111665	13.328	10.696	15.957
ProbeTrack13	17	ProbeTrack	13.2	SCS215b	20111109.094141	20111109.095318	8	0.013328	60	10	60-180	60	166	GapExp	BigFlash	0	104	2	1	1	target	1	393	804	112469	13.328	4.577	22.089
ProbeTrack13	17	ProbeTrack	13.2	SCS215b	20111109.094141	20111109.095325	8	0.013328	60	10	60-180	60	123	GapExp	BigFlash	0	105	2	45	1	target	1	411	795	113264	13.328	7.685	18.966
ProbeTrack13	17	ProbeTrack	13.2	SCS215b	20111109.094141	20111109.095332	8	0.013328	60	10	60-180	60	124	GapExp	BigFlash	0	106	2	45	0	distractor	1	517	742	114006	13.328	12.715	13.944
ProbeTrack13	17	ProbeTrack	13.2	SCS215b	20111109.094141	20111109.095340	8	0.013328	60	10	60-180	60	77	GapExp	BigFlash	0	107	2	3	0	distractor	1	474	763	114769	13.328	11.872	14.788
ProbeTrack13	17	ProbeTrack	13.2	SCS215b	20111109.094141	20111109.095345	8	0.013328	60	10	60-180	60	96	GapExp	BigFlash	0	108	2	1	0	distractor	1	638	681	115450	13.328	10.593	16.077
ProbeTrack13	17	ProbeTrack	13.2	SCS215b	20111109.094141	20111109.095351	8	0.013328	60	10	60-180	60	78	GapExp	BigFlash	0	109	2	45	1	target	1	432	784	116234	13.328	11.110	15.542
ProbeTrack13	17	ProbeTrack	13.2	SCS215b	20111109.094141	20111109.095357	8	0.013328	60	10	60-180	60	117	GapExp	BigFlash	0	110	2	1	0	distractor	1	418	791	117025	13.328	8.180	18.479
ProbeTrack13	17	ProbeTrack	13.2	SCS215b	20111109.094141	20111109.095403	8	0.013328	60	10	60-180	60	90	GapExp	BigFlash	0	111	2	1	1	target	1	409	796	117821	13.328	10.510	16.151
ProbeTrack13	17	ProbeTrack	13.2	SCS215b	20111109.094141	20111109.095409	8	0.013328	60	10	60-180	60	117	GapExp	BigFlash	0	112	2	1	1	target	1	387	807	118628	13.328	12.999	13.667
ProbeTrack13	17	ProbeTrack	13.2	SCS215b	20111109.094141	20111109.095415	8	0.013328	60	10	60-180	60	121	GapExp	BigFlash	0	113	2	3	0	distractor	1	442	779	119407	13.328	13.097	13.543
ProbeTrack13	17	ProbeTrack	13.2	SCS215b	20111109.094141	20111109.095421	8	0.013328	60	10	60-180	60	168	GapExp	BigFlash	0	114	2	45	0	distractor	1	498	751	120158	13.332	8.005	23.376
ProbeTrack13	17	ProbeTrack	13.2	SCS215b	20111109.094141	20111109.095428	8	0.013328	60	10	60-180	60	66	GapExp	BigFlash	0	115	2	1	1	target	1	507	747	120905	13.328	10.020	16.647
ProbeTrack13	17	ProbeTrack	13.2	SCS215b	20111109.094141	20111109.095434	8	0.013328	60	10	60-180	60	71	GapExp	BigFlash	0	116	2	0	0	distractor	1	484	758	121663	13.328	13.098	13.555
ProbeTrack13	17	ProbeTrack	13.2	SCS215b	20111109.094141	20111109.095439	8	0.013328	60	10	60-180	60	169	GapExp	BigFlash	0	117	2	0	1	target	1	371	815	122478	13.328	13.123	13.527
ProbeTrack13	17	ProbeTrack	13.2	SCS215b	20111109.094141	20111109.095446	8	0.013328	60	10	60-180	60	161	GapExp	BigFlash	0	118	2	3	1	target	1	321	840	123318	13.425	10.656	39.063
ProbeTrack13	17	ProbeTrack	13.2	SCS215b	20111109.094141	20111109.095453	8	0.013328	60	10	60-180	60	157	GapExp	BigFlash	0	119	2	0	1	target	1	451	775	124093	13.328	10.552	16.104
ProbeTrack13	17	ProbeTrack	13.2	SCS215b	20111109.094141	20111109.095459	8	0.013328	60	10	60-180	60	121	GapExp	BigFlash	0	120	2	0	0	distractor	1	414	793	124886	13.328	6.072	20.575
ProbeTrack13	17	ProbeTrack	13.2	SCS215b	20111109.094141	20111109.095505	8	0.013328	60	10	60-180	60	120	GapExp	BigFlash	0	121	2	0	0	distractor	1	474	763	125649	13.328	11.878	14.766
ProbeTrack13	17	ProbeTrack	13.2	SCS215b	20111109.094141	20111109.095511	8	0.013328	60	10	60-180	60	122	GapExp	BigFlash	0	122	2	1	0	distractor	1	363	819	126468	13.328	12.303	14.345
ProbeTrack13	17	ProbeTrack	13.2	SCS215b	20111109.094141	20111109.095518	8	0.013328	60	10	60-180	60	101	GapExp	BigFlash	0	123	2	3	0	distractor	1	460	770	127238	13.328	13.240	13.403
ProbeTrack13	17	ProbeTrack	13.2	SCS215b	20111109.094141	20111109.095524	8	0.013328	60	10	60-180	60	93	GapExp	BigFlash	0	124	2	1	1	target	1	383	809	128047	13.328	10.927	15.737
ProbeTrack13	17	ProbeTrack	13.2	SCS215b	20111109.094141	20111109.095529	8	0.013328	60	10	60-180	60	86	GapExp	BigFlash	0	125	2	45	1	target	1	355	823	128870	13.328	5.041	21.601
ProbeTrack13	17	ProbeTrack	13.2	SCS215b	20111109.094141	20111109.095535	8	0.013328	60	10	60-180	60	61	GapExp	BigFlash	0	126	2	3	0	distractor	1	377	812	129682	13.328	7.874	18.780
ProbeTrack13	17	ProbeTrack	13.2	SCS215b	20111109.094141	20111109.095541	8	0.013328	60	10	60-180	60	100	GapExp	BigFlash	0	127	2	1	1	target	1	386	807	130489	13.328	7.071	19.591
ProbeTrack13	17	ProbeTrack	13.2	SCS215b	20111109.094141	20111109.095546	8	0.013328	60	10	60-180	60	147	GapExp	BigFlash	0	128	2	45	1	target	1	467	767	131256	13.328	7.190	19.477
ProbeTrack13	17	ProbeTrack	13.2	SCS215b	20111109.094141	20111109.095554	8	0.013328	60	10	60-180	60	157	GapExp	BigFlash	0	129	2	45	0	distractor	1	465	768	132024	13.328	7.633	19.009
ProbeTrack13	17	ProbeTrack	13.2	SCS215b	20111109.094141	20111109.095601	8	0.013328	60	10	60-180	60	116	GapExp	BigFlash	0	130	2	1	1	target	1	387	807	132831	13.328	3.290	23.349
ProbeTrack13	17	ProbeTrack	13.2	SCS215b	20111109.094141	20111109.095606	8	0.013328	60	10	60-180	60	94	GapExp	BigFlash	0	131	2	1	1	target	1	415	793	133624	13.328	10.807	15.858
ProbeTrack13	17	ProbeTrack	13.2	SCS215b	20111109.094141	20111109.095612	8	0.013328	60	10	60-180	60	168	GapExp	BigFlash	0	132	2	0	1	target	1	350	825	134449	13.328	7.689	18.974
ProbeTrack13	17	ProbeTrack	13.2	SCS215b	20111109.094141	20111109.095618	8	0.013328	60	10	60-180	60	105	GapExp	BigFlash	0	133	2	0	0	distractor	1	411	795	135244	13.328	4.499	22.161
ProbeTrack13	17	ProbeTrack	13.2	SCS215b	20111109.094141	20111109.095626	8	0.013328	60	10	60-180	60	74	GapExp	BigFlash	0	134	2	1	1	target	1	393	804	136048	13.328	13.094	13.553
ProbeTrack13	17	ProbeTrack	13.2	SCS215b	20111109.094141	20111109.095631	8	0.013328	60	10	60-180	60	106	GapExp	BigFlash	0	135	2	45	1	target	1	342	829	136877	13.328	6.583	20.058
ProbeTrack13	17	ProbeTrack	13.2	SCS215b	20111109.094141	20111109.095637	8	0.013328	60	10	60-180	60	81	GapExp	BigFlash	0	136	2	0	0	distractor	1	426	787	137664	13.328	8.032	18.637
ProbeTrack13	17	ProbeTrack	13.2	SCS215b	20111109.094141	20111109.095643	8	0.013328	60	10	60-180	60	168	GapExp	BigFlash	0	137	2	0	1	target	1	332	834	138498	13.376	10.033	20.180
ProbeTrack13	17	ProbeTrack	13.2	SCS215b	20111109.094141	20111109.095650	8	0.013328	60	10	60-180	60	108	GapExp	BigFlash	0	138	2	1	1	target	1	351	825	139323	13.328	10.671	15.974
ProbeTrack13	17	ProbeTrack	13.2	SCS215b	20111109.094141	20111109.095655	8	0.013328	60	10	60-180	60	80	GapExp	BigFlash	0	139	2	3	1	target	1	433	784	140107	13.328	9.198	17.444
ProbeTrack13	17	ProbeTrack	13.2	SCS215b	20111109.094141	20111109.095701	8	0.013328	60	10	60-180	60	155	GapExp	BigFlash	0	140	2	1	0	distractor	1	401	800	140907	13.328	10.704	15.967
ProbeTrack13	17	ProbeTrack	13.2	SCS215b	20111109.094141	20111109.095708	8	0.013328	60	10	60-180	60	157	GapExp	BigFlash	0	141	2	0	1	target	1	421	790	141697	13.376	10.711	25.009
ProbeTrack13	17	ProbeTrack	13.2	SCS215b	20111109.094141	20111109.095714	8	0.013328	60	10	60-180	60	160	GapExp	BigFlash	0	142	2	45	0	distractor	1	535	733	142430	13.328	10.833	16.022
ProbeTrack13	17	ProbeTrack	13.2	SCS215b	20111109.094141	20111109.095721	8	0.013328	60	10	60-180	60	128	GapExp	BigFlash	0	143	2	3	0	distractor	1	412	794	143224	13.328	11.860	14.784
ProbeTrack13	17	ProbeTrack	13.2	SCS215b	20111109.094141	20111109.095728	8	0.013328	60	10	60-180	60	78	GapExp	BigFlash	0	144	2	1	0	distractor	1	480	760	143984	13.328	9.687	16.960
ProbeTrack13	17	ProbeTrack	13.2	SCS215b	20111109.094141	20111109.095734	8	0.013328	60	10	60-180	60	151	GapExp	BigFlash	0	145	2	45	0	distractor	1	431	785	144769	13.328	13.112	13.555
ProbeTrack13	17	ProbeTrack	13.2	SCS215b	20111109.094141	20111109.095741	8	0.013328	60	10	60-180	60	179	GapExp	BigFlash	0	146	2	0	1	target	1	449	776	145545	13.328	5.070	21.591
ProbeTrack13	17	ProbeTrack	13.2	SCS215b	20111109.094141	20111109.095748	8	0.013328	60	10	60-180	60	124	GapExp	BigFlash	0	147	2	45	0	distractor	1	532	734	146279	13.328	12.172	14.505
ProbeTrack13	17	ProbeTrack	13.2	SCS215b	20111109.094141	20111109.095755	8	0.013328	60	10	60-180	60	157	GapExp	BigFlash	0	148	2	1	1	target	1	383	809	147088	13.328	8.245	18.403
ProbeTrack13	17	ProbeTrack	13.2	SCS215b	20111109.094141	20111109.095801	8	0.013328	60	10	60-180	60	66	GapExp	BigFlash	0	149	2	0	0	distractor	1	600	700	147788	13.328	11.360	15.284
ProbeTrack13	17	ProbeTrack	13.2	SCS215b	20111109.094141	20111109.095807	8	0.013328	60	10	60-180	60	175	GapExp	BigFlash	0	150	2	3	1	target	1	323	839	148627	13.328	11.821	14.857
ProbeTrack13	17	ProbeTrack	13.2	SCS215b	20111109.094141	20111109.095813	8	0.013328	60	10	60-180	60	89	GapExp	BigFlash	0	151	2	0	1	target	1	339	831	149458	13.328	6.169	20.493
ProbeTrack13	17	ProbeTrack	13.2	SCS215b	20111109.094141	20111109.095827	8	0.013328	60	10	60-180	60	137	GapExp	BigFlash	0	152	2	1	0	distractor	1	429	786	150244	13.329	8.389	18.271
ProbeTrack13	17	ProbeTrack	13.2	SCS215b	20111109.094141	20111109.095833	8	0.013328	60	10	60-180	60	63	GapExp	BigFlash	0	153	2	1	0	distractor	1	367	817	151061	13.328	11.541	15.122
ProbeTrack13	17	ProbeTrack	13.2	SCS215b	20111109.094141	20111109.095839	8	0.013328	60	10	60-180	60	147	GapExp	BigFlash	0	154	2	0	1	target	1	354	823	151884	13.328	4.658	22.000
ProbeTrack13	17	ProbeTrack	13.2	SCS215b	20111109.094141	20111109.095846	8	0.013328	60	10	60-180	60	109	GapExp	BigFlash	0	155	2	0	0	distractor	1	319	841	152725	13.328	10.661	16.004
ProbeTrack13	17	ProbeTrack	13.2	SCS215b	20111109.094141	20111109.095851	8	0.013328	60	10	60-180	60	84	GapExp	BigFlash	0	156	2	45	0	distractor	1	452	774	153499	13.328	9.038	17.604
ProbeTrack13	17	ProbeTrack	13.2	SCS215b	20111109.094141	20111109.095857	8	0.013328	60	10	60-180	60	119	GapExp	BigFlash	0	157	2	0	0	distractor	1	373	814	154313	13.499	10.648	29.885
ProbeTrack13	17	ProbeTrack	13.2	SCS215b	20111109.094141	20111109.095903	8	0.013328	60	10	60-180	60	128	GapExp	BigFlash	0	158	2	3	0	distractor	1	364	818	155131	13.328	5.861	20.794
ProbeTrack13	17	ProbeTrack	13.2	SCS215b	20111109.094141	20111109.095909	8	0.013328	60	10	60-180	60	105	GapExp	BigFlash	0	159	2	3	1	target	1	404	798	155929	13.328	7.744	18.906
ProbeTrack13	17	ProbeTrack	13.2	SCS215b	20111109.094141	20111109.095915	8	0.013328	60	10	60-180	60	179	GapExp	BigFlash	0	160	2	45	0	distractor	1	483	759	156688	13.328	5.124	21.524
ProbeTrack13	17	ProbeTrack	13.2	SCS215b	20111109.094141	20111109.095922	8	0.013328	60	10	60-180	60	124	GapExp	BigFlash	0	161	2	0	1	target	1	450	775	157463	13.328	7.689	18.958
ProbeTrack13	17	ProbeTrack	13.2	SCS215b	20111109.094141	20111109.095928	8	0.013328	60	10	60-180	60	113	GapExp	BigFlash	0	162	2	45	0	distractor	1	368	816	158279	13.328	12.523	14.171
ProbeTrack13	17	ProbeTrack	13.2	SCS215b	20111109.094141	20111109.095935	8	0.013328	60	10	60-180	60	137	GapExp	BigFlash	0	163	2	45	1	target	1	378	811	159090	13.328	13.105	13.549
ProbeTrack13	17	ProbeTrack	13.2	SCS215b	20111109.094141	20111109.095941	8	0.013328	60	10	60-180	60	166	GapExp	BigFlash	0	164	2	45	1	target	1	466	767	159857	13.328	7.370	19.293
ProbeTrack13	17	ProbeTrack	13.2	SCS215b	20111109.094141	20111109.095949	8	0.013328	60	10	60-180	60	81	GapExp	BigFlash	0	165	2	0	0	distractor	1	523	739	160596	13.328	7.249	19.408
ProbeTrack13	17	ProbeTrack	13.2	SCS215b	20111109.094141	20111109.095954	8	0.013328	60	10	60-180	60	80	GapExp	BigFlash	0	166	2	45	0	distractor	1	463	769	161365	13.328	13.304	13.354
ProbeTrack13	17	ProbeTrack	13.2	SCS215b	20111109.094141	20111109.100000	8	0.013328	60	10	60-180	60	170	GapExp	BigFlash	0	167	2	1	1	distractor	0	324	-1000	160365	13.328	12.864	13.810
ProbeTrack13	17	ProbeTrack	13.2	SCS215b	20111109.094141	20111109.100007	8	0.013328	60	10	60-180	60	141	GapExp	BigFlash	0	168	2	1	0	distractor	1	504	748	161113	13.328	12.157	14.499
ProbeTrack13	17	ProbeTrack	13.2	SCS215b	20111109.094141	20111109.100017	8	0.013328	60	10	60-180	60	81	GapExp	BigFlash	0	169	2	0	0	distractor	1	500	750	161863	13.328	13.112	13.537
ProbeTrack13	17	ProbeTrack	13.2	SCS215b	20111109.094141	20111109.100023	8	0.013328	60	10	60-180	60	81	GapExp	BigFlash	0	170	2	45	1	target	1	445	778	162641	13.328	12.069	14.585
ProbeTrack13	17	ProbeTrack	13.2	SCS215b	20111109.094141	20111109.100029	8	0.013328	60	10	60-180	60	161	GapExp	BigFlash	0	171	2	0	0	distractor	1	386	807	163448	13.328	6.897	19.752
ProbeTrack13	17	ProbeTrack	13.2	SCS215b	20111109.094141	20111109.100035	8	0.013328	60	10	60-180	60	119	GapExp	BigFlash	0	172	2	3	0	distractor	1	456	772	164220	13.328	11.947	14.699
ProbeTrack13	17	ProbeTrack	13.2	SCS215b	20111109.094141	20111109.100041	8	0.013328	60	10	60-180	60	178	GapExp	BigFlash	0	173	2	45	1	target	1	384	808	165028	13.328	8.200	18.457
ProbeTrack13	17	ProbeTrack	13.2	SCS215b	20111109.094141	20111109.100048	8	0.013328	60	10	60-180	60	75	GapExp	BigFlash	0	174	2	3	1	target	1	385	808	165836	13.328	10.837	15.815
ProbeTrack13	17	ProbeTrack	13.2	SCS215b	20111109.094141	20111109.100056	8	0.013328	60	10	60-180	60	73	GapExp	BigFlash	0	175	2	45	0	distractor	1	480	760	166596	13.328	13.124	13.531
ProbeTrack13	17	ProbeTrack	13.2	SCS215b	20111109.094141	20111109.100102	8	0.013328	60	10	60-180	60	111	GapExp	BigFlash	0	176	2	1	1	target	1	370	815	167411	13.328	10.654	16.001
ProbeTrack13	17	ProbeTrack	13.2	SCS215b	20111109.094141	20111109.100108	8	0.013328	60	10	60-180	60	86	GapExp	BigFlash	0	177	2	0	0	distractor	1	377	812	168223	13.328	7.071	19.580
ProbeTrack13	17	ProbeTrack	13.2	SCS215b	20111109.094141	20111109.100113	8	0.013328	60	10	60-180	60	127	GapExp	BigFlash	0	178	2	1	1	target	1	310	845	169068	13.328	6.602	20.055
ProbeTrack13	17	ProbeTrack	13.2	SCS215b	20111109.094141	20111109.100119	8	0.013328	60	10	60-180	60	91	GapExp	BigFlash	0	179	2	3	1	target	1	400	800	169868	13.328	4.850	21.806
ProbeTrack13	17	ProbeTrack	13.2	SCS215b	20111109.094141	20111109.100125	8	0.013328	60	10	60-180	60	125	GapExp	BigFlash	0	180	2	0	0	target	0	755	-1000	168868	13.328	5.416	21.235
ProbeTrack13	17	ProbeTrack	13.2	SCS215b	20111109.094141	20111109.100133	8	0.013328	60	10	60-180	60	154	GapExp	BigFlash	0	181	2	3	0	distractor	1	398	801	169669	13.328	9.208	17.454
ProbeTrack13	17	ProbeTrack	13.2	SCS215b	20111109.094141	20111109.100139	8	0.013328	60	10	60-180	60	163	GapExp	BigFlash	0	182	2	0	1	target	1	473	764	170433	13.328	13.302	13.356
ProbeTrack13	17	ProbeTrack	13.2	SCS215b	20111109.094141	20111109.100145	8	0.013328	60	10	60-180	60	134	GapExp	BigFlash	0	183	2	3	1	target	1	367	817	171250	13.328	13.306	13.354
ProbeTrack13	17	ProbeTrack	13.2	SCS215b	20111109.094141	20111109.100151	8	0.013328	60	10	60-180	60	169	GapExp	BigFlash	0	184	2	1	1	target	1	126291	0	171250	13.370	4.968	24.614
ProbeTrack13	17	ProbeTrack	13.2	SCS215b	20111109.094141	20111109.100404	8	0.013328	60	10	60-180	60	87	GapExp	BigFlash	0	185	2	1	0	distractor	1	470	765	172015	13.328	11.864	14.793
ProbeTrack13	17	ProbeTrack	13.2	SCS215b	20111109.094141	20111109.100418	8	0.013328	60	10	60-180	60	147	GapExp	BigFlash	0	186	2	3	1	target	1	413	794	172809	13.328	7.131	19.540
ProbeTrack13	17	ProbeTrack	13.2	SCS215b	20111109.094141	20111109.100425	8	0.013328	60	10	60-180	60	142	GapExp	BigFlash	0	187	2	0	0	distractor	1	414	793	173602	13.328	11.534	15.113
ProbeTrack13	17	ProbeTrack	13.2	SCS215b	20111109.094141	20111109.100431	8	0.013328	60	10	60-180	60	89	GapExp	BigFlash	0	188	2	1	1	target	1	409	796	174398	13.328	11.595	15.055
ProbeTrack13	17	ProbeTrack	13.2	SCS215b	20111109.094141	20111109.100437	8	0.013328	60	10	60-180	60	178	GapExp	BigFlash	0	189	2	45	0	distractor	1	516	742	175140	13.328	9.021	17.641
ProbeTrack13	17	ProbeTrack	13.2	SCS215b	20111109.094141	20111109.100445	8	0.013328	60	10	60-180	60	162	GapExp	BigFlash	0	190	2	3	0	distractor	1	515	743	175883	13.328	6.980	19.665
ProbeTrack13	17	ProbeTrack	13.2	SCS215b	20111109.094141	20111109.100452	8	0.013328	60	10	60-180	60	92	GapExp	BigFlash	0	191	2	0	0	distractor	1	517	742	176625	13.328	6.628	20.037
ProbeTrack13	17	ProbeTrack	13.2	SCS215b	20111109.094141	20111109.100457	8	0.013328	60	10	60-180	60	78	GapExp	BigFlash	0	192	2	1	0	distractor	1	462	769	177394	13.328	7.940	18.715
ProbeTrack13	17	ProbeTrack	13.2	SCS215b	20111109.094141	20111109.100503	8	0.013328	60	10	60-180	60	68	GapExp	BigFlash	0	193	2	0	1	target	1	420	790	178184	13.328	10.490	16.163
ProbeTrack13	17	ProbeTrack	13.2	SCS215b	20111109.094141	20111109.100508	8	0.013328	60	10	60-180	60	70	GapExp	BigFlash	0	194	2	45	1	target	1	420	790	178974	13.328	5.199	21.474
ProbeTrack13	17	ProbeTrack	13.2	SCS215b	20111109.094141	20111109.100514	8	0.013328	60	10	60-180	60	125	GapExp	BigFlash	0	195	2	0	1	target	1	365	818	179792	13.328	13.287	13.368
ProbeTrack13	17	ProbeTrack	13.2	SCS215b	20111109.094141	20111109.100520	8	0.013328	60	10	60-180	60	122	GapExp	BigFlash	0	196	2	3	1	target	1	343	829	180621	13.328	5.778	20.644
ProbeTrack13	17	ProbeTrack	13.2	SCS215b	20111109.094141	20111109.100525	8	0.013328	60	10	60-180	60	140	GapExp	BigFlash	0	197	2	3	0	distractor	1	482	759	181380	13.328	7.980	18.679
ProbeTrack13	17	ProbeTrack	13.2	SCS215b	20111109.094141	20111109.100532	8	0.013328	60	10	60-180	60	136	GapExp	BigFlash	0	198	2	3	1	target	1	381	810	182190	13.328	8.457	18.209
ProbeTrack13	17	ProbeTrack	13.2	SCS215b	20111109.094141	20111109.100539	8	0.013328	60	10	60-180	60	162	GapExp	BigFlash	0	199	2	45	1	target	1	369	816	183006	13.328	6.024	20.621
ProbeTrack13	17	ProbeTrack	13.2	SCS215b	20111109.094141	20111109.100546	8	0.013328	60	10	60-180	60	136	GapExp	BigFlash	0	200	2	0	1	target	1	384	808	183814	13.328	12.677	13.978
ProbeTrack13	17	ProbeTrack	13.2	SCS215b	20111109.101024	20111109.101033	8	0.013328	60	10	60-180	60	139	GapPrac	SmallFlash	1	1	2	1	0	distractor	1	394	803	184617	13.380	13.305	13.356
ProbeTrack13	17	ProbeTrack	13.2	SCS215b	20111109.101024	20111109.101043	8	0.013328	60	10	60-180	60	63	GapPrac	SmallFlash	1	2	2	0	1	target	1	416	792	185409	13.328	10.194	16.456
ProbeTrack13	17	ProbeTrack	13.2	SCS215b	20111109.101024	20111109.101048	8	0.013328	60	10	60-180	60	62	GapPrac	SmallFlash	1	3	2	45	0	distractor	1	448	776	186185	13.328	10.604	16.056
ProbeTrack13	17	ProbeTrack	13.2	SCS215b	20111109.101024	20111109.101053	8	0.013328	60	10	60-180	60	147	GapPrac	SmallFlash	1	4	2	0	0	distractor	1	490	755	186940	13.328	10.650	16.006
ProbeTrack13	17	ProbeTrack	13.2	SCS215b	20111109.101024	20111109.101100	8	0.013328	60	10	60-180	60	146	GapPrac	SmallFlash	1	5	2	0	1	target	1	381	810	187750	13.328	12.459	14.197
ProbeTrack13	17	ProbeTrack	13.2	SCS215b	20111109.101024	20111109.101106	8	0.013328	60	10	60-180	60	66	GapPrac	SmallFlash	1	6	2	3	1	distractor	0	368	-1000	186750	13.328	8.266	18.390
ProbeTrack13	17	ProbeTrack	13.2	SCS215b	20111109.101024	20111109.101116	8	0.013328	60	10	60-180	60	158	GapPrac	SmallFlash	1	7	2	3	0	distractor	1	507	747	187497	13.328	11.313	15.340
ProbeTrack13	17	ProbeTrack	13.2	SCS215b	20111109.101024	20111109.101123	8	0.013328	60	10	60-180	60	129	GapPrac	SmallFlash	1	8	2	0	0	distractor	1	439	781	188278	13.328	13.115	13.558
ProbeTrack13	17	ProbeTrack	13.2	SCS215b	20111109.101024	20111109.101129	8	0.013328	60	10	60-180	60	180	GapPrac	SmallFlash	1	9	2	0	0	distractor	1	836	582	188860	13.369	7.790	25.278
ProbeTrack13	17	ProbeTrack	13.2	SCS215b	20111109.101024	20111109.101136	8	0.013328	60	10	60-180	60	168	GapPrac	SmallFlash	1	10	2	1	0	distractor	1	681	660	189520	13.328	6.326	20.329
ProbeTrack13	17	ProbeTrack	13.2	SCS215b	20111109.101024	20111109.101143	8	0.013328	60	10	60-180	60	73	GapPrac	SmallFlash	1	11	2	3	1	target	1	447	777	190297	13.328	7.089	19.556
ProbeTrack13	17	ProbeTrack	13.2	SCS215b	20111109.101024	20111109.101149	8	0.013328	60	10	60-180	60	112	GapPrac	SmallFlash	1	12	2	45	1	target	1	350	825	191122	13.328	12.251	14.396
ProbeTrack13	17	ProbeTrack	13.2	SCS215b	20111109.101024	20111109.101155	8	0.013328	60	10	60-180	60	63	GapPrac	SmallFlash	1	13	2	3	0	distractor	1	714	643	191765	13.328	12.927	13.744
ProbeTrack13	17	ProbeTrack	13.2	SCS215b	20111109.101024	20111109.101201	8	0.013328	60	10	60-180	60	70	GapPrac	SmallFlash	1	14	2	0	1	target	1	354	823	192588	13.328	9.313	17.348
ProbeTrack13	17	ProbeTrack	13.2	SCS215b	20111109.101024	20111109.101207	8	0.013328	60	10	60-180	60	106	GapPrac	SmallFlash	1	15	2	1	1	target	1	460	770	193358	13.328	10.923	15.744
ProbeTrack13	17	ProbeTrack	13.2	SCS215b	20111109.101024	20111109.101213	8	0.013328	60	10	60-180	60	148	GapPrac	SmallFlash	1	16	2	45	1	target	1	380	810	194168	13.328	4.140	22.526
ProbeTrack13	17	ProbeTrack	13.2	SCS215b	20111109.101024	20111109.101220	8	0.013328	60	10	60-180	60	143	GapPrac	SmallFlash	1	17	2	45	0	distractor	1	514	743	194911	13.328	6.659	19.991
ProbeTrack13	17	ProbeTrack	13.2	SCS215b	20111109.101024	20111109.101227	8	0.013328	60	10	60-180	60	117	GapPrac	SmallFlash	1	18	2	1	0	distractor	1	415	793	195704	13.328	6.863	19.795
ProbeTrack13	17	ProbeTrack	13.2	SCS215b	20111109.101024	20111109.101233	8	0.013328	60	10	60-180	60	65	GapPrac	SmallFlash	1	19	2	45	0	distractor	1	506	747	196451	13.328	12.439	14.214
ProbeTrack13	17	ProbeTrack	13.2	SCS215b	20111109.101024	20111109.101239	8	0.013328	60	10	60-180	60	156	GapPrac	SmallFlash	1	20	2	1	1	distractor	0	636	-1000	195451	13.328	10.054	16.616
ProbeTrack13	17	ProbeTrack	13.2	SCS215b	20111109.101325	20111109.101334	8	0.013328	60	10	60-180	60	91	GapExp	SmallFlash	1	1	2	1	1	target	1	436	782	196233	13.391	13.178	13.514
ProbeTrack13	17	ProbeTrack	13.2	SCS215b	20111109.101325	20111109.101344	8	0.013328	60	10	60-180	60	159	GapExp	SmallFlash	1	2	2	3	0	distractor	1	356	822	197055	13.328	12.869	13.814
ProbeTrack13	17	ProbeTrack	13.2	SCS215b	20111109.101325	20111109.101351	8	0.013328	60	10	60-180	60	87	GapExp	SmallFlash	1	3	2	45	1	target	1	429	786	197841	13.328	12.852	13.791
ProbeTrack13	17	ProbeTrack	13.2	SCS215b	20111109.101325	20111109.101357	8	0.013328	60	10	60-180	60	74	GapExp	SmallFlash	1	4	2	0	1	target	1	387	807	198648	13.328	12.814	13.834
ProbeTrack13	17	ProbeTrack	13.2	SCS215b	20111109.101325	20111109.101402	8	0.013328	60	10	60-180	60	176	GapExp	SmallFlash	1	5	2	1	0	distractor	1	362	819	199467	13.328	12.845	13.835
ProbeTrack13	17	ProbeTrack	13.2	SCS215b	20111109.101325	20111109.101409	8	0.013328	60	10	60-180	60	68	GapExp	SmallFlash	1	6	2	45	0	distractor	1	639	681	200148	13.328	12.850	13.823
ProbeTrack13	17	ProbeTrack	13.2	SCS215b	20111109.101325	20111109.101416	8	0.013328	60	10	60-180	60	130	GapExp	SmallFlash	1	7	2	3	1	target	1	412	794	200942	13.328	12.937	13.720
ProbeTrack13	17	ProbeTrack	13.2	SCS215b	20111109.101325	20111109.101422	8	0.013328	60	10	60-180	60	130	GapExp	SmallFlash	1	8	2	0	0	distractor	1	449	776	201718	13.328	13.282	13.360
ProbeTrack13	17	ProbeTrack	13.2	SCS215b	20111109.101325	20111109.101428	8	0.013328	60	10	60-180	60	112	GapExp	SmallFlash	0	9	2	3	0	distractor	1	402	799	202517	13.328	12.830	13.810
ProbeTrack13	17	ProbeTrack	13.2	SCS215b	20111109.101325	20111109.101434	8	0.013328	60	10	60-180	60	143	GapExp	SmallFlash	0	10	2	0	0	distractor	1	432	784	203301	13.328	13.297	13.351
ProbeTrack13	17	ProbeTrack	13.2	SCS215b	20111109.101325	20111109.101440	8	0.013328	60	10	60-180	60	145	GapExp	SmallFlash	0	11	2	45	1	target	1	424	788	204089	13.327	12.834	13.826
ProbeTrack13	17	ProbeTrack	13.2	SCS215b	20111109.101325	20111109.101447	8	0.013328	60	10	60-180	60	165	GapExp	SmallFlash	0	12	2	3	1	target	1	340	830	204919	13.328	12.979	13.686
ProbeTrack13	17	ProbeTrack	13.2	SCS215b	20111109.101325	20111109.101454	8	0.013328	60	10	60-180	60	124	GapExp	SmallFlash	0	13	2	0	1	target	1	505	748	205667	13.328	12.894	13.808
ProbeTrack13	17	ProbeTrack	13.2	SCS215b	20111109.101325	20111109.101500	8	0.013328	60	10	60-180	60	61	GapExp	SmallFlash	0	14	2	0	1	target	1	536	732	206399	13.328	12.889	13.763
ProbeTrack13	17	ProbeTrack	13.2	SCS215b	20111109.101325	20111109.101505	8	0.013328	60	10	60-180	60	157	GapExp	SmallFlash	0	15	2	1	0	distractor	1	415	793	207192	13.328	12.901	13.758
ProbeTrack13	17	ProbeTrack	13.2	SCS215b	20111109.101325	20111109.101511	8	0.013328	60	10	60-180	60	148	GapExp	SmallFlash	0	16	2	0	1	target	1	352	824	208016	13.328	12.828	13.820
ProbeTrack13	17	ProbeTrack	13.2	SCS215b	20111109.101325	20111109.101519	8	0.013328	60	10	60-180	60	114	GapExp	SmallFlash	0	17	2	0	0	target	0	472	-1000	207016	13.328	12.908	13.747
ProbeTrack13	17	ProbeTrack	13.2	SCS215b	20111109.101325	20111109.101525	8	0.013328	60	10	60-180	60	147	GapExp	SmallFlash	0	18	2	45	1	target	1	360	820	207836	13.328	12.851	13.802
ProbeTrack13	17	ProbeTrack	13.2	SCS215b	20111109.101325	20111109.101531	8	0.013328	60	10	60-180	60	166	GapExp	SmallFlash	0	19	2	45	1	distractor	0	358	-1000	206836	13.328	12.878	13.764
ProbeTrack13	17	ProbeTrack	13.2	SCS215b	20111109.101325	20111109.101538	8	0.013328	60	10	60-180	60	169	GapExp	SmallFlash	0	20	2	0	1	target	1	537	732	207568	13.328	12.867	13.789
ProbeTrack13	17	ProbeTrack	13.2	SCS215b	20111109.101325	20111109.101545	8	0.013328	60	10	60-180	60	168	GapExp	SmallFlash	0	21	2	1	0	distractor	1	404	798	208366	13.328	12.843	13.799
ProbeTrack13	17	ProbeTrack	13.2	SCS215b	20111109.101325	20111109.101552	8	0.013328	60	10	60-180	60	66	GapExp	SmallFlash	0	22	2	45	0	distractor	1	467	767	209133	13.328	12.853	13.821
ProbeTrack13	17	ProbeTrack	13.2	SCS215b	20111109.101325	20111109.101558	8	0.013328	60	10	60-180	60	96	GapExp	SmallFlash	0	23	2	0	1	target	1	372	814	209947	13.328	13.303	13.351
ProbeTrack13	17	ProbeTrack	13.2	SCS215b	20111109.101325	20111109.101613	8	0.013328	60	10	60-180	60	71	GapExp	SmallFlash	0	24	2	1	1	target	1	376	812	210759	13.328	12.951	13.701
ProbeTrack13	17	ProbeTrack	13.2	SCS215b	20111109.101325	20111109.101618	8	0.013328	60	10	60-180	60	180	GapExp	SmallFlash	0	25	2	45	1	target	1	461	770	211529	13.328	13.160	13.479
ProbeTrack13	17	ProbeTrack	13.2	SCS215b	20111109.101325	20111109.101626	8	0.013328	60	10	60-180	60	81	GapExp	SmallFlash	0	26	2	0	0	distractor	1	460	770	212299	13.328	12.836	13.821
ProbeTrack13	17	ProbeTrack	13.2	SCS215b	20111109.101325	20111109.101632	8	0.013328	60	10	60-180	60	145	GapExp	SmallFlash	0	27	2	3	0	distractor	1	427	787	213086	13.328	12.901	13.778
ProbeTrack13	17	ProbeTrack	13.2	SCS215b	20111109.101325	20111109.101638	8	0.013328	60	10	60-180	60	138	GapExp	SmallFlash	0	28	2	3	0	distractor	1	394	803	213889	13.328	12.928	13.748
ProbeTrack13	17	ProbeTrack	13.2	SCS215b	20111109.101325	20111109.101644	8	0.013328	60	10	60-180	60	69	GapExp	SmallFlash	0	29	2	45	1	target	1	384	808	214697	13.328	12.844	13.814
ProbeTrack13	17	ProbeTrack	13.2	SCS215b	20111109.101325	20111109.101650	8	0.013328	60	10	60-180	60	92	GapExp	SmallFlash	0	30	2	1	1	target	1	407	797	215494	13.328	12.911	13.733
ProbeTrack13	17	ProbeTrack	13.2	SCS215b	20111109.101325	20111109.101655	8	0.013328	60	10	60-180	60	72	GapExp	SmallFlash	0	31	2	45	0	distractor	1	441	780	216274	13.328	12.892	13.772
ProbeTrack13	17	ProbeTrack	13.2	SCS215b	20111109.101325	20111109.101702	8	0.013328	60	10	60-180	60	144	GapExp	SmallFlash	0	32	2	1	1	target	1	468	766	217040	13.328	12.858	13.822
ProbeTrack13	17	ProbeTrack	13.2	SCS215b	20111109.101325	20111109.101708	8	0.013328	60	10	60-180	60	84	GapExp	SmallFlash	0	33	2	0	0	distractor	1	532	734	217774	13.328	12.860	13.800
ProbeTrack13	17	ProbeTrack	13.2	SCS215b	20111109.101325	20111109.101713	8	0.013328	60	10	60-180	60	159	GapExp	SmallFlash	0	34	2	1	1	target	1	366	817	218591	13.328	13.093	13.563
ProbeTrack13	17	ProbeTrack	13.2	SCS215b	20111109.101325	20111109.101720	8	0.013328	60	10	60-180	60	80	GapExp	SmallFlash	0	35	2	3	1	target	1	365	818	219409	13.328	13.292	13.376
ProbeTrack13	17	ProbeTrack	13.2	SCS215b	20111109.101325	20111109.101727	8	0.013328	60	10	60-180	60	128	GapExp	SmallFlash	0	36	2	45	0	distractor	1	455	773	220182	13.328	12.917	13.743
ProbeTrack13	17	ProbeTrack	13.2	SCS215b	20111109.101325	20111109.101735	8	0.013328	60	10	60-180	60	69	GapExp	SmallFlash	0	37	2	3	1	target	1	377	812	220994	13.328	13.176	13.492
ProbeTrack13	17	ProbeTrack	13.2	SCS215b	20111109.101325	20111109.101744	8	0.013328	60	10	60-180	60	161	GapExp	SmallFlash	0	38	2	0	1	target	1	361	820	221814	13.328	12.860	13.801
ProbeTrack13	17	ProbeTrack	13.2	SCS215b	20111109.101325	20111109.101752	8	0.013328	60	10	60-180	60	92	GapExp	SmallFlash	0	39	2	1	1	target	1	296	852	222666	13.328	13.306	13.353
ProbeTrack13	17	ProbeTrack	13.2	SCS215b	20111109.101325	20111109.101757	8	0.013328	60	10	60-180	60	150	GapExp	SmallFlash	0	40	2	1	0	distractor	1	434	783	223449	13.326	12.881	13.758
ProbeTrack13	17	ProbeTrack	13.2	SCS215b	20111109.101325	20111109.101804	8	0.013328	60	10	60-180	60	173	GapExp	SmallFlash	0	41	2	0	0	distractor	1	465	768	224217	13.328	13.004	13.656
ProbeTrack13	17	ProbeTrack	13.2	SCS215b	20111109.101325	20111109.101811	8	0.013328	60	10	60-180	60	89	GapExp	SmallFlash	0	42	2	45	1	target	1	493	754	224971	13.328	12.825	13.823
ProbeTrack13	17	ProbeTrack	13.2	SCS215b	20111109.101325	20111109.101817	8	0.013328	60	10	60-180	60	137	GapExp	SmallFlash	0	43	2	45	1	target	1	374	813	225784	13.328	12.937	13.723
ProbeTrack13	17	ProbeTrack	13.2	SCS215b	20111109.101325	20111109.101824	8	0.013328	60	10	60-180	60	131	GapExp	SmallFlash	0	44	2	45	0	distractor	1	601	700	226484	13.328	12.828	13.831
ProbeTrack13	17	ProbeTrack	13.2	SCS215b	20111109.101325	20111109.101831	8	0.013328	60	10	60-180	60	127	GapExp	SmallFlash	0	45	2	45	0	distractor	1	484	758	227242	13.328	12.874	13.784
ProbeTrack13	17	ProbeTrack	13.2	SCS215b	20111109.101325	20111109.101837	8	0.013328	60	10	60-180	60	141	GapExp	SmallFlash	0	46	2	3	0	distractor	1	437	782	228024	13.328	12.881	13.772
ProbeTrack13	17	ProbeTrack	13.2	SCS215b	20111109.101325	20111109.101844	8	0.013328	60	10	60-180	60	162	GapExp	SmallFlash	0	47	2	45	1	target	1	419	791	228815	13.328	12.850	13.794
ProbeTrack13	17	ProbeTrack	13.2	SCS215b	20111109.101325	20111109.101851	8	0.013328	60	10	60-180	60	79	GapExp	SmallFlash	0	48	2	3	1	distractor	0	475	-1000	227815	13.328	13.076	13.582
ProbeTrack13	17	ProbeTrack	13.2	SCS215b	20111109.101325	20111109.101857	8	0.013328	60	10	60-180	60	78	GapExp	SmallFlash	0	49	2	45	0	distractor	1	464	768	228583	13.328	13.303	13.350
ProbeTrack13	17	ProbeTrack	13.2	SCS215b	20111109.101325	20111109.101905	8	0.013328	60	10	60-180	60	157	GapExp	SmallFlash	0	50	2	3	0	distractor	1	481	760	229343	13.328	12.967	13.684
ProbeTrack13	17	ProbeTrack	13.2	SCS215b	20111109.101325	20111109.101933	8	0.013328	60	10	60-180	60	134	GapExp	SmallFlash	0	51	2	3	1	target	1	417	792	230135	13.328	12.830	13.823
ProbeTrack13	17	ProbeTrack	13.2	SCS215b	20111109.101325	20111109.101940	8	0.013328	60	10	60-180	60	153	GapExp	SmallFlash	0	52	2	45	0	distractor	1	462	769	230904	13.327	12.833	13.814
ProbeTrack13	17	ProbeTrack	13.2	SCS215b	20111109.101325	20111109.101947	8	0.013328	60	10	60-180	60	172	GapExp	SmallFlash	0	53	2	45	0	distractor	1	564	718	231622	13.328	12.903	13.789
ProbeTrack13	17	ProbeTrack	13.2	SCS215b	20111109.101325	20111109.101954	8	0.013328	60	10	60-180	60	70	GapExp	SmallFlash	0	54	2	0	0	distractor	1	581	710	232332	13.328	12.898	13.748
ProbeTrack13	17	ProbeTrack	13.2	SCS215b	20111109.101325	20111109.102000	8	0.013328	60	10	60-180	60	123	GapExp	SmallFlash	0	55	2	3	1	distractor	0	526	-1000	231332	13.328	12.981	13.661
ProbeTrack13	17	ProbeTrack	13.2	SCS215b	20111109.101325	20111109.102007	8	0.013328	60	10	60-180	60	96	GapExp	SmallFlash	0	56	2	1	0	distractor	1	530	735	232067	13.328	12.839	13.816
ProbeTrack13	17	ProbeTrack	13.2	SCS215b	20111109.101325	20111109.102013	8	0.013328	60	10	60-180	60	147	GapExp	SmallFlash	0	57	2	45	0	distractor	1	492	754	232821	13.370	13.008	27.061
ProbeTrack13	17	ProbeTrack	13.2	SCS215b	20111109.101325	20111109.102020	8	0.013328	60	10	60-180	60	94	GapExp	SmallFlash	0	58	2	1	1	target	1	471	765	233586	13.328	13.049	13.608
ProbeTrack13	17	ProbeTrack	13.2	SCS215b	20111109.101325	20111109.102025	8	0.013328	60	10	60-180	60	160	GapExp	SmallFlash	0	59	2	45	0	distractor	1	531	735	234321	13.328	12.849	13.834
ProbeTrack13	17	ProbeTrack	13.2	SCS215b	20111109.101325	20111109.102032	8	0.013328	60	10	60-180	60	150	GapExp	SmallFlash	0	60	2	0	1	target	1	391	805	235126	13.328	12.943	13.729
ProbeTrack13	17	ProbeTrack	13.2	SCS215b	20111109.101325	20111109.102039	8	0.013328	60	10	60-180	60	179	GapExp	SmallFlash	0	61	2	0	0	distractor	1	377	812	235938	13.328	13.296	13.351
ProbeTrack13	17	ProbeTrack	13.2	SCS215b	20111109.101325	20111109.102046	8	0.013328	60	10	60-180	60	127	GapExp	SmallFlash	0	62	2	0	0	distractor	1	417	792	236730	13.328	12.935	13.724
ProbeTrack13	17	ProbeTrack	13.2	SCS215b	20111109.101325	20111109.102054	8	0.013328	60	10	60-180	60	169	GapExp	SmallFlash	0	63	2	0	0	distractor	1	454	773	237503	13.328	12.869	13.761
ProbeTrack13	17	ProbeTrack	13.2	SCS215b	20111109.101325	20111109.102101	8	0.013328	60	10	60-180	60	113	GapExp	SmallFlash	0	64	2	1	0	target	0	436	-1000	236503	13.328	12.884	13.785
ProbeTrack13	17	ProbeTrack	13.2	SCS215b	20111109.101325	20111109.102107	8	0.013328	60	10	60-180	60	99	GapExp	SmallFlash	0	65	2	1	1	distractor	0	4740	-1000	235503	13.328	12.903	13.748
ProbeTrack13	17	ProbeTrack	13.2	SCS215b	20111109.101325	20111109.102117	8	0.013328	60	10	60-180	60	101	GapExp	SmallFlash	0	66	2	3	0	distractor	1	686	657	236160	13.328	12.859	13.806
ProbeTrack13	17	ProbeTrack	13.2	SCS215b	20111109.101325	20111109.102123	8	0.013328	60	10	60-180	60	80	GapExp	SmallFlash	0	67	2	3	0	target	0	703	-1000	235160	13.328	12.888	13.766
ProbeTrack13	17	ProbeTrack	13.2	SCS215b	20111109.101325	20111109.102129	8	0.013328	60	10	60-180	60	80	GapExp	SmallFlash	0	68	2	0	0	distractor	1	428	786	235946	13.328	12.867	13.779
ProbeTrack13	17	ProbeTrack	13.2	SCS215b	20111109.101325	20111109.102135	8	0.013328	60	10	60-180	60	141	GapExp	SmallFlash	0	69	2	3	1	target	1	538	731	236677	13.328	13.015	13.666
ProbeTrack13	17	ProbeTrack	13.2	SCS215b	20111109.101325	20111109.102141	8	0.013328	60	10	60-180	60	140	GapExp	SmallFlash	0	70	2	3	1	target	1	745	628	237305	13.328	12.908	13.744
ProbeTrack13	17	ProbeTrack	13.2	SCS215b	20111109.101325	20111109.102149	8	0.013328	60	10	60-180	60	99	GapExp	SmallFlash	0	71	2	1	0	distractor	1	433	784	238089	13.328	12.999	13.651
ProbeTrack13	17	ProbeTrack	13.2	SCS215b	20111109.101325	20111109.102156	8	0.013328	60	10	60-180	60	93	GapExp	SmallFlash	0	72	2	0	1	distractor	0	330	-1000	237089	13.328	12.856	13.791
ProbeTrack13	17	ProbeTrack	13.2	SCS215b	20111109.101325	20111109.102202	8	0.013328	60	10	60-180	60	168	GapExp	SmallFlash	0	73	2	3	1	distractor	0	2274	-1000	236089	13.328	12.860	13.788
ProbeTrack13	17	ProbeTrack	13.2	SCS215b	20111109.101325	20111109.102216	8	0.013328	60	10	60-180	60	142	GapExp	SmallFlash	0	74	2	3	1	distractor	0	368	-1000	235089	13.431	12.842	27.143
ProbeTrack13	17	ProbeTrack	13.2	SCS215b	20111109.101325	20111109.102222	8	0.013328	60	10	60-180	60	147	GapExp	SmallFlash	0	75	2	0	1	distractor	0	355	-1000	234089	13.430	12.913	39.556
ProbeTrack13	17	ProbeTrack	13.2	SCS215b	20111109.101325	20111109.102229	8	0.013328	60	10	60-180	60	85	GapExp	SmallFlash	0	76	2	3	0	distractor	1	541	730	234819	13.328	13.079	13.563
ProbeTrack13	17	ProbeTrack	13.2	SCS215b	20111109.101325	20111109.102234	8	0.013328	60	10	60-180	60	134	GapExp	SmallFlash	0	77	2	1	0	distractor	1	414	793	235612	13.328	12.836	13.833
ProbeTrack13	17	ProbeTrack	13.2	SCS215b	20111109.101325	20111109.102241	8	0.013328	60	10	60-180	60	154	GapExp	SmallFlash	0	78	2	3	1	target	1	378	811	236423	13.328	12.842	13.796
ProbeTrack13	17	ProbeTrack	13.2	SCS215b	20111109.101325	20111109.102248	8	0.013328	60	10	60-180	60	70	GapExp	SmallFlash	0	79	2	45	0	distractor	1	416	792	237215	13.328	12.886	13.774
ProbeTrack13	17	ProbeTrack	13.2	SCS215b	20111109.101325	20111109.102254	8	0.013328	60	10	60-180	60	96	GapExp	SmallFlash	0	80	2	45	1	target	1	434	783	237998	13.328	12.914	13.758
ProbeTrack13	17	ProbeTrack	13.2	SCS215b	20111109.101325	20111109.102300	8	0.013328	60	10	60-180	60	63	GapExp	SmallFlash	0	81	2	3	0	distractor	1	423	789	238787	13.328	12.891	13.776
ProbeTrack13	17	ProbeTrack	13.2	SCS215b	20111109.101325	20111109.102306	8	0.013328	60	10	60-180	60	152	GapExp	SmallFlash	0	82	2	3	0	distractor	1	452	774	239561	13.328	12.903	13.747
ProbeTrack13	17	ProbeTrack	13.2	SCS215b	20111109.101325	20111109.102312	8	0.013328	60	10	60-180	60	106	GapExp	SmallFlash	0	83	2	1	0	distractor	1	488	756	240317	13.328	12.881	13.780
ProbeTrack13	17	ProbeTrack	13.2	SCS215b	20111109.101325	20111109.102318	8	0.013328	60	10	60-180	60	142	GapExp	SmallFlash	0	84	2	1	0	distractor	1	417	792	241109	13.328	12.940	13.725
ProbeTrack13	17	ProbeTrack	13.2	SCS215b	20111109.101325	20111109.102324	8	0.013328	60	10	60-180	60	178	GapExp	SmallFlash	0	85	2	0	1	target	1	297	852	241961	13.328	12.879	13.799
ProbeTrack13	17	ProbeTrack	13.2	SCS215b	20111109.101325	20111109.102331	8	0.013328	60	10	60-180	60	172	GapExp	SmallFlash	0	86	2	1	1	target	1	335	833	242794	13.328	12.864	13.812
ProbeTrack13	17	ProbeTrack	13.2	SCS215b	20111109.101325	20111109.102338	8	0.013328	60	10	60-180	60	130	GapExp	SmallFlash	0	87	2	3	1	target	1	409	796	243590	13.328	13.051	13.730
ProbeTrack13	17	ProbeTrack	13.2	SCS215b	20111109.101325	20111109.102343	8	0.013328	60	10	60-180	60	81	GapExp	SmallFlash	0	88	2	3	0	distractor	1	538	731	244321	13.454	12.937	27.130
ProbeTrack13	17	ProbeTrack	13.2	SCS215b	20111109.101325	20111109.102350	8	0.013328	60	10	60-180	60	75	GapExp	SmallFlash	0	89	2	0	1	target	1	420	790	245111	13.330	12.837	13.824
ProbeTrack13	17	ProbeTrack	13.2	SCS215b	20111109.101325	20111109.102355	8	0.013328	60	10	60-180	60	102	GapExp	SmallFlash	0	90	2	3	0	distractor	1	470	765	245876	13.328	12.910	13.700
ProbeTrack13	17	ProbeTrack	13.2	SCS215b	20111109.101325	20111109.102402	8	0.013328	60	10	60-180	60	114	GapExp	SmallFlash	0	91	2	45	1	target	1	533	734	246610	13.328	12.861	13.801
ProbeTrack13	17	ProbeTrack	13.2	SCS215b	20111109.101325	20111109.102408	8	0.013328	60	10	60-180	60	92	GapExp	SmallFlash	0	92	2	1	1	target	1	416	792	247402	13.328	12.820	13.829
ProbeTrack13	17	ProbeTrack	13.2	SCS215b	20111109.101325	20111109.102414	8	0.013328	60	10	60-180	60	104	GapExp	SmallFlash	0	93	2	1	1	target	1	308	846	248248	13.328	12.888	13.756
ProbeTrack13	17	ProbeTrack	13.2	SCS215b	20111109.101325	20111109.102419	8	0.013328	60	10	60-180	60	179	GapExp	SmallFlash	0	94	2	1	0	distractor	1	449	776	249024	13.328	12.918	13.727
ProbeTrack13	17	ProbeTrack	13.2	SCS215b	20111109.101325	20111109.102426	8	0.013328	60	10	60-180	60	159	GapExp	SmallFlash	0	95	2	3	1	target	1	357	822	249846	13.328	12.952	13.707
ProbeTrack13	17	ProbeTrack	13.2	SCS215b	20111109.101325	20111109.102432	8	0.013328	60	10	60-180	60	89	GapExp	SmallFlash	0	96	2	0	0	distractor	1	421	790	250636	13.328	12.861	13.805
ProbeTrack13	17	ProbeTrack	13.2	SCS215b	20111109.101325	20111109.102438	8	0.013328	60	10	60-180	60	134	GapExp	SmallFlash	0	97	2	3	0	distractor	1	420	790	251426	13.328	12.836	13.826
ProbeTrack13	17	ProbeTrack	13.2	SCS215b	20111109.101325	20111109.102444	8	0.013328	60	10	60-180	60	81	GapExp	SmallFlash	0	98	2	0	1	target	1	470	765	252191	13.328	12.884	13.766
ProbeTrack13	17	ProbeTrack	13.2	SCS215b	20111109.101325	20111109.102449	8	0.013328	60	10	60-180	60	69	GapExp	SmallFlash	0	99	2	3	1	distractor	0	349	-1000	251191	13.328	13.109	13.537
ProbeTrack13	17	ProbeTrack	13.2	SCS215b	20111109.101325	20111109.102454	8	0.013328	60	10	60-180	60	178	GapExp	SmallFlash	0	100	2	1	1	target	1	289	856	252047	13.328	12.850	13.815
ProbeTrack13	17	ProbeTrack	13.2	SCS215b	20111109.101325	20111109.102501	8	0.013328	60	10	60-180	60	176	GapExp	SmallFlash	0	101	2	1	1	target	1	357	822	252869	13.328	12.828	13.815
ProbeTrack13	17	ProbeTrack	13.2	SCS215b	20111109.101325	20111109.102513	8	0.013328	60	10	60-180	60	138	GapExp	SmallFlash	0	102	2	1	0	distractor	1	431	785	253654	13.328	12.845	13.805
ProbeTrack13	17	ProbeTrack	13.2	SCS215b	20111109.101325	20111109.102519	8	0.013328	60	10	60-180	60	125	GapExp	SmallFlash	0	103	2	45	0	distractor	1	423	789	254443	13.328	12.969	13.695
ProbeTrack13	17	ProbeTrack	13.2	SCS215b	20111109.101325	20111109.102526	8	0.013328	60	10	60-180	60	75	GapExp	SmallFlash	0	104	2	0	1	target	1	436	782	255225	13.328	13.164	13.492
ProbeTrack13	17	ProbeTrack	13.2	SCS215b	20111109.101325	20111109.102531	8	0.013328	60	10	60-180	60	88	GapExp	SmallFlash	0	105	2	0	1	target	1	412	794	256019	13.328	12.867	13.808
ProbeTrack13	17	ProbeTrack	13.2	SCS215b	20111109.101325	20111109.102536	8	0.013328	60	10	60-180	60	160	GapExp	SmallFlash	0	106	2	1	0	distractor	1	539	731	256750	13.328	12.912	13.756
ProbeTrack13	17	ProbeTrack	13.2	SCS215b	20111109.101325	20111109.102544	8	0.013328	60	10	60-180	60	132	GapExp	SmallFlash	0	107	2	1	1	target	1	481	760	257510	13.328	13.026	13.628
ProbeTrack13	17	ProbeTrack	13.2	SCS215b	20111109.101325	20111109.102550	8	0.013328	60	10	60-180	60	124	GapExp	SmallFlash	0	108	2	3	0	distractor	1	444	778	258288	13.328	12.885	13.755
ProbeTrack13	17	ProbeTrack	13.2	SCS215b	20111109.101325	20111109.102556	8	0.013328	60	10	60-180	60	140	GapExp	SmallFlash	0	109	2	0	1	target	1	428	786	259074	13.328	12.923	13.729
ProbeTrack13	17	ProbeTrack	13.2	SCS215b	20111109.101325	20111109.102602	8	0.013328	60	10	60-180	60	158	GapExp	SmallFlash	0	110	2	0	0	distractor	1	345	828	259902	13.328	13.025	13.626
ProbeTrack13	17	ProbeTrack	13.2	SCS215b	20111109.101325	20111109.102608	8	0.013328	60	10	60-180	60	89	GapExp	SmallFlash	0	111	2	1	1	target	1	354	823	260725	13.328	12.842	13.805
ProbeTrack13	17	ProbeTrack	13.2	SCS215b	20111109.101325	20111109.102613	8	0.013328	60	10	60-180	60	102	GapExp	SmallFlash	0	112	2	3	1	target	1	332	834	261559	13.328	12.868	13.792
ProbeTrack13	17	ProbeTrack	13.2	SCS215b	20111109.101325	20111109.102621	8	0.013328	60	10	60-180	60	128	GapExp	SmallFlash	0	113	2	1	0	distractor	1	407	797	262356	13.328	12.965	13.683
ProbeTrack13	17	ProbeTrack	13.2	SCS215b	20111109.101325	20111109.102627	8	0.013328	60	10	60-180	60	142	GapExp	SmallFlash	0	114	2	45	1	target	1	382	809	263165	13.328	12.932	13.736
ProbeTrack13	17	ProbeTrack	13.2	SCS215b	20111109.101325	20111109.102633	8	0.013328	60	10	60-180	60	171	GapExp	SmallFlash	0	115	2	3	0	distractor	1	487	757	263922	13.328	12.884	13.759
ProbeTrack13	17	ProbeTrack	13.2	SCS215b	20111109.101325	20111109.102640	8	0.013328	60	10	60-180	60	72	GapExp	SmallFlash	0	116	2	0	0	distractor	1	497	752	264674	13.328	12.974	13.681
ProbeTrack13	17	ProbeTrack	13.2	SCS215b	20111109.101325	20111109.102645	8	0.013328	60	10	60-180	60	95	GapExp	SmallFlash	0	117	2	1	1	target	1	422	789	265463	13.328	13.304	13.354
ProbeTrack13	17	ProbeTrack	13.2	SCS215b	20111109.101325	20111109.102652	8	0.013328	60	10	60-180	60	100	GapExp	SmallFlash	0	118	2	3	0	distractor	1	410	795	266258	13.328	13.031	13.635
ProbeTrack13	17	ProbeTrack	13.2	SCS215b	20111109.101325	20111109.102657	8	0.013328	60	10	60-180	60	98	GapExp	SmallFlash	0	119	2	1	1	target	1	322	839	267097	13.328	13.053	13.598
ProbeTrack13	17	ProbeTrack	13.2	SCS215b	20111109.101325	20111109.102703	8	0.013328	60	10	60-180	60	152	GapExp	SmallFlash	0	120	2	0	0	distractor	1	445	778	267875	13.327	13.084	13.464
ProbeTrack13	17	ProbeTrack	13.2	SCS215b	20111109.101325	20111109.102709	8	0.013328	60	10	60-180	60	114	GapExp	SmallFlash	0	121	2	3	0	distractor	1	479	761	268636	13.328	13.082	13.567
ProbeTrack13	17	ProbeTrack	13.2	SCS215b	20111109.101325	20111109.102716	8	0.013328	60	10	60-180	60	171	GapExp	SmallFlash	0	122	2	0	0	distractor	1	378	811	269447	13.328	12.845	13.812
ProbeTrack13	17	ProbeTrack	13.2	SCS215b	20111109.101325	20111109.102723	8	0.013328	60	10	60-180	60	106	GapExp	SmallFlash	0	123	2	3	1	target	1	463	769	270216	13.328	12.845	13.825
ProbeTrack13	17	ProbeTrack	13.2	SCS215b	20111109.101325	20111109.102729	8	0.013328	60	10	60-180	60	113	GapExp	SmallFlash	0	124	2	1	1	target	1	331	835	271051	13.328	12.846	13.800
ProbeTrack13	17	ProbeTrack	13.2	SCS215b	20111109.101325	20111109.102734	8	0.013328	60	10	60-180	60	146	GapExp	SmallFlash	0	125	2	1	0	distractor	1	380	810	271861	13.328	12.843	13.818
ProbeTrack13	17	ProbeTrack	13.2	SCS215b	20111109.101325	20111109.102741	8	0.013328	60	10	60-180	60	170	GapExp	SmallFlash	0	126	2	1	0	distractor	1	347	827	272688	13.328	13.098	13.551
ProbeTrack13	17	ProbeTrack	13.2	SCS215b	20111109.101325	20111109.102747	8	0.013328	60	10	60-180	60	161	GapExp	SmallFlash	0	127	2	45	0	distractor	1	345	828	273516	13.328	12.851	13.804
ProbeTrack13	17	ProbeTrack	13.2	SCS215b	20111109.101325	20111109.102755	8	0.013328	60	10	60-180	60	119	GapExp	SmallFlash	0	128	2	1	0	distractor	1	462	769	274285	13.328	12.861	13.816
ProbeTrack13	17	ProbeTrack	13.2	SCS215b	20111109.101325	20111109.102800	8	0.013328	60	10	60-180	60	128	GapExp	SmallFlash	0	129	2	45	0	distractor	1	434	783	275068	13.328	12.979	13.684
ProbeTrack13	17	ProbeTrack	13.2	SCS215b	20111109.101325	20111109.102807	8	0.013328	60	10	60-180	60	129	GapExp	SmallFlash	0	130	2	3	1	target	1	356	822	275890	13.328	13.076	13.573
ProbeTrack13	17	ProbeTrack	13.2	SCS215b	20111109.101325	20111109.102813	8	0.013328	60	10	60-180	60	63	GapExp	SmallFlash	0	131	2	45	0	distractor	1	374	813	276703	13.328	12.824	13.837
ProbeTrack13	17	ProbeTrack	13.2	SCS215b	20111109.101325	20111109.102818	8	0.013328	60	10	60-180	60	68	GapExp	SmallFlash	0	132	2	3	0	target	0	473	-1000	275703	13.328	13.099	13.558
ProbeTrack13	17	ProbeTrack	13.2	SCS215b	20111109.101325	20111109.102824	8	0.013328	60	10	60-180	60	142	GapExp	SmallFlash	0	133	2	3	0	distractor	1	376	812	276515	13.328	13.104	13.539
ProbeTrack13	17	ProbeTrack	13.2	SCS215b	20111109.101325	20111109.102831	8	0.013328	60	10	60-180	60	130	GapExp	SmallFlash	0	134	2	45	1	distractor	0	331	-1000	275515	13.328	12.882	13.770
ProbeTrack13	17	ProbeTrack	13.2	SCS215b	20111109.101325	20111109.102837	8	0.013328	60	10	60-180	60	116	GapExp	SmallFlash	0	135	2	0	0	distractor	1	557	722	276237	13.328	13.108	13.548
ProbeTrack13	17	ProbeTrack	13.2	SCS215b	20111109.101325	20111109.102843	8	0.013328	60	10	60-180	60	88	GapExp	SmallFlash	0	136	2	45	1	distractor	0	315	-1000	275237	13.328	12.882	13.786
ProbeTrack13	17	ProbeTrack	13.2	SCS215b	20111109.101325	20111109.102849	8	0.013328	60	10	60-180	60	116	GapExp	SmallFlash	0	137	2	3	0	target	0	355	-1000	274237	13.328	12.911	13.739
ProbeTrack13	17	ProbeTrack	13.2	SCS215b	20111109.101325	20111109.102854	8	0.013328	60	10	60-180	60	101	GapExp	SmallFlash	0	138	2	3	1	target	1	335	833	275070	13.328	12.851	13.795
ProbeTrack13	17	ProbeTrack	13.2	SCS215b	20111109.101325	20111109.102900	8	0.013328	60	10	60-180	60	143	GapExp	SmallFlash	0	139	2	45	0	distractor	1	385	808	275878	13.328	12.847	13.775
ProbeTrack13	17	ProbeTrack	13.2	SCS215b	20111109.101325	20111109.102907	8	0.013328	60	10	60-180	60	141	GapExp	SmallFlash	0	140	2	45	0	distractor	1	456	772	276650	13.328	12.941	13.720
ProbeTrack13	17	ProbeTrack	13.2	SCS215b	20111109.101325	20111109.102915	8	0.013328	60	10	60-180	60	115	GapExp	SmallFlash	0	141	2	1	1	target	1	497	752	277402	13.328	12.899	13.765
ProbeTrack13	17	ProbeTrack	13.2	SCS215b	20111109.101325	20111109.102921	8	0.013328	60	10	60-180	60	131	GapExp	SmallFlash	0	142	2	45	1	distractor	0	296	-1000	276402	13.328	12.599	14.060
ProbeTrack13	17	ProbeTrack	13.2	SCS215b	20111109.101325	20111109.102928	8	0.013328	60	10	60-180	60	140	GapExp	SmallFlash	0	143	2	45	1	target	1	454	773	277175	13.328	12.865	13.796
ProbeTrack13	17	ProbeTrack	13.2	SCS215b	20111109.101325	20111109.102934	8	0.013328	60	10	60-180	60	140	GapExp	SmallFlash	0	144	2	0	1	target	1	410	795	277970	13.328	12.874	13.789
ProbeTrack13	17	ProbeTrack	13.2	SCS215b	20111109.101325	20111109.102941	8	0.013328	60	10	60-180	60	151	GapExp	SmallFlash	0	145	2	45	1	target	1	359	821	278791	13.328	13.101	13.551
ProbeTrack13	17	ProbeTrack	13.2	SCS215b	20111109.101325	20111109.102948	8	0.013328	60	10	60-180	60	150	GapExp	SmallFlash	0	146	2	0	0	distractor	1	456	772	279563	13.328	13.052	13.609
ProbeTrack13	17	ProbeTrack	13.2	SCS215b	20111109.101325	20111109.102954	8	0.013328	60	10	60-180	60	112	GapExp	SmallFlash	0	147	2	3	1	target	1	377	812	280375	13.328	12.887	13.767
ProbeTrack13	17	ProbeTrack	13.2	SCS215b	20111109.101325	20111109.103000	8	0.013328	60	10	60-180	60	156	GapExp	SmallFlash	0	148	2	0	0	distractor	1	372	814	281189	13.328	12.843	13.806
ProbeTrack13	17	ProbeTrack	13.2	SCS215b	20111109.101325	20111109.103006	8	0.013328	60	10	60-180	60	150	GapExp	SmallFlash	0	149	2	1	0	target	0	440	-1000	280189	13.328	12.927	13.754
ProbeTrack13	17	ProbeTrack	13.2	SCS215b	20111109.101325	20111109.103013	8	0.013328	60	10	60-180	60	61	GapExp	SmallFlash	0	150	2	45	1	distractor	0	412	-1000	279189	13.328	12.979	13.672
ProbeTrack13	17	ProbeTrack	13.2	SCS215b	20111109.101325	20111109.103019	8	0.013328	60	10	60-180	60	137	GapExp	SmallFlash	0	151	2	0	1	target	1	336	832	280021	13.328	13.004	13.640
ProbeTrack13	17	ProbeTrack	13.2	SCS215b	20111109.101325	20111109.103024	8	0.013328	60	10	60-180	60	136	GapExp	SmallFlash	0	152	2	0	1	distractor	0	374	-1000	279021	13.328	13.151	13.506
ProbeTrack13	17	ProbeTrack	13.2	SCS215b	20111109.101325	20111109.103031	8	0.013328	60	10	60-180	60	91	GapExp	SmallFlash	0	153	2	0	0	distractor	1	554	723	279744	13.328	12.834	13.812
ProbeTrack13	17	ProbeTrack	13.2	SCS215b	20111109.101325	20111109.103036	8	0.013328	60	10	60-180	60	140	GapExp	SmallFlash	0	154	2	0	0	distractor	1	405	798	280542	13.328	13.025	13.639
ProbeTrack13	17	ProbeTrack	13.2	SCS215b	20111109.101325	20111109.103042	8	0.013328	60	10	60-180	60	178	GapExp	SmallFlash	0	155	2	1	0	distractor	1	306	847	281389	13.328	12.883	13.773
ProbeTrack13	17	ProbeTrack	13.2	SCS215b	20111109.101325	20111109.103049	8	0.013328	60	10	60-180	60	81	GapExp	SmallFlash	0	156	2	1	0	distractor	1	504	748	282137	13.328	12.851	13.804
ProbeTrack13	17	ProbeTrack	13.2	SCS215b	20111109.101325	20111109.103054	8	0.013328	60	10	60-180	60	108	GapExp	SmallFlash	0	157	2	45	1	target	1	463	769	282906	13.474	12.862	52.986
ProbeTrack13	17	ProbeTrack	13.2	SCS215b	20111109.101325	20111109.103101	8	0.013328	60	10	60-180	60	88	GapExp	SmallFlash	0	158	2	45	0	distractor	1	444	778	283684	13.328	13.173	13.489
ProbeTrack13	17	ProbeTrack	13.2	SCS215b	20111109.101325	20111109.103107	8	0.013328	60	10	60-180	60	170	GapExp	SmallFlash	0	159	2	1	0	distractor	1	459	771	284455	13.328	12.958	13.695
ProbeTrack13	17	ProbeTrack	13.2	SCS215b	20111109.101325	20111109.103113	8	0.013328	60	10	60-180	60	122	GapExp	SmallFlash	0	160	2	45	1	target	1	468	766	285221	13.328	13.096	13.571
ProbeTrack13	17	ProbeTrack	13.2	SCS215b	20111109.101325	20111109.103121	8	0.013328	60	10	60-180	60	172	GapExp	SmallFlash	0	161	2	0	1	target	1	403	799	286020	13.328	13.063	13.594
ProbeTrack13	17	ProbeTrack	13.2	SCS215b	20111109.101325	20111109.103127	8	0.013328	60	10	60-180	60	165	GapExp	SmallFlash	0	162	2	1	0	distractor	1	695	653	286673	13.328	13.087	13.585
ProbeTrack13	17	ProbeTrack	13.2	SCS215b	20111109.101325	20111109.103134	8	0.013328	60	10	60-180	60	128	GapExp	SmallFlash	0	163	2	0	1	distractor	0	350	-1000	285673	13.328	12.981	13.672
ProbeTrack13	17	ProbeTrack	13.2	SCS215b	20111109.101325	20111109.103140	8	0.013328	60	10	60-180	60	148	GapExp	SmallFlash	0	164	2	0	1	target	1	361	820	286493	13.328	12.922	13.731
ProbeTrack13	17	ProbeTrack	13.2	SCS215b	20111109.101325	20111109.103146	8	0.013328	60	10	60-180	60	132	GapExp	SmallFlash	0	165	2	3	0	distractor	1	401	800	287293	13.328	13.031	13.635
ProbeTrack13	17	ProbeTrack	13.2	SCS215b	20111109.101325	20111109.103155	8	0.013328	60	10	60-180	60	144	GapExp	SmallFlash	0	166	2	0	0	distractor	1	373	814	288107	13.432	12.879	39.962
ProbeTrack13	17	ProbeTrack	13.2	SCS215b	20111109.101325	20111109.103201	8	0.013328	60	10	60-180	60	90	GapExp	SmallFlash	0	167	2	3	0	distractor	1	394	803	288910	13.328	12.900	13.822
ProbeTrack13	17	ProbeTrack	13.2	SCS215b	20111109.101325	20111109.103207	8	0.013328	60	10	60-180	60	158	GapExp	SmallFlash	0	168	2	0	0	distractor	1	357	822	289732	13.330	13.088	13.822
ProbeTrack13	17	ProbeTrack	13.2	SCS215b	20111109.101325	20111109.103214	8	0.013328	60	10	60-180	60	77	GapExp	SmallFlash	0	169	2	3	0	distractor	1	478	761	290493	13.328	12.899	13.761
ProbeTrack13	17	ProbeTrack	13.2	SCS215b	20111109.101325	20111109.103219	8	0.013328	60	10	60-180	60	158	GapExp	SmallFlash	0	170	2	0	1	target	1	392	804	291297	13.328	12.923	13.744
ProbeTrack13	17	ProbeTrack	13.2	SCS215b	20111109.101325	20111109.103226	8	0.013328	60	10	60-180	60	92	GapExp	SmallFlash	0	171	2	3	1	target	1	369	816	292113	13.328	12.839	13.809
ProbeTrack13	17	ProbeTrack	13.2	SCS215b	20111109.101325	20111109.103234	8	0.013328	60	10	60-180	60	63	GapExp	SmallFlash	0	172	2	1	0	distractor	1	431	785	292898	13.328	12.830	13.826
ProbeTrack13	17	ProbeTrack	13.2	SCS215b	20111109.101325	20111109.103239	8	0.013328	60	10	60-180	60	75	GapExp	SmallFlash	0	173	2	45	0	distractor	1	399	801	293699	13.328	13.077	13.586
ProbeTrack13	17	ProbeTrack	13.2	SCS215b	20111109.101325	20111109.103246	8	0.013328	60	10	60-180	60	67	GapExp	SmallFlash	0	174	2	1	1	target	1	522	739	294438	13.328	12.876	13.781
ProbeTrack13	17	ProbeTrack	13.2	SCS215b	20111109.101325	20111109.103251	8	0.013328	60	10	60-180	60	62	GapExp	SmallFlash	0	175	2	45	1	target	1	590	705	295143	13.328	13.079	13.563
ProbeTrack13	17	ProbeTrack	13.2	SCS215b	20111109.101325	20111109.103257	8	0.013328	60	10	60-180	60	111	GapExp	SmallFlash	0	176	2	3	1	target	1	975	513	295656	13.328	12.844	13.812
ProbeTrack13	17	ProbeTrack	13.2	SCS215b	20111109.101325	20111109.103305	8	0.013328	60	10	60-180	60	84	GapExp	SmallFlash	0	177	2	3	1	target	1	532	734	296390	13.328	12.996	13.665
ProbeTrack13	17	ProbeTrack	13.2	SCS215b	20111109.101325	20111109.103310	8	0.013328	60	10	60-180	60	72	GapExp	SmallFlash	0	178	2	45	0	distractor	1	363	819	297209	13.328	13.112	13.538
ProbeTrack13	17	ProbeTrack	13.2	SCS215b	20111109.101325	20111109.103316	8	0.013328	60	10	60-180	60	150	GapExp	SmallFlash	0	179	2	1	1	target	1	411	795	298004	13.328	12.861	13.790
ProbeTrack13	17	ProbeTrack	13.2	SCS215b	20111109.101325	20111109.103322	8	0.013328	60	10	60-180	60	134	GapExp	SmallFlash	0	180	2	45	1	target	1	452	774	298778	13.328	12.827	13.822
ProbeTrack13	17	ProbeTrack	13.2	SCS215b	20111109.101325	20111109.103329	8	0.013328	60	10	60-180	60	149	GapExp	SmallFlash	0	181	2	45	1	target	1	467	767	299545	13.328	13.147	13.512
ProbeTrack13	17	ProbeTrack	13.2	SCS215b	20111109.101325	20111109.103336	8	0.013328	60	10	60-180	60	158	GapExp	SmallFlash	0	182	2	0	1	target	1	347	827	300372	13.328	12.845	13.802
ProbeTrack13	17	ProbeTrack	13.2	SCS215b	20111109.101325	20111109.103342	8	0.013328	60	10	60-180	60	98	GapExp	SmallFlash	0	183	2	1	0	distractor	1	530	735	301107	13.328	12.885	13.753
ProbeTrack13	17	ProbeTrack	13.2	SCS215b	20111109.101325	20111109.103348	8	0.013328	60	10	60-180	60	130	GapExp	SmallFlash	0	184	2	45	0	distractor	1	448	776	301883	13.328	12.950	13.724
ProbeTrack13	17	ProbeTrack	13.2	SCS215b	20111109.101325	20111109.103355	8	0.013328	60	10	60-180	60	161	GapExp	SmallFlash	0	185	2	1	1	target	1	407	797	302680	13.328	13.028	13.613
ProbeTrack13	17	ProbeTrack	13.2	SCS215b	20111109.101325	20111109.103401	8	0.013328	60	10	60-180	60	113	GapExp	SmallFlash	0	186	2	1	1	target	1	409	796	303476	13.328	12.842	13.818
ProbeTrack13	17	ProbeTrack	13.2	SCS215b	20111109.101325	20111109.103407	8	0.013328	60	10	60-180	60	164	GapExp	SmallFlash	0	187	2	45	1	target	1	440	780	304256	13.328	12.829	13.826
ProbeTrack13	17	ProbeTrack	13.2	SCS215b	20111109.101325	20111109.103414	8	0.013328	60	10	60-180	60	146	GapExp	SmallFlash	0	188	2	45	0	target	0	482	-1000	303256	13.328	12.932	13.723
ProbeTrack13	17	ProbeTrack	13.2	SCS215b	20111109.101325	20111109.103421	8	0.013328	60	10	60-180	60	62	GapExp	SmallFlash	0	189	2	0	0	distractor	1	434	783	304039	13.328	12.886	13.771
ProbeTrack13	17	ProbeTrack	13.2	SCS215b	20111109.101325	20111109.103428	8	0.013328	60	10	60-180	60	136	GapExp	SmallFlash	0	190	2	3	1	target	1	377	812	304851	13.328	13.001	13.648
ProbeTrack13	17	ProbeTrack	13.2	SCS215b	20111109.101325	20111109.103437	8	0.013328	60	10	60-180	60	89	GapExp	SmallFlash	0	191	2	1	1	target	1	611	695	305546	13.328	12.873	13.768
ProbeTrack13	17	ProbeTrack	13.2	SCS215b	20111109.101325	20111109.103443	8	0.013328	60	10	60-180	60	141	GapExp	SmallFlash	0	192	2	45	0	distractor	1	445	778	306324	13.415	12.828	27.103
ProbeTrack13	17	ProbeTrack	13.2	SCS215b	20111109.101325	20111109.103450	8	0.013328	60	10	60-180	60	69	GapExp	SmallFlash	0	193	2	1	1	distractor	0	667	-1000	305324	13.328	12.931	13.724
ProbeTrack13	17	ProbeTrack	13.2	SCS215b	20111109.101325	20111109.103455	8	0.013328	60	10	60-180	60	88	GapExp	SmallFlash	0	194	2	0	0	distractor	1	459	771	306095	13.328	12.898	13.764
ProbeTrack13	17	ProbeTrack	13.2	SCS215b	20111109.101325	20111109.103501	8	0.013328	60	10	60-180	60	134	GapExp	SmallFlash	0	195	2	45	0	distractor	1	393	804	306899	13.328	12.870	13.786
ProbeTrack13	17	ProbeTrack	13.2	SCS215b	20111109.101325	20111109.103508	8	0.013328	60	10	60-180	60	179	GapExp	SmallFlash	0	196	2	0	1	target	1	457	772	307671	13.328	13.000	13.643
ProbeTrack13	17	ProbeTrack	13.2	SCS215b	20111109.101325	20111109.103514	8	0.013328	60	10	60-180	60	162	GapExp	SmallFlash	0	197	2	1	0	distractor	1	442	779	308450	13.328	12.939	13.721
ProbeTrack13	17	ProbeTrack	13.2	SCS215b	20111109.101325	20111109.103521	8	0.013328	60	10	60-180	60	121	GapExp	SmallFlash	0	198	2	45	1	distractor	0	826	-1000	307450	13.328	12.931	13.724
ProbeTrack13	17	ProbeTrack	13.2	SCS215b	20111109.101325	20111109.103528	8	0.013328	60	10	60-180	60	177	GapExp	SmallFlash	0	199	2	3	0	distractor	1	454	773	308223	13.328	12.840	13.801
ProbeTrack13	17	ProbeTrack	13.2	SCS215b	20111109.101325	20111109.103534	8	0.013328	60	10	60-180	60	110	GapExp	SmallFlash	0	200	2	3	1	target	1	461	770	308993	13.328	13.017	13.648
ProbeTrack13	17	ProbeTrack	13.2	SCS215b	20111109.104705	20111109.104715	8	0.013328	60	10	60-180	60	103	GapPrac	Blank	1	1	2	3	0	distractor	1	521	740	309733	13.386	8.599	18.054
ProbeTrack13	17	ProbeTrack	13.2	SCS215b	20111109.104705	20111109.104723	8	0.013328	60	10	60-180	60	63	GapPrac	Blank	1	2	2	1	0	distractor	1	2449	0	309733	13.328	11.382	15.257
ProbeTrack13	17	ProbeTrack	13.2	SCS215b	20111109.104705	20111109.104730	8	0.013328	60	10	60-180	60	87	GapPrac	Blank	1	3	2	3	1	target	1	653	674	310407	13.328	8.628	18.014
ProbeTrack13	17	ProbeTrack	13.2	SCS215b	20111109.104705	20111109.104736	8	0.013328	60	10	60-180	60	166	GapPrac	Blank	1	4	2	45	1	distractor	0	477	-1000	309407	13.368	8.255	26.658
ProbeTrack13	17	ProbeTrack	13.2	SCS215b	20111109.104705	20111109.104743	8	0.013328	60	10	60-180	60	179	GapPrac	Blank	1	5	2	0	1	target	1	543	729	310136	13.328	7.249	19.389
ProbeTrack13	17	ProbeTrack	13.2	SCS215b	20111109.104705	20111109.104750	8	0.013328	60	10	60-180	60	83	GapPrac	Blank	1	6	2	0	0	target	0	525	-1000	309136	13.328	13.273	13.370
ProbeTrack13	17	ProbeTrack	13.2	SCS215b	20111109.104705	20111109.104756	8	0.013328	60	10	60-180	60	178	GapPrac	Blank	1	7	2	1	1	target	1	785	608	309744	13.328	6.641	20.003
ProbeTrack13	17	ProbeTrack	13.2	SCS215b	20111109.104705	20111109.104803	8	0.013328	60	10	60-180	60	116	GapPrac	Blank	1	8	2	45	0	distractor	1	343	829	310573	13.328	9.183	17.485
ProbeTrack13	17	ProbeTrack	13.2	SCS215b	20111109.104705	20111109.104810	8	0.013328	60	10	60-180	60	125	GapPrac	Blank	1	9	2	1	1	target	1	689	656	311229	13.328	5.601	21.046
ProbeTrack13	17	ProbeTrack	13.2	SCS215b	20111109.104705	20111109.104816	8	0.013328	60	10	60-180	60	171	GapPrac	Blank	1	10	2	3	1	target	1	530	735	311964	13.328	9.554	17.106
ProbeTrack13	17	ProbeTrack	13.2	SCS215b	20111109.104705	20111109.104823	8	0.013328	60	10	60-180	60	105	GapPrac	Blank	1	11	2	45	1	target	1	439	781	312745	13.328	6.546	20.100
ProbeTrack13	17	ProbeTrack	13.2	SCS215b	20111109.104705	20111109.104829	8	0.013328	60	10	60-180	60	130	GapPrac	Blank	1	12	2	0	1	distractor	0	312	-1000	311745	13.328	4.158	22.506
ProbeTrack13	17	ProbeTrack	13.2	SCS215b	20111109.104705	20111109.104836	8	0.013328	60	10	60-180	60	149	GapPrac	Blank	1	13	2	1	0	distractor	1	357	822	312567	13.328	13.028	13.644
ProbeTrack13	17	ProbeTrack	13.2	SCS215b	20111109.104705	20111109.104842	8	0.013328	60	10	60-180	60	122	GapPrac	Blank	1	14	2	1	0	distractor	1	572	714	313281	13.328	12.345	14.313
ProbeTrack13	17	ProbeTrack	13.2	SCS215b	20111109.104705	20111109.104848	8	0.013328	60	10	60-180	60	150	GapPrac	Blank	1	15	2	3	1	target	1	480	760	314041	13.328	10.709	15.950
ProbeTrack13	17	ProbeTrack	13.2	SCS215b	20111109.104705	20111109.104855	8	0.013328	60	10	60-180	60	168	GapPrac	Blank	1	16	2	45	0	distractor	1	482	759	314800	13.328	6.057	20.599
ProbeTrack13	17	ProbeTrack	13.2	SCS215b	20111109.104705	20111109.104903	8	0.013328	60	10	60-180	60	114	GapPrac	Blank	1	17	2	0	0	distractor	1	373	814	315614	13.328	8.904	17.747
ProbeTrack13	17	ProbeTrack	13.2	SCS215b	20111109.104705	20111109.104909	8	0.013328	60	10	60-180	60	154	GapPrac	Blank	1	18	2	3	0	target	0	422	-1000	314614	13.328	11.672	14.987
ProbeTrack13	17	ProbeTrack	13.2	SCS215b	20111109.104705	20111109.104916	8	0.013328	60	10	60-180	60	168	GapPrac	Blank	1	19	2	3	0	distractor	1	724	638	315252	13.328	9.166	17.496
ProbeTrack13	17	ProbeTrack	13.2	SCS215b	20111109.104705	20111109.104923	8	0.013328	60	10	60-180	60	71	GapPrac	Blank	1	20	2	45	1	target	1	394	803	316055	13.328	6.474	20.175
ProbeTrack13	17	ProbeTrack	13.2	SCS215b	20111109.105018	20111109.105025	8	0.013304	60	10	60-180	60	84	GapExp	Blank	1	1	2	0	0	distractor	1	446	777	316832	13.393	12.207	14.452
ProbeTrack13	17	ProbeTrack	13.2	SCS215b	20111109.105018	20111109.105032	8	0.013304	60	10	60-180	60	132	GapExp	Blank	1	2	2	3	1	distractor	0	376	-1000	315832	13.328	12.489	14.167
ProbeTrack13	17	ProbeTrack	13.2	SCS215b	20111109.105018	20111109.105038	8	0.013304	60	10	60-180	60	62	GapExp	Blank	1	3	2	0	1	target	1	465	768	316600	13.328	7.320	19.321
ProbeTrack13	17	ProbeTrack	13.2	SCS215b	20111109.105018	20111109.105043	8	0.013304	60	10	60-180	60	110	GapExp	Blank	1	4	2	45	1	target	1	478	761	317361	13.328	13.220	13.457
ProbeTrack13	17	ProbeTrack	13.2	SCS215b	20111109.105018	20111109.105049	8	0.013304	60	10	60-180	60	142	GapExp	Blank	1	5	2	3	0	distractor	1	486	757	318118	13.328	9.299	17.353
ProbeTrack13	17	ProbeTrack	13.2	SCS215b	20111109.105018	20111109.105056	8	0.013304	60	10	60-180	60	164	GapExp	Blank	1	6	2	1	1	target	1	505	748	318866	13.328	9.494	17.159
ProbeTrack13	17	ProbeTrack	13.2	SCS215b	20111109.105018	20111109.105103	8	0.013304	60	10	60-180	60	79	GapExp	Blank	1	7	2	1	0	distractor	1	439	781	319647	13.328	7.634	20.558
ProbeTrack13	17	ProbeTrack	13.2	SCS215b	20111109.105018	20111109.105108	8	0.013304	60	10	60-180	60	78	GapExp	Blank	1	8	2	45	0	distractor	1	531	735	320382	13.328	11.056	15.609
ProbeTrack13	17	ProbeTrack	13.2	SCS215b	20111109.105018	20111109.105114	8	0.013304	60	10	60-180	60	97	GapExp	Blank	0	9	2	1	1	distractor	0	603	-1000	319382	13.328	5.564	21.097
ProbeTrack13	17	ProbeTrack	13.2	SCS215b	20111109.105018	20111109.105120	8	0.013304	60	10	60-180	60	162	GapExp	Blank	0	10	2	0	0	distractor	1	616	692	320074	13.328	4.532	22.134
ProbeTrack13	17	ProbeTrack	13.2	SCS215b	20111109.105018	20111109.105126	8	0.013304	60	10	60-180	60	93	GapExp	Blank	0	11	2	3	0	distractor	1	325	838	320912	13.328	12.217	14.453
ProbeTrack13	17	ProbeTrack	13.2	SCS215b	20111109.105018	20111109.105132	8	0.013304	60	10	60-180	60	167	GapExp	Blank	0	12	2	3	1	target	1	456	772	321684	13.328	10.361	16.198
ProbeTrack13	17	ProbeTrack	13.2	SCS215b	20111109.105018	20111109.105139	8	0.013304	60	10	60-180	60	143	GapExp	Blank	0	13	2	1	0	distractor	1	385	808	322492	13.328	7.414	19.229
ProbeTrack13	17	ProbeTrack	13.2	SCS215b	20111109.105018	20111109.105145	8	0.013304	60	10	60-180	60	115	GapExp	Blank	0	14	2	0	0	distractor	1	402	799	323291	13.328	4.876	21.774
ProbeTrack13	17	ProbeTrack	13.2	SCS215b	20111109.105018	20111109.105151	8	0.013304	60	10	60-180	60	86	GapExp	Blank	0	15	2	45	0	distractor	1	467	767	324058	13.328	5.567	21.090
ProbeTrack13	17	ProbeTrack	13.2	SCS215b	20111109.105018	20111109.105158	8	0.013304	60	10	60-180	60	177	GapExp	Blank	0	16	2	1	1	target	1	460	770	324828	13.328	7.297	19.351
ProbeTrack13	17	ProbeTrack	13.2	SCS215b	20111109.105018	20111109.105204	8	0.013304	60	10	60-180	60	154	GapExp	Blank	0	17	2	45	0	distractor	1	486	757	325585	13.411	7.567	30.406
ProbeTrack13	17	ProbeTrack	13.2	SCS215b	20111109.105018	20111109.105212	8	0.013304	60	10	60-180	60	106	GapExp	Blank	0	18	2	1	0	distractor	1	456	772	326357	13.328	12.516	14.132
ProbeTrack13	17	ProbeTrack	13.2	SCS215b	20111109.105018	20111109.105217	8	0.013304	60	10	60-180	60	137	GapExp	Blank	0	19	2	3	0	distractor	1	394	803	327160	13.328	11.251	15.412
ProbeTrack13	17	ProbeTrack	13.2	SCS215b	20111109.105018	20111109.105224	8	0.013304	60	10	60-180	60	81	GapExp	Blank	0	20	2	3	0	distractor	1	397	802	327962	13.328	8.350	18.313
ProbeTrack13	17	ProbeTrack	13.2	SCS215b	20111109.105018	20111109.105229	8	0.013304	60	10	60-180	60	69	GapExp	Blank	0	21	2	1	0	distractor	1	512	744	328706	13.328	10.982	15.673
ProbeTrack13	17	ProbeTrack	13.2	SCS215b	20111109.105018	20111109.105234	8	0.013304	60	10	60-180	60	153	GapExp	Blank	0	22	2	45	0	distractor	1	491	755	329461	13.328	9.517	17.152
ProbeTrack13	17	ProbeTrack	13.2	SCS215b	20111109.105018	20111109.105242	8	0.013304	60	10	60-180	60	67	GapExp	Blank	0	23	2	1	1	distractor	0	379	-1000	328461	13.328	8.865	17.803
ProbeTrack13	17	ProbeTrack	13.2	SCS215b	20111109.105018	20111109.105247	8	0.013304	60	10	60-180	60	117	GapExp	Blank	0	24	2	0	1	distractor	0	361	-1000	327461	13.328	4.228	22.429
ProbeTrack13	17	ProbeTrack	13.2	SCS215b	20111109.105018	20111109.105259	8	0.013304	60	10	60-180	60	108	GapExp	Blank	0	25	2	1	0	distractor	1	471	765	328226	13.328	5.715	20.952
ProbeTrack13	17	ProbeTrack	13.2	SCS215b	20111109.105018	20111109.105305	8	0.013304	60	10	60-180	60	110	GapExp	Blank	0	26	2	3	0	distractor	1	480	760	328986	13.328	5.201	21.460
ProbeTrack13	17	ProbeTrack	13.2	SCS215b	20111109.105018	20111109.105311	8	0.013304	60	10	60-180	60	177	GapExp	Blank	0	27	2	0	1	target	1	385	808	329794	13.328	5.972	20.675
ProbeTrack13	17	ProbeTrack	13.2	SCS215b	20111109.105018	20111109.105318	8	0.013304	60	10	60-180	60	157	GapExp	Blank	0	28	2	45	0	distractor	1	458	771	330565	13.328	5.459	21.199
ProbeTrack13	17	ProbeTrack	13.2	SCS215b	20111109.105018	20111109.105325	8	0.013304	60	10	60-180	60	177	GapExp	Blank	0	29	2	1	0	distractor	1	399	801	331366	13.328	6.128	20.531
ProbeTrack13	17	ProbeTrack	13.2	SCS215b	20111109.105018	20111109.105337	8	0.013304	60	10	60-180	60	126	GapExp	Blank	0	30	2	1	1	target	1	552	724	332090	13.328	12.337	14.314
ProbeTrack13	17	ProbeTrack	13.2	SCS215b	20111109.105018	20111109.105343	8	0.013304	60	10	60-180	60	167	GapExp	Blank	0	31	2	0	0	distractor	1	352	824	332914	13.328	7.855	18.822
ProbeTrack13	17	ProbeTrack	13.2	SCS215b	20111109.105018	20111109.105350	8	0.013304	60	10	60-180	60	93	GapExp	Blank	0	32	2	1	0	distractor	1	419	791	333705	13.328	13.087	13.572
ProbeTrack13	17	ProbeTrack	13.2	SCS215b	20111109.105018	20111109.105356	8	0.013304	60	10	60-180	60	111	GapExp	Blank	0	33	2	3	1	distractor	0	413	-1000	332705	13.328	5.017	21.637
ProbeTrack13	17	ProbeTrack	13.2	SCS215b	20111109.105018	20111109.105402	8	0.013304	60	10	60-180	60	112	GapExp	Blank	0	34	2	45	0	distractor	1	530	735	333440	13.328	4.291	22.344
ProbeTrack13	17	ProbeTrack	13.2	SCS215b	20111109.105018	20111109.105409	8	0.013304	60	10	60-180	60	158	GapExp	Blank	0	35	2	1	1	target	1	402	799	334239	13.328	11.490	15.177
ProbeTrack13	17	ProbeTrack	13.2	SCS215b	20111109.105018	20111109.105415	8	0.013304	60	10	60-180	60	78	GapExp	Blank	0	36	2	45	1	target	1	428	786	335025	13.328	10.749	15.901
ProbeTrack13	17	ProbeTrack	13.2	SCS215b	20111109.105018	20111109.105422	8	0.013304	60	10	60-180	60	149	GapExp	Blank	0	37	2	0	0	distractor	1	364	818	335843	13.328	5.306	21.358
ProbeTrack13	17	ProbeTrack	13.2	SCS215b	20111109.105018	20111109.105428	8	0.013304	60	10	60-180	60	81	GapExp	Blank	0	38	2	1	1	target	1	430	785	336628	13.328	5.647	21.018
ProbeTrack13	17	ProbeTrack	13.2	SCS215b	20111109.105018	20111109.105434	8	0.013304	60	10	60-180	60	146	GapExp	Blank	0	39	2	45	1	target	1	452	774	337402	13.328	4.220	22.425
ProbeTrack13	17	ProbeTrack	13.2	SCS215b	20111109.105018	20111109.105440	8	0.013304	60	10	60-180	60	68	GapExp	Blank	0	40	2	45	1	distractor	0	466	-1000	336402	13.328	7.709	18.939
ProbeTrack13	17	ProbeTrack	13.2	SCS215b	20111109.105018	20111109.105446	8	0.013304	60	10	60-180	60	95	GapExp	Blank	0	41	2	45	0	distractor	1	673	664	337066	13.328	7.521	19.138
ProbeTrack13	17	ProbeTrack	13.2	SCS215b	20111109.105018	20111109.105453	8	0.013304	60	10	60-180	60	141	GapExp	Blank	0	42	2	0	0	distractor	1	324	838	337904	13.328	6.823	19.807
ProbeTrack13	17	ProbeTrack	13.2	SCS215b	20111109.105018	20111109.105500	8	0.013304	60	10	60-180	60	95	GapExp	Blank	0	43	2	1	1	target	1	468	766	338670	13.328	9.509	17.154
ProbeTrack13	17	ProbeTrack	13.2	SCS215b	20111109.105018	20111109.105506	8	0.013304	60	10	60-180	60	122	GapExp	Blank	0	44	2	3	0	target	0	369	-1000	337670	13.328	11.571	15.083
ProbeTrack13	17	ProbeTrack	13.2	SCS215b	20111109.105018	20111109.105511	8	0.013304	60	10	60-180	60	83	GapExp	Blank	0	45	2	0	0	distractor	1	467	767	338437	13.328	10.651	15.990
ProbeTrack13	17	ProbeTrack	13.2	SCS215b	20111109.105018	20111109.105517	8	0.013304	60	10	60-180	60	139	GapExp	Blank	0	46	2	3	0	distractor	1	375	813	339250	13.328	5.595	21.056
ProbeTrack13	17	ProbeTrack	13.2	SCS215b	20111109.105018	20111109.105523	8	0.013304	60	10	60-180	60	141	GapExp	Blank	0	47	2	3	1	target	1	362	819	340069	13.328	11.059	15.601
ProbeTrack13	17	ProbeTrack	13.2	SCS215b	20111109.105018	20111109.105529	8	0.013304	60	10	60-180	60	101	GapExp	Blank	0	48	2	0	0	distractor	1	376	812	340881	13.328	5.126	21.552
ProbeTrack13	17	ProbeTrack	13.2	SCS215b	20111109.105018	20111109.105535	8	0.013304	60	10	60-180	60	170	GapExp	Blank	0	49	2	0	1	distractor	0	240	-1000	339881	13.328	5.119	21.543
ProbeTrack13	17	ProbeTrack	13.2	SCS215b	20111109.105018	20111109.105541	8	0.013304	60	10	60-180	60	132	GapExp	Blank	0	50	2	0	1	target	1	444	778	340659	13.328	13.180	13.468
ProbeTrack13	17	ProbeTrack	13.2	SCS215b	20111109.105018	20111109.105547	8	0.013304	60	10	60-180	60	100	GapExp	Blank	0	51	2	45	0	distractor	1	366	817	341476	13.328	11.587	15.058
ProbeTrack13	17	ProbeTrack	13.2	SCS215b	20111109.105018	20111109.105553	8	0.013304	60	10	60-180	60	124	GapExp	Blank	0	52	2	1	0	target	0	373	-1000	340476	13.328	9.744	16.910
ProbeTrack13	17	ProbeTrack	13.2	SCS215b	20111109.105018	20111109.105559	8	0.013304	60	10	60-180	60	170	GapExp	Blank	0	53	2	45	1	distractor	0	382	-1000	339476	13.328	5.515	21.131
ProbeTrack13	17	ProbeTrack	13.2	SCS215b	20111109.105018	20111109.105606	8	0.013304	60	10	60-180	60	110	GapExp	Blank	0	54	2	1	0	target	0	806	-1000	338476	13.328	9.016	17.634
ProbeTrack13	17	ProbeTrack	13.2	SCS215b	20111109.105018	20111109.105612	8	0.013304	60	10	60-180	60	123	GapExp	Blank	0	55	2	1	1	target	1	381	810	339286	13.384	10.153	26.955
ProbeTrack13	17	ProbeTrack	13.2	SCS215b	20111109.105018	20111109.105618	8	0.013304	60	10	60-180	60	151	GapExp	Blank	0	56	2	3	1	target	1	429	786	340072	13.328	7.782	18.862
ProbeTrack13	17	ProbeTrack	13.2	SCS215b	20111109.105018	20111109.105624	8	0.013304	60	10	60-180	60	140	GapExp	Blank	0	57	2	0	1	target	1	505	748	340820	13.328	6.346	20.310
ProbeTrack13	17	ProbeTrack	13.2	SCS215b	20111109.105018	20111109.105630	8	0.013304	60	10	60-180	60	86	GapExp	Blank	0	58	2	0	1	target	1	426	787	341607	13.328	6.113	20.544
ProbeTrack13	17	ProbeTrack	13.2	SCS215b	20111109.105018	20111109.105636	8	0.013304	60	10	60-180	60	77	GapExp	Blank	0	59	2	1	1	target	1	381	810	342417	13.328	5.708	20.952
ProbeTrack13	17	ProbeTrack	13.2	SCS215b	20111109.105018	20111109.105642	8	0.013304	60	10	60-180	60	155	GapExp	Blank	0	60	2	3	1	target	1	259	871	343288	13.328	10.811	15.840
ProbeTrack13	17	ProbeTrack	13.2	SCS215b	20111109.105018	20111109.105648	8	0.013304	60	10	60-180	60	172	GapExp	Blank	0	61	2	45	1	target	1	476	762	344050	13.328	9.815	16.854
ProbeTrack13	17	ProbeTrack	13.2	SCS215b	20111109.105018	20111109.105655	8	0.013304	60	10	60-180	60	129	GapExp	Blank	0	62	2	0	0	distractor	1	544	728	344778	13.328	10.191	16.461
ProbeTrack13	17	ProbeTrack	13.2	SCS215b	20111109.105018	20111109.105701	8	0.013304	60	10	60-180	60	77	GapExp	Blank	0	63	2	1	1	target	1	431	785	345563	13.328	11.181	15.492
ProbeTrack13	17	ProbeTrack	13.2	SCS215b	20111109.105018	20111109.105706	8	0.013304	60	10	60-180	60	113	GapExp	Blank	0	64	2	0	0	distractor	1	359	821	346384	13.328	10.857	15.788
