exp	sub	code	rev	comp	runtime	trialtime	nstim	refreshdur	cuedur	gapdur	gapOnsetRange	durPostProbe	gapOnsetTime	blocktype	gaptype	prac	trial	ntargets	soa	probeTarget	resp	acc	rt	pts	tpts	meanFrameDur	minFrameDur	maxFrameDur
ProbeTrack13	4	ProbeTrack	13.2	SCS215b	20111031.134401	20111031.134417	8	0.013328	60	0	60-180	60	144	NoGap	None	1	1	2	45	1	target	1	999	501	501	13.369	13.267	13.396
ProbeTrack13	4	ProbeTrack	13.2	SCS215b	20111031.134401	20111031.134430	8	0.013328	60	0	60-180	60	95	NoGap	None	1	2	2	45	0	distractor	1	827	587	1088	13.328	13.299	13.366
ProbeTrack13	4	ProbeTrack	13.2	SCS215b	20111031.134401	20111031.134439	8	0.013328	60	0	60-180	60	126	NoGap	None	1	3	2	3	0	target	0	582	-1000	88	13.328	12.834	13.831
ProbeTrack13	4	ProbeTrack	13.2	SCS215b	20111031.134401	20111031.134447	8	0.013328	60	0	60-180	60	78	NoGap	None	1	4	2	1	1	distractor	0	624	-1000	-912	13.328	12.229	14.409
ProbeTrack13	4	ProbeTrack	13.2	SCS215b	20111031.134401	20111031.134455	8	0.013328	60	0	60-180	60	153	NoGap	None	1	5	2	3	1	target	1	667	667	-245	13.328	12.929	13.721
ProbeTrack13	4	ProbeTrack	13.2	SCS215b	20111031.134401	20111031.134503	8	0.013328	60	0	60-180	60	136	NoGap	None	1	6	2	0	0	distractor	1	601	700	455	13.328	13.292	13.360
ProbeTrack13	4	ProbeTrack	13.2	SCS215b	20111031.134401	20111031.134509	8	0.013328	60	0	60-180	60	165	NoGap	None	1	7	2	1	0	target	0	622	-1000	-545	13.328	12.226	14.424
ProbeTrack13	4	ProbeTrack	13.2	SCS215b	20111031.134401	20111031.134516	8	0.013328	60	0	60-180	60	110	NoGap	None	1	8	2	1	1	target	1	641	680	135	13.328	7.522	19.119
ProbeTrack13	4	ProbeTrack	13.2	SCS215b	20111031.134401	20111031.134522	8	0.013328	60	0	60-180	60	67	NoGap	None	1	9	2	1	0	target	0	567	-1000	-865	13.328	6.072	20.602
ProbeTrack13	4	ProbeTrack	13.2	SCS215b	20111031.134401	20111031.134528	8	0.013328	60	0	60-180	60	123	NoGap	None	1	10	2	3	0	distractor	1	813	594	-271	13.328	13.092	13.576
ProbeTrack13	4	ProbeTrack	13.2	SCS215b	20111031.134401	20111031.134536	8	0.013328	60	0	60-180	60	65	NoGap	None	1	11	2	1	1	target	1	540	730	459	13.328	13.300	13.364
ProbeTrack13	4	ProbeTrack	13.2	SCS215b	20111031.134401	20111031.134541	8	0.013328	60	0	60-180	60	111	NoGap	None	1	12	2	0	0	distractor	1	513	744	1203	13.328	13.104	13.551
ProbeTrack13	4	ProbeTrack	13.2	SCS215b	20111031.134401	20111031.134547	8	0.013328	60	0	60-180	60	73	NoGap	None	1	13	2	0	1	target	1	631	685	1888	13.328	11.327	15.337
ProbeTrack13	4	ProbeTrack	13.2	SCS215b	20111031.134401	20111031.134553	8	0.013328	60	0	60-180	60	155	NoGap	None	1	14	2	3	1	target	1	427	787	2675	13.328	13.296	13.355
ProbeTrack13	4	ProbeTrack	13.2	SCS215b	20111031.134401	20111031.134600	8	0.013328	60	0	60-180	60	163	NoGap	None	1	15	2	0	0	distractor	1	814	593	3268	13.328	4.617	22.040
ProbeTrack13	4	ProbeTrack	13.2	SCS215b	20111031.134401	20111031.134608	8	0.013328	60	0	60-180	60	138	NoGap	None	1	16	2	3	0	distractor	1	722	639	3907	13.328	13.100	13.564
ProbeTrack13	4	ProbeTrack	13.2	SCS215b	20111031.134401	20111031.134616	8	0.013328	60	0	60-180	60	140	NoGap	None	1	17	2	1	1	target	1	515	743	4650	13.328	13.103	13.559
ProbeTrack13	4	ProbeTrack	13.2	SCS215b	20111031.134401	20111031.134622	8	0.013328	60	0	60-180	60	172	NoGap	None	1	18	2	45	0	distractor	1	358	821	5471	13.328	13.099	13.570
ProbeTrack13	4	ProbeTrack	13.2	SCS215b	20111031.134401	20111031.134629	8	0.013328	60	0	60-180	60	72	NoGap	None	1	19	2	3	1	target	1	533	734	6205	13.328	13.290	13.357
ProbeTrack13	4	ProbeTrack	13.2	SCS215b	20111031.134401	20111031.134635	8	0.013328	60	0	60-180	60	105	NoGap	None	1	20	2	3	1	target	1	470	765	6970	13.328	13.301	13.356
ProbeTrack13	4	ProbeTrack	13.2	SCS215b	20111031.134401	20111031.134641	8	0.013328	60	0	60-180	60	97	NoGap	None	1	21	2	3	1	target	1	379	811	7781	13.328	10.475	16.167
ProbeTrack13	4	ProbeTrack	13.2	SCS215b	20111031.134401	20111031.134647	8	0.013328	60	0	60-180	60	69	NoGap	None	1	22	2	1	0	distractor	1	508	746	8527	13.328	4.299	22.355
ProbeTrack13	4	ProbeTrack	13.2	SCS215b	20111031.134401	20111031.134652	8	0.013328	60	0	60-180	60	147	NoGap	None	1	23	2	45	0	early	-4	-4086	-1000	7527	13.328	9.600	17.262
ProbeTrack13	4	ProbeTrack	13.2	SCS215b	20111031.134401	20111031.134659	8	0.013328	60	0	60-180	60	89	NoGap	None	1	24	2	1	0	distractor	1	747	627	8154	13.328	13.042	13.614
ProbeTrack13	4	ProbeTrack	13.2	SCS215b	20111031.134401	20111031.134708	8	0.013328	60	0	60-180	60	109	NoGap	None	1	25	2	3	0	distractor	1	392	804	8958	13.635	11.948	53.344
ProbeTrack13	4	ProbeTrack	13.2	SCS215b	20111031.134401	20111031.134716	8	0.013328	60	0	60-180	60	160	NoGap	None	1	26	2	1	0	target	0	526	-1000	7958	13.328	6.964	19.704
ProbeTrack13	4	ProbeTrack	13.2	SCS215b	20111031.134401	20111031.134723	8	0.013328	60	0	60-180	60	139	NoGap	None	1	27	2	0	1	target	1	508	746	8704	13.485	11.592	53.280
ProbeTrack13	4	ProbeTrack	13.2	SCS215b	20111031.134401	20111031.134729	8	0.013328	60	0	60-180	60	128	NoGap	None	1	28	2	45	0	distractor	1	326	837	9541	13.332	13.272	14.542
ProbeTrack13	4	ProbeTrack	13.2	SCS215b	20111031.134401	20111031.134736	8	0.013328	60	0	60-180	60	153	NoGap	None	1	29	2	45	0	distractor	1	544	728	10269	13.370	12.731	21.556
ProbeTrack13	4	ProbeTrack	13.2	SCS215b	20111031.134401	20111031.134743	8	0.013328	60	0	60-180	60	65	NoGap	None	1	30	2	0	1	target	1	612	694	10963	13.328	13.254	13.403
ProbeTrack13	4	ProbeTrack	13.2	SCS215b	20111031.134401	20111031.134749	8	0.013328	60	0	60-180	60	158	NoGap	None	1	31	2	0	0	distractor	1	464	768	11731	13.328	9.951	16.708
ProbeTrack13	4	ProbeTrack	13.2	SCS215b	20111031.134401	20111031.134755	8	0.013328	60	0	60-180	60	102	NoGap	None	1	32	2	45	1	target	1	364	818	12549	13.328	12.313	14.344
ProbeTrack13	4	ProbeTrack	13.2	SCS215b	20111031.134401	20111031.134802	8	0.013328	60	0	60-180	60	106	NoGap	None	1	33	2	0	1	target	1	640	680	13229	13.328	7.419	19.226
ProbeTrack13	4	ProbeTrack	13.2	SCS215b	20111031.134401	20111031.134808	8	0.013328	60	0	60-180	60	80	NoGap	None	1	34	2	3	0	distractor	1	479	761	13990	13.328	9.720	16.938
ProbeTrack13	4	ProbeTrack	13.2	SCS215b	20111031.134401	20111031.134814	8	0.013328	60	0	60-180	60	121	NoGap	None	1	35	2	1	1	target	1	433	784	14774	13.328	12.744	13.923
ProbeTrack13	4	ProbeTrack	13.2	SCS215b	20111031.134401	20111031.134820	8	0.013328	60	0	60-180	60	95	NoGap	None	1	36	2	0	0	distractor	1	573	714	15488	13.328	13.025	13.633
ProbeTrack13	4	ProbeTrack	13.2	SCS215b	20111031.134401	20111031.134826	8	0.013328	60	0	60-180	60	165	NoGap	None	1	37	2	45	1	target	1	318	841	16329	13.414	3.859	26.429
ProbeTrack13	4	ProbeTrack	13.2	SCS215b	20111031.134401	20111031.134833	8	0.013328	60	0	60-180	60	88	NoGap	None	1	38	2	0	1	target	1	493	754	17083	13.328	13.273	13.378
ProbeTrack13	4	ProbeTrack	13.2	SCS215b	20111031.134401	20111031.134839	8	0.013328	60	0	60-180	60	113	NoGap	None	1	39	2	45	1	target	1	385	808	17891	13.328	13.023	13.632
ProbeTrack13	4	ProbeTrack	13.2	SCS215b	20111031.134401	20111031.134845	8	0.013328	60	0	60-180	60	124	NoGap	None	1	40	2	45	1	target	1	497	752	18643	13.328	13.301	13.373
ProbeTrack13	4	ProbeTrack	13.2	SCS215b	20111031.134918	20111031.134925	8	0.013328	60	10	60-180	60	170	GapPrac	Blank	1	1	2	3	0	distractor	1	381	810	19453	13.374	13.261	13.399
ProbeTrack13	4	ProbeTrack	13.2	SCS215b	20111031.134918	20111031.134933	8	0.013328	60	10	60-180	60	172	GapPrac	Blank	1	2	2	3	1	target	1	402	799	20252	13.328	13.003	13.649
ProbeTrack13	4	ProbeTrack	13.2	SCS215b	20111031.134918	20111031.134940	8	0.013328	60	10	60-180	60	101	GapPrac	Blank	1	3	2	1	0	distractor	1	489	756	21008	13.328	13.238	13.416
ProbeTrack13	4	ProbeTrack	13.2	SCS215b	20111031.134918	20111031.134947	8	0.013328	60	10	60-180	60	163	GapPrac	Blank	1	4	2	0	0	distractor	1	494	753	21761	13.328	8.136	18.539
ProbeTrack13	4	ProbeTrack	13.2	SCS215b	20111031.134918	20111031.134954	8	0.013328	60	10	60-180	60	69	GapPrac	Blank	1	5	2	45	1	target	1	554	723	22484	13.328	13.090	13.568
ProbeTrack13	4	ProbeTrack	13.2	SCS215b	20111031.134918	20111031.135000	8	0.013328	60	10	60-180	60	94	GapPrac	Blank	1	6	2	0	1	target	1	518	741	23225	13.451	6.504	34.522
ProbeTrack13	4	ProbeTrack	13.2	SCS215b	20111031.134918	20111031.135007	8	0.013328	60	10	60-180	60	102	GapPrac	Blank	1	7	2	45	0	distractor	1	536	732	23957	13.328	13.002	13.643
ProbeTrack13	4	ProbeTrack	13.2	SCS215b	20111031.134918	20111031.135015	8	0.013328	60	10	60-180	60	166	GapPrac	Blank	1	8	2	1	1	target	1	444	778	24735	13.328	11.178	15.484
ProbeTrack13	4	ProbeTrack	13.2	SCS215b	20111031.134918	20111031.135022	8	0.013328	60	10	60-180	60	177	GapPrac	Blank	1	9	2	3	1	target	1	472	764	25499	13.334	6.797	19.853
ProbeTrack13	4	ProbeTrack	13.2	SCS215b	20111031.134918	20111031.135031	8	0.013328	60	10	60-180	60	121	GapPrac	Blank	1	10	2	3	0	distractor	1	469	766	26265	13.328	13.301	13.348
ProbeTrack13	4	ProbeTrack	13.2	SCS215b	20111031.134918	20111031.135038	8	0.013328	60	10	60-180	60	78	GapPrac	Blank	1	11	2	1	0	distractor	1	552	724	26989	13.328	13.292	13.360
ProbeTrack13	4	ProbeTrack	13.2	SCS215b	20111031.134918	20111031.135044	8	0.013328	60	10	60-180	60	169	GapPrac	Blank	1	12	2	3	0	distractor	1	458	771	27760	13.328	12.896	13.815
ProbeTrack13	4	ProbeTrack	13.2	SCS215b	20111031.134918	20111031.135051	8	0.013328	60	10	60-180	60	71	GapPrac	Blank	1	13	2	1	1	target	1	483	759	28519	13.328	13.300	13.361
ProbeTrack13	4	ProbeTrack	13.2	SCS215b	20111031.134918	20111031.135057	8	0.013328	60	10	60-180	60	141	GapPrac	Blank	1	14	2	1	0	distractor	1	497	752	29271	13.328	3.619	23.045
ProbeTrack13	4	ProbeTrack	13.2	SCS215b	20111031.134918	20111031.135107	8	0.013328	60	10	60-180	60	129	GapPrac	Blank	1	15	2	3	1	target	1	460	770	30041	13.328	6.656	20.003
ProbeTrack13	4	ProbeTrack	13.2	SCS215b	20111031.134918	20111031.135114	8	0.013328	60	10	60-180	60	98	GapPrac	Blank	1	16	2	0	0	target	0	756	-1000	29041	13.328	13.127	13.545
ProbeTrack13	4	ProbeTrack	13.2	SCS215b	20111031.134918	20111031.135120	8	0.013328	60	10	60-180	60	86	GapPrac	Blank	1	17	2	0	1	target	1	548	726	29767	13.328	13.302	13.365
ProbeTrack13	4	ProbeTrack	13.2	SCS215b	20111031.134918	20111031.135126	8	0.013328	60	10	60-180	60	124	GapPrac	Blank	1	18	2	45	1	target	1	595	703	30470	13.328	3.345	23.317
ProbeTrack13	4	ProbeTrack	13.2	SCS215b	20111031.134918	20111031.135133	8	0.013328	60	10	60-180	60	155	GapPrac	Blank	1	19	2	45	0	distractor	1	428	786	31256	13.328	3.854	22.792
ProbeTrack13	4	ProbeTrack	13.2	SCS215b	20111031.134918	20111031.135140	8	0.013328	60	10	60-180	60	94	GapPrac	Blank	1	20	2	0	0	target	0	527	-1000	30256	13.328	9.286	17.367
ProbeTrack13	4	ProbeTrack	13.2	SCS215b	20111031.135323	20111031.135334	8	0.013328	60	10	60-180	60	176	GapExp	Blank	1	1	2	1	1	target	1	414	793	31049	13.419	3.858	27.891
ProbeTrack13	4	ProbeTrack	13.2	SCS215b	20111031.135323	20111031.135343	8	0.013328	60	10	60-180	60	72	GapExp	Blank	1	2	2	0	1	distractor	0	535	-1000	30049	13.328	12.226	14.420
ProbeTrack13	4	ProbeTrack	13.2	SCS215b	20111031.135323	20111031.135349	8	0.013328	60	10	60-180	60	137	GapExp	Blank	1	3	2	3	0	distractor	1	385	808	30857	13.328	12.690	13.981
ProbeTrack13	4	ProbeTrack	13.2	SCS215b	20111031.135323	20111031.135356	8	0.013328	60	10	60-180	60	64	GapExp	Blank	1	4	2	0	0	distractor	1	763	619	31476	13.328	12.321	14.400
ProbeTrack13	4	ProbeTrack	13.2	SCS215b	20111031.135323	20111031.135401	8	0.013328	60	10	60-180	60	130	GapExp	Blank	1	5	2	3	1	target	1	456	772	32248	13.328	13.301	13.353
ProbeTrack13	4	ProbeTrack	13.2	SCS215b	20111031.135323	20111031.135407	8	0.013328	60	10	60-180	60	166	GapExp	Blank	1	6	2	1	0	distractor	1	936	532	32780	13.371	13.086	26.455
ProbeTrack13	4	ProbeTrack	13.2	SCS215b	20111031.135323	20111031.135433	8	0.013328	60	10	60-180	60	139	GapExp	Blank	1	7	2	45	0	distractor	1	791	605	33385	13.328	13.089	13.557
ProbeTrack13	4	ProbeTrack	13.2	SCS215b	20111031.135323	20111031.135440	8	0.013328	60	10	60-180	60	62	GapExp	Blank	1	8	2	45	1	target	1	525	738	34123	13.328	13.281	13.385
ProbeTrack13	4	ProbeTrack	13.2	SCS215b	20111031.135323	20111031.135447	8	0.013328	60	10	60-180	60	117	GapExp	Blank	0	9	2	45	1	target	1	457	772	34895	13.328	11.458	15.192
ProbeTrack13	4	ProbeTrack	13.2	SCS215b	20111031.135323	20111031.135453	8	0.013328	60	10	60-180	60	119	GapExp	Blank	0	10	2	0	1	target	1	413	794	35689	13.328	8.340	18.326
ProbeTrack13	4	ProbeTrack	13.2	SCS215b	20111031.135323	20111031.135501	8	0.013328	60	10	60-180	60	115	GapExp	Blank	0	11	2	1	0	distractor	1	501	750	36439	13.328	13.092	13.559
ProbeTrack13	4	ProbeTrack	13.2	SCS215b	20111031.135323	20111031.135508	8	0.013328	60	10	60-180	60	67	GapExp	Blank	0	12	2	45	1	target	1	418	791	37230	13.328	8.905	17.786
ProbeTrack13	4	ProbeTrack	13.2	SCS215b	20111031.135323	20111031.135513	8	0.013328	60	10	60-180	60	93	GapExp	Blank	0	13	2	0	0	target	0	459	-1000	36230	13.328	13.281	13.382
ProbeTrack13	4	ProbeTrack	13.2	SCS215b	20111031.135323	20111031.135519	8	0.013328	60	10	60-180	60	86	GapExp	Blank	0	14	2	0	0	distractor	1	637	682	36912	13.328	13.069	13.597
ProbeTrack13	4	ProbeTrack	13.2	SCS215b	20111031.135323	20111031.135525	8	0.013328	60	10	60-180	60	137	GapExp	Blank	0	15	2	45	0	distractor	1	536	732	37644	13.328	11.996	14.638
ProbeTrack13	4	ProbeTrack	13.2	SCS215b	20111031.135323	20111031.135532	8	0.013328	60	10	60-180	60	170	GapExp	Blank	0	16	2	45	1	target	1	530	735	38379	13.328	12.936	13.768
ProbeTrack13	4	ProbeTrack	13.2	SCS215b	20111031.135323	20111031.135541	8	0.013328	60	10	60-180	60	177	GapExp	Blank	0	17	2	45	0	distractor	1	426	787	39166	13.328	4.795	21.874
ProbeTrack13	4	ProbeTrack	13.2	SCS215b	20111031.135323	20111031.135612	8	0.013328	60	10	60-180	60	106	GapExp	Blank	0	18	2	3	1	target	1	502	749	39915	13.385	13.098	25.958
ProbeTrack13	4	ProbeTrack	13.2	SCS215b	20111031.135323	20111031.135618	8	0.013328	60	10	60-180	60	79	GapExp	Blank	0	19	2	0	1	distractor	0	682	-1000	38915	13.361	7.089	20.776
ProbeTrack13	4	ProbeTrack	13.2	SCS215b	20111031.135323	20111031.135624	8	0.013328	60	10	60-180	60	147	GapExp	Blank	0	20	2	3	1	target	1	920	540	39455	13.328	12.144	14.509
ProbeTrack13	4	ProbeTrack	13.2	SCS215b	20111031.135323	20111031.135648	8	0.013328	60	10	60-180	60	179	GapExp	Blank	0	21	2	45	0	distractor	1	416	792	40247	13.367	9.957	25.728
ProbeTrack13	4	ProbeTrack	13.2	SCS215b	20111031.135323	20111031.135657	8	0.013328	60	10	60-180	60	116	GapExp	Blank	0	22	2	1	0	distractor	1	500	750	40997	13.328	5.914	20.727
ProbeTrack13	4	ProbeTrack	13.2	SCS215b	20111031.135323	20111031.135703	8	0.013328	60	10	60-180	60	160	GapExp	Blank	0	23	2	0	1	target	1	730	635	41632	13.372	13.040	26.670
ProbeTrack13	4	ProbeTrack	13.2	SCS215b	20111031.135323	20111031.135711	8	0.013328	60	10	60-180	60	65	GapExp	Blank	0	24	2	0	0	distractor	1	539	731	42363	13.328	4.677	21.971
ProbeTrack13	4	ProbeTrack	13.2	SCS215b	20111031.135323	20111031.135716	8	0.013328	60	10	60-180	60	133	GapExp	Blank	0	25	2	3	1	target	1	517	742	43105	13.328	8.412	18.250
ProbeTrack13	4	ProbeTrack	13.2	SCS215b	20111031.135323	20111031.135723	8	0.013328	60	10	60-180	60	73	GapExp	Blank	0	26	2	3	1	target	1	526	737	43842	13.328	12.320	14.319
ProbeTrack13	4	ProbeTrack	13.2	SCS215b	20111031.135323	20111031.135728	8	0.013328	60	10	60-180	60	63	GapExp	Blank	0	27	2	3	1	target	1	423	789	44631	13.328	8.254	18.409
ProbeTrack13	4	ProbeTrack	13.2	SCS215b	20111031.135323	20111031.135733	8	0.013328	60	10	60-180	60	131	GapExp	Blank	0	28	2	1	1	target	1	512	744	45375	13.326	10.854	15.805
ProbeTrack13	4	ProbeTrack	13.2	SCS215b	20111031.135323	20111031.135738	8	0.013328	60	10	60-180	60	130	GapExp	Blank	0	29	2	1	1	target	1	354	823	46198	13.328	5.780	20.880
ProbeTrack13	4	ProbeTrack	13.2	SCS215b	20111031.135323	20111031.135744	8	0.013328	60	10	60-180	60	151	GapExp	Blank	0	30	2	3	0	distractor	1	479	761	46959	13.328	13.095	13.470
ProbeTrack13	4	ProbeTrack	13.2	SCS215b	20111031.135323	20111031.135751	8	0.013328	60	10	60-180	60	83	GapExp	Blank	0	31	2	45	1	target	1	488	756	47715	13.328	13.121	13.549
ProbeTrack13	4	ProbeTrack	13.2	SCS215b	20111031.135323	20111031.135757	8	0.013328	60	10	60-180	60	61	GapExp	Blank	0	32	2	45	0	distractor	1	390	805	48520	13.328	10.646	16.015
ProbeTrack13	4	ProbeTrack	13.2	SCS215b	20111031.135323	20111031.135807	8	0.013328	60	10	60-180	60	159	GapExp	Blank	0	33	2	3	0	distractor	1	543	729	49249	13.328	12.693	13.943
ProbeTrack13	4	ProbeTrack	13.2	SCS215b	20111031.135323	20111031.135814	8	0.013328	60	10	60-180	60	177	GapExp	Blank	0	34	2	45	1	target	1	410	795	50044	13.328	5.339	21.318
ProbeTrack13	4	ProbeTrack	13.2	SCS215b	20111031.135323	20111031.135822	8	0.013328	60	10	60-180	60	139	GapExp	Blank	0	35	2	3	1	target	1	386	807	50851	13.328	13.306	13.350
ProbeTrack13	4	ProbeTrack	13.2	SCS215b	20111031.135323	20111031.135829	8	0.013328	60	10	60-180	60	154	GapExp	Blank	0	36	2	45	0	distractor	1	366	817	51668	13.328	9.571	17.074
ProbeTrack13	4	ProbeTrack	13.2	SCS215b	20111031.135323	20111031.135836	8	0.013328	60	10	60-180	60	154	GapExp	Blank	0	37	2	0	0	distractor	1	368	816	52484	13.328	11.878	14.778
ProbeTrack13	4	ProbeTrack	13.2	SCS215b	20111031.135323	20111031.135843	8	0.013328	60	10	60-180	60	114	GapExp	Blank	0	38	2	3	0	distractor	1	407	797	53281	13.328	7.527	19.118
ProbeTrack13	4	ProbeTrack	13.2	SCS215b	20111031.135323	20111031.135849	8	0.013328	60	10	60-180	60	78	GapExp	Blank	0	39	2	1	1	target	1	591	705	53986	13.328	12.363	14.301
ProbeTrack13	4	ProbeTrack	13.2	SCS215b	20111031.135323	20111031.135855	8	0.013328	60	10	60-180	60	153	GapExp	Blank	0	40	2	1	1	distractor	0	290	-1000	52986	13.328	12.948	13.714
ProbeTrack13	4	ProbeTrack	13.2	SCS215b	20111031.135323	20111031.135902	8	0.013328	60	10	60-180	60	101	GapExp	Blank	0	41	2	3	0	distractor	1	462	769	53755	13.328	10.868	15.805
ProbeTrack13	4	ProbeTrack	13.2	SCS215b	20111031.135323	20111031.135908	8	0.013328	60	10	60-180	60	172	GapExp	Blank	0	42	2	3	1	target	1	433	784	54539	13.328	7.234	19.416
ProbeTrack13	4	ProbeTrack	13.2	SCS215b	20111031.135323	20111031.135915	8	0.013328	60	10	60-180	60	137	GapExp	Blank	0	43	2	45	0	distractor	1	471	765	55304	13.328	9.753	16.913
ProbeTrack13	4	ProbeTrack	13.2	SCS215b	20111031.135323	20111031.135923	8	0.013328	60	10	60-180	60	80	GapExp	Blank	0	44	2	3	0	distractor	1	435	783	56087	13.328	5.723	20.939
ProbeTrack13	4	ProbeTrack	13.2	SCS215b	20111031.135323	20111031.135929	8	0.013328	60	10	60-180	60	71	GapExp	Blank	0	45	2	45	1	target	1	463	769	56856	13.328	8.246	18.407
ProbeTrack13	4	ProbeTrack	13.2	SCS215b	20111031.135323	20111031.135935	8	0.013328	60	10	60-180	60	84	GapExp	Blank	0	46	2	45	0	distractor	1	405	798	57654	13.328	12.993	13.664
ProbeTrack13	4	ProbeTrack	13.2	SCS215b	20111031.135323	20111031.135941	8	0.013328	60	10	60-180	60	150	GapExp	Blank	0	47	2	3	0	distractor	1	288	856	58510	13.328	11.820	14.219
ProbeTrack13	4	ProbeTrack	13.2	SCS215b	20111031.135323	20111031.135948	8	0.013328	60	10	60-180	60	126	GapExp	Blank	0	48	2	45	1	target	1	432	784	59294	13.374	11.615	21.092
ProbeTrack13	4	ProbeTrack	13.2	SCS215b	20111031.135323	20111031.135954	8	0.013328	60	10	60-180	60	69	GapExp	Blank	0	49	2	0	0	distractor	1	466	767	60061	13.330	9.484	17.181
ProbeTrack13	4	ProbeTrack	13.2	SCS215b	20111031.135323	20111031.135959	8	0.013328	60	10	60-180	60	65	GapExp	Blank	0	50	2	1	1	target	1	426	787	60848	13.328	7.389	19.258
ProbeTrack13	4	ProbeTrack	13.2	SCS215b	20111031.135323	20111031.140004	8	0.013328	60	10	60-180	60	171	GapExp	Blank	0	51	2	0	0	target	0	547	-1000	59848	13.418	3.646	26.550
ProbeTrack13	4	ProbeTrack	13.2	SCS215b	20111031.135323	20111031.140011	8	0.013328	60	10	60-180	60	83	GapExp	Blank	0	52	2	3	0	distractor	1	437	782	60630	13.328	6.405	20.261
ProbeTrack13	4	ProbeTrack	13.2	SCS215b	20111031.135323	20111031.140021	8	0.013328	60	10	60-180	60	127	GapExp	Blank	0	53	2	0	0	target	0	463	-1000	59630	13.305	6.154	20.526
ProbeTrack13	4	ProbeTrack	13.2	SCS215b	20111031.135323	20111031.140027	8	0.013328	60	10	60-180	60	173	GapExp	Blank	0	54	2	45	0	distractor	1	350	825	60455	13.328	5.189	21.444
ProbeTrack13	4	ProbeTrack	13.2	SCS215b	20111031.135323	20111031.140034	8	0.013328	60	10	60-180	60	94	GapExp	Blank	0	55	2	0	1	target	1	649	676	61131	13.445	3.065	26.605
ProbeTrack13	4	ProbeTrack	13.2	SCS215b	20111031.135323	20111031.140040	8	0.013328	60	10	60-180	60	151	GapExp	Blank	0	56	2	45	0	distractor	1	445	778	61909	13.328	10.503	16.162
ProbeTrack13	4	ProbeTrack	13.2	SCS215b	20111031.135323	20111031.140047	8	0.013328	60	10	60-180	60	91	GapExp	Blank	0	57	2	0	0	distractor	1	552	724	62633	13.511	8.365	49.569
ProbeTrack13	4	ProbeTrack	13.2	SCS215b	20111031.135323	20111031.140053	8	0.013328	60	10	60-180	60	180	GapExp	Blank	0	58	2	1	1	target	1	535	733	63366	13.328	12.611	14.042
ProbeTrack13	4	ProbeTrack	13.2	SCS215b	20111031.135323	20111031.140103	8	0.013328	60	10	60-180	60	136	GapExp	Blank	0	59	2	1	1	target	1	473	764	64130	13.328	10.473	16.175
ProbeTrack13	4	ProbeTrack	13.2	SCS215b	20111031.135323	20111031.140111	8	0.013328	60	10	60-180	60	162	GapExp	Blank	0	60	2	45	0	distractor	1	517	742	64872	13.328	6.514	20.143
ProbeTrack13	4	ProbeTrack	13.2	SCS215b	20111031.135323	20111031.140119	8	0.013328	60	10	60-180	60	127	GapExp	Blank	0	61	2	1	0	distractor	1	711	645	65517	13.328	10.170	16.487
ProbeTrack13	4	ProbeTrack	13.2	SCS215b	20111031.135323	20111031.140126	8	0.013328	60	10	60-180	60	164	GapExp	Blank	0	62	2	1	0	distractor	1	485	758	66275	13.328	3.927	22.733
ProbeTrack13	4	ProbeTrack	13.2	SCS215b	20111031.135323	20111031.140135	8	0.013328	60	10	60-180	60	70	GapExp	Blank	0	63	2	45	0	distractor	1	520	740	67015	13.328	8.314	18.334
ProbeTrack13	4	ProbeTrack	13.2	SCS215b	20111031.135323	20111031.140141	8	0.013328	60	10	60-180	60	72	GapExp	Blank	0	64	2	0	0	target	0	728	-1000	66015	13.328	8.231	18.407
ProbeTrack13	4	ProbeTrack	13.2	SCS215b	20111031.135323	20111031.140146	8	0.013328	60	10	60-180	60	166	GapExp	Blank	0	65	2	3	1	early	-4	-3893	-1000	65015	13.328	3.984	22.668
ProbeTrack13	4	ProbeTrack	13.2	SCS215b	20111031.135323	20111031.140153	8	0.013328	60	10	60-180	60	120	GapExp	Blank	0	66	2	45	1	target	1	447	777	65792	13.375	13.057	26.769
ProbeTrack13	4	ProbeTrack	13.2	SCS215b	20111031.135323	20111031.140202	8	0.013328	60	10	60-180	60	101	GapExp	Blank	0	67	2	45	1	target	1	436	782	66574	13.328	8.971	17.683
ProbeTrack13	4	ProbeTrack	13.2	SCS215b	20111031.135323	20111031.140208	8	0.013328	60	10	60-180	60	116	GapExp	Blank	0	68	2	3	0	distractor	1	372	814	67388	13.328	7.653	19.007
ProbeTrack13	4	ProbeTrack	13.2	SCS215b	20111031.135323	20111031.140214	8	0.013328	60	10	60-180	60	135	GapExp	Blank	0	69	2	1	1	target	1	462	769	68157	13.328	11.281	15.495
ProbeTrack13	4	ProbeTrack	13.2	SCS215b	20111031.135323	20111031.140221	8	0.013328	60	10	60-180	60	108	GapExp	Blank	0	70	2	45	1	target	1	357	822	68979	13.378	9.801	25.367
ProbeTrack13	4	ProbeTrack	13.2	SCS215b	20111031.135323	20111031.140228	8	0.013328	60	10	60-180	60	81	GapExp	Blank	0	71	2	0	1	target	1	551	725	69704	13.328	12.804	13.926
ProbeTrack13	4	ProbeTrack	13.2	SCS215b	20111031.135323	20111031.140234	8	0.013328	60	10	60-180	60	103	GapExp	Blank	0	72	2	3	0	distractor	1	535	733	70437	13.328	10.289	16.358
ProbeTrack13	4	ProbeTrack	13.2	SCS215b	20111031.135323	20111031.140250	8	0.013328	60	10	60-180	60	176	GapExp	Blank	0	73	2	45	1	target	1	519	741	71178	13.328	12.097	14.569
ProbeTrack13	4	ProbeTrack	13.2	SCS215b	20111031.135323	20111031.140258	8	0.013328	60	10	60-180	60	132	GapExp	Blank	0	74	2	1	1	target	1	486	757	71935	13.380	7.391	22.934
ProbeTrack13	4	ProbeTrack	13.2	SCS215b	20111031.135323	20111031.140304	8	0.013328	60	10	60-180	60	124	GapExp	Blank	0	75	2	0	0	distractor	1	480	760	72695	13.328	12.953	13.693
ProbeTrack13	4	ProbeTrack	13.2	SCS215b	20111031.135323	20111031.140311	8	0.013328	60	10	60-180	60	103	GapExp	Blank	0	76	2	1	0	distractor	1	579	711	73406	13.328	13.116	13.570
ProbeTrack13	4	ProbeTrack	13.2	SCS215b	20111031.135323	20111031.140317	8	0.013328	60	10	60-180	60	72	GapExp	Blank	0	77	2	0	1	target	1	470	765	74171	13.328	8.437	18.229
ProbeTrack13	4	ProbeTrack	13.2	SCS215b	20111031.135323	20111031.140322	8	0.013328	60	10	60-180	60	104	GapExp	Blank	0	78	2	3	0	distractor	1	413	794	74965	13.387	13.138	21.097
ProbeTrack13	4	ProbeTrack	13.2	SCS215b	20111031.135323	20111031.140330	8	0.013328	60	10	60-180	60	66	GapExp	Blank	0	79	2	3	0	target	0	748	-1000	73965	13.328	5.709	20.948
ProbeTrack13	4	ProbeTrack	13.2	SCS215b	20111031.135323	20111031.140336	8	0.013328	60	10	60-180	60	143	GapExp	Blank	0	80	2	3	1	target	1	494	753	74718	13.329	6.257	20.417
ProbeTrack13	4	ProbeTrack	13.2	SCS215b	20111031.135323	20111031.140342	8	0.013328	60	10	60-180	60	62	GapExp	Blank	0	81	2	45	1	target	1	431	785	75503	13.328	4.204	22.455
ProbeTrack13	4	ProbeTrack	13.2	SCS215b	20111031.135323	20111031.140348	8	0.013328	60	10	60-180	60	167	GapExp	Blank	0	82	2	0	1	target	1	549	726	76229	13.328	6.696	19.939
ProbeTrack13	4	ProbeTrack	13.2	SCS215b	20111031.135323	20111031.140355	8	0.013328	60	10	60-180	60	71	GapExp	Blank	0	83	2	45	1	target	1	473	764	76993	13.328	13.298	13.350
ProbeTrack13	4	ProbeTrack	13.2	SCS215b	20111031.135323	20111031.140402	8	0.013328	60	10	60-180	60	115	GapExp	Blank	0	84	2	0	1	target	1	418	791	77784	13.328	8.413	18.244
ProbeTrack13	4	ProbeTrack	13.2	SCS215b	20111031.135323	20111031.140408	8	0.013328	60	10	60-180	60	144	GapExp	Blank	0	85	2	1	1	target	1	391	805	78589	13.328	7.632	19.019
ProbeTrack13	4	ProbeTrack	13.2	SCS215b	20111031.135323	20111031.140414	8	0.013328	60	10	60-180	60	167	GapExp	Blank	0	86	2	3	0	distractor	1	484	758	79347	13.328	9.106	17.532
ProbeTrack13	4	ProbeTrack	13.2	SCS215b	20111031.135323	20111031.140421	8	0.013328	60	10	60-180	60	85	GapExp	Blank	0	87	2	45	1	target	1	545	728	80075	13.328	6.372	20.287
ProbeTrack13	4	ProbeTrack	13.2	SCS215b	20111031.135323	20111031.140427	8	0.013328	60	10	60-180	60	97	GapExp	Blank	0	88	2	0	1	target	1	423	789	80864	13.328	10.849	15.795
ProbeTrack13	4	ProbeTrack	13.2	SCS215b	20111031.135323	20111031.140434	8	0.013328	60	10	60-180	60	173	GapExp	Blank	0	89	2	0	1	target	1	406	797	81661	13.328	7.280	19.377
ProbeTrack13	4	ProbeTrack	13.2	SCS215b	20111031.135323	20111031.140440	8	0.013328	60	10	60-180	60	114	GapExp	Blank	0	90	2	45	0	distractor	1	495	753	82414	13.328	10.981	15.678
ProbeTrack13	4	ProbeTrack	13.2	SCS215b	20111031.135323	20111031.140447	8	0.013328	60	10	60-180	60	146	GapExp	Blank	0	91	2	3	1	distractor	0	402	-1000	81414	13.328	13.306	13.348
ProbeTrack13	4	ProbeTrack	13.2	SCS215b	20111031.135323	20111031.140453	8	0.013328	60	10	60-180	60	165	GapExp	Blank	0	92	2	0	0	distractor	1	558	721	82135	13.328	13.296	13.369
ProbeTrack13	4	ProbeTrack	13.2	SCS215b	20111031.135323	20111031.140500	8	0.013328	60	10	60-180	60	149	GapExp	Blank	0	93	2	0	0	distractor	1	478	761	82896	13.328	4.140	22.510
ProbeTrack13	4	ProbeTrack	13.2	SCS215b	20111031.135323	20111031.140507	8	0.013328	60	10	60-180	60	112	GapExp	Blank	0	94	2	0	1	distractor	0	524	-1000	81896	13.384	12.652	26.055
ProbeTrack13	4	ProbeTrack	13.2	SCS215b	20111031.135323	20111031.140514	8	0.013328	60	10	60-180	60	80	GapExp	Blank	0	95	2	0	1	target	1	468	766	82662	13.328	10.291	16.368
ProbeTrack13	4	ProbeTrack	13.2	SCS215b	20111031.135323	20111031.140519	8	0.013328	60	10	60-180	60	78	GapExp	Blank	0	96	2	3	0	distractor	1	441	780	83442	13.395	8.794	31.230
ProbeTrack13	4	ProbeTrack	13.2	SCS215b	20111031.135323	20111031.140524	8	0.013328	60	10	60-180	60	118	GapExp	Blank	0	97	2	45	1	target	1	479	761	84203	13.375	13.111	25.242
ProbeTrack13	4	ProbeTrack	13.2	SCS215b	20111031.135323	20111031.140531	8	0.013328	60	10	60-180	60	142	GapExp	Blank	0	98	2	3	0	distractor	1	382	809	85012	13.328	4.162	22.501
ProbeTrack13	4	ProbeTrack	13.2	SCS215b	20111031.135323	20111031.140537	8	0.013328	60	10	60-180	60	95	GapExp	Blank	0	99	2	1	0	distractor	1	348	826	85838	13.328	13.239	13.405
ProbeTrack13	4	ProbeTrack	13.2	SCS215b	20111031.135323	20111031.140543	8	0.013328	60	10	60-180	60	166	GapExp	Blank	0	100	2	1	1	target	1	463	769	86607	13.328	8.232	18.402
ProbeTrack13	4	ProbeTrack	13.2	SCS215b	20111031.135323	20111031.140549	8	0.013328	60	10	60-180	60	159	GapExp	Blank	0	101	2	3	0	distractor	1	178	911	87518	13.328	13.305	13.370
ProbeTrack13	4	ProbeTrack	13.2	SCS215b	20111031.135323	20111031.140556	8	0.013328	60	10	60-180	60	110	GapExp	Blank	0	102	2	0	0	target	0	272	-1000	86518	13.328	12.912	13.759
ProbeTrack13	4	ProbeTrack	13.2	SCS215b	20111031.135323	20111031.140601	8	0.013328	60	10	60-180	60	74	GapExp	Blank	0	103	2	0	0	distractor	1	393	804	87322	13.328	13.301	13.354
ProbeTrack13	4	ProbeTrack	13.2	SCS215b	20111031.135323	20111031.140607	8	0.013328	60	10	60-180	60	118	GapExp	Blank	0	104	2	3	1	target	1	493	754	88076	13.328	12.122	14.538
ProbeTrack13	4	ProbeTrack	13.2	SCS215b	20111031.135323	20111031.140613	8	0.013328	60	10	60-180	60	102	GapExp	Blank	0	105	2	3	0	distractor	1	456	772	88848	13.328	13.169	13.477
ProbeTrack13	4	ProbeTrack	13.2	SCS215b	20111031.135323	20111031.140619	8	0.013328	60	10	60-180	60	78	GapExp	Blank	0	106	2	45	0	target	0	504	-1000	87848	13.328	13.092	13.555
ProbeTrack13	4	ProbeTrack	13.2	SCS215b	20111031.135323	20111031.140625	8	0.013328	60	10	60-180	60	126	GapExp	Blank	0	107	2	0	0	distractor	1	390	805	88653	13.328	11.621	15.049
ProbeTrack13	4	ProbeTrack	13.2	SCS215b	20111031.135323	20111031.140631	8	0.013328	60	10	60-180	60	85	GapExp	Blank	0	108	2	3	1	target	1	376	812	89465	13.328	13.018	13.625
ProbeTrack13	4	ProbeTrack	13.2	SCS215b	20111031.135323	20111031.140639	8	0.013328	60	10	60-180	60	156	GapExp	Blank	0	109	2	1	0	distractor	1	378	811	90276	13.328	10.153	16.509
ProbeTrack13	4	ProbeTrack	13.2	SCS215b	20111031.135323	20111031.140646	8	0.013328	60	10	60-180	60	100	GapExp	Blank	0	110	2	0	0	distractor	1	574	713	90989	13.328	4.581	22.060
ProbeTrack13	4	ProbeTrack	13.2	SCS215b	20111031.135323	20111031.140652	8	0.013328	60	10	60-180	60	179	GapExp	Blank	0	111	2	1	0	distractor	1	431	785	91774	13.328	7.076	19.593
ProbeTrack13	4	ProbeTrack	13.2	SCS215b	20111031.135323	20111031.140659	8	0.013328	60	10	60-180	60	165	GapExp	Blank	0	112	2	45	1	target	1	376	812	92586	13.328	6.572	20.065
ProbeTrack13	4	ProbeTrack	13.2	SCS215b	20111031.135323	20111031.140706	8	0.013328	60	10	60-180	60	162	GapExp	Blank	0	113	2	1	0	distractor	1	350	825	93411	13.328	12.366	14.289
ProbeTrack13	4	ProbeTrack	13.2	SCS215b	20111031.135323	20111031.140713	8	0.013328	60	10	60-180	60	93	GapExp	Blank	0	114	2	0	0	distractor	1	451	775	94186	13.328	7.656	18.991
ProbeTrack13	4	ProbeTrack	13.2	SCS215b	20111031.135323	20111031.140719	8	0.013328	60	10	60-180	60	166	GapExp	Blank	0	115	2	45	1	target	1	506	747	94933	13.328	8.492	18.170
ProbeTrack13	4	ProbeTrack	13.2	SCS215b	20111031.135323	20111031.140727	8	0.013328	60	10	60-180	60	65	GapExp	Blank	0	116	2	0	1	target	1	561	720	95653	13.328	13.304	13.352
ProbeTrack13	4	ProbeTrack	13.2	SCS215b	20111031.135323	20111031.140732	8	0.013328	60	10	60-180	60	111	GapExp	Blank	0	117	2	0	0	distractor	1	369	816	96469	13.328	8.058	18.592
ProbeTrack13	4	ProbeTrack	13.2	SCS215b	20111031.135323	20111031.140738	8	0.013328	60	10	60-180	60	87	GapExp	Blank	0	118	2	1	0	distractor	1	337	832	97301	13.328	8.270	18.403
ProbeTrack13	4	ProbeTrack	13.2	SCS215b	20111031.135323	20111031.140743	8	0.013328	60	10	60-180	60	167	GapExp	Blank	0	119	2	1	0	distractor	1	418	791	98092	13.328	5.871	20.799
ProbeTrack13	4	ProbeTrack	13.2	SCS215b	20111031.135323	20111031.140750	8	0.013328	60	10	60-180	60	113	GapExp	Blank	0	120	2	1	0	distractor	1	473	764	98856	13.328	13.090	13.550
ProbeTrack13	4	ProbeTrack	13.2	SCS215b	20111031.135323	20111031.140757	8	0.013328	60	10	60-180	60	94	GapExp	Blank	0	121	2	45	1	distractor	0	484	-1000	97856	13.328	10.863	15.790
ProbeTrack13	4	ProbeTrack	13.2	SCS215b	20111031.135323	20111031.140803	8	0.013328	60	10	60-180	60	173	GapExp	Blank	0	122	2	0	1	target	1	528	736	98592	13.328	11.472	15.174
ProbeTrack13	4	ProbeTrack	13.2	SCS215b	20111031.135323	20111031.140809	8	0.013328	60	10	60-180	60	155	GapExp	Blank	0	123	2	3	0	distractor	1	403	799	99391	13.328	12.639	14.008
ProbeTrack13	4	ProbeTrack	13.2	SCS215b	20111031.135323	20111031.140816	8	0.013328	60	10	60-180	60	175	GapExp	Blank	0	124	2	45	0	distractor	1	628	686	100077	13.328	12.131	14.541
ProbeTrack13	4	ProbeTrack	13.2	SCS215b	20111031.135323	20111031.140823	8	0.013328	60	10	60-180	60	124	GapExp	Blank	0	125	2	45	0	distractor	1	408	796	100873	13.328	13.092	13.557
ProbeTrack13	4	ProbeTrack	13.2	SCS215b	20111031.135323	20111031.140831	8	0.013328	60	10	60-180	60	153	GapExp	Blank	0	126	2	45	1	target	1	548	726	101599	13.328	10.315	16.340
ProbeTrack13	4	ProbeTrack	13.2	SCS215b	20111031.135323	20111031.140838	8	0.013328	60	10	60-180	60	120	GapExp	Blank	0	127	2	0	1	target	1	426	787	102386	13.328	13.271	13.374
ProbeTrack13	4	ProbeTrack	13.2	SCS215b	20111031.135323	20111031.140844	8	0.013328	60	10	60-180	60	122	GapExp	Blank	0	128	2	3	0	distractor	1	460	770	103156	13.328	6.047	20.609
ProbeTrack13	4	ProbeTrack	13.2	SCS215b	20111031.135323	20111031.140850	8	0.013328	60	10	60-180	60	62	GapExp	Blank	0	129	2	1	1	target	1	469	766	103922	13.328	13.261	13.393
ProbeTrack13	4	ProbeTrack	13.2	SCS215b	20111031.135323	20111031.140856	8	0.013328	60	10	60-180	60	163	GapExp	Blank	0	130	2	3	0	distractor	1	322	839	104761	13.328	8.330	18.312
ProbeTrack13	4	ProbeTrack	13.2	SCS215b	20111031.135323	20111031.140902	8	0.013328	60	10	60-180	60	140	GapExp	Blank	0	131	2	1	1	distractor	0	383	-1000	103761	13.328	8.041	18.617
ProbeTrack13	4	ProbeTrack	13.2	SCS215b	20111031.135323	20111031.140909	8	0.013328	60	10	60-180	60	89	GapExp	Blank	0	132	2	1	1	target	1	389	806	104567	13.328	9.246	17.423
ProbeTrack13	4	ProbeTrack	13.2	SCS215b	20111031.135323	20111031.140914	8	0.013328	60	10	60-180	60	121	GapExp	Blank	0	133	2	1	1	target	1	398	801	105368	13.328	10.985	15.648
ProbeTrack13	4	ProbeTrack	13.2	SCS215b	20111031.135323	20111031.140920	8	0.013328	60	10	60-180	60	116	GapExp	Blank	0	134	2	1	0	distractor	1	490	755	106123	13.328	10.332	16.332
ProbeTrack13	4	ProbeTrack	13.2	SCS215b	20111031.135323	20111031.140926	8	0.013328	60	10	60-180	60	112	GapExp	Blank	0	135	2	1	1	target	1	508	746	106869	13.328	8.177	18.487
ProbeTrack13	4	ProbeTrack	13.2	SCS215b	20111031.135323	20111031.140932	8	0.013328	60	10	60-180	60	101	GapExp	Blank	0	136	2	45	1	target	1	450	775	107644	13.328	12.494	14.160
ProbeTrack13	4	ProbeTrack	13.2	SCS215b	20111031.135323	20111031.140938	8	0.013328	60	10	60-180	60	176	GapExp	Blank	0	137	2	3	1	target	1	323	839	108483	13.328	5.528	21.140
ProbeTrack13	4	ProbeTrack	13.2	SCS215b	20111031.135323	20111031.140945	8	0.013328	60	10	60-180	60	125	GapExp	Blank	0	138	2	0	0	distractor	1	358	821	109304	13.328	6.898	19.769
ProbeTrack13	4	ProbeTrack	13.2	SCS215b	20111031.135323	20111031.140950	8	0.013328	60	10	60-180	60	138	GapExp	Blank	0	139	2	45	0	distractor	1	424	788	110092	13.328	13.099	13.548
ProbeTrack13	4	ProbeTrack	13.2	SCS215b	20111031.135323	20111031.140957	8	0.013328	60	10	60-180	60	132	GapExp	Blank	0	140	2	45	0	distractor	1	413	794	110886	13.328	10.531	16.135
ProbeTrack13	4	ProbeTrack	13.2	SCS215b	20111031.135323	20111031.141004	8	0.013328	60	10	60-180	60	162	GapExp	Blank	0	141	2	0	1	target	1	332	834	111720	13.328	8.091	18.576
ProbeTrack13	4	ProbeTrack	13.2	SCS215b	20111031.135323	20111031.141010	8	0.013328	60	10	60-180	60	84	GapExp	Blank	0	142	2	0	0	distractor	1	345	828	112548	13.328	13.306	13.352
ProbeTrack13	4	ProbeTrack	13.2	SCS215b	20111031.135323	20111031.141015	8	0.013328	60	10	60-180	60	172	GapExp	Blank	0	143	2	0	0	distractor	1	385	808	113356	13.328	13.301	13.354
ProbeTrack13	4	ProbeTrack	13.2	SCS215b	20111031.135323	20111031.141022	8	0.013328	60	10	60-180	60	140	GapExp	Blank	0	144	2	0	1	target	1	446	777	114133	13.328	13.284	13.365
ProbeTrack13	4	ProbeTrack	13.2	SCS215b	20111031.135323	20111031.141028	8	0.013328	60	10	60-180	60	107	GapExp	Blank	0	145	2	1	0	distractor	1	351	825	114958	13.328	13.301	13.355
ProbeTrack13	4	ProbeTrack	13.2	SCS215b	20111031.135323	20111031.141035	8	0.013328	60	10	60-180	60	162	GapExp	Blank	0	146	2	0	1	distractor	0	223	-1000	113958	13.328	13.300	13.362
ProbeTrack13	4	ProbeTrack	13.2	SCS215b	20111031.135323	20111031.141041	8	0.013328	60	10	60-180	60	152	GapExp	Blank	0	147	2	45	0	distractor	1	370	815	114773	13.328	12.606	14.047
ProbeTrack13	4	ProbeTrack	13.2	SCS215b	20111031.135323	20111031.141048	8	0.013328	60	10	60-180	60	85	GapExp	Blank	0	148	2	45	0	target	0	471	-1000	113773	13.328	12.516	14.143
ProbeTrack13	4	ProbeTrack	13.2	SCS215b	20111031.135323	20111031.141054	8	0.013328	60	10	60-180	60	180	GapExp	Blank	0	149	2	0	1	target	1	357	822	114595	13.328	11.325	15.322
ProbeTrack13	4	ProbeTrack	13.2	SCS215b	20111031.135323	20111031.141103	8	0.013328	60	10	60-180	60	120	GapExp	Blank	0	150	2	3	0	distractor	1	338	831	115426	13.385	13.060	23.325
ProbeTrack13	4	ProbeTrack	13.2	SCS215b	20111031.135323	20111031.141109	8	0.013328	60	10	60-180	60	77	GapExp	Blank	0	151	2	3	1	target	1	436	782	116208	13.328	12.179	14.489
ProbeTrack13	4	ProbeTrack	13.2	SCS215b	20111031.135323	20111031.141115	8	0.013328	60	10	60-180	60	127	GapExp	Blank	0	152	2	1	0	distractor	1	492	754	116962	13.328	3.346	23.285
ProbeTrack13	4	ProbeTrack	13.2	SCS215b	20111031.135323	20111031.141121	8	0.013328	60	10	60-180	60	173	GapExp	Blank	0	153	2	0	1	distractor	0	388	-1000	115962	13.328	5.758	20.894
ProbeTrack13	4	ProbeTrack	13.2	SCS215b	20111031.135323	20111031.141128	8	0.013328	60	10	60-180	60	105	GapExp	Blank	0	154	2	0	1	target	1	492	754	116716	13.328	13.015	13.649
ProbeTrack13	4	ProbeTrack	13.2	SCS215b	20111031.135323	20111031.141133	8	0.013328	60	10	60-180	60	160	GapExp	Blank	0	155	2	45	1	target	1	485	758	117474	13.328	7.286	19.392
ProbeTrack13	4	ProbeTrack	13.2	SCS215b	20111031.135323	20111031.141140	8	0.013328	60	10	60-180	60	112	GapExp	Blank	0	156	2	3	1	target	1	330	835	118309	13.328	12.972	13.691
ProbeTrack13	4	ProbeTrack	13.2	SCS215b	20111031.135323	20111031.141146	8	0.013328	60	10	60-180	60	159	GapExp	Blank	0	157	2	1	1	target	1	340	830	119139	13.328	9.965	16.685
ProbeTrack13	4	ProbeTrack	13.2	SCS215b	20111031.135323	20111031.141156	8	0.013328	60	10	60-180	60	69	GapExp	Blank	0	158	2	3	0	distractor	1	484	758	119897	13.328	3.811	22.846
ProbeTrack13	4	ProbeTrack	13.2	SCS215b	20111031.135323	20111031.141201	8	0.013328	60	10	60-180	60	72	GapExp	Blank	0	159	2	0	1	target	1	345	828	120725	13.328	10.120	16.549
ProbeTrack13	4	ProbeTrack	13.2	SCS215b	20111031.135323	20111031.141206	8	0.013328	60	10	60-180	60	73	GapExp	Blank	0	160	2	1	0	distractor	1	390	805	121530	13.328	13.055	13.610
ProbeTrack13	4	ProbeTrack	13.2	SCS215b	20111031.135323	20111031.141212	8	0.013328	60	10	60-180	60	133	GapExp	Blank	0	161	2	1	0	distractor	1	307	847	122377	13.328	13.274	13.377
ProbeTrack13	4	ProbeTrack	13.2	SCS215b	20111031.135323	20111031.141218	8	0.013328	60	10	60-180	60	161	GapExp	Blank	0	162	2	1	0	distractor	1	207	897	123274	13.328	4.459	22.208
ProbeTrack13	4	ProbeTrack	13.2	SCS215b	20111031.135323	20111031.141225	8	0.013328	60	10	60-180	60	100	GapExp	Blank	0	163	2	1	1	distractor	0	298	-1000	122274	13.328	13.110	13.538
ProbeTrack13	4	ProbeTrack	13.2	SCS215b	20111031.135323	20111031.141230	8	0.013328	60	10	60-180	60	167	GapExp	Blank	0	164	2	1	1	distractor	0	174	-1000	121274	13.328	8.910	17.759
ProbeTrack13	4	ProbeTrack	13.2	SCS215b	20111031.135323	20111031.141237	8	0.013328	60	10	60-180	60	161	GapExp	Blank	0	165	2	3	0	distractor	1	351	825	122099	13.328	13.297	13.360
ProbeTrack13	4	ProbeTrack	13.2	SCS215b	20111031.135323	20111031.141244	8	0.013328	60	10	60-180	60	92	GapExp	Blank	0	166	2	1	0	distractor	1	467	767	122866	13.328	12.584	14.047
ProbeTrack13	4	ProbeTrack	13.2	SCS215b	20111031.135323	20111031.141249	8	0.013328	60	10	60-180	60	134	GapExp	Blank	0	167	2	3	1	target	1	375	813	123679	13.328	13.303	13.354
ProbeTrack13	4	ProbeTrack	13.2	SCS215b	20111031.135323	20111031.141255	8	0.013328	60	10	60-180	60	130	GapExp	Blank	0	168	2	45	1	target	1	375	813	124492	13.328	12.902	13.756
ProbeTrack13	4	ProbeTrack	13.2	SCS215b	20111031.135323	20111031.141302	8	0.013328	60	10	60-180	60	89	GapExp	Blank	0	169	2	45	0	distractor	1	455	773	125265	13.328	10.552	16.126
ProbeTrack13	4	ProbeTrack	13.2	SCS215b	20111031.135323	20111031.141308	8	0.013328	60	10	60-180	60	102	GapExp	Blank	0	170	2	0	0	distractor	1	418	791	126056	13.328	13.300	13.351
ProbeTrack13	4	ProbeTrack	13.2	SCS215b	20111031.135323	20111031.141314	8	0.013328	60	10	60-180	60	154	GapExp	Blank	0	171	2	1	0	distractor	1	406	797	126853	13.328	9.207	17.457
ProbeTrack13	4	ProbeTrack	13.2	SCS215b	20111031.135323	20111031.141321	8	0.013328	60	10	60-180	60	65	GapExp	Blank	0	172	2	3	0	distractor	1	376	812	127665	13.328	8.927	17.725
ProbeTrack13	4	ProbeTrack	13.2	SCS215b	20111031.135323	20111031.141326	8	0.013328	60	10	60-180	60	100	GapExp	Blank	0	173	2	45	0	distractor	1	421	790	128455	13.328	8.037	18.607
ProbeTrack13	4	ProbeTrack	13.2	SCS215b	20111031.135323	20111031.141333	8	0.013328	60	10	60-180	60	176	GapExp	Blank	0	174	2	0	1	target	1	398	801	129256	13.328	6.601	20.055
ProbeTrack13	4	ProbeTrack	13.2	SCS215b	20111031.135323	20111031.141339	8	0.013328	60	10	60-180	60	142	GapExp	Blank	0	175	2	3	1	target	1	412	794	130050	13.328	7.034	19.637
ProbeTrack13	4	ProbeTrack	13.2	SCS215b	20111031.135323	20111031.141346	8	0.013328	60	10	60-180	60	92	GapExp	Blank	0	176	2	1	1	target	1	401	800	130850	13.328	13.304	13.353
ProbeTrack13	4	ProbeTrack	13.2	SCS215b	20111031.135323	20111031.141351	8	0.013328	60	10	60-180	60	77	GapExp	Blank	0	177	2	3	1	distractor	0	350	-1000	129850	13.328	4.148	22.495
ProbeTrack13	4	ProbeTrack	13.2	SCS215b	20111031.135323	20111031.141357	8	0.013328	60	10	60-180	60	104	GapExp	Blank	0	178	2	0	0	distractor	1	414	793	130643	13.328	5.639	21.012
ProbeTrack13	4	ProbeTrack	13.2	SCS215b	20111031.135323	20111031.141403	8	0.013328	60	10	60-180	60	90	GapExp	Blank	0	179	2	0	1	target	1	456	772	131415	13.328	7.790	18.847
ProbeTrack13	4	ProbeTrack	13.2	SCS215b	20111031.135323	20111031.141408	8	0.013328	60	10	60-180	60	137	GapExp	Blank	0	180	2	45	0	distractor	1	528	736	132151	13.328	11.970	14.696
ProbeTrack13	4	ProbeTrack	13.2	SCS215b	20111031.135323	20111031.141415	8	0.013328	60	10	60-180	60	161	GapExp	Blank	0	181	2	0	0	distractor	1	356	822	132973	13.328	10.783	15.877
ProbeTrack13	4	ProbeTrack	13.2	SCS215b	20111031.135323	20111031.141422	8	0.013328	60	10	60-180	60	154	GapExp	Blank	0	182	2	3	1	distractor	0	277	-1000	131973	13.328	5.466	21.187
ProbeTrack13	4	ProbeTrack	13.2	SCS215b	20111031.135323	20111031.141428	8	0.013328	60	10	60-180	60	101	GapExp	Blank	0	183	2	3	1	target	1	392	804	132777	13.328	8.098	18.551
ProbeTrack13	4	ProbeTrack	13.2	SCS215b	20111031.135323	20111031.141434	8	0.013328	60	10	60-180	60	98	GapExp	Blank	0	184	2	3	1	target	1	430	785	133562	13.328	10.434	16.225
ProbeTrack13	4	ProbeTrack	13.2	SCS215b	20111031.135323	20111031.141440	8	0.013328	60	10	60-180	60	62	GapExp	Blank	0	185	2	3	0	distractor	1	471	765	134327	13.328	6.142	20.491
ProbeTrack13	4	ProbeTrack	13.2	SCS215b	20111031.135323	20111031.141445	8	0.013328	60	10	60-180	60	139	GapExp	Blank	0	186	2	1	1	target	1	462	769	135096	13.328	5.997	20.672
ProbeTrack13	4	ProbeTrack	13.2	SCS215b	20111031.135323	20111031.141451	8	0.013328	60	10	60-180	60	115	GapExp	Blank	0	187	2	3	1	target	1	394	803	135899	13.328	4.214	22.450
ProbeTrack13	4	ProbeTrack	13.2	SCS215b	20111031.135323	20111031.141457	8	0.013328	60	10	60-180	60	159	GapExp	Blank	0	188	2	3	1	target	1	434	783	136682	13.328	5.499	21.148
ProbeTrack13	4	ProbeTrack	13.2	SCS215b	20111031.135323	20111031.141504	8	0.013328	60	10	60-180	60	127	GapExp	Blank	0	189	2	1	0	distractor	1	423	789	137471	13.328	12.773	13.879
ProbeTrack13	4	ProbeTrack	13.2	SCS215b	20111031.135323	20111031.141509	8	0.013328	60	10	60-180	60	92	GapExp	Blank	0	190	2	45	1	target	1	486	757	138228	13.328	6.898	19.768
ProbeTrack13	4	ProbeTrack	13.2	SCS215b	20111031.135323	20111031.141516	8	0.013328	60	10	60-180	60	159	GapExp	Blank	0	191	2	1	1	target	1	465	768	138996	13.328	3.983	22.677
ProbeTrack13	4	ProbeTrack	13.2	SCS215b	20111031.135323	20111031.141522	8	0.013328	60	10	60-180	60	177	GapExp	Blank	0	192	2	1	1	target	1	381	810	139806	13.328	9.618	17.032
ProbeTrack13	4	ProbeTrack	13.2	SCS215b	20111031.135323	20111031.141529	8	0.013328	60	10	60-180	60	66	GapExp	Blank	0	193	2	1	1	target	1	506	747	140553	13.328	10.277	16.385
ProbeTrack13	4	ProbeTrack	13.2	SCS215b	20111031.135323	20111031.141534	8	0.013328	60	10	60-180	60	120	GapExp	Blank	0	194	2	45	1	target	1	404	798	141351	13.328	10.210	16.456
ProbeTrack13	4	ProbeTrack	13.2	SCS215b	20111031.135323	20111031.141541	8	0.013328	60	10	60-180	60	72	GapExp	Blank	0	195	2	1	0	distractor	1	712	644	141995	13.328	12.040	14.615
ProbeTrack13	4	ProbeTrack	13.2	SCS215b	20111031.135323	20111031.141546	8	0.013328	60	10	60-180	60	131	GapExp	Blank	0	196	2	45	0	target	0	544	-1000	140995	13.328	10.155	16.501
ProbeTrack13	4	ProbeTrack	13.2	SCS215b	20111031.135323	20111031.141553	8	0.013328	60	10	60-180	60	100	GapExp	Blank	0	197	2	3	1	target	1	420	790	141785	13.328	8.873	17.773
ProbeTrack13	4	ProbeTrack	13.2	SCS215b	20111031.135323	20111031.141558	8	0.013328	60	10	60-180	60	132	GapExp	Blank	0	198	2	1	0	distractor	1	414	793	142578	13.328	13.094	13.560
ProbeTrack13	4	ProbeTrack	13.2	SCS215b	20111031.135323	20111031.141605	8	0.013328	60	10	60-180	60	145	GapExp	Blank	0	199	2	45	0	distractor	1	537	732	143310	13.328	9.309	17.348
ProbeTrack13	4	ProbeTrack	13.2	SCS215b	20111031.135323	20111031.141612	8	0.013328	60	10	60-180	60	166	GapExp	Blank	0	200	2	1	0	distractor	1	480	760	144070	13.328	11.037	15.575
ProbeTrack13	4	ProbeTrack	13.2	SCS215b	20111031.141744	20111031.141753	8	0.013327	60	10	60-180	60	90	GapPrac	BigFlash	1	1	2	1	1	target	1	436	782	144852	13.391	10.041	16.622
ProbeTrack13	4	ProbeTrack	13.2	SCS215b	20111031.141744	20111031.141803	8	0.013327	60	10	60-180	60	174	GapPrac	BigFlash	1	2	2	0	1	target	1	410	795	145647	13.374	10.769	26.658
ProbeTrack13	4	ProbeTrack	13.2	SCS215b	20111031.141744	20111031.141809	8	0.013327	60	10	60-180	60	148	GapPrac	BigFlash	1	3	2	45	1	target	1	447	777	146424	13.328	11.382	15.280
ProbeTrack13	4	ProbeTrack	13.2	SCS215b	20111031.141744	20111031.141816	8	0.013327	60	10	60-180	60	165	GapPrac	BigFlash	1	4	2	0	0	distractor	1	460	770	147194	13.328	9.166	17.462
ProbeTrack13	4	ProbeTrack	13.2	SCS215b	20111031.141744	20111031.141823	8	0.013327	60	10	60-180	60	155	GapPrac	BigFlash	1	5	2	0	0	distractor	1	459	771	147965	13.328	3.936	22.718
ProbeTrack13	4	ProbeTrack	13.2	SCS215b	20111031.141744	20111031.141830	8	0.013327	60	10	60-180	60	133	GapPrac	BigFlash	1	6	2	3	0	distractor	1	370	815	148780	13.328	4.699	22.006
ProbeTrack13	4	ProbeTrack	13.2	SCS215b	20111031.141744	20111031.141836	8	0.013327	60	10	60-180	60	154	GapPrac	BigFlash	1	7	2	1	0	distractor	1	446	777	149557	13.328	8.990	17.671
ProbeTrack13	4	ProbeTrack	13.2	SCS215b	20111031.141744	20111031.141843	8	0.013327	60	10	60-180	60	159	GapPrac	BigFlash	1	8	2	3	0	distractor	1	399	801	150358	13.328	11.057	15.609
ProbeTrack13	4	ProbeTrack	13.2	SCS215b	20111031.141744	20111031.141850	8	0.013327	60	10	60-180	60	85	GapPrac	BigFlash	1	9	2	45	0	distractor	1	333	834	151192	13.328	13.098	13.548
ProbeTrack13	4	ProbeTrack	13.2	SCS215b	20111031.141744	20111031.141856	8	0.013327	60	10	60-180	60	70	GapPrac	BigFlash	1	10	2	1	1	target	1	418	791	151983	13.328	6.134	20.539
ProbeTrack13	4	ProbeTrack	13.2	SCS215b	20111031.141744	20111031.141901	8	0.013327	60	10	60-180	60	85	GapPrac	BigFlash	1	11	2	45	1	target	1	362	819	152802	13.328	4.967	21.703
ProbeTrack13	4	ProbeTrack	13.2	SCS215b	20111031.141744	20111031.141907	8	0.013327	60	10	60-180	60	93	GapPrac	BigFlash	1	12	2	0	1	distractor	0	375	-1000	151802	13.328	7.255	19.404
ProbeTrack13	4	ProbeTrack	13.2	SCS215b	20111031.141744	20111031.141913	8	0.013327	60	10	60-180	60	73	GapPrac	BigFlash	1	13	2	45	1	target	1	308	846	152648	13.328	5.025	21.639
ProbeTrack13	4	ProbeTrack	13.2	SCS215b	20111031.141744	20111031.141918	8	0.013327	60	10	60-180	60	92	GapPrac	BigFlash	1	14	2	45	0	distractor	1	404	798	153446	13.328	11.466	15.193
ProbeTrack13	4	ProbeTrack	13.2	SCS215b	20111031.141744	20111031.141924	8	0.013327	60	10	60-180	60	71	GapPrac	BigFlash	1	15	2	0	0	distractor	1	453	774	154220	13.328	11.011	15.640
ProbeTrack13	4	ProbeTrack	13.2	SCS215b	20111031.141744	20111031.141930	8	0.013327	60	10	60-180	60	169	GapPrac	BigFlash	1	16	2	3	1	target	1	356	822	155042	13.328	10.682	15.989
ProbeTrack13	4	ProbeTrack	13.2	SCS215b	20111031.141744	20111031.141936	8	0.013327	60	10	60-180	60	178	GapPrac	BigFlash	1	17	2	1	1	target	1	416	792	155834	13.328	11.503	15.220
ProbeTrack13	4	ProbeTrack	13.2	SCS215b	20111031.141744	20111031.141943	8	0.013327	60	10	60-180	60	99	GapPrac	BigFlash	1	18	2	1	0	distractor	1	446	777	156611	13.328	10.998	15.660
ProbeTrack13	4	ProbeTrack	13.2	SCS215b	20111031.141744	20111031.141949	8	0.013327	60	10	60-180	60	143	GapPrac	BigFlash	1	19	2	3	1	target	1	399	801	157412	13.328	7.833	18.811
ProbeTrack13	4	ProbeTrack	13.2	SCS215b	20111031.141744	20111031.141956	8	0.013327	60	10	60-180	60	158	GapPrac	BigFlash	1	20	2	0	1	target	1	362	819	158231	13.328	8.900	17.739
ProbeTrack13	4	ProbeTrack	13.2	SCS215b	20111031.142036	20111031.142056	8	0.013328	60	10	60-180	60	74	GapExp	BigFlash	1	1	2	1	0	distractor	1	442	779	159010	13.396	12.932	13.730
ProbeTrack13	4	ProbeTrack	13.2	SCS215b	20111031.142036	20111031.142102	8	0.013328	60	10	60-180	60	88	GapExp	BigFlash	1	2	2	1	1	target	1	308	846	159856	13.328	13.299	13.360
ProbeTrack13	4	ProbeTrack	13.2	SCS215b	20111031.142036	20111031.142107	8	0.013328	60	10	60-180	60	142	GapExp	BigFlash	1	3	2	45	0	distractor	1	297	852	160708	13.328	12.672	13.977
ProbeTrack13	4	ProbeTrack	13.2	SCS215b	20111031.142036	20111031.142114	8	0.013328	60	10	60-180	60	170	GapExp	BigFlash	1	4	2	3	1	target	1	323	839	161547	13.328	12.533	14.120
ProbeTrack13	4	ProbeTrack	13.2	SCS215b	20111031.142036	20111031.142121	8	0.013328	60	10	60-180	60	68	GapExp	BigFlash	1	5	2	3	0	distractor	1	360	820	162367	13.400	4.524	27.398
ProbeTrack13	4	ProbeTrack	13.2	SCS215b	20111031.142036	20111031.142126	8	0.013328	60	10	60-180	60	130	GapExp	BigFlash	1	6	2	0	0	distractor	1	367	817	163184	13.328	5.539	21.159
ProbeTrack13	4	ProbeTrack	13.2	SCS215b	20111031.142036	20111031.142132	8	0.013328	60	10	60-180	60	85	GapExp	BigFlash	1	7	2	0	1	target	1	384	808	163992	13.395	8.881	31.101
ProbeTrack13	4	ProbeTrack	13.2	SCS215b	20111031.142036	20111031.142137	8	0.013328	60	10	60-180	60	87	GapExp	BigFlash	1	8	2	45	1	target	1	355	823	164815	13.328	8.702	17.958
ProbeTrack13	4	ProbeTrack	13.2	SCS215b	20111031.142036	20111031.142143	8	0.013328	60	10	60-180	60	75	GapExp	BigFlash	0	9	2	0	0	distractor	1	424	788	165603	13.328	7.764	18.978
ProbeTrack13	4	ProbeTrack	13.2	SCS215b	20111031.142036	20111031.142149	8	0.013328	60	10	60-180	60	71	GapExp	BigFlash	0	10	2	0	1	target	1	399	801	166404	13.328	7.228	19.420
ProbeTrack13	4	ProbeTrack	13.2	SCS215b	20111031.142036	20111031.142154	8	0.013328	60	10	60-180	60	145	GapExp	BigFlash	0	11	2	1	1	target	1	431	785	167189	13.328	7.181	19.474
ProbeTrack13	4	ProbeTrack	13.2	SCS215b	20111031.142036	20111031.142201	8	0.013328	60	10	60-180	60	164	GapExp	BigFlash	0	12	2	1	1	distractor	0	349	-1000	166189	13.328	11.815	14.833
ProbeTrack13	4	ProbeTrack	13.2	SCS215b	20111031.142036	20111031.142208	8	0.013328	60	10	60-180	60	77	GapExp	BigFlash	0	13	2	45	0	distractor	1	448	776	166965	13.328	7.379	19.269
ProbeTrack13	4	ProbeTrack	13.2	SCS215b	20111031.142036	20111031.142214	8	0.013328	60	10	60-180	60	65	GapExp	BigFlash	0	14	2	45	0	distractor	1	510	745	167710	13.328	4.507	22.143
ProbeTrack13	4	ProbeTrack	13.2	SCS215b	20111031.142036	20111031.142221	8	0.013328	60	10	60-180	60	78	GapExp	BigFlash	0	15	2	3	0	target	0	460	-1000	166710	13.328	10.878	15.799
ProbeTrack13	4	ProbeTrack	13.2	SCS215b	20111031.142036	20111031.142226	8	0.013328	60	10	60-180	60	142	GapExp	BigFlash	0	16	2	3	1	target	1	319	841	167551	13.328	11.434	15.215
ProbeTrack13	4	ProbeTrack	13.2	SCS215b	20111031.142036	20111031.142232	8	0.013328	60	10	60-180	60	104	GapExp	BigFlash	0	17	2	1	1	target	1	334	833	168384	13.328	3.605	23.070
ProbeTrack13	4	ProbeTrack	13.2	SCS215b	20111031.142036	20111031.142238	8	0.013328	60	10	60-180	60	64	GapExp	BigFlash	0	18	2	3	1	target	1	338	831	169215	13.328	9.884	16.773
ProbeTrack13	4	ProbeTrack	13.2	SCS215b	20111031.142036	20111031.142243	8	0.013328	60	10	60-180	60	83	GapExp	BigFlash	0	19	2	3	0	distractor	1	403	799	170014	13.328	7.760	18.888
ProbeTrack13	4	ProbeTrack	13.2	SCS215b	20111031.142036	20111031.142248	8	0.013328	60	10	60-180	60	142	GapExp	BigFlash	0	20	2	0	1	target	1	293	854	170868	13.328	8.022	18.627
ProbeTrack13	4	ProbeTrack	13.2	SCS215b	20111031.142036	20111031.142254	8	0.013328	60	10	60-180	60	140	GapExp	BigFlash	0	21	2	3	1	target	1	310	845	171713	13.328	5.399	21.242
ProbeTrack13	4	ProbeTrack	13.2	SCS215b	20111031.142036	20111031.142300	8	0.013328	60	10	60-180	60	162	GapExp	BigFlash	0	22	2	1	0	distractor	1	401	800	172513	13.328	13.287	13.375
ProbeTrack13	4	ProbeTrack	13.2	SCS215b	20111031.142036	20111031.142306	8	0.013328	60	10	60-180	60	109	GapExp	BigFlash	0	23	2	0	1	target	1	408	796	173309	13.328	8.419	18.249
ProbeTrack13	4	ProbeTrack	13.2	SCS215b	20111031.142036	20111031.142312	8	0.013328	60	10	60-180	60	155	GapExp	BigFlash	0	24	2	45	0	distractor	1	384	808	174117	13.328	5.483	21.162
ProbeTrack13	4	ProbeTrack	13.2	SCS215b	20111031.142036	20111031.142319	8	0.013328	60	10	60-180	60	169	GapExp	BigFlash	0	25	2	45	1	target	1	339	831	174948	13.328	5.610	21.037
ProbeTrack13	4	ProbeTrack	13.2	SCS215b	20111031.142036	20111031.142328	8	0.013328	60	10	60-180	60	144	GapExp	BigFlash	0	26	2	1	0	distractor	1	523	739	175687	13.377	11.711	23.040
ProbeTrack13	4	ProbeTrack	13.2	SCS215b	20111031.142036	20111031.142334	8	0.013328	60	10	60-180	60	139	GapExp	BigFlash	0	27	2	45	0	distractor	1	469	766	176453	13.328	5.031	21.629
ProbeTrack13	4	ProbeTrack	13.2	SCS215b	20111031.142036	20111031.142341	8	0.013328	60	10	60-180	60	159	GapExp	BigFlash	0	28	2	45	0	distractor	1	402	799	177252	13.328	6.083	20.578
ProbeTrack13	4	ProbeTrack	13.2	SCS215b	20111031.142036	20111031.142349	8	0.013328	60	10	60-180	60	70	GapExp	BigFlash	0	29	2	3	0	distractor	1	526	737	177989	13.328	13.293	13.354
ProbeTrack13	4	ProbeTrack	13.2	SCS215b	20111031.142036	20111031.142355	8	0.013328	60	10	60-180	60	145	GapExp	BigFlash	0	30	2	3	1	target	1	424	788	178777	13.328	5.235	21.407
ProbeTrack13	4	ProbeTrack	13.2	SCS215b	20111031.142036	20111031.142401	8	0.013328	60	10	60-180	60	175	GapExp	BigFlash	0	31	2	3	0	distractor	1	429	786	179563	13.328	4.842	21.814
ProbeTrack13	4	ProbeTrack	13.2	SCS215b	20111031.142036	20111031.142408	8	0.013328	60	10	60-180	60	94	GapExp	BigFlash	0	32	2	1	1	target	1	494	753	180316	13.328	10.896	15.768
ProbeTrack13	4	ProbeTrack	13.2	SCS215b	20111031.142036	20111031.142413	8	0.013328	60	10	60-180	60	162	GapExp	BigFlash	0	33	2	1	1	target	1	427	787	181103	13.328	9.184	17.474
ProbeTrack13	4	ProbeTrack	13.2	SCS215b	20111031.142036	20111031.142420	8	0.013328	60	10	60-180	60	159	GapExp	BigFlash	0	34	2	0	0	distractor	1	463	769	181872	13.328	7.922	18.732
ProbeTrack13	4	ProbeTrack	13.2	SCS215b	20111031.142036	20111031.142427	8	0.013328	60	10	60-180	60	137	GapExp	BigFlash	0	35	2	45	1	target	1	380	810	182682	13.328	10.657	16.006
ProbeTrack13	4	ProbeTrack	13.2	SCS215b	20111031.142036	20111031.142434	8	0.013328	60	10	60-180	60	122	GapExp	BigFlash	0	36	2	0	0	distractor	1	424	788	183470	13.328	12.904	13.873
ProbeTrack13	4	ProbeTrack	13.2	SCS215b	20111031.142036	20111031.142440	8	0.013328	60	10	60-180	60	97	GapExp	BigFlash	0	37	2	0	0	distractor	1	395	803	184273	13.328	10.845	15.814
ProbeTrack13	4	ProbeTrack	13.2	SCS215b	20111031.142036	20111031.142445	8	0.013328	60	10	60-180	60	175	GapExp	BigFlash	0	38	2	0	0	distractor	1	378	811	185084	13.328	4.065	22.599
ProbeTrack13	4	ProbeTrack	13.2	SCS215b	20111031.142036	20111031.142452	8	0.013328	60	10	60-180	60	161	GapExp	BigFlash	0	39	2	1	1	target	1	394	803	185887	13.328	8.128	18.538
ProbeTrack13	4	ProbeTrack	13.2	SCS215b	20111031.142036	20111031.142459	8	0.013328	60	10	60-180	60	84	GapExp	BigFlash	0	40	2	45	1	target	1	461	770	186657	13.328	8.983	17.666
ProbeTrack13	4	ProbeTrack	13.2	SCS215b	20111031.142036	20111031.142505	8	0.013328	60	10	60-180	60	100	GapExp	BigFlash	0	41	2	45	1	target	1	489	756	187413	13.328	6.898	19.775
ProbeTrack13	4	ProbeTrack	13.2	SCS215b	20111031.142036	20111031.142511	8	0.013328	60	10	60-180	60	142	GapExp	BigFlash	0	42	2	3	0	distractor	1	466	767	188180	13.328	7.161	19.501
ProbeTrack13	4	ProbeTrack	13.2	SCS215b	20111031.142036	20111031.142518	8	0.013328	60	10	60-180	60	78	GapExp	BigFlash	0	43	2	0	0	distractor	1	427	787	188967	13.328	13.288	13.376
ProbeTrack13	4	ProbeTrack	13.2	SCS215b	20111031.142036	20111031.142524	8	0.013328	60	10	60-180	60	65	GapExp	BigFlash	0	44	2	3	1	target	1	380	810	189777	13.328	9.251	17.402
ProbeTrack13	4	ProbeTrack	13.2	SCS215b	20111031.142036	20111031.142530	8	0.013328	60	10	60-180	60	139	GapExp	BigFlash	0	45	2	3	0	distractor	1	528	736	190513	13.328	7.221	19.441
ProbeTrack13	4	ProbeTrack	13.2	SCS215b	20111031.142036	20111031.142536	8	0.013328	60	10	60-180	60	103	GapExp	BigFlash	0	46	2	0	0	distractor	1	419	791	191304	13.328	7.676	18.965
ProbeTrack13	4	ProbeTrack	13.2	SCS215b	20111031.142036	20111031.142542	8	0.013328	60	10	60-180	60	127	GapExp	BigFlash	0	47	2	3	1	target	1	358	821	192125	13.328	11.056	15.600
ProbeTrack13	4	ProbeTrack	13.2	SCS215b	20111031.142036	20111031.142548	8	0.013328	60	10	60-180	60	79	GapExp	BigFlash	0	48	2	3	1	target	1	377	812	192937	13.328	9.238	17.407
ProbeTrack13	4	ProbeTrack	13.2	SCS215b	20111031.142036	20111031.142553	8	0.013328	60	10	60-180	60	123	GapExp	BigFlash	0	49	2	3	1	target	1	312	844	193781	13.328	3.695	22.953
ProbeTrack13	4	ProbeTrack	13.2	SCS215b	20111031.142036	20111031.142559	8	0.013328	60	10	60-180	60	178	GapExp	BigFlash	0	50	2	45	0	distractor	1	410	795	194576	13.328	5.280	21.374
ProbeTrack13	4	ProbeTrack	13.2	SCS215b	20111031.142036	20111031.142620	8	0.013328	60	10	60-180	60	135	GapExp	BigFlash	0	51	2	45	1	target	1	481	760	195336	13.328	5.930	20.720
ProbeTrack13	4	ProbeTrack	13.2	SCS215b	20111031.142036	20111031.142626	8	0.013328	60	10	60-180	60	65	GapExp	BigFlash	0	52	2	3	1	distractor	0	394	-1000	194336	13.328	11.638	15.022
ProbeTrack13	4	ProbeTrack	13.2	SCS215b	20111031.142036	20111031.142632	8	0.013328	60	10	60-180	60	112	GapExp	BigFlash	0	53	2	1	0	distractor	1	389	806	195142	13.328	7.312	19.334
ProbeTrack13	4	ProbeTrack	13.2	SCS215b	20111031.142036	20111031.142638	8	0.013328	60	10	60-180	60	141	GapExp	BigFlash	0	54	2	1	1	target	1	550	725	195867	13.328	3.531	23.125
ProbeTrack13	4	ProbeTrack	13.2	SCS215b	20111031.142036	20111031.142644	8	0.013328	60	10	60-180	60	70	GapExp	BigFlash	0	55	2	1	0	distractor	1	468	766	196633	13.328	7.500	19.165
ProbeTrack13	4	ProbeTrack	13.2	SCS215b	20111031.142036	20111031.142649	8	0.013328	60	10	60-180	60	92	GapExp	BigFlash	0	56	2	0	1	target	1	410	795	197428	13.328	5.804	20.848
ProbeTrack13	4	ProbeTrack	13.2	SCS215b	20111031.142036	20111031.142655	8	0.013328	60	10	60-180	60	101	GapExp	BigFlash	0	57	2	0	1	target	1	401	800	198228	13.328	13.299	13.357
ProbeTrack13	4	ProbeTrack	13.2	SCS215b	20111031.142036	20111031.142700	8	0.013328	60	10	60-180	60	108	GapExp	BigFlash	0	58	2	3	1	target	1	385	808	199036	13.328	7.067	19.586
ProbeTrack13	4	ProbeTrack	13.2	SCS215b	20111031.142036	20111031.142707	8	0.013328	60	10	60-180	60	108	GapExp	BigFlash	0	59	2	1	1	target	1	464	768	199804	13.328	5.060	21.600
ProbeTrack13	4	ProbeTrack	13.2	SCS215b	20111031.142036	20111031.142712	8	0.013328	60	10	60-180	60	144	GapExp	BigFlash	0	60	2	0	1	target	1	443	779	200583	13.328	7.061	19.599
ProbeTrack13	4	ProbeTrack	13.2	SCS215b	20111031.142036	20111031.142720	8	0.013328	60	10	60-180	60	177	GapExp	BigFlash	0	61	2	3	0	distractor	1	454	773	201356	13.328	10.789	15.882
ProbeTrack13	4	ProbeTrack	13.2	SCS215b	20111031.142036	20111031.142728	8	0.013328	60	10	60-180	60	130	GapExp	BigFlash	0	62	2	45	1	target	1	400	800	202156	13.328	12.118	14.536
ProbeTrack13	4	ProbeTrack	13.2	SCS215b	20111031.142036	20111031.142734	8	0.013328	60	10	60-180	60	145	GapExp	BigFlash	0	63	2	1	1	target	1	366	817	202973	13.328	8.212	18.449
ProbeTrack13	4	ProbeTrack	13.2	SCS215b	20111031.142036	20111031.142741	8	0.013328	60	10	60-180	60	136	GapExp	BigFlash	0	64	2	3	0	distractor	1	405	798	203771	13.328	5.347	21.301
ProbeTrack13	4	ProbeTrack	13.2	SCS215b	20111031.142036	20111031.142747	8	0.013328	60	10	60-180	60	67	GapExp	BigFlash	0	65	2	3	0	distractor	1	456	772	204543	13.328	9.958	16.701
ProbeTrack13	4	ProbeTrack	13.2	SCS215b	20111031.142036	20111031.142753	8	0.013328	60	10	60-180	60	104	GapExp	BigFlash	0	66	2	1	1	early	-4	-3008	-1000	203543	13.328	7.845	18.804
ProbeTrack13	4	ProbeTrack	13.2	SCS215b	20111031.142036	20111031.142759	8	0.013328	60	10	60-180	60	113	GapExp	BigFlash	0	67	2	45	1	target	1	422	789	204332	13.328	11.613	15.037
ProbeTrack13	4	ProbeTrack	13.2	SCS215b	20111031.142036	20111031.142805	8	0.013328	60	10	60-180	60	148	GapExp	BigFlash	0	68	2	45	0	distractor	1	353	824	205156	13.328	11.564	15.098
ProbeTrack13	4	ProbeTrack	13.2	SCS215b	20111031.142036	20111031.142813	8	0.013328	60	10	60-180	60	108	GapExp	BigFlash	0	69	2	3	1	target	1	484	758	205914	13.328	10.410	16.255
ProbeTrack13	4	ProbeTrack	13.2	SCS215b	20111031.142036	20111031.142819	8	0.013328	60	10	60-180	60	136	GapExp	BigFlash	0	70	2	3	1	target	1	354	823	206737	13.328	4.768	21.899
ProbeTrack13	4	ProbeTrack	13.2	SCS215b	20111031.142036	20111031.142825	8	0.013328	60	10	60-180	60	83	GapExp	BigFlash	0	71	2	45	1	target	1	414	793	207530	13.328	8.575	18.079
ProbeTrack13	4	ProbeTrack	13.2	SCS215b	20111031.142036	20111031.142831	8	0.013328	60	10	60-180	60	179	GapExp	BigFlash	0	72	2	0	0	distractor	1	475	763	208293	13.328	5.285	21.381
ProbeTrack13	4	ProbeTrack	13.2	SCS215b	20111031.142036	20111031.142838	8	0.013328	60	10	60-180	60	91	GapExp	BigFlash	0	73	2	1	0	distractor	1	657	672	208965	13.328	13.100	13.567
ProbeTrack13	4	ProbeTrack	13.2	SCS215b	20111031.142036	20111031.142844	8	0.013328	60	10	60-180	60	72	GapExp	BigFlash	0	74	2	0	0	early	-4	-2619	-1000	207965	13.328	12.454	14.212
ProbeTrack13	4	ProbeTrack	13.2	SCS215b	20111031.142036	20111031.142850	8	0.013328	60	10	60-180	60	135	GapExp	BigFlash	0	75	2	45	1	target	1	488	756	208721	13.328	11.636	15.030
ProbeTrack13	4	ProbeTrack	13.2	SCS215b	20111031.142036	20111031.142903	8	0.013328	60	10	60-180	60	102	GapExp	BigFlash	0	76	2	0	1	target	1	517	742	209463	13.328	3.317	23.328
ProbeTrack13	4	ProbeTrack	13.2	SCS215b	20111031.142036	20111031.142909	8	0.013328	60	10	60-180	60	158	GapExp	BigFlash	0	77	2	1	0	distractor	1	379	811	210274	13.328	6.829	19.831
ProbeTrack13	4	ProbeTrack	13.2	SCS215b	20111031.142036	20111031.142916	8	0.013328	60	10	60-180	60	180	GapExp	BigFlash	0	78	2	1	1	target	1	424	788	211062	13.328	13.288	13.354
ProbeTrack13	4	ProbeTrack	13.2	SCS215b	20111031.142036	20111031.142923	8	0.013328	60	10	60-180	60	138	GapExp	BigFlash	0	79	2	45	1	target	1	393	804	211866	13.328	6.978	19.677
ProbeTrack13	4	ProbeTrack	13.2	SCS215b	20111031.142036	20111031.142929	8	0.013328	60	10	60-180	60	77	GapExp	BigFlash	0	80	2	1	1	target	1	413	794	212660	13.328	6.550	20.096
ProbeTrack13	4	ProbeTrack	13.2	SCS215b	20111031.142036	20111031.142935	8	0.013328	60	10	60-180	60	131	GapExp	BigFlash	0	81	2	0	0	distractor	1	417	792	213452	13.328	10.176	16.472
ProbeTrack13	4	ProbeTrack	13.2	SCS215b	20111031.142036	20111031.142941	8	0.013328	60	10	60-180	60	166	GapExp	BigFlash	0	82	2	0	1	target	1	405	798	214250	13.310	5.219	21.426
ProbeTrack13	4	ProbeTrack	13.2	SCS215b	20111031.142036	20111031.142948	8	0.013328	60	10	60-180	60	64	GapExp	BigFlash	0	83	2	3	0	distractor	1	448	776	215026	13.328	13.103	13.547
ProbeTrack13	4	ProbeTrack	13.2	SCS215b	20111031.142036	20111031.142953	8	0.013328	60	10	60-180	60	148	GapExp	BigFlash	0	84	2	45	0	distractor	1	444	778	215804	13.328	8.476	18.183
ProbeTrack13	4	ProbeTrack	13.2	SCS215b	20111031.142036	20111031.143000	8	0.013328	60	10	60-180	60	178	GapExp	BigFlash	0	85	2	3	0	distractor	1	425	788	216592	13.328	10.069	16.591
ProbeTrack13	4	ProbeTrack	13.2	SCS215b	20111031.142036	20111031.143006	8	0.013328	60	10	60-180	60	174	GapExp	BigFlash	0	86	2	0	0	distractor	1	482	759	217351	13.328	8.331	18.319
ProbeTrack13	4	ProbeTrack	13.2	SCS215b	20111031.142036	20111031.143013	8	0.013328	60	10	60-180	60	92	GapExp	BigFlash	0	87	2	45	0	distractor	1	462	769	218120	13.328	7.481	19.180
ProbeTrack13	4	ProbeTrack	13.2	SCS215b	20111031.142036	20111031.143019	8	0.013328	60	10	60-180	60	69	GapExp	BigFlash	0	88	2	1	0	distractor	1	443	779	218899	13.328	10.723	15.942
ProbeTrack13	4	ProbeTrack	13.2	SCS215b	20111031.142036	20111031.143025	8	0.013328	60	10	60-180	60	104	GapExp	BigFlash	0	89	2	1	0	distractor	1	430	785	219684	13.328	11.138	15.525
ProbeTrack13	4	ProbeTrack	13.2	SCS215b	20111031.142036	20111031.143031	8	0.013328	60	10	60-180	60	161	GapExp	BigFlash	0	90	2	0	0	distractor	1	429	786	220470	13.328	8.977	17.682
ProbeTrack13	4	ProbeTrack	13.2	SCS215b	20111031.142036	20111031.143038	8	0.013328	60	10	60-180	60	73	GapExp	BigFlash	0	91	2	3	0	distractor	1	485	758	221228	13.328	9.765	16.689
ProbeTrack13	4	ProbeTrack	13.2	SCS215b	20111031.142036	20111031.143044	8	0.013328	60	10	60-180	60	169	GapExp	BigFlash	0	92	2	0	1	target	1	538	731	221959	13.373	6.486	26.377
ProbeTrack13	4	ProbeTrack	13.2	SCS215b	20111031.142036	20111031.143052	8	0.013328	60	10	60-180	60	95	GapExp	BigFlash	0	93	2	1	1	distractor	0	384	-1000	220959	13.328	13.096	13.560
ProbeTrack13	4	ProbeTrack	13.2	SCS215b	20111031.142036	20111031.143057	8	0.013328	60	10	60-180	60	96	GapExp	BigFlash	0	94	2	1	0	distractor	1	541	730	221689	13.328	8.711	17.928
ProbeTrack13	4	ProbeTrack	13.2	SCS215b	20111031.142036	20111031.143104	8	0.013328	60	10	60-180	60	74	GapExp	BigFlash	0	95	2	1	0	distractor	1	400	800	222489	13.328	7.992	18.048
ProbeTrack13	4	ProbeTrack	13.2	SCS215b	20111031.142036	20111031.143109	8	0.013328	60	10	60-180	60	124	GapExp	BigFlash	0	96	2	45	1	target	1	331	835	223324	13.317	7.349	19.304
ProbeTrack13	4	ProbeTrack	13.2	SCS215b	20111031.142036	20111031.143115	8	0.013328	60	10	60-180	60	84	GapExp	BigFlash	0	97	2	45	1	target	1	361	820	224144	13.328	12.845	13.862
ProbeTrack13	4	ProbeTrack	13.2	SCS215b	20111031.142036	20111031.143123	8	0.013328	60	10	60-180	60	154	GapExp	BigFlash	0	98	2	3	1	distractor	0	424	-1000	223144	13.328	11.039	15.617
ProbeTrack13	4	ProbeTrack	13.2	SCS215b	20111031.142036	20111031.143129	8	0.013328	60	10	60-180	60	113	GapExp	BigFlash	0	99	2	3	1	target	1	562	719	223863	13.328	11.834	14.821
ProbeTrack13	4	ProbeTrack	13.2	SCS215b	20111031.142036	20111031.143135	8	0.013328	60	10	60-180	60	79	GapExp	BigFlash	0	100	2	1	0	distractor	1	579	711	224574	13.391	13.101	22.423
ProbeTrack13	4	ProbeTrack	13.2	SCS215b	20111031.142036	20111031.143141	8	0.013328	60	10	60-180	60	117	GapExp	BigFlash	0	101	2	1	0	distractor	1	415	793	225367	13.328	8.041	18.622
ProbeTrack13	4	ProbeTrack	13.2	SCS215b	20111031.142036	20111031.143201	8	0.013328	60	10	60-180	60	72	GapExp	BigFlash	0	102	2	1	0	distractor	1	389	806	226173	13.328	9.477	17.179
ProbeTrack13	4	ProbeTrack	13.2	SCS215b	20111031.142036	20111031.143207	8	0.013328	60	10	60-180	60	149	GapExp	BigFlash	0	103	2	0	1	target	1	438	781	226954	13.328	11.620	15.027
ProbeTrack13	4	ProbeTrack	13.2	SCS215b	20111031.142036	20111031.143213	8	0.013328	60	10	60-180	60	165	GapExp	BigFlash	0	104	2	0	1	early	-4	-2832	-1000	225954	13.345	11.761	18.026
ProbeTrack13	4	ProbeTrack	13.2	SCS215b	20111031.142036	20111031.143219	8	0.013328	60	10	60-180	60	77	GapExp	BigFlash	0	105	2	1	0	distractor	1	511	745	226699	13.328	6.159	20.498
ProbeTrack13	4	ProbeTrack	13.2	SCS215b	20111031.142036	20111031.143225	8	0.013328	60	10	60-180	60	98	GapExp	BigFlash	0	106	2	1	1	distractor	0	357	-1000	225699	13.328	12.932	13.765
ProbeTrack13	4	ProbeTrack	13.2	SCS215b	20111031.142036	20111031.143231	8	0.013328	60	10	60-180	60	85	GapExp	BigFlash	0	107	2	45	0	distractor	1	381	810	226509	13.328	9.184	18.382
ProbeTrack13	4	ProbeTrack	13.2	SCS215b	20111031.142036	20111031.143245	8	0.013328	60	10	60-180	60	97	GapExp	BigFlash	0	108	2	1	1	target	1	500	750	227259	13.328	11.519	15.155
ProbeTrack13	4	ProbeTrack	13.2	SCS215b	20111031.142036	20111031.143251	8	0.013328	60	10	60-180	60	116	GapExp	BigFlash	0	109	2	45	1	target	1	377	812	228071	13.328	12.601	14.059
ProbeTrack13	4	ProbeTrack	13.2	SCS215b	20111031.142036	20111031.143259	8	0.013328	60	10	60-180	60	115	GapExp	BigFlash	0	110	2	45	0	target	0	423	-1000	227071	13.328	8.522	18.121
ProbeTrack13	4	ProbeTrack	13.2	SCS215b	20111031.142036	20111031.143306	8	0.013328	60	10	60-180	60	65	GapExp	BigFlash	0	111	2	45	1	target	1	340	830	227901	13.328	10.233	16.410
ProbeTrack13	4	ProbeTrack	13.2	SCS215b	20111031.142036	20111031.143312	8	0.013328	60	10	60-180	60	69	GapExp	BigFlash	0	112	2	0	1	target	1	456	772	228673	13.328	13.096	13.566
ProbeTrack13	4	ProbeTrack	13.2	SCS215b	20111031.142036	20111031.143318	8	0.013328	60	10	60-180	60	64	GapExp	BigFlash	0	113	2	45	0	distractor	1	430	785	229458	13.328	9.225	17.695
ProbeTrack13	4	ProbeTrack	13.2	SCS215b	20111031.142036	20111031.143324	8	0.013328	60	10	60-180	60	178	GapExp	BigFlash	0	114	2	0	1	target	1	474	763	230221	13.328	7.501	19.171
ProbeTrack13	4	ProbeTrack	13.2	SCS215b	20111031.142036	20111031.143331	8	0.013328	60	10	60-180	60	153	GapExp	BigFlash	0	115	2	45	0	distractor	1	460	770	230991	13.328	4.049	22.602
ProbeTrack13	4	ProbeTrack	13.2	SCS215b	20111031.142036	20111031.143338	8	0.013328	60	10	60-180	60	115	GapExp	BigFlash	0	116	2	3	0	distractor	1	428	786	231777	13.384	7.794	23.684
ProbeTrack13	4	ProbeTrack	13.2	SCS215b	20111031.142036	20111031.143346	8	0.013328	60	10	60-180	60	142	GapExp	BigFlash	0	117	2	45	1	target	1	431	785	232562	13.371	9.398	21.352
ProbeTrack13	4	ProbeTrack	13.2	SCS215b	20111031.142036	20111031.143353	8	0.013328	60	10	60-180	60	153	GapExp	BigFlash	0	118	2	0	1	target	1	484	758	233320	13.328	7.873	18.772
ProbeTrack13	4	ProbeTrack	13.2	SCS215b	20111031.142036	20111031.143400	8	0.013328	60	10	60-180	60	124	GapExp	BigFlash	0	119	2	45	0	distractor	1	471	765	234085	13.328	7.729	18.930
ProbeTrack13	4	ProbeTrack	13.2	SCS215b	20111031.142036	20111031.143407	8	0.013328	60	10	60-180	60	169	GapExp	BigFlash	0	120	2	45	0	distractor	1	453	774	234859	13.368	9.260	20.748
ProbeTrack13	4	ProbeTrack	13.2	SCS215b	20111031.142036	20111031.143414	8	0.013328	60	10	60-180	60	114	GapExp	BigFlash	0	121	2	3	1	target	1	498	751	235610	13.328	9.234	17.425
ProbeTrack13	4	ProbeTrack	13.2	SCS215b	20111031.142036	20111031.143421	8	0.013328	60	10	60-180	60	123	GapExp	BigFlash	0	122	2	3	0	distractor	1	490	755	236365	13.489	8.130	53.289
ProbeTrack13	4	ProbeTrack	13.2	SCS215b	20111031.142036	20111031.143428	8	0.013328	60	10	60-180	60	117	GapExp	BigFlash	0	123	2	3	0	distractor	1	441	780	237145	13.328	12.484	13.959
ProbeTrack13	4	ProbeTrack	13.2	SCS215b	20111031.142036	20111031.143434	8	0.013328	60	10	60-180	60	87	GapExp	BigFlash	0	124	2	45	1	target	1	415	793	237938	13.328	9.840	16.819
ProbeTrack13	4	ProbeTrack	13.2	SCS215b	20111031.142036	20111031.143441	8	0.013328	60	10	60-180	60	173	GapExp	BigFlash	0	125	2	1	1	target	1	364	818	238756	13.328	7.971	18.698
ProbeTrack13	4	ProbeTrack	13.2	SCS215b	20111031.142036	20111031.143448	8	0.013328	60	10	60-180	60	93	GapExp	BigFlash	0	126	2	1	0	distractor	1	451	775	239531	13.328	13.097	13.433
ProbeTrack13	4	ProbeTrack	13.2	SCS215b	20111031.142036	20111031.143453	8	0.013328	60	10	60-180	60	141	GapExp	BigFlash	0	127	2	3	1	distractor	0	1596	-1000	238531	13.328	9.536	17.120
ProbeTrack13	4	ProbeTrack	13.2	SCS215b	20111031.142036	20111031.143501	8	0.013328	60	10	60-180	60	139	GapExp	BigFlash	0	128	2	45	0	distractor	1	367	817	239348	13.328	10.172	16.478
ProbeTrack13	4	ProbeTrack	13.2	SCS215b	20111031.142036	20111031.143508	8	0.013328	60	10	60-180	60	159	GapExp	BigFlash	0	129	2	45	0	distractor	1	430	785	240133	13.328	10.524	16.130
ProbeTrack13	4	ProbeTrack	13.2	SCS215b	20111031.142036	20111031.143515	8	0.013328	60	10	60-180	60	83	GapExp	BigFlash	0	130	2	0	0	distractor	1	451	775	240908	13.328	12.756	13.915
ProbeTrack13	4	ProbeTrack	13.2	SCS215b	20111031.142036	20111031.143521	8	0.013328	60	10	60-180	60	178	GapExp	BigFlash	0	131	2	3	0	distractor	1	336	832	241740	13.328	13.099	13.540
ProbeTrack13	4	ProbeTrack	13.2	SCS215b	20111031.142036	20111031.143531	8	0.013328	60	10	60-180	60	101	GapExp	BigFlash	0	132	2	0	1	target	1	698	651	242391	13.439	9.298	25.935
ProbeTrack13	4	ProbeTrack	13.2	SCS215b	20111031.142036	20111031.143538	8	0.013328	60	10	60-180	60	152	GapExp	BigFlash	0	133	2	45	0	distractor	1	483	759	243150	13.328	3.761	22.906
ProbeTrack13	4	ProbeTrack	13.2	SCS215b	20111031.142036	20111031.143545	8	0.013328	60	10	60-180	60	155	GapExp	BigFlash	0	134	2	3	1	target	1	520	740	243890	13.328	12.069	14.593
ProbeTrack13	4	ProbeTrack	13.2	SCS215b	20111031.142036	20111031.143551	8	0.013328	60	10	60-180	60	76	GapExp	BigFlash	0	135	2	45	1	target	1	505	748	244638	13.328	8.333	18.319
ProbeTrack13	4	ProbeTrack	13.2	SCS215b	20111031.142036	20111031.143557	8	0.013328	60	10	60-180	60	125	GapExp	BigFlash	0	136	2	0	1	target	1	482	759	245397	13.382	9.804	21.256
ProbeTrack13	4	ProbeTrack	13.2	SCS215b	20111031.142036	20111031.143604	8	0.013328	60	10	60-180	60	162	GapExp	BigFlash	0	137	2	3	1	target	1	372	814	246211	13.328	11.915	14.747
ProbeTrack13	4	ProbeTrack	13.2	SCS215b	20111031.142036	20111031.143611	8	0.013328	60	10	60-180	60	169	GapExp	BigFlash	0	138	2	0	1	target	1	428	786	246997	13.328	6.984	15.788
ProbeTrack13	4	ProbeTrack	13.2	SCS215b	20111031.142036	20111031.143618	8	0.013328	60	10	60-180	60	89	GapExp	BigFlash	0	139	2	0	0	distractor	1	550	725	247722	13.328	12.689	13.956
ProbeTrack13	4	ProbeTrack	13.2	SCS215b	20111031.142036	20111031.143623	8	0.013328	60	10	60-180	60	167	GapExp	BigFlash	0	140	2	0	1	target	1	475	763	248485	13.328	11.282	15.352
ProbeTrack13	4	ProbeTrack	13.2	SCS215b	20111031.142036	20111031.143630	8	0.013328	60	10	60-180	60	89	GapExp	BigFlash	0	141	2	3	0	distractor	1	405	798	249283	13.328	11.910	14.757
ProbeTrack13	4	ProbeTrack	13.2	SCS215b	20111031.142036	20111031.143637	8	0.013328	60	10	60-180	60	84	GapExp	BigFlash	0	142	2	3	1	target	1	466	767	250050	13.392	13.081	24.362
ProbeTrack13	4	ProbeTrack	13.2	SCS215b	20111031.142036	20111031.143642	8	0.013328	60	10	60-180	60	89	GapExp	BigFlash	0	143	2	3	1	target	1	431	785	250835	13.328	13.103	13.561
ProbeTrack13	4	ProbeTrack	13.2	SCS215b	20111031.142036	20111031.143648	8	0.013328	60	10	60-180	60	64	GapExp	BigFlash	0	144	2	0	0	distractor	1	503	749	251584	13.328	13.078	13.624
ProbeTrack13	4	ProbeTrack	13.2	SCS215b	20111031.142036	20111031.143656	8	0.013328	60	10	60-180	60	137	GapExp	BigFlash	0	145	2	1	0	distractor	1	472	764	252348	13.328	11.558	15.147
ProbeTrack13	4	ProbeTrack	13.2	SCS215b	20111031.142036	20111031.143702	8	0.013328	60	10	60-180	60	81	GapExp	BigFlash	0	146	2	0	0	distractor	1	412	794	253142	13.328	10.964	15.808
ProbeTrack13	4	ProbeTrack	13.2	SCS215b	20111031.142036	20111031.143709	8	0.013328	60	10	60-180	60	106	GapExp	BigFlash	0	147	2	1	0	distractor	1	410	795	253937	13.328	4.768	21.880
ProbeTrack13	4	ProbeTrack	13.2	SCS215b	20111031.142036	20111031.143714	8	0.013328	60	10	60-180	60	110	GapExp	BigFlash	0	148	2	3	1	target	1	472	764	254701	13.328	10.842	15.994
ProbeTrack13	4	ProbeTrack	13.2	SCS215b	20111031.142036	20111031.143722	8	0.013328	60	10	60-180	60	72	GapExp	BigFlash	0	149	2	1	0	distractor	1	457	772	255473	13.328	8.300	18.366
ProbeTrack13	4	ProbeTrack	13.2	SCS215b	20111031.142036	20111031.143727	8	0.013328	60	10	60-180	60	129	GapExp	BigFlash	0	150	2	1	0	distractor	1	412	794	256267	13.328	5.694	20.962
ProbeTrack13	4	ProbeTrack	13.2	SCS215b	20111031.142036	20111031.143734	8	0.013328	60	10	60-180	60	99	GapExp	BigFlash	0	151	2	1	1	target	1	515	743	257010	13.328	13.299	13.352
ProbeTrack13	4	ProbeTrack	13.2	SCS215b	20111031.142036	20111031.143755	8	0.013328	60	10	60-180	60	114	GapExp	BigFlash	0	152	2	1	0	distractor	1	317	842	257852	13.328	13.298	13.355
ProbeTrack13	4	ProbeTrack	13.2	SCS215b	20111031.142036	20111031.143801	8	0.013328	60	10	60-180	60	79	GapExp	BigFlash	0	153	2	45	1	target	1	537	732	258584	13.328	9.640	13.856
ProbeTrack13	4	ProbeTrack	13.2	SCS215b	20111031.142036	20111031.143807	8	0.013328	60	10	60-180	60	132	GapExp	BigFlash	0	154	2	1	1	target	1	598	701	259285	13.328	6.109	20.548
ProbeTrack13	4	ProbeTrack	13.2	SCS215b	20111031.142036	20111031.143814	8	0.013328	60	10	60-180	60	147	GapExp	BigFlash	0	155	2	0	0	distractor	1	433	784	260069	13.328	12.522	14.136
ProbeTrack13	4	ProbeTrack	13.2	SCS215b	20111031.142036	20111031.143820	8	0.013328	60	10	60-180	60	150	GapExp	BigFlash	0	156	2	0	1	target	1	434	783	260852	13.328	5.392	21.272
ProbeTrack13	4	ProbeTrack	13.2	SCS215b	20111031.142036	20111031.143827	8	0.013328	60	10	60-180	60	165	GapExp	BigFlash	0	157	2	45	0	target	0	3747	-1000	259852	13.328	3.444	23.231
ProbeTrack13	4	ProbeTrack	13.2	SCS215b	20111031.142036	20111031.143838	8	0.013328	60	10	60-180	60	79	GapExp	BigFlash	0	158	2	45	1	distractor	0	375	-1000	258852	13.328	3.937	22.718
ProbeTrack13	4	ProbeTrack	13.2	SCS215b	20111031.142036	20111031.143844	8	0.013328	60	10	60-180	60	102	GapExp	BigFlash	0	159	2	1	1	target	1	400	800	259652	13.328	6.923	19.749
ProbeTrack13	4	ProbeTrack	13.2	SCS215b	20111031.142036	20111031.143859	8	0.013328	60	10	60-180	60	167	GapExp	BigFlash	0	160	2	0	0	distractor	1	375	813	260465	13.328	7.574	19.067
ProbeTrack13	4	ProbeTrack	13.2	SCS215b	20111031.142036	20111031.143905	8	0.013328	60	10	60-180	60	85	GapExp	BigFlash	0	161	2	45	1	target	1	318	841	261306	13.328	11.734	15.114
ProbeTrack13	4	ProbeTrack	13.2	SCS215b	20111031.142036	20111031.143911	8	0.013328	60	10	60-180	60	123	GapExp	BigFlash	0	162	2	1	1	target	1	714	643	261949	13.328	5.156	21.505
ProbeTrack13	4	ProbeTrack	13.2	SCS215b	20111031.142036	20111031.143918	8	0.013328	60	10	60-180	60	86	GapExp	BigFlash	0	163	2	45	0	distractor	1	388	806	262755	13.328	4.958	21.703
ProbeTrack13	4	ProbeTrack	13.2	SCS215b	20111031.142036	20111031.143924	8	0.013328	60	10	60-180	60	90	GapExp	BigFlash	0	164	2	0	0	distractor	1	373	814	263569	13.328	12.177	14.493
ProbeTrack13	4	ProbeTrack	13.2	SCS215b	20111031.142036	20111031.143930	8	0.013328	60	10	60-180	60	171	GapExp	BigFlash	0	165	2	3	0	early	-4	-3897	-1000	262569	13.328	7.735	19.035
ProbeTrack13	4	ProbeTrack	13.2	SCS215b	20111031.142036	20111031.143938	8	0.013328	60	10	60-180	60	114	GapExp	BigFlash	0	166	2	45	0	distractor	1	497	752	263321	13.375	6.066	20.900
ProbeTrack13	4	ProbeTrack	13.2	SCS215b	20111031.142036	20111031.143945	8	0.013328	60	10	60-180	60	167	GapExp	BigFlash	0	167	2	3	0	distractor	1	447	777	264098	13.328	13.304	13.350
ProbeTrack13	4	ProbeTrack	13.2	SCS215b	20111031.142036	20111031.143952	8	0.013328	60	10	60-180	60	130	GapExp	BigFlash	0	168	2	45	0	distractor	1	396	802	264900	13.328	7.399	19.269
ProbeTrack13	4	ProbeTrack	13.2	SCS215b	20111031.142036	20111031.144008	8	0.013328	60	10	60-180	60	164	GapExp	BigFlash	0	169	2	0	0	distractor	1	394	803	265703	13.328	3.948	22.717
ProbeTrack13	4	ProbeTrack	13.2	SCS215b	20111031.142036	20111031.144015	8	0.013328	60	10	60-180	60	110	GapExp	BigFlash	0	170	2	0	1	target	1	422	789	266492	13.328	12.724	13.936
ProbeTrack13	4	ProbeTrack	13.2	SCS215b	20111031.142036	20111031.144021	8	0.013328	60	10	60-180	60	165	GapExp	BigFlash	0	171	2	3	0	distractor	1	482	759	267251	13.328	5.522	21.110
ProbeTrack13	4	ProbeTrack	13.2	SCS215b	20111031.142036	20111031.144027	8	0.013328	60	10	60-180	60	138	GapExp	BigFlash	0	172	2	0	1	target	1	459	771	268022	13.328	13.264	13.402
ProbeTrack13	4	ProbeTrack	13.2	SCS215b	20111031.142036	20111031.144033	8	0.013328	60	10	60-180	60	146	GapExp	BigFlash	0	173	2	1	1	distractor	0	435	-1000	267022	13.328	12.926	13.733
ProbeTrack13	4	ProbeTrack	13.2	SCS215b	20111031.142036	20111031.144041	8	0.013328	60	10	60-180	60	89	GapExp	BigFlash	0	174	2	1	0	distractor	1	362	819	267841	13.328	9.541	17.113
ProbeTrack13	4	ProbeTrack	13.2	SCS215b	20111031.142036	20111031.144054	8	0.013328	60	10	60-180	60	172	GapExp	BigFlash	0	175	2	3	0	early	-4	-779	-1000	266841	13.370	11.197	26.654
ProbeTrack13	4	ProbeTrack	13.2	SCS215b	20111031.142036	20111031.144105	8	0.013328	60	10	60-180	60	128	GapExp	BigFlash	0	176	2	0	0	distractor	1	524	738	267579	13.328	11.630	15.009
ProbeTrack13	4	ProbeTrack	13.2	SCS215b	20111031.142036	20111031.144112	8	0.013328	60	10	60-180	60	124	GapExp	BigFlash	0	177	2	0	1	target	1	393	804	268383	13.328	6.432	20.233
ProbeTrack13	4	ProbeTrack	13.2	SCS215b	20111031.142036	20111031.144118	8	0.013328	60	10	60-180	60	93	GapExp	BigFlash	0	178	2	3	0	distractor	1	392	804	269187	13.328	6.526	20.139
ProbeTrack13	4	ProbeTrack	13.2	SCS215b	20111031.142036	20111031.144123	8	0.013328	60	10	60-180	60	73	GapExp	BigFlash	0	179	2	3	0	distractor	1	388	806	269993	13.328	7.356	19.293
ProbeTrack13	4	ProbeTrack	13.2	SCS215b	20111031.142036	20111031.144128	8	0.013328	60	10	60-180	60	146	GapExp	BigFlash	0	180	2	3	1	target	1	305	848	270841	13.328	7.647	19.000
ProbeTrack13	4	ProbeTrack	13.2	SCS215b	20111031.142036	20111031.144134	8	0.013328	60	10	60-180	60	101	GapExp	BigFlash	0	181	2	1	1	target	1	401	800	271641	13.328	8.266	18.389
ProbeTrack13	4	ProbeTrack	13.2	SCS215b	20111031.142036	20111031.144140	8	0.013328	60	10	60-180	60	133	GapExp	BigFlash	0	182	2	3	1	target	1	353	824	272465	13.328	6.155	20.479
ProbeTrack13	4	ProbeTrack	13.2	SCS215b	20111031.142036	20111031.144146	8	0.013328	60	10	60-180	60	163	GapExp	BigFlash	0	183	2	1	0	distractor	1	337	832	273297	13.328	8.544	18.119
ProbeTrack13	4	ProbeTrack	13.2	SCS215b	20111031.142036	20111031.144152	8	0.013328	60	10	60-180	60	149	GapExp	BigFlash	0	184	2	45	1	target	1	407	797	274094	13.328	8.451	18.204
ProbeTrack13	4	ProbeTrack	13.2	SCS215b	20111031.142036	20111031.144200	8	0.013328	60	10	60-180	60	141	GapExp	BigFlash	0	185	2	45	1	target	1	397	802	274896	13.328	11.169	15.473
ProbeTrack13	4	ProbeTrack	13.2	SCS215b	20111031.142036	20111031.144206	8	0.013328	60	10	60-180	60	144	GapExp	BigFlash	0	186	2	0	0	distractor	1	456	772	275668	13.328	7.430	19.223
ProbeTrack13	4	ProbeTrack	13.2	SCS215b	20111031.142036	20111031.144212	8	0.013328	60	10	60-180	60	144	GapExp	BigFlash	0	187	2	0	1	target	1	426	787	276455	13.328	13.304	13.368
ProbeTrack13	4	ProbeTrack	13.2	SCS215b	20111031.142036	20111031.144220	8	0.013328	60	10	60-180	60	133	GapExp	BigFlash	0	188	2	45	0	distractor	1	420	790	277245	13.328	6.698	19.958
ProbeTrack13	4	ProbeTrack	13.2	SCS215b	20111031.142036	20111031.144233	8	0.013328	60	10	60-180	60	78	GapExp	BigFlash	0	189	2	1	1	target	1	432	784	278029	13.328	8.237	18.421
ProbeTrack13	4	ProbeTrack	13.2	SCS215b	20111031.142036	20111031.144238	8	0.013328	60	10	60-180	60	63	GapExp	BigFlash	0	190	2	0	0	target	0	628	-1000	277029	13.328	11.392	15.263
ProbeTrack13	4	ProbeTrack	13.2	SCS215b	20111031.142036	20111031.144244	8	0.013328	60	10	60-180	60	70	GapExp	BigFlash	0	191	2	1	0	distractor	1	403	799	277828	13.328	10.689	15.962
ProbeTrack13	4	ProbeTrack	13.2	SCS215b	20111031.142036	20111031.144249	8	0.013328	60	10	60-180	60	124	GapExp	BigFlash	0	192	2	1	1	target	1	390	805	278633	13.328	3.685	22.975
ProbeTrack13	4	ProbeTrack	13.2	SCS215b	20111031.142036	20111031.144255	8	0.013328	60	10	60-180	60	68	GapExp	BigFlash	0	193	2	45	1	target	1	395	803	279436	13.328	12.353	14.296
ProbeTrack13	4	ProbeTrack	13.2	SCS215b	20111031.142036	20111031.144301	8	0.013328	60	10	60-180	60	164	GapExp	BigFlash	0	194	2	3	1	target	1	482	759	280195	13.328	11.285	15.376
ProbeTrack13	4	ProbeTrack	13.2	SCS215b	20111031.142036	20111031.144308	8	0.013328	60	10	60-180	60	133	GapExp	BigFlash	0	195	2	1	0	distractor	1	466	767	280962	13.328	9.416	17.224
ProbeTrack13	4	ProbeTrack	13.2	SCS215b	20111031.142036	20111031.144316	8	0.013328	60	10	60-180	60	151	GapExp	BigFlash	0	196	2	45	0	distractor	1	396	802	281764	13.328	8.400	18.253
ProbeTrack13	4	ProbeTrack	13.2	SCS215b	20111031.142036	20111031.144323	8	0.013328	60	10	60-180	60	114	GapExp	BigFlash	0	197	2	45	1	target	1	376	812	282576	13.328	4.664	21.991
ProbeTrack13	4	ProbeTrack	13.2	SCS215b	20111031.142036	20111031.144330	8	0.013328	60	10	60-180	60	123	GapExp	BigFlash	0	198	2	0	1	target	1	406	797	283373	13.328	8.841	17.813
ProbeTrack13	4	ProbeTrack	13.2	SCS215b	20111031.142036	20111031.144336	8	0.013328	60	10	60-180	60	141	GapExp	BigFlash	0	199	2	3	0	distractor	1	2377	0	283373	13.328	6.214	20.441
ProbeTrack13	4	ProbeTrack	13.2	SCS215b	20111031.142036	20111031.144344	8	0.013328	60	10	60-180	60	98	GapExp	BigFlash	0	200	2	0	0	distractor	1	422	789	284162	13.328	11.687	14.989
ProbeTrack13	4	ProbeTrack	13.2	SCS215b	20111031.144459	20111031.144506	8	0.013328	60	10	60-180	60	85	GapPrac	SmallFlash	1	1	2	3	0	distractor	1	485	758	284920	13.391	12.956	13.701
ProbeTrack13	4	ProbeTrack	13.2	SCS215b	20111031.144459	20111031.144513	8	0.013328	60	10	60-180	60	131	GapPrac	SmallFlash	1	2	2	45	0	distractor	1	556	722	285642	13.328	12.862	13.778
ProbeTrack13	4	ProbeTrack	13.2	SCS215b	20111031.144459	20111031.144520	8	0.013328	60	10	60-180	60	62	GapPrac	SmallFlash	1	3	2	0	0	distractor	1	433	784	286426	13.330	13.108	13.645
ProbeTrack13	4	ProbeTrack	13.2	SCS215b	20111031.144459	20111031.144525	8	0.013328	60	10	60-180	60	113	GapPrac	SmallFlash	1	4	2	0	1	distractor	0	333	-1000	285426	13.328	12.933	13.730
ProbeTrack13	4	ProbeTrack	13.2	SCS215b	20111031.144459	20111031.144531	8	0.013328	60	10	60-180	60	180	GapPrac	SmallFlash	1	5	2	1	1	target	1	377	812	286238	13.328	12.969	13.692
ProbeTrack13	4	ProbeTrack	13.2	SCS215b	20111031.144459	20111031.144537	8	0.013328	60	10	60-180	60	146	GapPrac	SmallFlash	1	6	2	45	1	target	1	407	797	287035	13.328	12.857	13.788
ProbeTrack13	4	ProbeTrack	13.2	SCS215b	20111031.144459	20111031.144545	8	0.013328	60	10	60-180	60	117	GapPrac	SmallFlash	1	7	2	0	1	target	1	417	792	287827	13.328	12.842	13.844
ProbeTrack13	4	ProbeTrack	13.2	SCS215b	20111031.144459	20111031.144550	8	0.013328	60	10	60-180	60	131	GapPrac	SmallFlash	1	8	2	3	0	distractor	1	340	830	288657	13.490	12.921	52.874
ProbeTrack13	4	ProbeTrack	13.2	SCS215b	20111031.144459	20111031.144556	8	0.013328	60	10	60-180	60	156	GapPrac	SmallFlash	1	9	2	3	1	target	1	468	766	289423	13.328	12.846	13.809
ProbeTrack13	4	ProbeTrack	13.2	SCS215b	20111031.144459	20111031.144603	8	0.013328	60	10	60-180	60	95	GapPrac	SmallFlash	1	10	2	1	0	distractor	1	392	804	290227	13.328	13.290	13.356
ProbeTrack13	4	ProbeTrack	13.2	SCS215b	20111031.144459	20111031.144609	8	0.013328	60	10	60-180	60	86	GapPrac	SmallFlash	1	11	2	0	0	distractor	1	397	802	291029	13.328	12.959	13.686
ProbeTrack13	4	ProbeTrack	13.2	SCS215b	20111031.144459	20111031.144614	8	0.013328	60	10	60-180	60	109	GapPrac	SmallFlash	1	12	2	45	0	distractor	1	583	709	291738	13.328	13.092	13.547
ProbeTrack13	4	ProbeTrack	13.2	SCS215b	20111031.144459	20111031.144622	8	0.013328	60	10	60-180	60	97	GapPrac	SmallFlash	1	13	2	3	0	distractor	1	811	595	292333	13.328	12.933	13.730
ProbeTrack13	4	ProbeTrack	13.2	SCS215b	20111031.144459	20111031.144628	8	0.013328	60	10	60-180	60	112	GapPrac	SmallFlash	1	14	2	3	1	target	1	640	680	293013	13.328	12.839	13.834
ProbeTrack13	4	ProbeTrack	13.2	SCS215b	20111031.144459	20111031.144634	8	0.013328	60	10	60-180	60	65	GapPrac	SmallFlash	1	15	2	1	0	distractor	1	407	797	293810	13.328	12.848	13.783
ProbeTrack13	4	ProbeTrack	13.2	SCS215b	20111031.144459	20111031.144639	8	0.013328	60	10	60-180	60	77	GapPrac	SmallFlash	1	16	2	45	0	distractor	1	390	805	294615	13.328	12.857	13.786
ProbeTrack13	4	ProbeTrack	13.2	SCS215b	20111031.144459	20111031.144645	8	0.013328	60	10	60-180	60	96	GapPrac	SmallFlash	1	17	2	0	0	distractor	1	331	835	295450	13.328	12.931	13.724
ProbeTrack13	4	ProbeTrack	13.2	SCS215b	20111031.144459	20111031.144651	8	0.013328	60	10	60-180	60	96	GapPrac	SmallFlash	1	18	2	45	1	target	1	300	850	296300	13.328	13.053	13.595
ProbeTrack13	4	ProbeTrack	13.2	SCS215b	20111031.144459	20111031.144657	8	0.013328	60	10	60-180	60	158	GapPrac	SmallFlash	1	19	2	1	1	target	1	347	827	297127	13.328	12.856	13.827
ProbeTrack13	4	ProbeTrack	13.2	SCS215b	20111031.144459	20111031.144704	8	0.013328	60	10	60-180	60	172	GapPrac	SmallFlash	1	20	2	0	1	distractor	0	314	-1000	296127	13.326	12.858	13.548
ProbeTrack13	4	ProbeTrack	13.2	SCS215b	20111031.144752	20111031.144848	8	0.013328	60	10	60-180	60	138	GapExp	SmallFlash	1	1	2	1	1	target	1	419	791	296918	13.380	3.392	23.259
ProbeTrack13	4	ProbeTrack	13.2	SCS215b	20111031.144752	20111031.144855	8	0.013328	60	10	60-180	60	91	GapExp	SmallFlash	1	2	2	0	1	target	1	390	805	297723	13.328	7.808	18.855
ProbeTrack13	4	ProbeTrack	13.2	SCS215b	20111031.144752	20111031.144901	8	0.013328	60	10	60-180	60	108	GapExp	SmallFlash	1	3	2	45	1	target	1	389	806	298529	13.328	4.849	21.825
ProbeTrack13	4	ProbeTrack	13.2	SCS215b	20111031.144752	20111031.144907	8	0.013328	60	10	60-180	60	98	GapExp	SmallFlash	1	4	2	0	0	distractor	1	462	769	299298	13.328	10.842	15.817
ProbeTrack13	4	ProbeTrack	13.2	SCS215b	20111031.144752	20111031.144912	8	0.013328	60	10	60-180	60	175	GapExp	SmallFlash	1	5	2	3	1	target	1	390	805	300103	13.328	11.032	15.631
ProbeTrack13	4	ProbeTrack	13.2	SCS215b	20111031.144752	20111031.144919	8	0.013328	60	10	60-180	60	134	GapExp	SmallFlash	1	6	2	1	0	distractor	1	419	791	300894	13.328	9.158	17.517
ProbeTrack13	4	ProbeTrack	13.2	SCS215b	20111031.144752	20111031.144925	8	0.013328	60	10	60-180	60	143	GapExp	SmallFlash	1	7	2	3	0	distractor	1	372	814	301708	13.328	8.259	18.403
ProbeTrack13	4	ProbeTrack	13.2	SCS215b	20111031.144752	20111031.144931	8	0.013328	60	10	60-180	60	117	GapExp	SmallFlash	1	8	2	45	0	distractor	1	415	793	302501	13.328	8.730	17.931
ProbeTrack13	4	ProbeTrack	13.2	SCS215b	20111031.144752	20111031.144938	8	0.013328	60	10	60-180	60	63	GapExp	SmallFlash	0	9	2	0	1	distractor	0	456	-1000	301501	13.328	7.828	18.830
ProbeTrack13	4	ProbeTrack	13.2	SCS215b	20111031.144752	20111031.144943	8	0.013328	60	10	60-180	60	156	GapExp	SmallFlash	0	10	2	0	1	target	1	483	759	302260	13.335	10.042	16.620
ProbeTrack13	4	ProbeTrack	13.2	SCS215b	20111031.144752	20111031.144952	8	0.013328	60	10	60-180	60	169	GapExp	SmallFlash	0	11	2	3	0	distractor	1	483	759	303019	13.328	4.465	22.182
ProbeTrack13	4	ProbeTrack	13.2	SCS215b	20111031.144752	20111031.144958	8	0.013328	60	10	60-180	60	73	GapExp	SmallFlash	0	12	2	0	1	target	1	438	781	303800	13.328	12.084	14.550
ProbeTrack13	4	ProbeTrack	13.2	SCS215b	20111031.144752	20111031.145010	8	0.013328	60	10	60-180	60	174	GapExp	SmallFlash	0	13	2	45	0	distractor	1	468	766	304566	13.328	9.308	17.354
ProbeTrack13	4	ProbeTrack	13.2	SCS215b	20111031.144752	20111031.145017	8	0.013328	60	10	60-180	60	147	GapExp	SmallFlash	0	14	2	0	1	target	1	377	812	305378	13.328	11.207	15.453
ProbeTrack13	4	ProbeTrack	13.2	SCS215b	20111031.144752	20111031.145024	8	0.013328	60	10	60-180	60	126	GapExp	SmallFlash	0	15	2	45	0	distractor	1	358	821	306199	13.328	5.937	20.711
ProbeTrack13	4	ProbeTrack	13.2	SCS215b	20111031.144752	20111031.145030	8	0.013328	60	10	60-180	60	143	GapExp	SmallFlash	0	16	2	1	0	distractor	1	405	798	306997	13.328	13.303	13.353
ProbeTrack13	4	ProbeTrack	13.2	SCS215b	20111031.144752	20111031.145036	8	0.013328	60	10	60-180	60	139	GapExp	SmallFlash	0	17	2	3	1	distractor	0	369	-1000	305997	13.328	8.658	17.993
ProbeTrack13	4	ProbeTrack	13.2	SCS215b	20111031.144752	20111031.145043	8	0.013328	60	10	60-180	60	152	GapExp	SmallFlash	0	18	2	1	0	distractor	1	422	789	306786	13.328	13.151	13.502
ProbeTrack13	4	ProbeTrack	13.2	SCS215b	20111031.144752	20111031.145049	8	0.013328	60	10	60-180	60	104	GapExp	SmallFlash	0	19	2	0	1	target	1	495	753	307539	13.328	11.073	15.580
ProbeTrack13	4	ProbeTrack	13.2	SCS215b	20111031.144752	20111031.145055	8	0.013328	60	10	60-180	60	137	GapExp	SmallFlash	0	20	2	1	0	distractor	1	458	771	308310	13.328	10.432	16.216
ProbeTrack13	4	ProbeTrack	13.2	SCS215b	20111031.144752	20111031.145101	8	0.013328	60	10	60-180	60	83	GapExp	SmallFlash	0	21	2	0	1	target	1	460	770	309080	13.328	11.326	15.316
ProbeTrack13	4	ProbeTrack	13.2	SCS215b	20111031.144752	20111031.145106	8	0.013328	60	10	60-180	60	131	GapExp	SmallFlash	0	22	2	1	1	target	1	413	794	309874	13.328	13.296	13.367
ProbeTrack13	4	ProbeTrack	13.2	SCS215b	20111031.144752	20111031.145112	8	0.013328	60	10	60-180	60	164	GapExp	SmallFlash	0	23	2	0	1	target	1	289	856	310730	13.328	8.843	17.813
ProbeTrack13	4	ProbeTrack	13.2	SCS215b	20111031.144752	20111031.145119	8	0.013328	60	10	60-180	60	88	GapExp	SmallFlash	0	24	2	1	1	target	1	480	760	311490	13.328	12.618	14.034
ProbeTrack13	4	ProbeTrack	13.2	SCS215b	20111031.144752	20111031.145125	8	0.013328	60	10	60-180	60	127	GapExp	SmallFlash	0	25	2	3	0	distractor	1	442	779	312269	13.328	13.244	13.406
ProbeTrack13	4	ProbeTrack	13.2	SCS215b	20111031.144752	20111031.145131	8	0.013328	60	10	60-180	60	110	GapExp	SmallFlash	0	26	2	45	0	distractor	1	368	816	313085	13.328	5.703	20.970
ProbeTrack13	4	ProbeTrack	13.2	SCS215b	20111031.144752	20111031.145137	8	0.013328	60	10	60-180	60	64	GapExp	SmallFlash	0	27	2	0	1	target	1	459	771	313856	13.328	13.078	13.581
ProbeTrack13	4	ProbeTrack	13.2	SCS215b	20111031.144752	20111031.145142	8	0.013328	60	10	60-180	60	63	GapExp	SmallFlash	0	28	2	3	1	target	1	400	800	314656	13.328	7.974	18.691
ProbeTrack13	4	ProbeTrack	13.2	SCS215b	20111031.144752	20111031.145147	8	0.013328	60	10	60-180	60	76	GapExp	SmallFlash	0	29	2	0	0	distractor	1	546	727	315383	13.328	11.492	15.167
ProbeTrack13	4	ProbeTrack	13.2	SCS215b	20111031.144752	20111031.145153	8	0.013328	60	10	60-180	60	175	GapExp	SmallFlash	0	30	2	45	0	distractor	1	427	787	316170	13.328	13.009	13.651
ProbeTrack13	4	ProbeTrack	13.2	SCS215b	20111031.144752	20111031.145201	8	0.013328	60	10	60-180	60	129	GapExp	SmallFlash	0	31	2	3	1	target	1	389	806	316976	13.328	12.857	13.788
ProbeTrack13	4	ProbeTrack	13.2	SCS215b	20111031.144752	20111031.145207	8	0.013328	60	10	60-180	60	161	GapExp	SmallFlash	0	32	2	1	0	distractor	1	446	777	317753	13.328	6.933	19.726
ProbeTrack13	4	ProbeTrack	13.2	SCS215b	20111031.144752	20111031.145213	8	0.013328	60	10	60-180	60	72	GapExp	SmallFlash	0	33	2	3	0	distractor	1	428	786	318539	13.328	11.194	15.468
ProbeTrack13	4	ProbeTrack	13.2	SCS215b	20111031.144752	20111031.145218	8	0.013328	60	10	60-180	60	121	GapExp	SmallFlash	0	34	2	3	1	target	1	603	699	319238	13.328	12.621	14.046
ProbeTrack13	4	ProbeTrack	13.2	SCS215b	20111031.144752	20111031.145224	8	0.013328	60	10	60-180	60	168	GapExp	SmallFlash	0	35	2	3	1	target	1	405	798	320036	13.328	13.089	13.558
ProbeTrack13	4	ProbeTrack	13.2	SCS215b	20111031.144752	20111031.145231	8	0.013328	60	10	60-180	60	95	GapExp	SmallFlash	0	36	2	1	0	distractor	1	477	762	320798	13.328	13.000	13.659
ProbeTrack13	4	ProbeTrack	13.2	SCS215b	20111031.144752	20111031.145236	8	0.013328	60	10	60-180	60	135	GapExp	SmallFlash	0	37	2	45	0	distractor	1	460	770	321568	13.328	10.394	15.544
ProbeTrack13	4	ProbeTrack	13.2	SCS215b	20111031.144752	20111031.145243	8	0.013328	60	10	60-180	60	105	GapExp	SmallFlash	0	38	2	45	1	target	1	356	822	322390	13.328	11.427	15.247
ProbeTrack13	4	ProbeTrack	13.2	SCS215b	20111031.144752	20111031.145249	8	0.013328	60	10	60-180	60	154	GapExp	SmallFlash	0	39	2	45	0	distractor	1	448	776	323166	13.328	5.913	20.767
ProbeTrack13	4	ProbeTrack	13.2	SCS215b	20111031.144752	20111031.145257	8	0.013328	60	10	60-180	60	114	GapExp	SmallFlash	0	40	2	45	1	target	1	478	761	323927	13.328	5.720	20.936
ProbeTrack13	4	ProbeTrack	13.2	SCS215b	20111031.144752	20111031.145303	8	0.013328	60	10	60-180	60	72	GapExp	SmallFlash	0	41	2	3	1	target	1	471	765	324692	13.328	7.173	19.475
ProbeTrack13	4	ProbeTrack	13.2	SCS215b	20111031.144752	20111031.145308	8	0.013328	60	10	60-180	60	115	GapExp	SmallFlash	0	42	2	3	1	target	1	516	742	325434	13.328	4.353	22.315
ProbeTrack13	4	ProbeTrack	13.2	SCS215b	20111031.144752	20111031.145314	8	0.013328	60	10	60-180	60	155	GapExp	SmallFlash	0	43	2	1	0	distractor	1	422	789	326223	13.328	9.303	17.438
ProbeTrack13	4	ProbeTrack	13.2	SCS215b	20111031.144752	20111031.145321	8	0.013328	60	10	60-180	60	66	GapExp	SmallFlash	0	44	2	0	1	target	1	393	804	327027	13.328	11.456	15.217
ProbeTrack13	4	ProbeTrack	13.2	SCS215b	20111031.144752	20111031.145326	8	0.013328	60	10	60-180	60	174	GapExp	SmallFlash	0	45	2	1	1	target	1	450	775	327802	13.328	6.523	20.137
ProbeTrack13	4	ProbeTrack	13.2	SCS215b	20111031.144752	20111031.145333	8	0.013328	60	10	60-180	60	150	GapExp	SmallFlash	0	46	2	3	0	distractor	1	442	779	328581	13.328	9.297	17.344
ProbeTrack13	4	ProbeTrack	13.2	SCS215b	20111031.144752	20111031.145339	8	0.013328	60	10	60-180	60	128	GapExp	SmallFlash	0	47	2	45	0	distractor	1	481	760	329341	13.328	8.890	17.768
ProbeTrack13	4	ProbeTrack	13.2	SCS215b	20111031.144752	20111031.145345	8	0.013328	60	10	60-180	60	103	GapExp	SmallFlash	0	48	2	3	1	target	1	487	757	330098	13.328	3.862	22.782
ProbeTrack13	4	ProbeTrack	13.2	SCS215b	20111031.144752	20111031.145351	8	0.013328	60	10	60-180	60	170	GapExp	SmallFlash	0	49	2	1	1	target	1	386	807	330905	13.328	7.487	19.178
ProbeTrack13	4	ProbeTrack	13.2	SCS215b	20111031.144752	20111031.145357	8	0.013328	60	10	60-180	60	76	GapExp	SmallFlash	0	50	2	45	1	target	1	432	784	331689	13.328	7.009	19.657
ProbeTrack13	4	ProbeTrack	13.2	SCS215b	20111031.144752	20111031.145404	8	0.013328	60	10	60-180	60	90	GapExp	SmallFlash	0	51	2	3	0	distractor	1	527	737	332426	13.328	6.094	20.555
ProbeTrack13	4	ProbeTrack	13.2	SCS215b	20111031.144752	20111031.145410	8	0.013328	60	10	60-180	60	164	GapExp	SmallFlash	0	52	2	1	1	target	1	552	724	333150	13.328	3.388	23.273
ProbeTrack13	4	ProbeTrack	13.2	SCS215b	20111031.144752	20111031.145417	8	0.013328	60	10	60-180	60	147	GapExp	SmallFlash	0	53	2	45	1	target	1	382	809	333959	13.328	4.225	22.429
ProbeTrack13	4	ProbeTrack	13.2	SCS215b	20111031.144752	20111031.145423	8	0.013328	60	10	60-180	60	171	GapExp	SmallFlash	0	54	2	1	0	distractor	1	501	750	334709	13.328	5.588	21.080
ProbeTrack13	4	ProbeTrack	13.2	SCS215b	20111031.144752	20111031.145430	8	0.013328	60	10	60-180	60	127	GapExp	SmallFlash	0	55	2	0	1	target	1	497	752	335461	13.328	12.057	14.609
ProbeTrack13	4	ProbeTrack	13.2	SCS215b	20111031.144752	20111031.145437	8	0.013328	60	10	60-180	60	179	GapExp	SmallFlash	0	56	2	3	1	target	1	365	818	336279	13.328	4.344	22.321
ProbeTrack13	4	ProbeTrack	13.2	SCS215b	20111031.144752	20111031.145443	8	0.013328	60	10	60-180	60	166	GapExp	SmallFlash	0	57	2	1	1	target	1	426	787	337066	13.328	4.817	21.837
ProbeTrack13	4	ProbeTrack	13.2	SCS215b	20111031.144752	20111031.145450	8	0.013328	60	10	60-180	60	64	GapExp	SmallFlash	0	58	2	1	1	target	1	406	797	337863	13.377	9.354	22.222
ProbeTrack13	4	ProbeTrack	13.2	SCS215b	20111031.144752	20111031.145455	8	0.013328	60	10	60-180	60	175	GapExp	SmallFlash	0	59	2	1	0	distractor	1	464	768	338631	13.328	10.759	15.865
ProbeTrack13	4	ProbeTrack	13.2	SCS215b	20111031.144752	20111031.145502	8	0.013328	60	10	60-180	60	103	GapExp	SmallFlash	0	60	2	45	1	target	1	449	776	339407	13.328	7.717	18.927
ProbeTrack13	4	ProbeTrack	13.2	SCS215b	20111031.144752	20111031.145509	8	0.013328	60	10	60-180	60	78	GapExp	SmallFlash	0	61	2	45	0	distractor	1	598	701	340108	13.328	13.241	13.428
ProbeTrack13	4	ProbeTrack	13.2	SCS215b	20111031.144752	20111031.145515	8	0.013328	60	10	60-180	60	94	GapExp	SmallFlash	0	62	2	0	1	target	1	422	789	340897	13.328	7.524	19.126
ProbeTrack13	4	ProbeTrack	13.2	SCS215b	20111031.144752	20111031.145521	8	0.013328	60	10	60-180	60	102	GapExp	SmallFlash	0	63	2	1	1	target	1	405	798	341695	13.328	6.465	20.204
ProbeTrack13	4	ProbeTrack	13.2	SCS215b	20111031.144752	20111031.145526	8	0.013328	60	10	60-180	60	108	GapExp	SmallFlash	0	64	2	3	1	target	1	492	754	342449	13.328	6.923	19.744
ProbeTrack13	4	ProbeTrack	13.2	SCS215b	20111031.144752	20111031.145532	8	0.013328	60	10	60-180	60	148	GapExp	SmallFlash	0	65	2	45	1	early	-4	-268	-1000	341449	13.328	6.546	20.114
ProbeTrack13	4	ProbeTrack	13.2	SCS215b	20111031.144752	20111031.145539	8	0.013328	60	10	60-180	60	158	GapExp	SmallFlash	0	66	2	1	1	target	1	523	739	342188	13.328	5.075	21.582
ProbeTrack13	4	ProbeTrack	13.2	SCS215b	20111031.144752	20111031.145546	8	0.013328	60	10	60-180	60	110	GapExp	SmallFlash	0	67	2	45	0	distractor	1	435	783	342971	13.328	13.304	13.357
ProbeTrack13	4	ProbeTrack	13.2	SCS215b	20111031.144752	20111031.145552	8	0.013328	60	10	60-180	60	135	GapExp	SmallFlash	0	68	2	3	1	distractor	0	400	-1000	341971	13.328	6.167	20.490
ProbeTrack13	4	ProbeTrack	13.2	SCS215b	20111031.144752	20111031.145558	8	0.013328	60	10	60-180	60	134	GapExp	SmallFlash	0	69	2	3	0	distractor	1	499	751	342722	13.328	9.355	17.393
ProbeTrack13	4	ProbeTrack	13.2	SCS215b	20111031.144752	20111031.145604	8	0.013328	60	10	60-180	60	119	GapExp	SmallFlash	0	70	2	3	0	distractor	1	581	710	343432	13.328	12.017	14.642
ProbeTrack13	4	ProbeTrack	13.2	SCS215b	20111031.144752	20111031.145610	8	0.013328	60	10	60-180	60	168	GapExp	SmallFlash	0	71	2	3	1	early	-4	-3980	-1000	342432	13.328	9.586	17.087
ProbeTrack13	4	ProbeTrack	13.2	SCS215b	20111031.144752	20111031.145618	8	0.013328	60	10	60-180	60	70	GapExp	SmallFlash	0	72	2	1	1	target	1	602	699	343131	13.328	4.177	22.489
