exp	sub	code	rev	comp	runtime	trialtime	nstim	refreshdur	cuedur	gapdur	gapOnsetRange	durPostProbe	gapOnsetTime	blocktype	gaptype	prac	trial	ntargets	soa	probeTarget	resp	acc	rt	pts	tpts	meanFrameDur	minFrameDur	maxFrameDur
ProbeTrack13	14	ProbeTrack	13.2	SCS215a	20111107.132209	20111107.132214	8	0.013328	60	0	60-180	60	83	NoGap	None	1	1	2	45	1	target	1	962	519	519	13.378	12.135	14.520
ProbeTrack13	14	ProbeTrack	13.2	SCS215a	20111107.132209	20111107.132355	8	0.013328	60	0	60-180	60	132	NoGap	None	1	2	2	45	0	distractor	1	874	563	1082	13.370	4.606	25.422
ProbeTrack13	14	ProbeTrack	13.2	SCS215a	20111107.132209	20111107.132405	8	0.013328	60	0	60-180	60	126	NoGap	None	1	3	2	1	1	target	1	599	701	1783	13.328	12.596	14.069
ProbeTrack13	14	ProbeTrack	13.2	SCS215a	20111107.132209	20111107.132413	8	0.013328	60	0	60-180	60	152	NoGap	None	1	4	2	1	0	distractor	1	628	686	2469	13.328	13.308	13.355
ProbeTrack13	14	ProbeTrack	13.2	SCS215a	20111107.132209	20111107.132421	8	0.013328	60	0	60-180	60	124	NoGap	None	1	5	2	3	0	distractor	1	641	680	3149	13.328	13.306	13.362
ProbeTrack13	14	ProbeTrack	13.2	SCS215a	20111107.132209	20111107.132428	8	0.013328	60	0	60-180	60	91	NoGap	None	1	6	2	1	0	distractor	1	666	667	3816	13.328	10.129	16.516
ProbeTrack13	14	ProbeTrack	13.2	SCS215a	20111107.132209	20111107.132435	8	0.013328	60	0	60-180	60	118	NoGap	None	1	7	2	1	1	target	1	476	762	4578	13.328	9.995	16.654
ProbeTrack13	14	ProbeTrack	13.2	SCS215a	20111107.132209	20111107.132441	8	0.013328	60	0	60-180	60	77	NoGap	None	1	8	2	45	0	distractor	1	636	682	5260	13.328	10.782	15.873
ProbeTrack13	14	ProbeTrack	13.2	SCS215a	20111107.132209	20111107.132448	8	0.013328	60	0	60-180	60	111	NoGap	None	1	9	2	3	0	distractor	1	578	711	5971	13.328	12.984	13.657
ProbeTrack13	14	ProbeTrack	13.2	SCS215a	20111107.132209	20111107.132454	8	0.013328	60	0	60-180	60	115	NoGap	None	1	10	2	3	1	target	1	520	740	6711	13.328	13.294	13.359
ProbeTrack13	14	ProbeTrack	13.2	SCS215a	20111107.132209	20111107.132501	8	0.013328	60	0	60-180	60	77	NoGap	None	1	11	2	45	0	distractor	1	566	717	7428	13.328	9.401	17.260
ProbeTrack13	14	ProbeTrack	13.2	SCS215a	20111107.132209	20111107.132507	8	0.013328	60	0	60-180	60	169	NoGap	None	1	12	2	1	1	target	1	650	675	8103	13.328	13.111	13.538
ProbeTrack13	14	ProbeTrack	13.2	SCS215a	20111107.132209	20111107.132514	8	0.013328	60	0	60-180	60	119	NoGap	None	1	13	2	0	1	target	1	540	730	8833	13.328	8.139	18.531
ProbeTrack13	14	ProbeTrack	13.2	SCS215a	20111107.132209	20111107.132521	8	0.013328	60	0	60-180	60	120	NoGap	None	1	14	2	0	1	target	1	483	759	9592	13.328	12.729	13.921
ProbeTrack13	14	ProbeTrack	13.2	SCS215a	20111107.132209	20111107.132527	8	0.013328	60	0	60-180	60	165	NoGap	None	1	15	2	45	1	target	1	503	749	10341	13.328	10.749	15.900
ProbeTrack13	14	ProbeTrack	13.2	SCS215a	20111107.132209	20111107.132535	8	0.013328	60	0	60-180	60	138	NoGap	None	1	16	2	0	1	target	1	489	756	11097	13.328	13.105	13.549
ProbeTrack13	14	ProbeTrack	13.2	SCS215a	20111107.132209	20111107.132542	8	0.013328	60	0	60-180	60	84	NoGap	None	1	17	2	1	0	distractor	1	636	682	11779	13.328	6.090	20.549
ProbeTrack13	14	ProbeTrack	13.2	SCS215a	20111107.132209	20111107.132548	8	0.013328	60	0	60-180	60	112	NoGap	None	1	18	2	0	0	distractor	1	592	704	12483	13.328	13.094	13.550
ProbeTrack13	14	ProbeTrack	13.2	SCS215a	20111107.132209	20111107.132554	8	0.013328	60	0	60-180	60	123	NoGap	None	1	19	2	3	1	target	1	564	718	13201	13.328	11.178	15.465
ProbeTrack13	14	ProbeTrack	13.2	SCS215a	20111107.132209	20111107.132601	8	0.013328	60	0	60-180	60	112	NoGap	None	1	20	2	3	0	distractor	1	619	691	13892	13.328	9.826	16.817
ProbeTrack13	14	ProbeTrack	13.2	SCS215a	20111107.132209	20111107.132608	8	0.013328	60	0	60-180	60	81	NoGap	None	1	21	2	45	0	distractor	1	729	636	14528	13.328	13.099	13.551
ProbeTrack13	14	ProbeTrack	13.2	SCS215a	20111107.132209	20111107.132616	8	0.013328	60	0	60-180	60	142	NoGap	None	1	22	2	45	1	target	1	459	771	15299	13.328	13.097	13.559
ProbeTrack13	14	ProbeTrack	13.2	SCS215a	20111107.132209	20111107.132623	8	0.013328	60	0	60-180	60	179	NoGap	None	1	23	2	1	0	distractor	1	613	694	15993	13.328	9.678	16.970
ProbeTrack13	14	ProbeTrack	13.2	SCS215a	20111107.132209	20111107.132630	8	0.013328	60	0	60-180	60	174	NoGap	None	1	24	2	3	0	distractor	1	611	695	16688	13.328	13.128	13.541
ProbeTrack13	14	ProbeTrack	13.2	SCS215a	20111107.132209	20111107.132637	8	0.013328	60	0	60-180	60	152	NoGap	None	1	25	2	3	1	target	1	450	775	17463	13.328	11.483	15.170
ProbeTrack13	14	ProbeTrack	13.2	SCS215a	20111107.132209	20111107.132644	8	0.013328	60	0	60-180	60	82	NoGap	None	1	26	2	1	1	target	1	550	725	18188	13.328	7.072	19.571
ProbeTrack13	14	ProbeTrack	13.2	SCS215a	20111107.132209	20111107.132651	8	0.013328	60	0	60-180	60	130	NoGap	None	1	27	2	1	1	target	1	553	724	18912	13.328	12.934	13.660
ProbeTrack13	14	ProbeTrack	13.2	SCS215a	20111107.132209	20111107.132657	8	0.013328	60	0	60-180	60	133	NoGap	None	1	28	2	45	1	target	1	450	775	19687	13.328	8.754	17.895
ProbeTrack13	14	ProbeTrack	13.2	SCS215a	20111107.132209	20111107.132705	8	0.013328	60	0	60-180	60	128	NoGap	None	1	29	2	0	1	target	1	593	704	20391	13.328	13.307	13.347
ProbeTrack13	14	ProbeTrack	13.2	SCS215a	20111107.132209	20111107.132711	8	0.013328	60	0	60-180	60	77	NoGap	None	1	30	2	1	0	distractor	1	722	639	21030	13.328	13.301	13.348
ProbeTrack13	14	ProbeTrack	13.2	SCS215a	20111107.132209	20111107.132717	8	0.013328	60	0	60-180	60	146	NoGap	None	1	31	2	3	1	target	1	453	774	21804	13.328	13.308	13.347
ProbeTrack13	14	ProbeTrack	13.2	SCS215a	20111107.132209	20111107.132728	8	0.013328	60	0	60-180	60	152	NoGap	None	1	32	2	0	0	distractor	1	658	671	22475	13.328	12.398	14.264
ProbeTrack13	14	ProbeTrack	13.2	SCS215a	20111107.132209	20111107.132735	8	0.013328	60	0	60-180	60	101	NoGap	None	1	33	2	0	0	distractor	1	616	692	23167	13.328	12.473	14.209
ProbeTrack13	14	ProbeTrack	13.2	SCS215a	20111107.132209	20111107.132741	8	0.013328	60	0	60-180	60	129	NoGap	None	1	34	2	45	1	target	1	581	710	23877	13.328	13.114	13.544
ProbeTrack13	14	ProbeTrack	13.2	SCS215a	20111107.132209	20111107.132749	8	0.013328	60	0	60-180	60	117	NoGap	None	1	35	2	3	1	target	1	514	743	24620	13.328	8.747	17.903
ProbeTrack13	14	ProbeTrack	13.2	SCS215a	20111107.132209	20111107.132755	8	0.013328	60	0	60-180	60	172	NoGap	None	1	36	2	0	1	target	1	378	811	25431	13.472	2.820	30.677
ProbeTrack13	14	ProbeTrack	13.2	SCS215a	20111107.132209	20111107.132802	8	0.013328	60	0	60-180	60	125	NoGap	None	1	37	2	0	0	distractor	1	620	690	26121	13.328	13.098	13.554
ProbeTrack13	14	ProbeTrack	13.2	SCS215a	20111107.132209	20111107.132808	8	0.013328	60	0	60-180	60	144	NoGap	None	1	38	2	3	0	distractor	1	694	653	26774	13.328	7.838	18.803
ProbeTrack13	14	ProbeTrack	13.2	SCS215a	20111107.132209	20111107.132815	8	0.013328	60	0	60-180	60	136	NoGap	None	1	39	2	0	0	distractor	1	656	672	27446	13.328	12.301	14.350
ProbeTrack13	14	ProbeTrack	13.2	SCS215a	20111107.132209	20111107.132822	8	0.013328	60	0	60-180	60	160	NoGap	None	1	40	2	45	0	distractor	1	610	695	28141	13.328	8.246	18.410
ProbeTrack13	14	ProbeTrack	13.2	SCS215a	20111107.132953	20111107.133007	8	0.013327	60	10	60-180	60	141	GapPrac	BigFlash	1	1	2	1	1	target	1	710	645	28786	13.375	13.105	13.552
ProbeTrack13	14	ProbeTrack	13.2	SCS215a	20111107.132953	20111107.133015	8	0.013327	60	10	60-180	60	103	GapPrac	BigFlash	1	2	2	0	0	distractor	1	792	604	29390	13.328	5.290	21.366
ProbeTrack13	14	ProbeTrack	13.2	SCS215a	20111107.132953	20111107.133021	8	0.013327	60	10	60-180	60	93	GapPrac	BigFlash	1	3	2	3	1	target	1	508	746	30136	13.328	7.056	19.604
ProbeTrack13	14	ProbeTrack	13.2	SCS215a	20111107.132953	20111107.133027	8	0.013327	60	10	60-180	60	160	GapPrac	BigFlash	1	4	2	0	1	target	1	451	775	30911	13.328	13.118	13.551
ProbeTrack13	14	ProbeTrack	13.2	SCS215a	20111107.132953	20111107.133034	8	0.013327	60	10	60-180	60	170	GapPrac	BigFlash	1	5	2	1	0	distractor	1	633	684	31595	13.328	13.105	13.560
ProbeTrack13	14	ProbeTrack	13.2	SCS215a	20111107.132953	20111107.133041	8	0.013327	60	10	60-180	60	140	GapPrac	BigFlash	1	6	2	45	1	target	1	436	782	32377	13.328	12.796	13.873
ProbeTrack13	14	ProbeTrack	13.2	SCS215a	20111107.132953	20111107.133049	8	0.013327	60	10	60-180	60	178	GapPrac	BigFlash	1	7	2	3	0	distractor	1	601	700	33077	13.371	6.869	29.544
ProbeTrack13	14	ProbeTrack	13.2	SCS215a	20111107.132953	20111107.133056	8	0.013327	60	10	60-180	60	155	GapPrac	BigFlash	1	8	2	45	0	distractor	1	493	754	33831	13.328	7.662	18.976
ProbeTrack13	14	ProbeTrack	13.2	SCS215a	20111107.132953	20111107.133103	8	0.013327	60	10	60-180	60	107	GapPrac	BigFlash	1	9	2	1	1	target	1	452	774	34605	13.328	13.106	13.558
ProbeTrack13	14	ProbeTrack	13.2	SCS215a	20111107.132953	20111107.133109	8	0.013327	60	10	60-180	60	171	GapPrac	BigFlash	1	10	2	0	0	distractor	1	510	745	35350	13.328	13.105	13.563
ProbeTrack13	14	ProbeTrack	13.2	SCS215a	20111107.132953	20111107.133116	8	0.013327	60	10	60-180	60	159	GapPrac	BigFlash	1	11	2	45	0	distractor	1	631	685	36035	13.328	10.559	16.090
ProbeTrack13	14	ProbeTrack	13.2	SCS215a	20111107.132953	20111107.133125	8	0.013327	60	10	60-180	60	161	GapPrac	BigFlash	1	12	2	3	0	distractor	1	704	648	36683	13.328	13.098	13.557
ProbeTrack13	14	ProbeTrack	13.2	SCS215a	20111107.132953	20111107.133132	8	0.013327	60	10	60-180	60	62	GapPrac	BigFlash	1	13	2	45	1	target	1	530	735	37418	13.328	13.010	13.666
ProbeTrack13	14	ProbeTrack	13.2	SCS215a	20111107.132953	20111107.133138	8	0.013327	60	10	60-180	60	129	GapPrac	BigFlash	1	14	2	0	1	target	1	491	755	38173	13.328	11.255	15.409
ProbeTrack13	14	ProbeTrack	13.2	SCS215a	20111107.132953	20111107.133144	8	0.013327	60	10	60-180	60	79	GapPrac	BigFlash	1	15	2	3	1	target	1	505	748	38921	13.328	13.294	13.363
ProbeTrack13	14	ProbeTrack	13.2	SCS215a	20111107.132953	20111107.133149	8	0.013327	60	10	60-180	60	176	GapPrac	BigFlash	1	16	2	1	1	target	1	485	758	39679	13.328	10.090	16.559
ProbeTrack13	14	ProbeTrack	13.2	SCS215a	20111107.132953	20111107.133157	8	0.013327	60	10	60-180	60	82	GapPrac	BigFlash	1	17	2	0	0	distractor	1	682	659	40338	13.328	13.190	13.459
ProbeTrack13	14	ProbeTrack	13.2	SCS215a	20111107.132953	20111107.133203	8	0.013327	60	10	60-180	60	175	GapPrac	BigFlash	1	18	2	3	1	target	1	428	786	41124	13.328	7.947	17.117
ProbeTrack13	14	ProbeTrack	13.2	SCS215a	20111107.132953	20111107.133209	8	0.013327	60	10	60-180	60	151	GapPrac	BigFlash	1	19	2	0	1	target	1	481	760	41884	13.328	9.711	16.964
ProbeTrack13	14	ProbeTrack	13.2	SCS215a	20111107.132953	20111107.133216	8	0.013327	60	10	60-180	60	167	GapPrac	BigFlash	1	20	2	1	0	distractor	1	773	614	42498	13.328	13.293	13.365
ProbeTrack13	14	ProbeTrack	13.2	SCS215a	20111107.133342	20111107.133356	8	0.013328	60	10	60-180	60	175	GapExp	BigFlash	1	1	2	45	1	target	1	464	768	43266	13.367	13.097	13.551
ProbeTrack13	14	ProbeTrack	13.2	SCS215a	20111107.133342	20111107.133408	8	0.013328	60	10	60-180	60	119	GapExp	BigFlash	1	2	2	1	1	target	1	522	739	44005	13.328	13.306	13.356
ProbeTrack13	14	ProbeTrack	13.2	SCS215a	20111107.133342	20111107.133416	8	0.013328	60	10	60-180	60	69	GapExp	BigFlash	1	3	2	0	1	target	1	468	766	44771	13.328	13.306	13.346
ProbeTrack13	14	ProbeTrack	13.2	SCS215a	20111107.133342	20111107.133421	8	0.013328	60	10	60-180	60	86	GapExp	BigFlash	1	4	2	3	1	target	1	425	788	45559	13.328	13.301	13.353
ProbeTrack13	14	ProbeTrack	13.2	SCS215a	20111107.133342	20111107.133427	8	0.013328	60	10	60-180	60	177	GapExp	BigFlash	1	5	2	0	0	distractor	1	542	729	46288	13.328	13.119	13.552
ProbeTrack13	14	ProbeTrack	13.2	SCS215a	20111107.133342	20111107.133434	8	0.013328	60	10	60-180	60	95	GapExp	BigFlash	1	6	2	45	0	distractor	1	704	648	46936	13.328	13.106	13.551
ProbeTrack13	14	ProbeTrack	13.2	SCS215a	20111107.133342	20111107.133441	8	0.013328	60	10	60-180	60	71	GapExp	BigFlash	1	7	2	1	0	distractor	1	770	615	47551	13.328	12.949	13.706
ProbeTrack13	14	ProbeTrack	13.2	SCS215a	20111107.133342	20111107.133447	8	0.013328	60	10	60-180	60	136	GapExp	BigFlash	1	8	2	3	0	distractor	1	625	688	48239	13.328	13.097	13.568
ProbeTrack13	14	ProbeTrack	13.2	SCS215a	20111107.133342	20111107.133453	8	0.013328	60	10	60-180	60	62	GapExp	BigFlash	0	9	2	45	0	distractor	1	666	667	48906	13.328	13.308	13.346
ProbeTrack13	14	ProbeTrack	13.2	SCS215a	20111107.133342	20111107.133501	8	0.013328	60	10	60-180	60	132	GapExp	BigFlash	0	10	2	0	0	distractor	1	612	694	49600	13.328	13.085	13.552
ProbeTrack13	14	ProbeTrack	13.2	SCS215a	20111107.133342	20111107.133507	8	0.013328	60	10	60-180	60	68	GapExp	BigFlash	0	11	2	1	0	distractor	1	713	644	50244	13.328	13.105	13.558
ProbeTrack13	14	ProbeTrack	13.2	SCS215a	20111107.133342	20111107.133514	8	0.013328	60	10	60-180	60	179	GapExp	BigFlash	0	12	2	45	1	target	1	516	742	50986	13.328	13.098	13.558
ProbeTrack13	14	ProbeTrack	13.2	SCS215a	20111107.133342	20111107.133522	8	0.013328	60	10	60-180	60	168	GapExp	BigFlash	0	13	2	1	0	distractor	1	621	690	51676	13.328	12.838	13.822
ProbeTrack13	14	ProbeTrack	13.2	SCS215a	20111107.133342	20111107.133529	8	0.013328	60	10	60-180	60	97	GapExp	BigFlash	0	14	2	0	0	distractor	1	684	658	52334	13.328	13.307	13.349
ProbeTrack13	14	ProbeTrack	13.2	SCS215a	20111107.133342	20111107.133536	8	0.013328	60	10	60-180	60	122	GapExp	BigFlash	0	15	2	3	0	distractor	1	659	671	53005	13.328	13.055	13.603
ProbeTrack13	14	ProbeTrack	13.2	SCS215a	20111107.133342	20111107.133542	8	0.013328	60	10	60-180	60	93	GapExp	BigFlash	0	16	2	3	0	distractor	1	507	747	53752	13.328	13.308	13.347
ProbeTrack13	14	ProbeTrack	13.2	SCS215a	20111107.133342	20111107.133548	8	0.013328	60	10	60-180	60	108	GapExp	BigFlash	0	17	2	3	1	target	1	495	753	54505	13.328	12.859	13.801
ProbeTrack13	14	ProbeTrack	13.2	SCS215a	20111107.133342	20111107.133554	8	0.013328	60	10	60-180	60	108	GapExp	BigFlash	0	18	2	45	1	target	1	365	818	55323	13.328	12.831	13.825
ProbeTrack13	14	ProbeTrack	13.2	SCS215a	20111107.133342	20111107.133601	8	0.013328	60	10	60-180	60	133	GapExp	BigFlash	0	19	2	0	0	distractor	1	560	720	56043	13.328	12.888	13.751
ProbeTrack13	14	ProbeTrack	13.2	SCS215a	20111107.133342	20111107.133608	8	0.013328	60	10	60-180	60	153	GapExp	BigFlash	0	20	2	1	0	distractor	1	565	718	56761	13.328	13.306	13.349
ProbeTrack13	14	ProbeTrack	13.2	SCS215a	20111107.133342	20111107.133615	8	0.013328	60	10	60-180	60	160	GapExp	BigFlash	0	21	2	0	0	distractor	1	531	735	57496	13.328	13.111	13.560
ProbeTrack13	14	ProbeTrack	13.2	SCS215a	20111107.133342	20111107.133625	8	0.013328	60	10	60-180	60	95	GapExp	BigFlash	0	22	2	3	0	distractor	1	742	629	58125	13.328	13.307	13.348
ProbeTrack13	14	ProbeTrack	13.2	SCS215a	20111107.133342	20111107.133633	8	0.013328	60	10	60-180	60	69	GapExp	BigFlash	0	23	2	1	1	target	1	484	758	58883	13.328	13.306	13.346
ProbeTrack13	14	ProbeTrack	13.2	SCS215a	20111107.133342	20111107.133639	8	0.013328	60	10	60-180	60	107	GapExp	BigFlash	0	24	2	0	1	target	1	448	776	59659	13.328	13.112	13.538
ProbeTrack13	14	ProbeTrack	13.2	SCS215a	20111107.133342	20111107.133645	8	0.013328	60	10	60-180	60	86	GapExp	BigFlash	0	25	2	3	1	target	1	516	742	60401	13.328	13.099	13.542
ProbeTrack13	14	ProbeTrack	13.2	SCS215a	20111107.133342	20111107.133651	8	0.013328	60	10	60-180	60	81	GapExp	BigFlash	0	26	2	45	0	distractor	1	554	723	61124	13.328	13.104	13.540
ProbeTrack13	14	ProbeTrack	13.2	SCS215a	20111107.133342	20111107.133701	8	0.013328	60	10	60-180	60	128	GapExp	BigFlash	0	27	2	45	0	distractor	1	483	759	61883	13.328	13.021	13.623
ProbeTrack13	14	ProbeTrack	13.2	SCS215a	20111107.133342	20111107.133708	8	0.013328	60	10	60-180	60	154	GapExp	BigFlash	0	28	2	1	1	target	1	409	796	62679	13.328	13.309	13.347
ProbeTrack13	14	ProbeTrack	13.2	SCS215a	20111107.133342	20111107.133715	8	0.013328	60	10	60-180	60	168	GapExp	BigFlash	0	29	2	0	0	distractor	1	488	756	63435	13.328	12.960	13.681
ProbeTrack13	14	ProbeTrack	13.2	SCS215a	20111107.133342	20111107.133723	8	0.013328	60	10	60-180	60	150	GapExp	BigFlash	0	30	2	3	1	target	1	439	781	64216	13.328	12.901	13.758
ProbeTrack13	14	ProbeTrack	13.2	SCS215a	20111107.133342	20111107.133730	8	0.013328	60	10	60-180	60	137	GapExp	BigFlash	0	31	2	0	0	distractor	1	592	704	64920	13.328	13.303	13.354
ProbeTrack13	14	ProbeTrack	13.2	SCS215a	20111107.133342	20111107.133740	8	0.013328	60	10	60-180	60	104	GapExp	BigFlash	0	32	2	3	0	distractor	1	625	688	65608	13.328	13.079	13.565
ProbeTrack13	14	ProbeTrack	13.2	SCS215a	20111107.133342	20111107.133746	8	0.013328	60	10	60-180	60	176	GapExp	BigFlash	0	33	2	3	1	target	1	451	775	66383	13.328	13.309	13.346
ProbeTrack13	14	ProbeTrack	13.2	SCS215a	20111107.133342	20111107.133753	8	0.013328	60	10	60-180	60	173	GapExp	BigFlash	0	34	2	45	1	target	1	625	688	67071	13.328	13.009	13.640
ProbeTrack13	14	ProbeTrack	13.2	SCS215a	20111107.133342	20111107.133802	8	0.013328	60	10	60-180	60	83	GapExp	BigFlash	0	35	2	0	0	distractor	1	660	670	67741	13.328	13.102	13.544
ProbeTrack13	14	ProbeTrack	13.2	SCS215a	20111107.133342	20111107.133809	8	0.013328	60	10	60-180	60	176	GapExp	BigFlash	0	36	2	1	1	target	1	494	753	68494	13.328	13.110	13.553
ProbeTrack13	14	ProbeTrack	13.2	SCS215a	20111107.133342	20111107.133817	8	0.013328	60	10	60-180	60	169	GapExp	BigFlash	0	37	2	0	1	target	1	451	775	69269	13.328	13.305	13.347
ProbeTrack13	14	ProbeTrack	13.2	SCS215a	20111107.133342	20111107.133824	8	0.013328	60	10	60-180	60	154	GapExp	BigFlash	0	38	2	45	0	distractor	1	556	722	69991	13.328	12.903	13.753
ProbeTrack13	14	ProbeTrack	13.2	SCS215a	20111107.133342	20111107.133831	8	0.013328	60	10	60-180	60	77	GapExp	BigFlash	0	39	2	45	1	target	1	485	758	70749	13.328	13.091	13.558
ProbeTrack13	14	ProbeTrack	13.2	SCS215a	20111107.133342	20111107.133837	8	0.013328	60	10	60-180	60	164	GapExp	BigFlash	0	40	2	3	1	target	1	449	776	71525	13.328	13.308	13.347
ProbeTrack13	14	ProbeTrack	13.2	SCS215a	20111107.133342	20111107.133848	8	0.013328	60	10	60-180	60	144	GapExp	BigFlash	0	41	2	0	0	distractor	1	634	683	72208	13.328	13.309	13.348
ProbeTrack13	14	ProbeTrack	13.2	SCS215a	20111107.133342	20111107.133855	8	0.013328	60	10	60-180	60	136	GapExp	BigFlash	0	42	2	0	1	target	1	423	789	72997	13.328	13.308	13.347
ProbeTrack13	14	ProbeTrack	13.2	SCS215a	20111107.133342	20111107.133902	8	0.013328	60	10	60-180	60	110	GapExp	BigFlash	0	43	2	45	1	target	1	377	812	73809	13.328	13.309	13.346
ProbeTrack13	14	ProbeTrack	13.2	SCS215a	20111107.133342	20111107.133909	8	0.013328	60	10	60-180	60	84	GapExp	BigFlash	0	44	2	1	1	target	1	509	746	74555	13.328	13.309	13.348
ProbeTrack13	14	ProbeTrack	13.2	SCS215a	20111107.133342	20111107.133915	8	0.013328	60	10	60-180	60	106	GapExp	BigFlash	0	45	2	0	0	distractor	1	538	731	75286	13.328	13.107	13.538
ProbeTrack13	14	ProbeTrack	13.2	SCS215a	20111107.133342	20111107.133922	8	0.013328	60	10	60-180	60	171	GapExp	BigFlash	0	46	2	0	1	target	1	406	797	76083	13.328	12.960	13.682
ProbeTrack13	14	ProbeTrack	13.2	SCS215a	20111107.133342	20111107.133928	8	0.013328	60	10	60-180	60	71	GapExp	BigFlash	0	47	2	45	1	target	1	472	764	76847	13.328	13.308	13.360
ProbeTrack13	14	ProbeTrack	13.2	SCS215a	20111107.133342	20111107.133937	8	0.013328	60	10	60-180	60	66	GapExp	BigFlash	0	48	2	0	1	target	1	958	521	77368	13.328	13.302	13.346
ProbeTrack13	14	ProbeTrack	13.2	SCS215a	20111107.133342	20111107.133943	8	0.013328	60	10	60-180	60	79	GapExp	BigFlash	0	49	2	1	0	distractor	1	534	733	78101	13.328	13.306	13.348
ProbeTrack13	14	ProbeTrack	13.2	SCS215a	20111107.133342	20111107.133951	8	0.013328	60	10	60-180	60	155	GapExp	BigFlash	0	50	2	3	1	target	1	511	745	78846	13.328	13.303	13.344
ProbeTrack13	14	ProbeTrack	13.2	SCS215a	20111107.133342	20111107.133959	8	0.013328	60	10	60-180	60	67	GapExp	BigFlash	0	51	2	1	1	target	1	445	778	79624	13.328	12.845	13.799
ProbeTrack13	14	ProbeTrack	13.2	SCS215a	20111107.133342	20111107.134008	8	0.013328	60	10	60-180	60	180	GapExp	BigFlash	0	52	2	3	1	target	1	378	811	80435	13.328	13.091	13.565
ProbeTrack13	14	ProbeTrack	13.2	SCS215a	20111107.133342	20111107.134016	8	0.013328	60	10	60-180	60	109	GapExp	BigFlash	0	53	2	0	1	target	1	399	801	81236	13.328	13.098	13.557
ProbeTrack13	14	ProbeTrack	13.2	SCS215a	20111107.133342	20111107.134023	8	0.013328	60	10	60-180	60	128	GapExp	BigFlash	0	54	2	3	1	target	1	398	801	82037	13.328	13.111	13.545
ProbeTrack13	14	ProbeTrack	13.2	SCS215a	20111107.133342	20111107.134030	8	0.013328	60	10	60-180	60	165	GapExp	BigFlash	0	55	2	1	1	target	1	405	798	82835	13.328	13.212	13.454
ProbeTrack13	14	ProbeTrack	13.2	SCS215a	20111107.133342	20111107.134037	8	0.013328	60	10	60-180	60	166	GapExp	BigFlash	0	56	2	0	0	distractor	1	486	757	83592	13.328	13.112	13.545
ProbeTrack13	14	ProbeTrack	13.2	SCS215a	20111107.133342	20111107.134043	8	0.013328	60	10	60-180	60	92	GapExp	BigFlash	0	57	2	0	1	target	1	413	794	84386	13.328	12.868	13.780
ProbeTrack13	14	ProbeTrack	13.2	SCS215a	20111107.133342	20111107.134051	8	0.013328	60	10	60-180	60	140	GapExp	BigFlash	0	58	2	45	0	distractor	1	532	734	85120	13.328	13.092	13.547
ProbeTrack13	14	ProbeTrack	13.2	SCS215a	20111107.133342	20111107.134058	8	0.013328	60	10	60-180	60	145	GapExp	BigFlash	0	59	2	45	1	target	1	393	804	85924	13.328	13.110	13.553
ProbeTrack13	14	ProbeTrack	13.2	SCS215a	20111107.133342	20111107.134105	8	0.013328	60	10	60-180	60	83	GapExp	BigFlash	0	60	2	45	0	distractor	1	509	746	86670	13.328	13.295	13.362
ProbeTrack13	14	ProbeTrack	13.2	SCS215a	20111107.133342	20111107.134111	8	0.013328	60	10	60-180	60	178	GapExp	BigFlash	0	61	2	3	0	distractor	1	484	758	87428	13.328	12.936	13.728
ProbeTrack13	14	ProbeTrack	13.2	SCS215a	20111107.133342	20111107.134122	8	0.013328	60	10	60-180	60	174	GapExp	BigFlash	0	62	2	1	0	distractor	1	443	779	88207	13.328	12.902	13.755
ProbeTrack13	14	ProbeTrack	13.2	SCS215a	20111107.133342	20111107.134129	8	0.013328	60	10	60-180	60	142	GapExp	BigFlash	0	63	2	3	0	distractor	1	451	775	88982	13.328	12.864	13.792
ProbeTrack13	14	ProbeTrack	13.2	SCS215a	20111107.133342	20111107.134136	8	0.013328	60	10	60-180	60	63	GapExp	BigFlash	0	64	2	0	0	distractor	1	595	703	89685	13.328	13.307	13.346
ProbeTrack13	14	ProbeTrack	13.2	SCS215a	20111107.133342	20111107.134141	8	0.013328	60	10	60-180	60	110	GapExp	BigFlash	0	65	2	3	1	target	1	460	770	90455	13.328	13.105	13.538
ProbeTrack13	14	ProbeTrack	13.2	SCS215a	20111107.133342	20111107.134147	8	0.013328	60	10	60-180	60	64	GapExp	BigFlash	0	66	2	45	0	distractor	1	553	724	91179	13.328	13.059	13.620
ProbeTrack13	14	ProbeTrack	13.2	SCS215a	20111107.133342	20111107.134154	8	0.013328	60	10	60-180	60	75	GapExp	BigFlash	0	67	2	0	1	target	1	466	767	91946	13.328	13.308	13.343
ProbeTrack13	14	ProbeTrack	13.2	SCS215a	20111107.133342	20111107.134159	8	0.013328	60	10	60-180	60	125	GapExp	BigFlash	0	68	2	0	1	target	1	423	789	92735	13.328	12.930	13.740
ProbeTrack13	14	ProbeTrack	13.2	SCS215a	20111107.133342	20111107.134205	8	0.013328	60	10	60-180	60	165	GapExp	BigFlash	0	69	2	1	1	target	1	423	789	93524	13.328	13.218	13.439
ProbeTrack13	14	ProbeTrack	13.2	SCS215a	20111107.133342	20111107.134212	8	0.013328	60	10	60-180	60	171	GapExp	BigFlash	0	70	2	0	1	target	1	403	799	94323	13.328	13.098	13.551
ProbeTrack13	14	ProbeTrack	13.2	SCS215a	20111107.133342	20111107.134221	8	0.013328	60	10	60-180	60	166	GapExp	BigFlash	0	71	2	3	1	target	1	361	820	95143	13.328	13.305	13.348
ProbeTrack13	14	ProbeTrack	13.2	SCS215a	20111107.133342	20111107.134232	8	0.013328	60	10	60-180	60	143	GapExp	BigFlash	0	72	2	45	0	distractor	1	471	765	95908	13.328	13.003	13.658
ProbeTrack13	14	ProbeTrack	13.2	SCS215a	20111107.133342	20111107.134239	8	0.013328	60	10	60-180	60	160	GapExp	BigFlash	0	73	2	45	0	distractor	1	518	741	96649	13.328	13.295	13.361
ProbeTrack13	14	ProbeTrack	13.2	SCS215a	20111107.133342	20111107.134247	8	0.013328	60	10	60-180	60	97	GapExp	BigFlash	0	74	2	0	1	target	1	456	772	97421	13.328	13.105	13.546
ProbeTrack13	14	ProbeTrack	13.2	SCS215a	20111107.133342	20111107.134256	8	0.013328	60	10	60-180	60	112	GapExp	BigFlash	0	75	2	0	1	target	1	379	811	98232	13.328	12.965	13.703
ProbeTrack13	14	ProbeTrack	13.2	SCS215a	20111107.133342	20111107.134304	8	0.013328	60	10	60-180	60	142	GapExp	BigFlash	0	76	2	45	0	distractor	1	717	642	98874	13.328	12.949	13.710
ProbeTrack13	14	ProbeTrack	13.2	SCS215a	20111107.133342	20111107.134312	8	0.013328	60	10	60-180	60	85	GapExp	BigFlash	0	77	2	0	0	distractor	1	570	715	99589	13.328	13.053	13.603
ProbeTrack13	14	ProbeTrack	13.2	SCS215a	20111107.133342	20111107.134318	8	0.013328	60	10	60-180	60	166	GapExp	BigFlash	0	78	2	0	1	target	1	378	811	100400	13.328	12.944	13.704
ProbeTrack13	14	ProbeTrack	13.2	SCS215a	20111107.133342	20111107.134325	8	0.013328	60	10	60-180	60	176	GapExp	BigFlash	0	79	2	45	0	distractor	1	525	738	101138	13.328	12.906	13.751
ProbeTrack13	14	ProbeTrack	13.2	SCS215a	20111107.133342	20111107.134333	8	0.013328	60	10	60-180	60	62	GapExp	BigFlash	0	80	2	1	0	distractor	1	631	685	101823	13.328	13.091	13.559
ProbeTrack13	14	ProbeTrack	13.2	SCS215a	20111107.133342	20111107.134339	8	0.013328	60	10	60-180	60	107	GapExp	BigFlash	0	81	2	1	0	distractor	1	564	718	102541	13.328	13.112	13.544
ProbeTrack13	14	ProbeTrack	13.2	SCS215a	20111107.133342	20111107.134345	8	0.013328	60	10	60-180	60	69	GapExp	BigFlash	0	82	2	45	0	distractor	1	540	730	103271	13.329	13.164	13.556
ProbeTrack13	14	ProbeTrack	13.2	SCS215a	20111107.133342	20111107.134352	8	0.013328	60	10	60-180	60	163	GapExp	BigFlash	0	83	2	1	1	target	1	373	814	104085	13.328	13.114	13.543
ProbeTrack13	14	ProbeTrack	13.2	SCS215a	20111107.133342	20111107.134359	8	0.013328	60	10	60-180	60	125	GapExp	BigFlash	0	84	2	45	0	distractor	1	414	793	104878	13.328	13.103	13.551
ProbeTrack13	14	ProbeTrack	13.2	SCS215a	20111107.133342	20111107.134406	8	0.013328	60	10	60-180	60	81	GapExp	BigFlash	0	85	2	3	1	target	1	390	805	105683	13.328	13.303	13.349
ProbeTrack13	14	ProbeTrack	13.2	SCS215a	20111107.133342	20111107.134411	8	0.013328	60	10	60-180	60	97	GapExp	BigFlash	0	86	2	45	1	target	1	375	813	106496	13.328	13.112	13.551
ProbeTrack13	14	ProbeTrack	13.2	SCS215a	20111107.133342	20111107.134420	8	0.013328	60	10	60-180	60	79	GapExp	BigFlash	0	87	2	0	0	distractor	1	562	719	107215	13.328	12.923	13.733
ProbeTrack13	14	ProbeTrack	13.2	SCS215a	20111107.133342	20111107.134427	8	0.013328	60	10	60-180	60	78	GapExp	BigFlash	0	88	2	1	1	target	1	482	759	107974	13.328	13.301	13.350
ProbeTrack13	14	ProbeTrack	13.2	SCS215a	20111107.133342	20111107.134432	8	0.013328	60	10	60-180	60	75	GapExp	BigFlash	0	89	2	0	0	distractor	1	574	713	108687	13.328	13.307	13.345
ProbeTrack13	14	ProbeTrack	13.2	SCS215a	20111107.133342	20111107.134439	8	0.013328	60	10	60-180	60	81	GapExp	BigFlash	0	90	2	3	0	distractor	1	586	707	109394	13.328	12.877	13.773
ProbeTrack13	14	ProbeTrack	13.2	SCS215a	20111107.133342	20111107.134444	8	0.013328	60	10	60-180	60	143	GapExp	BigFlash	0	91	2	1	0	distractor	1	449	776	110170	13.328	13.304	13.353
ProbeTrack13	14	ProbeTrack	13.2	SCS215a	20111107.133342	20111107.134452	8	0.013328	60	10	60-180	60	112	GapExp	BigFlash	0	92	2	1	0	distractor	1	528	736	110906	13.328	12.928	13.724
ProbeTrack13	14	ProbeTrack	13.2	SCS215a	20111107.133342	20111107.134459	8	0.013328	60	10	60-180	60	150	GapExp	BigFlash	0	93	2	1	0	distractor	1	459	771	111677	13.328	12.940	13.723
ProbeTrack13	14	ProbeTrack	13.2	SCS215a	20111107.133342	20111107.134505	8	0.013328	60	10	60-180	60	136	GapExp	BigFlash	0	94	2	0	0	distractor	1	549	726	112403	13.328	12.946	13.708
ProbeTrack13	14	ProbeTrack	13.2	SCS215a	20111107.133342	20111107.134513	8	0.013328	60	10	60-180	60	120	GapExp	BigFlash	0	95	2	3	0	distractor	1	493	754	113157	13.328	13.311	13.348
ProbeTrack13	14	ProbeTrack	13.2	SCS215a	20111107.133342	20111107.134520	8	0.013328	60	10	60-180	60	75	GapExp	BigFlash	0	96	2	0	1	target	1	426	787	113944	13.328	13.310	13.350
ProbeTrack13	14	ProbeTrack	13.2	SCS215a	20111107.133342	20111107.134525	8	0.013328	60	10	60-180	60	67	GapExp	BigFlash	0	97	2	1	0	distractor	1	522	739	114683	13.326	12.849	13.814
ProbeTrack13	14	ProbeTrack	13.2	SCS215a	20111107.133342	20111107.134531	8	0.013328	60	10	60-180	60	158	GapExp	BigFlash	0	98	2	3	0	distractor	1	450	775	115458	13.328	13.098	13.546
ProbeTrack13	14	ProbeTrack	13.2	SCS215a	20111107.133342	20111107.134538	8	0.013328	60	10	60-180	60	135	GapExp	BigFlash	0	99	2	45	1	target	1	436	782	116240	13.328	12.906	13.748
ProbeTrack13	14	ProbeTrack	13.2	SCS215a	20111107.133342	20111107.134545	8	0.013328	60	10	60-180	60	65	GapExp	BigFlash	0	100	2	3	1	target	1	421	790	117030	13.328	13.310	13.344
ProbeTrack13	14	ProbeTrack	13.2	SCS215a	20111107.133342	20111107.134550	8	0.013328	60	10	60-180	60	159	GapExp	BigFlash	0	101	2	45	0	distractor	1	514	743	117773	13.328	12.869	13.798
ProbeTrack13	14	ProbeTrack	13.2	SCS215a	20111107.133342	20111107.134604	8	0.013328	60	10	60-180	60	117	GapExp	BigFlash	0	102	2	45	1	target	1	371	815	118588	13.328	12.868	13.815
ProbeTrack13	14	ProbeTrack	13.2	SCS215a	20111107.133342	20111107.134611	8	0.013328	60	10	60-180	60	96	GapExp	BigFlash	0	103	2	3	0	distractor	1	463	769	119357	13.328	12.951	13.706
ProbeTrack13	14	ProbeTrack	13.2	SCS215a	20111107.133342	20111107.134617	8	0.013328	60	10	60-180	60	176	GapExp	BigFlash	0	104	2	45	1	target	1	379	811	120168	13.328	12.897	13.766
ProbeTrack13	14	ProbeTrack	13.2	SCS215a	20111107.133342	20111107.134624	8	0.013328	60	10	60-180	60	156	GapExp	BigFlash	0	105	2	3	0	distractor	1	469	766	120934	13.375	12.882	26.645
ProbeTrack13	14	ProbeTrack	13.2	SCS215a	20111107.133342	20111107.134631	8	0.013328	60	10	60-180	60	74	GapExp	BigFlash	0	106	2	1	1	target	1	514	743	121677	13.328	13.305	13.344
ProbeTrack13	14	ProbeTrack	13.2	SCS215a	20111107.133342	20111107.134640	8	0.013328	60	10	60-180	60	153	GapExp	BigFlash	0	107	2	0	1	target	1	448	776	122453	13.328	12.971	13.681
ProbeTrack13	14	ProbeTrack	13.2	SCS215a	20111107.133342	20111107.134648	8	0.013328	60	10	60-180	60	101	GapExp	BigFlash	0	108	2	3	0	distractor	1	522	739	123192	13.328	12.904	13.761
ProbeTrack13	14	ProbeTrack	13.2	SCS215a	20111107.133342	20111107.134654	8	0.013328	60	10	60-180	60	63	GapExp	BigFlash	0	109	2	45	0	distractor	1	605	698	123890	13.328	13.308	13.346
ProbeTrack13	14	ProbeTrack	13.2	SCS215a	20111107.133342	20111107.134700	8	0.013328	60	10	60-180	60	135	GapExp	BigFlash	0	110	2	1	1	target	1	403	799	124689	13.328	12.851	13.799
ProbeTrack13	14	ProbeTrack	13.2	SCS215a	20111107.133342	20111107.134706	8	0.013328	60	10	60-180	60	171	GapExp	BigFlash	0	111	2	1	0	distractor	1	487	757	125446	13.328	12.901	13.759
ProbeTrack13	14	ProbeTrack	13.2	SCS215a	20111107.133342	20111107.134713	8	0.013328	60	10	60-180	60	97	GapExp	BigFlash	0	112	2	3	0	distractor	1	590	705	126151	13.385	13.272	26.639
ProbeTrack13	14	ProbeTrack	13.2	SCS215a	20111107.133342	20111107.134719	8	0.013328	60	10	60-180	60	108	GapExp	BigFlash	0	113	2	45	1	target	1	449	776	126927	13.328	12.902	13.762
ProbeTrack13	14	ProbeTrack	13.2	SCS215a	20111107.133342	20111107.134725	8	0.013328	60	10	60-180	60	86	GapExp	BigFlash	0	114	2	3	1	target	1	435	783	127710	13.328	13.092	13.470
ProbeTrack13	14	ProbeTrack	13.2	SCS215a	20111107.133342	20111107.134731	8	0.013328	60	10	60-180	60	92	GapExp	BigFlash	0	115	2	3	0	distractor	1	456	772	128482	13.328	13.086	13.564
ProbeTrack13	14	ProbeTrack	13.2	SCS215a	20111107.133342	20111107.134737	8	0.013328	60	10	60-180	60	88	GapExp	BigFlash	0	116	2	0	1	target	1	426	787	129269	13.328	13.090	13.559
ProbeTrack13	14	ProbeTrack	13.2	SCS215a	20111107.133342	20111107.134743	8	0.013328	60	10	60-180	60	129	GapExp	BigFlash	0	117	2	3	0	distractor	1	628	686	129955	13.328	12.871	13.786
ProbeTrack13	14	ProbeTrack	13.2	SCS215a	20111107.133342	20111107.134751	8	0.013328	60	10	60-180	60	110	GapExp	BigFlash	0	118	2	45	1	target	1	366	817	130772	13.328	12.882	13.783
ProbeTrack13	14	ProbeTrack	13.2	SCS215a	20111107.133342	20111107.134758	8	0.013328	60	10	60-180	60	93	GapExp	BigFlash	0	119	2	3	1	target	1	447	777	131549	13.328	12.855	13.786
ProbeTrack13	14	ProbeTrack	13.2	SCS215a	20111107.133342	20111107.134807	8	0.013328	60	10	60-180	60	125	GapExp	BigFlash	0	120	2	0	1	target	1	428	786	132335	13.328	13.101	13.557
ProbeTrack13	14	ProbeTrack	13.2	SCS215a	20111107.133342	20111107.134813	8	0.013328	60	10	60-180	60	139	GapExp	BigFlash	0	121	2	0	0	distractor	1	446	777	133112	13.328	12.868	13.787
ProbeTrack13	14	ProbeTrack	13.2	SCS215a	20111107.133342	20111107.134820	8	0.013328	60	10	60-180	60	131	GapExp	BigFlash	0	122	2	45	1	target	1	394	803	133915	13.328	13.032	13.635
ProbeTrack13	14	ProbeTrack	13.2	SCS215a	20111107.133342	20111107.134827	8	0.013328	60	10	60-180	60	101	GapExp	BigFlash	0	123	2	1	1	target	1	435	783	134698	13.328	13.093	13.548
ProbeTrack13	14	ProbeTrack	13.2	SCS215a	20111107.133342	20111107.134833	8	0.013328	60	10	60-180	60	71	GapExp	BigFlash	0	124	2	3	0	distractor	1	532	734	135432	13.328	13.091	13.552
ProbeTrack13	14	ProbeTrack	13.2	SCS215a	20111107.133342	20111107.134838	8	0.013328	60	10	60-180	60	86	GapExp	BigFlash	0	125	2	0	1	target	1	377	812	136244	13.328	13.308	13.351
ProbeTrack13	14	ProbeTrack	13.2	SCS215a	20111107.133342	20111107.134844	8	0.013328	60	10	60-180	60	107	GapExp	BigFlash	0	126	2	1	1	target	1	338	831	137075	13.328	12.995	13.662
ProbeTrack13	14	ProbeTrack	13.2	SCS215a	20111107.133342	20111107.134852	8	0.013328	60	10	60-180	60	103	GapExp	BigFlash	0	127	2	1	0	distractor	1	435	783	137858	13.328	12.883	13.773
ProbeTrack13	14	ProbeTrack	13.2	SCS215a	20111107.133342	20111107.134858	8	0.013328	60	10	60-180	60	142	GapExp	BigFlash	0	128	2	3	1	target	1	394	803	138661	13.328	12.853	13.796
ProbeTrack13	14	ProbeTrack	13.2	SCS215a	20111107.133342	20111107.134904	8	0.013328	60	10	60-180	60	130	GapExp	BigFlash	0	129	2	0	0	distractor	1	498	751	139412	13.328	12.846	13.794
ProbeTrack13	14	ProbeTrack	13.2	SCS215a	20111107.133342	20111107.134912	8	0.013328	60	10	60-180	60	89	GapExp	BigFlash	0	130	2	45	0	distractor	1	523	739	140151	13.328	12.935	13.722
ProbeTrack13	14	ProbeTrack	13.2	SCS215a	20111107.133342	20111107.134918	8	0.013328	60	10	60-180	60	132	GapExp	BigFlash	0	131	2	45	0	distractor	1	514	743	140894	13.328	13.208	13.461
ProbeTrack13	14	ProbeTrack	13.2	SCS215a	20111107.133342	20111107.134926	8	0.013328	60	10	60-180	60	174	GapExp	BigFlash	0	132	2	1	1	target	1	330	835	141729	13.328	13.085	13.557
ProbeTrack13	14	ProbeTrack	13.2	SCS215a	20111107.133342	20111107.134936	8	0.013328	60	10	60-180	60	166	GapExp	BigFlash	0	133	2	45	0	distractor	1	455	773	142502	13.328	13.099	13.559
ProbeTrack13	14	ProbeTrack	13.2	SCS215a	20111107.133342	20111107.134944	8	0.013328	60	10	60-180	60	145	GapExp	BigFlash	0	134	2	1	0	distractor	1	494	753	143255	13.328	13.112	13.551
ProbeTrack13	14	ProbeTrack	13.2	SCS215a	20111107.133342	20111107.134951	8	0.013328	60	10	60-180	60	138	GapExp	BigFlash	0	135	2	1	1	target	1	343	829	144084	13.328	13.087	13.568
ProbeTrack13	14	ProbeTrack	13.2	SCS215a	20111107.133342	20111107.134959	8	0.013328	60	10	60-180	60	105	GapExp	BigFlash	0	136	2	0	0	distractor	1	516	742	144826	13.328	13.307	13.347
ProbeTrack13	14	ProbeTrack	13.2	SCS215a	20111107.133342	20111107.135005	8	0.013328	60	10	60-180	60	167	GapExp	BigFlash	0	137	2	3	1	target	1	529	736	145562	13.328	12.894	13.755
ProbeTrack13	14	ProbeTrack	13.2	SCS215a	20111107.133342	20111107.135012	8	0.013328	60	10	60-180	60	163	GapExp	BigFlash	0	138	2	45	1	target	1	366	817	146379	13.328	12.949	13.565
ProbeTrack13	14	ProbeTrack	13.2	SCS215a	20111107.133342	20111107.135019	8	0.013328	60	10	60-180	60	148	GapExp	BigFlash	0	139	2	1	1	target	1	411	795	147174	13.328	13.091	13.558
ProbeTrack13	14	ProbeTrack	13.2	SCS215a	20111107.133342	20111107.135025	8	0.013328	60	10	60-180	60	171	GapExp	BigFlash	0	140	2	1	1	target	1	396	802	147976	13.328	13.107	13.562
ProbeTrack13	14	ProbeTrack	13.2	SCS215a	20111107.133342	20111107.135033	8	0.013328	60	10	60-180	60	84	GapExp	BigFlash	0	141	2	45	1	target	1	400	800	148776	13.328	12.891	13.758
ProbeTrack13	14	ProbeTrack	13.2	SCS215a	20111107.133342	20111107.135039	8	0.013328	60	10	60-180	60	157	GapExp	BigFlash	0	142	2	3	1	target	1	386	807	149583	13.328	13.307	13.348
ProbeTrack13	14	ProbeTrack	13.2	SCS215a	20111107.133342	20111107.135049	8	0.013328	60	10	60-180	60	142	GapExp	BigFlash	0	143	2	0	0	distractor	1	629	686	150269	13.328	12.872	13.771
ProbeTrack13	14	ProbeTrack	13.2	SCS215a	20111107.133342	20111107.135055	8	0.013328	60	10	60-180	60	124	GapExp	BigFlash	0	144	2	3	1	target	1	336	832	151101	13.328	13.092	13.564
ProbeTrack13	14	ProbeTrack	13.2	SCS215a	20111107.133342	20111107.135101	8	0.013328	60	10	60-180	60	143	GapExp	BigFlash	0	145	2	0	1	target	1	369	816	151917	13.328	13.303	13.346
ProbeTrack13	14	ProbeTrack	13.2	SCS215a	20111107.133342	20111107.135109	8	0.013328	60	10	60-180	60	154	GapExp	BigFlash	0	146	2	45	1	target	1	353	824	152741	13.328	12.855	13.813
ProbeTrack13	14	ProbeTrack	13.2	SCS215a	20111107.133342	20111107.135116	8	0.013328	60	10	60-180	60	87	GapExp	BigFlash	0	147	2	3	1	target	1	393	804	153545	13.328	13.047	13.614
ProbeTrack13	14	ProbeTrack	13.2	SCS215a	20111107.133342	20111107.135122	8	0.013328	60	10	60-180	60	123	GapExp	BigFlash	0	148	2	0	0	distractor	1	506	747	154292	13.328	12.905	13.745
ProbeTrack13	14	ProbeTrack	13.2	SCS215a	20111107.133342	20111107.135129	8	0.013328	60	10	60-180	60	118	GapExp	BigFlash	0	149	2	45	0	distractor	1	454	773	155065	13.328	12.927	13.721
ProbeTrack13	14	ProbeTrack	13.2	SCS215a	20111107.133342	20111107.135135	8	0.013328	60	10	60-180	60	133	GapExp	BigFlash	0	150	2	0	0	distractor	1	523	739	155804	13.328	12.923	13.725
ProbeTrack13	14	ProbeTrack	13.2	SCS215a	20111107.133342	20111107.135143	8	0.013328	60	10	60-180	60	89	GapExp	BigFlash	0	151	2	45	1	target	1	462	769	156573	13.328	13.307	13.350
ProbeTrack13	14	ProbeTrack	13.2	SCS215a	20111107.133342	20111107.135149	8	0.013328	60	10	60-180	60	162	GapExp	BigFlash	0	152	2	45	0	distractor	1	428	786	157359	13.328	12.917	13.738
ProbeTrack13	14	ProbeTrack	13.2	SCS215a	20111107.133342	20111107.135157	8	0.013328	60	10	60-180	60	178	GapExp	BigFlash	0	153	2	1	0	distractor	1	415	793	158152	13.328	13.307	13.348
ProbeTrack13	14	ProbeTrack	13.2	SCS215a	20111107.133342	20111107.135208	8	0.013328	60	10	60-180	60	161	GapExp	BigFlash	0	154	2	1	0	distractor	1	492	754	158906	13.328	12.841	13.809
ProbeTrack13	14	ProbeTrack	13.2	SCS215a	20111107.133342	20111107.135215	8	0.013328	60	10	60-180	60	97	GapExp	BigFlash	0	155	2	45	0	distractor	1	470	765	159671	13.328	12.850	13.798
ProbeTrack13	14	ProbeTrack	13.2	SCS215a	20111107.133342	20111107.135223	8	0.013328	60	10	60-180	60	97	GapExp	BigFlash	0	156	2	1	0	distractor	1	562	719	160390	13.328	13.092	13.572
ProbeTrack13	14	ProbeTrack	13.2	SCS215a	20111107.133342	20111107.135231	8	0.013328	60	10	60-180	60	136	GapExp	BigFlash	0	157	2	1	0	distractor	1	684	658	161048	13.328	13.105	13.556
ProbeTrack13	14	ProbeTrack	13.2	SCS215a	20111107.133342	20111107.135237	8	0.013328	60	10	60-180	60	170	GapExp	BigFlash	0	158	2	1	1	target	1	442	779	161827	13.328	13.089	13.549
ProbeTrack13	14	ProbeTrack	13.2	SCS215a	20111107.133342	20111107.135244	8	0.013328	60	10	60-180	60	163	GapExp	BigFlash	0	159	2	45	0	distractor	1	737	632	162459	13.328	12.954	13.708
ProbeTrack13	14	ProbeTrack	13.2	SCS215a	20111107.133342	20111107.135256	8	0.013328	60	10	60-180	60	66	GapExp	BigFlash	0	160	2	3	1	target	1	467	767	163226	13.328	13.308	13.349
ProbeTrack13	14	ProbeTrack	13.2	SCS215a	20111107.133342	20111107.135302	8	0.013328	60	10	60-180	60	118	GapExp	BigFlash	0	161	2	0	1	target	1	402	799	164025	13.328	12.976	13.667
ProbeTrack13	14	ProbeTrack	13.2	SCS215a	20111107.133342	20111107.135308	8	0.013328	60	10	60-180	60	160	GapExp	BigFlash	0	162	2	0	0	distractor	1	382	809	164834	13.328	12.852	13.805
ProbeTrack13	14	ProbeTrack	13.2	SCS215a	20111107.133342	20111107.135315	8	0.013328	60	10	60-180	60	145	GapExp	BigFlash	0	163	2	1	1	target	1	393	804	165638	13.328	13.113	13.557
ProbeTrack13	14	ProbeTrack	13.2	SCS215a	20111107.133342	20111107.135321	8	0.013328	60	10	60-180	60	154	GapExp	BigFlash	0	164	2	1	0	distractor	1	393	804	166442	13.328	12.969	13.680
ProbeTrack13	14	ProbeTrack	13.2	SCS215a	20111107.133342	20111107.135328	8	0.013328	60	10	60-180	60	75	GapExp	BigFlash	0	165	2	1	1	target	1	428	786	167228	13.328	12.878	13.771
ProbeTrack13	14	ProbeTrack	13.2	SCS215a	20111107.133342	20111107.135333	8	0.013328	60	10	60-180	60	173	GapExp	BigFlash	0	166	2	3	0	distractor	1	435	783	168011	13.328	13.091	13.560
ProbeTrack13	14	ProbeTrack	13.2	SCS215a	20111107.133342	20111107.135341	8	0.013328	60	10	60-180	60	85	GapExp	BigFlash	0	167	2	45	1	target	1	418	791	168802	13.328	13.105	13.559
ProbeTrack13	14	ProbeTrack	13.2	SCS215a	20111107.133342	20111107.135347	8	0.013328	60	10	60-180	60	131	GapExp	BigFlash	0	168	2	0	0	distractor	1	419	791	169593	13.328	13.303	13.353
ProbeTrack13	14	ProbeTrack	13.2	SCS215a	20111107.133342	20111107.135353	8	0.013328	60	10	60-180	60	171	GapExp	BigFlash	0	169	2	45	1	target	1	455	773	170366	13.328	12.999	13.665
ProbeTrack13	14	ProbeTrack	13.2	SCS215a	20111107.133342	20111107.135401	8	0.013328	60	10	60-180	60	180	GapExp	BigFlash	0	170	2	45	1	target	1	339	831	171197	13.328	12.922	13.741
ProbeTrack13	14	ProbeTrack	13.2	SCS215a	20111107.133342	20111107.135409	8	0.013328	60	10	60-180	60	103	GapExp	BigFlash	0	171	2	3	0	distractor	1	719	641	171838	13.328	12.973	13.690
ProbeTrack13	14	ProbeTrack	13.2	SCS215a	20111107.133342	20111107.135417	8	0.013328	60	10	60-180	60	72	GapExp	BigFlash	0	172	2	3	0	distractor	1	505	748	172586	13.328	13.105	13.545
ProbeTrack13	14	ProbeTrack	13.2	SCS215a	20111107.133342	20111107.135422	8	0.013328	60	10	60-180	60	149	GapExp	BigFlash	0	173	2	45	1	target	1	352	824	173410	13.328	12.860	13.789
ProbeTrack13	14	ProbeTrack	13.2	SCS215a	20111107.133342	20111107.135429	8	0.013328	60	10	60-180	60	107	GapExp	BigFlash	0	174	2	0	1	target	1	413	794	174204	13.328	12.916	13.734
ProbeTrack13	14	ProbeTrack	13.2	SCS215a	20111107.133342	20111107.135435	8	0.013328	60	10	60-180	60	145	GapExp	BigFlash	0	175	2	0	1	target	1	387	807	175011	13.328	12.955	13.714
ProbeTrack13	14	ProbeTrack	13.2	SCS215a	20111107.133342	20111107.135442	8	0.013328	60	10	60-180	60	125	GapExp	BigFlash	0	176	2	1	0	distractor	1	497	752	175763	13.328	12.991	13.652
ProbeTrack13	14	ProbeTrack	13.2	SCS215a	20111107.133342	20111107.135449	8	0.013328	60	10	60-180	60	63	GapExp	BigFlash	0	177	2	1	1	target	1	454	773	176536	13.328	12.837	13.801
ProbeTrack13	14	ProbeTrack	13.2	SCS215a	20111107.133342	20111107.135454	8	0.013328	60	10	60-180	60	143	GapExp	BigFlash	0	178	2	45	0	distractor	1	441	780	177316	13.328	12.927	13.744
ProbeTrack13	14	ProbeTrack	13.2	SCS215a	20111107.133342	20111107.135501	8	0.013328	60	10	60-180	60	80	GapExp	BigFlash	0	179	2	0	1	target	1	439	781	178097	13.328	13.307	13.346
ProbeTrack13	14	ProbeTrack	13.2	SCS215a	20111107.133342	20111107.135507	8	0.013328	60	10	60-180	60	105	GapExp	BigFlash	0	180	2	3	1	target	1	607	697	178794	13.328	13.092	13.572
ProbeTrack13	14	ProbeTrack	13.2	SCS215a	20111107.133342	20111107.135513	8	0.013328	60	10	60-180	60	166	GapExp	BigFlash	0	181	2	45	1	target	1	432	784	179578	13.328	12.913	13.736
ProbeTrack13	14	ProbeTrack	13.2	SCS215a	20111107.133342	20111107.135522	8	0.013328	60	10	60-180	60	69	GapExp	BigFlash	0	182	2	3	1	target	1	377	812	180390	13.328	13.308	13.349
ProbeTrack13	14	ProbeTrack	13.2	SCS215a	20111107.133342	20111107.135527	8	0.013328	60	10	60-180	60	81	GapExp	BigFlash	0	183	2	1	0	distractor	1	503	749	181139	13.329	13.019	13.651
ProbeTrack13	14	ProbeTrack	13.2	SCS215a	20111107.133342	20111107.135533	8	0.013328	60	10	60-180	60	65	GapExp	BigFlash	0	184	2	3	1	target	1	404	798	181937	13.328	13.310	13.344
ProbeTrack13	14	ProbeTrack	13.2	SCS215a	20111107.133342	20111107.135539	8	0.013328	60	10	60-180	60	66	GapExp	BigFlash	0	185	2	45	0	distractor	1	494	753	182690	13.328	13.305	13.346
ProbeTrack13	14	ProbeTrack	13.2	SCS215a	20111107.133342	20111107.135545	8	0.013328	60	10	60-180	60	110	GapExp	BigFlash	0	186	2	0	0	distractor	1	452	774	183464	13.328	12.869	13.780
ProbeTrack13	14	ProbeTrack	13.2	SCS215a	20111107.133342	20111107.135551	8	0.013328	60	10	60-180	60	95	GapExp	BigFlash	0	187	2	3	1	target	1	345	828	184292	13.328	12.849	13.812
ProbeTrack13	14	ProbeTrack	13.2	SCS215a	20111107.133342	20111107.135557	8	0.013328	60	10	60-180	60	61	GapExp	BigFlash	0	188	2	0	1	target	1	328	836	185128	13.328	13.296	13.356
ProbeTrack13	14	ProbeTrack	13.2	SCS215a	20111107.133342	20111107.135602	8	0.013328	60	10	60-180	60	158	GapExp	BigFlash	0	189	2	1	0	distractor	1	403	799	185927	13.328	12.911	13.757
ProbeTrack13	14	ProbeTrack	13.2	SCS215a	20111107.133342	20111107.135609	8	0.013328	60	10	60-180	60	89	GapExp	BigFlash	0	190	2	1	1	target	1	385	808	186735	13.328	13.062	13.585
ProbeTrack13	14	ProbeTrack	13.2	SCS215a	20111107.133342	20111107.135615	8	0.013328	60	10	60-180	60	174	GapExp	BigFlash	0	191	2	3	0	distractor	1	437	782	187517	13.328	12.995	13.674
ProbeTrack13	14	ProbeTrack	13.2	SCS215a	20111107.133342	20111107.135622	8	0.013328	60	10	60-180	60	133	GapExp	BigFlash	0	192	2	3	0	distractor	1	386	807	188324	13.328	13.098	13.565
ProbeTrack13	14	ProbeTrack	13.2	SCS215a	20111107.133342	20111107.135629	8	0.013328	60	10	60-180	60	169	GapExp	BigFlash	0	193	2	45	1	target	1	352	824	189148	13.328	13.112	13.548
ProbeTrack13	14	ProbeTrack	13.2	SCS215a	20111107.133342	20111107.135636	8	0.013328	60	10	60-180	60	158	GapExp	BigFlash	0	194	2	1	0	distractor	1	456	772	189920	13.328	13.104	13.538
ProbeTrack13	14	ProbeTrack	13.2	SCS215a	20111107.133342	20111107.135643	8	0.013328	60	10	60-180	60	117	GapExp	BigFlash	0	195	2	1	1	target	1	342	829	190749	13.328	12.846	13.809
ProbeTrack13	14	ProbeTrack	13.2	SCS215a	20111107.133342	20111107.135650	8	0.013328	60	10	60-180	60	155	GapExp	BigFlash	0	196	2	1	1	target	1	399	801	191550	13.328	12.976	13.687
ProbeTrack13	14	ProbeTrack	13.2	SCS215a	20111107.133342	20111107.135656	8	0.013328	60	10	60-180	60	73	GapExp	BigFlash	0	197	2	3	0	distractor	1	488	756	192306	13.328	13.102	13.544
ProbeTrack13	14	ProbeTrack	13.2	SCS215a	20111107.133342	20111107.135702	8	0.013328	60	10	60-180	60	165	GapExp	BigFlash	0	198	2	3	0	distractor	1	418	791	193097	13.328	12.947	13.717
ProbeTrack13	14	ProbeTrack	13.2	SCS215a	20111107.133342	20111107.135709	8	0.013328	60	10	60-180	60	162	GapExp	BigFlash	0	199	2	3	0	distractor	1	384	808	193905	13.328	13.099	13.563
ProbeTrack13	14	ProbeTrack	13.2	SCS215a	20111107.133342	20111107.135717	8	0.013328	60	10	60-180	60	68	GapExp	BigFlash	0	200	2	1	0	distractor	1	803	599	194504	13.328	12.869	13.786
ProbeTrack13	14	ProbeTrack	13.2	SCS215a	20111107.135750	20111107.135804	8	0.013328	60	10	60-180	60	132	GapPrac	SmallFlash	1	1	2	3	0	distractor	1	429	786	195290	13.380	12.882	13.781
ProbeTrack13	14	ProbeTrack	13.2	SCS215a	20111107.135750	20111107.135811	8	0.013328	60	10	60-180	60	95	GapPrac	SmallFlash	1	2	2	0	0	distractor	1	474	763	196053	13.328	13.038	13.624
ProbeTrack13	14	ProbeTrack	13.2	SCS215a	20111107.135750	20111107.135817	8	0.013328	60	10	60-180	60	172	GapPrac	SmallFlash	1	3	2	45	0	distractor	1	453	774	196827	13.328	13.167	13.346
ProbeTrack13	14	ProbeTrack	13.2	SCS215a	20111107.135750	20111107.135824	8	0.013328	60	10	60-180	60	83	GapPrac	SmallFlash	1	4	2	0	1	target	1	518	741	197568	13.328	12.932	13.732
ProbeTrack13	14	ProbeTrack	13.2	SCS215a	20111107.135750	20111107.135830	8	0.013328	60	10	60-180	60	140	GapPrac	SmallFlash	1	5	2	3	1	target	1	385	808	198376	13.328	13.105	13.551
ProbeTrack13	14	ProbeTrack	13.2	SCS215a	20111107.135750	20111107.135836	8	0.013328	60	10	60-180	60	142	GapPrac	SmallFlash	1	6	2	1	0	distractor	1	495	753	199129	13.328	12.873	13.782
ProbeTrack13	14	ProbeTrack	13.2	SCS215a	20111107.135750	20111107.135843	8	0.013328	60	10	60-180	60	127	GapPrac	SmallFlash	1	7	2	0	0	distractor	1	433	784	199913	13.328	13.102	13.551
ProbeTrack13	14	ProbeTrack	13.2	SCS215a	20111107.135750	20111107.135849	8	0.013328	60	10	60-180	60	93	GapPrac	SmallFlash	1	8	2	0	0	distractor	1	446	777	200690	13.328	12.952	13.551
ProbeTrack13	14	ProbeTrack	13.2	SCS215a	20111107.135750	20111107.135855	8	0.013328	60	10	60-180	60	167	GapPrac	SmallFlash	1	9	2	3	1	distractor	0	350	-1000	199690	13.328	13.287	13.374
ProbeTrack13	14	ProbeTrack	13.2	SCS215a	20111107.135750	20111107.135901	8	0.013328	60	10	60-180	60	121	GapPrac	SmallFlash	1	10	2	45	1	target	1	456	772	200462	13.328	13.000	13.669
ProbeTrack13	14	ProbeTrack	13.2	SCS215a	20111107.135750	20111107.135910	8	0.013328	60	10	60-180	60	139	GapPrac	SmallFlash	1	11	2	3	0	distractor	1	569	716	201178	13.328	13.087	13.562
ProbeTrack13	14	ProbeTrack	13.2	SCS215a	20111107.135750	20111107.135918	8	0.013328	60	10	60-180	60	153	GapPrac	SmallFlash	1	12	2	45	0	distractor	1	480	760	201938	13.328	13.111	13.409
ProbeTrack13	14	ProbeTrack	13.2	SCS215a	20111107.135750	20111107.135926	8	0.013328	60	10	60-180	60	177	GapPrac	SmallFlash	1	13	2	1	1	target	1	371	815	202753	13.328	12.940	13.709
ProbeTrack13	14	ProbeTrack	13.2	SCS215a	20111107.135750	20111107.135935	8	0.013328	60	10	60-180	60	79	GapPrac	SmallFlash	1	14	2	1	1	target	1	563	719	203472	13.328	12.904	13.738
ProbeTrack13	14	ProbeTrack	13.2	SCS215a	20111107.135750	20111107.135941	8	0.013328	60	10	60-180	60	175	GapPrac	SmallFlash	1	15	2	0	1	target	1	560	720	204192	13.328	13.305	13.347
ProbeTrack13	14	ProbeTrack	13.2	SCS215a	20111107.135750	20111107.135949	8	0.013328	60	10	60-180	60	124	GapPrac	SmallFlash	1	16	2	0	1	target	1	404	798	204990	13.328	13.048	13.606
ProbeTrack13	14	ProbeTrack	13.2	SCS215a	20111107.135750	20111107.135959	8	0.013328	60	10	60-180	60	101	GapPrac	SmallFlash	1	17	2	45	1	target	1	428	786	205776	13.328	13.104	13.551
ProbeTrack13	14	ProbeTrack	13.2	SCS215a	20111107.135750	20111107.140007	8	0.013328	60	10	60-180	60	77	GapPrac	SmallFlash	1	18	2	1	0	distractor	1	678	661	206437	13.328	13.091	13.558
ProbeTrack13	14	ProbeTrack	13.2	SCS215a	20111107.135750	20111107.140013	8	0.013328	60	10	60-180	60	85	GapPrac	SmallFlash	1	19	2	3	0	distractor	1	534	733	207170	13.328	13.097	13.572
ProbeTrack13	14	ProbeTrack	13.2	SCS215a	20111107.135750	20111107.140021	8	0.013328	60	10	60-180	60	85	GapPrac	SmallFlash	1	20	2	45	0	distractor	1	429	786	207956	13.328	13.007	13.644
ProbeTrack13	14	ProbeTrack	13.2	SCS215a	20111107.140040	20111107.140054	8	0.013328	60	10	60-180	60	173	GapExp	SmallFlash	1	1	2	45	1	target	1	411	795	208751	13.367	12.926	13.724
ProbeTrack13	14	ProbeTrack	13.2	SCS215a	20111107.140040	20111107.140103	8	0.013328	60	10	60-180	60	77	GapExp	SmallFlash	1	2	2	1	1	target	1	463	769	209520	13.328	12.847	13.802
ProbeTrack13	14	ProbeTrack	13.2	SCS215a	20111107.140040	20111107.140109	8	0.013328	60	10	60-180	60	95	GapExp	SmallFlash	1	3	2	3	1	target	1	378	811	210331	13.328	13.061	13.578
ProbeTrack13	14	ProbeTrack	13.2	SCS215a	20111107.140040	20111107.140115	8	0.013328	60	10	60-180	60	90	GapExp	SmallFlash	1	4	2	45	0	distractor	1	493	754	211085	13.432	12.879	26.877
ProbeTrack13	14	ProbeTrack	13.2	SCS215a	20111107.140040	20111107.140121	8	0.013328	60	10	60-180	60	100	GapExp	SmallFlash	1	5	2	3	0	distractor	1	568	716	211801	13.328	13.303	13.352
ProbeTrack13	14	ProbeTrack	13.2	SCS215a	20111107.140040	20111107.140127	8	0.013328	60	10	60-180	60	64	GapExp	SmallFlash	1	6	2	1	0	distractor	1	534	733	212534	13.328	13.023	13.658
ProbeTrack13	14	ProbeTrack	13.2	SCS215a	20111107.140040	20111107.140133	8	0.013328	60	10	60-180	60	114	GapExp	SmallFlash	1	7	2	0	1	target	1	394	803	213337	13.328	13.308	13.346
ProbeTrack13	14	ProbeTrack	13.2	SCS215a	20111107.140040	20111107.140139	8	0.013328	60	10	60-180	60	85	GapExp	SmallFlash	1	8	2	0	0	distractor	1	430	785	214122	13.328	13.106	13.548
ProbeTrack13	14	ProbeTrack	13.2	SCS215a	20111107.140040	20111107.140144	8	0.013328	60	10	60-180	60	107	GapExp	SmallFlash	0	9	2	1	0	distractor	1	429	786	214908	13.328	12.846	13.800
ProbeTrack13	14	ProbeTrack	13.2	SCS215a	20111107.140040	20111107.140150	8	0.013328	60	10	60-180	60	125	GapExp	SmallFlash	0	10	2	0	0	distractor	1	466	767	215675	13.328	12.894	13.762
ProbeTrack13	14	ProbeTrack	13.2	SCS215a	20111107.140040	20111107.140158	8	0.013328	60	10	60-180	60	67	GapExp	SmallFlash	0	11	2	0	0	distractor	1	727	637	216312	13.328	13.099	13.557
ProbeTrack13	14	ProbeTrack	13.2	SCS215a	20111107.140040	20111107.140204	8	0.013328	60	10	60-180	60	167	GapExp	SmallFlash	0	12	2	1	0	distractor	1	502	749	217061	13.328	12.921	13.744
ProbeTrack13	14	ProbeTrack	13.2	SCS215a	20111107.140040	20111107.140211	8	0.013328	60	10	60-180	60	155	GapExp	SmallFlash	0	13	2	0	1	target	1	397	802	217863	13.328	13.076	13.564
ProbeTrack13	14	ProbeTrack	13.2	SCS215a	20111107.140040	20111107.140217	8	0.013328	60	10	60-180	60	175	GapExp	SmallFlash	0	14	2	0	0	distractor	1	366	817	218680	13.328	13.076	13.585
ProbeTrack13	14	ProbeTrack	13.2	SCS215a	20111107.140040	20111107.140224	8	0.013328	60	10	60-180	60	110	GapExp	SmallFlash	0	15	2	45	1	target	1	466	767	219447	13.328	12.900	13.797
ProbeTrack13	14	ProbeTrack	13.2	SCS215a	20111107.140040	20111107.140230	8	0.013328	60	10	60-180	60	101	GapExp	SmallFlash	0	16	2	1	1	target	1	458	771	220218	13.326	12.884	13.369
ProbeTrack13	14	ProbeTrack	13.2	SCS215a	20111107.140040	20111107.140237	8	0.013328	60	10	60-180	60	135	GapExp	SmallFlash	0	17	2	45	0	distractor	1	431	785	221003	13.328	13.054	13.622
ProbeTrack13	14	ProbeTrack	13.2	SCS215a	20111107.140040	20111107.140245	8	0.013328	60	10	60-180	60	128	GapExp	SmallFlash	0	18	2	1	0	distractor	1	398	801	221804	13.328	12.882	13.781
ProbeTrack13	14	ProbeTrack	13.2	SCS215a	20111107.140040	20111107.140251	8	0.013328	60	10	60-180	60	83	GapExp	SmallFlash	0	19	2	0	0	distractor	1	501	750	222554	13.328	13.290	13.376
ProbeTrack13	14	ProbeTrack	13.2	SCS215a	20111107.140040	20111107.140257	8	0.013328	60	10	60-180	60	174	GapExp	SmallFlash	0	20	2	1	0	distractor	1	347	827	223381	13.328	12.858	13.811
ProbeTrack13	14	ProbeTrack	13.2	SCS215a	20111107.140040	20111107.140303	8	0.013328	60	10	60-180	60	141	GapExp	SmallFlash	0	21	2	45	1	target	1	310	845	224226	13.328	12.873	13.786
ProbeTrack13	14	ProbeTrack	13.2	SCS215a	20111107.140040	20111107.140310	8	0.013328	60	10	60-180	60	70	GapExp	SmallFlash	0	22	2	0	1	target	1	451	775	225001	13.328	13.099	13.564
ProbeTrack13	14	ProbeTrack	13.2	SCS215a	20111107.140040	20111107.140316	8	0.013328	60	10	60-180	60	106	GapExp	SmallFlash	0	23	2	3	0	distractor	1	469	766	225767	13.328	13.091	13.557
ProbeTrack13	14	ProbeTrack	13.2	SCS215a	20111107.140040	20111107.140321	8	0.013328	60	10	60-180	60	94	GapExp	SmallFlash	0	24	2	0	0	distractor	1	416	792	226559	13.328	12.907	13.747
ProbeTrack13	14	ProbeTrack	13.2	SCS215a	20111107.140040	20111107.140327	8	0.013328	60	10	60-180	60	158	GapExp	SmallFlash	0	25	2	1	0	distractor	1	391	805	227364	13.328	12.875	13.786
ProbeTrack13	14	ProbeTrack	13.2	SCS215a	20111107.140040	20111107.140333	8	0.013328	60	10	60-180	60	163	GapExp	SmallFlash	0	26	2	1	1	distractor	0	345	-1000	226364	13.328	13.302	13.342
ProbeTrack13	14	ProbeTrack	13.2	SCS215a	20111107.140040	20111107.140339	8	0.013328	60	10	60-180	60	117	GapExp	SmallFlash	0	27	2	1	0	distractor	1	495	753	227117	13.328	12.941	13.713
ProbeTrack13	14	ProbeTrack	13.2	SCS215a	20111107.140040	20111107.140351	8	0.013328	60	10	60-180	60	104	GapExp	SmallFlash	0	28	2	1	1	target	1	406	797	227914	13.328	12.860	13.801
ProbeTrack13	14	ProbeTrack	13.2	SCS215a	20111107.140040	20111107.140357	8	0.013328	60	10	60-180	60	143	GapExp	SmallFlash	0	29	2	0	0	distractor	1	517	742	228656	13.328	13.304	13.353
ProbeTrack13	14	ProbeTrack	13.2	SCS215a	20111107.140040	20111107.140404	8	0.013328	60	10	60-180	60	140	GapExp	SmallFlash	0	30	2	0	1	target	1	566	717	229373	13.328	13.098	13.545
ProbeTrack13	14	ProbeTrack	13.2	SCS215a	20111107.140040	20111107.140411	8	0.013328	60	10	60-180	60	104	GapExp	SmallFlash	0	31	2	45	0	distractor	1	519	741	230114	13.328	12.893	13.766
ProbeTrack13	14	ProbeTrack	13.2	SCS215a	20111107.140040	20111107.140421	8	0.013328	60	10	60-180	60	141	GapExp	SmallFlash	0	32	2	3	0	distractor	1	608	696	230810	13.328	12.974	13.690
ProbeTrack13	14	ProbeTrack	13.2	SCS215a	20111107.140040	20111107.140428	8	0.013328	60	10	60-180	60	114	GapExp	SmallFlash	0	33	2	1	1	target	1	396	802	231612	13.328	13.308	13.351
ProbeTrack13	14	ProbeTrack	13.2	SCS215a	20111107.140040	20111107.140433	8	0.013328	60	10	60-180	60	143	GapExp	SmallFlash	0	34	2	3	0	distractor	1	457	772	232384	13.328	13.181	13.483
ProbeTrack13	14	ProbeTrack	13.2	SCS215a	20111107.140040	20111107.140440	8	0.013328	60	10	60-180	60	90	GapExp	SmallFlash	0	35	2	0	1	target	1	491	755	233139	13.328	12.999	13.656
ProbeTrack13	14	ProbeTrack	13.2	SCS215a	20111107.140040	20111107.140445	8	0.013328	60	10	60-180	60	125	GapExp	SmallFlash	0	36	2	45	0	distractor	1	806	597	233736	13.328	12.872	13.789
ProbeTrack13	14	ProbeTrack	13.2	SCS215a	20111107.140040	20111107.140453	8	0.013328	60	10	60-180	60	98	GapExp	SmallFlash	0	37	2	1	1	target	1	482	759	234495	13.328	13.105	13.558
ProbeTrack13	14	ProbeTrack	13.2	SCS215a	20111107.140040	20111107.140459	8	0.013328	60	10	60-180	60	130	GapExp	SmallFlash	0	38	2	45	1	target	1	356	822	235317	13.328	13.020	13.615
ProbeTrack13	14	ProbeTrack	13.2	SCS215a	20111107.140040	20111107.140505	8	0.013328	60	10	60-180	60	87	GapExp	SmallFlash	0	39	2	0	0	distractor	1	503	749	236066	13.328	13.307	13.345
ProbeTrack13	14	ProbeTrack	13.2	SCS215a	20111107.140040	20111107.140511	8	0.013328	60	10	60-180	60	98	GapExp	SmallFlash	0	40	2	1	1	target	1	330	835	236901	13.328	13.310	13.347
ProbeTrack13	14	ProbeTrack	13.2	SCS215a	20111107.140040	20111107.140516	8	0.013328	60	10	60-180	60	170	GapExp	SmallFlash	0	41	2	3	1	target	1	397	802	237703	13.328	12.902	13.772
ProbeTrack13	14	ProbeTrack	13.2	SCS215a	20111107.140040	20111107.140523	8	0.013328	60	10	60-180	60	151	GapExp	SmallFlash	0	42	2	3	1	target	1	336	832	238535	13.328	13.091	13.551
ProbeTrack13	14	ProbeTrack	13.2	SCS215a	20111107.140040	20111107.140548	8	0.013328	60	10	60-180	60	84	GapExp	SmallFlash	0	43	2	45	0	distractor	1	427	787	239322	13.328	12.890	13.761
ProbeTrack13	14	ProbeTrack	13.2	SCS215a	20111107.140040	20111107.140555	8	0.013328	60	10	60-180	60	80	GapExp	SmallFlash	0	44	2	45	0	distractor	1	550	725	240047	13.328	12.879	13.787
ProbeTrack13	14	ProbeTrack	13.2	SCS215a	20111107.140040	20111107.140601	8	0.013328	60	10	60-180	60	136	GapExp	SmallFlash	0	45	2	45	1	target	1	413	794	240841	13.328	13.307	13.348
ProbeTrack13	14	ProbeTrack	13.2	SCS215a	20111107.140040	20111107.140608	8	0.013328	60	10	60-180	60	132	GapExp	SmallFlash	0	46	2	1	0	distractor	1	548	726	241567	13.328	13.123	13.538
ProbeTrack13	14	ProbeTrack	13.2	SCS215a	20111107.140040	20111107.140614	8	0.013328	60	10	60-180	60	180	GapExp	SmallFlash	0	47	2	45	1	target	1	445	778	242345	13.329	13.206	13.641
ProbeTrack13	14	ProbeTrack	13.2	SCS215a	20111107.140040	20111107.140622	8	0.013328	60	10	60-180	60	68	GapExp	SmallFlash	0	48	2	3	0	distractor	1	538	731	243076	13.328	12.871	13.780
ProbeTrack13	14	ProbeTrack	13.2	SCS215a	20111107.140040	20111107.140627	8	0.013328	60	10	60-180	60	130	GapExp	SmallFlash	0	49	2	1	1	target	1	553	724	243800	13.328	12.930	13.736
ProbeTrack13	14	ProbeTrack	13.2	SCS215a	20111107.140040	20111107.140634	8	0.013328	60	10	60-180	60	160	GapExp	SmallFlash	0	50	2	1	0	distractor	1	409	796	244596	13.328	13.304	13.348
ProbeTrack13	14	ProbeTrack	13.2	SCS215a	20111107.140040	20111107.140640	8	0.013328	60	10	60-180	60	66	GapExp	SmallFlash	0	51	2	3	1	target	1	416	792	245388	13.328	12.898	13.751
ProbeTrack13	14	ProbeTrack	13.2	SCS215a	20111107.140040	20111107.140645	8	0.013328	60	10	60-180	60	163	GapExp	SmallFlash	0	52	2	1	1	target	1	357	822	246210	13.328	13.168	13.498
ProbeTrack13	14	ProbeTrack	13.2	SCS215a	20111107.140040	20111107.140651	8	0.013328	60	10	60-180	60	173	GapExp	SmallFlash	0	53	2	3	1	target	1	361	820	247030	13.328	12.878	13.770
ProbeTrack13	14	ProbeTrack	13.2	SCS215a	20111107.140040	20111107.140700	8	0.013328	60	10	60-180	60	175	GapExp	SmallFlash	0	54	2	3	0	distractor	1	406	797	247827	13.328	12.981	13.725
ProbeTrack13	14	ProbeTrack	13.2	SCS215a	20111107.140040	20111107.140706	8	0.013328	60	10	60-180	60	107	GapExp	SmallFlash	0	55	2	1	1	target	1	445	778	248605	13.328	12.878	13.765
ProbeTrack13	14	ProbeTrack	13.2	SCS215a	20111107.140040	20111107.140712	8	0.013328	60	10	60-180	60	126	GapExp	SmallFlash	0	56	2	1	0	distractor	1	434	783	249388	13.328	12.855	13.797
ProbeTrack13	14	ProbeTrack	13.2	SCS215a	20111107.140040	20111107.140718	8	0.013328	60	10	60-180	60	126	GapExp	SmallFlash	0	57	2	1	1	target	1	348	826	250214	13.328	13.308	13.348
ProbeTrack13	14	ProbeTrack	13.2	SCS215a	20111107.140040	20111107.140724	8	0.013328	60	10	60-180	60	85	GapExp	SmallFlash	0	58	2	45	0	distractor	1	480	760	250974	13.328	12.926	13.749
ProbeTrack13	14	ProbeTrack	13.2	SCS215a	20111107.140040	20111107.140732	8	0.013328	60	10	60-180	60	178	GapExp	SmallFlash	0	59	2	3	1	target	1	371	815	251789	13.328	13.137	13.518
ProbeTrack13	14	ProbeTrack	13.2	SCS215a	20111107.140040	20111107.140739	8	0.013328	60	10	60-180	60	69	GapExp	SmallFlash	0	60	2	1	0	distractor	1	574	713	252502	13.328	13.307	13.343
ProbeTrack13	14	ProbeTrack	13.2	SCS215a	20111107.140040	20111107.140744	8	0.013328	60	10	60-180	60	125	GapExp	SmallFlash	0	61	2	0	1	target	1	428	786	253288	13.328	13.308	13.348
ProbeTrack13	14	ProbeTrack	13.2	SCS215a	20111107.140040	20111107.140750	8	0.013328	60	10	60-180	60	99	GapExp	SmallFlash	0	62	2	45	1	target	1	343	829	254117	13.328	13.099	13.556
ProbeTrack13	14	ProbeTrack	13.2	SCS215a	20111107.140040	20111107.140756	8	0.013328	60	10	60-180	60	73	GapExp	SmallFlash	0	63	2	0	1	target	1	590	705	254822	13.328	13.007	13.643
ProbeTrack13	14	ProbeTrack	13.2	SCS215a	20111107.140040	20111107.140802	8	0.013328	60	10	60-180	60	92	GapExp	SmallFlash	0	64	2	45	1	target	1	325	838	255660	13.328	12.871	13.777
ProbeTrack13	14	ProbeTrack	13.2	SCS215a	20111107.140040	20111107.140808	8	0.013328	60	10	60-180	60	77	GapExp	SmallFlash	0	65	2	0	0	distractor	1	455	773	256433	13.328	12.964	13.693
ProbeTrack13	14	ProbeTrack	13.2	SCS215a	20111107.140040	20111107.140813	8	0.013328	60	10	60-180	60	151	GapExp	SmallFlash	0	66	2	45	0	distractor	1	494	753	257186	13.328	12.922	13.733
ProbeTrack13	14	ProbeTrack	13.2	SCS215a	20111107.140040	20111107.140824	8	0.013328	60	10	60-180	60	73	GapExp	SmallFlash	0	67	2	0	1	target	1	388	806	257992	13.328	13.309	13.346
ProbeTrack13	14	ProbeTrack	13.2	SCS215a	20111107.140040	20111107.140829	8	0.013328	60	10	60-180	60	149	GapExp	SmallFlash	0	68	2	3	0	distractor	1	338	831	258823	13.328	12.969	13.685
ProbeTrack13	14	ProbeTrack	13.2	SCS215a	20111107.140040	20111107.140835	8	0.013328	60	10	60-180	60	166	GapExp	SmallFlash	0	69	2	3	0	distractor	1	711	645	259468	13.328	13.303	13.356
ProbeTrack13	14	ProbeTrack	13.2	SCS215a	20111107.140040	20111107.140843	8	0.013328	60	10	60-180	60	112	GapExp	SmallFlash	0	70	2	45	0	distractor	1	493	754	260222	13.329	13.310	13.544
ProbeTrack13	14	ProbeTrack	13.2	SCS215a	20111107.140040	20111107.140849	8	0.013328	60	10	60-180	60	122	GapExp	SmallFlash	0	71	2	0	1	target	1	384	808	261030	13.328	13.084	13.565
ProbeTrack13	14	ProbeTrack	13.2	SCS215a	20111107.140040	20111107.140858	8	0.013328	60	10	60-180	60	78	GapExp	SmallFlash	0	72	2	45	0	distractor	1	490	755	261785	13.328	13.308	13.355
ProbeTrack13	14	ProbeTrack	13.2	SCS215a	20111107.140040	20111107.140904	8	0.013328	60	10	60-180	60	116	GapExp	SmallFlash	0	73	2	3	1	target	1	325	838	262623	13.328	13.306	13.346
ProbeTrack13	14	ProbeTrack	13.2	SCS215a	20111107.140040	20111107.140909	8	0.013328	60	10	60-180	60	100	GapExp	SmallFlash	0	74	2	0	0	distractor	1	373	814	263437	13.328	13.307	13.344
ProbeTrack13	14	ProbeTrack	13.2	SCS215a	20111107.140040	20111107.140915	8	0.013328	60	10	60-180	60	76	GapExp	SmallFlash	0	75	2	3	1	target	1	333	834	264271	13.328	12.945	13.343
ProbeTrack13	14	ProbeTrack	13.2	SCS215a	20111107.140040	20111107.140921	8	0.013328	60	10	60-180	60	105	GapExp	SmallFlash	0	76	2	3	1	target	1	336	832	265103	13.328	12.892	13.762
ProbeTrack13	14	ProbeTrack	13.2	SCS215a	20111107.140040	20111107.140926	8	0.013328	60	10	60-180	60	100	GapExp	SmallFlash	0	77	2	1	0	distractor	1	351	825	265928	13.328	13.079	13.577
ProbeTrack13	14	ProbeTrack	13.2	SCS215a	20111107.140040	20111107.140932	8	0.013328	60	10	60-180	60	141	GapExp	SmallFlash	0	78	2	0	1	target	1	324	838	266766	13.328	13.285	13.378
ProbeTrack13	14	ProbeTrack	13.2	SCS215a	20111107.140040	20111107.140938	8	0.013328	60	10	60-180	60	101	GapExp	SmallFlash	0	79	2	1	1	target	1	353	824	267590	13.328	13.307	13.348
ProbeTrack13	14	ProbeTrack	13.2	SCS215a	20111107.140040	20111107.140944	8	0.013328	60	10	60-180	60	98	GapExp	SmallFlash	0	80	2	0	0	distractor	1	366	817	268407	13.328	13.308	13.351
ProbeTrack13	14	ProbeTrack	13.2	SCS215a	20111107.140040	20111107.140950	8	0.013328	60	10	60-180	60	108	GapExp	SmallFlash	0	81	2	0	0	distractor	1	420	790	269197	13.328	13.306	13.350
ProbeTrack13	14	ProbeTrack	13.2	SCS215a	20111107.140040	20111107.140956	8	0.013328	60	10	60-180	60	78	GapExp	SmallFlash	0	82	2	45	1	target	1	291	855	270052	13.328	12.857	13.798
ProbeTrack13	14	ProbeTrack	13.2	SCS215a	20111107.140040	20111107.141002	8	0.013328	60	10	60-180	60	153	GapExp	SmallFlash	0	83	2	3	0	distractor	1	346	827	270879	13.328	12.866	13.790
ProbeTrack13	14	ProbeTrack	13.2	SCS215a	20111107.140040	20111107.141008	8	0.013328	60	10	60-180	60	144	GapExp	SmallFlash	0	84	2	45	1	target	1	302	849	271728	13.328	12.938	13.724
ProbeTrack13	14	ProbeTrack	13.2	SCS215a	20111107.140040	20111107.141015	8	0.013328	60	10	60-180	60	112	GapExp	SmallFlash	0	85	2	1	1	target	1	321	840	272568	13.328	12.914	13.748
ProbeTrack13	14	ProbeTrack	13.2	SCS215a	20111107.140040	20111107.141021	8	0.013328	60	10	60-180	60	178	GapExp	SmallFlash	0	86	2	3	0	distractor	1	399	801	273369	13.328	13.112	13.557
ProbeTrack13	14	ProbeTrack	13.2	SCS215a	20111107.140040	20111107.141028	8	0.013328	60	10	60-180	60	160	GapExp	SmallFlash	0	87	2	0	1	target	1	323	839	274208	13.328	13.104	13.558
ProbeTrack13	14	ProbeTrack	13.2	SCS215a	20111107.140040	20111107.141036	8	0.013328	60	10	60-180	60	126	GapExp	SmallFlash	0	88	2	3	1	target	1	341	830	275038	13.328	12.940	13.725
ProbeTrack13	14	ProbeTrack	13.2	SCS215a	20111107.140040	20111107.141042	8	0.013328	60	10	60-180	60	108	GapExp	SmallFlash	0	89	2	3	0	distractor	1	419	791	275829	13.328	13.307	13.346
ProbeTrack13	14	ProbeTrack	13.2	SCS215a	20111107.140040	20111107.141047	8	0.013328	60	10	60-180	60	100	GapExp	SmallFlash	0	90	2	45	1	target	1	304	848	276677	13.328	13.308	13.350
ProbeTrack13	14	ProbeTrack	13.2	SCS215a	20111107.140040	20111107.141054	8	0.013328	60	10	60-180	60	86	GapExp	SmallFlash	0	91	2	3	0	distractor	1	406	797	277474	13.328	13.305	13.347
ProbeTrack13	14	ProbeTrack	13.2	SCS215a	20111107.140040	20111107.141100	8	0.013328	60	10	60-180	60	120	GapExp	SmallFlash	0	92	2	0	0	target	0	336	-1000	276474	13.328	13.160	13.351
ProbeTrack13	14	ProbeTrack	13.2	SCS215a	20111107.140040	20111107.141105	8	0.013328	60	10	60-180	60	172	GapExp	SmallFlash	0	93	2	45	0	distractor	1	460	770	277244	13.328	12.949	13.707
ProbeTrack13	14	ProbeTrack	13.2	SCS215a	20111107.140040	20111107.141123	8	0.013328	60	10	60-180	60	180	GapExp	SmallFlash	0	94	2	1	1	target	1	468	766	278010	13.328	13.029	13.628
ProbeTrack13	14	ProbeTrack	13.2	SCS215a	20111107.140040	20111107.141130	8	0.013328	60	10	60-180	60	102	GapExp	SmallFlash	0	95	2	45	1	target	1	578	711	278721	13.328	12.934	13.715
ProbeTrack13	14	ProbeTrack	13.2	SCS215a	20111107.140040	20111107.141137	8	0.013328	60	10	60-180	60	94	GapExp	SmallFlash	0	96	2	3	1	target	1	442	779	279500	13.328	12.962	13.693
ProbeTrack13	14	ProbeTrack	13.2	SCS215a	20111107.140040	20111107.141142	8	0.013328	60	10	60-180	60	98	GapExp	SmallFlash	0	97	2	45	0	distractor	1	497	752	280252	13.328	13.309	13.352
ProbeTrack13	14	ProbeTrack	13.2	SCS215a	20111107.140040	20111107.141149	8	0.013328	60	10	60-180	60	126	GapExp	SmallFlash	0	98	2	3	1	target	1	371	815	281067	13.328	12.889	13.790
ProbeTrack13	14	ProbeTrack	13.2	SCS215a	20111107.140040	20111107.141155	8	0.013328	60	10	60-180	60	156	GapExp	SmallFlash	0	99	2	1	1	target	1	352	824	281891	13.328	12.953	13.704
ProbeTrack13	14	ProbeTrack	13.2	SCS215a	20111107.140040	20111107.141201	8	0.013328	60	10	60-180	60	158	GapExp	SmallFlash	0	100	2	0	1	target	1	386	807	282698	13.328	12.955	13.695
ProbeTrack13	14	ProbeTrack	13.2	SCS215a	20111107.140040	20111107.141208	8	0.013328	60	10	60-180	60	107	GapExp	SmallFlash	0	101	2	3	1	target	1	347	827	283525	13.328	12.907	13.764
ProbeTrack13	14	ProbeTrack	13.2	SCS215a	20111107.140040	20111107.141213	8	0.013328	60	10	60-180	60	78	GapExp	SmallFlash	0	102	2	1	1	target	1	390	805	284330	13.328	13.307	13.347
ProbeTrack13	14	ProbeTrack	13.2	SCS215a	20111107.140040	20111107.141218	8	0.013328	60	10	60-180	60	158	GapExp	SmallFlash	0	103	2	45	0	distractor	1	419	791	285121	13.328	12.926	13.732
ProbeTrack13	14	ProbeTrack	13.2	SCS215a	20111107.140040	20111107.141226	8	0.013328	60	10	60-180	60	63	GapExp	SmallFlash	0	104	2	3	1	target	1	421	790	285911	13.328	13.298	13.343
ProbeTrack13	14	ProbeTrack	13.2	SCS215a	20111107.140040	20111107.141233	8	0.013328	60	10	60-180	60	169	GapExp	SmallFlash	0	105	2	3	0	distractor	1	488	756	286667	13.328	13.308	13.349
ProbeTrack13	14	ProbeTrack	13.2	SCS215a	20111107.140040	20111107.141240	8	0.013328	60	10	60-180	60	111	GapExp	SmallFlash	0	106	2	45	1	target	1	399	801	287468	13.328	12.881	13.761
ProbeTrack13	14	ProbeTrack	13.2	SCS215a	20111107.140040	20111107.141246	8	0.013328	60	10	60-180	60	72	GapExp	SmallFlash	0	107	2	3	0	distractor	1	451	775	288243	13.328	12.886	13.782
ProbeTrack13	14	ProbeTrack	13.2	SCS215a	20111107.140040	20111107.141251	8	0.013328	60	10	60-180	60	99	GapExp	SmallFlash	0	108	2	45	1	target	1	294	853	289096	13.328	13.020	13.623
ProbeTrack13	14	ProbeTrack	13.2	SCS215a	20111107.140040	20111107.141257	8	0.013328	60	10	60-180	60	138	GapExp	SmallFlash	0	109	2	0	1	target	1	298	851	289947	13.328	13.308	13.348
ProbeTrack13	14	ProbeTrack	13.2	SCS215a	20111107.140040	20111107.141304	8	0.013328	60	10	60-180	60	96	GapExp	SmallFlash	0	110	2	3	1	distractor	0	387	-1000	288947	13.328	13.104	13.538
ProbeTrack13	14	ProbeTrack	13.2	SCS215a	20111107.140040	20111107.141309	8	0.013328	60	10	60-180	60	178	GapExp	SmallFlash	0	111	2	3	0	early	-4	-1644	-1000	287947	13.328	13.303	13.353
ProbeTrack13	14	ProbeTrack	13.2	SCS215a	20111107.140040	20111107.141322	8	0.013328	60	10	60-180	60	176	GapExp	SmallFlash	0	112	2	45	1	target	1	352	824	288771	13.328	13.307	13.354
ProbeTrack13	14	ProbeTrack	13.2	SCS215a	20111107.140040	20111107.141336	8	0.013328	60	10	60-180	60	118	GapExp	SmallFlash	0	113	2	3	1	target	1	413	794	289565	13.328	13.287	13.363
ProbeTrack13	14	ProbeTrack	13.2	SCS215a	20111107.140040	20111107.141342	8	0.013328	60	10	60-180	60	124	GapExp	SmallFlash	0	114	2	0	0	distractor	1	504	748	290313	13.328	13.307	13.353
ProbeTrack13	14	ProbeTrack	13.2	SCS215a	20111107.140040	20111107.141348	8	0.013328	60	10	60-180	60	143	GapExp	SmallFlash	0	115	2	3	0	distractor	1	512	744	291057	13.328	12.930	13.716
ProbeTrack13	14	ProbeTrack	13.2	SCS215a	20111107.140040	20111107.141354	8	0.013328	60	10	60-180	60	138	GapExp	SmallFlash	0	116	2	45	0	distractor	1	526	737	291794	13.328	13.296	13.355
ProbeTrack13	14	ProbeTrack	13.2	SCS215a	20111107.140040	20111107.141402	8	0.013328	60	10	60-180	60	70	GapExp	SmallFlash	0	117	2	0	0	distractor	1	721	640	292434	13.328	13.304	13.360
ProbeTrack13	14	ProbeTrack	13.2	SCS215a	20111107.140040	20111107.141408	8	0.013328	60	10	60-180	60	145	GapExp	SmallFlash	0	118	2	1	1	target	1	434	783	293217	13.328	12.854	13.794
ProbeTrack13	14	ProbeTrack	13.2	SCS215a	20111107.140040	20111107.141414	8	0.013328	60	10	60-180	60	101	GapExp	SmallFlash	0	119	2	45	1	target	1	452	774	293991	13.328	13.023	13.633
ProbeTrack13	14	ProbeTrack	13.2	SCS215a	20111107.140040	20111107.141421	8	0.013328	60	10	60-180	60	112	GapExp	SmallFlash	0	120	2	45	1	target	1	460	770	294761	13.328	13.105	13.551
ProbeTrack13	14	ProbeTrack	13.2	SCS215a	20111107.140040	20111107.141428	8	0.013328	60	10	60-180	60	161	GapExp	SmallFlash	0	121	2	0	0	distractor	1	485	758	295519	13.328	13.104	13.557
ProbeTrack13	14	ProbeTrack	13.2	SCS215a	20111107.140040	20111107.141435	8	0.013328	60	10	60-180	60	89	GapExp	SmallFlash	0	122	2	45	1	target	1	363	819	296338	13.328	13.306	13.346
ProbeTrack13	14	ProbeTrack	13.2	SCS215a	20111107.140040	20111107.141441	8	0.013328	60	10	60-180	60	161	GapExp	SmallFlash	0	123	2	3	1	target	1	388	806	297144	13.328	12.895	13.761
ProbeTrack13	14	ProbeTrack	13.2	SCS215a	20111107.140040	20111107.141448	8	0.013328	60	10	60-180	60	148	GapExp	SmallFlash	0	124	2	1	1	target	1	373	814	297958	13.328	13.106	13.544
ProbeTrack13	14	ProbeTrack	13.2	SCS215a	20111107.140040	20111107.141454	8	0.013328	60	10	60-180	60	154	GapExp	SmallFlash	0	125	2	0	0	distractor	1	380	810	298768	13.328	13.104	13.544
ProbeTrack13	14	ProbeTrack	13.2	SCS215a	20111107.140040	20111107.141502	8	0.013328	60	10	60-180	60	165	GapExp	SmallFlash	0	126	2	3	0	distractor	1	443	779	299547	13.328	12.872	13.777
ProbeTrack13	14	ProbeTrack	13.2	SCS215a	20111107.140040	20111107.141509	8	0.013328	60	10	60-180	60	62	GapExp	SmallFlash	0	127	2	3	1	target	1	631	685	300232	13.328	13.075	13.583
ProbeTrack13	14	ProbeTrack	13.2	SCS215a	20111107.140040	20111107.141515	8	0.013328	60	10	60-180	60	115	GapExp	SmallFlash	0	128	2	45	1	target	1	336	832	301064	13.328	12.901	13.779
ProbeTrack13	14	ProbeTrack	13.2	SCS215a	20111107.140040	20111107.141521	8	0.013328	60	10	60-180	60	180	GapExp	SmallFlash	0	129	2	1	1	target	1	343	829	301893	13.328	12.890	13.770
ProbeTrack13	14	ProbeTrack	13.2	SCS215a	20111107.140040	20111107.141528	8	0.013328	60	10	60-180	60	163	GapExp	SmallFlash	0	130	2	0	0	distractor	1	434	783	302676	13.328	13.309	13.347
ProbeTrack13	14	ProbeTrack	13.2	SCS215a	20111107.140040	20111107.141535	8	0.013328	60	10	60-180	60	154	GapExp	SmallFlash	0	131	2	0	0	distractor	1	493	754	303430	13.328	13.010	13.641
ProbeTrack13	14	ProbeTrack	13.2	SCS215a	20111107.140040	20111107.141541	8	0.013328	60	10	60-180	60	168	GapExp	SmallFlash	0	132	2	0	1	target	1	474	763	304193	13.328	12.937	13.705
ProbeTrack13	14	ProbeTrack	13.2	SCS215a	20111107.140040	20111107.141548	8	0.013328	60	10	60-180	60	83	GapExp	SmallFlash	0	133	2	0	1	target	1	408	796	304989	13.328	13.309	13.345
ProbeTrack13	14	ProbeTrack	13.2	SCS215a	20111107.140040	20111107.141553	8	0.013328	60	10	60-180	60	85	GapExp	SmallFlash	0	134	2	3	0	distractor	1	593	704	305693	13.328	13.106	13.565
ProbeTrack13	14	ProbeTrack	13.2	SCS215a	20111107.140040	20111107.141559	8	0.013328	60	10	60-180	60	105	GapExp	SmallFlash	0	135	2	1	0	distractor	1	509	746	306439	13.328	13.089	13.566
ProbeTrack13	14	ProbeTrack	13.2	SCS215a	20111107.140040	20111107.141605	8	0.013328	60	10	60-180	60	168	GapExp	SmallFlash	0	136	2	1	0	distractor	1	504	748	307187	13.328	13.097	13.553
ProbeTrack13	14	ProbeTrack	13.2	SCS215a	20111107.140040	20111107.141611	8	0.013328	60	10	60-180	60	180	GapExp	SmallFlash	0	137	2	3	0	distractor	1	361	820	308007	13.328	12.948	13.713
ProbeTrack13	14	ProbeTrack	13.2	SCS215a	20111107.140040	20111107.141619	8	0.013328	60	10	60-180	60	86	GapExp	SmallFlash	0	138	2	45	0	distractor	1	482	759	308766	13.328	13.112	13.557
ProbeTrack13	14	ProbeTrack	13.2	SCS215a	20111107.140040	20111107.141626	8	0.013328	60	10	60-180	60	142	GapExp	SmallFlash	0	139	2	45	1	target	1	345	828	309594	13.328	13.106	13.550
ProbeTrack13	14	ProbeTrack	13.2	SCS215a	20111107.140040	20111107.141632	8	0.013328	60	10	60-180	60	115	GapExp	SmallFlash	0	140	2	45	1	target	1	359	821	310415	13.328	13.040	13.621
ProbeTrack13	14	ProbeTrack	13.2	SCS215a	20111107.140040	20111107.141639	8	0.013328	60	10	60-180	60	94	GapExp	SmallFlash	0	141	2	0	1	target	1	378	811	311226	13.328	13.034	13.635
ProbeTrack13	14	ProbeTrack	13.2	SCS215a	20111107.140040	20111107.141645	8	0.013328	60	10	60-180	60	109	GapExp	SmallFlash	0	142	2	3	1	target	1	347	827	312053	13.328	13.308	13.354
ProbeTrack13	14	ProbeTrack	13.2	SCS215a	20111107.140040	20111107.141651	8	0.013328	60	10	60-180	60	82	GapExp	SmallFlash	0	143	2	0	1	target	1	362	819	312872	13.328	13.304	13.355
ProbeTrack13	14	ProbeTrack	13.2	SCS215a	20111107.140040	20111107.141656	8	0.013328	60	10	60-180	60	71	GapExp	SmallFlash	0	144	2	45	0	distractor	1	439	781	313653	13.328	13.104	13.552
ProbeTrack13	14	ProbeTrack	13.2	SCS215a	20111107.140040	20111107.141702	8	0.013328	60	10	60-180	60	84	GapExp	SmallFlash	0	145	2	45	1	target	1	406	797	314450	13.328	12.963	13.723
ProbeTrack13	14	ProbeTrack	13.2	SCS215a	20111107.140040	20111107.141709	8	0.013328	60	10	60-180	60	123	GapExp	SmallFlash	0	146	2	1	1	target	1	395	803	315253	13.328	12.966	13.689
ProbeTrack13	14	ProbeTrack	13.2	SCS215a	20111107.140040	20111107.141718	8	0.013328	60	10	60-180	60	145	GapExp	SmallFlash	0	147	2	3	1	target	1	336	832	316085	13.328	12.894	13.762
ProbeTrack13	14	ProbeTrack	13.2	SCS215a	20111107.140040	20111107.141725	8	0.013328	60	10	60-180	60	110	GapExp	SmallFlash	0	148	2	45	0	distractor	1	398	801	316886	13.328	13.300	13.360
ProbeTrack13	14	ProbeTrack	13.2	SCS215a	20111107.140040	20111107.141731	8	0.013328	60	10	60-180	60	115	GapExp	SmallFlash	0	149	2	0	1	target	1	337	832	317718	13.328	13.088	13.561
ProbeTrack13	14	ProbeTrack	13.2	SCS215a	20111107.140040	20111107.141737	8	0.013328	60	10	60-180	60	84	GapExp	SmallFlash	0	150	2	0	1	target	1	499	751	318469	13.328	13.098	13.565
ProbeTrack13	14	ProbeTrack	13.2	SCS215a	20111107.140040	20111107.141742	8	0.013328	60	10	60-180	60	117	GapExp	SmallFlash	0	151	2	0	0	distractor	1	615	693	319162	13.328	13.111	13.544
ProbeTrack13	14	ProbeTrack	13.2	SCS215a	20111107.140040	20111107.141748	8	0.013328	60	10	60-180	60	137	GapExp	SmallFlash	0	152	2	45	1	target	1	315	843	320005	13.328	12.941	13.714
ProbeTrack13	14	ProbeTrack	13.2	SCS215a	20111107.140040	20111107.141756	8	0.013328	60	10	60-180	60	117	GapExp	SmallFlash	0	153	2	0	1	target	1	340	830	320835	13.328	13.294	13.356
ProbeTrack13	14	ProbeTrack	13.2	SCS215a	20111107.140040	20111107.141801	8	0.013328	60	10	60-180	60	163	GapExp	SmallFlash	0	154	2	45	0	distractor	1	380	810	321645	13.328	12.979	13.699
ProbeTrack13	14	ProbeTrack	13.2	SCS215a	20111107.140040	20111107.141809	8	0.013328	60	10	60-180	60	88	GapExp	SmallFlash	0	155	2	3	0	distractor	1	596	702	322347	13.328	12.968	13.679
ProbeTrack13	14	ProbeTrack	13.2	SCS215a	20111107.140040	20111107.141815	8	0.013328	60	10	60-180	60	150	GapExp	SmallFlash	0	156	2	3	1	target	1	365	818	323165	13.328	13.307	13.346
ProbeTrack13	14	ProbeTrack	13.2	SCS215a	20111107.140040	20111107.141822	8	0.013328	60	10	60-180	60	163	GapExp	SmallFlash	0	157	2	1	0	early	-4	-4041	-1000	322165	13.328	12.889	13.753
ProbeTrack13	14	ProbeTrack	13.2	SCS215a	20111107.140040	20111107.141829	8	0.013328	60	10	60-180	60	104	GapExp	SmallFlash	0	158	2	3	1	target	1	371	815	322980	13.328	13.098	13.538
ProbeTrack13	14	ProbeTrack	13.2	SCS215a	20111107.140040	20111107.141837	8	0.013328	60	10	60-180	60	113	GapExp	SmallFlash	0	159	2	1	0	target	0	524	-1000	321980	13.328	12.957	13.701
ProbeTrack13	14	ProbeTrack	13.2	SCS215a	20111107.140040	20111107.141843	8	0.013328	60	10	60-180	60	126	GapExp	SmallFlash	0	160	2	0	1	target	1	406	797	322777	13.328	12.910	13.743
ProbeTrack13	14	ProbeTrack	13.2	SCS215a	20111107.140040	20111107.141855	8	0.013328	60	10	60-180	60	174	GapExp	SmallFlash	0	161	2	0	1	target	1	334	833	323610	13.328	13.015	13.626
ProbeTrack13	14	ProbeTrack	13.2	SCS215a	20111107.140040	20111107.141903	8	0.013328	60	10	60-180	60	172	GapExp	SmallFlash	0	162	2	45	0	distractor	1	452	774	324384	13.328	12.844	13.804
ProbeTrack13	14	ProbeTrack	13.2	SCS215a	20111107.140040	20111107.141910	8	0.013328	60	10	60-180	60	163	GapExp	SmallFlash	0	163	2	1	0	distractor	1	478	761	325145	13.328	12.990	13.674
ProbeTrack13	14	ProbeTrack	13.2	SCS215a	20111107.140040	20111107.141916	8	0.013328	60	10	60-180	60	76	GapExp	SmallFlash	0	164	2	45	1	target	1	415	793	325938	13.328	12.960	13.696
ProbeTrack13	14	ProbeTrack	13.2	SCS215a	20111107.140040	20111107.141922	8	0.013328	60	10	60-180	60	79	GapExp	SmallFlash	0	165	2	3	1	target	1	416	792	326730	13.328	13.099	13.545
ProbeTrack13	14	ProbeTrack	13.2	SCS215a	20111107.140040	20111107.141927	8	0.013328	60	10	60-180	60	148	GapExp	SmallFlash	0	166	2	1	1	target	1	307	847	327577	13.328	13.109	13.553
ProbeTrack13	14	ProbeTrack	13.2	SCS215a	20111107.140040	20111107.141934	8	0.013328	60	10	60-180	60	95	GapExp	SmallFlash	0	167	2	1	0	distractor	1	602	699	328276	13.328	12.995	13.652
ProbeTrack13	14	ProbeTrack	13.2	SCS215a	20111107.140040	20111107.141940	8	0.013328	60	10	60-180	60	180	GapExp	SmallFlash	0	168	2	45	0	distractor	1	450	775	329051	13.328	12.871	13.791
ProbeTrack13	14	ProbeTrack	13.2	SCS215a	20111107.140040	20111107.141947	8	0.013328	60	10	60-180	60	117	GapExp	SmallFlash	0	169	2	45	1	target	1	435	783	329834	13.328	12.857	13.800
ProbeTrack13	14	ProbeTrack	13.2	SCS215a	20111107.140040	20111107.141954	8	0.013328	60	10	60-180	60	146	GapExp	SmallFlash	0	170	2	3	0	distractor	1	522	739	330573	13.328	12.918	13.744
ProbeTrack13	14	ProbeTrack	13.2	SCS215a	20111107.140040	20111107.142000	8	0.013328	60	10	60-180	60	75	GapExp	SmallFlash	0	171	2	0	0	distractor	1	523	739	331312	13.328	12.991	13.667
ProbeTrack13	14	ProbeTrack	13.2	SCS215a	20111107.140040	20111107.142006	8	0.013328	60	10	60-180	60	78	GapExp	SmallFlash	0	172	2	0	0	distractor	1	521	740	332052	13.328	13.309	13.348
ProbeTrack13	14	ProbeTrack	13.2	SCS215a	20111107.140040	20111107.142012	8	0.013328	60	10	60-180	60	130	GapExp	SmallFlash	0	173	2	0	0	distractor	1	478	761	332813	13.328	13.307	13.347
ProbeTrack13	14	ProbeTrack	13.2	SCS215a	20111107.140040	20111107.142019	8	0.013328	60	10	60-180	60	153	GapExp	SmallFlash	0	174	2	45	0	distractor	1	426	787	333600	13.328	13.092	13.559
ProbeTrack13	14	ProbeTrack	13.2	SCS215a	20111107.140040	20111107.142026	8	0.013328	60	10	60-180	60	171	GapExp	SmallFlash	0	175	2	3	0	distractor	1	491	755	334355	13.328	13.090	13.558
ProbeTrack13	14	ProbeTrack	13.2	SCS215a	20111107.140040	20111107.142032	8	0.013328	60	10	60-180	60	168	GapExp	SmallFlash	0	176	2	3	0	distractor	1	463	769	335124	13.328	12.940	13.715
ProbeTrack13	14	ProbeTrack	13.2	SCS215a	20111107.140040	20111107.142039	8	0.013328	60	10	60-180	60	133	GapExp	SmallFlash	0	177	2	0	0	distractor	1	457	772	335896	13.328	12.854	13.803
ProbeTrack13	14	ProbeTrack	13.2	SCS215a	20111107.140040	20111107.142045	8	0.013328	60	10	60-180	60	173	GapExp	SmallFlash	0	178	2	1	0	distractor	1	420	790	336686	13.328	13.306	13.350
ProbeTrack13	14	ProbeTrack	13.2	SCS215a	20111107.140040	20111107.142053	8	0.013328	60	10	60-180	60	67	GapExp	SmallFlash	0	179	2	1	0	distractor	1	565	718	337404	13.328	13.112	13.537
ProbeTrack13	14	ProbeTrack	13.2	SCS215a	20111107.140040	20111107.142058	8	0.013328	60	10	60-180	60	165	GapExp	SmallFlash	0	180	2	1	0	distractor	1	439	781	338185	13.328	12.860	13.796
ProbeTrack13	14	ProbeTrack	13.2	SCS215a	20111107.140040	20111107.142104	8	0.013328	60	10	60-180	60	163	GapExp	SmallFlash	0	181	2	1	0	distractor	1	494	753	338938	13.328	13.204	13.434
ProbeTrack13	14	ProbeTrack	13.2	SCS215a	20111107.140040	20111107.142111	8	0.013328	60	10	60-180	60	170	GapExp	SmallFlash	0	182	2	45	0	distractor	1	545	728	339666	13.328	12.885	13.771
ProbeTrack13	14	ProbeTrack	13.2	SCS215a	20111107.140040	20111107.142118	8	0.013328	60	10	60-180	60	94	GapExp	SmallFlash	0	183	2	1	0	distractor	1	444	778	340444	13.328	12.954	13.703
ProbeTrack13	14	ProbeTrack	13.2	SCS215a	20111107.140040	20111107.142124	8	0.013328	60	10	60-180	60	119	GapExp	SmallFlash	0	184	2	3	0	distractor	1	611	695	341139	13.328	13.295	13.353
ProbeTrack13	14	ProbeTrack	13.2	SCS215a	20111107.140040	20111107.142130	8	0.013328	60	10	60-180	60	118	GapExp	SmallFlash	0	185	2	0	1	target	1	515	743	341882	13.328	13.302	13.346
ProbeTrack13	14	ProbeTrack	13.2	SCS215a	20111107.140040	20111107.142137	8	0.013328	60	10	60-180	60	171	GapExp	SmallFlash	0	186	2	0	1	target	1	357	822	342704	13.328	12.921	13.729
ProbeTrack13	14	ProbeTrack	13.2	SCS215a	20111107.140040	20111107.142144	8	0.013328	60	10	60-180	60	69	GapExp	SmallFlash	0	187	2	1	1	target	1	469	766	343470	13.328	13.266	13.408
ProbeTrack13	14	ProbeTrack	13.2	SCS215a	20111107.140040	20111107.142150	8	0.013328	60	10	60-180	60	147	GapExp	SmallFlash	0	188	2	0	1	target	1	350	825	344295	13.328	13.312	13.349
ProbeTrack13	14	ProbeTrack	13.2	SCS215a	20111107.140040	20111107.142156	8	0.013328	60	10	60-180	60	71	GapExp	SmallFlash	0	189	2	0	0	distractor	1	641	680	344975	13.328	12.998	13.648
ProbeTrack13	14	ProbeTrack	13.2	SCS215a	20111107.140040	20111107.142201	8	0.013328	60	10	60-180	60	175	GapExp	SmallFlash	0	190	2	3	1	target	1	357	822	345797	13.328	12.864	13.784
ProbeTrack13	14	ProbeTrack	13.2	SCS215a	20111107.140040	20111107.142208	8	0.013328	60	10	60-180	60	105	GapExp	SmallFlash	0	191	2	1	1	target	1	429	786	346583	13.328	13.282	13.368
ProbeTrack13	14	ProbeTrack	13.2	SCS215a	20111107.140040	20111107.142214	8	0.013328	60	10	60-180	60	61	GapExp	SmallFlash	0	192	2	3	0	distractor	1	659	671	347254	13.328	13.300	13.356
ProbeTrack13	14	ProbeTrack	13.2	SCS215a	20111107.140040	20111107.142219	8	0.013328	60	10	60-180	60	155	GapExp	SmallFlash	0	193	2	3	1	target	1	327	837	348091	13.328	12.873	13.784
ProbeTrack13	14	ProbeTrack	13.2	SCS215a	20111107.140040	20111107.142225	8	0.013328	60	10	60-180	60	77	GapExp	SmallFlash	0	194	2	1	0	distractor	1	460	770	348861	13.328	13.312	13.348
ProbeTrack13	14	ProbeTrack	13.2	SCS215a	20111107.140040	20111107.142231	8	0.013328	60	10	60-180	60	85	GapExp	SmallFlash	0	195	2	45	0	distractor	1	561	720	349581	13.328	13.105	13.564
ProbeTrack13	14	ProbeTrack	13.2	SCS215a	20111107.140040	20111107.142237	8	0.013328	60	10	60-180	60	128	GapExp	SmallFlash	0	196	2	45	0	distractor	1	533	734	350315	13.328	13.087	13.562
ProbeTrack13	14	ProbeTrack	13.2	SCS215a	20111107.140040	20111107.142244	8	0.013328	60	10	60-180	60	172	GapExp	SmallFlash	0	197	2	1	1	target	1	478	761	351076	13.328	12.985	13.658
ProbeTrack13	14	ProbeTrack	13.2	SCS215a	20111107.140040	20111107.142251	8	0.013328	60	10	60-180	60	111	GapExp	SmallFlash	0	198	2	1	1	target	1	519	741	351817	13.328	13.104	13.552
ProbeTrack13	14	ProbeTrack	13.2	SCS215a	20111107.140040	20111107.142256	8	0.013328	60	10	60-180	60	180	GapExp	SmallFlash	0	199	2	45	0	distractor	1	424	788	352605	13.328	13.308	13.348
ProbeTrack13	14	ProbeTrack	13.2	SCS215a	20111107.140040	20111107.142304	8	0.013328	60	10	60-180	60	160	GapExp	SmallFlash	0	200	2	1	0	distractor	1	478	761	353366	13.328	13.099	13.537
ProbeTrack13	14	ProbeTrack	13.2	SCS215a	20111107.142404	20111107.142435	8	0.013327	60	10	60-180	60	150	GapPrac	Blank	1	1	2	1	0	distractor	1	661	670	354036	13.374	11.201	15.444
ProbeTrack13	14	ProbeTrack	13.2	SCS215a	20111107.142404	20111107.142443	8	0.013327	60	10	60-180	60	150	GapPrac	Blank	1	2	2	45	1	target	1	409	796	354832	13.328	3.545	23.107
ProbeTrack13	14	ProbeTrack	13.2	SCS215a	20111107.142404	20111107.142452	8	0.013327	60	10	60-180	60	173	GapPrac	Blank	1	3	2	0	0	distractor	1	513	744	355576	13.328	13.105	13.544
ProbeTrack13	14	ProbeTrack	13.2	SCS215a	20111107.142404	20111107.142459	8	0.013327	60	10	60-180	60	97	GapPrac	Blank	1	4	2	0	1	target	1	324	838	356414	13.328	13.098	13.551
ProbeTrack13	14	ProbeTrack	13.2	SCS215a	20111107.142404	20111107.142504	8	0.013327	60	10	60-180	60	80	GapPrac	Blank	1	5	2	0	1	target	1	276	862	357276	13.328	13.089	13.567
ProbeTrack13	14	ProbeTrack	13.2	SCS215a	20111107.142404	20111107.142510	8	0.013327	60	10	60-180	60	94	GapPrac	Blank	1	6	2	45	0	distractor	1	514	743	358019	13.328	11.562	15.095
ProbeTrack13	14	ProbeTrack	13.2	SCS215a	20111107.142404	20111107.142517	8	0.013327	60	10	60-180	60	116	GapPrac	Blank	1	7	2	3	1	target	1	401	800	358819	13.328	11.412	15.238
ProbeTrack13	14	ProbeTrack	13.2	SCS215a	20111107.142404	20111107.142523	8	0.013327	60	10	60-180	60	83	GapPrac	Blank	1	8	2	1	1	target	1	359	821	359640	13.328	13.291	13.352
ProbeTrack13	14	ProbeTrack	13.2	SCS215a	20111107.142404	20111107.142528	8	0.013327	60	10	60-180	60	109	GapPrac	Blank	1	9	2	0	0	distractor	1	633	684	360324	13.328	10.906	15.743
ProbeTrack13	14	ProbeTrack	13.2	SCS215a	20111107.142404	20111107.142534	8	0.013327	60	10	60-180	60	165	GapPrac	Blank	1	10	2	1	0	distractor	1	626	687	361011	13.328	13.307	13.347
ProbeTrack13	14	ProbeTrack	13.2	SCS215a	20111107.142404	20111107.142541	8	0.013327	60	10	60-180	60	96	GapPrac	Blank	1	11	2	0	0	distractor	1	714	643	361654	13.328	8.848	17.796
ProbeTrack13	14	ProbeTrack	13.2	SCS215a	20111107.142404	20111107.142548	8	0.013327	60	10	60-180	60	179	GapPrac	Blank	1	12	2	1	1	target	1	356	822	362476	13.328	9.440	17.231
ProbeTrack13	14	ProbeTrack	13.2	SCS215a	20111107.142404	20111107.142554	8	0.013327	60	10	60-180	60	143	GapPrac	Blank	1	13	2	3	1	target	1	375	813	363289	13.328	13.084	13.551
ProbeTrack13	14	ProbeTrack	13.2	SCS215a	20111107.142404	20111107.142600	8	0.013327	60	10	60-180	60	128	GapPrac	Blank	1	14	2	45	0	distractor	1	489	756	364045	13.328	13.096	13.557
ProbeTrack13	14	ProbeTrack	13.2	SCS215a	20111107.142404	20111107.142607	8	0.013327	60	10	60-180	60	136	GapPrac	Blank	1	15	2	3	0	distractor	1	533	734	364779	13.328	10.746	15.916
ProbeTrack13	14	ProbeTrack	13.2	SCS215a	20111107.142404	20111107.142613	8	0.013327	60	10	60-180	60	94	GapPrac	Blank	1	16	2	45	1	target	1	638	681	365460	13.328	5.376	21.284
ProbeTrack13	14	ProbeTrack	13.2	SCS215a	20111107.142404	20111107.142620	8	0.013327	60	10	60-180	60	169	GapPrac	Blank	1	17	2	0	1	target	1	468	766	366226	13.328	5.096	21.561
ProbeTrack13	14	ProbeTrack	13.2	SCS215a	20111107.142404	20111107.142627	8	0.013327	60	10	60-180	60	111	GapPrac	Blank	1	18	2	3	0	distractor	1	430	785	367011	13.328	13.294	13.350
ProbeTrack13	14	ProbeTrack	13.2	SCS215a	20111107.142404	20111107.142633	8	0.013327	60	10	60-180	60	121	GapPrac	Blank	1	19	2	45	1	target	1	346	827	367838	13.328	8.151	18.511
ProbeTrack13	14	ProbeTrack	13.2	SCS215a	20111107.142404	20111107.142639	8	0.013327	60	10	60-180	60	118	GapPrac	Blank	1	20	2	1	0	distractor	1	580	710	368548	13.328	13.032	13.618
ProbeTrack13	14	ProbeTrack	13.2	SCS215a	20111107.142732	20111107.142748	8	0.013328	60	10	60-180	60	88	GapExp	Blank	1	1	2	45	0	distractor	1	453	774	369322	13.380	11.928	14.729
ProbeTrack13	14	ProbeTrack	13.2	SCS215a	20111107.142732	20111107.142759	8	0.013328	60	10	60-180	60	115	GapExp	Blank	1	2	2	1	0	distractor	1	522	739	370061	13.328	6.916	19.728
ProbeTrack13	14	ProbeTrack	13.2	SCS215a	20111107.142732	20111107.142806	8	0.013328	60	10	60-180	60	68	GapExp	Blank	1	3	2	1	1	target	1	361	820	370881	13.328	9.326	17.315
ProbeTrack13	14	ProbeTrack	13.2	SCS215a	20111107.142732	20111107.142812	8	0.013328	60	10	60-180	60	153	GapExp	Blank	1	4	2	3	1	target	1	355	823	371704	13.328	13.103	13.545
ProbeTrack13	14	ProbeTrack	13.2	SCS215a	20111107.142732	20111107.142819	8	0.013328	60	10	60-180	60	81	GapExp	Blank	1	5	2	3	0	distractor	1	443	779	372483	13.328	13.121	13.559
ProbeTrack13	14	ProbeTrack	13.2	SCS215a	20111107.142732	20111107.142824	8	0.013328	60	10	60-180	60	161	GapExp	Blank	1	6	2	0	0	distractor	1	394	803	373286	13.328	10.751	15.911
ProbeTrack13	14	ProbeTrack	13.2	SCS215a	20111107.142732	20111107.142832	8	0.013328	60	10	60-180	60	96	GapExp	Blank	1	7	2	0	1	target	1	390	805	374091	13.328	13.302	13.352
ProbeTrack13	14	ProbeTrack	13.2	SCS215a	20111107.142732	20111107.142838	8	0.013328	60	10	60-180	60	61	GapExp	Blank	1	8	2	45	1	target	1	370	815	374906	13.328	13.301	13.351
ProbeTrack13	14	ProbeTrack	13.2	SCS215a	20111107.142732	20111107.142844	8	0.013328	60	10	60-180	60	61	GapExp	Blank	0	9	2	45	0	distractor	1	471	765	375671	13.328	10.577	16.071
ProbeTrack13	14	ProbeTrack	13.2	SCS215a	20111107.142732	20111107.142850	8	0.013328	60	10	60-180	60	173	GapExp	Blank	0	10	2	1	1	target	1	616	692	376363	13.328	12.953	13.729
ProbeTrack13	14	ProbeTrack	13.2	SCS215a	20111107.142732	20111107.142856	8	0.013328	60	10	60-180	60	94	GapExp	Blank	0	11	2	0	0	distractor	1	643	679	377042	13.328	13.100	13.544
ProbeTrack13	14	ProbeTrack	13.2	SCS215a	20111107.142732	20111107.142903	8	0.013328	60	10	60-180	60	171	GapExp	Blank	0	12	2	3	1	target	1	399	801	377843	13.328	11.978	14.663
ProbeTrack13	14	ProbeTrack	13.2	SCS215a	20111107.142732	20111107.142909	8	0.013328	60	10	60-180	60	176	GapExp	Blank	0	13	2	1	1	target	1	405	798	378641	13.328	10.167	16.481
ProbeTrack13	14	ProbeTrack	13.2	SCS215a	20111107.142732	20111107.142917	8	0.013328	60	10	60-180	60	137	GapExp	Blank	0	14	2	0	0	distractor	1	568	716	379357	13.328	13.098	13.570
ProbeTrack13	14	ProbeTrack	13.2	SCS215a	20111107.142732	20111107.142923	8	0.013328	60	10	60-180	60	105	GapExp	Blank	0	15	2	45	1	target	1	457	772	380129	13.328	13.098	13.547
ProbeTrack13	14	ProbeTrack	13.2	SCS215a	20111107.142732	20111107.142931	8	0.013328	60	10	60-180	60	144	GapExp	Blank	0	16	2	3	0	distractor	1	489	756	380885	13.328	12.624	14.031
ProbeTrack13	14	ProbeTrack	13.2	SCS215a	20111107.142732	20111107.142937	8	0.013328	60	10	60-180	60	178	GapExp	Blank	0	17	2	3	0	distractor	1	766	617	381502	13.369	13.297	21.959
ProbeTrack13	14	ProbeTrack	13.2	SCS215a	20111107.142732	20111107.142945	8	0.013328	60	10	60-180	60	79	GapExp	Blank	0	18	2	45	0	distractor	1	599	701	382203	13.328	13.112	13.557
ProbeTrack13	14	ProbeTrack	13.2	SCS215a	20111107.142732	20111107.142951	8	0.013328	60	10	60-180	60	167	GapExp	Blank	0	19	2	0	0	distractor	1	506	747	382950	13.328	13.108	13.556
ProbeTrack13	14	ProbeTrack	13.2	SCS215a	20111107.142732	20111107.142957	8	0.013328	60	10	60-180	60	84	GapExp	Blank	0	20	2	3	0	distractor	1	566	717	383667	13.328	10.751	15.905
ProbeTrack13	14	ProbeTrack	13.2	SCS215a	20111107.142732	20111107.143003	8	0.013328	60	10	60-180	60	81	GapExp	Blank	0	21	2	0	1	target	1	511	745	384412	13.328	4.879	21.773
ProbeTrack13	14	ProbeTrack	13.2	SCS215a	20111107.142732	20111107.143009	8	0.013328	60	10	60-180	60	83	GapExp	Blank	0	22	2	45	1	target	1	600	700	385112	13.328	7.822	18.838
ProbeTrack13	14	ProbeTrack	13.2	SCS215a	20111107.142732	20111107.143015	8	0.013328	60	10	60-180	60	154	GapExp	Blank	0	23	2	0	0	distractor	1	718	641	385753	13.328	13.303	13.355
ProbeTrack13	14	ProbeTrack	13.2	SCS215a	20111107.142732	20111107.143022	8	0.013328	60	10	60-180	60	95	GapExp	Blank	0	24	2	45	0	distractor	1	804	598	386351	13.328	13.219	13.427
ProbeTrack13	14	ProbeTrack	13.2	SCS215a	20111107.142732	20111107.143028	8	0.013328	60	10	60-180	60	69	GapExp	Blank	0	25	2	45	1	target	1	391	805	387156	13.328	12.641	14.020
ProbeTrack13	14	ProbeTrack	13.2	SCS215a	20111107.142732	20111107.143034	8	0.013328	60	10	60-180	60	99	GapExp	Blank	0	26	2	45	0	distractor	1	521	740	387896	13.328	10.060	16.615
ProbeTrack13	14	ProbeTrack	13.2	SCS215a	20111107.142732	20111107.143041	8	0.013328	60	10	60-180	60	92	GapExp	Blank	0	27	2	1	0	distractor	1	504	748	388644	13.328	13.088	13.554
ProbeTrack13	14	ProbeTrack	13.2	SCS215a	20111107.142732	20111107.143047	8	0.013328	60	10	60-180	60	134	GapExp	Blank	0	28	2	45	1	target	1	573	714	389358	13.328	13.305	13.350
ProbeTrack13	14	ProbeTrack	13.2	SCS215a	20111107.142732	20111107.143054	8	0.013328	60	10	60-180	60	78	GapExp	Blank	0	29	2	3	1	target	1	554	723	390081	13.328	13.092	13.565
ProbeTrack13	14	ProbeTrack	13.2	SCS215a	20111107.142732	20111107.143100	8	0.013328	60	10	60-180	60	92	GapExp	Blank	0	30	2	45	1	target	1	382	809	390890	13.328	6.947	19.707
ProbeTrack13	14	ProbeTrack	13.2	SCS215a	20111107.142732	20111107.143106	8	0.013328	60	10	60-180	60	97	GapExp	Blank	0	31	2	1	1	target	1	328	836	391726	13.328	13.306	13.347
ProbeTrack13	14	ProbeTrack	13.2	SCS215a	20111107.142732	20111107.143112	8	0.013328	60	10	60-180	60	94	GapExp	Blank	0	32	2	45	0	distractor	1	529	736	392462	13.328	13.303	13.359
ProbeTrack13	14	ProbeTrack	13.2	SCS215a	20111107.142732	20111107.143119	8	0.013328	60	10	60-180	60	68	GapExp	Blank	0	33	2	1	0	distractor	1	584	708	393170	13.328	13.139	13.512
ProbeTrack13	14	ProbeTrack	13.2	SCS215a	20111107.142732	20111107.143124	8	0.013328	60	10	60-180	60	149	GapExp	Blank	0	34	2	1	1	target	1	351	825	393995	13.328	7.020	19.645
ProbeTrack13	14	ProbeTrack	13.2	SCS215a	20111107.142732	20111107.143130	8	0.013328	60	10	60-180	60	131	GapExp	Blank	0	35	2	3	1	target	1	396	802	394797	13.328	13.105	13.558
ProbeTrack13	14	ProbeTrack	13.2	SCS215a	20111107.142732	20111107.143136	8	0.013328	60	10	60-180	60	86	GapExp	Blank	0	36	2	3	0	distractor	1	934	533	395330	13.328	13.094	13.564
ProbeTrack13	14	ProbeTrack	13.2	SCS215a	20111107.142732	20111107.143144	8	0.013328	60	10	60-180	60	87	GapExp	Blank	0	37	2	0	0	distractor	1	612	694	396024	13.328	13.103	13.552
ProbeTrack13	14	ProbeTrack	13.2	SCS215a	20111107.142732	20111107.143149	8	0.013328	60	10	60-180	60	138	GapExp	Blank	0	38	2	0	0	distractor	1	583	709	396733	13.328	5.045	21.609
ProbeTrack13	14	ProbeTrack	13.2	SCS215a	20111107.142732	20111107.143155	8	0.013328	60	10	60-180	60	101	GapExp	Blank	0	39	2	0	1	target	1	438	781	397514	13.388	9.220	30.759
ProbeTrack13	14	ProbeTrack	13.2	SCS215a	20111107.142732	20111107.143201	8	0.013328	60	10	60-180	60	78	GapExp	Blank	0	40	2	45	1	target	1	457	772	398286	13.328	13.307	13.355
ProbeTrack13	14	ProbeTrack	13.2	SCS215a	20111107.142732	20111107.143207	8	0.013328	60	10	60-180	60	122	GapExp	Blank	0	41	2	3	1	target	1	710	645	398931	13.328	13.284	13.365
ProbeTrack13	14	ProbeTrack	13.2	SCS215a	20111107.142732	20111107.143215	8	0.013328	60	10	60-180	60	142	GapExp	Blank	0	42	2	3	0	distractor	1	597	702	399633	13.328	13.302	13.355
ProbeTrack13	14	ProbeTrack	13.2	SCS215a	20111107.142732	20111107.143222	8	0.013328	60	10	60-180	60	167	GapExp	Blank	0	43	2	0	1	target	1	402	799	400432	13.328	8.307	18.361
ProbeTrack13	14	ProbeTrack	13.2	SCS215a	20111107.142732	20111107.143232	8	0.013328	60	10	60-180	60	101	GapExp	Blank	0	44	2	45	1	target	1	453	774	401206	13.328	10.944	15.712
ProbeTrack13	14	ProbeTrack	13.2	SCS215a	20111107.142732	20111107.143239	8	0.013328	60	10	60-180	60	86	GapExp	Blank	0	45	2	0	1	target	1	508	746	401952	13.328	9.441	17.233
ProbeTrack13	14	ProbeTrack	13.2	SCS215a	20111107.142732	20111107.143245	8	0.013328	60	10	60-180	60	116	GapExp	Blank	0	46	2	1	1	target	1	370	815	402767	13.328	13.103	13.546
ProbeTrack13	14	ProbeTrack	13.2	SCS215a	20111107.142732	20111107.143252	8	0.013328	60	10	60-180	60	99	GapExp	Blank	0	47	2	0	1	target	1	526	737	403504	13.328	8.468	18.190
ProbeTrack13	14	ProbeTrack	13.2	SCS215a	20111107.142732	20111107.143257	8	0.013328	60	10	60-180	60	159	GapExp	Blank	0	48	2	45	0	distractor	1	591	705	404209	13.328	13.305	13.368
ProbeTrack13	14	ProbeTrack	13.2	SCS215a	20111107.142732	20111107.143304	8	0.013328	60	10	60-180	60	113	GapExp	Blank	0	49	2	45	0	distractor	1	519	741	404950	13.328	9.960	16.710
ProbeTrack13	14	ProbeTrack	13.2	SCS215a	20111107.142732	20111107.143311	8	0.013328	60	10	60-180	60	149	GapExp	Blank	0	50	2	1	0	distractor	1	583	709	405659	13.328	6.503	20.167
ProbeTrack13	14	ProbeTrack	13.2	SCS215a	20111107.142732	20111107.143317	8	0.013328	60	10	60-180	60	65	GapExp	Blank	0	51	2	1	1	target	1	501	750	406409	13.328	13.110	13.552
ProbeTrack13	14	ProbeTrack	13.2	SCS215a	20111107.142732	20111107.143327	8	0.013328	60	10	60-180	60	69	GapExp	Blank	0	52	2	45	0	distractor	1	472	764	407173	13.328	8.401	18.243
ProbeTrack13	14	ProbeTrack	13.2	SCS215a	20111107.142732	20111107.143333	8	0.013328	60	10	60-180	60	169	GapExp	Blank	0	53	2	1	0	distractor	1	521	740	407913	13.328	13.296	13.354
ProbeTrack13	14	ProbeTrack	13.2	SCS215a	20111107.142732	20111107.143340	8	0.013328	60	10	60-180	60	140	GapExp	Blank	0	54	2	1	1	target	1	422	789	408702	13.328	13.309	13.352
ProbeTrack13	14	ProbeTrack	13.2	SCS215a	20111107.142732	20111107.143346	8	0.013328	60	10	60-180	60	126	GapExp	Blank	0	55	2	45	1	target	1	466	767	409469	13.328	13.307	13.347
ProbeTrack13	14	ProbeTrack	13.2	SCS215a	20111107.142732	20111107.143352	8	0.013328	60	10	60-180	60	161	GapExp	Blank	0	56	2	45	0	distractor	1	468	766	410235	13.328	12.675	13.969
ProbeTrack13	14	ProbeTrack	13.2	SCS215a	20111107.142732	20111107.143400	8	0.013328	60	10	60-180	60	81	GapExp	Blank	0	57	2	45	1	target	1	429	786	411021	13.328	9.582	17.075
ProbeTrack13	14	ProbeTrack	13.2	SCS215a	20111107.142732	20111107.143406	8	0.013328	60	10	60-180	60	150	GapExp	Blank	0	58	2	3	1	target	1	420	790	411811	13.328	12.086	14.577
ProbeTrack13	14	ProbeTrack	13.2	SCS215a	20111107.142732	20111107.143412	8	0.013328	60	10	60-180	60	166	GapExp	Blank	0	59	2	0	0	target	0	731	-1000	410811	13.328	13.302	13.347
ProbeTrack13	14	ProbeTrack	13.2	SCS215a	20111107.142732	20111107.143419	8	0.013328	60	10	60-180	60	67	GapExp	Blank	0	60	2	1	0	target	0	759	-1000	409811	13.328	8.359	18.292
ProbeTrack13	14	ProbeTrack	13.2	SCS215a	20111107.142732	20111107.143427	8	0.013328	60	10	60-180	60	164	GapExp	Blank	0	61	2	45	1	target	1	553	724	410535	13.328	13.304	13.348
ProbeTrack13	14	ProbeTrack	13.2	SCS215a	20111107.142732	20111107.143435	8	0.013328	60	10	60-180	60	143	GapExp	Blank	0	62	2	1	1	distractor	0	551	-1000	409535	13.328	13.309	13.345
ProbeTrack13	14	ProbeTrack	13.2	SCS215a	20111107.142732	20111107.143441	8	0.013328	60	10	60-180	60	80	GapExp	Blank	0	63	2	1	0	distractor	1	667	667	410202	13.328	13.307	13.347
ProbeTrack13	14	ProbeTrack	13.2	SCS215a	20111107.142732	20111107.143450	8	0.013328	60	10	60-180	60	158	GapExp	Blank	0	64	2	1	1	target	1	359	821	411023	13.328	11.155	15.490
