exp	sub	code	rev	comp	runtime	trialtime	nstim	refreshdur	cuedur	gapdur	gapOnsetRange	durPostProbe	gapOnsetTime	blocktype	gaptype	prac	trial	ntargets	soa	probeTarget	resp	acc	rt	pts	tpts	meanFrameDur	minFrameDur	maxFrameDur
ProbeTrack13	3	ProbeTrack	13.2	SCS215a	20111031.133010	20111031.133046	8	0.013328	60	0	60-180	60	143	NoGap	None	1	1	2	45	0	distractor	1	1727	137	137	13.369	13.216	13.449
ProbeTrack13	3	ProbeTrack	13.2	SCS215a	20111031.133010	20111031.133058	8	0.013328	60	0	60-180	60	155	NoGap	None	1	2	2	0	0	early	-4	-1432	-1000	-863	13.328	12.879	13.765
ProbeTrack13	3	ProbeTrack	13.2	SCS215a	20111031.133010	20111031.133108	8	0.013328	60	0	60-180	60	159	NoGap	None	1	3	2	0	1	target	1	681	660	-203	13.468	12.863	40.214
ProbeTrack13	3	ProbeTrack	13.2	SCS215a	20111031.133010	20111031.133115	8	0.013328	60	0	60-180	60	108	NoGap	None	1	4	2	45	0	distractor	1	642	679	476	13.328	13.156	13.513
ProbeTrack13	3	ProbeTrack	13.2	SCS215a	20111031.133010	20111031.133122	8	0.013328	60	0	60-180	60	157	NoGap	None	1	5	2	45	0	distractor	1	723	639	1115	13.328	13.105	13.549
ProbeTrack13	3	ProbeTrack	13.2	SCS215a	20111031.133010	20111031.133133	8	0.013328	60	0	60-180	60	134	NoGap	None	1	6	2	45	1	target	1	470	765	1880	13.328	13.101	13.577
ProbeTrack13	3	ProbeTrack	13.2	SCS215a	20111031.133010	20111031.133140	8	0.013328	60	0	60-180	60	162	NoGap	None	1	7	2	1	1	target	1	506	747	2627	13.328	13.109	13.552
ProbeTrack13	3	ProbeTrack	13.2	SCS215a	20111031.133010	20111031.133147	8	0.013328	60	0	60-180	60	95	NoGap	None	1	8	2	0	0	distractor	1	730	635	3262	13.328	13.206	13.422
ProbeTrack13	3	ProbeTrack	13.2	SCS215a	20111031.133010	20111031.133153	8	0.013328	60	0	60-180	60	131	NoGap	None	1	9	2	0	1	target	1	470	765	4027	13.328	13.103	13.560
ProbeTrack13	3	ProbeTrack	13.2	SCS215a	20111031.133010	20111031.133159	8	0.013328	60	0	60-180	60	159	NoGap	None	1	10	2	3	1	target	1	561	720	4747	13.471	13.014	26.938
ProbeTrack13	3	ProbeTrack	13.2	SCS215a	20111031.133010	20111031.133207	8	0.013328	60	0	60-180	60	80	NoGap	None	1	11	2	45	1	target	1	489	756	5503	13.328	13.221	13.434
ProbeTrack13	3	ProbeTrack	13.2	SCS215a	20111031.133010	20111031.133213	8	0.013328	60	0	60-180	60	85	NoGap	None	1	12	2	3	0	distractor	1	674	663	6166	13.328	13.117	13.548
ProbeTrack13	3	ProbeTrack	13.2	SCS215a	20111031.133010	20111031.133219	8	0.013328	60	0	60-180	60	91	NoGap	None	1	13	2	0	1	target	1	737	632	6798	13.328	13.121	13.549
ProbeTrack13	3	ProbeTrack	13.2	SCS215a	20111031.133010	20111031.133224	8	0.013328	60	0	60-180	60	92	NoGap	None	1	14	2	3	0	distractor	1	402	799	7597	13.328	13.263	13.393
ProbeTrack13	3	ProbeTrack	13.2	SCS215a	20111031.133010	20111031.133230	8	0.013328	60	0	60-180	60	172	NoGap	None	1	15	2	0	0	target	0	808	-1000	6597	13.328	13.097	13.563
ProbeTrack13	3	ProbeTrack	13.2	SCS215a	20111031.133010	20111031.133237	8	0.013328	60	0	60-180	60	165	NoGap	None	1	16	2	3	1	target	1	433	784	7381	13.328	13.086	13.564
ProbeTrack13	3	ProbeTrack	13.2	SCS215a	20111031.133010	20111031.133244	8	0.013328	60	0	60-180	60	63	NoGap	None	1	17	2	1	0	distractor	1	546	727	8108	13.328	13.097	13.558
ProbeTrack13	3	ProbeTrack	13.2	SCS215a	20111031.133010	20111031.133250	8	0.013328	60	0	60-180	60	100	NoGap	None	1	18	2	3	0	distractor	1	547	727	8835	13.328	13.103	13.554
ProbeTrack13	3	ProbeTrack	13.2	SCS215a	20111031.133010	20111031.133256	8	0.013328	60	0	60-180	60	173	NoGap	None	1	19	2	1	1	target	1	973	514	9349	13.328	13.115	13.543
ProbeTrack13	3	ProbeTrack	13.2	SCS215a	20111031.133010	20111031.133303	8	0.013328	60	0	60-180	60	78	NoGap	None	1	20	2	45	1	distractor	0	407	-1000	8349	13.328	13.176	13.482
ProbeTrack13	3	ProbeTrack	13.2	SCS215a	20111031.133010	20111031.133310	8	0.013328	60	0	60-180	60	110	NoGap	None	1	21	2	1	1	target	1	501	750	9099	13.328	13.201	13.454
ProbeTrack13	3	ProbeTrack	13.2	SCS215a	20111031.133010	20111031.133315	8	0.013328	60	0	60-180	60	105	NoGap	None	1	22	2	45	0	distractor	1	701	650	9749	13.328	13.208	13.447
ProbeTrack13	3	ProbeTrack	13.2	SCS215a	20111031.133010	20111031.133322	8	0.013328	60	0	60-180	60	81	NoGap	None	1	23	2	1	0	distractor	1	547	727	10476	13.328	13.208	13.451
ProbeTrack13	3	ProbeTrack	13.2	SCS215a	20111031.133010	20111031.133328	8	0.013328	60	0	60-180	60	141	NoGap	None	1	24	2	1	1	target	1	693	654	11130	13.328	13.079	13.585
ProbeTrack13	3	ProbeTrack	13.2	SCS215a	20111031.133010	20111031.133334	8	0.013328	60	0	60-180	60	79	NoGap	None	1	25	2	1	0	distractor	1	593	704	11834	13.328	13.114	13.544
ProbeTrack13	3	ProbeTrack	13.2	SCS215a	20111031.133010	20111031.133340	8	0.013328	60	0	60-180	60	131	NoGap	None	1	26	2	3	1	target	1	400	800	12634	13.328	13.100	13.557
ProbeTrack13	3	ProbeTrack	13.2	SCS215a	20111031.133010	20111031.133347	8	0.013328	60	0	60-180	60	156	NoGap	None	1	27	2	45	1	target	1	386	807	13441	13.328	13.093	13.563
ProbeTrack13	3	ProbeTrack	13.2	SCS215a	20111031.133010	20111031.133354	8	0.013328	60	0	60-180	60	126	NoGap	None	1	28	2	1	0	distractor	1	556	722	14163	13.328	13.106	13.560
ProbeTrack13	3	ProbeTrack	13.2	SCS215a	20111031.133010	20111031.133400	8	0.013328	60	0	60-180	60	75	NoGap	None	1	29	2	0	0	distractor	1	650	675	14838	13.328	13.180	13.479
ProbeTrack13	3	ProbeTrack	13.2	SCS215a	20111031.133010	20111031.133406	8	0.013328	60	0	60-180	60	149	NoGap	None	1	30	2	0	0	distractor	1	535	733	15571	13.328	13.291	13.357
ProbeTrack13	3	ProbeTrack	13.2	SCS215a	20111031.133010	20111031.133413	8	0.013328	60	0	60-180	60	134	NoGap	None	1	31	2	0	1	target	1	896	552	16123	13.328	13.265	13.393
ProbeTrack13	3	ProbeTrack	13.2	SCS215a	20111031.133010	20111031.133420	8	0.013328	60	0	60-180	60	117	NoGap	None	1	32	2	3	1	target	1	493	754	16877	13.328	13.193	13.460
ProbeTrack13	3	ProbeTrack	13.2	SCS215a	20111031.133010	20111031.133426	8	0.013328	60	0	60-180	60	135	NoGap	None	1	33	2	0	1	target	1	485	758	17635	13.328	13.117	13.563
ProbeTrack13	3	ProbeTrack	13.2	SCS215a	20111031.133010	20111031.133432	8	0.013328	60	0	60-180	60	113	NoGap	None	1	34	2	45	1	target	1	343	829	18464	13.328	13.089	13.564
ProbeTrack13	3	ProbeTrack	13.2	SCS215a	20111031.133010	20111031.133439	8	0.013328	60	0	60-180	60	111	NoGap	None	1	35	2	3	0	distractor	1	734	633	19097	13.328	13.098	13.558
ProbeTrack13	3	ProbeTrack	13.2	SCS215a	20111031.133010	20111031.133446	8	0.013328	60	0	60-180	60	66	NoGap	None	1	36	2	1	1	target	1	394	803	19900	13.328	13.093	13.563
ProbeTrack13	3	ProbeTrack	13.2	SCS215a	20111031.133010	20111031.133451	8	0.013328	60	0	60-180	60	168	NoGap	None	1	37	2	45	0	distractor	1	420	790	20690	13.328	13.110	13.549
ProbeTrack13	3	ProbeTrack	13.2	SCS215a	20111031.133010	20111031.133458	8	0.013328	60	0	60-180	60	118	NoGap	None	1	38	2	1	0	distractor	1	1110	445	21135	13.328	13.114	13.547
ProbeTrack13	3	ProbeTrack	13.2	SCS215a	20111031.133010	20111031.133505	8	0.013328	60	0	60-180	60	138	NoGap	None	1	39	2	3	0	distractor	1	631	685	21820	13.328	13.112	13.549
ProbeTrack13	3	ProbeTrack	13.2	SCS215a	20111031.133010	20111031.133511	8	0.013328	60	0	60-180	60	119	NoGap	None	1	40	2	3	1	target	1	414	793	22613	13.328	13.102	13.553
ProbeTrack13	3	ProbeTrack	13.2	SCS215a	20111031.133632	20111031.133640	8	0.013328	60	10	60-180	60	127	GapPrac	SmallFlash	1	1	2	1	1	target	1	755	623	23236	13.377	13.003	13.647
ProbeTrack13	3	ProbeTrack	13.2	SCS215a	20111031.133632	20111031.133649	8	0.013328	60	10	60-180	60	129	GapPrac	SmallFlash	1	2	2	3	1	target	1	736	632	23868	13.328	13.306	13.343
ProbeTrack13	3	ProbeTrack	13.2	SCS215a	20111031.133632	20111031.133656	8	0.013328	60	10	60-180	60	144	GapPrac	SmallFlash	1	3	2	0	1	target	1	392	804	24672	13.328	12.861	13.790
ProbeTrack13	3	ProbeTrack	13.2	SCS215a	20111031.133632	20111031.133703	8	0.013328	60	10	60-180	60	123	GapPrac	SmallFlash	1	4	2	1	0	distractor	1	390	805	25477	13.328	13.097	13.552
ProbeTrack13	3	ProbeTrack	13.2	SCS215a	20111031.133632	20111031.133709	8	0.013328	60	10	60-180	60	143	GapPrac	SmallFlash	1	5	2	1	0	distractor	1	558	721	26198	13.328	13.308	13.355
ProbeTrack13	3	ProbeTrack	13.2	SCS215a	20111031.133632	20111031.133715	8	0.013328	60	10	60-180	60	153	GapPrac	SmallFlash	1	6	2	45	0	distractor	1	558	721	26919	13.328	13.049	13.619
ProbeTrack13	3	ProbeTrack	13.2	SCS215a	20111031.133632	20111031.133723	8	0.013328	60	10	60-180	60	160	GapPrac	SmallFlash	1	7	2	1	1	target	1	302	849	27768	13.328	12.947	13.700
ProbeTrack13	3	ProbeTrack	13.2	SCS215a	20111031.133632	20111031.133729	8	0.013328	60	10	60-180	60	142	GapPrac	SmallFlash	1	8	2	3	0	distractor	1	620	690	28458	13.328	13.307	13.346
ProbeTrack13	3	ProbeTrack	13.2	SCS215a	20111031.133632	20111031.133736	8	0.013328	60	10	60-180	60	146	GapPrac	SmallFlash	1	9	2	3	1	target	1	696	652	29110	13.328	12.881	13.786
ProbeTrack13	3	ProbeTrack	13.2	SCS215a	20111031.133632	20111031.133743	8	0.013328	60	10	60-180	60	80	GapPrac	SmallFlash	1	10	2	0	0	distractor	1	551	725	29835	13.328	13.304	13.347
ProbeTrack13	3	ProbeTrack	13.2	SCS215a	20111031.133632	20111031.133749	8	0.013328	60	10	60-180	60	178	GapPrac	SmallFlash	1	11	2	1	1	target	1	391	805	30640	13.328	13.304	13.351
ProbeTrack13	3	ProbeTrack	13.2	SCS215a	20111031.133632	20111031.133756	8	0.013328	60	10	60-180	60	96	GapPrac	SmallFlash	1	12	2	3	1	distractor	0	607	-1000	29640	13.328	12.849	13.801
ProbeTrack13	3	ProbeTrack	13.2	SCS215a	20111031.133632	20111031.133803	8	0.013328	60	10	60-180	60	173	GapPrac	SmallFlash	1	13	2	0	0	distractor	1	520	740	30380	13.328	12.847	13.802
ProbeTrack13	3	ProbeTrack	13.2	SCS215a	20111031.133632	20111031.133810	8	0.013328	60	10	60-180	60	73	GapPrac	SmallFlash	1	14	2	0	1	target	1	879	561	30941	13.328	13.092	13.553
ProbeTrack13	3	ProbeTrack	13.2	SCS215a	20111031.133632	20111031.133815	8	0.013328	60	10	60-180	60	155	GapPrac	SmallFlash	1	15	2	45	0	distractor	1	586	707	31648	13.327	13.096	13.383
ProbeTrack13	3	ProbeTrack	13.2	SCS215a	20111031.133632	20111031.133823	8	0.013328	60	10	60-180	60	62	GapPrac	SmallFlash	1	16	2	0	1	target	1	678	661	32309	13.328	12.859	13.796
ProbeTrack13	3	ProbeTrack	13.2	SCS215a	20111031.133632	20111031.133829	8	0.013328	60	10	60-180	60	123	GapPrac	SmallFlash	1	17	2	1	0	distractor	1	513	744	33053	13.328	13.115	13.556
ProbeTrack13	3	ProbeTrack	13.2	SCS215a	20111031.133632	20111031.133835	8	0.013328	60	10	60-180	60	110	GapPrac	SmallFlash	1	18	2	45	1	target	1	321	840	33893	13.328	12.872	13.790
ProbeTrack13	3	ProbeTrack	13.2	SCS215a	20111031.133632	20111031.133841	8	0.013328	60	10	60-180	60	166	GapPrac	SmallFlash	1	19	2	3	0	distractor	1	686	657	34550	13.328	13.098	13.559
ProbeTrack13	3	ProbeTrack	13.2	SCS215a	20111031.133632	20111031.133848	8	0.013328	60	10	60-180	60	101	GapPrac	SmallFlash	1	20	2	45	1	target	1	592	704	35254	13.328	12.918	13.610
ProbeTrack13	3	ProbeTrack	13.2	SCS215a	20111031.134014	20111031.134031	8	0.013328	60	10	60-180	60	153	GapExp	SmallFlash	1	1	2	1	1	target	1	335	833	36087	13.378	13.099	13.552
ProbeTrack13	3	ProbeTrack	13.2	SCS215a	20111031.134014	20111031.134041	8	0.013328	60	10	60-180	60	126	GapExp	SmallFlash	1	2	2	1	0	distractor	1	622	689	36776	13.328	13.101	13.565
ProbeTrack13	3	ProbeTrack	13.2	SCS215a	20111031.134014	20111031.134047	8	0.013328	60	10	60-180	60	131	GapExp	SmallFlash	1	3	2	3	1	target	1	352	824	37600	13.328	13.305	13.351
ProbeTrack13	3	ProbeTrack	13.2	SCS215a	20111031.134014	20111031.134054	8	0.013328	60	10	60-180	60	106	GapExp	SmallFlash	1	4	2	3	0	distractor	1	606	697	38297	13.328	13.054	13.750
ProbeTrack13	3	ProbeTrack	13.2	SCS215a	20111031.134014	20111031.134100	8	0.013328	60	10	60-180	60	69	GapExp	SmallFlash	1	5	2	0	1	target	1	458	771	39068	13.328	13.303	13.345
ProbeTrack13	3	ProbeTrack	13.2	SCS215a	20111031.134014	20111031.134105	8	0.013328	60	10	60-180	60	136	GapExp	SmallFlash	1	6	2	45	1	target	1	371	815	39883	13.328	13.057	13.596
ProbeTrack13	3	ProbeTrack	13.2	SCS215a	20111031.134014	20111031.134113	8	0.013328	60	10	60-180	60	175	GapExp	SmallFlash	1	7	2	45	0	distractor	1	526	737	40620	13.328	13.184	13.552
ProbeTrack13	3	ProbeTrack	13.2	SCS215a	20111031.134014	20111031.134120	8	0.013328	60	10	60-180	60	154	GapExp	SmallFlash	1	8	2	0	0	distractor	1	583	709	41329	13.328	12.887	13.775
ProbeTrack13	3	ProbeTrack	13.2	SCS215a	20111031.134014	20111031.134127	8	0.013328	60	10	60-180	60	112	GapExp	SmallFlash	0	9	2	3	0	distractor	1	586	707	42036	13.328	13.307	13.344
ProbeTrack13	3	ProbeTrack	13.2	SCS215a	20111031.134014	20111031.134133	8	0.013328	60	10	60-180	60	102	GapExp	SmallFlash	0	10	2	0	0	distractor	1	769	616	42652	13.328	12.977	13.673
ProbeTrack13	3	ProbeTrack	13.2	SCS215a	20111031.134014	20111031.134139	8	0.013328	60	10	60-180	60	126	GapExp	SmallFlash	0	11	2	0	0	distractor	1	503	749	43401	13.328	13.295	13.353
ProbeTrack13	3	ProbeTrack	13.2	SCS215a	20111031.134014	20111031.134146	8	0.013328	60	10	60-180	60	166	GapExp	SmallFlash	0	12	2	1	0	distractor	1	495	753	44154	13.328	13.304	13.344
ProbeTrack13	3	ProbeTrack	13.2	SCS215a	20111031.134014	20111031.134153	8	0.013328	60	10	60-180	60	109	GapExp	SmallFlash	0	13	2	45	0	distractor	1	542	729	44883	13.328	12.886	13.755
ProbeTrack13	3	ProbeTrack	13.2	SCS215a	20111031.134014	20111031.134159	8	0.013328	60	10	60-180	60	67	GapExp	SmallFlash	0	14	2	1	1	target	1	602	699	45582	13.328	12.876	13.775
ProbeTrack13	3	ProbeTrack	13.2	SCS215a	20111031.134014	20111031.134205	8	0.013328	60	10	60-180	60	125	GapExp	SmallFlash	0	15	2	3	1	target	1	403	799	46381	13.328	13.093	13.558
ProbeTrack13	3	ProbeTrack	13.2	SCS215a	20111031.134014	20111031.134211	8	0.013328	60	10	60-180	60	118	GapExp	SmallFlash	0	16	2	1	0	distractor	1	520	740	47121	13.328	13.112	13.551
ProbeTrack13	3	ProbeTrack	13.2	SCS215a	20111031.134014	20111031.134217	8	0.013328	60	10	60-180	60	84	GapExp	SmallFlash	0	17	2	1	1	target	1	418	791	47912	13.328	13.308	13.346
ProbeTrack13	3	ProbeTrack	13.2	SCS215a	20111031.134014	20111031.134223	8	0.013328	60	10	60-180	60	108	GapExp	SmallFlash	0	18	2	0	0	distractor	1	530	735	48647	13.328	13.030	13.618
ProbeTrack13	3	ProbeTrack	13.2	SCS215a	20111031.134014	20111031.134229	8	0.013328	60	10	60-180	60	94	GapExp	SmallFlash	0	19	2	45	0	distractor	1	553	724	49371	13.328	13.301	13.346
ProbeTrack13	3	ProbeTrack	13.2	SCS215a	20111031.134014	20111031.134236	8	0.013328	60	10	60-180	60	80	GapExp	SmallFlash	0	20	2	1	1	target	1	502	749	50120	13.328	13.309	13.348
ProbeTrack13	3	ProbeTrack	13.2	SCS215a	20111031.134014	20111031.134241	8	0.013328	60	10	60-180	60	133	GapExp	SmallFlash	0	21	2	0	1	target	1	659	671	50791	13.328	12.931	13.763
ProbeTrack13	3	ProbeTrack	13.2	SCS215a	20111031.134014	20111031.134248	8	0.013328	60	10	60-180	60	97	GapExp	SmallFlash	0	22	2	45	0	distractor	1	579	711	51502	13.328	13.010	13.655
ProbeTrack13	3	ProbeTrack	13.2	SCS215a	20111031.134014	20111031.134255	8	0.013328	60	10	60-180	60	129	GapExp	SmallFlash	0	23	2	1	1	target	1	588	706	52208	13.328	13.110	13.548
ProbeTrack13	3	ProbeTrack	13.2	SCS215a	20111031.134014	20111031.134301	8	0.013328	60	10	60-180	60	122	GapExp	SmallFlash	0	24	2	45	1	target	1	323	839	53047	13.328	12.964	13.696
ProbeTrack13	3	ProbeTrack	13.2	SCS215a	20111031.134014	20111031.134308	8	0.013328	60	10	60-180	60	68	GapExp	SmallFlash	0	25	2	45	1	target	1	313	844	53891	13.328	13.109	13.540
ProbeTrack13	3	ProbeTrack	13.2	SCS215a	20111031.134014	20111031.134314	8	0.013328	60	10	60-180	60	147	GapExp	SmallFlash	0	26	2	0	0	distractor	1	562	719	54610	13.328	12.876	13.767
ProbeTrack13	3	ProbeTrack	13.2	SCS215a	20111031.134014	20111031.134321	8	0.013328	60	10	60-180	60	109	GapExp	SmallFlash	0	27	2	3	0	distractor	1	608	696	55306	13.328	12.884	13.786
ProbeTrack13	3	ProbeTrack	13.2	SCS215a	20111031.134014	20111031.134327	8	0.013328	60	10	60-180	60	122	GapExp	SmallFlash	0	28	2	0	0	distractor	1	509	746	56052	13.328	13.149	13.493
ProbeTrack13	3	ProbeTrack	13.2	SCS215a	20111031.134014	20111031.134333	8	0.013328	60	10	60-180	60	159	GapExp	SmallFlash	0	29	2	3	1	target	1	497	752	56804	13.328	13.309	13.345
ProbeTrack13	3	ProbeTrack	13.2	SCS215a	20111031.134014	20111031.134340	8	0.013328	60	10	60-180	60	96	GapExp	SmallFlash	0	30	2	45	1	target	1	326	837	57641	13.328	12.888	13.798
ProbeTrack13	3	ProbeTrack	13.2	SCS215a	20111031.134014	20111031.134346	8	0.013328	60	10	60-180	60	95	GapExp	SmallFlash	0	31	2	3	1	target	1	337	832	58473	13.328	13.244	13.420
ProbeTrack13	3	ProbeTrack	13.2	SCS215a	20111031.134014	20111031.134352	8	0.013328	60	10	60-180	60	158	GapExp	SmallFlash	0	32	2	3	1	target	1	305	848	59321	13.328	12.983	13.685
ProbeTrack13	3	ProbeTrack	13.2	SCS215a	20111031.134014	20111031.134359	8	0.013328	60	10	60-180	60	132	GapExp	SmallFlash	0	33	2	3	0	distractor	1	642	679	60000	13.328	13.093	13.566
ProbeTrack13	3	ProbeTrack	13.2	SCS215a	20111031.134014	20111031.134405	8	0.013328	60	10	60-180	60	178	GapExp	SmallFlash	0	34	2	3	1	target	1	427	787	60787	13.328	13.040	13.617
ProbeTrack13	3	ProbeTrack	13.2	SCS215a	20111031.134014	20111031.134412	8	0.013328	60	10	60-180	60	145	GapExp	SmallFlash	0	35	2	0	0	distractor	1	499	751	61538	13.328	13.102	13.542
ProbeTrack13	3	ProbeTrack	13.2	SCS215a	20111031.134014	20111031.134418	8	0.013328	60	10	60-180	60	138	GapExp	SmallFlash	0	36	2	45	0	distractor	1	691	655	62193	13.328	13.094	13.564
ProbeTrack13	3	ProbeTrack	13.2	SCS215a	20111031.134014	20111031.134426	8	0.013328	60	10	60-180	60	149	GapExp	SmallFlash	0	37	2	0	0	distractor	1	565	718	62911	13.328	12.873	13.794
ProbeTrack13	3	ProbeTrack	13.2	SCS215a	20111031.134014	20111031.134433	8	0.013328	60	10	60-180	60	142	GapExp	SmallFlash	0	38	2	45	1	target	1	309	846	63757	13.328	13.099	13.555
ProbeTrack13	3	ProbeTrack	13.2	SCS215a	20111031.134014	20111031.134440	8	0.013328	60	10	60-180	60	170	GapExp	SmallFlash	0	39	2	3	0	distractor	1	587	707	64464	13.328	12.903	13.754
ProbeTrack13	3	ProbeTrack	13.2	SCS215a	20111031.134014	20111031.134447	8	0.013328	60	10	60-180	60	180	GapExp	SmallFlash	0	40	2	0	0	distractor	1	374	813	65277	13.328	13.082	13.562
ProbeTrack13	3	ProbeTrack	13.2	SCS215a	20111031.134014	20111031.134453	8	0.013328	60	10	60-180	60	123	GapExp	SmallFlash	0	41	2	3	1	target	1	446	777	66054	13.328	13.120	13.552
ProbeTrack13	3	ProbeTrack	13.2	SCS215a	20111031.134014	20111031.134500	8	0.013328	60	10	60-180	60	77	GapExp	SmallFlash	0	42	2	45	0	distractor	1	560	720	66774	13.328	13.092	13.557
ProbeTrack13	3	ProbeTrack	13.2	SCS215a	20111031.134014	20111031.134506	8	0.013328	60	10	60-180	60	145	GapExp	SmallFlash	0	43	2	0	1	target	1	335	833	67607	13.328	13.095	13.562
ProbeTrack13	3	ProbeTrack	13.2	SCS215a	20111031.134014	20111031.134513	8	0.013328	60	10	60-180	60	64	GapExp	SmallFlash	0	44	2	0	1	target	1	581	710	68317	13.328	13.299	13.345
ProbeTrack13	3	ProbeTrack	13.2	SCS215a	20111031.134014	20111031.134518	8	0.013328	60	10	60-180	60	170	GapExp	SmallFlash	0	45	2	1	1	target	1	493	754	69071	13.328	12.862	13.798
ProbeTrack13	3	ProbeTrack	13.2	SCS215a	20111031.134014	20111031.134525	8	0.013328	60	10	60-180	60	167	GapExp	SmallFlash	0	46	2	45	0	distractor	1	532	734	69805	13.328	12.964	13.700
ProbeTrack13	3	ProbeTrack	13.2	SCS215a	20111031.134014	20111031.134533	8	0.013328	60	10	60-180	60	87	GapExp	SmallFlash	0	47	2	3	0	distractor	1	820	590	70395	13.328	13.165	13.481
ProbeTrack13	3	ProbeTrack	13.2	SCS215a	20111031.134014	20111031.134539	8	0.013328	60	10	60-180	60	149	GapExp	SmallFlash	0	48	2	45	1	target	1	641	680	71075	13.328	13.308	13.348
ProbeTrack13	3	ProbeTrack	13.2	SCS215a	20111031.134014	20111031.134546	8	0.013328	60	10	60-180	60	74	GapExp	SmallFlash	0	49	2	1	1	target	1	631	685	71760	13.328	13.201	13.467
ProbeTrack13	3	ProbeTrack	13.2	SCS215a	20111031.134014	20111031.134552	8	0.013328	60	10	60-180	60	66	GapExp	SmallFlash	0	50	2	3	1	target	1	421	790	72550	13.328	13.308	13.353
ProbeTrack13	3	ProbeTrack	13.2	SCS215a	20111031.134014	20111031.134557	8	0.013328	60	10	60-180	60	67	GapExp	SmallFlash	0	51	2	0	0	distractor	1	664	668	73218	13.328	12.944	13.713
ProbeTrack13	3	ProbeTrack	13.2	SCS215a	20111031.134014	20111031.134603	8	0.013328	60	10	60-180	60	139	GapExp	SmallFlash	0	52	2	1	1	target	1	348	826	74044	13.328	12.937	13.707
ProbeTrack13	3	ProbeTrack	13.2	SCS215a	20111031.134014	20111031.134610	8	0.013328	60	10	60-180	60	136	GapExp	SmallFlash	0	53	2	0	0	distractor	1	639	681	74725	13.328	12.878	13.785
ProbeTrack13	3	ProbeTrack	13.2	SCS215a	20111031.134014	20111031.134616	8	0.013328	60	10	60-180	60	172	GapExp	SmallFlash	0	54	2	0	1	target	1	281	860	75585	13.328	13.108	13.542
ProbeTrack13	3	ProbeTrack	13.2	SCS215a	20111031.134014	20111031.134623	8	0.013328	60	10	60-180	60	120	GapExp	SmallFlash	0	55	2	3	0	distractor	1	567	717	76302	13.328	13.109	13.559
ProbeTrack13	3	ProbeTrack	13.2	SCS215a	20111031.134014	20111031.134629	8	0.013328	60	10	60-180	60	106	GapExp	SmallFlash	0	56	2	3	1	target	1	636	682	76984	13.328	12.931	13.749
ProbeTrack13	3	ProbeTrack	13.2	SCS215a	20111031.134014	20111031.134636	8	0.013328	60	10	60-180	60	165	GapExp	SmallFlash	0	57	2	0	0	distractor	1	485	758	77742	13.328	13.203	13.452
ProbeTrack13	3	ProbeTrack	13.2	SCS215a	20111031.134014	20111031.134642	8	0.013328	60	10	60-180	60	89	GapExp	SmallFlash	0	58	2	3	0	distractor	1	720	640	78382	13.328	12.941	13.741
ProbeTrack13	3	ProbeTrack	13.2	SCS215a	20111031.134014	20111031.134648	8	0.013328	60	10	60-180	60	136	GapExp	SmallFlash	0	59	2	1	1	target	1	505	748	79130	13.328	12.876	13.786
ProbeTrack13	3	ProbeTrack	13.2	SCS215a	20111031.134014	20111031.134655	8	0.013328	60	10	60-180	60	136	GapExp	SmallFlash	0	60	2	3	0	distractor	1	579	711	79841	13.328	13.307	13.348
ProbeTrack13	3	ProbeTrack	13.2	SCS215a	20111031.134014	20111031.134701	8	0.013328	60	10	60-180	60	112	GapExp	SmallFlash	0	61	2	3	0	distractor	1	745	628	80469	13.328	13.309	13.349
ProbeTrack13	3	ProbeTrack	13.2	SCS215a	20111031.134014	20111031.134708	8	0.013328	60	10	60-180	60	141	GapExp	SmallFlash	0	62	2	1	0	distractor	1	479	761	81230	13.328	12.955	13.702
ProbeTrack13	3	ProbeTrack	13.2	SCS215a	20111031.134014	20111031.134714	8	0.013328	60	10	60-180	60	146	GapExp	SmallFlash	0	63	2	3	1	target	1	381	810	82040	13.328	13.070	13.705
ProbeTrack13	3	ProbeTrack	13.2	SCS215a	20111031.134014	20111031.134721	8	0.013328	60	10	60-180	60	89	GapExp	SmallFlash	0	64	2	0	1	target	1	536	732	82772	13.328	12.981	13.674
ProbeTrack13	3	ProbeTrack	13.2	SCS215a	20111031.134014	20111031.134726	8	0.013328	60	10	60-180	60	67	GapExp	SmallFlash	0	65	2	3	1	target	1	466	767	83539	13.328	13.308	13.347
ProbeTrack13	3	ProbeTrack	13.2	SCS215a	20111031.134014	20111031.134732	8	0.013328	60	10	60-180	60	173	GapExp	SmallFlash	0	66	2	1	1	target	1	409	796	84335	13.328	13.191	13.531
ProbeTrack13	3	ProbeTrack	13.2	SCS215a	20111031.134014	20111031.134739	8	0.013328	60	10	60-180	60	122	GapExp	SmallFlash	0	67	2	3	0	distractor	1	560	720	85055	13.328	13.309	13.347
ProbeTrack13	3	ProbeTrack	13.2	SCS215a	20111031.134014	20111031.134745	8	0.013328	60	10	60-180	60	165	GapExp	SmallFlash	0	68	2	1	1	target	1	553	724	85779	13.328	13.036	13.640
ProbeTrack13	3	ProbeTrack	13.2	SCS215a	20111031.134014	20111031.134752	8	0.013328	60	10	60-180	60	65	GapExp	SmallFlash	0	69	2	0	1	target	1	517	742	86521	13.328	13.308	13.345
ProbeTrack13	3	ProbeTrack	13.2	SCS215a	20111031.134014	20111031.134757	8	0.013328	60	10	60-180	60	129	GapExp	SmallFlash	0	70	2	3	0	distractor	1	549	726	87247	13.328	12.913	13.756
ProbeTrack13	3	ProbeTrack	13.2	SCS215a	20111031.134014	20111031.134804	8	0.013328	60	10	60-180	60	116	GapExp	SmallFlash	0	71	2	45	1	target	1	346	827	88074	13.328	13.306	13.347
ProbeTrack13	3	ProbeTrack	13.2	SCS215a	20111031.134014	20111031.134811	8	0.013328	60	10	60-180	60	179	GapExp	SmallFlash	0	72	2	0	1	target	1	332	834	88908	13.328	13.302	13.347
ProbeTrack13	3	ProbeTrack	13.2	SCS215a	20111031.134014	20111031.134817	8	0.013328	60	10	60-180	60	86	GapExp	SmallFlash	0	73	2	0	0	distractor	1	768	616	89524	13.328	13.301	13.354
ProbeTrack13	3	ProbeTrack	13.2	SCS215a	20111031.134014	20111031.134824	8	0.013328	60	10	60-180	60	93	GapExp	SmallFlash	0	74	2	1	0	distractor	1	665	668	90192	13.328	13.113	13.557
ProbeTrack13	3	ProbeTrack	13.2	SCS215a	20111031.134014	20111031.134830	8	0.013328	60	10	60-180	60	140	GapExp	SmallFlash	0	75	2	45	1	target	1	413	794	90986	13.328	13.086	13.561
ProbeTrack13	3	ProbeTrack	13.2	SCS215a	20111031.134014	20111031.134837	8	0.013328	60	10	60-180	60	126	GapExp	SmallFlash	0	76	2	0	0	distractor	1	595	703	91689	13.328	12.933	13.722
ProbeTrack13	3	ProbeTrack	13.2	SCS215a	20111031.134014	20111031.134844	8	0.013328	60	10	60-180	60	133	GapExp	SmallFlash	0	77	2	45	1	target	1	383	809	92498	13.328	13.106	13.537
ProbeTrack13	3	ProbeTrack	13.2	SCS215a	20111031.134014	20111031.134851	8	0.013328	60	10	60-180	60	74	GapExp	SmallFlash	0	78	2	0	1	target	1	459	771	93269	13.328	13.105	13.557
ProbeTrack13	3	ProbeTrack	13.2	SCS215a	20111031.134014	20111031.134856	8	0.013328	60	10	60-180	60	110	GapExp	SmallFlash	0	79	2	1	0	distractor	1	512	744	94013	13.328	13.152	13.568
ProbeTrack13	3	ProbeTrack	13.2	SCS215a	20111031.134014	20111031.134902	8	0.013328	60	10	60-180	60	92	GapExp	SmallFlash	0	80	2	45	1	target	1	403	799	94812	13.328	12.875	13.780
ProbeTrack13	3	ProbeTrack	13.2	SCS215a	20111031.134014	20111031.134908	8	0.013328	60	10	60-180	60	119	GapExp	SmallFlash	0	81	2	45	1	target	1	490	755	95567	13.328	12.897	13.760
ProbeTrack13	3	ProbeTrack	13.2	SCS215a	20111031.134014	20111031.134915	8	0.013328	60	10	60-180	60	110	GapExp	SmallFlash	0	82	2	0	1	target	1	572	714	96281	13.328	12.860	13.795
ProbeTrack13	3	ProbeTrack	13.2	SCS215a	20111031.134014	20111031.134922	8	0.013328	60	10	60-180	60	103	GapExp	SmallFlash	0	83	2	1	1	target	1	454	773	97054	13.328	13.308	13.352
ProbeTrack13	3	ProbeTrack	13.2	SCS215a	20111031.134014	20111031.134927	8	0.013328	60	10	60-180	60	98	GapExp	SmallFlash	0	84	2	1	1	target	1	446	777	97831	13.328	13.098	13.564
ProbeTrack13	3	ProbeTrack	13.2	SCS215a	20111031.134014	20111031.134933	8	0.013328	60	10	60-180	60	144	GapExp	SmallFlash	0	85	2	1	1	target	1	305	848	98679	13.380	12.861	26.700
ProbeTrack13	3	ProbeTrack	13.2	SCS215a	20111031.134014	20111031.134939	8	0.013328	60	10	60-180	60	111	GapExp	SmallFlash	0	86	2	45	0	distractor	1	593	704	99383	13.328	13.266	13.393
ProbeTrack13	3	ProbeTrack	13.2	SCS215a	20111031.134014	20111031.134947	8	0.013328	60	10	60-180	60	80	GapExp	SmallFlash	0	87	2	0	1	target	1	474	763	100146	13.328	12.971	13.687
ProbeTrack13	3	ProbeTrack	13.2	SCS215a	20111031.134014	20111031.134952	8	0.013328	60	10	60-180	60	120	GapExp	SmallFlash	0	88	2	3	0	distractor	1	523	739	100885	13.328	13.300	13.354
ProbeTrack13	3	ProbeTrack	13.2	SCS215a	20111031.134014	20111031.134958	8	0.013328	60	10	60-180	60	82	GapExp	SmallFlash	0	89	2	3	0	distractor	1	965	518	101403	13.328	12.968	13.688
ProbeTrack13	3	ProbeTrack	13.2	SCS215a	20111031.134014	20111031.135005	8	0.013328	60	10	60-180	60	150	GapExp	SmallFlash	0	90	2	3	1	target	1	446	777	102180	13.328	13.307	13.348
ProbeTrack13	3	ProbeTrack	13.2	SCS215a	20111031.134014	20111031.135011	8	0.013328	60	10	60-180	60	80	GapExp	SmallFlash	0	91	2	1	0	distractor	1	690	655	102835	13.328	13.309	13.345
ProbeTrack13	3	ProbeTrack	13.2	SCS215a	20111031.134014	20111031.135017	8	0.013328	60	10	60-180	60	116	GapExp	SmallFlash	0	92	2	3	1	target	1	466	767	103602	13.328	13.157	13.485
ProbeTrack13	3	ProbeTrack	13.2	SCS215a	20111031.134014	20111031.135023	8	0.013328	60	10	60-180	60	62	GapExp	SmallFlash	0	93	2	1	1	target	1	405	798	104400	13.328	13.107	13.551
ProbeTrack13	3	ProbeTrack	13.2	SCS215a	20111031.134014	20111031.135029	8	0.013328	60	10	60-180	60	117	GapExp	SmallFlash	0	94	2	45	1	target	1	356	822	105222	13.328	12.894	13.743
ProbeTrack13	3	ProbeTrack	13.2	SCS215a	20111031.134014	20111031.135035	8	0.013328	60	10	60-180	60	122	GapExp	SmallFlash	0	95	2	45	0	distractor	1	518	741	105963	13.328	12.874	13.788
ProbeTrack13	3	ProbeTrack	13.2	SCS215a	20111031.134014	20111031.135042	8	0.013328	60	10	60-180	60	175	GapExp	SmallFlash	0	96	2	0	1	target	1	341	830	106793	13.328	12.957	13.688
ProbeTrack13	3	ProbeTrack	13.2	SCS215a	20111031.134014	20111031.135049	8	0.013328	60	10	60-180	60	140	GapExp	SmallFlash	0	97	2	0	1	target	1	370	815	107608	13.328	12.908	13.729
ProbeTrack13	3	ProbeTrack	13.2	SCS215a	20111031.134014	20111031.135055	8	0.013328	60	10	60-180	60	103	GapExp	SmallFlash	0	98	2	3	1	target	1	570	715	108323	13.328	12.894	13.764
ProbeTrack13	3	ProbeTrack	13.2	SCS215a	20111031.134014	20111031.135101	8	0.013328	60	10	60-180	60	162	GapExp	SmallFlash	0	99	2	1	1	target	1	408	796	109119	13.328	12.932	13.711
ProbeTrack13	3	ProbeTrack	13.2	SCS215a	20111031.134014	20111031.135108	8	0.013328	60	10	60-180	60	136	GapExp	SmallFlash	0	100	2	45	0	distractor	1	538	731	109850	13.328	12.846	13.821
ProbeTrack13	3	ProbeTrack	13.2	SCS215a	20111031.134014	20111031.135115	8	0.013328	60	10	60-180	60	173	GapExp	SmallFlash	0	101	2	3	0	distractor	1	697	652	110502	13.328	13.045	13.604
ProbeTrack13	3	ProbeTrack	13.2	SCS215a	20111031.134014	20111031.135123	8	0.013328	60	10	60-180	60	168	GapExp	SmallFlash	0	102	2	1	1	target	1	483	759	111261	13.328	12.875	13.773
ProbeTrack13	3	ProbeTrack	13.2	SCS215a	20111031.134014	20111031.135130	8	0.013328	60	10	60-180	60	156	GapExp	SmallFlash	0	103	2	45	1	target	1	302	849	112110	13.328	13.105	13.551
ProbeTrack13	3	ProbeTrack	13.2	SCS215a	20111031.134014	20111031.135137	8	0.013328	60	10	60-180	60	169	GapExp	SmallFlash	0	104	2	3	0	distractor	1	539	731	112841	13.328	13.098	13.555
ProbeTrack13	3	ProbeTrack	13.2	SCS215a	20111031.134014	20111031.135144	8	0.013328	60	10	60-180	60	141	GapExp	SmallFlash	0	105	2	45	1	target	1	355	823	113664	13.328	12.985	13.681
ProbeTrack13	3	ProbeTrack	13.2	SCS215a	20111031.134014	20111031.135151	8	0.013328	60	10	60-180	60	175	GapExp	SmallFlash	0	106	2	1	0	distractor	1	626	687	114351	13.328	12.878	13.763
ProbeTrack13	3	ProbeTrack	13.2	SCS215a	20111031.134014	20111031.135158	8	0.013328	60	10	60-180	60	85	GapExp	SmallFlash	0	107	2	3	0	target	0	591	-1000	113351	13.328	13.310	13.349
ProbeTrack13	3	ProbeTrack	13.2	SCS215a	20111031.134014	20111031.135204	8	0.013328	60	10	60-180	60	105	GapExp	SmallFlash	0	108	2	1	1	target	1	398	801	114152	13.328	13.307	13.346
ProbeTrack13	3	ProbeTrack	13.2	SCS215a	20111031.134014	20111031.135210	8	0.013328	60	10	60-180	60	122	GapExp	SmallFlash	0	109	2	0	1	target	1	294	853	115005	13.328	13.307	13.345
ProbeTrack13	3	ProbeTrack	13.2	SCS215a	20111031.134014	20111031.135216	8	0.013328	60	10	60-180	60	108	GapExp	SmallFlash	0	110	2	3	1	target	1	436	782	115787	13.328	12.893	13.763
ProbeTrack13	3	ProbeTrack	13.2	SCS215a	20111031.134014	20111031.135222	8	0.013328	60	10	60-180	60	171	GapExp	SmallFlash	0	111	2	45	1	target	1	321	840	116627	13.328	12.847	13.816
ProbeTrack13	3	ProbeTrack	13.2	SCS215a	20111031.134014	20111031.135230	8	0.013328	60	10	60-180	60	97	GapExp	SmallFlash	0	112	2	3	0	distractor	1	531	735	117362	13.328	12.986	13.670
ProbeTrack13	3	ProbeTrack	13.2	SCS215a	20111031.134014	20111031.135236	8	0.013328	60	10	60-180	60	173	GapExp	SmallFlash	0	113	2	1	0	distractor	1	485	758	118120	13.328	12.937	13.715
ProbeTrack13	3	ProbeTrack	13.2	SCS215a	20111031.134014	20111031.135243	8	0.013328	60	10	60-180	60	174	GapExp	SmallFlash	0	114	2	45	0	distractor	1	569	716	118836	13.328	12.864	13.788
ProbeTrack13	3	ProbeTrack	13.2	SCS215a	20111031.134014	20111031.135250	8	0.013328	60	10	60-180	60	147	GapExp	SmallFlash	0	115	2	1	0	distractor	1	721	640	119476	13.327	13.106	13.558
ProbeTrack13	3	ProbeTrack	13.2	SCS215a	20111031.134014	20111031.135257	8	0.013328	60	10	60-180	60	81	GapExp	SmallFlash	0	116	2	45	0	distractor	1	859	571	120047	13.328	13.108	13.542
ProbeTrack13	3	ProbeTrack	13.2	SCS215a	20111031.134014	20111031.135304	8	0.013328	60	10	60-180	60	64	GapExp	SmallFlash	0	117	2	3	1	target	1	874	563	120610	13.328	13.276	13.382
ProbeTrack13	3	ProbeTrack	13.2	SCS215a	20111031.134014	20111031.135310	8	0.013328	60	10	60-180	60	147	GapExp	SmallFlash	0	118	2	3	0	distractor	1	464	768	121378	13.328	13.091	13.572
ProbeTrack13	3	ProbeTrack	13.2	SCS215a	20111031.134014	20111031.135316	8	0.013328	60	10	60-180	60	159	GapExp	SmallFlash	0	119	2	3	1	target	1	437	782	122160	13.328	12.883	13.769
ProbeTrack13	3	ProbeTrack	13.2	SCS215a	20111031.134014	20111031.135323	8	0.013328	60	10	60-180	60	162	GapExp	SmallFlash	0	120	2	1	0	distractor	1	522	739	122899	13.328	13.099	13.564
ProbeTrack13	3	ProbeTrack	13.2	SCS215a	20111031.134014	20111031.135330	8	0.013328	60	10	60-180	60	157	GapExp	SmallFlash	0	121	2	1	0	distractor	1	450	775	123674	13.328	12.844	13.819
ProbeTrack13	3	ProbeTrack	13.2	SCS215a	20111031.134014	20111031.135337	8	0.013328	60	10	60-180	60	81	GapExp	SmallFlash	0	122	2	1	0	distractor	1	618	691	124365	13.328	13.034	13.614
ProbeTrack13	3	ProbeTrack	13.2	SCS215a	20111031.134014	20111031.135342	8	0.013328	60	10	60-180	60	140	GapExp	SmallFlash	0	123	2	45	1	target	1	359	821	125186	13.328	13.298	13.365
ProbeTrack13	3	ProbeTrack	13.2	SCS215a	20111031.134014	20111031.135349	8	0.013328	60	10	60-180	60	103	GapExp	SmallFlash	0	124	2	0	0	distractor	1	620	690	125876	13.328	13.306	13.349
ProbeTrack13	3	ProbeTrack	13.2	SCS215a	20111031.134014	20111031.135356	8	0.013328	60	10	60-180	60	180	GapExp	SmallFlash	0	125	2	3	0	distractor	1	512	744	126620	13.328	12.846	13.817
ProbeTrack13	3	ProbeTrack	13.2	SCS215a	20111031.134014	20111031.135403	8	0.013328	60	10	60-180	60	91	GapExp	SmallFlash	0	126	2	0	0	distractor	1	877	562	127182	13.328	13.308	13.345
ProbeTrack13	3	ProbeTrack	13.2	SCS215a	20111031.134014	20111031.135409	8	0.013328	60	10	60-180	60	115	GapExp	SmallFlash	0	127	2	45	1	target	1	542	729	127911	13.328	12.992	13.664
ProbeTrack13	3	ProbeTrack	13.2	SCS215a	20111031.134014	20111031.135416	8	0.013328	60	10	60-180	60	104	GapExp	SmallFlash	0	128	2	1	1	target	1	467	767	128678	13.328	13.311	13.346
ProbeTrack13	3	ProbeTrack	13.2	SCS215a	20111031.134014	20111031.135422	8	0.013328	60	10	60-180	60	105	GapExp	SmallFlash	0	129	2	3	1	target	1	540	730	129408	13.328	12.929	13.713
ProbeTrack13	3	ProbeTrack	13.2	SCS215a	20111031.134014	20111031.135428	8	0.013328	60	10	60-180	60	130	GapExp	SmallFlash	0	130	2	3	1	target	1	374	813	130221	13.328	12.886	13.770
ProbeTrack13	3	ProbeTrack	13.2	SCS215a	20111031.134014	20111031.135434	8	0.013328	60	10	60-180	60	121	GapExp	SmallFlash	0	131	2	45	0	target	0	544	-1000	129221	13.328	13.097	13.553
ProbeTrack13	3	ProbeTrack	13.2	SCS215a	20111031.134014	20111031.135441	8	0.013328	60	10	60-180	60	115	GapExp	SmallFlash	0	132	2	45	0	distractor	1	420	790	130011	13.328	12.886	13.760
ProbeTrack13	3	ProbeTrack	13.2	SCS215a	20111031.134014	20111031.135448	8	0.013328	60	10	60-180	60	121	GapExp	SmallFlash	0	133	2	45	0	distractor	1	597	702	130713	13.328	12.855	13.810
ProbeTrack13	3	ProbeTrack	13.2	SCS215a	20111031.134014	20111031.135455	8	0.013328	60	10	60-180	60	78	GapExp	SmallFlash	0	134	2	3	0	distractor	1	719	641	131354	13.328	13.106	13.565
ProbeTrack13	3	ProbeTrack	13.2	SCS215a	20111031.134014	20111031.135501	8	0.013328	60	10	60-180	60	75	GapExp	SmallFlash	0	135	2	1	0	distractor	1	497	752	132106	13.328	12.850	13.790
ProbeTrack13	3	ProbeTrack	13.2	SCS215a	20111031.134014	20111031.135506	8	0.013328	60	10	60-180	60	76	GapExp	SmallFlash	0	136	2	0	0	distractor	1	499	751	132857	13.328	12.940	13.726
ProbeTrack13	3	ProbeTrack	13.2	SCS215a	20111031.134014	20111031.135512	8	0.013328	60	10	60-180	60	163	GapExp	SmallFlash	0	137	2	0	1	target	1	506	747	133604	13.328	13.307	13.347
ProbeTrack13	3	ProbeTrack	13.2	SCS215a	20111031.134014	20111031.135519	8	0.013328	60	10	60-180	60	83	GapExp	SmallFlash	0	138	2	1	0	distractor	1	553	724	134328	13.328	13.303	13.347
ProbeTrack13	3	ProbeTrack	13.2	SCS215a	20111031.134014	20111031.135525	8	0.013328	60	10	60-180	60	163	GapExp	SmallFlash	0	139	2	45	1	target	1	419	791	135119	13.328	12.878	13.778
ProbeTrack13	3	ProbeTrack	13.2	SCS215a	20111031.134014	20111031.135532	8	0.013328	60	10	60-180	60	66	GapExp	SmallFlash	0	140	2	0	1	target	1	551	725	135844	13.328	12.946	13.703
ProbeTrack13	3	ProbeTrack	13.2	SCS215a	20111031.134014	20111031.135537	8	0.013328	60	10	60-180	60	168	GapExp	SmallFlash	0	141	2	45	1	target	1	512	744	136588	13.328	13.098	13.551
ProbeTrack13	3	ProbeTrack	13.2	SCS215a	20111031.134014	20111031.135545	8	0.013328	60	10	60-180	60	63	GapExp	SmallFlash	0	142	2	0	1	target	1	443	779	137367	13.328	13.113	13.551
ProbeTrack13	3	ProbeTrack	13.2	SCS215a	20111031.134014	20111031.135550	8	0.013328	60	10	60-180	60	88	GapExp	SmallFlash	0	143	2	0	1	target	1	371	815	138182	13.328	12.851	13.799
ProbeTrack13	3	ProbeTrack	13.2	SCS215a	20111031.134014	20111031.135556	8	0.013328	60	10	60-180	60	88	GapExp	SmallFlash	0	144	2	1	0	distractor	1	597	702	138884	13.328	13.307	13.354
ProbeTrack13	3	ProbeTrack	13.2	SCS215a	20111031.134014	20111031.135602	8	0.013328	60	10	60-180	60	155	GapExp	SmallFlash	0	145	2	1	0	distractor	1	472	764	139648	13.328	13.002	13.664
ProbeTrack13	3	ProbeTrack	13.2	SCS215a	20111031.134014	20111031.135608	8	0.013328	60	10	60-180	60	113	GapExp	SmallFlash	0	146	2	3	1	target	1	486	757	140405	13.328	12.875	13.789
ProbeTrack13	3	ProbeTrack	13.2	SCS215a	20111031.134014	20111031.135614	8	0.013328	60	10	60-180	60	76	GapExp	SmallFlash	0	147	2	1	1	target	1	431	785	141190	13.328	12.907	13.782
ProbeTrack13	3	ProbeTrack	13.2	SCS215a	20111031.134014	20111031.135620	8	0.013328	60	10	60-180	60	84	GapExp	SmallFlash	0	148	2	1	1	target	1	416	792	141982	13.328	12.868	13.794
ProbeTrack13	3	ProbeTrack	13.2	SCS215a	20111031.134014	20111031.135626	8	0.013328	60	10	60-180	60	165	GapExp	SmallFlash	0	149	2	45	0	distractor	1	592	704	142686	13.328	13.035	13.628
ProbeTrack13	3	ProbeTrack	13.2	SCS215a	20111031.134014	20111031.135633	8	0.013328	60	10	60-180	60	114	GapExp	SmallFlash	0	150	2	45	1	target	1	339	831	143517	13.328	12.903	13.552
ProbeTrack13	3	ProbeTrack	13.2	SCS215a	20111031.134014	20111031.135640	8	0.013328	60	10	60-180	60	130	GapExp	SmallFlash	0	151	2	0	1	target	1	389	806	144323	13.328	12.958	13.711
ProbeTrack13	3	ProbeTrack	13.2	SCS215a	20111031.134014	20111031.135646	8	0.013328	60	10	60-180	60	171	GapExp	SmallFlash	0	152	2	45	1	target	1	405	798	145121	13.328	13.108	13.556
ProbeTrack13	3	ProbeTrack	13.2	SCS215a	20111031.134014	20111031.135653	8	0.013328	60	10	60-180	60	106	GapExp	SmallFlash	0	153	2	0	1	target	1	337	832	145953	13.328	13.296	13.356
ProbeTrack13	3	ProbeTrack	13.2	SCS215a	20111031.134014	20111031.135659	8	0.013328	60	10	60-180	60	158	GapExp	SmallFlash	0	154	2	3	1	target	1	385	808	146761	13.328	13.310	13.349
ProbeTrack13	3	ProbeTrack	13.2	SCS215a	20111031.134014	20111031.135705	8	0.013328	60	10	60-180	60	109	GapExp	SmallFlash	0	155	2	1	0	distractor	1	363	819	147580	13.328	13.300	13.355
ProbeTrack13	3	ProbeTrack	13.2	SCS215a	20111031.134014	20111031.135711	8	0.013328	60	10	60-180	60	123	GapExp	SmallFlash	0	156	2	1	0	distractor	1	530	735	148315	13.328	13.309	13.344
ProbeTrack13	3	ProbeTrack	13.2	SCS215a	20111031.134014	20111031.135717	8	0.013328	60	10	60-180	60	136	GapExp	SmallFlash	0	157	2	3	0	distractor	1	707	647	148962	13.328	12.903	13.765
ProbeTrack13	3	ProbeTrack	13.2	SCS215a	20111031.134014	20111031.135724	8	0.013328	60	10	60-180	60	139	GapExp	SmallFlash	0	158	2	1	1	target	1	367	817	149779	13.328	13.112	13.552
ProbeTrack13	3	ProbeTrack	13.2	SCS215a	20111031.134014	20111031.135730	8	0.013328	60	10	60-180	60	161	GapExp	SmallFlash	0	159	2	3	1	target	1	331	835	150614	13.328	13.178	13.479
ProbeTrack13	3	ProbeTrack	13.2	SCS215a	20111031.134014	20111031.135737	8	0.013328	60	10	60-180	60	70	GapExp	SmallFlash	0	160	2	45	1	target	1	320	840	151454	13.328	12.969	13.694
ProbeTrack13	3	ProbeTrack	13.2	SCS215a	20111031.134014	20111031.135742	8	0.013328	60	10	60-180	60	98	GapExp	SmallFlash	0	161	2	45	0	distractor	1	557	722	152176	13.328	13.106	13.544
ProbeTrack13	3	ProbeTrack	13.2	SCS215a	20111031.134014	20111031.135749	8	0.013328	60	10	60-180	60	144	GapExp	SmallFlash	0	162	2	0	1	target	1	640	680	152856	13.328	13.308	13.348
ProbeTrack13	3	ProbeTrack	13.2	SCS215a	20111031.134014	20111031.135756	8	0.013328	60	10	60-180	60	81	GapExp	SmallFlash	0	163	2	3	1	target	1	580	710	153566	13.328	12.882	13.797
ProbeTrack13	3	ProbeTrack	13.2	SCS215a	20111031.134014	20111031.135801	8	0.013328	60	10	60-180	60	100	GapExp	SmallFlash	0	164	2	0	1	target	1	385	808	154374	13.328	13.296	13.364
ProbeTrack13	3	ProbeTrack	13.2	SCS215a	20111031.134014	20111031.135807	8	0.013328	60	10	60-180	60	103	GapExp	SmallFlash	0	165	2	0	0	distractor	1	543	729	155103	13.328	13.303	13.350
ProbeTrack13	3	ProbeTrack	13.2	SCS215a	20111031.134014	20111031.135813	8	0.013328	60	10	60-180	60	135	GapExp	SmallFlash	0	166	2	0	0	distractor	1	434	783	155886	13.328	13.110	13.538
ProbeTrack13	3	ProbeTrack	13.2	SCS215a	20111031.134014	20111031.135819	8	0.013328	60	10	60-180	60	166	GapExp	SmallFlash	0	167	2	3	0	distractor	1	456	772	156658	13.328	13.034	13.624
ProbeTrack13	3	ProbeTrack	13.2	SCS215a	20111031.134014	20111031.135826	8	0.013328	60	10	60-180	60	82	GapExp	SmallFlash	0	168	2	3	1	target	1	418	791	157449	13.328	13.113	13.544
ProbeTrack13	3	ProbeTrack	13.2	SCS215a	20111031.134014	20111031.135832	8	0.013328	60	10	60-180	60	74	GapExp	SmallFlash	0	169	2	0	0	distractor	1	584	708	158157	13.328	13.090	13.568
ProbeTrack13	3	ProbeTrack	13.2	SCS215a	20111031.134014	20111031.135838	8	0.013328	60	10	60-180	60	158	GapExp	SmallFlash	0	170	2	1	0	distractor	1	517	742	158899	13.328	13.113	13.551
ProbeTrack13	3	ProbeTrack	13.2	SCS215a	20111031.134014	20111031.135845	8	0.013328	60	10	60-180	60	173	GapExp	SmallFlash	0	171	2	45	1	target	1	404	798	159697	13.328	13.099	13.554
ProbeTrack13	3	ProbeTrack	13.2	SCS215a	20111031.134014	20111031.135852	8	0.013328	60	10	60-180	60	175	GapExp	SmallFlash	0	172	2	1	1	target	1	438	781	160478	13.328	13.098	13.559
ProbeTrack13	3	ProbeTrack	13.2	SCS215a	20111031.134014	20111031.135859	8	0.013328	60	10	60-180	60	115	GapExp	SmallFlash	0	173	2	45	0	distractor	1	600	700	161178	13.328	13.003	13.640
ProbeTrack13	3	ProbeTrack	13.2	SCS215a	20111031.134014	20111031.135906	8	0.013328	60	10	60-180	60	134	GapExp	SmallFlash	0	174	2	45	0	distractor	1	412	794	161972	13.328	13.301	13.362
ProbeTrack13	3	ProbeTrack	13.2	SCS215a	20111031.134014	20111031.135913	8	0.013328	60	10	60-180	60	105	GapExp	SmallFlash	0	175	2	0	0	distractor	1	479	761	162733	13.328	13.309	13.350
ProbeTrack13	3	ProbeTrack	13.2	SCS215a	20111031.134014	20111031.135919	8	0.013328	60	10	60-180	60	84	GapExp	SmallFlash	0	176	2	1	0	distractor	1	738	631	163364	13.328	12.878	13.772
ProbeTrack13	3	ProbeTrack	13.2	SCS215a	20111031.134014	20111031.135924	8	0.013328	60	10	60-180	60	148	GapExp	SmallFlash	0	177	2	45	0	distractor	1	588	706	164070	13.328	12.877	13.774
ProbeTrack13	3	ProbeTrack	13.2	SCS215a	20111031.134014	20111031.135932	8	0.013328	60	10	60-180	60	94	GapExp	SmallFlash	0	178	2	45	0	distractor	1	528	736	164806	13.328	12.860	13.804
ProbeTrack13	3	ProbeTrack	13.2	SCS215a	20111031.134014	20111031.135938	8	0.013328	60	10	60-180	60	92	GapExp	SmallFlash	0	179	2	3	0	distractor	1	755	623	165429	13.328	13.304	13.352
ProbeTrack13	3	ProbeTrack	13.2	SCS215a	20111031.134014	20111031.135944	8	0.013328	60	10	60-180	60	71	GapExp	SmallFlash	0	180	2	0	0	distractor	1	610	695	166124	13.328	13.307	13.343
ProbeTrack13	3	ProbeTrack	13.2	SCS215a	20111031.134014	20111031.135950	8	0.013328	60	10	60-180	60	132	GapExp	SmallFlash	0	181	2	45	1	target	1	430	785	166909	13.328	13.106	13.545
ProbeTrack13	3	ProbeTrack	13.2	SCS215a	20111031.134014	20111031.135956	8	0.013328	60	10	60-180	60	128	GapExp	SmallFlash	0	182	2	1	0	distractor	1	494	753	167662	13.328	13.092	13.566
ProbeTrack13	3	ProbeTrack	13.2	SCS215a	20111031.134014	20111031.140003	8	0.013328	60	10	60-180	60	81	GapExp	SmallFlash	0	183	2	45	0	distractor	1	537	732	168394	13.328	13.090	13.561
ProbeTrack13	3	ProbeTrack	13.2	SCS215a	20111031.134014	20111031.140009	8	0.013328	60	10	60-180	60	175	GapExp	SmallFlash	0	184	2	1	1	target	1	336	832	169226	13.328	13.065	13.590
ProbeTrack13	3	ProbeTrack	13.2	SCS215a	20111031.134014	20111031.140016	8	0.013328	60	10	60-180	60	107	GapExp	SmallFlash	0	185	2	45	1	target	1	360	820	170046	13.328	13.309	13.345
ProbeTrack13	3	ProbeTrack	13.2	SCS215a	20111031.134014	20111031.140022	8	0.013328	60	10	60-180	60	69	GapExp	SmallFlash	0	186	2	1	0	distractor	1	749	626	170672	13.328	13.290	13.381
ProbeTrack13	3	ProbeTrack	13.2	SCS215a	20111031.134014	20111031.140028	8	0.013328	60	10	60-180	60	172	GapExp	SmallFlash	0	187	2	1	1	target	1	39802	0	170672	13.370	13.038	26.661
ProbeTrack13	3	ProbeTrack	13.2	SCS215a	20111031.134014	20111031.140114	8	0.013328	60	10	60-180	60	130	GapExp	SmallFlash	0	188	2	1	0	distractor	1	456	772	171444	13.328	13.114	13.540
ProbeTrack13	3	ProbeTrack	13.2	SCS215a	20111031.134014	20111031.140134	8	0.013328	60	10	60-180	60	142	GapExp	SmallFlash	0	189	2	3	0	distractor	1	460	770	172214	13.328	13.099	13.563
ProbeTrack13	3	ProbeTrack	13.2	SCS215a	20111031.134014	20111031.140140	8	0.013328	60	10	60-180	60	169	GapExp	SmallFlash	0	190	2	45	0	distractor	1	492	754	172968	13.328	12.898	13.768
ProbeTrack13	3	ProbeTrack	13.2	SCS215a	20111031.134014	20111031.140148	8	0.013328	60	10	60-180	60	65	GapExp	SmallFlash	0	191	2	0	0	distractor	1	607	697	173665	13.328	12.958	13.706
ProbeTrack13	3	ProbeTrack	13.2	SCS215a	20111031.134014	20111031.140153	8	0.013328	60	10	60-180	60	140	GapExp	SmallFlash	0	192	2	1	0	distractor	1	521	740	174405	13.328	13.298	13.354
ProbeTrack13	3	ProbeTrack	13.2	SCS215a	20111031.134014	20111031.140159	8	0.013328	60	10	60-180	60	179	GapExp	SmallFlash	0	193	2	0	1	target	1	399	801	175206	13.328	12.891	13.779
ProbeTrack13	3	ProbeTrack	13.2	SCS215a	20111031.134014	20111031.140206	8	0.013328	60	10	60-180	60	164	GapExp	SmallFlash	0	194	2	0	0	distractor	1	545	728	175934	13.328	13.307	13.346
ProbeTrack13	3	ProbeTrack	13.2	SCS215a	20111031.134014	20111031.140213	8	0.013328	60	10	60-180	60	164	GapExp	SmallFlash	0	195	2	45	0	distractor	1	553	724	176658	13.328	13.307	13.347
ProbeTrack13	3	ProbeTrack	13.2	SCS215a	20111031.134014	20111031.140221	8	0.013328	60	10	60-180	60	123	GapExp	SmallFlash	0	196	2	0	1	target	1	637	682	177340	13.328	13.284	13.372
ProbeTrack13	3	ProbeTrack	13.2	SCS215a	20111031.134014	20111031.140227	8	0.013328	60	10	60-180	60	120	GapExp	SmallFlash	0	197	2	0	1	target	1	322	839	178179	13.328	12.880	13.786
ProbeTrack13	3	ProbeTrack	13.2	SCS215a	20111031.134014	20111031.140233	8	0.013328	60	10	60-180	60	170	GapExp	SmallFlash	0	198	2	3	1	target	1	303	849	179028	13.328	13.240	13.423
ProbeTrack13	3	ProbeTrack	13.2	SCS215a	20111031.134014	20111031.140240	8	0.013328	60	10	60-180	60	88	GapExp	SmallFlash	0	199	2	0	0	distractor	1	644	678	179706	13.328	13.103	13.566
ProbeTrack13	3	ProbeTrack	13.2	SCS215a	20111031.134014	20111031.140245	8	0.013328	60	10	60-180	60	131	GapExp	SmallFlash	0	200	2	45	0	distractor	1	463	769	180475	13.328	12.912	13.751
ProbeTrack13	3	ProbeTrack	13.2	SCS215a	20111031.140413	20111031.140425	8	0.013328	60	10	60-180	60	96	GapPrac	Blank	1	1	2	1	1	target	1	715	643	181118	13.384	13.018	13.652
ProbeTrack13	3	ProbeTrack	13.2	SCS215a	20111031.140413	20111031.140432	8	0.013328	60	10	60-180	60	86	GapPrac	Blank	1	2	2	3	1	target	1	583	709	181827	13.328	12.851	13.814
ProbeTrack13	3	ProbeTrack	13.2	SCS215a	20111031.140413	20111031.140438	8	0.013328	60	10	60-180	60	99	GapPrac	Blank	1	3	2	45	1	distractor	0	790	-1000	180827	13.328	13.107	13.556
ProbeTrack13	3	ProbeTrack	13.2	SCS215a	20111031.140413	20111031.140445	8	0.013328	60	10	60-180	60	97	GapPrac	Blank	1	4	2	3	0	target	0	657	-1000	179827	13.328	13.302	13.357
ProbeTrack13	3	ProbeTrack	13.2	SCS215a	20111031.140413	20111031.140451	8	0.013328	60	10	60-180	60	103	GapPrac	Blank	1	5	2	3	1	distractor	0	731	-1000	178827	13.327	13.020	13.550
ProbeTrack13	3	ProbeTrack	13.2	SCS215a	20111031.140413	20111031.140457	8	0.013328	60	10	60-180	60	162	GapPrac	Blank	1	6	2	1	0	target	0	656	-1000	177827	13.328	13.085	13.558
ProbeTrack13	3	ProbeTrack	13.2	SCS215a	20111031.140413	20111031.140505	8	0.013328	60	10	60-180	60	83	GapPrac	Blank	1	7	2	0	0	target	0	762	-1000	176827	13.328	12.870	13.793
ProbeTrack13	3	ProbeTrack	13.2	SCS215a	20111031.140413	20111031.140511	8	0.013328	60	10	60-180	60	74	GapPrac	Blank	1	8	2	3	0	distractor	1	982	509	177336	13.328	12.842	13.801
ProbeTrack13	3	ProbeTrack	13.2	SCS215a	20111031.140413	20111031.140517	8	0.013328	60	10	60-180	60	111	GapPrac	Blank	1	9	2	45	0	distractor	1	724	638	177974	13.328	12.855	13.813
ProbeTrack13	3	ProbeTrack	13.2	SCS215a	20111031.140413	20111031.140524	8	0.013328	60	10	60-180	60	156	GapPrac	Blank	1	10	2	45	1	target	1	561	720	178694	13.328	13.080	13.789
ProbeTrack13	3	ProbeTrack	13.2	SCS215a	20111031.140413	20111031.140531	8	0.013328	60	10	60-180	60	105	GapPrac	Blank	1	11	2	0	0	target	0	614	-1000	177694	13.328	13.006	13.667
ProbeTrack13	3	ProbeTrack	13.2	SCS215a	20111031.140413	20111031.140538	8	0.013328	60	10	60-180	60	159	GapPrac	Blank	1	12	2	3	1	target	1	585	708	178402	13.328	12.872	13.773
ProbeTrack13	3	ProbeTrack	13.2	SCS215a	20111031.140413	20111031.140545	8	0.013328	60	10	60-180	60	73	GapPrac	Blank	1	13	2	1	0	distractor	1	509	746	179148	13.328	12.866	13.789
ProbeTrack13	3	ProbeTrack	13.2	SCS215a	20111031.140413	20111031.140551	8	0.013328	60	10	60-180	60	148	GapPrac	Blank	1	14	2	45	1	target	1	447	777	179925	13.328	12.933	13.725
ProbeTrack13	3	ProbeTrack	13.2	SCS215a	20111031.140413	20111031.140558	8	0.013328	60	10	60-180	60	152	GapPrac	Blank	1	15	2	3	0	distractor	1	751	625	180550	13.328	13.032	13.625
ProbeTrack13	3	ProbeTrack	13.2	SCS215a	20111031.140413	20111031.140604	8	0.013328	60	10	60-180	60	176	GapPrac	Blank	1	16	2	1	1	target	1	485	758	181308	13.328	12.969	13.682
ProbeTrack13	3	ProbeTrack	13.2	SCS215a	20111031.140413	20111031.140612	8	0.013328	60	10	60-180	60	143	GapPrac	Blank	1	17	2	45	0	distractor	1	900	550	181858	13.328	12.955	13.700
ProbeTrack13	3	ProbeTrack	13.2	SCS215a	20111031.140413	20111031.140619	8	0.013328	60	10	60-180	60	78	GapPrac	Blank	1	18	2	0	1	target	1	395	803	182661	13.328	13.293	13.364
ProbeTrack13	3	ProbeTrack	13.2	SCS215a	20111031.140413	20111031.140625	8	0.013328	60	10	60-180	60	109	GapPrac	Blank	1	19	2	0	1	target	1	483	759	183420	13.328	12.904	13.752
ProbeTrack13	3	ProbeTrack	13.2	SCS215a	20111031.140413	20111031.140631	8	0.013328	60	10	60-180	60	172	GapPrac	Blank	1	20	2	1	1	target	1	351	825	184245	13.328	13.105	13.558
ProbeTrack13	3	ProbeTrack	13.2	SCS215a	20111031.140728	20111031.140734	8	0.013328	60	10	60-180	60	89	GapExp	Blank	1	1	2	1	1	target	1	481	760	185005	13.390	13.307	13.347
ProbeTrack13	3	ProbeTrack	13.2	SCS215a	20111031.140728	20111031.140741	8	0.013328	60	10	60-180	60	70	GapExp	Blank	1	2	2	45	0	distractor	1	465	768	185773	13.328	12.886	13.776
ProbeTrack13	3	ProbeTrack	13.2	SCS215a	20111031.140728	20111031.140747	8	0.013328	60	10	60-180	60	117	GapExp	Blank	1	3	2	3	0	target	0	470	-1000	184773	13.328	13.089	13.554
ProbeTrack13	3	ProbeTrack	13.2	SCS215a	20111031.140728	20111031.140753	8	0.013328	60	10	60-180	60	68	GapExp	Blank	1	4	2	0	0	distractor	1	448	776	185549	13.328	13.098	13.558
ProbeTrack13	3	ProbeTrack	13.2	SCS215a	20111031.140728	20111031.140758	8	0.013328	60	10	60-180	60	78	GapExp	Blank	1	5	2	3	1	target	1	373	814	186363	13.328	13.308	13.343
ProbeTrack13	3	ProbeTrack	13.2	SCS215a	20111031.140728	20111031.140804	8	0.013328	60	10	60-180	60	135	GapExp	Blank	1	6	2	0	1	target	1	423	789	187152	13.328	12.921	13.744
ProbeTrack13	3	ProbeTrack	13.2	SCS215a	20111031.140728	20111031.140810	8	0.013328	60	10	60-180	60	91	GapExp	Blank	1	7	2	1	0	target	0	392	-1000	186152	13.328	13.303	13.348
ProbeTrack13	3	ProbeTrack	13.2	SCS215a	20111031.140728	20111031.140816	8	0.013328	60	10	60-180	60	128	GapExp	Blank	1	8	2	45	1	target	1	491	755	186907	13.328	13.287	13.361
ProbeTrack13	3	ProbeTrack	13.2	SCS215a	20111031.140728	20111031.140823	8	0.013328	60	10	60-180	60	106	GapExp	Blank	0	9	2	45	0	target	0	359	-1000	185907	13.328	13.116	13.545
ProbeTrack13	3	ProbeTrack	13.2	SCS215a	20111031.140728	20111031.140829	8	0.013328	60	10	60-180	60	110	GapExp	Blank	0	10	2	1	0	target	0	434	-1000	184907	13.327	13.104	13.552
ProbeTrack13	3	ProbeTrack	13.2	SCS215a	20111031.140728	20111031.140835	8	0.013328	60	10	60-180	60	119	GapExp	Blank	0	11	2	0	1	target	1	505	748	185655	13.328	13.041	13.615
ProbeTrack13	3	ProbeTrack	13.2	SCS215a	20111031.140728	20111031.140841	8	0.013328	60	10	60-180	60	175	GapExp	Blank	0	12	2	1	1	target	1	395	803	186458	13.328	12.927	13.720
ProbeTrack13	3	ProbeTrack	13.2	SCS215a	20111031.140728	20111031.140848	8	0.013328	60	10	60-180	60	85	GapExp	Blank	0	13	2	3	0	distractor	1	568	716	187174	13.328	12.899	13.756
ProbeTrack13	3	ProbeTrack	13.2	SCS215a	20111031.140728	20111031.140854	8	0.013328	60	10	60-180	60	118	GapExp	Blank	0	14	2	3	1	target	1	385	808	187982	13.328	12.989	13.670
ProbeTrack13	3	ProbeTrack	13.2	SCS215a	20111031.140728	20111031.140859	8	0.013328	60	10	60-180	60	90	GapExp	Blank	0	15	2	1	1	target	1	398	801	188783	13.328	13.051	13.606
ProbeTrack13	3	ProbeTrack	13.2	SCS215a	20111031.140728	20111031.140905	8	0.013328	60	10	60-180	60	139	GapExp	Blank	0	16	2	3	0	distractor	1	781	610	189393	13.328	12.973	13.682
ProbeTrack13	3	ProbeTrack	13.2	SCS215a	20111031.140728	20111031.140911	8	0.013328	60	10	60-180	60	86	GapExp	Blank	0	17	2	0	0	target	0	686	-1000	188393	13.328	12.869	13.780
ProbeTrack13	3	ProbeTrack	13.2	SCS215a	20111031.140728	20111031.140917	8	0.013328	60	10	60-180	60	121	GapExp	Blank	0	18	2	0	0	distractor	1	679	661	189054	13.328	13.092	13.557
ProbeTrack13	3	ProbeTrack	13.2	SCS215a	20111031.140728	20111031.140924	8	0.013328	60	10	60-180	60	172	GapExp	Blank	0	19	2	0	0	distractor	1	510	745	189799	13.328	12.880	13.771
ProbeTrack13	3	ProbeTrack	13.2	SCS215a	20111031.140728	20111031.140931	8	0.013328	60	10	60-180	60	122	GapExp	Blank	0	20	2	45	1	target	1	529	736	190535	13.328	12.927	13.716
ProbeTrack13	3	ProbeTrack	13.2	SCS215a	20111031.140728	20111031.140937	8	0.013328	60	10	60-180	60	142	GapExp	Blank	0	21	2	0	0	target	0	867	-1000	189535	13.328	12.975	13.683
ProbeTrack13	3	ProbeTrack	13.2	SCS215a	20111031.140728	20111031.140944	8	0.013328	60	10	60-180	60	61	GapExp	Blank	0	22	2	3	0	distractor	1	615	693	190228	13.328	13.300	13.357
ProbeTrack13	3	ProbeTrack	13.2	SCS215a	20111031.140728	20111031.140949	8	0.013328	60	10	60-180	60	103	GapExp	Blank	0	23	2	0	0	distractor	1	436	782	191010	13.328	12.915	13.756
ProbeTrack13	3	ProbeTrack	13.2	SCS215a	20111031.140728	20111031.140956	8	0.013328	60	10	60-180	60	166	GapExp	Blank	0	24	2	45	1	target	1	691	655	191665	13.328	13.302	13.354
ProbeTrack13	3	ProbeTrack	13.2	SCS215a	20111031.140728	20111031.141003	8	0.013328	60	10	60-180	60	163	GapExp	Blank	0	25	2	3	0	target	0	739	-1000	190665	13.328	13.309	13.344
ProbeTrack13	3	ProbeTrack	13.2	SCS215a	20111031.140728	20111031.141010	8	0.013328	60	10	60-180	60	129	GapExp	Blank	0	26	2	1	1	target	1	421	790	191455	13.328	13.307	13.358
ProbeTrack13	3	ProbeTrack	13.2	SCS215a	20111031.140728	20111031.141016	8	0.013328	60	10	60-180	60	63	GapExp	Blank	0	27	2	3	0	target	0	827	-1000	190455	13.328	13.308	13.349
ProbeTrack13	3	ProbeTrack	13.2	SCS215a	20111031.140728	20111031.141022	8	0.013328	60	10	60-180	60	176	GapExp	Blank	0	28	2	0	1	target	1	521	740	191195	13.328	12.883	13.782
ProbeTrack13	3	ProbeTrack	13.2	SCS215a	20111031.140728	20111031.141029	8	0.013328	60	10	60-180	60	149	GapExp	Blank	0	29	2	45	1	target	1	550	725	191920	13.328	12.904	13.737
ProbeTrack13	3	ProbeTrack	13.2	SCS215a	20111031.140728	20111031.141037	8	0.013328	60	10	60-180	60	167	GapExp	Blank	0	30	2	1	0	distractor	1	578	711	192631	13.328	12.885	13.779
ProbeTrack13	3	ProbeTrack	13.2	SCS215a	20111031.140728	20111031.141044	8	0.013328	60	10	60-180	60	99	GapExp	Blank	0	31	2	45	1	target	1	320	840	193471	13.328	13.298	13.360
ProbeTrack13	3	ProbeTrack	13.2	SCS215a	20111031.140728	20111031.141050	8	0.013328	60	10	60-180	60	93	GapExp	Blank	0	32	2	0	1	target	1	408	796	194267	13.328	13.308	13.344
ProbeTrack13	3	ProbeTrack	13.2	SCS215a	20111031.140728	20111031.141056	8	0.013328	60	10	60-180	60	141	GapExp	Blank	0	33	2	0	1	target	1	258	871	195138	13.328	13.098	13.557
ProbeTrack13	3	ProbeTrack	13.2	SCS215a	20111031.140728	20111031.141102	8	0.013328	60	10	60-180	60	83	GapExp	Blank	0	34	2	45	1	target	1	351	825	195963	13.328	13.112	13.541
ProbeTrack13	3	ProbeTrack	13.2	SCS215a	20111031.140728	20111031.141108	8	0.013328	60	10	60-180	60	100	GapExp	Blank	0	35	2	1	1	target	1	439	781	196744	13.328	13.111	13.544
ProbeTrack13	3	ProbeTrack	13.2	SCS215a	20111031.140728	20111031.141114	8	0.013328	60	10	60-180	60	82	GapExp	Blank	0	36	2	1	1	target	1	405	798	197542	13.328	13.100	13.571
ProbeTrack13	3	ProbeTrack	13.2	SCS215a	20111031.140728	20111031.141119	8	0.013328	60	10	60-180	60	135	GapExp	Blank	0	37	2	45	1	distractor	0	613	-1000	196542	13.328	12.981	13.672
ProbeTrack13	3	ProbeTrack	13.2	SCS215a	20111031.140728	20111031.141126	8	0.013328	60	10	60-180	60	110	GapExp	Blank	0	38	2	45	1	target	1	456	772	197314	13.328	12.893	13.771
ProbeTrack13	3	ProbeTrack	13.2	SCS215a	20111031.140728	20111031.141133	8	0.013328	60	10	60-180	60	160	GapExp	Blank	0	39	2	3	1	target	1	284	858	198172	13.328	13.023	13.619
ProbeTrack13	3	ProbeTrack	13.2	SCS215a	20111031.140728	20111031.141139	8	0.013328	60	10	60-180	60	103	GapExp	Blank	0	40	2	0	1	distractor	0	525	-1000	197172	13.328	12.874	13.774
ProbeTrack13	3	ProbeTrack	13.2	SCS215a	20111031.140728	20111031.141146	8	0.013328	60	10	60-180	60	158	GapExp	Blank	0	41	2	45	1	target	1	456	772	197944	13.328	12.863	13.792
ProbeTrack13	3	ProbeTrack	13.2	SCS215a	20111031.140728	20111031.141153	8	0.013328	60	10	60-180	60	84	GapExp	Blank	0	42	2	3	0	target	0	351	-1000	196944	13.328	12.846	13.821
ProbeTrack13	3	ProbeTrack	13.2	SCS215a	20111031.140728	20111031.141158	8	0.013328	60	10	60-180	60	61	GapExp	Blank	0	43	2	0	0	distractor	1	540	730	197674	13.328	13.184	13.480
ProbeTrack13	3	ProbeTrack	13.2	SCS215a	20111031.140728	20111031.141204	8	0.013328	60	10	60-180	60	68	GapExp	Blank	0	44	2	1	0	distractor	1	617	692	198366	13.328	12.916	13.740
ProbeTrack13	3	ProbeTrack	13.2	SCS215a	20111031.140728	20111031.141209	8	0.013328	60	10	60-180	60	130	GapExp	Blank	0	45	2	3	0	distractor	1	499	751	199117	13.328	13.306	13.348
ProbeTrack13	3	ProbeTrack	13.2	SCS215a	20111031.140728	20111031.141215	8	0.013328	60	10	60-180	60	153	GapExp	Blank	0	46	2	1	1	target	1	499	751	199868	13.328	12.893	13.771
ProbeTrack13	3	ProbeTrack	13.2	SCS215a	20111031.140728	20111031.141222	8	0.013328	60	10	60-180	60	84	GapExp	Blank	0	47	2	3	0	target	0	507	-1000	198868	13.328	13.041	13.602
ProbeTrack13	3	ProbeTrack	13.2	SCS215a	20111031.140728	20111031.141227	8	0.013328	60	10	60-180	60	120	GapExp	Blank	0	48	2	1	0	distractor	1	444	778	199646	13.328	12.847	13.808
ProbeTrack13	3	ProbeTrack	13.2	SCS215a	20111031.140728	20111031.141233	8	0.013328	60	10	60-180	60	94	GapExp	Blank	0	49	2	3	1	target	1	426	787	200433	13.328	12.857	13.793
ProbeTrack13	3	ProbeTrack	13.2	SCS215a	20111031.140728	20111031.141239	8	0.013328	60	10	60-180	60	85	GapExp	Blank	0	50	2	45	0	distractor	1	508	746	201179	13.328	13.116	13.539
ProbeTrack13	3	ProbeTrack	13.2	SCS215a	20111031.140728	20111031.141245	8	0.013328	60	10	60-180	60	90	GapExp	Blank	0	51	2	3	0	target	0	512	-1000	200179	13.328	12.900	13.763
ProbeTrack13	3	ProbeTrack	13.2	SCS215a	20111031.140728	20111031.141251	8	0.013328	60	10	60-180	60	179	GapExp	Blank	0	52	2	1	1	target	1	510	745	200924	13.328	13.302	13.347
ProbeTrack13	3	ProbeTrack	13.2	SCS215a	20111031.140728	20111031.141258	8	0.013328	60	10	60-180	60	176	GapExp	Blank	0	53	2	0	1	target	1	290	855	201779	13.328	13.178	13.485
ProbeTrack13	3	ProbeTrack	13.2	SCS215a	20111031.140728	20111031.141304	8	0.013328	60	10	60-180	60	126	GapExp	Blank	0	54	2	45	0	target	0	397	-1000	200779	13.328	13.308	13.346
ProbeTrack13	3	ProbeTrack	13.2	SCS215a	20111031.140728	20111031.141311	8	0.013328	60	10	60-180	60	84	GapExp	Blank	0	55	2	3	1	target	1	537	732	201511	13.328	13.308	13.349
ProbeTrack13	3	ProbeTrack	13.2	SCS215a	20111031.140728	20111031.141317	8	0.013328	60	10	60-180	60	83	GapExp	Blank	0	56	2	1	1	target	1	459	771	202282	13.328	12.936	13.719
ProbeTrack13	3	ProbeTrack	13.2	SCS215a	20111031.140728	20111031.141322	8	0.013328	60	10	60-180	60	178	GapExp	Blank	0	57	2	1	0	target	0	338	-1000	201282	13.328	12.967	13.683
ProbeTrack13	3	ProbeTrack	13.2	SCS215a	20111031.140728	20111031.141329	8	0.013328	60	10	60-180	60	141	GapExp	Blank	0	58	2	1	0	target	0	566	-1000	200282	13.328	13.100	13.551
ProbeTrack13	3	ProbeTrack	13.2	SCS215a	20111031.140728	20111031.141335	8	0.013328	60	10	60-180	60	74	GapExp	Blank	0	59	2	45	0	target	0	471	-1000	199282	13.328	12.901	13.756
ProbeTrack13	3	ProbeTrack	13.2	SCS215a	20111031.140728	20111031.141341	8	0.013328	60	10	60-180	60	178	GapExp	Blank	0	60	2	0	0	distractor	1	405	798	200080	13.328	13.097	13.559
ProbeTrack13	3	ProbeTrack	13.2	SCS215a	20111031.140728	20111031.141348	8	0.013328	60	10	60-180	60	145	GapExp	Blank	0	61	2	1	0	target	0	638	-1000	199080	13.328	13.108	13.560
ProbeTrack13	3	ProbeTrack	13.2	SCS215a	20111031.140728	20111031.141355	8	0.013328	60	10	60-180	60	84	GapExp	Blank	0	62	2	1	0	distractor	1	507	747	199827	13.328	13.033	13.625
ProbeTrack13	3	ProbeTrack	13.2	SCS215a	20111031.140728	20111031.141401	8	0.013328	60	10	60-180	60	75	GapExp	Blank	0	63	2	1	0	target	0	579	-1000	198827	13.328	13.301	13.344
ProbeTrack13	3	ProbeTrack	13.2	SCS215a	20111031.140728	20111031.141406	8	0.013328	60	10	60-180	60	173	GapExp	Blank	0	64	2	1	1	target	1	359	821	199648	13.328	13.304	13.347
ProbeTrack13	3	ProbeTrack	13.2	SCS215a	20111031.140728	20111031.141413	8	0.013328	60	10	60-180	60	148	GapExp	Blank	0	65	2	1	0	distractor	1	909	546	200194	13.328	13.305	13.358
ProbeTrack13	3	ProbeTrack	13.2	SCS215a	20111031.140728	20111031.141421	8	0.013328	60	10	60-180	60	168	GapExp	Blank	0	66	2	1	0	distractor	1	702	649	200843	13.328	13.302	13.360
ProbeTrack13	3	ProbeTrack	13.2	SCS215a	20111031.140728	20111031.141428	8	0.013328	60	10	60-180	60	131	GapExp	Blank	0	67	2	45	1	target	1	508	746	201589	13.328	13.012	13.631
ProbeTrack13	3	ProbeTrack	13.2	SCS215a	20111031.140728	20111031.141435	8	0.013328	60	10	60-180	60	123	GapExp	Blank	0	68	2	45	0	target	0	487	-1000	200589	13.328	13.305	13.350
ProbeTrack13	3	ProbeTrack	13.2	SCS215a	20111031.140728	20111031.141441	8	0.013328	60	10	60-180	60	80	GapExp	Blank	0	69	2	3	1	target	1	518	741	201330	13.328	12.989	13.662
ProbeTrack13	3	ProbeTrack	13.2	SCS215a	20111031.140728	20111031.141447	8	0.013328	60	10	60-180	60	145	GapExp	Blank	0	70	2	3	0	distractor	1	466	767	202097	13.328	12.951	13.707
ProbeTrack13	3	ProbeTrack	13.2	SCS215a	20111031.140728	20111031.141454	8	0.013328	60	10	60-180	60	109	GapExp	Blank	0	71	2	1	1	target	1	380	810	202907	13.328	13.095	13.560
ProbeTrack13	3	ProbeTrack	13.2	SCS215a	20111031.140728	20111031.141459	8	0.013328	60	10	60-180	60	167	GapExp	Blank	0	72	2	3	1	target	1	415	793	203700	13.328	13.104	13.551
ProbeTrack13	3	ProbeTrack	13.2	SCS215a	20111031.140728	20111031.141506	8	0.013328	60	10	60-180	60	128	GapExp	Blank	0	73	2	0	1	target	1	325	838	204538	13.328	12.936	13.740
ProbeTrack13	3	ProbeTrack	13.2	SCS215a	20111031.140728	20111031.141512	8	0.013328	60	10	60-180	60	141	GapExp	Blank	0	74	2	0	1	target	1	415	793	205331	13.328	12.912	13.744
ProbeTrack13	3	ProbeTrack	13.2	SCS215a	20111031.140728	20111031.141518	8	0.013328	60	10	60-180	60	104	GapExp	Blank	0	75	2	1	0	distractor	1	471	765	206096	13.328	13.302	13.349
ProbeTrack13	3	ProbeTrack	13.2	SCS215a	20111031.140728	20111031.141524	8	0.013328	60	10	60-180	60	73	GapExp	Blank	0	76	2	0	1	target	1	737	632	206728	13.328	13.162	13.530
ProbeTrack13	3	ProbeTrack	13.2	SCS215a	20111031.140728	20111031.141529	8	0.013328	60	10	60-180	60	150	GapExp	Blank	0	77	2	3	1	target	1	369	816	207544	13.328	12.904	13.751
ProbeTrack13	3	ProbeTrack	13.2	SCS215a	20111031.140728	20111031.141535	8	0.013328	60	10	60-180	60	103	GapExp	Blank	0	78	2	1	1	target	1	354	823	208367	13.328	12.910	13.749
ProbeTrack13	3	ProbeTrack	13.2	SCS215a	20111031.140728	20111031.141541	8	0.013328	60	10	60-180	60	177	GapExp	Blank	0	79	2	1	1	target	1	530	735	209102	13.328	12.901	13.761
ProbeTrack13	3	ProbeTrack	13.2	SCS215a	20111031.140728	20111031.141548	8	0.013328	60	10	60-180	60	78	GapExp	Blank	0	80	2	3	1	distractor	0	692	-1000	208102	13.328	13.301	13.359
ProbeTrack13	3	ProbeTrack	13.2	SCS215a	20111031.140728	20111031.141553	8	0.013328	60	10	60-180	60	66	GapExp	Blank	0	81	2	45	0	distractor	1	694	653	208755	13.328	13.312	13.349
ProbeTrack13	3	ProbeTrack	13.2	SCS215a	20111031.140728	20111031.141600	8	0.013328	60	10	60-180	60	137	GapExp	Blank	0	82	2	0	1	target	1	418	791	209546	13.328	12.964	13.691
ProbeTrack13	3	ProbeTrack	13.2	SCS215a	20111031.140728	20111031.141606	8	0.013328	60	10	60-180	60	151	GapExp	Blank	0	83	2	3	1	target	1	469	766	210312	13.328	12.856	13.781
ProbeTrack13	3	ProbeTrack	13.2	SCS215a	20111031.140728	20111031.141613	8	0.013328	60	10	60-180	60	65	GapExp	Blank	0	84	2	1	0	target	0	486	-1000	209312	13.328	13.296	13.367
ProbeTrack13	3	ProbeTrack	13.2	SCS215a	20111031.140728	20111031.141618	8	0.013328	60	10	60-180	60	79	GapExp	Blank	0	85	2	1	0	distractor	1	645	678	209990	13.328	13.118	13.539
ProbeTrack13	3	ProbeTrack	13.2	SCS215a	20111031.140728	20111031.141623	8	0.013328	60	10	60-180	60	147	GapExp	Blank	0	86	2	1	0	distractor	1	501	750	210740	13.328	13.200	13.469
ProbeTrack13	3	ProbeTrack	13.2	SCS215a	20111031.140728	20111031.141630	8	0.013328	60	10	60-180	60	141	GapExp	Blank	0	87	2	0	1	target	1	287	857	211597	13.328	13.098	13.537
ProbeTrack13	3	ProbeTrack	13.2	SCS215a	20111031.140728	20111031.141636	8	0.013328	60	10	60-180	60	139	GapExp	Blank	0	88	2	0	0	target	0	327	-1000	210597	13.327	13.139	13.487
ProbeTrack13	3	ProbeTrack	13.2	SCS215a	20111031.140728	20111031.141642	8	0.013328	60	10	60-180	60	69	GapExp	Blank	0	89	2	45	0	distractor	1	554	723	211320	13.328	13.095	13.574
ProbeTrack13	3	ProbeTrack	13.2	SCS215a	20111031.140728	20111031.141648	8	0.013328	60	10	60-180	60	105	GapExp	Blank	0	90	2	45	1	distractor	0	355	-1000	210320	13.328	12.890	13.773
ProbeTrack13	3	ProbeTrack	13.2	SCS215a	20111031.140728	20111031.141654	8	0.013328	60	10	60-180	60	146	GapExp	Blank	0	91	2	0	1	target	1	300	850	211170	13.328	13.307	13.346
ProbeTrack13	3	ProbeTrack	13.2	SCS215a	20111031.140728	20111031.141701	8	0.013328	60	10	60-180	60	83	GapExp	Blank	0	92	2	1	1	target	1	361	820	211990	13.328	13.309	13.345
ProbeTrack13	3	ProbeTrack	13.2	SCS215a	20111031.140728	20111031.141707	8	0.013328	60	10	60-180	60	123	GapExp	Blank	0	93	2	0	0	target	0	424	-1000	210990	13.328	12.931	13.741
ProbeTrack13	3	ProbeTrack	13.2	SCS215a	20111031.140728	20111031.141713	8	0.013328	60	10	60-180	60	149	GapExp	Blank	0	94	2	3	0	distractor	1	394	803	211793	13.328	13.088	13.563
ProbeTrack13	3	ProbeTrack	13.2	SCS215a	20111031.140728	20111031.141719	8	0.013328	60	10	60-180	60	158	GapExp	Blank	0	95	2	1	0	distractor	1	730	635	212428	13.328	13.101	13.558
ProbeTrack13	3	ProbeTrack	13.2	SCS215a	20111031.140728	20111031.141725	8	0.013328	60	10	60-180	60	145	GapExp	Blank	0	96	2	0	0	distractor	1	518	741	213169	13.328	13.101	13.557
ProbeTrack13	3	ProbeTrack	13.2	SCS215a	20111031.140728	20111031.141732	8	0.013328	60	10	60-180	60	118	GapExp	Blank	0	97	2	45	0	distractor	1	660	670	213839	13.328	12.898	13.732
ProbeTrack13	3	ProbeTrack	13.2	SCS215a	20111031.140728	20111031.141739	8	0.013328	60	10	60-180	60	65	GapExp	Blank	0	98	2	1	0	distractor	1	619	691	214530	13.328	12.900	13.759
ProbeTrack13	3	ProbeTrack	13.2	SCS215a	20111031.140728	20111031.141744	8	0.013328	60	10	60-180	60	63	GapExp	Blank	0	99	2	0	1	distractor	0	624	-1000	213530	13.328	13.308	13.349
ProbeTrack13	3	ProbeTrack	13.2	SCS215a	20111031.140728	20111031.141749	8	0.013328	60	10	60-180	60	74	GapExp	Blank	0	100	2	3	1	target	1	493	754	214284	13.328	13.051	13.620
ProbeTrack13	3	ProbeTrack	13.2	SCS215a	20111031.140728	20111031.141755	8	0.013328	60	10	60-180	60	85	GapExp	Blank	0	101	2	1	0	distractor	1	457	772	215056	13.328	13.099	13.564
ProbeTrack13	3	ProbeTrack	13.2	SCS215a	20111031.140728	20111031.141800	8	0.013328	60	10	60-180	60	87	GapExp	Blank	0	102	2	1	1	target	1	450	775	215831	13.328	12.956	13.694
ProbeTrack13	3	ProbeTrack	13.2	SCS215a	20111031.140728	20111031.141806	8	0.013328	60	10	60-180	60	121	GapExp	Blank	0	103	2	0	1	target	1	278	861	216692	13.327	13.195	13.348
ProbeTrack13	3	ProbeTrack	13.2	SCS215a	20111031.140728	20111031.141811	8	0.013328	60	10	60-180	60	179	GapExp	Blank	0	104	2	3	0	target	0	284	-1000	215692	13.328	12.991	13.682
ProbeTrack13	3	ProbeTrack	13.2	SCS215a	20111031.140728	20111031.141818	8	0.013328	60	10	60-180	60	129	GapExp	Blank	0	105	2	3	0	distractor	1	691	655	216347	13.328	12.875	13.770
ProbeTrack13	3	ProbeTrack	13.2	SCS215a	20111031.140728	20111031.141824	8	0.013328	60	10	60-180	60	122	GapExp	Blank	0	106	2	45	0	distractor	1	659	671	217018	13.328	13.105	13.548
ProbeTrack13	3	ProbeTrack	13.2	SCS215a	20111031.140728	20111031.141831	8	0.013328	60	10	60-180	60	172	GapExp	Blank	0	107	2	3	1	target	1	329	836	217854	13.328	12.923	13.740
ProbeTrack13	3	ProbeTrack	13.2	SCS215a	20111031.140728	20111031.141838	8	0.013328	60	10	60-180	60	133	GapExp	Blank	0	108	2	3	0	target	0	664	-1000	216854	13.328	12.978	13.680
ProbeTrack13	3	ProbeTrack	13.2	SCS215a	20111031.140728	20111031.141844	8	0.013328	60	10	60-180	60	135	GapExp	Blank	0	109	2	0	0	distractor	1	822	589	217443	13.328	13.105	13.556
ProbeTrack13	3	ProbeTrack	13.2	SCS215a	20111031.140728	20111031.141851	8	0.013328	60	10	60-180	60	165	GapExp	Blank	0	110	2	45	1	target	1	432	784	218227	13.328	13.094	13.562
ProbeTrack13	3	ProbeTrack	13.2	SCS215a	20111031.140728	20111031.141858	8	0.013328	60	10	60-180	60	101	GapExp	Blank	0	111	2	3	1	target	1	456	772	218999	13.328	13.106	13.537
ProbeTrack13	3	ProbeTrack	13.2	SCS215a	20111031.140728	20111031.141904	8	0.013328	60	10	60-180	60	117	GapExp	Blank	0	112	2	45	1	target	1	364	818	219817	13.328	13.111	13.559
ProbeTrack13	3	ProbeTrack	13.2	SCS215a	20111031.140728	20111031.141911	8	0.013328	60	10	60-180	60	134	GapExp	Blank	0	113	2	45	0	distractor	1	523	739	220556	13.328	13.107	13.549
ProbeTrack13	3	ProbeTrack	13.2	SCS215a	20111031.140728	20111031.141917	8	0.013328	60	10	60-180	60	95	GapExp	Blank	0	114	2	0	0	target	0	512	-1000	219556	13.328	13.143	13.513
ProbeTrack13	3	ProbeTrack	13.2	SCS215a	20111031.140728	20111031.141923	8	0.013328	60	10	60-180	60	121	GapExp	Blank	0	115	2	45	0	distractor	1	457	772	220328	13.328	13.108	13.531
ProbeTrack13	3	ProbeTrack	13.2	SCS215a	20111031.140728	20111031.141929	8	0.013328	60	10	60-180	60	171	GapExp	Blank	0	116	2	0	0	distractor	1	518	741	221069	13.328	12.953	13.684
ProbeTrack13	3	ProbeTrack	13.2	SCS215a	20111031.140728	20111031.141936	8	0.013328	60	10	60-180	60	74	GapExp	Blank	0	117	2	45	0	distractor	1	550	725	221794	13.328	13.297	13.354
ProbeTrack13	3	ProbeTrack	13.2	SCS215a	20111031.140728	20111031.141943	8	0.013328	60	10	60-180	60	141	GapExp	Blank	0	118	2	45	0	distractor	1	641	680	222474	13.328	13.294	13.362
ProbeTrack13	3	ProbeTrack	13.2	SCS215a	20111031.140728	20111031.141949	8	0.013328	60	10	60-180	60	79	GapExp	Blank	0	119	2	45	1	target	1	472	764	223238	13.328	13.002	13.638
ProbeTrack13	3	ProbeTrack	13.2	SCS215a	20111031.140728	20111031.141956	8	0.013328	60	10	60-180	60	120	GapExp	Blank	0	120	2	0	0	distractor	1	614	693	223931	13.328	12.881	13.788
ProbeTrack13	3	ProbeTrack	13.2	SCS215a	20111031.140728	20111031.142002	8	0.013328	60	10	60-180	60	99	GapExp	Blank	0	121	2	3	1	target	1	1058	471	224402	13.328	12.886	13.794
ProbeTrack13	3	ProbeTrack	13.2	SCS215a	20111031.140728	20111031.142008	8	0.013328	60	10	60-180	60	156	GapExp	Blank	0	122	2	0	0	distractor	1	466	767	225169	13.328	13.099	13.558
ProbeTrack13	3	ProbeTrack	13.2	SCS215a	20111031.140728	20111031.142015	8	0.013328	60	10	60-180	60	179	GapExp	Blank	0	123	2	1	1	target	1	228	886	226055	13.328	12.858	13.797
ProbeTrack13	3	ProbeTrack	13.2	SCS215a	20111031.140728	20111031.142021	8	0.013328	60	10	60-180	60	157	GapExp	Blank	0	124	2	0	1	target	1	334	833	226888	13.328	13.308	13.346
ProbeTrack13	3	ProbeTrack	13.2	SCS215a	20111031.140728	20111031.142028	8	0.013328	60	10	60-180	60	70	GapExp	Blank	0	125	2	0	1	target	1	313	844	227732	13.328	13.288	13.383
ProbeTrack13	3	ProbeTrack	13.2	SCS215a	20111031.140728	20111031.142036	8	0.013328	60	10	60-180	60	118	GapExp	Blank	0	126	2	3	1	target	1	294	853	228585	13.328	13.019	13.643
ProbeTrack13	3	ProbeTrack	13.2	SCS215a	20111031.140728	20111031.142042	8	0.013328	60	10	60-180	60	138	GapExp	Blank	0	127	2	1	1	target	1	398	801	229386	13.328	13.119	13.552
ProbeTrack13	3	ProbeTrack	13.2	SCS215a	20111031.140728	20111031.142048	8	0.013328	60	10	60-180	60	168	GapExp	Blank	0	128	2	45	0	target	0	373	-1000	228386	13.328	12.951	13.693
ProbeTrack13	3	ProbeTrack	13.2	SCS215a	20111031.140728	20111031.142055	8	0.013328	60	10	60-180	60	92	GapExp	Blank	0	129	2	0	1	target	1	347	827	229213	13.328	13.022	13.636
ProbeTrack13	3	ProbeTrack	13.2	SCS215a	20111031.140728	20111031.142101	8	0.013328	60	10	60-180	60	124	GapExp	Blank	0	130	2	45	0	target	0	531	-1000	228213	13.328	12.976	13.686
ProbeTrack13	3	ProbeTrack	13.2	SCS215a	20111031.140728	20111031.142107	8	0.013328	60	10	60-180	60	65	GapExp	Blank	0	131	2	3	0	distractor	1	607	697	228910	13.328	13.308	13.353
ProbeTrack13	3	ProbeTrack	13.2	SCS215a	20111031.140728	20111031.142112	8	0.013328	60	10	60-180	60	66	GapExp	Blank	0	132	2	45	1	distractor	0	737	-1000	227910	13.328	13.107	13.550
ProbeTrack13	3	ProbeTrack	13.2	SCS215a	20111031.140728	20111031.142119	8	0.013328	60	10	60-180	60	113	GapExp	Blank	0	133	2	0	1	target	1	422	789	228699	13.328	12.944	13.742
ProbeTrack13	3	ProbeTrack	13.2	SCS215a	20111031.140728	20111031.142124	8	0.013328	60	10	60-180	60	150	GapExp	Blank	0	134	2	0	0	target	0	228	-1000	227699	13.328	13.103	13.565
ProbeTrack13	3	ProbeTrack	13.2	SCS215a	20111031.140728	20111031.142131	8	0.013328	60	10	60-180	60	156	GapExp	Blank	0	135	2	3	1	target	1	458	771	228470	13.328	13.028	13.629
ProbeTrack13	3	ProbeTrack	13.2	SCS215a	20111031.140728	20111031.142137	8	0.013328	60	10	60-180	60	89	GapExp	Blank	0	136	2	45	1	distractor	0	593	-1000	227470	13.328	12.990	13.686
ProbeTrack13	3	ProbeTrack	13.2	SCS215a	20111031.140728	20111031.142144	8	0.013328	60	10	60-180	60	147	GapExp	Blank	0	137	2	45	0	distractor	1	534	733	228203	13.328	13.113	13.551
ProbeTrack13	3	ProbeTrack	13.2	SCS215a	20111031.140728	20111031.142151	8	0.013328	60	10	60-180	60	76	GapExp	Blank	0	138	2	3	0	distractor	1	745	628	228831	13.328	13.271	13.371
ProbeTrack13	3	ProbeTrack	13.2	SCS215a	20111031.140728	20111031.142157	8	0.013328	60	10	60-180	60	120	GapExp	Blank	0	139	2	0	0	target	0	330	-1000	227831	13.328	13.021	13.703
ProbeTrack13	3	ProbeTrack	13.2	SCS215a	20111031.140728	20111031.142203	8	0.013328	60	10	60-180	60	124	GapExp	Blank	0	140	2	1	1	target	1	481	760	228591	13.328	13.139	13.695
ProbeTrack13	3	ProbeTrack	13.2	SCS215a	20111031.140728	20111031.142209	8	0.013328	60	10	60-180	60	69	GapExp	Blank	0	141	2	45	0	distractor	1	671	665	229256	13.328	13.306	13.348
ProbeTrack13	3	ProbeTrack	13.2	SCS215a	20111031.140728	20111031.142216	8	0.013328	60	10	60-180	60	160	GapExp	Blank	0	142	2	45	0	distractor	1	523	739	229995	13.328	13.008	13.634
ProbeTrack13	3	ProbeTrack	13.2	SCS215a	20111031.140728	20111031.142223	8	0.013328	60	10	60-180	60	110	GapExp	Blank	0	143	2	3	1	target	1	859	571	230566	13.328	13.213	13.446
ProbeTrack13	3	ProbeTrack	13.2	SCS215a	20111031.140728	20111031.142229	8	0.013328	60	10	60-180	60	126	GapExp	Blank	0	144	2	0	1	target	1	264	868	231434	13.385	12.927	26.641
ProbeTrack13	3	ProbeTrack	13.2	SCS215a	20111031.140728	20111031.142235	8	0.013328	60	10	60-180	60	92	GapExp	Blank	0	145	2	45	1	target	1	343	829	232263	13.328	12.986	13.667
ProbeTrack13	3	ProbeTrack	13.2	SCS215a	20111031.140728	20111031.142241	8	0.013328	60	10	60-180	60	162	GapExp	Blank	0	146	2	3	0	distractor	1	555	723	232986	13.328	13.099	13.549
ProbeTrack13	3	ProbeTrack	13.2	SCS215a	20111031.140728	20111031.142248	8	0.013328	60	10	60-180	60	86	GapExp	Blank	0	147	2	45	1	target	1	497	752	233738	13.328	13.091	13.549
ProbeTrack13	3	ProbeTrack	13.2	SCS215a	20111031.140728	20111031.142254	8	0.013328	60	10	60-180	60	143	GapExp	Blank	0	148	2	3	0	target	0	385	-1000	232738	13.328	13.185	13.441
ProbeTrack13	3	ProbeTrack	13.2	SCS215a	20111031.140728	20111031.142300	8	0.013328	60	10	60-180	60	168	GapExp	Blank	0	149	2	0	0	target	0	442	-1000	231738	13.328	13.223	13.456
ProbeTrack13	3	ProbeTrack	13.2	SCS215a	20111031.140728	20111031.142306	8	0.013328	60	10	60-180	60	171	GapExp	Blank	0	150	2	1	1	target	1	343	829	232567	13.328	13.307	13.348
ProbeTrack13	3	ProbeTrack	13.2	SCS215a	20111031.140728	20111031.142313	8	0.013328	60	10	60-180	60	130	GapExp	Blank	0	151	2	3	1	target	1	570	715	233282	13.328	13.197	13.467
ProbeTrack13	3	ProbeTrack	13.2	SCS215a	20111031.140728	20111031.142319	8	0.013328	60	10	60-180	60	107	GapExp	Blank	0	152	2	45	0	early	-4	-303	-1000	232282	13.328	12.905	13.750
ProbeTrack13	3	ProbeTrack	13.2	SCS215a	20111031.140728	20111031.142326	8	0.013328	60	10	60-180	60	88	GapExp	Blank	0	153	2	3	0	distractor	1	659	671	232953	13.328	13.308	13.348
ProbeTrack13	3	ProbeTrack	13.2	SCS215a	20111031.140728	20111031.142332	8	0.013328	60	10	60-180	60	113	GapExp	Blank	0	154	2	0	0	target	0	560	-1000	231953	13.328	13.104	13.552
ProbeTrack13	3	ProbeTrack	13.2	SCS215a	20111031.140728	20111031.142339	8	0.013328	60	10	60-180	60	146	GapExp	Blank	0	155	2	45	1	target	1	386	807	232760	13.328	13.308	13.349
ProbeTrack13	3	ProbeTrack	13.2	SCS215a	20111031.140728	20111031.142346	8	0.013328	60	10	60-180	60	163	GapExp	Blank	0	156	2	45	0	distractor	1	646	677	233437	13.328	13.098	13.555
ProbeTrack13	3	ProbeTrack	13.2	SCS215a	20111031.140728	20111031.142353	8	0.013328	60	10	60-180	60	86	GapExp	Blank	0	157	2	45	0	distractor	1	520	740	234177	13.328	12.861	13.783
ProbeTrack13	3	ProbeTrack	13.2	SCS215a	20111031.140728	20111031.142400	8	0.013328	60	10	60-180	60	176	GapExp	Blank	0	158	2	3	1	target	1	348	826	235003	13.328	13.022	13.641
ProbeTrack13	3	ProbeTrack	13.2	SCS215a	20111031.140728	20111031.142407	8	0.013328	60	10	60-180	60	113	GapExp	Blank	0	159	2	0	0	distractor	1	723	639	235642	13.328	13.100	13.556
ProbeTrack13	3	ProbeTrack	13.2	SCS215a	20111031.140728	20111031.142413	8	0.013328	60	10	60-180	60	115	GapExp	Blank	0	160	2	3	1	target	1	473	764	236406	13.328	13.299	13.351
ProbeTrack13	3	ProbeTrack	13.2	SCS215a	20111031.140728	20111031.142419	8	0.013328	60	10	60-180	60	132	GapExp	Blank	0	161	2	3	1	target	1	553	724	237130	13.328	13.084	13.564
ProbeTrack13	3	ProbeTrack	13.2	SCS215a	20111031.140728	20111031.142425	8	0.013328	60	10	60-180	60	167	GapExp	Blank	0	162	2	1	0	distractor	1	517	742	237872	13.328	13.079	13.569
ProbeTrack13	3	ProbeTrack	13.2	SCS215a	20111031.140728	20111031.142432	8	0.013328	60	10	60-180	60	159	GapExp	Blank	0	163	2	1	1	target	1	327	837	238709	13.328	13.112	13.551
ProbeTrack13	3	ProbeTrack	13.2	SCS215a	20111031.140728	20111031.142439	8	0.013328	60	10	60-180	60	170	GapExp	Blank	0	164	2	1	0	distractor	1	564	718	239427	13.328	13.093	13.550
ProbeTrack13	3	ProbeTrack	13.2	SCS215a	20111031.140728	20111031.142446	8	0.013328	60	10	60-180	60	117	GapExp	Blank	0	165	2	3	0	distractor	1	559	721	240148	13.328	12.920	13.749
ProbeTrack13	3	ProbeTrack	13.2	SCS215a	20111031.140728	20111031.142452	8	0.013328	60	10	60-180	60	83	GapExp	Blank	0	166	2	45	0	distractor	1	498	751	240899	13.328	13.308	13.348
ProbeTrack13	3	ProbeTrack	13.2	SCS215a	20111031.140728	20111031.142457	8	0.013328	60	10	60-180	60	77	GapExp	Blank	0	167	2	45	0	target	0	540	-1000	239899	13.328	13.020	13.641
ProbeTrack13	3	ProbeTrack	13.2	SCS215a	20111031.140728	20111031.142504	8	0.013328	60	10	60-180	60	92	GapExp	Blank	0	168	2	1	1	target	1	600	700	240599	13.328	12.900	13.758
ProbeTrack13	3	ProbeTrack	13.2	SCS215a	20111031.140728	20111031.142510	8	0.013328	60	10	60-180	60	162	GapExp	Blank	0	169	2	1	1	target	1	404	798	241397	13.328	13.099	13.557
ProbeTrack13	3	ProbeTrack	13.2	SCS215a	20111031.140728	20111031.142516	8	0.013328	60	10	60-180	60	160	GapExp	Blank	0	170	2	1	1	target	1	429	786	242183	13.328	12.926	13.744
ProbeTrack13	3	ProbeTrack	13.2	SCS215a	20111031.140728	20111031.142523	8	0.013328	60	10	60-180	60	167	GapExp	Blank	0	171	2	1	1	target	1	356	822	243005	13.328	13.113	13.550
ProbeTrack13	3	ProbeTrack	13.2	SCS215a	20111031.140728	20111031.142529	8	0.013328	60	10	60-180	60	172	GapExp	Blank	0	172	2	45	1	target	1	446	777	243782	13.328	12.869	13.790
ProbeTrack13	3	ProbeTrack	13.2	SCS215a	20111031.140728	20111031.142537	8	0.013328	60	10	60-180	60	136	GapExp	Blank	0	173	2	0	1	target	1	307	847	244629	13.328	13.105	13.553
ProbeTrack13	3	ProbeTrack	13.2	SCS215a	20111031.140728	20111031.142543	8	0.013328	60	10	60-180	60	175	GapExp	Blank	0	174	2	3	1	target	1	407	797	245426	13.328	13.105	13.552
ProbeTrack13	3	ProbeTrack	13.2	SCS215a	20111031.140728	20111031.142549	8	0.013328	60	10	60-180	60	149	GapExp	Blank	0	175	2	0	1	target	1	361	820	246246	13.328	12.844	13.806
ProbeTrack13	3	ProbeTrack	13.2	SCS215a	20111031.140728	20111031.142555	8	0.013328	60	10	60-180	60	92	GapExp	Blank	0	176	2	1	0	distractor	1	492	754	247000	13.328	13.097	13.545
ProbeTrack13	3	ProbeTrack	13.2	SCS215a	20111031.140728	20111031.142601	8	0.013328	60	10	60-180	60	82	GapExp	Blank	0	177	2	1	0	distractor	1	449	776	247776	13.328	13.304	13.357
ProbeTrack13	3	ProbeTrack	13.2	SCS215a	20111031.140728	20111031.142606	8	0.013328	60	10	60-180	60	65	GapExp	Blank	0	178	2	0	1	target	1	344	828	248604	13.328	13.100	13.555
ProbeTrack13	3	ProbeTrack	13.2	SCS215a	20111031.140728	20111031.142612	8	0.013328	60	10	60-180	60	122	GapExp	Blank	0	179	2	1	0	distractor	1	509	746	249350	13.328	12.876	13.774
ProbeTrack13	3	ProbeTrack	13.2	SCS215a	20111031.140728	20111031.142618	8	0.013328	60	10	60-180	60	64	GapExp	Blank	0	180	2	3	1	target	1	486	757	250107	13.328	13.306	13.347
ProbeTrack13	3	ProbeTrack	13.2	SCS215a	20111031.140728	20111031.142623	8	0.013328	60	10	60-180	60	155	GapExp	Blank	0	181	2	0	0	target	0	433	-1000	249107	13.328	13.295	13.371
ProbeTrack13	3	ProbeTrack	13.2	SCS215a	20111031.140728	20111031.142629	8	0.013328	60	10	60-180	60	104	GapExp	Blank	0	182	2	45	1	target	1	605	698	249805	13.328	13.307	13.348
ProbeTrack13	3	ProbeTrack	13.2	SCS215a	20111031.140728	20111031.142636	8	0.013328	60	10	60-180	60	121	GapExp	Blank	0	183	2	45	1	target	1	344	828	250633	13.328	12.961	13.697
ProbeTrack13	3	ProbeTrack	13.2	SCS215a	20111031.140728	20111031.142643	8	0.013328	60	10	60-180	60	83	GapExp	Blank	0	184	2	3	0	target	0	270	-1000	249633	13.328	13.277	13.372
ProbeTrack13	3	ProbeTrack	13.2	SCS215a	20111031.140728	20111031.142648	8	0.013328	60	10	60-180	60	126	GapExp	Blank	0	185	2	45	1	target	1	379	811	250444	13.328	13.120	13.544
ProbeTrack13	3	ProbeTrack	13.2	SCS215a	20111031.140728	20111031.142654	8	0.013328	60	10	60-180	60	63	GapExp	Blank	0	186	2	0	1	target	1	415	793	251237	13.328	13.100	13.557
ProbeTrack13	3	ProbeTrack	13.2	SCS215a	20111031.140728	20111031.142659	8	0.013328	60	10	60-180	60	180	GapExp	Blank	0	187	2	1	0	distractor	1	427	787	252024	13.328	13.298	13.372
ProbeTrack13	3	ProbeTrack	13.2	SCS215a	20111031.140728	20111031.142706	8	0.013328	60	10	60-180	60	130	GapExp	Blank	0	188	2	1	1	target	1	311	845	252869	13.328	12.896	13.771
ProbeTrack13	3	ProbeTrack	13.2	SCS215a	20111031.140728	20111031.142712	8	0.013328	60	10	60-180	60	155	GapExp	Blank	0	189	2	0	0	target	0	910	-1000	251869	13.328	13.307	13.348
ProbeTrack13	3	ProbeTrack	13.2	SCS215a	20111031.140728	20111031.142719	8	0.013328	60	10	60-180	60	104	GapExp	Blank	0	190	2	3	0	distractor	1	787	607	252476	13.328	12.871	13.792
ProbeTrack13	3	ProbeTrack	13.2	SCS215a	20111031.140728	20111031.142725	8	0.013328	60	10	60-180	60	167	GapExp	Blank	0	191	2	3	0	distractor	1	629	686	253162	13.328	13.305	13.352
ProbeTrack13	3	ProbeTrack	13.2	SCS215a	20111031.140728	20111031.142732	8	0.013328	60	10	60-180	60	167	GapExp	Blank	0	192	2	0	0	early	-4	-1086	-1000	252162	13.328	13.252	13.395
ProbeTrack13	3	ProbeTrack	13.2	SCS215a	20111031.140728	20111031.142741	8	0.013328	60	10	60-180	60	136	GapExp	Blank	0	193	2	45	1	early	-4	-676	-1000	251162	13.328	12.865	13.791
ProbeTrack13	3	ProbeTrack	13.2	SCS215a	20111031.140728	20111031.142748	8	0.013328	60	10	60-180	60	78	GapExp	Blank	0	194	2	0	1	distractor	0	831	-1000	250162	13.328	13.132	13.524
ProbeTrack13	3	ProbeTrack	13.2	SCS215a	20111031.140728	20111031.142754	8	0.013328	60	10	60-180	60	111	GapExp	Blank	0	195	2	3	1	target	1	357	822	250984	13.328	13.300	13.348
ProbeTrack13	3	ProbeTrack	13.2	SCS215a	20111031.140728	20111031.142800	8	0.013328	60	10	60-180	60	116	GapExp	Blank	0	196	2	0	0	distractor	1	527	737	251721	13.328	13.296	13.359
ProbeTrack13	3	ProbeTrack	13.2	SCS215a	20111031.140728	20111031.142806	8	0.013328	60	10	60-180	60	66	GapExp	Blank	0	197	2	45	0	distractor	1	645	678	252399	13.328	13.309	13.344
ProbeTrack13	3	ProbeTrack	13.2	SCS215a	20111031.140728	20111031.142812	8	0.013328	60	10	60-180	60	125	GapExp	Blank	0	198	2	3	0	target	0	459	-1000	251399	13.328	13.096	13.552
ProbeTrack13	3	ProbeTrack	13.2	SCS215a	20111031.140728	20111031.142818	8	0.013328	60	10	60-180	60	107	GapExp	Blank	0	199	2	3	1	distractor	0	428	-1000	250399	13.328	12.855	13.807
ProbeTrack13	3	ProbeTrack	13.2	SCS215a	20111031.140728	20111031.142824	8	0.013328	60	10	60-180	60	179	GapExp	Blank	0	200	2	45	1	target	1	273	864	251263	13.328	12.931	13.748
ProbeTrack13	3	ProbeTrack	13.2	SCS215a	20111031.142928	20111031.142934	8	0.013331	60	10	60-180	60	171	GapPrac	BigFlash	1	1	2	3	1	target	1	494	753	252016	13.373	13.112	13.551
ProbeTrack13	3	ProbeTrack	13.2	SCS215a	20111031.142928	20111031.142942	8	0.013331	60	10	60-180	60	117	GapPrac	BigFlash	1	2	2	3	0	distractor	1	625	688	252704	13.328	12.634	14.031
ProbeTrack13	3	ProbeTrack	13.2	SCS215a	20111031.142928	20111031.142948	8	0.013331	60	10	60-180	60	65	GapPrac	BigFlash	1	3	2	1	1	target	1	649	676	253380	13.328	13.298	13.347
ProbeTrack13	3	ProbeTrack	13.2	SCS215a	20111031.142928	20111031.142954	8	0.013331	60	10	60-180	60	113	GapPrac	BigFlash	1	4	2	45	1	target	1	485	758	254138	13.328	13.275	13.389
ProbeTrack13	3	ProbeTrack	13.2	SCS215a	20111031.142928	20111031.143000	8	0.013331	60	10	60-180	60	138	GapPrac	BigFlash	1	5	2	1	0	distractor	1	743	629	254767	13.328	13.300	13.352
ProbeTrack13	3	ProbeTrack	13.2	SCS215a	20111031.142928	20111031.143006	8	0.013331	60	10	60-180	60	88	GapPrac	BigFlash	1	6	2	3	0	distractor	1	697	652	255419	13.328	13.306	13.344
ProbeTrack13	3	ProbeTrack	13.2	SCS215a	20111031.142928	20111031.143012	8	0.013331	60	10	60-180	60	66	GapPrac	BigFlash	1	7	2	45	0	distractor	1	729	636	256055	13.328	13.096	13.566
ProbeTrack13	3	ProbeTrack	13.2	SCS215a	20111031.142928	20111031.143018	8	0.013331	60	10	60-180	60	130	GapPrac	BigFlash	1	8	2	0	0	distractor	1	603	699	256754	13.328	13.115	13.548
ProbeTrack13	3	ProbeTrack	13.2	SCS215a	20111031.142928	20111031.143024	8	0.013331	60	10	60-180	60	91	GapPrac	BigFlash	1	9	2	45	1	target	1	500	750	257504	13.328	13.090	13.551
ProbeTrack13	3	ProbeTrack	13.2	SCS215a	20111031.142928	20111031.143030	8	0.013331	60	10	60-180	60	160	GapPrac	BigFlash	1	10	2	45	1	target	1	358	821	258325	13.328	13.090	13.551
ProbeTrack13	3	ProbeTrack	13.2	SCS215a	20111031.142928	20111031.143037	8	0.013331	60	10	60-180	60	115	GapPrac	BigFlash	1	11	2	0	1	target	1	585	708	259033	13.328	13.098	13.560
ProbeTrack13	3	ProbeTrack	13.2	SCS215a	20111031.142928	20111031.143043	8	0.013331	60	10	60-180	60	72	GapPrac	BigFlash	1	12	2	3	0	distractor	1	487	757	259790	13.328	7.830	18.823
ProbeTrack13	3	ProbeTrack	13.2	SCS215a	20111031.142928	20111031.143049	8	0.013331	60	10	60-180	60	61	GapPrac	BigFlash	1	13	2	3	1	target	1	445	778	260568	13.328	13.304	13.348
ProbeTrack13	3	ProbeTrack	13.2	SCS215a	20111031.142928	20111031.143054	8	0.013331	60	10	60-180	60	63	GapPrac	BigFlash	1	14	2	1	1	target	1	375	813	261381	13.328	13.299	13.350
ProbeTrack13	3	ProbeTrack	13.2	SCS215a	20111031.142928	20111031.143059	8	0.013331	60	10	60-180	60	91	GapPrac	BigFlash	1	15	2	0	0	early	-4	-1245	-1000	260381	13.328	13.104	13.546
ProbeTrack13	3	ProbeTrack	13.2	SCS215a	20111031.142928	20111031.143105	8	0.013331	60	10	60-180	60	101	GapPrac	BigFlash	1	16	2	3	1	target	1	366	817	261198	13.328	9.726	16.943
ProbeTrack13	3	ProbeTrack	13.2	SCS215a	20111031.142928	20111031.143110	8	0.013331	60	10	60-180	60	109	GapPrac	BigFlash	1	17	2	1	1	target	1	283	859	262057	13.328	13.284	13.364
ProbeTrack13	3	ProbeTrack	13.2	SCS215a	20111031.142928	20111031.143116	8	0.013331	60	10	60-180	60	171	GapPrac	BigFlash	1	18	2	0	1	target	1	418	791	262848	13.328	12.656	13.985
ProbeTrack13	3	ProbeTrack	13.2	SCS215a	20111031.142928	20111031.143123	8	0.013331	60	10	60-180	60	64	GapPrac	BigFlash	1	19	2	45	0	distractor	1	597	702	263550	13.328	9.313	17.352
ProbeTrack13	3	ProbeTrack	13.2	SCS215a	20111031.142928	20111031.143129	8	0.013331	60	10	60-180	60	93	GapPrac	BigFlash	1	20	2	1	0	distractor	1	466	767	264317	13.328	12.451	14.198
ProbeTrack13	3	ProbeTrack	13.2	SCS215a	20111031.143203	20111031.143208	8	0.013328	60	10	60-180	60	140	GapExp	BigFlash	1	1	2	3	0	distractor	1	433	784	265101	13.379	12.902	13.759
ProbeTrack13	3	ProbeTrack	13.2	SCS215a	20111031.143203	20111031.143215	8	0.013328	60	10	60-180	60	90	GapExp	BigFlash	1	2	2	1	1	target	1	418	791	265892	13.328	13.104	13.554
ProbeTrack13	3	ProbeTrack	13.2	SCS215a	20111031.143203	20111031.143221	8	0.013328	60	10	60-180	60	83	GapExp	BigFlash	1	3	2	3	1	target	1	336	832	266724	13.328	13.280	13.381
ProbeTrack13	3	ProbeTrack	13.2	SCS215a	20111031.143203	20111031.143226	8	0.013328	60	10	60-180	60	145	GapExp	BigFlash	1	4	2	45	1	distractor	0	342	-1000	265724	13.328	13.294	13.362
ProbeTrack13	3	ProbeTrack	13.2	SCS215a	20111031.143203	20111031.143233	8	0.013328	60	10	60-180	60	109	GapExp	BigFlash	1	5	2	1	0	distractor	1	438	781	266505	13.328	13.308	13.343
ProbeTrack13	3	ProbeTrack	13.2	SCS215a	20111031.143203	20111031.143239	8	0.013328	60	10	60-180	60	128	GapExp	BigFlash	1	6	2	45	0	distractor	1	497	752	267257	13.328	13.115	13.523
ProbeTrack13	3	ProbeTrack	13.2	SCS215a	20111031.143203	20111031.143246	8	0.013328	60	10	60-180	60	95	GapExp	BigFlash	1	7	2	0	0	distractor	1	540	730	267987	13.328	13.085	13.558
ProbeTrack13	3	ProbeTrack	13.2	SCS215a	20111031.143203	20111031.143251	8	0.013328	60	10	60-180	60	107	GapExp	BigFlash	1	8	2	0	1	target	1	321	840	268827	13.328	13.105	13.551
ProbeTrack13	3	ProbeTrack	13.2	SCS215a	20111031.143203	20111031.143257	8	0.013328	60	10	60-180	60	146	GapExp	BigFlash	0	9	2	45	1	distractor	0	387	-1000	267827	13.327	12.896	13.760
ProbeTrack13	3	ProbeTrack	13.2	SCS215a	20111031.143203	20111031.143303	8	0.013328	60	10	60-180	60	84	GapExp	BigFlash	0	10	2	0	0	distractor	1	631	685	268512	13.328	13.309	13.359
ProbeTrack13	3	ProbeTrack	13.2	SCS215a	20111031.143203	20111031.143309	8	0.013328	60	10	60-180	60	113	GapExp	BigFlash	0	11	2	3	0	distractor	1	520	740	269252	13.328	12.858	13.831
ProbeTrack13	3	ProbeTrack	13.2	SCS215a	20111031.143203	20111031.143315	8	0.013328	60	10	60-180	60	139	GapExp	BigFlash	0	12	2	45	1	target	1	327	837	270089	13.328	13.288	13.362
ProbeTrack13	3	ProbeTrack	13.2	SCS215a	20111031.143203	20111031.143322	8	0.013328	60	10	60-180	60	101	GapExp	BigFlash	0	13	2	3	0	distractor	1	582	709	270798	13.328	12.996	13.655
ProbeTrack13	3	ProbeTrack	13.2	SCS215a	20111031.143203	20111031.143327	8	0.013328	60	10	60-180	60	85	GapExp	BigFlash	0	14	2	1	1	target	1	371	815	271613	13.328	12.908	13.748
ProbeTrack13	3	ProbeTrack	13.2	SCS215a	20111031.143203	20111031.143332	8	0.013328	60	10	60-180	60	162	GapExp	BigFlash	0	15	2	45	1	target	1	358	821	272434	13.328	13.108	13.551
ProbeTrack13	3	ProbeTrack	13.2	SCS215a	20111031.143203	20111031.143339	8	0.013328	60	10	60-180	60	135	GapExp	BigFlash	0	16	2	45	1	target	1	360	820	273254	13.328	12.848	13.823
ProbeTrack13	3	ProbeTrack	13.2	SCS215a	20111031.143203	20111031.143346	8	0.013328	60	10	60-180	60	132	GapExp	BigFlash	0	17	2	45	0	distractor	1	620	690	273944	13.328	12.947	13.710
ProbeTrack13	3	ProbeTrack	13.2	SCS215a	20111031.143203	20111031.143353	8	0.013328	60	10	60-180	60	106	GapExp	BigFlash	0	18	2	1	1	target	1	531	735	274679	13.328	13.091	13.566
ProbeTrack13	3	ProbeTrack	13.2	SCS215a	20111031.143203	20111031.143359	8	0.013328	60	10	60-180	60	116	GapExp	BigFlash	0	19	2	3	1	target	1	714	643	275322	13.328	12.868	13.789
ProbeTrack13	3	ProbeTrack	13.2	SCS215a	20111031.143203	20111031.143405	8	0.013328	60	10	60-180	60	83	GapExp	BigFlash	0	20	2	0	1	target	1	502	749	276071	13.328	13.300	13.362
ProbeTrack13	3	ProbeTrack	13.2	SCS215a	20111031.143203	20111031.143410	8	0.013328	60	10	60-180	60	81	GapExp	BigFlash	0	21	2	1	0	distractor	1	739	631	276702	13.328	13.307	13.347
ProbeTrack13	3	ProbeTrack	13.2	SCS215a	20111031.143203	20111031.143416	8	0.013328	60	10	60-180	60	77	GapExp	BigFlash	0	22	2	0	1	target	1	523	739	277441	13.328	12.868	13.771
ProbeTrack13	3	ProbeTrack	13.2	SCS215a	20111031.143203	20111031.143422	8	0.013328	60	10	60-180	60	122	GapExp	BigFlash	0	23	2	45	1	target	1	299	851	278292	13.328	13.115	13.544
ProbeTrack13	3	ProbeTrack	13.2	SCS215a	20111031.143203	20111031.143429	8	0.013328	60	10	60-180	60	85	GapExp	BigFlash	0	24	2	3	0	distractor	1	499	751	279043	13.328	13.104	13.559
ProbeTrack13	3	ProbeTrack	13.2	SCS215a	20111031.143203	20111031.143434	8	0.013328	60	10	60-180	60	113	GapExp	BigFlash	0	25	2	1	0	distractor	1	622	689	279732	13.328	13.297	13.348
ProbeTrack13	3	ProbeTrack	13.2	SCS215a	20111031.143203	20111031.143440	8	0.013328	60	10	60-180	60	102	GapExp	BigFlash	0	26	2	3	0	distractor	1	412	794	280526	13.328	13.289	13.379
ProbeTrack13	3	ProbeTrack	13.2	SCS215a	20111031.143203	20111031.143446	8	0.013328	60	10	60-180	60	151	GapExp	BigFlash	0	27	2	3	1	target	1	459	771	281297	13.328	13.272	13.385
ProbeTrack13	3	ProbeTrack	13.2	SCS215a	20111031.143203	20111031.143452	8	0.013328	60	10	60-180	60	141	GapExp	BigFlash	0	28	2	45	0	distractor	1	556	722	282019	13.328	13.056	13.597
ProbeTrack13	3	ProbeTrack	13.2	SCS215a	20111031.143203	20111031.143459	8	0.013328	60	10	60-180	60	133	GapExp	BigFlash	0	29	2	0	0	distractor	1	524	738	282757	13.328	13.307	13.347
ProbeTrack13	3	ProbeTrack	13.2	SCS215a	20111031.143203	20111031.143505	8	0.013328	60	10	60-180	60	86	GapExp	BigFlash	0	30	2	1	1	target	1	329	836	283593	13.463	12.846	27.130
ProbeTrack13	3	ProbeTrack	13.2	SCS215a	20111031.143203	20111031.143512	8	0.013328	60	10	60-180	60	92	GapExp	BigFlash	0	31	2	3	0	distractor	1	455	773	284366	13.328	13.099	13.544
ProbeTrack13	3	ProbeTrack	13.2	SCS215a	20111031.143203	20111031.143518	8	0.013328	60	10	60-180	60	138	GapExp	BigFlash	0	32	2	0	1	target	1	385	808	285174	13.328	12.980	13.665
ProbeTrack13	3	ProbeTrack	13.2	SCS215a	20111031.143203	20111031.143524	8	0.013328	60	10	60-180	60	119	GapExp	BigFlash	0	33	2	45	0	distractor	1	540	730	285904	13.328	13.094	13.558
ProbeTrack13	3	ProbeTrack	13.2	SCS215a	20111031.143203	20111031.143531	8	0.013328	60	10	60-180	60	108	GapExp	BigFlash	0	34	2	3	0	distractor	1	494	753	286657	13.328	13.305	13.352
ProbeTrack13	3	ProbeTrack	13.2	SCS215a	20111031.143203	20111031.143536	8	0.013328	60	10	60-180	60	74	GapExp	BigFlash	0	35	2	45	1	target	1	415	793	287450	13.328	13.309	13.348
ProbeTrack13	3	ProbeTrack	13.2	SCS215a	20111031.143203	20111031.143543	8	0.013328	60	10	60-180	60	88	GapExp	BigFlash	0	36	2	45	1	target	1	344	828	288278	13.328	12.950	13.713
ProbeTrack13	3	ProbeTrack	13.2	SCS215a	20111031.143203	20111031.143551	8	0.013328	60	10	60-180	60	66	GapExp	BigFlash	0	37	2	0	0	distractor	1	827	587	288865	13.328	12.862	13.808
ProbeTrack13	3	ProbeTrack	13.2	SCS215a	20111031.143203	20111031.143557	8	0.013328	60	10	60-180	60	91	GapExp	BigFlash	0	38	2	0	0	distractor	1	608	696	289561	13.328	12.885	13.784
ProbeTrack13	3	ProbeTrack	13.2	SCS215a	20111031.143203	20111031.143603	8	0.013328	60	10	60-180	60	141	GapExp	BigFlash	0	39	2	0	1	target	1	534	733	290294	13.328	13.299	13.348
ProbeTrack13	3	ProbeTrack	13.2	SCS215a	20111031.143203	20111031.143610	8	0.013328	60	10	60-180	60	74	GapExp	BigFlash	0	40	2	1	0	distractor	1	372	814	291108	13.328	13.308	13.343
ProbeTrack13	3	ProbeTrack	13.2	SCS215a	20111031.143203	20111031.143615	8	0.013328	60	10	60-180	60	161	GapExp	BigFlash	0	41	2	0	1	target	1	392	804	291912	13.328	13.091	13.567
ProbeTrack13	3	ProbeTrack	13.2	SCS215a	20111031.143203	20111031.143621	8	0.013328	60	10	60-180	60	109	GapExp	BigFlash	0	42	2	0	0	distractor	1	577	712	292624	13.328	13.099	13.544
ProbeTrack13	3	ProbeTrack	13.2	SCS215a	20111031.143203	20111031.143627	8	0.013328	60	10	60-180	60	130	GapExp	BigFlash	0	43	2	45	1	target	1	326	837	293461	13.328	12.920	13.738
ProbeTrack13	3	ProbeTrack	13.2	SCS215a	20111031.143203	20111031.143635	8	0.013328	60	10	60-180	60	85	GapExp	BigFlash	0	44	2	0	0	distractor	1	510	745	294206	13.328	13.096	13.559
ProbeTrack13	3	ProbeTrack	13.2	SCS215a	20111031.143203	20111031.143640	8	0.013328	60	10	60-180	60	129	GapExp	BigFlash	0	45	2	0	0	distractor	1	431	785	294991	13.328	12.927	13.730
ProbeTrack13	3	ProbeTrack	13.2	SCS215a	20111031.143203	20111031.143646	8	0.013328	60	10	60-180	60	76	GapExp	BigFlash	0	46	2	1	0	distractor	1	483	759	295750	13.328	12.896	13.746
ProbeTrack13	3	ProbeTrack	13.2	SCS215a	20111031.143203	20111031.143651	8	0.013328	60	10	60-180	60	83	GapExp	BigFlash	0	47	2	45	0	target	0	394	-1000	294750	13.328	13.302	13.356
ProbeTrack13	3	ProbeTrack	13.2	SCS215a	20111031.143203	20111031.143657	8	0.013328	60	10	60-180	60	166	GapExp	BigFlash	0	48	2	3	1	target	1	421	790	295540	13.328	13.088	13.569
ProbeTrack13	3	ProbeTrack	13.2	SCS215a	20111031.143203	20111031.143703	8	0.013328	60	10	60-180	60	69	GapExp	BigFlash	0	49	2	0	1	target	1	574	713	296253	13.328	13.307	13.345
ProbeTrack13	3	ProbeTrack	13.2	SCS215a	20111031.143203	20111031.143709	8	0.013328	60	10	60-180	60	152	GapExp	BigFlash	0	50	2	45	1	target	1	402	799	297052	13.328	13.100	13.561
ProbeTrack13	3	ProbeTrack	13.2	SCS215a	20111031.143203	20111031.143716	8	0.013328	60	10	60-180	60	177	GapExp	BigFlash	0	51	2	1	0	distractor	1	568	716	297768	13.328	12.863	13.812
ProbeTrack13	3	ProbeTrack	13.2	SCS215a	20111031.143203	20111031.143723	8	0.013328	60	10	60-180	60	165	GapExp	BigFlash	0	52	2	0	0	distractor	1	544	728	298496	13.328	13.106	13.564
ProbeTrack13	3	ProbeTrack	13.2	SCS215a	20111031.143203	20111031.143729	8	0.013328	60	10	60-180	60	107	GapExp	BigFlash	0	53	2	1	1	target	1	678	661	299157	13.328	13.308	13.347
ProbeTrack13	3	ProbeTrack	13.2	SCS215a	20111031.143203	20111031.143735	8	0.013328	60	10	60-180	60	63	GapExp	BigFlash	0	54	2	0	1	target	1	441	780	299937	13.328	12.866	13.787
ProbeTrack13	3	ProbeTrack	13.2	SCS215a	20111031.143203	20111031.143740	8	0.013328	60	10	60-180	60	82	GapExp	BigFlash	0	55	2	3	1	target	1	438	781	300718	13.328	13.309	13.346
ProbeTrack13	3	ProbeTrack	13.2	SCS215a	20111031.143203	20111031.143746	8	0.013328	60	10	60-180	60	169	GapExp	BigFlash	0	56	2	1	1	target	1	353	824	301542	13.328	12.906	13.763
ProbeTrack13	3	ProbeTrack	13.2	SCS215a	20111031.143203	20111031.143752	8	0.013328	60	10	60-180	60	66	GapExp	BigFlash	0	57	2	0	1	target	1	442	779	302321	13.328	13.006	13.666
ProbeTrack13	3	ProbeTrack	13.2	SCS215a	20111031.143203	20111031.143757	8	0.013328	60	10	60-180	60	85	GapExp	BigFlash	0	58	2	45	0	distractor	1	363	819	303140	13.328	12.853	13.799
ProbeTrack13	3	ProbeTrack	13.2	SCS215a	20111031.143203	20111031.143803	8	0.013328	60	10	60-180	60	171	GapExp	BigFlash	0	59	2	0	0	distractor	1	717	642	303782	13.328	13.307	13.349
ProbeTrack13	3	ProbeTrack	13.2	SCS215a	20111031.143203	20111031.143810	8	0.013328	60	10	60-180	60	118	GapExp	BigFlash	0	60	2	45	0	distractor	1	533	734	304516	13.328	13.303	13.367
ProbeTrack13	3	ProbeTrack	13.2	SCS215a	20111031.143203	20111031.143817	8	0.013328	60	10	60-180	60	64	GapExp	BigFlash	0	61	2	1	0	target	0	712	-1000	303516	13.328	12.883	13.788
ProbeTrack13	3	ProbeTrack	13.2	SCS215a	20111031.143203	20111031.143822	8	0.013328	60	10	60-180	60	147	GapExp	BigFlash	0	62	2	3	0	distractor	1	504	748	304264	13.328	13.097	13.559
ProbeTrack13	3	ProbeTrack	13.2	SCS215a	20111031.143203	20111031.143828	8	0.013328	60	10	60-180	60	178	GapExp	BigFlash	0	63	2	3	1	target	1	417	792	305056	13.328	12.980	13.689
ProbeTrack13	3	ProbeTrack	13.2	SCS215a	20111031.143203	20111031.143835	8	0.013328	60	10	60-180	60	152	GapExp	BigFlash	0	64	2	45	1	target	1	406	797	305853	13.328	13.092	13.557
ProbeTrack13	3	ProbeTrack	13.2	SCS215a	20111031.143203	20111031.143842	8	0.013328	60	10	60-180	60	164	GapExp	BigFlash	0	65	2	0	0	distractor	1	644	678	306531	13.328	13.305	13.360
ProbeTrack13	3	ProbeTrack	13.2	SCS215a	20111031.143203	20111031.143849	8	0.013328	60	10	60-180	60	174	GapExp	BigFlash	0	66	2	3	1	target	1	412	794	307325	13.328	13.092	13.559
ProbeTrack13	3	ProbeTrack	13.2	SCS215a	20111031.143203	20111031.143856	8	0.013328	60	10	60-180	60	125	GapExp	BigFlash	0	67	2	0	1	target	1	326	837	308162	13.328	12.912	13.746
ProbeTrack13	3	ProbeTrack	13.2	SCS215a	20111031.143203	20111031.143902	8	0.013328	60	10	60-180	60	140	GapExp	BigFlash	0	68	2	0	0	distractor	1	458	771	308933	13.328	13.092	13.552
ProbeTrack13	3	ProbeTrack	13.2	SCS215a	20111031.143203	20111031.143908	8	0.013328	60	10	60-180	60	138	GapExp	BigFlash	0	69	2	45	0	distractor	1	513	744	309677	13.328	12.836	13.814
