exp	sub	code	rev	comp	runtime	trialtime	nstim	refreshdur	cuedur	gapdur	gapOnsetRange	durPostProbe	gapOnsetTime	blocktype	gaptype	prac	trial	ntargets	soa	probeTarget	resp	acc	rt	pts	tpts	meanFrameDur	minFrameDur	maxFrameDur
ProbeTrack13	15	ProbeTrack	13.2	SCS215b	20111107.134436	20111107.134442	8	0.013328	60	0	60-180	60	92	NoGap	None	1	1	2	1	1	distractor	0	660	-1000	-1000	13.389	12.930	13.719
ProbeTrack13	15	ProbeTrack	13.2	SCS215b	20111107.134436	20111107.134600	8	0.013328	60	0	60-180	60	176	NoGap	None	1	2	2	45	1	target	1	959	521	-479	13.328	10.382	16.269
ProbeTrack13	15	ProbeTrack	13.2	SCS215b	20111107.134436	20111107.134610	8	0.013328	60	0	60-180	60	169	NoGap	None	1	3	2	1	0	distractor	1	945	528	49	13.328	12.610	14.015
ProbeTrack13	15	ProbeTrack	13.2	SCS215b	20111107.134436	20111107.134618	8	0.013328	60	0	60-180	60	62	NoGap	None	1	4	2	0	1	target	1	527	737	786	13.328	13.100	13.564
ProbeTrack13	15	ProbeTrack	13.2	SCS215b	20111107.134436	20111107.134625	8	0.013328	60	0	60-180	60	120	NoGap	None	1	5	2	0	1	target	1	570	715	1501	13.328	11.485	15.169
ProbeTrack13	15	ProbeTrack	13.2	SCS215b	20111107.134436	20111107.134632	8	0.013328	60	0	60-180	60	113	NoGap	None	1	6	2	45	0	distractor	1	702	649	2150	13.328	11.677	15.050
ProbeTrack13	15	ProbeTrack	13.2	SCS215b	20111107.134436	20111107.134639	8	0.013328	60	0	60-180	60	153	NoGap	None	1	7	2	0	1	distractor	0	615	-1000	1150	13.328	5.185	21.474
ProbeTrack13	15	ProbeTrack	13.2	SCS215b	20111107.134436	20111107.134647	8	0.013328	60	0	60-180	60	108	NoGap	None	1	8	2	1	0	distractor	1	571	715	1865	13.328	7.104	19.550
ProbeTrack13	15	ProbeTrack	13.2	SCS215b	20111107.134436	20111107.134653	8	0.013328	60	0	60-180	60	110	NoGap	None	1	9	2	45	0	distractor	1	489	756	2621	13.328	13.106	13.559
ProbeTrack13	15	ProbeTrack	13.2	SCS215b	20111107.134436	20111107.134700	8	0.013328	60	0	60-180	60	89	NoGap	None	1	10	2	3	0	distractor	1	877	562	3183	13.328	11.366	15.283
ProbeTrack13	15	ProbeTrack	13.2	SCS215b	20111107.134436	20111107.134707	8	0.013328	60	0	60-180	60	136	NoGap	None	1	11	2	0	0	target	0	565	-1000	2183	13.328	13.092	13.567
ProbeTrack13	15	ProbeTrack	13.2	SCS215b	20111107.134436	20111107.134714	8	0.013328	60	0	60-180	60	152	NoGap	None	1	12	2	1	1	target	1	644	678	2861	13.328	10.689	15.968
ProbeTrack13	15	ProbeTrack	13.2	SCS215b	20111107.134436	20111107.134721	8	0.013328	60	0	60-180	60	94	NoGap	None	1	13	2	45	0	distractor	1	399	801	3662	13.328	12.659	14.011
ProbeTrack13	15	ProbeTrack	13.2	SCS215b	20111107.134436	20111107.134729	8	0.013328	60	0	60-180	60	84	NoGap	None	1	14	2	45	1	distractor	0	578	-1000	2662	13.328	5.067	21.594
ProbeTrack13	15	ProbeTrack	13.2	SCS215b	20111107.134436	20111107.134735	8	0.013328	60	0	60-180	60	177	NoGap	None	1	15	2	45	0	distractor	1	680	660	3322	13.328	9.717	16.954
ProbeTrack13	15	ProbeTrack	13.2	SCS215b	20111107.134436	20111107.134744	8	0.013328	60	0	60-180	60	148	NoGap	None	1	16	2	3	1	target	1	642	679	4001	13.328	8.281	18.376
ProbeTrack13	15	ProbeTrack	13.2	SCS215b	20111107.134436	20111107.134752	8	0.013328	60	0	60-180	60	68	NoGap	None	1	17	2	45	0	distractor	1	594	703	4704	13.328	13.235	13.438
ProbeTrack13	15	ProbeTrack	13.2	SCS215b	20111107.134436	20111107.134758	8	0.013328	60	0	60-180	60	173	NoGap	None	1	18	2	3	1	target	1	607	697	5401	13.328	9.491	17.154
ProbeTrack13	15	ProbeTrack	13.2	SCS215b	20111107.134436	20111107.134807	8	0.013328	60	0	60-180	60	148	NoGap	None	1	19	2	45	1	target	1	508	746	6147	13.328	8.457	18.186
ProbeTrack13	15	ProbeTrack	13.2	SCS215b	20111107.134436	20111107.134815	8	0.013328	60	0	60-180	60	106	NoGap	None	1	20	2	3	0	distractor	1	699	651	6798	13.328	10.151	16.518
ProbeTrack13	15	ProbeTrack	13.2	SCS215b	20111107.134436	20111107.134820	8	0.013328	60	0	60-180	60	61	NoGap	None	1	21	2	0	1	target	1	718	641	7439	13.362	3.603	23.042
ProbeTrack13	15	ProbeTrack	13.2	SCS215b	20111107.134436	20111107.134826	8	0.013328	60	0	60-180	60	107	NoGap	None	1	22	2	0	1	target	1	568	716	8155	13.328	9.291	17.372
ProbeTrack13	15	ProbeTrack	13.2	SCS215b	20111107.134436	20111107.134832	8	0.013328	60	0	60-180	60	165	NoGap	None	1	23	2	1	1	target	1	594	703	8858	13.328	5.221	21.448
ProbeTrack13	15	ProbeTrack	13.2	SCS215b	20111107.134436	20111107.134840	8	0.013328	60	0	60-180	60	62	NoGap	None	1	24	2	45	1	target	1	268	866	9724	13.328	13.307	13.353
ProbeTrack13	15	ProbeTrack	13.2	SCS215b	20111107.134436	20111107.134847	8	0.013328	60	0	60-180	60	121	NoGap	None	1	25	2	3	1	target	1	576	712	10436	13.328	13.293	13.368
ProbeTrack13	15	ProbeTrack	13.2	SCS215b	20111107.134436	20111107.134855	8	0.013328	60	0	60-180	60	173	NoGap	None	1	26	2	1	0	distractor	1	751	625	11061	13.328	7.420	19.247
ProbeTrack13	15	ProbeTrack	13.2	SCS215b	20111107.134436	20111107.134902	8	0.013328	60	0	60-180	60	137	NoGap	None	1	27	2	3	1	target	1	466	767	11828	13.328	13.300	13.358
ProbeTrack13	15	ProbeTrack	13.2	SCS215b	20111107.134436	20111107.134909	8	0.013328	60	0	60-180	60	134	NoGap	None	1	28	2	1	0	distractor	1	623	689	12517	13.328	7.622	19.086
ProbeTrack13	15	ProbeTrack	13.2	SCS215b	20111107.134436	20111107.134916	8	0.013328	60	0	60-180	60	102	NoGap	None	1	29	2	1	1	target	1	449	776	13293	13.306	8.675	13.360
ProbeTrack13	15	ProbeTrack	13.2	SCS215b	20111107.134436	20111107.134922	8	0.013328	60	0	60-180	60	117	NoGap	None	1	30	2	0	0	distractor	1	611	695	13988	13.328	13.302	13.352
ProbeTrack13	15	ProbeTrack	13.2	SCS215b	20111107.134436	20111107.134929	8	0.013328	60	0	60-180	60	125	NoGap	None	1	31	2	3	0	distractor	1	636	682	14670	13.328	9.831	16.816
ProbeTrack13	15	ProbeTrack	13.2	SCS215b	20111107.134436	20111107.134937	8	0.013328	60	0	60-180	60	107	NoGap	None	1	32	2	0	0	distractor	1	722	639	15309	13.328	13.266	13.404
ProbeTrack13	15	ProbeTrack	13.2	SCS215b	20111107.134436	20111107.134943	8	0.013328	60	0	60-180	60	142	NoGap	None	1	33	2	0	0	distractor	1	552	724	16033	13.328	13.306	13.355
ProbeTrack13	15	ProbeTrack	13.2	SCS215b	20111107.134436	20111107.134951	8	0.013328	60	0	60-180	60	130	NoGap	None	1	34	2	1	1	target	1	591	705	16738	13.328	9.985	16.672
ProbeTrack13	15	ProbeTrack	13.2	SCS215b	20111107.134436	20111107.134958	8	0.013328	60	0	60-180	60	122	NoGap	None	1	35	2	0	0	distractor	1	629	686	17424	13.328	5.257	21.402
ProbeTrack13	15	ProbeTrack	13.2	SCS215b	20111107.134436	20111107.135005	8	0.013328	60	0	60-180	60	114	NoGap	None	1	36	2	3	0	distractor	1	816	592	18016	13.328	13.006	13.658
ProbeTrack13	15	ProbeTrack	13.2	SCS215b	20111107.134436	20111107.135012	8	0.013328	60	0	60-180	60	155	NoGap	None	1	37	2	3	1	target	1	590	705	18721	13.328	11.433	15.235
ProbeTrack13	15	ProbeTrack	13.2	SCS215b	20111107.134436	20111107.135019	8	0.013328	60	0	60-180	60	61	NoGap	None	1	38	2	1	0	distractor	1	673	664	19385	13.328	5.085	21.572
ProbeTrack13	15	ProbeTrack	13.2	SCS215b	20111107.134436	20111107.135025	8	0.013328	60	0	60-180	60	140	NoGap	None	1	39	2	3	0	distractor	1	563	719	20104	13.328	13.291	13.361
ProbeTrack13	15	ProbeTrack	13.2	SCS215b	20111107.134436	20111107.135032	8	0.013328	60	0	60-180	60	120	NoGap	None	1	40	2	45	1	target	1	572	714	20818	13.328	11.844	14.784
ProbeTrack13	15	ProbeTrack	13.2	SCS215b	20111107.135223	20111107.135302	8	0.013328	60	10	60-180	60	78	GapPrac	SmallFlash	1	1	2	3	1	target	1	720	640	21458	13.388	12.902	13.743
ProbeTrack13	15	ProbeTrack	13.2	SCS215b	20111107.135223	20111107.135310	8	0.013328	60	10	60-180	60	176	GapPrac	SmallFlash	1	2	2	0	0	distractor	1	630	685	22143	13.328	13.100	13.549
ProbeTrack13	15	ProbeTrack	13.2	SCS215b	20111107.135223	20111107.135318	8	0.013328	60	10	60-180	60	62	GapPrac	SmallFlash	1	3	2	0	1	target	1	530	735	22878	13.328	13.301	13.362
ProbeTrack13	15	ProbeTrack	13.2	SCS215b	20111107.135223	20111107.135326	8	0.013328	60	10	60-180	60	96	GapPrac	SmallFlash	1	4	2	45	0	distractor	1	488	756	23634	13.328	13.098	13.571
ProbeTrack13	15	ProbeTrack	13.2	SCS215b	20111107.135223	20111107.135333	8	0.013328	60	10	60-180	60	113	GapPrac	SmallFlash	1	5	2	1	1	target	1	561	720	24354	13.328	12.916	13.736
ProbeTrack13	15	ProbeTrack	13.2	SCS215b	20111107.135223	20111107.135342	8	0.013328	60	10	60-180	60	148	GapPrac	SmallFlash	1	6	2	45	1	target	1	400	800	25154	13.328	12.950	13.696
ProbeTrack13	15	ProbeTrack	13.2	SCS215b	20111107.135223	20111107.135351	8	0.013328	60	10	60-180	60	71	GapPrac	SmallFlash	1	7	2	1	0	distractor	1	554	723	25877	13.328	13.107	13.543
ProbeTrack13	15	ProbeTrack	13.2	SCS215b	20111107.135223	20111107.135359	8	0.013328	60	10	60-180	60	69	GapPrac	SmallFlash	1	8	2	3	1	target	1	466	767	26644	13.328	13.102	13.573
ProbeTrack13	15	ProbeTrack	13.2	SCS215b	20111107.135223	20111107.135407	8	0.013328	60	10	60-180	60	154	GapPrac	SmallFlash	1	9	2	3	1	target	1	466	767	27411	13.328	12.830	13.831
ProbeTrack13	15	ProbeTrack	13.2	SCS215b	20111107.135223	20111107.135415	8	0.013328	60	10	60-180	60	165	GapPrac	SmallFlash	1	10	2	1	0	distractor	1	596	702	28113	13.328	13.074	13.581
ProbeTrack13	15	ProbeTrack	13.2	SCS215b	20111107.135223	20111107.135423	8	0.013328	60	10	60-180	60	99	GapPrac	SmallFlash	1	11	2	45	0	distractor	1	351	825	28938	13.328	12.869	13.793
ProbeTrack13	15	ProbeTrack	13.2	SCS215b	20111107.135223	20111107.135432	8	0.013328	60	10	60-180	60	154	GapPrac	SmallFlash	1	12	2	0	0	distractor	1	533	734	29672	13.328	12.919	13.759
ProbeTrack13	15	ProbeTrack	13.2	SCS215b	20111107.135223	20111107.135440	8	0.013328	60	10	60-180	60	141	GapPrac	SmallFlash	1	13	2	45	1	target	1	585	708	30380	13.328	12.871	13.786
ProbeTrack13	15	ProbeTrack	13.2	SCS215b	20111107.135223	20111107.135449	8	0.013328	60	10	60-180	60	68	GapPrac	SmallFlash	1	14	2	0	0	distractor	1	625	688	31068	13.328	13.103	13.557
ProbeTrack13	15	ProbeTrack	13.2	SCS215b	20111107.135223	20111107.135456	8	0.013328	60	10	60-180	60	98	GapPrac	SmallFlash	1	15	2	3	0	distractor	1	401	800	31868	13.328	13.111	13.555
ProbeTrack13	15	ProbeTrack	13.2	SCS215b	20111107.135223	20111107.135502	8	0.013328	60	10	60-180	60	133	GapPrac	SmallFlash	1	16	2	1	1	target	1	340	830	32698	13.328	13.284	13.357
ProbeTrack13	15	ProbeTrack	13.2	SCS215b	20111107.135223	20111107.135511	8	0.013328	60	10	60-180	60	110	GapPrac	SmallFlash	1	17	2	3	0	distractor	1	408	796	33494	13.328	12.836	13.819
ProbeTrack13	15	ProbeTrack	13.2	SCS215b	20111107.135223	20111107.135521	8	0.013328	60	10	60-180	60	149	GapPrac	SmallFlash	1	18	2	45	0	distractor	1	500	750	34244	13.328	12.898	13.757
ProbeTrack13	15	ProbeTrack	13.2	SCS215b	20111107.135223	20111107.135529	8	0.013328	60	10	60-180	60	139	GapPrac	SmallFlash	1	19	2	0	1	target	1	408	796	35040	13.328	12.840	13.809
ProbeTrack13	15	ProbeTrack	13.2	SCS215b	20111107.135223	20111107.135537	8	0.013328	60	10	60-180	60	84	GapPrac	SmallFlash	1	20	2	0	1	target	1	416	792	35832	13.394	12.881	13.747
ProbeTrack13	15	ProbeTrack	13.2	SCS215b	20111107.135621	20111107.135633	8	0.013328	60	10	60-180	60	110	GapExp	SmallFlash	1	1	2	0	1	target	1	443	779	36611	13.385	13.060	13.592
ProbeTrack13	15	ProbeTrack	13.2	SCS215b	20111107.135621	20111107.135642	8	0.013328	60	10	60-180	60	133	GapExp	SmallFlash	1	2	2	3	0	distractor	1	453	774	37385	13.328	13.302	13.352
ProbeTrack13	15	ProbeTrack	13.2	SCS215b	20111107.135621	20111107.135650	8	0.013328	60	10	60-180	60	140	GapExp	SmallFlash	1	3	2	45	1	target	1	548	726	38111	13.328	12.924	13.736
ProbeTrack13	15	ProbeTrack	13.2	SCS215b	20111107.135621	20111107.135659	8	0.013328	60	10	60-180	60	173	GapExp	SmallFlash	1	4	2	3	1	target	1	384	808	38919	13.328	12.882	13.764
ProbeTrack13	15	ProbeTrack	13.2	SCS215b	20111107.135621	20111107.135706	8	0.013328	60	10	60-180	60	158	GapExp	SmallFlash	1	5	2	0	0	distractor	1	450	775	39694	13.328	13.100	13.568
ProbeTrack13	15	ProbeTrack	13.2	SCS215b	20111107.135621	20111107.135715	8	0.013328	60	10	60-180	60	102	GapExp	SmallFlash	1	6	2	45	0	distractor	1	405	798	40492	13.328	12.836	13.812
ProbeTrack13	15	ProbeTrack	13.2	SCS215b	20111107.135621	20111107.135722	8	0.013328	60	10	60-180	60	167	GapExp	SmallFlash	1	7	2	1	1	distractor	0	367	-1000	39492	13.328	12.878	13.794
ProbeTrack13	15	ProbeTrack	13.2	SCS215b	20111107.135621	20111107.135728	8	0.013328	60	10	60-180	60	168	GapExp	SmallFlash	1	8	2	1	0	4	-3	556	-1000	38492	13.328	12.868	13.799
ProbeTrack13	15	ProbeTrack	13.2	SCS215b	20111107.135621	20111107.135736	8	0.013328	60	10	60-180	60	65	GapExp	SmallFlash	0	9	2	3	1	target	1	529	736	39228	13.328	12.869	13.782
ProbeTrack13	15	ProbeTrack	13.2	SCS215b	20111107.135621	20111107.135742	8	0.013328	60	10	60-180	60	110	GapExp	SmallFlash	0	10	2	1	0	distractor	1	585	708	39936	13.328	12.856	13.794
ProbeTrack13	15	ProbeTrack	13.2	SCS215b	20111107.135621	20111107.135751	8	0.013328	60	10	60-180	60	130	GapExp	SmallFlash	0	11	2	0	0	distractor	1	555	723	40659	13.328	12.829	13.821
ProbeTrack13	15	ProbeTrack	13.2	SCS215b	20111107.135621	20111107.135758	8	0.013328	60	10	60-180	60	118	GapExp	SmallFlash	0	12	2	1	0	distractor	1	450	775	41434	13.328	13.305	13.351
ProbeTrack13	15	ProbeTrack	13.2	SCS215b	20111107.135621	20111107.135812	8	0.013328	60	10	60-180	60	79	GapExp	SmallFlash	0	13	2	0	1	distractor	0	428	-1000	40434	13.328	12.924	13.746
ProbeTrack13	15	ProbeTrack	13.2	SCS215b	20111107.135621	20111107.135823	8	0.013328	60	10	60-180	60	66	GapExp	SmallFlash	0	14	2	3	1	target	1	536	732	41166	13.328	13.275	13.397
ProbeTrack13	15	ProbeTrack	13.2	SCS215b	20111107.135621	20111107.135829	8	0.013328	60	10	60-180	60	84	GapExp	SmallFlash	0	15	2	3	0	distractor	1	739	631	41797	13.328	13.036	13.640
ProbeTrack13	15	ProbeTrack	13.2	SCS215b	20111107.135621	20111107.135836	8	0.013328	60	10	60-180	60	63	GapExp	SmallFlash	0	16	2	0	0	distractor	1	605	698	42495	13.328	13.276	13.374
ProbeTrack13	15	ProbeTrack	13.2	SCS215b	20111107.135621	20111107.135841	8	0.013328	60	10	60-180	60	149	GapExp	SmallFlash	0	17	2	0	0	distractor	1	526	737	43232	13.328	12.866	13.802
ProbeTrack13	15	ProbeTrack	13.2	SCS215b	20111107.135621	20111107.135848	8	0.013328	60	10	60-180	60	93	GapExp	SmallFlash	0	18	2	1	0	distractor	1	551	725	43957	13.328	12.874	13.785
ProbeTrack13	15	ProbeTrack	13.2	SCS215b	20111107.135621	20111107.135855	8	0.013328	60	10	60-180	60	88	GapExp	SmallFlash	0	19	2	3	0	distractor	1	576	712	44669	13.328	12.916	13.736
ProbeTrack13	15	ProbeTrack	13.2	SCS215b	20111107.135621	20111107.135902	8	0.013328	60	10	60-180	60	67	GapExp	SmallFlash	0	20	2	3	0	distractor	1	701	650	45319	13.328	12.864	13.793
ProbeTrack13	15	ProbeTrack	13.2	SCS215b	20111107.135621	20111107.135910	8	0.013328	60	10	60-180	60	118	GapExp	SmallFlash	0	21	2	1	1	distractor	0	444	-1000	44319	13.328	12.988	13.662
ProbeTrack13	15	ProbeTrack	13.2	SCS215b	20111107.135621	20111107.135916	8	0.013328	60	10	60-180	60	118	GapExp	SmallFlash	0	22	2	45	1	target	1	452	774	45093	13.328	12.921	13.748
ProbeTrack13	15	ProbeTrack	13.2	SCS215b	20111107.135621	20111107.135923	8	0.013328	60	10	60-180	60	78	GapExp	SmallFlash	0	23	2	3	1	target	1	569	716	45809	13.328	13.105	13.552
ProbeTrack13	15	ProbeTrack	13.2	SCS215b	20111107.135621	20111107.135930	8	0.013328	60	10	60-180	60	67	GapExp	SmallFlash	0	24	2	3	1	target	1	333	834	46643	13.328	12.837	13.823
ProbeTrack13	15	ProbeTrack	13.2	SCS215b	20111107.135621	20111107.135936	8	0.013328	60	10	60-180	60	179	GapExp	SmallFlash	0	25	2	0	1	target	1	383	809	47452	13.328	12.880	13.798
ProbeTrack13	15	ProbeTrack	13.2	SCS215b	20111107.135621	20111107.135943	8	0.013328	60	10	60-180	60	147	GapExp	SmallFlash	0	26	2	3	0	distractor	1	458	771	48223	13.328	12.904	13.759
ProbeTrack13	15	ProbeTrack	13.2	SCS215b	20111107.135621	20111107.135950	8	0.013328	60	10	60-180	60	165	GapExp	SmallFlash	0	27	2	45	0	distractor	1	420	790	49013	13.328	12.955	13.714
ProbeTrack13	15	ProbeTrack	13.2	SCS215b	20111107.135621	20111107.135958	8	0.013328	60	10	60-180	60	105	GapExp	SmallFlash	0	28	2	0	1	target	1	295	853	49866	13.328	13.098	13.556
ProbeTrack13	15	ProbeTrack	13.2	SCS215b	20111107.135621	20111107.140004	8	0.013328	60	10	60-180	60	118	GapExp	SmallFlash	0	29	2	1	0	distractor	1	514	743	50609	13.328	13.108	13.551
ProbeTrack13	15	ProbeTrack	13.2	SCS215b	20111107.135621	20111107.140010	8	0.013328	60	10	60-180	60	173	GapExp	SmallFlash	0	30	2	45	0	distractor	1	402	799	51408	13.328	13.069	13.586
ProbeTrack13	15	ProbeTrack	13.2	SCS215b	20111107.135621	20111107.140019	8	0.013328	60	10	60-180	60	88	GapExp	SmallFlash	0	31	2	0	0	distractor	1	625	688	52096	13.328	13.108	13.556
ProbeTrack13	15	ProbeTrack	13.2	SCS215b	20111107.135621	20111107.140025	8	0.013328	60	10	60-180	60	125	GapExp	SmallFlash	0	32	2	3	0	target	0	484	-1000	51096	13.328	13.304	13.352
ProbeTrack13	15	ProbeTrack	13.2	SCS215b	20111107.135621	20111107.140031	8	0.013328	60	10	60-180	60	120	GapExp	SmallFlash	0	33	2	45	1	target	1	576	712	51808	13.328	12.836	13.814
ProbeTrack13	15	ProbeTrack	13.2	SCS215b	20111107.135621	20111107.140039	8	0.013328	60	10	60-180	60	160	GapExp	SmallFlash	0	34	2	1	1	target	1	393	804	52612	13.328	12.897	13.783
ProbeTrack13	15	ProbeTrack	13.2	SCS215b	20111107.135621	20111107.140046	8	0.013328	60	10	60-180	60	176	GapExp	SmallFlash	0	35	2	3	1	target	1	441	780	53392	13.328	13.115	13.560
ProbeTrack13	15	ProbeTrack	13.2	SCS215b	20111107.135621	20111107.140053	8	0.013328	60	10	60-180	60	123	GapExp	SmallFlash	0	36	2	3	0	distractor	1	379	811	54203	13.328	13.002	13.650
ProbeTrack13	15	ProbeTrack	13.2	SCS215b	20111107.135621	20111107.140101	8	0.013328	60	10	60-180	60	67	GapExp	SmallFlash	0	37	2	1	1	target	1	534	733	54936	13.328	13.304	13.353
ProbeTrack13	15	ProbeTrack	13.2	SCS215b	20111107.135621	20111107.140106	8	0.013328	60	10	60-180	60	141	GapExp	SmallFlash	0	38	2	1	0	distractor	1	481	760	55696	13.328	12.857	13.796
ProbeTrack13	15	ProbeTrack	13.2	SCS215b	20111107.135621	20111107.140113	8	0.013328	60	10	60-180	60	111	GapExp	SmallFlash	0	39	2	3	1	target	1	397	802	56498	13.328	13.100	13.574
ProbeTrack13	15	ProbeTrack	13.2	SCS215b	20111107.135621	20111107.140119	8	0.013328	60	10	60-180	60	165	GapExp	SmallFlash	0	40	2	1	0	distractor	1	648	676	57174	13.328	12.879	13.778
ProbeTrack13	15	ProbeTrack	13.2	SCS215b	20111107.135621	20111107.140126	8	0.013328	60	10	60-180	60	111	GapExp	SmallFlash	0	41	2	1	0	distractor	1	452	774	57948	13.328	13.309	13.352
ProbeTrack13	15	ProbeTrack	13.2	SCS215b	20111107.135621	20111107.140132	8	0.013328	60	10	60-180	60	80	GapExp	SmallFlash	0	42	2	0	0	distractor	1	472	764	58712	13.328	12.971	13.677
ProbeTrack13	15	ProbeTrack	13.2	SCS215b	20111107.135621	20111107.140138	8	0.013328	60	10	60-180	60	99	GapExp	SmallFlash	0	43	2	3	1	target	1	570	715	59427	13.328	13.023	13.637
ProbeTrack13	15	ProbeTrack	13.2	SCS215b	20111107.135621	20111107.140147	8	0.013328	60	10	60-180	60	169	GapExp	SmallFlash	0	44	2	45	0	distractor	1	604	698	60125	13.328	12.959	13.822
ProbeTrack13	15	ProbeTrack	13.2	SCS215b	20111107.135621	20111107.140154	8	0.013328	60	10	60-180	60	108	GapExp	SmallFlash	0	45	2	3	0	distractor	1	536	732	60857	13.328	13.103	13.560
ProbeTrack13	15	ProbeTrack	13.2	SCS215b	20111107.135621	20111107.140201	8	0.013328	60	10	60-180	60	132	GapExp	SmallFlash	0	46	2	0	1	target	1	555	723	61580	13.328	13.097	13.577
ProbeTrack13	15	ProbeTrack	13.2	SCS215b	20111107.135621	20111107.140208	8	0.013328	60	10	60-180	60	124	GapExp	SmallFlash	0	47	2	45	0	distractor	1	477	762	62342	13.328	13.293	13.361
ProbeTrack13	15	ProbeTrack	13.2	SCS215b	20111107.135621	20111107.140214	8	0.013328	60	10	60-180	60	139	GapExp	SmallFlash	0	48	2	0	0	distractor	1	541	730	63072	13.328	12.863	13.820
ProbeTrack13	15	ProbeTrack	13.2	SCS215b	20111107.135621	20111107.140222	8	0.013328	60	10	60-180	60	70	GapExp	SmallFlash	0	49	2	45	1	distractor	0	664	-1000	62072	13.381	12.904	26.656
ProbeTrack13	15	ProbeTrack	13.2	SCS215b	20111107.135621	20111107.140228	8	0.013328	60	10	60-180	60	62	GapExp	SmallFlash	0	50	2	0	1	target	1	733	634	62706	13.328	12.839	13.810
ProbeTrack13	15	ProbeTrack	13.2	SCS215b	20111107.135621	20111107.140233	8	0.013328	60	10	60-180	60	79	GapExp	SmallFlash	0	51	2	1	1	target	1	516	742	63448	13.328	12.940	13.715
ProbeTrack13	15	ProbeTrack	13.2	SCS215b	20111107.135621	20111107.140254	8	0.013328	60	10	60-180	60	135	GapExp	SmallFlash	0	52	2	3	0	distractor	1	530	735	64183	13.328	12.926	13.733
ProbeTrack13	15	ProbeTrack	13.2	SCS215b	20111107.135621	20111107.140300	8	0.013328	60	10	60-180	60	68	GapExp	SmallFlash	0	53	2	45	1	target	1	551	725	64908	13.328	13.211	13.444
ProbeTrack13	15	ProbeTrack	13.2	SCS215b	20111107.135621	20111107.140307	8	0.013328	60	10	60-180	60	74	GapExp	SmallFlash	0	54	2	45	0	distractor	1	583	709	65617	13.328	12.988	13.660
ProbeTrack13	15	ProbeTrack	13.2	SCS215b	20111107.135621	20111107.140314	8	0.013328	60	10	60-180	60	96	GapExp	SmallFlash	0	55	2	1	1	target	1	516	742	66359	13.328	12.897	13.793
ProbeTrack13	15	ProbeTrack	13.2	SCS215b	20111107.135621	20111107.140320	8	0.013328	60	10	60-180	60	78	GapExp	SmallFlash	0	56	2	1	1	target	1	465	768	67127	13.328	13.114	13.544
ProbeTrack13	15	ProbeTrack	13.2	SCS215b	20111107.135621	20111107.140326	8	0.013328	60	10	60-180	60	155	GapExp	SmallFlash	0	57	2	3	1	target	1	582	709	67836	13.328	12.936	13.715
ProbeTrack13	15	ProbeTrack	13.2	SCS215b	20111107.135621	20111107.140333	8	0.013328	60	10	60-180	60	165	GapExp	SmallFlash	0	58	2	3	0	distractor	1	448	776	68612	13.328	12.863	13.784
ProbeTrack13	15	ProbeTrack	13.2	SCS215b	20111107.135621	20111107.140340	8	0.013328	60	10	60-180	60	155	GapExp	SmallFlash	0	59	2	1	0	distractor	1	594	703	69315	13.328	12.877	13.772
ProbeTrack13	15	ProbeTrack	13.2	SCS215b	20111107.135621	20111107.140347	8	0.013328	60	10	60-180	60	152	GapExp	SmallFlash	0	60	2	0	1	target	1	358	821	70136	13.328	12.889	13.779
ProbeTrack13	15	ProbeTrack	13.2	SCS215b	20111107.135621	20111107.140353	8	0.013328	60	10	60-180	60	69	GapExp	SmallFlash	0	61	2	45	0	distractor	1	605	698	70834	13.328	12.938	13.713
ProbeTrack13	15	ProbeTrack	13.2	SCS215b	20111107.135621	20111107.140400	8	0.013328	60	10	60-180	60	61	GapExp	SmallFlash	0	62	2	3	0	distractor	1	584	708	71542	13.328	12.948	13.722
ProbeTrack13	15	ProbeTrack	13.2	SCS215b	20111107.135621	20111107.140405	8	0.013328	60	10	60-180	60	175	GapExp	SmallFlash	0	63	2	1	1	distractor	0	343	-1000	70542	13.328	12.866	13.781
ProbeTrack13	15	ProbeTrack	13.2	SCS215b	20111107.135621	20111107.140414	8	0.013328	60	10	60-180	60	131	GapExp	SmallFlash	0	64	2	1	1	target	1	545	728	71270	13.328	12.880	13.760
ProbeTrack13	15	ProbeTrack	13.2	SCS215b	20111107.135621	20111107.140421	8	0.013328	60	10	60-180	60	84	GapExp	SmallFlash	0	65	2	45	1	target	1	403	799	72069	13.328	13.065	13.590
ProbeTrack13	15	ProbeTrack	13.2	SCS215b	20111107.135621	20111107.140427	8	0.013328	60	10	60-180	60	156	GapExp	SmallFlash	0	66	2	3	1	target	1	375	813	72882	13.328	12.876	13.782
ProbeTrack13	15	ProbeTrack	13.2	SCS215b	20111107.135621	20111107.140434	8	0.013328	60	10	60-180	60	80	GapExp	SmallFlash	0	67	2	1	0	distractor	1	449	776	73658	13.328	13.301	13.354
ProbeTrack13	15	ProbeTrack	13.2	SCS215b	20111107.135621	20111107.140441	8	0.013328	60	10	60-180	60	103	GapExp	SmallFlash	0	68	2	1	1	target	1	409	796	74454	13.328	12.825	13.842
ProbeTrack13	15	ProbeTrack	13.2	SCS215b	20111107.135621	20111107.140447	8	0.013328	60	10	60-180	60	99	GapExp	SmallFlash	0	69	2	45	0	distractor	1	643	679	75133	13.328	12.961	13.706
ProbeTrack13	15	ProbeTrack	13.2	SCS215b	20111107.135621	20111107.140454	8	0.013328	60	10	60-180	60	109	GapExp	SmallFlash	0	70	2	1	0	distractor	1	739	631	75764	13.328	12.861	13.806
ProbeTrack13	15	ProbeTrack	13.2	SCS215b	20111107.135621	20111107.140501	8	0.013328	60	10	60-180	60	83	GapExp	SmallFlash	0	71	2	45	1	target	1	516	742	76506	13.328	13.090	13.565
ProbeTrack13	15	ProbeTrack	13.2	SCS215b	20111107.135621	20111107.140507	8	0.013328	60	10	60-180	60	157	GapExp	SmallFlash	0	72	2	45	1	target	1	517	742	77248	13.328	13.198	13.456
ProbeTrack13	15	ProbeTrack	13.2	SCS215b	20111107.135621	20111107.140515	8	0.013328	60	10	60-180	60	114	GapExp	SmallFlash	0	73	2	45	0	distractor	1	524	738	77986	13.328	12.839	13.807
ProbeTrack13	15	ProbeTrack	13.2	SCS215b	20111107.135621	20111107.140522	8	0.013328	60	10	60-180	60	153	GapExp	SmallFlash	0	74	2	45	1	target	1	521	740	78726	13.328	12.856	13.802
ProbeTrack13	15	ProbeTrack	13.2	SCS215b	20111107.135621	20111107.140529	8	0.013328	60	10	60-180	60	95	GapExp	SmallFlash	0	75	2	1	1	target	1	439	781	79507	13.328	12.915	13.731
ProbeTrack13	15	ProbeTrack	13.2	SCS215b	20111107.135621	20111107.140535	8	0.013328	60	10	60-180	60	145	GapExp	SmallFlash	0	76	2	0	1	target	1	580	710	80217	13.328	13.135	13.536
ProbeTrack13	15	ProbeTrack	13.2	SCS215b	20111107.135621	20111107.140542	8	0.013328	60	10	60-180	60	77	GapExp	SmallFlash	0	77	2	45	1	target	1	393	804	81021	13.328	12.871	13.814
ProbeTrack13	15	ProbeTrack	13.2	SCS215b	20111107.135621	20111107.140549	8	0.013328	60	10	60-180	60	153	GapExp	SmallFlash	0	78	2	1	1	target	1	560	720	81741	13.328	12.908	13.791
ProbeTrack13	15	ProbeTrack	13.2	SCS215b	20111107.135621	20111107.140558	8	0.013328	60	10	60-180	60	174	GapExp	SmallFlash	0	79	2	0	1	target	1	338	831	82572	13.328	12.850	13.809
ProbeTrack13	15	ProbeTrack	13.2	SCS215b	20111107.135621	20111107.140605	8	0.013328	60	10	60-180	60	112	GapExp	SmallFlash	0	80	2	45	0	distractor	1	516	742	83314	13.328	13.218	13.428
ProbeTrack13	15	ProbeTrack	13.2	SCS215b	20111107.135621	20111107.140611	8	0.013328	60	10	60-180	60	123	GapExp	SmallFlash	0	81	2	0	0	distractor	1	479	761	84075	13.328	12.870	13.786
ProbeTrack13	15	ProbeTrack	13.2	SCS215b	20111107.135621	20111107.140618	8	0.013328	60	10	60-180	60	109	GapExp	SmallFlash	0	82	2	0	1	target	1	399	801	84876	13.328	12.863	13.790
ProbeTrack13	15	ProbeTrack	13.2	SCS215b	20111107.135621	20111107.140624	8	0.013328	60	10	60-180	60	138	GapExp	SmallFlash	0	83	2	3	0	distractor	1	483	759	85635	13.328	12.898	13.767
ProbeTrack13	15	ProbeTrack	13.2	SCS215b	20111107.135621	20111107.140632	8	0.013328	60	10	60-180	60	166	GapExp	SmallFlash	0	84	2	0	0	distractor	1	439	781	86416	13.328	12.929	13.716
ProbeTrack13	15	ProbeTrack	13.2	SCS215b	20111107.135621	20111107.140638	8	0.013328	60	10	60-180	60	169	GapExp	SmallFlash	0	85	2	1	0	distractor	1	492	754	87170	13.328	13.035	13.612
ProbeTrack13	15	ProbeTrack	13.2	SCS215b	20111107.135621	20111107.140646	8	0.013328	60	10	60-180	60	69	GapExp	SmallFlash	0	86	2	45	0	distractor	1	565	718	87888	13.328	13.228	13.434
ProbeTrack13	15	ProbeTrack	13.2	SCS215b	20111107.135621	20111107.140652	8	0.013328	60	10	60-180	60	166	GapExp	SmallFlash	0	87	2	45	0	distractor	1	445	778	88666	13.328	12.971	13.698
ProbeTrack13	15	ProbeTrack	13.2	SCS215b	20111107.135621	20111107.140700	8	0.013328	60	10	60-180	60	66	GapExp	SmallFlash	0	88	2	0	0	distractor	1	505	748	89414	13.328	12.982	13.663
ProbeTrack13	15	ProbeTrack	13.2	SCS215b	20111107.135621	20111107.140706	8	0.013328	60	10	60-180	60	116	GapExp	SmallFlash	0	89	2	1	1	target	1	421	790	90204	13.328	13.169	13.477
ProbeTrack13	15	ProbeTrack	13.2	SCS215b	20111107.135621	20111107.140712	8	0.013328	60	10	60-180	60	159	GapExp	SmallFlash	0	90	2	45	0	distractor	1	490	755	90959	13.328	12.861	13.797
ProbeTrack13	15	ProbeTrack	13.2	SCS215b	20111107.135621	20111107.140719	8	0.013328	60	10	60-180	60	98	GapExp	SmallFlash	0	91	2	45	0	target	0	562	-1000	89959	13.328	13.084	13.568
ProbeTrack13	15	ProbeTrack	13.2	SCS215b	20111107.135621	20111107.140726	8	0.013328	60	10	60-180	60	133	GapExp	SmallFlash	0	92	2	1	0	distractor	1	577	712	90671	13.328	12.861	13.799
ProbeTrack13	15	ProbeTrack	13.2	SCS215b	20111107.135621	20111107.140733	8	0.013328	60	10	60-180	60	72	GapExp	SmallFlash	0	93	2	45	0	distractor	1	845	578	91249	13.328	13.110	13.548
ProbeTrack13	15	ProbeTrack	13.2	SCS215b	20111107.135621	20111107.140740	8	0.013328	60	10	60-180	60	107	GapExp	SmallFlash	0	94	2	0	0	distractor	1	482	759	92008	13.328	12.972	13.675
ProbeTrack13	15	ProbeTrack	13.2	SCS215b	20111107.135621	20111107.140746	8	0.013328	60	10	60-180	60	180	GapExp	SmallFlash	0	95	2	1	0	distractor	1	543	729	92737	13.327	12.850	13.797
ProbeTrack13	15	ProbeTrack	13.2	SCS215b	20111107.135621	20111107.140753	8	0.013328	60	10	60-180	60	85	GapExp	SmallFlash	0	96	2	45	1	distractor	0	408	-1000	91737	13.328	13.036	13.624
ProbeTrack13	15	ProbeTrack	13.2	SCS215b	20111107.135621	20111107.140759	8	0.013328	60	10	60-180	60	124	GapExp	SmallFlash	0	97	2	3	0	target	0	484	-1000	90737	13.328	13.095	13.549
ProbeTrack13	15	ProbeTrack	13.2	SCS215b	20111107.135621	20111107.140806	8	0.013328	60	10	60-180	60	100	GapExp	SmallFlash	0	98	2	3	1	target	1	347	827	91564	13.328	13.101	13.556
ProbeTrack13	15	ProbeTrack	13.2	SCS215b	20111107.135621	20111107.140813	8	0.013328	60	10	60-180	60	175	GapExp	SmallFlash	0	99	2	3	0	target	0	454	-1000	90564	13.327	12.894	13.724
ProbeTrack13	15	ProbeTrack	13.2	SCS215b	20111107.135621	20111107.140819	8	0.013328	60	10	60-180	60	170	GapExp	SmallFlash	0	100	2	0	0	distractor	1	575	713	91277	13.328	12.972	13.693
ProbeTrack13	15	ProbeTrack	13.2	SCS215b	20111107.135621	20111107.140826	8	0.013328	60	10	60-180	60	92	GapExp	SmallFlash	0	101	2	3	1	target	1	536	732	92009	13.328	13.294	13.352
ProbeTrack13	15	ProbeTrack	13.2	SCS215b	20111107.135621	20111107.140913	8	0.013328	60	10	60-180	60	82	GapExp	SmallFlash	0	102	2	0	0	distractor	1	576	712	92721	13.328	12.874	13.787
ProbeTrack13	15	ProbeTrack	13.2	SCS215b	20111107.135621	20111107.140919	8	0.013328	60	10	60-180	60	180	GapExp	SmallFlash	0	103	2	45	0	distractor	1	542	729	93450	13.328	12.869	13.791
ProbeTrack13	15	ProbeTrack	13.2	SCS215b	20111107.135621	20111107.140927	8	0.013328	60	10	60-180	60	112	GapExp	SmallFlash	0	104	2	0	0	distractor	1	537	732	94182	13.328	13.307	13.354
ProbeTrack13	15	ProbeTrack	13.2	SCS215b	20111107.135621	20111107.140934	8	0.013328	60	10	60-180	60	62	GapExp	SmallFlash	0	105	2	45	0	distractor	1	497	752	94934	13.328	12.848	13.809
ProbeTrack13	15	ProbeTrack	13.2	SCS215b	20111107.135621	20111107.140940	8	0.013328	60	10	60-180	60	121	GapExp	SmallFlash	0	106	2	3	1	distractor	0	400	-1000	93934	13.328	12.877	13.790
ProbeTrack13	15	ProbeTrack	13.2	SCS215b	20111107.135621	20111107.140946	8	0.013328	60	10	60-180	60	86	GapExp	SmallFlash	0	107	2	0	1	target	1	374	813	94747	13.328	13.103	13.558
ProbeTrack13	15	ProbeTrack	13.2	SCS215b	20111107.135621	20111107.140952	8	0.013328	60	10	60-180	60	121	GapExp	SmallFlash	0	108	2	3	0	distractor	1	645	678	95425	13.328	12.893	13.767
ProbeTrack13	15	ProbeTrack	13.2	SCS215b	20111107.135621	20111107.140959	8	0.013328	60	10	60-180	60	117	GapExp	SmallFlash	0	109	2	45	1	target	1	420	790	96215	13.328	12.900	13.749
ProbeTrack13	15	ProbeTrack	13.2	SCS215b	20111107.135621	20111107.141005	8	0.013328	60	10	60-180	60	164	GapExp	SmallFlash	0	110	2	1	0	distractor	1	392	804	97019	13.328	13.304	13.353
ProbeTrack13	15	ProbeTrack	13.2	SCS215b	20111107.135621	20111107.141015	8	0.013328	60	10	60-180	60	76	GapExp	SmallFlash	0	111	2	3	1	target	1	441	780	97799	13.328	13.301	13.352
ProbeTrack13	15	ProbeTrack	13.2	SCS215b	20111107.135621	20111107.141022	8	0.013328	60	10	60-180	60	146	GapExp	SmallFlash	0	112	2	3	0	distractor	1	500	750	98549	13.328	12.925	13.727
ProbeTrack13	15	ProbeTrack	13.2	SCS215b	20111107.135621	20111107.141029	8	0.013328	60	10	60-180	60	120	GapExp	SmallFlash	0	113	2	45	0	distractor	1	427	787	99336	13.328	12.916	13.762
ProbeTrack13	15	ProbeTrack	13.2	SCS215b	20111107.135621	20111107.141037	8	0.013328	60	10	60-180	60	137	GapExp	SmallFlash	0	114	2	45	1	target	1	500	750	100086	13.328	13.093	13.552
ProbeTrack13	15	ProbeTrack	13.2	SCS215b	20111107.135621	20111107.141047	8	0.013328	60	10	60-180	60	103	GapExp	SmallFlash	0	115	2	1	1	target	1	424	788	100874	13.328	12.994	13.733
ProbeTrack13	15	ProbeTrack	13.2	SCS215b	20111107.135621	20111107.141053	8	0.013328	60	10	60-180	60	163	GapExp	SmallFlash	0	116	2	1	0	distractor	1	338	831	101705	13.328	13.095	13.548
ProbeTrack13	15	ProbeTrack	13.2	SCS215b	20111107.135621	20111107.141100	8	0.013328	60	10	60-180	60	170	GapExp	SmallFlash	0	117	2	0	0	distractor	1	492	754	102459	13.328	12.862	13.779
ProbeTrack13	15	ProbeTrack	13.2	SCS215b	20111107.135621	20111107.141107	8	0.013328	60	10	60-180	60	138	GapExp	SmallFlash	0	118	2	0	1	target	1	352	824	103283	13.328	12.927	13.739
ProbeTrack13	15	ProbeTrack	13.2	SCS215b	20111107.135621	20111107.141114	8	0.013328	60	10	60-180	60	148	GapExp	SmallFlash	0	119	2	3	0	distractor	1	423	789	104072	13.328	12.951	13.708
ProbeTrack13	15	ProbeTrack	13.2	SCS215b	20111107.135621	20111107.141120	8	0.013328	60	10	60-180	60	116	GapExp	SmallFlash	0	120	2	1	1	target	1	525	738	104810	13.328	12.867	13.780
ProbeTrack13	15	ProbeTrack	13.2	SCS215b	20111107.135621	20111107.141127	8	0.013328	60	10	60-180	60	76	GapExp	SmallFlash	0	121	2	1	1	target	1	510	745	105555	13.328	12.935	13.729
ProbeTrack13	15	ProbeTrack	13.2	SCS215b	20111107.135621	20111107.141133	8	0.013328	60	10	60-180	60	107	GapExp	SmallFlash	0	122	2	1	0	distractor	1	478	761	106316	13.328	13.283	13.357
ProbeTrack13	15	ProbeTrack	13.2	SCS215b	20111107.135621	20111107.141139	8	0.013328	60	10	60-180	60	138	GapExp	SmallFlash	0	123	2	1	0	distractor	1	370	815	107131	13.328	13.236	13.404
ProbeTrack13	15	ProbeTrack	13.2	SCS215b	20111107.135621	20111107.141146	8	0.013328	60	10	60-180	60	136	GapExp	SmallFlash	0	124	2	0	0	distractor	1	452	774	107905	13.328	12.963	13.720
ProbeTrack13	15	ProbeTrack	13.2	SCS215b	20111107.135621	20111107.141153	8	0.013328	60	10	60-180	60	65	GapExp	SmallFlash	0	125	2	45	1	target	1	426	787	108692	13.328	12.914	13.756
ProbeTrack13	15	ProbeTrack	13.2	SCS215b	20111107.135621	20111107.141202	8	0.013328	60	10	60-180	60	62	GapExp	SmallFlash	0	126	2	1	1	target	1	440	780	109472	13.328	12.824	13.821
ProbeTrack13	15	ProbeTrack	13.2	SCS215b	20111107.135621	20111107.141207	8	0.013328	60	10	60-180	60	89	GapExp	SmallFlash	0	127	2	1	0	distractor	1	370	815	110287	13.328	12.903	13.775
ProbeTrack13	15	ProbeTrack	13.2	SCS215b	20111107.135621	20111107.141213	8	0.013328	60	10	60-180	60	140	GapExp	SmallFlash	0	128	2	3	0	distractor	1	544	728	111015	13.328	12.968	13.724
ProbeTrack13	15	ProbeTrack	13.2	SCS215b	20111107.135621	20111107.141220	8	0.013328	60	10	60-180	60	174	GapExp	SmallFlash	0	129	2	3	0	target	0	358	-1000	110015	13.328	12.874	13.797
ProbeTrack13	15	ProbeTrack	13.2	SCS215b	20111107.135621	20111107.141227	8	0.013328	60	10	60-180	60	85	GapExp	SmallFlash	0	130	2	0	0	distractor	1	388	806	110821	13.328	13.044	13.608
ProbeTrack13	15	ProbeTrack	13.2	SCS215b	20111107.135621	20111107.141233	8	0.013328	60	10	60-180	60	77	GapExp	SmallFlash	0	131	2	0	1	target	1	442	779	111600	13.328	12.901	13.790
ProbeTrack13	15	ProbeTrack	13.2	SCS215b	20111107.135621	20111107.141239	8	0.013328	60	10	60-180	60	96	GapExp	SmallFlash	0	132	2	45	1	target	1	405	798	112398	13.328	13.069	13.604
ProbeTrack13	15	ProbeTrack	13.2	SCS215b	20111107.135621	20111107.141248	8	0.013328	60	10	60-180	60	165	GapExp	SmallFlash	0	133	2	45	1	target	1	455	773	113171	13.328	12.974	13.682
ProbeTrack13	15	ProbeTrack	13.2	SCS215b	20111107.135621	20111107.141256	8	0.013328	60	10	60-180	60	125	GapExp	SmallFlash	0	134	2	45	1	target	1	458	771	113942	13.328	13.093	13.568
ProbeTrack13	15	ProbeTrack	13.2	SCS215b	20111107.135621	20111107.141303	8	0.013328	60	10	60-180	60	143	GapExp	SmallFlash	0	135	2	1	1	target	1	354	823	114765	13.328	13.228	13.413
ProbeTrack13	15	ProbeTrack	13.2	SCS215b	20111107.135621	20111107.141310	8	0.013328	60	10	60-180	60	69	GapExp	SmallFlash	0	136	2	3	0	distractor	1	404	798	115563	13.328	12.903	13.771
ProbeTrack13	15	ProbeTrack	13.2	SCS215b	20111107.135621	20111107.141316	8	0.013328	60	10	60-180	60	123	GapExp	SmallFlash	0	137	2	1	0	distractor	1	480	760	116323	13.328	13.090	13.569
ProbeTrack13	15	ProbeTrack	13.2	SCS215b	20111107.135621	20111107.141322	8	0.013328	60	10	60-180	60	81	GapExp	SmallFlash	0	138	2	0	0	distractor	1	445	778	117101	13.328	12.971	13.690
ProbeTrack13	15	ProbeTrack	13.2	SCS215b	20111107.135621	20111107.141327	8	0.013328	60	10	60-180	60	129	GapExp	SmallFlash	0	139	2	3	0	distractor	1	385	808	117909	13.328	12.973	13.671
ProbeTrack13	15	ProbeTrack	13.2	SCS215b	20111107.135621	20111107.141334	8	0.013328	60	10	60-180	60	84	GapExp	SmallFlash	0	140	2	45	0	distractor	1	534	733	118642	13.328	13.306	13.361
ProbeTrack13	15	ProbeTrack	13.2	SCS215b	20111107.135621	20111107.141341	8	0.013328	60	10	60-180	60	99	GapExp	SmallFlash	0	141	2	3	1	target	1	488	756	119398	13.328	12.922	13.698
ProbeTrack13	15	ProbeTrack	13.2	SCS215b	20111107.135621	20111107.141348	8	0.013328	60	10	60-180	60	122	GapExp	SmallFlash	0	142	2	0	1	target	1	430	785	120183	13.328	12.926	13.723
ProbeTrack13	15	ProbeTrack	13.2	SCS215b	20111107.135621	20111107.141354	8	0.013328	60	10	60-180	60	159	GapExp	SmallFlash	0	143	2	3	1	target	1	322	839	121022	13.328	12.836	13.790
ProbeTrack13	15	ProbeTrack	13.2	SCS215b	20111107.135621	20111107.141400	8	0.013328	60	10	60-180	60	160	GapExp	SmallFlash	0	144	2	3	1	target	1	431	785	121807	13.328	12.868	13.804
ProbeTrack13	15	ProbeTrack	13.2	SCS215b	20111107.135621	20111107.141408	8	0.013328	60	10	60-180	60	172	GapExp	SmallFlash	0	145	2	1	1	target	1	402	799	122606	13.328	13.108	13.561
ProbeTrack13	15	ProbeTrack	13.2	SCS215b	20111107.135621	20111107.141417	8	0.013328	60	10	60-180	60	142	GapExp	SmallFlash	0	146	2	0	0	distractor	1	465	768	123374	13.328	13.302	13.352
ProbeTrack13	15	ProbeTrack	13.2	SCS215b	20111107.135621	20111107.141425	8	0.013328	60	10	60-180	60	157	GapExp	SmallFlash	0	147	2	45	1	target	1	456	772	124146	13.328	12.871	13.806
ProbeTrack13	15	ProbeTrack	13.2	SCS215b	20111107.135621	20111107.141434	8	0.013328	60	10	60-180	60	76	GapExp	SmallFlash	0	148	2	0	0	target	0	522	-1000	123146	13.328	13.106	13.565
ProbeTrack13	15	ProbeTrack	13.2	SCS215b	20111107.135621	20111107.141440	8	0.013328	60	10	60-180	60	130	GapExp	SmallFlash	0	149	2	1	1	target	1	409	796	123942	13.328	13.103	13.554
ProbeTrack13	15	ProbeTrack	13.2	SCS215b	20111107.135621	20111107.141448	8	0.013328	60	10	60-180	60	126	GapExp	SmallFlash	0	150	2	45	1	target	1	331	835	124777	13.328	13.087	13.575
ProbeTrack13	15	ProbeTrack	13.2	SCS215b	20111107.135621	20111107.141455	8	0.013328	60	10	60-180	60	94	GapExp	SmallFlash	0	151	2	0	0	distractor	1	486	757	125534	13.328	12.936	13.721
ProbeTrack13	15	ProbeTrack	13.2	SCS215b	20111107.135621	20111107.141532	8	0.013328	60	10	60-180	60	70	GapExp	SmallFlash	0	152	2	0	1	target	1	376	812	126346	13.328	12.921	13.745
ProbeTrack13	15	ProbeTrack	13.2	SCS215b	20111107.135621	20111107.141538	8	0.013328	60	10	60-180	60	122	GapExp	SmallFlash	0	153	2	3	0	distractor	1	444	778	127124	13.328	13.176	13.469
ProbeTrack13	15	ProbeTrack	13.2	SCS215b	20111107.135621	20111107.141544	8	0.013328	60	10	60-180	60	81	GapExp	SmallFlash	0	154	2	45	1	target	1	387	807	127931	13.328	13.104	13.549
ProbeTrack13	15	ProbeTrack	13.2	SCS215b	20111107.135621	20111107.141550	8	0.013328	60	10	60-180	60	159	GapExp	SmallFlash	0	155	2	3	1	target	1	567	717	128648	13.374	12.843	27.136
ProbeTrack13	15	ProbeTrack	13.2	SCS215b	20111107.135621	20111107.141559	8	0.013328	60	10	60-180	60	163	GapExp	SmallFlash	0	156	2	0	0	distractor	1	560	720	129368	13.328	12.998	13.660
ProbeTrack13	15	ProbeTrack	13.2	SCS215b	20111107.135621	20111107.141607	8	0.013328	60	10	60-180	60	137	GapExp	SmallFlash	0	157	2	45	0	distractor	1	448	776	130144	13.328	13.065	13.584
ProbeTrack13	15	ProbeTrack	13.2	SCS215b	20111107.135621	20111107.141615	8	0.013328	60	10	60-180	60	98	GapExp	SmallFlash	0	158	2	1	0	distractor	1	428	786	130930	13.326	12.964	13.676
ProbeTrack13	15	ProbeTrack	13.2	SCS215b	20111107.135621	20111107.141622	8	0.013328	60	10	60-180	60	113	GapExp	SmallFlash	0	159	2	45	1	target	1	352	824	131754	13.328	12.821	13.827
ProbeTrack13	15	ProbeTrack	13.2	SCS215b	20111107.135621	20111107.141629	8	0.013328	60	10	60-180	60	137	GapExp	SmallFlash	0	160	2	1	1	target	1	474	763	132517	13.379	12.827	26.737
ProbeTrack13	15	ProbeTrack	13.2	SCS215b	20111107.135621	20111107.141635	8	0.013328	60	10	60-180	60	139	GapExp	SmallFlash	0	161	2	1	1	target	1	469	766	133283	13.328	13.169	13.492
ProbeTrack13	15	ProbeTrack	13.2	SCS215b	20111107.135621	20111107.141648	8	0.013328	60	10	60-180	60	89	GapExp	SmallFlash	0	162	2	3	0	distractor	1	501	750	134033	13.328	12.893	13.774
ProbeTrack13	15	ProbeTrack	13.2	SCS215b	20111107.135621	20111107.141654	8	0.013328	60	10	60-180	60	149	GapExp	SmallFlash	0	163	2	0	1	target	1	427	787	134820	13.328	12.830	13.814
ProbeTrack13	15	ProbeTrack	13.2	SCS215b	20111107.135621	20111107.141701	8	0.013328	60	10	60-180	60	94	GapExp	SmallFlash	0	164	2	0	1	target	1	385	808	135628	13.328	12.884	13.765
ProbeTrack13	15	ProbeTrack	13.2	SCS215b	20111107.135621	20111107.141706	8	0.013328	60	10	60-180	60	133	GapExp	SmallFlash	0	165	2	0	0	distractor	1	442	779	136407	13.328	12.885	13.817
ProbeTrack13	15	ProbeTrack	13.2	SCS215b	20111107.135621	20111107.141712	8	0.013328	60	10	60-180	60	177	GapExp	SmallFlash	0	166	2	1	0	distractor	1	477	762	137169	13.328	12.820	13.809
ProbeTrack13	15	ProbeTrack	13.2	SCS215b	20111107.135621	20111107.141720	8	0.013328	60	10	60-180	60	82	GapExp	SmallFlash	0	167	2	1	1	distractor	0	516	-1000	136169	13.328	12.915	13.747
ProbeTrack13	15	ProbeTrack	13.2	SCS215b	20111107.135621	20111107.141725	8	0.013328	60	10	60-180	60	139	GapExp	SmallFlash	0	168	2	45	1	target	1	441	780	136949	13.328	13.088	13.551
ProbeTrack13	15	ProbeTrack	13.2	SCS215b	20111107.135621	20111107.141733	8	0.013328	60	10	60-180	60	125	GapExp	SmallFlash	0	169	2	45	0	distractor	1	422	789	137738	13.328	13.101	13.551
ProbeTrack13	15	ProbeTrack	13.2	SCS215b	20111107.135621	20111107.141740	8	0.013328	60	10	60-180	60	72	GapExp	SmallFlash	0	170	2	0	1	target	1	449	776	138514	13.328	12.877	13.772
ProbeTrack13	15	ProbeTrack	13.2	SCS215b	20111107.135621	20111107.141746	8	0.013328	60	10	60-180	60	65	GapExp	SmallFlash	0	171	2	0	1	target	1	340	830	139344	13.328	12.897	13.354
ProbeTrack13	15	ProbeTrack	13.2	SCS215b	20111107.135621	20111107.141752	8	0.013328	60	10	60-180	60	125	GapExp	SmallFlash	0	172	2	3	0	distractor	1	372	814	140158	13.328	12.838	13.816
ProbeTrack13	15	ProbeTrack	13.2	SCS215b	20111107.135621	20111107.141759	8	0.013328	60	10	60-180	60	152	GapExp	SmallFlash	0	173	2	0	1	distractor	0	328	-1000	139158	13.328	12.966	13.686
ProbeTrack13	15	ProbeTrack	13.2	SCS215b	20111107.135621	20111107.141806	8	0.013328	60	10	60-180	60	104	GapExp	SmallFlash	0	174	2	1	1	target	1	378	811	139969	13.328	12.973	13.677
ProbeTrack13	15	ProbeTrack	13.2	SCS215b	20111107.135621	20111107.141812	8	0.013328	60	10	60-180	60	172	GapExp	SmallFlash	0	175	2	45	1	target	1	634	683	140652	13.328	12.877	13.783
ProbeTrack13	15	ProbeTrack	13.2	SCS215b	20111107.135621	20111107.141820	8	0.013328	60	10	60-180	60	159	GapExp	SmallFlash	0	176	2	0	1	target	1	448	776	141428	13.328	12.895	13.751
ProbeTrack13	15	ProbeTrack	13.2	SCS215b	20111107.135621	20111107.141841	8	0.013328	60	10	60-180	60	112	GapExp	SmallFlash	0	177	2	45	1	target	1	385	808	142236	13.328	13.040	13.607
ProbeTrack13	15	ProbeTrack	13.2	SCS215b	20111107.135621	20111107.141848	8	0.013328	60	10	60-180	60	76	GapExp	SmallFlash	0	178	2	3	1	target	1	362	819	143055	13.328	13.285	13.356
ProbeTrack13	15	ProbeTrack	13.2	SCS215b	20111107.135621	20111107.141854	8	0.013328	60	10	60-180	60	169	GapExp	SmallFlash	0	179	2	3	1	target	1	486	757	143812	13.328	12.860	13.806
ProbeTrack13	15	ProbeTrack	13.2	SCS215b	20111107.135621	20111107.141901	8	0.013328	60	10	60-180	60	65	GapExp	SmallFlash	0	180	2	45	0	distractor	1	470	765	144577	13.328	12.904	13.752
ProbeTrack13	15	ProbeTrack	13.2	SCS215b	20111107.135621	20111107.141907	8	0.013328	60	10	60-180	60	93	GapExp	SmallFlash	0	181	2	1	0	distractor	1	354	823	145400	13.328	12.864	13.818
ProbeTrack13	15	ProbeTrack	13.2	SCS215b	20111107.135621	20111107.141914	8	0.013328	60	10	60-180	60	84	GapExp	SmallFlash	0	182	2	1	0	distractor	1	564	718	146118	13.328	12.924	13.737
ProbeTrack13	15	ProbeTrack	13.2	SCS215b	20111107.135621	20111107.141922	8	0.013328	60	10	60-180	60	144	GapExp	SmallFlash	0	183	2	45	0	distractor	1	357	822	146940	13.328	12.881	13.781
ProbeTrack13	15	ProbeTrack	13.2	SCS215b	20111107.135621	20111107.141929	8	0.013328	60	10	60-180	60	88	GapExp	SmallFlash	0	184	2	0	1	target	1	438	781	147721	13.392	13.022	26.661
ProbeTrack13	15	ProbeTrack	13.2	SCS215b	20111107.135621	20111107.141935	8	0.013328	60	10	60-180	60	179	GapExp	SmallFlash	0	185	2	3	1	target	1	502	749	148470	13.328	12.872	13.767
ProbeTrack13	15	ProbeTrack	13.2	SCS215b	20111107.135621	20111107.141942	8	0.013328	60	10	60-180	60	143	GapExp	SmallFlash	0	186	2	1	0	distractor	1	451	775	149245	13.328	13.101	13.546
ProbeTrack13	15	ProbeTrack	13.2	SCS215b	20111107.135621	20111107.141949	8	0.013328	60	10	60-180	60	161	GapExp	SmallFlash	0	187	2	0	1	target	1	363	819	150064	13.328	13.098	13.549
ProbeTrack13	15	ProbeTrack	13.2	SCS215b	20111107.135621	20111107.141956	8	0.013328	60	10	60-180	60	87	GapExp	SmallFlash	0	188	2	3	0	target	0	898	-1000	149064	13.328	12.849	13.818
ProbeTrack13	15	ProbeTrack	13.2	SCS215b	20111107.135621	20111107.142002	8	0.013328	60	10	60-180	60	70	GapExp	SmallFlash	0	189	2	0	0	distractor	1	466	767	149831	13.328	13.033	13.628
ProbeTrack13	15	ProbeTrack	13.2	SCS215b	20111107.135621	20111107.142013	8	0.013328	60	10	60-180	60	107	GapExp	SmallFlash	0	190	2	3	1	target	1	366	817	150648	13.328	12.875	13.782
ProbeTrack13	15	ProbeTrack	13.2	SCS215b	20111107.135621	20111107.142019	8	0.013328	60	10	60-180	60	169	GapExp	SmallFlash	0	191	2	0	1	target	1	513	744	151392	13.328	12.963	13.682
ProbeTrack13	15	ProbeTrack	13.2	SCS215b	20111107.135621	20111107.142027	8	0.013328	60	10	60-180	60	125	GapExp	SmallFlash	0	192	2	0	1	target	1	359	821	152213	13.328	13.018	13.647
ProbeTrack13	15	ProbeTrack	13.2	SCS215b	20111107.135621	20111107.142033	8	0.013328	60	10	60-180	60	114	GapExp	SmallFlash	0	193	2	45	0	distractor	1	479	761	152974	13.328	13.209	13.444
ProbeTrack13	15	ProbeTrack	13.2	SCS215b	20111107.135621	20111107.142039	8	0.013328	60	10	60-180	60	152	GapExp	SmallFlash	0	194	2	45	0	distractor	1	504	748	153722	13.328	12.907	13.743
ProbeTrack13	15	ProbeTrack	13.2	SCS215b	20111107.135621	20111107.142046	8	0.013328	60	10	60-180	60	67	GapExp	SmallFlash	0	195	2	3	1	target	1	411	795	154517	13.328	12.857	13.806
ProbeTrack13	15	ProbeTrack	13.2	SCS215b	20111107.135621	20111107.142052	8	0.013328	60	10	60-180	60	64	GapExp	SmallFlash	0	196	2	1	1	target	1	497	752	155269	13.328	12.835	13.820
ProbeTrack13	15	ProbeTrack	13.2	SCS215b	20111107.135621	20111107.142058	8	0.013328	60	10	60-180	60	170	GapExp	SmallFlash	0	197	2	3	1	target	1	400	800	156069	13.328	12.953	13.705
ProbeTrack13	15	ProbeTrack	13.2	SCS215b	20111107.135621	20111107.142105	8	0.013328	60	10	60-180	60	85	GapExp	SmallFlash	0	198	2	45	1	target	1	594	703	156772	13.328	13.001	13.649
ProbeTrack13	15	ProbeTrack	13.2	SCS215b	20111107.135621	20111107.142111	8	0.013328	60	10	60-180	60	158	GapExp	SmallFlash	0	199	2	0	0	distractor	1	658	671	157443	13.328	12.899	13.759
ProbeTrack13	15	ProbeTrack	13.2	SCS215b	20111107.135621	20111107.142118	8	0.013328	60	10	60-180	60	91	GapExp	SmallFlash	0	200	2	3	1	target	1	347	827	158270	13.328	12.955	13.701
ProbeTrack13	15	ProbeTrack	13.2	SCS215b	20111107.142314	20111107.142358	8	0.013328	60	10	60-180	60	176	GapPrac	Blank	1	1	2	0	0	target	0	446	-1000	157270	13.373	13.115	13.565
ProbeTrack13	15	ProbeTrack	13.2	SCS215b	20111107.142314	20111107.142406	8	0.013328	60	10	60-180	60	106	GapPrac	Blank	1	2	2	45	0	distractor	1	538	731	158001	13.328	12.862	13.788
ProbeTrack13	15	ProbeTrack	13.2	SCS215b	20111107.142314	20111107.142412	8	0.013328	60	10	60-180	60	67	GapPrac	Blank	1	3	2	1	1	target	1	527	737	158738	13.328	12.851	13.808
ProbeTrack13	15	ProbeTrack	13.2	SCS215b	20111107.142314	20111107.142419	8	0.013328	60	10	60-180	60	146	GapPrac	Blank	1	4	2	3	0	distractor	1	509	746	159484	13.328	12.887	13.774
ProbeTrack13	15	ProbeTrack	13.2	SCS215b	20111107.142314	20111107.142426	8	0.013328	60	10	60-180	60	110	GapPrac	Blank	1	5	2	1	1	distractor	0	429	-1000	158484	13.328	13.125	13.530
ProbeTrack13	15	ProbeTrack	13.2	SCS215b	20111107.142314	20111107.142432	8	0.013328	60	10	60-180	60	69	GapPrac	Blank	1	6	2	45	1	target	1	409	796	159280	13.328	12.888	13.770
ProbeTrack13	15	ProbeTrack	13.2	SCS215b	20111107.142314	20111107.142438	8	0.013328	60	10	60-180	60	169	GapPrac	Blank	1	7	2	1	1	target	1	567	717	159997	13.328	12.859	13.827
ProbeTrack13	15	ProbeTrack	13.2	SCS215b	20111107.142314	20111107.142445	8	0.013328	60	10	60-180	60	76	GapPrac	Blank	1	8	2	1	0	distractor	1	627	687	160684	13.328	13.135	13.513
ProbeTrack13	15	ProbeTrack	13.2	SCS215b	20111107.142314	20111107.142451	8	0.013328	60	10	60-180	60	73	GapPrac	Blank	1	9	2	3	1	target	1	445	778	161462	13.328	12.872	13.800
ProbeTrack13	15	ProbeTrack	13.2	SCS215b	20111107.142314	20111107.142458	8	0.013328	60	10	60-180	60	137	GapPrac	Blank	1	10	2	45	0	distractor	1	749	626	162088	13.328	12.857	13.799
ProbeTrack13	15	ProbeTrack	13.2	SCS215b	20111107.142314	20111107.142505	8	0.013328	60	10	60-180	60	82	GapPrac	Blank	1	11	2	45	0	distractor	1	572	714	162802	13.328	13.304	13.351
ProbeTrack13	15	ProbeTrack	13.2	SCS215b	20111107.142314	20111107.142512	8	0.013328	60	10	60-180	60	169	GapPrac	Blank	1	12	2	0	1	target	1	541	730	163532	13.328	12.902	13.776
ProbeTrack13	15	ProbeTrack	13.2	SCS215b	20111107.142314	20111107.142519	8	0.013328	60	10	60-180	60	65	GapPrac	Blank	1	13	2	1	0	distractor	1	477	762	164294	13.328	13.303	13.352
ProbeTrack13	15	ProbeTrack	13.2	SCS215b	20111107.142314	20111107.142526	8	0.013328	60	10	60-180	60	160	GapPrac	Blank	1	14	2	3	0	distractor	1	415	793	165087	13.328	12.826	13.829
ProbeTrack13	15	ProbeTrack	13.2	SCS215b	20111107.142314	20111107.142533	8	0.013328	60	10	60-180	60	124	GapPrac	Blank	1	15	2	0	0	distractor	1	374	813	165900	13.328	12.889	13.765
ProbeTrack13	15	ProbeTrack	13.2	SCS215b	20111107.142314	20111107.142540	8	0.013328	60	10	60-180	60	128	GapPrac	Blank	1	16	2	0	0	distractor	1	509	746	166646	13.328	12.886	13.753
ProbeTrack13	15	ProbeTrack	13.2	SCS215b	20111107.142314	20111107.142547	8	0.013328	60	10	60-180	60	70	GapPrac	Blank	1	17	2	45	1	target	1	480	760	167406	13.328	12.885	13.781
ProbeTrack13	15	ProbeTrack	13.2	SCS215b	20111107.142314	20111107.142552	8	0.013328	60	10	60-180	60	155	GapPrac	Blank	1	18	2	3	0	distractor	1	449	776	168182	13.328	13.100	13.562
ProbeTrack13	15	ProbeTrack	13.2	SCS215b	20111107.142314	20111107.142559	8	0.013328	60	10	60-180	60	78	GapPrac	Blank	1	19	2	0	1	target	1	557	722	168904	13.328	13.023	13.638
ProbeTrack13	15	ProbeTrack	13.2	SCS215b	20111107.142314	20111107.142605	8	0.013328	60	10	60-180	60	122	GapPrac	Blank	1	20	2	3	1	target	1	322	839	169743	13.328	12.925	13.750
ProbeTrack13	15	ProbeTrack	13.2	SCS215b	20111107.142757	20111107.142805	8	0.013328	60	10	60-180	60	67	GapExp	Blank	1	1	2	1	1	target	1	469	766	170509	13.398	8.690	17.981
ProbeTrack13	15	ProbeTrack	13.2	SCS215b	20111107.142757	20111107.142816	8	0.013328	60	10	60-180	60	169	GapExp	Blank	1	2	2	3	1	target	1	395	803	171312	13.328	9.318	17.344
ProbeTrack13	15	ProbeTrack	13.2	SCS215b	20111107.142757	20111107.142823	8	0.013328	60	10	60-180	60	72	GapExp	Blank	1	3	2	1	0	distractor	1	473	764	172076	13.328	6.901	19.760
ProbeTrack13	15	ProbeTrack	13.2	SCS215b	20111107.142757	20111107.142828	8	0.013328	60	10	60-180	60	133	GapExp	Blank	1	4	2	45	1	distractor	0	885	-1000	171076	13.328	12.886	13.756
ProbeTrack13	15	ProbeTrack	13.2	SCS215b	20111107.142757	20111107.142835	8	0.013328	60	10	60-180	60	149	GapExp	Blank	1	5	2	0	0	distractor	1	566	717	171793	13.328	4.119	22.530
ProbeTrack13	15	ProbeTrack	13.2	SCS215b	20111107.142757	20111107.142841	8	0.013328	60	10	60-180	60	171	GapExp	Blank	1	6	2	3	0	distractor	1	687	657	172450	13.328	3.676	22.985
ProbeTrack13	15	ProbeTrack	13.2	SCS215b	20111107.142757	20111107.142849	8	0.013328	60	10	60-180	60	126	GapExp	Blank	1	7	2	45	0	distractor	1	496	752	173202	13.328	5.182	21.465
ProbeTrack13	15	ProbeTrack	13.2	SCS215b	20111107.142757	20111107.142856	8	0.013328	60	10	60-180	60	163	GapExp	Blank	1	8	2	0	1	target	1	328	836	174038	13.328	11.263	15.403
ProbeTrack13	15	ProbeTrack	13.2	SCS215b	20111107.142757	20111107.142902	8	0.013328	60	10	60-180	60	64	GapExp	Blank	0	9	2	45	1	target	1	365	818	174856	13.328	5.041	21.608
ProbeTrack13	15	ProbeTrack	13.2	SCS215b	20111107.142757	20111107.142924	8	0.013328	60	10	60-180	60	114	GapExp	Blank	0	10	2	45	0	distractor	1	445	778	175634	13.328	13.234	13.416
ProbeTrack13	15	ProbeTrack	13.2	SCS215b	20111107.142757	20111107.142933	8	0.013328	60	10	60-180	60	69	GapExp	Blank	0	11	2	3	1	target	1	451	775	176409	13.328	9.924	16.728
ProbeTrack13	15	ProbeTrack	13.2	SCS215b	20111107.142757	20111107.142938	8	0.013328	60	10	60-180	60	74	GapExp	Blank	0	12	2	1	0	distractor	1	372	814	177223	13.328	13.296	13.352
ProbeTrack13	15	ProbeTrack	13.2	SCS215b	20111107.142757	20111107.142944	8	0.013328	60	10	60-180	60	112	GapExp	Blank	0	13	2	3	0	distractor	1	401	800	178023	13.328	7.892	18.752
ProbeTrack13	15	ProbeTrack	13.2	SCS215b	20111107.142757	20111107.142949	8	0.013328	60	10	60-180	60	164	GapExp	Blank	0	14	2	0	0	distractor	1	605	698	178721	13.328	4.227	22.429
ProbeTrack13	15	ProbeTrack	13.2	SCS215b	20111107.142757	20111107.142957	8	0.013328	60	10	60-180	60	116	GapExp	Blank	0	15	2	0	1	target	1	347	827	179548	13.328	12.781	13.873
ProbeTrack13	15	ProbeTrack	13.2	SCS215b	20111107.142757	20111107.143002	8	0.013328	60	10	60-180	60	170	GapExp	Blank	0	16	2	1	0	distractor	1	454	773	180321	13.328	8.692	17.977
ProbeTrack13	15	ProbeTrack	13.2	SCS215b	20111107.142757	20111107.143009	8	0.013328	60	10	60-180	60	96	GapExp	Blank	0	17	2	45	0	distractor	1	681	660	180981	13.328	5.877	20.766
ProbeTrack13	15	ProbeTrack	13.2	SCS215b	20111107.142757	20111107.143016	8	0.013328	60	10	60-180	60	92	GapExp	Blank	0	18	2	45	0	distractor	1	774	613	181594	13.328	13.230	13.423
ProbeTrack13	15	ProbeTrack	13.2	SCS215b	20111107.142757	20111107.143023	8	0.013328	60	10	60-180	60	90	GapExp	Blank	0	19	2	0	0	target	0	315	-1000	180594	13.328	10.993	15.694
ProbeTrack13	15	ProbeTrack	13.2	SCS215b	20111107.142757	20111107.143029	8	0.013328	60	10	60-180	60	89	GapExp	Blank	0	20	2	3	1	target	1	420	790	181384	13.328	13.301	13.354
ProbeTrack13	15	ProbeTrack	13.2	SCS215b	20111107.142757	20111107.143037	8	0.013328	60	10	60-180	60	91	GapExp	Blank	0	21	2	0	1	target	1	444	778	182162	13.328	11.287	15.355
ProbeTrack13	15	ProbeTrack	13.2	SCS215b	20111107.142757	20111107.143043	8	0.013328	60	10	60-180	60	130	GapExp	Blank	0	22	2	0	1	target	1	318	841	183003	13.328	9.229	17.419
ProbeTrack13	15	ProbeTrack	13.2	SCS215b	20111107.142757	20111107.143049	8	0.013328	60	10	60-180	60	171	GapExp	Blank	0	23	2	0	0	target	0	574	-1000	182003	13.328	11.371	15.286
ProbeTrack13	15	ProbeTrack	13.2	SCS215b	20111107.142757	20111107.143056	8	0.013328	60	10	60-180	60	68	GapExp	Blank	0	24	2	1	0	distractor	1	488	756	182759	13.328	11.015	15.646
ProbeTrack13	15	ProbeTrack	13.2	SCS215b	20111107.142757	20111107.143102	8	0.013328	60	10	60-180	60	130	GapExp	Blank	0	25	2	45	0	target	0	434	-1000	181759	13.328	9.826	16.836
ProbeTrack13	15	ProbeTrack	13.2	SCS215b	20111107.142757	20111107.143112	8	0.013328	60	10	60-180	60	163	GapExp	Blank	0	26	2	3	0	distractor	1	484	758	182517	13.328	11.135	15.541
ProbeTrack13	15	ProbeTrack	13.2	SCS215b	20111107.142757	20111107.143120	8	0.013328	60	10	60-180	60	102	GapExp	Blank	0	27	2	0	0	distractor	1	486	757	183274	13.328	8.867	17.798
ProbeTrack13	15	ProbeTrack	13.2	SCS215b	20111107.142757	20111107.143126	8	0.013328	60	10	60-180	60	85	GapExp	Blank	0	28	2	0	0	target	0	265	-1000	182274	13.328	12.484	14.178
ProbeTrack13	15	ProbeTrack	13.2	SCS215b	20111107.142757	20111107.143133	8	0.013328	60	10	60-180	60	99	GapExp	Blank	0	29	2	1	0	distractor	1	616	692	182966	13.328	13.108	13.557
ProbeTrack13	15	ProbeTrack	13.2	SCS215b	20111107.142757	20111107.143140	8	0.013328	60	10	60-180	60	178	GapExp	Blank	0	30	2	0	0	distractor	1	447	777	183743	13.328	11.009	15.674
ProbeTrack13	15	ProbeTrack	13.2	SCS215b	20111107.142757	20111107.143226	8	0.013328	60	10	60-180	60	98	GapExp	Blank	0	31	2	3	1	distractor	0	385	-1000	182743	13.328	13.301	13.357
ProbeTrack13	15	ProbeTrack	13.2	SCS215b	20111107.142757	20111107.143232	8	0.013328	60	10	60-180	60	62	GapExp	Blank	0	32	2	3	0	distractor	1	470	765	183508	13.328	13.102	13.554
ProbeTrack13	15	ProbeTrack	13.2	SCS215b	20111107.142757	20111107.143238	8	0.013328	60	10	60-180	60	137	GapExp	Blank	0	33	2	0	1	target	1	278	861	184369	13.383	11.596	26.550
ProbeTrack13	15	ProbeTrack	13.2	SCS215b	20111107.142757	20111107.143244	8	0.013328	60	10	60-180	60	101	GapExp	Blank	0	34	2	0	1	target	1	302	849	185218	13.328	13.100	13.567
ProbeTrack13	15	ProbeTrack	13.2	SCS215b	20111107.142757	20111107.143250	8	0.013328	60	10	60-180	60	125	GapExp	Blank	0	35	2	45	1	distractor	0	767	-1000	184218	13.328	10.415	16.278
ProbeTrack13	15	ProbeTrack	13.2	SCS215b	20111107.142757	20111107.143258	8	0.013328	60	10	60-180	60	126	GapExp	Blank	0	36	2	45	1	target	1	434	783	185001	13.328	12.578	14.087
ProbeTrack13	15	ProbeTrack	13.2	SCS215b	20111107.142757	20111107.143306	8	0.013328	60	10	60-180	60	76	GapExp	Blank	0	37	2	0	1	target	1	313	844	185845	13.328	9.267	17.395
ProbeTrack13	15	ProbeTrack	13.2	SCS215b	20111107.142757	20111107.143311	8	0.013328	60	10	60-180	60	107	GapExp	Blank	0	38	2	3	1	target	1	315	843	186688	13.328	11.768	14.886
ProbeTrack13	15	ProbeTrack	13.2	SCS215b	20111107.142757	20111107.143317	8	0.013328	60	10	60-180	60	113	GapExp	Blank	0	39	2	45	0	distractor	1	480	760	187448	13.328	7.937	18.717
ProbeTrack13	15	ProbeTrack	13.2	SCS215b	20111107.142757	20111107.143324	8	0.013328	60	10	60-180	60	96	GapExp	Blank	0	40	2	1	1	target	1	348	826	188274	13.328	13.306	13.353
ProbeTrack13	15	ProbeTrack	13.2	SCS215b	20111107.142757	20111107.143331	8	0.013328	60	10	60-180	60	116	GapExp	Blank	0	41	2	1	1	target	1	333	834	189108	13.328	7.896	18.779
ProbeTrack13	15	ProbeTrack	13.2	SCS215b	20111107.142757	20111107.143337	8	0.013328	60	10	60-180	60	140	GapExp	Blank	0	42	2	0	1	target	1	448	776	189884	13.328	3.920	22.746
ProbeTrack13	15	ProbeTrack	13.2	SCS215b	20111107.142757	20111107.143344	8	0.013328	60	10	60-180	60	78	GapExp	Blank	0	43	2	1	0	target	0	428	-1000	188884	13.328	8.855	17.808
ProbeTrack13	15	ProbeTrack	13.2	SCS215b	20111107.142757	20111107.143350	8	0.013328	60	10	60-180	60	114	GapExp	Blank	0	44	2	45	1	target	1	456	772	189656	13.328	8.906	17.748
ProbeTrack13	15	ProbeTrack	13.2	SCS215b	20111107.142757	20111107.143357	8	0.013328	60	10	60-180	60	82	GapExp	Blank	0	45	2	3	0	target	0	423	-1000	188656	13.328	6.083	20.574
ProbeTrack13	15	ProbeTrack	13.2	SCS215b	20111107.142757	20111107.143403	8	0.013328	60	10	60-180	60	122	GapExp	Blank	0	46	2	3	1	target	1	550	725	189381	13.328	4.840	21.816
ProbeTrack13	15	ProbeTrack	13.2	SCS215b	20111107.142757	20111107.143410	8	0.013328	60	10	60-180	60	70	GapExp	Blank	0	47	2	3	1	target	1	432	784	190165	13.328	6.271	20.382
ProbeTrack13	15	ProbeTrack	13.2	SCS215b	20111107.142757	20111107.143416	8	0.013328	60	10	60-180	60	162	GapExp	Blank	0	48	2	1	0	distractor	1	543	729	190894	13.328	4.842	21.813
ProbeTrack13	15	ProbeTrack	13.2	SCS215b	20111107.142757	20111107.143424	8	0.013328	60	10	60-180	60	145	GapExp	Blank	0	49	2	1	0	target	0	431	-1000	189894	13.328	10.294	16.344
ProbeTrack13	15	ProbeTrack	13.2	SCS215b	20111107.142757	20111107.143431	8	0.013328	60	10	60-180	60	112	GapExp	Blank	0	50	2	1	1	target	1	603	699	190593	13.328	13.303	13.353
ProbeTrack13	15	ProbeTrack	13.2	SCS215b	20111107.142757	20111107.143439	8	0.013328	60	10	60-180	60	141	GapExp	Blank	0	51	2	1	0	distractor	1	565	718	191311	13.328	12.563	14.075
ProbeTrack13	15	ProbeTrack	13.2	SCS215b	20111107.142757	20111107.143512	8	0.013328	60	10	60-180	60	172	GapExp	Blank	0	52	2	1	1	target	1	360	820	192131	13.328	13.307	13.356
ProbeTrack13	15	ProbeTrack	13.2	SCS215b	20111107.142757	20111107.143519	8	0.013328	60	10	60-180	60	99	GapExp	Blank	0	53	2	45	0	distractor	1	519	741	192872	13.328	4.500	22.144
ProbeTrack13	15	ProbeTrack	13.2	SCS215b	20111107.142757	20111107.143526	8	0.013328	60	10	60-180	60	87	GapExp	Blank	0	54	2	0	1	target	1	435	783	193655	13.328	6.163	20.495
ProbeTrack13	15	ProbeTrack	13.2	SCS215b	20111107.142757	20111107.143531	8	0.013328	60	10	60-180	60	172	GapExp	Blank	0	55	2	3	0	distractor	1	519	741	194396	13.328	8.349	18.308
ProbeTrack13	15	ProbeTrack	13.2	SCS215b	20111107.142757	20111107.143550	8	0.013328	60	10	60-180	60	156	GapExp	Blank	0	56	2	3	0	distractor	1	455	773	195169	13.328	8.842	17.806
ProbeTrack13	15	ProbeTrack	13.2	SCS215b	20111107.142757	20111107.143558	8	0.013328	60	10	60-180	60	122	GapExp	Blank	0	57	2	45	1	target	1	396	802	195971	13.328	8.620	18.035
ProbeTrack13	15	ProbeTrack	13.2	SCS215b	20111107.142757	20111107.143605	8	0.013328	60	10	60-180	60	143	GapExp	Blank	0	58	2	0	1	target	1	394	803	196774	13.328	11.196	15.448
ProbeTrack13	15	ProbeTrack	13.2	SCS215b	20111107.142757	20111107.143611	8	0.013328	60	10	60-180	60	63	GapExp	Blank	0	59	2	45	0	distractor	1	476	762	197536	13.328	13.307	13.350
ProbeTrack13	15	ProbeTrack	13.2	SCS215b	20111107.142757	20111107.143618	8	0.013328	60	10	60-180	60	118	GapExp	Blank	0	60	2	45	0	distractor	1	417	792	198328	13.328	13.287	13.379
ProbeTrack13	15	ProbeTrack	13.2	SCS215b	20111107.142757	20111107.143625	8	0.013328	60	10	60-180	60	69	GapExp	Blank	0	61	2	1	0	distractor	1	395	803	199131	13.328	8.336	18.333
ProbeTrack13	15	ProbeTrack	13.2	SCS215b	20111107.142757	20111107.143631	8	0.013328	60	10	60-180	60	94	GapExp	Blank	0	62	2	45	0	distractor	1	435	783	199914	13.328	10.848	15.815
ProbeTrack13	15	ProbeTrack	13.2	SCS215b	20111107.142757	20111107.143637	8	0.013328	60	10	60-180	60	159	GapExp	Blank	0	63	2	1	1	target	1	619	691	200605	13.328	9.238	17.422
ProbeTrack13	15	ProbeTrack	13.2	SCS215b	20111107.142757	20111107.143644	8	0.013328	60	10	60-180	60	119	GapExp	Blank	0	64	2	3	1	target	1	426	787	201392	13.328	3.973	22.682
ProbeTrack13	15	ProbeTrack	13.2	SCS215b	20111107.142757	20111107.143650	8	0.013328	60	10	60-180	60	112	GapExp	Blank	0	65	2	3	0	distractor	1	594	703	202095	13.328	11.076	15.578
ProbeTrack13	15	ProbeTrack	13.2	SCS215b	20111107.142757	20111107.143656	8	0.013328	60	10	60-180	60	164	GapExp	Blank	0	66	2	3	1	target	1	547	727	202822	13.328	8.948	17.711
ProbeTrack13	15	ProbeTrack	13.2	SCS215b	20111107.142757	20111107.143703	8	0.013328	60	10	60-180	60	81	GapExp	Blank	0	67	2	0	0	distractor	1	443	779	203601	13.328	11.348	15.333
ProbeTrack13	15	ProbeTrack	13.2	SCS215b	20111107.142757	20111107.143708	8	0.013328	60	10	60-180	60	96	GapExp	Blank	0	68	2	1	0	distractor	1	398	801	204402	13.328	10.748	15.915
ProbeTrack13	15	ProbeTrack	13.2	SCS215b	20111107.142757	20111107.143714	8	0.013328	60	10	60-180	60	68	GapExp	Blank	0	69	2	0	1	target	1	360	820	205222	13.328	13.290	13.368
ProbeTrack13	15	ProbeTrack	13.2	SCS215b	20111107.142757	20111107.143719	8	0.013328	60	10	60-180	60	76	GapExp	Blank	0	70	2	45	1	target	1	417	792	206014	13.328	8.953	17.702
ProbeTrack13	15	ProbeTrack	13.2	SCS215b	20111107.142757	20111107.143725	8	0.013328	60	10	60-180	60	134	GapExp	Blank	0	71	2	3	1	target	1	353	824	206838	13.328	6.957	19.709
ProbeTrack13	15	ProbeTrack	13.2	SCS215b	20111107.142757	20111107.143731	8	0.013328	60	10	60-180	60	91	GapExp	Blank	0	72	2	1	0	distractor	1	596	702	207540	13.328	7.580	19.081
ProbeTrack13	15	ProbeTrack	13.2	SCS215b	20111107.142757	20111107.143737	8	0.013328	60	10	60-180	60	119	GapExp	Blank	0	73	2	1	1	distractor	0	429	-1000	206540	13.328	11.050	15.606
ProbeTrack13	15	ProbeTrack	13.2	SCS215b	20111107.142757	20111107.143742	8	0.013328	60	10	60-180	60	179	GapExp	Blank	0	74	2	3	0	distractor	1	494	753	207293	13.328	7.369	19.299
ProbeTrack13	15	ProbeTrack	13.2	SCS215b	20111107.142757	20111107.143749	8	0.013328	60	10	60-180	60	161	GapExp	Blank	0	75	2	3	0	distractor	1	480	760	208053	13.328	6.728	19.918
ProbeTrack13	15	ProbeTrack	13.2	SCS215b	20111107.142757	20111107.143756	8	0.013328	60	10	60-180	60	132	GapExp	Blank	0	76	2	3	1	target	1	495	753	208806	13.328	10.232	16.419
ProbeTrack13	15	ProbeTrack	13.2	SCS215b	20111107.142757	20111107.143803	8	0.013328	60	10	60-180	60	67	GapExp	Blank	0	77	2	3	0	distractor	1	711	645	209451	13.328	4.963	21.679
ProbeTrack13	15	ProbeTrack	13.2	SCS215b	20111107.142757	20111107.143808	8	0.013328	60	10	60-180	60	142	GapExp	Blank	0	78	2	45	0	distractor	1	504	748	210199	13.328	12.616	14.060
ProbeTrack13	15	ProbeTrack	13.2	SCS215b	20111107.142757	20111107.143815	8	0.013328	60	10	60-180	60	131	GapExp	Blank	0	79	2	45	0	distractor	1	631	685	210884	13.328	13.115	13.552
ProbeTrack13	15	ProbeTrack	13.2	SCS215b	20111107.142757	20111107.143822	8	0.013328	60	10	60-180	60	71	GapExp	Blank	0	80	2	0	1	target	1	367	817	211701	13.328	10.451	16.218
ProbeTrack13	15	ProbeTrack	13.2	SCS215b	20111107.142757	20111107.143828	8	0.013328	60	10	60-180	60	162	GapExp	Blank	0	81	2	45	0	distractor	1	500	750	212451	13.328	7.780	18.879
ProbeTrack13	15	ProbeTrack	13.2	SCS215b	20111107.142757	20111107.143835	8	0.013328	60	10	60-180	60	180	GapExp	Blank	0	82	2	3	0	distractor	1	461	770	213221	13.328	11.378	15.300
ProbeTrack13	15	ProbeTrack	13.2	SCS215b	20111107.142757	20111107.143843	8	0.013328	60	10	60-180	60	135	GapExp	Blank	0	83	2	45	1	target	1	418	791	214012	13.328	5.185	21.467
ProbeTrack13	15	ProbeTrack	13.2	SCS215b	20111107.142757	20111107.143850	8	0.013328	60	10	60-180	60	140	GapExp	Blank	0	84	2	45	0	distractor	1	530	735	214747	13.328	12.810	13.844
ProbeTrack13	15	ProbeTrack	13.2	SCS215b	20111107.142757	20111107.143857	8	0.013328	60	10	60-180	60	152	GapExp	Blank	0	85	2	1	1	target	1	365	818	215565	13.378	4.575	22.061
ProbeTrack13	15	ProbeTrack	13.2	SCS215b	20111107.142757	20111107.143903	8	0.013328	60	10	60-180	60	63	GapExp	Blank	0	86	2	3	0	distractor	1	525	738	216303	13.328	7.127	19.521
ProbeTrack13	15	ProbeTrack	13.2	SCS215b	20111107.142757	20111107.143909	8	0.013328	60	10	60-180	60	77	GapExp	Blank	0	87	2	0	0	distractor	1	509	746	217049	13.328	3.964	22.710
ProbeTrack13	15	ProbeTrack	13.2	SCS215b	20111107.142757	20111107.143915	8	0.013328	60	10	60-180	60	123	GapExp	Blank	0	88	2	0	1	target	1	332	834	217883	13.328	12.367	14.284
ProbeTrack13	15	ProbeTrack	13.2	SCS215b	20111107.142757	20111107.143921	8	0.013328	60	10	60-180	60	72	GapExp	Blank	0	89	2	0	0	distractor	1	408	796	218679	13.328	9.254	17.416
ProbeTrack13	15	ProbeTrack	13.2	SCS215b	20111107.142757	20111107.143926	8	0.013328	60	10	60-180	60	106	GapExp	Blank	0	90	2	1	0	distractor	1	471	765	219444	13.328	12.598	14.066
ProbeTrack13	15	ProbeTrack	13.2	SCS215b	20111107.142757	20111107.143932	8	0.013328	60	10	60-180	60	78	GapExp	Blank	0	91	2	1	1	target	1	317	842	220286	13.328	13.090	13.568
ProbeTrack13	15	ProbeTrack	13.2	SCS215b	20111107.142757	20111107.143937	8	0.013328	60	10	60-180	60	79	GapExp	Blank	0	92	2	1	0	distractor	1	411	795	221081	13.328	11.744	14.929
ProbeTrack13	15	ProbeTrack	13.2	SCS215b	20111107.142757	20111107.143943	8	0.013328	60	10	60-180	60	115	GapExp	Blank	0	93	2	45	1	target	1	767	617	221698	13.328	11.803	14.858
ProbeTrack13	15	ProbeTrack	13.2	SCS215b	20111107.142757	20111107.143950	8	0.013328	60	10	60-180	60	85	GapExp	Blank	0	94	2	1	1	target	1	473	764	222462	13.328	13.306	13.352
ProbeTrack13	15	ProbeTrack	13.2	SCS215b	20111107.142757	20111107.143955	8	0.013328	60	10	60-180	60	173	GapExp	Blank	0	95	2	3	0	distractor	1	528	736	223198	13.328	6.753	19.888
ProbeTrack13	15	ProbeTrack	13.2	SCS215b	20111107.142757	20111107.144002	8	0.013328	60	10	60-180	60	73	GapExp	Blank	0	96	2	3	1	target	1	308	846	224044	13.328	3.422	23.228
ProbeTrack13	15	ProbeTrack	13.2	SCS215b	20111107.142757	20111107.144008	8	0.013328	60	10	60-180	60	88	GapExp	Blank	0	97	2	45	1	target	1	415	793	224837	13.328	10.363	16.282
ProbeTrack13	15	ProbeTrack	13.2	SCS215b	20111107.142757	20111107.144016	8	0.013328	60	10	60-180	60	164	GapExp	Blank	0	98	2	3	0	distractor	1	481	760	225597	13.328	13.269	13.379
ProbeTrack13	15	ProbeTrack	13.2	SCS215b	20111107.142757	20111107.144024	8	0.013328	60	10	60-180	60	135	GapExp	Blank	0	99	2	45	0	distractor	1	438	781	226378	13.328	9.659	17.008
ProbeTrack13	15	ProbeTrack	13.2	SCS215b	20111107.142757	20111107.144030	8	0.013328	60	10	60-180	60	157	GapExp	Blank	0	100	2	45	1	target	1	469	766	227144	13.328	5.278	21.383
ProbeTrack13	15	ProbeTrack	13.2	SCS215b	20111107.142757	20111107.144037	8	0.013328	60	10	60-180	60	117	GapExp	Blank	0	101	2	3	1	target	1	364	818	227962	13.328	12.467	14.198
ProbeTrack13	15	ProbeTrack	13.2	SCS215b	20111107.142757	20111107.144105	8	0.013328	60	10	60-180	60	165	GapExp	Blank	0	102	2	3	1	target	1	337	832	228794	13.328	13.258	13.385
ProbeTrack13	15	ProbeTrack	13.2	SCS215b	20111107.142757	20111107.144112	8	0.013328	60	10	60-180	60	97	GapExp	Blank	0	103	2	1	1	target	1	513	744	229538	13.328	13.234	13.427
ProbeTrack13	15	ProbeTrack	13.2	SCS215b	20111107.142757	20111107.144118	8	0.013328	60	10	60-180	60	89	GapExp	Blank	0	104	2	45	0	distractor	1	563	719	230257	13.328	10.696	15.977
ProbeTrack13	15	ProbeTrack	13.2	SCS215b	20111107.142757	20111107.144125	8	0.013328	60	10	60-180	60	168	GapExp	Blank	0	105	2	3	0	distractor	1	573	714	230971	13.328	12.643	13.997
ProbeTrack13	15	ProbeTrack	13.2	SCS215b	20111107.142757	20111107.144132	8	0.013328	60	10	60-180	60	148	GapExp	Blank	0	106	2	1	1	target	1	432	784	231755	13.328	12.110	14.552
ProbeTrack13	15	ProbeTrack	13.2	SCS215b	20111107.142757	20111107.144138	8	0.013328	60	10	60-180	60	177	GapExp	Blank	0	107	2	45	1	target	1	832	584	232339	13.328	6.658	19.993
ProbeTrack13	15	ProbeTrack	13.2	SCS215b	20111107.142757	20111107.144146	8	0.013328	60	10	60-180	60	85	GapExp	Blank	0	108	2	1	0	distractor	1	600	700	233039	13.328	13.304	13.351
ProbeTrack13	15	ProbeTrack	13.2	SCS215b	20111107.142757	20111107.144153	8	0.013328	60	10	60-180	60	173	GapExp	Blank	0	109	2	0	0	distractor	1	471	765	233804	13.328	13.104	13.565
ProbeTrack13	15	ProbeTrack	13.2	SCS215b	20111107.142757	20111107.144159	8	0.013328	60	10	60-180	60	163	GapExp	Blank	0	110	2	1	1	target	1	306	847	234651	13.328	12.483	14.168
ProbeTrack13	15	ProbeTrack	13.2	SCS215b	20111107.142757	20111107.144206	8	0.013328	60	10	60-180	60	171	GapExp	Blank	0	111	2	0	1	target	1	318	841	235492	13.328	13.068	13.591
ProbeTrack13	15	ProbeTrack	13.2	SCS215b	20111107.142757	20111107.144213	8	0.013328	60	10	60-180	60	101	GapExp	Blank	0	112	2	1	1	target	1	445	778	236270	13.328	11.201	15.453
ProbeTrack13	15	ProbeTrack	13.2	SCS215b	20111107.142757	20111107.144218	8	0.013328	60	10	60-180	60	90	GapExp	Blank	0	113	2	3	1	target	1	277	862	237132	13.328	12.689	13.965
ProbeTrack13	15	ProbeTrack	13.2	SCS215b	20111107.142757	20111107.144224	8	0.013328	60	10	60-180	60	159	GapExp	Blank	0	114	2	0	0	distractor	1	500	750	237882	13.328	12.318	14.357
ProbeTrack13	15	ProbeTrack	13.2	SCS215b	20111107.142757	20111107.144230	8	0.013328	60	10	60-180	60	74	GapExp	Blank	0	115	2	0	1	target	1	328	836	238718	13.328	10.387	16.266
ProbeTrack13	15	ProbeTrack	13.2	SCS215b	20111107.142757	20111107.144235	8	0.013328	60	10	60-180	60	174	GapExp	Blank	0	116	2	3	1	target	1	270	865	239583	13.328	5.665	20.994
ProbeTrack13	15	ProbeTrack	13.2	SCS215b	20111107.142757	20111107.144243	8	0.013328	60	10	60-180	60	111	GapExp	Blank	0	117	2	3	1	target	1	342	829	240412	13.328	9.802	16.854
ProbeTrack13	15	ProbeTrack	13.2	SCS215b	20111107.142757	20111107.144250	8	0.013328	60	10	60-180	60	68	GapExp	Blank	0	118	2	0	1	target	1	324	838	241250	13.328	13.128	13.515
ProbeTrack13	15	ProbeTrack	13.2	SCS215b	20111107.142757	20111107.144255	8	0.013328	60	10	60-180	60	112	GapExp	Blank	0	119	2	45	0	target	0	339	-1000	240250	13.328	12.569	14.061
ProbeTrack13	15	ProbeTrack	13.2	SCS215b	20111107.142757	20111107.144302	8	0.013328	60	10	60-180	60	109	GapExp	Blank	0	120	2	1	1	distractor	0	221	-1000	239250	13.328	12.939	13.704
ProbeTrack13	15	ProbeTrack	13.2	SCS215b	20111107.142757	20111107.144307	8	0.013328	60	10	60-180	60	151	GapExp	Blank	0	121	2	1	0	target	0	352	-1000	238250	13.328	10.606	16.065
ProbeTrack13	15	ProbeTrack	13.2	SCS215b	20111107.142757	20111107.144316	8	0.013328	60	10	60-180	60	101	GapExp	Blank	0	122	2	45	1	target	1	359	821	239071	13.328	13.278	13.372
ProbeTrack13	15	ProbeTrack	13.2	SCS215b	20111107.142757	20111107.144413	8	0.013328	60	10	60-180	60	91	GapExp	Blank	0	123	2	1	0	5	-3	766	-1000	238071	13.385	13.019	24.325
ProbeTrack13	15	ProbeTrack	13.2	SCS215b	20111107.142757	20111107.144420	8	0.013328	60	10	60-180	60	101	GapExp	Blank	0	124	2	1	1	target	1	653	674	238745	13.328	13.107	13.568
ProbeTrack13	15	ProbeTrack	13.2	SCS215b	20111107.142757	20111107.144432	8	0.013328	60	10	60-180	60	180	GapExp	Blank	0	125	2	0	1	distractor	0	374	-1000	237745	13.328	12.742	13.927
ProbeTrack13	15	ProbeTrack	13.2	SCS215b	20111107.142757	20111107.144439	8	0.013328	60	10	60-180	60	82	GapExp	Blank	0	126	2	3	0	distractor	1	458	771	238516	13.328	7.427	19.232
ProbeTrack13	15	ProbeTrack	13.2	SCS215b	20111107.142757	20111107.144445	8	0.013328	60	10	60-180	60	147	GapExp	Blank	0	127	2	0	0	distractor	1	458	771	239287	13.328	12.392	14.265
ProbeTrack13	15	ProbeTrack	13.2	SCS215b	20111107.142757	20111107.144451	8	0.013328	60	10	60-180	60	133	GapExp	Blank	0	128	2	45	1	target	1	406	797	240084	13.328	4.820	21.830
ProbeTrack13	15	ProbeTrack	13.2	SCS215b	20111107.142757	20111107.144458	8	0.013328	60	10	60-180	60	71	GapExp	Blank	0	129	2	1	0	distractor	1	640	680	240764	13.328	11.178	15.493
ProbeTrack13	15	ProbeTrack	13.2	SCS215b	20111107.142757	20111107.144503	8	0.013328	60	10	60-180	60	105	GapExp	Blank	0	130	2	0	0	target	0	366	-1000	239764	13.328	9.533	17.134
ProbeTrack13	15	ProbeTrack	13.2	SCS215b	20111107.142757	20111107.144509	8	0.013328	60	10	60-180	60	114	GapExp	Blank	0	131	2	1	0	target	0	380	-1000	238764	13.328	11.002	15.654
ProbeTrack13	15	ProbeTrack	13.2	SCS215b	20111107.142757	20111107.144514	8	0.013328	60	10	60-180	60	166	GapExp	Blank	0	132	2	0	0	distractor	1	356	822	239586	13.328	8.529	18.127
ProbeTrack13	15	ProbeTrack	13.2	SCS215b	20111107.142757	20111107.144521	8	0.013328	60	10	60-180	60	140	GapExp	Blank	0	133	2	1	1	target	1	511	745	240331	13.378	11.870	28.122
ProbeTrack13	15	ProbeTrack	13.2	SCS215b	20111107.142757	20111107.144542	8	0.013328	60	10	60-180	60	124	GapExp	Blank	0	134	2	0	1	target	1	258	871	241202	13.328	8.769	17.876
ProbeTrack13	15	ProbeTrack	13.2	SCS215b	20111107.142757	20111107.144549	8	0.013328	60	10	60-180	60	107	GapExp	Blank	0	135	2	3	1	target	1	286	857	242059	13.328	13.102	13.570
ProbeTrack13	15	ProbeTrack	13.2	SCS215b	20111107.142757	20111107.144603	8	0.013328	60	10	60-180	60	109	GapExp	Blank	0	136	2	0	1	target	1	415	793	242852	13.328	13.101	13.551
ProbeTrack13	15	ProbeTrack	13.2	SCS215b	20111107.142757	20111107.144611	8	0.013328	60	10	60-180	60	150	GapExp	Blank	0	137	2	45	0	distractor	1	468	766	243618	13.328	7.696	18.970
ProbeTrack13	15	ProbeTrack	13.2	SCS215b	20111107.142757	20111107.144620	8	0.013328	60	10	60-180	60	156	GapExp	Blank	0	138	2	1	1	target	1	357	822	244440	13.377	5.438	29.550
ProbeTrack13	15	ProbeTrack	13.2	SCS215b	20111107.142757	20111107.144626	8	0.013328	60	10	60-180	60	174	GapExp	Blank	0	139	2	45	1	target	1	366	817	245257	13.328	9.109	17.553
ProbeTrack13	15	ProbeTrack	13.2	SCS215b	20111107.142757	20111107.144634	8	0.013328	60	10	60-180	60	169	GapExp	Blank	0	140	2	3	0	distractor	1	480	760	246017	13.328	13.095	13.564
ProbeTrack13	15	ProbeTrack	13.2	SCS215b	20111107.142757	20111107.144645	8	0.013328	60	10	60-180	60	72	GapExp	Blank	0	141	2	0	0	distractor	1	421	790	246807	13.328	13.091	13.555
ProbeTrack13	15	ProbeTrack	13.2	SCS215b	20111107.142757	20111107.144650	8	0.013328	60	10	60-180	60	102	GapExp	Blank	0	142	2	3	0	target	0	308	-1000	245807	13.328	8.688	17.978
ProbeTrack13	15	ProbeTrack	13.2	SCS215b	20111107.142757	20111107.144656	8	0.013328	60	10	60-180	60	66	GapExp	Blank	0	143	2	45	1	target	1	415	793	246600	13.328	7.268	19.380
ProbeTrack13	15	ProbeTrack	13.2	SCS215b	20111107.142757	20111107.144703	8	0.013328	60	10	60-180	60	121	GapExp	Blank	0	144	2	1	1	target	1	343	829	247429	13.328	10.597	16.062
ProbeTrack13	15	ProbeTrack	13.2	SCS215b	20111107.142757	20111107.144713	8	0.013328	60	10	60-180	60	107	GapExp	Blank	0	145	2	0	0	distractor	1	785	608	248037	13.328	11.193	15.464
ProbeTrack13	15	ProbeTrack	13.2	SCS215b	20111107.142757	20111107.144720	8	0.013328	60	10	60-180	60	104	GapExp	Blank	0	146	2	45	1	target	1	365	818	248855	13.328	12.112	14.526
ProbeTrack13	15	ProbeTrack	13.2	SCS215b	20111107.142757	20111107.144726	8	0.013328	60	10	60-180	60	73	GapExp	Blank	0	147	2	45	0	target	0	308	-1000	247855	13.328	4.551	22.096
ProbeTrack13	15	ProbeTrack	13.2	SCS215b	20111107.142757	20111107.144732	8	0.013328	60	10	60-180	60	177	GapExp	Blank	0	148	2	0	1	target	1	380	810	248665	13.328	8.107	18.551
ProbeTrack13	15	ProbeTrack	13.2	SCS215b	20111107.142757	20111107.144739	8	0.013328	60	10	60-180	60	63	GapExp	Blank	0	149	2	45	0	distractor	1	470	765	249430	13.328	8.661	18.004
ProbeTrack13	15	ProbeTrack	13.2	SCS215b	20111107.142757	20111107.144748	8	0.013328	60	10	60-180	60	70	GapExp	Blank	0	150	2	1	0	distractor	1	517	742	250172	13.328	10.919	15.744
ProbeTrack13	15	ProbeTrack	13.2	SCS215b	20111107.142757	20111107.144754	8	0.013328	60	10	60-180	60	100	GapExp	Blank	0	151	2	3	0	distractor	1	755	623	250795	13.328	13.295	13.368
ProbeTrack13	15	ProbeTrack	13.2	SCS215b	20111107.142757	20111107.144821	8	0.013328	60	10	60-180	60	64	GapExp	Blank	0	152	2	0	0	distractor	1	513	744	251539	13.328	8.562	18.083
ProbeTrack13	15	ProbeTrack	13.2	SCS215b	20111107.142757	20111107.144826	8	0.013328	60	10	60-180	60	167	GapExp	Blank	0	153	2	45	0	distractor	1	503	749	252288	13.328	7.175	19.471
ProbeTrack13	15	ProbeTrack	13.2	SCS215b	20111107.142757	20111107.144833	8	0.013328	60	10	60-180	60	131	GapExp	Blank	0	154	2	45	1	target	1	417	792	253080	13.328	10.619	16.033
ProbeTrack13	15	ProbeTrack	13.2	SCS215b	20111107.142757	20111107.144840	8	0.013328	60	10	60-180	60	61	GapExp	Blank	0	155	2	45	0	distractor	1	438	781	253861	13.328	11.628	15.030
ProbeTrack13	15	ProbeTrack	13.2	SCS215b	20111107.142757	20111107.144846	8	0.013328	60	10	60-180	60	123	GapExp	Blank	0	156	2	0	0	distractor	1	471	765	254626	13.328	13.101	13.559
ProbeTrack13	15	ProbeTrack	13.2	SCS215b	20111107.142757	20111107.144852	8	0.013328	60	10	60-180	60	74	GapExp	Blank	0	157	2	0	0	distractor	1	427	787	255413	13.328	13.306	13.350
ProbeTrack13	15	ProbeTrack	13.2	SCS215b	20111107.142757	20111107.144858	8	0.013328	60	10	60-180	60	131	GapExp	Blank	0	158	2	1	0	5	-3	592	-1000	254413	13.328	13.083	13.564
ProbeTrack13	15	ProbeTrack	13.2	SCS215b	20111107.142757	20111107.144904	8	0.013328	60	10	60-180	60	107	GapExp	Blank	0	159	2	45	1	target	1	406	797	255210	13.328	8.104	18.542
ProbeTrack13	15	ProbeTrack	13.2	SCS215b	20111107.142757	20111107.144912	8	0.013328	60	10	60-180	60	108	GapExp	Blank	0	160	2	1	1	target	1	420	790	256000	13.328	12.063	14.594
ProbeTrack13	15	ProbeTrack	13.2	SCS215b	20111107.142757	20111107.144943	8	0.013328	60	10	60-180	60	139	GapExp	Blank	0	161	2	1	1	target	1	414	793	256793	13.328	8.895	17.767
ProbeTrack13	15	ProbeTrack	13.2	SCS215b	20111107.142757	20111107.144950	8	0.013328	60	10	60-180	60	143	GapExp	Blank	0	162	2	0	0	distractor	1	472	764	257557	13.378	13.271	26.662
ProbeTrack13	15	ProbeTrack	13.2	SCS215b	20111107.142757	20111107.144956	8	0.013328	60	10	60-180	60	140	GapExp	Blank	0	163	2	0	0	distractor	1	449	776	258333	13.328	8.132	18.544
ProbeTrack13	15	ProbeTrack	13.2	SCS215b	20111107.142757	20111107.145002	8	0.013328	60	10	60-180	60	61	GapExp	Blank	0	164	2	3	0	distractor	1	425	788	259121	13.328	13.226	13.448
ProbeTrack13	15	ProbeTrack	13.2	SCS215b	20111107.142757	20111107.145008	8	0.013328	60	10	60-180	60	143	GapExp	Blank	0	165	2	45	0	distractor	1	602	699	259820	13.328	11.871	14.779
ProbeTrack13	15	ProbeTrack	13.2	SCS215b	20111107.142757	20111107.145016	8	0.013328	60	10	60-180	60	134	GapExp	Blank	0	166	2	3	1	target	1	537	732	260552	13.328	8.739	17.925
ProbeTrack13	15	ProbeTrack	13.2	SCS215b	20111107.142757	20111107.145024	8	0.013328	60	10	60-180	60	153	GapExp	Blank	0	167	2	45	1	target	1	435	783	261335	13.328	13.113	13.553
ProbeTrack13	15	ProbeTrack	13.2	SCS215b	20111107.142757	20111107.145031	8	0.013328	60	10	60-180	60	116	GapExp	Blank	0	168	2	45	1	target	1	324	838	262173	13.328	9.508	17.156
ProbeTrack13	15	ProbeTrack	13.2	SCS215b	20111107.142757	20111107.145038	8	0.013328	60	10	60-180	60	156	GapExp	Blank	0	169	2	3	1	target	1	357	822	262995	13.328	7.059	19.595
ProbeTrack13	15	ProbeTrack	13.2	SCS215b	20111107.142757	20111107.145044	8	0.013328	60	10	60-180	60	115	GapExp	Blank	0	170	2	3	1	target	1	370	815	263810	13.328	13.079	13.571
ProbeTrack13	15	ProbeTrack	13.2	SCS215b	20111107.142757	20111107.145050	8	0.013328	60	10	60-180	60	72	GapExp	Blank	0	171	2	3	0	distractor	1	473	764	264574	13.328	8.047	18.614
ProbeTrack13	15	ProbeTrack	13.2	SCS215b	20111107.142757	20111107.145055	8	0.013328	60	10	60-180	60	63	GapExp	Blank	0	172	2	0	1	target	1	318	841	265415	13.328	6.478	20.163
ProbeTrack13	15	ProbeTrack	13.2	SCS215b	20111107.142757	20111107.145101	8	0.013328	60	10	60-180	60	128	GapExp	Blank	0	173	2	45	0	distractor	1	424	788	266203	13.328	11.823	14.832
ProbeTrack13	15	ProbeTrack	13.2	SCS215b	20111107.142757	20111107.145108	8	0.013328	60	10	60-180	60	75	GapExp	Blank	0	174	2	45	1	target	1	266	867	267070	13.328	6.501	20.145
ProbeTrack13	15	ProbeTrack	13.2	SCS215b	20111107.142757	20111107.145114	8	0.013328	60	10	60-180	60	85	GapExp	Blank	0	175	2	45	1	target	1	396	802	267872	13.328	7.075	19.578
ProbeTrack13	15	ProbeTrack	13.2	SCS215b	20111107.142757	20111107.145121	8	0.013328	60	10	60-180	60	65	GapExp	Blank	0	176	2	0	1	target	1	357	822	268694	13.328	13.309	13.355
ProbeTrack13	15	ProbeTrack	13.2	SCS215b	20111107.142757	20111107.145126	8	0.013328	60	10	60-180	60	145	GapExp	Blank	0	177	2	3	0	distractor	1	460	770	269464	13.328	5.358	21.299
ProbeTrack13	15	ProbeTrack	13.2	SCS215b	20111107.142757	20111107.145132	8	0.013328	60	10	60-180	60	174	GapExp	Blank	0	178	2	1	0	distractor	1	459	771	270235	13.328	13.089	13.547
ProbeTrack13	15	ProbeTrack	13.2	SCS215b	20111107.142757	20111107.145139	8	0.013328	60	10	60-180	60	129	GapExp	Blank	0	179	2	0	1	target	1	400	800	271035	13.328	12.196	14.473
ProbeTrack13	15	ProbeTrack	13.2	SCS215b	20111107.142757	20111107.145145	8	0.013328	60	10	60-180	60	112	GapExp	Blank	0	180	2	45	0	early	-4	-419	-1000	270035	13.328	12.994	13.665
ProbeTrack13	15	ProbeTrack	13.2	SCS215b	20111107.142757	20111107.145152	8	0.013328	60	10	60-180	60	85	GapExp	Blank	0	181	2	1	0	distractor	1	416	792	270827	13.328	11.912	14.759
ProbeTrack13	15	ProbeTrack	13.2	SCS215b	20111107.142757	20111107.145159	8	0.013328	60	10	60-180	60	75	GapExp	Blank	0	182	2	3	0	distractor	1	434	783	271610	13.328	12.044	14.602
ProbeTrack13	15	ProbeTrack	13.2	SCS215b	20111107.142757	20111107.145204	8	0.013328	60	10	60-180	60	140	GapExp	Blank	0	183	2	3	1	target	1	401	800	272410	13.328	11.198	15.457
ProbeTrack13	15	ProbeTrack	13.2	SCS215b	20111107.142757	20111107.145210	8	0.013328	60	10	60-180	60	70	GapExp	Blank	0	184	2	1	0	distractor	1	430	785	273195	13.328	12.984	13.674
ProbeTrack13	15	ProbeTrack	13.2	SCS215b	20111107.142757	20111107.145215	8	0.013328	60	10	60-180	60	70	GapExp	Blank	0	185	2	1	0	distractor	1	448	776	273971	13.328	13.088	13.567
ProbeTrack13	15	ProbeTrack	13.2	SCS215b	20111107.142757	20111107.145220	8	0.013328	60	10	60-180	60	100	GapExp	Blank	0	186	2	3	0	distractor	1	408	796	274767	13.328	13.083	13.569
ProbeTrack13	15	ProbeTrack	13.2	SCS215b	20111107.142757	20111107.145226	8	0.013328	60	10	60-180	60	102	GapExp	Blank	0	187	2	3	1	target	1	378	811	275578	13.328	4.040	22.602
ProbeTrack13	15	ProbeTrack	13.2	SCS215b	20111107.142757	20111107.145233	8	0.013328	60	10	60-180	60	83	GapExp	Blank	0	188	2	0	0	distractor	1	362	819	276397	13.328	13.305	13.354
ProbeTrack13	15	ProbeTrack	13.2	SCS215b	20111107.142757	20111107.145238	8	0.013328	60	10	60-180	60	75	GapExp	Blank	0	189	2	3	1	target	1	490	755	277152	13.328	5.828	20.826
ProbeTrack13	15	ProbeTrack	13.2	SCS215b	20111107.142757	20111107.145244	8	0.013328	60	10	60-180	60	105	GapExp	Blank	0	190	2	45	1	target	1	363	819	277971	13.328	11.663	15.001
ProbeTrack13	15	ProbeTrack	13.2	SCS215b	20111107.142757	20111107.145250	8	0.013328	60	10	60-180	60	73	GapExp	Blank	0	191	2	0	0	distractor	1	396	802	278773	13.328	13.088	13.565
ProbeTrack13	15	ProbeTrack	13.2	SCS215b	20111107.142757	20111107.145255	8	0.013328	60	10	60-180	60	164	GapExp	Blank	0	192	2	1	1	distractor	0	279	-1000	277773	13.328	9.432	17.225
ProbeTrack13	15	ProbeTrack	13.2	SCS215b	20111107.142757	20111107.145302	8	0.013328	60	10	60-180	60	179	GapExp	Blank	0	193	2	0	1	target	1	498	751	278524	13.328	13.087	13.572
ProbeTrack13	15	ProbeTrack	13.2	SCS215b	20111107.142757	20111107.145309	8	0.013328	60	10	60-180	60	67	GapExp	Blank	0	194	2	45	1	target	1	285	858	279382	13.328	9.755	16.909
ProbeTrack13	15	ProbeTrack	13.2	SCS215b	20111107.142757	20111107.145315	8	0.013328	60	10	60-180	60	114	GapExp	Blank	0	195	2	1	1	target	1	376	812	280194	13.328	12.449	14.205
ProbeTrack13	15	ProbeTrack	13.2	SCS215b	20111107.142757	20111107.145321	8	0.013328	60	10	60-180	60	83	GapExp	Blank	0	196	2	0	0	target	0	304	-1000	279194	13.328	12.485	14.171
ProbeTrack13	15	ProbeTrack	13.2	SCS215b	20111107.142757	20111107.145327	8	0.013328	60	10	60-180	60	154	GapExp	Blank	0	197	2	1	1	target	1	308	846	280040	13.328	13.115	13.556
ProbeTrack13	15	ProbeTrack	13.2	SCS215b	20111107.142757	20111107.145337	8	0.013328	60	10	60-180	60	161	GapExp	Blank	0	198	2	0	1	target	1	522	739	280779	13.328	12.618	14.051
ProbeTrack13	15	ProbeTrack	13.2	SCS215b	20111107.142757	20111107.145344	8	0.013328	60	10	60-180	60	169	GapExp	Blank	0	199	2	3	1	target	1	357	822	281601	13.328	12.017	14.647
ProbeTrack13	15	ProbeTrack	13.2	SCS215b	20111107.142757	20111107.145350	8	0.013328	60	10	60-180	60	96	GapExp	Blank	0	200	2	1	1	target	1	296	852	282453	13.328	13.301	13.351
ProbeTrack13	15	ProbeTrack	13.2	SCS215b	20111107.145505	20111107.145512	8	0.013328	60	10	60-180	60	88	GapPrac	BigFlash	1	1	2	1	0	distractor	1	752	624	283077	13.385	13.032	13.567
ProbeTrack13	15	ProbeTrack	13.2	SCS215b	20111107.145505	20111107.145520	8	0.013328	60	10	60-180	60	158	GapPrac	BigFlash	1	2	2	3	0	target	0	525	-1000	282077	13.328	12.896	13.764
ProbeTrack13	15	ProbeTrack	13.2	SCS215b	20111107.145505	20111107.145527	8	0.013328	60	10	60-180	60	162	GapPrac	BigFlash	1	3	2	3	1	target	1	539	731	282808	13.328	13.297	13.361
ProbeTrack13	15	ProbeTrack	13.2	SCS215b	20111107.145505	20111107.145534	8	0.013328	60	10	60-180	60	106	GapPrac	BigFlash	1	4	2	45	1	target	1	366	817	283625	13.328	12.870	13.783
ProbeTrack13	15	ProbeTrack	13.2	SCS215b	20111107.145505	20111107.145540	8	0.013328	60	10	60-180	60	104	GapPrac	BigFlash	1	5	2	3	1	target	1	483	759	284384	13.328	13.298	13.361
ProbeTrack13	15	ProbeTrack	13.2	SCS215b	20111107.145505	20111107.145546	8	0.013328	60	10	60-180	60	70	GapPrac	BigFlash	1	6	2	1	0	distractor	1	455	773	285157	13.328	12.892	13.350
ProbeTrack13	15	ProbeTrack	13.2	SCS215b	20111107.145505	20111107.145552	8	0.013328	60	10	60-180	60	162	GapPrac	BigFlash	1	7	2	0	1	distractor	0	421	-1000	284157	13.328	12.844	13.814
ProbeTrack13	15	ProbeTrack	13.2	SCS215b	20111107.145505	20111107.145559	8	0.013328	60	10	60-180	60	177	GapPrac	BigFlash	1	8	2	0	1	target	1	368	816	284973	13.328	13.096	13.571
ProbeTrack13	15	ProbeTrack	13.2	SCS215b	20111107.145505	20111107.145606	8	0.013328	60	10	60-180	60	145	GapPrac	BigFlash	1	9	2	45	0	distractor	1	679	661	285634	13.328	12.970	13.675
ProbeTrack13	15	ProbeTrack	13.2	SCS215b	20111107.145505	20111107.145613	8	0.013328	60	10	60-180	60	125	GapPrac	BigFlash	1	10	2	45	1	target	1	363	819	286453	13.328	12.911	13.758
ProbeTrack13	15	ProbeTrack	13.2	SCS215b	20111107.145505	20111107.145619	8	0.013328	60	10	60-180	60	74	GapPrac	BigFlash	1	11	2	3	1	target	1	352	824	287277	13.328	12.950	13.698
ProbeTrack13	15	ProbeTrack	13.2	SCS215b	20111107.145505	20111107.145625	8	0.013328	60	10	60-180	60	94	GapPrac	BigFlash	1	12	2	1	1	target	1	398	801	288078	13.328	13.109	13.547
ProbeTrack13	15	ProbeTrack	13.2	SCS215b	20111107.145505	20111107.145632	8	0.013328	60	10	60-180	60	134	GapPrac	BigFlash	1	13	2	1	0	distractor	1	470	765	288843	13.328	13.008	13.638
ProbeTrack13	15	ProbeTrack	13.2	SCS215b	20111107.145505	20111107.145638	8	0.013328	60	10	60-180	60	154	GapPrac	BigFlash	1	14	2	3	0	distractor	1	462	769	289612	13.328	12.834	13.820
ProbeTrack13	15	ProbeTrack	13.2	SCS215b	20111107.145505	20111107.145644	8	0.013328	60	10	60-180	60	161	GapPrac	BigFlash	1	15	2	45	0	distractor	1	483	759	290371	13.328	12.879	13.779
ProbeTrack13	15	ProbeTrack	13.2	SCS215b	20111107.145505	20111107.145651	8	0.013328	60	10	60-180	60	132	GapPrac	BigFlash	1	16	2	45	1	target	1	409	796	291167	13.328	13.184	13.475
ProbeTrack13	15	ProbeTrack	13.2	SCS215b	20111107.145505	20111107.145658	8	0.013328	60	10	60-180	60	161	GapPrac	BigFlash	1	17	2	3	0	distractor	1	555	723	291890	13.328	12.848	13.814
ProbeTrack13	15	ProbeTrack	13.2	SCS215b	20111107.145505	20111107.145705	8	0.013328	60	10	60-180	60	158	GapPrac	BigFlash	1	18	2	1	1	target	1	417	792	292682	13.328	12.854	13.803
ProbeTrack13	15	ProbeTrack	13.2	SCS215b	20111107.145505	20111107.145712	8	0.013328	60	10	60-180	60	154	GapPrac	BigFlash	1	19	2	0	0	distractor	1	417	792	293474	13.328	13.120	13.538
ProbeTrack13	15	ProbeTrack	13.2	SCS215b	20111107.145505	20111107.145718	8	0.013328	60	10	60-180	60	168	GapPrac	BigFlash	1	20	2	0	0	distractor	1	519	741	294215	13.328	12.991	13.674
ProbeTrack13	15	ProbeTrack	13.2	SCS215b	20111107.145748	20111107.145812	8	0.013327	60	10	60-180	60	127	GapExp	BigFlash	1	1	2	45	1	target	1	463	769	294984	13.394	11.117	19.467
ProbeTrack13	15	ProbeTrack	13.2	SCS215b	20111107.145748	20111107.145820	8	0.013327	60	10	60-180	60	124	GapExp	BigFlash	1	2	2	3	0	distractor	1	541	730	295714	13.327	6.633	20.016
ProbeTrack13	15	ProbeTrack	13.2	SCS215b	20111107.145748	20111107.145827	8	0.013327	60	10	60-180	60	144	GapExp	BigFlash	1	3	2	3	1	target	1	352	824	296538	13.328	9.837	16.826
ProbeTrack13	15	ProbeTrack	13.2	SCS215b	20111107.145748	20111107.145834	8	0.013327	60	10	60-180	60	173	GapExp	BigFlash	1	4	2	1	1	target	1	650	675	297213	13.328	7.381	19.280
ProbeTrack13	15	ProbeTrack	13.2	SCS215b	20111107.145748	20111107.145842	8	0.013327	60	10	60-180	60	77	GapExp	BigFlash	1	5	2	45	0	distractor	1	471	765	297978	13.328	13.304	13.354
ProbeTrack13	15	ProbeTrack	13.2	SCS215b	20111107.145748	20111107.145848	8	0.013327	60	10	60-180	60	89	GapExp	BigFlash	1	6	2	1	0	distractor	1	478	761	298739	13.328	7.565	19.092
ProbeTrack13	15	ProbeTrack	13.2	SCS215b	20111107.145748	20111107.145854	8	0.013327	60	10	60-180	60	173	GapExp	BigFlash	1	7	2	0	1	target	1	337	832	299571	13.328	10.009	16.654
ProbeTrack13	15	ProbeTrack	13.2	SCS215b	20111107.145748	20111107.145902	8	0.013327	60	10	60-180	60	163	GapExp	BigFlash	1	8	2	0	0	distractor	1	478	761	300332	13.328	6.817	19.836
ProbeTrack13	15	ProbeTrack	13.2	SCS215b	20111107.145748	20111107.145909	8	0.013327	60	10	60-180	60	161	GapExp	BigFlash	0	9	2	3	1	target	1	384	808	301140	13.328	8.143	18.511
ProbeTrack13	15	ProbeTrack	13.2	SCS215b	20111107.145748	20111107.145915	8	0.013327	60	10	60-180	60	173	GapExp	BigFlash	0	10	2	45	0	distractor	1	461	770	301910	13.328	6.828	19.836
ProbeTrack13	15	ProbeTrack	13.2	SCS215b	20111107.145748	20111107.145923	8	0.013327	60	10	60-180	60	157	GapExp	BigFlash	0	11	2	0	0	distractor	1	440	780	302690	13.328	9.283	17.360
ProbeTrack13	15	ProbeTrack	13.2	SCS215b	20111107.145748	20111107.145930	8	0.013327	60	10	60-180	60	68	GapExp	BigFlash	0	12	2	0	1	target	1	547	727	303417	13.328	6.946	19.726
ProbeTrack13	15	ProbeTrack	13.2	SCS215b	20111107.145748	20111107.145935	8	0.013327	60	10	60-180	60	70	GapExp	BigFlash	0	13	2	45	1	target	1	331	835	304252	13.328	8.724	17.925
ProbeTrack13	15	ProbeTrack	13.2	SCS215b	20111107.145748	20111107.145941	8	0.013327	60	10	60-180	60	86	GapExp	BigFlash	0	14	2	0	1	target	1	299	851	305103	13.328	10.879	15.788
ProbeTrack13	15	ProbeTrack	13.2	SCS215b	20111107.145748	20111107.145946	8	0.013327	60	10	60-180	60	144	GapExp	BigFlash	0	15	2	1	0	distractor	1	370	815	305918	13.328	8.465	18.181
ProbeTrack13	15	ProbeTrack	13.2	SCS215b	20111107.145748	20111107.145952	8	0.013327	60	10	60-180	60	151	GapExp	BigFlash	0	16	2	45	0	distractor	1	459	771	306689	13.328	6.205	20.449
ProbeTrack13	15	ProbeTrack	13.2	SCS215b	20111107.145748	20111107.145959	8	0.013327	60	10	60-180	60	67	GapExp	BigFlash	0	17	2	0	1	target	1	500	750	307439	13.328	12.428	14.253
ProbeTrack13	15	ProbeTrack	13.2	SCS215b	20111107.145748	20111107.150005	8	0.013327	60	10	60-180	60	164	GapExp	BigFlash	0	18	2	45	1	distractor	0	397	-1000	306439	13.328	4.699	21.950
ProbeTrack13	15	ProbeTrack	13.2	SCS215b	20111107.145748	20111107.150012	8	0.013327	60	10	60-180	60	151	GapExp	BigFlash	0	19	2	45	1	target	1	324	838	307277	13.328	12.163	14.493
ProbeTrack13	15	ProbeTrack	13.2	SCS215b	20111107.145748	20111107.150019	8	0.013327	60	10	60-180	60	99	GapExp	BigFlash	0	20	2	0	1	target	1	322	839	308116	13.328	9.157	17.510
ProbeTrack13	15	ProbeTrack	13.2	SCS215b	20111107.145748	20111107.150024	8	0.013327	60	10	60-180	60	81	GapExp	BigFlash	0	21	2	0	0	distractor	1	442	779	308895	13.328	10.849	15.812
ProbeTrack13	15	ProbeTrack	13.2	SCS215b	20111107.145748	20111107.150029	8	0.013327	60	10	60-180	60	72	GapExp	BigFlash	0	22	2	1	1	target	1	323	839	309734	13.358	12.694	18.875
ProbeTrack13	15	ProbeTrack	13.2	SCS215b	20111107.145748	20111107.150035	8	0.013327	60	10	60-180	60	113	GapExp	BigFlash	0	23	2	1	1	target	1	366	817	310551	13.328	8.445	18.195
ProbeTrack13	15	ProbeTrack	13.2	SCS215b	20111107.145748	20111107.150041	8	0.013327	60	10	60-180	60	61	GapExp	BigFlash	0	24	2	45	0	distractor	1	420	790	311341	13.328	11.442	15.225
ProbeTrack13	15	ProbeTrack	13.2	SCS215b	20111107.145748	20111107.150046	8	0.013327	60	10	60-180	60	67	GapExp	BigFlash	0	25	2	45	0	distractor	1	582	709	312050	13.328	8.871	17.781
ProbeTrack13	15	ProbeTrack	13.2	SCS215b	20111107.145748	20111107.150052	8	0.013327	60	10	60-180	60	173	GapExp	BigFlash	0	26	2	3	0	distractor	1	373	814	312864	13.328	6.965	19.687
ProbeTrack13	15	ProbeTrack	13.2	SCS215b	20111107.145748	20111107.150059	8	0.013327	60	10	60-180	60	92	GapExp	BigFlash	0	27	2	0	1	distractor	0	322	-1000	311864	13.328	12.274	14.379
ProbeTrack13	15	ProbeTrack	13.2	SCS215b	20111107.145748	20111107.150105	8	0.013327	60	10	60-180	60	112	GapExp	BigFlash	0	28	2	1	0	distractor	1	475	763	312627	13.328	11.513	15.146
ProbeTrack13	15	ProbeTrack	13.2	SCS215b	20111107.145748	20111107.150112	8	0.013327	60	10	60-180	60	100	GapExp	BigFlash	0	29	2	0	1	target	1	392	804	313431	13.328	7.548	19.102
ProbeTrack13	15	ProbeTrack	13.2	SCS215b	20111107.145748	20111107.150118	8	0.013327	60	10	60-180	60	65	GapExp	BigFlash	0	30	2	1	1	distractor	0	471	-1000	312431	13.328	9.290	17.385
ProbeTrack13	15	ProbeTrack	13.2	SCS215b	20111107.145748	20111107.150123	8	0.013327	60	10	60-180	60	93	GapExp	BigFlash	0	31	2	0	1	target	1	377	812	313243	13.328	4.349	22.309
ProbeTrack13	15	ProbeTrack	13.2	SCS215b	20111107.145748	20111107.150128	8	0.013327	60	10	60-180	60	142	GapExp	BigFlash	0	32	2	3	0	distractor	1	470	765	314008	13.328	11.719	14.948
ProbeTrack13	15	ProbeTrack	13.2	SCS215b	20111107.145748	20111107.150135	8	0.013327	60	10	60-180	60	178	GapExp	BigFlash	0	33	2	45	0	distractor	1	443	779	314787	13.328	10.876	15.801
ProbeTrack13	15	ProbeTrack	13.2	SCS215b	20111107.145748	20111107.150143	8	0.013327	60	10	60-180	60	148	GapExp	BigFlash	0	34	2	1	1	target	1	376	812	315599	13.328	11.346	15.320
ProbeTrack13	15	ProbeTrack	13.2	SCS215b	20111107.145748	20111107.150150	8	0.013327	60	10	60-180	60	111	GapExp	BigFlash	0	35	2	3	1	target	1	307	847	316446	13.328	13.112	13.575
ProbeTrack13	15	ProbeTrack	13.2	SCS215b	20111107.145748	20111107.150155	8	0.013327	60	10	60-180	60	113	GapExp	BigFlash	0	36	2	1	0	distractor	1	427	787	317233	13.328	6.196	20.462
ProbeTrack13	15	ProbeTrack	13.2	SCS215b	20111107.145748	20111107.150201	8	0.013327	60	10	60-180	60	130	GapExp	BigFlash	0	37	2	45	1	target	1	345	828	318061	13.328	12.857	13.797
ProbeTrack13	15	ProbeTrack	13.2	SCS215b	20111107.145748	20111107.150208	8	0.013327	60	10	60-180	60	103	GapExp	BigFlash	0	38	2	3	1	target	1	434	783	318844	13.328	12.829	13.814
ProbeTrack13	15	ProbeTrack	13.2	SCS215b	20111107.145748	20111107.150213	8	0.013327	60	10	60-180	60	158	GapExp	BigFlash	0	39	2	1	1	target	1	355	823	319667	13.328	5.946	20.696
ProbeTrack13	15	ProbeTrack	13.2	SCS215b	20111107.145748	20111107.150220	8	0.013327	60	10	60-180	60	171	GapExp	BigFlash	0	40	2	1	1	target	1	315	843	320510	13.328	8.118	18.565
ProbeTrack13	15	ProbeTrack	13.2	SCS215b	20111107.145748	20111107.150229	8	0.013327	60	10	60-180	60	176	GapExp	BigFlash	0	41	2	0	1	target	1	352	824	321334	13.328	3.849	22.809
ProbeTrack13	15	ProbeTrack	13.2	SCS215b	20111107.145748	20111107.150235	8	0.013327	60	10	60-180	60	155	GapExp	BigFlash	0	42	2	1	0	distractor	1	321	840	322174	13.328	12.829	13.827
ProbeTrack13	15	ProbeTrack	13.2	SCS215b	20111107.145748	20111107.150241	8	0.013327	60	10	60-180	60	133	GapExp	BigFlash	0	43	2	1	1	target	1	382	809	322983	13.328	7.094	19.567
ProbeTrack13	15	ProbeTrack	13.2	SCS215b	20111107.145748	20111107.150247	8	0.013327	60	10	60-180	60	155	GapExp	BigFlash	0	44	2	3	0	distractor	1	407	797	323780	13.328	13.140	13.523
ProbeTrack13	15	ProbeTrack	13.2	SCS215b	20111107.145748	20111107.150254	8	0.013327	60	10	60-180	60	156	GapExp	BigFlash	0	45	2	1	0	distractor	1	418	791	324571	13.328	6.146	19.188
ProbeTrack13	15	ProbeTrack	13.2	SCS215b	20111107.145748	20111107.150301	8	0.013327	60	10	60-180	60	76	GapExp	BigFlash	0	46	2	0	0	distractor	1	541	730	325301	13.394	11.952	28.038
ProbeTrack13	15	ProbeTrack	13.2	SCS215b	20111107.145748	20111107.150306	8	0.013327	60	10	60-180	60	98	GapExp	BigFlash	0	47	2	45	0	distractor	1	521	740	326041	13.328	11.164	15.519
ProbeTrack13	15	ProbeTrack	13.2	SCS215b	20111107.145748	20111107.150312	8	0.013327	60	10	60-180	60	149	GapExp	BigFlash	0	48	2	45	0	distractor	1	451	775	326816	13.328	13.101	13.550
ProbeTrack13	15	ProbeTrack	13.2	SCS215b	20111107.145748	20111107.150319	8	0.013327	60	10	60-180	60	132	GapExp	BigFlash	0	49	2	0	1	distractor	0	441	-1000	325816	13.328	4.600	22.044
ProbeTrack13	15	ProbeTrack	13.2	SCS215b	20111107.145748	20111107.150326	8	0.013327	60	10	60-180	60	161	GapExp	BigFlash	0	50	2	0	1	target	1	448	776	326592	13.328	5.240	21.420
ProbeTrack13	15	ProbeTrack	13.2	SCS215b	20111107.145748	20111107.150333	8	0.013327	60	10	60-180	60	148	GapExp	BigFlash	0	51	2	1	1	target	1	242	879	327471	13.328	6.001	20.658
ProbeTrack13	15	ProbeTrack	13.2	SCS215b	20111107.145748	20111107.150339	8	0.013327	60	10	60-180	60	150	GapExp	BigFlash	0	52	2	45	0	distractor	1	389	806	328277	13.328	8.747	17.914
ProbeTrack13	15	ProbeTrack	13.2	SCS215b	20111107.145748	20111107.150346	8	0.013327	60	10	60-180	60	163	GapExp	BigFlash	0	53	2	1	0	distractor	1	481	760	329037	13.328	4.775	21.870
ProbeTrack13	15	ProbeTrack	13.2	SCS215b	20111107.145748	20111107.150352	8	0.013327	60	10	60-180	60	119	GapExp	BigFlash	0	54	2	3	0	distractor	1	377	812	329849	13.328	12.334	14.317
ProbeTrack13	15	ProbeTrack	13.2	SCS215b	20111107.145748	20111107.150358	8	0.013327	60	10	60-180	60	146	GapExp	BigFlash	0	55	2	45	1	target	1	385	808	330657	13.328	3.913	22.746
ProbeTrack13	15	ProbeTrack	13.2	SCS215b	20111107.145748	20111107.150406	8	0.013327	60	10	60-180	60	140	GapExp	BigFlash	0	56	2	0	0	distractor	1	445	778	331435	13.328	7.333	19.320
ProbeTrack13	15	ProbeTrack	13.2	SCS215b	20111107.145748	20111107.150412	8	0.013327	60	10	60-180	60	156	GapExp	BigFlash	0	57	2	0	0	distractor	1	457	772	332207	13.328	4.213	22.452
ProbeTrack13	15	ProbeTrack	13.2	SCS215b	20111107.145748	20111107.150418	8	0.013327	60	10	60-180	60	173	GapExp	BigFlash	0	58	2	3	0	distractor	1	532	734	332941	13.328	4.752	21.937
ProbeTrack13	15	ProbeTrack	13.2	SCS215b	20111107.145748	20111107.150425	8	0.013327	60	10	60-180	60	69	GapExp	BigFlash	0	59	2	1	1	target	1	416	792	333733	13.328	7.400	19.251
ProbeTrack13	15	ProbeTrack	13.2	SCS215b	20111107.145748	20111107.150430	8	0.013327	60	10	60-180	60	83	GapExp	BigFlash	0	60	2	45	0	distractor	1	423	789	334522	13.328	7.526	19.125
ProbeTrack13	15	ProbeTrack	13.2	SCS215b	20111107.145748	20111107.150438	8	0.013327	60	10	60-180	60	63	GapExp	BigFlash	0	61	2	45	0	5	-3	698	-1000	333522	13.328	5.429	21.228
ProbeTrack13	15	ProbeTrack	13.2	SCS215b	20111107.145748	20111107.150444	8	0.013327	60	10	60-180	60	79	GapExp	BigFlash	0	62	2	45	0	distractor	1	480	760	334282	13.328	13.263	13.371
ProbeTrack13	15	ProbeTrack	13.2	SCS215b	20111107.145748	20111107.150451	8	0.013327	60	10	60-180	60	90	GapExp	BigFlash	0	63	2	3	0	distractor	1	642	679	334961	13.328	11.548	15.095
ProbeTrack13	15	ProbeTrack	13.2	SCS215b	20111107.145748	20111107.150458	8	0.013327	60	10	60-180	60	147	GapExp	BigFlash	0	64	2	3	1	target	1	352	824	335785	13.328	9.826	16.849
ProbeTrack13	15	ProbeTrack	13.2	SCS215b	20111107.145748	20111107.150505	8	0.013327	60	10	60-180	60	170	GapExp	BigFlash	0	65	2	45	1	target	1	356	822	336607	13.328	9.260	17.414
ProbeTrack13	15	ProbeTrack	13.2	SCS215b	20111107.145748	20111107.150512	8	0.013327	60	10	60-180	60	100	GapExp	BigFlash	0	66	2	3	0	distractor	1	382	809	337416	13.328	8.513	18.147
