exp	sub	code	rev	comp	runtime	trialtime	nstim	refreshdur	cuedur	gapdur	gapOnsetRange	durPostProbe	gapOnsetTime	blocktype	prac	trial	ntargets	soa	probeTarget	resp	acc	rt	pts	tpts	meanFrameDur	minFrameDur	maxFrameDur
DTProbeTrack02	13	ProbeTrack	12.1	SCS215a	20100824.131714	20100824.131731	8	0.013328	60	0	60-180	60	148	NoGap	1	1	2	3	1	target	1	1986	7	7	13.375	13.221	26.765
DTProbeTrack02	13	ProbeTrack	12.1	SCS215a	20100824.131714	20100824.131739	8	0.013328	60	0	60-180	60	97	NoGap	1	2	2	3	0	distractor	1	1027	487	494	13.328	13.293	13.363
DTProbeTrack02	13	ProbeTrack	12.1	SCS215a	20100824.131714	20100824.131744	8	0.013328	60	0	60-180	60	100	NoGap	1	3	2	6	1	target	1	800	600	1094	13.328	13.079	13.542
DTProbeTrack02	13	ProbeTrack	12.1	SCS215a	20100824.131714	20100824.131750	8	0.013328	60	0	60-180	60	134	NoGap	1	4	2	3	1	target	1	747	627	1721	13.328	13.187	13.503
DTProbeTrack02	13	ProbeTrack	12.1	SCS215a	20100824.131714	20100824.131756	8	0.013328	60	0	60-180	60	114	NoGap	1	5	2	9	0	distractor	1	627	687	2408	13.328	13.140	13.516
DTProbeTrack02	13	ProbeTrack	12.1	SCS215a	20100824.131714	20100824.131801	8	0.013328	60	0	60-180	60	115	NoGap	1	6	2	1	0	distractor	1	587	707	3115	13.328	13.283	13.373
DTProbeTrack02	13	ProbeTrack	12.1	SCS215a	20100824.131714	20100824.131807	8	0.013328	60	0	60-180	60	73	NoGap	1	7	2	3	1	distractor	0	480	-1000	2115	13.328	13.293	13.362
DTProbeTrack02	13	ProbeTrack	12.1	SCS215a	20100824.131714	20100824.131811	8	0.013328	60	0	60-180	60	165	NoGap	1	8	2	9	0	distractor	1	600	700	2815	13.328	13.293	13.363
DTProbeTrack02	13	ProbeTrack	12.1	SCS215a	20100824.131714	20100824.131818	8	0.013328	60	0	60-180	60	124	NoGap	1	9	2	1	1	target	1	520	740	3555	13.328	13.293	13.363
DTProbeTrack02	13	ProbeTrack	12.1	SCS215a	20100824.131714	20100824.131823	8	0.013328	60	0	60-180	60	178	NoGap	1	10	2	1	0	distractor	1	534	733	4288	13.328	13.293	13.363
DTProbeTrack02	13	ProbeTrack	12.1	SCS215a	20100824.131714	20100824.131829	8	0.013328	60	0	60-180	60	85	NoGap	1	11	2	6	1	target	1	600	700	4988	13.328	13.293	13.363
DTProbeTrack02	13	ProbeTrack	12.1	SCS215a	20100824.131714	20100824.131834	8	0.013328	60	0	60-180	60	107	NoGap	1	12	2	45	1	target	1	480	760	5748	13.328	13.293	13.363
DTProbeTrack02	13	ProbeTrack	12.1	SCS215a	20100824.131714	20100824.131840	8	0.013328	60	0	60-180	60	64	NoGap	1	13	2	1	0	distractor	1	547	727	6475	13.328	13.293	13.363
DTProbeTrack02	13	ProbeTrack	12.1	SCS215a	20100824.131714	20100824.131845	8	0.013328	60	0	60-180	60	131	NoGap	1	14	2	6	0	distractor	1	454	773	7248	13.328	13.293	13.363
DTProbeTrack02	13	ProbeTrack	12.1	SCS215a	20100824.131714	20100824.131850	8	0.013328	60	0	60-180	60	74	NoGap	1	15	2	45	1	target	1	574	713	7961	13.328	13.292	13.363
DTProbeTrack02	13	ProbeTrack	12.1	SCS215a	20100824.131714	20100824.131856	8	0.013328	60	0	60-180	60	170	NoGap	1	16	2	1	1	target	1	507	747	8708	13.328	13.293	13.363
DTProbeTrack02	13	ProbeTrack	12.1	SCS215a	20100824.131714	20100824.131902	8	0.013328	60	0	60-180	60	148	NoGap	1	17	2	45	1	target	1	534	733	9441	13.328	13.293	13.363
DTProbeTrack02	13	ProbeTrack	12.1	SCS215a	20100824.131714	20100824.131908	8	0.013328	60	0	60-180	60	80	NoGap	1	18	2	1	0	distractor	1	614	693	10134	13.328	13.293	13.363
DTProbeTrack02	13	ProbeTrack	12.1	SCS215a	20100824.131714	20100824.131913	8	0.013328	60	0	60-180	60	106	NoGap	1	19	2	45	1	target	1	534	733	10867	13.328	13.293	13.363
DTProbeTrack02	13	ProbeTrack	12.1	SCS215a	20100824.131714	20100824.131919	8	0.013328	60	0	60-180	60	152	NoGap	1	20	2	6	0	distractor	1	560	720	11587	13.328	13.291	13.363
DTProbeTrack02	13	ProbeTrack	12.1	SCS215a	20100824.131714	20100824.131925	8	0.013328	60	0	60-180	60	166	NoGap	1	21	2	9	1	target	1	400	800	12387	13.328	13.293	13.363
DTProbeTrack02	13	ProbeTrack	12.1	SCS215a	20100824.131714	20100824.131931	8	0.013328	60	0	60-180	60	122	NoGap	1	22	2	9	0	distractor	1	534	733	13120	13.328	13.190	13.465
DTProbeTrack02	13	ProbeTrack	12.1	SCS215a	20100824.131714	20100824.131937	8	0.013328	60	0	60-180	60	175	NoGap	1	23	2	9	1	target	1	560	720	13840	13.328	13.293	13.363
DTProbeTrack02	13	ProbeTrack	12.1	SCS215a	20100824.131714	20100824.131943	8	0.013328	60	0	60-180	60	90	NoGap	1	24	2	3	1	target	1	574	713	14553	13.328	13.293	13.363
DTProbeTrack02	13	ProbeTrack	12.1	SCS215a	20100824.131714	20100824.131948	8	0.013328	60	0	60-180	60	70	NoGap	1	25	2	45	0	distractor	1	654	673	15226	13.328	13.247	13.374
DTProbeTrack02	13	ProbeTrack	12.1	SCS215a	20100824.131714	20100824.131953	8	0.013328	60	0	60-180	60	145	NoGap	1	26	2	9	1	target	1	560	720	15946	13.328	13.291	13.365
DTProbeTrack02	13	ProbeTrack	12.1	SCS215a	20100824.131714	20100824.131959	8	0.013328	60	0	60-180	60	96	NoGap	1	27	2	45	0	distractor	1	507	747	16693	13.328	13.293	13.363
DTProbeTrack02	13	ProbeTrack	12.1	SCS215a	20100824.131714	20100824.132005	8	0.013328	60	0	60-180	60	116	NoGap	1	28	2	45	0	distractor	1	600	700	17393	13.328	13.293	13.363
DTProbeTrack02	13	ProbeTrack	12.1	SCS215a	20100824.131714	20100824.132011	8	0.013328	60	0	60-180	60	106	NoGap	1	29	2	3	0	distractor	1	681	660	18053	13.328	13.293	13.363
DTProbeTrack02	13	ProbeTrack	12.1	SCS215a	20100824.131714	20100824.132016	8	0.013328	60	0	60-180	60	61	NoGap	1	30	2	9	0	distractor	1	627	687	18740	13.328	13.274	13.382
DTProbeTrack02	13	ProbeTrack	12.1	SCS215a	20100824.131714	20100824.132021	8	0.013328	60	0	60-180	60	129	NoGap	1	31	2	45	0	distractor	1	680	660	19400	13.328	13.121	13.534
DTProbeTrack02	13	ProbeTrack	12.1	SCS215a	20100824.131714	20100824.132028	8	0.013328	60	0	60-180	60	84	NoGap	1	32	2	3	0	distractor	1	734	633	20033	13.328	13.263	13.425
DTProbeTrack02	13	ProbeTrack	12.1	SCS215a	20100824.131714	20100824.132033	8	0.013328	60	0	60-180	60	65	NoGap	1	33	2	1	1	target	1	547	727	20760	13.328	13.293	13.363
DTProbeTrack02	13	ProbeTrack	12.1	SCS215a	20100824.131714	20100824.132037	8	0.013328	60	0	60-180	60	81	NoGap	1	34	2	6	0	distractor	1	787	607	21367	13.328	13.293	13.363
DTProbeTrack02	13	ProbeTrack	12.1	SCS215a	20100824.131714	20100824.132043	8	0.013328	60	0	60-180	60	154	NoGap	1	35	2	6	1	target	1	440	780	22147	13.328	13.181	13.442
DTProbeTrack02	13	ProbeTrack	12.1	SCS215a	20100824.131714	20100824.132048	8	0.013328	60	0	60-180	60	159	NoGap	1	36	2	6	1	target	1	507	747	22894	13.328	13.293	13.363
DTProbeTrack02	13	ProbeTrack	12.1	SCS215a	20100824.131714	20100824.132054	8	0.013328	60	0	60-180	60	73	NoGap	1	37	2	3	0	distractor	1	574	713	23607	13.328	13.293	13.363
DTProbeTrack02	13	ProbeTrack	12.1	SCS215a	20100824.131714	20100824.132059	8	0.013328	60	0	60-180	60	140	NoGap	1	38	2	9	1	target	1	507	747	24354	13.328	13.040	13.616
DTProbeTrack02	13	ProbeTrack	12.1	SCS215a	20100824.131714	20100824.132105	8	0.013328	60	0	60-180	60	104	NoGap	1	39	2	6	0	distractor	1	560	720	25074	13.328	13.103	13.520
DTProbeTrack02	13	ProbeTrack	12.1	SCS215a	20100824.131714	20100824.132110	8	0.013328	60	0	60-180	60	162	NoGap	1	40	2	1	1	target	1	440	780	25854	13.328	13.053	13.637
DTProbeTrack02	13	ProbeTrack	12.1	SCS215a	20100824.132158	20100824.132203	8	0.013328	60	10	60-180	60	153	GapPrac	1	1	2	9	1	target	1	1187	407	26261	13.328	12.995	13.626
DTProbeTrack02	13	ProbeTrack	12.1	SCS215a	20100824.132158	20100824.132210	8	0.013328	60	10	60-180	60	117	GapPrac	1	2	2	1	0	distractor	1	720	640	26901	13.328	12.920	13.756
DTProbeTrack02	13	ProbeTrack	12.1	SCS215a	20100824.132158	20100824.132215	8	0.013328	60	10	60-180	60	156	GapPrac	1	3	2	9	0	distractor	1	587	707	27608	13.328	12.857	13.798
DTProbeTrack02	13	ProbeTrack	12.1	SCS215a	20100824.132158	20100824.132222	8	0.013328	60	10	60-180	60	70	GapPrac	1	4	2	9	0	distractor	1	627	687	28295	13.328	12.887	13.769
DTProbeTrack02	13	ProbeTrack	12.1	SCS215a	20100824.132158	20100824.132227	8	0.013328	60	10	60-180	60	108	GapPrac	1	5	2	6	1	target	1	547	727	29022	13.328	13.198	13.463
DTProbeTrack02	13	ProbeTrack	12.1	SCS215a	20100824.132158	20100824.132232	8	0.013328	60	10	60-180	60	119	GapPrac	1	6	2	45	0	distractor	1	427	787	29809	13.328	12.880	13.780
DTProbeTrack02	13	ProbeTrack	12.1	SCS215a	20100824.132158	20100824.132238	8	0.013328	60	10	60-180	60	88	GapPrac	1	7	2	45	1	target	1	387	807	30616	13.328	13.106	13.542
DTProbeTrack02	13	ProbeTrack	12.1	SCS215a	20100824.132158	20100824.132244	8	0.013328	60	10	60-180	60	101	GapPrac	1	8	2	9	1	target	1	534	733	31349	13.328	12.867	13.791
DTProbeTrack02	13	ProbeTrack	12.1	SCS215a	20100824.132158	20100824.132249	8	0.013328	60	10	60-180	60	151	GapPrac	1	9	2	6	0	distractor	1	507	747	32096	13.328	13.304	13.347
DTProbeTrack02	13	ProbeTrack	12.1	SCS215a	20100824.132158	20100824.132255	8	0.013328	60	10	60-180	60	97	GapPrac	1	10	2	1	1	target	1	614	693	32789	13.328	13.149	13.508
DTProbeTrack02	13	ProbeTrack	12.1	SCS215a	20100824.132158	20100824.132301	8	0.013328	60	10	60-180	60	106	GapPrac	1	11	2	45	1	target	1	480	760	33549	13.328	12.963	13.695
DTProbeTrack02	13	ProbeTrack	12.1	SCS215a	20100824.132158	20100824.132307	8	0.013328	60	10	60-180	60	92	GapPrac	1	12	2	1	0	distractor	1	574	713	34262	13.328	12.858	13.801
DTProbeTrack02	13	ProbeTrack	12.1	SCS215a	20100824.132158	20100824.132312	8	0.013328	60	10	60-180	60	103	GapPrac	1	13	2	3	0	distractor	1	640	680	34942	13.383	13.092	26.819
DTProbeTrack02	13	ProbeTrack	12.1	SCS215a	20100824.132158	20100824.132317	8	0.013328	60	10	60-180	60	78	GapPrac	1	14	2	3	1	target	1	560	720	35662	13.328	13.309	13.346
DTProbeTrack02	13	ProbeTrack	12.1	SCS215a	20100824.132158	20100824.132322	8	0.013328	60	10	60-180	60	61	GapPrac	1	15	2	45	0	distractor	1	534	733	36395	13.328	13.075	13.583
DTProbeTrack02	13	ProbeTrack	12.1	SCS215a	20100824.132158	20100824.132328	8	0.013328	60	10	60-180	60	94	GapPrac	1	16	2	1	1	target	1	534	733	37128	13.328	12.861	13.796
DTProbeTrack02	13	ProbeTrack	12.1	SCS215a	20100824.132158	20100824.132333	8	0.013328	60	10	60-180	60	62	GapPrac	1	17	2	3	1	target	1	507	747	37875	13.328	13.100	13.556
DTProbeTrack02	13	ProbeTrack	12.1	SCS215a	20100824.132158	20100824.132338	8	0.013328	60	10	60-180	60	69	GapPrac	1	18	2	6	1	target	1	467	767	38642	13.328	12.953	13.713
DTProbeTrack02	13	ProbeTrack	12.1	SCS215a	20100824.132158	20100824.132342	8	0.013328	60	10	60-180	60	155	GapPrac	1	19	2	6	0	distractor	1	534	733	39375	13.328	13.101	13.554
DTProbeTrack02	13	ProbeTrack	12.1	SCS215a	20100824.132158	20100824.132349	8	0.013328	60	10	60-180	60	65	GapPrac	1	20	2	3	0	distractor	1	613	694	40069	13.328	12.967	13.705
DTProbeTrack02	13	ProbeTrack	12.1	SCS215a	20100824.132647	20100824.132651	8	0.013328	60	10	60-180	60	173	GapPrac	1	1	2	1	1	target	1	694	653	40722	13.328	12.855	13.797
DTProbeTrack02	13	ProbeTrack	12.1	SCS215a	20100824.132647	20100824.132658	8	0.013328	60	10	60-180	60	97	GapPrac	1	2	2	6	0	distractor	1	1800	100	40822	13.328	12.928	13.717
DTProbeTrack02	13	ProbeTrack	12.1	SCS215a	20100824.132647	20100824.132705	8	0.013328	60	10	60-180	60	85	GapPrac	1	3	2	1	1	target	1	27	987	41809	13.328	13.309	13.345
DTProbeTrack02	13	ProbeTrack	12.1	SCS215a	20100824.132647	20100824.132709	8	0.013328	60	10	60-180	60	145	GapPrac	1	4	2	45	0	distractor	1	987	507	42316	13.328	12.972	13.691
DTProbeTrack02	13	ProbeTrack	12.1	SCS215a	20100824.132647	20100824.132716	8	0.013328	60	10	60-180	60	79	GapPrac	1	5	2	1	0	target	0	1373	-1000	41316	13.328	12.944	13.724
DTProbeTrack02	13	ProbeTrack	12.1	SCS215a	20100824.132647	20100824.132722	8	0.013328	60	10	60-180	60	98	GapPrac	1	6	2	45	1	target	1	6718	0	41316	13.328	12.931	13.729
DTProbeTrack02	13	ProbeTrack	12.1	SCS215a	20100824.132647	20100824.132734	8	0.013328	60	10	60-180	60	158	GapPrac	1	7	2	6	1	target	1	507	747	42063	13.328	13.307	13.352
DTProbeTrack02	13	ProbeTrack	12.1	SCS215a	20100824.132647	20100824.132740	8	0.013328	60	10	60-180	60	90	GapPrac	1	8	2	45	1	target	1	454	773	42836	13.328	13.007	13.649
DTProbeTrack02	13	ProbeTrack	12.1	SCS215a	20100824.132647	20100824.132746	8	0.013328	60	10	60-180	60	96	GapPrac	1	9	2	3	1	target	1	587	707	43543	13.328	13.100	13.549
DTProbeTrack02	13	ProbeTrack	12.1	SCS215a	20100824.132647	20100824.132751	8	0.013328	60	10	60-180	60	176	GapPrac	1	10	2	45	0	distractor	1	667	667	44210	13.328	13.123	13.526
DTProbeTrack02	13	ProbeTrack	12.1	SCS215a	20100824.132647	20100824.132758	8	0.013328	60	10	60-180	60	117	GapPrac	1	11	2	3	0	target	0	1680	-1000	43210	13.328	13.106	13.553
DTProbeTrack02	13	ProbeTrack	12.1	SCS215a	20100824.132647	20100824.132805	8	0.013328	60	10	60-180	60	165	GapPrac	1	12	2	9	1	target	1	1227	387	43597	13.328	13.106	13.558
DTProbeTrack02	13	ProbeTrack	12.1	SCS215a	20100824.132647	20100824.132812	8	0.013328	60	10	60-180	60	115	GapPrac	1	13	2	9	1	target	1	1293	354	43951	13.328	13.104	13.544
DTProbeTrack02	13	ProbeTrack	12.1	SCS215a	20100824.132647	20100824.132818	8	0.013328	60	10	60-180	60	108	GapPrac	1	14	2	1	0	target	0	2813	-1000	42951	13.330	13.108	13.807
DTProbeTrack02	13	ProbeTrack	12.1	SCS215a	20100824.132647	20100824.132826	8	0.013328	60	10	60-180	60	112	GapPrac	1	15	2	9	0	distractor	1	1133	434	43385	13.328	13.088	13.573
DTProbeTrack02	13	ProbeTrack	12.1	SCS215a	20100824.132647	20100824.132832	8	0.013328	60	10	60-180	60	118	GapPrac	1	16	2	6	0	target	0	3492	-1000	42385	13.377	13.096	26.646
DTProbeTrack02	13	ProbeTrack	12.1	SCS215a	20100824.132647	20100824.132841	8	0.013328	60	10	60-180	60	168	GapPrac	1	17	2	3	1	target	1	867	567	42952	13.328	13.094	13.569
DTProbeTrack02	13	ProbeTrack	12.1	SCS215a	20100824.132647	20100824.132847	8	0.013328	60	10	60-180	60	75	GapPrac	1	18	2	3	0	distractor	1	1533	234	43186	13.328	12.953	13.703
DTProbeTrack02	13	ProbeTrack	12.1	SCS215a	20100824.132647	20100824.132853	8	0.013328	60	10	60-180	60	164	GapPrac	1	19	2	9	0	target	0	1400	-1000	42186	13.328	12.966	13.707
DTProbeTrack02	13	ProbeTrack	12.1	SCS215a	20100824.132647	20100824.132900	8	0.013328	60	10	60-180	60	174	GapPrac	1	20	2	6	1	target	1	1067	467	42653	13.328	12.891	13.763
DTProbeTrack02	13	ProbeTrack	12.1	SCS215a	20100824.133007	20100824.133017	8	0.013328	60	10	60-180	60	97	GapExp	1	1	2	3	1	target	1	467	767	43420	13.328	13.312	13.348
DTProbeTrack02	13	ProbeTrack	12.1	SCS215a	20100824.133007	20100824.133022	8	0.013328	60	10	60-180	60	94	GapExp	1	2	2	3	0	distractor	1	1093	454	43874	13.328	13.295	13.360
DTProbeTrack02	13	ProbeTrack	12.1	SCS215a	20100824.133007	20100824.133028	8	0.013328	60	10	60-180	60	104	GapExp	1	3	2	6	0	distractor	1	1067	467	44341	13.328	13.310	13.348
DTProbeTrack02	13	ProbeTrack	12.1	SCS215a	20100824.133007	20100824.133034	8	0.013328	60	10	60-180	60	166	GapExp	1	4	2	1	1	target	1	800	600	44941	13.328	12.908	13.752
DTProbeTrack02	13	ProbeTrack	12.1	SCS215a	20100824.133007	20100824.133040	8	0.013328	60	10	60-180	60	63	GapExp	1	5	2	45	0	distractor	1	653	674	45615	13.328	12.924	13.751
DTProbeTrack02	13	ProbeTrack	12.1	SCS215a	20100824.133007	20100824.133046	8	0.013328	60	10	60-180	60	132	GapExp	0	6	2	9	0	distractor	1	480	760	46375	13.328	13.104	13.560
DTProbeTrack02	13	ProbeTrack	12.1	SCS215a	20100824.133007	20100824.133051	8	0.013328	60	10	60-180	60	67	GapExp	0	7	2	3	0	distractor	1	2013	0	46375	13.328	12.938	13.733
DTProbeTrack02	13	ProbeTrack	12.1	SCS215a	20100824.133007	20100824.133058	8	0.013328	60	10	60-180	60	96	GapExp	0	8	2	45	0	distractor	1	1053	474	46849	13.328	13.311	13.348
DTProbeTrack02	13	ProbeTrack	12.1	SCS215a	20100824.133007	20100824.133104	8	0.013328	60	10	60-180	60	160	GapExp	0	9	2	9	0	distractor	1	1880	60	46909	13.328	13.308	13.349
DTProbeTrack02	13	ProbeTrack	12.1	SCS215a	20100824.133007	20100824.133112	8	0.013328	60	10	60-180	60	139	GapExp	0	10	2	9	1	target	1	1333	334	47243	13.328	13.040	13.623
DTProbeTrack02	13	ProbeTrack	12.1	SCS215a	20100824.133007	20100824.133118	8	0.013328	60	10	60-180	60	104	GapExp	0	11	2	45	1	target	1	1333	334	47577	13.328	13.303	13.348
DTProbeTrack02	13	ProbeTrack	12.1	SCS215a	20100824.133007	20100824.133125	8	0.013328	60	10	60-180	60	136	GapExp	0	12	2	1	1	target	1	840	580	48157	13.328	13.286	13.359
DTProbeTrack02	13	ProbeTrack	12.1	SCS215a	20100824.133007	20100824.133131	8	0.013328	60	10	60-180	60	126	GapExp	0	13	2	6	0	distractor	1	920	540	48697	13.328	13.260	13.404
DTProbeTrack02	13	ProbeTrack	12.1	SCS215a	20100824.133007	20100824.133138	8	0.013328	60	10	60-180	60	121	GapExp	0	14	2	3	1	target	1	494	753	49450	13.328	13.160	13.490
DTProbeTrack02	13	ProbeTrack	12.1	SCS215a	20100824.133007	20100824.133143	8	0.013328	60	10	60-180	60	146	GapExp	0	15	2	3	0	distractor	1	773	614	50064	13.328	12.902	13.751
DTProbeTrack02	13	ProbeTrack	12.1	SCS215a	20100824.133007	20100824.133149	8	0.013328	60	10	60-180	60	111	GapExp	0	16	2	9	0	distractor	1	1280	360	50424	13.328	13.099	13.550
DTProbeTrack02	13	ProbeTrack	12.1	SCS215a	20100824.133007	20100824.133156	8	0.013328	60	10	60-180	60	163	GapExp	0	17	2	3	0	distractor	1	787	607	51031	13.328	12.937	13.723
DTProbeTrack02	13	ProbeTrack	12.1	SCS215a	20100824.133007	20100824.133202	8	0.013328	60	10	60-180	60	177	GapExp	0	18	2	1	0	distractor	1	773	614	51645	13.328	13.097	13.678
DTProbeTrack02	13	ProbeTrack	12.1	SCS215a	20100824.133007	20100824.133209	8	0.013328	60	10	60-180	60	113	GapExp	0	19	2	6	1	target	1	827	587	52232	13.328	13.304	13.353
DTProbeTrack02	13	ProbeTrack	12.1	SCS215a	20100824.133007	20100824.133215	8	0.013328	60	10	60-180	60	136	GapExp	0	20	2	6	0	target	0	1426	-1000	51232	13.328	13.025	13.631
DTProbeTrack02	13	ProbeTrack	12.1	SCS215a	20100824.133007	20100824.133221	8	0.013328	60	10	60-180	60	128	GapExp	0	21	2	6	1	target	1	1173	414	51646	13.328	12.924	13.727
DTProbeTrack02	13	ProbeTrack	12.1	SCS215a	20100824.133007	20100824.133228	8	0.013328	60	10	60-180	60	111	GapExp	0	22	2	9	1	target	1	760	620	52266	13.328	13.281	13.371
DTProbeTrack02	13	ProbeTrack	12.1	SCS215a	20100824.133007	20100824.133234	8	0.013328	60	10	60-180	60	117	GapExp	0	23	2	1	0	target	0	867	-1000	51266	13.328	13.307	13.350
DTProbeTrack02	13	ProbeTrack	12.1	SCS215a	20100824.133007	20100824.133240	8	0.013328	60	10	60-180	60	163	GapExp	0	24	2	9	0	distractor	1	1466	267	51533	13.328	12.935	13.728
DTProbeTrack02	13	ProbeTrack	12.1	SCS215a	20100824.133007	20100824.133247	8	0.013328	60	10	60-180	60	161	GapExp	0	25	2	6	1	target	1	800	600	52133	13.328	13.055	13.599
DTProbeTrack02	13	ProbeTrack	12.1	SCS215a	20100824.133007	20100824.133253	8	0.013328	60	10	60-180	60	163	GapExp	0	26	2	1	0	distractor	1	534	733	52866	13.328	12.858	13.800
DTProbeTrack02	13	ProbeTrack	12.1	SCS215a	20100824.133007	20100824.133259	8	0.013328	60	10	60-180	60	112	GapExp	0	27	2	6	1	target	1	1506	247	53113	13.328	13.105	13.556
DTProbeTrack02	13	ProbeTrack	12.1	SCS215a	20100824.133007	20100824.133306	8	0.013328	60	10	60-180	60	120	GapExp	0	28	2	1	0	target	0	1693	-1000	52113	13.328	13.092	13.551
DTProbeTrack02	13	ProbeTrack	12.1	SCS215a	20100824.133007	20100824.133313	8	0.013328	60	10	60-180	60	122	GapExp	0	29	2	3	1	target	1	627	687	52800	13.328	12.904	13.753
DTProbeTrack02	13	ProbeTrack	12.1	SCS215a	20100824.133007	20100824.133318	8	0.013328	60	10	60-180	60	108	GapExp	0	30	2	1	0	target	0	1613	-1000	51800	13.328	12.850	13.807
DTProbeTrack02	13	ProbeTrack	12.1	SCS215a	20100824.133007	20100824.133325	8	0.013328	60	10	60-180	60	133	GapExp	0	31	2	3	0	distractor	1	1560	220	52020	13.328	13.310	13.348
DTProbeTrack02	13	ProbeTrack	12.1	SCS215a	20100824.133007	20100824.133332	8	0.013328	60	10	60-180	60	176	GapExp	0	32	2	9	1	target	1	400	800	52820	13.328	13.061	13.598
DTProbeTrack02	13	ProbeTrack	12.1	SCS215a	20100824.133007	20100824.133338	8	0.013328	60	10	60-180	60	124	GapExp	0	33	2	6	0	distractor	1	1080	460	53280	13.328	13.307	13.349
DTProbeTrack02	13	ProbeTrack	12.1	SCS215a	20100824.133007	20100824.133344	8	0.013328	60	10	60-180	60	159	GapExp	0	34	2	6	0	distractor	1	800	600	53880	13.328	13.299	13.346
DTProbeTrack02	13	ProbeTrack	12.1	SCS215a	20100824.133007	20100824.133351	8	0.013328	60	10	60-180	60	81	GapExp	0	35	2	9	1	target	1	880	560	54440	13.328	13.049	13.613
DTProbeTrack02	13	ProbeTrack	12.1	SCS215a	20100824.133007	20100824.133356	8	0.013328	60	10	60-180	60	150	GapExp	0	36	2	45	1	target	1	1133	434	54874	13.328	13.271	13.371
DTProbeTrack02	13	ProbeTrack	12.1	SCS215a	20100824.133007	20100824.133403	8	0.013328	60	10	60-180	60	111	GapExp	0	37	2	1	1	target	1	640	680	55554	13.328	13.107	13.564
DTProbeTrack02	13	ProbeTrack	12.1	SCS215a	20100824.133007	20100824.133409	8	0.013328	60	10	60-180	60	147	GapExp	0	38	2	6	1	distractor	0	1000	-1000	54554	13.328	13.083	13.569
DTProbeTrack02	13	ProbeTrack	12.1	SCS215a	20100824.133007	20100824.133415	8	0.013328	60	10	60-180	60	104	GapExp	0	39	2	45	0	distractor	1	867	567	55121	13.328	13.098	13.573
DTProbeTrack02	13	ProbeTrack	12.1	SCS215a	20100824.133007	20100824.133422	8	0.013328	60	10	60-180	60	87	GapExp	0	40	2	45	0	distractor	1	440	780	55901	13.328	13.307	13.353
DTProbeTrack02	13	ProbeTrack	12.1	SCS215a	20100824.133007	20100824.133427	8	0.013328	60	10	60-180	60	159	GapExp	0	41	2	45	1	distractor	0	614	-1000	54901	13.328	13.113	13.554
DTProbeTrack02	13	ProbeTrack	12.1	SCS215a	20100824.133007	20100824.133434	8	0.013328	60	10	60-180	60	132	GapExp	0	42	2	1	0	distractor	1	627	687	55588	13.328	13.264	13.386
DTProbeTrack02	13	ProbeTrack	12.1	SCS215a	20100824.133007	20100824.133440	8	0.013328	60	10	60-180	60	76	GapExp	0	43	2	9	1	target	1	1093	454	56042	13.328	13.288	13.355
DTProbeTrack02	13	ProbeTrack	12.1	SCS215a	20100824.133007	20100824.133445	8	0.013328	60	10	60-180	60	143	GapExp	0	44	2	9	1	target	1	1520	240	56282	13.328	13.080	13.570
DTProbeTrack02	13	ProbeTrack	12.1	SCS215a	20100824.133007	20100824.133452	8	0.013328	60	10	60-180	60	119	GapExp	0	45	2	1	1	target	1	1067	467	56749	13.328	13.095	13.554
DTProbeTrack02	13	ProbeTrack	12.1	SCS215a	20100824.133007	20100824.133459	8	0.013328	60	10	60-180	60	73	GapExp	0	46	2	6	1	target	1	1746	127	56876	13.328	13.110	13.545
DTProbeTrack02	13	ProbeTrack	12.1	SCS215a	20100824.133007	20100824.133505	8	0.013328	60	10	60-180	60	106	GapExp	0	47	2	9	0	distractor	1	627	687	57563	13.328	12.883	13.785
DTProbeTrack02	13	ProbeTrack	12.1	SCS215a	20100824.133007	20100824.133510	8	0.013328	60	10	60-180	60	163	GapExp	0	48	2	1	0	target	0	1586	-1000	56563	13.328	13.099	13.549
DTProbeTrack02	13	ProbeTrack	12.1	SCS215a	20100824.133007	20100824.133518	8	0.013328	60	10	60-180	60	120	GapExp	0	49	2	45	1	target	1	534	733	57296	13.328	13.099	13.573
DTProbeTrack02	13	ProbeTrack	12.1	SCS215a	20100824.133007	20100824.133524	8	0.013328	60	10	60-180	60	79	GapExp	0	50	2	45	0	distractor	1	1147	427	57723	13.328	13.002	13.645
DTProbeTrack02	13	ProbeTrack	12.1	SCS215a	20100824.133007	20100824.133544	8	0.013328	60	10	60-180	60	88	GapExp	0	51	2	3	1	target	1	1533	234	57957	13.328	12.905	13.760
DTProbeTrack02	13	ProbeTrack	12.1	SCS215a	20100824.133007	20100824.133550	8	0.013328	60	10	60-180	60	122	GapExp	0	52	2	9	0	distractor	1	1266	367	58324	13.328	13.018	13.639
DTProbeTrack02	13	ProbeTrack	12.1	SCS215a	20100824.133007	20100824.133556	8	0.013328	60	10	60-180	60	108	GapExp	0	53	2	3	1	target	1	520	740	59064	13.328	13.040	13.624
DTProbeTrack02	13	ProbeTrack	12.1	SCS215a	20100824.133007	20100824.133602	8	0.013328	60	10	60-180	60	155	GapExp	0	54	2	45	0	distractor	1	520	740	59804	13.328	13.103	13.548
DTProbeTrack02	13	ProbeTrack	12.1	SCS215a	20100824.133007	20100824.133608	8	0.013328	60	10	60-180	60	111	GapExp	0	55	2	3	0	target	0	1093	-1000	58804	13.328	13.121	13.546
DTProbeTrack02	13	ProbeTrack	12.1	SCS215a	20100824.133007	20100824.133614	8	0.013328	60	10	60-180	60	118	GapExp	0	56	2	45	1	distractor	0	1493	-1000	57804	13.414	12.921	27.056
DTProbeTrack02	13	ProbeTrack	12.1	SCS215a	20100824.133007	20100824.133621	8	0.013328	60	10	60-180	60	173	GapExp	0	57	2	6	0	target	0	1520	-1000	56804	13.328	13.087	13.550
DTProbeTrack02	13	ProbeTrack	12.1	SCS215a	20100824.133007	20100824.133629	8	0.013328	60	10	60-180	60	120	GapExp	0	58	2	45	0	target	0	1746	-1000	55804	13.328	13.105	13.565
DTProbeTrack02	13	ProbeTrack	12.1	SCS215a	20100824.133007	20100824.133636	8	0.013328	60	10	60-180	60	163	GapExp	0	59	2	3	1	target	1	1293	354	56158	13.328	12.955	13.695
DTProbeTrack02	13	ProbeTrack	12.1	SCS215a	20100824.133007	20100824.133643	8	0.013328	60	10	60-180	60	135	GapExp	0	60	2	3	0	distractor	1	973	514	56672	13.328	12.969	13.675
DTProbeTrack02	13	ProbeTrack	12.1	SCS215a	20100824.133007	20100824.133649	8	0.013328	60	10	60-180	60	97	GapExp	0	61	2	45	1	target	1	1586	207	56879	13.328	13.092	13.558
DTProbeTrack02	13	ProbeTrack	12.1	SCS215a	20100824.133007	20100824.133656	8	0.013328	60	10	60-180	60	152	GapExp	0	62	2	1	0	distractor	1	1666	167	57046	13.328	13.106	13.551
DTProbeTrack02	13	ProbeTrack	12.1	SCS215a	20100824.133007	20100824.133703	8	0.013328	60	10	60-180	60	118	GapExp	0	63	2	3	1	target	1	1946	27	57073	13.328	13.111	13.551
DTProbeTrack02	13	ProbeTrack	12.1	SCS215a	20100824.133007	20100824.133710	8	0.013328	60	10	60-180	60	66	GapExp	0	64	2	1	1	target	1	1040	480	57553	13.391	13.131	26.838
DTProbeTrack02	13	ProbeTrack	12.1	SCS215a	20100824.133007	20100824.133716	8	0.013328	60	10	60-180	60	180	GapExp	0	65	2	1	1	target	1	520	740	58293	13.328	13.303	13.352
DTProbeTrack02	13	ProbeTrack	12.1	SCS215a	20100824.133007	20100824.133722	8	0.013328	60	10	60-180	60	124	GapExp	0	66	2	6	1	target	1	574	713	59006	13.328	13.304	13.347
DTProbeTrack02	13	ProbeTrack	12.1	SCS215a	20100824.133007	20100824.133728	8	0.013328	60	10	60-180	60	167	GapExp	0	67	2	9	0	distractor	1	520	740	59746	13.328	13.308	13.348
DTProbeTrack02	13	ProbeTrack	12.1	SCS215a	20100824.133007	20100824.133734	8	0.013328	60	10	60-180	60	179	GapExp	0	68	2	1	1	target	1	1187	407	60153	13.328	13.111	13.545
DTProbeTrack02	13	ProbeTrack	12.1	SCS215a	20100824.133007	20100824.133741	8	0.013328	60	10	60-180	60	105	GapExp	0	69	2	3	0	target	0	2426	-1000	59153	13.328	12.903	13.756
DTProbeTrack02	13	ProbeTrack	12.1	SCS215a	20100824.133007	20100824.133748	8	0.013328	60	10	60-180	60	145	GapExp	0	70	2	6	0	distractor	1	1000	500	59653	13.328	12.859	13.803
DTProbeTrack02	13	ProbeTrack	12.1	SCS215a	20100824.133007	20100824.133755	8	0.013328	60	10	60-180	60	100	GapExp	0	71	2	1	1	target	1	1653	174	59827	13.328	13.101	13.551
DTProbeTrack02	13	ProbeTrack	12.1	SCS215a	20100824.133007	20100824.133801	8	0.013328	60	10	60-180	60	169	GapExp	0	72	2	9	0	distractor	1	880	560	60387	13.328	12.962	13.700
DTProbeTrack02	13	ProbeTrack	12.1	SCS215a	20100824.133007	20100824.133808	8	0.013328	60	10	60-180	60	144	GapExp	0	73	2	1	1	target	1	1107	447	60834	13.328	13.099	13.551
DTProbeTrack02	13	ProbeTrack	12.1	SCS215a	20100824.133007	20100824.133814	8	0.013328	60	10	60-180	60	92	GapExp	0	74	2	9	0	distractor	1	1573	214	61048	13.328	12.950	13.726
DTProbeTrack02	13	ProbeTrack	12.1	SCS215a	20100824.133007	20100824.133821	8	0.013328	60	10	60-180	60	158	GapExp	0	75	2	1	0	distractor	1	2586	0	61048	13.328	12.857	13.804
DTProbeTrack02	13	ProbeTrack	12.1	SCS215a	20100824.133007	20100824.133829	8	0.013328	60	10	60-180	60	117	GapExp	0	76	2	1	0	distractor	1	2040	0	61048	13.328	13.099	13.545
DTProbeTrack02	13	ProbeTrack	12.1	SCS215a	20100824.133007	20100824.133836	8	0.013328	60	10	60-180	60	168	GapExp	0	77	2	9	0	target	0	694	-1000	60048	13.328	13.105	13.545
DTProbeTrack02	13	ProbeTrack	12.1	SCS215a	20100824.133007	20100824.133842	8	0.013328	60	10	60-180	60	67	GapExp	0	78	2	1	1	distractor	0	747	-1000	59048	13.328	13.098	13.560
DTProbeTrack02	13	ProbeTrack	12.1	SCS215a	20100824.133007	20100824.133847	8	0.013328	60	10	60-180	60	173	GapExp	0	79	2	3	1	target	1	440	780	59828	13.328	13.098	13.562
DTProbeTrack02	13	ProbeTrack	12.1	SCS215a	20100824.133007	20100824.133854	8	0.013328	60	10	60-180	60	142	GapExp	0	80	2	9	0	target	0	2239	-1000	58828	13.328	12.901	13.763
DTProbeTrack02	13	ProbeTrack	12.1	SCS215a	20100824.133007	20100824.133901	8	0.013328	60	10	60-180	60	124	GapExp	0	81	2	9	0	distractor	1	1440	280	59108	13.328	13.042	13.611
DTProbeTrack02	13	ProbeTrack	12.1	SCS215a	20100824.133007	20100824.133908	8	0.013328	60	10	60-180	60	145	GapExp	0	82	2	45	1	target	1	1480	260	59368	13.328	13.106	13.562
DTProbeTrack02	13	ProbeTrack	12.1	SCS215a	20100824.133007	20100824.133915	8	0.013328	60	10	60-180	60	180	GapExp	0	83	2	6	0	distractor	1	507	747	60115	13.328	13.099	13.550
DTProbeTrack02	13	ProbeTrack	12.1	SCS215a	20100824.133007	20100824.133922	8	0.013328	60	10	60-180	60	86	GapExp	0	84	2	3	0	target	0	1226	-1000	59115	13.328	12.900	13.744
DTProbeTrack02	13	ProbeTrack	12.1	SCS215a	20100824.133007	20100824.133928	8	0.013328	60	10	60-180	60	149	GapExp	0	85	2	9	1	target	1	480	760	59875	13.328	12.868	13.787
DTProbeTrack02	13	ProbeTrack	12.1	SCS215a	20100824.133007	20100824.133934	8	0.013328	60	10	60-180	60	154	GapExp	0	86	2	6	0	distractor	1	574	713	60588	13.374	12.864	26.187
DTProbeTrack02	13	ProbeTrack	12.1	SCS215a	20100824.133007	20100824.133940	8	0.013328	60	10	60-180	60	122	GapExp	0	87	2	9	1	target	1	614	693	61281	13.328	13.099	13.550
DTProbeTrack02	13	ProbeTrack	12.1	SCS215a	20100824.133007	20100824.133946	8	0.013328	60	10	60-180	60	76	GapExp	0	88	2	9	1	target	1	520	740	62021	13.328	13.103	13.557
DTProbeTrack02	13	ProbeTrack	12.1	SCS215a	20100824.133007	20100824.133951	8	0.013328	60	10	60-180	60	127	GapExp	0	89	2	3	0	distractor	1	467	767	62788	13.328	13.306	13.349
DTProbeTrack02	13	ProbeTrack	12.1	SCS215a	20100824.133007	20100824.133956	8	0.013328	60	10	60-180	60	81	GapExp	0	90	2	1	0	distractor	1	933	534	63322	13.328	13.048	13.603
DTProbeTrack02	13	ProbeTrack	12.1	SCS215a	20100824.133007	20100824.134002	8	0.013328	60	10	60-180	60	137	GapExp	0	91	2	45	1	target	1	534	733	64055	13.371	13.100	26.453
DTProbeTrack02	13	ProbeTrack	12.1	SCS215a	20100824.133007	20100824.134008	8	0.013328	60	10	60-180	60	158	GapExp	0	92	2	1	1	target	1	480	760	64815	13.328	12.884	13.766
DTProbeTrack02	13	ProbeTrack	12.1	SCS215a	20100824.133007	20100824.134014	8	0.013328	60	10	60-180	60	165	GapExp	0	93	2	3	0	distractor	1	374	813	65628	13.328	13.103	13.567
DTProbeTrack02	13	ProbeTrack	12.1	SCS215a	20100824.133007	20100824.134020	8	0.013328	60	10	60-180	60	154	GapExp	0	94	2	45	0	distractor	1	560	720	66348	13.328	13.100	13.565
DTProbeTrack02	13	ProbeTrack	12.1	SCS215a	20100824.133007	20100824.134027	8	0.013328	60	10	60-180	60	126	GapExp	0	95	2	6	0	distractor	1	467	767	67115	13.328	13.095	13.553
DTProbeTrack02	13	ProbeTrack	12.1	SCS215a	20100824.133007	20100824.134033	8	0.013328	60	10	60-180	60	61	GapExp	0	96	2	3	0	target	0	2213	-1000	66115	13.392	13.308	26.674
DTProbeTrack02	13	ProbeTrack	12.1	SCS215a	20100824.133007	20100824.134039	8	0.013328	60	10	60-180	60	107	GapExp	0	97	2	45	1	target	1	1586	207	66322	13.328	13.301	13.358
DTProbeTrack02	13	ProbeTrack	12.1	SCS215a	20100824.133007	20100824.134046	8	0.013328	60	10	60-180	60	123	GapExp	0	98	2	45	0	distractor	1	560	720	67042	13.328	13.018	13.633
DTProbeTrack02	13	ProbeTrack	12.1	SCS215a	20100824.133007	20100824.134052	8	0.013328	60	10	60-180	60	102	GapExp	0	99	2	6	0	distractor	1	747	627	67669	13.328	12.908	13.753
DTProbeTrack02	13	ProbeTrack	12.1	SCS215a	20100824.133007	20100824.134058	8	0.013328	60	10	60-180	60	110	GapExp	0	100	2	45	0	distractor	1	667	667	68336	13.328	13.277	13.380
DTProbeTrack02	13	ProbeTrack	12.1	SCS215a	20100824.133007	20100824.134114	8	0.013328	60	10	60-180	60	87	GapExp	0	101	2	9	1	target	1	1293	354	68690	13.328	13.292	13.359
DTProbeTrack02	13	ProbeTrack	12.1	SCS215a	20100824.133007	20100824.134120	8	0.013328	60	10	60-180	60	161	GapExp	0	102	2	9	1	target	1	467	767	69457	13.328	13.049	13.597
DTProbeTrack02	13	ProbeTrack	12.1	SCS215a	20100824.133007	20100824.134126	8	0.013328	60	10	60-180	60	61	GapExp	0	103	2	1	1	target	1	1293	354	69811	13.328	13.245	13.417
DTProbeTrack02	13	ProbeTrack	12.1	SCS215a	20100824.133007	20100824.134132	8	0.013328	60	10	60-180	60	128	GapExp	0	104	2	45	0	distractor	1	1453	274	70085	13.328	12.958	13.704
DTProbeTrack02	13	ProbeTrack	12.1	SCS215a	20100824.133007	20100824.134139	8	0.013328	60	10	60-180	60	162	GapExp	0	105	2	3	0	distractor	1	853	574	70659	13.328	12.845	13.809
DTProbeTrack02	13	ProbeTrack	12.1	SCS215a	20100824.133007	20100824.134146	8	0.013328	60	10	60-180	60	114	GapExp	0	106	2	3	1	target	1	1107	447	71106	13.328	12.912	13.748
DTProbeTrack02	13	ProbeTrack	12.1	SCS215a	20100824.133007	20100824.134152	8	0.013328	60	10	60-180	60	179	GapExp	0	107	2	6	0	distractor	1	574	713	71819	13.328	13.099	13.571
DTProbeTrack02	13	ProbeTrack	12.1	SCS215a	20100824.133007	20100824.134158	8	0.013328	60	10	60-180	60	157	GapExp	0	108	2	6	1	target	1	733	634	72453	13.328	13.112	13.543
DTProbeTrack02	13	ProbeTrack	12.1	SCS215a	20100824.133007	20100824.134204	8	0.013328	60	10	60-180	60	112	GapExp	0	109	2	45	0	distractor	1	1533	234	72687	13.328	13.035	13.622
DTProbeTrack02	13	ProbeTrack	12.1	SCS215a	20100824.133007	20100824.134211	8	0.013328	60	10	60-180	60	172	GapExp	0	110	2	6	1	target	1	1027	487	73174	13.328	13.310	13.347
DTProbeTrack02	13	ProbeTrack	12.1	SCS215a	20100824.133007	20100824.134218	8	0.013328	60	10	60-180	60	79	GapExp	0	111	2	45	1	target	1	1293	354	73528	13.328	13.085	13.558
DTProbeTrack02	13	ProbeTrack	12.1	SCS215a	20100824.133007	20100824.134225	8	0.013328	60	10	60-180	60	146	GapExp	0	112	2	1	1	target	1	587	707	74235	13.328	13.104	13.545
DTProbeTrack02	13	ProbeTrack	12.1	SCS215a	20100824.133007	20100824.134231	8	0.013328	60	10	60-180	60	170	GapExp	0	113	2	1	1	target	1	520	740	74975	13.328	12.966	13.698
DTProbeTrack02	13	ProbeTrack	12.1	SCS215a	20100824.133007	20100824.134237	8	0.013328	60	10	60-180	60	81	GapExp	0	114	2	3	1	target	1	614	693	75668	13.328	13.307	13.349
DTProbeTrack02	13	ProbeTrack	12.1	SCS215a	20100824.133007	20100824.134242	8	0.013328	60	10	60-180	60	141	GapExp	0	115	2	3	1	target	1	520	740	76408	13.328	13.099	13.545
DTProbeTrack02	13	ProbeTrack	12.1	SCS215a	20100824.133007	20100824.134248	8	0.013328	60	10	60-180	60	137	GapExp	0	116	2	1	0	distractor	1	600	700	77108	13.328	13.219	13.439
DTProbeTrack02	13	ProbeTrack	12.1	SCS215a	20100824.133007	20100824.134254	8	0.013328	60	10	60-180	60	115	GapExp	0	117	2	1	1	target	1	507	747	77855	13.328	13.105	13.562
DTProbeTrack02	13	ProbeTrack	12.1	SCS215a	20100824.133007	20100824.134259	8	0.013328	60	10	60-180	60	152	GapExp	0	118	2	1	1	target	1	1200	400	78255	13.328	13.295	13.363
DTProbeTrack02	13	ProbeTrack	12.1	SCS215a	20100824.133007	20100824.134306	8	0.013328	60	10	60-180	60	132	GapExp	0	119	2	6	1	target	1	1107	447	78702	13.328	13.298	13.348
DTProbeTrack02	13	ProbeTrack	12.1	SCS215a	20100824.133007	20100824.134312	8	0.013328	60	10	60-180	60	154	GapExp	0	120	2	1	0	target	0	1040	-1000	77702	13.328	13.061	13.597
DTProbeTrack02	13	ProbeTrack	12.1	SCS215a	20100824.133007	20100824.134319	8	0.013328	60	10	60-180	60	98	GapExp	0	121	2	3	1	target	1	1480	260	77962	13.328	13.302	13.353
DTProbeTrack02	13	ProbeTrack	12.1	SCS215a	20100824.133007	20100824.134325	8	0.013328	60	10	60-180	60	139	GapExp	0	122	2	45	0	distractor	1	680	660	78622	13.328	13.304	13.359
DTProbeTrack02	13	ProbeTrack	12.1	SCS215a	20100824.133007	20100824.134332	8	0.013328	60	10	60-180	60	136	GapExp	0	123	2	6	0	target	0	987	-1000	77622	13.328	13.125	13.529
DTProbeTrack02	13	ProbeTrack	12.1	SCS215a	20100824.133007	20100824.134338	8	0.013328	60	10	60-180	60	83	GapExp	0	124	2	1	1	186	-3	773	-1000	76622	13.328	12.970	13.689
DTProbeTrack02	13	ProbeTrack	12.1	SCS215a	20100824.133007	20100824.134343	8	0.013328	60	10	60-180	60	103	GapExp	0	125	2	1	1	target	1	707	647	77269	13.328	13.102	13.560
DTProbeTrack02	13	ProbeTrack	12.1	SCS215a	20100824.133007	20100824.134349	8	0.013328	60	10	60-180	60	136	GapExp	0	126	2	9	0	target	0	1240	-1000	76269	13.328	13.307	13.352
DTProbeTrack02	13	ProbeTrack	12.1	SCS215a	20100824.133007	20100824.134355	8	0.013328	60	10	60-180	60	161	GapExp	0	127	2	9	1	target	1	1027	487	76756	13.328	13.099	13.559
DTProbeTrack02	13	ProbeTrack	12.1	SCS215a	20100824.133007	20100824.134402	8	0.013328	60	10	60-180	60	76	GapExp	0	128	2	45	1	distractor	0	1227	-1000	75756	13.328	13.126	13.518
DTProbeTrack02	13	ProbeTrack	12.1	SCS215a	20100824.133007	20100824.134408	8	0.013328	60	10	60-180	60	99	GapExp	0	129	2	6	1	target	1	1013	494	76250	13.328	13.276	13.380
DTProbeTrack02	13	ProbeTrack	12.1	SCS215a	20100824.133007	20100824.134414	8	0.013328	60	10	60-180	60	66	GapExp	0	130	2	45	0	distractor	1	1933	34	76284	13.328	13.308	13.353
DTProbeTrack02	13	ProbeTrack	12.1	SCS215a	20100824.133007	20100824.134421	8	0.013328	60	10	60-180	60	68	GapExp	0	131	2	6	0	target	0	1506	-1000	75284	13.328	13.309	13.349
DTProbeTrack02	13	ProbeTrack	12.1	SCS215a	20100824.133007	20100824.134427	8	0.013328	60	10	60-180	60	121	GapExp	0	132	2	9	0	distractor	1	640	680	75964	13.328	13.305	13.345
DTProbeTrack02	13	ProbeTrack	12.1	SCS215a	20100824.133007	20100824.134433	8	0.013328	60	10	60-180	60	79	GapExp	0	133	2	1	1	target	1	1400	300	76264	13.328	13.105	13.553
DTProbeTrack02	13	ProbeTrack	12.1	SCS215a	20100824.133007	20100824.134439	8	0.013328	60	10	60-180	60	162	GapExp	0	134	2	45	1	distractor	0	840	-1000	75264	13.328	13.101	13.555
DTProbeTrack02	13	ProbeTrack	12.1	SCS215a	20100824.133007	20100824.134446	8	0.013328	60	10	60-180	60	175	GapExp	0	135	2	45	1	target	1	1706	147	75411	13.328	13.101	13.559
DTProbeTrack02	13	ProbeTrack	12.1	SCS215a	20100824.133007	20100824.134454	8	0.013328	60	10	60-180	60	71	GapExp	0	136	2	6	0	target	0	2173	-1000	74411	13.328	13.107	13.543
DTProbeTrack02	13	ProbeTrack	12.1	SCS215a	20100824.133007	20100824.134500	8	0.013328	60	10	60-180	60	132	GapExp	0	137	2	9	1	target	1	1133	434	74845	13.328	13.307	13.348
DTProbeTrack02	13	ProbeTrack	12.1	SCS215a	20100824.133007	20100824.134507	8	0.013328	60	10	60-180	60	113	GapExp	0	138	2	45	0	target	0	1626	-1000	73845	13.328	13.030	13.624
DTProbeTrack02	13	ProbeTrack	12.1	SCS215a	20100824.133007	20100824.134514	8	0.013328	60	10	60-180	60	140	GapExp	0	139	2	45	0	distractor	1	1040	480	74325	13.328	12.942	13.715
DTProbeTrack02	13	ProbeTrack	12.1	SCS215a	20100824.133007	20100824.134521	8	0.013328	60	10	60-180	60	110	GapExp	0	140	2	6	1	target	1	1466	267	74592	13.328	13.086	13.570
DTProbeTrack02	13	ProbeTrack	12.1	SCS215a	20100824.133007	20100824.134527	8	0.013328	60	10	60-180	60	93	GapExp	0	141	2	9	1	target	1	3226	0	74592	13.328	12.915	13.744
DTProbeTrack02	13	ProbeTrack	12.1	SCS215a	20100824.133007	20100824.134535	8	0.013328	60	10	60-180	60	81	GapExp	0	142	2	6	0	distractor	1	1067	467	75059	13.328	12.888	13.790
DTProbeTrack02	13	ProbeTrack	12.1	SCS215a	20100824.133007	20100824.134541	8	0.013328	60	10	60-180	60	61	GapExp	0	143	2	6	1	target	1	720	640	75699	13.328	13.300	13.346
DTProbeTrack02	13	ProbeTrack	12.1	SCS215a	20100824.133007	20100824.134546	8	0.013328	60	10	60-180	60	164	GapExp	0	144	2	9	0	target	0	1133	-1000	74699	13.328	13.296	13.354
DTProbeTrack02	13	ProbeTrack	12.1	SCS215a	20100824.133007	20100824.134553	8	0.013328	60	10	60-180	60	130	GapExp	0	145	2	9	0	distractor	1	654	673	75372	13.328	13.309	13.353
DTProbeTrack02	13	ProbeTrack	12.1	SCS215a	20100824.133007	20100824.134559	8	0.013328	60	10	60-180	60	65	GapExp	0	146	2	6	1	target	1	813	594	75966	13.328	12.899	13.760
DTProbeTrack02	13	ProbeTrack	12.1	SCS215a	20100824.133007	20100824.134604	8	0.013328	60	10	60-180	60	134	GapExp	0	147	2	9	1	distractor	0	1067	-1000	74966	13.328	12.879	13.785
DTProbeTrack02	13	ProbeTrack	12.1	SCS215a	20100824.133007	20100824.134611	8	0.013328	60	10	60-180	60	179	GapExp	0	148	2	1	0	target	0	800	-1000	73966	13.328	13.101	13.557
DTProbeTrack02	13	ProbeTrack	12.1	SCS215a	20100824.133007	20100824.134617	8	0.013328	60	10	60-180	60	120	GapExp	0	149	2	45	0	distractor	1	680	660	74626	13.328	13.033	13.630
DTProbeTrack02	13	ProbeTrack	12.1	SCS215a	20100824.133007	20100824.134624	8	0.013328	60	10	60-180	60	63	GapExp	0	150	2	3	0	distractor	1	720	640	75266	13.328	13.096	13.552
DTProbeTrack02	13	ProbeTrack	12.1	SCS215a	20100824.133007	20100824.134651	8	0.013328	60	10	60-180	60	77	GapExp	0	151	2	3	1	target	1	600	700	75966	13.328	12.864	13.794
DTProbeTrack02	13	ProbeTrack	12.1	SCS215a	20100824.133007	20100824.134656	8	0.013328	60	10	60-180	60	91	GapExp	0	152	2	3	1	target	1	1013	494	76460	13.328	12.857	13.780
DTProbeTrack02	13	ProbeTrack	12.1	SCS215a	20100824.133007	20100824.134701	8	0.013328	60	10	60-180	60	83	GapExp	0	153	2	45	0	distractor	1	733	634	77094	13.328	13.086	13.557
DTProbeTrack02	13	ProbeTrack	12.1	SCS215a	20100824.133007	20100824.134707	8	0.013328	60	10	60-180	60	175	GapExp	0	154	2	45	0	distractor	1	600	700	77794	13.328	12.879	13.788
DTProbeTrack02	13	ProbeTrack	12.1	SCS215a	20100824.133007	20100824.134714	8	0.013328	60	10	60-180	60	92	GapExp	0	155	2	6	0	distractor	1	667	667	78461	13.328	13.065	13.575
DTProbeTrack02	13	ProbeTrack	12.1	SCS215a	20100824.133007	20100824.134719	8	0.013328	60	10	60-180	60	146	GapExp	0	156	2	9	1	target	1	480	760	79221	13.328	12.928	13.731
DTProbeTrack02	13	ProbeTrack	12.1	SCS215a	20100824.133007	20100824.134725	8	0.013328	60	10	60-180	60	137	GapExp	0	157	2	6	1	distractor	0	1040	-1000	78221	13.328	12.891	13.768
DTProbeTrack02	13	ProbeTrack	12.1	SCS215a	20100824.133007	20100824.134732	8	0.013328	60	10	60-180	60	160	GapExp	0	158	2	1	0	distractor	1	547	727	78948	13.328	12.830	13.821
DTProbeTrack02	13	ProbeTrack	12.1	SCS215a	20100824.133007	20100824.134738	8	0.013328	60	10	60-180	60	83	GapExp	0	159	2	3	1	target	1	400	800	79748	13.328	13.159	13.485
DTProbeTrack02	13	ProbeTrack	12.1	SCS215a	20100824.133007	20100824.134743	8	0.013328	60	10	60-180	60	104	GapExp	0	160	2	1	0	target	0	720	-1000	78748	13.328	13.052	13.611
DTProbeTrack02	13	ProbeTrack	12.1	SCS215a	20100824.133007	20100824.134748	8	0.013328	60	10	60-180	60	70	GapExp	0	161	2	1	1	target	1	574	713	79461	13.328	13.119	13.545
DTProbeTrack02	13	ProbeTrack	12.1	SCS215a	20100824.133007	20100824.134753	8	0.013328	60	10	60-180	60	86	GapExp	0	162	2	45	1	target	1	454	773	80234	13.328	13.178	13.478
DTProbeTrack02	13	ProbeTrack	12.1	SCS215a	20100824.133007	20100824.134759	8	0.013328	60	10	60-180	60	129	GapExp	0	163	2	3	1	target	1	907	547	80781	13.328	13.169	13.480
DTProbeTrack02	13	ProbeTrack	12.1	SCS215a	20100824.133007	20100824.134805	8	0.013328	60	10	60-180	60	133	GapExp	0	164	2	1	0	distractor	1	627	687	81468	13.328	12.890	13.765
DTProbeTrack02	13	ProbeTrack	12.1	SCS215a	20100824.133007	20100824.134811	8	0.013328	60	10	60-180	60	84	GapExp	0	165	2	3	0	distractor	1	574	713	82181	13.328	13.098	13.564
DTProbeTrack02	13	ProbeTrack	12.1	SCS215a	20100824.133007	20100824.134816	8	0.013328	60	10	60-180	60	132	GapExp	0	166	2	45	1	target	1	467	767	82948	13.328	13.291	13.360
DTProbeTrack02	13	ProbeTrack	12.1	SCS215a	20100824.133007	20100824.134822	8	0.013328	60	10	60-180	60	71	GapExp	0	167	2	45	1	target	1	1213	394	83342	13.328	13.109	13.553
DTProbeTrack02	13	ProbeTrack	12.1	SCS215a	20100824.133007	20100824.134828	8	0.013328	60	10	60-180	60	102	GapExp	0	168	2	45	1	target	1	440	780	84122	13.328	13.105	13.548
DTProbeTrack02	13	ProbeTrack	12.1	SCS215a	20100824.133007	20100824.134834	8	0.013328	60	10	60-180	60	87	GapExp	0	169	2	3	0	distractor	1	613	694	84816	13.328	13.046	13.597
DTProbeTrack02	13	ProbeTrack	12.1	SCS215a	20100824.133007	20100824.134839	8	0.013328	60	10	60-180	60	82	GapExp	0	170	2	45	1	distractor	0	1786	-1000	83816	13.328	13.283	13.358
DTProbeTrack02	13	ProbeTrack	12.1	SCS215a	20100824.133007	20100824.134846	8	0.013328	60	10	60-180	60	140	GapExp	0	171	2	9	0	target	0	1840	-1000	82816	13.327	12.926	13.737
DTProbeTrack02	13	ProbeTrack	12.1	SCS215a	20100824.133007	20100824.134854	8	0.013328	60	10	60-180	60	134	GapExp	0	172	2	6	0	distractor	1	534	733	83549	13.328	12.894	13.762
DTProbeTrack02	13	ProbeTrack	12.1	SCS215a	20100824.133007	20100824.134859	8	0.013328	60	10	60-180	60	92	GapExp	0	173	2	6	1	target	1	560	720	84269	13.328	13.080	13.578
DTProbeTrack02	13	ProbeTrack	12.1	SCS215a	20100824.133007	20100824.134905	8	0.013328	60	10	60-180	60	172	GapExp	0	174	2	9	1	target	1	387	807	85076	13.328	12.932	13.732
DTProbeTrack02	13	ProbeTrack	12.1	SCS215a	20100824.133007	20100824.134911	8	0.013328	60	10	60-180	60	66	GapExp	0	175	2	6	1	target	1	853	574	85650	13.328	13.311	13.345
DTProbeTrack02	13	ProbeTrack	12.1	SCS215a	20100824.133007	20100824.134916	8	0.013328	60	10	60-180	60	73	GapExp	0	176	2	6	0	distractor	1	547	727	86377	13.328	12.844	13.804
DTProbeTrack02	13	ProbeTrack	12.1	SCS215a	20100824.133007	20100824.134921	8	0.013328	60	10	60-180	60	108	GapExp	0	177	2	3	0	distractor	1	1173	414	86791	13.328	12.953	13.692
DTProbeTrack02	13	ProbeTrack	12.1	SCS215a	20100824.133007	20100824.134927	8	0.013328	60	10	60-180	60	120	GapExp	0	178	2	3	1	target	1	1706	147	86938	13.328	13.043	13.612
DTProbeTrack02	13	ProbeTrack	12.1	SCS215a	20100824.133007	20100824.134934	8	0.013328	60	10	60-180	60	122	GapExp	0	179	2	3	0	distractor	1	494	753	87691	13.328	13.084	13.566
DTProbeTrack02	13	ProbeTrack	12.1	SCS215a	20100824.133007	20100824.134940	8	0.013328	60	10	60-180	60	81	GapExp	0	180	2	6	1	target	1	534	733	88424	13.328	13.118	13.538
DTProbeTrack02	13	ProbeTrack	12.1	SCS215a	20100824.133007	20100824.134945	8	0.013328	60	10	60-180	60	175	GapExp	0	181	2	9	0	distractor	1	520	740	89164	13.328	12.903	13.759
DTProbeTrack02	13	ProbeTrack	12.1	SCS215a	20100824.133007	20100824.134951	8	0.013328	60	10	60-180	60	149	GapExp	0	182	2	45	0	target	0	507	-1000	88164	13.328	12.921	13.736
DTProbeTrack02	13	ProbeTrack	12.1	SCS215a	20100824.133007	20100824.134958	8	0.013328	60	10	60-180	60	154	GapExp	0	183	2	3	0	target	0	987	-1000	87164	13.328	12.905	13.767
DTProbeTrack02	13	ProbeTrack	12.1	SCS215a	20100824.133007	20100824.135004	8	0.013328	60	10	60-180	60	171	GapExp	0	184	2	6	0	distractor	1	1226	387	87551	13.328	13.306	13.348
DTProbeTrack02	13	ProbeTrack	12.1	SCS215a	20100824.133007	20100824.135011	8	0.013328	60	10	60-180	60	167	GapExp	0	185	2	1	0	distractor	1	547	727	88278	13.328	12.896	13.760
DTProbeTrack02	13	ProbeTrack	12.1	SCS215a	20100824.133007	20100824.135018	8	0.013328	60	10	60-180	60	134	GapExp	0	186	2	1	0	distractor	1	480	760	89038	13.328	13.307	13.348
DTProbeTrack02	13	ProbeTrack	12.1	SCS215a	20100824.133007	20100824.135023	8	0.013328	60	10	60-180	60	110	GapExp	0	187	2	3	0	target	0	667	-1000	88038	13.328	13.113	13.556
DTProbeTrack02	13	ProbeTrack	12.1	SCS215a	20100824.133007	20100824.135029	8	0.013328	60	10	60-180	60	83	GapExp	0	188	2	9	1	distractor	0	813	-1000	87038	13.328	13.109	13.541
DTProbeTrack02	13	ProbeTrack	12.1	SCS215a	20100824.133007	20100824.135034	8	0.013328	60	10	60-180	60	99	GapExp	0	189	2	3	1	target	1	414	793	87831	13.328	12.900	13.752
DTProbeTrack02	13	ProbeTrack	12.1	SCS215a	20100824.133007	20100824.135040	8	0.013328	60	10	60-180	60	146	GapExp	0	190	2	6	0	distractor	1	733	634	88465	13.328	12.843	13.823
DTProbeTrack02	13	ProbeTrack	12.1	SCS215a	20100824.133007	20100824.135046	8	0.013328	60	10	60-180	60	144	GapExp	0	191	2	9	0	distractor	1	1080	460	88925	13.328	12.896	13.765
DTProbeTrack02	13	ProbeTrack	12.1	SCS215a	20100824.133007	20100824.135052	8	0.013328	60	10	60-180	60	89	GapExp	0	192	2	1	1	target	1	574	713	89638	13.328	12.891	13.751
DTProbeTrack02	13	ProbeTrack	12.1	SCS215a	20100824.133007	20100824.135057	8	0.013328	60	10	60-180	60	109	GapExp	0	193	2	9	0	distractor	1	613	694	90332	13.328	12.869	13.781
DTProbeTrack02	13	ProbeTrack	12.1	SCS215a	20100824.133007	20100824.135103	8	0.013328	60	10	60-180	60	168	GapExp	0	194	2	3	0	distractor	1	494	753	91085	13.328	12.883	13.761
DTProbeTrack02	13	ProbeTrack	12.1	SCS215a	20100824.133007	20100824.135109	8	0.013328	60	10	60-180	60	178	GapExp	0	195	2	9	1	target	1	654	673	91758	13.328	12.916	13.754
DTProbeTrack02	13	ProbeTrack	12.1	SCS215a	20100824.133007	20100824.135116	8	0.013328	60	10	60-180	60	71	GapExp	0	196	2	45	1	target	1	653	674	92432	13.328	12.872	13.784
DTProbeTrack02	13	ProbeTrack	12.1	SCS215a	20100824.133007	20100824.135121	8	0.013328	60	10	60-180	60	97	GapExp	0	197	2	3	1	target	1	1826	87	92519	13.328	13.183	13.468
DTProbeTrack02	13	ProbeTrack	12.1	SCS215a	20100824.133007	20100824.135128	8	0.013328	60	10	60-180	60	149	GapExp	0	198	2	6	1	target	1	920	540	93059	13.328	13.308	13.350
DTProbeTrack02	13	ProbeTrack	12.1	SCS215a	20100824.133007	20100824.135134	8	0.013328	60	10	60-180	60	172	GapExp	0	199	2	45	1	target	1	960	520	93579	13.328	12.956	13.693
DTProbeTrack02	13	ProbeTrack	12.1	SCS215a	20100824.133007	20100824.135142	8	0.013328	60	10	60-180	60	111	GapExp	0	200	2	3	1	target	1	574	713	94292	13.328	12.933	13.724
DTProbeTrack02	13	ProbeTrack	12.1	SCS215a	20100824.133007	20100824.135153	8	0.013328	60	10	60-180	60	111	GapExp	0	201	2	3	1	target	1	534	733	95025	13.328	13.069	13.600
DTProbeTrack02	13	ProbeTrack	12.1	SCS215a	20100824.133007	20100824.135159	8	0.013328	60	10	60-180	60	72	GapExp	0	202	2	9	1	target	1	1053	474	95499	13.328	13.047	13.609
DTProbeTrack02	13	ProbeTrack	12.1	SCS215a	20100824.133007	20100824.135204	8	0.013328	60	10	60-180	60	126	GapExp	0	203	2	6	1	target	1	480	760	96259	13.328	12.947	13.630
DTProbeTrack02	13	ProbeTrack	12.1	SCS215a	20100824.133007	20100824.135210	8	0.013328	60	10	60-180	60	135	GapExp	0	204	2	1	0	distractor	1	507	747	97006	13.328	13.308	13.349
DTProbeTrack02	13	ProbeTrack	12.1	SCS215a	20100824.133007	20100824.135216	8	0.013328	60	10	60-180	60	74	GapExp	0	205	2	45	0	distractor	1	574	713	97719	13.328	12.971	13.680
