exp	sub	code	rev	comp	runtime	trialtime	nstim	refreshdur	cuedur	gapdur	gapOnsetRange	durPostProbe	gapOnsetTime	blocktype	prac	trial	ntargets	soa	probeTarget	resp	acc	rt	pts	tpts	meanFrameDur	minFrameDur	maxFrameDur
DTProbeTrack02	15	ProbeTrack	12.1	SCS215a	20101008.101237	20101008.101249	8	0.013328	60	0	60-180	60	120	NoGap	1	1	2	9	1	target	1	1346	327	327	13.328	12.855	13.815
DTProbeTrack02	15	ProbeTrack	12.1	SCS215a	20101008.101237	20101008.101256	8	0.013328	60	0	60-180	60	157	NoGap	1	2	2	1	1	target	1	1227	387	714	13.328	12.909	13.765
DTProbeTrack02	15	ProbeTrack	12.1	SCS215a	20101008.101237	20101008.101302	8	0.013328	60	0	60-180	60	109	NoGap	1	3	2	3	0	distractor	1	1107	447	1161	13.328	13.188	13.471
DTProbeTrack02	15	ProbeTrack	12.1	SCS215a	20101008.101237	20101008.101308	8	0.013328	60	0	60-180	60	143	NoGap	1	4	2	9	0	distractor	1	800	600	1761	13.328	13.310	13.350
DTProbeTrack02	15	ProbeTrack	12.1	SCS215a	20101008.101237	20101008.101314	8	0.013328	60	0	60-180	60	87	NoGap	1	5	2	45	0	distractor	1	773	614	2375	13.378	13.126	26.626
DTProbeTrack02	15	ProbeTrack	12.1	SCS215a	20101008.101237	20101008.101320	8	0.013328	60	0	60-180	60	164	NoGap	1	6	2	1	1	target	1	768	616	2991	13.328	13.104	13.547
DTProbeTrack02	15	ProbeTrack	12.1	SCS215a	20101008.101237	20101008.101327	8	0.013328	60	0	60-180	60	139	NoGap	1	7	2	1	0	distractor	1	813	594	3585	13.328	12.850	13.796
DTProbeTrack02	15	ProbeTrack	12.1	SCS215a	20101008.101237	20101008.101333	8	0.013328	60	0	60-180	60	106	NoGap	1	8	2	6	1	distractor	0	1013	-1000	2585	13.382	12.949	26.655
DTProbeTrack02	15	ProbeTrack	12.1	SCS215a	20101008.101237	20101008.101338	8	0.013328	60	0	60-180	60	67	NoGap	1	9	2	6	1	target	1	720	640	3225	13.328	12.965	13.704
DTProbeTrack02	15	ProbeTrack	12.1	SCS215a	20101008.101237	20101008.101343	8	0.013328	60	0	60-180	60	99	NoGap	1	10	2	6	1	target	1	680	660	3885	13.328	13.002	13.641
DTProbeTrack02	15	ProbeTrack	12.1	SCS215a	20101008.101237	20101008.101349	8	0.013328	60	0	60-180	60	78	NoGap	1	11	2	45	0	distractor	1	667	667	4552	13.328	12.947	13.696
DTProbeTrack02	15	ProbeTrack	12.1	SCS215a	20101008.101237	20101008.101354	8	0.013328	60	0	60-180	60	140	NoGap	1	12	2	6	1	target	1	560	720	5272	13.328	13.112	13.544
DTProbeTrack02	15	ProbeTrack	12.1	SCS215a	20101008.101237	20101008.101400	8	0.013328	60	0	60-180	60	162	NoGap	1	13	2	45	1	target	1	680	660	5932	13.368	13.103	26.650
DTProbeTrack02	15	ProbeTrack	12.1	SCS215a	20101008.101237	20101008.101407	8	0.013328	60	0	60-180	60	92	NoGap	1	14	2	3	1	target	1	607	697	6629	13.328	13.121	13.546
DTProbeTrack02	15	ProbeTrack	12.1	SCS215a	20101008.101237	20101008.101412	8	0.013328	60	0	60-180	60	79	NoGap	1	15	2	45	0	distractor	1	880	560	7189	13.328	13.306	13.350
DTProbeTrack02	15	ProbeTrack	12.1	SCS215a	20101008.101237	20101008.101418	8	0.013328	60	0	60-180	60	126	NoGap	1	16	2	3	0	distractor	1	1080	460	7649	13.378	12.897	26.659
DTProbeTrack02	15	ProbeTrack	12.1	SCS215a	20101008.101237	20101008.101424	8	0.013328	60	0	60-180	60	175	NoGap	1	17	2	45	0	distractor	1	733	634	8283	13.328	12.892	13.757
DTProbeTrack02	15	ProbeTrack	12.1	SCS215a	20101008.101237	20101008.101431	8	0.013328	60	0	60-180	60	74	NoGap	1	18	2	3	1	target	1	654	673	8956	13.328	12.930	13.729
DTProbeTrack02	15	ProbeTrack	12.1	SCS215a	20101008.101237	20101008.101436	8	0.013328	60	0	60-180	60	122	NoGap	1	19	2	9	0	distractor	1	773	614	9570	13.328	12.943	13.722
DTProbeTrack02	15	ProbeTrack	12.1	SCS215a	20101008.101237	20101008.101442	8	0.013328	60	0	60-180	60	87	NoGap	1	20	2	6	0	distractor	1	694	653	10223	13.388	13.307	26.639
DTProbeTrack02	15	ProbeTrack	12.1	SCS215a	20101008.101237	20101008.101447	8	0.013328	60	0	60-180	60	134	NoGap	1	21	2	1	0	distractor	1	614	693	10916	13.328	12.898	13.765
DTProbeTrack02	15	ProbeTrack	12.1	SCS215a	20101008.101237	20101008.101453	8	0.013328	60	0	60-180	60	149	NoGap	1	22	2	9	1	target	1	827	587	11503	13.511	12.871	27.036
DTProbeTrack02	15	ProbeTrack	12.1	SCS215a	20101008.101237	20101008.101459	8	0.013328	60	0	60-180	60	116	NoGap	1	23	2	3	1	target	1	614	693	12196	13.383	12.894	26.644
DTProbeTrack02	15	ProbeTrack	12.1	SCS215a	20101008.101237	20101008.101505	8	0.013328	60	0	60-180	60	127	NoGap	1	24	2	1	1	target	1	560	720	12916	13.652	12.871	27.105
DTProbeTrack02	15	ProbeTrack	12.1	SCS215a	20101008.101237	20101008.101510	8	0.013328	60	0	60-180	60	150	NoGap	1	25	2	1	1	target	1	640	680	13596	13.522	12.864	27.115
DTProbeTrack02	15	ProbeTrack	12.1	SCS215a	20101008.101237	20101008.101516	8	0.013328	60	0	60-180	60	90	NoGap	1	26	2	9	1	target	1	522	739	14335	13.581	12.946	40.435
DTProbeTrack02	15	ProbeTrack	12.1	SCS215a	20101008.101237	20101008.101521	8	0.013328	60	0	60-180	60	92	NoGap	1	27	2	9	0	distractor	1	627	687	15022	13.447	12.922	26.659
DTProbeTrack02	15	ProbeTrack	12.1	SCS215a	20101008.101237	20101008.101527	8	0.013328	60	0	60-180	60	171	NoGap	1	28	2	9	1	target	1	534	733	15755	13.328	12.936	13.724
DTProbeTrack02	15	ProbeTrack	12.1	SCS215a	20101008.101237	20101008.101533	8	0.013328	60	0	60-180	60	87	NoGap	1	29	2	45	1	target	1	640	680	16435	13.431	12.927	26.665
DTProbeTrack02	15	ProbeTrack	12.1	SCS215a	20101008.101237	20101008.101539	8	0.013328	60	0	60-180	60	179	NoGap	1	30	2	45	1	target	1	494	753	17188	13.328	12.867	13.768
DTProbeTrack02	15	ProbeTrack	12.1	SCS215a	20101008.101237	20101008.101546	8	0.013328	60	0	60-180	60	178	NoGap	1	31	2	1	0	distractor	1	774	613	17801	13.328	12.857	13.747
DTProbeTrack02	15	ProbeTrack	12.1	SCS215a	20101008.101237	20101008.101552	8	0.013328	60	0	60-180	60	165	NoGap	1	32	2	3	1	target	1	1346	327	18128	13.328	13.038	13.617
DTProbeTrack02	15	ProbeTrack	12.1	SCS215a	20101008.101237	20101008.101559	8	0.013328	60	0	60-180	60	132	NoGap	1	33	2	9	0	distractor	1	547	727	18855	13.379	12.929	27.064
DTProbeTrack02	15	ProbeTrack	12.1	SCS215a	20101008.101237	20101008.101605	8	0.013328	60	0	60-180	60	171	NoGap	1	34	2	3	0	distractor	1	600	700	19555	13.418	12.866	27.114
DTProbeTrack02	15	ProbeTrack	12.1	SCS215a	20101008.101237	20101008.101611	8	0.013328	60	0	60-180	60	162	NoGap	1	35	2	3	0	distractor	1	1147	427	19982	13.328	12.869	13.794
DTProbeTrack02	15	ProbeTrack	12.1	SCS215a	20101008.101237	20101008.101618	8	0.013328	60	0	60-180	60	160	NoGap	1	36	2	6	0	distractor	1	1306	347	20329	13.859	12.867	119.981
DTProbeTrack02	15	ProbeTrack	12.1	SCS215a	20101008.101237	20101008.101625	8	0.013328	60	0	60-180	60	161	NoGap	1	37	2	6	0	target	0	1031	-1000	19329	13.592	12.865	27.093
DTProbeTrack02	15	ProbeTrack	12.1	SCS215a	20101008.101237	20101008.101632	8	0.013328	60	0	60-180	60	77	NoGap	1	38	2	6	0	distractor	1	1520	240	19569	13.328	12.958	13.692
DTProbeTrack02	15	ProbeTrack	12.1	SCS215a	20101008.101237	20101008.101637	8	0.013328	60	0	60-180	60	103	NoGap	1	39	2	1	0	distractor	1	1040	480	20049	13.328	13.105	13.550
DTProbeTrack02	15	ProbeTrack	12.1	SCS215a	20101008.101237	20101008.101643	8	0.013328	60	0	60-180	60	109	NoGap	1	40	2	45	1	distractor	0	667	-1000	19049	14.324	12.842	120.198
DTProbeTrack02	15	ProbeTrack	12.1	SCS215a	20101008.101730	20101008.101735	8	0.013328	60	10	60-180	60	141	GapPrac	1	1	2	6	1	target	1	920	540	19589	13.328	12.894	13.771
DTProbeTrack02	15	ProbeTrack	12.1	SCS215a	20101008.101730	20101008.101741	8	0.013328	60	10	60-180	60	118	GapPrac	1	2	2	3	0	target	0	1400	-1000	18589	13.378	13.018	26.659
DTProbeTrack02	15	ProbeTrack	12.1	SCS215a	20101008.101730	20101008.101748	8	0.013328	60	10	60-180	60	155	GapPrac	1	3	2	1	1	target	1	3372	0	18589	13.372	12.864	26.651
DTProbeTrack02	15	ProbeTrack	12.1	SCS215a	20101008.101730	20101008.101757	8	0.013328	60	10	60-180	60	148	GapPrac	1	4	2	1	0	distractor	1	1067	467	19056	13.418	12.900	27.098
DTProbeTrack02	15	ProbeTrack	12.1	SCS215a	20101008.101730	20101008.101803	8	0.013328	60	10	60-180	60	69	GapPrac	1	5	2	6	1	distractor	0	1293	-1000	18056	13.509	12.858	27.136
DTProbeTrack02	15	ProbeTrack	12.1	SCS215a	20101008.101730	20101008.101809	8	0.013328	60	10	60-180	60	109	GapPrac	1	6	2	6	0	distractor	1	1000	500	18556	13.328	12.944	13.724
DTProbeTrack02	15	ProbeTrack	12.1	SCS215a	20101008.101730	20101008.101815	8	0.013328	60	10	60-180	60	151	GapPrac	1	7	2	3	1	distractor	0	853	-1000	17556	13.372	12.848	26.647
DTProbeTrack02	15	ProbeTrack	12.1	SCS215a	20101008.101730	20101008.101821	8	0.013328	60	10	60-180	60	165	GapPrac	1	8	2	6	0	target	0	947	-1000	16556	13.370	12.927	27.055
DTProbeTrack02	15	ProbeTrack	12.1	SCS215a	20101008.101730	20101008.101828	8	0.013328	60	10	60-180	60	166	GapPrac	1	9	2	45	1	distractor	0	853	-1000	15556	13.365	12.890	26.644
DTProbeTrack02	15	ProbeTrack	12.1	SCS215a	20101008.101730	20101008.101835	8	0.013328	60	10	60-180	60	148	GapPrac	1	10	2	1	0	distractor	1	1653	174	15730	13.328	12.874	13.791
DTProbeTrack02	15	ProbeTrack	12.1	SCS215a	20101008.101730	20101008.101842	8	0.013328	60	10	60-180	60	78	GapPrac	1	11	2	9	0	distractor	1	1466	267	15997	13.385	13.092	26.656
DTProbeTrack02	15	ProbeTrack	12.1	SCS215a	20101008.101730	20101008.101848	8	0.013328	60	10	60-180	60	65	GapPrac	1	12	2	3	0	distractor	1	1680	160	16157	13.328	13.302	13.348
DTProbeTrack02	15	ProbeTrack	12.1	SCS215a	20101008.101730	20101008.101855	8	0.013328	60	10	60-180	60	161	GapPrac	1	13	2	1	1	target	1	1000	500	16657	13.371	12.956	26.928
DTProbeTrack02	15	ProbeTrack	12.1	SCS215a	20101008.101730	20101008.101901	8	0.013328	60	10	60-180	60	152	GapPrac	1	14	2	9	1	target	1	933	534	17191	13.328	12.890	13.762
DTProbeTrack02	15	ProbeTrack	12.1	SCS215a	20101008.101730	20101008.101908	8	0.013328	60	10	60-180	60	71	GapPrac	1	15	2	9	1	distractor	0	1413	-1000	16191	13.387	12.866	26.660
DTProbeTrack02	15	ProbeTrack	12.1	SCS215a	20101008.101730	20101008.101914	8	0.013328	60	10	60-180	60	179	GapPrac	1	16	2	45	0	target	0	760	-1000	15191	13.400	12.923	27.100
DTProbeTrack02	15	ProbeTrack	12.1	SCS215a	20101008.101730	20101008.101921	8	0.013328	60	10	60-180	60	158	GapPrac	1	17	2	3	1	target	1	507	747	15938	13.374	12.967	26.663
DTProbeTrack02	15	ProbeTrack	12.1	SCS215a	20101008.101730	20101008.101927	8	0.013328	60	10	60-180	60	129	GapPrac	1	18	2	9	0	distractor	1	813	594	16532	13.422	13.030	26.648
DTProbeTrack02	15	ProbeTrack	12.1	SCS215a	20101008.101730	20101008.101933	8	0.013328	60	10	60-180	60	70	GapPrac	1	19	2	45	0	target	0	1107	-1000	15532	13.584	12.861	39.956
DTProbeTrack02	15	ProbeTrack	12.1	SCS215a	20101008.101730	20101008.101939	8	0.013328	60	10	60-180	60	90	GapPrac	1	20	2	45	1	target	1	1253	374	15906	13.566	12.851	27.000
DTProbeTrack02	15	ProbeTrack	12.1	SCS215a	20101008.102244	20101008.102255	8	0.013323	60	10	60-180	60	68	GapPrac	1	1	2	1	1	186	-3	825	-1000	14906	14.573	12.868	40.325
DTProbeTrack02	15	ProbeTrack	12.1	SCS215a	20101008.102244	20101008.102300	8	0.013323	60	10	60-180	60	123	GapPrac	1	2	2	9	1	distractor	0	560	-1000	13906	13.586	12.859	27.142
DTProbeTrack02	15	ProbeTrack	12.1	SCS215a	20101008.102244	20101008.102306	8	0.013323	60	10	60-180	60	157	GapPrac	1	3	2	1	1	target	1	574	713	14619	13.328	12.860	13.792
DTProbeTrack02	15	ProbeTrack	12.1	SCS215a	20101008.102244	20101008.102312	8	0.013323	60	10	60-180	60	131	GapPrac	1	4	2	9	0	distractor	1	800	600	15219	13.515	13.194	26.780
DTProbeTrack02	15	ProbeTrack	12.1	SCS215a	20101008.102244	20101008.102318	8	0.013323	60	10	60-180	60	68	GapPrac	1	5	2	9	1	target	1	880	560	15779	13.328	12.933	13.707
DTProbeTrack02	15	ProbeTrack	12.1	SCS215a	20101008.102244	20101008.102324	8	0.013323	60	10	60-180	60	134	GapPrac	1	6	2	6	1	distractor	0	1187	-1000	14779	13.373	12.860	27.133
DTProbeTrack02	15	ProbeTrack	12.1	SCS215a	20101008.102244	20101008.102330	8	0.013323	60	10	60-180	60	95	GapPrac	1	7	2	9	0	target	0	907	-1000	13779	13.381	12.853	26.664
DTProbeTrack02	15	ProbeTrack	12.1	SCS215a	20101008.102244	20101008.102336	8	0.013323	60	10	60-180	60	136	GapPrac	1	8	2	6	1	distractor	0	-13	-1000	12779	13.387	13.018	26.670
DTProbeTrack02	15	ProbeTrack	12.1	SCS215a	20101008.102244	20101008.102341	8	0.013323	60	10	60-180	60	69	GapPrac	1	9	2	3	0	target	0	147	-1000	11779	13.328	13.307	13.349
DTProbeTrack02	15	ProbeTrack	12.1	SCS215a	20101008.102244	20101008.102346	8	0.013323	60	10	60-180	60	104	GapPrac	1	10	2	6	0	target	0	3412	-1000	10779	13.328	12.844	13.806
DTProbeTrack02	15	ProbeTrack	12.1	SCS215a	20101008.102244	20101008.102354	8	0.013323	60	10	60-180	60	163	GapPrac	1	11	2	1	0	distractor	1	640	680	11459	13.372	12.923	26.664
DTProbeTrack02	15	ProbeTrack	12.1	SCS215a	20101008.102244	20101008.102400	8	0.013323	60	10	60-180	60	119	GapPrac	1	12	2	3	1	target	1	1773	114	11573	13.328	12.902	13.761
DTProbeTrack02	15	ProbeTrack	12.1	SCS215a	20101008.102244	20101008.102407	8	0.013323	60	10	60-180	60	81	GapPrac	1	13	2	45	0	distractor	1	853	574	12147	13.328	12.933	13.715
DTProbeTrack02	15	ProbeTrack	12.1	SCS215a	20101008.102244	20101008.102413	8	0.013323	60	10	60-180	60	174	GapPrac	1	14	2	45	1	target	1	2839	0	12147	13.364	13.035	26.938
DTProbeTrack02	15	ProbeTrack	12.1	SCS215a	20101008.102244	20101008.102422	8	0.013323	60	10	60-180	60	137	GapPrac	1	15	2	45	1	distractor	0	1346	-1000	11147	13.328	12.879	13.802
DTProbeTrack02	15	ProbeTrack	12.1	SCS215a	20101008.102244	20101008.102430	8	0.013323	60	10	60-180	60	94	GapPrac	1	16	2	45	0	target	0	627	-1000	10147	13.377	12.849	26.638
DTProbeTrack02	15	ProbeTrack	12.1	SCS215a	20101008.102244	20101008.102436	8	0.013323	60	10	60-180	60	138	GapPrac	1	17	2	6	0	distractor	1	1161	420	10567	13.651	12.868	27.121
DTProbeTrack02	15	ProbeTrack	12.1	SCS215a	20101008.102244	20101008.102442	8	0.013323	60	10	60-180	60	61	GapPrac	1	18	2	3	1	target	1	680	660	11227	13.596	12.846	27.132
DTProbeTrack02	15	ProbeTrack	12.1	SCS215a	20101008.102244	20101008.102447	8	0.013323	60	10	60-180	60	167	GapPrac	1	19	2	3	0	distractor	1	1187	407	11634	13.497	12.855	26.885
DTProbeTrack02	15	ProbeTrack	12.1	SCS215a	20101008.102244	20101008.102454	8	0.013323	60	10	60-180	60	137	GapPrac	1	20	2	1	0	target	0	800	-1000	10634	13.375	13.043	26.650
DTProbeTrack02	15	ProbeTrack	12.1	SCS215a	20101008.102553	20101008.102602	8	0.013327	60	10	60-180	60	176	GapExp	1	1	2	45	0	distractor	1	760	620	11254	13.364	12.850	26.673
DTProbeTrack02	15	ProbeTrack	12.1	SCS215a	20101008.102553	20101008.102610	8	0.013327	60	10	60-180	60	107	GapExp	1	2	2	6	1	target	1	1107	447	11701	13.431	13.227	26.766
DTProbeTrack02	15	ProbeTrack	12.1	SCS215a	20101008.102553	20101008.102616	8	0.013327	60	10	60-180	60	127	GapExp	1	3	2	1	0	distractor	1	840	580	12281	13.877	12.863	159.937
DTProbeTrack02	15	ProbeTrack	12.1	SCS215a	20101008.102553	20101008.102622	8	0.013327	60	10	60-180	60	82	GapExp	1	4	2	9	1	target	1	640	680	12961	13.328	12.915	13.743
DTProbeTrack02	15	ProbeTrack	12.1	SCS215a	20101008.102553	20101008.102627	8	0.013327	60	10	60-180	60	174	GapExp	1	5	2	3	1	target	1	560	720	13681	13.371	12.925	26.647
DTProbeTrack02	15	ProbeTrack	12.1	SCS215a	20101008.102553	20101008.102634	8	0.013327	60	10	60-180	60	105	GapExp	0	6	2	3	0	target	0	1000	-1000	12681	13.380	12.851	27.124
DTProbeTrack02	15	ProbeTrack	12.1	SCS215a	20101008.102553	20101008.102639	8	0.013327	60	10	60-180	60	112	GapExp	0	7	2	45	1	distractor	0	760	-1000	11681	13.372	13.011	26.667
DTProbeTrack02	15	ProbeTrack	12.1	SCS215a	20101008.102553	20101008.102646	8	0.013327	60	10	60-180	60	149	GapExp	0	8	2	6	1	target	1	187	907	12588	13.328	12.851	13.823
DTProbeTrack02	15	ProbeTrack	12.1	SCS215a	20101008.102553	20101008.102651	8	0.013327	60	10	60-180	60	86	GapExp	0	9	2	3	1	distractor	0	907	-1000	11588	13.328	13.305	13.349
DTProbeTrack02	15	ProbeTrack	12.1	SCS215a	20101008.102553	20101008.102657	8	0.013327	60	10	60-180	60	90	GapExp	0	10	2	9	0	distractor	1	1440	280	11868	13.328	12.932	13.721
DTProbeTrack02	15	ProbeTrack	12.1	SCS215a	20101008.102553	20101008.102703	8	0.013327	60	10	60-180	60	63	GapExp	0	11	2	3	1	target	1	947	527	12395	13.328	12.872	13.809
DTProbeTrack02	15	ProbeTrack	12.1	SCS215a	20101008.102553	20101008.102708	8	0.013327	60	10	60-180	60	153	GapExp	0	12	2	6	0	distractor	1	853	574	12969	13.415	12.953	26.976
DTProbeTrack02	15	ProbeTrack	12.1	SCS215a	20101008.102553	20101008.102715	8	0.013327	60	10	60-180	60	163	GapExp	0	13	2	9	1	target	1	800	600	13569	13.328	12.980	13.687
DTProbeTrack02	15	ProbeTrack	12.1	SCS215a	20101008.102553	20101008.102721	8	0.013327	60	10	60-180	60	99	GapExp	0	14	2	1	0	distractor	1	880	560	14129	13.382	12.918	26.856
DTProbeTrack02	15	ProbeTrack	12.1	SCS215a	20101008.102553	20101008.102727	8	0.013327	60	10	60-180	60	75	GapExp	0	15	2	6	0	target	0	1386	-1000	13129	13.387	12.876	26.656
DTProbeTrack02	15	ProbeTrack	12.1	SCS215a	20101008.102553	20101008.102733	8	0.013327	60	10	60-180	60	136	GapExp	0	16	2	6	0	distractor	1	600	700	13829	13.328	12.968	13.676
DTProbeTrack02	15	ProbeTrack	12.1	SCS215a	20101008.102553	20101008.102739	8	0.013327	60	10	60-180	60	166	GapExp	0	17	2	6	1	target	1	1067	467	14296	13.412	12.907	26.999
DTProbeTrack02	15	ProbeTrack	12.1	SCS215a	20101008.102553	20101008.102746	8	0.013327	60	10	60-180	60	69	GapExp	0	18	2	6	0	distractor	1	1187	407	14703	13.388	13.305	26.673
DTProbeTrack02	15	ProbeTrack	12.1	SCS215a	20101008.102553	20101008.102752	8	0.013327	60	10	60-180	60	178	GapExp	0	19	2	3	1	distractor	0	787	-1000	13703	13.328	12.875	13.759
DTProbeTrack02	15	ProbeTrack	12.1	SCS215a	20101008.102553	20101008.102758	8	0.013327	60	10	60-180	60	114	GapExp	0	20	2	1	0	target	0	760	-1000	12703	13.328	12.861	13.789
DTProbeTrack02	15	ProbeTrack	12.1	SCS215a	20101008.102553	20101008.102804	8	0.013327	60	10	60-180	60	160	GapExp	0	21	2	45	0	distractor	1	54	973	13676	13.373	12.872	26.658
DTProbeTrack02	15	ProbeTrack	12.1	SCS215a	20101008.102553	20101008.102810	8	0.013327	60	10	60-180	60	168	GapExp	0	22	2	45	0	distractor	1	853	574	14250	13.365	13.048	26.646
DTProbeTrack02	15	ProbeTrack	12.1	SCS215a	20101008.102553	20101008.102817	8	0.013327	60	10	60-180	60	119	GapExp	0	23	2	45	1	distractor	0	1013	-1000	13250	13.328	12.906	13.740
DTProbeTrack02	15	ProbeTrack	12.1	SCS215a	20101008.102553	20101008.102824	8	0.013327	60	10	60-180	60	68	GapExp	0	24	2	1	1	target	1	1306	347	13597	13.328	13.050	13.582
DTProbeTrack02	15	ProbeTrack	12.1	SCS215a	20101008.102553	20101008.102830	8	0.013327	60	10	60-180	60	104	GapExp	0	25	2	45	1	distractor	0	1560	-1000	12597	13.328	12.883	13.776
DTProbeTrack02	15	ProbeTrack	12.1	SCS215a	20101008.102553	20101008.102837	8	0.013327	60	10	60-180	60	119	GapExp	0	26	2	1	0	target	0	1293	-1000	11597	13.378	12.864	26.655
DTProbeTrack02	15	ProbeTrack	12.1	SCS215a	20101008.102553	20101008.102843	8	0.013327	60	10	60-180	60	177	GapExp	0	27	2	6	1	target	1	867	567	12164	13.328	12.949	13.727
DTProbeTrack02	15	ProbeTrack	12.1	SCS215a	20101008.102553	20101008.102850	8	0.013327	60	10	60-180	60	141	GapExp	0	28	2	3	1	target	1	1306	347	12511	13.374	12.890	27.089
DTProbeTrack02	15	ProbeTrack	12.1	SCS215a	20101008.102553	20101008.102857	8	0.013327	60	10	60-180	60	96	GapExp	0	29	2	45	1	target	1	587	707	13218	13.377	12.884	26.998
DTProbeTrack02	15	ProbeTrack	12.1	SCS215a	20101008.102553	20101008.102902	8	0.013327	60	10	60-180	60	117	GapExp	0	30	2	6	0	target	0	1813	-1000	12218	13.378	12.853	27.081
DTProbeTrack02	15	ProbeTrack	12.1	SCS215a	20101008.102553	20101008.102909	8	0.013327	60	10	60-180	60	157	GapExp	0	31	2	9	1	target	1	693	654	12872	13.415	12.945	26.652
DTProbeTrack02	15	ProbeTrack	12.1	SCS215a	20101008.102553	20101008.102916	8	0.013327	60	10	60-180	60	70	GapExp	0	32	2	1	1	target	1	760	620	13492	13.824	12.860	27.114
DTProbeTrack02	15	ProbeTrack	12.1	SCS215a	20101008.102553	20101008.102921	8	0.013327	60	10	60-180	60	175	GapExp	0	33	2	3	1	distractor	0	1147	-1000	12492	13.699	12.869	40.392
DTProbeTrack02	15	ProbeTrack	12.1	SCS215a	20101008.102553	20101008.102928	8	0.013327	60	10	60-180	60	114	GapExp	0	34	2	3	0	distractor	1	1360	320	12812	13.531	12.914	26.996
DTProbeTrack02	15	ProbeTrack	12.1	SCS215a	20101008.102553	20101008.102934	8	0.013327	60	10	60-180	60	154	GapExp	0	35	2	9	0	target	0	1493	-1000	11812	13.328	12.907	13.748
DTProbeTrack02	15	ProbeTrack	12.1	SCS215a	20101008.102553	20101008.102942	8	0.013327	60	10	60-180	60	102	GapExp	0	36	2	3	1	target	1	987	507	12319	13.381	13.113	26.664
DTProbeTrack02	15	ProbeTrack	12.1	SCS215a	20101008.102553	20101008.102947	8	0.013327	60	10	60-180	60	174	GapExp	0	37	2	1	1	target	1	1053	474	12793	13.328	12.850	13.821
DTProbeTrack02	15	ProbeTrack	12.1	SCS215a	20101008.102553	20101008.102954	8	0.013327	60	10	60-180	60	179	GapExp	0	38	2	1	0	target	0	387	-1000	11793	13.328	12.848	13.761
DTProbeTrack02	15	ProbeTrack	12.1	SCS215a	20101008.102553	20101008.103000	8	0.013327	60	10	60-180	60	133	GapExp	0	39	2	6	0	distractor	1	1040	480	12273	13.375	13.025	26.659
DTProbeTrack02	15	ProbeTrack	12.1	SCS215a	20101008.102553	20101008.103007	8	0.013327	60	10	60-180	60	70	GapExp	0	40	2	1	1	target	1	1187	407	12680	13.389	13.196	26.665
DTProbeTrack02	15	ProbeTrack	12.1	SCS215a	20101008.102553	20101008.103012	8	0.013327	60	10	60-180	60	170	GapExp	0	41	2	3	0	target	0	54	-1000	11680	13.328	13.160	13.507
DTProbeTrack02	15	ProbeTrack	12.1	SCS215a	20101008.102553	20101008.103018	8	0.013327	60	10	60-180	60	139	GapExp	0	42	2	9	1	target	1	867	567	12247	13.373	12.910	26.639
DTProbeTrack02	15	ProbeTrack	12.1	SCS215a	20101008.102553	20101008.103024	8	0.013327	60	10	60-180	60	92	GapExp	0	43	2	45	0	target	0	1626	-1000	11247	13.422	12.835	26.684
DTProbeTrack02	15	ProbeTrack	12.1	SCS215a	20101008.102553	20101008.103031	8	0.013327	60	10	60-180	60	72	GapExp	0	44	2	1	1	distractor	0	733	-1000	10247	13.328	13.237	13.406
DTProbeTrack02	15	ProbeTrack	12.1	SCS215a	20101008.102553	20101008.103037	8	0.013327	60	10	60-180	60	93	GapExp	0	45	2	1	0	target	0	880	-1000	9247	13.495	12.842	26.665
DTProbeTrack02	15	ProbeTrack	12.1	SCS215a	20101008.102553	20101008.103042	8	0.013327	60	10	60-180	60	71	GapExp	0	46	2	1	0	distractor	1	869	566	9813	13.389	12.929	26.632
DTProbeTrack02	15	ProbeTrack	12.1	SCS215a	20101008.102553	20101008.103048	8	0.013327	60	10	60-180	60	89	GapExp	0	47	2	1	1	distractor	0	773	-1000	8813	13.328	12.880	13.781
DTProbeTrack02	15	ProbeTrack	12.1	SCS215a	20101008.102553	20101008.103053	8	0.013327	60	10	60-180	60	156	GapExp	0	48	2	6	1	target	1	374	813	9626	13.570	12.857	39.911
DTProbeTrack02	15	ProbeTrack	12.1	SCS215a	20101008.102553	20101008.103059	8	0.013327	60	10	60-180	60	105	GapExp	0	49	2	45	1	target	1	574	713	10339	13.375	12.851	27.003
DTProbeTrack02	15	ProbeTrack	12.1	SCS215a	20101008.102553	20101008.103105	8	0.013327	60	10	60-180	60	172	GapExp	0	50	2	9	1	target	1	560	720	11059	13.542	12.852	40.394
DTProbeTrack02	15	ProbeTrack	12.1	SCS215a	20101008.102553	20101008.103156	8	0.013327	60	10	60-180	60	74	GapExp	0	51	2	45	0	distractor	1	334	833	11892	13.328	13.120	13.537
DTProbeTrack02	15	ProbeTrack	12.1	SCS215a	20101008.102553	20101008.103201	8	0.013327	60	10	60-180	60	164	GapExp	0	52	2	9	1	target	1	534	733	12625	13.417	12.875	26.745
DTProbeTrack02	15	ProbeTrack	12.1	SCS215a	20101008.102553	20101008.103207	8	0.013327	60	10	60-180	60	112	GapExp	0	53	2	45	0	distractor	1	720	640	13265	13.328	13.045	13.613
DTProbeTrack02	15	ProbeTrack	12.1	SCS215a	20101008.102553	20101008.103213	8	0.013327	60	10	60-180	60	145	GapExp	0	54	2	45	0	distractor	1	747	627	13892	13.328	13.045	13.753
DTProbeTrack02	15	ProbeTrack	12.1	SCS215a	20101008.102553	20101008.103220	8	0.013327	60	10	60-180	60	160	GapExp	0	55	2	9	0	distractor	1	1013	494	14386	13.328	12.940	13.702
DTProbeTrack02	15	ProbeTrack	12.1	SCS215a	20101008.102553	20101008.103227	8	0.013327	60	10	60-180	60	68	GapExp	0	56	2	3	0	distractor	1	987	507	14893	13.328	13.122	13.514
DTProbeTrack02	15	ProbeTrack	12.1	SCS215a	20101008.102553	20101008.103232	8	0.013327	60	10	60-180	60	104	GapExp	0	57	2	9	0	distractor	1	707	647	15540	13.328	12.992	13.664
DTProbeTrack02	15	ProbeTrack	12.1	SCS215a	20101008.102553	20101008.103238	8	0.013327	60	10	60-180	60	79	GapExp	0	58	2	1	1	target	1	854	573	16113	14.513	12.921	133.274
DTProbeTrack02	15	ProbeTrack	12.1	SCS215a	20101008.102553	20101008.103244	8	0.013327	60	10	60-180	60	100	GapExp	0	59	2	6	0	distractor	1	813	594	16707	13.647	12.894	27.022
DTProbeTrack02	15	ProbeTrack	12.1	SCS215a	20101008.102553	20101008.103250	8	0.013327	60	10	60-180	60	88	GapExp	0	60	2	45	1	target	1	881	560	17267	16.389	12.839	40.437
DTProbeTrack02	15	ProbeTrack	12.1	SCS215a	20101008.102553	20101008.103256	8	0.013327	60	10	60-180	60	132	GapExp	0	61	2	45	1	distractor	0	853	-1000	16267	15.860	12.853	40.394
DTProbeTrack02	15	ProbeTrack	12.1	SCS215a	20101008.102553	20101008.103304	8	0.013327	60	10	60-180	60	104	GapExp	0	62	2	6	1	target	1	627	687	16954	13.382	12.877	26.888
DTProbeTrack02	15	ProbeTrack	12.1	SCS215a	20101008.102553	20101008.103309	8	0.013327	60	10	60-180	60	152	GapExp	0	63	2	1	0	target	0	654	-1000	15954	14.019	12.899	53.716
DTProbeTrack02	15	ProbeTrack	12.1	SCS215a	20101008.102553	20101008.103316	8	0.013327	60	10	60-180	60	125	GapExp	0	64	2	9	1	target	1	1227	387	16341	13.662	12.846	66.510
DTProbeTrack02	15	ProbeTrack	12.1	SCS215a	20101008.102553	20101008.103322	8	0.013327	60	10	60-180	60	89	GapExp	0	65	2	9	0	distractor	1	2005	0	16341	17.936	12.844	66.639
DTProbeTrack02	15	ProbeTrack	12.1	SCS215a	20101008.102553	20101008.103330	8	0.013327	60	10	60-180	60	148	GapExp	0	66	2	9	1	target	1	783	609	16950	16.534	12.852	53.631
DTProbeTrack02	15	ProbeTrack	12.1	SCS215a	20101008.102553	20101008.103337	8	0.013327	60	10	60-180	60	142	GapExp	0	67	2	3	0	target	0	1720	-1000	15950	13.327	12.899	13.773
DTProbeTrack02	15	ProbeTrack	12.1	SCS215a	20101008.102553	20101008.103344	8	0.013327	60	10	60-180	60	140	GapExp	0	68	2	1	0	distractor	1	733	634	16584	13.469	12.855	26.884
DTProbeTrack02	15	ProbeTrack	12.1	SCS215a	20101008.102553	20101008.103350	8	0.013327	60	10	60-180	60	136	GapExp	0	69	2	6	0	target	0	160	-1000	15584	13.383	13.077	26.685
DTProbeTrack02	15	ProbeTrack	12.1	SCS215a	20101008.102553	20101008.103356	8	0.013327	60	10	60-180	60	103	GapExp	0	70	2	3	1	distractor	0	680	-1000	14584	13.328	12.849	13.806
DTProbeTrack02	15	ProbeTrack	12.1	SCS215a	20101008.102553	20101008.103401	8	0.013327	60	10	60-180	60	80	GapExp	0	71	2	1	0	target	0	2333	-1000	13584	13.446	12.870	27.094
DTProbeTrack02	15	ProbeTrack	12.1	SCS215a	20101008.102553	20101008.103408	8	0.013327	60	10	60-180	60	87	GapExp	0	72	2	3	1	target	1	1000	500	14084	13.838	12.876	27.127
DTProbeTrack02	15	ProbeTrack	12.1	SCS215a	20101008.102553	20101008.103414	8	0.013327	60	10	60-180	60	115	GapExp	0	73	2	45	0	target	0	665	-1000	13084	13.643	12.881	40.173
DTProbeTrack02	15	ProbeTrack	12.1	SCS215a	20101008.102553	20101008.103420	8	0.013327	60	10	60-180	60	101	GapExp	0	74	2	45	0	distractor	1	947	527	13611	13.328	12.882	13.803
DTProbeTrack02	15	ProbeTrack	12.1	SCS215a	20101008.102553	20101008.103427	8	0.013327	60	10	60-180	60	130	GapExp	0	75	2	1	0	distractor	1	760	620	14231	13.328	12.931	13.723
DTProbeTrack02	15	ProbeTrack	12.1	SCS215a	20101008.102553	20101008.103432	8	0.013327	60	10	60-180	60	158	GapExp	0	76	2	9	1	target	1	1120	440	14671	13.328	12.895	13.762
DTProbeTrack02	15	ProbeTrack	12.1	SCS215a	20101008.102553	20101008.103439	8	0.013327	60	10	60-180	60	173	GapExp	0	77	2	9	1	target	1	1107	447	15118	13.370	12.959	26.664
DTProbeTrack02	15	ProbeTrack	12.1	SCS215a	20101008.102553	20101008.103446	8	0.013327	60	10	60-180	60	161	GapExp	0	78	2	3	1	target	1	1107	447	15565	13.371	13.027	26.645
DTProbeTrack02	15	ProbeTrack	12.1	SCS215a	20101008.102553	20101008.103453	8	0.013327	60	10	60-180	60	99	GapExp	0	79	2	6	1	target	1	2546	0	15565	13.328	12.939	13.711
DTProbeTrack02	15	ProbeTrack	12.1	SCS215a	20101008.102553	20101008.103500	8	0.013327	60	10	60-180	60	96	GapExp	0	80	2	6	1	83	-3	1053	-1000	14565	13.328	12.843	13.818
DTProbeTrack02	15	ProbeTrack	12.1	SCS215a	20101008.102553	20101008.103506	8	0.013327	60	10	60-180	60	130	GapExp	0	81	2	9	0	target	0	707	-1000	13565	13.376	13.309	26.663
DTProbeTrack02	15	ProbeTrack	12.1	SCS215a	20101008.102553	20101008.103512	8	0.013327	60	10	60-180	60	90	GapExp	0	82	2	9	1	target	1	640	680	14245	13.328	12.866	13.793
DTProbeTrack02	15	ProbeTrack	12.1	SCS215a	20101008.102553	20101008.103518	8	0.013327	60	10	60-180	60	178	GapExp	0	83	2	6	0	distractor	1	1826	87	14332	14.016	12.887	119.978
DTProbeTrack02	15	ProbeTrack	12.1	SCS215a	20101008.102553	20101008.103525	8	0.013327	60	10	60-180	60	172	GapExp	0	84	2	45	0	target	0	853	-1000	13332	13.328	12.880	13.770
DTProbeTrack02	15	ProbeTrack	12.1	SCS215a	20101008.102553	20101008.103533	8	0.013327	60	10	60-180	60	123	GapExp	0	85	2	6	1	target	1	507	747	14079	13.536	12.872	26.724
DTProbeTrack02	15	ProbeTrack	12.1	SCS215a	20101008.102553	20101008.103538	8	0.013327	60	10	60-180	60	176	GapExp	0	86	2	1	0	target	0	667	-1000	13079	13.370	12.868	26.952
DTProbeTrack02	15	ProbeTrack	12.1	SCS215a	20101008.102553	20101008.103545	8	0.013327	60	10	60-180	60	174	GapExp	0	87	2	45	0	distractor	1	734	633	13712	13.402	12.856	27.138
DTProbeTrack02	15	ProbeTrack	12.1	SCS215a	20101008.102553	20101008.103552	8	0.013327	60	10	60-180	60	135	GapExp	0	88	2	45	0	distractor	1	1000	500	14212	13.328	12.899	13.771
DTProbeTrack02	15	ProbeTrack	12.1	SCS215a	20101008.102553	20101008.103559	8	0.013327	60	10	60-180	60	125	GapExp	0	89	2	1	0	target	0	1560	-1000	13212	13.426	12.940	26.972
DTProbeTrack02	15	ProbeTrack	12.1	SCS215a	20101008.102553	20101008.103605	8	0.013327	60	10	60-180	60	177	GapExp	0	90	2	1	0	distractor	1	1147	427	13639	13.410	12.935	26.703
DTProbeTrack02	15	ProbeTrack	12.1	SCS215a	20101008.102553	20101008.103612	8	0.013327	60	10	60-180	60	121	GapExp	0	91	2	45	1	target	1	1027	487	14126	13.328	12.911	13.627
DTProbeTrack02	15	ProbeTrack	12.1	SCS215a	20101008.102553	20101008.103619	8	0.013327	60	10	60-180	60	87	GapExp	0	92	2	1	0	distractor	1	933	534	14660	13.328	12.895	13.754
DTProbeTrack02	15	ProbeTrack	12.1	SCS215a	20101008.102553	20101008.103625	8	0.013327	60	10	60-180	60	61	GapExp	0	93	2	9	0	target	0	1666	-1000	13660	13.328	12.877	13.801
DTProbeTrack02	15	ProbeTrack	12.1	SCS215a	20101008.102553	20101008.103631	8	0.013327	60	10	60-180	60	173	GapExp	0	94	2	3	1	distractor	0	800	-1000	12660	13.328	12.931	13.733
DTProbeTrack02	15	ProbeTrack	12.1	SCS215a	20101008.102553	20101008.103637	8	0.013327	60	10	60-180	60	84	GapExp	0	95	2	45	1	target	1	773	614	13274	13.376	12.863	26.647
DTProbeTrack02	15	ProbeTrack	12.1	SCS215a	20101008.102553	20101008.103643	8	0.013327	60	10	60-180	60	63	GapExp	0	96	2	3	0	distractor	1	827	587	13861	13.328	13.099	13.574
DTProbeTrack02	15	ProbeTrack	12.1	SCS215a	20101008.102553	20101008.103648	8	0.013327	60	10	60-180	60	91	GapExp	0	97	2	3	1	target	1	1186	407	14268	13.328	12.900	13.753
DTProbeTrack02	15	ProbeTrack	12.1	SCS215a	20101008.102553	20101008.103654	8	0.013327	60	10	60-180	60	173	GapExp	0	98	2	45	1	target	1	1107	447	14715	13.475	12.896	39.975
DTProbeTrack02	15	ProbeTrack	12.1	SCS215a	20101008.102553	20101008.103701	8	0.013327	60	10	60-180	60	146	GapExp	0	99	2	6	1	distractor	0	667	-1000	13715	13.328	12.850	13.812
DTProbeTrack02	15	ProbeTrack	12.1	SCS215a	20101008.102553	20101008.103708	8	0.013327	60	10	60-180	60	67	GapExp	0	100	2	1	1	target	1	720	640	14355	13.328	13.034	13.602
DTProbeTrack02	15	ProbeTrack	12.1	SCS215a	20101008.102553	20101008.103813	8	0.013327	60	10	60-180	60	99	GapExp	0	101	2	45	0	target	0	-13	-1000	13355	13.328	12.990	13.661
DTProbeTrack02	15	ProbeTrack	12.1	SCS215a	20101008.102553	20101008.103818	8	0.013327	60	10	60-180	60	95	GapExp	0	102	2	9	1	target	1	1027	487	13842	13.328	12.843	13.804
DTProbeTrack02	15	ProbeTrack	12.1	SCS215a	20101008.102553	20101008.103824	8	0.013327	60	10	60-180	60	127	GapExp	0	103	2	3	0	distractor	1	707	647	14489	13.377	12.871	26.665
DTProbeTrack02	15	ProbeTrack	12.1	SCS215a	20101008.102553	20101008.103830	8	0.013327	60	10	60-180	60	148	GapExp	0	104	2	6	1	target	1	760	620	15109	13.417	12.928	26.658
DTProbeTrack02	15	ProbeTrack	12.1	SCS215a	20101008.102553	20101008.103836	8	0.013327	60	10	60-180	60	102	GapExp	0	105	2	9	1	distractor	0	734	-1000	14109	13.382	12.854	26.650
DTProbeTrack02	15	ProbeTrack	12.1	SCS215a	20101008.102553	20101008.103842	8	0.013327	60	10	60-180	60	62	GapExp	0	106	2	1	1	target	1	693	654	14763	13.460	12.841	26.687
DTProbeTrack02	15	ProbeTrack	12.1	SCS215a	20101008.102553	20101008.103846	8	0.013327	60	10	60-180	60	105	GapExp	0	107	2	3	0	target	0	534	-1000	13763	13.852	12.859	40.444
DTProbeTrack02	15	ProbeTrack	12.1	SCS215a	20101008.102553	20101008.103852	8	0.013327	60	10	60-180	60	135	GapExp	0	108	2	9	0	distractor	1	1053	474	14237	13.466	12.858	27.141
DTProbeTrack02	15	ProbeTrack	12.1	SCS215a	20101008.102553	20101008.103858	8	0.013327	60	10	60-180	60	125	GapExp	0	109	2	6	0	distractor	1	707	647	14884	13.525	12.862	26.666
DTProbeTrack02	15	ProbeTrack	12.1	SCS215a	20101008.102553	20101008.103904	8	0.013327	60	10	60-180	60	80	GapExp	0	110	2	1	0	target	0	1293	-1000	13884	13.326	12.946	13.713
DTProbeTrack02	15	ProbeTrack	12.1	SCS215a	20101008.102553	20101008.103910	8	0.013327	60	10	60-180	60	62	GapExp	0	111	2	1	0	distractor	1	1253	374	14258	13.520	12.900	26.684
DTProbeTrack02	15	ProbeTrack	12.1	SCS215a	20101008.102553	20101008.103916	8	0.013327	60	10	60-180	60	101	GapExp	0	112	2	6	0	target	0	987	-1000	13258	13.328	12.934	13.730
DTProbeTrack02	15	ProbeTrack	12.1	SCS215a	20101008.102553	20101008.103921	8	0.013327	60	10	60-180	60	123	GapExp	0	113	2	9	0	distractor	1	1013	494	13752	13.329	13.309	13.572
DTProbeTrack02	15	ProbeTrack	12.1	SCS215a	20101008.102553	20101008.103928	8	0.013327	60	10	60-180	60	176	GapExp	0	114	2	6	0	distractor	1	1040	480	14232	13.328	12.940	13.731
DTProbeTrack02	15	ProbeTrack	12.1	SCS215a	20101008.102553	20101008.103935	8	0.013327	60	10	60-180	60	160	GapExp	0	115	2	3	0	target	0	827	-1000	13232	13.328	12.981	13.691
DTProbeTrack02	15	ProbeTrack	12.1	SCS215a	20101008.102553	20101008.103941	8	0.013327	60	10	60-180	60	98	GapExp	0	116	2	1	1	target	1	1386	307	13539	13.328	13.028	13.622
DTProbeTrack02	15	ProbeTrack	12.1	SCS215a	20101008.102553	20101008.103947	8	0.013327	60	10	60-180	60	92	GapExp	0	117	2	9	0	distractor	1	1187	407	13946	13.382	12.976	26.975
DTProbeTrack02	15	ProbeTrack	12.1	SCS215a	20101008.102553	20101008.103953	8	0.013327	60	10	60-180	60	76	GapExp	0	118	2	3	1	target	1	1840	80	14026	13.387	13.010	26.664
DTProbeTrack02	15	ProbeTrack	12.1	SCS215a	20101008.102553	20101008.103959	8	0.013327	60	10	60-180	60	167	GapExp	0	119	2	45	1	distractor	0	3146	-1000	13026	13.477	12.850	26.661
DTProbeTrack02	15	ProbeTrack	12.1	SCS215a	20101008.102553	20101008.104009	8	0.013327	60	10	60-180	60	122	GapExp	0	120	2	3	1	target	1	4052	0	13026	13.527	12.879	27.103
DTProbeTrack02	15	ProbeTrack	12.1	SCS215a	20101008.102553	20101008.104018	8	0.013327	60	10	60-180	60	161	GapExp	0	121	2	9	1	target	1	773	614	13640	13.370	13.104	26.641
DTProbeTrack02	15	ProbeTrack	12.1	SCS215a	20101008.102553	20101008.104025	8	0.013327	60	10	60-180	60	79	GapExp	0	122	2	3	0	target	0	4559	-1000	12640	13.328	12.879	13.766
DTProbeTrack02	15	ProbeTrack	12.1	SCS215a	20101008.102553	20101008.104034	8	0.013327	60	10	60-180	60	152	GapExp	0	123	2	45	1	target	1	1173	414	13054	13.328	12.900	13.762
DTProbeTrack02	15	ProbeTrack	12.1	SCS215a	20101008.102553	20101008.104041	8	0.013327	60	10	60-180	60	95	GapExp	0	124	2	3	1	distractor	0	2439	-1000	12054	13.437	12.938	27.061
DTProbeTrack02	15	ProbeTrack	12.1	SCS215a	20101008.102553	20101008.104048	8	0.013327	60	10	60-180	60	162	GapExp	0	125	2	6	0	target	0	355	-1000	11054	13.328	12.875	13.779
DTProbeTrack02	15	ProbeTrack	12.1	SCS215a	20101008.102553	20101008.104054	8	0.013327	60	10	60-180	60	66	GapExp	0	126	2	9	0	target	0	1267	-1000	10054	13.328	13.112	13.551
DTProbeTrack02	15	ProbeTrack	12.1	SCS215a	20101008.102553	20101008.104100	8	0.013327	60	10	60-180	60	131	GapExp	0	127	2	3	0	distractor	1	707	647	10701	13.328	12.888	13.775
DTProbeTrack02	15	ProbeTrack	12.1	SCS215a	20101008.102553	20101008.104106	8	0.013327	60	10	60-180	60	103	GapExp	0	128	2	6	0	distractor	1	1040	480	11181	13.328	12.953	13.688
DTProbeTrack02	15	ProbeTrack	12.1	SCS215a	20101008.102553	20101008.104112	8	0.013327	60	10	60-180	60	154	GapExp	0	129	2	3	1	distractor	0	1013	-1000	10181	13.372	12.888	26.654
DTProbeTrack02	15	ProbeTrack	12.1	SCS215a	20101008.102553	20101008.104119	8	0.013327	60	10	60-180	60	107	GapExp	0	130	2	3	0	target	0	1080	-1000	9181	13.328	12.879	13.773
DTProbeTrack02	15	ProbeTrack	12.1	SCS215a	20101008.102553	20101008.104125	8	0.013327	60	10	60-180	60	84	GapExp	0	131	2	1	1	target	1	1613	194	9375	13.328	12.956	13.707
DTProbeTrack02	15	ProbeTrack	12.1	SCS215a	20101008.102553	20101008.104131	8	0.013327	60	10	60-180	60	142	GapExp	0	132	2	6	1	target	1	787	607	9982	13.602	12.895	40.411
DTProbeTrack02	15	ProbeTrack	12.1	SCS215a	20101008.102553	20101008.104137	8	0.013327	60	10	60-180	60	173	GapExp	0	133	2	1	1	target	1	1027	487	10469	13.370	12.888	26.643
DTProbeTrack02	15	ProbeTrack	12.1	SCS215a	20101008.102553	20101008.104144	8	0.013327	60	10	60-180	60	131	GapExp	0	134	2	9	1	distractor	0	1373	-1000	9469	13.375	13.006	26.661
DTProbeTrack02	15	ProbeTrack	12.1	SCS215a	20101008.102553	20101008.104151	8	0.013327	60	10	60-180	60	73	GapExp	0	135	2	6	0	target	0	1813	-1000	8469	13.328	12.912	13.764
DTProbeTrack02	15	ProbeTrack	12.1	SCS215a	20101008.102553	20101008.104157	8	0.013327	60	10	60-180	60	118	GapExp	0	136	2	9	1	target	1	973	514	8983	13.328	12.980	13.681
DTProbeTrack02	15	ProbeTrack	12.1	SCS215a	20101008.102553	20101008.104203	8	0.013327	60	10	60-180	60	87	GapExp	0	137	2	1	0	target	0	813	-1000	7983	13.328	12.916	13.752
DTProbeTrack02	15	ProbeTrack	12.1	SCS215a	20101008.102553	20101008.104208	8	0.013327	60	10	60-180	60	68	GapExp	0	138	2	3	0	distractor	1	933	534	8517	13.328	13.089	13.558
DTProbeTrack02	15	ProbeTrack	12.1	SCS215a	20101008.102553	20101008.104214	8	0.013327	60	10	60-180	60	66	GapExp	0	139	2	3	1	distractor	0	1802	-1000	7517	13.390	12.888	27.065
DTProbeTrack02	15	ProbeTrack	12.1	SCS215a	20101008.102553	20101008.104220	8	0.013327	60	10	60-180	60	137	GapExp	0	140	2	1	1	target	1	134	933	8450	13.385	12.872	27.116
DTProbeTrack02	15	ProbeTrack	12.1	SCS215a	20101008.102553	20101008.104225	8	0.013327	60	10	60-180	60	176	GapExp	0	141	2	45	1	target	1	1386	307	8757	13.328	12.892	13.763
DTProbeTrack02	15	ProbeTrack	12.1	SCS215a	20101008.102553	20101008.104233	8	0.013327	60	10	60-180	60	109	GapExp	0	142	2	1	1	target	1	1333	334	9091	13.329	13.165	13.631
DTProbeTrack02	15	ProbeTrack	12.1	SCS215a	20101008.102553	20101008.104239	8	0.013327	60	10	60-180	60	78	GapExp	0	143	2	3	0	target	0	1093	-1000	8091	13.328	12.982	13.678
DTProbeTrack02	15	ProbeTrack	12.1	SCS215a	20101008.102553	20101008.104245	8	0.013327	60	10	60-180	60	105	GapExp	0	144	2	1	1	distractor	0	2466	-1000	7091	13.328	12.886	13.779
DTProbeTrack02	15	ProbeTrack	12.1	SCS215a	20101008.102553	20101008.104252	8	0.013327	60	10	60-180	60	143	GapExp	0	145	2	9	1	target	1	800	600	7691	13.328	12.870	13.777
DTProbeTrack02	15	ProbeTrack	12.1	SCS215a	20101008.102553	20101008.104258	8	0.013327	60	10	60-180	60	74	GapExp	0	146	2	9	0	distractor	1	2359	0	7691	13.386	12.857	27.111
DTProbeTrack02	15	ProbeTrack	12.1	SCS215a	20101008.102553	20101008.104305	8	0.013327	60	10	60-180	60	153	GapExp	0	147	2	45	1	target	1	1426	287	7978	13.367	12.871	26.662
DTProbeTrack02	15	ProbeTrack	12.1	SCS215a	20101008.102553	20101008.104312	8	0.013327	60	10	60-180	60	127	GapExp	0	148	2	3	0	target	0	1426	-1000	6978	13.764	12.892	53.296
DTProbeTrack02	15	ProbeTrack	12.1	SCS215a	20101008.102553	20101008.104319	8	0.013327	60	10	60-180	60	65	GapExp	0	149	2	6	1	distractor	0	2793	-1000	5978	13.945	12.858	39.978
DTProbeTrack02	15	ProbeTrack	12.1	SCS215a	20101008.102553	20101008.104326	8	0.013327	60	10	60-180	60	76	GapExp	0	150	2	1	1	target	1	1225	388	6366	18.733	12.876	66.938
DTProbeTrack02	15	ProbeTrack	12.1	SCS215a	20101008.102553	20101008.104448	8	0.013327	60	10	60-180	60	147	GapExp	0	151	2	3	0	distractor	1	787	607	6973	13.328	12.899	13.750
DTProbeTrack02	15	ProbeTrack	12.1	SCS215a	20101008.102553	20101008.104454	8	0.013327	60	10	60-180	60	179	GapExp	0	152	2	1	1	target	1	760	620	7593	13.986	12.866	146.634
DTProbeTrack02	15	ProbeTrack	12.1	SCS215a	20101008.102553	20101008.104501	8	0.013327	60	10	60-180	60	144	GapExp	0	153	2	9	0	distractor	1	27	987	8580	13.328	12.965	13.707
DTProbeTrack02	15	ProbeTrack	12.1	SCS215a	20101008.102553	20101008.104507	8	0.013327	60	10	60-180	60	139	GapExp	0	154	2	9	0	distractor	1	1413	294	8874	13.419	12.866	26.896
DTProbeTrack02	15	ProbeTrack	12.1	SCS215a	20101008.102553	20101008.104514	8	0.013327	60	10	60-180	60	117	GapExp	0	155	2	6	1	target	1	547	727	9601	13.328	13.111	13.552
DTProbeTrack02	15	ProbeTrack	12.1	SCS215a	20101008.102553	20101008.104519	8	0.013327	60	10	60-180	60	84	GapExp	0	156	2	45	1	target	1	520	740	10341	13.328	13.010	13.637
DTProbeTrack02	15	ProbeTrack	12.1	SCS215a	20101008.102553	20101008.104525	8	0.013327	60	10	60-180	60	175	GapExp	0	157	2	1	1	target	1	5278	0	10341	13.411	12.868	26.665
DTProbeTrack02	15	ProbeTrack	12.1	SCS215a	20101008.102553	20101008.104536	8	0.013327	60	10	60-180	60	67	GapExp	0	158	2	3	1	distractor	0	2426	-1000	9341	13.452	13.308	26.663
DTProbeTrack02	15	ProbeTrack	12.1	SCS215a	20101008.102553	20101008.104543	8	0.013327	60	10	60-180	60	84	GapExp	0	159	2	9	1	target	1	880	560	9901	13.384	13.292	26.673
DTProbeTrack02	15	ProbeTrack	12.1	SCS215a	20101008.102553	20101008.104548	8	0.013327	60	10	60-180	60	169	GapExp	0	160	2	6	1	target	1	933	534	10435	13.369	13.034	26.965
DTProbeTrack02	15	ProbeTrack	12.1	SCS215a	20101008.102553	20101008.104555	8	0.013327	60	10	60-180	60	77	GapExp	0	161	2	9	0	distractor	1	1760	120	10555	13.328	13.097	13.566
DTProbeTrack02	15	ProbeTrack	12.1	SCS215a	20101008.102553	20101008.104602	8	0.013327	60	10	60-180	60	140	GapExp	0	162	2	9	1	distractor	0	933	-1000	9555	13.327	12.868	13.797
DTProbeTrack02	15	ProbeTrack	12.1	SCS215a	20101008.102553	20101008.104608	8	0.013327	60	10	60-180	60	128	GapExp	0	163	2	9	0	target	0	534	-1000	8555	13.378	13.040	26.707
DTProbeTrack02	15	ProbeTrack	12.1	SCS215a	20101008.102553	20101008.104614	8	0.013327	60	10	60-180	60	83	GapExp	0	164	2	45	1	distractor	0	933	-1000	7555	13.425	12.879	26.653
DTProbeTrack02	15	ProbeTrack	12.1	SCS215a	20101008.102553	20101008.104620	8	0.013327	60	10	60-180	60	165	GapExp	0	165	2	45	0	target	0	1133	-1000	6555	13.328	13.050	13.601
DTProbeTrack02	15	ProbeTrack	12.1	SCS215a	20101008.102553	20101008.104627	8	0.013327	60	10	60-180	60	146	GapExp	0	166	2	9	1	distractor	0	840	-1000	5555	13.328	12.903	13.810
DTProbeTrack02	15	ProbeTrack	12.1	SCS215a	20101008.102553	20101008.104634	8	0.013327	60	10	60-180	60	139	GapExp	0	167	2	3	0	distractor	1	717	642	6197	13.375	12.913	26.655
DTProbeTrack02	15	ProbeTrack	12.1	SCS215a	20101008.102553	20101008.104640	8	0.013327	60	10	60-180	60	97	GapExp	0	168	2	45	0	distractor	1	653	674	6871	13.376	13.161	26.654
DTProbeTrack02	15	ProbeTrack	12.1	SCS215a	20101008.102553	20101008.104646	8	0.013327	60	10	60-180	60	108	GapExp	0	169	2	9	0	distractor	1	693	654	7525	13.380	12.856	26.650
DTProbeTrack02	15	ProbeTrack	12.1	SCS215a	20101008.102553	20101008.104651	8	0.013327	60	10	60-180	60	78	GapExp	0	170	2	6	0	distractor	1	1400	300	7825	13.386	13.089	26.885
DTProbeTrack02	15	ProbeTrack	12.1	SCS215a	20101008.102553	20101008.104657	8	0.013327	60	10	60-180	60	68	GapExp	0	171	2	6	1	target	1	640	680	8505	13.328	12.853	13.798
DTProbeTrack02	15	ProbeTrack	12.1	SCS215a	20101008.102553	20101008.104702	8	0.013327	60	10	60-180	60	165	GapExp	0	172	2	1	0	target	0	1773	-1000	7505	13.371	12.878	26.686
DTProbeTrack02	15	ProbeTrack	12.1	SCS215a	20101008.102553	20101008.104710	8	0.013327	60	10	60-180	60	72	GapExp	0	173	2	9	1	target	1	827	587	8092	13.328	13.305	13.350
DTProbeTrack02	15	ProbeTrack	12.1	SCS215a	20101008.102553	20101008.104715	8	0.013327	60	10	60-180	60	77	GapExp	0	174	2	45	0	distractor	1	747	627	8719	13.429	13.297	26.664
DTProbeTrack02	15	ProbeTrack	12.1	SCS215a	20101008.102553	20101008.104721	8	0.013327	60	10	60-180	60	101	GapExp	0	175	2	6	1	target	1	827	587	9306	13.328	12.890	13.770
DTProbeTrack02	15	ProbeTrack	12.1	SCS215a	20101008.102553	20101008.104727	8	0.013327	60	10	60-180	60	89	GapExp	0	176	2	6	1	target	1	653	674	9980	13.386	12.998	26.665
DTProbeTrack02	15	ProbeTrack	12.1	SCS215a	20101008.102553	20101008.104732	8	0.013327	60	10	60-180	60	144	GapExp	0	177	2	1	0	target	0	933	-1000	8980	13.374	12.929	26.660
DTProbeTrack02	15	ProbeTrack	12.1	SCS215a	20101008.102553	20101008.104738	8	0.013327	60	10	60-180	60	161	GapExp	0	178	2	3	0	distractor	1	1546	227	9207	13.371	13.103	26.653
DTProbeTrack02	15	ProbeTrack	12.1	SCS215a	20101008.102553	20101008.104745	8	0.013327	60	10	60-180	60	88	GapExp	0	179	2	6	0	target	0	1520	-1000	8207	13.328	12.860	13.800
DTProbeTrack02	15	ProbeTrack	12.1	SCS215a	20101008.102553	20101008.104752	8	0.013327	60	10	60-180	60	176	GapExp	0	180	2	3	1	distractor	0	773	-1000	7207	13.369	12.973	26.982
DTProbeTrack02	15	ProbeTrack	12.1	SCS215a	20101008.102553	20101008.104758	8	0.013327	60	10	60-180	60	162	GapExp	0	181	2	6	1	target	1	654	673	7880	13.372	12.885	26.658
DTProbeTrack02	15	ProbeTrack	12.1	SCS215a	20101008.102553	20101008.104805	8	0.013327	60	10	60-180	60	157	GapExp	0	182	2	45	1	target	1	480	760	8640	13.328	12.939	13.710
DTProbeTrack02	15	ProbeTrack	12.1	SCS215a	20101008.102553	20101008.104811	8	0.013327	60	10	60-180	60	161	GapExp	0	183	2	45	1	target	1	733	634	9274	13.520	12.855	26.694
DTProbeTrack02	15	ProbeTrack	12.1	SCS215a	20101008.102553	20101008.104818	8	0.013327	60	10	60-180	60	104	GapExp	0	184	2	6	0	target	0	1333	-1000	8274	13.328	12.873	13.781
DTProbeTrack02	15	ProbeTrack	12.1	SCS215a	20101008.102553	20101008.104825	8	0.013327	60	10	60-180	60	169	GapExp	0	185	2	9	0	distractor	1	880	560	8834	13.658	12.837	27.129
DTProbeTrack02	15	ProbeTrack	12.1	SCS215a	20101008.102553	20101008.104831	8	0.013327	60	10	60-180	60	126	GapExp	0	186	2	45	0	target	0	2813	-1000	7834	13.623	12.888	26.854
DTProbeTrack02	15	ProbeTrack	12.1	SCS215a	20101008.102553	20101008.104840	8	0.013327	60	10	60-180	60	168	GapExp	0	187	2	45	1	distractor	0	1213	-1000	6834	13.402	12.864	26.712
DTProbeTrack02	15	ProbeTrack	12.1	SCS215a	20101008.102553	20101008.104848	8	0.013327	60	10	60-180	60	92	GapExp	0	188	2	9	0	target	0	640	-1000	5834	13.384	12.968	27.016
DTProbeTrack02	15	ProbeTrack	12.1	SCS215a	20101008.102553	20101008.104853	8	0.013327	60	10	60-180	60	175	GapExp	0	189	2	9	0	distractor	1	1653	174	6008	13.368	12.864	26.660
DTProbeTrack02	15	ProbeTrack	12.1	SCS215a	20101008.102553	20101008.104901	8	0.013327	60	10	60-180	60	86	GapExp	0	190	2	3	0	target	0	733	-1000	5008	13.328	13.070	13.579
DTProbeTrack02	15	ProbeTrack	12.1	SCS215a	20101008.102553	20101008.104906	8	0.013327	60	10	60-180	60	143	GapExp	0	191	2	6	0	distractor	1	667	667	5675	13.328	12.892	13.595
DTProbeTrack02	15	ProbeTrack	12.1	SCS215a	20101008.102553	20101008.104912	8	0.013327	60	10	60-180	60	168	GapExp	0	192	2	45	0	target	0	507	-1000	4675	13.367	12.870	26.656
DTProbeTrack02	15	ProbeTrack	12.1	SCS215a	20101008.102553	20101008.104919	8	0.013327	60	10	60-180	60	168	GapExp	0	193	2	45	0	target	0	520	-1000	3675	13.367	12.845	27.140
DTProbeTrack02	15	ProbeTrack	12.1	SCS215a	20101008.102553	20101008.104926	8	0.013327	60	10	60-180	60	123	GapExp	0	194	2	1	1	target	1	693	654	4329	13.328	12.967	13.692
DTProbeTrack02	15	ProbeTrack	12.1	SCS215a	20101008.102553	20101008.104932	8	0.013327	60	10	60-180	60	163	GapExp	0	195	2	6	1	distractor	0	827	-1000	3329	13.370	12.854	27.071
DTProbeTrack02	15	ProbeTrack	12.1	SCS215a	20101008.102553	20101008.104938	8	0.013327	60	10	60-180	60	87	GapExp	0	196	2	3	1	target	1	1280	360	3689	13.328	12.881	13.756
DTProbeTrack02	15	ProbeTrack	12.1	SCS215a	20101008.102553	20101008.104944	8	0.013327	60	10	60-180	60	72	GapExp	0	197	2	6	1	target	1	574	713	4402	13.518	12.850	26.686
DTProbeTrack02	15	ProbeTrack	12.1	SCS215a	20101008.102553	20101008.104949	8	0.013327	60	10	60-180	60	171	GapExp	0	198	2	1	1	target	1	427	787	5189	13.328	12.947	13.714
DTProbeTrack02	15	ProbeTrack	12.1	SCS215a	20101008.102553	20101008.104955	8	0.013327	60	10	60-180	60	68	GapExp	0	199	2	45	1	distractor	0	813	-1000	4189	13.379	12.865	27.074
DTProbeTrack02	15	ProbeTrack	12.1	SCS215a	20101008.102553	20101008.105001	8	0.013327	60	10	60-180	60	73	GapExp	0	200	2	3	1	target	1	720	640	4829	13.635	12.854	26.971
DTProbeTrack02	15	ProbeTrack	12.1	SCS215a	20101008.102553	20101008.105048	8	0.013327	60	10	60-180	60	80	GapExp	0	201	2	6	0	target	0	560	-1000	3829	13.514	13.106	39.985
DTProbeTrack02	15	ProbeTrack	12.1	SCS215a	20101008.102553	20101008.105053	8	0.013327	60	10	60-180	60	158	GapExp	0	202	2	3	0	distractor	1	760	620	4449	13.328	12.884	13.771
DTProbeTrack02	15	ProbeTrack	12.1	SCS215a	20101008.102553	20101008.105059	8	0.013327	60	10	60-180	60	170	GapExp	0	203	2	45	0	target	0	507	-1000	3449	13.328	13.109	13.539
DTProbeTrack02	15	ProbeTrack	12.1	SCS215a	20101008.102553	20101008.105106	8	0.013327	60	10	60-180	60	154	GapExp	0	204	2	45	0	distractor	1	867	567	4016	13.444	12.841	53.543
DTProbeTrack02	15	ProbeTrack	12.1	SCS215a	20101008.102553	20101008.105113	8	0.013327	60	10	60-180	60	175	GapExp	0	205	2	1	0	distractor	1	1187	407	4423	13.369	12.997	26.997
