exp	sub	code	rev	comp	runtime	trialtime	nstim	refreshdur	cuedur	gapdur	gapOnsetRange	durPostProbe	gapOnsetTime	blocktype	prac	trial	ntargets	soa	probeTarget	resp	acc	rt	pts	tpts	meanFrameDur	minFrameDur	maxFrameDur
DTProbeTrack02	8	ProbeTrack	12.1	SCS215a	20100823.090325	20100823.090340	8	0.013342	60	0	60-180	60	141	NoGap	1	1	2	3	1	target	1	24004	0	0	13.328	13.293	13.363
DTProbeTrack02	8	ProbeTrack	12.1	SCS215a	20100823.090325	20100823.090409	8	0.013342	60	0	60-180	60	84	NoGap	1	2	2	3	1	target	1	1973	14	14	13.328	13.293	13.363
DTProbeTrack02	8	ProbeTrack	12.1	SCS215a	20100823.090446	20100823.090451	8	0.013328	60	0	60-180	60	129	NoGap	1	1	2	1	1	distractor	0	1520	-1000	-986	13.328	13.310	13.348
DTProbeTrack02	8	ProbeTrack	12.1	SCS215a	20100823.090446	20100823.090457	8	0.013328	60	0	60-180	60	89	NoGap	1	2	2	6	1	target	1	1027	487	-499	13.328	13.090	13.546
DTProbeTrack02	8	ProbeTrack	12.1	SCS215a	20100823.090446	20100823.090503	8	0.013328	60	0	60-180	60	132	NoGap	1	3	2	9	0	distractor	1	987	507	8	13.328	13.088	13.566
DTProbeTrack02	8	ProbeTrack	12.1	SCS215a	20100823.090446	20100823.090509	8	0.013328	60	0	60-180	60	122	NoGap	1	4	2	45	0	distractor	1	987	507	515	13.328	13.307	13.348
DTProbeTrack02	8	ProbeTrack	12.1	SCS215a	20100823.090446	20100823.090516	8	0.013328	60	0	60-180	60	161	NoGap	1	5	2	1	1	target	1	813	594	1109	13.328	13.105	13.543
DTProbeTrack02	8	ProbeTrack	12.1	SCS215a	20100823.090446	20100823.090522	8	0.013328	60	0	60-180	60	130	NoGap	1	6	2	6	0	distractor	1	920	540	1649	13.328	13.111	13.549
DTProbeTrack02	8	ProbeTrack	12.1	SCS215a	20100823.090446	20100823.090528	8	0.013328	60	0	60-180	60	90	NoGap	1	7	2	9	0	distractor	1	600	700	2349	13.328	13.291	13.365
DTProbeTrack02	8	ProbeTrack	12.1	SCS215a	20100823.090446	20100823.090533	8	0.013328	60	0	60-180	60	146	NoGap	1	8	2	1	0	target	0	627	-1000	1349	13.328	12.854	13.769
DTProbeTrack02	8	ProbeTrack	12.1	SCS215a	20100823.090446	20100823.090539	8	0.013328	60	0	60-180	60	126	NoGap	1	9	2	3	0	distractor	1	614	693	2042	13.328	12.934	13.748
DTProbeTrack02	8	ProbeTrack	12.1	SCS215a	20100823.090446	20100823.090545	8	0.013328	60	0	60-180	60	76	NoGap	1	10	2	6	1	distractor	0	494	-1000	1042	13.328	12.900	13.754
DTProbeTrack02	8	ProbeTrack	12.1	SCS215a	20100823.090446	20100823.090550	8	0.013328	60	0	60-180	60	148	NoGap	1	11	2	45	1	distractor	0	694	-1000	42	13.328	13.091	13.551
DTProbeTrack02	8	ProbeTrack	12.1	SCS215a	20100823.090446	20100823.090556	8	0.013328	60	0	60-180	60	96	NoGap	1	12	2	45	0	distractor	1	813	594	636	13.328	13.308	13.348
DTProbeTrack02	8	ProbeTrack	12.1	SCS215a	20100823.090446	20100823.090602	8	0.013328	60	0	60-180	60	120	NoGap	1	13	2	3	1	target	1	534	733	1369	13.383	12.851	26.725
DTProbeTrack02	8	ProbeTrack	12.1	SCS215a	20100823.090446	20100823.090608	8	0.013328	60	0	60-180	60	121	NoGap	1	14	2	1	1	target	1	1000	500	1869	13.328	13.310	13.345
DTProbeTrack02	8	ProbeTrack	12.1	SCS215a	20100823.090446	20100823.090614	8	0.013328	60	0	60-180	60	114	NoGap	1	15	2	6	1	target	1	440	780	2649	13.328	13.103	13.548
DTProbeTrack02	8	ProbeTrack	12.1	SCS215a	20100823.090446	20100823.090619	8	0.013328	60	0	60-180	60	159	NoGap	1	16	2	3	0	distractor	1	600	700	3349	13.328	13.149	13.556
DTProbeTrack02	8	ProbeTrack	12.1	SCS215a	20100823.090446	20100823.090625	8	0.013328	60	0	60-180	60	143	NoGap	1	17	2	45	1	target	1	494	753	4102	13.328	13.098	13.559
DTProbeTrack02	8	ProbeTrack	12.1	SCS215a	20100823.090446	20100823.090632	8	0.013328	60	0	60-180	60	165	NoGap	1	18	2	1	1	target	1	400	800	4902	13.328	12.859	13.806
DTProbeTrack02	8	ProbeTrack	12.1	SCS215a	20100823.090446	20100823.090638	8	0.013328	60	0	60-180	60	132	NoGap	1	19	2	9	1	target	1	494	753	5655	13.328	12.881	13.782
DTProbeTrack02	8	ProbeTrack	12.1	SCS215a	20100823.090446	20100823.090644	8	0.013328	60	0	60-180	60	93	NoGap	1	20	2	45	1	target	1	440	780	6435	13.328	13.306	13.355
DTProbeTrack02	8	ProbeTrack	12.1	SCS215a	20100823.090446	20100823.090649	8	0.013328	60	0	60-180	60	100	NoGap	1	21	2	3	1	target	1	400	800	7235	13.328	13.307	13.347
DTProbeTrack02	8	ProbeTrack	12.1	SCS215a	20100823.090446	20100823.090654	8	0.013328	60	0	60-180	60	133	NoGap	1	22	2	45	1	target	1	707	647	7882	13.328	13.104	13.548
DTProbeTrack02	8	ProbeTrack	12.1	SCS215a	20100823.090446	20100823.090701	8	0.013328	60	0	60-180	60	141	NoGap	1	23	2	3	1	target	1	520	740	8622	13.328	12.875	13.793
DTProbeTrack02	8	ProbeTrack	12.1	SCS215a	20100823.090446	20100823.090707	8	0.013328	60	0	60-180	60	102	NoGap	1	24	2	9	0	distractor	1	693	654	9276	13.328	13.014	13.644
DTProbeTrack02	8	ProbeTrack	12.1	SCS215a	20100823.090446	20100823.090712	8	0.013328	60	0	60-180	60	162	NoGap	1	25	2	6	0	distractor	1	813	594	9870	13.372	13.301	26.676
DTProbeTrack02	8	ProbeTrack	12.1	SCS215a	20100823.090446	20100823.090718	8	0.013328	60	0	60-180	60	172	NoGap	1	26	2	1	0	distractor	1	507	747	10617	13.328	12.858	13.799
DTProbeTrack02	8	ProbeTrack	12.1	SCS215a	20100823.090446	20100823.090725	8	0.013328	60	0	60-180	60	101	NoGap	1	27	2	9	1	target	1	773	614	11231	13.382	13.304	26.643
DTProbeTrack02	8	ProbeTrack	12.1	SCS215a	20100823.090446	20100823.090730	8	0.013328	60	0	60-180	60	149	NoGap	1	28	2	1	0	distractor	1	560	720	11951	13.328	12.934	13.725
DTProbeTrack02	8	ProbeTrack	12.1	SCS215a	20100823.090446	20100823.090736	8	0.013328	60	0	60-180	60	101	NoGap	1	29	2	6	1	target	1	667	667	12618	13.328	12.851	13.809
DTProbeTrack02	8	ProbeTrack	12.1	SCS215a	20100823.090446	20100823.090742	8	0.013328	60	0	60-180	60	164	NoGap	1	30	2	6	0	distractor	1	587	707	13325	13.328	12.944	13.699
DTProbeTrack02	8	ProbeTrack	12.1	SCS215a	20100823.090446	20100823.090748	8	0.013328	60	0	60-180	60	101	NoGap	1	31	2	1	0	distractor	1	693	654	13979	13.328	13.307	13.349
DTProbeTrack02	8	ProbeTrack	12.1	SCS215a	20100823.090446	20100823.090753	8	0.013328	60	0	60-180	60	69	NoGap	1	32	2	45	0	distractor	1	600	700	14679	13.328	12.980	13.679
DTProbeTrack02	8	ProbeTrack	12.1	SCS215a	20100823.090446	20100823.090758	8	0.013328	60	0	60-180	60	110	NoGap	1	33	2	6	0	distractor	1	800	600	15279	13.328	13.003	13.650
DTProbeTrack02	8	ProbeTrack	12.1	SCS215a	20100823.090446	20100823.090804	8	0.013328	60	0	60-180	60	100	NoGap	1	34	2	9	1	target	1	880	560	15839	13.328	13.093	13.549
DTProbeTrack02	8	ProbeTrack	12.1	SCS215a	20100823.090446	20100823.090810	8	0.013328	60	0	60-180	60	74	NoGap	1	35	2	3	1	target	1	653	674	16513	13.328	13.312	13.347
DTProbeTrack02	8	ProbeTrack	12.1	SCS215a	20100823.090446	20100823.090815	8	0.013328	60	0	60-180	60	175	NoGap	1	36	2	3	0	distractor	1	587	707	17220	13.328	13.309	13.348
DTProbeTrack02	8	ProbeTrack	12.1	SCS215a	20100823.090446	20100823.090821	8	0.013328	60	0	60-180	60	88	NoGap	1	37	2	3	0	distractor	1	760	620	17840	13.328	13.308	13.347
DTProbeTrack02	8	ProbeTrack	12.1	SCS215a	20100823.090446	20100823.090826	8	0.013328	60	0	60-180	60	136	NoGap	1	38	2	9	0	target	0	534	-1000	16840	13.328	13.098	13.559
DTProbeTrack02	8	ProbeTrack	12.1	SCS215a	20100823.090446	20100823.090832	8	0.013328	60	0	60-180	60	156	NoGap	1	39	2	45	0	distractor	1	1200	400	17240	13.328	13.307	13.347
DTProbeTrack02	8	ProbeTrack	12.1	SCS215a	20100823.090446	20100823.090839	8	0.013328	60	0	60-180	60	101	NoGap	1	40	2	9	1	target	1	827	587	17827	13.328	12.855	13.816
DTProbeTrack02	8	ProbeTrack	12.1	SCS215a	20100823.090938	20100823.090945	8	0.013328	60	10	60-180	60	166	GapPrac	1	1	2	45	0	distractor	1	5345	0	17827	13.328	13.306	13.351
DTProbeTrack02	8	ProbeTrack	12.1	SCS215a	20100823.090938	20100823.090956	8	0.013328	60	10	60-180	60	126	GapPrac	1	2	2	6	0	distractor	1	1080	460	18287	13.328	12.861	13.788
DTProbeTrack02	8	ProbeTrack	12.1	SCS215a	20100823.090938	20100823.091003	8	0.013328	60	10	60-180	60	146	GapPrac	1	3	2	45	1	target	1	747	627	18914	13.328	12.959	13.698
DTProbeTrack02	8	ProbeTrack	12.1	SCS215a	20100823.090938	20100823.091009	8	0.013328	60	10	60-180	60	89	GapPrac	1	4	2	9	1	target	1	920	540	19454	13.328	12.958	13.699
DTProbeTrack02	8	ProbeTrack	12.1	SCS215a	20100823.090938	20100823.091015	8	0.013328	60	10	60-180	60	153	GapPrac	1	5	2	3	0	distractor	1	800	600	20054	13.328	12.886	13.764
DTProbeTrack02	8	ProbeTrack	12.1	SCS215a	20100823.090938	20100823.091021	8	0.013328	60	10	60-180	60	143	GapPrac	1	6	2	45	0	distractor	1	707	647	20701	13.328	13.309	13.347
DTProbeTrack02	8	ProbeTrack	12.1	SCS215a	20100823.090938	20100823.091028	8	0.013328	60	10	60-180	60	144	GapPrac	1	7	2	45	1	target	1	720	640	21341	13.449	12.830	40.345
DTProbeTrack02	8	ProbeTrack	12.1	SCS215a	20100823.090938	20100823.091035	8	0.013328	60	10	60-180	60	121	GapPrac	1	8	2	9	0	distractor	1	1267	367	21708	13.328	13.294	13.364
DTProbeTrack02	8	ProbeTrack	12.1	SCS215a	20100823.090938	20100823.091041	8	0.013328	60	10	60-180	60	65	GapPrac	1	9	2	6	1	target	1	654	673	22381	13.328	12.885	13.775
DTProbeTrack02	8	ProbeTrack	12.1	SCS215a	20100823.090938	20100823.091046	8	0.013328	60	10	60-180	60	65	GapPrac	1	10	2	1	0	target	0	1400	-1000	21381	13.328	13.296	13.349
DTProbeTrack02	8	ProbeTrack	12.1	SCS215a	20100823.090938	20100823.091052	8	0.013328	60	10	60-180	60	138	GapPrac	1	11	2	9	1	target	1	787	607	21988	13.328	13.099	13.549
DTProbeTrack02	8	ProbeTrack	12.1	SCS215a	20100823.090938	20100823.091058	8	0.013328	60	10	60-180	60	61	GapPrac	1	12	2	6	0	distractor	1	680	660	22648	13.328	12.994	13.666
DTProbeTrack02	8	ProbeTrack	12.1	SCS215a	20100823.090938	20100823.091103	8	0.013328	60	10	60-180	60	144	GapPrac	1	13	2	1	1	target	1	720	640	23288	13.328	13.310	13.347
DTProbeTrack02	8	ProbeTrack	12.1	SCS215a	20100823.090938	20100823.091110	8	0.013328	60	10	60-180	60	112	GapPrac	1	14	2	1	0	distractor	1	1586	207	23495	13.328	13.302	13.353
DTProbeTrack02	8	ProbeTrack	12.1	SCS215a	20100823.090938	20100823.091116	8	0.013328	60	10	60-180	60	107	GapPrac	1	15	2	6	1	target	1	560	720	24215	13.328	13.296	13.373
DTProbeTrack02	8	ProbeTrack	12.1	SCS215a	20100823.090938	20100823.091122	8	0.013328	60	10	60-180	60	157	GapPrac	1	16	2	3	1	target	1	707	647	24862	13.328	13.100	13.558
DTProbeTrack02	8	ProbeTrack	12.1	SCS215a	20100823.090938	20100823.091128	8	0.013328	60	10	60-180	60	98	GapPrac	1	17	2	3	0	distractor	1	1107	447	25309	13.328	13.100	13.549
DTProbeTrack02	8	ProbeTrack	12.1	SCS215a	20100823.090938	20100823.091134	8	0.013328	60	10	60-180	60	111	GapPrac	1	18	2	1	1	target	1	560	720	26029	13.328	13.117	13.544
DTProbeTrack02	8	ProbeTrack	12.1	SCS215a	20100823.090938	20100823.091139	8	0.013328	60	10	60-180	60	90	GapPrac	1	19	2	9	0	distractor	1	614	693	26722	13.328	13.307	13.350
DTProbeTrack02	8	ProbeTrack	12.1	SCS215a	20100823.090938	20100823.091145	8	0.013328	60	10	60-180	60	123	GapPrac	1	20	2	3	1	target	1	693	654	27376	13.328	13.304	13.352
DTProbeTrack02	8	ProbeTrack	12.1	SCS215a	20100823.091447	20100823.091451	8	0.013328	60	10	60-180	60	77	GapPrac	1	1	2	1	1	target	1	693	654	28030	13.389	13.099	26.670
DTProbeTrack02	8	ProbeTrack	12.1	SCS215a	20100823.091447	20100823.091456	8	0.013328	60	10	60-180	60	98	GapPrac	1	2	2	9	0	distractor	1	494	753	28783	13.328	13.302	13.353
DTProbeTrack02	8	ProbeTrack	12.1	SCS215a	20100823.091447	20100823.091501	8	0.013328	60	10	60-180	60	64	GapPrac	1	3	2	45	1	target	1	560	720	29503	13.328	13.309	13.354
DTProbeTrack02	8	ProbeTrack	12.1	SCS215a	20100823.091447	20100823.091507	8	0.013328	60	10	60-180	60	139	GapPrac	1	4	2	3	1	target	1	427	787	30290	13.328	12.895	13.760
DTProbeTrack02	8	ProbeTrack	12.1	SCS215a	20100823.091447	20100823.091513	8	0.013328	60	10	60-180	60	144	GapPrac	1	5	2	6	1	target	1	480	760	31050	13.328	13.272	13.375
DTProbeTrack02	8	ProbeTrack	12.1	SCS215a	20100823.091447	20100823.091519	8	0.013328	60	10	60-180	60	82	GapPrac	1	6	2	1	1	target	1	454	773	31823	13.328	13.090	13.564
DTProbeTrack02	8	ProbeTrack	12.1	SCS215a	20100823.091447	20100823.091523	8	0.013328	60	10	60-180	60	73	GapPrac	1	7	2	9	0	distractor	1	534	733	32556	13.328	13.294	13.362
DTProbeTrack02	8	ProbeTrack	12.1	SCS215a	20100823.091447	20100823.091529	8	0.013328	60	10	60-180	60	130	GapPrac	1	8	2	9	1	target	1	507	747	33303	13.328	13.305	13.353
DTProbeTrack02	8	ProbeTrack	12.1	SCS215a	20100823.091447	20100823.091534	8	0.013328	60	10	60-180	60	76	GapPrac	1	9	2	45	0	distractor	1	893	554	33857	13.328	13.308	13.348
DTProbeTrack02	8	ProbeTrack	12.1	SCS215a	20100823.091447	20100823.091540	8	0.013328	60	10	60-180	60	158	GapPrac	1	10	2	6	1	target	1	454	773	34630	13.328	12.886	13.752
DTProbeTrack02	8	ProbeTrack	12.1	SCS215a	20100823.091447	20100823.091547	8	0.013328	60	10	60-180	60	66	GapPrac	1	11	2	3	0	distractor	1	627	687	35317	13.328	13.308	13.352
DTProbeTrack02	8	ProbeTrack	12.1	SCS215a	20100823.091447	20100823.091551	8	0.013328	60	10	60-180	60	72	GapPrac	1	12	2	3	0	distractor	1	574	713	36030	13.328	13.304	13.350
DTProbeTrack02	8	ProbeTrack	12.1	SCS215a	20100823.091447	20100823.091556	8	0.013328	60	10	60-180	60	84	GapPrac	1	13	2	6	0	distractor	1	693	654	36684	13.328	13.298	13.352
DTProbeTrack02	8	ProbeTrack	12.1	SCS215a	20100823.091447	20100823.091602	8	0.013328	60	10	60-180	60	106	GapPrac	1	14	2	9	1	distractor	0	760	-1000	35684	13.328	13.046	13.636
DTProbeTrack02	8	ProbeTrack	12.1	SCS215a	20100823.091447	20100823.091608	8	0.013328	60	10	60-180	60	154	GapPrac	1	15	2	45	1	target	1	667	667	36351	13.328	13.095	13.569
DTProbeTrack02	8	ProbeTrack	12.1	SCS215a	20100823.091447	20100823.091614	8	0.013328	60	10	60-180	60	125	GapPrac	1	16	2	6	0	distractor	1	574	713	37064	13.328	13.111	13.553
DTProbeTrack02	8	ProbeTrack	12.1	SCS215a	20100823.091447	20100823.091620	8	0.013328	60	10	60-180	60	162	GapPrac	1	17	2	3	1	target	1	587	707	37771	13.328	13.293	13.355
DTProbeTrack02	8	ProbeTrack	12.1	SCS215a	20100823.091447	20100823.091626	8	0.013328	60	10	60-180	60	175	GapPrac	1	18	2	1	0	distractor	1	867	567	38338	13.328	13.106	13.566
DTProbeTrack02	8	ProbeTrack	12.1	SCS215a	20100823.091447	20100823.091633	8	0.013328	60	10	60-180	60	78	GapPrac	1	19	2	1	0	distractor	1	733	634	38972	13.328	13.305	13.349
DTProbeTrack02	8	ProbeTrack	12.1	SCS215a	20100823.091447	20100823.091638	8	0.013328	60	10	60-180	60	86	GapPrac	1	20	2	45	0	target	0	600	-1000	37972	13.328	13.301	13.360
DTProbeTrack02	8	ProbeTrack	12.1	SCS215a	20100823.091740	20100823.091743	8	0.013328	60	10	60-180	60	75	GapExp	1	1	2	45	0	distractor	1	534	733	38705	13.328	13.309	13.354
DTProbeTrack02	8	ProbeTrack	12.1	SCS215a	20100823.091740	20100823.091749	8	0.013328	60	10	60-180	60	148	GapExp	1	2	2	3	0	distractor	1	733	634	39339	13.328	13.306	13.347
DTProbeTrack02	8	ProbeTrack	12.1	SCS215a	20100823.091740	20100823.091755	8	0.013328	60	10	60-180	60	157	GapExp	1	3	2	1	0	distractor	1	520	740	40079	13.328	13.294	13.359
DTProbeTrack02	8	ProbeTrack	12.1	SCS215a	20100823.091740	20100823.091801	8	0.013328	60	10	60-180	60	65	GapExp	1	4	2	45	1	target	1	1013	494	40573	13.328	13.305	13.351
DTProbeTrack02	8	ProbeTrack	12.1	SCS215a	20100823.091740	20100823.091807	8	0.013328	60	10	60-180	60	104	GapExp	1	5	2	1	1	target	1	1520	240	40813	13.328	13.109	13.558
DTProbeTrack02	8	ProbeTrack	12.1	SCS215a	20100823.091740	20100823.091813	8	0.013328	60	10	60-180	60	64	GapExp	0	6	2	3	0	distractor	1	1826	87	40900	13.328	13.100	13.558
DTProbeTrack02	8	ProbeTrack	12.1	SCS215a	20100823.091740	20100823.091820	8	0.013328	60	10	60-180	60	131	GapExp	0	7	2	6	1	target	1	813	594	41494	13.328	13.111	13.540
DTProbeTrack02	8	ProbeTrack	12.1	SCS215a	20100823.091740	20100823.091826	8	0.013328	60	10	60-180	60	99	GapExp	0	8	2	1	0	target	0	534	-1000	40494	13.328	13.225	13.432
DTProbeTrack02	8	ProbeTrack	12.1	SCS215a	20100823.091740	20100823.091831	8	0.013328	60	10	60-180	60	80	GapExp	0	9	2	6	0	target	0	720	-1000	39494	13.328	13.308	13.348
DTProbeTrack02	8	ProbeTrack	12.1	SCS215a	20100823.091740	20100823.091836	8	0.013328	60	10	60-180	60	141	GapExp	0	10	2	9	1	target	1	560	720	40214	13.328	13.299	13.354
DTProbeTrack02	8	ProbeTrack	12.1	SCS215a	20100823.091740	20100823.091842	8	0.013328	60	10	60-180	60	141	GapExp	0	11	2	45	1	target	1	907	547	40761	13.328	13.105	13.545
DTProbeTrack02	8	ProbeTrack	12.1	SCS215a	20100823.091740	20100823.091849	8	0.013328	60	10	60-180	60	158	GapExp	0	12	2	1	0	target	0	653	-1000	39761	13.373	12.959	27.013
DTProbeTrack02	8	ProbeTrack	12.1	SCS215a	20100823.091740	20100823.091856	8	0.013328	60	10	60-180	60	106	GapExp	0	13	2	45	1	target	1	534	733	40494	13.328	13.108	13.558
DTProbeTrack02	8	ProbeTrack	12.1	SCS215a	20100823.091740	20100823.091902	8	0.013328	60	10	60-180	60	125	GapExp	0	14	2	3	0	distractor	1	973	514	41008	13.328	13.108	13.557
DTProbeTrack02	8	ProbeTrack	12.1	SCS215a	20100823.091740	20100823.091908	8	0.013328	60	10	60-180	60	120	GapExp	0	15	2	1	1	target	1	520	740	41748	13.328	13.306	13.347
DTProbeTrack02	8	ProbeTrack	12.1	SCS215a	20100823.091740	20100823.091913	8	0.013328	60	10	60-180	60	75	GapExp	0	16	2	6	0	distractor	1	1440	280	42028	13.446	12.962	27.020
DTProbeTrack02	8	ProbeTrack	12.1	SCS215a	20100823.091740	20100823.091919	8	0.013328	60	10	60-180	60	93	GapExp	0	17	2	1	0	target	0	653	-1000	41028	13.328	13.302	13.350
DTProbeTrack02	8	ProbeTrack	12.1	SCS215a	20100823.091740	20100823.091925	8	0.013328	60	10	60-180	60	104	GapExp	0	18	2	1	1	target	1	893	554	41582	13.328	13.118	13.543
DTProbeTrack02	8	ProbeTrack	12.1	SCS215a	20100823.091740	20100823.091930	8	0.013328	60	10	60-180	60	63	GapExp	0	19	2	9	1	target	1	534	733	42315	13.328	12.971	13.672
DTProbeTrack02	8	ProbeTrack	12.1	SCS215a	20100823.091740	20100823.091935	8	0.013328	60	10	60-180	60	126	GapExp	0	20	2	9	0	distractor	1	614	693	43008	13.328	12.867	13.782
DTProbeTrack02	8	ProbeTrack	12.1	SCS215a	20100823.091740	20100823.091941	8	0.013328	60	10	60-180	60	64	GapExp	0	21	2	3	1	target	1	707	647	43655	13.328	13.307	13.360
DTProbeTrack02	8	ProbeTrack	12.1	SCS215a	20100823.091740	20100823.091946	8	0.013328	60	10	60-180	60	133	GapExp	0	22	2	6	0	distractor	1	707	647	44302	13.328	12.858	13.798
DTProbeTrack02	8	ProbeTrack	12.1	SCS215a	20100823.091740	20100823.091952	8	0.013328	60	10	60-180	60	118	GapExp	0	23	2	9	0	distractor	1	587	707	45009	13.328	13.036	13.620
DTProbeTrack02	8	ProbeTrack	12.1	SCS215a	20100823.091740	20100823.091958	8	0.013328	60	10	60-180	60	168	GapExp	0	24	2	9	1	target	1	680	660	45669	13.328	12.867	13.809
DTProbeTrack02	8	ProbeTrack	12.1	SCS215a	20100823.091740	20100823.092004	8	0.013328	60	10	60-180	60	106	GapExp	0	25	2	9	1	target	1	973	514	46183	13.328	13.093	13.558
DTProbeTrack02	8	ProbeTrack	12.1	SCS215a	20100823.091740	20100823.092010	8	0.013328	60	10	60-180	60	102	GapExp	0	26	2	1	0	distractor	1	654	673	46856	13.328	12.898	13.750
DTProbeTrack02	8	ProbeTrack	12.1	SCS215a	20100823.091740	20100823.092016	8	0.013328	60	10	60-180	60	97	GapExp	0	27	2	1	1	target	1	653	674	47530	13.328	12.998	13.659
DTProbeTrack02	8	ProbeTrack	12.1	SCS215a	20100823.091740	20100823.092021	8	0.013328	60	10	60-180	60	110	GapExp	0	28	2	9	0	target	0	680	-1000	46530	13.380	12.978	26.640
DTProbeTrack02	8	ProbeTrack	12.1	SCS215a	20100823.091740	20100823.092027	8	0.013328	60	10	60-180	60	180	GapExp	0	29	2	3	1	target	1	547	727	47257	13.328	12.900	13.760
DTProbeTrack02	8	ProbeTrack	12.1	SCS215a	20100823.091740	20100823.092033	8	0.013328	60	10	60-180	60	143	GapExp	0	30	2	6	0	distractor	1	693	654	47911	13.328	13.089	13.581
DTProbeTrack02	8	ProbeTrack	12.1	SCS215a	20100823.091740	20100823.092039	8	0.013328	60	10	60-180	60	84	GapExp	0	31	2	6	0	target	0	840	-1000	46911	13.328	12.856	13.815
DTProbeTrack02	8	ProbeTrack	12.1	SCS215a	20100823.091740	20100823.092045	8	0.013328	60	10	60-180	60	75	GapExp	0	32	2	1	0	distractor	1	707	647	47558	13.328	12.870	13.775
DTProbeTrack02	8	ProbeTrack	12.1	SCS215a	20100823.091740	20100823.092050	8	0.013328	60	10	60-180	60	89	GapExp	0	33	2	3	1	target	1	574	713	48271	13.568	12.953	26.758
DTProbeTrack02	8	ProbeTrack	12.1	SCS215a	20100823.091740	20100823.092055	8	0.013328	60	10	60-180	60	177	GapExp	0	34	2	45	1	distractor	0	614	-1000	47271	13.328	12.556	14.098
DTProbeTrack02	8	ProbeTrack	12.1	SCS215a	20100823.091740	20100823.092102	8	0.013328	60	10	60-180	60	121	GapExp	0	35	2	9	0	distractor	1	1560	220	47491	13.328	13.093	13.566
DTProbeTrack02	8	ProbeTrack	12.1	SCS215a	20100823.091740	20100823.092109	8	0.013328	60	10	60-180	60	109	GapExp	0	36	2	6	1	target	1	587	707	48198	13.328	13.086	13.571
DTProbeTrack02	8	ProbeTrack	12.1	SCS215a	20100823.091740	20100823.092115	8	0.013328	60	10	60-180	60	175	GapExp	0	37	2	6	1	target	1	654	673	48871	13.328	12.965	13.677
DTProbeTrack02	8	ProbeTrack	12.1	SCS215a	20100823.091740	20100823.092121	8	0.013328	60	10	60-180	60	104	GapExp	0	38	2	6	0	distractor	1	653	674	49545	13.328	13.020	13.631
DTProbeTrack02	8	ProbeTrack	12.1	SCS215a	20100823.091740	20100823.092127	8	0.013328	60	10	60-180	60	132	GapExp	0	39	2	45	0	distractor	1	627	687	50232	13.328	13.294	13.357
DTProbeTrack02	8	ProbeTrack	12.1	SCS215a	20100823.091740	20100823.092133	8	0.013328	60	10	60-180	60	153	GapExp	0	40	2	1	0	distractor	1	613	694	50926	13.328	13.310	13.346
DTProbeTrack02	8	ProbeTrack	12.1	SCS215a	20100823.091740	20100823.092140	8	0.013328	60	10	60-180	60	177	GapExp	0	41	2	6	0	distractor	1	707	647	51573	13.328	13.308	13.350
DTProbeTrack02	8	ProbeTrack	12.1	SCS215a	20100823.091740	20100823.092146	8	0.013328	60	10	60-180	60	84	GapExp	0	42	2	9	0	distractor	1	720	640	52213	13.328	12.875	13.782
DTProbeTrack02	8	ProbeTrack	12.1	SCS215a	20100823.091740	20100823.092152	8	0.013328	60	10	60-180	60	170	GapExp	0	43	2	6	0	distractor	1	720	640	52853	13.328	13.306	13.357
DTProbeTrack02	8	ProbeTrack	12.1	SCS215a	20100823.091740	20100823.092158	8	0.013328	60	10	60-180	60	140	GapExp	0	44	2	9	1	target	1	787	607	53460	13.328	13.105	13.553
DTProbeTrack02	8	ProbeTrack	12.1	SCS215a	20100823.091740	20100823.092204	8	0.013328	60	10	60-180	60	122	GapExp	0	45	2	9	1	target	1	760	620	54080	13.328	12.981	13.668
DTProbeTrack02	8	ProbeTrack	12.1	SCS215a	20100823.091740	20100823.092210	8	0.013328	60	10	60-180	60	103	GapExp	0	46	2	9	0	target	0	853	-1000	53080	13.328	13.297	13.346
DTProbeTrack02	8	ProbeTrack	12.1	SCS215a	20100823.091740	20100823.092216	8	0.013328	60	10	60-180	60	178	GapExp	0	47	2	3	1	target	1	733	634	53714	13.328	12.909	13.742
DTProbeTrack02	8	ProbeTrack	12.1	SCS215a	20100823.091740	20100823.092223	8	0.013328	60	10	60-180	60	171	GapExp	0	48	2	6	0	distractor	1	600	700	54414	13.328	12.891	13.775
DTProbeTrack02	8	ProbeTrack	12.1	SCS215a	20100823.091740	20100823.092229	8	0.013328	60	10	60-180	60	71	GapExp	0	49	2	45	1	distractor	0	494	-1000	53414	13.328	12.997	13.660
DTProbeTrack02	8	ProbeTrack	12.1	SCS215a	20100823.091740	20100823.092235	8	0.013328	60	10	60-180	60	102	GapExp	0	50	2	3	0	distractor	1	680	660	54074	13.328	13.107	13.552
DTProbeTrack02	8	ProbeTrack	12.1	SCS215a	20100823.091740	20100823.092523	8	0.013328	60	10	60-180	60	172	GapExp	0	51	2	9	0	distractor	1	907	547	54621	13.328	13.008	13.665
DTProbeTrack02	8	ProbeTrack	12.1	SCS215a	20100823.091740	20100823.092529	8	0.013328	60	10	60-180	60	69	GapExp	0	52	2	3	1	target	1	653	674	55295	13.328	13.095	13.561
DTProbeTrack02	8	ProbeTrack	12.1	SCS215a	20100823.091740	20100823.092534	8	0.013328	60	10	60-180	60	174	GapExp	0	53	2	45	0	distractor	1	534	733	56028	13.328	13.106	13.545
DTProbeTrack02	8	ProbeTrack	12.1	SCS215a	20100823.091740	20100823.092541	8	0.013328	60	10	60-180	60	128	GapExp	0	54	2	45	0	distractor	1	600	700	56728	13.328	12.992	13.677
DTProbeTrack02	8	ProbeTrack	12.1	SCS215a	20100823.091740	20100823.092548	8	0.013328	60	10	60-180	60	115	GapExp	0	55	2	3	1	target	1	547	727	57455	13.328	13.020	13.629
DTProbeTrack02	8	ProbeTrack	12.1	SCS215a	20100823.091740	20100823.092553	8	0.013328	60	10	60-180	60	176	GapExp	0	56	2	1	1	target	1	813	594	58049	13.328	12.871	13.787
DTProbeTrack02	8	ProbeTrack	12.1	SCS215a	20100823.091740	20100823.092600	8	0.013328	60	10	60-180	60	118	GapExp	0	57	2	9	1	target	1	1040	480	58529	13.328	13.307	13.349
DTProbeTrack02	8	ProbeTrack	12.1	SCS215a	20100823.091740	20100823.092606	8	0.013328	60	10	60-180	60	173	GapExp	0	58	2	3	0	distractor	1	693	654	59183	13.328	12.933	13.729
DTProbeTrack02	8	ProbeTrack	12.1	SCS215a	20100823.091740	20100823.092613	8	0.013328	60	10	60-180	60	119	GapExp	0	59	2	3	0	target	0	733	-1000	58183	13.328	13.307	13.350
DTProbeTrack02	8	ProbeTrack	12.1	SCS215a	20100823.091740	20100823.092618	8	0.013328	60	10	60-180	60	150	GapExp	0	60	2	9	1	target	1	707	647	58830	13.328	12.967	13.692
DTProbeTrack02	8	ProbeTrack	12.1	SCS215a	20100823.091740	20100823.092625	8	0.013328	60	10	60-180	60	174	GapExp	0	61	2	1	0	target	0	1720	-1000	57830	13.328	13.091	13.559
DTProbeTrack02	8	ProbeTrack	12.1	SCS215a	20100823.091740	20100823.092632	8	0.013328	60	10	60-180	60	163	GapExp	0	62	2	6	0	distractor	1	1093	454	58284	13.328	12.895	13.761
DTProbeTrack02	8	ProbeTrack	12.1	SCS215a	20100823.091740	20100823.092639	8	0.013328	60	10	60-180	60	80	GapExp	0	63	2	45	0	distractor	1	1067	467	58751	13.328	12.868	13.793
DTProbeTrack02	8	ProbeTrack	12.1	SCS215a	20100823.091740	20100823.092645	8	0.013328	60	10	60-180	60	104	GapExp	0	64	2	1	0	distractor	1	760	620	59371	13.328	13.012	13.632
DTProbeTrack02	8	ProbeTrack	12.1	SCS215a	20100823.091740	20100823.092651	8	0.013328	60	10	60-180	60	148	GapExp	0	65	2	45	1	target	1	574	713	60084	13.328	13.307	13.358
DTProbeTrack02	8	ProbeTrack	12.1	SCS215a	20100823.091740	20100823.092658	8	0.013328	60	10	60-180	60	141	GapExp	0	66	2	1	1	target	1	560	720	60804	13.328	12.922	13.738
DTProbeTrack02	8	ProbeTrack	12.1	SCS215a	20100823.091740	20100823.092703	8	0.013328	60	10	60-180	60	108	GapExp	0	67	2	9	0	distractor	1	2213	0	60804	13.328	13.027	13.629
DTProbeTrack02	8	ProbeTrack	12.1	SCS215a	20100823.091740	20100823.092711	8	0.013328	60	10	60-180	60	180	GapExp	0	68	2	9	1	target	1	427	787	61591	13.371	12.901	26.613
DTProbeTrack02	8	ProbeTrack	12.1	SCS215a	20100823.091740	20100823.092717	8	0.013328	60	10	60-180	60	77	GapExp	0	69	2	3	0	distractor	1	867	567	62158	13.328	13.310	13.352
DTProbeTrack02	8	ProbeTrack	12.1	SCS215a	20100823.091740	20100823.092723	8	0.013328	60	10	60-180	60	62	GapExp	0	70	2	45	0	distractor	1	867	567	62725	13.328	13.028	13.628
DTProbeTrack02	8	ProbeTrack	12.1	SCS215a	20100823.091740	20100823.092728	8	0.013328	60	10	60-180	60	73	GapExp	0	71	2	45	0	distractor	1	627	687	63412	13.328	13.306	13.349
DTProbeTrack02	8	ProbeTrack	12.1	SCS215a	20100823.091740	20100823.092734	8	0.013328	60	10	60-180	60	129	GapExp	0	72	2	3	0	distractor	1	747	627	64039	13.328	13.060	13.587
DTProbeTrack02	8	ProbeTrack	12.1	SCS215a	20100823.091740	20100823.092740	8	0.013328	60	10	60-180	60	86	GapExp	0	73	2	3	0	distractor	1	1013	494	64533	13.328	13.313	13.344
DTProbeTrack02	8	ProbeTrack	12.1	SCS215a	20100823.091740	20100823.092746	8	0.013328	60	10	60-180	60	175	GapExp	0	74	2	6	0	distractor	1	600	700	65233	13.328	12.839	13.805
DTProbeTrack02	8	ProbeTrack	12.1	SCS215a	20100823.091740	20100823.092752	8	0.013328	60	10	60-180	60	173	GapExp	0	75	2	45	1	distractor	0	507	-1000	64233	13.328	12.870	13.791
DTProbeTrack02	8	ProbeTrack	12.1	SCS215a	20100823.091740	20100823.092759	8	0.013328	60	10	60-180	60	70	GapExp	0	76	2	45	1	target	1	560	720	64953	13.328	13.303	13.347
DTProbeTrack02	8	ProbeTrack	12.1	SCS215a	20100823.091740	20100823.092805	8	0.013328	60	10	60-180	60	122	GapExp	0	77	2	3	1	target	1	667	667	65620	13.328	12.970	13.668
DTProbeTrack02	8	ProbeTrack	12.1	SCS215a	20100823.091740	20100823.092810	8	0.013328	60	10	60-180	60	120	GapExp	0	78	2	6	1	target	1	640	680	66300	13.328	13.077	13.579
DTProbeTrack02	8	ProbeTrack	12.1	SCS215a	20100823.091740	20100823.092816	8	0.013328	60	10	60-180	60	79	GapExp	0	79	2	3	1	target	1	560	720	67020	13.328	12.918	13.744
DTProbeTrack02	8	ProbeTrack	12.1	SCS215a	20100823.091740	20100823.092821	8	0.013328	60	10	60-180	60	134	GapExp	0	80	2	6	1	target	1	680	660	67680	13.328	13.000	13.651
DTProbeTrack02	8	ProbeTrack	12.1	SCS215a	20100823.091740	20100823.092827	8	0.013328	60	10	60-180	60	174	GapExp	0	81	2	3	0	target	0	427	-1000	66680	13.328	12.858	13.781
DTProbeTrack02	8	ProbeTrack	12.1	SCS215a	20100823.091740	20100823.092833	8	0.013328	60	10	60-180	60	103	GapExp	0	82	2	9	1	distractor	0	454	-1000	65680	13.328	12.981	13.675
DTProbeTrack02	8	ProbeTrack	12.1	SCS215a	20100823.091740	20100823.092839	8	0.013328	60	10	60-180	60	156	GapExp	0	83	2	3	1	target	1	614	693	66373	13.328	13.113	13.544
DTProbeTrack02	8	ProbeTrack	12.1	SCS215a	20100823.091740	20100823.092845	8	0.013328	60	10	60-180	60	170	GapExp	0	84	2	9	1	target	1	693	654	67027	13.705	12.857	40.354
DTProbeTrack02	8	ProbeTrack	12.1	SCS215a	20100823.091740	20100823.092852	8	0.013328	60	10	60-180	60	179	GapExp	0	85	2	3	1	target	1	760	620	67647	13.328	13.097	13.560
DTProbeTrack02	8	ProbeTrack	12.1	SCS215a	20100823.091740	20100823.092858	8	0.013328	60	10	60-180	60	152	GapExp	0	86	2	45	1	target	1	574	713	68360	13.328	12.868	13.798
DTProbeTrack02	8	ProbeTrack	12.1	SCS215a	20100823.091740	20100823.092905	8	0.013328	60	10	60-180	60	166	GapExp	0	87	2	45	1	target	1	547	727	69087	13.328	13.052	13.604
DTProbeTrack02	8	ProbeTrack	12.1	SCS215a	20100823.091740	20100823.092912	8	0.013328	60	10	60-180	60	120	GapExp	0	88	2	45	1	target	1	640	680	69767	13.328	13.112	13.547
DTProbeTrack02	8	ProbeTrack	12.1	SCS215a	20100823.091740	20100823.092918	8	0.013328	60	10	60-180	60	161	GapExp	0	89	2	6	1	target	1	520	740	70507	13.328	13.086	13.555
DTProbeTrack02	8	ProbeTrack	12.1	SCS215a	20100823.091740	20100823.092924	8	0.013328	60	10	60-180	60	92	GapExp	0	90	2	1	1	target	1	693	654	71161	13.328	12.847	13.798
DTProbeTrack02	8	ProbeTrack	12.1	SCS215a	20100823.091740	20100823.092930	8	0.013328	60	10	60-180	60	166	GapExp	0	91	2	3	1	target	1	467	767	71928	13.328	12.933	13.734
DTProbeTrack02	8	ProbeTrack	12.1	SCS215a	20100823.091740	20100823.092936	8	0.013328	60	10	60-180	60	129	GapExp	0	92	2	3	1	target	1	800	600	72528	13.328	13.306	13.344
DTProbeTrack02	8	ProbeTrack	12.1	SCS215a	20100823.091740	20100823.092942	8	0.013328	60	10	60-180	60	85	GapExp	0	93	2	9	1	target	1	1080	460	72988	13.328	13.164	13.497
DTProbeTrack02	8	ProbeTrack	12.1	SCS215a	20100823.091740	20100823.092948	8	0.013328	60	10	60-180	60	101	GapExp	0	94	2	1	1	target	1	1480	260	73248	13.328	13.107	13.549
DTProbeTrack02	8	ProbeTrack	12.1	SCS215a	20100823.091740	20100823.092954	8	0.013328	60	10	60-180	60	89	GapExp	0	95	2	45	1	target	1	693	654	73902	13.328	13.106	13.553
DTProbeTrack02	8	ProbeTrack	12.1	SCS215a	20100823.091740	20100823.093000	8	0.013328	60	10	60-180	60	79	GapExp	0	96	2	3	0	distractor	1	867	567	74469	13.328	13.309	13.349
DTProbeTrack02	8	ProbeTrack	12.1	SCS215a	20100823.091740	20100823.093005	8	0.013328	60	10	60-180	60	152	GapExp	0	97	2	1	1	target	1	640	680	75149	13.328	13.022	13.649
DTProbeTrack02	8	ProbeTrack	12.1	SCS215a	20100823.091740	20100823.093012	8	0.013328	60	10	60-180	60	71	GapExp	0	98	2	9	1	target	1	534	733	75882	13.328	13.245	13.411
DTProbeTrack02	8	ProbeTrack	12.1	SCS215a	20100823.091740	20100823.093017	8	0.013328	60	10	60-180	60	180	GapExp	0	99	2	6	1	target	1	414	793	76675	13.328	12.915	13.736
DTProbeTrack02	8	ProbeTrack	12.1	SCS215a	20100823.091740	20100823.093023	8	0.013328	60	10	60-180	60	141	GapExp	0	100	2	9	0	distractor	1	693	654	77329	13.328	13.094	13.548
DTProbeTrack02	8	ProbeTrack	12.1	SCS215a	20100823.091740	20100823.093109	8	0.013328	60	10	60-180	60	73	GapExp	0	101	2	9	1	target	1	560	720	78049	13.328	13.309	13.345
DTProbeTrack02	8	ProbeTrack	12.1	SCS215a	20100823.091740	20100823.093114	8	0.013328	60	10	60-180	60	108	GapExp	0	102	2	6	1	target	1	454	773	78822	13.328	13.305	13.347
DTProbeTrack02	8	ProbeTrack	12.1	SCS215a	20100823.091740	20100823.093119	8	0.013328	60	10	60-180	60	101	GapExp	0	103	2	6	1	target	1	507	747	79569	13.328	13.309	13.346
DTProbeTrack02	8	ProbeTrack	12.1	SCS215a	20100823.091740	20100823.093125	8	0.013328	60	10	60-180	60	123	GapExp	0	104	2	6	0	distractor	1	467	767	80336	13.328	13.099	13.564
DTProbeTrack02	8	ProbeTrack	12.1	SCS215a	20100823.091740	20100823.093130	8	0.013328	60	10	60-180	60	117	GapExp	0	105	2	6	1	target	1	467	767	81103	13.328	13.305	13.348
DTProbeTrack02	8	ProbeTrack	12.1	SCS215a	20100823.091740	20100823.093136	8	0.013328	60	10	60-180	60	94	GapExp	0	106	2	45	0	distractor	1	827	587	81690	13.375	12.872	26.750
DTProbeTrack02	8	ProbeTrack	12.1	SCS215a	20100823.091740	20100823.093142	8	0.013328	60	10	60-180	60	132	GapExp	0	107	2	9	0	distractor	1	893	554	82244	13.328	13.062	13.590
DTProbeTrack02	8	ProbeTrack	12.1	SCS215a	20100823.091740	20100823.093148	8	0.013328	60	10	60-180	60	97	GapExp	0	108	2	9	0	distractor	1	694	653	82897	13.328	13.308	13.359
DTProbeTrack02	8	ProbeTrack	12.1	SCS215a	20100823.091740	20100823.093154	8	0.013328	60	10	60-180	60	113	GapExp	0	109	2	6	1	target	1	813	594	83491	13.328	13.275	13.385
DTProbeTrack02	8	ProbeTrack	12.1	SCS215a	20100823.091740	20100823.093200	8	0.013328	60	10	60-180	60	180	GapExp	0	110	2	9	0	distractor	1	494	753	84244	13.328	13.088	13.564
DTProbeTrack02	8	ProbeTrack	12.1	SCS215a	20100823.091740	20100823.093206	8	0.013328	60	10	60-180	60	110	GapExp	0	111	2	3	0	distractor	1	1173	414	84658	13.328	12.958	13.699
DTProbeTrack02	8	ProbeTrack	12.1	SCS215a	20100823.091740	20100823.093212	8	0.013328	60	10	60-180	60	105	GapExp	0	112	2	6	1	target	1	747	627	85285	13.328	12.901	13.764
DTProbeTrack02	8	ProbeTrack	12.1	SCS215a	20100823.091740	20100823.093218	8	0.013328	60	10	60-180	60	116	GapExp	0	113	2	1	0	distractor	1	1160	420	85705	13.328	13.054	13.594
DTProbeTrack02	8	ProbeTrack	12.1	SCS215a	20100823.091740	20100823.093224	8	0.013328	60	10	60-180	60	72	GapExp	0	114	2	45	0	distractor	1	987	507	86212	13.328	12.958	13.716
DTProbeTrack02	8	ProbeTrack	12.1	SCS215a	20100823.091740	20100823.093230	8	0.013328	60	10	60-180	60	67	GapExp	0	115	2	3	1	target	1	733	634	86846	13.328	12.884	13.766
DTProbeTrack02	8	ProbeTrack	12.1	SCS215a	20100823.091740	20100823.093235	8	0.013328	60	10	60-180	60	112	GapExp	0	116	2	3	0	distractor	1	574	713	87559	13.328	12.886	13.757
DTProbeTrack02	8	ProbeTrack	12.1	SCS215a	20100823.091740	20100823.093241	8	0.013328	60	10	60-180	60	79	GapExp	0	117	2	45	0	distractor	1	587	707	88266	13.328	13.105	13.552
DTProbeTrack02	8	ProbeTrack	12.1	SCS215a	20100823.091740	20100823.093247	8	0.013328	60	10	60-180	60	102	GapExp	0	118	2	45	1	distractor	0	733	-1000	87266	13.328	12.894	13.756
DTProbeTrack02	8	ProbeTrack	12.1	SCS215a	20100823.091740	20100823.093253	8	0.013328	60	10	60-180	60	148	GapExp	0	119	2	6	0	target	0	1466	-1000	86266	13.328	13.111	13.539
DTProbeTrack02	8	ProbeTrack	12.1	SCS215a	20100823.091740	20100823.093300	8	0.013328	60	10	60-180	60	108	GapExp	0	120	2	6	0	distractor	1	1640	180	86446	13.328	13.125	13.529
DTProbeTrack02	8	ProbeTrack	12.1	SCS215a	20100823.091740	20100823.093306	8	0.013328	60	10	60-180	60	100	GapExp	0	121	2	1	1	target	1	2293	0	86446	13.328	13.119	13.530
DTProbeTrack02	8	ProbeTrack	12.1	SCS215a	20100823.091740	20100823.093313	8	0.013328	60	10	60-180	60	125	GapExp	0	122	2	6	0	distractor	1	1027	487	86933	13.328	12.891	13.757
DTProbeTrack02	8	ProbeTrack	12.1	SCS215a	20100823.091740	20100823.093320	8	0.013328	60	10	60-180	60	64	GapExp	0	123	2	6	1	target	1	973	514	87447	13.328	12.979	13.683
DTProbeTrack02	8	ProbeTrack	12.1	SCS215a	20100823.091740	20100823.093325	8	0.013328	60	10	60-180	60	171	GapExp	0	124	2	9	1	target	1	1107	447	87894	13.328	12.882	13.764
DTProbeTrack02	8	ProbeTrack	12.1	SCS215a	20100823.091740	20100823.093332	8	0.013328	60	10	60-180	60	160	GapExp	0	125	2	3	0	target	0	1426	-1000	86894	13.328	12.941	13.717
DTProbeTrack02	8	ProbeTrack	12.1	SCS215a	20100823.091740	20100823.093339	8	0.013328	60	10	60-180	60	96	GapExp	0	126	2	3	1	target	1	667	667	87561	13.328	12.910	13.735
DTProbeTrack02	8	ProbeTrack	12.1	SCS215a	20100823.091740	20100823.093345	8	0.013328	60	10	60-180	60	165	GapExp	0	127	2	1	1	target	1	560	720	88281	13.328	12.928	13.716
DTProbeTrack02	8	ProbeTrack	12.1	SCS215a	20100823.091740	20100823.093351	8	0.013328	60	10	60-180	60	129	GapExp	0	128	2	6	0	distractor	1	760	620	88901	13.328	12.962	13.701
DTProbeTrack02	8	ProbeTrack	12.1	SCS215a	20100823.091740	20100823.093357	8	0.013328	60	10	60-180	60	72	GapExp	0	129	2	45	0	distractor	1	707	647	89548	13.328	12.939	13.709
DTProbeTrack02	8	ProbeTrack	12.1	SCS215a	20100823.091740	20100823.093403	8	0.013328	60	10	60-180	60	126	GapExp	0	130	2	6	1	target	1	667	667	90215	13.328	13.285	13.366
DTProbeTrack02	8	ProbeTrack	12.1	SCS215a	20100823.091740	20100823.093409	8	0.013328	60	10	60-180	60	174	GapExp	0	131	2	9	0	distractor	1	694	653	90868	13.328	12.898	13.754
DTProbeTrack02	8	ProbeTrack	12.1	SCS215a	20100823.091740	20100823.093415	8	0.013328	60	10	60-180	60	174	GapExp	0	132	2	1	1	target	1	667	667	91535	13.328	13.298	13.355
DTProbeTrack02	8	ProbeTrack	12.1	SCS215a	20100823.091740	20100823.093422	8	0.013328	60	10	60-180	60	110	GapExp	0	133	2	45	1	distractor	0	547	-1000	90535	13.375	12.925	26.844
DTProbeTrack02	8	ProbeTrack	12.1	SCS215a	20100823.091740	20100823.093428	8	0.013328	60	10	60-180	60	136	GapExp	0	134	2	1	1	target	1	520	740	91275	13.328	12.850	13.795
DTProbeTrack02	8	ProbeTrack	12.1	SCS215a	20100823.091740	20100823.093434	8	0.013328	60	10	60-180	60	156	GapExp	0	135	2	3	1	target	1	574	713	91988	13.328	12.895	13.757
DTProbeTrack02	8	ProbeTrack	12.1	SCS215a	20100823.091740	20100823.093440	8	0.013328	60	10	60-180	60	109	GapExp	0	136	2	45	0	distractor	1	827	587	92575	13.328	12.982	13.679
DTProbeTrack02	8	ProbeTrack	12.1	SCS215a	20100823.091740	20100823.093446	8	0.013328	60	10	60-180	60	82	GapExp	0	137	2	6	0	distractor	1	2293	0	92575	13.328	12.870	13.771
DTProbeTrack02	8	ProbeTrack	12.1	SCS215a	20100823.091740	20100823.093453	8	0.013328	60	10	60-180	60	172	GapExp	0	138	2	3	0	distractor	1	827	587	93162	13.328	12.982	13.664
DTProbeTrack02	8	ProbeTrack	12.1	SCS215a	20100823.091740	20100823.093500	8	0.013328	60	10	60-180	60	150	GapExp	0	139	2	1	1	target	1	1933	34	93196	13.328	13.311	13.351
DTProbeTrack02	8	ProbeTrack	12.1	SCS215a	20100823.091740	20100823.093507	8	0.013328	60	10	60-180	60	75	GapExp	0	140	2	45	1	target	1	2546	0	93196	13.328	13.175	13.470
DTProbeTrack02	8	ProbeTrack	12.1	SCS215a	20100823.091740	20100823.093515	8	0.013328	60	10	60-180	60	81	GapExp	0	141	2	3	1	target	1	534	733	93929	13.328	12.943	13.722
DTProbeTrack02	8	ProbeTrack	12.1	SCS215a	20100823.091740	20100823.093520	8	0.013328	60	10	60-180	60	87	GapExp	0	142	2	45	0	distractor	1	507	747	94676	13.328	13.306	13.348
DTProbeTrack02	8	ProbeTrack	12.1	SCS215a	20100823.091740	20100823.093526	8	0.013328	60	10	60-180	60	136	GapExp	0	143	2	45	1	target	1	640	680	95356	13.370	12.896	27.016
DTProbeTrack02	8	ProbeTrack	12.1	SCS215a	20100823.091740	20100823.093532	8	0.013328	60	10	60-180	60	128	GapExp	0	144	2	1	1	target	1	787	607	95963	13.328	12.976	13.669
DTProbeTrack02	8	ProbeTrack	12.1	SCS215a	20100823.091740	20100823.093538	8	0.013328	60	10	60-180	60	118	GapExp	0	145	2	45	0	target	0	920	-1000	94963	13.328	13.107	13.559
DTProbeTrack02	8	ProbeTrack	12.1	SCS215a	20100823.091740	20100823.093545	8	0.013328	60	10	60-180	60	176	GapExp	0	146	2	1	1	target	1	640	680	95643	13.328	12.953	13.700
DTProbeTrack02	8	ProbeTrack	12.1	SCS215a	20100823.091740	20100823.093551	8	0.013328	60	10	60-180	60	75	GapExp	0	147	2	9	0	distractor	1	667	667	96310	13.328	13.091	13.559
DTProbeTrack02	8	ProbeTrack	12.1	SCS215a	20100823.091740	20100823.093556	8	0.013328	60	10	60-180	60	119	GapExp	0	148	2	3	0	distractor	1	747	627	96937	13.428	12.916	39.962
DTProbeTrack02	8	ProbeTrack	12.1	SCS215a	20100823.091740	20100823.093602	8	0.013328	60	10	60-180	60	169	GapExp	0	149	2	1	0	distractor	1	1240	380	97317	13.370	12.969	26.661
DTProbeTrack02	8	ProbeTrack	12.1	SCS215a	20100823.091740	20100823.093609	8	0.013328	60	10	60-180	60	92	GapExp	0	150	2	1	0	distractor	1	827	587	97904	13.328	13.128	13.514
DTProbeTrack02	8	ProbeTrack	12.1	SCS215a	20100823.091740	20100823.093630	8	0.013328	60	10	60-180	60	139	GapExp	0	151	2	6	0	target	0	1160	-1000	96904	13.328	13.131	13.518
DTProbeTrack02	8	ProbeTrack	12.1	SCS215a	20100823.091740	20100823.093636	8	0.013328	60	10	60-180	60	79	GapExp	0	152	2	3	1	target	1	667	667	97571	13.328	12.862	13.804
DTProbeTrack02	8	ProbeTrack	12.1	SCS215a	20100823.091740	20100823.093641	8	0.013328	60	10	60-180	60	155	GapExp	0	153	2	6	1	target	1	520	740	98311	13.328	12.893	13.758
DTProbeTrack02	8	ProbeTrack	12.1	SCS215a	20100823.091740	20100823.093648	8	0.013328	60	10	60-180	60	147	GapExp	0	154	2	3	1	target	1	1333	334	98645	13.328	12.900	13.751
DTProbeTrack02	8	ProbeTrack	12.1	SCS215a	20100823.091740	20100823.093654	8	0.013328	60	10	60-180	60	72	GapExp	0	155	2	3	1	target	1	1213	394	99039	13.328	13.037	13.631
DTProbeTrack02	8	ProbeTrack	12.1	SCS215a	20100823.091740	20100823.093700	8	0.013328	60	10	60-180	60	64	GapExp	0	156	2	6	1	target	1	534	733	99772	13.328	12.873	13.784
DTProbeTrack02	8	ProbeTrack	12.1	SCS215a	20100823.091740	20100823.093705	8	0.013328	60	10	60-180	60	63	GapExp	0	157	2	1	1	target	1	400	800	100572	13.328	13.308	13.344
DTProbeTrack02	8	ProbeTrack	12.1	SCS215a	20100823.091740	20100823.093710	8	0.013328	60	10	60-180	60	91	GapExp	0	158	2	1	0	distractor	1	707	647	101219	13.443	13.095	26.831
DTProbeTrack02	8	ProbeTrack	12.1	SCS215a	20100823.091740	20100823.093715	8	0.013328	60	10	60-180	60	149	GapExp	0	159	2	45	1	target	1	494	753	101972	13.328	13.075	13.583
DTProbeTrack02	8	ProbeTrack	12.1	SCS215a	20100823.091740	20100823.093722	8	0.013328	60	10	60-180	60	163	GapExp	0	160	2	9	1	target	1	440	780	102752	13.328	13.048	13.602
DTProbeTrack02	8	ProbeTrack	12.1	SCS215a	20100823.091740	20100823.093728	8	0.013328	60	10	60-180	60	116	GapExp	0	161	2	1	1	target	1	600	700	103452	13.328	13.009	13.651
DTProbeTrack02	8	ProbeTrack	12.1	SCS215a	20100823.091740	20100823.093733	8	0.013328	60	10	60-180	60	152	GapExp	0	162	2	1	0	distractor	1	640	680	104132	13.328	13.305	13.349
DTProbeTrack02	8	ProbeTrack	12.1	SCS215a	20100823.091740	20100823.093739	8	0.013328	60	10	60-180	60	143	GapExp	0	163	2	9	1	target	1	454	773	104905	13.328	13.310	13.347
DTProbeTrack02	8	ProbeTrack	12.1	SCS215a	20100823.091740	20100823.093745	8	0.013328	60	10	60-180	60	169	GapExp	0	164	2	45	0	distractor	1	574	713	105618	13.328	13.310	13.347
DTProbeTrack02	8	ProbeTrack	12.1	SCS215a	20100823.091740	20100823.093752	8	0.013328	60	10	60-180	60	127	GapExp	0	165	2	45	1	target	1	587	707	106325	13.328	13.309	13.347
DTProbeTrack02	8	ProbeTrack	12.1	SCS215a	20100823.091740	20100823.093759	8	0.013328	60	10	60-180	60	116	GapExp	0	166	2	1	0	distractor	1	773	614	106939	13.480	12.870	27.002
DTProbeTrack02	8	ProbeTrack	12.1	SCS215a	20100823.091740	20100823.093804	8	0.013328	60	10	60-180	60	61	GapExp	0	167	2	45	0	distractor	1	600	700	107639	13.328	13.088	13.574
DTProbeTrack02	8	ProbeTrack	12.1	SCS215a	20100823.091740	20100823.093810	8	0.013328	60	10	60-180	60	118	GapExp	0	168	2	9	0	distractor	1	720	640	108279	13.328	13.105	13.553
DTProbeTrack02	8	ProbeTrack	12.1	SCS215a	20100823.091740	20100823.093816	8	0.013328	60	10	60-180	60	75	GapExp	0	169	2	9	0	distractor	1	1053	474	108753	13.328	13.307	13.350
DTProbeTrack02	8	ProbeTrack	12.1	SCS215a	20100823.091740	20100823.093821	8	0.013328	60	10	60-180	60	138	GapExp	0	170	2	3	0	distractor	1	760	620	109373	13.328	13.306	13.354
DTProbeTrack02	8	ProbeTrack	12.1	SCS215a	20100823.091740	20100823.093827	8	0.013328	60	10	60-180	60	102	GapExp	0	171	2	45	1	target	1	587	707	110080	13.328	13.309	13.348
DTProbeTrack02	8	ProbeTrack	12.1	SCS215a	20100823.091740	20100823.093833	8	0.013328	60	10	60-180	60	118	GapExp	0	172	2	45	0	distractor	1	747	627	110707	13.328	12.856	13.787
DTProbeTrack02	8	ProbeTrack	12.1	SCS215a	20100823.091740	20100823.093840	8	0.013328	60	10	60-180	60	149	GapExp	0	173	2	9	1	target	1	520	740	111447	13.328	13.095	13.554
DTProbeTrack02	8	ProbeTrack	12.1	SCS215a	20100823.091740	20100823.093846	8	0.013328	60	10	60-180	60	132	GapExp	0	174	2	9	1	target	1	440	780	112227	13.328	12.871	13.780
DTProbeTrack02	8	ProbeTrack	12.1	SCS215a	20100823.091740	20100823.093852	8	0.013328	60	10	60-180	60	115	GapExp	0	175	2	1	0	distractor	1	693	654	112881	13.328	13.307	13.351
DTProbeTrack02	8	ProbeTrack	12.1	SCS215a	20100823.091740	20100823.093857	8	0.013328	60	10	60-180	60	136	GapExp	0	176	2	6	1	target	1	574	713	113594	13.328	13.166	13.487
DTProbeTrack02	8	ProbeTrack	12.1	SCS215a	20100823.091740	20100823.093903	8	0.013328	60	10	60-180	60	163	GapExp	0	177	2	3	0	distractor	1	600	700	114294	13.328	13.305	13.352
DTProbeTrack02	8	ProbeTrack	12.1	SCS215a	20100823.091740	20100823.093910	8	0.013328	60	10	60-180	60	114	GapExp	0	178	2	45	0	distractor	1	653	674	114968	13.328	13.308	13.349
DTProbeTrack02	8	ProbeTrack	12.1	SCS215a	20100823.091740	20100823.093916	8	0.013328	60	10	60-180	60	104	GapExp	0	179	2	45	1	target	1	1013	494	115462	13.328	13.100	13.564
DTProbeTrack02	8	ProbeTrack	12.1	SCS215a	20100823.091740	20100823.093922	8	0.013328	60	10	60-180	60	104	GapExp	0	180	2	3	0	distractor	1	747	627	116089	13.328	13.114	13.550
DTProbeTrack02	8	ProbeTrack	12.1	SCS215a	20100823.091740	20100823.093928	8	0.013328	60	10	60-180	60	110	GapExp	0	181	2	6	1	target	1	627	687	116776	13.328	13.102	13.562
DTProbeTrack02	8	ProbeTrack	12.1	SCS215a	20100823.091740	20100823.093934	8	0.013328	60	10	60-180	60	80	GapExp	0	182	2	1	0	distractor	1	773	614	117390	13.446	13.068	26.839
DTProbeTrack02	8	ProbeTrack	12.1	SCS215a	20100823.091740	20100823.093939	8	0.013328	60	10	60-180	60	106	GapExp	0	183	2	9	0	distractor	1	560	720	118110	13.328	12.880	13.762
DTProbeTrack02	8	ProbeTrack	12.1	SCS215a	20100823.091740	20100823.093944	8	0.013328	60	10	60-180	60	122	GapExp	0	184	2	6	1	target	1	773	614	118724	13.328	13.047	13.602
DTProbeTrack02	8	ProbeTrack	12.1	SCS215a	20100823.091740	20100823.093950	8	0.013328	60	10	60-180	60	80	GapExp	0	185	2	6	0	distractor	1	1666	167	118891	13.501	12.901	40.425
DTProbeTrack02	8	ProbeTrack	12.1	SCS215a	20100823.091740	20100823.093957	8	0.013328	60	10	60-180	60	148	GapExp	0	186	2	3	0	target	0	1013	-1000	117891	13.328	13.105	13.559
DTProbeTrack02	8	ProbeTrack	12.1	SCS215a	20100823.091740	20100823.094003	8	0.013328	60	10	60-180	60	92	GapExp	0	187	2	6	1	target	1	1045	478	118369	13.438	12.956	39.993
DTProbeTrack02	8	ProbeTrack	12.1	SCS215a	20100823.091740	20100823.094009	8	0.013328	60	10	60-180	60	100	GapExp	0	188	2	9	0	distractor	1	587	707	119076	13.329	13.198	13.547
DTProbeTrack02	8	ProbeTrack	12.1	SCS215a	20100823.091740	20100823.094015	8	0.013328	60	10	60-180	60	81	GapExp	0	189	2	9	0	distractor	1	627	687	119763	13.328	12.958	13.726
DTProbeTrack02	8	ProbeTrack	12.1	SCS215a	20100823.091740	20100823.094020	8	0.013328	60	10	60-180	60	139	GapExp	0	190	2	1	1	target	1	614	693	120456	13.328	12.867	13.784
DTProbeTrack02	8	ProbeTrack	12.1	SCS215a	20100823.091740	20100823.094026	8	0.013328	60	10	60-180	60	155	GapExp	0	191	2	1	1	target	1	574	713	121169	13.328	12.989	13.669
DTProbeTrack02	8	ProbeTrack	12.1	SCS215a	20100823.091740	20100823.094032	8	0.013328	60	10	60-180	60	180	GapExp	0	192	2	3	0	target	0	813	-1000	120169	13.328	13.105	13.546
DTProbeTrack02	8	ProbeTrack	12.1	SCS215a	20100823.091740	20100823.094039	8	0.013328	60	10	60-180	60	75	GapExp	0	193	2	3	1	target	1	600	700	120869	13.328	13.071	13.784
DTProbeTrack02	8	ProbeTrack	12.1	SCS215a	20100823.091740	20100823.094044	8	0.013328	60	10	60-180	60	141	GapExp	0	194	2	9	1	target	1	654	673	121542	13.328	13.253	13.405
DTProbeTrack02	8	ProbeTrack	12.1	SCS215a	20100823.091740	20100823.094050	8	0.013328	60	10	60-180	60	120	GapExp	0	195	2	6	0	distractor	1	2133	0	121542	13.328	13.304	13.357
DTProbeTrack02	8	ProbeTrack	12.1	SCS215a	20100823.091740	20100823.094057	8	0.013328	60	10	60-180	60	104	GapExp	0	196	2	45	0	distractor	1	627	687	122229	13.328	13.053	13.609
DTProbeTrack02	8	ProbeTrack	12.1	SCS215a	20100823.091740	20100823.094103	8	0.013328	60	10	60-180	60	124	GapExp	0	197	2	45	0	target	0	933	-1000	121229	13.328	13.307	13.348
DTProbeTrack02	8	ProbeTrack	12.1	SCS215a	20100823.091740	20100823.094110	8	0.013328	60	10	60-180	60	126	GapExp	0	198	2	1	0	distractor	1	2919	0	121229	13.328	13.306	13.359
DTProbeTrack02	8	ProbeTrack	12.1	SCS215a	20100823.091740	20100823.094118	8	0.013328	60	10	60-180	60	169	GapExp	0	199	2	45	1	distractor	0	3905	-1000	120229	13.328	13.301	13.350
DTProbeTrack02	8	ProbeTrack	12.1	SCS215a	20100823.091740	20100823.094128	8	0.013328	60	10	60-180	60	104	GapExp	0	200	2	1	0	distractor	1	773	614	120843	13.328	13.097	13.565
DTProbeTrack02	8	ProbeTrack	12.1	SCS215a	20100823.091740	20100823.094145	8	0.013328	60	10	60-180	60	78	GapExp	0	201	2	1	0	distractor	1	947	527	121370	13.328	13.308	13.348
DTProbeTrack02	8	ProbeTrack	12.1	SCS215a	20100823.091740	20100823.094150	8	0.013328	60	10	60-180	60	159	GapExp	0	202	2	9	0	distractor	1	800	600	121970	13.328	13.309	13.345
DTProbeTrack02	8	ProbeTrack	12.1	SCS215a	20100823.091740	20100823.094157	8	0.013328	60	10	60-180	60	67	GapExp	0	203	2	45	0	distractor	1	1094	453	122423	13.328	13.275	13.368
DTProbeTrack02	8	ProbeTrack	12.1	SCS215a	20100823.091740	20100823.094203	8	0.013328	60	10	60-180	60	160	GapExp	0	204	2	1	0	distractor	1	1253	374	122797	13.328	13.095	13.567
DTProbeTrack02	8	ProbeTrack	12.1	SCS215a	20100823.091740	20100823.094210	8	0.013328	60	10	60-180	60	164	GapExp	0	205	2	1	1	target	1	773	614	123411	13.328	13.306	13.353
