exp	sub	code	rev	comp	runtime	trialtime	nstim	refreshdur	cuedur	gapdur	gapOnsetRange	durPostProbe	gapOnsetTime	blocktype	prac	trial	ntargets	soa	probeTarget	resp	acc	rt	pts	tpts	meanFrameDur	minFrameDur	maxFrameDur
DTProbeTrack02	10	ProbeTrack	12.1	SCS215a	20100823.131107	20100823.131123	8	0.013328	60	0	60-180	60	139	NoGap	1	1	2	6	0	distractor	1	1173	414	414	13.328	13.307	13.347
DTProbeTrack02	10	ProbeTrack	12.1	SCS215a	20100823.131107	20100823.131129	8	0.013328	60	0	60-180	60	161	NoGap	1	2	2	1	1	target	1	734	633	1047	13.328	13.112	13.539
DTProbeTrack02	10	ProbeTrack	12.1	SCS215a	20100823.131107	20100823.131136	8	0.013328	60	0	60-180	60	160	NoGap	1	3	2	45	0	distractor	1	693	654	1701	13.328	13.115	13.554
DTProbeTrack02	10	ProbeTrack	12.1	SCS215a	20100823.131107	20100823.131142	8	0.013328	60	0	60-180	60	94	NoGap	1	4	2	3	1	target	1	867	567	2268	13.328	13.109	13.541
DTProbeTrack02	10	ProbeTrack	12.1	SCS215a	20100823.131107	20100823.131148	8	0.013328	60	0	60-180	60	141	NoGap	1	5	2	9	1	distractor	0	454	-1000	1268	13.328	13.104	13.559
DTProbeTrack02	10	ProbeTrack	12.1	SCS215a	20100823.131107	20100823.131153	8	0.013328	60	0	60-180	60	160	NoGap	1	6	2	3	0	distractor	1	640	680	1948	13.328	13.304	13.348
DTProbeTrack02	10	ProbeTrack	12.1	SCS215a	20100823.131107	20100823.131200	8	0.013328	60	0	60-180	60	114	NoGap	1	7	2	3	0	distractor	1	587	707	2655	13.328	13.304	13.348
DTProbeTrack02	10	ProbeTrack	12.1	SCS215a	20100823.131107	20100823.131205	8	0.013328	60	0	60-180	60	166	NoGap	1	8	2	45	0	distractor	1	507	747	3402	13.328	13.086	13.562
DTProbeTrack02	10	ProbeTrack	12.1	SCS215a	20100823.131107	20100823.131212	8	0.013328	60	0	60-180	60	179	NoGap	1	9	2	9	0	distractor	1	507	747	4149	13.328	13.100	13.551
DTProbeTrack02	10	ProbeTrack	12.1	SCS215a	20100823.131107	20100823.131218	8	0.013328	60	0	60-180	60	96	NoGap	1	10	2	3	0	distractor	1	494	753	4902	13.328	12.867	13.788
DTProbeTrack02	10	ProbeTrack	12.1	SCS215a	20100823.131107	20100823.131223	8	0.013328	60	0	60-180	60	123	NoGap	1	11	2	45	1	target	1	560	720	5622	13.328	13.118	13.540
DTProbeTrack02	10	ProbeTrack	12.1	SCS215a	20100823.131107	20100823.131229	8	0.013328	60	0	60-180	60	163	NoGap	1	12	2	6	1	target	1	587	707	6329	13.328	13.292	13.381
DTProbeTrack02	10	ProbeTrack	12.1	SCS215a	20100823.131107	20100823.131235	8	0.013328	60	0	60-180	60	174	NoGap	1	13	2	3	1	target	1	507	747	7076	13.328	13.308	13.348
DTProbeTrack02	10	ProbeTrack	12.1	SCS215a	20100823.131107	20100823.131241	8	0.013328	60	0	60-180	60	104	NoGap	1	14	2	1	0	distractor	1	733	634	7710	13.328	12.873	13.782
DTProbeTrack02	10	ProbeTrack	12.1	SCS215a	20100823.131107	20100823.131246	8	0.013328	60	0	60-180	60	107	NoGap	1	15	2	45	1	target	1	467	767	8477	13.329	13.077	13.622
DTProbeTrack02	10	ProbeTrack	12.1	SCS215a	20100823.131107	20100823.131252	8	0.013328	60	0	60-180	60	108	NoGap	1	16	2	6	0	distractor	1	480	760	9237	13.328	13.101	13.541
DTProbeTrack02	10	ProbeTrack	12.1	SCS215a	20100823.131107	20100823.131257	8	0.013328	60	0	60-180	60	158	NoGap	1	17	2	9	1	target	1	454	773	10010	13.328	13.107	13.610
DTProbeTrack02	10	ProbeTrack	12.1	SCS215a	20100823.131107	20100823.131303	8	0.013328	60	0	60-180	60	111	NoGap	1	18	2	6	0	distractor	1	600	700	10710	13.328	13.046	13.623
DTProbeTrack02	10	ProbeTrack	12.1	SCS215a	20100823.131107	20100823.131309	8	0.013328	60	0	60-180	60	72	NoGap	1	19	2	9	0	distractor	1	547	727	11437	13.328	13.289	13.363
DTProbeTrack02	10	ProbeTrack	12.1	SCS215a	20100823.131107	20100823.131314	8	0.013328	60	0	60-180	60	156	NoGap	1	20	2	45	0	distractor	1	480	760	12197	13.328	13.087	13.560
DTProbeTrack02	10	ProbeTrack	12.1	SCS215a	20100823.131107	20100823.131320	8	0.013328	60	0	60-180	60	142	NoGap	1	21	2	1	1	target	1	520	740	12937	13.431	12.919	40.381
DTProbeTrack02	10	ProbeTrack	12.1	SCS215a	20100823.131107	20100823.131326	8	0.013328	60	0	60-180	60	155	NoGap	1	22	2	9	1	target	1	454	773	13710	13.328	13.108	13.556
DTProbeTrack02	10	ProbeTrack	12.1	SCS215a	20100823.131107	20100823.131332	8	0.013328	60	0	60-180	60	95	NoGap	1	23	2	6	0	distractor	1	587	707	14417	13.328	13.132	13.529
DTProbeTrack02	10	ProbeTrack	12.1	SCS215a	20100823.131107	20100823.131337	8	0.013328	60	0	60-180	60	80	NoGap	1	24	2	3	1	target	1	534	733	15150	13.328	13.307	13.348
DTProbeTrack02	10	ProbeTrack	12.1	SCS215a	20100823.131107	20100823.131342	8	0.013328	60	0	60-180	60	67	NoGap	1	25	2	6	1	target	1	427	787	15937	13.328	13.305	13.347
DTProbeTrack02	10	ProbeTrack	12.1	SCS215a	20100823.131107	20100823.131347	8	0.013328	60	0	60-180	60	115	NoGap	1	26	2	1	1	target	1	467	767	16704	13.328	12.962	13.703
DTProbeTrack02	10	ProbeTrack	12.1	SCS215a	20100823.131107	20100823.131352	8	0.013328	60	0	60-180	60	127	NoGap	1	27	2	3	0	distractor	1	440	780	17484	13.328	13.126	13.532
DTProbeTrack02	10	ProbeTrack	12.1	SCS215a	20100823.131107	20100823.131357	8	0.013328	60	0	60-180	60	95	NoGap	1	28	2	45	0	distractor	1	494	753	18237	13.328	12.866	13.804
DTProbeTrack02	10	ProbeTrack	12.1	SCS215a	20100823.131107	20100823.131403	8	0.013328	60	0	60-180	60	166	NoGap	1	29	2	1	0	distractor	1	507	747	18984	13.328	13.098	13.551
DTProbeTrack02	10	ProbeTrack	12.1	SCS215a	20100823.131107	20100823.131409	8	0.013328	60	0	60-180	60	100	NoGap	1	30	2	1	0	distractor	1	534	733	19717	13.328	12.905	13.761
DTProbeTrack02	10	ProbeTrack	12.1	SCS215a	20100823.131107	20100823.131414	8	0.013328	60	0	60-180	60	150	NoGap	1	31	2	3	1	target	1	507	747	20464	13.328	13.301	13.348
DTProbeTrack02	10	ProbeTrack	12.1	SCS215a	20100823.131107	20100823.131420	8	0.013328	60	0	60-180	60	97	NoGap	1	32	2	1	0	distractor	1	573	714	21178	13.328	13.308	13.342
DTProbeTrack02	10	ProbeTrack	12.1	SCS215a	20100823.131107	20100823.131425	8	0.013328	60	0	60-180	60	104	NoGap	1	33	2	9	1	target	1	480	760	21938	13.328	13.103	13.541
DTProbeTrack02	10	ProbeTrack	12.1	SCS215a	20100823.131107	20100823.131430	8	0.013328	60	0	60-180	60	64	NoGap	1	34	2	9	0	distractor	1	520	740	22678	13.328	13.029	13.612
DTProbeTrack02	10	ProbeTrack	12.1	SCS215a	20100823.131107	20100823.131435	8	0.013328	60	0	60-180	60	97	NoGap	1	35	2	6	1	target	1	587	707	23385	13.328	13.310	13.349
DTProbeTrack02	10	ProbeTrack	12.1	SCS215a	20100823.131107	20100823.131440	8	0.013328	60	0	60-180	60	148	NoGap	1	36	2	6	1	target	1	520	740	24125	13.328	13.300	13.358
DTProbeTrack02	10	ProbeTrack	12.1	SCS215a	20100823.131107	20100823.131446	8	0.013328	60	0	60-180	60	77	NoGap	1	37	2	9	0	distractor	1	773	614	24739	13.328	13.299	13.356
DTProbeTrack02	10	ProbeTrack	12.1	SCS215a	20100823.131107	20100823.131451	8	0.013328	60	0	60-180	60	126	NoGap	1	38	2	1	1	target	1	520	740	25479	13.328	13.100	13.559
DTProbeTrack02	10	ProbeTrack	12.1	SCS215a	20100823.131107	20100823.131457	8	0.013328	60	0	60-180	60	164	NoGap	1	39	2	45	1	target	1	494	753	26232	13.328	13.102	13.561
DTProbeTrack02	10	ProbeTrack	12.1	SCS215a	20100823.131107	20100823.131503	8	0.013328	60	0	60-180	60	108	NoGap	1	40	2	45	1	target	1	467	767	26999	13.328	13.309	13.347
DTProbeTrack02	10	ProbeTrack	12.1	SCS215a	20100823.131608	20100823.131612	8	0.013327	60	10	60-180	60	150	GapPrac	1	1	2	45	0	distractor	1	733	634	27633	13.328	13.201	13.445
DTProbeTrack02	10	ProbeTrack	12.1	SCS215a	20100823.131608	20100823.131619	8	0.013327	60	10	60-180	60	170	GapPrac	1	2	2	9	1	target	1	680	660	28293	13.328	13.200	13.459
DTProbeTrack02	10	ProbeTrack	12.1	SCS215a	20100823.131608	20100823.131625	8	0.013327	60	10	60-180	60	156	GapPrac	1	3	2	45	1	target	1	427	787	29080	13.328	12.850	13.803
DTProbeTrack02	10	ProbeTrack	12.1	SCS215a	20100823.131608	20100823.131632	8	0.013327	60	10	60-180	60	89	GapPrac	1	4	2	6	1	target	1	547	727	29807	13.328	13.051	13.597
DTProbeTrack02	10	ProbeTrack	12.1	SCS215a	20100823.131608	20100823.131637	8	0.013327	60	10	60-180	60	119	GapPrac	1	5	2	3	0	distractor	1	560	720	30527	13.328	13.061	13.585
DTProbeTrack02	10	ProbeTrack	12.1	SCS215a	20100823.131608	20100823.131643	8	0.013327	60	10	60-180	60	131	GapPrac	1	6	2	3	0	distractor	1	787	607	31134	13.328	12.949	13.790
DTProbeTrack02	10	ProbeTrack	12.1	SCS215a	20100823.131608	20100823.131649	8	0.013327	60	10	60-180	60	78	GapPrac	1	7	2	1	0	distractor	1	720	640	31774	13.329	13.307	13.706
DTProbeTrack02	10	ProbeTrack	12.1	SCS215a	20100823.131608	20100823.131654	8	0.013327	60	10	60-180	60	92	GapPrac	1	8	2	1	1	target	1	454	773	32547	13.390	12.900	27.086
DTProbeTrack02	10	ProbeTrack	12.1	SCS215a	20100823.131608	20100823.131659	8	0.013327	60	10	60-180	60	132	GapPrac	1	9	2	9	0	distractor	1	520	740	33287	13.328	13.308	13.345
DTProbeTrack02	10	ProbeTrack	12.1	SCS215a	20100823.131608	20100823.131705	8	0.013327	60	10	60-180	60	139	GapPrac	1	10	2	6	1	target	1	454	773	34060	13.328	13.097	13.551
DTProbeTrack02	10	ProbeTrack	12.1	SCS215a	20100823.131608	20100823.131710	8	0.013327	60	10	60-180	60	171	GapPrac	1	11	2	3	1	target	1	507	747	34807	13.328	13.089	13.560
DTProbeTrack02	10	ProbeTrack	12.1	SCS215a	20100823.131608	20100823.131717	8	0.013327	60	10	60-180	60	92	GapPrac	1	12	2	1	0	distractor	1	600	700	35507	13.328	13.300	13.349
DTProbeTrack02	10	ProbeTrack	12.1	SCS215a	20100823.131608	20100823.131722	8	0.013327	60	10	60-180	60	117	GapPrac	1	13	2	45	0	distractor	1	520	740	36247	13.328	13.305	13.346
DTProbeTrack02	10	ProbeTrack	12.1	SCS215a	20100823.131608	20100823.131728	8	0.013327	60	10	60-180	60	145	GapPrac	1	14	2	1	1	target	1	600	700	36947	13.328	13.029	13.631
DTProbeTrack02	10	ProbeTrack	12.1	SCS215a	20100823.131608	20100823.131734	8	0.013327	60	10	60-180	60	109	GapPrac	1	15	2	45	1	target	1	427	787	37734	13.328	13.257	13.398
DTProbeTrack02	10	ProbeTrack	12.1	SCS215a	20100823.131608	20100823.131740	8	0.013327	60	10	60-180	60	68	GapPrac	1	16	2	6	0	distractor	1	507	747	38481	13.328	13.097	13.558
DTProbeTrack02	10	ProbeTrack	12.1	SCS215a	20100823.131608	20100823.131745	8	0.013327	60	10	60-180	60	79	GapPrac	1	17	2	3	1	target	1	600	700	39181	13.328	13.232	13.428
DTProbeTrack02	10	ProbeTrack	12.1	SCS215a	20100823.131608	20100823.131750	8	0.013327	60	10	60-180	60	161	GapPrac	1	18	2	6	0	target	0	627	-1000	38181	13.328	12.870	13.782
DTProbeTrack02	10	ProbeTrack	12.1	SCS215a	20100823.131608	20100823.131756	8	0.013327	60	10	60-180	60	174	GapPrac	1	19	2	9	1	target	1	387	807	38988	13.328	13.309	13.345
DTProbeTrack02	10	ProbeTrack	12.1	SCS215a	20100823.131608	20100823.131802	8	0.013327	60	10	60-180	60	96	GapPrac	1	20	2	9	0	distractor	1	947	527	39515	13.328	12.851	13.799
DTProbeTrack02	10	ProbeTrack	12.1	SCS215a	20100823.132109	20100823.132118	8	0.013328	60	10	60-180	60	129	GapPrac	1	1	2	1	0	target	0	494	-1000	38515	13.328	13.104	13.541
DTProbeTrack02	10	ProbeTrack	12.1	SCS215a	20100823.132109	20100823.132123	8	0.013328	60	10	60-180	60	76	GapPrac	1	2	2	45	0	distractor	1	534	733	39248	13.328	13.309	13.348
DTProbeTrack02	10	ProbeTrack	12.1	SCS215a	20100823.132109	20100823.132129	8	0.013328	60	10	60-180	60	84	GapPrac	1	3	2	6	0	distractor	1	587	707	39955	13.328	13.308	13.347
DTProbeTrack02	10	ProbeTrack	12.1	SCS215a	20100823.132109	20100823.132134	8	0.013328	60	10	60-180	60	82	GapPrac	1	4	2	9	1	target	1	787	607	40562	13.328	13.285	13.372
DTProbeTrack02	10	ProbeTrack	12.1	SCS215a	20100823.132109	20100823.132139	8	0.013328	60	10	60-180	60	110	GapPrac	1	5	2	9	0	distractor	1	1040	480	41042	13.328	13.280	13.363
DTProbeTrack02	10	ProbeTrack	12.1	SCS215a	20100823.132109	20100823.132146	8	0.013328	60	10	60-180	60	96	GapPrac	1	6	2	9	0	distractor	1	480	760	41802	13.328	13.105	13.563
DTProbeTrack02	10	ProbeTrack	12.1	SCS215a	20100823.132109	20100823.132151	8	0.013328	60	10	60-180	60	165	GapPrac	1	7	2	45	0	distractor	1	800	600	42402	13.328	12.875	13.785
DTProbeTrack02	10	ProbeTrack	12.1	SCS215a	20100823.132109	20100823.132158	8	0.013328	60	10	60-180	60	64	GapPrac	1	8	2	6	0	distractor	1	467	767	43169	13.328	13.302	13.347
DTProbeTrack02	10	ProbeTrack	12.1	SCS215a	20100823.132109	20100823.132203	8	0.013328	60	10	60-180	60	140	GapPrac	1	9	2	1	1	target	1	627	687	43856	13.328	13.308	13.347
DTProbeTrack02	10	ProbeTrack	12.1	SCS215a	20100823.132109	20100823.132208	8	0.013328	60	10	60-180	60	155	GapPrac	1	10	2	9	1	distractor	0	760	-1000	42856	13.328	13.304	13.347
DTProbeTrack02	10	ProbeTrack	12.1	SCS215a	20100823.132109	20100823.132215	8	0.013328	60	10	60-180	60	111	GapPrac	1	11	2	3	1	target	1	614	693	43549	13.328	13.289	13.387
DTProbeTrack02	10	ProbeTrack	12.1	SCS215a	20100823.132109	20100823.132220	8	0.013328	60	10	60-180	60	131	GapPrac	1	12	2	45	1	target	1	3572	0	43549	13.328	13.085	13.626
DTProbeTrack02	10	ProbeTrack	12.1	SCS215a	20100823.132109	20100823.132230	8	0.013328	60	10	60-180	60	62	GapPrac	1	13	2	3	0	distractor	1	534	733	44282	13.328	12.859	13.797
DTProbeTrack02	10	ProbeTrack	12.1	SCS215a	20100823.132109	20100823.132234	8	0.013328	60	10	60-180	60	119	GapPrac	1	14	2	6	1	target	1	440	780	45062	13.328	13.308	13.348
DTProbeTrack02	10	ProbeTrack	12.1	SCS215a	20100823.132109	20100823.132240	8	0.013328	60	10	60-180	60	158	GapPrac	1	15	2	3	1	target	1	520	740	45802	13.328	13.101	13.546
DTProbeTrack02	10	ProbeTrack	12.1	SCS215a	20100823.132109	20100823.132246	8	0.013328	60	10	60-180	60	105	GapPrac	1	16	2	45	1	target	1	867	567	46369	13.328	13.117	13.538
DTProbeTrack02	10	ProbeTrack	12.1	SCS215a	20100823.132109	20100823.132252	8	0.013328	60	10	60-180	60	125	GapPrac	1	17	2	6	1	target	1	534	733	47102	13.328	13.309	13.347
DTProbeTrack02	10	ProbeTrack	12.1	SCS215a	20100823.132109	20100823.132258	8	0.013328	60	10	60-180	60	118	GapPrac	1	18	2	3	0	distractor	1	547	727	47829	13.328	13.308	13.345
DTProbeTrack02	10	ProbeTrack	12.1	SCS215a	20100823.132109	20100823.132303	8	0.013328	60	10	60-180	60	71	GapPrac	1	19	2	1	1	target	1	507	747	48576	13.328	13.308	13.346
DTProbeTrack02	10	ProbeTrack	12.1	SCS215a	20100823.132109	20100823.132308	8	0.013328	60	10	60-180	60	95	GapPrac	1	20	2	1	0	distractor	1	573	714	49290	13.328	12.884	13.744
DTProbeTrack02	10	ProbeTrack	12.1	SCS215a	20100823.132353	20100823.132356	8	0.013328	60	10	60-180	60	94	GapExp	1	1	2	9	0	distractor	1	1200	400	49690	13.328	13.110	13.553
DTProbeTrack02	10	ProbeTrack	12.1	SCS215a	20100823.132353	20100823.132402	8	0.013328	60	10	60-180	60	93	GapExp	1	2	2	6	0	distractor	1	560	720	50410	13.328	13.193	13.468
DTProbeTrack02	10	ProbeTrack	12.1	SCS215a	20100823.132353	20100823.132408	8	0.013328	60	10	60-180	60	86	GapExp	1	3	2	45	0	distractor	1	600	700	51110	13.328	13.259	13.395
DTProbeTrack02	10	ProbeTrack	12.1	SCS215a	20100823.132353	20100823.132413	8	0.013328	60	10	60-180	60	165	GapExp	1	4	2	6	1	target	1	560	720	51830	13.328	13.308	13.347
DTProbeTrack02	10	ProbeTrack	12.1	SCS215a	20100823.132353	20100823.132420	8	0.013328	60	10	60-180	60	128	GapExp	1	5	2	1	0	distractor	1	520	740	52570	13.328	13.087	13.561
DTProbeTrack02	10	ProbeTrack	12.1	SCS215a	20100823.132353	20100823.132425	8	0.013328	60	10	60-180	60	71	GapExp	0	6	2	3	0	distractor	1	467	767	53337	13.328	13.097	13.551
DTProbeTrack02	10	ProbeTrack	12.1	SCS215a	20100823.132353	20100823.132430	8	0.013328	60	10	60-180	60	179	GapExp	0	7	2	45	0	distractor	1	467	767	54104	13.328	13.097	13.558
DTProbeTrack02	10	ProbeTrack	12.1	SCS215a	20100823.132353	20100823.132437	8	0.013328	60	10	60-180	60	73	GapExp	0	8	2	9	1	target	1	920	540	54644	13.328	13.306	13.345
DTProbeTrack02	10	ProbeTrack	12.1	SCS215a	20100823.132353	20100823.132442	8	0.013328	60	10	60-180	60	68	GapExp	0	9	2	3	1	target	1	1693	154	54798	13.328	13.308	13.345
DTProbeTrack02	10	ProbeTrack	12.1	SCS215a	20100823.132353	20100823.132448	8	0.013328	60	10	60-180	60	151	GapExp	0	10	2	3	0	distractor	1	494	753	55551	13.328	13.272	13.398
DTProbeTrack02	10	ProbeTrack	12.1	SCS215a	20100823.132353	20100823.132454	8	0.013328	60	10	60-180	60	107	GapExp	0	11	2	9	1	target	1	613	694	56245	13.328	13.101	13.549
DTProbeTrack02	10	ProbeTrack	12.1	SCS215a	20100823.132353	20100823.132500	8	0.013328	60	10	60-180	60	123	GapExp	0	12	2	3	1	target	1	1560	220	56465	13.328	13.109	13.542
DTProbeTrack02	10	ProbeTrack	12.1	SCS215a	20100823.132353	20100823.132506	8	0.013328	60	10	60-180	60	147	GapExp	0	13	2	45	0	distractor	1	454	773	57238	13.328	13.089	13.567
DTProbeTrack02	10	ProbeTrack	12.1	SCS215a	20100823.132353	20100823.132513	8	0.013328	60	10	60-180	60	77	GapExp	0	14	2	6	1	target	1	507	747	57985	13.328	13.308	13.348
DTProbeTrack02	10	ProbeTrack	12.1	SCS215a	20100823.132353	20100823.132518	8	0.013328	60	10	60-180	60	119	GapExp	0	15	2	1	1	target	1	480	760	58745	13.383	12.837	27.148
DTProbeTrack02	10	ProbeTrack	12.1	SCS215a	20100823.132353	20100823.132523	8	0.013328	60	10	60-180	60	99	GapExp	0	16	2	6	1	target	1	560	720	59465	13.328	13.307	13.348
DTProbeTrack02	10	ProbeTrack	12.1	SCS215a	20100823.132353	20100823.132528	8	0.013328	60	10	60-180	60	123	GapExp	0	17	2	1	0	distractor	1	547	727	60192	13.328	13.090	13.571
DTProbeTrack02	10	ProbeTrack	12.1	SCS215a	20100823.132353	20100823.132534	8	0.013328	60	10	60-180	60	175	GapExp	0	18	2	6	0	distractor	1	574	713	60905	13.328	13.101	13.564
DTProbeTrack02	10	ProbeTrack	12.1	SCS215a	20100823.132353	20100823.132540	8	0.013328	60	10	60-180	60	167	GapExp	0	19	2	3	1	target	1	707	647	61552	13.328	13.107	13.671
DTProbeTrack02	10	ProbeTrack	12.1	SCS215a	20100823.132353	20100823.132547	8	0.013328	60	10	60-180	60	175	GapExp	0	20	2	45	1	target	1	440	780	62332	13.328	12.924	13.740
DTProbeTrack02	10	ProbeTrack	12.1	SCS215a	20100823.132353	20100823.132554	8	0.013328	60	10	60-180	60	127	GapExp	0	21	2	1	1	distractor	0	707	-1000	61332	13.328	12.892	13.766
DTProbeTrack02	10	ProbeTrack	12.1	SCS215a	20100823.132353	20100823.132559	8	0.013328	60	10	60-180	60	147	GapExp	0	22	2	45	1	target	1	374	813	62145	13.328	13.305	13.347
DTProbeTrack02	10	ProbeTrack	12.1	SCS215a	20100823.132353	20100823.132606	8	0.013328	60	10	60-180	60	153	GapExp	0	23	2	6	0	distractor	1	773	614	62759	13.328	13.299	13.347
DTProbeTrack02	10	ProbeTrack	12.1	SCS215a	20100823.132353	20100823.132612	8	0.013328	60	10	60-180	60	122	GapExp	0	24	2	1	1	target	1	400	800	63559	13.327	13.115	13.388
DTProbeTrack02	10	ProbeTrack	12.1	SCS215a	20100823.132353	20100823.132617	8	0.013328	60	10	60-180	60	165	GapExp	0	25	2	9	1	target	1	427	787	64346	13.328	13.106	13.540
DTProbeTrack02	10	ProbeTrack	12.1	SCS215a	20100823.132353	20100823.132624	8	0.013328	60	10	60-180	60	80	GapExp	0	26	2	9	0	distractor	1	454	773	65119	13.328	13.160	13.489
DTProbeTrack02	10	ProbeTrack	12.1	SCS215a	20100823.132353	20100823.132629	8	0.013328	60	10	60-180	60	93	GapExp	0	27	2	1	1	target	1	627	687	65806	13.445	12.883	26.854
DTProbeTrack02	10	ProbeTrack	12.1	SCS215a	20100823.132353	20100823.132634	8	0.013328	60	10	60-180	60	179	GapExp	0	28	2	1	0	distractor	1	720	640	66446	13.328	12.874	13.763
DTProbeTrack02	10	ProbeTrack	12.1	SCS215a	20100823.132353	20100823.132640	8	0.013328	60	10	60-180	60	74	GapExp	0	29	2	6	1	target	1	787	607	67053	13.328	12.852	13.801
DTProbeTrack02	10	ProbeTrack	12.1	SCS215a	20100823.132353	20100823.132646	8	0.013328	60	10	60-180	60	65	GapExp	0	30	2	3	0	target	0	827	-1000	66053	13.328	12.984	13.679
DTProbeTrack02	10	ProbeTrack	12.1	SCS215a	20100823.132353	20100823.132651	8	0.013328	60	10	60-180	60	104	GapExp	0	31	2	3	0	target	0	597	-1000	65053	13.328	13.174	13.490
DTProbeTrack02	10	ProbeTrack	12.1	SCS215a	20100823.132353	20100823.132656	8	0.013328	60	10	60-180	60	124	GapExp	0	32	2	1	0	distractor	1	560	720	65773	13.328	13.162	13.503
DTProbeTrack02	10	ProbeTrack	12.1	SCS215a	20100823.132353	20100823.132702	8	0.013328	60	10	60-180	60	67	GapExp	0	33	2	3	1	target	1	560	720	66493	13.328	12.905	13.762
DTProbeTrack02	10	ProbeTrack	12.1	SCS215a	20100823.132353	20100823.132707	8	0.013328	60	10	60-180	60	178	GapExp	0	34	2	1	0	distractor	1	467	767	67260	13.416	13.002	27.043
DTProbeTrack02	10	ProbeTrack	12.1	SCS215a	20100823.132353	20100823.132713	8	0.013328	60	10	60-180	60	66	GapExp	0	35	2	9	1	target	1	507	747	68007	13.328	13.099	13.562
DTProbeTrack02	10	ProbeTrack	12.1	SCS215a	20100823.132353	20100823.132718	8	0.013328	60	10	60-180	60	97	GapExp	0	36	2	3	0	distractor	1	733	634	68641	13.328	13.307	13.345
DTProbeTrack02	10	ProbeTrack	12.1	SCS215a	20100823.132353	20100823.132723	8	0.013328	60	10	60-180	60	108	GapExp	0	37	2	45	1	target	1	627	687	69328	13.328	13.132	13.536
DTProbeTrack02	10	ProbeTrack	12.1	SCS215a	20100823.132353	20100823.132729	8	0.013328	60	10	60-180	60	97	GapExp	0	38	2	1	0	target	0	534	-1000	68328	13.328	13.306	13.363
DTProbeTrack02	10	ProbeTrack	12.1	SCS215a	20100823.132353	20100823.132735	8	0.013328	60	10	60-180	60	172	GapExp	0	39	2	9	0	distractor	1	467	767	69095	13.328	12.974	13.675
DTProbeTrack02	10	ProbeTrack	12.1	SCS215a	20100823.132353	20100823.132741	8	0.013328	60	10	60-180	60	94	GapExp	0	40	2	45	0	distractor	1	574	713	69808	13.328	12.851	13.814
DTProbeTrack02	10	ProbeTrack	12.1	SCS215a	20100823.132353	20100823.132747	8	0.013328	60	10	60-180	60	116	GapExp	0	41	2	45	0	distractor	1	547	727	70535	13.328	13.090	13.565
DTProbeTrack02	10	ProbeTrack	12.1	SCS215a	20100823.132353	20100823.132753	8	0.013328	60	10	60-180	60	62	GapExp	0	42	2	9	0	distractor	1	2746	0	70535	13.328	13.306	13.352
DTProbeTrack02	10	ProbeTrack	12.1	SCS215a	20100823.132353	20100823.132800	8	0.013328	60	10	60-180	60	63	GapExp	0	43	2	9	0	distractor	1	440	780	71315	13.328	13.295	13.348
DTProbeTrack02	10	ProbeTrack	12.1	SCS215a	20100823.132353	20100823.132805	8	0.013328	60	10	60-180	60	79	GapExp	0	44	2	6	1	target	1	574	713	72028	13.328	12.949	13.687
DTProbeTrack02	10	ProbeTrack	12.1	SCS215a	20100823.132353	20100823.132810	8	0.013328	60	10	60-180	60	97	GapExp	0	45	2	3	1	target	1	547	727	72755	13.328	13.085	13.584
DTProbeTrack02	10	ProbeTrack	12.1	SCS215a	20100823.132353	20100823.132815	8	0.013328	60	10	60-180	60	121	GapExp	0	46	2	6	0	distractor	1	467	767	73522	13.328	13.097	13.561
DTProbeTrack02	10	ProbeTrack	12.1	SCS215a	20100823.132353	20100823.132821	8	0.013328	60	10	60-180	60	176	GapExp	0	47	2	6	0	target	0	587	-1000	72522	13.328	13.005	13.633
DTProbeTrack02	10	ProbeTrack	12.1	SCS215a	20100823.132353	20100823.132827	8	0.013328	60	10	60-180	60	157	GapExp	0	48	2	9	1	target	1	1999	1	72523	13.328	12.903	13.747
DTProbeTrack02	10	ProbeTrack	12.1	SCS215a	20100823.132353	20100823.132835	8	0.013328	60	10	60-180	60	98	GapExp	0	49	2	6	1	target	1	560	720	73243	13.328	13.123	13.541
DTProbeTrack02	10	ProbeTrack	12.1	SCS215a	20100823.132353	20100823.132840	8	0.013328	60	10	60-180	60	76	GapExp	0	50	2	45	0	distractor	1	1000	500	73743	13.328	12.922	13.727
DTProbeTrack02	10	ProbeTrack	12.1	SCS215a	20100823.132353	20100823.132853	8	0.013328	60	10	60-180	60	84	GapExp	0	51	2	9	0	distractor	1	560	720	74463	13.328	13.067	13.592
DTProbeTrack02	10	ProbeTrack	12.1	SCS215a	20100823.132353	20100823.132858	8	0.013328	60	10	60-180	60	75	GapExp	0	52	2	45	1	target	1	467	767	75230	13.328	13.022	13.642
DTProbeTrack02	10	ProbeTrack	12.1	SCS215a	20100823.132353	20100823.132903	8	0.013328	60	10	60-180	60	121	GapExp	0	53	2	1	1	distractor	0	667	-1000	74230	13.328	12.930	13.726
DTProbeTrack02	10	ProbeTrack	12.1	SCS215a	20100823.132353	20100823.132909	8	0.013328	60	10	60-180	60	107	GapExp	0	54	2	1	1	target	1	467	767	74997	13.328	13.302	13.349
DTProbeTrack02	10	ProbeTrack	12.1	SCS215a	20100823.132353	20100823.132914	8	0.013328	60	10	60-180	60	139	GapExp	0	55	2	9	0	distractor	1	467	767	75764	13.328	13.306	13.348
DTProbeTrack02	10	ProbeTrack	12.1	SCS215a	20100823.132353	20100823.132920	8	0.013328	60	10	60-180	60	154	GapExp	0	56	2	9	1	target	1	387	807	76571	13.328	13.038	13.608
DTProbeTrack02	10	ProbeTrack	12.1	SCS215a	20100823.132353	20100823.132926	8	0.013328	60	10	60-180	60	165	GapExp	0	57	2	3	1	target	1	320	840	77411	13.328	12.879	13.768
DTProbeTrack02	10	ProbeTrack	12.1	SCS215a	20100823.132353	20100823.132932	8	0.013328	60	10	60-180	60	90	GapExp	0	58	2	1	1	target	1	400	800	78211	13.328	13.293	13.363
DTProbeTrack02	10	ProbeTrack	12.1	SCS215a	20100823.132353	20100823.132937	8	0.013328	60	10	60-180	60	84	GapExp	0	59	2	45	1	target	1	520	740	78951	13.328	13.000	13.651
DTProbeTrack02	10	ProbeTrack	12.1	SCS215a	20100823.132353	20100823.132943	8	0.013328	60	10	60-180	60	151	GapExp	0	60	2	3	0	distractor	1	547	727	79678	13.328	12.916	13.737
DTProbeTrack02	10	ProbeTrack	12.1	SCS215a	20100823.132353	20100823.132949	8	0.013328	60	10	60-180	60	92	GapExp	0	61	2	6	1	target	1	613	694	80372	13.328	12.947	13.701
DTProbeTrack02	10	ProbeTrack	12.1	SCS215a	20100823.132353	20100823.132954	8	0.013328	60	10	60-180	60	110	GapExp	0	62	2	45	1	target	1	480	760	81132	13.328	13.098	13.543
DTProbeTrack02	10	ProbeTrack	12.1	SCS215a	20100823.132353	20100823.133000	8	0.013328	60	10	60-180	60	122	GapExp	0	63	2	45	0	distractor	1	440	780	81912	13.328	13.013	13.645
DTProbeTrack02	10	ProbeTrack	12.1	SCS215a	20100823.132353	20100823.133006	8	0.013328	60	10	60-180	60	67	GapExp	0	64	2	1	1	target	1	1120	440	82352	13.328	13.308	13.347
DTProbeTrack02	10	ProbeTrack	12.1	SCS215a	20100823.132353	20100823.133012	8	0.013328	60	10	60-180	60	154	GapExp	0	65	2	45	0	distractor	1	414	793	83145	13.328	12.856	13.800
DTProbeTrack02	10	ProbeTrack	12.1	SCS215a	20100823.132353	20100823.133018	8	0.013328	60	10	60-180	60	67	GapExp	0	66	2	1	1	target	1	520	740	83885	13.328	13.309	13.349
DTProbeTrack02	10	ProbeTrack	12.1	SCS215a	20100823.132353	20100823.133023	8	0.013328	60	10	60-180	60	112	GapExp	0	67	2	6	1	target	1	507	747	84632	13.328	13.007	13.629
DTProbeTrack02	10	ProbeTrack	12.1	SCS215a	20100823.132353	20100823.133028	8	0.013328	60	10	60-180	60	180	GapExp	0	68	2	6	1	target	1	480	760	85392	13.328	12.884	13.781
DTProbeTrack02	10	ProbeTrack	12.1	SCS215a	20100823.132353	20100823.133035	8	0.013328	60	10	60-180	60	118	GapExp	0	69	2	45	1	target	1	454	773	86165	13.328	12.878	13.777
DTProbeTrack02	10	ProbeTrack	12.1	SCS215a	20100823.132353	20100823.133041	8	0.013328	60	10	60-180	60	76	GapExp	0	70	2	1	1	target	1	454	773	86938	13.328	13.286	13.372
DTProbeTrack02	10	ProbeTrack	12.1	SCS215a	20100823.132353	20100823.133046	8	0.013328	60	10	60-180	60	166	GapExp	0	71	2	1	0	distractor	1	454	773	87711	13.328	12.932	13.722
DTProbeTrack02	10	ProbeTrack	12.1	SCS215a	20100823.132353	20100823.133052	8	0.013328	60	10	60-180	60	107	GapExp	0	72	2	9	1	target	1	547	727	88438	13.328	13.255	13.415
DTProbeTrack02	10	ProbeTrack	12.1	SCS215a	20100823.132353	20100823.133057	8	0.013328	60	10	60-180	60	82	GapExp	0	73	2	45	0	distractor	1	414	793	89231	13.328	13.104	13.551
DTProbeTrack02	10	ProbeTrack	12.1	SCS215a	20100823.132353	20100823.133103	8	0.013328	60	10	60-180	60	144	GapExp	0	74	2	1	0	distractor	1	467	767	89998	13.328	13.041	13.607
DTProbeTrack02	10	ProbeTrack	12.1	SCS215a	20100823.132353	20100823.133108	8	0.013328	60	10	60-180	60	130	GapExp	0	75	2	6	1	target	1	747	627	90625	13.328	12.894	13.781
DTProbeTrack02	10	ProbeTrack	12.1	SCS215a	20100823.132353	20100823.133114	8	0.013328	60	10	60-180	60	151	GapExp	0	76	2	3	1	distractor	0	507	-1000	89625	13.328	12.943	13.718
DTProbeTrack02	10	ProbeTrack	12.1	SCS215a	20100823.132353	20100823.133120	8	0.013328	60	10	60-180	60	79	GapExp	0	77	2	9	1	target	1	534	733	90358	13.328	13.099	13.549
DTProbeTrack02	10	ProbeTrack	12.1	SCS215a	20100823.132353	20100823.133125	8	0.013328	60	10	60-180	60	110	GapExp	0	78	2	45	1	target	1	427	787	91145	13.328	13.005	13.647
DTProbeTrack02	10	ProbeTrack	12.1	SCS215a	20100823.132353	20100823.133131	8	0.013328	60	10	60-180	60	164	GapExp	0	79	2	3	0	distractor	1	480	760	91905	13.328	13.096	13.566
DTProbeTrack02	10	ProbeTrack	12.1	SCS215a	20100823.132353	20100823.133137	8	0.013328	60	10	60-180	60	144	GapExp	0	80	2	1	0	target	0	640	-1000	90905	13.328	13.103	13.552
DTProbeTrack02	10	ProbeTrack	12.1	SCS215a	20100823.132353	20100823.133143	8	0.013328	60	10	60-180	60	134	GapExp	0	81	2	6	0	distractor	1	480	760	91665	13.328	12.889	13.772
DTProbeTrack02	10	ProbeTrack	12.1	SCS215a	20100823.132353	20100823.133149	8	0.013328	60	10	60-180	60	168	GapExp	0	82	2	1	1	target	1	574	713	92378	13.328	12.888	13.757
DTProbeTrack02	10	ProbeTrack	12.1	SCS215a	20100823.132353	20100823.133155	8	0.013328	60	10	60-180	60	130	GapExp	0	83	2	9	0	distractor	1	480	760	93138	13.328	12.874	13.784
DTProbeTrack02	10	ProbeTrack	12.1	SCS215a	20100823.132353	20100823.133201	8	0.013328	60	10	60-180	60	140	GapExp	0	84	2	9	0	distractor	1	560	720	93858	13.328	12.895	13.758
DTProbeTrack02	10	ProbeTrack	12.1	SCS215a	20100823.132353	20100823.133207	8	0.013328	60	10	60-180	60	148	GapExp	0	85	2	6	0	distractor	1	440	780	94638	13.328	13.098	13.549
DTProbeTrack02	10	ProbeTrack	12.1	SCS215a	20100823.132353	20100823.133213	8	0.013328	60	10	60-180	60	121	GapExp	0	86	2	9	0	distractor	1	440	780	95418	13.328	13.084	13.570
DTProbeTrack02	10	ProbeTrack	12.1	SCS215a	20100823.132353	20100823.133219	8	0.013328	60	10	60-180	60	130	GapExp	0	87	2	3	1	target	1	560	720	96138	13.328	13.292	13.366
DTProbeTrack02	10	ProbeTrack	12.1	SCS215a	20100823.132353	20100823.133224	8	0.013328	60	10	60-180	60	151	GapExp	0	88	2	45	0	distractor	1	454	773	96911	13.328	13.089	13.573
DTProbeTrack02	10	ProbeTrack	12.1	SCS215a	20100823.132353	20100823.133231	8	0.013328	60	10	60-180	60	80	GapExp	0	89	2	6	1	target	1	615	693	97604	13.328	12.888	13.777
DTProbeTrack02	10	ProbeTrack	12.1	SCS215a	20100823.132353	20100823.133236	8	0.013328	60	10	60-180	60	122	GapExp	0	90	2	1	1	target	1	800	600	98204	13.328	13.095	13.556
DTProbeTrack02	10	ProbeTrack	12.1	SCS215a	20100823.132353	20100823.133242	8	0.013328	60	10	60-180	60	157	GapExp	0	91	2	6	1	target	1	520	740	98944	13.328	12.910	13.738
DTProbeTrack02	10	ProbeTrack	12.1	SCS215a	20100823.132353	20100823.133248	8	0.013328	60	10	60-180	60	125	GapExp	0	92	2	6	0	distractor	1	414	793	99737	13.328	13.098	13.548
DTProbeTrack02	10	ProbeTrack	12.1	SCS215a	20100823.132353	20100823.133253	8	0.013328	60	10	60-180	60	109	GapExp	0	93	2	1	0	distractor	1	973	514	100251	13.328	12.993	13.648
DTProbeTrack02	10	ProbeTrack	12.1	SCS215a	20100823.132353	20100823.133259	8	0.013328	60	10	60-180	60	91	GapExp	0	94	2	45	0	distractor	1	613	694	100945	13.328	12.933	13.727
DTProbeTrack02	10	ProbeTrack	12.1	SCS215a	20100823.132353	20100823.133305	8	0.013328	60	10	60-180	60	171	GapExp	0	95	2	45	0	distractor	1	494	753	101698	13.328	13.017	13.653
DTProbeTrack02	10	ProbeTrack	12.1	SCS215a	20100823.132353	20100823.133312	8	0.013328	60	10	60-180	60	62	GapExp	0	96	2	9	0	distractor	1	694	653	102351	13.328	12.965	13.658
DTProbeTrack02	10	ProbeTrack	12.1	SCS215a	20100823.132353	20100823.133317	8	0.013328	60	10	60-180	60	106	GapExp	0	97	2	3	0	distractor	1	560	720	103071	13.328	12.851	13.796
DTProbeTrack02	10	ProbeTrack	12.1	SCS215a	20100823.132353	20100823.133322	8	0.013328	60	10	60-180	60	141	GapExp	0	98	2	1	1	target	1	547	727	103798	13.328	13.307	13.347
DTProbeTrack02	10	ProbeTrack	12.1	SCS215a	20100823.132353	20100823.133328	8	0.013328	60	10	60-180	60	127	GapExp	0	99	2	1	1	target	1	454	773	104571	13.328	12.841	13.808
DTProbeTrack02	10	ProbeTrack	12.1	SCS215a	20100823.132353	20100823.133334	8	0.013328	60	10	60-180	60	93	GapExp	0	100	2	6	1	target	1	520	740	105311	13.328	12.917	13.733
DTProbeTrack02	10	ProbeTrack	12.1	SCS215a	20100823.132353	20100823.133348	8	0.013328	60	10	60-180	60	141	GapExp	0	101	2	9	1	target	1	400	800	106111	13.328	13.049	13.606
DTProbeTrack02	10	ProbeTrack	12.1	SCS215a	20100823.132353	20100823.133353	8	0.013328	60	10	60-180	60	131	GapExp	0	102	2	3	1	target	1	600	700	106811	13.328	13.061	13.590
DTProbeTrack02	10	ProbeTrack	12.1	SCS215a	20100823.132353	20100823.133359	8	0.013328	60	10	60-180	60	177	GapExp	0	103	2	1	1	target	1	653	674	107485	13.328	13.088	13.556
DTProbeTrack02	10	ProbeTrack	12.1	SCS215a	20100823.132353	20100823.133406	8	0.013328	60	10	60-180	60	111	GapExp	0	104	2	45	1	target	1	667	667	108152	13.328	12.923	13.746
DTProbeTrack02	10	ProbeTrack	12.1	SCS215a	20100823.132353	20100823.133412	8	0.013328	60	10	60-180	60	116	GapExp	0	105	2	9	0	distractor	1	1080	460	108612	13.328	12.848	13.803
DTProbeTrack02	10	ProbeTrack	12.1	SCS215a	20100823.132353	20100823.133418	8	0.013328	60	10	60-180	60	141	GapExp	0	106	2	9	1	distractor	0	667	-1000	107612	13.328	13.023	13.629
DTProbeTrack02	10	ProbeTrack	12.1	SCS215a	20100823.132353	20100823.133424	8	0.013328	60	10	60-180	60	142	GapExp	0	107	2	3	1	target	1	400	800	108412	13.328	12.995	13.660
DTProbeTrack02	10	ProbeTrack	12.1	SCS215a	20100823.132353	20100823.133430	8	0.013328	60	10	60-180	60	162	GapExp	0	108	2	9	0	distractor	1	480	760	109172	13.328	12.983	13.655
DTProbeTrack02	10	ProbeTrack	12.1	SCS215a	20100823.132353	20100823.133436	8	0.013328	60	10	60-180	60	62	GapExp	0	109	2	1	0	distractor	1	600	700	109872	13.328	13.022	13.642
DTProbeTrack02	10	ProbeTrack	12.1	SCS215a	20100823.132353	20100823.133441	8	0.013328	60	10	60-180	60	178	GapExp	0	110	2	1	0	distractor	1	747	627	110499	13.328	13.072	13.585
DTProbeTrack02	10	ProbeTrack	12.1	SCS215a	20100823.132353	20100823.133447	8	0.013328	60	10	60-180	60	133	GapExp	0	111	2	9	0	distractor	1	454	773	111272	13.328	13.090	13.564
DTProbeTrack02	10	ProbeTrack	12.1	SCS215a	20100823.132353	20100823.133453	8	0.013328	60	10	60-180	60	100	GapExp	0	112	2	6	0	distractor	1	400	800	112072	13.328	12.925	13.744
DTProbeTrack02	10	ProbeTrack	12.1	SCS215a	20100823.132353	20100823.133458	8	0.013328	60	10	60-180	60	175	GapExp	0	113	2	6	0	distractor	1	467	767	112839	13.328	13.289	13.358
DTProbeTrack02	10	ProbeTrack	12.1	SCS215a	20100823.132353	20100823.133505	8	0.013328	60	10	60-180	60	135	GapExp	0	114	2	6	0	distractor	1	440	780	113619	13.328	12.983	13.660
DTProbeTrack02	10	ProbeTrack	12.1	SCS215a	20100823.132353	20100823.133510	8	0.013328	60	10	60-180	60	103	GapExp	0	115	2	1	0	distractor	1	494	753	114372	13.328	12.887	13.760
DTProbeTrack02	10	ProbeTrack	12.1	SCS215a	20100823.132353	20100823.133515	8	0.013328	60	10	60-180	60	158	GapExp	0	116	2	45	1	distractor	0	520	-1000	113372	13.328	13.064	13.598
DTProbeTrack02	10	ProbeTrack	12.1	SCS215a	20100823.132353	20100823.133522	8	0.013328	60	10	60-180	60	178	GapExp	0	117	2	6	1	target	1	507	747	114119	13.328	13.107	13.551
DTProbeTrack02	10	ProbeTrack	12.1	SCS215a	20100823.132353	20100823.133529	8	0.013328	60	10	60-180	60	132	GapExp	0	118	2	1	0	distractor	1	640	680	114799	13.328	12.857	13.815
DTProbeTrack02	10	ProbeTrack	12.1	SCS215a	20100823.132353	20100823.133534	8	0.013328	60	10	60-180	60	70	GapExp	0	119	2	45	0	distractor	1	427	787	115586	13.328	12.852	13.807
DTProbeTrack02	10	ProbeTrack	12.1	SCS215a	20100823.132353	20100823.133540	8	0.013328	60	10	60-180	60	151	GapExp	0	120	2	1	1	distractor	0	440	-1000	114586	13.329	13.310	13.799
DTProbeTrack02	10	ProbeTrack	12.1	SCS215a	20100823.132353	20100823.133546	8	0.013328	60	10	60-180	60	103	GapExp	0	121	2	3	0	distractor	1	627	687	115273	13.328	12.962	13.692
DTProbeTrack02	10	ProbeTrack	12.1	SCS215a	20100823.132353	20100823.133551	8	0.013328	60	10	60-180	60	140	GapExp	0	122	2	6	1	target	1	400	800	116073	13.328	13.282	13.364
DTProbeTrack02	10	ProbeTrack	12.1	SCS215a	20100823.132353	20100823.133557	8	0.013328	60	10	60-180	60	99	GapExp	0	123	2	3	0	distractor	1	454	773	116846	13.328	13.303	13.346
DTProbeTrack02	10	ProbeTrack	12.1	SCS215a	20100823.132353	20100823.133602	8	0.013328	60	10	60-180	60	127	GapExp	0	124	2	3	0	distractor	1	467	767	117613	13.328	13.290	13.362
DTProbeTrack02	10	ProbeTrack	12.1	SCS215a	20100823.132353	20100823.133608	8	0.013328	60	10	60-180	60	142	GapExp	0	125	2	3	1	target	1	640	680	118293	13.328	13.308	13.349
DTProbeTrack02	10	ProbeTrack	12.1	SCS215a	20100823.132353	20100823.133614	8	0.013328	60	10	60-180	60	138	GapExp	0	126	2	1	0	distractor	1	933	534	118827	13.328	13.097	13.550
DTProbeTrack02	10	ProbeTrack	12.1	SCS215a	20100823.132353	20100823.133620	8	0.013328	60	10	60-180	60	129	GapExp	0	127	2	45	0	distractor	1	454	773	119600	13.328	13.041	13.609
DTProbeTrack02	10	ProbeTrack	12.1	SCS215a	20100823.132353	20100823.133626	8	0.013328	60	10	60-180	60	102	GapExp	0	128	2	6	0	distractor	1	467	767	120367	13.328	12.928	13.739
DTProbeTrack02	10	ProbeTrack	12.1	SCS215a	20100823.132353	20100823.133631	8	0.013328	60	10	60-180	60	113	GapExp	0	129	2	3	1	target	1	640	680	121047	13.328	12.968	13.707
DTProbeTrack02	10	ProbeTrack	12.1	SCS215a	20100823.132353	20100823.133637	8	0.013328	60	10	60-180	60	137	GapExp	0	130	2	3	1	target	1	454	773	121820	13.328	12.967	13.694
DTProbeTrack02	10	ProbeTrack	12.1	SCS215a	20100823.132353	20100823.133643	8	0.013328	60	10	60-180	60	95	GapExp	0	131	2	1	1	target	1	640	680	122500	13.328	13.310	13.345
DTProbeTrack02	10	ProbeTrack	12.1	SCS215a	20100823.132353	20100823.133648	8	0.013328	60	10	60-180	60	153	GapExp	0	132	2	3	1	target	1	427	787	123287	13.328	13.046	13.610
DTProbeTrack02	10	ProbeTrack	12.1	SCS215a	20100823.132353	20100823.133654	8	0.013328	60	10	60-180	60	122	GapExp	0	133	2	3	1	target	1	347	827	124114	13.328	13.288	13.376
DTProbeTrack02	10	ProbeTrack	12.1	SCS215a	20100823.132353	20100823.133659	8	0.013328	60	10	60-180	60	66	GapExp	0	134	2	1	0	distractor	1	507	747	124861	13.328	13.009	13.641
DTProbeTrack02	10	ProbeTrack	12.1	SCS215a	20100823.132353	20100823.133704	8	0.013328	60	10	60-180	60	93	GapExp	0	135	2	9	1	target	1	427	787	125648	13.328	12.995	13.648
DTProbeTrack02	10	ProbeTrack	12.1	SCS215a	20100823.132353	20100823.133709	8	0.013328	60	10	60-180	60	78	GapExp	0	136	2	45	0	distractor	1	347	827	126475	13.328	13.105	13.552
DTProbeTrack02	10	ProbeTrack	12.1	SCS215a	20100823.132353	20100823.133715	8	0.013328	60	10	60-180	60	165	GapExp	0	137	2	3	0	distractor	1	480	760	127235	13.328	12.848	13.802
DTProbeTrack02	10	ProbeTrack	12.1	SCS215a	20100823.132353	20100823.133721	8	0.013328	60	10	60-180	60	105	GapExp	0	138	2	1	1	distractor	0	720	-1000	126235	13.328	12.842	13.812
DTProbeTrack02	10	ProbeTrack	12.1	SCS215a	20100823.132353	20100823.133727	8	0.013328	60	10	60-180	60	102	GapExp	0	139	2	6	1	target	1	520	740	126975	13.328	12.927	13.735
DTProbeTrack02	10	ProbeTrack	12.1	SCS215a	20100823.132353	20100823.133732	8	0.013328	60	10	60-180	60	119	GapExp	0	140	2	45	1	target	1	414	793	127768	13.328	12.880	13.776
DTProbeTrack02	10	ProbeTrack	12.1	SCS215a	20100823.132353	20100823.133738	8	0.013328	60	10	60-180	60	138	GapExp	0	141	2	6	0	distractor	1	507	747	128515	13.328	12.890	13.752
DTProbeTrack02	10	ProbeTrack	12.1	SCS215a	20100823.132353	20100823.133744	8	0.013328	60	10	60-180	60	71	GapExp	0	142	2	6	0	distractor	1	427	787	129302	13.328	13.019	13.639
DTProbeTrack02	10	ProbeTrack	12.1	SCS215a	20100823.132353	20100823.133749	8	0.013328	60	10	60-180	60	122	GapExp	0	143	2	6	0	distractor	1	480	760	130062	13.328	12.963	13.681
DTProbeTrack02	10	ProbeTrack	12.1	SCS215a	20100823.132353	20100823.133754	8	0.013328	60	10	60-180	60	135	GapExp	0	144	2	45	1	target	1	762	619	130681	13.329	12.967	13.757
DTProbeTrack02	10	ProbeTrack	12.1	SCS215a	20100823.132353	20100823.133801	8	0.013328	60	10	60-180	60	172	GapExp	0	145	2	3	1	target	1	467	767	131448	13.328	13.309	13.347
DTProbeTrack02	10	ProbeTrack	12.1	SCS215a	20100823.132353	20100823.133807	8	0.013328	60	10	60-180	60	179	GapExp	0	146	2	6	0	distractor	1	454	773	132221	13.328	13.308	13.348
DTProbeTrack02	10	ProbeTrack	12.1	SCS215a	20100823.132353	20100823.133814	8	0.013328	60	10	60-180	60	160	GapExp	0	147	2	1	1	target	1	587	707	132928	13.328	13.054	13.602
DTProbeTrack02	10	ProbeTrack	12.1	SCS215a	20100823.132353	20100823.133820	8	0.013328	60	10	60-180	60	94	GapExp	0	148	2	3	0	distractor	1	480	760	133688	13.328	13.108	13.558
DTProbeTrack02	10	ProbeTrack	12.1	SCS215a	20100823.132353	20100823.133825	8	0.013328	60	10	60-180	60	177	GapExp	0	149	2	45	0	distractor	1	440	780	134468	13.328	13.099	13.545
DTProbeTrack02	10	ProbeTrack	12.1	SCS215a	20100823.132353	20100823.133832	8	0.013328	60	10	60-180	60	123	GapExp	0	150	2	6	0	distractor	1	414	793	135261	13.328	13.114	13.553
DTProbeTrack02	10	ProbeTrack	12.1	SCS215a	20100823.132353	20100823.133849	8	0.013328	60	10	60-180	60	94	GapExp	0	151	2	6	0	distractor	1	427	787	136048	13.328	13.308	13.347
DTProbeTrack02	10	ProbeTrack	12.1	SCS215a	20100823.132353	20100823.133854	8	0.013328	60	10	60-180	60	165	GapExp	0	152	2	1	0	distractor	1	693	654	136702	13.328	13.097	13.555
DTProbeTrack02	10	ProbeTrack	12.1	SCS215a	20100823.132353	20100823.133900	8	0.013328	60	10	60-180	60	87	GapExp	0	153	2	3	0	distractor	1	1973	14	136716	13.328	13.110	13.561
DTProbeTrack02	10	ProbeTrack	12.1	SCS215a	20100823.132353	20100823.133907	8	0.013328	60	10	60-180	60	152	GapExp	0	154	2	45	1	distractor	0	387	-1000	135716	13.328	13.012	13.644
DTProbeTrack02	10	ProbeTrack	12.1	SCS215a	20100823.132353	20100823.133913	8	0.013328	60	10	60-180	60	127	GapExp	0	155	2	9	1	target	1	427	787	136503	13.328	13.088	13.559
DTProbeTrack02	10	ProbeTrack	12.1	SCS215a	20100823.132353	20100823.133919	8	0.013328	60	10	60-180	60	127	GapExp	0	156	2	3	1	target	1	414	793	137296	13.328	13.305	13.349
DTProbeTrack02	10	ProbeTrack	12.1	SCS215a	20100823.132353	20100823.133925	8	0.013328	60	10	60-180	60	90	GapExp	0	157	2	9	0	target	0	480	-1000	136296	13.328	13.304	13.357
DTProbeTrack02	10	ProbeTrack	12.1	SCS215a	20100823.132353	20100823.133930	8	0.013328	60	10	60-180	60	62	GapExp	0	158	2	1	0	distractor	1	480	760	137056	13.328	13.107	13.556
DTProbeTrack02	10	ProbeTrack	12.1	SCS215a	20100823.132353	20100823.133934	8	0.013328	60	10	60-180	60	157	GapExp	0	159	2	45	1	distractor	0	334	-1000	136056	13.328	13.104	13.549
DTProbeTrack02	10	ProbeTrack	12.1	SCS215a	20100823.132353	20100823.133941	8	0.013328	60	10	60-180	60	72	GapExp	0	160	2	3	0	distractor	1	707	647	136703	13.328	13.284	13.375
DTProbeTrack02	10	ProbeTrack	12.1	SCS215a	20100823.132353	20100823.133946	8	0.013328	60	10	60-180	60	177	GapExp	0	161	2	6	0	distractor	1	480	760	137463	13.328	12.923	13.720
DTProbeTrack02	10	ProbeTrack	12.1	SCS215a	20100823.132353	20100823.133952	8	0.013328	60	10	60-180	60	147	GapExp	0	162	2	9	0	distractor	1	494	753	138216	13.328	13.153	13.506
DTProbeTrack02	10	ProbeTrack	12.1	SCS215a	20100823.132353	20100823.133958	8	0.013328	60	10	60-180	60	88	GapExp	0	163	2	6	0	distractor	1	480	760	138976	13.328	13.305	13.344
DTProbeTrack02	10	ProbeTrack	12.1	SCS215a	20100823.132353	20100823.134003	8	0.013328	60	10	60-180	60	108	GapExp	0	164	2	45	1	target	1	494	753	139729	13.328	13.096	13.558
DTProbeTrack02	10	ProbeTrack	12.1	SCS215a	20100823.132353	20100823.134009	8	0.013328	60	10	60-180	60	146	GapExp	0	165	2	45	1	target	1	480	760	140489	13.328	12.881	13.791
DTProbeTrack02	10	ProbeTrack	12.1	SCS215a	20100823.132353	20100823.134016	8	0.013328	60	10	60-180	60	79	GapExp	0	166	2	3	1	target	1	440	780	141269	13.328	13.295	13.362
DTProbeTrack02	10	ProbeTrack	12.1	SCS215a	20100823.132353	20100823.134021	8	0.013328	60	10	60-180	60	159	GapExp	0	167	2	9	1	target	1	520	740	142009	13.328	12.977	13.674
DTProbeTrack02	10	ProbeTrack	12.1	SCS215a	20100823.132353	20100823.134027	8	0.013328	60	10	60-180	60	91	GapExp	0	168	2	3	0	distractor	1	467	767	142776	13.328	13.309	13.347
DTProbeTrack02	10	ProbeTrack	12.1	SCS215a	20100823.132353	20100823.134032	8	0.013328	60	10	60-180	60	145	GapExp	0	169	2	3	0	distractor	1	587	707	143483	13.328	12.888	13.759
DTProbeTrack02	10	ProbeTrack	12.1	SCS215a	20100823.132353	20100823.134038	8	0.013328	60	10	60-180	60	125	GapExp	0	170	2	9	1	target	1	880	560	144043	13.328	13.086	13.553
DTProbeTrack02	10	ProbeTrack	12.1	SCS215a	20100823.132353	20100823.134044	8	0.013328	60	10	60-180	60	65	GapExp	0	171	2	9	0	distractor	1	414	793	144836	13.328	13.309	13.359
DTProbeTrack02	10	ProbeTrack	12.1	SCS215a	20100823.132353	20100823.134049	8	0.013328	60	10	60-180	60	123	GapExp	0	172	2	6	1	target	1	627	687	145523	13.328	12.870	13.777
DTProbeTrack02	10	ProbeTrack	12.1	SCS215a	20100823.132353	20100823.134055	8	0.013328	60	10	60-180	60	130	GapExp	0	173	2	45	0	distractor	1	454	773	146296	13.328	13.302	13.348
DTProbeTrack02	10	ProbeTrack	12.1	SCS215a	20100823.132353	20100823.134101	8	0.013328	60	10	60-180	60	164	GapExp	0	174	2	3	1	target	1	440	780	147076	13.328	13.093	13.564
DTProbeTrack02	10	ProbeTrack	12.1	SCS215a	20100823.132353	20100823.134107	8	0.013328	60	10	60-180	60	78	GapExp	0	175	2	6	1	target	1	587	707	147783	13.328	13.105	13.565
DTProbeTrack02	10	ProbeTrack	12.1	SCS215a	20100823.132353	20100823.134112	8	0.013328	60	10	60-180	60	76	GapExp	0	176	2	1	0	distractor	1	454	773	148556	13.328	13.310	13.345
DTProbeTrack02	10	ProbeTrack	12.1	SCS215a	20100823.132353	20100823.134117	8	0.013328	60	10	60-180	60	158	GapExp	0	177	2	3	0	distractor	1	587	707	149263	13.328	12.911	13.738
DTProbeTrack02	10	ProbeTrack	12.1	SCS215a	20100823.132353	20100823.134123	8	0.013328	60	10	60-180	60	71	GapExp	0	178	2	3	0	distractor	1	574	713	149976	13.328	13.226	13.433
DTProbeTrack02	10	ProbeTrack	12.1	SCS215a	20100823.132353	20100823.134128	8	0.013328	60	10	60-180	60	171	GapExp	0	179	2	9	1	target	1	494	753	150729	13.328	13.073	13.568
DTProbeTrack02	10	ProbeTrack	12.1	SCS215a	20100823.132353	20100823.134134	8	0.013328	60	10	60-180	60	80	GapExp	0	180	2	6	1	target	1	467	767	151496	13.328	13.090	13.559
DTProbeTrack02	10	ProbeTrack	12.1	SCS215a	20100823.132353	20100823.134139	8	0.013328	60	10	60-180	60	166	GapExp	0	181	2	9	0	target	0	520	-1000	150496	13.328	13.100	13.556
DTProbeTrack02	10	ProbeTrack	12.1	SCS215a	20100823.132353	20100823.134146	8	0.013328	60	10	60-180	60	126	GapExp	0	182	2	45	0	distractor	1	547	727	151223	13.328	13.299	13.347
DTProbeTrack02	10	ProbeTrack	12.1	SCS215a	20100823.132353	20100823.134152	8	0.013328	60	10	60-180	60	65	GapExp	0	183	2	45	1	target	1	653	674	151897	13.328	13.288	13.381
DTProbeTrack02	10	ProbeTrack	12.1	SCS215a	20100823.132353	20100823.134157	8	0.013328	60	10	60-180	60	146	GapExp	0	184	2	6	1	target	1	560	720	152617	13.328	13.309	13.352
DTProbeTrack02	10	ProbeTrack	12.1	SCS215a	20100823.132353	20100823.134203	8	0.013328	60	10	60-180	60	68	GapExp	0	185	2	9	0	target	0	494	-1000	151617	13.328	13.100	13.553
DTProbeTrack02	10	ProbeTrack	12.1	SCS215a	20100823.132353	20100823.134208	8	0.013328	60	10	60-180	60	169	GapExp	0	186	2	45	0	distractor	1	467	767	152384	13.328	13.110	13.543
DTProbeTrack02	10	ProbeTrack	12.1	SCS215a	20100823.132353	20100823.134215	8	0.013328	60	10	60-180	60	102	GapExp	0	187	2	1	0	distractor	1	480	760	153144	13.328	13.309	13.346
DTProbeTrack02	10	ProbeTrack	12.1	SCS215a	20100823.132353	20100823.134220	8	0.013328	60	10	60-180	60	111	GapExp	0	188	2	9	1	distractor	0	467	-1000	152144	13.328	13.133	13.516
DTProbeTrack02	10	ProbeTrack	12.1	SCS215a	20100823.132353	20100823.134226	8	0.013328	60	10	60-180	60	96	GapExp	0	189	2	1	0	distractor	1	534	733	152877	13.328	13.307	13.348
DTProbeTrack02	10	ProbeTrack	12.1	SCS215a	20100823.132353	20100823.134231	8	0.013328	60	10	60-180	60	154	GapExp	0	190	2	1	1	target	1	547	727	153604	13.328	13.073	13.602
DTProbeTrack02	10	ProbeTrack	12.1	SCS215a	20100823.132353	20100823.134237	8	0.013328	60	10	60-180	60	133	GapExp	0	191	2	45	1	target	1	507	747	154351	13.328	13.113	13.541
DTProbeTrack02	10	ProbeTrack	12.1	SCS215a	20100823.132353	20100823.134243	8	0.013328	60	10	60-180	60	139	GapExp	0	192	2	45	1	target	1	440	780	155131	13.328	13.103	13.558
DTProbeTrack02	10	ProbeTrack	12.1	SCS215a	20100823.132353	20100823.134250	8	0.013328	60	10	60-180	60	117	GapExp	0	193	2	9	1	target	1	400	800	155931	13.328	13.101	13.568
DTProbeTrack02	10	ProbeTrack	12.1	SCS215a	20100823.132353	20100823.134255	8	0.013328	60	10	60-180	60	75	GapExp	0	194	2	9	1	target	1	414	793	156724	13.328	13.094	13.567
DTProbeTrack02	10	ProbeTrack	12.1	SCS215a	20100823.132353	20100823.134300	8	0.013328	60	10	60-180	60	170	GapExp	0	195	2	9	0	distractor	1	547	727	157451	13.328	13.097	13.550
DTProbeTrack02	10	ProbeTrack	12.1	SCS215a	20100823.132353	20100823.134306	8	0.013328	60	10	60-180	60	79	GapExp	0	196	2	45	1	target	1	560	720	158171	13.328	13.090	13.562
DTProbeTrack02	10	ProbeTrack	12.1	SCS215a	20100823.132353	20100823.134312	8	0.013328	60	10	60-180	60	133	GapExp	0	197	2	9	1	target	1	560	720	158891	13.328	13.085	13.574
DTProbeTrack02	10	ProbeTrack	12.1	SCS215a	20100823.132353	20100823.134318	8	0.013328	60	10	60-180	60	112	GapExp	0	198	2	45	0	distractor	1	534	733	159624	13.328	13.096	13.557
DTProbeTrack02	10	ProbeTrack	12.1	SCS215a	20100823.132353	20100823.134324	8	0.013328	60	10	60-180	60	172	GapExp	0	199	2	9	1	target	1	467	767	160391	13.328	13.170	13.488
DTProbeTrack02	10	ProbeTrack	12.1	SCS215a	20100823.132353	20100823.134330	8	0.013328	60	10	60-180	60	165	GapExp	0	200	2	6	0	distractor	1	520	740	161131	13.328	12.881	13.776
DTProbeTrack02	10	ProbeTrack	12.1	SCS215a	20100823.132353	20100823.134343	8	0.013328	60	10	60-180	60	137	GapExp	0	201	2	3	0	distractor	1	387	807	161938	13.328	12.881	13.787
DTProbeTrack02	10	ProbeTrack	12.1	SCS215a	20100823.132353	20100823.134349	8	0.013328	60	10	60-180	60	154	GapExp	0	202	2	6	1	target	1	467	767	162705	13.328	12.894	13.774
DTProbeTrack02	10	ProbeTrack	12.1	SCS215a	20100823.132353	20100823.134355	8	0.013328	60	10	60-180	60	133	GapExp	0	203	2	9	0	distractor	1	400	800	163505	13.328	12.898	13.759
DTProbeTrack02	10	ProbeTrack	12.1	SCS215a	20100823.132353	20100823.134401	8	0.013328	60	10	60-180	60	146	GapExp	0	204	2	45	0	distractor	1	2599	0	163505	13.328	12.846	13.806
DTProbeTrack02	10	ProbeTrack	12.1	SCS215a	20100823.132353	20100823.134409	8	0.013328	60	10	60-180	60	153	GapExp	0	205	2	3	1	target	1	560	720	164225	13.328	13.308	13.349
