exp	sub	code	rev	comp	runtime	trialtime	nstim	refreshdur	cuedur	gapdur	gapOnsetRange	durPostProbe	gapOnsetTime	blocktype	prac	trial	ntargets	soa	probeTarget	resp	acc	rt	pts	tpts	meanFrameDur	minFrameDur	maxFrameDur
DTProbeTrack02	4	ProbeTrack	12.1	SCS215a	20100804.131607	20100804.131624	8	0.013328	60	0	60-180	60	154	NoGap	1	1	2	6	1	target	1	707	647	647	13.328	13.293	13.363
DTProbeTrack02	4	ProbeTrack	12.1	SCS215a	20100804.131607	20100804.131630	8	0.013328	60	0	60-180	60	69	NoGap	1	2	2	45	0	83	-3	773	-1000	-353	13.435	12.955	26.649
DTProbeTrack02	4	ProbeTrack	12.1	SCS215a	20100804.131607	20100804.131636	8	0.013328	60	0	60-180	60	120	NoGap	1	3	2	3	0	distractor	1	747	627	274	13.328	13.293	13.363
DTProbeTrack02	4	ProbeTrack	12.1	SCS215a	20100804.131607	20100804.131642	8	0.013328	60	0	60-180	60	130	NoGap	1	4	2	3	1	target	1	680	660	934	13.328	13.226	13.428
DTProbeTrack02	4	ProbeTrack	12.1	SCS215a	20100804.131607	20100804.131648	8	0.013328	60	0	60-180	60	150	NoGap	1	5	2	1	0	distractor	1	560	720	1654	13.328	13.293	13.363
DTProbeTrack02	4	ProbeTrack	12.1	SCS215a	20100804.131607	20100804.131653	8	0.013328	60	0	60-180	60	133	NoGap	1	6	2	3	1	target	1	627	687	2341	13.328	13.293	13.363
DTProbeTrack02	4	ProbeTrack	12.1	SCS215a	20100804.131607	20100804.131659	8	0.013328	60	0	60-180	60	84	NoGap	1	7	2	6	0	distractor	1	587	707	3048	13.328	13.264	13.426
DTProbeTrack02	4	ProbeTrack	12.1	SCS215a	20100804.131607	20100804.131704	8	0.013328	60	0	60-180	60	109	NoGap	1	8	2	3	0	distractor	1	467	767	3815	13.327	13.290	13.365
DTProbeTrack02	4	ProbeTrack	12.1	SCS215a	20100804.131607	20100804.131710	8	0.013328	60	0	60-180	60	96	NoGap	1	9	2	45	1	target	1	414	793	4608	13.328	13.293	13.363
DTProbeTrack02	4	ProbeTrack	12.1	SCS215a	20100804.131607	20100804.131715	8	0.013328	60	0	60-180	60	80	NoGap	1	10	2	9	1	distractor	0	494	-1000	3608	13.328	13.224	13.432
DTProbeTrack02	4	ProbeTrack	12.1	SCS215a	20100804.131607	20100804.131720	8	0.013328	60	0	60-180	60	125	NoGap	1	11	2	1	1	distractor	0	640	-1000	2608	13.328	13.292	13.363
DTProbeTrack02	4	ProbeTrack	12.1	SCS215a	20100804.131607	20100804.131726	8	0.013328	60	0	60-180	60	128	NoGap	1	12	2	3	1	target	1	520	740	3348	13.328	13.293	13.365
DTProbeTrack02	4	ProbeTrack	12.1	SCS215a	20100804.131607	20100804.131731	8	0.013328	60	0	60-180	60	146	NoGap	1	13	2	1	0	distractor	1	627	687	4035	13.328	13.293	13.363
DTProbeTrack02	4	ProbeTrack	12.1	SCS215a	20100804.131607	20100804.131737	8	0.013328	60	0	60-180	60	170	NoGap	1	14	2	6	0	distractor	1	654	673	4708	13.328	13.131	13.557
DTProbeTrack02	4	ProbeTrack	12.1	SCS215a	20100804.131607	20100804.131743	8	0.013328	60	0	60-180	60	73	NoGap	1	15	2	6	1	target	1	627	687	5395	13.328	13.282	13.372
DTProbeTrack02	4	ProbeTrack	12.1	SCS215a	20100804.131607	20100804.131748	8	0.013328	60	0	60-180	60	68	NoGap	1	16	2	45	0	distractor	1	480	760	6155	13.327	13.293	13.363
DTProbeTrack02	4	ProbeTrack	12.1	SCS215a	20100804.131607	20100804.131754	8	0.013328	60	0	60-180	60	75	NoGap	1	17	2	3	0	distractor	1	840	580	6735	13.327	13.219	13.435
DTProbeTrack02	4	ProbeTrack	12.1	SCS215a	20100804.131607	20100804.131759	8	0.013328	60	0	60-180	60	89	NoGap	1	18	2	45	1	distractor	0	667	-1000	5735	13.328	13.257	13.398
DTProbeTrack02	4	ProbeTrack	12.1	SCS215a	20100804.131607	20100804.131805	8	0.013328	60	0	60-180	60	159	NoGap	1	19	2	9	1	target	1	347	827	6562	13.328	13.292	13.363
DTProbeTrack02	4	ProbeTrack	12.1	SCS215a	20100804.131607	20100804.131810	8	0.013328	60	0	60-180	60	169	NoGap	1	20	2	6	0	distractor	1	520	740	7302	13.328	12.999	13.656
DTProbeTrack02	4	ProbeTrack	12.1	SCS215a	20100804.131607	20100804.131817	8	0.013328	60	0	60-180	60	89	NoGap	1	21	2	6	1	target	1	787	607	7909	13.328	13.253	13.402
DTProbeTrack02	4	ProbeTrack	12.1	SCS215a	20100804.131607	20100804.131822	8	0.013328	60	0	60-180	60	126	NoGap	1	22	2	9	0	distractor	1	547	727	8636	13.328	13.293	13.363
DTProbeTrack02	4	ProbeTrack	12.1	SCS215a	20100804.131607	20100804.131828	8	0.013328	60	0	60-180	60	102	NoGap	1	23	2	1	1	target	1	694	653	9289	13.328	13.293	13.363
DTProbeTrack02	4	ProbeTrack	12.1	SCS215a	20100804.131607	20100804.131833	8	0.013328	60	0	60-180	60	168	NoGap	1	24	2	3	0	distractor	1	600	700	9989	13.328	13.293	13.363
DTProbeTrack02	4	ProbeTrack	12.1	SCS215a	20100804.131607	20100804.131839	8	0.013328	60	0	60-180	60	165	NoGap	1	25	2	45	0	distractor	1	507	747	10736	13.328	13.111	13.544
DTProbeTrack02	4	ProbeTrack	12.1	SCS215a	20100804.131607	20100804.131846	8	0.013328	60	0	60-180	60	61	NoGap	1	26	2	45	0	distractor	1	587	707	11443	13.328	13.292	13.364
DTProbeTrack02	4	ProbeTrack	12.1	SCS215a	20100804.131607	20100804.131851	8	0.013328	60	0	60-180	60	88	NoGap	1	27	2	6	1	target	1	627	687	12130	13.327	13.275	13.380
DTProbeTrack02	4	ProbeTrack	12.1	SCS215a	20100804.131607	20100804.131856	8	0.013328	60	0	60-180	60	70	NoGap	1	28	2	9	0	distractor	1	627	687	12817	13.328	13.110	13.513
DTProbeTrack02	4	ProbeTrack	12.1	SCS215a	20100804.131607	20100804.131901	8	0.013328	60	0	60-180	60	171	NoGap	1	29	2	1	1	target	1	480	760	13577	13.328	13.197	13.493
DTProbeTrack02	4	ProbeTrack	12.1	SCS215a	20100804.131607	20100804.131907	8	0.013328	60	0	60-180	60	70	NoGap	1	30	2	9	0	distractor	1	760	620	14197	13.327	13.293	13.363
DTProbeTrack02	4	ProbeTrack	12.1	SCS215a	20100804.131607	20100804.131912	8	0.013328	60	0	60-180	60	179	NoGap	1	31	2	45	1	distractor	0	1173	-1000	13197	13.328	13.061	13.562
DTProbeTrack02	4	ProbeTrack	12.1	SCS215a	20100804.131607	20100804.131920	8	0.013328	60	0	60-180	60	151	NoGap	1	32	2	3	1	target	1	827	587	13784	13.328	9.442	17.213
DTProbeTrack02	4	ProbeTrack	12.1	SCS215a	20100804.131607	20100804.131926	8	0.013328	60	0	60-180	60	180	NoGap	1	33	2	1	0	distractor	1	467	767	14551	13.328	13.241	13.381
DTProbeTrack02	4	ProbeTrack	12.1	SCS215a	20100804.131607	20100804.131932	8	0.013328	60	0	60-180	60	71	NoGap	1	34	2	1	0	distractor	1	934	533	15084	13.328	13.164	13.492
DTProbeTrack02	4	ProbeTrack	12.1	SCS215a	20100804.131607	20100804.131937	8	0.013328	60	0	60-180	60	157	NoGap	1	35	2	9	1	target	1	374	813	15897	13.328	13.293	13.380
DTProbeTrack02	4	ProbeTrack	12.1	SCS215a	20100804.131607	20100804.131943	8	0.013328	60	0	60-180	60	104	NoGap	1	36	2	9	1	target	1	693	654	16551	13.328	13.293	13.363
DTProbeTrack02	4	ProbeTrack	12.1	SCS215a	20100804.131607	20100804.131949	8	0.013328	60	0	60-180	60	96	NoGap	1	37	2	45	1	target	1	613	694	17245	13.328	13.172	13.449
DTProbeTrack02	4	ProbeTrack	12.1	SCS215a	20100804.131607	20100804.131955	8	0.013328	60	0	60-180	60	63	NoGap	1	38	2	6	0	distractor	1	760	620	17865	13.328	13.286	13.363
DTProbeTrack02	4	ProbeTrack	12.1	SCS215a	20100804.131607	20100804.132000	8	0.013328	60	0	60-180	60	109	NoGap	1	39	2	9	0	distractor	1	494	753	18618	13.327	13.293	13.363
DTProbeTrack02	4	ProbeTrack	12.1	SCS215a	20100804.131607	20100804.132005	8	0.013328	60	0	60-180	60	152	NoGap	1	40	2	1	1	target	1	587	707	19325	13.328	13.290	13.366
DTProbeTrack02	4	ProbeTrack	12.1	SCS215a	20100804.132111	20100804.132120	8	0.013332	60	10	60-180	60	126	GapPrac	1	1	2	3	1	target	1	627	687	20012	13.328	13.293	13.363
DTProbeTrack02	4	ProbeTrack	12.1	SCS215a	20100804.132111	20100804.132126	8	0.013332	60	10	60-180	60	109	GapPrac	1	2	2	9	1	target	1	653	674	20686	13.328	12.865	13.756
DTProbeTrack02	4	ProbeTrack	12.1	SCS215a	20100804.132111	20100804.132131	8	0.013332	60	10	60-180	60	133	GapPrac	1	3	2	9	1	target	1	627	687	21373	13.328	13.146	13.476
DTProbeTrack02	4	ProbeTrack	12.1	SCS215a	20100804.132111	20100804.132137	8	0.013332	60	10	60-180	60	64	GapPrac	1	4	2	1	1	target	1	600	700	22073	13.328	12.886	13.768
DTProbeTrack02	4	ProbeTrack	12.1	SCS215a	20100804.132111	20100804.132142	8	0.013332	60	10	60-180	60	154	GapPrac	1	5	2	45	0	target	0	560	-1000	21073	13.328	13.094	13.528
DTProbeTrack02	4	ProbeTrack	12.1	SCS215a	20100804.132111	20100804.132149	8	0.013332	60	10	60-180	60	87	GapPrac	1	6	2	6	0	distractor	1	574	713	21786	13.328	13.234	13.455
DTProbeTrack02	4	ProbeTrack	12.1	SCS215a	20100804.132111	20100804.132154	8	0.013332	60	10	60-180	60	81	GapPrac	1	7	2	1	0	distractor	1	667	667	22453	13.327	13.136	13.520
DTProbeTrack02	4	ProbeTrack	12.1	SCS215a	20100804.132111	20100804.132159	8	0.013332	60	10	60-180	60	69	GapPrac	1	8	2	45	1	target	1	653	674	23127	13.328	13.148	13.475
DTProbeTrack02	4	ProbeTrack	12.1	SCS215a	20100804.132111	20100804.132205	8	0.013332	60	10	60-180	60	103	GapPrac	1	9	2	45	0	distractor	1	587	707	23834	13.328	13.230	13.425
DTProbeTrack02	4	ProbeTrack	12.1	SCS215a	20100804.132111	20100804.132211	8	0.013332	60	10	60-180	60	85	GapPrac	1	10	2	1	1	target	1	574	713	24547	13.327	13.293	13.363
DTProbeTrack02	4	ProbeTrack	12.1	SCS215a	20100804.132111	20100804.132216	8	0.013332	60	10	60-180	60	172	GapPrac	1	11	2	9	0	distractor	1	693	654	25201	13.328	13.117	13.572
DTProbeTrack02	4	ProbeTrack	12.1	SCS215a	20100804.132111	20100804.132222	8	0.013332	60	10	60-180	60	99	GapPrac	1	12	2	3	1	target	1	547	727	25928	13.328	13.293	13.363
DTProbeTrack02	4	ProbeTrack	12.1	SCS215a	20100804.132111	20100804.132228	8	0.013332	60	10	60-180	60	95	GapPrac	1	13	2	9	0	distractor	1	600	700	26628	13.328	12.974	13.647
DTProbeTrack02	4	ProbeTrack	12.1	SCS215a	20100804.132111	20100804.132233	8	0.013332	60	10	60-180	60	107	GapPrac	1	14	2	3	0	distractor	1	440	780	27408	13.328	13.265	13.412
DTProbeTrack02	4	ProbeTrack	12.1	SCS215a	20100804.132111	20100804.132238	8	0.013332	60	10	60-180	60	115	GapPrac	1	15	2	45	1	distractor	0	800	-1000	26408	13.328	13.228	13.460
DTProbeTrack02	4	ProbeTrack	12.1	SCS215a	20100804.132111	20100804.132245	8	0.013332	60	10	60-180	60	176	GapPrac	1	16	2	6	1	target	1	520	740	27148	13.371	13.293	26.650
DTProbeTrack02	4	ProbeTrack	12.1	SCS215a	20100804.132111	20100804.132251	8	0.013332	60	10	60-180	60	157	GapPrac	1	17	2	6	0	target	0	613	-1000	26148	13.328	13.078	13.544
DTProbeTrack02	4	ProbeTrack	12.1	SCS215a	20100804.132111	20100804.132257	8	0.013332	60	10	60-180	60	145	GapPrac	1	18	2	1	0	distractor	1	680	660	26808	13.328	13.032	13.588
DTProbeTrack02	4	ProbeTrack	12.1	SCS215a	20100804.132111	20100804.132303	8	0.013332	60	10	60-180	60	161	GapPrac	1	19	2	3	0	distractor	1	520	740	27548	13.328	13.289	13.366
DTProbeTrack02	4	ProbeTrack	12.1	SCS215a	20100804.132111	20100804.132310	8	0.013332	60	10	60-180	60	86	GapPrac	1	20	2	6	1	target	1	667	667	28215	13.328	13.293	13.363
DTProbeTrack02	4	ProbeTrack	12.1	SCS215a	20100804.132640	20100804.132647	8	0.013327	60	10	60-180	60	180	GapPrac	1	1	2	1	1	target	1	440	780	28995	13.328	13.206	13.416
DTProbeTrack02	4	ProbeTrack	12.1	SCS215a	20100804.132640	20100804.132654	8	0.013327	60	10	60-180	60	129	GapPrac	1	2	2	45	0	target	0	600	-1000	27995	13.328	12.926	13.764
DTProbeTrack02	4	ProbeTrack	12.1	SCS215a	20100804.132640	20100804.132700	8	0.013327	60	10	60-180	60	86	GapPrac	1	3	2	9	0	target	0	587	-1000	26995	13.328	13.293	13.364
DTProbeTrack02	4	ProbeTrack	12.1	SCS215a	20100804.132640	20100804.132705	8	0.013327	60	10	60-180	60	127	GapPrac	1	4	2	1	0	target	0	493	-1000	25995	13.328	13.293	13.363
DTProbeTrack02	4	ProbeTrack	12.1	SCS215a	20100804.132640	20100804.132711	8	0.013327	60	10	60-180	60	112	GapPrac	1	5	2	9	1	target	1	494	753	26748	13.328	12.943	13.713
DTProbeTrack02	4	ProbeTrack	12.1	SCS215a	20100804.132640	20100804.132716	8	0.013327	60	10	60-180	60	141	GapPrac	1	6	2	9	1	target	1	494	753	27501	13.328	13.287	13.368
DTProbeTrack02	4	ProbeTrack	12.1	SCS215a	20100804.132640	20100804.132722	8	0.013327	60	10	60-180	60	163	GapPrac	1	7	2	3	0	distractor	1	627	687	28188	13.328	13.292	13.365
DTProbeTrack02	4	ProbeTrack	12.1	SCS215a	20100804.132640	20100804.132729	8	0.013327	60	10	60-180	60	159	GapPrac	1	8	2	45	1	target	1	827	587	28775	13.328	12.999	13.623
DTProbeTrack02	4	ProbeTrack	12.1	SCS215a	20100804.132640	20100804.132736	8	0.013327	60	10	60-180	60	84	GapPrac	1	9	2	9	0	target	0	1133	-1000	27775	13.328	13.252	13.436
DTProbeTrack02	4	ProbeTrack	12.1	SCS215a	20100804.132640	20100804.132741	8	0.013327	60	10	60-180	60	149	GapPrac	1	10	2	3	1	target	1	400	800	28575	13.328	12.950	13.706
DTProbeTrack02	4	ProbeTrack	12.1	SCS215a	20100804.132640	20100804.132747	8	0.013327	60	10	60-180	60	91	GapPrac	1	11	2	45	1	target	1	427	787	29362	13.328	13.158	13.530
DTProbeTrack02	4	ProbeTrack	12.1	SCS215a	20100804.132640	20100804.132753	8	0.013327	60	10	60-180	60	176	GapPrac	1	12	2	6	1	target	1	600	700	30062	13.370	13.049	26.446
DTProbeTrack02	4	ProbeTrack	12.1	SCS215a	20100804.132640	20100804.132759	8	0.013327	60	10	60-180	60	124	GapPrac	1	13	2	6	1	target	1	640	680	30742	13.328	13.211	13.444
DTProbeTrack02	4	ProbeTrack	12.1	SCS215a	20100804.132640	20100804.132805	8	0.013327	60	10	60-180	60	132	GapPrac	1	14	2	6	0	distractor	1	613	694	31436	13.328	13.245	13.437
DTProbeTrack02	4	ProbeTrack	12.1	SCS215a	20100804.132640	20100804.132811	8	0.013327	60	10	60-180	60	99	GapPrac	1	15	2	3	0	distractor	1	680	660	32096	13.328	13.083	13.571
DTProbeTrack02	4	ProbeTrack	12.1	SCS215a	20100804.132640	20100804.132816	8	0.013327	60	10	60-180	60	163	GapPrac	1	16	2	45	0	distractor	1	680	660	32756	13.328	13.163	13.526
DTProbeTrack02	4	ProbeTrack	12.1	SCS215a	20100804.132640	20100804.132823	8	0.013327	60	10	60-180	60	147	GapPrac	1	17	2	1	0	target	0	747	-1000	31756	13.328	13.249	13.439
DTProbeTrack02	4	ProbeTrack	12.1	SCS215a	20100804.132640	20100804.132829	8	0.013327	60	10	60-180	60	118	GapPrac	1	18	2	6	0	target	0	600	-1000	30756	13.328	13.143	13.529
DTProbeTrack02	4	ProbeTrack	12.1	SCS215a	20100804.132640	20100804.132835	8	0.013327	60	10	60-180	60	86	GapPrac	1	19	2	3	1	target	1	1226	387	31143	13.328	13.141	13.480
DTProbeTrack02	4	ProbeTrack	12.1	SCS215a	20100804.132640	20100804.132841	8	0.013327	60	10	60-180	60	119	GapPrac	1	20	2	1	1	target	1	1080	460	31603	13.328	13.154	13.501
DTProbeTrack02	4	ProbeTrack	12.1	SCS215a	20100804.132949	20100804.133001	8	0.013327	60	10	60-180	60	97	GapExp	1	1	2	6	0	target	0	800	-1000	30603	13.328	13.289	13.363
DTProbeTrack02	4	ProbeTrack	12.1	SCS215a	20100804.132949	20100804.133007	8	0.013327	60	10	60-180	60	96	GapExp	1	2	2	3	0	distractor	1	507	747	31350	13.328	13.293	13.389
DTProbeTrack02	4	ProbeTrack	12.1	SCS215a	20100804.132949	20100804.133012	8	0.013327	60	10	60-180	60	61	GapExp	1	3	2	45	1	target	1	787	607	31957	13.328	13.193	13.461
DTProbeTrack02	4	ProbeTrack	12.1	SCS215a	20100804.132949	20100804.133018	8	0.013327	60	10	60-180	60	121	GapExp	1	4	2	6	1	target	1	480	760	32717	13.327	13.085	13.570
DTProbeTrack02	4	ProbeTrack	12.1	SCS215a	20100804.132949	20100804.133023	8	0.013327	60	10	60-180	60	69	GapExp	1	5	2	45	0	distractor	1	680	660	33377	13.328	13.247	13.408
DTProbeTrack02	4	ProbeTrack	12.1	SCS215a	20100804.132949	20100804.133029	8	0.013327	60	10	60-180	60	103	GapExp	0	6	2	3	1	target	1	907	547	33924	13.328	13.136	13.520
DTProbeTrack02	4	ProbeTrack	12.1	SCS215a	20100804.132949	20100804.133035	8	0.013327	60	10	60-180	60	67	GapExp	0	7	2	45	0	target	0	1160	-1000	32924	13.328	13.293	13.365
DTProbeTrack02	4	ProbeTrack	12.1	SCS215a	20100804.132949	20100804.133041	8	0.013327	60	10	60-180	60	158	GapExp	0	8	2	9	1	target	1	760	620	33544	13.328	13.249	13.406
DTProbeTrack02	4	ProbeTrack	12.1	SCS215a	20100804.132949	20100804.133047	8	0.013327	60	10	60-180	60	160	GapExp	0	9	2	3	0	target	0	1133	-1000	32544	13.328	13.202	13.488
DTProbeTrack02	4	ProbeTrack	12.1	SCS215a	20100804.132949	20100804.133054	8	0.013327	60	10	60-180	60	130	GapExp	0	10	2	6	1	target	1	1080	460	33004	13.328	13.293	13.363
DTProbeTrack02	4	ProbeTrack	12.1	SCS215a	20100804.132949	20100804.133100	8	0.013327	60	10	60-180	60	152	GapExp	0	11	2	3	0	distractor	1	893	554	33558	13.328	13.113	13.543
DTProbeTrack02	4	ProbeTrack	12.1	SCS215a	20100804.132949	20100804.133107	8	0.013327	60	10	60-180	60	176	GapExp	0	12	2	1	1	target	1	480	760	34318	13.328	13.293	13.366
DTProbeTrack02	4	ProbeTrack	12.1	SCS215a	20100804.132949	20100804.133113	8	0.013327	60	10	60-180	60	124	GapExp	0	13	2	45	1	target	1	600	700	35018	13.328	13.292	13.363
DTProbeTrack02	4	ProbeTrack	12.1	SCS215a	20100804.132949	20100804.133119	8	0.013327	60	10	60-180	60	136	GapExp	0	14	2	9	1	distractor	0	1853	-1000	34018	13.328	12.961	13.728
DTProbeTrack02	4	ProbeTrack	12.1	SCS215a	20100804.132949	20100804.133126	8	0.013327	60	10	60-180	60	149	GapExp	0	15	2	3	0	target	0	254	-1000	33018	13.328	13.259	13.396
DTProbeTrack02	4	ProbeTrack	12.1	SCS215a	20100804.132949	20100804.133132	8	0.013327	60	10	60-180	60	87	GapExp	0	16	2	45	0	distractor	1	813	594	33612	13.328	13.122	13.533
DTProbeTrack02	4	ProbeTrack	12.1	SCS215a	20100804.132949	20100804.133138	8	0.013327	60	10	60-180	60	77	GapExp	0	17	2	1	1	target	1	2866	0	33612	13.328	13.293	13.363
DTProbeTrack02	4	ProbeTrack	12.1	SCS215a	20100804.132949	20100804.133145	8	0.013327	60	10	60-180	60	107	GapExp	0	18	2	45	0	target	0	454	-1000	32612	13.328	13.253	13.402
DTProbeTrack02	4	ProbeTrack	12.1	SCS215a	20100804.132949	20100804.133151	8	0.013327	60	10	60-180	60	175	GapExp	0	19	2	9	0	distractor	1	494	753	33365	13.328	13.289	13.363
DTProbeTrack02	4	ProbeTrack	12.1	SCS215a	20100804.132949	20100804.133157	8	0.013327	60	10	60-180	60	61	GapExp	0	20	2	1	0	distractor	1	960	520	33885	13.327	13.285	13.370
DTProbeTrack02	4	ProbeTrack	12.1	SCS215a	20100804.132949	20100804.133203	8	0.013327	60	10	60-180	60	142	GapExp	0	21	2	6	0	target	0	507	-1000	32885	13.328	13.220	13.401
DTProbeTrack02	4	ProbeTrack	12.1	SCS215a	20100804.132949	20100804.133209	8	0.013327	60	10	60-180	60	89	GapExp	0	22	2	3	1	target	1	560	720	33605	13.328	13.198	13.457
DTProbeTrack02	4	ProbeTrack	12.1	SCS215a	20100804.132949	20100804.133214	8	0.013327	60	10	60-180	60	64	GapExp	0	23	2	6	1	target	1	907	547	34152	13.328	13.234	13.388
DTProbeTrack02	4	ProbeTrack	12.1	SCS215a	20100804.132949	20100804.133219	8	0.013327	60	10	60-180	60	160	GapExp	0	24	2	45	1	distractor	0	627	-1000	33152	13.328	13.124	13.532
DTProbeTrack02	4	ProbeTrack	12.1	SCS215a	20100804.132949	20100804.133226	8	0.013327	60	10	60-180	60	167	GapExp	0	25	2	45	1	target	1	-13	1007	34159	13.328	13.282	13.372
DTProbeTrack02	4	ProbeTrack	12.1	SCS215a	20100804.132949	20100804.133232	8	0.013327	60	10	60-180	60	180	GapExp	0	26	2	6	1	target	1	720	640	34799	13.328	13.258	13.431
DTProbeTrack02	4	ProbeTrack	12.1	SCS215a	20100804.132949	20100804.133239	8	0.013327	60	10	60-180	60	118	GapExp	0	27	2	1	0	distractor	1	600	700	35499	13.328	13.167	13.454
DTProbeTrack02	4	ProbeTrack	12.1	SCS215a	20100804.132949	20100804.133244	8	0.013327	60	10	60-180	60	103	GapExp	0	28	2	9	0	distractor	1	707	647	36146	13.328	13.197	13.457
DTProbeTrack02	4	ProbeTrack	12.1	SCS215a	20100804.132949	20100804.133250	8	0.013327	60	10	60-180	60	152	GapExp	0	29	2	1	1	target	1	800	600	36746	13.328	13.233	13.422
DTProbeTrack02	4	ProbeTrack	12.1	SCS215a	20100804.132949	20100804.133256	8	0.013327	60	10	60-180	60	132	GapExp	0	30	2	9	1	target	1	667	667	37413	13.328	13.289	13.363
DTProbeTrack02	4	ProbeTrack	12.1	SCS215a	20100804.132949	20100804.133302	8	0.013327	60	10	60-180	60	118	GapExp	0	31	2	6	1	target	1	2226	0	37413	13.328	13.257	13.397
DTProbeTrack02	4	ProbeTrack	12.1	SCS215a	20100804.132949	20100804.133309	8	0.013327	60	10	60-180	60	135	GapExp	0	32	2	3	1	target	1	694	653	38066	13.328	13.105	13.533
DTProbeTrack02	4	ProbeTrack	12.1	SCS215a	20100804.132949	20100804.133315	8	0.013327	60	10	60-180	60	138	GapExp	0	33	2	6	0	target	0	454	-1000	37066	13.328	13.292	13.363
DTProbeTrack02	4	ProbeTrack	12.1	SCS215a	20100804.132949	20100804.133321	8	0.013327	60	10	60-180	60	131	GapExp	0	34	2	3	1	target	1	587	707	37773	13.328	13.293	13.363
DTProbeTrack02	4	ProbeTrack	12.1	SCS215a	20100804.132949	20100804.133327	8	0.013327	60	10	60-180	60	85	GapExp	0	35	2	9	0	distractor	1	1187	407	38180	13.328	13.293	13.363
DTProbeTrack02	4	ProbeTrack	12.1	SCS215a	20100804.132949	20100804.133332	8	0.013327	60	10	60-180	60	140	GapExp	0	36	2	6	0	distractor	1	507	747	38927	13.328	13.274	13.416
DTProbeTrack02	4	ProbeTrack	12.1	SCS215a	20100804.132949	20100804.133338	8	0.013327	60	10	60-180	60	73	GapExp	0	37	2	3	0	distractor	1	547	727	39654	13.328	13.293	13.363
DTProbeTrack02	4	ProbeTrack	12.1	SCS215a	20100804.132949	20100804.133343	8	0.013327	60	10	60-180	60	87	GapExp	0	38	2	6	1	distractor	0	733	-1000	38654	13.328	13.293	13.363
DTProbeTrack02	4	ProbeTrack	12.1	SCS215a	20100804.132949	20100804.133349	8	0.013327	60	10	60-180	60	162	GapExp	0	39	2	3	0	distractor	1	667	667	39321	13.328	13.292	13.366
DTProbeTrack02	4	ProbeTrack	12.1	SCS215a	20100804.132949	20100804.133355	8	0.013327	60	10	60-180	60	97	GapExp	0	40	2	3	1	target	1	640	680	40001	13.328	13.237	13.418
DTProbeTrack02	4	ProbeTrack	12.1	SCS215a	20100804.132949	20100804.133400	8	0.013327	60	10	60-180	60	100	GapExp	0	41	2	9	1	target	1	600	700	40701	13.328	13.100	13.554
DTProbeTrack02	4	ProbeTrack	12.1	SCS215a	20100804.132949	20100804.133406	8	0.013327	60	10	60-180	60	133	GapExp	0	42	2	45	0	distractor	1	520	740	41441	13.328	13.293	13.363
DTProbeTrack02	4	ProbeTrack	12.1	SCS215a	20100804.132949	20100804.133412	8	0.013327	60	10	60-180	60	69	GapExp	0	43	2	6	1	distractor	0	1080	-1000	40441	13.328	13.006	13.650
DTProbeTrack02	4	ProbeTrack	12.1	SCS215a	20100804.132949	20100804.133418	8	0.013327	60	10	60-180	60	139	GapExp	0	44	2	6	1	target	1	400	800	41241	13.328	13.293	13.363
DTProbeTrack02	4	ProbeTrack	12.1	SCS215a	20100804.132949	20100804.133423	8	0.013327	60	10	60-180	60	127	GapExp	0	45	2	3	1	target	1	534	733	41974	13.328	13.199	13.423
DTProbeTrack02	4	ProbeTrack	12.1	SCS215a	20100804.132949	20100804.133429	8	0.013327	60	10	60-180	60	69	GapExp	0	46	2	3	1	target	1	720	640	42614	13.328	13.207	13.413
DTProbeTrack02	4	ProbeTrack	12.1	SCS215a	20100804.132949	20100804.133434	8	0.013327	60	10	60-180	60	158	GapExp	0	47	2	3	1	target	1	640	680	43294	13.328	13.293	13.363
DTProbeTrack02	4	ProbeTrack	12.1	SCS215a	20100804.132949	20100804.133440	8	0.013327	60	10	60-180	60	145	GapExp	0	48	2	1	0	target	0	973	-1000	42294	13.328	13.271	13.385
DTProbeTrack02	4	ProbeTrack	12.1	SCS215a	20100804.132949	20100804.133446	8	0.013327	60	10	60-180	60	149	GapExp	0	49	2	9	0	target	0	1053	-1000	41294	13.328	13.273	13.363
DTProbeTrack02	4	ProbeTrack	12.1	SCS215a	20100804.132949	20100804.133453	8	0.013327	60	10	60-180	60	67	GapExp	0	50	2	3	1	target	1	733	634	41928	13.328	13.175	13.480
DTProbeTrack02	4	ProbeTrack	12.1	SCS215a	20100804.132949	20100804.133517	8	0.013327	60	10	60-180	60	165	GapExp	0	51	2	3	1	target	1	587	707	42635	13.328	13.101	13.586
DTProbeTrack02	4	ProbeTrack	12.1	SCS215a	20100804.132949	20100804.133523	8	0.013327	60	10	60-180	60	64	GapExp	0	52	2	1	1	distractor	0	920	-1000	41635	13.327	13.176	13.481
DTProbeTrack02	4	ProbeTrack	12.1	SCS215a	20100804.132949	20100804.133528	8	0.013327	60	10	60-180	60	114	GapExp	0	53	2	3	0	distractor	1	827	587	42222	13.328	13.293	13.363
DTProbeTrack02	4	ProbeTrack	12.1	SCS215a	20100804.132949	20100804.133534	8	0.013327	60	10	60-180	60	93	GapExp	0	54	2	1	0	distractor	1	627	687	42909	13.328	13.119	13.536
DTProbeTrack02	4	ProbeTrack	12.1	SCS215a	20100804.132949	20100804.133539	8	0.013327	60	10	60-180	60	138	GapExp	0	55	2	1	0	target	0	1173	-1000	41909	13.328	13.256	13.400
DTProbeTrack02	4	ProbeTrack	12.1	SCS215a	20100804.132949	20100804.133546	8	0.013327	60	10	60-180	60	96	GapExp	0	56	2	1	0	distractor	1	600	700	42609	13.327	13.293	13.363
DTProbeTrack02	4	ProbeTrack	12.1	SCS215a	20100804.132949	20100804.133551	8	0.013327	60	10	60-180	60	85	GapExp	0	57	2	45	0	target	0	80	-1000	41609	13.328	13.292	13.363
DTProbeTrack02	4	ProbeTrack	12.1	SCS215a	20100804.132949	20100804.133556	8	0.013327	60	10	60-180	60	164	GapExp	0	58	2	3	1	distractor	0	893	-1000	40609	13.328	13.165	13.456
DTProbeTrack02	4	ProbeTrack	12.1	SCS215a	20100804.132949	20100804.133603	8	0.013327	60	10	60-180	60	177	GapExp	0	59	2	6	0	distractor	1	534	733	41342	13.328	13.285	13.371
DTProbeTrack02	4	ProbeTrack	12.1	SCS215a	20100804.132949	20100804.133609	8	0.013327	60	10	60-180	60	148	GapExp	0	60	2	45	1	target	1	1720	140	41482	13.328	13.293	13.363
DTProbeTrack02	4	ProbeTrack	12.1	SCS215a	20100804.132949	20100804.133617	8	0.013327	60	10	60-180	60	139	GapExp	0	61	2	6	0	distractor	1	560	720	42202	13.328	13.293	13.363
DTProbeTrack02	4	ProbeTrack	12.1	SCS215a	20100804.132949	20100804.133623	8	0.013327	60	10	60-180	60	144	GapExp	0	62	2	45	1	target	1	507	747	42949	13.328	13.292	13.363
DTProbeTrack02	4	ProbeTrack	12.1	SCS215a	20100804.132949	20100804.133629	8	0.013327	60	10	60-180	60	125	GapExp	0	63	2	3	0	distractor	1	547	727	43676	13.328	13.107	13.514
DTProbeTrack02	4	ProbeTrack	12.1	SCS215a	20100804.132949	20100804.133635	8	0.013327	60	10	60-180	60	151	GapExp	0	64	2	9	1	target	1	747	627	44303	13.328	13.207	13.448
DTProbeTrack02	4	ProbeTrack	12.1	SCS215a	20100804.132949	20100804.133641	8	0.013327	60	10	60-180	60	105	GapExp	0	65	2	6	0	target	0	813	-1000	43303	13.328	13.147	13.508
DTProbeTrack02	4	ProbeTrack	12.1	SCS215a	20100804.132949	20100804.133647	8	0.013327	60	10	60-180	60	127	GapExp	0	66	2	3	0	distractor	1	653	674	43977	13.328	13.293	13.363
DTProbeTrack02	4	ProbeTrack	12.1	SCS215a	20100804.132949	20100804.133652	8	0.013327	60	10	60-180	60	103	GapExp	0	67	2	1	1	target	1	1906	47	44024	13.327	13.262	13.363
DTProbeTrack02	4	ProbeTrack	12.1	SCS215a	20100804.132949	20100804.133659	8	0.013327	60	10	60-180	60	159	GapExp	0	68	2	1	0	distractor	1	1200	400	44424	13.328	13.293	13.363
DTProbeTrack02	4	ProbeTrack	12.1	SCS215a	20100804.132949	20100804.133706	8	0.013327	60	10	60-180	60	126	GapExp	0	69	2	9	1	target	1	520	740	45164	13.328	13.293	13.363
DTProbeTrack02	4	ProbeTrack	12.1	SCS215a	20100804.132949	20100804.133712	8	0.013327	60	10	60-180	60	101	GapExp	0	70	2	9	0	distractor	1	800	600	45764	13.328	13.291	13.363
DTProbeTrack02	4	ProbeTrack	12.1	SCS215a	20100804.132949	20100804.133717	8	0.013327	60	10	60-180	60	62	GapExp	0	71	2	6	0	distractor	1	707	647	46411	13.328	13.293	13.363
DTProbeTrack02	4	ProbeTrack	12.1	SCS215a	20100804.132949	20100804.133722	8	0.013327	60	10	60-180	60	145	GapExp	0	72	2	1	0	target	0	1840	-1000	45411	13.328	13.021	13.634
DTProbeTrack02	4	ProbeTrack	12.1	SCS215a	20100804.132949	20100804.133730	8	0.013327	60	10	60-180	60	103	GapExp	0	73	2	1	1	target	1	773	614	46025	13.328	13.174	13.449
DTProbeTrack02	4	ProbeTrack	12.1	SCS215a	20100804.132949	20100804.133735	8	0.013327	60	10	60-180	60	112	GapExp	0	74	2	1	1	target	1	454	773	46798	13.328	13.246	13.376
DTProbeTrack02	4	ProbeTrack	12.1	SCS215a	20100804.132949	20100804.133740	8	0.013327	60	10	60-180	60	151	GapExp	0	75	2	9	0	target	0	880	-1000	45798	13.328	13.293	13.363
DTProbeTrack02	4	ProbeTrack	12.1	SCS215a	20100804.132949	20100804.133747	8	0.013327	60	10	60-180	60	139	GapExp	0	76	2	9	0	distractor	1	627	687	46485	13.328	13.130	13.558
DTProbeTrack02	4	ProbeTrack	12.1	SCS215a	20100804.132949	20100804.133753	8	0.013327	60	10	60-180	60	111	GapExp	0	77	2	6	0	distractor	1	520	740	47225	13.328	13.293	13.363
DTProbeTrack02	4	ProbeTrack	12.1	SCS215a	20100804.132949	20100804.133758	8	0.013327	60	10	60-180	60	101	GapExp	0	78	2	45	1	target	1	507	747	47972	13.328	13.202	13.452
DTProbeTrack02	4	ProbeTrack	12.1	SCS215a	20100804.132949	20100804.133804	8	0.013327	60	10	60-180	60	116	GapExp	0	79	2	6	0	target	0	1186	-1000	46972	13.328	13.289	13.363
DTProbeTrack02	4	ProbeTrack	12.1	SCS215a	20100804.132949	20100804.133810	8	0.013327	60	10	60-180	60	119	GapExp	0	80	2	45	1	target	1	547	727	47699	13.328	13.152	13.505
DTProbeTrack02	4	ProbeTrack	12.1	SCS215a	20100804.132949	20100804.133817	8	0.013327	60	10	60-180	60	123	GapExp	0	81	2	45	0	target	0	1480	-1000	46699	13.328	13.073	13.583
DTProbeTrack02	4	ProbeTrack	12.1	SCS215a	20100804.132949	20100804.133824	8	0.013327	60	10	60-180	60	101	GapExp	0	82	2	9	1	target	1	1146	427	47126	13.328	13.178	13.507
DTProbeTrack02	4	ProbeTrack	12.1	SCS215a	20100804.132949	20100804.133830	8	0.013327	60	10	60-180	60	94	GapExp	0	83	2	1	0	target	0	813	-1000	46126	13.328	13.292	13.363
DTProbeTrack02	4	ProbeTrack	12.1	SCS215a	20100804.132949	20100804.133835	8	0.013327	60	10	60-180	60	170	GapExp	0	84	2	3	0	distractor	1	640	680	46806	13.328	13.244	13.445
DTProbeTrack02	4	ProbeTrack	12.1	SCS215a	20100804.132949	20100804.133842	8	0.013327	60	10	60-180	60	84	GapExp	0	85	2	6	1	distractor	0	760	-1000	45806	13.328	13.065	13.557
DTProbeTrack02	4	ProbeTrack	12.1	SCS215a	20100804.132949	20100804.133847	8	0.013327	60	10	60-180	60	61	GapExp	0	86	2	6	1	target	1	1001	500	46306	13.328	13.239	13.451
DTProbeTrack02	4	ProbeTrack	12.1	SCS215a	20100804.132949	20100804.133852	8	0.013327	60	10	60-180	60	101	GapExp	0	87	2	1	0	distractor	1	1160	420	46726	13.328	13.293	13.363
DTProbeTrack02	4	ProbeTrack	12.1	SCS215a	20100804.132949	20100804.133858	8	0.013327	60	10	60-180	60	170	GapExp	0	88	2	45	0	target	0	840	-1000	45726	13.328	13.293	13.363
DTProbeTrack02	4	ProbeTrack	12.1	SCS215a	20100804.132949	20100804.133905	8	0.013327	60	10	60-180	60	86	GapExp	0	89	2	6	1	distractor	0	947	-1000	44726	13.328	13.293	13.363
DTProbeTrack02	4	ProbeTrack	12.1	SCS215a	20100804.132949	20100804.133911	8	0.013327	60	10	60-180	60	128	GapExp	0	90	2	3	1	target	1	720	640	45366	13.328	13.150	13.506
DTProbeTrack02	4	ProbeTrack	12.1	SCS215a	20100804.132949	20100804.133917	8	0.013327	60	10	60-180	60	159	GapExp	0	91	2	6	1	target	1	440	780	46146	13.328	13.293	13.363
DTProbeTrack02	4	ProbeTrack	12.1	SCS215a	20100804.132949	20100804.133923	8	0.013327	60	10	60-180	60	142	GapExp	0	92	2	9	0	distractor	1	867	567	46713	13.328	13.200	13.489
DTProbeTrack02	4	ProbeTrack	12.1	SCS215a	20100804.132949	20100804.133929	8	0.013327	60	10	60-180	60	116	GapExp	0	93	2	9	1	target	1	2066	0	46713	13.328	13.292	13.373
DTProbeTrack02	4	ProbeTrack	12.1	SCS215a	20100804.132949	20100804.133936	8	0.013327	60	10	60-180	60	111	GapExp	0	94	2	45	1	target	1	747	627	47340	13.328	13.292	13.363
DTProbeTrack02	4	ProbeTrack	12.1	SCS215a	20100804.132949	20100804.133942	8	0.013327	60	10	60-180	60	138	GapExp	0	95	2	45	0	target	0	653	-1000	46340	13.328	13.191	13.431
DTProbeTrack02	4	ProbeTrack	12.1	SCS215a	20100804.132949	20100804.133949	8	0.013327	60	10	60-180	60	67	GapExp	0	96	2	9	1	target	1	1800	100	46440	13.328	13.293	13.364
DTProbeTrack02	4	ProbeTrack	12.1	SCS215a	20100804.132949	20100804.133955	8	0.013327	60	10	60-180	60	137	GapExp	0	97	2	3	1	target	1	1093	454	46894	13.328	13.189	13.467
DTProbeTrack02	4	ProbeTrack	12.1	SCS215a	20100804.132949	20100804.134001	8	0.013327	60	10	60-180	60	103	GapExp	0	98	2	6	0	target	0	454	-1000	45894	13.327	13.290	13.363
DTProbeTrack02	4	ProbeTrack	12.1	SCS215a	20100804.132949	20100804.134007	8	0.013327	60	10	60-180	60	149	GapExp	0	99	2	45	0	target	0	400	-1000	44894	13.328	13.234	13.421
DTProbeTrack02	4	ProbeTrack	12.1	SCS215a	20100804.132949	20100804.134013	8	0.013327	60	10	60-180	60	96	GapExp	0	100	2	3	0	target	0	1293	-1000	43894	13.327	13.228	13.394
DTProbeTrack02	4	ProbeTrack	12.1	SCS215a	20100804.132949	20100804.134100	8	0.013327	60	10	60-180	60	158	GapExp	0	101	2	1	1	target	1	547	727	44621	13.328	13.292	13.363
DTProbeTrack02	4	ProbeTrack	12.1	SCS215a	20100804.132949	20100804.134106	8	0.013327	60	10	60-180	60	138	GapExp	0	102	2	9	0	target	0	494	-1000	43621	13.328	13.230	13.392
DTProbeTrack02	4	ProbeTrack	12.1	SCS215a	20100804.132949	20100804.134112	8	0.013327	60	10	60-180	60	80	GapExp	0	103	2	9	1	target	1	467	767	44388	13.328	13.292	13.368
DTProbeTrack02	4	ProbeTrack	12.1	SCS215a	20100804.132949	20100804.134117	8	0.013327	60	10	60-180	60	102	GapExp	0	104	2	3	1	distractor	0	707	-1000	43388	13.328	13.293	13.363
DTProbeTrack02	4	ProbeTrack	12.1	SCS215a	20100804.132949	20100804.134123	8	0.013327	60	10	60-180	60	151	GapExp	0	105	2	45	1	target	1	454	773	44161	13.328	13.278	13.377
DTProbeTrack02	4	ProbeTrack	12.1	SCS215a	20100804.132949	20100804.134129	8	0.013327	60	10	60-180	60	131	GapExp	0	106	2	9	0	distractor	1	747	627	44788	13.328	13.278	13.411
DTProbeTrack02	4	ProbeTrack	12.1	SCS215a	20100804.132949	20100804.134135	8	0.013327	60	10	60-180	60	173	GapExp	0	107	2	6	1	target	1	707	647	45435	13.328	13.151	13.505
DTProbeTrack02	4	ProbeTrack	12.1	SCS215a	20100804.132949	20100804.134142	8	0.013327	60	10	60-180	60	173	GapExp	0	108	2	9	1	target	1	587	707	46142	13.328	13.164	13.494
DTProbeTrack02	4	ProbeTrack	12.1	SCS215a	20100804.132949	20100804.134148	8	0.013327	60	10	60-180	60	138	GapExp	0	109	2	1	1	target	1	947	527	46669	13.328	13.293	13.363
DTProbeTrack02	4	ProbeTrack	12.1	SCS215a	20100804.132949	20100804.134154	8	0.013327	60	10	60-180	60	64	GapExp	0	110	2	45	0	distractor	1	800	600	47269	13.328	13.293	13.363
DTProbeTrack02	4	ProbeTrack	12.1	SCS215a	20100804.132949	20100804.134200	8	0.013327	60	10	60-180	60	137	GapExp	0	111	2	3	1	target	1	454	773	48042	13.328	13.292	13.363
DTProbeTrack02	4	ProbeTrack	12.1	SCS215a	20100804.132949	20100804.134206	8	0.013327	60	10	60-180	60	102	GapExp	0	112	2	3	0	distractor	1	680	660	48702	13.328	13.226	13.429
DTProbeTrack02	4	ProbeTrack	12.1	SCS215a	20100804.132949	20100804.134211	8	0.013327	60	10	60-180	60	108	GapExp	0	113	2	9	0	distractor	1	707	647	49349	13.328	13.133	13.488
DTProbeTrack02	4	ProbeTrack	12.1	SCS215a	20100804.132949	20100804.134217	8	0.013327	60	10	60-180	60	116	GapExp	0	114	2	9	0	distractor	1	1040	480	49829	13.328	13.236	13.451
DTProbeTrack02	4	ProbeTrack	12.1	SCS215a	20100804.132949	20100804.134223	8	0.013327	60	10	60-180	60	104	GapExp	0	115	2	45	0	distractor	1	547	727	50556	13.328	12.938	13.750
DTProbeTrack02	4	ProbeTrack	12.1	SCS215a	20100804.132949	20100804.134229	8	0.013327	60	10	60-180	60	166	GapExp	0	116	2	3	0	target	0	1573	-1000	49556	13.328	13.111	13.544
DTProbeTrack02	4	ProbeTrack	12.1	SCS215a	20100804.132949	20100804.134236	8	0.013327	60	10	60-180	60	75	GapExp	0	117	2	1	1	distractor	0	640	-1000	48556	13.327	13.070	13.586
DTProbeTrack02	4	ProbeTrack	12.1	SCS215a	20100804.132949	20100804.134241	8	0.013327	60	10	60-180	60	93	GapExp	0	118	2	3	1	target	1	560	720	49276	13.328	13.289	13.363
DTProbeTrack02	4	ProbeTrack	12.1	SCS215a	20100804.132949	20100804.134246	8	0.013327	60	10	60-180	60	62	GapExp	0	119	2	1	0	target	0	747	-1000	48276	13.328	13.227	13.427
DTProbeTrack02	4	ProbeTrack	12.1	SCS215a	20100804.132949	20100804.134251	8	0.013327	60	10	60-180	60	148	GapExp	0	120	2	45	0	distractor	1	893	554	48830	13.328	13.074	13.547
DTProbeTrack02	4	ProbeTrack	12.1	SCS215a	20100804.132949	20100804.134258	8	0.013327	60	10	60-180	60	155	GapExp	0	121	2	6	0	target	0	1146	-1000	47830	13.328	13.148	13.539
DTProbeTrack02	4	ProbeTrack	12.1	SCS215a	20100804.132949	20100804.134305	8	0.013327	60	10	60-180	60	137	GapExp	0	122	2	9	1	target	1	907	547	48377	13.328	13.293	13.363
DTProbeTrack02	4	ProbeTrack	12.1	SCS215a	20100804.132949	20100804.134311	8	0.013327	60	10	60-180	60	78	GapExp	0	123	2	9	1	target	1	987	507	48884	13.328	13.193	13.496
DTProbeTrack02	4	ProbeTrack	12.1	SCS215a	20100804.132949	20100804.134317	8	0.013327	60	10	60-180	60	87	GapExp	0	124	2	1	1	target	1	547	727	49611	13.328	13.293	13.363
DTProbeTrack02	4	ProbeTrack	12.1	SCS215a	20100804.132949	20100804.134322	8	0.013327	60	10	60-180	60	67	GapExp	0	125	2	6	1	target	1	494	753	50364	13.328	13.293	13.363
DTProbeTrack02	4	ProbeTrack	12.1	SCS215a	20100804.132949	20100804.134326	8	0.013327	60	10	60-180	60	137	GapExp	0	126	2	6	1	target	1	1227	387	50751	13.328	13.100	13.555
DTProbeTrack02	4	ProbeTrack	12.1	SCS215a	20100804.132949	20100804.134333	8	0.013327	60	10	60-180	60	169	GapExp	0	127	2	9	1	target	1	507	747	51498	13.328	13.293	13.364
DTProbeTrack02	4	ProbeTrack	12.1	SCS215a	20100804.132949	20100804.134339	8	0.013327	60	10	60-180	60	87	GapExp	0	128	2	6	1	target	1	507	747	52245	13.327	13.289	13.366
DTProbeTrack02	4	ProbeTrack	12.1	SCS215a	20100804.132949	20100804.134344	8	0.013327	60	10	60-180	60	151	GapExp	0	129	2	45	1	target	1	547	727	52972	13.328	13.277	13.379
DTProbeTrack02	4	ProbeTrack	12.1	SCS215a	20100804.132949	20100804.134351	8	0.013327	60	10	60-180	60	110	GapExp	0	130	2	1	0	distractor	1	1786	107	53079	13.328	13.233	13.456
DTProbeTrack02	4	ProbeTrack	12.1	SCS215a	20100804.132949	20100804.134358	8	0.013327	60	10	60-180	60	77	GapExp	0	131	2	1	1	target	1	693	654	53733	13.327	13.293	13.363
DTProbeTrack02	4	ProbeTrack	12.1	SCS215a	20100804.132949	20100804.134403	8	0.013327	60	10	60-180	60	142	GapExp	0	132	2	9	1	distractor	0	1027	-1000	52733	13.328	13.292	13.363
DTProbeTrack02	4	ProbeTrack	12.1	SCS215a	20100804.132949	20100804.134409	8	0.013327	60	10	60-180	60	62	GapExp	0	133	2	3	0	target	0	3639	-1000	51733	13.328	13.150	13.471
DTProbeTrack02	4	ProbeTrack	12.1	SCS215a	20100804.132949	20100804.134417	8	0.013327	60	10	60-180	60	66	GapExp	0	134	2	6	0	target	0	1027	-1000	50733	13.328	13.145	13.510
DTProbeTrack02	4	ProbeTrack	12.1	SCS215a	20100804.132949	20100804.134422	8	0.013327	60	10	60-180	60	180	GapExp	0	135	2	45	1	target	1	813	594	51327	13.328	13.155	13.501
DTProbeTrack02	4	ProbeTrack	12.1	SCS215a	20100804.132949	20100804.134430	8	0.013327	60	10	60-180	60	174	GapExp	0	136	2	9	0	target	0	600	-1000	50327	13.328	13.270	13.421
DTProbeTrack02	4	ProbeTrack	12.1	SCS215a	20100804.132949	20100804.134436	8	0.013327	60	10	60-180	60	138	GapExp	0	137	2	9	0	distractor	1	1107	447	50774	13.328	12.993	13.628
DTProbeTrack02	4	ProbeTrack	12.1	SCS215a	20100804.132949	20100804.134443	8	0.013327	60	10	60-180	60	106	GapExp	0	138	2	6	0	distractor	1	1013	494	51268	13.328	12.987	13.635
DTProbeTrack02	4	ProbeTrack	12.1	SCS215a	20100804.132949	20100804.134448	8	0.013327	60	10	60-180	60	131	GapExp	0	139	2	3	1	target	1	520	740	52008	13.328	13.214	13.472
DTProbeTrack02	4	ProbeTrack	12.1	SCS215a	20100804.132949	20100804.134454	8	0.013327	60	10	60-180	60	64	GapExp	0	140	2	1	1	target	1	1120	440	52448	13.328	13.098	13.591
DTProbeTrack02	4	ProbeTrack	12.1	SCS215a	20100804.132949	20100804.134500	8	0.013327	60	10	60-180	60	87	GapExp	0	141	2	9	0	target	0	840	-1000	51448	13.328	13.293	13.363
DTProbeTrack02	4	ProbeTrack	12.1	SCS215a	20100804.132949	20100804.134505	8	0.013327	60	10	60-180	60	122	GapExp	0	142	2	45	1	distractor	0	614	-1000	50448	13.328	13.150	13.539
DTProbeTrack02	4	ProbeTrack	12.1	SCS215a	20100804.132949	20100804.134511	8	0.013327	60	10	60-180	60	165	GapExp	0	143	2	45	1	target	1	960	520	50968	13.328	13.098	13.557
DTProbeTrack02	4	ProbeTrack	12.1	SCS215a	20100804.132949	20100804.134518	8	0.013327	60	10	60-180	60	146	GapExp	0	144	2	6	0	target	0	454	-1000	49968	13.328	13.150	13.539
DTProbeTrack02	4	ProbeTrack	12.1	SCS215a	20100804.132949	20100804.134524	8	0.013327	60	10	60-180	60	118	GapExp	0	145	2	1	0	target	0	1253	-1000	48968	13.328	12.940	13.716
DTProbeTrack02	4	ProbeTrack	12.1	SCS215a	20100804.132949	20100804.134531	8	0.013327	60	10	60-180	60	65	GapExp	0	146	2	3	1	target	1	507	747	49715	13.328	13.155	13.501
DTProbeTrack02	4	ProbeTrack	12.1	SCS215a	20100804.132949	20100804.134535	8	0.013327	60	10	60-180	60	151	GapExp	0	147	2	45	1	target	1	960	520	50235	13.328	13.171	13.519
DTProbeTrack02	4	ProbeTrack	12.1	SCS215a	20100804.132949	20100804.134542	8	0.013327	60	10	60-180	60	94	GapExp	0	148	2	1	0	83	-3	10036	-1000	49235	13.328	13.147	13.507
DTProbeTrack02	4	ProbeTrack	12.1	SCS215a	20100804.132949	20100804.134557	8	0.013327	60	10	60-180	60	109	GapExp	0	149	2	1	1	target	1	987	507	49742	13.328	13.129	13.492
DTProbeTrack02	4	ProbeTrack	12.1	SCS215a	20100804.132949	20100804.134603	8	0.013327	60	10	60-180	60	147	GapExp	0	150	2	1	1	target	1	747	627	50369	13.328	13.288	13.363
DTProbeTrack02	4	ProbeTrack	12.1	SCS215a	20100804.132949	20100804.134651	8	0.013327	60	10	60-180	60	143	GapExp	0	151	2	1	1	target	1	813	594	50963	13.420	13.279	39.888
DTProbeTrack02	4	ProbeTrack	12.1	SCS215a	20100804.132949	20100804.134657	8	0.013327	60	10	60-180	60	167	GapExp	0	152	2	1	0	target	0	480	-1000	49963	13.328	13.039	13.616
DTProbeTrack02	4	ProbeTrack	12.1	SCS215a	20100804.132949	20100804.134703	8	0.013327	60	10	60-180	60	151	GapExp	0	153	2	45	1	target	1	507	747	50710	13.328	13.292	13.364
DTProbeTrack02	4	ProbeTrack	12.1	SCS215a	20100804.132949	20100804.134710	8	0.013327	60	10	60-180	60	160	GapExp	0	154	2	3	0	target	0	534	-1000	49710	13.557	12.842	26.641
DTProbeTrack02	4	ProbeTrack	12.1	SCS215a	20100804.132949	20100804.134716	8	0.013327	60	10	60-180	60	169	GapExp	0	155	2	3	0	distractor	1	520	740	50450	13.328	13.293	13.363
DTProbeTrack02	4	ProbeTrack	12.1	SCS215a	20100804.132949	20100804.134722	8	0.013327	60	10	60-180	60	171	GapExp	0	156	2	45	1	target	1	1426	287	50737	13.328	13.084	13.571
DTProbeTrack02	4	ProbeTrack	12.1	SCS215a	20100804.132949	20100804.134730	8	0.013327	60	10	60-180	60	109	GapExp	0	157	2	45	0	target	0	1306	-1000	49737	13.328	13.289	13.363
DTProbeTrack02	4	ProbeTrack	12.1	SCS215a	20100804.132949	20100804.134737	8	0.013327	60	10	60-180	60	163	GapExp	0	158	2	6	1	target	1	1173	414	50151	13.328	13.236	13.421
DTProbeTrack02	4	ProbeTrack	12.1	SCS215a	20100804.132949	20100804.134744	8	0.013327	60	10	60-180	60	174	GapExp	0	159	2	9	1	target	1	760	620	50771	13.328	13.174	13.482
DTProbeTrack02	4	ProbeTrack	12.1	SCS215a	20100804.132949	20100804.134750	8	0.013327	60	10	60-180	60	99	GapExp	0	160	2	9	1	target	1	494	753	51524	13.328	13.291	13.362
DTProbeTrack02	4	ProbeTrack	12.1	SCS215a	20100804.132949	20100804.134755	8	0.013327	60	10	60-180	60	154	GapExp	0	161	2	6	0	distractor	1	720	640	52164	13.328	13.217	13.439
DTProbeTrack02	4	ProbeTrack	12.1	SCS215a	20100804.132949	20100804.134802	8	0.013327	60	10	60-180	60	122	GapExp	0	162	2	3	0	target	0	840	-1000	51164	13.328	13.167	13.489
DTProbeTrack02	4	ProbeTrack	12.1	SCS215a	20100804.132949	20100804.134808	8	0.013327	60	10	60-180	60	87	GapExp	0	163	2	45	0	distractor	1	707	647	51811	13.328	13.293	13.363
DTProbeTrack02	4	ProbeTrack	12.1	SCS215a	20100804.132949	20100804.134813	8	0.013327	60	10	60-180	60	157	GapExp	0	164	2	3	0	target	0	720	-1000	50811	13.328	13.166	13.489
DTProbeTrack02	4	ProbeTrack	12.1	SCS215a	20100804.132949	20100804.134820	8	0.013327	60	10	60-180	60	61	GapExp	0	165	2	45	0	target	0	1680	-1000	49811	13.328	13.050	13.605
DTProbeTrack02	4	ProbeTrack	12.1	SCS215a	20100804.132949	20100804.134826	8	0.013327	60	10	60-180	60	110	GapExp	0	166	2	9	0	target	0	747	-1000	48811	13.328	13.019	13.664
DTProbeTrack02	4	ProbeTrack	12.1	SCS215a	20100804.132949	20100804.134832	8	0.013327	60	10	60-180	60	169	GapExp	0	167	2	9	0	target	0	3226	-1000	47811	13.328	13.057	13.598
DTProbeTrack02	4	ProbeTrack	12.1	SCS215a	20100804.132949	20100804.134841	8	0.013327	60	10	60-180	60	80	GapExp	0	168	2	1	1	target	1	574	713	48524	13.328	13.145	13.512
DTProbeTrack02	4	ProbeTrack	12.1	SCS215a	20100804.132949	20100804.134846	8	0.013327	60	10	60-180	60	123	GapExp	0	169	2	9	0	target	0	1493	-1000	47524	13.328	13.232	13.459
DTProbeTrack02	4	ProbeTrack	12.1	SCS215a	20100804.132949	20100804.134853	8	0.013327	60	10	60-180	60	122	GapExp	0	170	2	45	0	target	0	547	-1000	46524	13.328	13.205	13.452
DTProbeTrack02	4	ProbeTrack	12.1	SCS215a	20100804.132949	20100804.134859	8	0.013327	60	10	60-180	60	167	GapExp	0	171	2	45	0	distractor	1	907	547	47071	13.328	13.293	13.363
DTProbeTrack02	4	ProbeTrack	12.1	SCS215a	20100804.132949	20100804.134906	8	0.013327	60	10	60-180	60	174	GapExp	0	172	2	45	1	target	1	1133	434	47505	13.328	13.250	13.439
DTProbeTrack02	4	ProbeTrack	12.1	SCS215a	20100804.132949	20100804.134913	8	0.013327	60	10	60-180	60	61	GapExp	0	173	2	6	0	distractor	1	733	634	48139	13.328	13.236	13.421
DTProbeTrack02	4	ProbeTrack	12.1	SCS215a	20100804.132949	20100804.134918	8	0.013327	60	10	60-180	60	97	GapExp	0	174	2	1	0	distractor	1	720	640	48779	13.328	13.135	13.520
DTProbeTrack02	4	ProbeTrack	12.1	SCS215a	20100804.132949	20100804.134924	8	0.013327	60	10	60-180	60	141	GapExp	0	175	2	3	0	target	0	2599	-1000	47779	13.328	13.117	13.573
DTProbeTrack02	4	ProbeTrack	12.1	SCS215a	20100804.132949	20100804.134932	8	0.013327	60	10	60-180	60	112	GapExp	0	176	2	45	0	target	0	1013	-1000	46779	13.328	13.159	13.497
DTProbeTrack02	4	ProbeTrack	12.1	SCS215a	20100804.132949	20100804.134938	8	0.013327	60	10	60-180	60	117	GapExp	0	177	2	1	0	target	0	680	-1000	45779	13.328	13.215	13.440
DTProbeTrack02	4	ProbeTrack	12.1	SCS215a	20100804.132949	20100804.134944	8	0.013327	60	10	60-180	60	155	GapExp	0	178	2	9	1	distractor	0	1226	-1000	44779	13.328	13.271	13.385
DTProbeTrack02	4	ProbeTrack	12.1	SCS215a	20100804.132949	20100804.134951	8	0.013327	60	10	60-180	60	175	GapExp	0	179	2	1	1	target	1	574	713	45492	13.328	13.152	13.536
DTProbeTrack02	4	ProbeTrack	12.1	SCS215a	20100804.132949	20100804.134957	8	0.013327	60	10	60-180	60	168	GapExp	0	180	2	1	1	distractor	0	747	-1000	44492	13.328	13.133	13.557
DTProbeTrack02	4	ProbeTrack	12.1	SCS215a	20100804.132949	20100804.135004	8	0.013327	60	10	60-180	60	68	GapExp	0	181	2	9	0	distractor	1	853	574	45066	13.328	13.293	13.363
DTProbeTrack02	4	ProbeTrack	12.1	SCS215a	20100804.132949	20100804.135009	8	0.013327	60	10	60-180	60	98	GapExp	0	182	2	3	0	target	0	174	-1000	44066	13.328	13.293	13.362
DTProbeTrack02	4	ProbeTrack	12.1	SCS215a	20100804.132949	20100804.135014	8	0.013327	60	10	60-180	60	86	GapExp	0	183	2	45	0	target	0	840	-1000	43066	13.328	13.228	13.428
DTProbeTrack02	4	ProbeTrack	12.1	SCS215a	20100804.132949	20100804.135020	8	0.013327	60	10	60-180	60	177	GapExp	0	184	2	6	0	distractor	1	760	620	43686	13.328	13.268	13.388
DTProbeTrack02	4	ProbeTrack	12.1	SCS215a	20100804.132949	20100804.135026	8	0.013327	60	10	60-180	60	175	GapExp	0	185	2	6	1	target	1	467	767	44453	13.328	13.062	13.593
DTProbeTrack02	4	ProbeTrack	12.1	SCS215a	20100804.132949	20100804.135033	8	0.013327	60	10	60-180	60	176	GapExp	0	186	2	6	0	distractor	1	1173	414	44867	13.328	13.178	13.444
DTProbeTrack02	4	ProbeTrack	12.1	SCS215a	20100804.132949	20100804.135040	8	0.013327	60	10	60-180	60	139	GapExp	0	187	2	45	1	target	1	1120	440	45307	13.328	13.208	13.481
DTProbeTrack02	4	ProbeTrack	12.1	SCS215a	20100804.132949	20100804.135047	8	0.013327	60	10	60-180	60	70	GapExp	0	188	2	6	0	target	0	1573	-1000	44307	13.328	13.125	13.497
DTProbeTrack02	4	ProbeTrack	12.1	SCS215a	20100804.132949	20100804.135053	8	0.013327	60	10	60-180	60	157	GapExp	0	189	2	3	1	target	1	480	760	45067	13.328	13.226	13.430
DTProbeTrack02	4	ProbeTrack	12.1	SCS215a	20100804.132949	20100804.135059	8	0.013327	60	10	60-180	60	180	GapExp	0	190	2	1	0	distractor	1	1560	220	45287	13.328	13.088	13.567
DTProbeTrack02	4	ProbeTrack	12.1	SCS215a	20100804.132949	20100804.135106	8	0.013327	60	10	60-180	60	128	GapExp	0	191	2	6	1	distractor	0	813	-1000	44287	13.328	13.157	13.500
DTProbeTrack02	4	ProbeTrack	12.1	SCS215a	20100804.132949	20100804.135112	8	0.013327	60	10	60-180	60	83	GapExp	0	192	2	6	0	distractor	1	520	740	45027	13.328	13.293	13.366
DTProbeTrack02	4	ProbeTrack	12.1	SCS215a	20100804.132949	20100804.135117	8	0.013327	60	10	60-180	60	62	GapExp	0	193	2	45	1	distractor	0	840	-1000	44027	13.328	13.293	13.363
DTProbeTrack02	4	ProbeTrack	12.1	SCS215a	20100804.132949	20100804.135123	8	0.013327	60	10	60-180	60	107	GapExp	0	194	2	6	1	target	1	707	647	44674	13.328	13.262	13.427
DTProbeTrack02	4	ProbeTrack	12.1	SCS215a	20100804.132949	20100804.135128	8	0.013327	60	10	60-180	60	67	GapExp	0	195	2	9	1	target	1	507	747	45421	13.328	13.293	13.363
DTProbeTrack02	4	ProbeTrack	12.1	SCS215a	20100804.132949	20100804.135133	8	0.013327	60	10	60-180	60	100	GapExp	0	196	2	1	0	target	0	920	-1000	44421	13.327	13.114	13.540
DTProbeTrack02	4	ProbeTrack	12.1	SCS215a	20100804.132949	20100804.135139	8	0.013327	60	10	60-180	60	74	GapExp	0	197	2	1	1	target	1	973	514	44935	13.328	13.293	13.363
DTProbeTrack02	4	ProbeTrack	12.1	SCS215a	20100804.132949	20100804.135144	8	0.013327	60	10	60-180	60	68	GapExp	0	198	2	9	0	distractor	1	627	687	45622	13.328	13.293	13.363
DTProbeTrack02	4	ProbeTrack	12.1	SCS215a	20100804.132949	20100804.135149	8	0.013327	60	10	60-180	60	94	GapExp	0	199	2	3	0	distractor	1	720	640	46262	13.327	13.217	13.404
DTProbeTrack02	4	ProbeTrack	12.1	SCS215a	20100804.132949	20100804.135155	8	0.013327	60	10	60-180	60	172	GapExp	0	200	2	6	1	distractor	0	1320	-1000	45262	13.328	13.168	13.487
DTProbeTrack02	4	ProbeTrack	12.1	SCS215a	20100804.132949	20100804.135244	8	0.013327	60	10	60-180	60	119	GapExp	0	201	2	9	1	distractor	0	574	-1000	44262	13.328	13.293	13.363
DTProbeTrack02	4	ProbeTrack	12.1	SCS215a	20100804.132949	20100804.135250	8	0.013327	60	10	60-180	60	135	GapExp	0	202	2	45	0	target	0	747	-1000	43262	13.328	13.293	13.363
DTProbeTrack02	4	ProbeTrack	12.1	SCS215a	20100804.132949	20100804.135256	8	0.013327	60	10	60-180	60	62	GapExp	0	203	2	45	1	distractor	0	1133	-1000	42262	13.328	13.292	13.364
DTProbeTrack02	4	ProbeTrack	12.1	SCS215a	20100804.132949	20100804.135302	8	0.013327	60	10	60-180	60	105	GapExp	0	204	2	3	1	target	1	1053	474	42736	13.328	13.183	13.472
DTProbeTrack02	4	ProbeTrack	12.1	SCS215a	20100804.132949	20100804.135308	8	0.013327	60	10	60-180	60	155	GapExp	0	205	2	1	0	distractor	1	574	713	43449	13.328	13.293	13.363
