exp	sub	code	rev	comp	runtime	trialtime	nstim	refreshdur	cuedur	gapdur	gapOnsetRange	durPostProbe	gapOnsetTime	blocktype	prac	trial	ntargets	soa	probeTarget	resp	acc	rt	pts	tpts	meanFrameDur	minFrameDur	maxFrameDur
DTProbeTrack02	2	ProbeTrack	12.1	SCS215a	20100804.090634	20100804.090651	8	0.013328	60	0	60-180	60	120	NoGap	1	1	2	1	0	distractor	1	1080	460	460	13.328	13.289	13.363
DTProbeTrack02	2	ProbeTrack	12.1	SCS215a	20100804.090634	20100804.090657	8	0.013328	60	0	60-180	60	164	NoGap	1	2	2	3	1	target	1	400	800	1260	13.328	13.293	13.363
DTProbeTrack02	2	ProbeTrack	12.1	SCS215a	20100804.090634	20100804.090703	8	0.013328	60	0	60-180	60	118	NoGap	1	3	2	9	1	distractor	0	454	-1000	260	13.328	13.292	13.363
DTProbeTrack02	2	ProbeTrack	12.1	SCS215a	20100804.090634	20100804.090708	8	0.013328	60	0	60-180	60	110	NoGap	1	4	2	9	0	target	0	614	-1000	-740	13.328	13.293	13.363
DTProbeTrack02	2	ProbeTrack	12.1	SCS215a	20100804.090634	20100804.090714	8	0.013328	60	0	60-180	60	123	NoGap	1	5	2	9	1	target	1	560	720	-20	13.328	13.293	13.363
DTProbeTrack02	2	ProbeTrack	12.1	SCS215a	20100804.090634	20100804.090719	8	0.013328	60	0	60-180	60	88	NoGap	1	6	2	45	1	distractor	0	560	-1000	-1020	13.328	13.293	13.363
DTProbeTrack02	2	ProbeTrack	12.1	SCS215a	20100804.090634	20100804.090725	8	0.013328	60	0	60-180	60	137	NoGap	1	7	2	6	0	distractor	1	680	660	-360	13.328	13.291	13.363
DTProbeTrack02	2	ProbeTrack	12.1	SCS215a	20100804.090634	20100804.090731	8	0.013328	60	0	60-180	60	78	NoGap	1	8	2	45	0	target	0	667	-1000	-1360	13.328	13.293	13.363
DTProbeTrack02	2	ProbeTrack	12.1	SCS215a	20100804.090634	20100804.090736	8	0.013328	60	0	60-180	60	177	NoGap	1	9	2	45	1	target	1	893	554	-806	13.328	13.293	13.363
DTProbeTrack02	2	ProbeTrack	12.1	SCS215a	20100804.090634	20100804.090743	8	0.013328	60	0	60-180	60	141	NoGap	1	10	2	3	0	distractor	1	680	660	-146	13.328	13.293	13.363
DTProbeTrack02	2	ProbeTrack	12.1	SCS215a	20100804.090634	20100804.090749	8	0.013328	60	0	60-180	60	91	NoGap	1	11	2	1	1	target	1	680	660	514	13.327	13.291	13.364
DTProbeTrack02	2	ProbeTrack	12.1	SCS215a	20100804.090634	20100804.090754	8	0.013328	60	0	60-180	60	116	NoGap	1	12	2	9	1	target	1	653	674	1188	13.328	13.292	13.363
DTProbeTrack02	2	ProbeTrack	12.1	SCS215a	20100804.090634	20100804.090800	8	0.013328	60	0	60-180	60	79	NoGap	1	13	2	9	1	target	1	720	640	1828	13.328	13.292	13.363
DTProbeTrack02	2	ProbeTrack	12.1	SCS215a	20100804.090634	20100804.090805	8	0.013328	60	0	60-180	60	152	NoGap	1	14	2	1	1	target	1	787	607	2435	13.328	13.289	13.364
DTProbeTrack02	2	ProbeTrack	12.1	SCS215a	20100804.090634	20100804.090811	8	0.013328	60	0	60-180	60	163	NoGap	1	15	2	3	0	target	0	1013	-1000	1435	13.328	13.292	13.363
DTProbeTrack02	2	ProbeTrack	12.1	SCS215a	20100804.090634	20100804.090818	8	0.013328	60	0	60-180	60	156	NoGap	1	16	2	9	0	distractor	1	654	673	2108	13.328	13.292	13.363
DTProbeTrack02	2	ProbeTrack	12.1	SCS215a	20100804.090634	20100804.090824	8	0.013328	60	0	60-180	60	105	NoGap	1	17	2	6	0	distractor	1	747	627	2735	13.328	13.293	13.363
DTProbeTrack02	2	ProbeTrack	12.1	SCS215a	20100804.090634	20100804.090829	8	0.013328	60	0	60-180	60	123	NoGap	1	18	2	1	0	distractor	1	680	660	3395	13.328	13.293	13.363
DTProbeTrack02	2	ProbeTrack	12.1	SCS215a	20100804.090634	20100804.090835	8	0.013328	60	0	60-180	60	152	NoGap	1	19	2	45	0	distractor	1	640	680	4075	13.328	13.290	13.364
DTProbeTrack02	2	ProbeTrack	12.1	SCS215a	20100804.090634	20100804.090841	8	0.013328	60	0	60-180	60	151	NoGap	1	20	2	6	0	distractor	1	614	693	4768	13.328	13.293	13.365
DTProbeTrack02	2	ProbeTrack	12.1	SCS215a	20100804.090634	20100804.090847	8	0.013328	60	0	60-180	60	125	NoGap	1	21	2	6	1	target	1	600	700	5468	13.328	13.240	13.418
DTProbeTrack02	2	ProbeTrack	12.1	SCS215a	20100804.090634	20100804.090853	8	0.013328	60	0	60-180	60	108	NoGap	1	22	2	45	0	distractor	1	720	640	6108	13.328	13.293	13.363
DTProbeTrack02	2	ProbeTrack	12.1	SCS215a	20100804.090634	20100804.090859	8	0.013328	60	0	60-180	60	95	NoGap	1	23	2	6	1	target	1	787	607	6715	13.328	13.292	13.363
DTProbeTrack02	2	ProbeTrack	12.1	SCS215a	20100804.090634	20100804.090904	8	0.013328	60	0	60-180	60	136	NoGap	1	24	2	1	0	distractor	1	614	693	7408	13.328	13.293	13.363
DTProbeTrack02	2	ProbeTrack	12.1	SCS215a	20100804.090634	20100804.090910	8	0.013328	60	0	60-180	60	180	NoGap	1	25	2	3	1	target	1	560	720	8128	13.328	13.292	13.365
DTProbeTrack02	2	ProbeTrack	12.1	SCS215a	20100804.090634	20100804.090916	8	0.013328	60	0	60-180	60	113	NoGap	1	26	2	9	0	distractor	1	694	653	8781	13.328	13.293	13.363
DTProbeTrack02	2	ProbeTrack	12.1	SCS215a	20100804.090634	20100804.090922	8	0.013328	60	0	60-180	60	126	NoGap	1	27	2	45	1	target	1	614	693	9474	13.328	13.293	13.363
DTProbeTrack02	2	ProbeTrack	12.1	SCS215a	20100804.090634	20100804.090928	8	0.013328	60	0	60-180	60	142	NoGap	1	28	2	3	1	distractor	0	600	-1000	8474	13.328	13.293	13.364
DTProbeTrack02	2	ProbeTrack	12.1	SCS215a	20100804.090634	20100804.090934	8	0.013328	60	0	60-180	60	103	NoGap	1	29	2	1	0	distractor	1	813	594	9068	13.328	13.228	13.426
DTProbeTrack02	2	ProbeTrack	12.1	SCS215a	20100804.090634	20100804.090939	8	0.013328	60	0	60-180	60	99	NoGap	1	30	2	9	0	distractor	1	680	660	9728	13.328	13.292	13.364
DTProbeTrack02	2	ProbeTrack	12.1	SCS215a	20100804.090634	20100804.090945	8	0.013328	60	0	60-180	60	96	NoGap	1	31	2	45	0	distractor	1	733	634	10362	13.328	13.293	13.368
DTProbeTrack02	2	ProbeTrack	12.1	SCS215a	20100804.090634	20100804.090951	8	0.013328	60	0	60-180	60	87	NoGap	1	32	2	3	0	target	0	680	-1000	9362	13.328	13.293	13.363
DTProbeTrack02	2	ProbeTrack	12.1	SCS215a	20100804.090634	20100804.090956	8	0.013328	60	0	60-180	60	122	NoGap	1	33	2	1	1	target	1	840	580	9942	13.328	13.293	13.364
DTProbeTrack02	2	ProbeTrack	12.1	SCS215a	20100804.090634	20100804.091002	8	0.013328	60	0	60-180	60	151	NoGap	1	34	2	6	0	distractor	1	760	620	10562	13.328	13.286	13.364
DTProbeTrack02	2	ProbeTrack	12.1	SCS215a	20100804.090634	20100804.091008	8	0.013328	60	0	60-180	60	71	NoGap	1	35	2	1	1	target	1	893	554	11116	13.327	13.281	13.363
DTProbeTrack02	2	ProbeTrack	12.1	SCS215a	20100804.090634	20100804.091013	8	0.013328	60	0	60-180	60	146	NoGap	1	36	2	6	1	distractor	0	7344	-1000	10116	13.328	13.293	13.363
DTProbeTrack02	2	ProbeTrack	12.1	SCS215a	20100804.090634	20100804.091025	8	0.013328	60	0	60-180	60	76	NoGap	1	37	2	45	1	target	1	813	594	10710	13.328	13.293	13.363
DTProbeTrack02	2	ProbeTrack	12.1	SCS215a	20100804.090634	20100804.091031	8	0.013328	60	0	60-180	60	159	NoGap	1	38	2	6	1	target	1	747	627	11337	13.328	13.293	13.364
DTProbeTrack02	2	ProbeTrack	12.1	SCS215a	20100804.090634	20100804.091037	8	0.013328	60	0	60-180	60	91	NoGap	1	39	2	3	0	distractor	1	1000	500	11837	13.327	13.287	13.363
DTProbeTrack02	2	ProbeTrack	12.1	SCS215a	20100804.090634	20100804.091043	8	0.013328	60	0	60-180	60	102	NoGap	1	40	2	3	1	target	1	680	660	12497	13.328	13.255	13.435
DTProbeTrack02	2	ProbeTrack	12.1	SCS215a	20100804.091253	20100804.091303	8	0.013327	60	10	60-180	60	73	GapPrac	1	1	2	3	1	distractor	0	813	-1000	11497	13.328	13.293	13.363
DTProbeTrack02	2	ProbeTrack	12.1	SCS215a	20100804.091253	20100804.091308	8	0.013327	60	10	60-180	60	145	GapPrac	1	2	2	6	0	distractor	1	760	620	12117	13.328	13.292	13.363
DTProbeTrack02	2	ProbeTrack	12.1	SCS215a	20100804.091253	20100804.091314	8	0.013327	60	10	60-180	60	169	GapPrac	1	3	2	1	0	distractor	1	1053	474	12591	13.328	13.293	13.363
DTProbeTrack02	2	ProbeTrack	12.1	SCS215a	20100804.091253	20100804.091321	8	0.013327	60	10	60-180	60	170	GapPrac	1	4	2	9	0	distractor	1	827	587	13178	13.328	13.263	13.407
DTProbeTrack02	2	ProbeTrack	12.1	SCS215a	20100804.091253	20100804.091328	8	0.013327	60	10	60-180	60	77	GapPrac	1	5	2	1	0	distractor	1	574	713	13891	15.122	13.185	146.602
DTProbeTrack02	2	ProbeTrack	12.1	SCS215a	20100804.091253	20100804.091333	8	0.013327	60	10	60-180	60	173	GapPrac	1	6	2	45	1	distractor	0	520	-1000	12891	15.110	12.834	186.585
DTProbeTrack02	2	ProbeTrack	12.1	SCS215a	20100804.091253	20100804.091340	8	0.013327	60	10	60-180	60	105	GapPrac	1	7	2	6	1	distractor	0	731	-1000	11891	13.594	13.011	26.657
DTProbeTrack02	2	ProbeTrack	12.1	SCS215a	20100804.091253	20100804.091346	8	0.013327	60	10	60-180	60	111	GapPrac	1	8	2	1	1	distractor	0	733	-1000	10891	13.433	13.293	26.654
DTProbeTrack02	2	ProbeTrack	12.1	SCS215a	20100804.091253	20100804.091352	8	0.013327	60	10	60-180	60	88	GapPrac	1	9	2	9	1	target	1	640	680	11571	13.328	13.178	13.461
DTProbeTrack02	2	ProbeTrack	12.1	SCS215a	20100804.091253	20100804.091357	8	0.013327	60	10	60-180	60	127	GapPrac	1	10	2	3	0	distractor	1	720	640	12211	15.246	12.891	133.318
DTProbeTrack02	2	ProbeTrack	12.1	SCS215a	20100804.091253	20100804.091403	8	0.013327	60	10	60-180	60	97	GapPrac	1	11	2	9	1	distractor	0	667	-1000	11211	13.438	12.999	26.983
DTProbeTrack02	2	ProbeTrack	12.1	SCS215a	20100804.091253	20100804.091409	8	0.013327	60	10	60-180	60	118	GapPrac	1	12	2	9	0	distractor	1	640	680	11891	13.582	12.983	26.891
DTProbeTrack02	2	ProbeTrack	12.1	SCS215a	20100804.091253	20100804.091415	8	0.013327	60	10	60-180	60	158	GapPrac	1	13	2	3	0	distractor	1	587	707	12598	13.328	13.227	13.427
DTProbeTrack02	2	ProbeTrack	12.1	SCS215a	20100804.091253	20100804.091421	8	0.013327	60	10	60-180	60	129	GapPrac	1	14	2	6	1	target	1	987	507	13105	13.375	12.870	26.621
DTProbeTrack02	2	ProbeTrack	12.1	SCS215a	20100804.091253	20100804.091427	8	0.013327	60	10	60-180	60	90	GapPrac	1	15	2	45	0	distractor	1	813	594	13699	13.328	13.293	13.363
DTProbeTrack02	2	ProbeTrack	12.1	SCS215a	20100804.091253	20100804.091433	8	0.013327	60	10	60-180	60	121	GapPrac	1	16	2	3	1	distractor	0	627	-1000	12699	15.549	12.826	146.606
DTProbeTrack02	2	ProbeTrack	12.1	SCS215a	20100804.091253	20100804.091439	8	0.013327	60	10	60-180	60	113	GapPrac	1	17	2	45	1	target	1	693	654	13353	13.328	13.292	13.363
DTProbeTrack02	2	ProbeTrack	12.1	SCS215a	20100804.091253	20100804.091446	8	0.013327	60	10	60-180	60	161	GapPrac	1	18	2	6	0	distractor	1	747	627	13980	13.328	13.208	13.445
DTProbeTrack02	2	ProbeTrack	12.1	SCS215a	20100804.091253	20100804.091452	8	0.013327	60	10	60-180	60	67	GapPrac	1	19	2	1	1	target	1	680	660	14640	13.589	12.873	27.112
DTProbeTrack02	2	ProbeTrack	12.1	SCS215a	20100804.091253	20100804.091457	8	0.013327	60	10	60-180	60	112	GapPrac	1	20	2	45	0	target	0	600	-1000	13640	13.374	13.292	26.645
DTProbeTrack02	2	ProbeTrack	12.1	SCS215a	20100804.092022	20100804.092030	8	0.013327	60	10	60-180	60	144	GapPrac	1	1	2	6	1	distractor	0	667	-1000	12640	13.328	13.230	13.459
DTProbeTrack02	2	ProbeTrack	12.1	SCS215a	20100804.092022	20100804.092036	8	0.013327	60	10	60-180	60	125	GapPrac	1	2	2	1	1	target	1	587	707	13347	13.328	13.265	13.390
DTProbeTrack02	2	ProbeTrack	12.1	SCS215a	20100804.092022	20100804.092042	8	0.013327	60	10	60-180	60	101	GapPrac	1	3	2	45	0	distractor	1	14	993	14340	13.327	13.293	13.363
DTProbeTrack02	2	ProbeTrack	12.1	SCS215a	20100804.092022	20100804.092047	8	0.013327	60	10	60-180	60	110	GapPrac	1	4	2	6	1	target	1	813	594	14934	13.328	13.182	13.506
DTProbeTrack02	2	ProbeTrack	12.1	SCS215a	20100804.092022	20100804.092053	8	0.013327	60	10	60-180	60	165	GapPrac	1	5	2	9	0	target	0	707	-1000	13934	13.328	13.200	13.455
DTProbeTrack02	2	ProbeTrack	12.1	SCS215a	20100804.092022	20100804.092059	8	0.013327	60	10	60-180	60	159	GapPrac	1	6	2	9	0	distractor	1	9929	0	13934	13.413	12.966	27.019
DTProbeTrack02	2	ProbeTrack	12.1	SCS215a	20100804.092022	20100804.092115	8	0.013327	60	10	60-180	60	124	GapPrac	1	7	2	3	0	distractor	1	547	727	14661	13.328	13.097	13.559
DTProbeTrack02	2	ProbeTrack	12.1	SCS215a	20100804.092022	20100804.092120	8	0.013327	60	10	60-180	60	76	GapPrac	1	8	2	45	0	target	0	1333	-1000	13661	13.328	13.185	13.504
DTProbeTrack02	2	ProbeTrack	12.1	SCS215a	20100804.092022	20100804.092127	8	0.013327	60	10	60-180	60	140	GapPrac	1	9	2	9	1	distractor	0	907	-1000	12661	13.328	13.033	13.605
DTProbeTrack02	2	ProbeTrack	12.1	SCS215a	20100804.092022	20100804.092133	8	0.013327	60	10	60-180	60	97	GapPrac	1	10	2	6	0	target	0	1200	-1000	11661	13.328	12.936	13.719
DTProbeTrack02	2	ProbeTrack	12.1	SCS215a	20100804.092022	20100804.092139	8	0.013327	60	10	60-180	60	175	GapPrac	1	11	2	9	1	distractor	0	693	-1000	10661	13.328	12.879	13.776
DTProbeTrack02	2	ProbeTrack	12.1	SCS215a	20100804.092022	20100804.092146	8	0.013327	60	10	60-180	60	106	GapPrac	1	12	2	45	1	target	1	587	707	11368	13.328	13.052	13.603
DTProbeTrack02	2	ProbeTrack	12.1	SCS215a	20100804.092022	20100804.092152	8	0.013327	60	10	60-180	60	173	GapPrac	1	13	2	3	1	distractor	0	2133	-1000	10368	13.328	13.293	13.363
DTProbeTrack02	2	ProbeTrack	12.1	SCS215a	20100804.092022	20100804.092200	8	0.013327	60	10	60-180	60	85	GapPrac	1	14	2	1	1	target	1	667	667	11035	13.328	13.152	13.504
DTProbeTrack02	2	ProbeTrack	12.1	SCS215a	20100804.092022	20100804.092205	8	0.013327	60	10	60-180	60	107	GapPrac	1	15	2	6	0	distractor	1	707	647	11682	13.380	13.083	26.786
DTProbeTrack02	2	ProbeTrack	12.1	SCS215a	20100804.092022	20100804.092210	8	0.013327	60	10	60-180	60	177	GapPrac	1	16	2	3	1	target	1	267	867	12549	13.328	13.288	13.363
DTProbeTrack02	2	ProbeTrack	12.1	SCS215a	20100804.092022	20100804.092216	8	0.013327	60	10	60-180	60	89	GapPrac	1	17	2	1	0	distractor	1	653	674	13223	13.328	13.292	13.363
DTProbeTrack02	2	ProbeTrack	12.1	SCS215a	20100804.092022	20100804.092222	8	0.013327	60	10	60-180	60	91	GapPrac	1	18	2	1	0	target	0	574	-1000	12223	13.328	13.291	13.365
DTProbeTrack02	2	ProbeTrack	12.1	SCS215a	20100804.092022	20100804.092227	8	0.013327	60	10	60-180	60	170	GapPrac	1	19	2	45	1	distractor	0	454	-1000	11223	13.570	12.923	53.453
DTProbeTrack02	2	ProbeTrack	12.1	SCS215a	20100804.092022	20100804.092234	8	0.013327	60	10	60-180	60	68	GapPrac	1	20	2	3	0	distractor	1	1746	127	11350	13.697	13.160	93.262
DTProbeTrack02	2	ProbeTrack	12.1	SCS215a	20100804.092335	20100804.092341	8	0.013328	60	10	60-180	60	88	GapExp	1	1	2	45	1	distractor	0	773	-1000	10350	13.328	13.217	13.438
DTProbeTrack02	2	ProbeTrack	12.1	SCS215a	20100804.092335	20100804.092347	8	0.013328	60	10	60-180	60	121	GapExp	1	2	2	1	1	target	1	334	833	11183	13.327	13.251	13.411
DTProbeTrack02	2	ProbeTrack	12.1	SCS215a	20100804.092335	20100804.092352	8	0.013328	60	10	60-180	60	116	GapExp	1	3	2	6	0	distractor	1	1666	167	11350	13.328	13.044	13.611
DTProbeTrack02	2	ProbeTrack	12.1	SCS215a	20100804.092335	20100804.092359	8	0.013328	60	10	60-180	60	173	GapExp	1	4	2	3	0	distractor	1	3346	0	11350	13.328	13.066	13.556
DTProbeTrack02	2	ProbeTrack	12.1	SCS215a	20100804.092335	20100804.092408	8	0.013328	60	10	60-180	60	169	GapExp	1	5	2	9	1	distractor	0	1773	-1000	10350	13.328	13.293	13.363
DTProbeTrack02	2	ProbeTrack	12.1	SCS215a	20100804.092335	20100804.092416	8	0.013328	60	10	60-180	60	123	GapExp	0	6	2	3	0	target	0	1466	-1000	9350	13.328	13.293	13.363
DTProbeTrack02	2	ProbeTrack	12.1	SCS215a	20100804.092335	20100804.092422	8	0.013328	60	10	60-180	60	150	GapExp	0	7	2	1	0	distractor	1	707	647	9997	13.328	13.293	13.363
DTProbeTrack02	2	ProbeTrack	12.1	SCS215a	20100804.092335	20100804.092428	8	0.013328	60	10	60-180	60	109	GapExp	0	8	2	9	1	target	1	320	840	10837	13.386	13.293	26.654
DTProbeTrack02	2	ProbeTrack	12.1	SCS215a	20100804.092335	20100804.092434	8	0.013328	60	10	60-180	60	68	GapExp	0	9	2	1	1	distractor	0	867	-1000	9837	13.328	13.293	13.363
DTProbeTrack02	2	ProbeTrack	12.1	SCS215a	20100804.092335	20100804.092439	8	0.013328	60	10	60-180	60	170	GapExp	0	10	2	1	1	target	1	1400	300	10137	13.328	13.293	13.363
DTProbeTrack02	2	ProbeTrack	12.1	SCS215a	20100804.092335	20100804.092446	8	0.013328	60	10	60-180	60	169	GapExp	0	11	2	3	0	distractor	1	1346	327	10464	13.328	13.170	13.451
DTProbeTrack02	2	ProbeTrack	12.1	SCS215a	20100804.092335	20100804.092453	8	0.013328	60	10	60-180	60	166	GapExp	0	12	2	45	1	distractor	0	454	-1000	9464	13.328	12.931	13.724
DTProbeTrack02	2	ProbeTrack	12.1	SCS215a	20100804.092335	20100804.092500	8	0.013328	60	10	60-180	60	116	GapExp	0	13	2	3	1	target	1	1426	287	9751	13.328	13.129	13.543
DTProbeTrack02	2	ProbeTrack	12.1	SCS215a	20100804.092335	20100804.092506	8	0.013328	60	10	60-180	60	64	GapExp	0	14	2	9	0	target	0	867	-1000	8751	13.328	13.293	13.363
DTProbeTrack02	2	ProbeTrack	12.1	SCS215a	20100804.092335	20100804.092511	8	0.013328	60	10	60-180	60	68	GapExp	0	15	2	1	0	distractor	1	574	713	9464	13.328	13.152	13.505
DTProbeTrack02	2	ProbeTrack	12.1	SCS215a	20100804.092335	20100804.092516	8	0.013328	60	10	60-180	60	159	GapExp	0	16	2	6	0	target	0	614	-1000	8464	13.328	13.257	13.434
DTProbeTrack02	2	ProbeTrack	12.1	SCS215a	20100804.092335	20100804.092522	8	0.013328	60	10	60-180	60	78	GapExp	0	17	2	1	1	distractor	0	1320	-1000	7464	13.328	13.292	13.363
DTProbeTrack02	2	ProbeTrack	12.1	SCS215a	20100804.092335	20100804.092528	8	0.013328	60	10	60-180	60	64	GapExp	0	18	2	6	0	target	0	-13	-1000	6464	13.328	13.166	13.490
DTProbeTrack02	2	ProbeTrack	12.1	SCS215a	20100804.092335	20100804.092533	8	0.013328	60	10	60-180	60	156	GapExp	0	19	2	9	1	distractor	0	614	-1000	5464	13.328	12.970	13.719
DTProbeTrack02	2	ProbeTrack	12.1	SCS215a	20100804.092335	20100804.092539	8	0.013328	60	10	60-180	60	160	GapExp	0	20	2	45	0	distractor	1	1466	267	5731	13.328	13.220	13.437
DTProbeTrack02	2	ProbeTrack	12.1	SCS215a	20100804.092335	20100804.092546	8	0.013328	60	10	60-180	60	126	GapExp	0	21	2	6	1	distractor	0	680	-1000	4731	13.328	13.081	13.575
DTProbeTrack02	2	ProbeTrack	12.1	SCS215a	20100804.092335	20100804.092552	8	0.013328	60	10	60-180	60	82	GapExp	0	22	2	9	0	distractor	1	4305	0	4731	13.327	13.191	13.464
DTProbeTrack02	2	ProbeTrack	12.1	SCS215a	20100804.092335	20100804.092601	8	0.013328	60	10	60-180	60	70	GapExp	0	23	2	3	1	target	1	574	713	5444	13.328	13.293	13.363
DTProbeTrack02	2	ProbeTrack	12.1	SCS215a	20100804.092335	20100804.092606	8	0.013328	60	10	60-180	60	91	GapExp	0	24	2	45	1	distractor	0	680	-1000	4444	13.328	13.293	13.363
DTProbeTrack02	2	ProbeTrack	12.1	SCS215a	20100804.092335	20100804.092612	8	0.013328	60	10	60-180	60	96	GapExp	0	25	2	3	0	target	0	840	-1000	3444	13.328	13.016	13.674
DTProbeTrack02	2	ProbeTrack	12.1	SCS215a	20100804.092335	20100804.092617	8	0.013328	60	10	60-180	60	145	GapExp	0	26	2	45	1	target	1	680	660	4104	13.328	13.181	13.441
DTProbeTrack02	2	ProbeTrack	12.1	SCS215a	20100804.092335	20100804.092624	8	0.013328	60	10	60-180	60	78	GapExp	0	27	2	3	1	distractor	0	560	-1000	3104	13.328	13.293	13.362
DTProbeTrack02	2	ProbeTrack	12.1	SCS215a	20100804.092335	20100804.092629	8	0.013328	60	10	60-180	60	162	GapExp	0	28	2	1	1	target	1	-13	1007	4111	13.328	13.041	13.581
DTProbeTrack02	2	ProbeTrack	12.1	SCS215a	20100804.092335	20100804.092635	8	0.013328	60	10	60-180	60	105	GapExp	0	29	2	9	0	distractor	1	1000	500	4611	13.328	13.292	13.384
DTProbeTrack02	2	ProbeTrack	12.1	SCS215a	20100804.092335	20100804.092641	8	0.013328	60	10	60-180	60	132	GapExp	0	30	2	6	0	distractor	1	720	640	5251	13.328	13.292	13.363
DTProbeTrack02	2	ProbeTrack	12.1	SCS215a	20100804.092335	20100804.092647	8	0.013328	60	10	60-180	60	139	GapExp	0	31	2	6	0	distractor	1	787	607	5858	13.328	13.293	13.363
DTProbeTrack02	2	ProbeTrack	12.1	SCS215a	20100804.092335	20100804.092653	8	0.013328	60	10	60-180	60	154	GapExp	0	32	2	1	1	distractor	0	747	-1000	4858	13.328	13.289	13.363
DTProbeTrack02	2	ProbeTrack	12.1	SCS215a	20100804.092335	20100804.092659	8	0.013328	60	10	60-180	60	90	GapExp	0	33	2	9	0	target	0	893	-1000	3858	13.328	13.264	13.392
DTProbeTrack02	2	ProbeTrack	12.1	SCS215a	20100804.092335	20100804.092705	8	0.013328	60	10	60-180	60	115	GapExp	0	34	2	1	0	distractor	1	3092	0	3858	13.328	13.160	13.496
DTProbeTrack02	2	ProbeTrack	12.1	SCS215a	20100804.092335	20100804.092713	8	0.013328	60	10	60-180	60	170	GapExp	0	35	2	1	0	distractor	1	507	747	4605	13.328	13.068	13.554
DTProbeTrack02	2	ProbeTrack	12.1	SCS215a	20100804.092335	20100804.092719	8	0.013328	60	10	60-180	60	100	GapExp	0	36	2	1	0	target	0	600	-1000	3605	13.327	13.293	13.363
DTProbeTrack02	2	ProbeTrack	12.1	SCS215a	20100804.092335	20100804.092724	8	0.013328	60	10	60-180	60	88	GapExp	0	37	2	45	0	distractor	1	1120	440	4045	13.328	13.237	13.452
DTProbeTrack02	2	ProbeTrack	12.1	SCS215a	20100804.092335	20100804.092730	8	0.013328	60	10	60-180	60	164	GapExp	0	38	2	6	1	target	1	1586	207	4252	13.328	13.022	13.634
DTProbeTrack02	2	ProbeTrack	12.1	SCS215a	20100804.092335	20100804.092738	8	0.013328	60	10	60-180	60	109	GapExp	0	39	2	9	1	distractor	0	1613	-1000	3252	13.328	12.935	13.720
DTProbeTrack02	2	ProbeTrack	12.1	SCS215a	20100804.092335	20100804.092744	8	0.013328	60	10	60-180	60	64	GapExp	0	40	2	45	1	target	1	427	787	4039	13.328	13.276	13.363
DTProbeTrack02	2	ProbeTrack	12.1	SCS215a	20100804.092335	20100804.092750	8	0.013328	60	10	60-180	60	106	GapExp	0	41	2	3	0	distractor	1	720	640	4679	13.328	13.292	13.363
DTProbeTrack02	2	ProbeTrack	12.1	SCS215a	20100804.092335	20100804.092755	8	0.013328	60	10	60-180	60	149	GapExp	0	42	2	3	1	distractor	0	374	-1000	3679	13.328	13.293	13.363
DTProbeTrack02	2	ProbeTrack	12.1	SCS215a	20100804.092335	20100804.092801	8	0.013328	60	10	60-180	60	107	GapExp	0	43	2	45	1	distractor	0	1227	-1000	2679	13.328	13.161	13.494
DTProbeTrack02	2	ProbeTrack	12.1	SCS215a	20100804.092335	20100804.092808	8	0.013328	60	10	60-180	60	179	GapExp	0	44	2	45	0	target	0	374	-1000	1679	13.328	13.293	13.362
DTProbeTrack02	2	ProbeTrack	12.1	SCS215a	20100804.092335	20100804.092814	8	0.013328	60	10	60-180	60	135	GapExp	0	45	2	45	1	distractor	0	680	-1000	679	13.328	13.284	13.364
DTProbeTrack02	2	ProbeTrack	12.1	SCS215a	20100804.092335	20100804.092821	8	0.013328	60	10	60-180	60	85	GapExp	0	46	2	9	0	distractor	1	3146	0	679	13.327	13.293	13.363
DTProbeTrack02	2	ProbeTrack	12.1	SCS215a	20100804.092335	20100804.092829	8	0.013328	60	10	60-180	60	118	GapExp	0	47	2	9	1	distractor	0	400	-1000	-321	13.328	13.292	13.363
DTProbeTrack02	2	ProbeTrack	12.1	SCS215a	20100804.092335	20100804.092834	8	0.013328	60	10	60-180	60	175	GapExp	0	48	2	3	0	distractor	1	480	760	439	13.328	13.293	13.364
DTProbeTrack02	2	ProbeTrack	12.1	SCS215a	20100804.092335	20100804.092840	8	0.013328	60	10	60-180	60	174	GapExp	0	49	2	9	1	distractor	0	547	-1000	-561	13.328	12.934	13.688
DTProbeTrack02	2	ProbeTrack	12.1	SCS215a	20100804.092335	20100804.092847	8	0.013328	60	10	60-180	60	68	GapExp	0	50	2	9	0	target	0	893	-1000	-1561	13.327	13.226	13.462
DTProbeTrack02	2	ProbeTrack	12.1	SCS215a	20100804.092335	20100804.092928	8	0.013328	60	10	60-180	60	166	GapExp	0	51	2	45	1	83	-3	187	-1000	-2561	13.328	13.293	13.363
DTProbeTrack02	2	ProbeTrack	12.1	SCS215a	20100804.092335	20100804.092934	8	0.013328	60	10	60-180	60	144	GapExp	0	52	2	9	1	83	-3	627	-1000	-3561	13.328	13.293	13.363
DTProbeTrack02	2	ProbeTrack	12.1	SCS215a	20100804.092335	20100804.092940	8	0.013328	60	10	60-180	60	81	GapExp	0	53	2	45	0	distractor	1	560	720	-2841	13.328	13.147	13.510
DTProbeTrack02	2	ProbeTrack	12.1	SCS215a	20100804.092335	20100804.092946	8	0.013328	60	10	60-180	60	132	GapExp	0	54	2	45	0	target	0	1093	-1000	-3841	13.328	12.987	13.668
DTProbeTrack02	2	ProbeTrack	12.1	SCS215a	20100804.092335	20100804.092953	8	0.013328	60	10	60-180	60	62	GapExp	0	55	2	3	1	distractor	0	1306	-1000	-4841	13.328	13.222	13.434
DTProbeTrack02	2	ProbeTrack	12.1	SCS215a	20100804.092335	20100804.092958	8	0.013328	60	10	60-180	60	110	GapExp	0	56	2	3	0	distractor	1	160	920	-3921	13.328	13.293	13.363
DTProbeTrack02	2	ProbeTrack	12.1	SCS215a	20100804.092335	20100804.093003	8	0.013328	60	10	60-180	60	177	GapExp	0	57	2	6	1	target	1	680	660	-3261	13.328	13.293	13.363
DTProbeTrack02	2	ProbeTrack	12.1	SCS215a	20100804.092335	20100804.093010	8	0.013328	60	10	60-180	60	162	GapExp	0	58	2	6	0	distractor	1	360	820	-2441	13.328	13.293	13.363
DTProbeTrack02	2	ProbeTrack	12.1	SCS215a	20100804.092335	20100804.093016	8	0.013328	60	10	60-180	60	80	GapExp	0	59	2	6	0	distractor	1	2466	0	-2441	13.328	13.293	13.363
DTProbeTrack02	2	ProbeTrack	12.1	SCS215a	20100804.092335	20100804.093023	8	0.013328	60	10	60-180	60	160	GapExp	0	60	2	1	1	target	1	547	727	-1714	13.328	13.292	13.363
DTProbeTrack02	2	ProbeTrack	12.1	SCS215a	20100804.092335	20100804.093029	8	0.013328	60	10	60-180	60	153	GapExp	0	61	2	45	1	distractor	0	1360	-1000	-2714	13.328	13.293	13.363
DTProbeTrack02	2	ProbeTrack	12.1	SCS215a	20100804.092335	20100804.093036	8	0.013328	60	10	60-180	60	104	GapExp	0	62	2	3	1	distractor	0	720	-1000	-3714	14.080	13.279	199.638
DTProbeTrack02	2	ProbeTrack	12.1	SCS215a	20100804.092335	20100804.093042	8	0.013328	60	10	60-180	60	89	GapExp	0	63	2	1	0	target	0	827	-1000	-4714	13.327	13.292	13.365
DTProbeTrack02	2	ProbeTrack	12.1	SCS215a	20100804.092335	20100804.093048	8	0.013328	60	10	60-180	60	113	GapExp	0	64	2	45	0	distractor	1	1546	227	-4487	13.328	13.166	13.525
DTProbeTrack02	2	ProbeTrack	12.1	SCS215a	20100804.092335	20100804.093055	8	0.013328	60	10	60-180	60	81	GapExp	0	65	2	6	0	distractor	1	1626	187	-4300	13.328	13.149	13.473
DTProbeTrack02	2	ProbeTrack	12.1	SCS215a	20100804.092335	20100804.093101	8	0.013328	60	10	60-180	60	115	GapExp	0	66	2	45	1	distractor	0	907	-1000	-5300	13.328	13.235	13.392
DTProbeTrack02	2	ProbeTrack	12.1	SCS215a	20100804.092335	20100804.093107	8	0.013328	60	10	60-180	60	161	GapExp	0	67	2	1	1	distractor	0	734	-1000	-6300	13.328	12.882	13.739
DTProbeTrack02	2	ProbeTrack	12.1	SCS215a	20100804.092335	20100804.093114	8	0.013328	60	10	60-180	60	120	GapExp	0	68	2	1	1	target	1	813	594	-5706	13.328	13.287	13.370
DTProbeTrack02	2	ProbeTrack	12.1	SCS215a	20100804.092335	20100804.093119	8	0.013328	60	10	60-180	60	142	GapExp	0	69	2	3	1	distractor	0	840	-1000	-6706	13.328	13.059	13.597
DTProbeTrack02	2	ProbeTrack	12.1	SCS215a	20100804.092335	20100804.093126	8	0.013328	60	10	60-180	60	148	GapExp	0	70	2	6	1	distractor	0	613	-1000	-7706	14.488	13.291	173.253
DTProbeTrack02	2	ProbeTrack	12.1	SCS215a	20100804.092335	20100804.093132	8	0.013328	60	10	60-180	60	74	GapExp	0	71	2	1	0	target	0	1453	-1000	-8706	13.328	13.287	13.369
DTProbeTrack02	2	ProbeTrack	12.1	SCS215a	20100804.092335	20100804.093138	8	0.013328	60	10	60-180	60	108	GapExp	0	72	2	3	0	distractor	1	574	713	-7993	13.328	13.293	13.363
DTProbeTrack02	2	ProbeTrack	12.1	SCS215a	20100804.092335	20100804.093143	8	0.013328	60	10	60-180	60	99	GapExp	0	73	2	45	1	distractor	0	1107	-1000	-8993	13.328	13.292	13.363
DTProbeTrack02	2	ProbeTrack	12.1	SCS215a	20100804.092335	20100804.093150	8	0.013328	60	10	60-180	60	121	GapExp	0	74	2	45	0	target	0	760	-1000	-9993	13.328	13.293	13.363
DTProbeTrack02	2	ProbeTrack	12.1	SCS215a	20100804.092335	20100804.093156	8	0.013328	60	10	60-180	60	67	GapExp	0	75	2	9	1	distractor	0	680	-1000	-10993	13.328	13.293	13.363
DTProbeTrack02	2	ProbeTrack	12.1	SCS215a	20100804.092335	20100804.093201	8	0.013328	60	10	60-180	60	120	GapExp	0	76	2	45	1	distractor	0	587	-1000	-11993	13.328	13.293	13.363
DTProbeTrack02	2	ProbeTrack	12.1	SCS215a	20100804.092335	20100804.093207	8	0.013328	60	10	60-180	60	140	GapExp	0	77	2	3	1	target	1	654	673	-11320	13.328	13.293	13.363
DTProbeTrack02	2	ProbeTrack	12.1	SCS215a	20100804.092335	20100804.093213	8	0.013328	60	10	60-180	60	113	GapExp	0	78	2	3	0	target	0	947	-1000	-12320	13.328	13.136	13.553
DTProbeTrack02	2	ProbeTrack	12.1	SCS215a	20100804.092335	20100804.093219	8	0.013328	60	10	60-180	60	74	GapExp	0	79	2	45	1	distractor	0	3585	-1000	-13320	13.328	13.292	13.364
DTProbeTrack02	2	ProbeTrack	12.1	SCS215a	20100804.092335	20100804.093228	8	0.013328	60	10	60-180	60	90	GapExp	0	80	2	6	1	distractor	0	800	-1000	-14320	13.328	13.293	13.363
DTProbeTrack02	2	ProbeTrack	12.1	SCS215a	20100804.092335	20100804.093233	8	0.013328	60	10	60-180	60	156	GapExp	0	81	2	1	1	distractor	0	2986	-1000	-15320	13.328	13.058	13.632
DTProbeTrack02	2	ProbeTrack	12.1	SCS215a	20100804.092335	20100804.093242	8	0.013328	60	10	60-180	60	82	GapExp	0	82	2	3	0	distractor	1	1720	140	-15180	13.328	13.293	13.363
DTProbeTrack02	2	ProbeTrack	12.1	SCS215a	20100804.092335	20100804.093248	8	0.013328	60	10	60-180	60	100	GapExp	0	83	2	1	0	target	0	960	-1000	-16180	13.328	12.966	13.689
DTProbeTrack02	2	ProbeTrack	12.1	SCS215a	20100804.092335	20100804.093254	8	0.013328	60	10	60-180	60	124	GapExp	0	84	2	1	1	distractor	0	1413	-1000	-17180	13.377	13.293	26.690
DTProbeTrack02	2	ProbeTrack	12.1	SCS215a	20100804.092335	20100804.093300	8	0.013328	60	10	60-180	60	104	GapExp	0	85	2	3	1	distractor	0	1693	-1000	-18180	13.328	13.293	13.363
DTProbeTrack02	2	ProbeTrack	12.1	SCS215a	20100804.092335	20100804.093307	8	0.013328	60	10	60-180	60	166	GapExp	0	86	2	9	0	target	0	813	-1000	-19180	13.328	13.293	13.363
DTProbeTrack02	2	ProbeTrack	12.1	SCS215a	20100804.092335	20100804.093313	8	0.013328	60	10	60-180	60	101	GapExp	0	87	2	1	1	distractor	0	1853	-1000	-20180	13.328	13.293	13.372
DTProbeTrack02	2	ProbeTrack	12.1	SCS215a	20100804.092335	20100804.093320	8	0.013328	60	10	60-180	60	132	GapExp	0	88	2	9	1	distractor	0	614	-1000	-21180	13.425	13.293	27.066
DTProbeTrack02	2	ProbeTrack	12.1	SCS215a	20100804.092335	20100804.093326	8	0.013328	60	10	60-180	60	109	GapExp	0	89	2	1	0	target	0	880	-1000	-22180	13.328	13.293	13.395
DTProbeTrack02	2	ProbeTrack	12.1	SCS215a	20100804.092335	20100804.093332	8	0.013328	60	10	60-180	60	104	GapExp	0	90	2	6	1	distractor	0	760	-1000	-23180	13.380	13.186	26.731
DTProbeTrack02	2	ProbeTrack	12.1	SCS215a	20100804.092335	20100804.093337	8	0.013328	60	10	60-180	60	92	GapExp	0	91	2	1	1	target	1	1840	80	-23100	13.328	13.202	13.417
DTProbeTrack02	2	ProbeTrack	12.1	SCS215a	20100804.092335	20100804.093344	8	0.013328	60	10	60-180	60	155	GapExp	0	92	2	1	1	distractor	0	560	-1000	-24100	13.375	13.292	26.657
DTProbeTrack02	2	ProbeTrack	12.1	SCS215a	20100804.092335	20100804.093350	8	0.013328	60	10	60-180	60	79	GapExp	0	93	2	9	0	target	0	494	-1000	-25100	13.454	13.059	26.722
DTProbeTrack02	2	ProbeTrack	12.1	SCS215a	20100804.092335	20100804.093355	8	0.013328	60	10	60-180	60	85	GapExp	0	94	2	3	1	distractor	0	1080	-1000	-26100	13.328	13.136	13.520
DTProbeTrack02	2	ProbeTrack	12.1	SCS215a	20100804.092335	20100804.093400	8	0.013328	60	10	60-180	60	165	GapExp	0	95	2	6	0	target	0	654	-1000	-27100	13.328	13.231	13.388
DTProbeTrack02	2	ProbeTrack	12.1	SCS215a	20100804.092335	20100804.093407	8	0.013328	60	10	60-180	60	113	GapExp	0	96	2	6	1	distractor	0	627	-1000	-28100	13.328	13.231	13.391
DTProbeTrack02	2	ProbeTrack	12.1	SCS215a	20100804.092335	20100804.093412	8	0.013328	60	10	60-180	60	153	GapExp	0	97	2	6	1	distractor	0	1040	-1000	-29100	13.328	13.008	13.681
DTProbeTrack02	2	ProbeTrack	12.1	SCS215a	20100804.092335	20100804.093419	8	0.013328	60	10	60-180	60	100	GapExp	0	98	2	6	0	target	0	520	-1000	-30100	14.764	13.292	146.254
DTProbeTrack02	2	ProbeTrack	12.1	SCS215a	20100804.092335	20100804.093425	8	0.013328	60	10	60-180	60	171	GapExp	0	99	2	1	0	distractor	1	653	674	-29426	13.328	13.292	13.363
DTProbeTrack02	2	ProbeTrack	12.1	SCS215a	20100804.092335	20100804.093431	8	0.013328	60	10	60-180	60	84	GapExp	0	100	2	45	0	target	0	747	-1000	-30426	13.377	13.292	26.687
DTProbeTrack02	2	ProbeTrack	12.1	SCS215a	20100804.092335	20100804.093513	8	0.013328	60	10	60-180	60	170	GapExp	0	101	2	6	1	distractor	0	347	-1000	-31426	13.466	12.913	53.691
DTProbeTrack02	2	ProbeTrack	12.1	SCS215a	20100804.092335	20100804.093519	8	0.013328	60	10	60-180	60	75	GapExp	0	102	2	9	1	target	1	227	887	-30539	13.328	13.293	13.363
DTProbeTrack02	2	ProbeTrack	12.1	SCS215a	20100804.092335	20100804.093524	8	0.013328	60	10	60-180	60	66	GapExp	0	103	2	9	0	distractor	1	334	833	-29706	13.328	13.293	13.363
DTProbeTrack02	2	ProbeTrack	12.1	SCS215a	20100804.092335	20100804.093529	8	0.013328	60	10	60-180	60	119	GapExp	0	104	2	3	0	target	0	574	-1000	-30706	13.328	13.099	13.590
DTProbeTrack02	2	ProbeTrack	12.1	SCS215a	20100804.092335	20100804.093534	8	0.013328	60	10	60-180	60	75	GapExp	0	105	2	3	1	distractor	0	1600	-1000	-31706	13.327	13.094	13.561
DTProbeTrack02	2	ProbeTrack	12.1	SCS215a	20100804.092335	20100804.093540	8	0.013328	60	10	60-180	60	108	GapExp	0	106	2	9	0	target	0	1906	-1000	-32706	13.328	13.293	13.362
DTProbeTrack02	2	ProbeTrack	12.1	SCS215a	20100804.092335	20100804.093547	8	0.013328	60	10	60-180	60	165	GapExp	0	107	2	6	0	distractor	1	1453	274	-32432	13.328	13.292	13.389
DTProbeTrack02	2	ProbeTrack	12.1	SCS215a	20100804.092335	20100804.093554	8	0.013328	60	10	60-180	60	136	GapExp	0	108	2	45	1	distractor	0	560	-1000	-33432	13.328	12.907	13.748
DTProbeTrack02	2	ProbeTrack	12.1	SCS215a	20100804.092335	20100804.093601	8	0.013328	60	10	60-180	60	146	GapExp	0	109	2	3	1	target	1	480	760	-32672	13.328	12.979	13.643
DTProbeTrack02	2	ProbeTrack	12.1	SCS215a	20100804.092335	20100804.093607	8	0.013328	60	10	60-180	60	106	GapExp	0	110	2	3	1	distractor	0	507	-1000	-33672	13.327	13.293	13.363
DTProbeTrack02	2	ProbeTrack	12.1	SCS215a	20100804.092335	20100804.093612	8	0.013328	60	10	60-180	60	81	GapExp	0	111	2	9	1	target	1	813	594	-33078	13.328	13.293	13.363
DTProbeTrack02	2	ProbeTrack	12.1	SCS215a	20100804.092335	20100804.093617	8	0.013328	60	10	60-180	60	177	GapExp	0	112	2	6	0	distractor	1	280	860	-32218	13.373	13.293	26.689
DTProbeTrack02	2	ProbeTrack	12.1	SCS215a	20100804.092335	20100804.093624	8	0.013328	60	10	60-180	60	116	GapExp	0	113	2	45	0	target	0	-13	-1000	-33218	13.328	13.293	13.363
DTProbeTrack02	2	ProbeTrack	12.1	SCS215a	20100804.092335	20100804.093629	8	0.013328	60	10	60-180	60	89	GapExp	0	114	2	3	0	distractor	1	240	880	-32338	13.328	13.293	13.363
DTProbeTrack02	2	ProbeTrack	12.1	SCS215a	20100804.092335	20100804.093634	8	0.013328	60	10	60-180	60	117	GapExp	0	115	2	9	1	target	1	853	574	-31764	13.328	13.132	13.523
DTProbeTrack02	2	ProbeTrack	12.1	SCS215a	20100804.092335	20100804.093640	8	0.013328	60	10	60-180	60	84	GapExp	0	116	2	45	0	target	0	3266	-1000	-32764	13.328	12.972	13.650
DTProbeTrack02	2	ProbeTrack	12.1	SCS215a	20100804.092335	20100804.093648	8	0.013328	60	10	60-180	60	71	GapExp	0	117	2	45	0	distractor	1	707	647	-32117	13.328	13.292	13.363
DTProbeTrack02	2	ProbeTrack	12.1	SCS215a	20100804.092335	20100804.093654	8	0.013328	60	10	60-180	60	95	GapExp	0	118	2	1	1	distractor	0	7784	-1000	-33117	13.328	13.289	13.365
DTProbeTrack02	2	ProbeTrack	12.1	SCS215a	20100804.092335	20100804.093706	8	0.013328	60	10	60-180	60	61	GapExp	0	119	2	1	1	target	1	733	634	-32483	13.328	13.293	13.363
DTProbeTrack02	2	ProbeTrack	12.1	SCS215a	20100804.092335	20100804.093711	8	0.013328	60	10	60-180	60	172	GapExp	0	120	2	9	0	target	0	3572	-1000	-33483	13.450	13.293	53.310
DTProbeTrack02	2	ProbeTrack	12.1	SCS215a	20100804.092335	20100804.093721	8	0.013328	60	10	60-180	60	65	GapExp	0	121	2	45	1	distractor	0	2186	-1000	-34483	13.328	13.005	13.650
DTProbeTrack02	2	ProbeTrack	12.1	SCS215a	20100804.092335	20100804.093728	8	0.013328	60	10	60-180	60	135	GapExp	0	122	2	6	0	distractor	1	280	860	-33623	13.328	13.293	13.363
DTProbeTrack02	2	ProbeTrack	12.1	SCS215a	20100804.092335	20100804.093733	8	0.013328	60	10	60-180	60	119	GapExp	0	123	2	9	0	target	0	973	-1000	-34623	13.328	13.293	13.363
DTProbeTrack02	2	ProbeTrack	12.1	SCS215a	20100804.092335	20100804.093739	8	0.013328	60	10	60-180	60	146	GapExp	0	124	2	6	0	distractor	1	773	614	-34009	13.328	13.293	13.363
DTProbeTrack02	2	ProbeTrack	12.1	SCS215a	20100804.092335	20100804.093746	8	0.013328	60	10	60-180	60	151	GapExp	0	125	2	9	1	distractor	0	733	-1000	-35009	13.328	13.292	13.363
DTProbeTrack02	2	ProbeTrack	12.1	SCS215a	20100804.092335	20100804.093752	8	0.013328	60	10	60-180	60	92	GapExp	0	126	2	3	0	distractor	1	853	574	-34435	13.327	13.271	13.366
DTProbeTrack02	2	ProbeTrack	12.1	SCS215a	20100804.092335	20100804.093758	8	0.013328	60	10	60-180	60	129	GapExp	0	127	2	6	0	distractor	1	960	520	-33915	13.328	13.269	13.383
DTProbeTrack02	2	ProbeTrack	12.1	SCS215a	20100804.092335	20100804.093804	8	0.013328	60	10	60-180	60	161	GapExp	0	128	2	3	1	target	1	3732	0	-33915	13.328	13.293	13.362
DTProbeTrack02	2	ProbeTrack	12.1	SCS215a	20100804.092335	20100804.093813	8	0.013328	60	10	60-180	60	153	GapExp	0	129	2	45	0	target	0	720	-1000	-34915	13.328	13.053	13.602
DTProbeTrack02	2	ProbeTrack	12.1	SCS215a	20100804.092335	20100804.093820	8	0.013328	60	10	60-180	60	107	GapExp	0	130	2	1	0	distractor	1	1440	280	-34635	13.328	13.292	13.363
DTProbeTrack02	2	ProbeTrack	12.1	SCS215a	20100804.092335	20100804.093826	8	0.013328	60	10	60-180	60	178	GapExp	0	131	2	9	0	distractor	1	1306	347	-34288	13.328	13.292	13.363
DTProbeTrack02	2	ProbeTrack	12.1	SCS215a	20100804.092335	20100804.093834	8	0.013328	60	10	60-180	60	143	GapExp	0	132	2	3	0	distractor	1	1293	354	-33934	13.328	13.293	13.363
DTProbeTrack02	2	ProbeTrack	12.1	SCS215a	20100804.092335	20100804.093840	8	0.013328	60	10	60-180	60	176	GapExp	0	133	2	3	1	target	1	120	940	-32994	13.328	13.278	13.412
DTProbeTrack02	2	ProbeTrack	12.1	SCS215a	20100804.092335	20100804.093846	8	0.013328	60	10	60-180	60	105	GapExp	0	134	2	6	1	distractor	0	1080	-1000	-33994	13.328	13.233	13.424
DTProbeTrack02	2	ProbeTrack	12.1	SCS215a	20100804.092335	20100804.093852	8	0.013328	60	10	60-180	60	118	GapExp	0	135	2	9	0	distractor	1	480	760	-33234	13.381	13.292	26.654
DTProbeTrack02	2	ProbeTrack	12.1	SCS215a	20100804.092335	20100804.093858	8	0.013328	60	10	60-180	60	140	GapExp	0	136	2	9	1	distractor	0	1560	-1000	-34234	13.328	13.293	13.363
DTProbeTrack02	2	ProbeTrack	12.1	SCS215a	20100804.092335	20100804.093905	8	0.013328	60	10	60-180	60	133	GapExp	0	137	2	45	0	target	0	3426	-1000	-35234	13.328	13.292	13.364
DTProbeTrack02	2	ProbeTrack	12.1	SCS215a	20100804.092335	20100804.093914	8	0.013328	60	10	60-180	60	115	GapExp	0	138	2	6	0	distractor	1	840	580	-34654	13.328	13.293	13.363
DTProbeTrack02	2	ProbeTrack	12.1	SCS215a	20100804.092335	20100804.093920	8	0.013328	60	10	60-180	60	94	GapExp	0	139	2	1	0	target	0	1560	-1000	-35654	13.328	13.292	13.363
DTProbeTrack02	2	ProbeTrack	12.1	SCS215a	20100804.092335	20100804.093926	8	0.013328	60	10	60-180	60	113	GapExp	0	140	2	6	1	target	1	3679	0	-35654	13.328	13.293	13.363
DTProbeTrack02	2	ProbeTrack	12.1	SCS215a	20100804.092335	20100804.093935	8	0.013328	60	10	60-180	60	147	GapExp	0	141	2	9	1	distractor	0	1160	-1000	-36654	13.328	13.293	13.363
DTProbeTrack02	2	ProbeTrack	12.1	SCS215a	20100804.092335	20100804.093942	8	0.013328	60	10	60-180	60	138	GapExp	0	142	2	1	1	distractor	0	720	-1000	-37654	13.328	13.292	13.363
DTProbeTrack02	2	ProbeTrack	12.1	SCS215a	20100804.092335	20100804.093948	8	0.013328	60	10	60-180	60	100	GapExp	0	143	2	45	0	target	0	507	-1000	-38654	13.627	13.293	53.362
DTProbeTrack02	2	ProbeTrack	12.1	SCS215a	20100804.092335	20100804.093954	8	0.013328	60	10	60-180	60	170	GapExp	0	144	2	3	0	distractor	1	1440	280	-38374	13.328	13.293	13.363
DTProbeTrack02	2	ProbeTrack	12.1	SCS215a	20100804.092335	20100804.094001	8	0.013328	60	10	60-180	60	68	GapExp	0	145	2	3	1	distractor	0	1933	-1000	-39374	13.328	13.293	13.363
DTProbeTrack02	2	ProbeTrack	12.1	SCS215a	20100804.092335	20100804.094007	8	0.013328	60	10	60-180	60	106	GapExp	0	146	2	9	1	target	1	-13	1007	-38367	13.328	13.022	13.634
DTProbeTrack02	2	ProbeTrack	12.1	SCS215a	20100804.092335	20100804.094012	8	0.013328	60	10	60-180	60	94	GapExp	0	147	2	45	1	target	1	574	713	-37654	13.328	13.041	13.615
DTProbeTrack02	2	ProbeTrack	12.1	SCS215a	20100804.092335	20100804.094018	8	0.013328	60	10	60-180	60	101	GapExp	0	148	2	45	1	distractor	0	1586	-1000	-38654	13.328	13.293	13.363
DTProbeTrack02	2	ProbeTrack	12.1	SCS215a	20100804.092335	20100804.094025	8	0.013328	60	10	60-180	60	74	GapExp	0	149	2	6	0	target	0	1666	-1000	-39654	13.624	13.003	53.276
DTProbeTrack02	2	ProbeTrack	12.1	SCS215a	20100804.092335	20100804.094031	8	0.013328	60	10	60-180	60	143	GapExp	0	150	2	3	0	distractor	1	1853	74	-39580	13.419	13.292	26.840
DTProbeTrack02	2	ProbeTrack	12.1	SCS215a	20100804.092335	20100804.094057	8	0.013328	60	10	60-180	60	136	GapExp	0	151	2	1	0	83	-3	2413	-1000	-40580	13.611	13.039	93.549
DTProbeTrack02	2	ProbeTrack	12.1	SCS215a	20100804.092335	20100804.094105	8	0.013328	60	10	60-180	60	94	GapExp	0	152	2	3	1	target	1	1760	120	-40460	13.327	13.293	13.363
DTProbeTrack02	2	ProbeTrack	12.1	SCS215a	20100804.092335	20100804.094112	8	0.013328	60	10	60-180	60	166	GapExp	0	153	2	1	0	distractor	1	800	600	-39860	13.328	13.080	13.575
DTProbeTrack02	2	ProbeTrack	12.1	SCS215a	20100804.092335	20100804.094118	8	0.013328	60	10	60-180	60	146	GapExp	0	154	2	6	1	target	1	813	594	-39266	13.328	13.292	13.363
DTProbeTrack02	2	ProbeTrack	12.1	SCS215a	20100804.092335	20100804.094124	8	0.013328	60	10	60-180	60	139	GapExp	0	155	2	3	0	distractor	1	1027	487	-38779	13.328	13.056	13.633
DTProbeTrack02	2	ProbeTrack	12.1	SCS215a	20100804.092335	20100804.094131	8	0.013328	60	10	60-180	60	158	GapExp	0	156	2	1	1	distractor	0	94	-1000	-39779	13.380	13.293	26.622
DTProbeTrack02	2	ProbeTrack	12.1	SCS215a	20100804.092335	20100804.094136	8	0.013328	60	10	60-180	60	87	GapExp	0	157	2	6	0	distractor	1	1373	314	-39465	13.328	13.048	13.606
DTProbeTrack02	2	ProbeTrack	12.1	SCS215a	20100804.092335	20100804.094142	8	0.013328	60	10	60-180	60	136	GapExp	0	158	2	6	0	target	0	1706	-1000	-40465	13.328	12.983	13.673
DTProbeTrack02	2	ProbeTrack	12.1	SCS215a	20100804.092335	20100804.094150	8	0.013328	60	10	60-180	60	76	GapExp	0	159	2	1	1	distractor	0	1840	-1000	-41465	13.327	13.230	13.425
DTProbeTrack02	2	ProbeTrack	12.1	SCS215a	20100804.092335	20100804.094156	8	0.013328	60	10	60-180	60	87	GapExp	0	160	2	6	1	target	1	1187	407	-41058	13.327	13.293	13.363
DTProbeTrack02	2	ProbeTrack	12.1	SCS215a	20100804.092335	20100804.094202	8	0.013328	60	10	60-180	60	101	GapExp	0	161	2	45	1	distractor	0	1933	-1000	-42058	13.328	13.065	13.557
DTProbeTrack02	2	ProbeTrack	12.1	SCS215a	20100804.092335	20100804.094209	8	0.013328	60	10	60-180	60	102	GapExp	0	162	2	9	1	target	1	1640	180	-41878	13.328	13.186	13.435
DTProbeTrack02	2	ProbeTrack	12.1	SCS215a	20100804.092335	20100804.094216	8	0.013328	60	10	60-180	60	115	GapExp	0	163	2	9	0	distractor	1	1346	327	-41551	13.328	13.293	13.364
DTProbeTrack02	2	ProbeTrack	12.1	SCS215a	20100804.092335	20100804.094222	8	0.013328	60	10	60-180	60	104	GapExp	0	164	2	6	1	target	1	1426	287	-41264	13.327	13.231	13.458
DTProbeTrack02	2	ProbeTrack	12.1	SCS215a	20100804.092335	20100804.094228	8	0.013328	60	10	60-180	60	90	GapExp	0	165	2	6	1	distractor	0	840	-1000	-42264	13.327	13.211	13.477
DTProbeTrack02	2	ProbeTrack	12.1	SCS215a	20100804.092335	20100804.094234	8	0.013328	60	10	60-180	60	133	GapExp	0	166	2	9	0	distractor	1	2759	0	-42264	13.328	13.017	13.605
DTProbeTrack02	2	ProbeTrack	12.1	SCS215a	20100804.092335	20100804.094242	8	0.013328	60	10	60-180	60	144	GapExp	0	167	2	45	0	target	0	1040	-1000	-43264	13.328	13.101	13.588
DTProbeTrack02	2	ProbeTrack	12.1	SCS215a	20100804.092335	20100804.094249	8	0.013328	60	10	60-180	60	138	GapExp	0	168	2	9	0	distractor	1	680	660	-42604	13.328	12.924	13.698
DTProbeTrack02	2	ProbeTrack	12.1	SCS215a	20100804.092335	20100804.094255	8	0.013328	60	10	60-180	60	79	GapExp	0	169	2	6	1	target	1	640	680	-41924	13.327	13.293	13.362
DTProbeTrack02	2	ProbeTrack	12.1	SCS215a	20100804.092335	20100804.094300	8	0.013328	60	10	60-180	60	167	GapExp	0	170	2	3	1	distractor	0	0	-1000	-42924	13.328	13.293	13.363
DTProbeTrack02	2	ProbeTrack	12.1	SCS215a	20100804.092335	20100804.094306	8	0.013328	60	10	60-180	60	77	GapExp	0	171	2	45	1	distractor	0	1440	-1000	-43924	13.328	13.273	13.363
DTProbeTrack02	2	ProbeTrack	12.1	SCS215a	20100804.092335	20100804.094312	8	0.013328	60	10	60-180	60	119	GapExp	0	172	2	1	0	target	0	1373	-1000	-44924	13.328	13.293	13.363
DTProbeTrack02	2	ProbeTrack	12.1	SCS215a	20100804.092335	20100804.094319	8	0.013328	60	10	60-180	60	73	GapExp	0	173	2	45	1	distractor	0	973	-1000	-45924	13.328	13.010	13.680
DTProbeTrack02	2	ProbeTrack	12.1	SCS215a	20100804.092335	20100804.094325	8	0.013328	60	10	60-180	60	93	GapExp	0	174	2	9	1	target	1	1546	227	-45697	13.328	13.293	13.364
DTProbeTrack02	2	ProbeTrack	12.1	SCS215a	20100804.092335	20100804.094331	8	0.013328	60	10	60-180	60	67	GapExp	0	175	2	45	1	distractor	0	2133	-1000	-46697	13.431	13.293	40.014
DTProbeTrack02	2	ProbeTrack	12.1	SCS215a	20100804.092335	20100804.094338	8	0.013328	60	10	60-180	60	168	GapExp	0	176	2	9	0	target	0	1107	-1000	-47697	13.535	13.292	40.108
DTProbeTrack02	2	ProbeTrack	12.1	SCS215a	20100804.092335	20100804.094345	8	0.013328	60	10	60-180	60	141	GapExp	0	177	2	6	1	distractor	0	214	-1000	-48697	13.328	13.062	13.560
DTProbeTrack02	2	ProbeTrack	12.1	SCS215a	20100804.092335	20100804.094351	8	0.013328	60	10	60-180	60	171	GapExp	0	178	2	45	0	distractor	1	27	987	-47710	13.328	13.248	13.442
DTProbeTrack02	2	ProbeTrack	12.1	SCS215a	20100804.092335	20100804.094357	8	0.013328	60	10	60-180	60	158	GapExp	0	179	2	9	1	distractor	0	1133	-1000	-48710	13.456	13.293	53.312
DTProbeTrack02	2	ProbeTrack	12.1	SCS215a	20100804.092335	20100804.094404	8	0.013328	60	10	60-180	60	165	GapExp	0	180	2	1	0	distractor	1	1013	494	-48216	13.327	13.283	13.370
DTProbeTrack02	2	ProbeTrack	12.1	SCS215a	20100804.092335	20100804.094411	8	0.013328	60	10	60-180	60	143	GapExp	0	181	2	45	0	target	0	1427	-1000	-49216	13.328	13.216	13.473
DTProbeTrack02	2	ProbeTrack	12.1	SCS215a	20100804.092335	20100804.094418	8	0.013328	60	10	60-180	60	164	GapExp	0	182	2	6	1	distractor	0	1653	-1000	-50216	13.328	13.293	13.366
DTProbeTrack02	2	ProbeTrack	12.1	SCS215a	20100804.092335	20100804.094425	8	0.013328	60	10	60-180	60	81	GapExp	0	183	2	45	0	distractor	1	1120	440	-49776	13.328	12.998	13.658
DTProbeTrack02	2	ProbeTrack	12.1	SCS215a	20100804.092335	20100804.094432	8	0.013328	60	10	60-180	60	176	GapExp	0	184	2	9	0	target	0	1920	-1000	-50776	13.328	13.188	13.433
DTProbeTrack02	2	ProbeTrack	12.1	SCS215a	20100804.092335	20100804.094439	8	0.013328	60	10	60-180	60	127	GapExp	0	185	2	6	0	distractor	1	560	720	-50056	13.328	13.292	13.363
DTProbeTrack02	2	ProbeTrack	12.1	SCS215a	20100804.092335	20100804.094445	8	0.013328	60	10	60-180	60	85	GapExp	0	186	2	3	0	distractor	1	1600	200	-49856	13.385	12.828	27.155
DTProbeTrack02	2	ProbeTrack	12.1	SCS215a	20100804.092335	20100804.094451	8	0.013328	60	10	60-180	60	154	GapExp	0	187	2	6	0	target	0	1573	-1000	-50856	13.371	13.288	26.507
DTProbeTrack02	2	ProbeTrack	12.1	SCS215a	20100804.092335	20100804.094459	8	0.013328	60	10	60-180	60	156	GapExp	0	188	2	9	0	distractor	1	2719	0	-50856	13.328	13.293	13.363
DTProbeTrack02	2	ProbeTrack	12.1	SCS215a	20100804.092335	20100804.094507	8	0.013328	60	10	60-180	60	174	GapExp	0	189	2	3	1	target	1	-13	1007	-49849	13.328	13.292	13.364
DTProbeTrack02	2	ProbeTrack	12.1	SCS215a	20100804.092335	20100804.094513	8	0.013328	60	10	60-180	60	99	GapExp	0	190	2	3	0	distractor	1	1386	307	-49542	13.327	13.257	13.398
DTProbeTrack02	2	ProbeTrack	12.1	SCS215a	20100804.092335	20100804.094519	8	0.013328	60	10	60-180	60	167	GapExp	0	191	2	6	1	target	1	920	540	-49002	13.328	13.292	13.363
DTProbeTrack02	2	ProbeTrack	12.1	SCS215a	20100804.092335	20100804.094526	8	0.013328	60	10	60-180	60	124	GapExp	0	192	2	9	1	distractor	0	747	-1000	-50002	13.328	13.252	13.437
DTProbeTrack02	2	ProbeTrack	12.1	SCS215a	20100804.092335	20100804.094532	8	0.013328	60	10	60-180	60	75	GapExp	0	193	2	1	0	target	0	1306	-1000	-51002	13.328	13.293	13.363
DTProbeTrack02	2	ProbeTrack	12.1	SCS215a	20100804.092335	20100804.094537	8	0.013328	60	10	60-180	60	62	GapExp	0	194	2	1	0	distractor	1	1453	274	-50728	13.328	12.934	13.721
DTProbeTrack02	2	ProbeTrack	12.1	SCS215a	20100804.092335	20100804.094543	8	0.013328	60	10	60-180	60	172	GapExp	0	195	2	3	1	target	1	1733	134	-50594	13.328	13.023	13.631
DTProbeTrack02	2	ProbeTrack	12.1	SCS215a	20100804.092335	20100804.094551	8	0.013328	60	10	60-180	60	87	GapExp	0	196	2	3	0	distractor	1	2159	0	-50594	13.328	13.293	13.363
DTProbeTrack02	2	ProbeTrack	12.1	SCS215a	20100804.092335	20100804.094557	8	0.013328	60	10	60-180	60	128	GapExp	0	197	2	45	0	distractor	1	1693	154	-50440	13.328	13.011	13.645
DTProbeTrack02	2	ProbeTrack	12.1	SCS215a	20100804.092335	20100804.094605	8	0.013328	60	10	60-180	60	130	GapExp	0	198	2	3	0	distractor	1	1053	474	-49966	13.328	13.293	13.363
DTProbeTrack02	2	ProbeTrack	12.1	SCS215a	20100804.092335	20100804.094611	8	0.013328	60	10	60-180	60	84	GapExp	0	199	2	1	1	target	1	734	633	-49333	13.327	13.165	13.524
DTProbeTrack02	2	ProbeTrack	12.1	SCS215a	20100804.092335	20100804.094616	8	0.013328	60	10	60-180	60	172	GapExp	0	200	2	6	1	distractor	0	4972	-1000	-50333	13.328	13.225	13.431
DTProbeTrack02	2	ProbeTrack	12.1	SCS215a	20100804.092335	20100804.094707	8	0.013328	60	10	60-180	60	170	GapExp	0	201	2	9	1	distractor	0	2173	-1000	-51333	13.328	13.293	13.363
DTProbeTrack02	2	ProbeTrack	12.1	SCS215a	20100804.092335	20100804.094715	8	0.013328	60	10	60-180	60	106	GapExp	0	202	2	1	0	distractor	1	4372	0	-51333	13.328	13.292	13.363
DTProbeTrack02	2	ProbeTrack	12.1	SCS215a	20100804.092335	20100804.094724	8	0.013328	60	10	60-180	60	177	GapExp	0	203	2	1	1	target	1	-13	1007	-50326	13.328	13.289	13.367
DTProbeTrack02	2	ProbeTrack	12.1	SCS215a	20100804.092335	20100804.094730	8	0.013328	60	10	60-180	60	76	GapExp	0	204	2	45	0	distractor	1	80	960	-49366	13.328	13.193	13.463
DTProbeTrack02	2	ProbeTrack	12.1	SCS215a	20100804.092335	20100804.094735	8	0.013328	60	10	60-180	60	175	GapExp	0	205	2	1	0	target	0	294	-1000	-50366	13.328	13.101	13.588
