exp	sub	code	rev	comp	runtime	trialtime	nstim	refreshdur	cuedur	gapdur	gapOnsetRange	durPostProbe	gapOnsetTime	blocktype	prac	trial	ntargets	soa	probeTarget	resp	acc	rt	pts	tpts	meanFrameDur	minFrameDur	maxFrameDur
DTProbeTrack02	14	ProbeTrack	12.1	SCS215a	20101008.085508	20101008.085550	8	0.013346	60	0	60-180	60	117	NoGap	1	1	2	45	0	distractor	1	2946	0	0	13.328	12.926	13.738
DTProbeTrack02	14	ProbeTrack	12.1	SCS215a	20101008.085508	20101008.085559	8	0.013346	60	0	60-180	60	78	NoGap	1	2	2	6	0	distractor	1	1533	234	234	13.449	12.840	39.989
DTProbeTrack02	14	ProbeTrack	12.1	SCS215a	20101008.085508	20101008.085605	8	0.013346	60	0	60-180	60	150	NoGap	1	3	2	3	1	target	1	574	713	947	13.328	12.889	13.757
DTProbeTrack02	14	ProbeTrack	12.1	SCS215a	20101008.085508	20101008.085610	8	0.013346	60	0	60-180	60	169	NoGap	1	4	2	9	0	distractor	1	547	727	1674	14.096	12.929	40.106
DTProbeTrack02	14	ProbeTrack	12.1	SCS215a	20101008.085508	20101008.085617	8	0.013346	60	0	60-180	60	179	NoGap	1	5	2	45	1	target	1	387	807	2481	13.409	12.865	26.713
DTProbeTrack02	14	ProbeTrack	12.1	SCS215a	20101008.085508	20101008.085624	8	0.013346	60	0	60-180	60	135	NoGap	1	6	2	3	0	distractor	1	720	640	3121	13.328	13.112	13.555
DTProbeTrack02	14	ProbeTrack	12.1	SCS215a	20101008.085508	20101008.085629	8	0.013346	60	0	60-180	60	126	NoGap	1	7	2	9	1	target	1	494	753	3874	13.328	12.906	13.652
DTProbeTrack02	14	ProbeTrack	12.1	SCS215a	20101008.085508	20101008.085635	8	0.013346	60	0	60-180	60	147	NoGap	1	8	2	45	0	distractor	1	827	587	4461	13.328	12.887	13.771
DTProbeTrack02	14	ProbeTrack	12.1	SCS215a	20101008.085508	20101008.085642	8	0.013346	60	0	60-180	60	116	NoGap	1	9	2	45	1	target	1	320	840	5301	13.379	12.883	26.708
DTProbeTrack02	14	ProbeTrack	12.1	SCS215a	20101008.085508	20101008.085647	8	0.013346	60	0	60-180	60	157	NoGap	1	10	2	6	1	target	1	494	753	6054	14.290	12.925	39.995
DTProbeTrack02	14	ProbeTrack	12.1	SCS215a	20101008.085508	20101008.085654	8	0.013346	60	0	60-180	60	175	NoGap	1	11	2	6	1	target	1	414	793	6847	13.328	12.978	13.707
DTProbeTrack02	14	ProbeTrack	12.1	SCS215a	20101008.085508	20101008.085700	8	0.013346	60	0	60-180	60	117	NoGap	1	12	2	6	0	distractor	1	667	667	7514	13.328	12.865	13.784
DTProbeTrack02	14	ProbeTrack	12.1	SCS215a	20101008.085508	20101008.085705	8	0.013346	60	0	60-180	60	63	NoGap	1	13	2	1	1	target	1	454	773	8287	13.404	12.835	26.696
DTProbeTrack02	14	ProbeTrack	12.1	SCS215a	20101008.085508	20101008.085710	8	0.013346	60	0	60-180	60	166	NoGap	1	14	2	1	0	distractor	1	587	707	8994	13.374	12.906	26.638
DTProbeTrack02	14	ProbeTrack	12.1	SCS215a	20101008.085508	20101008.085716	8	0.013346	60	0	60-180	60	78	NoGap	1	15	2	3	0	distractor	1	640	680	9674	13.457	12.855	26.646
DTProbeTrack02	14	ProbeTrack	12.1	SCS215a	20101008.085508	20101008.085721	8	0.013346	60	0	60-180	60	106	NoGap	1	16	2	3	1	target	1	440	780	10454	13.450	13.023	26.654
DTProbeTrack02	14	ProbeTrack	12.1	SCS215a	20101008.085508	20101008.085726	8	0.013346	60	0	60-180	60	141	NoGap	1	17	2	45	0	distractor	1	414	793	11247	13.509	12.856	39.988
DTProbeTrack02	14	ProbeTrack	12.1	SCS215a	20101008.085508	20101008.085732	8	0.013346	60	0	60-180	60	128	NoGap	1	18	2	1	0	target	0	614	-1000	10247	13.328	12.856	13.795
DTProbeTrack02	14	ProbeTrack	12.1	SCS215a	20101008.085508	20101008.085738	8	0.013346	60	0	60-180	60	163	NoGap	1	19	2	9	1	target	1	574	713	10960	13.509	12.856	27.130
DTProbeTrack02	14	ProbeTrack	12.1	SCS215a	20101008.085508	20101008.085744	8	0.013346	60	0	60-180	60	101	NoGap	1	20	2	3	0	distractor	1	507	747	11707	13.511	12.849	26.877
DTProbeTrack02	14	ProbeTrack	12.1	SCS215a	20101008.085508	20101008.085749	8	0.013346	60	0	60-180	60	73	NoGap	1	21	2	1	1	target	1	473	764	12471	13.621	12.866	26.931
DTProbeTrack02	14	ProbeTrack	12.1	SCS215a	20101008.085508	20101008.085754	8	0.013346	60	0	60-180	60	136	NoGap	1	22	2	1	0	distractor	1	467	767	13238	13.647	12.870	27.115
DTProbeTrack02	14	ProbeTrack	12.1	SCS215a	20101008.085508	20101008.085759	8	0.013346	60	0	60-180	60	159	NoGap	1	23	2	3	1	target	1	320	840	14078	13.835	12.849	40.431
DTProbeTrack02	14	ProbeTrack	12.1	SCS215a	20101008.085508	20101008.085805	8	0.013346	60	0	60-180	60	128	NoGap	1	24	2	45	0	distractor	1	547	727	14805	13.465	12.893	27.072
DTProbeTrack02	14	ProbeTrack	12.1	SCS215a	20101008.085508	20101008.085811	8	0.013346	60	0	60-180	60	166	NoGap	1	25	2	6	0	distractor	1	534	733	15538	13.374	12.936	27.065
DTProbeTrack02	14	ProbeTrack	12.1	SCS215a	20101008.085508	20101008.085818	8	0.013346	60	0	60-180	60	168	NoGap	1	26	2	45	1	target	1	374	813	16351	13.328	12.876	13.771
DTProbeTrack02	14	ProbeTrack	12.1	SCS215a	20101008.085508	20101008.085824	8	0.013346	60	0	60-180	60	119	NoGap	1	27	2	3	1	target	1	414	793	17144	13.386	12.874	26.643
DTProbeTrack02	14	ProbeTrack	12.1	SCS215a	20101008.085508	20101008.085829	8	0.013346	60	0	60-180	60	94	NoGap	1	28	2	9	0	distractor	1	627	687	17831	13.328	13.196	13.450
DTProbeTrack02	14	ProbeTrack	12.1	SCS215a	20101008.085508	20101008.085835	8	0.013346	60	0	60-180	60	114	NoGap	1	29	2	9	1	target	1	387	807	18638	13.386	12.961	26.737
DTProbeTrack02	14	ProbeTrack	12.1	SCS215a	20101008.085508	20101008.085840	8	0.013346	60	0	60-180	60	89	NoGap	1	30	2	9	1	target	1	480	760	19398	13.328	13.114	13.543
DTProbeTrack02	14	ProbeTrack	12.1	SCS215a	20101008.085508	20101008.085845	8	0.013346	60	0	60-180	60	165	NoGap	1	31	2	9	0	distractor	1	440	780	20178	13.375	12.871	26.659
DTProbeTrack02	14	ProbeTrack	12.1	SCS215a	20101008.085508	20101008.085851	8	0.013346	60	0	60-180	60	103	NoGap	1	32	2	1	0	target	0	640	-1000	19178	13.328	12.884	13.786
DTProbeTrack02	14	ProbeTrack	12.1	SCS215a	20101008.085508	20101008.085856	8	0.013346	60	0	60-180	60	73	NoGap	1	33	2	6	0	distractor	1	587	707	19885	13.394	13.055	26.937
DTProbeTrack02	14	ProbeTrack	12.1	SCS215a	20101008.085508	20101008.085901	8	0.013346	60	0	60-180	60	116	NoGap	1	34	2	6	1	target	1	574	713	20598	13.383	13.106	26.707
DTProbeTrack02	14	ProbeTrack	12.1	SCS215a	20101008.085508	20101008.085906	8	0.013346	60	0	60-180	60	157	NoGap	1	35	2	45	1	target	1	374	813	21411	13.591	12.863	40.016
DTProbeTrack02	14	ProbeTrack	12.1	SCS215a	20101008.085508	20101008.085913	8	0.013346	60	0	60-180	60	89	NoGap	1	36	2	9	0	distractor	1	507	747	22158	14.018	12.894	159.981
DTProbeTrack02	14	ProbeTrack	12.1	SCS215a	20101008.085508	20101008.085918	8	0.013346	60	0	60-180	60	169	NoGap	1	37	2	6	1	target	1	335	833	22991	13.857	12.857	133.248
DTProbeTrack02	14	ProbeTrack	12.1	SCS215a	20101008.085508	20101008.085924	8	0.013346	60	0	60-180	60	170	NoGap	1	38	2	1	1	target	1	427	787	23778	13.375	12.916	26.720
DTProbeTrack02	14	ProbeTrack	12.1	SCS215a	20101008.085508	20101008.085930	8	0.013346	60	0	60-180	60	106	NoGap	1	39	2	1	1	distractor	0	440	-1000	22778	13.328	12.906	13.752
DTProbeTrack02	14	ProbeTrack	12.1	SCS215a	20101008.085508	20101008.085935	8	0.013346	60	0	60-180	60	142	NoGap	1	40	2	3	0	distractor	1	693	654	23432	13.328	12.870	13.794
DTProbeTrack02	14	ProbeTrack	12.1	SCS215a	20101008.090026	20101008.090040	8	0.013328	60	10	60-180	60	132	GapPrac	1	1	2	9	1	target	1	813	594	24026	13.374	12.972	26.179
DTProbeTrack02	14	ProbeTrack	12.1	SCS215a	20101008.090026	20101008.090046	8	0.013328	60	10	60-180	60	105	GapPrac	1	2	2	3	0	distractor	1	720	640	24666	13.328	12.894	13.763
DTProbeTrack02	14	ProbeTrack	12.1	SCS215a	20101008.090026	20101008.090052	8	0.013328	60	10	60-180	60	119	GapPrac	1	3	2	3	1	target	1	480	760	25426	13.437	13.114	26.672
DTProbeTrack02	14	ProbeTrack	12.1	SCS215a	20101008.090026	20101008.090057	8	0.013328	60	10	60-180	60	164	GapPrac	1	4	2	45	1	target	1	560	720	26146	13.328	12.922	13.731
DTProbeTrack02	14	ProbeTrack	12.1	SCS215a	20101008.090026	20101008.090104	8	0.013328	60	10	60-180	60	76	GapPrac	1	5	2	45	1	target	1	494	753	26899	13.437	12.835	26.934
DTProbeTrack02	14	ProbeTrack	12.1	SCS215a	20101008.090026	20101008.090109	8	0.013328	60	10	60-180	60	153	GapPrac	1	6	2	9	0	distractor	1	667	667	27566	13.328	12.983	13.697
DTProbeTrack02	14	ProbeTrack	12.1	SCS215a	20101008.090026	20101008.090116	8	0.013328	60	10	60-180	60	91	GapPrac	1	7	2	6	0	distractor	1	653	674	28240	13.328	12.928	13.735
DTProbeTrack02	14	ProbeTrack	12.1	SCS215a	20101008.090026	20101008.090121	8	0.013328	60	10	60-180	60	128	GapPrac	1	8	2	45	0	target	0	747	-1000	27240	13.328	12.892	13.780
DTProbeTrack02	14	ProbeTrack	12.1	SCS215a	20101008.090026	20101008.090127	8	0.013328	60	10	60-180	60	174	GapPrac	1	9	2	6	1	target	1	613	694	27934	13.370	12.894	26.653
DTProbeTrack02	14	ProbeTrack	12.1	SCS215a	20101008.090026	20101008.090134	8	0.013328	60	10	60-180	60	77	GapPrac	1	10	2	3	1	target	1	1053	474	28408	13.328	13.138	13.611
DTProbeTrack02	14	ProbeTrack	12.1	SCS215a	20101008.090026	20101008.090139	8	0.013328	60	10	60-180	60	157	GapPrac	1	11	2	45	0	target	0	613	-1000	27408	13.328	12.949	13.696
DTProbeTrack02	14	ProbeTrack	12.1	SCS215a	20101008.090026	20101008.090146	8	0.013328	60	10	60-180	60	130	GapPrac	1	12	2	3	0	distractor	1	760	620	28028	13.376	12.885	27.111
DTProbeTrack02	14	ProbeTrack	12.1	SCS215a	20101008.090026	20101008.090152	8	0.013328	60	10	60-180	60	114	GapPrac	1	13	2	1	0	target	0	787	-1000	27028	13.379	13.067	26.649
DTProbeTrack02	14	ProbeTrack	12.1	SCS215a	20101008.090026	20101008.090157	8	0.013328	60	10	60-180	60	159	GapPrac	1	14	2	1	0	distractor	1	680	660	27688	13.372	12.862	27.027
DTProbeTrack02	14	ProbeTrack	12.1	SCS215a	20101008.090026	20101008.090204	8	0.013328	60	10	60-180	60	66	GapPrac	1	15	2	6	0	distractor	1	640	680	28368	13.392	12.928	26.659
DTProbeTrack02	14	ProbeTrack	12.1	SCS215a	20101008.090026	20101008.090209	8	0.013328	60	10	60-180	60	98	GapPrac	1	16	2	1	1	target	1	720	640	29008	13.328	12.865	13.790
DTProbeTrack02	14	ProbeTrack	12.1	SCS215a	20101008.090026	20101008.090214	8	0.013328	60	10	60-180	60	139	GapPrac	1	17	2	9	1	distractor	0	467	-1000	28008	13.377	12.849	26.658
DTProbeTrack02	14	ProbeTrack	12.1	SCS215a	20101008.090026	20101008.090220	8	0.013328	60	10	60-180	60	65	GapPrac	1	18	2	1	1	target	1	787	607	28615	13.328	13.028	13.632
DTProbeTrack02	14	ProbeTrack	12.1	SCS215a	20101008.090026	20101008.090225	8	0.013328	60	10	60-180	60	112	GapPrac	1	19	2	9	0	target	0	720	-1000	27615	13.481	12.876	26.939
DTProbeTrack02	14	ProbeTrack	12.1	SCS215a	20101008.090026	20101008.090231	8	0.013328	60	10	60-180	60	74	GapPrac	1	20	2	6	1	target	1	680	660	28275	13.328	12.888	13.781
DTProbeTrack02	14	ProbeTrack	12.1	SCS215a	20101008.090653	20101008.090710	8	0.013322	60	10	60-180	60	143	GapExp	1	1	2	1	1	target	1	693	654	28929	13.328	12.970	13.676
DTProbeTrack02	14	ProbeTrack	12.1	SCS215a	20101008.090738	20101008.090743	8	0.013328	60	10	60-180	60	172	GapPrac	1	1	2	3	1	target	1	200	900	29829	13.328	12.878	13.770
DTProbeTrack02	14	ProbeTrack	12.1	SCS215a	20101008.090738	20101008.090749	8	0.013328	60	10	60-180	60	145	GapPrac	1	2	2	9	1	distractor	0	827	-1000	28829	13.417	12.955	40.343
DTProbeTrack02	14	ProbeTrack	12.1	SCS215a	20101008.090738	20101008.090755	8	0.013328	60	10	60-180	60	175	GapPrac	1	3	2	45	0	target	0	67	-1000	27829	13.328	12.884	13.673
DTProbeTrack02	14	ProbeTrack	12.1	SCS215a	20101008.090738	20101008.090802	8	0.013328	60	10	60-180	60	91	GapPrac	1	4	2	9	0	target	0	6971	-1000	26829	13.328	12.872	13.768
DTProbeTrack02	14	ProbeTrack	12.1	SCS215a	20101008.090738	20101008.090813	8	0.013328	60	10	60-180	60	169	GapPrac	1	5	2	3	0	target	0	480	-1000	25829	13.373	12.851	27.146
DTProbeTrack02	14	ProbeTrack	12.1	SCS215a	20101008.090738	20101008.090820	8	0.013328	60	10	60-180	60	80	GapPrac	1	6	2	6	0	target	0	574	-1000	24829	13.328	12.950	13.703
DTProbeTrack02	14	ProbeTrack	12.1	SCS215a	20101008.090738	20101008.090825	8	0.013328	60	10	60-180	60	128	GapPrac	1	7	2	1	1	target	1	1773	114	24943	13.328	12.977	13.689
DTProbeTrack02	14	ProbeTrack	12.1	SCS215a	20101008.090738	20101008.090831	8	0.013328	60	10	60-180	60	81	GapPrac	1	8	2	45	0	target	0	987	-1000	23943	13.328	12.858	13.801
DTProbeTrack02	14	ProbeTrack	12.1	SCS215a	20101008.090738	20101008.090837	8	0.013328	60	10	60-180	60	112	GapPrac	1	9	2	6	1	target	1	1147	427	24370	13.429	12.862	27.129
DTProbeTrack02	14	ProbeTrack	12.1	SCS215a	20101008.090738	20101008.090844	8	0.013328	60	10	60-180	60	168	GapPrac	1	10	2	1	1	target	1	560	720	25090	15.431	12.861	133.655
DTProbeTrack02	14	ProbeTrack	12.1	SCS215a	20101008.090738	20101008.090850	8	0.013328	60	10	60-180	60	130	GapPrac	1	11	2	6	0	target	0	1973	-1000	24090	13.328	12.865	13.793
DTProbeTrack02	14	ProbeTrack	12.1	SCS215a	20101008.090738	20101008.090858	8	0.013328	60	10	60-180	60	74	GapPrac	1	12	2	1	0	target	0	1253	-1000	23090	13.449	12.919	26.996
DTProbeTrack02	14	ProbeTrack	12.1	SCS215a	20101008.090738	20101008.090903	8	0.013328	60	10	60-180	60	70	GapPrac	1	13	2	45	1	target	1	2559	0	23090	13.379	12.900	26.657
DTProbeTrack02	14	ProbeTrack	12.1	SCS215a	20101008.090738	20101008.090911	8	0.013328	60	10	60-180	60	163	GapPrac	1	14	2	3	1	distractor	0	3492	-1000	22090	13.458	12.890	26.950
DTProbeTrack02	14	ProbeTrack	12.1	SCS215a	20101008.090738	20101008.090920	8	0.013328	60	10	60-180	60	61	GapPrac	1	15	2	1	0	distractor	1	867	567	22657	13.392	13.302	26.656
DTProbeTrack02	14	ProbeTrack	12.1	SCS215a	20101008.090738	20101008.090925	8	0.013328	60	10	60-180	60	61	GapPrac	1	16	2	45	1	target	1	680	660	23317	13.658	12.866	26.881
DTProbeTrack02	14	ProbeTrack	12.1	SCS215a	20101008.090738	20101008.090930	8	0.013328	60	10	60-180	60	114	GapPrac	1	17	2	6	1	target	1	3599	0	23317	13.328	12.875	13.767
DTProbeTrack02	14	ProbeTrack	12.1	SCS215a	20101008.090738	20101008.090939	8	0.013328	60	10	60-180	60	118	GapPrac	1	18	2	9	1	target	1	3332	0	23317	13.426	12.999	26.653
DTProbeTrack02	14	ProbeTrack	12.1	SCS215a	20101008.090738	20101008.090947	8	0.013328	60	10	60-180	60	149	GapPrac	1	19	2	9	0	target	0	1120	-1000	22317	13.328	12.879	13.784
DTProbeTrack02	14	ProbeTrack	12.1	SCS215a	20101008.090738	20101008.090954	8	0.013328	60	10	60-180	60	105	GapPrac	1	20	2	3	0	target	0	1480	-1000	21317	13.328	12.882	13.796
DTProbeTrack02	14	ProbeTrack	12.1	SCS215a	20101008.091112	20101008.091118	8	0.013328	60	10	60-180	60	158	GapExp	1	1	2	9	0	distractor	1	840	580	21897	13.370	12.906	27.075
DTProbeTrack02	14	ProbeTrack	12.1	SCS215a	20101008.091112	20101008.091124	8	0.013328	60	10	60-180	60	62	GapExp	1	2	2	3	0	distractor	1	733	634	22531	13.392	13.058	26.654
DTProbeTrack02	14	ProbeTrack	12.1	SCS215a	20101008.091112	20101008.091129	8	0.013328	60	10	60-180	60	100	GapExp	1	3	2	45	0	target	0	747	-1000	21531	13.420	12.866	26.666
DTProbeTrack02	14	ProbeTrack	12.1	SCS215a	20101008.091112	20101008.091135	8	0.013328	60	10	60-180	60	98	GapExp	1	4	2	9	1	target	1	1746	127	21658	13.328	12.888	13.782
DTProbeTrack02	14	ProbeTrack	12.1	SCS215a	20101008.091112	20101008.091142	8	0.013328	60	10	60-180	60	163	GapExp	1	5	2	45	1	target	1	2613	0	21658	13.328	12.853	13.803
DTProbeTrack02	14	ProbeTrack	12.1	SCS215a	20101008.091112	20101008.091151	8	0.013328	60	10	60-180	60	155	GapExp	0	6	2	45	1	target	1	1666	167	21825	13.366	12.868	26.641
DTProbeTrack02	14	ProbeTrack	12.1	SCS215a	20101008.091112	20101008.091158	8	0.013328	60	10	60-180	60	151	GapExp	0	7	2	45	0	distractor	1	1093	454	22279	13.484	12.851	26.662
DTProbeTrack02	14	ProbeTrack	12.1	SCS215a	20101008.091112	20101008.091206	8	0.013328	60	10	60-180	60	142	GapExp	0	8	2	3	0	target	0	760	-1000	21279	13.328	12.881	13.770
DTProbeTrack02	14	ProbeTrack	12.1	SCS215a	20101008.091112	20101008.091212	8	0.013328	60	10	60-180	60	62	GapExp	0	9	2	9	1	target	1	494	753	22032	13.670	12.875	27.103
DTProbeTrack02	14	ProbeTrack	12.1	SCS215a	20101008.091112	20101008.091216	8	0.013328	60	10	60-180	60	115	GapExp	0	10	2	6	1	target	1	5558	0	22032	13.428	12.919	27.084
DTProbeTrack02	14	ProbeTrack	12.1	SCS215a	20101008.091112	20101008.091227	8	0.013328	60	10	60-180	60	159	GapExp	0	11	2	1	1	target	1	520	740	22772	13.468	12.855	27.122
DTProbeTrack02	14	ProbeTrack	12.1	SCS215a	20101008.091112	20101008.091233	8	0.013328	60	10	60-180	60	113	GapExp	0	12	2	6	1	target	1	787	607	23379	13.429	12.844	27.135
DTProbeTrack02	14	ProbeTrack	12.1	SCS215a	20101008.091112	20101008.091239	8	0.013328	60	10	60-180	60	122	GapExp	0	13	2	45	0	target	0	520	-1000	22379	13.328	12.839	13.816
DTProbeTrack02	14	ProbeTrack	12.1	SCS215a	20101008.091112	20101008.091245	8	0.013328	60	10	60-180	60	64	GapExp	0	14	2	1	1	target	1	480	760	23139	13.328	12.924	13.735
DTProbeTrack02	14	ProbeTrack	12.1	SCS215a	20101008.091112	20101008.091250	8	0.013328	60	10	60-180	60	180	GapExp	0	15	2	3	0	target	0	720	-1000	22139	13.328	12.853	13.795
DTProbeTrack02	14	ProbeTrack	12.1	SCS215a	20101008.091112	20101008.091256	8	0.013328	60	10	60-180	60	140	GapExp	0	16	2	9	1	target	1	520	740	22879	13.425	13.000	26.656
DTProbeTrack02	14	ProbeTrack	12.1	SCS215a	20101008.091112	20101008.091302	8	0.013328	60	10	60-180	60	78	GapExp	0	17	2	6	1	target	1	614	693	23572	13.328	12.872	13.785
DTProbeTrack02	14	ProbeTrack	12.1	SCS215a	20101008.091112	20101008.091307	8	0.013328	60	10	60-180	60	133	GapExp	0	18	2	45	1	target	1	520	740	24312	13.372	12.859	26.655
DTProbeTrack02	14	ProbeTrack	12.1	SCS215a	20101008.091112	20101008.091313	8	0.013328	60	10	60-180	60	145	GapExp	0	19	2	3	1	target	1	787	607	24919	13.419	13.014	26.664
DTProbeTrack02	14	ProbeTrack	12.1	SCS215a	20101008.091112	20101008.091320	8	0.013328	60	10	60-180	60	79	GapExp	0	20	2	9	1	target	1	6358	0	24919	13.557	12.870	26.657
DTProbeTrack02	14	ProbeTrack	12.1	SCS215a	20101008.091112	20101008.091330	8	0.013328	60	10	60-180	60	95	GapExp	0	21	2	1	1	target	1	467	767	25686	14.618	12.863	133.279
DTProbeTrack02	14	ProbeTrack	12.1	SCS215a	20101008.091112	20101008.091336	8	0.013328	60	10	60-180	60	78	GapExp	0	22	2	9	1	target	1	387	807	26493	13.328	13.100	13.562
DTProbeTrack02	14	ProbeTrack	12.1	SCS215a	20101008.091112	20101008.091341	8	0.013328	60	10	60-180	60	94	GapExp	0	23	2	45	0	target	0	1586	-1000	25493	13.375	12.924	26.650
DTProbeTrack02	14	ProbeTrack	12.1	SCS215a	20101008.091112	20101008.091347	8	0.013328	60	10	60-180	60	134	GapExp	0	24	2	3	0	target	0	1826	-1000	24493	13.989	12.869	133.368
DTProbeTrack02	14	ProbeTrack	12.1	SCS215a	20101008.091112	20101008.091355	8	0.013328	60	10	60-180	60	128	GapExp	0	25	2	1	0	target	0	707	-1000	23493	13.377	12.974	26.649
DTProbeTrack02	14	ProbeTrack	12.1	SCS215a	20101008.091112	20101008.091400	8	0.013328	60	10	60-180	60	152	GapExp	0	26	2	6	0	distractor	1	733	634	24127	13.505	12.870	27.093
DTProbeTrack02	14	ProbeTrack	12.1	SCS215a	20101008.091112	20101008.091407	8	0.013328	60	10	60-180	60	178	GapExp	0	27	2	9	0	target	0	760	-1000	23127	13.328	12.984	13.687
DTProbeTrack02	14	ProbeTrack	12.1	SCS215a	20101008.091112	20101008.091413	8	0.013328	60	10	60-180	60	111	GapExp	0	28	2	3	0	target	0	933	-1000	22127	13.328	13.015	13.625
DTProbeTrack02	14	ProbeTrack	12.1	SCS215a	20101008.091112	20101008.091419	8	0.013328	60	10	60-180	60	117	GapExp	0	29	2	6	1	target	1	1253	374	22501	13.328	12.860	13.804
DTProbeTrack02	14	ProbeTrack	12.1	SCS215a	20101008.091112	20101008.091425	8	0.013328	60	10	60-180	60	173	GapExp	0	30	2	45	1	target	1	1786	107	22608	13.365	12.854	27.024
DTProbeTrack02	14	ProbeTrack	12.1	SCS215a	20101008.091112	20101008.091433	8	0.013328	60	10	60-180	60	165	GapExp	0	31	2	6	1	target	1	1600	200	22808	13.328	12.876	13.776
DTProbeTrack02	14	ProbeTrack	12.1	SCS215a	20101008.091112	20101008.091441	8	0.013328	60	10	60-180	60	104	GapExp	0	32	2	45	0	target	0	920	-1000	21808	14.145	12.851	146.625
DTProbeTrack02	14	ProbeTrack	12.1	SCS215a	20101008.091112	20101008.091447	8	0.013328	60	10	60-180	60	154	GapExp	0	33	2	9	1	target	1	538	731	22539	14.798	12.866	40.345
DTProbeTrack02	14	ProbeTrack	12.1	SCS215a	20101008.091112	20101008.091454	8	0.013328	60	10	60-180	60	142	GapExp	0	34	2	45	0	target	0	773	-1000	21539	15.467	12.852	40.458
DTProbeTrack02	14	ProbeTrack	12.1	SCS215a	20101008.091112	20101008.091501	8	0.013328	60	10	60-180	60	139	GapExp	0	35	2	1	1	target	1	1693	154	21693	15.431	12.869	53.365
DTProbeTrack02	14	ProbeTrack	12.1	SCS215a	20101008.091112	20101008.091508	8	0.013328	60	10	60-180	60	93	GapExp	0	36	2	6	1	target	1	501	750	22443	13.509	13.081	53.515
DTProbeTrack02	14	ProbeTrack	12.1	SCS215a	20101008.091112	20101008.091513	8	0.013328	60	10	60-180	60	65	GapExp	0	37	2	9	1	target	1	709	646	23089	14.141	12.868	107.017
DTProbeTrack02	14	ProbeTrack	12.1	SCS215a	20101008.091112	20101008.091518	8	0.013328	60	10	60-180	60	124	GapExp	0	38	2	45	1	target	1	645	678	23767	13.728	12.885	39.980
DTProbeTrack02	14	ProbeTrack	12.1	SCS215a	20101008.091112	20101008.091525	8	0.013328	60	10	60-180	60	180	GapExp	0	39	2	45	1	target	1	8237	0	23767	15.957	12.851	40.416
DTProbeTrack02	14	ProbeTrack	12.1	SCS215a	20101008.091112	20101008.091540	8	0.013328	60	10	60-180	60	120	GapExp	0	40	2	9	0	target	0	2560	-1000	22767	13.766	12.862	133.428
DTProbeTrack02	14	ProbeTrack	12.1	SCS215a	20101008.091112	20101008.091548	8	0.013328	60	10	60-180	60	115	GapExp	0	41	2	45	1	target	1	1760	120	22887	13.328	12.854	13.794
DTProbeTrack02	14	ProbeTrack	12.1	SCS215a	20101008.091112	20101008.091555	8	0.013328	60	10	60-180	60	71	GapExp	0	42	2	6	1	target	1	1573	214	23101	13.328	12.910	13.752
DTProbeTrack02	14	ProbeTrack	12.1	SCS215a	20101008.091112	20101008.091601	8	0.013328	60	10	60-180	60	85	GapExp	0	43	2	45	1	target	1	1360	320	23421	13.425	12.877	27.119
DTProbeTrack02	14	ProbeTrack	12.1	SCS215a	20101008.091112	20101008.091608	8	0.013328	60	10	60-180	60	138	GapExp	0	44	2	9	1	target	1	3452	0	23421	13.373	13.070	26.920
DTProbeTrack02	14	ProbeTrack	12.1	SCS215a	20101008.091112	20101008.091616	8	0.013328	60	10	60-180	60	174	GapExp	0	45	2	6	0	target	0	2093	-1000	22421	13.369	12.848	26.656
DTProbeTrack02	14	ProbeTrack	12.1	SCS215a	20101008.091112	20101008.091624	8	0.013328	60	10	60-180	60	174	GapExp	0	46	2	3	1	target	1	1680	160	22581	13.411	12.866	26.652
DTProbeTrack02	14	ProbeTrack	12.1	SCS215a	20101008.091112	20101008.091632	8	0.013328	60	10	60-180	60	90	GapExp	0	47	2	45	0	target	0	733	-1000	21581	13.328	12.909	13.734
DTProbeTrack02	14	ProbeTrack	12.1	SCS215a	20101008.091112	20101008.091638	8	0.013328	60	10	60-180	60	147	GapExp	0	48	2	45	1	target	1	1600	200	21781	13.328	12.978	13.693
DTProbeTrack02	14	ProbeTrack	12.1	SCS215a	20101008.091112	20101008.091645	8	0.013328	60	10	60-180	60	67	GapExp	0	49	2	6	1	target	1	587	707	22488	13.328	12.852	13.805
DTProbeTrack02	14	ProbeTrack	12.1	SCS215a	20101008.091112	20101008.091650	8	0.013328	60	10	60-180	60	173	GapExp	0	50	2	3	1	target	1	427	787	23275	13.328	12.945	13.711
DTProbeTrack02	14	ProbeTrack	12.1	SCS215a	20101008.091112	20101008.091705	8	0.013328	60	10	60-180	60	67	GapExp	0	51	2	45	1	target	1	707	647	23922	13.542	12.859	27.134
DTProbeTrack02	14	ProbeTrack	12.1	SCS215a	20101008.091112	20101008.091711	8	0.013328	60	10	60-180	60	129	GapExp	0	52	2	6	1	target	1	960	520	24442	13.375	12.860	26.669
DTProbeTrack02	14	ProbeTrack	12.1	SCS215a	20101008.091112	20101008.091717	8	0.013328	60	10	60-180	60	129	GapExp	0	53	2	45	0	target	0	693	-1000	23442	13.627	12.886	40.386
DTProbeTrack02	14	ProbeTrack	12.1	SCS215a	20101008.091112	20101008.091724	8	0.013328	60	10	60-180	60	174	GapExp	0	54	2	3	0	distractor	1	787	607	24049	13.328	12.844	13.819
DTProbeTrack02	14	ProbeTrack	12.1	SCS215a	20101008.091112	20101008.091730	8	0.013328	60	10	60-180	60	91	GapExp	0	55	2	3	0	distractor	1	1093	454	24503	13.328	12.928	13.733
DTProbeTrack02	14	ProbeTrack	12.1	SCS215a	20101008.091112	20101008.091736	8	0.013328	60	10	60-180	60	73	GapExp	0	56	2	45	1	target	1	654	673	25176	13.328	12.948	13.702
DTProbeTrack02	14	ProbeTrack	12.1	SCS215a	20101008.091112	20101008.091741	8	0.013328	60	10	60-180	60	120	GapExp	0	57	2	45	0	distractor	1	707	647	25823	13.328	13.012	13.646
DTProbeTrack02	14	ProbeTrack	12.1	SCS215a	20101008.091112	20101008.091748	8	0.013328	60	10	60-180	60	123	GapExp	0	58	2	45	0	distractor	1	614	693	26516	13.372	13.108	26.676
DTProbeTrack02	14	ProbeTrack	12.1	SCS215a	20101008.091112	20101008.091754	8	0.013328	60	10	60-180	60	172	GapExp	0	59	2	3	0	distractor	1	653	674	27190	13.371	12.852	26.655
DTProbeTrack02	14	ProbeTrack	12.1	SCS215a	20101008.091112	20101008.091800	8	0.013328	60	10	60-180	60	166	GapExp	0	60	2	1	0	distractor	1	667	667	27857	13.328	12.960	13.701
DTProbeTrack02	14	ProbeTrack	12.1	SCS215a	20101008.091112	20101008.091807	8	0.013328	60	10	60-180	60	109	GapExp	0	61	2	6	0	distractor	1	591	705	28562	13.382	12.885	26.659
DTProbeTrack02	14	ProbeTrack	12.1	SCS215a	20101008.091112	20101008.091812	8	0.013328	60	10	60-180	60	152	GapExp	0	62	2	3	1	target	1	494	753	29315	13.328	13.262	13.392
DTProbeTrack02	14	ProbeTrack	12.1	SCS215a	20101008.091112	20101008.091818	8	0.013328	60	10	60-180	60	79	GapExp	0	63	2	6	1	target	1	2479	0	29315	13.676	12.854	26.909
DTProbeTrack02	14	ProbeTrack	12.1	SCS215a	20101008.091112	20101008.091825	8	0.013328	60	10	60-180	60	140	GapExp	0	64	2	45	1	target	1	547	727	30042	13.413	12.896	26.979
DTProbeTrack02	14	ProbeTrack	12.1	SCS215a	20101008.091112	20101008.091831	8	0.013328	60	10	60-180	60	152	GapExp	0	65	2	9	0	target	0	1453	-1000	29042	13.546	12.847	27.100
DTProbeTrack02	14	ProbeTrack	12.1	SCS215a	20101008.091112	20101008.091839	8	0.013328	60	10	60-180	60	114	GapExp	0	66	2	1	0	distractor	1	2599	0	29042	13.379	13.044	26.692
DTProbeTrack02	14	ProbeTrack	12.1	SCS215a	20101008.091112	20101008.091846	8	0.013328	60	10	60-180	60	67	GapExp	0	67	2	3	1	target	1	520	740	29782	13.328	12.850	13.794
DTProbeTrack02	14	ProbeTrack	12.1	SCS215a	20101008.091112	20101008.091851	8	0.013328	60	10	60-180	60	74	GapExp	0	68	2	1	1	target	1	707	647	30429	13.452	12.845	27.021
DTProbeTrack02	14	ProbeTrack	12.1	SCS215a	20101008.091112	20101008.091856	8	0.013328	60	10	60-180	60	103	GapExp	0	69	2	1	1	target	1	507	747	31176	13.328	12.963	13.688
DTProbeTrack02	14	ProbeTrack	12.1	SCS215a	20101008.091112	20101008.091901	8	0.013328	60	10	60-180	60	137	GapExp	0	70	2	45	0	target	0	1373	-1000	30176	13.572	12.850	26.801
DTProbeTrack02	14	ProbeTrack	12.1	SCS215a	20101008.091112	20101008.091908	8	0.013328	60	10	60-180	60	127	GapExp	0	71	2	1	0	distractor	1	680	660	30836	13.328	12.842	13.809
DTProbeTrack02	14	ProbeTrack	12.1	SCS215a	20101008.091112	20101008.091914	8	0.013328	60	10	60-180	60	93	GapExp	0	72	2	9	1	target	1	494	753	31589	13.328	12.958	13.706
DTProbeTrack02	14	ProbeTrack	12.1	SCS215a	20101008.091112	20101008.091919	8	0.013328	60	10	60-180	60	87	GapExp	0	73	2	9	0	target	0	1427	-1000	30589	13.328	12.889	13.774
DTProbeTrack02	14	ProbeTrack	12.1	SCS215a	20101008.091112	20101008.091925	8	0.013328	60	10	60-180	60	122	GapExp	0	74	2	9	0	target	0	1426	-1000	29589	13.376	12.840	26.655
DTProbeTrack02	14	ProbeTrack	12.1	SCS215a	20101008.091112	20101008.091932	8	0.013328	60	10	60-180	60	86	GapExp	0	75	2	3	1	target	1	547	727	30316	13.328	12.879	13.766
DTProbeTrack02	14	ProbeTrack	12.1	SCS215a	20101008.091112	20101008.091937	8	0.013328	60	10	60-180	60	132	GapExp	0	76	2	3	1	target	1	427	787	31103	13.328	13.056	13.596
DTProbeTrack02	14	ProbeTrack	12.1	SCS215a	20101008.091112	20101008.091943	8	0.013328	60	10	60-180	60	111	GapExp	0	77	2	1	0	target	0	574	-1000	30103	13.328	12.853	13.815
DTProbeTrack02	14	ProbeTrack	12.1	SCS215a	20101008.091112	20101008.091948	8	0.013328	60	10	60-180	60	103	GapExp	0	78	2	6	0	distractor	1	694	653	30756	13.328	12.865	13.802
DTProbeTrack02	14	ProbeTrack	12.1	SCS215a	20101008.091112	20101008.091954	8	0.013328	60	10	60-180	60	116	GapExp	0	79	2	3	1	target	1	454	773	31529	13.605	12.857	53.780
DTProbeTrack02	14	ProbeTrack	12.1	SCS215a	20101008.091112	20101008.091959	8	0.013328	60	10	60-180	60	180	GapExp	0	80	2	6	1	target	1	1133	434	31963	13.368	12.883	27.097
DTProbeTrack02	14	ProbeTrack	12.1	SCS215a	20101008.091112	20101008.092006	8	0.013328	60	10	60-180	60	82	GapExp	0	81	2	1	0	distractor	1	547	727	32690	13.391	12.856	26.648
DTProbeTrack02	14	ProbeTrack	12.1	SCS215a	20101008.091112	20101008.092011	8	0.013328	60	10	60-180	60	77	GapExp	0	82	2	3	1	target	1	547	727	33417	13.328	12.884	13.773
DTProbeTrack02	14	ProbeTrack	12.1	SCS215a	20101008.091112	20101008.092016	8	0.013328	60	10	60-180	60	103	GapExp	0	83	2	1	1	target	1	560	720	34137	13.385	12.879	26.659
DTProbeTrack02	14	ProbeTrack	12.1	SCS215a	20101008.091112	20101008.092021	8	0.013328	60	10	60-180	60	105	GapExp	0	84	2	1	1	distractor	0	747	-1000	33137	13.328	13.060	13.606
DTProbeTrack02	14	ProbeTrack	12.1	SCS215a	20101008.091112	20101008.092027	8	0.013328	60	10	60-180	60	144	GapExp	0	85	2	6	0	target	0	787	-1000	32137	13.328	12.880	13.774
DTProbeTrack02	14	ProbeTrack	12.1	SCS215a	20101008.091112	20101008.092033	8	0.013328	60	10	60-180	60	106	GapExp	0	86	2	6	0	target	0	707	-1000	31137	13.328	12.869	13.791
DTProbeTrack02	14	ProbeTrack	12.1	SCS215a	20101008.091112	20101008.092039	8	0.013328	60	10	60-180	60	176	GapExp	0	87	2	1	1	target	1	867	567	31704	13.328	13.079	13.594
DTProbeTrack02	14	ProbeTrack	12.1	SCS215a	20101008.091112	20101008.092045	8	0.013328	60	10	60-180	60	93	GapExp	0	88	2	45	1	distractor	0	747	-1000	30704	13.328	12.868	13.776
DTProbeTrack02	14	ProbeTrack	12.1	SCS215a	20101008.091112	20101008.092051	8	0.013328	60	10	60-180	60	91	GapExp	0	89	2	9	1	target	1	600	700	31404	13.328	13.102	13.554
DTProbeTrack02	14	ProbeTrack	12.1	SCS215a	20101008.091112	20101008.092056	8	0.013328	60	10	60-180	60	139	GapExp	0	90	2	45	1	target	1	720	640	32044	13.328	12.941	13.688
DTProbeTrack02	14	ProbeTrack	12.1	SCS215a	20101008.091112	20101008.092103	8	0.013328	60	10	60-180	60	71	GapExp	0	91	2	3	0	target	0	1253	-1000	31044	13.328	12.876	13.710
DTProbeTrack02	14	ProbeTrack	12.1	SCS215a	20101008.091112	20101008.092109	8	0.013328	60	10	60-180	60	86	GapExp	0	92	2	45	0	target	0	1493	-1000	30044	13.376	12.924	26.642
DTProbeTrack02	14	ProbeTrack	12.1	SCS215a	20101008.091112	20101008.092115	8	0.013328	60	10	60-180	60	80	GapExp	0	93	2	45	1	target	1	2506	0	30044	13.328	13.034	13.641
DTProbeTrack02	14	ProbeTrack	12.1	SCS215a	20101008.091112	20101008.092123	8	0.013328	60	10	60-180	60	89	GapExp	0	94	2	9	0	distractor	1	2599	0	30044	13.328	13.086	13.572
DTProbeTrack02	14	ProbeTrack	12.1	SCS215a	20101008.091112	20101008.092130	8	0.013328	60	10	60-180	60	136	GapExp	0	95	2	6	1	target	1	1453	274	30318	13.328	12.850	13.799
DTProbeTrack02	14	ProbeTrack	12.1	SCS215a	20101008.091112	20101008.092137	8	0.013328	60	10	60-180	60	106	GapExp	0	96	2	3	0	target	0	2360	-1000	29318	13.538	12.881	26.998
DTProbeTrack02	14	ProbeTrack	12.1	SCS215a	20101008.091112	20101008.092144	8	0.013328	60	10	60-180	60	156	GapExp	0	97	2	45	1	target	1	1333	334	29652	13.829	12.839	40.349
DTProbeTrack02	14	ProbeTrack	12.1	SCS215a	20101008.091112	20101008.092151	8	0.013328	60	10	60-180	60	163	GapExp	0	98	2	6	0	distractor	1	1506	247	29899	13.582	12.951	27.023
DTProbeTrack02	14	ProbeTrack	12.1	SCS215a	20101008.091112	20101008.092159	8	0.013328	60	10	60-180	60	70	GapExp	0	99	2	9	0	target	0	3146	-1000	28899	13.566	12.939	26.725
DTProbeTrack02	14	ProbeTrack	12.1	SCS215a	20101008.091112	20101008.092206	8	0.013328	60	10	60-180	60	63	GapExp	0	100	2	9	1	target	1	1546	227	29126	13.451	13.106	26.663
DTProbeTrack02	14	ProbeTrack	12.1	SCS215a	20101008.091112	20101008.092219	8	0.013328	60	10	60-180	60	148	GapExp	0	101	2	9	1	target	1	627	687	29813	13.374	12.918	27.036
DTProbeTrack02	14	ProbeTrack	12.1	SCS215a	20101008.091112	20101008.092226	8	0.013328	60	10	60-180	60	79	GapExp	0	102	2	1	1	target	1	627	687	30500	13.328	12.873	13.791
DTProbeTrack02	14	ProbeTrack	12.1	SCS215a	20101008.091112	20101008.092231	8	0.013328	60	10	60-180	60	71	GapExp	0	103	2	3	0	distractor	1	547	727	31227	13.328	12.971	13.674
DTProbeTrack02	14	ProbeTrack	12.1	SCS215a	20101008.091112	20101008.092235	8	0.013328	60	10	60-180	60	91	GapExp	0	104	2	3	1	target	1	574	713	31940	13.387	12.895	26.980
DTProbeTrack02	14	ProbeTrack	12.1	SCS215a	20101008.091112	20101008.092241	8	0.013328	60	10	60-180	60	137	GapExp	0	105	2	9	0	distractor	1	534	733	32673	13.328	12.979	13.692
DTProbeTrack02	14	ProbeTrack	12.1	SCS215a	20101008.091112	20101008.092247	8	0.013328	60	10	60-180	60	76	GapExp	0	106	2	9	1	target	1	560	720	33393	13.328	13.104	13.561
DTProbeTrack02	14	ProbeTrack	12.1	SCS215a	20101008.091112	20101008.092252	8	0.013328	60	10	60-180	60	107	GapExp	0	107	2	6	0	target	0	1453	-1000	32393	13.379	12.873	26.660
DTProbeTrack02	14	ProbeTrack	12.1	SCS215a	20101008.091112	20101008.092258	8	0.013328	60	10	60-180	60	77	GapExp	0	108	2	1	0	distractor	1	1099	451	32844	14.224	12.831	146.603
DTProbeTrack02	14	ProbeTrack	12.1	SCS215a	20101008.091112	20101008.092304	8	0.013328	60	10	60-180	60	169	GapExp	0	109	2	6	0	target	0	1240	-1000	31844	13.411	12.807	27.061
DTProbeTrack02	14	ProbeTrack	12.1	SCS215a	20101008.091112	20101008.092311	8	0.013328	60	10	60-180	60	93	GapExp	0	110	2	45	0	target	0	600	-1000	30844	13.377	12.858	26.674
DTProbeTrack02	14	ProbeTrack	12.1	SCS215a	20101008.091112	20101008.092316	8	0.013328	60	10	60-180	60	104	GapExp	0	111	2	9	0	distractor	1	1091	455	31299	13.328	13.105	13.544
DTProbeTrack02	14	ProbeTrack	12.1	SCS215a	20101008.091112	20101008.092322	8	0.013328	60	10	60-180	60	112	GapExp	0	112	2	1	1	target	1	1507	247	31546	13.328	12.973	13.797
DTProbeTrack02	14	ProbeTrack	12.1	SCS215a	20101008.091112	20101008.092329	8	0.013328	60	10	60-180	60	62	GapExp	0	113	2	9	1	target	1	2626	0	31546	13.388	12.867	26.657
DTProbeTrack02	14	ProbeTrack	12.1	SCS215a	20101008.091112	20101008.092336	8	0.013328	60	10	60-180	60	145	GapExp	0	114	2	6	0	distractor	1	1093	454	32000	13.418	12.930	26.703
DTProbeTrack02	14	ProbeTrack	12.1	SCS215a	20101008.091112	20101008.092342	8	0.013328	60	10	60-180	60	160	GapExp	0	115	2	3	1	target	1	933	534	32534	13.328	13.022	13.641
DTProbeTrack02	14	ProbeTrack	12.1	SCS215a	20101008.091112	20101008.092349	8	0.013328	60	10	60-180	60	164	GapExp	0	116	2	1	1	target	1	520	740	33274	13.374	13.087	26.648
DTProbeTrack02	14	ProbeTrack	12.1	SCS215a	20101008.091112	20101008.092355	8	0.013328	60	10	60-180	60	96	GapExp	0	117	2	9	0	target	0	1347	-1000	32274	13.328	13.057	13.612
DTProbeTrack02	14	ProbeTrack	12.1	SCS215a	20101008.091112	20101008.092401	8	0.013328	60	10	60-180	60	72	GapExp	0	118	2	1	0	target	0	667	-1000	31274	13.328	12.853	13.815
DTProbeTrack02	14	ProbeTrack	12.1	SCS215a	20101008.091112	20101008.092406	8	0.013328	60	10	60-180	60	96	GapExp	0	119	2	9	1	target	1	454	773	32047	13.328	12.914	13.750
DTProbeTrack02	14	ProbeTrack	12.1	SCS215a	20101008.091112	20101008.092411	8	0.013328	60	10	60-180	60	156	GapExp	0	120	2	3	1	target	1	1053	474	32521	13.372	12.867	27.108
DTProbeTrack02	14	ProbeTrack	12.1	SCS215a	20101008.091112	20101008.092418	8	0.013328	60	10	60-180	60	171	GapExp	0	121	2	9	0	target	0	2639	-1000	31521	13.410	12.873	27.096
DTProbeTrack02	14	ProbeTrack	12.1	SCS215a	20101008.091112	20101008.092426	8	0.013328	60	10	60-180	60	138	GapExp	0	122	2	1	0	distractor	1	747	627	32148	13.375	12.882	27.119
DTProbeTrack02	14	ProbeTrack	12.1	SCS215a	20101008.091112	20101008.092432	8	0.013328	60	10	60-180	60	158	GapExp	0	123	2	3	0	distractor	1	640	680	32828	13.463	12.918	39.991
DTProbeTrack02	14	ProbeTrack	12.1	SCS215a	20101008.091112	20101008.092438	8	0.013328	60	10	60-180	60	140	GapExp	0	124	2	3	1	target	1	1453	274	33102	13.420	12.860	26.655
DTProbeTrack02	14	ProbeTrack	12.1	SCS215a	20101008.091112	20101008.092445	8	0.013328	60	10	60-180	60	136	GapExp	0	125	2	1	1	target	1	2106	0	33102	13.328	12.891	13.766
DTProbeTrack02	14	ProbeTrack	12.1	SCS215a	20101008.091112	20101008.092452	8	0.013328	60	10	60-180	60	84	GapExp	0	126	2	45	0	distractor	1	560	720	33822	13.380	13.027	26.870
DTProbeTrack02	14	ProbeTrack	12.1	SCS215a	20101008.091112	20101008.092458	8	0.013328	60	10	60-180	60	138	GapExp	0	127	2	3	1	target	1	534	733	34555	13.328	13.073	13.570
DTProbeTrack02	14	ProbeTrack	12.1	SCS215a	20101008.091112	20101008.092504	8	0.013328	60	10	60-180	60	175	GapExp	0	128	2	3	0	distractor	1	1573	214	34769	13.369	12.881	26.642
DTProbeTrack02	14	ProbeTrack	12.1	SCS215a	20101008.091112	20101008.092511	8	0.013328	60	10	60-180	60	111	GapExp	0	129	2	6	0	target	0	813	-1000	33769	13.328	12.901	13.705
DTProbeTrack02	14	ProbeTrack	12.1	SCS215a	20101008.091112	20101008.092517	8	0.013328	60	10	60-180	60	80	GapExp	0	130	2	3	0	target	0	2572	-1000	32769	14.029	12.868	53.218
DTProbeTrack02	14	ProbeTrack	12.1	SCS215a	20101008.091112	20101008.092524	8	0.013328	60	10	60-180	60	83	GapExp	0	131	2	45	1	distractor	0	860	-1000	31769	14.937	12.833	40.375
DTProbeTrack02	14	ProbeTrack	12.1	SCS215a	20101008.091112	20101008.092530	8	0.013328	60	10	60-180	60	161	GapExp	0	132	2	6	1	target	1	534	733	32502	16.393	12.836	40.497
DTProbeTrack02	14	ProbeTrack	12.1	SCS215a	20101008.091112	20101008.092537	8	0.013328	60	10	60-180	60	111	GapExp	0	133	2	9	0	distractor	1	800	600	33102	15.340	12.852	40.437
DTProbeTrack02	14	ProbeTrack	12.1	SCS215a	20101008.091112	20101008.092544	8	0.013328	60	10	60-180	60	64	GapExp	0	134	2	6	1	target	1	1147	427	33529	13.326	12.866	13.773
DTProbeTrack02	14	ProbeTrack	12.1	SCS215a	20101008.091112	20101008.092549	8	0.013328	60	10	60-180	60	115	GapExp	0	135	2	45	0	distractor	1	680	660	34189	14.446	12.859	106.560
DTProbeTrack02	14	ProbeTrack	12.1	SCS215a	20101008.091112	20101008.092556	8	0.013328	60	10	60-180	60	120	GapExp	0	136	2	9	0	distractor	1	480	760	34949	13.803	12.848	40.344
DTProbeTrack02	14	ProbeTrack	12.1	SCS215a	20101008.091112	20101008.092601	8	0.013328	60	10	60-180	60	163	GapExp	0	137	2	1	0	distractor	1	529	736	35685	17.443	12.852	66.635
DTProbeTrack02	14	ProbeTrack	12.1	SCS215a	20101008.091112	20101008.092609	8	0.013328	60	10	60-180	60	122	GapExp	0	138	2	9	0	distractor	1	761	620	36305	16.890	12.866	40.370
DTProbeTrack02	14	ProbeTrack	12.1	SCS215a	20101008.091112	20101008.092616	8	0.013328	60	10	60-180	60	72	GapExp	0	139	2	3	0	target	0	3572	-1000	35305	14.296	12.862	53.467
DTProbeTrack02	14	ProbeTrack	12.1	SCS215a	20101008.091112	20101008.092624	8	0.013328	60	10	60-180	60	180	GapExp	0	140	2	9	0	target	0	1093	-1000	34305	13.447	12.852	26.672
DTProbeTrack02	14	ProbeTrack	12.1	SCS215a	20101008.091112	20101008.092631	8	0.013328	60	10	60-180	60	83	GapExp	0	141	2	6	1	target	1	600	700	35005	13.388	12.835	26.562
DTProbeTrack02	14	ProbeTrack	12.1	SCS215a	20101008.091112	20101008.092636	8	0.013328	60	10	60-180	60	66	GapExp	0	142	2	45	0	distractor	1	560	720	35725	13.383	12.894	27.020
DTProbeTrack02	14	ProbeTrack	12.1	SCS215a	20101008.091112	20101008.092641	8	0.013328	60	10	60-180	60	95	GapExp	0	143	2	6	0	target	0	1306	-1000	34725	13.707	12.851	27.147
DTProbeTrack02	14	ProbeTrack	12.1	SCS215a	20101008.091112	20101008.092647	8	0.013328	60	10	60-180	60	96	GapExp	0	144	2	45	1	target	1	1476	262	34987	13.421	12.865	26.885
DTProbeTrack02	14	ProbeTrack	12.1	SCS215a	20101008.091112	20101008.092654	8	0.013328	60	10	60-180	60	83	GapExp	0	145	2	45	1	target	1	667	667	35654	13.428	12.849	26.897
DTProbeTrack02	14	ProbeTrack	12.1	SCS215a	20101008.091112	20101008.092700	8	0.013328	60	10	60-180	60	145	GapExp	0	146	2	9	0	target	0	1373	-1000	34654	13.372	12.876	26.658
DTProbeTrack02	14	ProbeTrack	12.1	SCS215a	20101008.091112	20101008.092707	8	0.013328	60	10	60-180	60	174	GapExp	0	147	2	9	0	target	0	1293	-1000	33654	13.450	13.048	26.930
DTProbeTrack02	14	ProbeTrack	12.1	SCS215a	20101008.091112	20101008.092714	8	0.013328	60	10	60-180	60	70	GapExp	0	148	2	9	0	target	0	1110	-1000	32654	13.328	13.102	13.560
DTProbeTrack02	14	ProbeTrack	12.1	SCS215a	20101008.091112	20101008.092719	8	0.013328	60	10	60-180	60	127	GapExp	0	149	2	45	0	target	0	720	-1000	31654	13.370	12.920	27.067
DTProbeTrack02	14	ProbeTrack	12.1	SCS215a	20101008.091112	20101008.092726	8	0.013328	60	10	60-180	60	172	GapExp	0	150	2	6	0	distractor	1	614	693	32347	13.371	12.880	26.657
DTProbeTrack02	14	ProbeTrack	12.1	SCS215a	20101008.091112	20101008.092737	8	0.013328	60	10	60-180	60	64	GapExp	0	151	2	1	0	distractor	1	640	680	33027	13.328	13.022	13.642
DTProbeTrack02	14	ProbeTrack	12.1	SCS215a	20101008.091112	20101008.092742	8	0.013328	60	10	60-180	60	103	GapExp	0	152	2	9	0	target	0	1333	-1000	32027	13.328	12.898	13.767
DTProbeTrack02	14	ProbeTrack	12.1	SCS215a	20101008.091112	20101008.092748	8	0.013328	60	10	60-180	60	137	GapExp	0	153	2	45	1	distractor	0	1041	-1000	31027	13.328	13.111	13.552
DTProbeTrack02	14	ProbeTrack	12.1	SCS215a	20101008.091112	20101008.092755	8	0.013328	60	10	60-180	60	77	GapExp	0	154	2	6	0	distractor	1	627	687	31714	13.449	12.831	26.853
DTProbeTrack02	14	ProbeTrack	12.1	SCS215a	20101008.091112	20101008.092800	8	0.013328	60	10	60-180	60	151	GapExp	0	155	2	1	0	distractor	1	600	700	32414	13.375	12.910	26.712
DTProbeTrack02	14	ProbeTrack	12.1	SCS215a	20101008.091112	20101008.092807	8	0.013328	60	10	60-180	60	73	GapExp	0	156	2	3	1	target	1	1480	260	32674	13.328	12.852	13.799
DTProbeTrack02	14	ProbeTrack	12.1	SCS215a	20101008.091112	20101008.092812	8	0.013328	60	10	60-180	60	63	GapExp	0	157	2	45	0	target	0	2306	-1000	31674	13.328	12.970	13.689
DTProbeTrack02	14	ProbeTrack	12.1	SCS215a	20101008.091112	20101008.092820	8	0.013328	60	10	60-180	60	159	GapExp	0	158	2	1	1	distractor	0	1546	-1000	30674	13.371	12.908	26.692
DTProbeTrack02	14	ProbeTrack	12.1	SCS215a	20101008.091112	20101008.092827	8	0.013328	60	10	60-180	60	172	GapExp	0	159	2	9	1	target	1	440	780	31454	13.372	12.835	27.080
DTProbeTrack02	14	ProbeTrack	12.1	SCS215a	20101008.091112	20101008.092833	8	0.013328	60	10	60-180	60	82	GapExp	0	160	2	3	1	target	1	667	667	32121	13.388	12.929	26.724
DTProbeTrack02	14	ProbeTrack	12.1	SCS215a	20101008.091112	20101008.092838	8	0.013328	60	10	60-180	60	102	GapExp	0	161	2	1	1	target	1	1733	134	32255	13.435	13.031	26.929
DTProbeTrack02	14	ProbeTrack	12.1	SCS215a	20101008.091112	20101008.092845	8	0.013328	60	10	60-180	60	102	GapExp	0	162	2	3	0	target	0	1173	-1000	31255	13.488	12.914	26.661
DTProbeTrack02	14	ProbeTrack	12.1	SCS215a	20101008.091112	20101008.092851	8	0.013328	60	10	60-180	60	94	GapExp	0	163	2	1	0	target	0	640	-1000	30255	13.386	12.852	26.647
DTProbeTrack02	14	ProbeTrack	12.1	SCS215a	20101008.091112	20101008.092856	8	0.013328	60	10	60-180	60	180	GapExp	0	164	2	1	0	target	0	960	-1000	29255	13.328	12.875	13.790
DTProbeTrack02	14	ProbeTrack	12.1	SCS215a	20101008.091112	20101008.092903	8	0.013328	60	10	60-180	60	95	GapExp	0	165	2	1	0	distractor	1	574	713	29968	13.328	12.859	13.795
DTProbeTrack02	14	ProbeTrack	12.1	SCS215a	20101008.091112	20101008.092908	8	0.013328	60	10	60-180	60	117	GapExp	0	166	2	3	0	target	0	960	-1000	28968	13.328	13.028	13.620
DTProbeTrack02	14	ProbeTrack	12.1	SCS215a	20101008.091112	20101008.092914	8	0.013328	60	10	60-180	60	84	GapExp	0	167	2	3	1	target	1	440	780	29748	13.328	13.305	13.351
DTProbeTrack02	14	ProbeTrack	12.1	SCS215a	20101008.091112	20101008.092919	8	0.013328	60	10	60-180	60	76	GapExp	0	168	2	1	0	target	0	920	-1000	28748	13.388	12.926	26.656
DTProbeTrack02	14	ProbeTrack	12.1	SCS215a	20101008.091112	20101008.092924	8	0.013328	60	10	60-180	60	178	GapExp	0	169	2	6	0	distractor	1	760	620	29368	13.368	12.869	26.445
DTProbeTrack02	14	ProbeTrack	12.1	SCS215a	20101008.091112	20101008.092931	8	0.013328	60	10	60-180	60	151	GapExp	0	170	2	9	1	target	1	547	727	30095	13.420	12.984	26.658
DTProbeTrack02	14	ProbeTrack	12.1	SCS215a	20101008.091112	20101008.092937	8	0.013328	60	10	60-180	60	179	GapExp	0	171	2	9	0	distractor	1	800	600	30695	13.368	12.895	26.682
DTProbeTrack02	14	ProbeTrack	12.1	SCS215a	20101008.091112	20101008.092944	8	0.013328	60	10	60-180	60	123	GapExp	0	172	2	9	1	target	1	3039	0	30695	13.377	12.980	26.664
DTProbeTrack02	14	ProbeTrack	12.1	SCS215a	20101008.091112	20101008.092952	8	0.013328	60	10	60-180	60	152	GapExp	0	173	2	6	1	target	1	1480	260	30955	13.372	13.008	26.657
DTProbeTrack02	14	ProbeTrack	12.1	SCS215a	20101008.091112	20101008.092959	8	0.013328	60	10	60-180	60	128	GapExp	0	174	2	3	0	distractor	1	680	660	31615	13.378	13.115	26.643
DTProbeTrack02	14	ProbeTrack	12.1	SCS215a	20101008.091112	20101008.093004	8	0.013328	60	10	60-180	60	144	GapExp	0	175	2	6	1	target	1	653	674	32289	13.328	12.932	13.718
DTProbeTrack02	14	ProbeTrack	12.1	SCS215a	20101008.091112	20101008.093010	8	0.013328	60	10	60-180	60	83	GapExp	0	176	2	6	0	target	0	2786	-1000	31289	13.385	12.845	26.644
DTProbeTrack02	14	ProbeTrack	12.1	SCS215a	20101008.091112	20101008.093018	8	0.013328	60	10	60-180	60	100	GapExp	0	177	2	6	1	target	1	547	727	32016	13.328	12.854	13.786
DTProbeTrack02	14	ProbeTrack	12.1	SCS215a	20101008.091112	20101008.093023	8	0.013328	60	10	60-180	60	70	GapExp	0	178	2	1	0	distractor	1	734	633	32649	13.328	13.248	13.401
DTProbeTrack02	14	ProbeTrack	12.1	SCS215a	20101008.091112	20101008.093028	8	0.013328	60	10	60-180	60	148	GapExp	0	179	2	3	0	target	0	2693	-1000	31649	13.328	12.847	13.812
DTProbeTrack02	14	ProbeTrack	12.1	SCS215a	20101008.091112	20101008.093036	8	0.013328	60	10	60-180	60	88	GapExp	0	180	2	9	1	target	1	427	787	32436	13.328	12.942	13.716
DTProbeTrack02	14	ProbeTrack	12.1	SCS215a	20101008.091112	20101008.093041	8	0.013328	60	10	60-180	60	88	GapExp	0	181	2	3	1	target	1	653	674	33110	13.328	12.965	13.790
DTProbeTrack02	14	ProbeTrack	12.1	SCS215a	20101008.091112	20101008.093046	8	0.013328	60	10	60-180	60	65	GapExp	0	182	2	1	1	target	1	1626	187	33297	13.328	12.925	13.726
DTProbeTrack02	14	ProbeTrack	12.1	SCS215a	20101008.091112	20101008.093052	8	0.013328	60	10	60-180	60	92	GapExp	0	183	2	6	0	target	0	933	-1000	32297	13.328	13.164	13.477
DTProbeTrack02	14	ProbeTrack	12.1	SCS215a	20101008.091112	20101008.093058	8	0.013328	60	10	60-180	60	118	GapExp	0	184	2	6	0	target	0	1586	-1000	31297	13.377	12.874	26.651
DTProbeTrack02	14	ProbeTrack	12.1	SCS215a	20101008.091112	20101008.093105	8	0.013328	60	10	60-180	60	130	GapExp	0	185	2	1	0	target	0	1760	-1000	30297	13.376	13.089	26.651
DTProbeTrack02	14	ProbeTrack	12.1	SCS215a	20101008.091112	20101008.093111	8	0.013328	60	10	60-180	60	108	GapExp	0	186	2	6	1	target	1	614	693	30990	13.653	12.865	27.068
DTProbeTrack02	14	ProbeTrack	12.1	SCS215a	20101008.091112	20101008.093117	8	0.013328	60	10	60-180	60	176	GapExp	0	187	2	45	1	target	1	520	740	31730	13.445	12.878	26.839
DTProbeTrack02	14	ProbeTrack	12.1	SCS215a	20101008.091112	20101008.093124	8	0.013328	60	10	60-180	60	120	GapExp	0	188	2	9	1	target	1	507	747	32477	13.486	12.904	27.093
DTProbeTrack02	14	ProbeTrack	12.1	SCS215a	20101008.091112	20101008.093129	8	0.013328	60	10	60-180	60	113	GapExp	0	189	2	1	0	target	0	1693	-1000	31477	13.739	12.874	27.126
DTProbeTrack02	14	ProbeTrack	12.1	SCS215a	20101008.091112	20101008.093136	8	0.013328	60	10	60-180	60	65	GapExp	0	190	2	9	1	target	1	1746	127	31604	13.389	12.941	26.651
DTProbeTrack02	14	ProbeTrack	12.1	SCS215a	20101008.091112	20101008.093142	8	0.013328	60	10	60-180	60	78	GapExp	0	191	2	45	0	distractor	1	800	600	32204	13.427	13.079	26.660
DTProbeTrack02	14	ProbeTrack	12.1	SCS215a	20101008.091112	20101008.093148	8	0.013328	60	10	60-180	60	100	GapExp	0	192	2	3	0	target	0	2373	-1000	31204	13.328	12.882	13.777
DTProbeTrack02	14	ProbeTrack	12.1	SCS215a	20101008.091112	20101008.093155	8	0.013328	60	10	60-180	60	87	GapExp	0	193	2	6	1	target	1	1693	154	31358	13.384	12.895	26.638
DTProbeTrack02	14	ProbeTrack	12.1	SCS215a	20101008.091112	20101008.093202	8	0.013328	60	10	60-180	60	108	GapExp	0	194	2	1	1	target	1	1306	347	31705	13.328	12.971	13.688
DTProbeTrack02	14	ProbeTrack	12.1	SCS215a	20101008.091112	20101008.093208	8	0.013328	60	10	60-180	60	94	GapExp	0	195	2	1	1	target	1	2346	0	31705	13.328	12.968	13.699
DTProbeTrack02	14	ProbeTrack	12.1	SCS215a	20101008.091112	20101008.093215	8	0.013328	60	10	60-180	60	133	GapExp	0	196	2	3	1	target	1	853	574	32279	13.375	12.975	26.665
DTProbeTrack02	14	ProbeTrack	12.1	SCS215a	20101008.091112	20101008.093221	8	0.013328	60	10	60-180	60	119	GapExp	0	197	2	6	0	target	0	2120	-1000	31279	13.328	12.999	13.649
DTProbeTrack02	14	ProbeTrack	12.1	SCS215a	20101008.091112	20101008.093228	8	0.013328	60	10	60-180	60	85	GapExp	0	198	2	6	0	target	0	1773	-1000	30279	13.384	12.957	26.650
DTProbeTrack02	14	ProbeTrack	12.1	SCS215a	20101008.091112	20101008.093234	8	0.013328	60	10	60-180	60	141	GapExp	0	199	2	1	1	target	1	3666	0	30279	13.421	12.841	27.094
DTProbeTrack02	14	ProbeTrack	12.1	SCS215a	20101008.091112	20101008.093243	8	0.013328	60	10	60-180	60	151	GapExp	0	200	2	45	0	distractor	1	813	594	30873	13.367	12.898	26.646
DTProbeTrack02	14	ProbeTrack	12.1	SCS215a	20101008.091112	20101008.093256	8	0.013328	60	10	60-180	60	177	GapExp	0	201	2	3	0	target	0	6691	-1000	29873	14.517	13.088	253.571
DTProbeTrack02	14	ProbeTrack	12.1	SCS215a	20101008.091112	20101008.093308	8	0.013328	60	10	60-180	60	164	GapExp	0	202	2	3	1	target	1	920	540	30413	13.371	12.855	26.655
DTProbeTrack02	14	ProbeTrack	12.1	SCS215a	20101008.091112	20101008.093315	8	0.013328	60	10	60-180	60	61	GapExp	0	203	2	45	0	distractor	1	720	640	31053	13.490	12.894	27.098
DTProbeTrack02	14	ProbeTrack	12.1	SCS215a	20101008.091112	20101008.093321	8	0.013328	60	10	60-180	60	133	GapExp	0	204	2	1	1	target	1	1200	400	31453	13.328	13.027	13.619
DTProbeTrack02	14	ProbeTrack	12.1	SCS215a	20101008.091112	20101008.093327	8	0.013328	60	10	60-180	60	109	GapExp	0	205	2	1	0	distractor	1	800	600	32053	13.328	12.880	13.770
