exp	sub	code	rev	comp	runtime	trialtime	nstim	refreshdur	cuedur	gapdur	gapOnsetRange	durPostProbe	gapOnsetTime	blocktype	prac	trial	ntargets	soa	probeTarget	resp	acc	rt	pts	tpts	meanFrameDur	minFrameDur	maxFrameDur
DTProbeTrack02	11	ProbeTrack	12.1	SCS215a	20100824.101710	20100824.101720	8	0.013346	60	0	60-180	60	135	NoGap	1	1	2	45	1	target	1	707	647	647	13.328	13.288	13.363
DTProbeTrack02	11	ProbeTrack	12.1	SCS215a	20100824.101710	20100824.101727	8	0.013346	60	0	60-180	60	143	NoGap	1	2	2	6	0	distractor	1	747	627	1274	13.328	13.292	13.363
DTProbeTrack02	11	ProbeTrack	12.1	SCS215a	20100824.101710	20100824.101733	8	0.013346	60	0	60-180	60	134	NoGap	1	3	2	45	1	distractor	0	827	-1000	274	13.328	13.292	13.371
DTProbeTrack02	11	ProbeTrack	12.1	SCS215a	20100824.101710	20100824.101739	8	0.013346	60	0	60-180	60	84	NoGap	1	4	2	6	1	target	1	813	594	868	13.328	13.292	13.363
DTProbeTrack02	11	ProbeTrack	12.1	SCS215a	20100824.101710	20100824.101745	8	0.013346	60	0	60-180	60	78	NoGap	1	5	2	9	1	target	1	680	660	1528	13.328	13.293	13.363
DTProbeTrack02	11	ProbeTrack	12.1	SCS215a	20100824.101710	20100824.101750	8	0.013346	60	0	60-180	60	106	NoGap	1	6	2	45	0	distractor	1	1306	347	1875	13.328	13.293	13.363
DTProbeTrack02	11	ProbeTrack	12.1	SCS215a	20100824.101710	20100824.101756	8	0.013346	60	0	60-180	60	64	NoGap	1	7	2	3	1	target	1	653	674	2549	13.328	13.293	13.363
DTProbeTrack02	11	ProbeTrack	12.1	SCS215a	20100824.101710	20100824.101801	8	0.013346	60	0	60-180	60	178	NoGap	1	8	2	9	0	distractor	1	680	660	3209	13.328	13.293	13.363
DTProbeTrack02	11	ProbeTrack	12.1	SCS215a	20100824.101710	20100824.101808	8	0.013346	60	0	60-180	60	120	NoGap	1	9	2	1	0	distractor	1	787	607	3816	13.328	13.175	13.514
DTProbeTrack02	11	ProbeTrack	12.1	SCS215a	20100824.101710	20100824.101813	8	0.013346	60	0	60-180	60	126	NoGap	1	10	2	6	1	target	1	627	687	4503	13.328	13.292	13.363
DTProbeTrack02	11	ProbeTrack	12.1	SCS215a	20100824.101710	20100824.101819	8	0.013346	60	0	60-180	60	133	NoGap	1	11	2	1	1	target	1	733	634	5137	13.328	13.268	13.386
DTProbeTrack02	11	ProbeTrack	12.1	SCS215a	20100824.101710	20100824.101825	8	0.013346	60	0	60-180	60	173	NoGap	1	12	2	3	1	distractor	0	547	-1000	4137	13.328	13.289	13.367
DTProbeTrack02	11	ProbeTrack	12.1	SCS215a	20100824.101710	20100824.101831	8	0.013346	60	0	60-180	60	159	NoGap	1	13	2	6	0	distractor	1	800	600	4737	13.328	13.287	13.369
DTProbeTrack02	11	ProbeTrack	12.1	SCS215a	20100824.101710	20100824.101837	8	0.013346	60	0	60-180	60	96	NoGap	1	14	2	1	1	target	1	880	560	5297	13.328	13.293	13.363
DTProbeTrack02	11	ProbeTrack	12.1	SCS215a	20100824.101710	20100824.101843	8	0.013346	60	0	60-180	60	135	NoGap	1	15	2	3	0	distractor	1	853	574	5871	13.328	13.292	13.362
DTProbeTrack02	11	ProbeTrack	12.1	SCS215a	20100824.101710	20100824.101849	8	0.013346	60	0	60-180	60	79	NoGap	1	16	2	9	1	target	1	614	693	6564	13.328	13.292	13.363
DTProbeTrack02	11	ProbeTrack	12.1	SCS215a	20100824.101710	20100824.101854	8	0.013346	60	0	60-180	60	180	NoGap	1	17	2	1	1	target	1	520	740	7304	13.328	13.293	13.363
DTProbeTrack02	11	ProbeTrack	12.1	SCS215a	20100824.101710	20100824.101900	8	0.013346	60	0	60-180	60	118	NoGap	1	18	2	9	0	target	0	707	-1000	6304	13.328	13.292	13.367
DTProbeTrack02	11	ProbeTrack	12.1	SCS215a	20100824.101710	20100824.101906	8	0.013346	60	0	60-180	60	117	NoGap	1	19	2	1	0	target	0	773	-1000	5304	13.328	13.293	13.363
DTProbeTrack02	11	ProbeTrack	12.1	SCS215a	20100824.101710	20100824.101911	8	0.013346	60	0	60-180	60	164	NoGap	1	20	2	6	1	target	1	654	673	5977	13.328	13.292	13.363
DTProbeTrack02	11	ProbeTrack	12.1	SCS215a	20100824.101710	20100824.101917	8	0.013346	60	0	60-180	60	72	NoGap	1	21	2	45	1	target	1	600	700	6677	13.328	13.289	13.363
DTProbeTrack02	11	ProbeTrack	12.1	SCS215a	20100824.101710	20100824.101923	8	0.013346	60	0	60-180	60	93	NoGap	1	22	2	3	1	target	1	640	680	7357	13.328	13.293	13.363
DTProbeTrack02	11	ProbeTrack	12.1	SCS215a	20100824.101710	20100824.101928	8	0.013346	60	0	60-180	60	83	NoGap	1	23	2	1	0	distractor	1	627	687	8044	13.328	13.293	13.362
DTProbeTrack02	11	ProbeTrack	12.1	SCS215a	20100824.101710	20100824.101933	8	0.013346	60	0	60-180	60	65	NoGap	1	24	2	9	0	distractor	1	760	620	8664	13.328	13.293	13.363
DTProbeTrack02	11	ProbeTrack	12.1	SCS215a	20100824.101710	20100824.101938	8	0.013346	60	0	60-180	60	160	NoGap	1	25	2	3	1	target	1	654	673	9337	13.328	13.292	13.363
DTProbeTrack02	11	ProbeTrack	12.1	SCS215a	20100824.101710	20100824.101944	8	0.013346	60	0	60-180	60	169	NoGap	1	26	2	1	1	target	1	720	640	9977	13.328	13.292	13.364
DTProbeTrack02	11	ProbeTrack	12.1	SCS215a	20100824.101710	20100824.101950	8	0.013346	60	0	60-180	60	91	NoGap	1	27	2	45	1	target	1	640	680	10657	13.328	13.293	13.362
DTProbeTrack02	11	ProbeTrack	12.1	SCS215a	20100824.101710	20100824.101956	8	0.013346	60	0	60-180	60	91	NoGap	1	28	2	1	0	distractor	1	640	680	11337	13.328	13.291	13.363
DTProbeTrack02	11	ProbeTrack	12.1	SCS215a	20100824.101710	20100824.102001	8	0.013346	60	0	60-180	60	160	NoGap	1	29	2	3	0	distractor	1	773	614	11951	13.328	13.292	13.363
DTProbeTrack02	11	ProbeTrack	12.1	SCS215a	20100824.101710	20100824.102007	8	0.013346	60	0	60-180	60	110	NoGap	1	30	2	6	0	distractor	1	787	607	12558	13.542	13.291	39.983
DTProbeTrack02	11	ProbeTrack	12.1	SCS215a	20100824.101710	20100824.102013	8	0.013346	60	0	60-180	60	76	NoGap	1	31	2	45	0	distractor	1	747	627	13185	13.328	12.904	13.719
DTProbeTrack02	11	ProbeTrack	12.1	SCS215a	20100824.101710	20100824.102019	8	0.013346	60	0	60-180	60	168	NoGap	1	32	2	6	0	distractor	1	853	574	13759	13.328	13.293	13.363
DTProbeTrack02	11	ProbeTrack	12.1	SCS215a	20100824.101710	20100824.102025	8	0.013346	60	0	60-180	60	135	NoGap	1	33	2	9	0	target	0	1053	-1000	12759	13.328	13.293	13.363
DTProbeTrack02	11	ProbeTrack	12.1	SCS215a	20100824.101710	20100824.102031	8	0.013346	60	0	60-180	60	106	NoGap	1	34	2	9	1	target	1	1027	487	13246	13.328	13.288	13.363
DTProbeTrack02	11	ProbeTrack	12.1	SCS215a	20100824.101710	20100824.102037	8	0.013346	60	0	60-180	60	163	NoGap	1	35	2	3	0	distractor	1	574	713	13959	13.328	13.293	13.363
DTProbeTrack02	11	ProbeTrack	12.1	SCS215a	20100824.101710	20100824.102043	8	0.013346	60	0	60-180	60	108	NoGap	1	36	2	45	0	distractor	1	707	647	14606	13.328	13.293	13.363
DTProbeTrack02	11	ProbeTrack	12.1	SCS215a	20100824.101710	20100824.102049	8	0.013346	60	0	60-180	60	163	NoGap	1	37	2	6	1	target	1	507	747	15353	13.328	13.293	13.363
DTProbeTrack02	11	ProbeTrack	12.1	SCS215a	20100824.101710	20100824.102055	8	0.013346	60	0	60-180	60	113	NoGap	1	38	2	3	0	distractor	1	627	687	16040	13.328	13.293	13.363
DTProbeTrack02	11	ProbeTrack	12.1	SCS215a	20100824.101710	20100824.102101	8	0.013346	60	0	60-180	60	141	NoGap	1	39	2	45	0	distractor	1	653	674	16714	13.328	13.292	13.364
DTProbeTrack02	11	ProbeTrack	12.1	SCS215a	20100824.101710	20100824.102107	8	0.013346	60	0	60-180	60	163	NoGap	1	40	2	9	1	target	1	547	727	17441	13.328	13.133	13.522
DTProbeTrack02	11	ProbeTrack	12.1	SCS215a	20100824.102159	20100824.102204	8	0.013327	60	10	60-180	60	78	GapPrac	1	1	2	1	0	target	0	1613	-1000	16441	13.328	13.089	13.570
DTProbeTrack02	11	ProbeTrack	12.1	SCS215a	20100824.102159	20100824.102210	8	0.013327	60	10	60-180	60	167	GapPrac	1	2	2	3	1	distractor	0	800	-1000	15441	13.328	13.092	13.563
DTProbeTrack02	11	ProbeTrack	12.1	SCS215a	20100824.102159	20100824.102216	8	0.013327	60	10	60-180	60	157	GapPrac	1	3	2	9	1	target	1	747	627	16068	13.328	13.305	13.353
DTProbeTrack02	11	ProbeTrack	12.1	SCS215a	20100824.102159	20100824.102223	8	0.013327	60	10	60-180	60	155	GapPrac	1	4	2	6	0	distractor	1	1013	494	16562	13.328	12.867	13.795
DTProbeTrack02	11	ProbeTrack	12.1	SCS215a	20100824.102159	20100824.102229	8	0.013327	60	10	60-180	60	106	GapPrac	1	5	2	45	0	target	0	587	-1000	15562	13.328	13.100	13.562
DTProbeTrack02	11	ProbeTrack	12.1	SCS215a	20100824.102159	20100824.102235	8	0.013327	60	10	60-180	60	97	GapPrac	1	6	2	6	0	distractor	1	707	647	16209	13.328	12.906	13.767
DTProbeTrack02	11	ProbeTrack	12.1	SCS215a	20100824.102159	20100824.102241	8	0.013327	60	10	60-180	60	162	GapPrac	1	7	2	6	1	target	1	1186	407	16616	13.328	13.285	13.377
DTProbeTrack02	11	ProbeTrack	12.1	SCS215a	20100824.102159	20100824.102248	8	0.013327	60	10	60-180	60	105	GapPrac	1	8	2	3	0	distractor	1	1080	460	17076	13.328	13.308	13.345
DTProbeTrack02	11	ProbeTrack	12.1	SCS215a	20100824.102159	20100824.102253	8	0.013327	60	10	60-180	60	151	GapPrac	1	9	2	9	1	target	1	720	640	17716	13.328	13.295	13.356
DTProbeTrack02	11	ProbeTrack	12.1	SCS215a	20100824.102159	20100824.102300	8	0.013327	60	10	60-180	60	107	GapPrac	1	10	2	45	0	distractor	1	707	647	18363	13.328	13.103	13.561
DTProbeTrack02	11	ProbeTrack	12.1	SCS215a	20100824.102159	20100824.102306	8	0.013327	60	10	60-180	60	161	GapPrac	1	11	2	6	1	target	1	1133	434	18797	13.328	13.087	13.556
DTProbeTrack02	11	ProbeTrack	12.1	SCS215a	20100824.102159	20100824.102313	8	0.013327	60	10	60-180	60	64	GapPrac	1	12	2	45	1	target	1	1000	500	19297	13.328	12.916	13.800
DTProbeTrack02	11	ProbeTrack	12.1	SCS215a	20100824.102159	20100824.102319	8	0.013327	60	10	60-180	60	87	GapPrac	1	13	2	45	1	target	1	653	674	19971	13.328	13.093	13.560
DTProbeTrack02	11	ProbeTrack	12.1	SCS215a	20100824.102159	20100824.102324	8	0.013327	60	10	60-180	60	101	GapPrac	1	14	2	9	0	distractor	1	667	667	20638	13.328	13.304	13.357
DTProbeTrack02	11	ProbeTrack	12.1	SCS215a	20100824.102159	20100824.102330	8	0.013327	60	10	60-180	60	90	GapPrac	1	15	2	1	1	target	1	627	687	21325	13.328	13.296	13.355
DTProbeTrack02	11	ProbeTrack	12.1	SCS215a	20100824.102159	20100824.102335	8	0.013327	60	10	60-180	60	70	GapPrac	1	16	2	1	1	distractor	0	747	-1000	20325	13.328	13.104	13.528
DTProbeTrack02	11	ProbeTrack	12.1	SCS215a	20100824.102159	20100824.102340	8	0.013327	60	10	60-180	60	179	GapPrac	1	17	2	3	0	target	0	653	-1000	19325	13.328	13.105	13.557
DTProbeTrack02	11	ProbeTrack	12.1	SCS215a	20100824.102159	20100824.102347	8	0.013327	60	10	60-180	60	177	GapPrac	1	18	2	3	1	distractor	0	680	-1000	18325	13.370	12.849	26.814
DTProbeTrack02	11	ProbeTrack	12.1	SCS215a	20100824.102159	20100824.102353	8	0.013327	60	10	60-180	60	164	GapPrac	1	19	2	9	0	distractor	1	973	514	18839	13.328	12.882	13.789
DTProbeTrack02	11	ProbeTrack	12.1	SCS215a	20100824.102159	20100824.102400	8	0.013327	60	10	60-180	60	70	GapPrac	1	20	2	1	0	distractor	1	1040	480	19319	13.328	12.891	13.784
DTProbeTrack02	11	ProbeTrack	12.1	SCS215a	20100824.102734	20100824.102741	8	0.013328	60	10	60-180	60	177	GapPrac	1	1	2	45	0	target	0	2026	-1000	18319	13.328	12.942	13.727
DTProbeTrack02	11	ProbeTrack	12.1	SCS215a	20100824.102734	20100824.102749	8	0.013328	60	10	60-180	60	118	GapPrac	1	2	2	3	0	distractor	1	600	700	19019	13.328	13.026	13.621
DTProbeTrack02	11	ProbeTrack	12.1	SCS215a	20100824.102734	20100824.102755	8	0.013328	60	10	60-180	60	145	GapPrac	1	3	2	45	1	target	1	507	747	19766	13.328	13.301	13.456
DTProbeTrack02	11	ProbeTrack	12.1	SCS215a	20100824.102734	20100824.102801	8	0.013328	60	10	60-180	60	116	GapPrac	1	4	2	3	0	target	0	827	-1000	18766	13.328	13.104	13.552
DTProbeTrack02	11	ProbeTrack	12.1	SCS215a	20100824.102734	20100824.102807	8	0.013328	60	10	60-180	60	110	GapPrac	1	5	2	9	0	distractor	1	467	767	19533	13.328	13.024	13.548
DTProbeTrack02	11	ProbeTrack	12.1	SCS215a	20100824.102734	20100824.102812	8	0.013328	60	10	60-180	60	159	GapPrac	1	6	2	1	1	target	1	427	787	20320	13.328	13.092	13.557
DTProbeTrack02	11	ProbeTrack	12.1	SCS215a	20100824.102734	20100824.102818	8	0.013328	60	10	60-180	60	110	GapPrac	1	7	2	1	0	target	0	1053	-1000	19320	13.328	13.308	13.346
DTProbeTrack02	11	ProbeTrack	12.1	SCS215a	20100824.102734	20100824.102824	8	0.013328	60	10	60-180	60	89	GapPrac	1	8	2	3	1	distractor	0	587	-1000	18320	13.328	13.303	13.347
DTProbeTrack02	11	ProbeTrack	12.1	SCS215a	20100824.102734	20100824.102829	8	0.013328	60	10	60-180	60	116	GapPrac	1	9	2	6	0	target	0	1013	-1000	17320	13.328	12.888	13.781
DTProbeTrack02	11	ProbeTrack	12.1	SCS215a	20100824.102734	20100824.102835	8	0.013328	60	10	60-180	60	70	GapPrac	1	10	2	3	1	distractor	0	414	-1000	16320	13.328	12.892	13.747
DTProbeTrack02	11	ProbeTrack	12.1	SCS215a	20100824.102734	20100824.102840	8	0.013328	60	10	60-180	60	88	GapPrac	1	11	2	9	0	distractor	1	773	614	16934	13.328	13.303	13.348
DTProbeTrack02	11	ProbeTrack	12.1	SCS215a	20100824.102734	20100824.102846	8	0.013328	60	10	60-180	60	69	GapPrac	1	12	2	1	0	target	0	187	-1000	15934	13.328	13.306	13.349
DTProbeTrack02	11	ProbeTrack	12.1	SCS215a	20100824.102734	20100824.102850	8	0.013328	60	10	60-180	60	76	GapPrac	1	13	2	1	1	distractor	0	1133	-1000	14934	13.328	12.879	13.784
DTProbeTrack02	11	ProbeTrack	12.1	SCS215a	20100824.102734	20100824.102856	8	0.013328	60	10	60-180	60	175	GapPrac	1	14	2	45	1	target	1	187	907	15841	13.328	13.307	13.346
DTProbeTrack02	11	ProbeTrack	12.1	SCS215a	20100824.102734	20100824.102902	8	0.013328	60	10	60-180	60	76	GapPrac	1	15	2	9	1	distractor	0	1640	-1000	14841	13.328	13.096	13.554
DTProbeTrack02	11	ProbeTrack	12.1	SCS215a	20100824.102734	20100824.102909	8	0.013328	60	10	60-180	60	172	GapPrac	1	16	2	9	1	target	1	653	674	15515	13.328	13.092	13.564
DTProbeTrack02	11	ProbeTrack	12.1	SCS215a	20100824.102734	20100824.102915	8	0.013328	60	10	60-180	60	149	GapPrac	1	17	2	6	0	distractor	1	1653	174	15689	13.328	12.958	13.729
DTProbeTrack02	11	ProbeTrack	12.1	SCS215a	20100824.102734	20100824.102922	8	0.013328	60	10	60-180	60	167	GapPrac	1	18	2	6	1	distractor	0	1280	-1000	14689	13.328	12.880	13.775
DTProbeTrack02	11	ProbeTrack	12.1	SCS215a	20100824.102734	20100824.102929	8	0.013328	60	10	60-180	60	85	GapPrac	1	19	2	6	1	target	1	1067	467	15156	13.328	13.309	13.348
DTProbeTrack02	11	ProbeTrack	12.1	SCS215a	20100824.102734	20100824.102935	8	0.013328	60	10	60-180	60	170	GapPrac	1	20	2	45	0	distractor	1	1786	107	15263	13.328	12.904	13.762
DTProbeTrack02	11	ProbeTrack	12.1	SCS215a	20100824.103041	20100824.103048	8	0.013327	60	10	60-180	60	103	GapExp	1	1	2	3	0	target	0	653	-1000	14263	13.328	13.104	13.560
DTProbeTrack02	11	ProbeTrack	12.1	SCS215a	20100824.103041	20100824.103054	8	0.013327	60	10	60-180	60	81	GapExp	1	2	2	45	1	distractor	0	653	-1000	13263	13.328	13.112	13.551
DTProbeTrack02	11	ProbeTrack	12.1	SCS215a	20100824.103041	20100824.103100	8	0.013327	60	10	60-180	60	97	GapExp	1	3	2	1	0	target	0	640	-1000	12263	13.328	13.135	13.516
DTProbeTrack02	11	ProbeTrack	12.1	SCS215a	20100824.103041	20100824.103105	8	0.013327	60	10	60-180	60	137	GapExp	1	4	2	1	1	distractor	0	1573	-1000	11263	13.375	12.880	27.029
DTProbeTrack02	11	ProbeTrack	12.1	SCS215a	20100824.103041	20100824.103112	8	0.013327	60	10	60-180	60	123	GapExp	1	5	2	9	0	distractor	1	507	747	12010	13.328	12.954	13.755
DTProbeTrack02	11	ProbeTrack	12.1	SCS215a	20100824.103041	20100824.103118	8	0.013327	60	10	60-180	60	106	GapExp	0	6	2	45	0	target	0	347	-1000	11010	13.328	12.977	13.683
DTProbeTrack02	11	ProbeTrack	12.1	SCS215a	20100824.103041	20100824.103123	8	0.013327	60	10	60-180	60	83	GapExp	0	7	2	6	1	target	1	734	633	11643	13.328	13.049	13.601
DTProbeTrack02	11	ProbeTrack	12.1	SCS215a	20100824.103041	20100824.103129	8	0.013327	60	10	60-180	60	141	GapExp	0	8	2	9	1	distractor	0	1053	-1000	10643	13.328	13.118	13.552
DTProbeTrack02	11	ProbeTrack	12.1	SCS215a	20100824.103041	20100824.103135	8	0.013327	60	10	60-180	60	154	GapExp	0	9	2	6	1	target	1	946	527	11170	13.328	13.090	13.557
DTProbeTrack02	11	ProbeTrack	12.1	SCS215a	20100824.103041	20100824.103142	8	0.013327	60	10	60-180	60	139	GapExp	0	10	2	9	1	target	1	920	540	11710	13.328	13.309	13.346
DTProbeTrack02	11	ProbeTrack	12.1	SCS215a	20100824.103041	20100824.103148	8	0.013327	60	10	60-180	60	99	GapExp	0	11	2	45	0	target	0	747	-1000	10710	13.328	12.859	13.795
DTProbeTrack02	11	ProbeTrack	12.1	SCS215a	20100824.103041	20100824.103154	8	0.013327	60	10	60-180	60	81	GapExp	0	12	2	1	0	distractor	1	973	514	11224	13.328	13.039	13.618
DTProbeTrack02	11	ProbeTrack	12.1	SCS215a	20100824.103041	20100824.103200	8	0.013327	60	10	60-180	60	87	GapExp	0	13	2	6	1	target	1	1133	434	11658	13.326	12.909	13.348
DTProbeTrack02	11	ProbeTrack	12.1	SCS215a	20100824.103041	20100824.103206	8	0.013327	60	10	60-180	60	92	GapExp	0	14	2	9	0	distractor	1	1013	494	12152	13.382	13.097	26.654
DTProbeTrack02	11	ProbeTrack	12.1	SCS215a	20100824.103041	20100824.103211	8	0.013327	60	10	60-180	60	90	GapExp	0	15	2	3	1	target	1	1640	180	12332	13.328	12.848	13.795
DTProbeTrack02	11	ProbeTrack	12.1	SCS215a	20100824.103041	20100824.103218	8	0.013327	60	10	60-180	60	88	GapExp	0	16	2	9	1	target	1	1592	204	12536	13.328	12.926	13.725
DTProbeTrack02	11	ProbeTrack	12.1	SCS215a	20100824.103041	20100824.103224	8	0.013327	60	10	60-180	60	115	GapExp	0	17	2	6	1	target	1	387	807	13343	13.328	13.098	13.716
DTProbeTrack02	11	ProbeTrack	12.1	SCS215a	20100824.103041	20100824.103229	8	0.013327	60	10	60-180	60	86	GapExp	0	18	2	1	1	target	1	1800	100	13443	13.328	13.126	13.725
DTProbeTrack02	11	ProbeTrack	12.1	SCS215a	20100824.103041	20100824.103236	8	0.013327	60	10	60-180	60	112	GapExp	0	19	2	45	0	distractor	1	1053	474	13917	13.328	12.850	13.793
DTProbeTrack02	11	ProbeTrack	12.1	SCS215a	20100824.103041	20100824.103242	8	0.013327	60	10	60-180	60	70	GapExp	0	20	2	3	1	target	1	1040	480	14397	13.328	13.309	13.347
DTProbeTrack02	11	ProbeTrack	12.1	SCS215a	20100824.103041	20100824.103248	8	0.013327	60	10	60-180	60	99	GapExp	0	21	2	45	0	distractor	1	2946	0	14397	13.328	12.908	13.756
DTProbeTrack02	11	ProbeTrack	12.1	SCS215a	20100824.103041	20100824.103256	8	0.013327	60	10	60-180	60	135	GapExp	0	22	2	3	0	target	0	813	-1000	13397	13.328	13.310	13.348
DTProbeTrack02	11	ProbeTrack	12.1	SCS215a	20100824.103041	20100824.103302	8	0.013327	60	10	60-180	60	142	GapExp	0	23	2	45	1	target	1	520	740	14137	13.328	13.091	13.552
DTProbeTrack02	11	ProbeTrack	12.1	SCS215a	20100824.103041	20100824.103309	8	0.013327	60	10	60-180	60	64	GapExp	0	24	2	1	0	target	0	3652	-1000	13137	13.328	13.096	13.565
DTProbeTrack02	11	ProbeTrack	12.1	SCS215a	20100824.103041	20100824.103317	8	0.013327	60	10	60-180	60	147	GapExp	0	25	2	1	0	distractor	1	1426	287	13424	13.328	13.197	13.450
DTProbeTrack02	11	ProbeTrack	12.1	SCS215a	20100824.103041	20100824.103323	8	0.013327	60	10	60-180	60	64	GapExp	0	26	2	45	0	target	0	1506	-1000	12424	13.328	12.859	13.780
DTProbeTrack02	11	ProbeTrack	12.1	SCS215a	20100824.103041	20100824.103330	8	0.013327	60	10	60-180	60	63	GapExp	0	27	2	6	1	distractor	0	1480	-1000	11424	13.328	13.090	13.553
DTProbeTrack02	11	ProbeTrack	12.1	SCS215a	20100824.103041	20100824.103336	8	0.013327	60	10	60-180	60	90	GapExp	0	28	2	45	1	target	1	440	780	12204	13.328	13.105	13.560
DTProbeTrack02	11	ProbeTrack	12.1	SCS215a	20100824.103041	20100824.103341	8	0.013327	60	10	60-180	60	139	GapExp	0	29	2	1	1	target	1	1240	380	12584	13.328	13.097	13.554
DTProbeTrack02	11	ProbeTrack	12.1	SCS215a	20100824.103041	20100824.103348	8	0.013327	60	10	60-180	60	168	GapExp	0	30	2	45	0	distractor	1	1160	420	13004	13.328	13.112	13.550
DTProbeTrack02	11	ProbeTrack	12.1	SCS215a	20100824.103041	20100824.103355	8	0.013327	60	10	60-180	60	122	GapExp	0	31	2	9	0	distractor	1	1107	447	13451	13.328	12.838	13.812
DTProbeTrack02	11	ProbeTrack	12.1	SCS215a	20100824.103041	20100824.103402	8	0.013327	60	10	60-180	60	78	GapExp	0	32	2	45	0	target	0	720	-1000	12451	13.328	13.306	13.362
DTProbeTrack02	11	ProbeTrack	12.1	SCS215a	20100824.103041	20100824.103407	8	0.013327	60	10	60-180	60	157	GapExp	0	33	2	45	0	distractor	1	1133	434	12885	13.328	13.311	13.344
DTProbeTrack02	11	ProbeTrack	12.1	SCS215a	20100824.103041	20100824.103415	8	0.013327	60	10	60-180	60	100	GapExp	0	34	2	3	1	target	1	1120	440	13325	13.328	13.308	13.347
DTProbeTrack02	11	ProbeTrack	12.1	SCS215a	20100824.103041	20100824.103421	8	0.013327	60	10	60-180	60	123	GapExp	0	35	2	1	1	target	1	640	680	14005	13.328	13.308	13.346
DTProbeTrack02	11	ProbeTrack	12.1	SCS215a	20100824.103041	20100824.103426	8	0.013327	60	10	60-180	60	77	GapExp	0	36	2	6	0	target	0	1040	-1000	13005	13.328	13.094	13.556
DTProbeTrack02	11	ProbeTrack	12.1	SCS215a	20100824.103041	20100824.103432	8	0.013327	60	10	60-180	60	154	GapExp	0	37	2	3	0	distractor	1	1133	434	13439	13.328	13.061	13.769
DTProbeTrack02	11	ProbeTrack	12.1	SCS215a	20100824.103041	20100824.103439	8	0.013327	60	10	60-180	60	101	GapExp	0	38	2	1	0	target	0	827	-1000	12439	13.328	13.097	13.553
DTProbeTrack02	11	ProbeTrack	12.1	SCS215a	20100824.103041	20100824.103444	8	0.013327	60	10	60-180	60	70	GapExp	0	39	2	6	0	distractor	1	2479	0	12439	13.328	13.299	13.348
DTProbeTrack02	11	ProbeTrack	12.1	SCS215a	20100824.103041	20100824.103451	8	0.013327	60	10	60-180	60	79	GapExp	0	40	2	1	1	target	1	160	920	13359	13.328	13.300	13.354
DTProbeTrack02	11	ProbeTrack	12.1	SCS215a	20100824.103041	20100824.103456	8	0.013327	60	10	60-180	60	159	GapExp	0	41	2	1	1	distractor	0	1400	-1000	12359	13.328	13.298	13.347
DTProbeTrack02	11	ProbeTrack	12.1	SCS215a	20100824.103041	20100824.103503	8	0.013327	60	10	60-180	60	148	GapExp	0	42	2	9	1	distractor	0	800	-1000	11359	13.328	13.092	13.692
DTProbeTrack02	11	ProbeTrack	12.1	SCS215a	20100824.103041	20100824.103509	8	0.013327	60	10	60-180	60	116	GapExp	0	43	2	45	1	target	1	600	700	12059	13.328	12.889	13.779
DTProbeTrack02	11	ProbeTrack	12.1	SCS215a	20100824.103041	20100824.103515	8	0.013327	60	10	60-180	60	107	GapExp	0	44	2	3	1	distractor	0	707	-1000	11059	13.381	13.008	26.502
DTProbeTrack02	11	ProbeTrack	12.1	SCS215a	20100824.103041	20100824.103521	8	0.013327	60	10	60-180	60	82	GapExp	0	45	2	3	1	distractor	0	947	-1000	10059	13.328	12.995	13.651
DTProbeTrack02	11	ProbeTrack	12.1	SCS215a	20100824.103041	20100824.103527	8	0.013327	60	10	60-180	60	102	GapExp	0	46	2	9	1	distractor	0	880	-1000	9059	13.328	12.903	13.770
DTProbeTrack02	11	ProbeTrack	12.1	SCS215a	20100824.103041	20100824.103532	8	0.013327	60	10	60-180	60	174	GapExp	0	47	2	6	1	target	1	387	807	9866	13.328	12.852	13.797
DTProbeTrack02	11	ProbeTrack	12.1	SCS215a	20100824.103041	20100824.103539	8	0.013327	60	10	60-180	60	62	GapExp	0	48	2	45	1	target	1	2346	0	9866	13.328	13.309	13.356
DTProbeTrack02	11	ProbeTrack	12.1	SCS215a	20100824.103041	20100824.103546	8	0.013327	60	10	60-180	60	164	GapExp	0	49	2	9	1	target	1	853	574	10440	13.328	13.308	13.350
DTProbeTrack02	11	ProbeTrack	12.1	SCS215a	20100824.103041	20100824.103552	8	0.013327	60	10	60-180	60	126	GapExp	0	50	2	3	0	distractor	1	893	554	10994	13.328	12.961	13.717
DTProbeTrack02	11	ProbeTrack	12.1	SCS215a	20100824.103041	20100824.103619	8	0.013327	60	10	60-180	60	79	GapExp	0	51	2	9	0	distractor	1	640	680	11674	13.328	13.099	13.569
DTProbeTrack02	11	ProbeTrack	12.1	SCS215a	20100824.103041	20100824.103625	8	0.013327	60	10	60-180	60	65	GapExp	0	52	2	3	1	target	1	707	647	12321	13.328	13.052	13.647
DTProbeTrack02	11	ProbeTrack	12.1	SCS215a	20100824.103041	20100824.103630	8	0.013327	60	10	60-180	60	120	GapExp	0	53	2	1	0	distractor	1	480	760	13081	13.328	13.172	13.478
DTProbeTrack02	11	ProbeTrack	12.1	SCS215a	20100824.103041	20100824.103635	8	0.013327	60	10	60-180	60	110	GapExp	0	54	2	9	0	target	0	733	-1000	12081	13.328	13.307	13.347
DTProbeTrack02	11	ProbeTrack	12.1	SCS215a	20100824.103041	20100824.103641	8	0.013327	60	10	60-180	60	134	GapExp	0	55	2	1	1	distractor	0	720	-1000	11081	13.328	13.098	13.559
DTProbeTrack02	11	ProbeTrack	12.1	SCS215a	20100824.103041	20100824.103647	8	0.013327	60	10	60-180	60	147	GapExp	0	56	2	9	0	target	0	467	-1000	10081	13.328	12.887	13.767
DTProbeTrack02	11	ProbeTrack	12.1	SCS215a	20100824.103041	20100824.103653	8	0.013327	60	10	60-180	60	70	GapExp	0	57	2	9	1	distractor	0	467	-1000	9081	13.328	13.109	13.545
DTProbeTrack02	11	ProbeTrack	12.1	SCS215a	20100824.103041	20100824.103658	8	0.013327	60	10	60-180	60	130	GapExp	0	58	2	3	0	target	0	600	-1000	8081	13.328	13.305	13.346
DTProbeTrack02	11	ProbeTrack	12.1	SCS215a	20100824.103041	20100824.103703	8	0.013327	60	10	60-180	60	68	GapExp	0	59	2	6	1	distractor	0	840	-1000	7081	13.328	13.265	13.393
DTProbeTrack02	11	ProbeTrack	12.1	SCS215a	20100824.103041	20100824.103709	8	0.013327	60	10	60-180	60	81	GapExp	0	60	2	1	0	target	0	1906	-1000	6081	13.328	12.962	13.681
DTProbeTrack02	11	ProbeTrack	12.1	SCS215a	20100824.103041	20100824.103716	8	0.013327	60	10	60-180	60	151	GapExp	0	61	2	45	0	target	0	693	-1000	5081	13.328	13.278	13.392
DTProbeTrack02	11	ProbeTrack	12.1	SCS215a	20100824.103041	20100824.103722	8	0.013327	60	10	60-180	60	113	GapExp	0	62	2	9	1	target	1	2079	0	5081	13.328	13.105	13.543
DTProbeTrack02	11	ProbeTrack	12.1	SCS215a	20100824.103041	20100824.103729	8	0.013327	60	10	60-180	60	171	GapExp	0	63	2	45	0	distractor	1	760	620	5701	13.328	12.951	13.716
DTProbeTrack02	11	ProbeTrack	12.1	SCS215a	20100824.103041	20100824.103736	8	0.013327	60	10	60-180	60	167	GapExp	0	64	2	45	0	target	0	827	-1000	4701	13.328	12.929	13.728
DTProbeTrack02	11	ProbeTrack	12.1	SCS215a	20100824.103041	20100824.103744	8	0.013327	60	10	60-180	60	128	GapExp	0	65	2	9	0	distractor	1	787	607	5308	13.327	12.883	13.772
DTProbeTrack02	11	ProbeTrack	12.1	SCS215a	20100824.103041	20100824.103750	8	0.013327	60	10	60-180	60	76	GapExp	0	66	2	9	1	distractor	0	933	-1000	4308	13.328	12.971	13.802
DTProbeTrack02	11	ProbeTrack	12.1	SCS215a	20100824.103041	20100824.103755	8	0.013327	60	10	60-180	60	154	GapExp	0	67	2	6	1	target	1	534	733	5041	13.613	12.921	80.271
DTProbeTrack02	11	ProbeTrack	12.1	SCS215a	20100824.103041	20100824.103801	8	0.013327	60	10	60-180	60	148	GapExp	0	68	2	1	1	distractor	0	720	-1000	4041	13.328	12.863	13.779
DTProbeTrack02	11	ProbeTrack	12.1	SCS215a	20100824.103041	20100824.103807	8	0.013327	60	10	60-180	60	111	GapExp	0	69	2	3	0	target	0	653	-1000	3041	13.328	13.282	13.386
DTProbeTrack02	11	ProbeTrack	12.1	SCS215a	20100824.103041	20100824.103813	8	0.013327	60	10	60-180	60	67	GapExp	0	70	2	1	1	target	1	1360	320	3361	13.328	13.304	13.348
DTProbeTrack02	11	ProbeTrack	12.1	SCS215a	20100824.103041	20100824.103819	8	0.013327	60	10	60-180	60	104	GapExp	0	71	2	9	1	distractor	0	694	-1000	2361	13.434	12.844	26.998
DTProbeTrack02	11	ProbeTrack	12.1	SCS215a	20100824.103041	20100824.103824	8	0.013327	60	10	60-180	60	82	GapExp	0	72	2	45	1	target	1	680	660	3021	13.530	12.848	26.960
DTProbeTrack02	11	ProbeTrack	12.1	SCS215a	20100824.103041	20100824.103830	8	0.013327	60	10	60-180	60	114	GapExp	0	73	2	6	0	distractor	1	813	594	3615	13.428	12.847	27.056
DTProbeTrack02	11	ProbeTrack	12.1	SCS215a	20100824.103041	20100824.103836	8	0.013327	60	10	60-180	60	122	GapExp	0	74	2	3	1	target	1	1533	234	3849	13.328	12.981	13.689
DTProbeTrack02	11	ProbeTrack	12.1	SCS215a	20100824.103041	20100824.103843	8	0.013327	60	10	60-180	60	178	GapExp	0	75	2	3	0	distractor	1	600	700	4549	13.328	12.926	13.731
DTProbeTrack02	11	ProbeTrack	12.1	SCS215a	20100824.103041	20100824.103849	8	0.013327	60	10	60-180	60	115	GapExp	0	76	2	9	0	target	0	467	-1000	3549	13.328	13.307	13.348
DTProbeTrack02	11	ProbeTrack	12.1	SCS215a	20100824.103041	20100824.103855	8	0.013327	60	10	60-180	60	167	GapExp	0	77	2	1	0	distractor	1	1506	247	3796	13.328	12.905	13.744
DTProbeTrack02	11	ProbeTrack	12.1	SCS215a	20100824.103041	20100824.103902	8	0.013327	60	10	60-180	60	155	GapExp	0	78	2	3	1	target	1	494	753	4549	13.328	13.171	13.609
DTProbeTrack02	11	ProbeTrack	12.1	SCS215a	20100824.103041	20100824.103908	8	0.013327	60	10	60-180	60	172	GapExp	0	79	2	9	0	distractor	1	853	574	5123	13.328	13.308	13.356
DTProbeTrack02	11	ProbeTrack	12.1	SCS215a	20100824.103041	20100824.103915	8	0.013327	60	10	60-180	60	137	GapExp	0	80	2	1	0	target	0	587	-1000	4123	13.328	13.284	13.371
DTProbeTrack02	11	ProbeTrack	12.1	SCS215a	20100824.103041	20100824.103921	8	0.013327	60	10	60-180	60	108	GapExp	0	81	2	3	1	distractor	0	800	-1000	3123	13.328	13.104	13.551
DTProbeTrack02	11	ProbeTrack	12.1	SCS215a	20100824.103041	20100824.103926	8	0.013327	60	10	60-180	60	138	GapExp	0	82	2	9	1	target	1	440	780	3903	13.328	13.067	13.573
DTProbeTrack02	11	ProbeTrack	12.1	SCS215a	20100824.103041	20100824.103932	8	0.013327	60	10	60-180	60	99	GapExp	0	83	2	3	1	distractor	0	1080	-1000	2903	13.328	13.299	13.349
DTProbeTrack02	11	ProbeTrack	12.1	SCS215a	20100824.103041	20100824.103938	8	0.013327	60	10	60-180	60	171	GapExp	0	84	2	6	0	target	0	1187	-1000	1903	13.328	13.310	13.348
DTProbeTrack02	11	ProbeTrack	12.1	SCS215a	20100824.103041	20100824.103945	8	0.013327	60	10	60-180	60	72	GapExp	0	85	2	3	0	distractor	1	734	633	2536	13.328	13.307	13.354
DTProbeTrack02	11	ProbeTrack	12.1	SCS215a	20100824.103041	20100824.103950	8	0.013327	60	10	60-180	60	158	GapExp	0	86	2	45	1	target	1	547	727	3263	13.328	13.305	13.347
DTProbeTrack02	11	ProbeTrack	12.1	SCS215a	20100824.103041	20100824.103957	8	0.013327	60	10	60-180	60	131	GapExp	0	87	2	9	0	distractor	1	760	620	3883	13.328	12.924	13.750
DTProbeTrack02	11	ProbeTrack	12.1	SCS215a	20100824.103041	20100824.104003	8	0.013327	60	10	60-180	60	104	GapExp	0	88	2	1	0	target	0	1786	-1000	2883	13.328	13.237	13.421
DTProbeTrack02	11	ProbeTrack	12.1	SCS215a	20100824.103041	20100824.104009	8	0.013327	60	10	60-180	60	108	GapExp	0	89	2	3	0	distractor	1	1746	127	3010	13.328	13.098	13.558
DTProbeTrack02	11	ProbeTrack	12.1	SCS215a	20100824.103041	20100824.104016	8	0.013327	60	10	60-180	60	172	GapExp	0	90	2	3	0	target	0	480	-1000	2010	13.328	13.090	13.565
DTProbeTrack02	11	ProbeTrack	12.1	SCS215a	20100824.103041	20100824.104022	8	0.013327	60	10	60-180	60	169	GapExp	0	91	2	45	0	distractor	1	1040	480	2490	13.328	13.015	13.586
DTProbeTrack02	11	ProbeTrack	12.1	SCS215a	20100824.103041	20100824.104030	8	0.013327	60	10	60-180	60	141	GapExp	0	92	2	45	1	target	1	494	753	3243	13.328	13.100	13.551
DTProbeTrack02	11	ProbeTrack	12.1	SCS215a	20100824.103041	20100824.104036	8	0.013327	60	10	60-180	60	103	GapExp	0	93	2	1	1	target	1	960	520	3763	13.328	13.031	13.627
DTProbeTrack02	11	ProbeTrack	12.1	SCS215a	20100824.103041	20100824.104042	8	0.013327	60	10	60-180	60	61	GapExp	0	94	2	9	1	distractor	0	1133	-1000	2763	13.328	13.307	13.347
DTProbeTrack02	11	ProbeTrack	12.1	SCS215a	20100824.103041	20100824.104047	8	0.013327	60	10	60-180	60	141	GapExp	0	95	2	1	1	target	1	120	940	3703	13.328	12.946	13.714
DTProbeTrack02	11	ProbeTrack	12.1	SCS215a	20100824.103041	20100824.104053	8	0.013327	60	10	60-180	60	78	GapExp	0	96	2	1	1	target	1	1173	414	4117	13.328	13.312	13.347
DTProbeTrack02	11	ProbeTrack	12.1	SCS215a	20100824.103041	20100824.104058	8	0.013327	60	10	60-180	60	96	GapExp	0	97	2	1	0	target	0	640	-1000	3117	13.328	13.091	13.553
DTProbeTrack02	11	ProbeTrack	12.1	SCS215a	20100824.103041	20100824.104104	8	0.013327	60	10	60-180	60	125	GapExp	0	98	2	3	0	distractor	1	693	654	3771	13.328	13.093	13.616
DTProbeTrack02	11	ProbeTrack	12.1	SCS215a	20100824.103041	20100824.104110	8	0.013327	60	10	60-180	60	84	GapExp	0	99	2	45	0	target	0	1320	-1000	2771	13.327	13.281	13.367
DTProbeTrack02	11	ProbeTrack	12.1	SCS215a	20100824.103041	20100824.104116	8	0.013327	60	10	60-180	60	61	GapExp	0	100	2	6	1	distractor	0	1667	-1000	1771	13.328	13.150	13.502
DTProbeTrack02	11	ProbeTrack	12.1	SCS215a	20100824.103041	20100824.104132	8	0.013327	60	10	60-180	60	86	GapExp	0	101	2	45	1	target	1	893	554	2325	13.328	13.099	13.564
DTProbeTrack02	11	ProbeTrack	12.1	SCS215a	20100824.103041	20100824.104138	8	0.013327	60	10	60-180	60	140	GapExp	0	102	2	6	1	target	1	1986	7	2332	13.328	13.310	13.352
DTProbeTrack02	11	ProbeTrack	12.1	SCS215a	20100824.103041	20100824.104145	8	0.013327	60	10	60-180	60	83	GapExp	0	103	2	3	0	target	0	3612	-1000	1332	13.328	13.279	13.373
DTProbeTrack02	11	ProbeTrack	12.1	SCS215a	20100824.103041	20100824.104154	8	0.013327	60	10	60-180	60	168	GapExp	0	104	2	9	1	distractor	0	467	-1000	332	13.372	13.092	26.654
DTProbeTrack02	11	ProbeTrack	12.1	SCS215a	20100824.103041	20100824.104200	8	0.013327	60	10	60-180	60	158	GapExp	0	105	2	9	0	target	0	440	-1000	-668	13.328	13.089	13.560
DTProbeTrack02	11	ProbeTrack	12.1	SCS215a	20100824.103041	20100824.104206	8	0.013327	60	10	60-180	60	131	GapExp	0	106	2	45	0	distractor	1	653	674	6	13.328	13.093	13.564
DTProbeTrack02	11	ProbeTrack	12.1	SCS215a	20100824.103041	20100824.104212	8	0.013327	60	10	60-180	60	149	GapExp	0	107	2	6	1	target	1	600	700	706	13.328	13.308	13.349
DTProbeTrack02	11	ProbeTrack	12.1	SCS215a	20100824.103041	20100824.104218	8	0.013327	60	10	60-180	60	117	GapExp	0	108	2	6	0	distractor	1	694	653	1359	13.328	12.948	13.719
DTProbeTrack02	11	ProbeTrack	12.1	SCS215a	20100824.103041	20100824.104224	8	0.013327	60	10	60-180	60	163	GapExp	0	109	2	6	1	distractor	0	827	-1000	359	13.328	13.297	13.359
DTProbeTrack02	11	ProbeTrack	12.1	SCS215a	20100824.103041	20100824.104231	8	0.013327	60	10	60-180	60	138	GapExp	0	110	2	6	1	target	1	480	760	1119	13.328	13.100	13.575
DTProbeTrack02	11	ProbeTrack	12.1	SCS215a	20100824.103041	20100824.104237	8	0.013327	60	10	60-180	60	150	GapExp	0	111	2	1	0	target	0	680	-1000	119	13.328	12.953	13.716
DTProbeTrack02	11	ProbeTrack	12.1	SCS215a	20100824.103041	20100824.104243	8	0.013327	60	10	60-180	60	177	GapExp	0	112	2	3	0	distractor	1	587	707	826	13.328	13.094	13.578
DTProbeTrack02	11	ProbeTrack	12.1	SCS215a	20100824.103041	20100824.104249	8	0.013327	60	10	60-180	60	75	GapExp	0	113	2	9	0	target	0	574	-1000	-174	13.328	12.902	13.750
DTProbeTrack02	11	ProbeTrack	12.1	SCS215a	20100824.103041	20100824.104254	8	0.013327	60	10	60-180	60	142	GapExp	0	114	2	1	1	distractor	0	2159	-1000	-1174	13.328	12.989	13.663
DTProbeTrack02	11	ProbeTrack	12.1	SCS215a	20100824.103041	20100824.104302	8	0.013327	60	10	60-180	60	161	GapExp	0	115	2	3	1	target	1	427	787	-387	13.328	13.223	13.540
DTProbeTrack02	11	ProbeTrack	12.1	SCS215a	20100824.103041	20100824.104308	8	0.013327	60	10	60-180	60	70	GapExp	0	116	2	1	1	target	1	720	640	253	13.328	12.872	13.774
DTProbeTrack02	11	ProbeTrack	12.1	SCS215a	20100824.103041	20100824.104313	8	0.013327	60	10	60-180	60	123	GapExp	0	117	2	6	0	distractor	1	693	654	907	13.328	13.245	13.424
DTProbeTrack02	11	ProbeTrack	12.1	SCS215a	20100824.103041	20100824.104319	8	0.013327	60	10	60-180	60	65	GapExp	0	118	2	6	0	distractor	1	80	960	1867	13.328	13.099	13.558
DTProbeTrack02	11	ProbeTrack	12.1	SCS215a	20100824.103041	20100824.104323	8	0.013327	60	10	60-180	60	122	GapExp	0	119	2	45	1	distractor	0	1107	-1000	867	13.328	13.097	13.566
DTProbeTrack02	11	ProbeTrack	12.1	SCS215a	20100824.103041	20100824.104330	8	0.013327	60	10	60-180	60	85	GapExp	0	120	2	1	1	target	1	853	574	1441	13.328	12.922	13.732
DTProbeTrack02	11	ProbeTrack	12.1	SCS215a	20100824.103041	20100824.104335	8	0.013327	60	10	60-180	60	169	GapExp	0	121	2	3	1	distractor	0	1680	-1000	441	13.538	12.860	53.555
DTProbeTrack02	11	ProbeTrack	12.1	SCS215a	20100824.103041	20100824.104343	8	0.013327	60	10	60-180	60	95	GapExp	0	122	2	45	1	target	1	1506	247	688	13.374	12.869	26.857
DTProbeTrack02	11	ProbeTrack	12.1	SCS215a	20100824.103041	20100824.104350	8	0.013327	60	10	60-180	60	116	GapExp	0	123	2	6	1	target	1	507	747	1435	13.490	12.993	26.693
DTProbeTrack02	11	ProbeTrack	12.1	SCS215a	20100824.103041	20100824.104355	8	0.013327	60	10	60-180	60	150	GapExp	0	124	2	3	1	target	1	1440	280	1715	13.462	12.928	39.983
DTProbeTrack02	11	ProbeTrack	12.1	SCS215a	20100824.103041	20100824.104402	8	0.013327	60	10	60-180	60	143	GapExp	0	125	2	45	1	target	1	1173	414	2129	13.408	13.289	39.962
DTProbeTrack02	11	ProbeTrack	12.1	SCS215a	20100824.103041	20100824.104409	8	0.013327	60	10	60-180	60	107	GapExp	0	126	2	1	1	distractor	0	707	-1000	1129	13.328	12.890	13.762
DTProbeTrack02	11	ProbeTrack	12.1	SCS215a	20100824.103041	20100824.104415	8	0.013327	60	10	60-180	60	72	GapExp	0	127	2	9	0	target	0	1133	-1000	129	13.328	12.922	13.750
DTProbeTrack02	11	ProbeTrack	12.1	SCS215a	20100824.103041	20100824.104420	8	0.013327	60	10	60-180	60	143	GapExp	0	128	2	45	0	target	0	1266	-1000	-871	13.328	13.078	13.562
DTProbeTrack02	11	ProbeTrack	12.1	SCS215a	20100824.103041	20100824.104428	8	0.013327	60	10	60-180	60	152	GapExp	0	129	2	45	0	distractor	1	747	627	-244	13.328	12.860	13.807
DTProbeTrack02	11	ProbeTrack	12.1	SCS215a	20100824.103041	20100824.104434	8	0.013327	60	10	60-180	60	169	GapExp	0	130	2	6	0	distractor	1	1373	314	70	13.328	12.864	13.794
DTProbeTrack02	11	ProbeTrack	12.1	SCS215a	20100824.103041	20100824.104442	8	0.013327	60	10	60-180	60	153	GapExp	0	131	2	45	1	target	1	667	667	737	13.328	13.110	13.550
DTProbeTrack02	11	ProbeTrack	12.1	SCS215a	20100824.103041	20100824.104448	8	0.013327	60	10	60-180	60	160	GapExp	0	132	2	3	1	distractor	0	1586	-1000	-263	13.328	13.099	13.569
DTProbeTrack02	11	ProbeTrack	12.1	SCS215a	20100824.103041	20100824.104455	8	0.013327	60	10	60-180	60	98	GapExp	0	133	2	6	0	target	0	1280	-1000	-1263	13.328	13.111	13.539
DTProbeTrack02	11	ProbeTrack	12.1	SCS215a	20100824.103041	20100824.104502	8	0.013327	60	10	60-180	60	84	GapExp	0	134	2	6	1	distractor	0	2626	-1000	-2263	13.328	13.305	13.347
DTProbeTrack02	11	ProbeTrack	12.1	SCS215a	20100824.103041	20100824.104509	8	0.013327	60	10	60-180	60	67	GapExp	0	135	2	1	0	target	0	853	-1000	-3263	13.328	13.089	13.564
DTProbeTrack02	11	ProbeTrack	12.1	SCS215a	20100824.103041	20100824.104514	8	0.013327	60	10	60-180	60	103	GapExp	0	136	2	3	0	distractor	1	707	647	-2616	13.328	13.298	13.352
DTProbeTrack02	11	ProbeTrack	12.1	SCS215a	20100824.103041	20100824.104520	8	0.013327	60	10	60-180	60	70	GapExp	0	137	2	9	1	target	1	840	580	-2036	13.328	13.295	13.351
DTProbeTrack02	11	ProbeTrack	12.1	SCS215a	20100824.103041	20100824.104525	8	0.013327	60	10	60-180	60	77	GapExp	0	138	2	45	1	distractor	0	1053	-1000	-3036	13.328	12.951	13.705
DTProbeTrack02	11	ProbeTrack	12.1	SCS215a	20100824.103041	20100824.104531	8	0.013327	60	10	60-180	60	133	GapExp	0	139	2	9	0	target	0	507	-1000	-4036	13.328	13.094	13.569
DTProbeTrack02	11	ProbeTrack	12.1	SCS215a	20100824.103041	20100824.104537	8	0.013327	60	10	60-180	60	69	GapExp	0	140	2	9	1	distractor	0	1626	-1000	-5036	13.387	12.985	26.660
DTProbeTrack02	11	ProbeTrack	12.1	SCS215a	20100824.103041	20100824.104543	8	0.013327	60	10	60-180	60	125	GapExp	0	141	2	3	1	target	1	787	607	-4429	13.328	13.102	13.554
DTProbeTrack02	11	ProbeTrack	12.1	SCS215a	20100824.103041	20100824.104549	8	0.013327	60	10	60-180	60	158	GapExp	0	142	2	6	0	distractor	1	813	594	-3835	13.328	13.306	13.350
DTProbeTrack02	11	ProbeTrack	12.1	SCS215a	20100824.103041	20100824.104555	8	0.013327	60	10	60-180	60	81	GapExp	0	143	2	3	0	target	0	1440	-1000	-4835	13.386	13.105	26.896
DTProbeTrack02	11	ProbeTrack	12.1	SCS215a	20100824.103041	20100824.104601	8	0.013327	60	10	60-180	60	68	GapExp	0	144	2	1	1	distractor	0	1520	-1000	-5835	13.328	13.310	13.347
DTProbeTrack02	11	ProbeTrack	12.1	SCS215a	20100824.103041	20100824.104607	8	0.013327	60	10	60-180	60	105	GapExp	0	145	2	9	0	target	0	1053	-1000	-6835	13.328	13.307	13.347
DTProbeTrack02	11	ProbeTrack	12.1	SCS215a	20100824.103041	20100824.104613	8	0.013327	60	10	60-180	60	156	GapExp	0	146	2	9	0	distractor	1	693	654	-6181	13.328	13.101	13.563
DTProbeTrack02	11	ProbeTrack	12.1	SCS215a	20100824.103041	20100824.104620	8	0.013327	60	10	60-180	60	131	GapExp	0	147	2	3	1	target	1	547	727	-5454	13.378	13.088	26.657
DTProbeTrack02	11	ProbeTrack	12.1	SCS215a	20100824.103041	20100824.104625	8	0.013327	60	10	60-180	60	165	GapExp	0	148	2	9	1	distractor	0	107	-1000	-6454	13.328	13.104	13.551
DTProbeTrack02	11	ProbeTrack	12.1	SCS215a	20100824.103041	20100824.104631	8	0.013327	60	10	60-180	60	83	GapExp	0	149	2	9	1	target	1	414	793	-5661	13.328	13.202	13.425
DTProbeTrack02	11	ProbeTrack	12.1	SCS215a	20100824.103041	20100824.104636	8	0.013327	60	10	60-180	60	69	GapExp	0	150	2	6	1	target	1	587	707	-4954	13.328	12.888	13.787
DTProbeTrack02	11	ProbeTrack	12.1	SCS215a	20100824.103041	20100824.104647	8	0.013327	60	10	60-180	60	123	GapExp	0	151	2	9	0	target	0	1253	-1000	-5954	13.328	13.110	13.548
DTProbeTrack02	11	ProbeTrack	12.1	SCS215a	20100824.103041	20100824.104653	8	0.013327	60	10	60-180	60	131	GapExp	0	152	2	3	0	distractor	1	1426	287	-5667	13.328	13.110	13.548
DTProbeTrack02	11	ProbeTrack	12.1	SCS215a	20100824.103041	20100824.104700	8	0.013327	60	10	60-180	60	89	GapExp	0	153	2	3	1	target	1	867	567	-5100	13.328	13.288	13.347
DTProbeTrack02	11	ProbeTrack	12.1	SCS215a	20100824.103041	20100824.104705	8	0.013327	60	10	60-180	60	78	GapExp	0	154	2	1	1	target	1	920	540	-4560	13.506	12.980	39.557
DTProbeTrack02	11	ProbeTrack	12.1	SCS215a	20100824.103041	20100824.104710	8	0.013327	60	10	60-180	60	160	GapExp	0	155	2	9	0	target	0	1027	-1000	-5560	13.328	12.912	13.731
DTProbeTrack02	11	ProbeTrack	12.1	SCS215a	20100824.103041	20100824.104717	8	0.013327	60	10	60-180	60	177	GapExp	0	156	2	3	0	distractor	1	1307	347	-5213	13.328	13.021	13.655
DTProbeTrack02	11	ProbeTrack	12.1	SCS215a	20100824.103041	20100824.104724	8	0.013327	60	10	60-180	60	107	GapExp	0	157	2	9	0	target	0	1266	-1000	-6213	13.328	13.107	13.550
DTProbeTrack02	11	ProbeTrack	12.1	SCS215a	20100824.103041	20100824.104730	8	0.013327	60	10	60-180	60	67	GapExp	0	158	2	45	1	distractor	0	507	-1000	-7213	13.328	13.097	13.557
DTProbeTrack02	11	ProbeTrack	12.1	SCS215a	20100824.103041	20100824.104736	8	0.013327	60	10	60-180	60	173	GapExp	0	159	2	9	1	target	1	1480	260	-6953	13.328	13.099	13.558
DTProbeTrack02	11	ProbeTrack	12.1	SCS215a	20100824.103041	20100824.104743	8	0.013327	60	10	60-180	60	74	GapExp	0	160	2	1	0	distractor	1	1453	274	-6679	13.328	13.094	13.544
DTProbeTrack02	11	ProbeTrack	12.1	SCS215a	20100824.103041	20100824.104749	8	0.013327	60	10	60-180	60	101	GapExp	0	161	2	6	1	target	1	480	760	-5919	13.328	12.856	13.807
DTProbeTrack02	11	ProbeTrack	12.1	SCS215a	20100824.103041	20100824.104754	8	0.013327	60	10	60-180	60	175	GapExp	0	162	2	6	0	target	0	1226	-1000	-6919	13.328	13.307	13.348
DTProbeTrack02	11	ProbeTrack	12.1	SCS215a	20100824.103041	20100824.104801	8	0.013327	60	10	60-180	60	147	GapExp	0	163	2	6	0	distractor	1	653	674	-6245	13.328	13.310	13.345
DTProbeTrack02	11	ProbeTrack	12.1	SCS215a	20100824.103041	20100824.104807	8	0.013327	60	10	60-180	60	61	GapExp	0	164	2	3	0	target	0	1213	-1000	-7245	13.328	13.306	13.351
DTProbeTrack02	11	ProbeTrack	12.1	SCS215a	20100824.103041	20100824.104813	8	0.013327	60	10	60-180	60	163	GapExp	0	165	2	45	1	distractor	0	1773	-1000	-8245	13.328	13.016	13.626
DTProbeTrack02	11	ProbeTrack	12.1	SCS215a	20100824.103041	20100824.104821	8	0.013327	60	10	60-180	60	132	GapExp	0	166	2	9	0	target	0	813	-1000	-9245	13.328	13.307	13.357
DTProbeTrack02	11	ProbeTrack	12.1	SCS215a	20100824.103041	20100824.104827	8	0.013327	60	10	60-180	60	75	GapExp	0	167	2	1	1	distractor	0	1546	-1000	-10245	13.328	13.034	13.626
DTProbeTrack02	11	ProbeTrack	12.1	SCS215a	20100824.103041	20100824.104833	8	0.013327	60	10	60-180	60	128	GapExp	0	168	2	6	0	target	0	1346	-1000	-11245	13.328	13.109	13.554
DTProbeTrack02	11	ProbeTrack	12.1	SCS215a	20100824.103041	20100824.104839	8	0.013327	60	10	60-180	60	106	GapExp	0	169	2	45	1	distractor	0	1040	-1000	-12245	13.328	12.876	13.791
DTProbeTrack02	11	ProbeTrack	12.1	SCS215a	20100824.103041	20100824.104846	8	0.013327	60	10	60-180	60	138	GapExp	0	170	2	3	0	target	0	1666	-1000	-13245	13.328	13.083	13.558
DTProbeTrack02	11	ProbeTrack	12.1	SCS215a	20100824.103041	20100824.104853	8	0.013327	60	10	60-180	60	69	GapExp	0	171	2	6	1	distractor	0	1200	-1000	-14245	13.328	13.308	13.362
DTProbeTrack02	11	ProbeTrack	12.1	SCS215a	20100824.103041	20100824.104859	8	0.013327	60	10	60-180	60	151	GapExp	0	172	2	1	0	target	0	1080	-1000	-15245	13.328	13.299	13.351
DTProbeTrack02	11	ProbeTrack	12.1	SCS215a	20100824.103041	20100824.104905	8	0.013327	60	10	60-180	60	112	GapExp	0	173	2	1	0	distractor	1	1013	494	-14751	13.328	13.098	13.573
DTProbeTrack02	11	ProbeTrack	12.1	SCS215a	20100824.103041	20100824.104911	8	0.013327	60	10	60-180	60	169	GapExp	0	174	2	3	0	distractor	1	1013	494	-14257	13.328	13.297	13.360
DTProbeTrack02	11	ProbeTrack	12.1	SCS215a	20100824.103041	20100824.104918	8	0.013327	60	10	60-180	60	155	GapExp	0	175	2	45	1	distractor	0	707	-1000	-15257	13.328	13.214	13.450
DTProbeTrack02	11	ProbeTrack	12.1	SCS215a	20100824.103041	20100824.104924	8	0.013327	60	10	60-180	60	179	GapExp	0	176	2	3	1	target	1	1573	214	-15043	13.328	13.297	13.345
DTProbeTrack02	11	ProbeTrack	12.1	SCS215a	20100824.103041	20100824.104932	8	0.013327	60	10	60-180	60	95	GapExp	0	177	2	6	1	distractor	0	1040	-1000	-16043	13.328	13.309	13.345
DTProbeTrack02	11	ProbeTrack	12.1	SCS215a	20100824.103041	20100824.104938	8	0.013327	60	10	60-180	60	132	GapExp	0	178	2	6	0	target	0	1253	-1000	-17043	13.328	13.308	13.346
DTProbeTrack02	11	ProbeTrack	12.1	SCS215a	20100824.103041	20100824.104944	8	0.013327	60	10	60-180	60	138	GapExp	0	179	2	45	1	distractor	0	1240	-1000	-18043	13.450	13.095	53.309
DTProbeTrack02	11	ProbeTrack	12.1	SCS215a	20100824.103041	20100824.104951	8	0.013327	60	10	60-180	60	176	GapExp	0	180	2	45	0	target	0	907	-1000	-19043	13.328	13.098	13.550
DTProbeTrack02	11	ProbeTrack	12.1	SCS215a	20100824.103041	20100824.104958	8	0.013327	60	10	60-180	60	134	GapExp	0	181	2	9	1	distractor	0	1013	-1000	-20043	13.328	13.068	13.589
DTProbeTrack02	11	ProbeTrack	12.1	SCS215a	20100824.103041	20100824.105005	8	0.013327	60	10	60-180	60	174	GapExp	0	182	2	6	0	target	0	467	-1000	-21043	13.328	13.113	13.544
DTProbeTrack02	11	ProbeTrack	12.1	SCS215a	20100824.103041	20100824.105011	8	0.013327	60	10	60-180	60	62	GapExp	0	183	2	6	0	distractor	1	1053	474	-20569	13.328	13.087	13.570
DTProbeTrack02	11	ProbeTrack	12.1	SCS215a	20100824.103041	20100824.105016	8	0.013327	60	10	60-180	60	153	GapExp	0	184	2	1	0	target	0	733	-1000	-21569	13.328	13.114	13.549
DTProbeTrack02	11	ProbeTrack	12.1	SCS215a	20100824.103041	20100824.105023	8	0.013327	60	10	60-180	60	130	GapExp	0	185	2	3	0	distractor	1	720	640	-20929	13.328	13.301	13.350
DTProbeTrack02	11	ProbeTrack	12.1	SCS215a	20100824.103041	20100824.105029	8	0.013327	60	10	60-180	60	146	GapExp	0	186	2	1	1	target	1	560	720	-20209	13.328	13.310	13.346
DTProbeTrack02	11	ProbeTrack	12.1	SCS215a	20100824.103041	20100824.105035	8	0.013327	60	10	60-180	60	62	GapExp	0	187	2	6	0	target	0	880	-1000	-21209	13.328	12.967	13.687
DTProbeTrack02	11	ProbeTrack	12.1	SCS215a	20100824.103041	20100824.105040	8	0.013327	60	10	60-180	60	79	GapExp	0	188	2	1	0	distractor	1	880	560	-20649	13.328	13.104	13.554
DTProbeTrack02	11	ProbeTrack	12.1	SCS215a	20100824.103041	20100824.105045	8	0.013327	60	10	60-180	60	157	GapExp	0	189	2	45	1	target	1	1333	334	-20315	13.328	12.854	13.757
DTProbeTrack02	11	ProbeTrack	12.1	SCS215a	20100824.103041	20100824.105052	8	0.013327	60	10	60-180	60	171	GapExp	0	190	2	3	1	target	1	1240	380	-19935	13.328	13.098	13.560
DTProbeTrack02	11	ProbeTrack	12.1	SCS215a	20100824.103041	20100824.105059	8	0.013327	60	10	60-180	60	142	GapExp	0	191	2	9	0	target	0	1546	-1000	-20935	13.328	12.946	13.696
DTProbeTrack02	11	ProbeTrack	12.1	SCS215a	20100824.103041	20100824.105106	8	0.013327	60	10	60-180	60	73	GapExp	0	192	2	9	1	distractor	0	1746	-1000	-21935	13.328	13.308	13.351
DTProbeTrack02	11	ProbeTrack	12.1	SCS215a	20100824.103041	20100824.105113	8	0.013327	60	10	60-180	60	92	GapExp	0	193	2	45	1	target	1	1373	314	-21621	13.328	13.105	13.551
DTProbeTrack02	11	ProbeTrack	12.1	SCS215a	20100824.103041	20100824.105119	8	0.013327	60	10	60-180	60	96	GapExp	0	194	2	1	0	distractor	1	1760	120	-21501	13.328	12.872	13.802
DTProbeTrack02	11	ProbeTrack	12.1	SCS215a	20100824.103041	20100824.105126	8	0.013327	60	10	60-180	60	113	GapExp	0	195	2	45	0	distractor	1	1093	454	-21047	13.328	13.045	13.617
DTProbeTrack02	11	ProbeTrack	12.1	SCS215a	20100824.103041	20100824.105132	8	0.013327	60	10	60-180	60	63	GapExp	0	196	2	6	1	distractor	0	1520	-1000	-22047	13.328	13.309	13.347
DTProbeTrack02	11	ProbeTrack	12.1	SCS215a	20100824.103041	20100824.105138	8	0.013327	60	10	60-180	60	148	GapExp	0	197	2	3	1	distractor	0	614	-1000	-23047	13.328	13.308	13.347
DTProbeTrack02	11	ProbeTrack	12.1	SCS215a	20100824.103041	20100824.105144	8	0.013327	60	10	60-180	60	132	GapExp	0	198	2	6	0	target	0	1000	-1000	-24047	13.328	13.307	13.348
DTProbeTrack02	11	ProbeTrack	12.1	SCS215a	20100824.103041	20100824.105151	8	0.013327	60	10	60-180	60	103	GapExp	0	199	2	1	1	target	1	5065	0	-24047	13.328	13.110	13.344
DTProbeTrack02	11	ProbeTrack	12.1	SCS215a	20100824.103041	20100824.105200	8	0.013327	60	10	60-180	60	155	GapExp	0	200	2	6	0	target	0	187	-1000	-25047	13.328	13.298	13.348
DTProbeTrack02	11	ProbeTrack	12.1	SCS215a	20100824.103041	20100824.105212	8	0.013327	60	10	60-180	60	173	GapExp	0	201	2	6	0	target	0	933	-1000	-26047	13.328	12.867	13.786
DTProbeTrack02	11	ProbeTrack	12.1	SCS215a	20100824.103041	20100824.105219	8	0.013327	60	10	60-180	60	149	GapExp	0	202	2	45	0	distractor	1	600	700	-25347	13.328	13.306	13.356
DTProbeTrack02	11	ProbeTrack	12.1	SCS215a	20100824.103041	20100824.105225	8	0.013327	60	10	60-180	60	85	GapExp	0	203	2	1	0	target	0	693	-1000	-26347	13.328	13.103	13.561
DTProbeTrack02	11	ProbeTrack	12.1	SCS215a	20100824.103041	20100824.105231	8	0.013327	60	10	60-180	60	177	GapExp	0	204	2	1	0	distractor	1	200	900	-25447	13.328	13.112	13.552
DTProbeTrack02	11	ProbeTrack	12.1	SCS215a	20100824.103041	20100824.105237	8	0.013327	60	10	60-180	60	153	GapExp	0	205	2	45	0	distractor	1	2159	0	-25447	13.328	13.117	13.558
