exp	sub	code	rev	comp	runtime	trialtime	nstim	refreshdur	cuedur	gapdur	gapOnsetRange	durPostProbe	gapOnsetTime	blocktype	prac	trial	ntargets	soa	probeTarget	resp	acc	rt	pts	tpts	meanFrameDur	minFrameDur	maxFrameDur
DTProbeTrack02	20	ProbeTrack	12.1	SCS215a	20101013.090505	20101013.090519	8	0.013322	60	0	60-180	60	89	NoGap	1	1	2	45	0	target	0	534	-1000	-1000	13.328	13.309	13.344
DTProbeTrack02	20	ProbeTrack	12.1	SCS215a	20101013.090505	20101013.090525	8	0.013322	60	0	60-180	60	71	NoGap	1	2	2	45	1	distractor	0	440	-1000	-2000	13.387	13.302	26.661
DTProbeTrack02	20	ProbeTrack	12.1	SCS215a	20101013.090505	20101013.090530	8	0.013322	60	0	60-180	60	148	NoGap	1	3	2	3	0	distractor	1	547	727	-1273	13.328	12.904	13.748
DTProbeTrack02	20	ProbeTrack	12.1	SCS215a	20101013.090505	20101013.090536	8	0.013322	60	0	60-180	60	167	NoGap	1	4	2	9	1	target	1	467	767	-506	13.420	13.102	26.657
DTProbeTrack02	20	ProbeTrack	12.1	SCS215a	20101013.090505	20101013.090542	8	0.013322	60	0	60-180	60	78	NoGap	1	5	2	45	0	distractor	1	320	840	334	13.387	13.293	26.626
DTProbeTrack02	20	ProbeTrack	12.1	SCS215a	20101013.090505	20101013.090548	8	0.013322	60	0	60-180	60	120	NoGap	1	6	2	6	0	distractor	1	400	800	1134	13.955	12.853	27.124
DTProbeTrack02	20	ProbeTrack	12.1	SCS215a	20101013.090505	20101013.090553	8	0.013322	60	0	60-180	60	62	NoGap	1	7	2	9	1	target	1	667	667	1801	13.530	13.013	26.701
DTProbeTrack02	20	ProbeTrack	12.1	SCS215a	20101013.090505	20101013.090558	8	0.013322	60	0	60-180	60	167	NoGap	1	8	2	3	1	target	1	440	780	2581	13.328	13.297	13.349
DTProbeTrack02	20	ProbeTrack	12.1	SCS215a	20101013.090505	20101013.090604	8	0.013322	60	0	60-180	60	142	NoGap	1	9	2	45	1	target	1	414	793	3374	13.600	12.102	40.307
DTProbeTrack02	20	ProbeTrack	12.1	SCS215a	20101013.090505	20101013.090610	8	0.013322	60	0	60-180	60	145	NoGap	1	10	2	1	1	distractor	0	414	-1000	2374	13.328	13.092	13.560
DTProbeTrack02	20	ProbeTrack	12.1	SCS215a	20101013.090505	20101013.090616	8	0.013322	60	0	60-180	60	90	NoGap	1	11	2	3	0	distractor	1	667	667	3041	13.327	13.247	13.362
DTProbeTrack02	20	ProbeTrack	12.1	SCS215a	20101013.090505	20101013.090621	8	0.013322	60	0	60-180	60	86	NoGap	1	12	2	6	0	distractor	1	427	787	3828	13.328	13.098	13.547
DTProbeTrack02	20	ProbeTrack	12.1	SCS215a	20101013.090505	20101013.090626	8	0.013322	60	0	60-180	60	89	NoGap	1	13	2	9	0	distractor	1	560	720	4548	13.326	12.883	13.773
DTProbeTrack02	20	ProbeTrack	12.1	SCS215a	20101013.090505	20101013.090631	8	0.013322	60	0	60-180	60	156	NoGap	1	14	2	6	0	distractor	1	507	747	5295	13.328	12.869	13.792
DTProbeTrack02	20	ProbeTrack	12.1	SCS215a	20101013.090505	20101013.090637	8	0.013322	60	0	60-180	60	140	NoGap	1	15	2	6	0	distractor	1	520	740	6035	13.328	12.921	13.705
DTProbeTrack02	20	ProbeTrack	12.1	SCS215a	20101013.090505	20101013.090643	8	0.013322	60	0	60-180	60	148	NoGap	1	16	2	1	0	target	0	574	-1000	5035	13.328	12.855	13.804
DTProbeTrack02	20	ProbeTrack	12.1	SCS215a	20101013.090505	20101013.090649	8	0.013322	60	0	60-180	60	78	NoGap	1	17	2	45	1	target	1	827	587	5622	13.328	13.108	13.565
DTProbeTrack02	20	ProbeTrack	12.1	SCS215a	20101013.090505	20101013.090654	8	0.013322	60	0	60-180	60	117	NoGap	1	18	2	1	0	distractor	1	440	780	6402	13.328	12.852	13.808
DTProbeTrack02	20	ProbeTrack	12.1	SCS215a	20101013.090505	20101013.090700	8	0.013322	60	0	60-180	60	89	NoGap	1	19	2	3	1	target	1	387	807	7209	13.328	12.867	13.782
DTProbeTrack02	20	ProbeTrack	12.1	SCS215a	20101013.090505	20101013.090705	8	0.013322	60	0	60-180	60	78	NoGap	1	20	2	1	0	distractor	1	560	720	7929	13.328	12.862	13.797
DTProbeTrack02	20	ProbeTrack	12.1	SCS215a	20101013.090505	20101013.090710	8	0.013322	60	0	60-180	60	69	NoGap	1	21	2	1	1	target	1	467	767	8696	13.328	13.270	13.367
DTProbeTrack02	20	ProbeTrack	12.1	SCS215a	20101013.090505	20101013.090714	8	0.013322	60	0	60-180	60	139	NoGap	1	22	2	6	1	target	1	520	740	9436	13.328	12.945	13.710
DTProbeTrack02	20	ProbeTrack	12.1	SCS215a	20101013.090505	20101013.090720	8	0.013322	60	0	60-180	60	149	NoGap	1	23	2	9	0	distractor	1	347	827	10263	13.327	13.229	13.361
DTProbeTrack02	20	ProbeTrack	12.1	SCS215a	20101013.090505	20101013.090726	8	0.013322	60	0	60-180	60	170	NoGap	1	24	2	9	0	distractor	1	440	780	11043	13.328	12.844	13.805
DTProbeTrack02	20	ProbeTrack	12.1	SCS215a	20101013.090505	20101013.090732	8	0.013322	60	0	60-180	60	111	NoGap	1	25	2	3	0	distractor	1	494	753	11796	13.328	12.884	13.778
DTProbeTrack02	20	ProbeTrack	12.1	SCS215a	20101013.090505	20101013.090737	8	0.013322	60	0	60-180	60	138	NoGap	1	26	2	9	1	target	1	427	787	12583	13.328	12.986	13.674
DTProbeTrack02	20	ProbeTrack	12.1	SCS215a	20101013.090505	20101013.090743	8	0.013322	60	0	60-180	60	85	NoGap	1	27	2	3	1	target	1	454	773	13356	13.395	12.868	26.643
DTProbeTrack02	20	ProbeTrack	12.1	SCS215a	20101013.090505	20101013.090748	8	0.013322	60	0	60-180	60	140	NoGap	1	28	2	6	1	target	1	414	793	14149	13.328	12.956	13.687
DTProbeTrack02	20	ProbeTrack	12.1	SCS215a	20101013.090505	20101013.090753	8	0.013322	60	0	60-180	60	132	NoGap	1	29	2	6	1	target	1	400	800	14949	13.328	13.294	13.366
DTProbeTrack02	20	ProbeTrack	12.1	SCS215a	20101013.090505	20101013.090759	8	0.013322	60	0	60-180	60	91	NoGap	1	30	2	45	0	distractor	1	454	773	15722	13.328	12.892	13.771
DTProbeTrack02	20	ProbeTrack	12.1	SCS215a	20101013.090505	20101013.090804	8	0.013322	60	0	60-180	60	87	NoGap	1	31	2	45	0	distractor	1	347	827	16549	13.328	12.843	13.808
DTProbeTrack02	20	ProbeTrack	12.1	SCS215a	20101013.090505	20101013.090810	8	0.013322	60	0	60-180	60	143	NoGap	1	32	2	9	0	distractor	1	467	767	17316	13.328	12.848	13.800
DTProbeTrack02	20	ProbeTrack	12.1	SCS215a	20101013.090505	20101013.090815	8	0.013322	60	0	60-180	60	105	NoGap	1	33	2	1	0	target	0	587	-1000	16316	13.328	12.946	13.705
DTProbeTrack02	20	ProbeTrack	12.1	SCS215a	20101013.090505	20101013.090821	8	0.013322	60	0	60-180	60	93	NoGap	1	34	2	9	1	target	1	494	753	17069	13.328	12.874	13.787
DTProbeTrack02	20	ProbeTrack	12.1	SCS215a	20101013.090505	20101013.090826	8	0.013322	60	0	60-180	60	144	NoGap	1	35	2	1	1	target	1	427	787	17856	13.328	12.866	13.784
DTProbeTrack02	20	ProbeTrack	12.1	SCS215a	20101013.090505	20101013.090831	8	0.013322	60	0	60-180	60	142	NoGap	1	36	2	3	1	target	1	360	820	18676	13.328	12.880	13.769
DTProbeTrack02	20	ProbeTrack	12.1	SCS215a	20101013.090505	20101013.090837	8	0.013322	60	0	60-180	60	94	NoGap	1	37	2	45	1	target	1	454	773	19449	13.328	12.836	13.806
DTProbeTrack02	20	ProbeTrack	12.1	SCS215a	20101013.090505	20101013.090843	8	0.013322	60	0	60-180	60	112	NoGap	1	38	2	6	1	target	1	347	827	20276	13.388	12.862	26.314
DTProbeTrack02	20	ProbeTrack	12.1	SCS215a	20101013.090505	20101013.090848	8	0.013322	60	0	60-180	60	167	NoGap	1	39	2	3	0	distractor	1	414	793	21069	13.328	12.865	13.793
DTProbeTrack02	20	ProbeTrack	12.1	SCS215a	20101013.090505	20101013.090854	8	0.013322	60	0	60-180	60	122	NoGap	1	40	2	1	1	target	1	574	713	21782	13.328	12.903	13.754
DTProbeTrack02	20	ProbeTrack	12.1	SCS215a	20101013.090945	20101013.091010	8	0.013328	60	10	60-180	60	119	GapPrac	1	1	2	3	1	target	1	560	720	22502	13.328	12.987	13.671
DTProbeTrack02	20	ProbeTrack	12.1	SCS215a	20101013.090945	20101013.091016	8	0.013328	60	10	60-180	60	77	GapPrac	1	2	2	45	0	distractor	1	667	667	23169	13.328	13.091	13.551
DTProbeTrack02	20	ProbeTrack	12.1	SCS215a	20101013.090945	20101013.091022	8	0.013328	60	10	60-180	60	65	GapPrac	1	3	2	9	1	target	1	454	773	23942	13.328	13.281	13.372
DTProbeTrack02	20	ProbeTrack	12.1	SCS215a	20101013.090945	20101013.091027	8	0.013328	60	10	60-180	60	114	GapPrac	1	4	2	6	0	distractor	1	467	767	24709	13.328	12.976	13.670
DTProbeTrack02	20	ProbeTrack	12.1	SCS215a	20101013.090945	20101013.091032	8	0.013328	60	10	60-180	60	81	GapPrac	1	5	2	6	1	target	1	494	753	25462	13.328	12.909	13.741
DTProbeTrack02	20	ProbeTrack	12.1	SCS215a	20101013.090945	20101013.091037	8	0.013328	60	10	60-180	60	104	GapPrac	1	6	2	1	1	target	1	467	767	26229	13.328	13.306	13.348
DTProbeTrack02	20	ProbeTrack	12.1	SCS215a	20101013.090945	20101013.091042	8	0.013328	60	10	60-180	60	62	GapPrac	1	7	2	9	0	distractor	1	600	700	26929	13.328	13.300	13.350
DTProbeTrack02	20	ProbeTrack	12.1	SCS215a	20101013.090945	20101013.091047	8	0.013328	60	10	60-180	60	71	GapPrac	1	8	2	1	0	distractor	1	454	773	27702	13.328	13.137	13.518
DTProbeTrack02	20	ProbeTrack	12.1	SCS215a	20101013.090945	20101013.091052	8	0.013328	60	10	60-180	60	156	GapPrac	1	9	2	1	0	distractor	1	480	760	28462	13.328	12.894	13.757
DTProbeTrack02	20	ProbeTrack	12.1	SCS215a	20101013.090945	20101013.091058	8	0.013328	60	10	60-180	60	65	GapPrac	1	10	2	9	0	target	0	440	-1000	27462	13.328	12.874	13.790
DTProbeTrack02	20	ProbeTrack	12.1	SCS215a	20101013.090945	20101013.091103	8	0.013328	60	10	60-180	60	119	GapPrac	1	11	2	45	1	distractor	0	160	-1000	26462	13.328	12.876	13.799
DTProbeTrack02	20	ProbeTrack	12.1	SCS215a	20101013.090945	20101013.091109	8	0.013328	60	10	60-180	60	168	GapPrac	1	12	2	3	1	target	1	574	713	27175	13.328	12.931	13.728
DTProbeTrack02	20	ProbeTrack	12.1	SCS215a	20101013.090945	20101013.091115	8	0.013328	60	10	60-180	60	110	GapPrac	1	13	2	9	1	target	1	427	787	27962	13.721	12.850	39.953
DTProbeTrack02	20	ProbeTrack	12.1	SCS215a	20101013.090945	20101013.091121	8	0.013328	60	10	60-180	60	79	GapPrac	1	14	2	1	1	target	1	574	713	28675	13.328	13.097	13.551
DTProbeTrack02	20	ProbeTrack	12.1	SCS215a	20101013.090945	20101013.091126	8	0.013328	60	10	60-180	60	141	GapPrac	1	15	2	3	0	distractor	1	520	740	29415	13.328	12.959	13.721
DTProbeTrack02	20	ProbeTrack	12.1	SCS215a	20101013.090945	20101013.091132	8	0.013328	60	10	60-180	60	131	GapPrac	1	16	2	6	0	target	0	627	-1000	28415	13.328	12.871	13.773
DTProbeTrack02	20	ProbeTrack	12.1	SCS215a	20101013.090945	20101013.091137	8	0.013328	60	10	60-180	60	117	GapPrac	1	17	2	6	1	target	1	494	753	29168	13.328	12.874	13.798
DTProbeTrack02	20	ProbeTrack	12.1	SCS215a	20101013.090945	20101013.091143	8	0.013328	60	10	60-180	60	78	GapPrac	1	18	2	45	0	distractor	1	614	693	29861	13.328	13.102	13.556
DTProbeTrack02	20	ProbeTrack	12.1	SCS215a	20101013.090945	20101013.091149	8	0.013328	60	10	60-180	60	159	GapPrac	1	19	2	3	0	distractor	1	720	640	30501	13.328	13.103	13.554
DTProbeTrack02	20	ProbeTrack	12.1	SCS215a	20101013.090945	20101013.091155	8	0.013328	60	10	60-180	60	131	GapPrac	1	20	2	45	1	target	1	440	780	31281	13.328	13.109	13.553
DTProbeTrack02	20	ProbeTrack	12.1	SCS215a	20101013.091443	20101013.091451	8	0.013328	60	10	60-180	60	66	GapPrac	1	1	2	1	1	target	1	1480	260	31541	13.328	13.097	13.552
DTProbeTrack02	20	ProbeTrack	12.1	SCS215a	20101013.091443	20101013.091456	8	0.013328	60	10	60-180	60	83	GapPrac	1	2	2	1	1	distractor	0	1107	-1000	30541	13.328	13.307	13.347
DTProbeTrack02	20	ProbeTrack	12.1	SCS215a	20101013.091443	20101013.091502	8	0.013328	60	10	60-180	60	121	GapPrac	1	3	2	6	1	target	1	760	620	31161	13.328	13.310	13.346
DTProbeTrack02	20	ProbeTrack	12.1	SCS215a	20101013.091443	20101013.091508	8	0.013328	60	10	60-180	60	123	GapPrac	1	4	2	45	1	target	1	667	667	31828	13.328	13.050	13.597
DTProbeTrack02	20	ProbeTrack	12.1	SCS215a	20101013.091443	20101013.091514	8	0.013328	60	10	60-180	60	143	GapPrac	1	5	2	9	1	target	1	973	514	32342	13.327	12.863	13.793
DTProbeTrack02	20	ProbeTrack	12.1	SCS215a	20101013.091443	20101013.091521	8	0.013328	60	10	60-180	60	102	GapPrac	1	6	2	3	1	target	1	534	733	33075	13.328	13.097	13.558
DTProbeTrack02	20	ProbeTrack	12.1	SCS215a	20101013.091443	20101013.091526	8	0.013328	60	10	60-180	60	141	GapPrac	1	7	2	45	0	target	0	547	-1000	32075	13.328	12.874	13.766
DTProbeTrack02	20	ProbeTrack	12.1	SCS215a	20101013.091443	20101013.091532	8	0.013328	60	10	60-180	60	77	GapPrac	1	8	2	45	0	target	0	627	-1000	31075	13.328	13.102	13.557
DTProbeTrack02	20	ProbeTrack	12.1	SCS215a	20101013.091443	20101013.091538	8	0.013328	60	10	60-180	60	138	GapPrac	1	9	2	6	1	target	1	494	753	31828	13.328	13.304	13.347
DTProbeTrack02	20	ProbeTrack	12.1	SCS215a	20101013.091443	20101013.091544	8	0.013328	60	10	60-180	60	104	GapPrac	1	10	2	9	0	distractor	1	693	654	32482	13.328	12.902	13.767
DTProbeTrack02	20	ProbeTrack	12.1	SCS215a	20101013.091443	20101013.091550	8	0.013328	60	10	60-180	60	62	GapPrac	1	11	2	6	0	distractor	1	547	727	33209	13.328	13.043	13.623
DTProbeTrack02	20	ProbeTrack	12.1	SCS215a	20101013.091443	20101013.091554	8	0.013328	60	10	60-180	60	107	GapPrac	1	12	2	1	0	target	0	1040	-1000	32209	13.328	12.907	13.762
DTProbeTrack02	20	ProbeTrack	12.1	SCS215a	20101013.091443	20101013.091600	8	0.013328	60	10	60-180	60	148	GapPrac	1	13	2	3	1	target	1	694	653	32862	13.328	13.223	13.418
DTProbeTrack02	20	ProbeTrack	12.1	SCS215a	20101013.091443	20101013.091606	8	0.013328	60	10	60-180	60	146	GapPrac	1	14	2	1	0	distractor	1	1173	414	33276	13.328	13.099	13.555
DTProbeTrack02	20	ProbeTrack	12.1	SCS215a	20101013.091443	20101013.091613	8	0.013328	60	10	60-180	60	119	GapPrac	1	15	2	3	0	target	0	680	-1000	32276	13.328	12.983	13.677
DTProbeTrack02	20	ProbeTrack	12.1	SCS215a	20101013.091443	20101013.091619	8	0.013328	60	10	60-180	60	174	GapPrac	1	16	2	3	0	distractor	1	614	693	32969	13.328	12.920	13.730
DTProbeTrack02	20	ProbeTrack	12.1	SCS215a	20101013.091443	20101013.091625	8	0.013328	60	10	60-180	60	130	GapPrac	1	17	2	9	0	distractor	1	520	740	33709	13.933	12.850	40.414
DTProbeTrack02	20	ProbeTrack	12.1	SCS215a	20101013.091443	20101013.091631	8	0.013328	60	10	60-180	60	87	GapPrac	1	18	2	9	1	target	1	1960	20	33729	13.328	13.102	13.556
DTProbeTrack02	20	ProbeTrack	12.1	SCS215a	20101013.091443	20101013.091638	8	0.013328	60	10	60-180	60	144	GapPrac	1	19	2	45	1	target	1	507	747	34476	13.328	13.291	13.366
DTProbeTrack02	20	ProbeTrack	12.1	SCS215a	20101013.091443	20101013.091644	8	0.013328	60	10	60-180	60	83	GapPrac	1	20	2	6	0	distractor	1	454	773	35249	13.328	13.107	13.542
DTProbeTrack02	20	ProbeTrack	12.1	SCS215a	20101013.091730	20101013.091738	8	0.013328	60	10	60-180	60	118	GapExp	1	1	2	6	1	target	1	693	654	35903	13.328	13.310	13.344
DTProbeTrack02	20	ProbeTrack	12.1	SCS215a	20101013.091730	20101013.091743	8	0.013328	60	10	60-180	60	106	GapExp	1	2	2	9	1	distractor	0	560	-1000	34903	13.328	13.089	13.574
DTProbeTrack02	20	ProbeTrack	12.1	SCS215a	20101013.091730	20101013.091749	8	0.013328	60	10	60-180	60	106	GapExp	1	3	2	3	0	distractor	1	720	640	35543	13.328	12.889	13.772
DTProbeTrack02	20	ProbeTrack	12.1	SCS215a	20101013.091730	20101013.091755	8	0.013328	60	10	60-180	60	128	GapExp	1	4	2	45	0	distractor	1	494	753	36296	13.328	13.012	13.638
DTProbeTrack02	20	ProbeTrack	12.1	SCS215a	20101013.091730	20101013.091801	8	0.013328	60	10	60-180	60	169	GapExp	1	5	2	6	0	distractor	1	454	773	37069	13.328	13.039	13.616
DTProbeTrack02	20	ProbeTrack	12.1	SCS215a	20101013.091730	20101013.091807	8	0.013328	60	10	60-180	60	169	GapExp	0	6	2	45	0	distractor	1	440	780	37849	13.407	12.860	26.766
DTProbeTrack02	20	ProbeTrack	12.1	SCS215a	20101013.091730	20101013.091814	8	0.013328	60	10	60-180	60	129	GapExp	0	7	2	1	1	target	1	947	527	38376	13.328	12.869	13.783
DTProbeTrack02	20	ProbeTrack	12.1	SCS215a	20101013.091730	20101013.091820	8	0.013328	60	10	60-180	60	147	GapExp	0	8	2	45	1	distractor	0	1266	-1000	37376	13.328	12.860	13.800
DTProbeTrack02	20	ProbeTrack	12.1	SCS215a	20101013.091730	20101013.091827	8	0.013328	60	10	60-180	60	132	GapExp	0	9	2	9	1	target	1	400	800	38176	13.328	12.857	13.791
DTProbeTrack02	20	ProbeTrack	12.1	SCS215a	20101013.091730	20101013.091833	8	0.013328	60	10	60-180	60	146	GapExp	0	10	2	45	1	target	1	440	780	38956	13.328	13.303	13.364
DTProbeTrack02	20	ProbeTrack	12.1	SCS215a	20101013.091730	20101013.091839	8	0.013328	60	10	60-180	60	127	GapExp	0	11	2	1	1	distractor	0	614	-1000	37956	13.328	13.275	13.382
DTProbeTrack02	20	ProbeTrack	12.1	SCS215a	20101013.091730	20101013.091845	8	0.013328	60	10	60-180	60	161	GapExp	0	12	2	6	0	distractor	1	467	767	38723	13.328	12.895	13.781
DTProbeTrack02	20	ProbeTrack	12.1	SCS215a	20101013.091730	20101013.091851	8	0.013328	60	10	60-180	60	148	GapExp	0	13	2	6	0	distractor	1	387	807	39530	13.328	13.308	13.353
DTProbeTrack02	20	ProbeTrack	12.1	SCS215a	20101013.091730	20101013.091857	8	0.013328	60	10	60-180	60	96	GapExp	0	14	2	45	0	distractor	1	454	773	40303	13.328	12.862	13.797
DTProbeTrack02	20	ProbeTrack	12.1	SCS215a	20101013.091730	20101013.091902	8	0.013328	60	10	60-180	60	83	GapExp	0	15	2	3	0	distractor	1	560	720	41023	13.328	12.886	13.771
DTProbeTrack02	20	ProbeTrack	12.1	SCS215a	20101013.091730	20101013.091908	8	0.013328	60	10	60-180	60	114	GapExp	0	16	2	3	0	distractor	1	520	740	41763	13.328	13.295	13.352
DTProbeTrack02	20	ProbeTrack	12.1	SCS215a	20101013.091730	20101013.091913	8	0.013328	60	10	60-180	60	150	GapExp	0	17	2	45	0	distractor	1	427	787	42550	13.328	13.309	13.350
DTProbeTrack02	20	ProbeTrack	12.1	SCS215a	20101013.091730	20101013.091920	8	0.013328	60	10	60-180	60	101	GapExp	0	18	2	6	0	distractor	1	614	693	43243	13.328	13.137	13.521
DTProbeTrack02	20	ProbeTrack	12.1	SCS215a	20101013.091730	20101013.091925	8	0.013328	60	10	60-180	60	113	GapExp	0	19	2	45	1	target	1	440	780	44023	13.328	12.849	13.798
DTProbeTrack02	20	ProbeTrack	12.1	SCS215a	20101013.091730	20101013.091931	8	0.013328	60	10	60-180	60	158	GapExp	0	20	2	6	0	distractor	1	773	614	44637	13.328	13.084	13.558
DTProbeTrack02	20	ProbeTrack	12.1	SCS215a	20101013.091730	20101013.091937	8	0.013328	60	10	60-180	60	167	GapExp	0	21	2	3	1	target	1	587	707	45344	13.328	12.860	13.788
DTProbeTrack02	20	ProbeTrack	12.1	SCS215a	20101013.091730	20101013.091944	8	0.013328	60	10	60-180	60	148	GapExp	0	22	2	9	1	distractor	0	1013	-1000	44344	13.328	12.831	13.826
DTProbeTrack02	20	ProbeTrack	12.1	SCS215a	20101013.091730	20101013.091950	8	0.013328	60	10	60-180	60	102	GapExp	0	23	2	3	0	distractor	1	1400	300	44644	13.328	13.307	13.347
DTProbeTrack02	20	ProbeTrack	12.1	SCS215a	20101013.091730	20101013.091956	8	0.013328	60	10	60-180	60	119	GapExp	0	24	2	6	0	target	0	987	-1000	43644	13.328	13.309	13.349
DTProbeTrack02	20	ProbeTrack	12.1	SCS215a	20101013.091730	20101013.092002	8	0.013328	60	10	60-180	60	120	GapExp	0	25	2	6	1	target	1	547	727	44371	13.328	12.881	13.771
DTProbeTrack02	20	ProbeTrack	12.1	SCS215a	20101013.091730	20101013.092008	8	0.013328	60	10	60-180	60	135	GapExp	0	26	2	1	0	distractor	1	574	713	45084	13.328	12.890	13.781
DTProbeTrack02	20	ProbeTrack	12.1	SCS215a	20101013.091730	20101013.092014	8	0.013328	60	10	60-180	60	84	GapExp	0	27	2	6	0	distractor	1	1147	427	45511	13.328	13.089	13.568
DTProbeTrack02	20	ProbeTrack	12.1	SCS215a	20101013.091730	20101013.092020	8	0.013328	60	10	60-180	60	93	GapExp	0	28	2	6	0	distractor	1	1413	294	45805	13.328	13.106	13.563
DTProbeTrack02	20	ProbeTrack	12.1	SCS215a	20101013.091730	20101013.092026	8	0.013328	60	10	60-180	60	157	GapExp	0	29	2	9	0	distractor	1	707	647	46452	13.328	12.917	13.738
DTProbeTrack02	20	ProbeTrack	12.1	SCS215a	20101013.091730	20101013.092032	8	0.013328	60	10	60-180	60	179	GapExp	0	30	2	1	0	target	0	933	-1000	45452	13.328	13.085	13.570
DTProbeTrack02	20	ProbeTrack	12.1	SCS215a	20101013.091730	20101013.092039	8	0.013328	60	10	60-180	60	88	GapExp	0	31	2	3	1	target	1	1067	467	45919	13.328	13.309	13.346
DTProbeTrack02	20	ProbeTrack	12.1	SCS215a	20101013.091730	20101013.092045	8	0.013328	60	10	60-180	60	103	GapExp	0	32	2	1	1	target	1	547	727	46646	13.328	12.839	13.815
DTProbeTrack02	20	ProbeTrack	12.1	SCS215a	20101013.091730	20101013.092050	8	0.013328	60	10	60-180	60	105	GapExp	0	33	2	1	1	target	1	720	640	47286	13.328	12.877	13.788
DTProbeTrack02	20	ProbeTrack	12.1	SCS215a	20101013.091730	20101013.092055	8	0.013328	60	10	60-180	60	154	GapExp	0	34	2	6	1	target	1	827	587	47873	13.328	12.909	13.740
DTProbeTrack02	20	ProbeTrack	12.1	SCS215a	20101013.091730	20101013.092102	8	0.013328	60	10	60-180	60	133	GapExp	0	35	2	3	0	distractor	1	733	634	48507	13.328	13.309	13.348
DTProbeTrack02	20	ProbeTrack	12.1	SCS215a	20101013.091730	20101013.092108	8	0.013328	60	10	60-180	60	149	GapExp	0	36	2	45	0	target	0	827	-1000	47507	13.328	12.889	13.785
DTProbeTrack02	20	ProbeTrack	12.1	SCS215a	20101013.091730	20101013.092115	8	0.013328	60	10	60-180	60	164	GapExp	0	37	2	45	0	distractor	1	707	647	48154	13.328	12.913	13.758
DTProbeTrack02	20	ProbeTrack	12.1	SCS215a	20101013.091730	20101013.092122	8	0.013328	60	10	60-180	60	106	GapExp	0	38	2	6	0	distractor	1	787	607	48761	13.328	13.308	13.348
DTProbeTrack02	20	ProbeTrack	12.1	SCS215a	20101013.091730	20101013.092127	8	0.013328	60	10	60-180	60	126	GapExp	0	39	2	1	1	target	1	947	527	49288	13.328	13.311	13.353
DTProbeTrack02	20	ProbeTrack	12.1	SCS215a	20101013.091730	20101013.092133	8	0.013328	60	10	60-180	60	155	GapExp	0	40	2	1	1	distractor	0	1933	-1000	48288	13.328	13.309	13.348
DTProbeTrack02	20	ProbeTrack	12.1	SCS215a	20101013.091730	20101013.092141	8	0.013328	60	10	60-180	60	101	GapExp	0	41	2	3	1	target	1	1093	454	48742	13.328	13.311	13.347
DTProbeTrack02	20	ProbeTrack	12.1	SCS215a	20101013.091730	20101013.092147	8	0.013328	60	10	60-180	60	120	GapExp	0	42	2	3	1	target	1	454	773	49515	13.328	12.984	13.683
DTProbeTrack02	20	ProbeTrack	12.1	SCS215a	20101013.091730	20101013.092152	8	0.013328	60	10	60-180	60	166	GapExp	0	43	2	9	1	target	1	680	660	50175	13.328	12.947	13.716
DTProbeTrack02	20	ProbeTrack	12.1	SCS215a	20101013.091730	20101013.092159	8	0.013328	60	10	60-180	60	172	GapExp	0	44	2	9	1	target	1	1133	434	50609	13.328	13.094	13.552
DTProbeTrack02	20	ProbeTrack	12.1	SCS215a	20101013.091730	20101013.092206	8	0.013328	60	10	60-180	60	127	GapExp	0	45	2	3	0	target	0	1106	-1000	49609	13.328	12.886	13.767
DTProbeTrack02	20	ProbeTrack	12.1	SCS215a	20101013.091730	20101013.092212	8	0.013328	60	10	60-180	60	138	GapExp	0	46	2	1	0	distractor	1	547	727	50336	13.328	13.112	13.541
DTProbeTrack02	20	ProbeTrack	12.1	SCS215a	20101013.091730	20101013.092218	8	0.013328	60	10	60-180	60	163	GapExp	0	47	2	3	1	target	1	547	727	51063	13.328	13.105	13.536
DTProbeTrack02	20	ProbeTrack	12.1	SCS215a	20101013.091730	20101013.092224	8	0.013328	60	10	60-180	60	145	GapExp	0	48	2	6	1	target	1	494	753	51816	13.328	12.892	13.766
DTProbeTrack02	20	ProbeTrack	12.1	SCS215a	20101013.091730	20101013.092230	8	0.013328	60	10	60-180	60	123	GapExp	0	49	2	45	1	target	1	400	800	52616	13.328	13.307	13.348
DTProbeTrack02	20	ProbeTrack	12.1	SCS215a	20101013.091730	20101013.092236	8	0.013328	60	10	60-180	60	62	GapExp	0	50	2	45	0	distractor	1	654	673	53289	13.327	12.900	13.761
DTProbeTrack02	20	ProbeTrack	12.1	SCS215a	20101013.091730	20101013.092255	8	0.013328	60	10	60-180	60	98	GapExp	0	51	2	9	0	target	0	2199	-1000	52289	13.328	12.869	13.795
DTProbeTrack02	20	ProbeTrack	12.1	SCS215a	20101013.091730	20101013.092302	8	0.013328	60	10	60-180	60	157	GapExp	0	52	2	9	0	distractor	1	547	727	53016	13.328	13.100	13.569
DTProbeTrack02	20	ProbeTrack	12.1	SCS215a	20101013.091730	20101013.092308	8	0.013328	60	10	60-180	60	103	GapExp	0	53	2	1	1	target	1	574	713	53729	13.328	12.893	13.762
DTProbeTrack02	20	ProbeTrack	12.1	SCS215a	20101013.091730	20101013.092314	8	0.013328	60	10	60-180	60	180	GapExp	0	54	2	45	0	distractor	1	427	787	54516	13.328	12.876	13.774
DTProbeTrack02	20	ProbeTrack	12.1	SCS215a	20101013.091730	20101013.092320	8	0.013328	60	10	60-180	60	168	GapExp	0	55	2	45	1	target	1	828	586	55102	13.328	13.097	13.560
DTProbeTrack02	20	ProbeTrack	12.1	SCS215a	20101013.091730	20101013.092328	8	0.013328	60	10	60-180	60	70	GapExp	0	56	2	45	0	distractor	1	1466	267	55369	13.328	12.931	13.728
DTProbeTrack02	20	ProbeTrack	12.1	SCS215a	20101013.091730	20101013.092334	8	0.013328	60	10	60-180	60	87	GapExp	0	57	2	9	0	distractor	1	1080	460	55829	14.212	12.896	133.265
DTProbeTrack02	20	ProbeTrack	12.1	SCS215a	20101013.091730	20101013.092340	8	0.013328	60	10	60-180	60	153	GapExp	0	58	2	6	0	distractor	1	1360	320	56149	13.328	12.864	13.799
DTProbeTrack02	20	ProbeTrack	12.1	SCS215a	20101013.091730	20101013.092347	8	0.013328	60	10	60-180	60	146	GapExp	0	59	2	1	0	distractor	1	1440	280	56429	13.328	13.059	13.620
DTProbeTrack02	20	ProbeTrack	12.1	SCS215a	20101013.091730	20101013.092354	8	0.013328	60	10	60-180	60	92	GapExp	0	60	2	6	0	distractor	1	1906	47	56476	13.328	12.869	13.773
DTProbeTrack02	20	ProbeTrack	12.1	SCS215a	20101013.091730	20101013.092400	8	0.013328	60	10	60-180	60	139	GapExp	0	61	2	9	0	target	0	1120	-1000	55476	13.328	12.872	13.782
DTProbeTrack02	20	ProbeTrack	12.1	SCS215a	20101013.091730	20101013.092407	8	0.013328	60	10	60-180	60	133	GapExp	0	62	2	45	1	target	1	494	753	56229	13.328	12.885	13.785
DTProbeTrack02	20	ProbeTrack	12.1	SCS215a	20101013.091730	20101013.092413	8	0.013328	60	10	60-180	60	164	GapExp	0	63	2	3	0	distractor	1	494	753	56982	13.328	12.854	13.820
DTProbeTrack02	20	ProbeTrack	12.1	SCS215a	20101013.091730	20101013.092419	8	0.013328	60	10	60-180	60	174	GapExp	0	64	2	9	1	target	1	600	700	57682	13.328	13.090	13.558
DTProbeTrack02	20	ProbeTrack	12.1	SCS215a	20101013.091730	20101013.092426	8	0.013328	60	10	60-180	60	130	GapExp	0	65	2	9	0	distractor	1	733	634	58316	13.328	13.114	13.539
DTProbeTrack02	20	ProbeTrack	12.1	SCS215a	20101013.091730	20101013.092432	8	0.013328	60	10	60-180	60	132	GapExp	0	66	2	3	0	distractor	1	653	674	58990	13.328	12.896	13.753
DTProbeTrack02	20	ProbeTrack	12.1	SCS215a	20101013.091730	20101013.092438	8	0.013328	60	10	60-180	60	124	GapExp	0	67	2	3	0	distractor	1	640	680	59670	13.328	13.307	13.347
DTProbeTrack02	20	ProbeTrack	12.1	SCS215a	20101013.091730	20101013.092443	8	0.013328	60	10	60-180	60	98	GapExp	0	68	2	9	1	target	1	1027	487	60157	13.328	13.289	13.359
DTProbeTrack02	20	ProbeTrack	12.1	SCS215a	20101013.091730	20101013.092449	8	0.013328	60	10	60-180	60	143	GapExp	0	69	2	6	1	target	1	1293	354	60511	13.328	12.888	13.773
DTProbeTrack02	20	ProbeTrack	12.1	SCS215a	20101013.091730	20101013.092456	8	0.013328	60	10	60-180	60	82	GapExp	0	70	2	3	0	target	0	1573	-1000	59511	13.328	13.043	13.612
DTProbeTrack02	20	ProbeTrack	12.1	SCS215a	20101013.091730	20101013.092502	8	0.013328	60	10	60-180	60	62	GapExp	0	71	2	3	0	target	0	1466	-1000	58511	13.328	13.105	13.544
DTProbeTrack02	20	ProbeTrack	12.1	SCS215a	20101013.091730	20101013.092508	8	0.013328	60	10	60-180	60	104	GapExp	0	72	2	9	0	distractor	1	1000	500	59011	13.328	12.846	13.808
DTProbeTrack02	20	ProbeTrack	12.1	SCS215a	20101013.091730	20101013.092513	8	0.013328	60	10	60-180	60	69	GapExp	0	73	2	9	0	distractor	1	1506	247	59258	13.328	13.084	13.557
DTProbeTrack02	20	ProbeTrack	12.1	SCS215a	20101013.091730	20101013.092519	8	0.013328	60	10	60-180	60	163	GapExp	0	74	2	1	1	target	1	334	833	60091	13.328	13.278	13.383
DTProbeTrack02	20	ProbeTrack	12.1	SCS215a	20101013.091730	20101013.092525	8	0.013328	60	10	60-180	60	90	GapExp	0	75	2	6	0	distractor	1	947	527	60618	13.328	12.951	13.708
DTProbeTrack02	20	ProbeTrack	12.1	SCS215a	20101013.091730	20101013.092531	8	0.013328	60	10	60-180	60	172	GapExp	0	76	2	6	1	target	1	973	514	61132	13.328	12.915	13.739
DTProbeTrack02	20	ProbeTrack	12.1	SCS215a	20101013.091730	20101013.092538	8	0.013328	60	10	60-180	60	77	GapExp	0	77	2	9	0	distractor	1	547	727	61859	13.328	12.901	13.748
DTProbeTrack02	20	ProbeTrack	12.1	SCS215a	20101013.091730	20101013.092543	8	0.013328	60	10	60-180	60	175	GapExp	0	78	2	45	1	target	1	414	793	62652	13.328	12.913	13.744
DTProbeTrack02	20	ProbeTrack	12.1	SCS215a	20101013.091730	20101013.092550	8	0.013328	60	10	60-180	60	96	GapExp	0	79	2	45	0	distractor	1	1093	454	63106	13.328	12.974	13.668
DTProbeTrack02	20	ProbeTrack	12.1	SCS215a	20101013.091730	20101013.092556	8	0.013328	60	10	60-180	60	93	GapExp	0	80	2	9	1	target	1	387	807	63913	13.328	12.867	13.804
DTProbeTrack02	20	ProbeTrack	12.1	SCS215a	20101013.091730	20101013.092601	8	0.013328	60	10	60-180	60	101	GapExp	0	81	2	6	1	target	1	827	587	64500	13.328	12.988	13.637
DTProbeTrack02	20	ProbeTrack	12.1	SCS215a	20101013.091730	20101013.092607	8	0.013328	60	10	60-180	60	169	GapExp	0	82	2	6	0	target	0	2866	-1000	63500	13.328	12.834	13.807
DTProbeTrack02	20	ProbeTrack	12.1	SCS215a	20101013.091730	20101013.092616	8	0.013328	60	10	60-180	60	113	GapExp	0	83	2	9	0	target	0	1706	-1000	62500	13.328	13.299	13.347
DTProbeTrack02	20	ProbeTrack	12.1	SCS215a	20101013.091730	20101013.092622	8	0.013328	60	10	60-180	60	82	GapExp	0	84	2	45	0	target	0	640	-1000	61500	13.328	12.934	13.703
DTProbeTrack02	20	ProbeTrack	12.1	SCS215a	20101013.091730	20101013.092628	8	0.013328	60	10	60-180	60	106	GapExp	0	85	2	3	0	distractor	1	387	807	62307	13.328	12.901	13.741
DTProbeTrack02	20	ProbeTrack	12.1	SCS215a	20101013.091730	20101013.092633	8	0.013328	60	10	60-180	60	68	GapExp	0	86	2	6	0	distractor	1	653	674	62981	13.328	13.107	13.557
DTProbeTrack02	20	ProbeTrack	12.1	SCS215a	20101013.091730	20101013.092638	8	0.013328	60	10	60-180	60	178	GapExp	0	87	2	1	0	distractor	1	693	654	63635	13.328	12.997	13.656
DTProbeTrack02	20	ProbeTrack	12.1	SCS215a	20101013.091730	20101013.092645	8	0.013328	60	10	60-180	60	68	GapExp	0	88	2	1	0	distractor	1	574	713	64348	13.328	13.090	13.565
DTProbeTrack02	20	ProbeTrack	12.1	SCS215a	20101013.091730	20101013.092650	8	0.013328	60	10	60-180	60	97	GapExp	0	89	2	45	1	distractor	0	560	-1000	63348	13.328	12.880	13.775
DTProbeTrack02	20	ProbeTrack	12.1	SCS215a	20101013.091730	20101013.092656	8	0.013328	60	10	60-180	60	147	GapExp	0	90	2	9	1	target	1	560	720	64068	13.328	13.309	13.351
DTProbeTrack02	20	ProbeTrack	12.1	SCS215a	20101013.091730	20101013.092702	8	0.013328	60	10	60-180	60	145	GapExp	0	91	2	6	1	target	1	507	747	64815	13.666	13.299	106.629
DTProbeTrack02	20	ProbeTrack	12.1	SCS215a	20101013.091730	20101013.092708	8	0.013328	60	10	60-180	60	150	GapExp	0	92	2	9	1	target	1	1400	300	65115	13.328	12.885	13.783
DTProbeTrack02	20	ProbeTrack	12.1	SCS215a	20101013.091730	20101013.092715	8	0.013328	60	10	60-180	60	145	GapExp	0	93	2	45	0	target	0	1133	-1000	64115	13.328	12.928	13.729
DTProbeTrack02	20	ProbeTrack	12.1	SCS215a	20101013.091730	20101013.092722	8	0.013328	60	10	60-180	60	122	GapExp	0	94	2	6	0	distractor	1	813	594	64709	13.328	12.928	13.744
DTProbeTrack02	20	ProbeTrack	12.1	SCS215a	20101013.091730	20101013.092728	8	0.013328	60	10	60-180	60	177	GapExp	0	95	2	1	0	distractor	1	613	694	65403	13.328	13.091	13.561
DTProbeTrack02	20	ProbeTrack	12.1	SCS215a	20101013.091730	20101013.092734	8	0.013328	60	10	60-180	60	129	GapExp	0	96	2	9	0	distractor	1	600	700	66103	13.328	12.858	13.790
DTProbeTrack02	20	ProbeTrack	12.1	SCS215a	20101013.091730	20101013.092740	8	0.013328	60	10	60-180	60	65	GapExp	0	97	2	45	0	distractor	1	587	707	66810	13.328	12.884	13.772
DTProbeTrack02	20	ProbeTrack	12.1	SCS215a	20101013.091730	20101013.092746	8	0.013328	60	10	60-180	60	169	GapExp	0	98	2	9	1	target	1	520	740	67550	13.328	12.886	13.579
DTProbeTrack02	20	ProbeTrack	12.1	SCS215a	20101013.091730	20101013.092752	8	0.013328	60	10	60-180	60	93	GapExp	0	99	2	3	0	distractor	1	440	780	68330	13.328	13.009	13.641
DTProbeTrack02	20	ProbeTrack	12.1	SCS215a	20101013.091730	20101013.092757	8	0.013328	60	10	60-180	60	68	GapExp	0	100	2	1	1	target	1	494	753	69083	13.328	13.107	13.564
DTProbeTrack02	20	ProbeTrack	12.1	SCS215a	20101013.091730	20101013.092821	8	0.013328	60	10	60-180	60	86	GapExp	0	101	2	9	0	target	0	1426	-1000	68083	13.328	12.905	13.768
DTProbeTrack02	20	ProbeTrack	12.1	SCS215a	20101013.091730	20101013.092827	8	0.013328	60	10	60-180	60	119	GapExp	0	102	2	45	0	target	0	1040	-1000	67083	13.328	13.224	13.428
DTProbeTrack02	20	ProbeTrack	12.1	SCS215a	20101013.091730	20101013.092834	8	0.013328	60	10	60-180	60	91	GapExp	0	103	2	3	1	target	1	1760	120	67203	13.328	13.306	13.351
DTProbeTrack02	20	ProbeTrack	12.1	SCS215a	20101013.091730	20101013.092840	8	0.013328	60	10	60-180	60	85	GapExp	0	104	2	1	0	distractor	1	1187	407	67610	13.328	12.872	13.791
DTProbeTrack02	20	ProbeTrack	12.1	SCS215a	20101013.091730	20101013.092846	8	0.013328	60	10	60-180	60	173	GapExp	0	105	2	1	0	distractor	1	747	627	68237	13.328	12.910	13.749
DTProbeTrack02	20	ProbeTrack	12.1	SCS215a	20101013.091730	20101013.092853	8	0.013328	60	10	60-180	60	129	GapExp	0	106	2	9	0	distractor	1	1120	440	68677	13.328	12.902	13.756
DTProbeTrack02	20	ProbeTrack	12.1	SCS215a	20101013.091730	20101013.092859	8	0.013328	60	10	60-180	60	91	GapExp	0	107	2	6	1	target	1	1187	407	69084	13.328	13.104	13.554
DTProbeTrack02	20	ProbeTrack	12.1	SCS215a	20101013.091730	20101013.092905	8	0.013328	60	10	60-180	60	128	GapExp	0	108	2	9	1	target	1	560	720	69804	13.328	13.095	13.551
DTProbeTrack02	20	ProbeTrack	12.1	SCS215a	20101013.091730	20101013.092911	8	0.013328	60	10	60-180	60	105	GapExp	0	109	2	45	1	distractor	0	667	-1000	68804	13.328	12.914	13.742
DTProbeTrack02	20	ProbeTrack	12.1	SCS215a	20101013.091730	20101013.092917	8	0.013328	60	10	60-180	60	147	GapExp	0	110	2	3	0	distractor	1	693	654	69458	13.328	12.951	13.707
DTProbeTrack02	20	ProbeTrack	12.1	SCS215a	20101013.091730	20101013.092923	8	0.013328	60	10	60-180	60	80	GapExp	0	111	2	3	1	target	1	973	514	69972	13.328	13.287	13.371
DTProbeTrack02	20	ProbeTrack	12.1	SCS215a	20101013.091730	20101013.092928	8	0.013328	60	10	60-180	60	111	GapExp	0	112	2	45	1	target	1	560	720	70692	13.328	12.906	13.754
DTProbeTrack02	20	ProbeTrack	12.1	SCS215a	20101013.091730	20101013.092934	8	0.013328	60	10	60-180	60	120	GapExp	0	113	2	1	1	distractor	0	1333	-1000	69692	13.428	12.905	27.047
DTProbeTrack02	20	ProbeTrack	12.1	SCS215a	20101013.091730	20101013.092941	8	0.013328	60	10	60-180	60	98	GapExp	0	114	2	6	0	distractor	1	1099	451	70143	13.328	13.090	13.566
DTProbeTrack02	20	ProbeTrack	12.1	SCS215a	20101013.091730	20101013.092947	8	0.013328	60	10	60-180	60	145	GapExp	0	115	2	1	0	distractor	1	614	693	70836	13.328	13.092	13.563
DTProbeTrack02	20	ProbeTrack	12.1	SCS215a	20101013.091730	20101013.092953	8	0.013328	60	10	60-180	60	167	GapExp	0	116	2	6	1	target	1	507	747	71583	13.328	13.304	13.344
DTProbeTrack02	20	ProbeTrack	12.1	SCS215a	20101013.091730	20101013.092959	8	0.013328	60	10	60-180	60	169	GapExp	0	117	2	45	1	distractor	0	1306	-1000	70583	13.328	12.987	13.551
DTProbeTrack02	20	ProbeTrack	12.1	SCS215a	20101013.091730	20101013.093006	8	0.013328	60	10	60-180	60	130	GapExp	0	118	2	1	0	distractor	1	813	594	71177	13.328	12.852	13.798
DTProbeTrack02	20	ProbeTrack	12.1	SCS215a	20101013.091730	20101013.093012	8	0.013328	60	10	60-180	60	118	GapExp	0	119	2	6	1	target	1	867	567	71744	13.328	13.016	13.645
DTProbeTrack02	20	ProbeTrack	12.1	SCS215a	20101013.091730	20101013.093018	8	0.013328	60	10	60-180	60	151	GapExp	0	120	2	9	1	target	1	933	534	72278	13.328	13.048	13.610
DTProbeTrack02	20	ProbeTrack	12.1	SCS215a	20101013.091730	20101013.093025	8	0.013328	60	10	60-180	60	123	GapExp	0	121	2	45	1	target	1	1720	140	72418	13.328	13.310	13.346
DTProbeTrack02	20	ProbeTrack	12.1	SCS215a	20101013.091730	20101013.093032	8	0.013328	60	10	60-180	60	169	GapExp	0	122	2	1	0	distractor	1	587	707	73125	13.328	12.916	13.739
DTProbeTrack02	20	ProbeTrack	12.1	SCS215a	20101013.091730	20101013.093039	8	0.013328	60	10	60-180	60	158	GapExp	0	123	2	6	1	target	1	760	620	73745	13.328	13.134	13.515
DTProbeTrack02	20	ProbeTrack	12.1	SCS215a	20101013.091730	20101013.093045	8	0.013328	60	10	60-180	60	86	GapExp	0	124	2	45	1	target	1	1306	347	74092	13.328	12.924	13.784
DTProbeTrack02	20	ProbeTrack	12.1	SCS215a	20101013.091730	20101013.093051	8	0.013328	60	10	60-180	60	175	GapExp	0	125	2	3	0	distractor	1	427	787	74879	13.328	12.907	13.743
DTProbeTrack02	20	ProbeTrack	12.1	SCS215a	20101013.091730	20101013.093058	8	0.013328	60	10	60-180	60	102	GapExp	0	126	2	6	0	distractor	1	440	780	75659	13.328	13.104	13.556
DTProbeTrack02	20	ProbeTrack	12.1	SCS215a	20101013.091730	20101013.093103	8	0.013328	60	10	60-180	60	88	GapExp	0	127	2	1	0	target	0	733	-1000	74659	13.328	12.933	13.728
DTProbeTrack02	20	ProbeTrack	12.1	SCS215a	20101013.091730	20101013.093108	8	0.013328	60	10	60-180	60	147	GapExp	0	128	2	9	0	distractor	1	760	620	75279	13.328	13.305	13.347
DTProbeTrack02	20	ProbeTrack	12.1	SCS215a	20101013.091730	20101013.093114	8	0.013328	60	10	60-180	60	80	GapExp	0	129	2	3	0	distractor	1	414	793	76072	13.328	13.311	13.347
DTProbeTrack02	20	ProbeTrack	12.1	SCS215a	20101013.091730	20101013.093119	8	0.013328	60	10	60-180	60	176	GapExp	0	130	2	1	1	target	1	467	767	76839	13.328	12.910	13.742
DTProbeTrack02	20	ProbeTrack	12.1	SCS215a	20101013.091730	20101013.093126	8	0.013328	60	10	60-180	60	69	GapExp	0	131	2	6	1	target	1	400	800	77639	13.328	13.112	13.538
DTProbeTrack02	20	ProbeTrack	12.1	SCS215a	20101013.091730	20101013.093130	8	0.013328	60	10	60-180	60	74	GapExp	0	132	2	6	1	target	1	547	727	78366	13.328	12.915	13.740
DTProbeTrack02	20	ProbeTrack	12.1	SCS215a	20101013.091730	20101013.093135	8	0.013328	60	10	60-180	60	137	GapExp	0	133	2	9	1	distractor	0	454	-1000	77366	13.328	13.307	13.347
DTProbeTrack02	20	ProbeTrack	12.1	SCS215a	20101013.091730	20101013.093141	8	0.013328	60	10	60-180	60	108	GapExp	0	134	2	3	0	distractor	1	1413	294	77660	13.328	12.886	13.770
DTProbeTrack02	20	ProbeTrack	12.1	SCS215a	20101013.091730	20101013.093148	8	0.013328	60	10	60-180	60	91	GapExp	0	135	2	1	1	target	1	5092	0	77660	13.328	12.920	13.723
DTProbeTrack02	20	ProbeTrack	12.1	SCS215a	20101013.091730	20101013.093157	8	0.013328	60	10	60-180	60	99	GapExp	0	136	2	45	0	distractor	1	520	740	78400	13.328	13.101	13.550
DTProbeTrack02	20	ProbeTrack	12.1	SCS215a	20101013.091730	20101013.093203	8	0.013328	60	10	60-180	60	149	GapExp	0	137	2	1	1	target	1	720	640	79040	13.328	13.007	13.655
DTProbeTrack02	20	ProbeTrack	12.1	SCS215a	20101013.091730	20101013.093209	8	0.013328	60	10	60-180	60	113	GapExp	0	138	2	1	1	target	1	1880	60	79100	13.328	12.841	13.809
DTProbeTrack02	20	ProbeTrack	12.1	SCS215a	20101013.091730	20101013.093216	8	0.013328	60	10	60-180	60	61	GapExp	0	139	2	6	0	distractor	1	640	680	79780	13.328	13.098	13.544
DTProbeTrack02	20	ProbeTrack	12.1	SCS215a	20101013.091730	20101013.093221	8	0.013328	60	10	60-180	60	120	GapExp	0	140	2	3	1	target	1	560	720	80500	13.328	13.009	13.652
DTProbeTrack02	20	ProbeTrack	12.1	SCS215a	20101013.091730	20101013.093227	8	0.013328	60	10	60-180	60	125	GapExp	0	141	2	1	0	distractor	1	520	740	81240	13.328	12.847	13.802
DTProbeTrack02	20	ProbeTrack	12.1	SCS215a	20101013.091730	20101013.093232	8	0.013328	60	10	60-180	60	132	GapExp	0	142	2	3	0	target	0	494	-1000	80240	13.328	13.196	13.471
DTProbeTrack02	20	ProbeTrack	12.1	SCS215a	20101013.091730	20101013.093238	8	0.013328	60	10	60-180	60	114	GapExp	0	143	2	3	0	distractor	1	454	773	81013	13.328	12.999	13.652
DTProbeTrack02	20	ProbeTrack	12.1	SCS215a	20101013.091730	20101013.093243	8	0.013328	60	10	60-180	60	81	GapExp	0	144	2	3	0	target	0	2306	-1000	80013	13.328	12.892	13.755
DTProbeTrack02	20	ProbeTrack	12.1	SCS215a	20101013.091730	20101013.093250	8	0.013328	60	10	60-180	60	124	GapExp	0	145	2	45	0	distractor	1	1586	207	80220	13.328	13.107	13.557
DTProbeTrack02	20	ProbeTrack	12.1	SCS215a	20101013.091730	20101013.093258	8	0.013328	60	10	60-180	60	64	GapExp	0	146	2	3	1	target	1	1400	300	80520	13.328	12.903	13.749
DTProbeTrack02	20	ProbeTrack	12.1	SCS215a	20101013.091730	20101013.093303	8	0.013328	60	10	60-180	60	125	GapExp	0	147	2	6	1	target	1	640	680	81200	13.328	13.110	13.547
DTProbeTrack02	20	ProbeTrack	12.1	SCS215a	20101013.091730	20101013.093309	8	0.013328	60	10	60-180	60	128	GapExp	0	148	2	45	0	distractor	1	574	713	81913	13.328	13.100	13.562
DTProbeTrack02	20	ProbeTrack	12.1	SCS215a	20101013.091730	20101013.093316	8	0.013328	60	10	60-180	60	158	GapExp	0	149	2	1	0	target	0	494	-1000	80913	13.328	13.111	13.538
DTProbeTrack02	20	ProbeTrack	12.1	SCS215a	20101013.091730	20101013.093322	8	0.013328	60	10	60-180	60	76	GapExp	0	150	2	3	1	distractor	0	2373	-1000	79913	13.328	13.307	13.348
DTProbeTrack02	20	ProbeTrack	12.1	SCS215a	20101013.091730	20101013.093353	8	0.013328	60	10	60-180	60	134	GapExp	0	151	2	9	1	target	1	1400	300	80213	13.328	12.871	13.784
DTProbeTrack02	20	ProbeTrack	12.1	SCS215a	20101013.091730	20101013.093400	8	0.013328	60	10	60-180	60	108	GapExp	0	152	2	1	0	distractor	1	813	594	80807	13.328	12.964	13.701
DTProbeTrack02	20	ProbeTrack	12.1	SCS215a	20101013.091730	20101013.093406	8	0.013328	60	10	60-180	60	92	GapExp	0	153	2	3	1	distractor	0	560	-1000	79807	13.328	13.018	13.633
DTProbeTrack02	20	ProbeTrack	12.1	SCS215a	20101013.091730	20101013.093411	8	0.013328	60	10	60-180	60	169	GapExp	0	154	2	9	0	distractor	1	414	793	80600	13.328	13.079	13.587
DTProbeTrack02	20	ProbeTrack	12.1	SCS215a	20101013.091730	20101013.093417	8	0.013328	60	10	60-180	60	76	GapExp	0	155	2	3	1	target	1	480	760	81360	13.328	12.927	13.717
DTProbeTrack02	20	ProbeTrack	12.1	SCS215a	20101013.091730	20101013.093422	8	0.013328	60	10	60-180	60	99	GapExp	0	156	2	9	1	target	1	400	800	82160	13.328	13.069	13.577
DTProbeTrack02	20	ProbeTrack	12.1	SCS215a	20101013.091730	20101013.093427	8	0.013328	60	10	60-180	60	89	GapExp	0	157	2	45	1	target	1	536	732	82892	13.329	13.110	13.550
DTProbeTrack02	20	ProbeTrack	12.1	SCS215a	20101013.091730	20101013.093433	8	0.013328	60	10	60-180	60	170	GapExp	0	158	2	6	1	target	1	414	793	83685	13.328	12.896	13.754
DTProbeTrack02	20	ProbeTrack	12.1	SCS215a	20101013.091730	20101013.093439	8	0.013328	60	10	60-180	60	83	GapExp	0	159	2	6	1	target	1	494	753	84438	13.328	13.306	13.351
DTProbeTrack02	20	ProbeTrack	12.1	SCS215a	20101013.091730	20101013.093444	8	0.013328	60	10	60-180	60	115	GapExp	0	160	2	3	1	target	1	494	753	85191	13.328	12.975	13.685
DTProbeTrack02	20	ProbeTrack	12.1	SCS215a	20101013.091730	20101013.093450	8	0.013328	60	10	60-180	60	147	GapExp	0	161	2	6	1	target	1	427	787	85978	13.328	12.907	13.755
DTProbeTrack02	20	ProbeTrack	12.1	SCS215a	20101013.091730	20101013.093456	8	0.013328	60	10	60-180	60	134	GapExp	0	162	2	3	1	target	1	1213	394	86372	13.328	13.308	13.347
DTProbeTrack02	20	ProbeTrack	12.1	SCS215a	20101013.091730	20101013.093502	8	0.013328	60	10	60-180	60	109	GapExp	0	163	2	1	1	distractor	0	560	-1000	85372	13.328	12.896	13.757
DTProbeTrack02	20	ProbeTrack	12.1	SCS215a	20101013.091730	20101013.093507	8	0.013328	60	10	60-180	60	149	GapExp	0	164	2	6	0	distractor	1	574	713	86085	13.328	13.109	13.548
DTProbeTrack02	20	ProbeTrack	12.1	SCS215a	20101013.091730	20101013.093514	8	0.013328	60	10	60-180	60	93	GapExp	0	165	2	45	1	target	1	427	787	86872	13.328	13.308	13.347
DTProbeTrack02	20	ProbeTrack	12.1	SCS215a	20101013.091730	20101013.093519	8	0.013328	60	10	60-180	60	147	GapExp	0	166	2	45	1	target	1	534	733	87605	13.328	13.307	13.349
DTProbeTrack02	20	ProbeTrack	12.1	SCS215a	20101013.091730	20101013.093526	8	0.013328	60	10	60-180	60	179	GapExp	0	167	2	45	0	distractor	1	760	620	88225	13.328	12.867	13.804
DTProbeTrack02	20	ProbeTrack	12.1	SCS215a	20101013.091730	20101013.093533	8	0.013328	60	10	60-180	60	94	GapExp	0	168	2	1	0	target	0	2173	-1000	87225	13.328	12.834	13.824
DTProbeTrack02	20	ProbeTrack	12.1	SCS215a	20101013.091730	20101013.093540	8	0.013328	60	10	60-180	60	143	GapExp	0	169	2	1	1	distractor	0	1533	-1000	86225	13.328	13.297	13.359
DTProbeTrack02	20	ProbeTrack	12.1	SCS215a	20101013.091730	20101013.093547	8	0.013328	60	10	60-180	60	115	GapExp	0	170	2	3	1	target	1	387	807	87032	13.328	12.867	13.783
DTProbeTrack02	20	ProbeTrack	12.1	SCS215a	20101013.091730	20101013.093552	8	0.013328	60	10	60-180	60	173	GapExp	0	171	2	6	0	target	0	360	-1000	86032	13.328	13.105	13.551
DTProbeTrack02	20	ProbeTrack	12.1	SCS215a	20101013.091730	20101013.093558	8	0.013328	60	10	60-180	60	101	GapExp	0	172	2	45	0	distractor	1	400	800	86832	13.328	12.994	13.654
DTProbeTrack02	20	ProbeTrack	12.1	SCS215a	20101013.091730	20101013.093604	8	0.013328	60	10	60-180	60	147	GapExp	0	173	2	1	0	distractor	1	440	780	87612	13.328	13.092	13.551
DTProbeTrack02	20	ProbeTrack	12.1	SCS215a	20101013.091730	20101013.093610	8	0.013328	60	10	60-180	60	71	GapExp	0	174	2	6	1	target	1	427	787	88399	13.328	13.308	13.356
DTProbeTrack02	20	ProbeTrack	12.1	SCS215a	20101013.091730	20101013.093615	8	0.013328	60	10	60-180	60	156	GapExp	0	175	2	1	1	target	1	440	780	89179	13.328	13.308	13.346
DTProbeTrack02	20	ProbeTrack	12.1	SCS215a	20101013.091730	20101013.093621	8	0.013328	60	10	60-180	60	176	GapExp	0	176	2	45	0	target	0	387	-1000	88179	13.328	12.868	13.794
DTProbeTrack02	20	ProbeTrack	12.1	SCS215a	20101013.091730	20101013.093627	8	0.013328	60	10	60-180	60	147	GapExp	0	177	2	1	1	target	1	427	787	88966	13.328	12.896	13.746
DTProbeTrack02	20	ProbeTrack	12.1	SCS215a	20101013.091730	20101013.093633	8	0.013328	60	10	60-180	60	93	GapExp	0	178	2	1	1	target	1	480	760	89726	13.328	12.859	13.809
DTProbeTrack02	20	ProbeTrack	12.1	SCS215a	20101013.091730	20101013.093638	8	0.013328	60	10	60-180	60	108	GapExp	0	179	2	9	1	target	1	467	767	90493	13.328	13.040	13.631
DTProbeTrack02	20	ProbeTrack	12.1	SCS215a	20101013.091730	20101013.093644	8	0.013328	60	10	60-180	60	84	GapExp	0	180	2	9	0	distractor	1	1560	220	90713	13.328	12.969	13.676
DTProbeTrack02	20	ProbeTrack	12.1	SCS215a	20101013.091730	20101013.093650	8	0.013328	60	10	60-180	60	174	GapExp	0	181	2	9	1	target	1	400	800	91513	13.328	12.925	13.731
DTProbeTrack02	20	ProbeTrack	12.1	SCS215a	20101013.091730	20101013.093656	8	0.013328	60	10	60-180	60	117	GapExp	0	182	2	9	1	target	1	414	793	92306	13.328	13.305	13.347
DTProbeTrack02	20	ProbeTrack	12.1	SCS215a	20101013.091730	20101013.093702	8	0.013328	60	10	60-180	60	75	GapExp	0	183	2	3	1	target	1	400	800	93106	13.328	13.085	13.564
DTProbeTrack02	20	ProbeTrack	12.1	SCS215a	20101013.091730	20101013.093707	8	0.013328	60	10	60-180	60	161	GapExp	0	184	2	9	0	distractor	1	400	800	93906	13.328	13.303	13.347
DTProbeTrack02	20	ProbeTrack	12.1	SCS215a	20101013.091730	20101013.093713	8	0.013328	60	10	60-180	60	107	GapExp	0	185	2	1	0	distractor	1	640	680	94586	13.328	13.309	13.349
DTProbeTrack02	20	ProbeTrack	12.1	SCS215a	20101013.091730	20101013.093718	8	0.013328	60	10	60-180	60	71	GapExp	0	186	2	3	0	target	0	1546	-1000	93586	13.328	13.076	13.568
DTProbeTrack02	20	ProbeTrack	12.1	SCS215a	20101013.091730	20101013.093724	8	0.013328	60	10	60-180	60	140	GapExp	0	187	2	6	1	target	1	507	747	94333	13.327	13.067	13.577
DTProbeTrack02	20	ProbeTrack	12.1	SCS215a	20101013.091730	20101013.093730	8	0.013328	60	10	60-180	60	110	GapExp	0	188	2	9	0	distractor	1	653	674	95007	14.007	12.897	119.953
DTProbeTrack02	20	ProbeTrack	12.1	SCS215a	20101013.091730	20101013.093736	8	0.013328	60	10	60-180	60	132	GapExp	0	189	2	1	1	target	1	1586	207	95214	13.328	13.081	13.572
DTProbeTrack02	20	ProbeTrack	12.1	SCS215a	20101013.091730	20101013.093743	8	0.013328	60	10	60-180	60	106	GapExp	0	190	2	9	0	distractor	1	760	620	95834	13.328	13.171	13.351
DTProbeTrack02	20	ProbeTrack	12.1	SCS215a	20101013.091730	20101013.093748	8	0.013328	60	10	60-180	60	89	GapExp	0	191	2	45	1	target	1	1080	460	96294	13.328	13.301	13.354
DTProbeTrack02	20	ProbeTrack	12.1	SCS215a	20101013.091730	20101013.093755	8	0.013328	60	10	60-180	60	63	GapExp	0	192	2	45	1	target	1	467	767	97061	13.328	12.862	13.805
DTProbeTrack02	20	ProbeTrack	12.1	SCS215a	20101013.091730	20101013.093800	8	0.013328	60	10	60-180	60	123	GapExp	0	193	2	3	1	distractor	0	320	-1000	96061	13.328	13.091	13.565
DTProbeTrack02	20	ProbeTrack	12.1	SCS215a	20101013.091730	20101013.093806	8	0.013328	60	10	60-180	60	107	GapExp	0	194	2	9	1	target	1	387	807	96868	13.328	12.851	13.794
DTProbeTrack02	20	ProbeTrack	12.1	SCS215a	20101013.091730	20101013.093811	8	0.013328	60	10	60-180	60	136	GapExp	0	195	2	45	1	target	1	440	780	97648	13.328	12.828	13.814
DTProbeTrack02	20	ProbeTrack	12.1	SCS215a	20101013.091730	20101013.093817	8	0.013328	60	10	60-180	60	138	GapExp	0	196	2	3	1	target	1	1040	480	98128	13.328	12.922	13.734
DTProbeTrack02	20	ProbeTrack	12.1	SCS215a	20101013.091730	20101013.093824	8	0.013328	60	10	60-180	60	105	GapExp	0	197	2	3	1	target	1	454	773	98901	13.328	13.097	13.463
DTProbeTrack02	20	ProbeTrack	12.1	SCS215a	20101013.091730	20101013.093829	8	0.013328	60	10	60-180	60	81	GapExp	0	198	2	3	1	target	1	2773	0	98901	13.328	12.907	13.763
DTProbeTrack02	20	ProbeTrack	12.1	SCS215a	20101013.091730	20101013.093836	8	0.013328	60	10	60-180	60	80	GapExp	0	199	2	9	1	target	1	387	807	99708	13.328	12.998	13.663
DTProbeTrack02	20	ProbeTrack	12.1	SCS215a	20101013.091730	20101013.093841	8	0.013328	60	10	60-180	60	104	GapExp	0	200	2	9	0	distractor	1	480	760	100468	13.328	13.093	13.555
DTProbeTrack02	20	ProbeTrack	12.1	SCS215a	20101013.091730	20101013.093911	8	0.013328	60	10	60-180	60	140	GapExp	0	201	2	6	1	target	1	360	820	101288	13.328	12.873	13.782
DTProbeTrack02	20	ProbeTrack	12.1	SCS215a	20101013.091730	20101013.093917	8	0.013328	60	10	60-180	60	83	GapExp	0	202	2	6	0	distractor	1	507	747	102035	13.328	12.895	13.764
DTProbeTrack02	20	ProbeTrack	12.1	SCS215a	20101013.091730	20101013.093922	8	0.013328	60	10	60-180	60	105	GapExp	0	203	2	1	0	target	0	1013	-1000	101035	13.328	13.308	13.346
DTProbeTrack02	20	ProbeTrack	12.1	SCS215a	20101013.091730	20101013.093927	8	0.013328	60	10	60-180	60	77	GapExp	0	204	2	45	0	distractor	1	614	693	101728	13.328	12.865	13.782
DTProbeTrack02	20	ProbeTrack	12.1	SCS215a	20101013.091730	20101013.093933	8	0.013328	60	10	60-180	60	94	GapExp	0	205	2	45	1	target	1	400	800	102528	13.328	13.300	13.351
