exp	sub	code	rev	comp	runtime	trialtime	nstim	refreshdur	cuedur	gapdur	gapOnsetRange	durPostProbe	gapOnsetTime	blocktype	prac	trial	ntargets	soa	probeTarget	resp	acc	rt	pts	tpts	meanFrameDur	minFrameDur	maxFrameDur
DTProbeTrack02	21	ProbeTrack	12.1	SCS215a	20101013.094424	20101013.094437	8	0.013327	60	0	60-180	60	125	NoGap	1	1	2	9	0	distractor	1	680	660	660	13.328	13.095	13.553
DTProbeTrack02	21	ProbeTrack	12.1	SCS215a	20101013.094424	20101013.094443	8	0.013327	60	0	60-180	60	130	NoGap	1	2	2	45	1	distractor	0	400	-1000	-340	13.328	13.095	13.553
DTProbeTrack02	21	ProbeTrack	12.1	SCS215a	20101013.094424	20101013.094449	8	0.013327	60	0	60-180	60	97	NoGap	1	3	2	1	0	distractor	1	600	700	360	13.328	13.308	13.349
DTProbeTrack02	21	ProbeTrack	12.1	SCS215a	20101013.094424	20101013.094454	8	0.013327	60	0	60-180	60	75	NoGap	1	4	2	6	1	target	1	440	780	1140	13.467	12.939	26.900
DTProbeTrack02	21	ProbeTrack	12.1	SCS215a	20101013.094424	20101013.094459	8	0.013327	60	0	60-180	60	107	NoGap	1	5	2	45	1	target	1	414	793	1933	13.328	12.976	13.680
DTProbeTrack02	21	ProbeTrack	12.1	SCS215a	20101013.094424	20101013.094505	8	0.013327	60	0	60-180	60	101	NoGap	1	6	2	6	1	target	1	400	800	2733	13.328	12.897	13.751
DTProbeTrack02	21	ProbeTrack	12.1	SCS215a	20101013.094424	20101013.094510	8	0.013327	60	0	60-180	60	116	NoGap	1	7	2	1	0	distractor	1	480	760	3493	13.328	12.941	13.707
DTProbeTrack02	21	ProbeTrack	12.1	SCS215a	20101013.094424	20101013.094515	8	0.013327	60	0	60-180	60	145	NoGap	1	8	2	6	1	target	1	414	793	4286	13.328	13.285	13.385
DTProbeTrack02	21	ProbeTrack	12.1	SCS215a	20101013.094424	20101013.094520	8	0.013327	60	0	60-180	60	165	NoGap	1	9	2	6	0	distractor	1	440	780	5066	13.328	13.073	13.586
DTProbeTrack02	21	ProbeTrack	12.1	SCS215a	20101013.094424	20101013.094526	8	0.013327	60	0	60-180	60	166	NoGap	1	10	2	9	1	target	1	560	720	5786	13.328	12.854	13.810
DTProbeTrack02	21	ProbeTrack	12.1	SCS215a	20101013.094424	20101013.094533	8	0.013327	60	0	60-180	60	138	NoGap	1	11	2	3	0	distractor	1	454	773	6559	13.328	12.891	13.773
DTProbeTrack02	21	ProbeTrack	12.1	SCS215a	20101013.094424	20101013.094538	8	0.013327	60	0	60-180	60	161	NoGap	1	12	2	3	1	target	1	347	827	7386	13.328	13.153	13.497
DTProbeTrack02	21	ProbeTrack	12.1	SCS215a	20101013.094424	20101013.094544	8	0.013327	60	0	60-180	60	174	NoGap	1	13	2	9	1	target	1	440	780	8166	13.328	13.260	13.387
DTProbeTrack02	21	ProbeTrack	12.1	SCS215a	20101013.094424	20101013.094550	8	0.013327	60	0	60-180	60	113	NoGap	1	14	2	6	0	distractor	1	480	760	8926	13.328	12.848	13.808
DTProbeTrack02	21	ProbeTrack	12.1	SCS215a	20101013.094424	20101013.094555	8	0.013327	60	0	60-180	60	162	NoGap	1	15	2	1	1	target	1	334	833	9759	13.328	13.098	13.554
DTProbeTrack02	21	ProbeTrack	12.1	SCS215a	20101013.094424	20101013.094601	8	0.013327	60	0	60-180	60	78	NoGap	1	16	2	3	1	target	1	454	773	10532	13.328	13.310	13.349
DTProbeTrack02	21	ProbeTrack	12.1	SCS215a	20101013.094424	20101013.094606	8	0.013327	60	0	60-180	60	121	NoGap	1	17	2	1	0	distractor	1	467	767	11299	13.328	13.297	13.352
DTProbeTrack02	21	ProbeTrack	12.1	SCS215a	20101013.094424	20101013.094611	8	0.013327	60	0	60-180	60	64	NoGap	1	18	2	1	1	target	1	427	787	12086	13.328	13.294	13.376
DTProbeTrack02	21	ProbeTrack	12.1	SCS215a	20101013.094424	20101013.094615	8	0.013327	60	0	60-180	60	68	NoGap	1	19	2	9	0	distractor	1	440	780	12866	13.328	12.904	13.752
DTProbeTrack02	21	ProbeTrack	12.1	SCS215a	20101013.094424	20101013.094620	8	0.013327	60	0	60-180	60	84	NoGap	1	20	2	3	0	distractor	1	454	773	13639	13.328	12.876	13.778
DTProbeTrack02	21	ProbeTrack	12.1	SCS215a	20101013.094424	20101013.094625	8	0.013327	60	0	60-180	60	160	NoGap	1	21	2	45	1	target	1	427	787	14426	13.328	13.295	13.349
DTProbeTrack02	21	ProbeTrack	12.1	SCS215a	20101013.094424	20101013.094631	8	0.013327	60	0	60-180	60	138	NoGap	1	22	2	6	1	target	1	387	807	15233	13.328	13.305	13.347
DTProbeTrack02	21	ProbeTrack	12.1	SCS215a	20101013.094424	20101013.094637	8	0.013327	60	0	60-180	60	148	NoGap	1	23	2	1	0	target	0	440	-1000	14233	13.328	12.949	13.707
DTProbeTrack02	21	ProbeTrack	12.1	SCS215a	20101013.094424	20101013.094643	8	0.013327	60	0	60-180	60	63	NoGap	1	24	2	3	1	distractor	0	494	-1000	13233	13.328	12.893	13.772
DTProbeTrack02	21	ProbeTrack	12.1	SCS215a	20101013.094424	20101013.094647	8	0.013327	60	0	60-180	60	156	NoGap	1	25	2	1	1	target	1	400	800	14033	13.328	13.300	13.362
DTProbeTrack02	21	ProbeTrack	12.1	SCS215a	20101013.094424	20101013.094653	8	0.013327	60	0	60-180	60	117	NoGap	1	26	2	9	0	distractor	1	427	787	14820	13.328	12.984	13.657
DTProbeTrack02	21	ProbeTrack	12.1	SCS215a	20101013.094424	20101013.094658	8	0.013327	60	0	60-180	60	148	NoGap	1	27	2	6	0	distractor	1	587	707	15527	13.328	12.864	13.807
DTProbeTrack02	21	ProbeTrack	12.1	SCS215a	20101013.094424	20101013.094704	8	0.013327	60	0	60-180	60	69	NoGap	1	28	2	3	1	target	1	547	727	16254	13.328	13.295	13.368
DTProbeTrack02	21	ProbeTrack	12.1	SCS215a	20101013.094424	20101013.094709	8	0.013327	60	0	60-180	60	99	NoGap	1	29	2	6	0	distractor	1	507	747	17001	13.328	12.907	13.742
DTProbeTrack02	21	ProbeTrack	12.1	SCS215a	20101013.094424	20101013.094714	8	0.013327	60	0	60-180	60	69	NoGap	1	30	2	45	0	distractor	1	614	693	17694	13.328	13.289	13.373
DTProbeTrack02	21	ProbeTrack	12.1	SCS215a	20101013.094424	20101013.094719	8	0.013327	60	0	60-180	60	160	NoGap	1	31	2	9	1	target	1	427	787	18481	13.328	12.869	13.793
DTProbeTrack02	21	ProbeTrack	12.1	SCS215a	20101013.094424	20101013.094725	8	0.013327	60	0	60-180	60	84	NoGap	1	32	2	45	0	distractor	1	440	780	19261	13.328	13.091	13.571
DTProbeTrack02	21	ProbeTrack	12.1	SCS215a	20101013.094424	20101013.094730	8	0.013327	60	0	60-180	60	71	NoGap	1	33	2	9	1	target	1	454	773	20034	13.328	12.904	13.763
DTProbeTrack02	21	ProbeTrack	12.1	SCS215a	20101013.094424	20101013.094735	8	0.013327	60	0	60-180	60	175	NoGap	1	34	2	45	1	target	1	467	767	20801	13.328	13.297	13.358
DTProbeTrack02	21	ProbeTrack	12.1	SCS215a	20101013.094424	20101013.094742	8	0.013327	60	0	60-180	60	120	NoGap	1	35	2	3	0	distractor	1	467	767	21568	13.328	12.950	13.706
DTProbeTrack02	21	ProbeTrack	12.1	SCS215a	20101013.094424	20101013.094747	8	0.013327	60	0	60-180	60	152	NoGap	1	36	2	9	0	distractor	1	480	760	22328	13.328	12.875	13.770
DTProbeTrack02	21	ProbeTrack	12.1	SCS215a	20101013.094424	20101013.094753	8	0.013327	60	0	60-180	60	65	NoGap	1	37	2	45	0	distractor	1	534	733	23061	13.328	13.103	13.557
DTProbeTrack02	21	ProbeTrack	12.1	SCS215a	20101013.094424	20101013.094758	8	0.013327	60	0	60-180	60	132	NoGap	1	38	2	1	1	target	1	454	773	23834	13.328	12.847	13.816
DTProbeTrack02	21	ProbeTrack	12.1	SCS215a	20101013.094424	20101013.094804	8	0.013327	60	0	60-180	60	74	NoGap	1	39	2	45	0	distractor	1	400	800	24634	14.271	12.952	133.255
DTProbeTrack02	21	ProbeTrack	12.1	SCS215a	20101013.094424	20101013.094809	8	0.013327	60	0	60-180	60	78	NoGap	1	40	2	3	0	distractor	1	494	753	25387	13.328	12.944	13.718
DTProbeTrack02	21	ProbeTrack	12.1	SCS215a	20101013.094848	20101013.094856	8	0.013328	60	10	60-180	60	155	GapPrac	1	1	2	9	1	target	1	613	694	26081	13.328	13.115	13.540
DTProbeTrack02	21	ProbeTrack	12.1	SCS215a	20101013.094848	20101013.094902	8	0.013328	60	10	60-180	60	114	GapPrac	1	2	2	3	0	distractor	1	467	767	26848	13.328	13.016	13.636
DTProbeTrack02	21	ProbeTrack	12.1	SCS215a	20101013.094848	20101013.094907	8	0.013328	60	10	60-180	60	171	GapPrac	1	3	2	1	0	distractor	1	547	727	27575	13.328	12.857	13.801
DTProbeTrack02	21	ProbeTrack	12.1	SCS215a	20101013.094848	20101013.094913	8	0.013328	60	10	60-180	60	105	GapPrac	1	4	2	9	0	target	0	347	-1000	26575	13.328	12.924	13.708
DTProbeTrack02	21	ProbeTrack	12.1	SCS215a	20101013.094848	20101013.094919	8	0.013328	60	10	60-180	60	81	GapPrac	1	5	2	3	1	target	1	520	740	27315	13.328	12.841	13.809
DTProbeTrack02	21	ProbeTrack	12.1	SCS215a	20101013.094848	20101013.094923	8	0.013328	60	10	60-180	60	80	GapPrac	1	6	2	45	1	target	1	587	707	28022	13.328	13.116	13.551
DTProbeTrack02	21	ProbeTrack	12.1	SCS215a	20101013.094848	20101013.094929	8	0.013328	60	10	60-180	60	66	GapPrac	1	7	2	3	1	distractor	0	534	-1000	27022	13.328	13.308	13.350
DTProbeTrack02	21	ProbeTrack	12.1	SCS215a	20101013.094848	20101013.094934	8	0.013328	60	10	60-180	60	73	GapPrac	1	8	2	1	0	target	0	414	-1000	26022	13.328	12.866	13.802
DTProbeTrack02	21	ProbeTrack	12.1	SCS215a	20101013.094848	20101013.094939	8	0.013328	60	10	60-180	60	140	GapPrac	1	9	2	6	0	target	0	640	-1000	25022	13.328	13.097	13.558
DTProbeTrack02	21	ProbeTrack	12.1	SCS215a	20101013.094848	20101013.094945	8	0.013328	60	10	60-180	60	160	GapPrac	1	10	2	45	0	distractor	1	574	713	25735	13.328	13.045	13.617
DTProbeTrack02	21	ProbeTrack	12.1	SCS215a	20101013.094848	20101013.094951	8	0.013328	60	10	60-180	60	146	GapPrac	1	11	2	9	0	distractor	1	654	673	26408	13.328	12.835	13.823
DTProbeTrack02	21	ProbeTrack	12.1	SCS215a	20101013.094848	20101013.094957	8	0.013328	60	10	60-180	60	77	GapPrac	1	12	2	45	0	distractor	1	667	667	27075	13.328	13.307	13.350
DTProbeTrack02	21	ProbeTrack	12.1	SCS215a	20101013.094848	20101013.095003	8	0.013328	60	10	60-180	60	122	GapPrac	1	13	2	45	1	target	1	467	767	27842	13.328	12.865	13.790
DTProbeTrack02	21	ProbeTrack	12.1	SCS215a	20101013.094848	20101013.095009	8	0.013328	60	10	60-180	60	154	GapPrac	1	14	2	9	1	distractor	0	507	-1000	26842	13.328	13.103	13.782
DTProbeTrack02	21	ProbeTrack	12.1	SCS215a	20101013.094848	20101013.095015	8	0.013328	60	10	60-180	60	143	GapPrac	1	15	2	3	0	target	0	494	-1000	25842	13.328	12.870	13.790
DTProbeTrack02	21	ProbeTrack	12.1	SCS215a	20101013.094848	20101013.095021	8	0.013328	60	10	60-180	60	96	GapPrac	1	16	2	1	1	target	1	627	687	26529	13.328	13.113	13.558
DTProbeTrack02	21	ProbeTrack	12.1	SCS215a	20101013.094848	20101013.095026	8	0.013328	60	10	60-180	60	106	GapPrac	1	17	2	6	1	target	1	560	720	27249	13.328	12.893	13.762
DTProbeTrack02	21	ProbeTrack	12.1	SCS215a	20101013.094848	20101013.095032	8	0.013328	60	10	60-180	60	154	GapPrac	1	18	2	6	1	target	1	880	560	27809	13.328	13.306	13.345
DTProbeTrack02	21	ProbeTrack	12.1	SCS215a	20101013.094848	20101013.095038	8	0.013328	60	10	60-180	60	129	GapPrac	1	19	2	6	0	target	0	427	-1000	26809	13.328	12.851	13.806
DTProbeTrack02	21	ProbeTrack	12.1	SCS215a	20101013.094848	20101013.095044	8	0.013328	60	10	60-180	60	160	GapPrac	1	20	2	1	1	distractor	0	694	-1000	25809	13.328	12.890	13.766
DTProbeTrack02	21	ProbeTrack	12.1	SCS215a	20101013.095335	20101013.095340	8	0.013328	60	10	60-180	60	114	GapPrac	1	1	2	1	0	distractor	1	694	653	26462	13.328	13.277	13.379
DTProbeTrack02	21	ProbeTrack	12.1	SCS215a	20101013.095335	20101013.095346	8	0.013328	60	10	60-180	60	148	GapPrac	1	2	2	3	0	target	0	360	-1000	25462	13.328	13.057	13.606
DTProbeTrack02	21	ProbeTrack	12.1	SCS215a	20101013.095335	20101013.095351	8	0.013328	60	10	60-180	60	63	GapPrac	1	3	2	1	0	distractor	1	720	640	26102	13.328	13.099	13.558
DTProbeTrack02	21	ProbeTrack	12.1	SCS215a	20101013.095335	20101013.095356	8	0.013328	60	10	60-180	60	175	GapPrac	1	4	2	3	1	target	1	387	807	26909	13.328	13.087	13.555
DTProbeTrack02	21	ProbeTrack	12.1	SCS215a	20101013.095335	20101013.095402	8	0.013328	60	10	60-180	60	102	GapPrac	1	5	2	9	0	distractor	1	627	687	27596	13.328	13.040	13.616
DTProbeTrack02	21	ProbeTrack	12.1	SCS215a	20101013.095335	20101013.095408	8	0.013328	60	10	60-180	60	176	GapPrac	1	6	2	6	0	distractor	1	574	713	28309	13.328	13.030	13.634
DTProbeTrack02	21	ProbeTrack	12.1	SCS215a	20101013.095335	20101013.095414	8	0.013328	60	10	60-180	60	122	GapPrac	1	7	2	3	0	distractor	1	547	727	29036	13.328	12.893	13.767
DTProbeTrack02	21	ProbeTrack	12.1	SCS215a	20101013.095335	20101013.095420	8	0.013328	60	10	60-180	60	66	GapPrac	1	8	2	9	1	target	1	720	640	29676	13.579	12.857	66.628
DTProbeTrack02	21	ProbeTrack	12.1	SCS215a	20101013.095335	20101013.095425	8	0.013328	60	10	60-180	60	172	GapPrac	1	9	2	45	0	target	0	560	-1000	28676	13.328	12.868	13.775
DTProbeTrack02	21	ProbeTrack	12.1	SCS215a	20101013.095335	20101013.095432	8	0.013328	60	10	60-180	60	146	GapPrac	1	10	2	6	1	distractor	0	480	-1000	27676	13.328	12.924	13.746
DTProbeTrack02	21	ProbeTrack	12.1	SCS215a	20101013.095335	20101013.095438	8	0.013328	60	10	60-180	60	88	GapPrac	1	11	2	6	0	target	0	560	-1000	26676	13.328	12.859	13.799
DTProbeTrack02	21	ProbeTrack	12.1	SCS215a	20101013.095335	20101013.095443	8	0.013328	60	10	60-180	60	143	GapPrac	1	12	2	3	1	distractor	0	654	-1000	25676	13.328	12.962	13.704
DTProbeTrack02	21	ProbeTrack	12.1	SCS215a	20101013.095335	20101013.095449	8	0.013328	60	10	60-180	60	83	GapPrac	1	13	2	1	1	target	1	867	567	26243	13.328	13.305	13.348
DTProbeTrack02	21	ProbeTrack	12.1	SCS215a	20101013.095335	20101013.095454	8	0.013328	60	10	60-180	60	129	GapPrac	1	14	2	6	1	target	1	454	773	27016	13.328	13.308	13.349
DTProbeTrack02	21	ProbeTrack	12.1	SCS215a	20101013.095335	20101013.095500	8	0.013328	60	10	60-180	60	62	GapPrac	1	15	2	1	1	target	1	520	740	27756	13.469	12.861	26.940
DTProbeTrack02	21	ProbeTrack	12.1	SCS215a	20101013.095335	20101013.095504	8	0.013328	60	10	60-180	60	80	GapPrac	1	16	2	45	0	distractor	1	427	787	28543	13.328	12.866	13.790
DTProbeTrack02	21	ProbeTrack	12.1	SCS215a	20101013.095335	20101013.095510	8	0.013328	60	10	60-180	60	165	GapPrac	1	17	2	9	0	target	0	747	-1000	27543	13.328	12.984	13.673
DTProbeTrack02	21	ProbeTrack	12.1	SCS215a	20101013.095335	20101013.095516	8	0.013328	60	10	60-180	60	61	GapPrac	1	18	2	9	1	target	1	693	654	28197	13.328	12.964	13.685
DTProbeTrack02	21	ProbeTrack	12.1	SCS215a	20101013.095335	20101013.095521	8	0.013328	60	10	60-180	60	119	GapPrac	1	19	2	45	1	target	1	507	747	28944	13.328	13.092	13.561
DTProbeTrack02	21	ProbeTrack	12.1	SCS215a	20101013.095335	20101013.095527	8	0.013328	60	10	60-180	60	72	GapPrac	1	20	2	45	1	target	1	627	687	29631	13.328	12.877	13.784
DTProbeTrack02	21	ProbeTrack	12.1	SCS215a	20101013.095610	20101013.095616	8	0.013327	60	10	60-180	60	89	GapExp	1	1	2	9	1	target	1	907	547	30178	13.328	12.932	13.731
DTProbeTrack02	21	ProbeTrack	12.1	SCS215a	20101013.095610	20101013.095621	8	0.013327	60	10	60-180	60	68	GapExp	1	2	2	3	0	distractor	1	560	720	30898	13.328	12.886	13.773
DTProbeTrack02	21	ProbeTrack	12.1	SCS215a	20101013.095610	20101013.095626	8	0.013327	60	10	60-180	60	116	GapExp	1	3	2	1	0	target	0	440	-1000	29898	13.328	13.304	13.347
DTProbeTrack02	21	ProbeTrack	12.1	SCS215a	20101013.095610	20101013.095632	8	0.013327	60	10	60-180	60	88	GapExp	1	4	2	3	1	target	1	560	720	30618	13.328	13.309	13.343
DTProbeTrack02	21	ProbeTrack	12.1	SCS215a	20101013.095610	20101013.095637	8	0.013327	60	10	60-180	60	141	GapExp	1	5	2	6	0	distractor	1	507	747	31365	13.328	13.098	13.571
DTProbeTrack02	21	ProbeTrack	12.1	SCS215a	20101013.095610	20101013.095643	8	0.013327	60	10	60-180	60	179	GapExp	0	6	2	6	0	distractor	1	467	767	32132	13.328	13.056	13.608
DTProbeTrack02	21	ProbeTrack	12.1	SCS215a	20101013.095610	20101013.095649	8	0.013327	60	10	60-180	60	128	GapExp	0	7	2	6	0	target	0	440	-1000	31132	13.328	13.307	13.344
DTProbeTrack02	21	ProbeTrack	12.1	SCS215a	20101013.095610	20101013.095655	8	0.013327	60	10	60-180	60	71	GapExp	0	8	2	45	0	distractor	1	480	760	31892	13.328	12.866	13.797
DTProbeTrack02	21	ProbeTrack	12.1	SCS215a	20101013.095610	20101013.095700	8	0.013327	60	10	60-180	60	179	GapExp	0	9	2	1	0	distractor	1	720	640	32532	13.328	12.976	13.674
DTProbeTrack02	21	ProbeTrack	12.1	SCS215a	20101013.095610	20101013.095706	8	0.013327	60	10	60-180	60	137	GapExp	0	10	2	6	0	distractor	1	627	687	33219	13.328	13.297	13.351
DTProbeTrack02	21	ProbeTrack	12.1	SCS215a	20101013.095610	20101013.095712	8	0.013327	60	10	60-180	60	76	GapExp	0	11	2	1	1	distractor	0	880	-1000	32219	13.329	13.301	13.556
DTProbeTrack02	21	ProbeTrack	12.1	SCS215a	20101013.095610	20101013.095718	8	0.013327	60	10	60-180	60	144	GapExp	0	12	2	1	1	target	1	374	813	33032	13.328	13.308	13.349
DTProbeTrack02	21	ProbeTrack	12.1	SCS215a	20101013.095610	20101013.095723	8	0.013327	60	10	60-180	60	164	GapExp	0	13	2	6	1	target	1	640	680	33712	13.328	13.311	13.345
DTProbeTrack02	21	ProbeTrack	12.1	SCS215a	20101013.095610	20101013.095730	8	0.013327	60	10	60-180	60	90	GapExp	0	14	2	1	0	distractor	1	507	747	34459	13.328	12.835	13.819
DTProbeTrack02	21	ProbeTrack	12.1	SCS215a	20101013.095610	20101013.095735	8	0.013327	60	10	60-180	60	140	GapExp	0	15	2	1	1	target	1	520	740	35199	13.328	12.855	13.792
DTProbeTrack02	21	ProbeTrack	12.1	SCS215a	20101013.095610	20101013.095740	8	0.013327	60	10	60-180	60	66	GapExp	0	16	2	9	0	target	0	640	-1000	34199	13.328	12.857	13.776
DTProbeTrack02	21	ProbeTrack	12.1	SCS215a	20101013.095610	20101013.095745	8	0.013327	60	10	60-180	60	157	GapExp	0	17	2	9	1	target	1	454	773	34972	13.328	13.305	13.349
DTProbeTrack02	21	ProbeTrack	12.1	SCS215a	20101013.095610	20101013.095751	8	0.013327	60	10	60-180	60	83	GapExp	0	18	2	45	1	distractor	0	600	-1000	33972	13.328	13.078	13.563
DTProbeTrack02	21	ProbeTrack	12.1	SCS215a	20101013.095610	20101013.095757	8	0.013327	60	10	60-180	60	179	GapExp	0	19	2	9	0	target	0	534	-1000	32972	13.328	13.097	13.558
DTProbeTrack02	21	ProbeTrack	12.1	SCS215a	20101013.095610	20101013.095803	8	0.013327	60	10	60-180	60	155	GapExp	0	20	2	6	0	distractor	1	720	640	33612	13.328	13.100	13.562
DTProbeTrack02	21	ProbeTrack	12.1	SCS215a	20101013.095610	20101013.095810	8	0.013327	60	10	60-180	60	79	GapExp	0	21	2	6	0	target	0	440	-1000	32612	13.328	12.946	13.716
DTProbeTrack02	21	ProbeTrack	12.1	SCS215a	20101013.095610	20101013.095815	8	0.013327	60	10	60-180	60	144	GapExp	0	22	2	9	1	distractor	0	574	-1000	31612	13.328	12.872	13.790
DTProbeTrack02	21	ProbeTrack	12.1	SCS215a	20101013.095610	20101013.095821	8	0.013327	60	10	60-180	60	165	GapExp	0	23	2	3	0	target	0	1013	-1000	30612	13.626	13.301	106.653
DTProbeTrack02	21	ProbeTrack	12.1	SCS215a	20101013.095610	20101013.095827	8	0.013327	60	10	60-180	60	67	GapExp	0	24	2	3	0	target	0	907	-1000	29612	13.328	13.309	13.353
DTProbeTrack02	21	ProbeTrack	12.1	SCS215a	20101013.095610	20101013.095833	8	0.013327	60	10	60-180	60	72	GapExp	0	25	2	9	0	distractor	1	587	707	30319	13.328	12.875	13.766
DTProbeTrack02	21	ProbeTrack	12.1	SCS215a	20101013.095610	20101013.095838	8	0.013327	60	10	60-180	60	68	GapExp	0	26	2	6	1	distractor	0	560	-1000	29319	13.328	13.053	13.603
DTProbeTrack02	21	ProbeTrack	12.1	SCS215a	20101013.095610	20101013.095843	8	0.013327	60	10	60-180	60	123	GapExp	0	27	2	3	0	target	0	547	-1000	28319	13.328	13.002	13.660
DTProbeTrack02	21	ProbeTrack	12.1	SCS215a	20101013.095610	20101013.095848	8	0.013327	60	10	60-180	60	100	GapExp	0	28	2	6	1	target	1	693	654	28973	13.328	13.307	13.347
DTProbeTrack02	21	ProbeTrack	12.1	SCS215a	20101013.095610	20101013.095854	8	0.013327	60	10	60-180	60	119	GapExp	0	29	2	6	0	distractor	1	600	700	29673	13.328	12.901	13.762
DTProbeTrack02	21	ProbeTrack	12.1	SCS215a	20101013.095610	20101013.095859	8	0.013327	60	10	60-180	60	71	GapExp	0	30	2	6	0	target	0	587	-1000	28673	13.328	13.095	13.548
DTProbeTrack02	21	ProbeTrack	12.1	SCS215a	20101013.095610	20101013.095904	8	0.013327	60	10	60-180	60	161	GapExp	0	31	2	1	1	target	1	720	640	29313	13.328	12.953	13.705
DTProbeTrack02	21	ProbeTrack	12.1	SCS215a	20101013.095610	20101013.095910	8	0.013327	60	10	60-180	60	117	GapExp	0	32	2	1	0	distractor	1	520	740	30053	13.328	12.861	13.799
DTProbeTrack02	21	ProbeTrack	12.1	SCS215a	20101013.095610	20101013.095916	8	0.013327	60	10	60-180	60	108	GapExp	0	33	2	9	1	target	1	374	813	30866	13.328	13.304	13.348
DTProbeTrack02	21	ProbeTrack	12.1	SCS215a	20101013.095610	20101013.095921	8	0.013327	60	10	60-180	60	132	GapExp	0	34	2	45	1	target	1	374	813	31679	13.328	12.952	13.704
DTProbeTrack02	21	ProbeTrack	12.1	SCS215a	20101013.095610	20101013.095927	8	0.013327	60	10	60-180	60	179	GapExp	0	35	2	45	0	distractor	1	534	733	32412	13.328	13.105	13.566
DTProbeTrack02	21	ProbeTrack	12.1	SCS215a	20101013.095610	20101013.095934	8	0.013327	60	10	60-180	60	139	GapExp	0	36	2	45	0	target	0	494	-1000	31412	13.371	12.876	26.699
DTProbeTrack02	21	ProbeTrack	12.1	SCS215a	20101013.095610	20101013.095940	8	0.013327	60	10	60-180	60	166	GapExp	0	37	2	9	1	distractor	0	440	-1000	30412	13.328	12.982	13.669
DTProbeTrack02	21	ProbeTrack	12.1	SCS215a	20101013.095610	20101013.095947	8	0.013327	60	10	60-180	60	113	GapExp	0	38	2	3	0	target	0	680	-1000	29412	13.328	13.092	13.552
DTProbeTrack02	21	ProbeTrack	12.1	SCS215a	20101013.095610	20101013.095952	8	0.013327	60	10	60-180	60	79	GapExp	0	39	2	3	1	distractor	0	587	-1000	28412	13.328	12.917	13.733
DTProbeTrack02	21	ProbeTrack	12.1	SCS215a	20101013.095610	20101013.095957	8	0.013327	60	10	60-180	60	91	GapExp	0	40	2	1	0	target	0	627	-1000	27412	13.328	12.871	13.779
DTProbeTrack02	21	ProbeTrack	12.1	SCS215a	20101013.095610	20101013.100002	8	0.013327	60	10	60-180	60	131	GapExp	0	41	2	3	0	distractor	1	667	667	28079	13.328	13.098	13.557
DTProbeTrack02	21	ProbeTrack	12.1	SCS215a	20101013.095610	20101013.100008	8	0.013327	60	10	60-180	60	87	GapExp	0	42	2	6	1	target	1	520	740	28819	13.328	13.105	13.552
DTProbeTrack02	21	ProbeTrack	12.1	SCS215a	20101013.095610	20101013.100013	8	0.013327	60	10	60-180	60	108	GapExp	0	43	2	45	1	target	1	680	660	29479	13.328	13.303	13.348
DTProbeTrack02	21	ProbeTrack	12.1	SCS215a	20101013.095610	20101013.100019	8	0.013327	60	10	60-180	60	133	GapExp	0	44	2	6	0	distractor	1	800	600	30079	13.328	12.877	13.769
DTProbeTrack02	21	ProbeTrack	12.1	SCS215a	20101013.095610	20101013.100025	8	0.013327	60	10	60-180	60	149	GapExp	0	45	2	3	1	target	1	667	667	30746	13.328	13.303	13.349
DTProbeTrack02	21	ProbeTrack	12.1	SCS215a	20101013.095610	20101013.100031	8	0.013327	60	10	60-180	60	125	GapExp	0	46	2	1	0	distractor	1	547	727	31473	13.328	12.880	13.783
DTProbeTrack02	21	ProbeTrack	12.1	SCS215a	20101013.095610	20101013.100037	8	0.013327	60	10	60-180	60	67	GapExp	0	47	2	3	1	target	1	480	760	32233	13.328	13.103	13.565
DTProbeTrack02	21	ProbeTrack	12.1	SCS215a	20101013.095610	20101013.100042	8	0.013327	60	10	60-180	60	120	GapExp	0	48	2	6	1	target	1	400	800	33033	13.328	13.232	13.470
DTProbeTrack02	21	ProbeTrack	12.1	SCS215a	20101013.095610	20101013.100047	8	0.013327	60	10	60-180	60	150	GapExp	0	49	2	3	1	target	1	467	767	33800	13.328	12.929	13.739
DTProbeTrack02	21	ProbeTrack	12.1	SCS215a	20101013.095610	20101013.100053	8	0.013327	60	10	60-180	60	78	GapExp	0	50	2	1	0	target	0	680	-1000	32800	13.328	13.026	13.636
DTProbeTrack02	21	ProbeTrack	12.1	SCS215a	20101013.095610	20101013.100109	8	0.013327	60	10	60-180	60	167	GapExp	0	51	2	6	1	target	1	400	800	33600	13.328	13.308	13.348
DTProbeTrack02	21	ProbeTrack	12.1	SCS215a	20101013.095610	20101013.100115	8	0.013327	60	10	60-180	60	113	GapExp	0	52	2	6	0	target	0	507	-1000	32600	13.328	13.295	13.362
DTProbeTrack02	21	ProbeTrack	12.1	SCS215a	20101013.095610	20101013.100120	8	0.013327	60	10	60-180	60	61	GapExp	0	53	2	45	1	distractor	0	94	-1000	31600	13.328	13.298	13.359
DTProbeTrack02	21	ProbeTrack	12.1	SCS215a	20101013.095610	20101013.100125	8	0.013327	60	10	60-180	60	175	GapExp	0	54	2	6	1	target	1	294	853	32453	13.328	13.104	13.550
DTProbeTrack02	21	ProbeTrack	12.1	SCS215a	20101013.095610	20101013.100131	8	0.013327	60	10	60-180	60	133	GapExp	0	55	2	1	1	target	1	454	773	33226	13.328	13.148	13.501
DTProbeTrack02	21	ProbeTrack	12.1	SCS215a	20101013.095610	20101013.100137	8	0.013327	60	10	60-180	60	75	GapExp	0	56	2	9	0	target	0	600	-1000	32226	13.328	13.304	13.350
DTProbeTrack02	21	ProbeTrack	12.1	SCS215a	20101013.095610	20101013.100142	8	0.013327	60	10	60-180	60	101	GapExp	0	57	2	3	0	distractor	1	680	660	32886	13.328	13.305	13.354
DTProbeTrack02	21	ProbeTrack	12.1	SCS215a	20101013.095610	20101013.100147	8	0.013327	60	10	60-180	60	118	GapExp	0	58	2	1	1	target	1	560	720	33606	13.328	13.093	13.550
DTProbeTrack02	21	ProbeTrack	12.1	SCS215a	20101013.095610	20101013.100153	8	0.013327	60	10	60-180	60	175	GapExp	0	59	2	6	1	target	1	507	747	34353	13.328	12.931	13.714
DTProbeTrack02	21	ProbeTrack	12.1	SCS215a	20101013.095610	20101013.100159	8	0.013327	60	10	60-180	60	76	GapExp	0	60	2	3	1	target	1	694	653	35006	13.328	12.876	13.767
DTProbeTrack02	21	ProbeTrack	12.1	SCS215a	20101013.095610	20101013.100204	8	0.013327	60	10	60-180	60	172	GapExp	0	61	2	6	1	distractor	0	347	-1000	34006	13.328	13.309	13.347
DTProbeTrack02	21	ProbeTrack	12.1	SCS215a	20101013.095610	20101013.100210	8	0.013327	60	10	60-180	60	105	GapExp	0	62	2	45	0	distractor	1	414	793	34799	13.328	13.031	13.626
DTProbeTrack02	21	ProbeTrack	12.1	SCS215a	20101013.095610	20101013.100216	8	0.013327	60	10	60-180	60	77	GapExp	0	63	2	1	0	distractor	1	494	753	35552	13.328	12.948	13.715
DTProbeTrack02	21	ProbeTrack	12.1	SCS215a	20101013.095610	20101013.100221	8	0.013327	60	10	60-180	60	146	GapExp	0	64	2	9	0	distractor	1	494	753	36305	13.328	13.105	13.550
DTProbeTrack02	21	ProbeTrack	12.1	SCS215a	20101013.095610	20101013.100227	8	0.013327	60	10	60-180	60	95	GapExp	0	65	2	6	0	target	0	414	-1000	35305	13.328	12.869	13.786
DTProbeTrack02	21	ProbeTrack	12.1	SCS215a	20101013.095610	20101013.100232	8	0.013327	60	10	60-180	60	95	GapExp	0	66	2	3	0	target	0	747	-1000	34305	13.328	13.306	13.359
DTProbeTrack02	21	ProbeTrack	12.1	SCS215a	20101013.095610	20101013.100237	8	0.013327	60	10	60-180	60	110	GapExp	0	67	2	45	0	distractor	1	653	674	34979	13.328	12.914	13.754
DTProbeTrack02	21	ProbeTrack	12.1	SCS215a	20101013.095610	20101013.100244	8	0.013327	60	10	60-180	60	132	GapExp	0	68	2	3	0	target	0	454	-1000	33979	13.328	12.862	13.806
DTProbeTrack02	21	ProbeTrack	12.1	SCS215a	20101013.095610	20101013.100249	8	0.013327	60	10	60-180	60	158	GapExp	0	69	2	45	0	target	0	1000	-1000	32979	13.328	12.847	13.802
DTProbeTrack02	21	ProbeTrack	12.1	SCS215a	20101013.095610	20101013.100256	8	0.013327	60	10	60-180	60	72	GapExp	0	70	2	3	1	distractor	0	720	-1000	31979	13.328	12.847	13.809
DTProbeTrack02	21	ProbeTrack	12.1	SCS215a	20101013.095610	20101013.100301	8	0.013327	60	10	60-180	60	145	GapExp	0	71	2	1	0	target	0	294	-1000	30979	13.328	12.863	13.795
DTProbeTrack02	21	ProbeTrack	12.1	SCS215a	20101013.095610	20101013.100307	8	0.013327	60	10	60-180	60	69	GapExp	0	72	2	9	0	target	0	653	-1000	29979	13.328	13.141	13.533
DTProbeTrack02	21	ProbeTrack	12.1	SCS215a	20101013.095610	20101013.100312	8	0.013327	60	10	60-180	60	70	GapExp	0	73	2	45	1	distractor	0	54	-1000	28979	13.328	13.170	13.486
DTProbeTrack02	21	ProbeTrack	12.1	SCS215a	20101013.095610	20101013.100317	8	0.013327	60	10	60-180	60	128	GapExp	0	74	2	45	0	distractor	1	707	647	29626	13.328	13.106	13.545
DTProbeTrack02	21	ProbeTrack	12.1	SCS215a	20101013.095610	20101013.100323	8	0.013327	60	10	60-180	60	65	GapExp	0	75	2	45	0	target	0	613	-1000	28626	13.328	13.098	13.560
DTProbeTrack02	21	ProbeTrack	12.1	SCS215a	20101013.095610	20101013.100329	8	0.013327	60	10	60-180	60	73	GapExp	0	76	2	3	1	target	1	547	727	29353	13.328	12.860	13.792
DTProbeTrack02	21	ProbeTrack	12.1	SCS215a	20101013.095610	20101013.100334	8	0.013327	60	10	60-180	60	89	GapExp	0	77	2	3	0	distractor	1	600	700	30053	13.328	12.983	13.680
DTProbeTrack02	21	ProbeTrack	12.1	SCS215a	20101013.095610	20101013.100339	8	0.013327	60	10	60-180	60	125	GapExp	0	78	2	45	0	distractor	1	467	767	30820	13.328	13.095	13.553
DTProbeTrack02	21	ProbeTrack	12.1	SCS215a	20101013.095610	20101013.100345	8	0.013327	60	10	60-180	60	163	GapExp	0	79	2	6	0	distractor	1	534	733	31553	13.328	13.305	13.346
DTProbeTrack02	21	ProbeTrack	12.1	SCS215a	20101013.095610	20101013.100351	8	0.013327	60	10	60-180	60	128	GapExp	0	80	2	3	1	target	1	498	751	32304	13.328	12.982	13.677
DTProbeTrack02	21	ProbeTrack	12.1	SCS215a	20101013.095610	20101013.100357	8	0.013327	60	10	60-180	60	130	GapExp	0	81	2	9	0	distractor	1	587	707	33011	13.328	12.922	13.728
DTProbeTrack02	21	ProbeTrack	12.1	SCS215a	20101013.095610	20101013.100402	8	0.013327	60	10	60-180	60	90	GapExp	0	82	2	1	1	target	1	494	753	33764	13.328	13.249	13.417
DTProbeTrack02	21	ProbeTrack	12.1	SCS215a	20101013.095610	20101013.100408	8	0.013327	60	10	60-180	60	157	GapExp	0	83	2	3	0	distractor	1	480	760	34524	13.328	13.105	13.556
DTProbeTrack02	21	ProbeTrack	12.1	SCS215a	20101013.095610	20101013.100414	8	0.013327	60	10	60-180	60	68	GapExp	0	84	2	1	0	distractor	1	467	767	35291	13.328	13.100	13.567
DTProbeTrack02	21	ProbeTrack	12.1	SCS215a	20101013.095610	20101013.100418	8	0.013327	60	10	60-180	60	63	GapExp	0	85	2	6	1	target	1	427	787	36078	13.328	12.893	13.762
DTProbeTrack02	21	ProbeTrack	12.1	SCS215a	20101013.095610	20101013.100423	8	0.013327	60	10	60-180	60	135	GapExp	0	86	2	6	0	distractor	1	547	727	36805	13.328	12.932	13.723
DTProbeTrack02	21	ProbeTrack	12.1	SCS215a	20101013.095610	20101013.100429	8	0.013327	60	10	60-180	60	63	GapExp	0	87	2	9	1	target	1	294	853	37658	13.401	12.857	26.651
DTProbeTrack02	21	ProbeTrack	12.1	SCS215a	20101013.095610	20101013.100433	8	0.013327	60	10	60-180	60	141	GapExp	0	88	2	9	0	distractor	1	467	767	38425	13.328	12.878	13.783
DTProbeTrack02	21	ProbeTrack	12.1	SCS215a	20101013.095610	20101013.100439	8	0.013327	60	10	60-180	60	68	GapExp	0	89	2	9	0	target	0	534	-1000	37425	13.328	12.903	13.737
DTProbeTrack02	21	ProbeTrack	12.1	SCS215a	20101013.095610	20101013.100444	8	0.013327	60	10	60-180	60	152	GapExp	0	90	2	3	1	distractor	0	587	-1000	36425	13.328	12.849	13.800
DTProbeTrack02	21	ProbeTrack	12.1	SCS215a	20101013.095610	20101013.100450	8	0.013327	60	10	60-180	60	92	GapExp	0	91	2	45	0	target	0	960	-1000	35425	13.328	13.304	13.346
DTProbeTrack02	21	ProbeTrack	12.1	SCS215a	20101013.095610	20101013.100456	8	0.013327	60	10	60-180	60	163	GapExp	0	92	2	6	1	distractor	0	454	-1000	34425	13.328	12.892	13.658
DTProbeTrack02	21	ProbeTrack	12.1	SCS215a	20101013.095610	20101013.100502	8	0.013327	60	10	60-180	60	152	GapExp	0	93	2	6	1	target	1	440	780	35205	13.328	13.112	13.561
DTProbeTrack02	21	ProbeTrack	12.1	SCS215a	20101013.095610	20101013.100508	8	0.013327	60	10	60-180	60	64	GapExp	0	94	2	6	1	target	1	547	727	35932	13.328	12.945	13.705
DTProbeTrack02	21	ProbeTrack	12.1	SCS215a	20101013.095610	20101013.100513	8	0.013327	60	10	60-180	60	62	GapExp	0	95	2	9	1	target	1	507	747	36679	13.328	13.311	13.345
DTProbeTrack02	21	ProbeTrack	12.1	SCS215a	20101013.095610	20101013.100518	8	0.013327	60	10	60-180	60	119	GapExp	0	96	2	1	0	distractor	1	627	687	37366	13.328	13.099	13.550
DTProbeTrack02	21	ProbeTrack	12.1	SCS215a	20101013.095610	20101013.100523	8	0.013327	60	10	60-180	60	174	GapExp	0	97	2	45	0	target	0	440	-1000	36366	13.328	12.963	13.737
DTProbeTrack02	21	ProbeTrack	12.1	SCS215a	20101013.095610	20101013.100530	8	0.013327	60	10	60-180	60	92	GapExp	0	98	2	1	1	target	1	627	687	37053	13.328	12.876	13.775
DTProbeTrack02	21	ProbeTrack	12.1	SCS215a	20101013.095610	20101013.100535	8	0.013327	60	10	60-180	60	108	GapExp	0	99	2	9	1	target	1	587	707	37760	13.328	13.299	13.347
DTProbeTrack02	21	ProbeTrack	12.1	SCS215a	20101013.095610	20101013.100541	8	0.013327	60	10	60-180	60	97	GapExp	0	100	2	45	1	target	1	534	733	38493	13.328	13.056	13.593
DTProbeTrack02	21	ProbeTrack	12.1	SCS215a	20101013.095610	20101013.100600	8	0.013327	60	10	60-180	60	126	GapExp	0	101	2	45	0	target	0	627	-1000	37493	13.328	13.209	13.484
DTProbeTrack02	21	ProbeTrack	12.1	SCS215a	20101013.095610	20101013.100606	8	0.013327	60	10	60-180	60	156	GapExp	0	102	2	3	1	distractor	0	534	-1000	36493	13.328	12.863	13.805
DTProbeTrack02	21	ProbeTrack	12.1	SCS215a	20101013.095610	20101013.100612	8	0.013327	60	10	60-180	60	117	GapExp	0	103	2	3	0	target	0	547	-1000	35493	13.328	13.023	13.638
DTProbeTrack02	21	ProbeTrack	12.1	SCS215a	20101013.095610	20101013.100618	8	0.013327	60	10	60-180	60	120	GapExp	0	104	2	9	1	target	1	520	740	36233	13.328	12.846	13.799
DTProbeTrack02	21	ProbeTrack	12.1	SCS215a	20101013.095610	20101013.100623	8	0.013327	60	10	60-180	60	62	GapExp	0	105	2	45	1	target	1	494	753	36986	13.328	13.307	13.347
DTProbeTrack02	21	ProbeTrack	12.1	SCS215a	20101013.095610	20101013.100629	8	0.013327	60	10	60-180	60	143	GapExp	0	106	2	45	1	target	1	400	800	37786	13.328	12.931	13.721
DTProbeTrack02	21	ProbeTrack	12.1	SCS215a	20101013.095610	20101013.100635	8	0.013327	60	10	60-180	60	132	GapExp	0	107	2	1	0	distractor	1	560	720	38506	13.328	12.902	13.764
DTProbeTrack02	21	ProbeTrack	12.1	SCS215a	20101013.095610	20101013.100641	8	0.013327	60	10	60-180	60	105	GapExp	0	108	2	45	0	distractor	1	574	713	39219	13.328	12.923	13.745
DTProbeTrack02	21	ProbeTrack	12.1	SCS215a	20101013.095610	20101013.100647	8	0.013327	60	10	60-180	60	170	GapExp	0	109	2	3	1	target	1	480	760	39979	13.328	13.099	13.563
DTProbeTrack02	21	ProbeTrack	12.1	SCS215a	20101013.095610	20101013.100653	8	0.013327	60	10	60-180	60	89	GapExp	0	110	2	6	0	distractor	1	454	773	40752	13.328	12.935	13.738
DTProbeTrack02	21	ProbeTrack	12.1	SCS215a	20101013.095610	20101013.100658	8	0.013327	60	10	60-180	60	150	GapExp	0	111	2	9	1	target	1	387	807	41559	13.328	13.310	13.348
DTProbeTrack02	21	ProbeTrack	12.1	SCS215a	20101013.095610	20101013.100704	8	0.013327	60	10	60-180	60	69	GapExp	0	112	2	9	0	distractor	1	613	694	42253	13.328	12.884	13.773
DTProbeTrack02	21	ProbeTrack	12.1	SCS215a	20101013.095610	20101013.100709	8	0.013327	60	10	60-180	60	90	GapExp	0	113	2	45	1	distractor	0	534	-1000	41253	13.328	13.105	13.550
DTProbeTrack02	21	ProbeTrack	12.1	SCS215a	20101013.095610	20101013.100714	8	0.013327	60	10	60-180	60	171	GapExp	0	114	2	9	1	target	1	267	867	42120	13.328	13.166	13.490
DTProbeTrack02	21	ProbeTrack	12.1	SCS215a	20101013.095610	20101013.100720	8	0.013327	60	10	60-180	60	93	GapExp	0	115	2	9	0	target	0	760	-1000	41120	13.328	12.937	13.724
DTProbeTrack02	21	ProbeTrack	12.1	SCS215a	20101013.095610	20101013.100726	8	0.013327	60	10	60-180	60	171	GapExp	0	116	2	9	0	target	0	534	-1000	40120	13.328	12.967	13.682
DTProbeTrack02	21	ProbeTrack	12.1	SCS215a	20101013.095610	20101013.100732	8	0.013327	60	10	60-180	60	157	GapExp	0	117	2	1	0	distractor	1	480	760	40880	13.328	13.094	13.550
DTProbeTrack02	21	ProbeTrack	12.1	SCS215a	20101013.095610	20101013.100738	8	0.013327	60	10	60-180	60	158	GapExp	0	118	2	9	1	target	1	467	767	41647	13.328	12.859	13.796
DTProbeTrack02	21	ProbeTrack	12.1	SCS215a	20101013.095610	20101013.100744	8	0.013327	60	10	60-180	60	160	GapExp	0	119	2	6	1	target	1	414	793	42440	13.328	13.070	13.575
DTProbeTrack02	21	ProbeTrack	12.1	SCS215a	20101013.095610	20101013.100750	8	0.013327	60	10	60-180	60	132	GapExp	0	120	2	1	0	target	0	440	-1000	41440	13.328	13.096	13.552
DTProbeTrack02	21	ProbeTrack	12.1	SCS215a	20101013.095610	20101013.100756	8	0.013327	60	10	60-180	60	105	GapExp	0	121	2	9	1	target	1	614	693	42133	13.328	13.310	13.344
DTProbeTrack02	21	ProbeTrack	12.1	SCS215a	20101013.095610	20101013.100801	8	0.013327	60	10	60-180	60	146	GapExp	0	122	2	45	1	target	1	400	800	42933	13.328	13.307	13.350
DTProbeTrack02	21	ProbeTrack	12.1	SCS215a	20101013.095610	20101013.100807	8	0.013327	60	10	60-180	60	156	GapExp	0	123	2	45	1	distractor	0	364	-1000	41933	13.328	12.992	13.678
DTProbeTrack02	21	ProbeTrack	12.1	SCS215a	20101013.095610	20101013.100814	8	0.013327	60	10	60-180	60	158	GapExp	0	124	2	3	1	target	1	427	787	42720	13.328	13.230	13.427
DTProbeTrack02	21	ProbeTrack	12.1	SCS215a	20101013.095610	20101013.100820	8	0.013327	60	10	60-180	60	111	GapExp	0	125	2	45	1	target	1	1266	367	43087	13.328	13.099	13.556
DTProbeTrack02	21	ProbeTrack	12.1	SCS215a	20101013.095610	20101013.100826	8	0.013327	60	10	60-180	60	129	GapExp	0	126	2	6	0	target	0	520	-1000	42087	13.328	13.098	13.538
DTProbeTrack02	21	ProbeTrack	12.1	SCS215a	20101013.095610	20101013.100832	8	0.013327	60	10	60-180	60	172	GapExp	0	127	2	3	1	target	1	440	780	42867	13.328	13.102	13.548
DTProbeTrack02	21	ProbeTrack	12.1	SCS215a	20101013.095610	20101013.100838	8	0.013327	60	10	60-180	60	131	GapExp	0	128	2	9	0	target	0	387	-1000	41867	14.124	12.968	133.437
DTProbeTrack02	21	ProbeTrack	12.1	SCS215a	20101013.095610	20101013.100844	8	0.013327	60	10	60-180	60	122	GapExp	0	129	2	6	0	target	0	440	-1000	40867	13.328	13.307	13.345
DTProbeTrack02	21	ProbeTrack	12.1	SCS215a	20101013.095610	20101013.100849	8	0.013327	60	10	60-180	60	116	GapExp	0	130	2	1	0	distractor	1	320	840	41707	13.328	13.306	13.345
DTProbeTrack02	21	ProbeTrack	12.1	SCS215a	20101013.095610	20101013.100855	8	0.013327	60	10	60-180	60	175	GapExp	0	131	2	9	1	target	1	907	547	42254	13.328	12.985	13.670
DTProbeTrack02	21	ProbeTrack	12.1	SCS215a	20101013.095610	20101013.100901	8	0.013327	60	10	60-180	60	167	GapExp	0	132	2	3	0	target	0	454	-1000	41254	13.328	13.111	13.560
DTProbeTrack02	21	ProbeTrack	12.1	SCS215a	20101013.095610	20101013.100907	8	0.013327	60	10	60-180	60	171	GapExp	0	133	2	6	1	target	1	360	820	42074	13.328	13.096	13.566
DTProbeTrack02	21	ProbeTrack	12.1	SCS215a	20101013.095610	20101013.100914	8	0.013327	60	10	60-180	60	100	GapExp	0	134	2	6	0	distractor	1	534	733	42807	13.328	13.307	13.350
DTProbeTrack02	21	ProbeTrack	12.1	SCS215a	20101013.095610	20101013.100919	8	0.013327	60	10	60-180	60	87	GapExp	0	135	2	3	1	target	1	320	840	43647	13.328	13.099	13.546
DTProbeTrack02	21	ProbeTrack	12.1	SCS215a	20101013.095610	20101013.100924	8	0.013327	60	10	60-180	60	67	GapExp	0	136	2	3	1	target	1	587	707	44354	13.328	13.085	13.763
DTProbeTrack02	21	ProbeTrack	12.1	SCS215a	20101013.095610	20101013.100929	8	0.013327	60	10	60-180	60	142	GapExp	0	137	2	6	0	target	0	347	-1000	43354	13.328	13.103	13.549
DTProbeTrack02	21	ProbeTrack	12.1	SCS215a	20101013.095610	20101013.100934	8	0.013327	60	10	60-180	60	75	GapExp	0	138	2	9	1	target	1	440	780	44134	13.328	12.900	13.764
DTProbeTrack02	21	ProbeTrack	12.1	SCS215a	20101013.095610	20101013.100939	8	0.013327	60	10	60-180	60	68	GapExp	0	139	2	6	0	distractor	1	414	793	44927	13.328	12.874	13.788
DTProbeTrack02	21	ProbeTrack	12.1	SCS215a	20101013.095610	20101013.100944	8	0.013327	60	10	60-180	60	68	GapExp	0	140	2	3	0	target	0	347	-1000	43927	13.328	12.949	13.704
DTProbeTrack02	21	ProbeTrack	12.1	SCS215a	20101013.095610	20101013.100948	8	0.013327	60	10	60-180	60	77	GapExp	0	141	2	45	0	distractor	1	307	847	44774	13.328	13.272	13.384
DTProbeTrack02	21	ProbeTrack	12.1	SCS215a	20101013.095610	20101013.100954	8	0.013327	60	10	60-180	60	166	GapExp	0	142	2	1	1	distractor	0	400	-1000	43774	13.328	13.007	13.640
DTProbeTrack02	21	ProbeTrack	12.1	SCS215a	20101013.095610	20101013.101000	8	0.013327	60	10	60-180	60	136	GapExp	0	143	2	6	1	target	1	280	860	44634	13.328	12.876	13.767
DTProbeTrack02	21	ProbeTrack	12.1	SCS215a	20101013.095610	20101013.101005	8	0.013327	60	10	60-180	60	148	GapExp	0	144	2	1	1	distractor	0	573	-1000	43634	13.328	13.099	13.544
DTProbeTrack02	21	ProbeTrack	12.1	SCS215a	20101013.095610	20101013.101011	8	0.013327	60	10	60-180	60	64	GapExp	0	145	2	9	1	target	1	414	793	44427	13.328	13.105	13.544
DTProbeTrack02	21	ProbeTrack	12.1	SCS215a	20101013.095610	20101013.101016	8	0.013327	60	10	60-180	60	90	GapExp	0	146	2	3	0	target	0	534	-1000	43427	13.328	12.845	13.803
DTProbeTrack02	21	ProbeTrack	12.1	SCS215a	20101013.095610	20101013.101021	8	0.013327	60	10	60-180	60	145	GapExp	0	147	2	1	0	distractor	1	414	793	44220	13.328	13.164	13.497
DTProbeTrack02	21	ProbeTrack	12.1	SCS215a	20101013.095610	20101013.101027	8	0.013327	60	10	60-180	60	150	GapExp	0	148	2	9	0	target	0	480	-1000	43220	13.328	13.124	13.524
DTProbeTrack02	21	ProbeTrack	12.1	SCS215a	20101013.095610	20101013.101033	8	0.013327	60	10	60-180	60	135	GapExp	0	149	2	45	1	target	1	587	707	43927	13.328	13.116	13.540
DTProbeTrack02	21	ProbeTrack	12.1	SCS215a	20101013.095610	20101013.101039	8	0.013327	60	10	60-180	60	150	GapExp	0	150	2	1	0	target	0	574	-1000	42927	13.328	13.099	13.564
DTProbeTrack02	21	ProbeTrack	12.1	SCS215a	20101013.095610	20101013.101055	8	0.013327	60	10	60-180	60	69	GapExp	0	151	2	1	0	target	0	334	-1000	41927	13.328	13.311	13.344
DTProbeTrack02	21	ProbeTrack	12.1	SCS215a	20101013.095610	20101013.101100	8	0.013327	60	10	60-180	60	116	GapExp	0	152	2	1	1	distractor	0	680	-1000	40927	13.328	12.865	13.799
DTProbeTrack02	21	ProbeTrack	12.1	SCS215a	20101013.095610	20101013.101106	8	0.013327	60	10	60-180	60	119	GapExp	0	153	2	1	1	target	1	387	807	41734	13.328	12.866	13.789
DTProbeTrack02	21	ProbeTrack	12.1	SCS215a	20101013.095610	20101013.101111	8	0.013327	60	10	60-180	60	173	GapExp	0	154	2	1	1	distractor	0	440	-1000	40734	13.373	12.867	26.850
DTProbeTrack02	21	ProbeTrack	12.1	SCS215a	20101013.095610	20101013.101117	8	0.013327	60	10	60-180	60	168	GapExp	0	155	2	45	0	distractor	1	440	780	41514	13.328	12.922	13.746
DTProbeTrack02	21	ProbeTrack	12.1	SCS215a	20101013.095610	20101013.101124	8	0.013327	60	10	60-180	60	87	GapExp	0	156	2	3	1	target	1	534	733	42247	13.328	12.897	13.750
DTProbeTrack02	21	ProbeTrack	12.1	SCS215a	20101013.095610	20101013.101129	8	0.013327	60	10	60-180	60	163	GapExp	0	157	2	6	1	target	1	480	760	43007	13.328	12.953	13.719
DTProbeTrack02	21	ProbeTrack	12.1	SCS215a	20101013.095610	20101013.101135	8	0.013327	60	10	60-180	60	91	GapExp	0	158	2	45	1	target	1	387	807	43814	13.328	12.878	13.792
DTProbeTrack02	21	ProbeTrack	12.1	SCS215a	20101013.095610	20101013.101140	8	0.013327	60	10	60-180	60	147	GapExp	0	159	2	1	0	target	0	414	-1000	42814	13.328	13.307	13.352
DTProbeTrack02	21	ProbeTrack	12.1	SCS215a	20101013.095610	20101013.101146	8	0.013327	60	10	60-180	60	61	GapExp	0	160	2	45	0	distractor	1	520	740	43554	13.328	12.912	13.750
DTProbeTrack02	21	ProbeTrack	12.1	SCS215a	20101013.095610	20101013.101152	8	0.013327	60	10	60-180	60	110	GapExp	0	161	2	3	0	distractor	1	520	740	44294	13.328	12.498	14.184
DTProbeTrack02	21	ProbeTrack	12.1	SCS215a	20101013.095610	20101013.101157	8	0.013327	60	10	60-180	60	119	GapExp	0	162	2	3	0	target	0	440	-1000	43294	13.328	13.108	13.550
DTProbeTrack02	21	ProbeTrack	12.1	SCS215a	20101013.095610	20101013.101202	8	0.013327	60	10	60-180	60	171	GapExp	0	163	2	1	1	distractor	0	467	-1000	42294	13.328	13.164	13.490
DTProbeTrack02	21	ProbeTrack	12.1	SCS215a	20101013.095610	20101013.101208	8	0.013327	60	10	60-180	60	115	GapExp	0	164	2	3	1	target	1	507	747	43041	13.328	13.305	13.354
DTProbeTrack02	21	ProbeTrack	12.1	SCS215a	20101013.095610	20101013.101214	8	0.013327	60	10	60-180	60	92	GapExp	0	165	2	6	1	target	1	440	780	43821	13.328	12.913	13.741
DTProbeTrack02	21	ProbeTrack	12.1	SCS215a	20101013.095610	20101013.101219	8	0.013327	60	10	60-180	60	101	GapExp	0	166	2	1	1	target	1	414	793	44614	13.328	12.875	13.823
DTProbeTrack02	21	ProbeTrack	12.1	SCS215a	20101013.095610	20101013.101224	8	0.013327	60	10	60-180	60	92	GapExp	0	167	2	1	1	target	1	667	667	45281	13.328	13.092	13.556
DTProbeTrack02	21	ProbeTrack	12.1	SCS215a	20101013.095610	20101013.101229	8	0.013327	60	10	60-180	60	72	GapExp	0	168	2	3	1	target	1	427	787	46068	13.328	12.893	13.751
DTProbeTrack02	21	ProbeTrack	12.1	SCS215a	20101013.095610	20101013.101234	8	0.013327	60	10	60-180	60	85	GapExp	0	169	2	1	1	target	1	467	767	46835	13.328	13.309	13.346
DTProbeTrack02	21	ProbeTrack	12.1	SCS215a	20101013.095610	20101013.101239	8	0.013327	60	10	60-180	60	61	GapExp	0	170	2	3	0	distractor	1	534	733	47568	13.328	13.302	13.350
DTProbeTrack02	21	ProbeTrack	12.1	SCS215a	20101013.095610	20101013.101244	8	0.013327	60	10	60-180	60	137	GapExp	0	171	2	9	1	target	1	454	773	48341	13.328	12.869	13.787
DTProbeTrack02	21	ProbeTrack	12.1	SCS215a	20101013.095610	20101013.101250	8	0.013327	60	10	60-180	60	119	GapExp	0	172	2	9	0	distractor	1	573	714	49055	13.328	12.871	13.798
DTProbeTrack02	21	ProbeTrack	12.1	SCS215a	20101013.095610	20101013.101255	8	0.013327	60	10	60-180	60	111	GapExp	0	173	2	45	1	target	1	454	773	49828	13.328	13.040	13.615
DTProbeTrack02	21	ProbeTrack	12.1	SCS215a	20101013.095610	20101013.101301	8	0.013327	60	10	60-180	60	73	GapExp	0	174	2	45	0	target	0	467	-1000	48828	13.328	13.000	13.658
DTProbeTrack02	21	ProbeTrack	12.1	SCS215a	20101013.095610	20101013.101306	8	0.013327	60	10	60-180	60	107	GapExp	0	175	2	9	1	target	1	494	753	49581	13.328	13.084	13.584
DTProbeTrack02	21	ProbeTrack	12.1	SCS215a	20101013.095610	20101013.101312	8	0.013327	60	10	60-180	60	159	GapExp	0	176	2	45	1	target	1	400	800	50381	13.328	13.015	13.639
DTProbeTrack02	21	ProbeTrack	12.1	SCS215a	20101013.095610	20101013.101318	8	0.013327	60	10	60-180	60	126	GapExp	0	177	2	9	1	target	1	494	753	51134	13.328	12.905	13.750
DTProbeTrack02	21	ProbeTrack	12.1	SCS215a	20101013.095610	20101013.101324	8	0.013327	60	10	60-180	60	94	GapExp	0	178	2	45	1	target	1	467	767	51901	13.328	13.308	13.347
DTProbeTrack02	21	ProbeTrack	12.1	SCS215a	20101013.095610	20101013.101330	8	0.013327	60	10	60-180	60	126	GapExp	0	179	2	9	0	target	0	627	-1000	50901	13.328	12.864	13.788
DTProbeTrack02	21	ProbeTrack	12.1	SCS215a	20101013.095610	20101013.101335	8	0.013327	60	10	60-180	60	105	GapExp	0	180	2	6	1	target	1	427	787	51688	13.328	12.891	13.780
DTProbeTrack02	21	ProbeTrack	12.1	SCS215a	20101013.095610	20101013.101341	8	0.013327	60	10	60-180	60	131	GapExp	0	181	2	3	1	distractor	0	534	-1000	50688	13.328	13.307	13.351
DTProbeTrack02	21	ProbeTrack	12.1	SCS215a	20101013.095610	20101013.101346	8	0.013327	60	10	60-180	60	90	GapExp	0	182	2	6	0	target	0	787	-1000	49688	13.328	13.218	13.449
DTProbeTrack02	21	ProbeTrack	12.1	SCS215a	20101013.095610	20101013.101352	8	0.013327	60	10	60-180	60	116	GapExp	0	183	2	45	1	distractor	0	547	-1000	48688	13.328	13.298	13.346
DTProbeTrack02	21	ProbeTrack	12.1	SCS215a	20101013.095610	20101013.101358	8	0.013327	60	10	60-180	60	94	GapExp	0	184	2	6	0	distractor	1	587	707	49395	13.328	12.934	13.715
DTProbeTrack02	21	ProbeTrack	12.1	SCS215a	20101013.095610	20101013.101403	8	0.013327	60	10	60-180	60	117	GapExp	0	185	2	9	1	distractor	0	574	-1000	48395	13.328	13.033	13.595
DTProbeTrack02	21	ProbeTrack	12.1	SCS215a	20101013.095610	20101013.101409	8	0.013327	60	10	60-180	60	175	GapExp	0	186	2	6	1	target	1	414	793	49188	13.328	13.117	13.550
DTProbeTrack02	21	ProbeTrack	12.1	SCS215a	20101013.095610	20101013.101415	8	0.013327	60	10	60-180	60	120	GapExp	0	187	2	45	0	distractor	1	467	767	49955	13.328	12.868	13.796
DTProbeTrack02	21	ProbeTrack	12.1	SCS215a	20101013.095610	20101013.101421	8	0.013327	60	10	60-180	60	68	GapExp	0	188	2	45	0	distractor	1	467	767	50722	13.328	13.081	13.554
DTProbeTrack02	21	ProbeTrack	12.1	SCS215a	20101013.095610	20101013.101426	8	0.013327	60	10	60-180	60	127	GapExp	0	189	2	9	0	distractor	1	587	707	51429	13.328	13.302	13.360
DTProbeTrack02	21	ProbeTrack	12.1	SCS215a	20101013.095610	20101013.101432	8	0.013327	60	10	60-180	60	157	GapExp	0	190	2	1	0	distractor	1	707	647	52076	13.328	13.104	13.546
DTProbeTrack02	21	ProbeTrack	12.1	SCS215a	20101013.095610	20101013.101438	8	0.013327	60	10	60-180	60	121	GapExp	0	191	2	45	1	target	1	520	740	52816	13.738	12.905	133.280
DTProbeTrack02	21	ProbeTrack	12.1	SCS215a	20101013.095610	20101013.101444	8	0.013327	60	10	60-180	60	147	GapExp	0	192	2	9	0	distractor	1	550	725	53541	13.328	12.865	13.790
DTProbeTrack02	21	ProbeTrack	12.1	SCS215a	20101013.095610	20101013.101450	8	0.013327	60	10	60-180	60	68	GapExp	0	193	2	1	0	distractor	1	627	687	54228	13.328	13.308	13.350
DTProbeTrack02	21	ProbeTrack	12.1	SCS215a	20101013.095610	20101013.101455	8	0.013327	60	10	60-180	60	167	GapExp	0	194	2	1	1	target	1	534	733	54961	13.328	12.943	13.697
DTProbeTrack02	21	ProbeTrack	12.1	SCS215a	20101013.095610	20101013.101501	8	0.013327	60	10	60-180	60	69	GapExp	0	195	2	45	1	target	1	400	800	55761	13.328	12.853	13.786
DTProbeTrack02	21	ProbeTrack	12.1	SCS215a	20101013.095610	20101013.101507	8	0.013327	60	10	60-180	60	175	GapExp	0	196	2	9	0	distractor	1	454	773	56534	13.328	13.102	13.562
DTProbeTrack02	21	ProbeTrack	12.1	SCS215a	20101013.095610	20101013.101513	8	0.013327	60	10	60-180	60	90	GapExp	0	197	2	9	0	target	0	920	-1000	55534	13.328	12.921	13.721
DTProbeTrack02	21	ProbeTrack	12.1	SCS215a	20101013.095610	20101013.101519	8	0.013327	60	10	60-180	60	147	GapExp	0	198	2	3	0	target	0	494	-1000	54534	13.425	12.856	27.115
DTProbeTrack02	21	ProbeTrack	12.1	SCS215a	20101013.095610	20101013.101525	8	0.013327	60	10	60-180	60	82	GapExp	0	199	2	1	1	target	1	454	773	55307	13.328	13.310	13.346
DTProbeTrack02	21	ProbeTrack	12.1	SCS215a	20101013.095610	20101013.101529	8	0.013327	60	10	60-180	60	95	GapExp	0	200	2	3	0	distractor	1	494	753	56060	13.328	13.308	13.349
DTProbeTrack02	21	ProbeTrack	12.1	SCS215a	20101013.095610	20101013.101539	8	0.013327	60	10	60-180	60	85	GapExp	0	201	2	9	1	target	1	534	733	56793	13.328	13.046	13.609
DTProbeTrack02	21	ProbeTrack	12.1	SCS215a	20101013.095610	20101013.101544	8	0.013327	60	10	60-180	60	93	GapExp	0	202	2	3	1	target	1	573	714	57507	13.328	12.849	13.808
DTProbeTrack02	21	ProbeTrack	12.1	SCS215a	20101013.095610	20101013.101549	8	0.013327	60	10	60-180	60	120	GapExp	0	203	2	45	0	target	0	760	-1000	56507	13.328	12.862	13.787
DTProbeTrack02	21	ProbeTrack	12.1	SCS215a	20101013.095610	20101013.101555	8	0.013327	60	10	60-180	60	117	GapExp	0	204	2	3	0	distractor	1	693	654	57161	13.328	13.308	13.349
DTProbeTrack02	21	ProbeTrack	12.1	SCS215a	20101013.095610	20101013.101601	8	0.013327	60	10	60-180	60	120	GapExp	0	205	2	1	1	target	1	400	800	57961	13.328	13.100	13.550
