exp	sub	code	rev	comp	runtime	trialtime	nstim	refreshdur	cuedur	gapdur	gapOnsetRange	durPostProbe	gapOnsetTime	blocktype	prac	trial	ntargets	soa	probeTarget	resp	acc	rt	pts	tpts	meanFrameDur	minFrameDur	maxFrameDur
DTProbeTrack02	17	ProbeTrack	12.1	SCS215a	20101008.143323	20101008.143342	8	0.013327	60	0	60-180	60	86	NoGap	1	1	2	9	0	distractor	1	2559	0	0	13.328	12.889	13.747
DTProbeTrack02	17	ProbeTrack	12.1	SCS215a	20101008.143323	20101008.143349	8	0.013327	60	0	60-180	60	100	NoGap	1	2	2	9	0	target	0	773	-1000	-1000	13.328	13.041	13.621
DTProbeTrack02	17	ProbeTrack	12.1	SCS215a	20101008.143323	20101008.143355	8	0.013327	60	0	60-180	60	120	NoGap	1	3	2	45	1	target	1	987	507	-493	13.328	13.100	13.563
DTProbeTrack02	17	ProbeTrack	12.1	SCS215a	20101008.143323	20101008.143401	8	0.013327	60	0	60-180	60	142	NoGap	1	4	2	9	1	target	1	694	653	160	13.328	12.956	13.714
DTProbeTrack02	17	ProbeTrack	12.1	SCS215a	20101008.143323	20101008.143407	8	0.013327	60	0	60-180	60	156	NoGap	1	5	2	9	1	target	1	574	713	873	13.328	12.948	13.719
DTProbeTrack02	17	ProbeTrack	12.1	SCS215a	20101008.143323	20101008.143413	8	0.013327	60	0	60-180	60	173	NoGap	1	6	2	1	1	target	1	614	693	1566	13.328	13.087	13.563
DTProbeTrack02	17	ProbeTrack	12.1	SCS215a	20101008.143323	20101008.143419	8	0.013327	60	0	60-180	60	171	NoGap	1	7	2	45	1	target	1	600	700	2266	13.367	12.867	27.120
DTProbeTrack02	17	ProbeTrack	12.1	SCS215a	20101008.143323	20101008.143426	8	0.013327	60	0	60-180	60	136	NoGap	1	8	2	6	1	target	1	747	627	2893	13.376	12.929	26.687
DTProbeTrack02	17	ProbeTrack	12.1	SCS215a	20101008.143323	20101008.143432	8	0.013327	60	0	60-180	60	143	NoGap	1	9	2	45	1	target	1	640	680	3573	13.328	12.857	13.778
DTProbeTrack02	17	ProbeTrack	12.1	SCS215a	20101008.143323	20101008.143439	8	0.013327	60	0	60-180	60	113	NoGap	1	10	2	1	0	distractor	1	733	634	4207	13.328	12.935	13.710
DTProbeTrack02	17	ProbeTrack	12.1	SCS215a	20101008.143323	20101008.143444	8	0.013327	60	0	60-180	60	62	NoGap	1	11	2	6	0	distractor	1	747	627	4834	13.394	12.899	27.077
DTProbeTrack02	17	ProbeTrack	12.1	SCS215a	20101008.143323	20101008.143449	8	0.013327	60	0	60-180	60	119	NoGap	1	12	2	9	1	target	1	574	713	5547	13.381	13.000	26.968
DTProbeTrack02	17	ProbeTrack	12.1	SCS215a	20101008.143323	20101008.143455	8	0.013327	60	0	60-180	60	165	NoGap	1	13	2	9	0	distractor	1	600	700	6247	13.373	12.965	26.644
DTProbeTrack02	17	ProbeTrack	12.1	SCS215a	20101008.143323	20101008.143501	8	0.013327	60	0	60-180	60	172	NoGap	1	14	2	6	0	distractor	1	640	680	6927	13.328	13.307	13.349
DTProbeTrack02	17	ProbeTrack	12.1	SCS215a	20101008.143323	20101008.143507	8	0.013327	60	0	60-180	60	180	NoGap	1	15	2	1	0	distractor	1	880	560	7487	13.328	13.083	13.566
DTProbeTrack02	17	ProbeTrack	12.1	SCS215a	20101008.143323	20101008.143514	8	0.013327	60	0	60-180	60	68	NoGap	1	16	2	6	1	target	1	414	793	8280	13.328	13.102	13.554
DTProbeTrack02	17	ProbeTrack	12.1	SCS215a	20101008.143323	20101008.143519	8	0.013327	60	0	60-180	60	147	NoGap	1	17	2	1	0	distractor	1	494	753	9033	13.328	12.996	13.674
DTProbeTrack02	17	ProbeTrack	12.1	SCS215a	20101008.143323	20101008.143524	8	0.013327	60	0	60-180	60	75	NoGap	1	18	2	6	0	target	0	547	-1000	8033	13.328	12.863	13.804
DTProbeTrack02	17	ProbeTrack	12.1	SCS215a	20101008.143323	20101008.143529	8	0.013327	60	0	60-180	60	156	NoGap	1	19	2	3	1	target	1	496	752	8785	13.425	12.844	26.771
DTProbeTrack02	17	ProbeTrack	12.1	SCS215a	20101008.143323	20101008.143535	8	0.013327	60	0	60-180	60	119	NoGap	1	20	2	3	0	distractor	1	560	720	9505	13.328	13.119	13.552
DTProbeTrack02	17	ProbeTrack	12.1	SCS215a	20101008.143323	20101008.143541	8	0.013327	60	0	60-180	60	102	NoGap	1	21	2	1	1	target	1	587	707	10212	13.328	13.039	13.750
DTProbeTrack02	17	ProbeTrack	12.1	SCS215a	20101008.143323	20101008.143546	8	0.013327	60	0	60-180	60	155	NoGap	1	22	2	45	1	distractor	0	400	-1000	9212	13.328	12.909	13.751
DTProbeTrack02	17	ProbeTrack	12.1	SCS215a	20101008.143323	20101008.143552	8	0.013327	60	0	60-180	60	97	NoGap	1	23	2	6	0	distractor	1	680	660	9872	13.328	13.303	13.352
DTProbeTrack02	17	ProbeTrack	12.1	SCS215a	20101008.143323	20101008.143558	8	0.013327	60	0	60-180	60	157	NoGap	1	24	2	3	1	target	1	440	780	10652	13.328	12.973	13.676
DTProbeTrack02	17	ProbeTrack	12.1	SCS215a	20101008.143323	20101008.143604	8	0.013327	60	0	60-180	60	109	NoGap	1	25	2	3	1	target	1	414	793	11445	13.328	13.309	13.348
DTProbeTrack02	17	ProbeTrack	12.1	SCS215a	20101008.143323	20101008.143609	8	0.013327	60	0	60-180	60	133	NoGap	1	26	2	3	0	distractor	1	494	753	12198	13.328	13.100	13.545
DTProbeTrack02	17	ProbeTrack	12.1	SCS215a	20101008.143323	20101008.143614	8	0.013327	60	0	60-180	60	148	NoGap	1	27	2	1	0	distractor	1	627	687	12885	13.328	13.110	13.557
DTProbeTrack02	17	ProbeTrack	12.1	SCS215a	20101008.143323	20101008.143620	8	0.013327	60	0	60-180	60	80	NoGap	1	28	2	3	1	target	1	614	693	13578	13.328	12.930	13.713
DTProbeTrack02	17	ProbeTrack	12.1	SCS215a	20101008.143323	20101008.143625	8	0.013327	60	0	60-180	60	154	NoGap	1	29	2	1	1	target	1	547	727	14305	13.328	13.009	13.653
DTProbeTrack02	17	ProbeTrack	12.1	SCS215a	20101008.143323	20101008.143631	8	0.013327	60	0	60-180	60	172	NoGap	1	30	2	45	0	distractor	1	414	793	15098	13.328	13.056	13.586
DTProbeTrack02	17	ProbeTrack	12.1	SCS215a	20101008.143323	20101008.143638	8	0.013327	60	0	60-180	60	73	NoGap	1	31	2	45	0	target	0	614	-1000	14098	13.383	13.036	26.757
DTProbeTrack02	17	ProbeTrack	12.1	SCS215a	20101008.143323	20101008.143643	8	0.013327	60	0	60-180	60	149	NoGap	1	32	2	1	1	target	1	634	683	14781	13.426	12.907	40.129
DTProbeTrack02	17	ProbeTrack	12.1	SCS215a	20101008.143323	20101008.143649	8	0.013327	60	0	60-180	60	115	NoGap	1	33	2	9	1	target	1	427	787	15568	13.328	13.308	13.347
DTProbeTrack02	17	ProbeTrack	12.1	SCS215a	20101008.143323	20101008.143655	8	0.013327	60	0	60-180	60	68	NoGap	1	34	2	9	0	target	0	880	-1000	14568	13.328	13.298	13.351
DTProbeTrack02	17	ProbeTrack	12.1	SCS215a	20101008.143323	20101008.143700	8	0.013327	60	0	60-180	60	65	NoGap	1	35	2	3	0	distractor	1	627	687	15255	13.328	13.289	13.356
DTProbeTrack02	17	ProbeTrack	12.1	SCS215a	20101008.143323	20101008.143705	8	0.013327	60	0	60-180	60	96	NoGap	1	36	2	6	1	target	1	494	753	16008	13.328	12.996	13.664
DTProbeTrack02	17	ProbeTrack	12.1	SCS215a	20101008.143323	20101008.143710	8	0.013327	60	0	60-180	60	167	NoGap	1	37	2	6	1	target	1	400	800	16808	13.328	13.003	13.660
DTProbeTrack02	17	ProbeTrack	12.1	SCS215a	20101008.143323	20101008.143716	8	0.013327	60	0	60-180	60	112	NoGap	1	38	2	45	0	distractor	1	520	740	17548	13.328	12.952	13.700
DTProbeTrack02	17	ProbeTrack	12.1	SCS215a	20101008.143323	20101008.143722	8	0.013327	60	0	60-180	60	144	NoGap	1	39	2	3	0	distractor	1	520	740	18288	13.328	13.306	13.343
DTProbeTrack02	17	ProbeTrack	12.1	SCS215a	20101008.143323	20101008.143728	8	0.013327	60	0	60-180	60	140	NoGap	1	40	2	45	0	distractor	1	573	714	19002	13.328	13.307	13.344
DTProbeTrack02	17	ProbeTrack	12.1	SCS215a	20101008.143820	20101008.143834	8	0.013328	60	10	60-180	60	161	GapPrac	1	1	2	1	0	distractor	1	1040	480	19482	13.328	13.102	13.551
DTProbeTrack02	17	ProbeTrack	12.1	SCS215a	20101008.143820	20101008.143841	8	0.013328	60	10	60-180	60	115	GapPrac	1	2	2	1	1	distractor	0	1133	-1000	18482	13.328	12.956	13.693
DTProbeTrack02	17	ProbeTrack	12.1	SCS215a	20101008.143820	20101008.143847	8	0.013328	60	10	60-180	60	172	GapPrac	1	3	2	3	0	distractor	1	1013	494	18976	13.411	13.304	26.648
DTProbeTrack02	17	ProbeTrack	12.1	SCS215a	20101008.143820	20101008.143854	8	0.013328	60	10	60-180	60	111	GapPrac	1	4	2	9	0	distractor	1	1053	474	19450	13.378	12.968	26.585
DTProbeTrack02	17	ProbeTrack	12.1	SCS215a	20101008.143820	20101008.143900	8	0.013328	60	10	60-180	60	130	GapPrac	1	5	2	1	1	target	1	933	534	19984	13.376	13.037	26.720
DTProbeTrack02	17	ProbeTrack	12.1	SCS215a	20101008.143820	20101008.143906	8	0.013328	60	10	60-180	60	136	GapPrac	1	6	2	45	1	target	1	867	567	20551	13.369	13.219	26.266
DTProbeTrack02	17	ProbeTrack	12.1	SCS215a	20101008.143820	20101008.143912	8	0.013328	60	10	60-180	60	77	GapPrac	1	7	2	3	0	distractor	1	920	540	21091	13.328	13.101	13.551
DTProbeTrack02	17	ProbeTrack	12.1	SCS215a	20101008.143820	20101008.143918	8	0.013328	60	10	60-180	60	74	GapPrac	1	8	2	6	0	distractor	1	720	640	21731	13.328	12.918	13.733
DTProbeTrack02	17	ProbeTrack	12.1	SCS215a	20101008.143820	20101008.143923	8	0.013328	60	10	60-180	60	93	GapPrac	1	9	2	6	1	target	1	480	760	22491	13.328	12.931	13.765
DTProbeTrack02	17	ProbeTrack	12.1	SCS215a	20101008.143820	20101008.143928	8	0.013328	60	10	60-180	60	91	GapPrac	1	10	2	9	0	distractor	1	680	660	23151	13.328	13.301	13.358
DTProbeTrack02	17	ProbeTrack	12.1	SCS215a	20101008.143820	20101008.143934	8	0.013328	60	10	60-180	60	80	GapPrac	1	11	2	45	0	distractor	1	733	634	23785	13.328	13.294	13.361
DTProbeTrack02	17	ProbeTrack	12.1	SCS215a	20101008.143820	20101008.143940	8	0.013328	60	10	60-180	60	176	GapPrac	1	12	2	3	1	target	1	614	693	24478	13.328	12.949	13.743
DTProbeTrack02	17	ProbeTrack	12.1	SCS215a	20101008.143820	20101008.143946	8	0.013328	60	10	60-180	60	137	GapPrac	1	13	2	6	0	distractor	1	574	713	25191	13.377	13.092	26.877
DTProbeTrack02	17	ProbeTrack	12.1	SCS215a	20101008.143820	20101008.143952	8	0.013328	60	10	60-180	60	143	GapPrac	1	14	2	6	1	distractor	0	733	-1000	24191	13.328	12.884	13.758
DTProbeTrack02	17	ProbeTrack	12.1	SCS215a	20101008.143820	20101008.143958	8	0.013328	60	10	60-180	60	102	GapPrac	1	15	2	45	1	target	1	574	713	24904	13.328	12.881	13.770
DTProbeTrack02	17	ProbeTrack	12.1	SCS215a	20101008.143820	20101008.144004	8	0.013328	60	10	60-180	60	126	GapPrac	1	16	2	3	1	target	1	680	660	25564	13.328	13.119	13.348
DTProbeTrack02	17	ProbeTrack	12.1	SCS215a	20101008.143820	20101008.144010	8	0.013328	60	10	60-180	60	162	GapPrac	1	17	2	9	1	target	1	520	740	26304	13.328	13.077	13.789
DTProbeTrack02	17	ProbeTrack	12.1	SCS215a	20101008.143820	20101008.144016	8	0.013328	60	10	60-180	60	86	GapPrac	1	18	2	45	0	distractor	1	680	660	26964	13.427	13.308	26.621
DTProbeTrack02	17	ProbeTrack	12.1	SCS215a	20101008.143820	20101008.144022	8	0.013328	60	10	60-180	60	171	GapPrac	1	19	2	1	0	distractor	1	693	654	27618	13.371	13.098	26.651
DTProbeTrack02	17	ProbeTrack	12.1	SCS215a	20101008.143820	20101008.144029	8	0.013328	60	10	60-180	60	104	GapPrac	1	20	2	9	1	target	1	613	694	28312	13.436	12.860	27.038
DTProbeTrack02	17	ProbeTrack	12.1	SCS215a	20101008.144411	20101008.144417	8	0.013328	60	10	60-180	60	83	GapPrac	1	1	2	1	0	distractor	1	800	600	28912	13.328	13.296	13.347
DTProbeTrack02	17	ProbeTrack	12.1	SCS215a	20101008.144411	20101008.144422	8	0.013328	60	10	60-180	60	139	GapPrac	1	2	2	6	0	distractor	1	813	594	29506	13.374	12.868	26.680
DTProbeTrack02	17	ProbeTrack	12.1	SCS215a	20101008.144411	20101008.144429	8	0.013328	60	10	60-180	60	83	GapPrac	1	3	2	3	0	distractor	1	707	647	30153	13.328	12.940	13.715
DTProbeTrack02	17	ProbeTrack	12.1	SCS215a	20101008.144411	20101008.144434	8	0.013328	60	10	60-180	60	168	GapPrac	1	4	2	6	1	target	1	747	627	30780	13.370	12.850	27.123
DTProbeTrack02	17	ProbeTrack	12.1	SCS215a	20101008.144411	20101008.144441	8	0.013328	60	10	60-180	60	120	GapPrac	1	5	2	9	1	target	1	1520	240	31020	13.328	12.912	13.750
DTProbeTrack02	17	ProbeTrack	12.1	SCS215a	20101008.144411	20101008.144447	8	0.013328	60	10	60-180	60	99	GapPrac	1	6	2	9	0	target	0	1560	-1000	30020	13.380	12.915	26.986
DTProbeTrack02	17	ProbeTrack	12.1	SCS215a	20101008.144411	20101008.144454	8	0.013328	60	10	60-180	60	138	GapPrac	1	7	2	3	1	target	1	1373	314	30334	13.328	12.846	13.816
DTProbeTrack02	17	ProbeTrack	12.1	SCS215a	20101008.144411	20101008.144500	8	0.013328	60	10	60-180	60	177	GapPrac	1	8	2	3	1	distractor	0	1413	-1000	29334	13.451	12.905	26.651
DTProbeTrack02	17	ProbeTrack	12.1	SCS215a	20101008.144411	20101008.144508	8	0.013328	60	10	60-180	60	64	GapPrac	1	9	2	45	0	distractor	1	495	753	30087	13.442	12.875	26.802
DTProbeTrack02	17	ProbeTrack	12.1	SCS215a	20101008.144411	20101008.144513	8	0.013328	60	10	60-180	60	110	GapPrac	1	10	2	9	0	distractor	1	694	653	30740	13.431	12.874	27.129
DTProbeTrack02	17	ProbeTrack	12.1	SCS215a	20101008.144411	20101008.144519	8	0.013328	60	10	60-180	60	89	GapPrac	1	11	2	6	0	distractor	1	667	667	31407	13.621	12.883	39.745
DTProbeTrack02	17	ProbeTrack	12.1	SCS215a	20101008.144411	20101008.144524	8	0.013328	60	10	60-180	60	143	GapPrac	1	12	2	45	1	distractor	0	938	-1000	30407	13.488	12.836	27.072
DTProbeTrack02	17	ProbeTrack	12.1	SCS215a	20101008.144411	20101008.144531	8	0.013328	60	10	60-180	60	65	GapPrac	1	13	2	1	1	distractor	0	1404	-1000	29407	13.328	12.854	13.805
DTProbeTrack02	17	ProbeTrack	12.1	SCS215a	20101008.144411	20101008.144537	8	0.013328	60	10	60-180	60	166	GapPrac	1	14	2	9	1	target	1	707	647	30054	13.370	12.927	27.058
DTProbeTrack02	17	ProbeTrack	12.1	SCS215a	20101008.144411	20101008.144544	8	0.013328	60	10	60-180	60	126	GapPrac	1	15	2	1	0	distractor	1	600	700	30754	13.379	12.872	26.708
DTProbeTrack02	17	ProbeTrack	12.1	SCS215a	20101008.144411	20101008.144549	8	0.013328	60	10	60-180	60	125	GapPrac	1	16	2	45	0	distractor	1	787	607	31361	13.370	12.886	26.660
DTProbeTrack02	17	ProbeTrack	12.1	SCS215a	20101008.144411	20101008.144556	8	0.013328	60	10	60-180	60	168	GapPrac	1	17	2	1	1	distractor	0	933	-1000	30361	13.370	12.864	26.793
DTProbeTrack02	17	ProbeTrack	12.1	SCS215a	20101008.144411	20101008.144602	8	0.013328	60	10	60-180	60	129	GapPrac	1	18	2	45	1	distractor	0	787	-1000	29361	13.328	13.029	13.632
DTProbeTrack02	17	ProbeTrack	12.1	SCS215a	20101008.144411	20101008.144609	8	0.013328	60	10	60-180	60	105	GapPrac	1	19	2	3	0	target	0	1013	-1000	28361	13.433	12.848	26.594
DTProbeTrack02	17	ProbeTrack	12.1	SCS215a	20101008.144411	20101008.144615	8	0.013328	60	10	60-180	60	99	GapPrac	1	20	2	6	1	distractor	0	787	-1000	27361	13.381	12.858	27.116
DTProbeTrack02	17	ProbeTrack	12.1	SCS215a	20101008.144706	20101008.144711	8	0.013328	60	10	60-180	60	112	GapExp	1	1	2	6	0	74	-3	13461	-1000	26361	13.378	13.109	26.222
DTProbeTrack02	17	ProbeTrack	12.1	SCS215a	20101008.144706	20101008.144729	8	0.013328	60	10	60-180	60	179	GapExp	1	2	2	9	1	distractor	0	960	-1000	25361	13.408	12.873	27.088
DTProbeTrack02	17	ProbeTrack	12.1	SCS215a	20101008.144706	20101008.144736	8	0.013328	60	10	60-180	60	149	GapExp	1	3	2	3	1	186	-3	722	-1000	24361	13.328	12.890	13.769
DTProbeTrack02	17	ProbeTrack	12.1	SCS215a	20101008.144706	20101008.144742	8	0.013328	60	10	60-180	60	79	GapExp	1	4	2	45	0	distractor	1	813	594	24955	13.377	12.956	27.019
DTProbeTrack02	17	ProbeTrack	12.1	SCS215a	20101008.144706	20101008.144748	8	0.013328	60	10	60-180	60	149	GapExp	1	5	2	6	1	distractor	0	653	-1000	23955	13.328	12.860	13.789
DTProbeTrack02	17	ProbeTrack	12.1	SCS215a	20101008.144706	20101008.144754	8	0.013328	60	10	60-180	60	125	GapExp	0	6	2	6	1	target	1	840	580	24535	13.328	12.949	13.715
DTProbeTrack02	17	ProbeTrack	12.1	SCS215a	20101008.144706	20101008.144800	8	0.013328	60	10	60-180	60	137	GapExp	0	7	2	45	0	target	0	1253	-1000	23535	13.328	12.854	13.812
DTProbeTrack02	17	ProbeTrack	12.1	SCS215a	20101008.144706	20101008.144807	8	0.013328	60	10	60-180	60	168	GapExp	0	8	2	1	0	distractor	1	813	594	24129	13.370	12.889	27.075
DTProbeTrack02	17	ProbeTrack	12.1	SCS215a	20101008.144706	20101008.144814	8	0.013328	60	10	60-180	60	147	GapExp	0	9	2	1	0	target	0	773	-1000	23129	13.328	13.039	13.632
DTProbeTrack02	17	ProbeTrack	12.1	SCS215a	20101008.144706	20101008.144820	8	0.013328	60	10	60-180	60	159	GapExp	0	10	2	3	1	distractor	0	720	-1000	22129	13.328	12.871	13.794
DTProbeTrack02	17	ProbeTrack	12.1	SCS215a	20101008.144706	20101008.144826	8	0.013328	60	10	60-180	60	97	GapExp	0	11	2	45	0	target	0	827	-1000	21129	13.328	12.874	13.782
DTProbeTrack02	17	ProbeTrack	12.1	SCS215a	20101008.144706	20101008.144832	8	0.013328	60	10	60-180	60	130	GapExp	0	12	2	6	0	distractor	1	1586	207	21336	13.517	12.808	27.062
DTProbeTrack02	17	ProbeTrack	12.1	SCS215a	20101008.144706	20101008.144839	8	0.013328	60	10	60-180	60	178	GapExp	0	13	2	6	0	target	0	1040	-1000	20336	13.409	12.896	27.103
DTProbeTrack02	17	ProbeTrack	12.1	SCS215a	20101008.144706	20101008.144846	8	0.013328	60	10	60-180	60	74	GapExp	0	14	2	1	1	distractor	0	666	-1000	19336	13.328	12.924	13.726
DTProbeTrack02	17	ProbeTrack	12.1	SCS215a	20101008.144706	20101008.144851	8	0.013328	60	10	60-180	60	131	GapExp	0	15	2	1	1	target	1	574	713	20049	13.328	12.836	13.818
DTProbeTrack02	17	ProbeTrack	12.1	SCS215a	20101008.144706	20101008.144857	8	0.013328	60	10	60-180	60	115	GapExp	0	16	2	6	0	distractor	1	480	760	20809	13.328	12.872	13.784
DTProbeTrack02	17	ProbeTrack	12.1	SCS215a	20101008.144706	20101008.144903	8	0.013328	60	10	60-180	60	111	GapExp	0	17	2	1	0	target	0	947	-1000	19809	13.431	12.873	27.129
DTProbeTrack02	17	ProbeTrack	12.1	SCS215a	20101008.144706	20101008.144909	8	0.013328	60	10	60-180	60	129	GapExp	0	18	2	45	0	distractor	1	1027	487	20296	13.328	12.893	13.720
DTProbeTrack02	17	ProbeTrack	12.1	SCS215a	20101008.144706	20101008.144915	8	0.013328	60	10	60-180	60	99	GapExp	0	19	2	3	1	distractor	0	893	-1000	19296	13.328	13.114	13.535
DTProbeTrack02	17	ProbeTrack	12.1	SCS215a	20101008.144706	20101008.144921	8	0.013328	60	10	60-180	60	99	GapExp	0	20	2	45	1	target	1	920	540	19836	13.328	12.974	13.671
DTProbeTrack02	17	ProbeTrack	12.1	SCS215a	20101008.144706	20101008.144927	8	0.013328	60	10	60-180	60	172	GapExp	0	21	2	1	0	76	-3	3479	-1000	18836	13.370	13.053	26.708
DTProbeTrack02	17	ProbeTrack	12.1	SCS215a	20101008.144706	20101008.144936	8	0.013328	60	10	60-180	60	92	GapExp	0	22	2	9	0	target	0	160	-1000	17836	13.328	12.992	13.662
DTProbeTrack02	17	ProbeTrack	12.1	SCS215a	20101008.144706	20101008.144941	8	0.013328	60	10	60-180	60	150	GapExp	0	23	2	3	0	distractor	1	773	614	18450	13.328	12.974	13.681
DTProbeTrack02	17	ProbeTrack	12.1	SCS215a	20101008.144706	20101008.144948	8	0.013328	60	10	60-180	60	109	GapExp	0	24	2	1	1	target	1	1746	127	18577	13.328	12.853	13.808
DTProbeTrack02	17	ProbeTrack	12.1	SCS215a	20101008.144706	20101008.144954	8	0.013328	60	10	60-180	60	101	GapExp	0	25	2	9	0	distractor	1	653	674	19251	13.328	12.969	13.679
DTProbeTrack02	17	ProbeTrack	12.1	SCS215a	20101008.144706	20101008.145000	8	0.013328	60	10	60-180	60	134	GapExp	0	26	2	6	0	distractor	1	640	680	19931	13.328	12.913	13.751
DTProbeTrack02	17	ProbeTrack	12.1	SCS215a	20101008.144706	20101008.145006	8	0.013328	60	10	60-180	60	138	GapExp	0	27	2	1	1	distractor	0	1120	-1000	18931	13.469	12.832	27.153
DTProbeTrack02	17	ProbeTrack	12.1	SCS215a	20101008.144706	20101008.145012	8	0.013328	60	10	60-180	60	80	GapExp	0	28	2	3	1	target	1	1986	7	18938	13.328	12.858	13.793
DTProbeTrack02	17	ProbeTrack	12.1	SCS215a	20101008.144706	20101008.145019	8	0.013328	60	10	60-180	60	162	GapExp	0	29	2	9	1	distractor	0	827	-1000	17938	13.370	12.855	26.634
DTProbeTrack02	17	ProbeTrack	12.1	SCS215a	20101008.144706	20101008.145025	8	0.013328	60	10	60-180	60	164	GapExp	0	30	2	1	0	target	0	947	-1000	16938	13.500	12.854	27.011
DTProbeTrack02	17	ProbeTrack	12.1	SCS215a	20101008.144706	20101008.145032	8	0.013328	60	10	60-180	60	63	GapExp	0	31	2	6	0	distractor	1	653	674	17612	13.525	12.946	26.688
DTProbeTrack02	17	ProbeTrack	12.1	SCS215a	20101008.144706	20101008.145037	8	0.013328	60	10	60-180	60	93	GapExp	0	32	2	3	1	target	1	214	893	18505	13.328	12.840	13.812
DTProbeTrack02	17	ProbeTrack	12.1	SCS215a	20101008.144706	20101008.145042	8	0.013328	60	10	60-180	60	117	GapExp	0	33	2	3	1	distractor	0	653	-1000	17505	13.485	12.861	40.345
DTProbeTrack02	17	ProbeTrack	12.1	SCS215a	20101008.144706	20101008.145047	8	0.013328	60	10	60-180	60	71	GapExp	0	34	2	6	1	target	1	720	640	18145	13.328	12.937	13.741
DTProbeTrack02	17	ProbeTrack	12.1	SCS215a	20101008.144706	20101008.145053	8	0.013328	60	10	60-180	60	77	GapExp	0	35	2	9	0	distractor	1	947	527	18672	13.328	13.100	13.550
DTProbeTrack02	17	ProbeTrack	12.1	SCS215a	20101008.144706	20101008.145058	8	0.013328	60	10	60-180	60	128	GapExp	0	36	2	6	1	76	-3	11969	-1000	17672	13.423	12.894	39.971
DTProbeTrack02	17	ProbeTrack	12.1	SCS215a	20101008.144706	20101008.145115	8	0.013328	60	10	60-180	60	146	GapExp	0	37	2	3	0	target	0	1067	-1000	16672	13.328	13.068	13.580
DTProbeTrack02	17	ProbeTrack	12.1	SCS215a	20101008.144706	20101008.145122	8	0.013328	60	10	60-180	60	174	GapExp	0	38	2	3	1	target	1	680	660	17332	13.328	13.019	13.632
DTProbeTrack02	17	ProbeTrack	12.1	SCS215a	20101008.144706	20101008.145128	8	0.013328	60	10	60-180	60	135	GapExp	0	39	2	9	1	target	1	600	700	18032	13.328	12.999	13.650
DTProbeTrack02	17	ProbeTrack	12.1	SCS215a	20101008.144706	20101008.145134	8	0.013328	60	10	60-180	60	86	GapExp	0	40	2	6	0	distractor	1	867	567	18599	13.328	13.176	13.491
DTProbeTrack02	17	ProbeTrack	12.1	SCS215a	20101008.144706	20101008.145140	8	0.013328	60	10	60-180	60	64	GapExp	0	41	2	9	0	target	0	1187	-1000	17599	13.328	12.872	13.786
DTProbeTrack02	17	ProbeTrack	12.1	SCS215a	20101008.144706	20101008.145145	8	0.013328	60	10	60-180	60	138	GapExp	0	42	2	6	0	distractor	1	920	540	18139	13.328	12.898	13.759
DTProbeTrack02	17	ProbeTrack	12.1	SCS215a	20101008.144706	20101008.145151	8	0.013328	60	10	60-180	60	175	GapExp	0	43	2	9	0	distractor	1	1653	174	18313	13.368	12.856	27.115
DTProbeTrack02	17	ProbeTrack	12.1	SCS215a	20101008.144706	20101008.145159	8	0.013328	60	10	60-180	60	89	GapExp	0	44	2	9	1	distractor	0	1067	-1000	17313	13.328	13.107	13.548
DTProbeTrack02	17	ProbeTrack	12.1	SCS215a	20101008.144706	20101008.145205	8	0.013328	60	10	60-180	60	117	GapExp	0	45	2	1	1	target	1	560	720	18033	13.328	12.918	13.737
DTProbeTrack02	17	ProbeTrack	12.1	SCS215a	20101008.144706	20101008.145210	8	0.013328	60	10	60-180	60	160	GapExp	0	46	2	6	0	distractor	1	693	654	18687	13.371	12.925	26.483
DTProbeTrack02	17	ProbeTrack	12.1	SCS215a	20101008.144706	20101008.145217	8	0.013328	60	10	60-180	60	126	GapExp	0	47	2	3	0	target	0	600	-1000	17687	13.379	12.862	26.654
DTProbeTrack02	17	ProbeTrack	12.1	SCS215a	20101008.144706	20101008.145222	8	0.013328	60	10	60-180	60	135	GapExp	0	48	2	3	1	distractor	0	640	-1000	16687	13.377	13.042	26.774
DTProbeTrack02	17	ProbeTrack	12.1	SCS215a	20101008.144706	20101008.145228	8	0.013328	60	10	60-180	60	161	GapExp	0	49	2	9	1	target	1	787	607	17294	13.328	12.974	13.689
DTProbeTrack02	17	ProbeTrack	12.1	SCS215a	20101008.144706	20101008.145235	8	0.013328	60	10	60-180	60	100	GapExp	0	50	2	1	1	distractor	0	720	-1000	16294	13.383	12.846	27.143
DTProbeTrack02	17	ProbeTrack	12.1	SCS215a	20101008.144706	20101008.145257	8	0.013328	60	10	60-180	60	166	GapExp	0	51	2	9	1	distractor	0	720	-1000	15294	13.328	12.873	13.773
DTProbeTrack02	17	ProbeTrack	12.1	SCS215a	20101008.144706	20101008.145303	8	0.013328	60	10	60-180	60	82	GapExp	0	52	2	9	0	distractor	1	480	760	16054	13.328	12.982	13.674
DTProbeTrack02	17	ProbeTrack	12.1	SCS215a	20101008.144706	20101008.145308	8	0.013328	60	10	60-180	60	89	GapExp	0	53	2	3	0	target	0	1040	-1000	15054	13.328	12.953	13.701
DTProbeTrack02	17	ProbeTrack	12.1	SCS215a	20101008.144706	20101008.145314	8	0.013328	60	10	60-180	60	72	GapExp	0	54	2	9	0	distractor	1	520	740	15794	13.392	13.004	26.430
DTProbeTrack02	17	ProbeTrack	12.1	SCS215a	20101008.144706	20101008.145319	8	0.013328	60	10	60-180	60	130	GapExp	0	55	2	1	0	distractor	1	613	694	16488	13.328	12.977	13.700
DTProbeTrack02	17	ProbeTrack	12.1	SCS215a	20101008.144706	20101008.145325	8	0.013328	60	10	60-180	60	62	GapExp	0	56	2	9	1	distractor	0	1453	-1000	15488	13.328	12.946	13.721
DTProbeTrack02	17	ProbeTrack	12.1	SCS215a	20101008.144706	20101008.145331	8	0.013328	60	10	60-180	60	169	GapExp	0	57	2	1	0	distractor	1	654	673	16161	13.458	12.882	27.014
DTProbeTrack02	17	ProbeTrack	12.1	SCS215a	20101008.144706	20101008.145337	8	0.013328	60	10	60-180	60	86	GapExp	0	58	2	9	1	target	1	680	660	16821	13.500	12.880	26.896
DTProbeTrack02	17	ProbeTrack	12.1	SCS215a	20101008.144706	20101008.145343	8	0.013328	60	10	60-180	60	111	GapExp	0	59	2	6	1	distractor	0	480	-1000	15821	13.383	12.950	26.664
DTProbeTrack02	17	ProbeTrack	12.1	SCS215a	20101008.144706	20101008.145348	8	0.013328	60	10	60-180	60	133	GapExp	0	60	2	45	1	target	1	747	627	16448	13.328	12.867	13.789
DTProbeTrack02	17	ProbeTrack	12.1	SCS215a	20101008.144706	20101008.145355	8	0.013328	60	10	60-180	60	115	GapExp	0	61	2	45	1	multi	-2	3572	-1000	15448	13.371	12.906	26.701
DTProbeTrack02	17	ProbeTrack	12.1	SCS215a	20101008.144706	20101008.145404	8	0.013328	60	10	60-180	60	105	GapExp	0	62	2	3	1	distractor	0	1293	-1000	14448	13.328	12.924	13.737
DTProbeTrack02	17	ProbeTrack	12.1	SCS215a	20101008.144706	20101008.145410	8	0.013328	60	10	60-180	60	93	GapExp	0	63	2	9	1	distractor	0	680	-1000	13448	13.328	12.830	13.816
DTProbeTrack02	17	ProbeTrack	12.1	SCS215a	20101008.144706	20101008.145416	8	0.013328	60	10	60-180	60	71	GapExp	0	64	2	1	1	target	1	773	614	14062	13.328	12.836	13.809
DTProbeTrack02	17	ProbeTrack	12.1	SCS215a	20101008.144706	20101008.145421	8	0.013328	60	10	60-180	60	94	GapExp	0	65	2	45	1	target	1	535	733	14795	13.328	12.864	13.786
DTProbeTrack02	17	ProbeTrack	12.1	SCS215a	20101008.144706	20101008.145427	8	0.013328	60	10	60-180	60	126	GapExp	0	66	2	45	0	distractor	1	667	667	15462	13.328	12.921	13.732
DTProbeTrack02	17	ProbeTrack	12.1	SCS215a	20101008.144706	20101008.145433	8	0.013328	60	10	60-180	60	143	GapExp	0	67	2	6	1	target	1	1000	500	15962	13.328	12.838	13.814
DTProbeTrack02	17	ProbeTrack	12.1	SCS215a	20101008.144706	20101008.145440	8	0.013328	60	10	60-180	60	117	GapExp	0	68	2	9	1	target	1	614	693	16655	13.327	12.924	13.745
DTProbeTrack02	17	ProbeTrack	12.1	SCS215a	20101008.144706	20101008.145445	8	0.013328	60	10	60-180	60	151	GapExp	0	69	2	9	0	target	0	160	-1000	15655	13.328	13.026	13.623
DTProbeTrack02	17	ProbeTrack	12.1	SCS215a	20101008.144706	20101008.145451	8	0.013328	60	10	60-180	60	126	GapExp	0	70	2	3	1	target	1	427	787	16442	13.328	12.881	13.799
DTProbeTrack02	17	ProbeTrack	12.1	SCS215a	20101008.144706	20101008.145457	8	0.013328	60	10	60-180	60	144	GapExp	0	71	2	3	1	target	1	507	747	17189	13.377	12.875	27.102
DTProbeTrack02	17	ProbeTrack	12.1	SCS215a	20101008.144706	20101008.145502	8	0.013328	60	10	60-180	60	122	GapExp	0	72	2	45	1	target	1	640	680	17869	13.372	12.851	26.640
DTProbeTrack02	17	ProbeTrack	12.1	SCS215a	20101008.144706	20101008.145509	8	0.013328	60	10	60-180	60	177	GapExp	0	73	2	9	0	distractor	1	800	600	18469	13.408	12.877	27.017
DTProbeTrack02	17	ProbeTrack	12.1	SCS215a	20101008.144706	20101008.145516	8	0.013328	60	10	60-180	60	97	GapExp	0	74	2	1	0	distractor	1	832	584	19053	13.657	12.845	26.933
DTProbeTrack02	17	ProbeTrack	12.1	SCS215a	20101008.144706	20101008.145521	8	0.013328	60	10	60-180	60	129	GapExp	0	75	2	45	1	target	1	520	740	19793	13.417	12.848	26.634
DTProbeTrack02	17	ProbeTrack	12.1	SCS215a	20101008.144706	20101008.145527	8	0.013328	60	10	60-180	60	61	GapExp	0	76	2	45	0	distractor	1	653	674	20467	13.383	12.849	26.669
DTProbeTrack02	17	ProbeTrack	12.1	SCS215a	20101008.144706	20101008.145533	8	0.013328	60	10	60-180	60	64	GapExp	0	77	2	45	1	target	1	720	640	21107	13.328	13.307	13.349
DTProbeTrack02	17	ProbeTrack	12.1	SCS215a	20101008.144706	20101008.145539	8	0.013328	60	10	60-180	60	180	GapExp	0	78	2	1	1	target	1	920	540	21647	13.369	12.982	26.941
DTProbeTrack02	17	ProbeTrack	12.1	SCS215a	20101008.144706	20101008.145545	8	0.013328	60	10	60-180	60	173	GapExp	0	79	2	6	1	target	1	494	753	22400	13.372	12.884	26.650
DTProbeTrack02	17	ProbeTrack	12.1	SCS215a	20101008.144706	20101008.145552	8	0.013328	60	10	60-180	60	113	GapExp	0	80	2	6	0	distractor	1	651	675	23075	13.433	12.873	26.650
DTProbeTrack02	17	ProbeTrack	12.1	SCS215a	20101008.144706	20101008.145558	8	0.013328	60	10	60-180	60	70	GapExp	0	81	2	45	0	target	0	813	-1000	22075	13.379	13.005	26.645
DTProbeTrack02	17	ProbeTrack	12.1	SCS215a	20101008.144706	20101008.145603	8	0.013328	60	10	60-180	60	147	GapExp	0	82	2	45	1	target	1	494	753	22828	13.497	12.927	40.006
DTProbeTrack02	17	ProbeTrack	12.1	SCS215a	20101008.144706	20101008.145610	8	0.013328	60	10	60-180	60	101	GapExp	0	83	2	45	0	distractor	1	574	713	23541	13.328	12.881	13.775
DTProbeTrack02	17	ProbeTrack	12.1	SCS215a	20101008.144706	20101008.145616	8	0.013328	60	10	60-180	60	94	GapExp	0	84	2	45	0	distractor	1	773	614	24155	13.328	12.950	13.703
DTProbeTrack02	17	ProbeTrack	12.1	SCS215a	20101008.144706	20101008.145622	8	0.013328	60	10	60-180	60	122	GapExp	0	85	2	45	0	distractor	1	1187	407	24562	13.328	12.891	13.769
DTProbeTrack02	17	ProbeTrack	12.1	SCS215a	20101008.144706	20101008.145629	8	0.013328	60	10	60-180	60	90	GapExp	0	86	2	9	1	distractor	0	1027	-1000	23562	13.328	12.877	13.762
DTProbeTrack02	17	ProbeTrack	12.1	SCS215a	20101008.144706	20101008.145635	8	0.013328	60	10	60-180	60	75	GapExp	0	87	2	1	0	distractor	1	1427	287	23849	13.328	12.872	13.791
DTProbeTrack02	17	ProbeTrack	12.1	SCS215a	20101008.144706	20101008.145640	8	0.013328	60	10	60-180	60	78	GapExp	0	88	2	6	1	target	1	613	694	24543	13.328	13.100	13.563
DTProbeTrack02	17	ProbeTrack	12.1	SCS215a	20101008.144706	20101008.145646	8	0.013328	60	10	60-180	60	107	GapExp	0	89	2	6	0	target	0	680	-1000	23543	13.328	12.868	13.807
DTProbeTrack02	17	ProbeTrack	12.1	SCS215a	20101008.144706	20101008.145651	8	0.013328	60	10	60-180	60	63	GapExp	0	90	2	3	0	distractor	1	640	680	24223	13.394	13.055	26.722
DTProbeTrack02	17	ProbeTrack	12.1	SCS215a	20101008.144706	20101008.145656	8	0.013328	60	10	60-180	60	84	GapExp	0	91	2	6	1	target	1	440	780	25003	13.328	12.894	13.751
DTProbeTrack02	17	ProbeTrack	12.1	SCS215a	20101008.144706	20101008.145701	8	0.013328	60	10	60-180	60	66	GapExp	0	92	2	9	1	target	1	747	627	25630	13.389	12.874	26.663
DTProbeTrack02	17	ProbeTrack	12.1	SCS215a	20101008.144706	20101008.145706	8	0.013328	60	10	60-180	60	134	GapExp	0	93	2	3	0	target	0	1693	-1000	24630	13.375	13.198	26.655
DTProbeTrack02	17	ProbeTrack	12.1	SCS215a	20101008.144706	20101008.145713	8	0.013328	60	10	60-180	60	109	GapExp	0	94	2	1	1	target	1	507	747	25377	13.328	13.243	13.414
DTProbeTrack02	17	ProbeTrack	12.1	SCS215a	20101008.144706	20101008.145719	8	0.013328	60	10	60-180	60	106	GapExp	0	95	2	6	0	distractor	1	560	720	26097	13.328	13.061	13.589
DTProbeTrack02	17	ProbeTrack	12.1	SCS215a	20101008.144706	20101008.145724	8	0.013328	60	10	60-180	60	128	GapExp	0	96	2	6	1	target	1	613	694	26791	13.428	12.872	26.639
DTProbeTrack02	17	ProbeTrack	12.1	SCS215a	20101008.144706	20101008.145730	8	0.013328	60	10	60-180	60	157	GapExp	0	97	2	45	0	distractor	1	1733	134	26925	13.328	12.935	13.736
DTProbeTrack02	17	ProbeTrack	12.1	SCS215a	20101008.144706	20101008.145738	8	0.013328	60	10	60-180	60	104	GapExp	0	98	2	9	1	target	1	427	787	27712	13.385	12.946	27.035
DTProbeTrack02	17	ProbeTrack	12.1	SCS215a	20101008.144706	20101008.145743	8	0.013328	60	10	60-180	60	141	GapExp	0	99	2	1	0	target	0	534	-1000	26712	13.377	12.997	26.565
DTProbeTrack02	17	ProbeTrack	12.1	SCS215a	20101008.144706	20101008.145749	8	0.013328	60	10	60-180	60	179	GapExp	0	100	2	6	0	distractor	1	600	700	27412	13.328	13.022	13.625
DTProbeTrack02	17	ProbeTrack	12.1	SCS215a	20101008.144706	20101008.145831	8	0.013328	60	10	60-180	60	118	GapExp	0	101	2	1	1	distractor	0	593	-1000	26412	13.381	12.877	27.017
DTProbeTrack02	17	ProbeTrack	12.1	SCS215a	20101008.144706	20101008.145837	8	0.013328	60	10	60-180	60	95	GapExp	0	102	2	9	0	target	0	707	-1000	25412	13.328	12.858	13.795
DTProbeTrack02	17	ProbeTrack	12.1	SCS215a	20101008.144706	20101008.145842	8	0.013328	60	10	60-180	60	170	GapExp	0	103	2	9	1	target	1	627	687	26099	13.498	12.831	27.138
DTProbeTrack02	17	ProbeTrack	12.1	SCS215a	20101008.144706	20101008.145849	8	0.013328	60	10	60-180	60	103	GapExp	0	104	2	1	1	distractor	0	760	-1000	25099	13.328	12.935	13.720
DTProbeTrack02	17	ProbeTrack	12.1	SCS215a	20101008.144706	20101008.145854	8	0.013328	60	10	60-180	60	171	GapExp	0	105	2	1	1	target	1	427	787	25886	13.465	13.093	26.723
DTProbeTrack02	17	ProbeTrack	12.1	SCS215a	20101008.144706	20101008.145900	8	0.013328	60	10	60-180	60	116	GapExp	0	106	2	9	1	target	1	480	760	26646	13.328	13.109	13.553
DTProbeTrack02	17	ProbeTrack	12.1	SCS215a	20101008.144706	20101008.145906	8	0.013328	60	10	60-180	60	177	GapExp	0	107	2	1	0	target	0	587	-1000	25646	13.328	13.085	13.556
DTProbeTrack02	17	ProbeTrack	12.1	SCS215a	20101008.144706	20101008.145912	8	0.013328	60	10	60-180	60	83	GapExp	0	108	2	3	0	distractor	1	1027	487	26133	13.328	13.261	13.395
DTProbeTrack02	17	ProbeTrack	12.1	SCS215a	20101008.144706	20101008.145918	8	0.013328	60	10	60-180	60	112	GapExp	0	109	2	45	1	target	1	853	574	26707	13.328	12.930	13.723
DTProbeTrack02	17	ProbeTrack	12.1	SCS215a	20101008.144706	20101008.145924	8	0.013328	60	10	60-180	60	112	GapExp	0	110	2	3	1	target	1	880	560	27267	13.328	13.311	13.348
DTProbeTrack02	17	ProbeTrack	12.1	SCS215a	20101008.144706	20101008.145930	8	0.013328	60	10	60-180	60	61	GapExp	0	111	2	45	0	distractor	1	840	580	27847	13.328	12.975	13.683
DTProbeTrack02	17	ProbeTrack	12.1	SCS215a	20101008.144706	20101008.145936	8	0.013328	60	10	60-180	60	137	GapExp	0	112	2	9	0	distractor	1	526	737	28584	13.377	12.981	26.995
DTProbeTrack02	17	ProbeTrack	12.1	SCS215a	20101008.144706	20101008.145942	8	0.013328	60	10	60-180	60	64	GapExp	0	113	2	45	1	target	1	560	720	29304	13.384	12.871	26.629
DTProbeTrack02	17	ProbeTrack	12.1	SCS215a	20101008.144706	20101008.145947	8	0.013328	60	10	60-180	60	99	GapExp	0	114	2	6	0	distractor	1	628	686	29990	13.385	12.916	26.538
DTProbeTrack02	17	ProbeTrack	12.1	SCS215a	20101008.144706	20101008.145953	8	0.013328	60	10	60-180	60	87	GapExp	0	115	2	1	0	distractor	1	574	713	30703	13.328	12.882	13.770
DTProbeTrack02	17	ProbeTrack	12.1	SCS215a	20101008.144706	20101008.145958	8	0.013328	60	10	60-180	60	78	GapExp	0	116	2	45	0	target	0	693	-1000	29703	13.378	12.841	13.816
DTProbeTrack02	17	ProbeTrack	12.1	SCS215a	20101008.144706	20101008.150004	8	0.013328	60	10	60-180	60	173	GapExp	0	117	2	6	1	distractor	0	507	-1000	28703	13.372	13.035	26.334
DTProbeTrack02	17	ProbeTrack	12.1	SCS215a	20101008.144706	20101008.150010	8	0.013328	60	10	60-180	60	177	GapExp	0	118	2	9	1	distractor	0	867	-1000	27703	13.408	12.883	26.812
DTProbeTrack02	17	ProbeTrack	12.1	SCS215a	20101008.144706	20101008.150017	8	0.013328	60	10	60-180	60	146	GapExp	0	119	2	1	1	target	1	415	793	28496	13.428	12.858	26.698
DTProbeTrack02	17	ProbeTrack	12.1	SCS215a	20101008.144706	20101008.150023	8	0.013328	60	10	60-180	60	78	GapExp	0	120	2	3	1	target	1	680	660	29156	13.451	12.880	39.882
DTProbeTrack02	17	ProbeTrack	12.1	SCS215a	20101008.144706	20101008.150028	8	0.013328	60	10	60-180	60	68	GapExp	0	121	2	9	0	distractor	1	1177	412	29568	13.388	12.896	26.636
DTProbeTrack02	17	ProbeTrack	12.1	SCS215a	20101008.144706	20101008.150034	8	0.013328	60	10	60-180	60	97	GapExp	0	122	2	45	1	target	1	587	707	30275	13.328	12.975	13.676
DTProbeTrack02	17	ProbeTrack	12.1	SCS215a	20101008.144706	20101008.150040	8	0.013328	60	10	60-180	60	171	GapExp	0	123	2	3	0	distractor	1	507	747	31022	13.417	12.888	27.082
DTProbeTrack02	17	ProbeTrack	12.1	SCS215a	20101008.144706	20101008.150046	8	0.013328	60	10	60-180	60	165	GapExp	0	124	2	9	0	distractor	1	507	747	31769	13.417	12.894	26.698
DTProbeTrack02	17	ProbeTrack	12.1	SCS215a	20101008.144706	20101008.150052	8	0.013328	60	10	60-180	60	94	GapExp	0	125	2	3	0	distractor	1	600	700	32469	13.445	12.914	39.672
DTProbeTrack02	17	ProbeTrack	12.1	SCS215a	20101008.144706	20101008.150058	8	0.013328	60	10	60-180	60	88	GapExp	0	126	2	9	0	distractor	1	1053	474	32943	13.548	13.068	26.921
DTProbeTrack02	17	ProbeTrack	12.1	SCS215a	20101008.144706	20101008.150104	8	0.013328	60	10	60-180	60	141	GapExp	0	127	2	45	0	distractor	1	507	747	33690	13.371	12.907	27.076
DTProbeTrack02	17	ProbeTrack	12.1	SCS215a	20101008.144706	20101008.150110	8	0.013328	60	10	60-180	60	61	GapExp	0	128	2	9	0	target	0	840	-1000	32690	13.328	12.854	13.800
DTProbeTrack02	17	ProbeTrack	12.1	SCS215a	20101008.144706	20101008.150115	8	0.013328	60	10	60-180	60	85	GapExp	0	129	2	3	1	target	1	654	673	33363	13.328	12.876	13.784
DTProbeTrack02	17	ProbeTrack	12.1	SCS215a	20101008.144706	20101008.150120	8	0.013328	60	10	60-180	60	106	GapExp	0	130	2	45	1	distractor	0	280	-1000	32363	13.328	12.866	13.784
DTProbeTrack02	17	ProbeTrack	12.1	SCS215a	20101008.144706	20101008.150126	8	0.013328	60	10	60-180	60	138	GapExp	0	131	2	45	1	target	1	400	800	33163	13.328	13.100	13.673
DTProbeTrack02	17	ProbeTrack	12.1	SCS215a	20101008.144706	20101008.150133	8	0.013328	60	10	60-180	60	108	GapExp	0	132	2	3	0	distractor	1	614	693	33856	13.328	12.890	13.762
DTProbeTrack02	17	ProbeTrack	12.1	SCS215a	20101008.144706	20101008.150138	8	0.013328	60	10	60-180	60	129	GapExp	0	133	2	1	1	distractor	0	400	-1000	32856	13.328	13.236	13.425
DTProbeTrack02	17	ProbeTrack	12.1	SCS215a	20101008.144706	20101008.150144	8	0.013328	60	10	60-180	60	167	GapExp	0	134	2	45	1	target	1	2839	0	32856	13.402	12.843	39.612
DTProbeTrack02	17	ProbeTrack	12.1	SCS215a	20101008.144706	20101008.150153	8	0.013328	60	10	60-180	60	78	GapExp	0	135	2	45	0	distractor	1	600	700	33556	13.328	13.011	13.651
DTProbeTrack02	17	ProbeTrack	12.1	SCS215a	20101008.144706	20101008.150158	8	0.013328	60	10	60-180	60	78	GapExp	0	136	2	45	0	distractor	1	1973	14	33570	13.328	12.892	13.750
DTProbeTrack02	17	ProbeTrack	12.1	SCS215a	20101008.144706	20101008.150206	8	0.013328	60	10	60-180	60	130	GapExp	0	137	2	45	1	target	1	427	787	34357	13.328	13.066	13.581
DTProbeTrack02	17	ProbeTrack	12.1	SCS215a	20101008.144706	20101008.150212	8	0.013328	60	10	60-180	60	140	GapExp	0	138	2	1	1	distractor	0	787	-1000	33357	13.374	12.983	26.956
DTProbeTrack02	17	ProbeTrack	12.1	SCS215a	20101008.144706	20101008.150218	8	0.013328	60	10	60-180	60	89	GapExp	0	139	2	45	1	target	1	640	680	34037	13.328	13.044	13.717
DTProbeTrack02	17	ProbeTrack	12.1	SCS215a	20101008.144706	20101008.150224	8	0.013328	60	10	60-180	60	87	GapExp	0	140	2	45	1	target	1	984	508	34545	13.328	13.003	13.641
DTProbeTrack02	17	ProbeTrack	12.1	SCS215a	20101008.144706	20101008.150230	8	0.013328	60	10	60-180	60	100	GapExp	0	141	2	9	0	target	0	880	-1000	33545	13.328	13.099	13.552
DTProbeTrack02	17	ProbeTrack	12.1	SCS215a	20101008.144706	20101008.150236	8	0.013328	60	10	60-180	60	161	GapExp	0	142	2	45	1	target	1	523	739	34284	13.368	12.906	27.030
DTProbeTrack02	17	ProbeTrack	12.1	SCS215a	20101008.144706	20101008.150242	8	0.013328	60	10	60-180	60	169	GapExp	0	143	2	3	0	target	0	560	-1000	33284	13.328	12.944	13.705
DTProbeTrack02	17	ProbeTrack	12.1	SCS215a	20101008.144706	20101008.150249	8	0.013328	60	10	60-180	60	115	GapExp	0	144	2	3	0	distractor	1	360	820	34104	13.385	12.853	27.141
DTProbeTrack02	17	ProbeTrack	12.1	SCS215a	20101008.144706	20101008.150254	8	0.013328	60	10	60-180	60	159	GapExp	0	145	2	45	0	distractor	1	720	640	34744	13.405	12.876	26.606
DTProbeTrack02	17	ProbeTrack	12.1	SCS215a	20101008.144706	20101008.150301	8	0.013328	60	10	60-180	60	153	GapExp	0	146	2	6	1	target	1	467	767	35511	13.328	13.014	13.654
DTProbeTrack02	17	ProbeTrack	12.1	SCS215a	20101008.144706	20101008.150307	8	0.013328	60	10	60-180	60	157	GapExp	0	147	2	3	1	target	1	613	694	36205	13.372	13.002	13.649
DTProbeTrack02	17	ProbeTrack	12.1	SCS215a	20101008.144706	20101008.150313	8	0.013328	60	10	60-180	60	147	GapExp	0	148	2	45	0	distractor	1	813	594	36799	13.328	12.875	13.784
DTProbeTrack02	17	ProbeTrack	12.1	SCS215a	20101008.144706	20101008.150320	8	0.013328	60	10	60-180	60	76	GapExp	0	149	2	6	0	distractor	1	893	554	37353	13.328	12.827	13.801
DTProbeTrack02	17	ProbeTrack	12.1	SCS215a	20101008.144706	20101008.150325	8	0.013328	60	10	60-180	60	85	GapExp	0	150	2	1	1	target	1	893	554	37907	13.443	12.853	26.763
DTProbeTrack02	17	ProbeTrack	12.1	SCS215a	20101008.144706	20101008.150340	8	0.013328	60	10	60-180	60	162	GapExp	0	151	2	6	0	distractor	1	534	733	38640	13.602	12.854	27.052
DTProbeTrack02	17	ProbeTrack	12.1	SCS215a	20101008.144706	20101008.150346	8	0.013328	60	10	60-180	60	168	GapExp	0	152	2	1	1	distractor	0	680	-1000	37640	13.371	12.938	27.006
DTProbeTrack02	17	ProbeTrack	12.1	SCS215a	20101008.144706	20101008.150353	8	0.013328	60	10	60-180	60	67	GapExp	0	153	2	6	0	target	0	507	-1000	36640	13.395	12.976	26.670
DTProbeTrack02	17	ProbeTrack	12.1	SCS215a	20101008.144706	20101008.150358	8	0.013328	60	10	60-180	60	138	GapExp	0	154	2	1	0	distractor	1	747	627	37267	13.328	12.958	13.696
DTProbeTrack02	17	ProbeTrack	12.1	SCS215a	20101008.144706	20101008.150404	8	0.013328	60	10	60-180	60	162	GapExp	0	155	2	6	1	target	1	400	800	38067	13.328	12.909	13.742
DTProbeTrack02	17	ProbeTrack	12.1	SCS215a	20101008.144706	20101008.150410	8	0.013328	60	10	60-180	60	97	GapExp	0	156	2	6	1	target	1	1000	500	38567	13.381	12.849	27.120
DTProbeTrack02	17	ProbeTrack	12.1	SCS215a	20101008.144706	20101008.150416	8	0.013328	60	10	60-180	60	125	GapExp	0	157	2	3	0	distractor	1	627	687	39254	13.328	12.937	13.704
DTProbeTrack02	17	ProbeTrack	12.1	SCS215a	20101008.144706	20101008.150421	8	0.013328	60	10	60-180	60	118	GapExp	0	158	2	1	1	target	1	747	627	39881	13.379	12.910	27.019
DTProbeTrack02	17	ProbeTrack	12.1	SCS215a	20101008.144706	20101008.150427	8	0.013328	60	10	60-180	60	144	GapExp	0	159	2	3	1	target	1	600	700	40581	13.328	13.302	13.365
DTProbeTrack02	17	ProbeTrack	12.1	SCS215a	20101008.144706	20101008.150433	8	0.013328	60	10	60-180	60	63	GapExp	0	160	2	3	0	target	0	1906	-1000	39581	13.328	12.873	13.783
DTProbeTrack02	17	ProbeTrack	12.1	SCS215a	20101008.144706	20101008.150439	8	0.013328	60	10	60-180	60	121	GapExp	0	161	2	3	0	distractor	1	547	727	40308	13.433	12.832	26.580
DTProbeTrack02	17	ProbeTrack	12.1	SCS215a	20101008.144706	20101008.150445	8	0.013328	60	10	60-180	60	103	GapExp	0	162	2	3	1	target	1	600	700	41008	13.552	12.869	26.585
DTProbeTrack02	17	ProbeTrack	12.1	SCS215a	20101008.144706	20101008.150451	8	0.013328	60	10	60-180	60	170	GapExp	0	163	2	3	1	target	1	611	695	41703	13.416	12.865	27.086
DTProbeTrack02	17	ProbeTrack	12.1	SCS215a	20101008.144706	20101008.150457	8	0.013328	60	10	60-180	60	105	GapExp	0	164	2	6	0	distractor	1	933	534	42237	13.328	12.853	13.790
DTProbeTrack02	17	ProbeTrack	12.1	SCS215a	20101008.144706	20101008.150503	8	0.013328	60	10	60-180	60	86	GapExp	0	165	2	1	0	distractor	1	586	707	42944	13.328	12.878	13.806
DTProbeTrack02	17	ProbeTrack	12.1	SCS215a	20101008.144706	20101008.150508	8	0.013328	60	10	60-180	60	123	GapExp	0	166	2	6	1	target	1	467	767	43711	13.381	12.848	26.901
DTProbeTrack02	17	ProbeTrack	12.1	SCS215a	20101008.144706	20101008.150514	8	0.013328	60	10	60-180	60	101	GapExp	0	167	2	6	0	distractor	1	507	747	44458	13.443	12.877	27.105
DTProbeTrack02	17	ProbeTrack	12.1	SCS215a	20101008.144706	20101008.150519	8	0.013328	60	10	60-180	60	162	GapExp	0	168	2	1	0	target	0	1253	-1000	43458	13.414	12.863	26.660
DTProbeTrack02	17	ProbeTrack	12.1	SCS215a	20101008.144706	20101008.150526	8	0.013328	60	10	60-180	60	158	GapExp	0	169	2	1	0	distractor	1	667	667	44125	13.373	12.939	26.648
DTProbeTrack02	17	ProbeTrack	12.1	SCS215a	20101008.144706	20101008.150532	8	0.013328	60	10	60-180	60	178	GapExp	0	170	2	6	0	target	0	880	-1000	43125	13.328	12.856	13.801
DTProbeTrack02	17	ProbeTrack	12.1	SCS215a	20101008.144706	20101008.150539	8	0.013328	60	10	60-180	60	86	GapExp	0	171	2	1	0	distractor	1	1040	480	43605	13.328	12.896	13.790
DTProbeTrack02	17	ProbeTrack	12.1	SCS215a	20101008.144706	20101008.150545	8	0.013328	60	10	60-180	60	137	GapExp	0	172	2	6	1	target	1	628	686	44291	13.376	12.879	26.468
DTProbeTrack02	17	ProbeTrack	12.1	SCS215a	20101008.144706	20101008.150551	8	0.013328	60	10	60-180	60	61	GapExp	0	173	2	6	1	distractor	0	1200	-1000	43291	13.390	12.866	26.222
DTProbeTrack02	17	ProbeTrack	12.1	SCS215a	20101008.144706	20101008.150556	8	0.013328	60	10	60-180	60	93	GapExp	0	174	2	3	0	target	0	613	-1000	42291	13.444	12.927	27.057
DTProbeTrack02	17	ProbeTrack	12.1	SCS215a	20101008.144706	20101008.150601	8	0.013328	60	10	60-180	60	106	GapExp	0	175	2	6	1	distractor	0	1027	-1000	41291	13.431	12.903	27.083
DTProbeTrack02	17	ProbeTrack	12.1	SCS215a	20101008.144706	20101008.150607	8	0.013328	60	10	60-180	60	121	GapExp	0	176	2	1	0	distractor	1	1107	447	41738	13.328	12.905	13.761
DTProbeTrack02	17	ProbeTrack	12.1	SCS215a	20101008.144706	20101008.150614	8	0.013328	60	10	60-180	60	110	GapExp	0	177	2	45	1	target	1	587	707	42445	13.328	13.105	13.555
DTProbeTrack02	17	ProbeTrack	12.1	SCS215a	20101008.144706	20101008.150620	8	0.013328	60	10	60-180	60	163	GapExp	0	178	2	3	1	target	1	773	614	43059	13.328	12.892	13.764
DTProbeTrack02	17	ProbeTrack	12.1	SCS215a	20101008.144706	20101008.150626	8	0.013328	60	10	60-180	60	117	GapExp	0	179	2	6	1	distractor	0	574	-1000	42059	13.380	13.006	26.780
DTProbeTrack02	17	ProbeTrack	12.1	SCS215a	20101008.144706	20101008.150632	8	0.013328	60	10	60-180	60	176	GapExp	0	180	2	9	0	distractor	1	600	700	42759	13.328	12.852	13.814
DTProbeTrack02	17	ProbeTrack	12.1	SCS215a	20101008.144706	20101008.150638	8	0.013328	60	10	60-180	60	98	GapExp	0	181	2	1	1	target	1	467	767	43526	13.328	12.920	13.734
DTProbeTrack02	17	ProbeTrack	12.1	SCS215a	20101008.144706	20101008.150644	8	0.013328	60	10	60-180	60	64	GapExp	0	182	2	1	0	distractor	1	520	740	44266	13.398	13.078	26.654
DTProbeTrack02	17	ProbeTrack	12.1	SCS215a	20101008.144706	20101008.150648	8	0.013328	60	10	60-180	60	92	GapExp	0	183	2	3	0	distractor	1	547	727	44993	13.328	13.035	13.616
DTProbeTrack02	17	ProbeTrack	12.1	SCS215a	20101008.144706	20101008.150654	8	0.013328	60	10	60-180	60	80	GapExp	0	184	2	6	1	target	1	534	733	45726	13.328	12.899	13.754
DTProbeTrack02	17	ProbeTrack	12.1	SCS215a	20101008.144706	20101008.150659	8	0.013328	60	10	60-180	60	115	GapExp	0	185	2	9	1	distractor	0	880	-1000	44726	13.377	12.873	27.113
DTProbeTrack02	17	ProbeTrack	12.1	SCS215a	20101008.144706	20101008.150705	8	0.013328	60	10	60-180	60	179	GapExp	0	186	2	3	0	distractor	1	613	694	45420	13.328	13.095	13.557
DTProbeTrack02	17	ProbeTrack	12.1	SCS215a	20101008.144706	20101008.150711	8	0.013328	60	10	60-180	60	118	GapExp	0	187	2	6	1	distractor	0	587	-1000	44420	13.432	12.890	26.692
DTProbeTrack02	17	ProbeTrack	12.1	SCS215a	20101008.144706	20101008.150717	8	0.013328	60	10	60-180	60	159	GapExp	0	188	2	9	1	target	1	467	767	45187	13.374	12.857	27.067
DTProbeTrack02	17	ProbeTrack	12.1	SCS215a	20101008.144706	20101008.150723	8	0.013328	60	10	60-180	60	97	GapExp	0	189	2	3	0	distractor	1	693	654	45841	13.328	12.859	13.794
DTProbeTrack02	17	ProbeTrack	12.1	SCS215a	20101008.144706	20101008.150729	8	0.013328	60	10	60-180	60	70	GapExp	0	190	2	3	1	target	1	534	733	46574	13.328	13.309	13.346
DTProbeTrack02	17	ProbeTrack	12.1	SCS215a	20101008.144706	20101008.150734	8	0.013328	60	10	60-180	60	159	GapExp	0	191	2	6	0	distractor	1	560	720	47294	13.328	12.867	13.805
DTProbeTrack02	17	ProbeTrack	12.1	SCS215a	20101008.144706	20101008.150740	8	0.013328	60	10	60-180	60	99	GapExp	0	192	2	9	1	distractor	0	853	-1000	46294	13.328	12.887	13.755
DTProbeTrack02	17	ProbeTrack	12.1	SCS215a	20101008.144706	20101008.150746	8	0.013328	60	10	60-180	60	112	GapExp	0	193	2	9	0	target	0	667	-1000	45294	13.328	12.886	13.774
DTProbeTrack02	17	ProbeTrack	12.1	SCS215a	20101008.144706	20101008.150751	8	0.013328	60	10	60-180	60	75	GapExp	0	194	2	1	1	distractor	0	1040	-1000	44294	13.388	13.004	26.393
DTProbeTrack02	17	ProbeTrack	12.1	SCS215a	20101008.144706	20101008.150757	8	0.013328	60	10	60-180	60	158	GapExp	0	195	2	45	0	distractor	1	400	800	45094	13.369	12.880	26.983
DTProbeTrack02	17	ProbeTrack	12.1	SCS215a	20101008.144706	20101008.150803	8	0.013328	60	10	60-180	60	143	GapExp	0	196	2	9	0	distractor	1	427	787	45881	13.328	12.985	13.672
DTProbeTrack02	17	ProbeTrack	12.1	SCS215a	20101008.144706	20101008.150809	8	0.013328	60	10	60-180	60	99	GapExp	0	197	2	45	0	distractor	1	640	680	46561	13.423	12.956	27.028
DTProbeTrack02	17	ProbeTrack	12.1	SCS215a	20101008.144706	20101008.150815	8	0.013328	60	10	60-180	60	180	GapExp	0	198	2	45	0	distractor	1	615	693	47254	13.328	12.838	13.835
DTProbeTrack02	17	ProbeTrack	12.1	SCS215a	20101008.144706	20101008.150822	8	0.013328	60	10	60-180	60	139	GapExp	0	199	2	9	1	target	1	360	820	48074	13.429	12.901	26.886
DTProbeTrack02	17	ProbeTrack	12.1	SCS215a	20101008.144706	20101008.150828	8	0.013328	60	10	60-180	60	170	GapExp	0	200	2	3	1	target	1	627	687	48761	13.546	12.837	27.104
DTProbeTrack02	17	ProbeTrack	12.1	SCS215a	20101008.144706	20101008.150844	8	0.013328	60	10	60-180	60	140	GapExp	0	201	2	1	0	target	0	614	-1000	47761	13.328	12.856	13.812
DTProbeTrack02	17	ProbeTrack	12.1	SCS215a	20101008.144706	20101008.150850	8	0.013328	60	10	60-180	60	136	GapExp	0	202	2	3	0	distractor	1	667	667	48428	13.425	12.867	27.131
DTProbeTrack02	17	ProbeTrack	12.1	SCS215a	20101008.144706	20101008.150856	8	0.013328	60	10	60-180	60	150	GapExp	0	203	2	45	1	target	1	414	793	49221	13.328	13.115	13.546
DTProbeTrack02	17	ProbeTrack	12.1	SCS215a	20101008.144706	20101008.150903	8	0.013328	60	10	60-180	60	116	GapExp	0	204	2	9	0	distractor	1	587	707	49928	13.328	12.902	13.749
DTProbeTrack02	17	ProbeTrack	12.1	SCS215a	20101008.144706	20101008.150908	8	0.013328	60	10	60-180	60	129	GapExp	0	205	2	9	1	distractor	0	527	-1000	48928	13.328	13.080	13.586
