exp	sub	code	rev	comp	runtime	trialtime	nstim	refreshdur	cuedur	gapdur	gapOnsetRange	durPostProbe	gapOnsetTime	blocktype	prac	trial	ntargets	soa	probeTarget	resp	acc	rt	pts	tpts	meanFrameDur	minFrameDur	maxFrameDur
DTProbeTrack02	6	ProbeTrack	12.1	SCS215a	20100805.100531	20100805.100548	8	0.013328	60	0	60-180	60	115	NoGap	1	1	2	6	0	distractor	1	1480	260	260	13.328	13.169	13.519
DTProbeTrack02	6	ProbeTrack	12.1	SCS215a	20100805.100531	20100805.100554	8	0.013328	60	0	60-180	60	161	NoGap	1	2	2	1	1	target	1	747	627	887	13.328	13.035	13.654
DTProbeTrack02	6	ProbeTrack	12.1	SCS215a	20100805.100531	20100805.100601	8	0.013328	60	0	60-180	60	83	NoGap	1	3	2	45	1	target	1	560	720	1607	13.328	13.290	13.367
DTProbeTrack02	6	ProbeTrack	12.1	SCS215a	20100805.100531	20100805.100606	8	0.013328	60	0	60-180	60	169	NoGap	1	4	2	9	1	target	1	574	713	2320	13.328	13.293	13.363
DTProbeTrack02	6	ProbeTrack	12.1	SCS215a	20100805.100531	20100805.100612	8	0.013328	60	0	60-180	60	156	NoGap	1	5	2	1	0	distractor	1	534	733	3053	13.328	13.293	13.363
DTProbeTrack02	6	ProbeTrack	12.1	SCS215a	20100805.100531	20100805.100618	8	0.013328	60	0	60-180	60	69	NoGap	1	6	2	45	1	target	1	654	673	3726	13.328	13.098	13.526
DTProbeTrack02	6	ProbeTrack	12.1	SCS215a	20100805.100531	20100805.100624	8	0.013328	60	0	60-180	60	98	NoGap	1	7	2	9	1	target	1	587	707	4433	13.328	13.293	13.363
DTProbeTrack02	6	ProbeTrack	12.1	SCS215a	20100805.100531	20100805.100629	8	0.013328	60	0	60-180	60	106	NoGap	1	8	2	3	1	target	1	640	680	5113	13.328	13.293	13.363
DTProbeTrack02	6	ProbeTrack	12.1	SCS215a	20100805.100531	20100805.100635	8	0.013328	60	0	60-180	60	161	NoGap	1	9	2	45	1	target	1	427	787	5900	13.328	13.293	13.363
DTProbeTrack02	6	ProbeTrack	12.1	SCS215a	20100805.100531	20100805.100641	8	0.013328	60	0	60-180	60	109	NoGap	1	10	2	1	1	target	1	547	727	6627	13.328	13.293	13.364
DTProbeTrack02	6	ProbeTrack	12.1	SCS215a	20100805.100531	20100805.100647	8	0.013328	60	0	60-180	60	91	NoGap	1	11	2	3	0	distractor	1	560	720	7347	13.328	13.293	13.363
DTProbeTrack02	6	ProbeTrack	12.1	SCS215a	20100805.100531	20100805.100652	8	0.013328	60	0	60-180	60	64	NoGap	1	12	2	45	0	distractor	1	774	613	7960	13.328	13.293	13.363
DTProbeTrack02	6	ProbeTrack	12.1	SCS215a	20100805.100531	20100805.100657	8	0.013328	60	0	60-180	60	147	NoGap	1	13	2	6	0	distractor	1	694	653	8613	13.328	13.251	13.404
DTProbeTrack02	6	ProbeTrack	12.1	SCS215a	20100805.100531	20100805.100703	8	0.013328	60	0	60-180	60	175	NoGap	1	14	2	6	1	target	1	427	787	9400	13.328	13.101	13.553
DTProbeTrack02	6	ProbeTrack	12.1	SCS215a	20100805.100531	20100805.100710	8	0.013328	60	0	60-180	60	149	NoGap	1	15	2	9	0	distractor	1	707	647	10047	13.328	13.196	13.444
DTProbeTrack02	6	ProbeTrack	12.1	SCS215a	20100805.100531	20100805.100716	8	0.013328	60	0	60-180	60	160	NoGap	1	16	2	6	0	distractor	1	654	673	10720	13.328	13.293	13.363
DTProbeTrack02	6	ProbeTrack	12.1	SCS215a	20100805.100531	20100805.100722	8	0.013328	60	0	60-180	60	112	NoGap	1	17	2	6	1	target	1	467	767	11487	13.328	13.278	13.407
DTProbeTrack02	6	ProbeTrack	12.1	SCS215a	20100805.100531	20100805.100727	8	0.013328	60	0	60-180	60	114	NoGap	1	18	2	9	0	distractor	1	627	687	12174	13.328	12.942	13.712
DTProbeTrack02	6	ProbeTrack	12.1	SCS215a	20100805.100531	20100805.100733	8	0.013328	60	0	60-180	60	76	NoGap	1	19	2	3	1	distractor	0	587	-1000	11174	13.328	13.080	13.609
DTProbeTrack02	6	ProbeTrack	12.1	SCS215a	20100805.100531	20100805.100738	8	0.013328	60	0	60-180	60	148	NoGap	1	20	2	1	0	distractor	1	880	560	11734	13.328	13.293	13.363
DTProbeTrack02	6	ProbeTrack	12.1	SCS215a	20100805.100531	20100805.100744	8	0.013328	60	0	60-180	60	152	NoGap	1	21	2	1	1	target	1	733	634	12368	13.328	13.293	13.363
DTProbeTrack02	6	ProbeTrack	12.1	SCS215a	20100805.100531	20100805.100750	8	0.013328	60	0	60-180	60	132	NoGap	1	22	2	6	1	target	1	720	640	13008	13.328	13.293	13.364
DTProbeTrack02	6	ProbeTrack	12.1	SCS215a	20100805.100531	20100805.100756	8	0.013328	60	0	60-180	60	174	NoGap	1	23	2	1	0	distractor	1	614	693	13701	13.373	12.853	27.165
DTProbeTrack02	6	ProbeTrack	12.1	SCS215a	20100805.100531	20100805.100803	8	0.013328	60	0	60-180	60	165	NoGap	1	24	2	45	0	distractor	1	640	680	14381	13.328	13.293	13.363
DTProbeTrack02	6	ProbeTrack	12.1	SCS215a	20100805.100531	20100805.100809	8	0.013328	60	0	60-180	60	117	NoGap	1	25	2	6	0	distractor	1	520	740	15121	13.328	13.293	13.363
DTProbeTrack02	6	ProbeTrack	12.1	SCS215a	20100805.100531	20100805.100815	8	0.013328	60	0	60-180	60	149	NoGap	1	26	2	45	0	distractor	1	840	580	15701	13.328	13.243	13.413
DTProbeTrack02	6	ProbeTrack	12.1	SCS215a	20100805.100531	20100805.100822	8	0.013328	60	0	60-180	60	74	NoGap	1	27	2	3	1	distractor	0	1040	-1000	14701	13.328	13.293	13.363
DTProbeTrack02	6	ProbeTrack	12.1	SCS215a	20100805.100531	20100805.100827	8	0.013328	60	0	60-180	60	169	NoGap	1	28	2	6	1	target	1	494	753	15454	13.374	13.047	26.263
DTProbeTrack02	6	ProbeTrack	12.1	SCS215a	20100805.100531	20100805.100833	8	0.013328	60	0	60-180	60	75	NoGap	1	29	2	1	1	target	1	733	634	16088	13.328	13.293	13.363
DTProbeTrack02	6	ProbeTrack	12.1	SCS215a	20100805.100531	20100805.100838	8	0.013328	60	0	60-180	60	74	NoGap	1	30	2	9	0	distractor	1	653	674	16762	13.328	13.255	13.402
DTProbeTrack02	6	ProbeTrack	12.1	SCS215a	20100805.100531	20100805.100843	8	0.013328	60	0	60-180	60	87	NoGap	1	31	2	3	0	distractor	1	560	720	17482	13.328	13.293	13.363
DTProbeTrack02	6	ProbeTrack	12.1	SCS215a	20100805.100531	20100805.100848	8	0.013328	60	0	60-180	60	132	NoGap	1	32	2	45	0	distractor	1	427	787	18269	13.328	13.293	13.363
DTProbeTrack02	6	ProbeTrack	12.1	SCS215a	20100805.100531	20100805.100855	8	0.013328	60	0	60-180	60	123	NoGap	1	33	2	9	0	distractor	1	507	747	19016	13.328	13.293	13.363
DTProbeTrack02	6	ProbeTrack	12.1	SCS215a	20100805.100531	20100805.100900	8	0.013328	60	0	60-180	60	171	NoGap	1	34	2	45	1	target	1	547	727	19743	13.328	13.293	13.363
DTProbeTrack02	6	ProbeTrack	12.1	SCS215a	20100805.100531	20100805.100907	8	0.013328	60	0	60-180	60	147	NoGap	1	35	2	3	0	distractor	1	627	687	20430	13.328	13.105	13.568
DTProbeTrack02	6	ProbeTrack	12.1	SCS215a	20100805.100531	20100805.100913	8	0.013328	60	0	60-180	60	99	NoGap	1	36	2	3	0	distractor	1	640	680	21110	13.328	13.012	13.612
DTProbeTrack02	6	ProbeTrack	12.1	SCS215a	20100805.100531	20100805.100918	8	0.013328	60	0	60-180	60	153	NoGap	1	37	2	9	1	distractor	0	773	-1000	20110	13.328	12.952	13.735
DTProbeTrack02	6	ProbeTrack	12.1	SCS215a	20100805.100531	20100805.100924	8	0.013328	60	0	60-180	60	176	NoGap	1	38	2	9	1	target	1	467	767	20877	13.328	12.988	13.666
DTProbeTrack02	6	ProbeTrack	12.1	SCS215a	20100805.100531	20100805.100931	8	0.013328	60	0	60-180	60	168	NoGap	1	39	2	3	1	target	1	627	687	21564	13.328	13.046	13.609
DTProbeTrack02	6	ProbeTrack	12.1	SCS215a	20100805.100531	20100805.100937	8	0.013328	60	0	60-180	60	96	NoGap	1	40	2	1	0	distractor	1	720	640	22204	13.328	13.134	13.522
DTProbeTrack02	6	ProbeTrack	12.1	SCS215a	20100805.101051	20100805.101058	8	0.013328	60	10	60-180	60	149	GapPrac	1	1	2	6	1	target	1	574	713	22917	13.328	12.945	13.678
DTProbeTrack02	6	ProbeTrack	12.1	SCS215a	20100805.101051	20100805.101104	8	0.013328	60	10	60-180	60	105	GapPrac	1	2	2	1	0	distractor	1	520	740	23657	13.328	13.007	13.682
DTProbeTrack02	6	ProbeTrack	12.1	SCS215a	20100805.101051	20100805.101110	8	0.013328	60	10	60-180	60	65	GapPrac	1	3	2	1	1	target	1	427	787	24444	13.328	13.293	13.363
DTProbeTrack02	6	ProbeTrack	12.1	SCS215a	20100805.101051	20100805.101114	8	0.013328	60	10	60-180	60	62	GapPrac	1	4	2	45	1	target	1	653	674	25118	13.328	13.052	13.605
DTProbeTrack02	6	ProbeTrack	12.1	SCS215a	20100805.101051	20100805.101120	8	0.013328	60	10	60-180	60	95	GapPrac	1	5	2	9	0	distractor	1	494	753	25871	13.328	13.232	13.424
DTProbeTrack02	6	ProbeTrack	12.1	SCS215a	20100805.101051	20100805.101125	8	0.013328	60	10	60-180	60	173	GapPrac	1	6	2	6	1	target	1	374	813	26684	13.328	12.967	13.722
DTProbeTrack02	6	ProbeTrack	12.1	SCS215a	20100805.101051	20100805.101131	8	0.013328	60	10	60-180	60	118	GapPrac	1	7	2	9	1	distractor	0	653	-1000	25684	13.328	13.036	13.620
DTProbeTrack02	6	ProbeTrack	12.1	SCS215a	20100805.101051	20100805.101137	8	0.013328	60	10	60-180	60	121	GapPrac	1	8	2	45	0	distractor	1	520	740	26424	13.328	13.292	13.363
DTProbeTrack02	6	ProbeTrack	12.1	SCS215a	20100805.101051	20100805.101143	8	0.013328	60	10	60-180	60	178	GapPrac	1	9	2	45	1	target	1	654	673	27097	13.328	13.227	13.461
DTProbeTrack02	6	ProbeTrack	12.1	SCS215a	20100805.101051	20100805.101151	8	0.013328	60	10	60-180	60	155	GapPrac	1	10	2	6	0	distractor	1	600	700	27797	13.328	13.109	13.546
DTProbeTrack02	6	ProbeTrack	12.1	SCS215a	20100805.101051	20100805.101157	8	0.013328	60	10	60-180	60	70	GapPrac	1	11	2	1	0	distractor	1	773	614	28411	13.328	13.006	13.648
DTProbeTrack02	6	ProbeTrack	12.1	SCS215a	20100805.101051	20100805.101202	8	0.013328	60	10	60-180	60	156	GapPrac	1	12	2	3	1	target	1	387	807	29218	13.328	12.970	13.719
DTProbeTrack02	6	ProbeTrack	12.1	SCS215a	20100805.101051	20100805.101208	8	0.013328	60	10	60-180	60	66	GapPrac	1	13	2	1	1	target	1	654	673	29891	13.328	13.111	13.545
DTProbeTrack02	6	ProbeTrack	12.1	SCS215a	20100805.101051	20100805.101213	8	0.013328	60	10	60-180	60	79	GapPrac	1	14	2	9	1	target	1	574	713	30604	13.328	13.218	13.439
DTProbeTrack02	6	ProbeTrack	12.1	SCS215a	20100805.101051	20100805.101218	8	0.013328	60	10	60-180	60	129	GapPrac	1	15	2	3	1	target	1	400	800	31404	13.328	13.199	13.402
DTProbeTrack02	6	ProbeTrack	12.1	SCS215a	20100805.101051	20100805.101224	8	0.013328	60	10	60-180	60	92	GapPrac	1	16	2	3	0	distractor	1	587	707	32111	13.328	13.205	13.484
DTProbeTrack02	6	ProbeTrack	12.1	SCS215a	20100805.101051	20100805.101229	8	0.013328	60	10	60-180	60	85	GapPrac	1	17	2	3	0	distractor	1	654	673	32784	13.328	13.293	13.363
DTProbeTrack02	6	ProbeTrack	12.1	SCS215a	20100805.101051	20100805.101234	8	0.013328	60	10	60-180	60	148	GapPrac	1	18	2	9	0	distractor	1	614	693	33477	13.328	12.991	13.698
DTProbeTrack02	6	ProbeTrack	12.1	SCS215a	20100805.101051	20100805.101240	8	0.013328	60	10	60-180	60	88	GapPrac	1	19	2	45	0	target	0	760	-1000	32477	13.328	13.172	13.451
DTProbeTrack02	6	ProbeTrack	12.1	SCS215a	20100805.101051	20100805.101247	8	0.013328	60	10	60-180	60	77	GapPrac	1	20	2	6	0	distractor	1	720	640	33117	13.328	13.063	13.558
DTProbeTrack02	6	ProbeTrack	12.1	SCS215a	20100805.101605	20100805.101611	8	0.013328	60	10	60-180	60	126	GapPrac	1	1	2	45	0	distractor	1	760	620	33737	13.328	13.293	13.365
DTProbeTrack02	6	ProbeTrack	12.1	SCS215a	20100805.101605	20100805.101617	8	0.013328	60	10	60-180	60	115	GapPrac	1	2	2	3	1	target	1	360	820	34557	13.328	13.292	13.366
DTProbeTrack02	6	ProbeTrack	12.1	SCS215a	20100805.101605	20100805.101622	8	0.013328	60	10	60-180	60	102	GapPrac	1	3	2	45	1	target	1	467	767	35324	13.328	13.292	13.363
DTProbeTrack02	6	ProbeTrack	12.1	SCS215a	20100805.101605	20100805.101628	8	0.013328	60	10	60-180	60	94	GapPrac	1	4	2	6	0	distractor	1	640	680	36004	13.328	13.293	13.363
DTProbeTrack02	6	ProbeTrack	12.1	SCS215a	20100805.101605	20100805.101634	8	0.013328	60	10	60-180	60	172	GapPrac	1	5	2	45	0	distractor	1	627	687	36691	13.328	13.293	13.363
DTProbeTrack02	6	ProbeTrack	12.1	SCS215a	20100805.101605	20100805.101641	8	0.013328	60	10	60-180	60	85	GapPrac	1	6	2	6	1	target	1	827	587	37278	13.328	13.293	13.363
DTProbeTrack02	6	ProbeTrack	12.1	SCS215a	20100805.101605	20100805.101646	8	0.013328	60	10	60-180	60	112	GapPrac	1	7	2	1	0	distractor	1	547	727	38005	13.328	12.949	13.672
DTProbeTrack02	6	ProbeTrack	12.1	SCS215a	20100805.101605	20100805.101652	8	0.013328	60	10	60-180	60	94	GapPrac	1	8	2	9	0	distractor	1	560	720	38725	13.328	13.280	13.363
DTProbeTrack02	6	ProbeTrack	12.1	SCS215a	20100805.101605	20100805.101657	8	0.013328	60	10	60-180	60	83	GapPrac	1	9	2	1	1	target	1	414	793	39518	13.328	13.293	13.363
DTProbeTrack02	6	ProbeTrack	12.1	SCS215a	20100805.101605	20100805.101702	8	0.013328	60	10	60-180	60	142	GapPrac	1	10	2	9	1	target	1	440	780	40298	13.328	13.293	13.363
DTProbeTrack02	6	ProbeTrack	12.1	SCS215a	20100805.101605	20100805.101708	8	0.013328	60	10	60-180	60	82	GapPrac	1	11	2	45	1	target	1	640	680	40978	13.328	13.293	13.363
DTProbeTrack02	6	ProbeTrack	12.1	SCS215a	20100805.101605	20100805.101713	8	0.013328	60	10	60-180	60	174	GapPrac	1	12	2	6	0	distractor	1	3239	0	40978	13.328	13.293	13.363
DTProbeTrack02	6	ProbeTrack	12.1	SCS215a	20100805.101605	20100805.101722	8	0.013328	60	10	60-180	60	155	GapPrac	1	13	2	9	0	distractor	1	893	554	41532	13.328	13.293	13.363
DTProbeTrack02	6	ProbeTrack	12.1	SCS215a	20100805.101605	20100805.101729	8	0.013328	60	10	60-180	60	115	GapPrac	1	14	2	3	0	target	0	760	-1000	40532	13.328	13.008	13.647
DTProbeTrack02	6	ProbeTrack	12.1	SCS215a	20100805.101605	20100805.101735	8	0.013328	60	10	60-180	60	81	GapPrac	1	15	2	6	1	target	1	653	674	41206	13.328	13.187	13.469
DTProbeTrack02	6	ProbeTrack	12.1	SCS215a	20100805.101605	20100805.101740	8	0.013328	60	10	60-180	60	84	GapPrac	1	16	2	3	1	target	1	693	654	41860	13.328	12.992	13.664
DTProbeTrack02	6	ProbeTrack	12.1	SCS215a	20100805.101605	20100805.101745	8	0.013328	60	10	60-180	60	153	GapPrac	1	17	2	9	1	distractor	0	840	-1000	40860	13.328	12.951	13.671
DTProbeTrack02	6	ProbeTrack	12.1	SCS215a	20100805.101605	20100805.101752	8	0.013328	60	10	60-180	60	74	GapPrac	1	18	2	1	0	target	0	667	-1000	39860	13.328	13.293	13.363
DTProbeTrack02	6	ProbeTrack	12.1	SCS215a	20100805.101605	20100805.101757	8	0.013328	60	10	60-180	60	81	GapPrac	1	19	2	3	0	distractor	1	880	560	40420	13.328	13.293	13.363
DTProbeTrack02	6	ProbeTrack	12.1	SCS215a	20100805.101605	20100805.101802	8	0.013328	60	10	60-180	60	77	GapPrac	1	20	2	1	1	target	1	827	587	41007	13.328	13.292	13.364
DTProbeTrack02	6	ProbeTrack	12.1	SCS215a	20100805.101847	20100805.101853	8	0.013328	60	10	60-180	60	122	GapExp	1	1	2	45	1	target	1	627	687	41694	13.328	13.293	13.363
DTProbeTrack02	6	ProbeTrack	12.1	SCS215a	20100805.101847	20100805.101859	8	0.013328	60	10	60-180	60	152	GapExp	1	2	2	9	0	distractor	1	787	607	42301	13.328	12.925	13.697
DTProbeTrack02	6	ProbeTrack	12.1	SCS215a	20100805.101847	20100805.101906	8	0.013328	60	10	60-180	60	116	GapExp	1	3	2	6	0	distractor	1	627	687	42988	13.328	12.961	13.694
DTProbeTrack02	6	ProbeTrack	12.1	SCS215a	20100805.101847	20100805.101911	8	0.013328	60	10	60-180	60	119	GapExp	1	4	2	45	0	target	0	880	-1000	41988	13.328	13.293	13.364
DTProbeTrack02	6	ProbeTrack	12.1	SCS215a	20100805.101847	20100805.101918	8	0.013328	60	10	60-180	60	92	GapExp	1	5	2	3	0	distractor	1	907	547	42535	13.328	13.293	13.363
DTProbeTrack02	6	ProbeTrack	12.1	SCS215a	20100805.101847	20100805.101923	8	0.013328	60	10	60-180	60	98	GapExp	0	6	2	3	0	distractor	1	654	673	43208	13.328	13.293	13.363
DTProbeTrack02	6	ProbeTrack	12.1	SCS215a	20100805.101847	20100805.101929	8	0.013328	60	10	60-180	60	89	GapExp	0	7	2	6	0	distractor	1	614	693	43901	13.328	13.293	13.363
DTProbeTrack02	6	ProbeTrack	12.1	SCS215a	20100805.101847	20100805.101934	8	0.013328	60	10	60-180	60	145	GapExp	0	8	2	3	0	distractor	1	880	560	44461	13.328	13.063	13.593
DTProbeTrack02	6	ProbeTrack	12.1	SCS215a	20100805.101847	20100805.101940	8	0.013328	60	10	60-180	60	82	GapExp	0	9	2	1	0	target	0	1933	-1000	43461	13.328	13.293	13.363
DTProbeTrack02	6	ProbeTrack	12.1	SCS215a	20100805.101847	20100805.101947	8	0.013328	60	10	60-180	60	78	GapExp	0	10	2	3	1	distractor	0	2386	-1000	42461	13.328	13.293	13.363
DTProbeTrack02	6	ProbeTrack	12.1	SCS215a	20100805.101847	20100805.101954	8	0.013328	60	10	60-180	60	79	GapExp	0	11	2	45	1	distractor	0	733	-1000	41461	13.328	13.293	13.368
DTProbeTrack02	6	ProbeTrack	12.1	SCS215a	20100805.101847	20100805.101959	8	0.013328	60	10	60-180	60	130	GapExp	0	12	2	9	1	target	1	494	753	42214	13.328	13.236	13.386
DTProbeTrack02	6	ProbeTrack	12.1	SCS215a	20100805.101847	20100805.102005	8	0.013328	60	10	60-180	60	158	GapExp	0	13	2	45	0	target	0	1280	-1000	41214	13.328	13.293	13.363
DTProbeTrack02	6	ProbeTrack	12.1	SCS215a	20100805.101847	20100805.102013	8	0.013328	60	10	60-180	60	151	GapExp	0	14	2	9	0	distractor	1	1013	494	41708	13.328	13.293	13.363
DTProbeTrack02	6	ProbeTrack	12.1	SCS215a	20100805.101847	20100805.102019	8	0.013328	60	10	60-180	60	131	GapExp	0	15	2	6	1	target	1	827	587	42295	13.328	13.293	13.365
DTProbeTrack02	6	ProbeTrack	12.1	SCS215a	20100805.101847	20100805.102025	8	0.013328	60	10	60-180	60	113	GapExp	0	16	2	6	1	target	1	880	560	42855	13.328	12.994	13.628
DTProbeTrack02	6	ProbeTrack	12.1	SCS215a	20100805.101847	20100805.102031	8	0.013328	60	10	60-180	60	157	GapExp	0	17	2	45	0	distractor	1	574	713	43568	13.328	13.293	13.366
DTProbeTrack02	6	ProbeTrack	12.1	SCS215a	20100805.101847	20100805.102038	8	0.013328	60	10	60-180	60	61	GapExp	0	18	2	1	1	target	1	800	600	44168	13.328	13.293	13.363
DTProbeTrack02	6	ProbeTrack	12.1	SCS215a	20100805.101847	20100805.102043	8	0.013328	60	10	60-180	60	159	GapExp	0	19	2	45	1	target	1	587	707	44875	13.328	13.122	13.500
DTProbeTrack02	6	ProbeTrack	12.1	SCS215a	20100805.101847	20100805.102050	8	0.013328	60	10	60-180	60	169	GapExp	0	20	2	1	0	distractor	1	547	727	45602	13.328	12.955	13.699
DTProbeTrack02	6	ProbeTrack	12.1	SCS215a	20100805.101847	20100805.102056	8	0.013328	60	10	60-180	60	127	GapExp	0	21	2	45	0	distractor	1	547	727	46329	13.328	13.009	13.679
DTProbeTrack02	6	ProbeTrack	12.1	SCS215a	20100805.101847	20100805.102102	8	0.013328	60	10	60-180	60	121	GapExp	0	22	2	9	1	distractor	0	693	-1000	45329	13.328	13.293	13.363
DTProbeTrack02	6	ProbeTrack	12.1	SCS215a	20100805.101847	20100805.102108	8	0.013328	60	10	60-180	60	135	GapExp	0	23	2	9	0	distractor	1	587	707	46036	13.328	13.293	13.363
DTProbeTrack02	6	ProbeTrack	12.1	SCS215a	20100805.101847	20100805.102114	8	0.013328	60	10	60-180	60	180	GapExp	0	24	2	3	0	target	0	2173	-1000	45036	13.328	12.980	13.643
DTProbeTrack02	6	ProbeTrack	12.1	SCS215a	20100805.101847	20100805.102122	8	0.013328	60	10	60-180	60	91	GapExp	0	25	2	45	1	target	1	560	720	45756	13.328	13.097	13.558
DTProbeTrack02	6	ProbeTrack	12.1	SCS215a	20100805.101847	20100805.102128	8	0.013328	60	10	60-180	60	114	GapExp	0	26	2	1	1	distractor	0	534	-1000	44756	13.328	13.293	13.363
DTProbeTrack02	6	ProbeTrack	12.1	SCS215a	20100805.101847	20100805.102133	8	0.013328	60	10	60-180	60	180	GapExp	0	27	2	6	1	target	1	720	640	45396	13.328	13.293	13.363
DTProbeTrack02	6	ProbeTrack	12.1	SCS215a	20100805.101847	20100805.102140	8	0.013328	60	10	60-180	60	113	GapExp	0	28	2	6	1	target	1	574	713	46109	13.328	13.128	13.528
DTProbeTrack02	6	ProbeTrack	12.1	SCS215a	20100805.101847	20100805.102145	8	0.013328	60	10	60-180	60	110	GapExp	0	29	2	45	0	distractor	1	1200	400	46509	13.328	13.109	13.545
DTProbeTrack02	6	ProbeTrack	12.1	SCS215a	20100805.101847	20100805.102152	8	0.013328	60	10	60-180	60	148	GapExp	0	30	2	45	0	distractor	1	813	594	47103	13.328	13.125	13.498
DTProbeTrack02	6	ProbeTrack	12.1	SCS215a	20100805.101847	20100805.102159	8	0.013328	60	10	60-180	60	169	GapExp	0	31	2	9	1	target	1	534	733	47836	13.328	13.074	13.616
DTProbeTrack02	6	ProbeTrack	12.1	SCS215a	20100805.101847	20100805.102205	8	0.013328	60	10	60-180	60	101	GapExp	0	32	2	45	0	distractor	1	600	700	48536	13.328	13.293	13.363
DTProbeTrack02	6	ProbeTrack	12.1	SCS215a	20100805.101847	20100805.102211	8	0.013328	60	10	60-180	60	100	GapExp	0	33	2	45	1	target	1	440	780	49316	13.328	13.263	13.363
DTProbeTrack02	6	ProbeTrack	12.1	SCS215a	20100805.101847	20100805.102217	8	0.013328	60	10	60-180	60	150	GapExp	0	34	2	3	1	target	1	480	760	50076	13.328	12.981	13.641
DTProbeTrack02	6	ProbeTrack	12.1	SCS215a	20100805.101847	20100805.102223	8	0.013328	60	10	60-180	60	124	GapExp	0	35	2	3	0	distractor	1	560	720	50796	13.328	13.230	13.435
DTProbeTrack02	6	ProbeTrack	12.1	SCS215a	20100805.101847	20100805.102229	8	0.013328	60	10	60-180	60	80	GapExp	0	36	2	6	1	distractor	0	454	-1000	49796	13.328	13.293	13.363
DTProbeTrack02	6	ProbeTrack	12.1	SCS215a	20100805.101847	20100805.102234	8	0.013328	60	10	60-180	60	83	GapExp	0	37	2	1	1	target	1	534	733	50529	13.328	13.293	13.363
DTProbeTrack02	6	ProbeTrack	12.1	SCS215a	20100805.101847	20100805.102239	8	0.013328	60	10	60-180	60	72	GapExp	0	38	2	6	1	target	1	480	760	51289	13.328	13.293	13.363
DTProbeTrack02	6	ProbeTrack	12.1	SCS215a	20100805.101847	20100805.102244	8	0.013328	60	10	60-180	60	99	GapExp	0	39	2	1	0	distractor	1	760	620	51909	13.328	12.963	13.692
DTProbeTrack02	6	ProbeTrack	12.1	SCS215a	20100805.101847	20100805.102249	8	0.013328	60	10	60-180	60	170	GapExp	0	40	2	45	0	distractor	1	920	540	52449	13.328	13.290	13.365
DTProbeTrack02	6	ProbeTrack	12.1	SCS215a	20100805.101847	20100805.102256	8	0.013328	60	10	60-180	60	88	GapExp	0	41	2	3	1	distractor	0	1173	-1000	51449	13.328	13.279	13.412
DTProbeTrack02	6	ProbeTrack	12.1	SCS215a	20100805.101847	20100805.102302	8	0.013328	60	10	60-180	60	121	GapExp	0	42	2	3	0	distractor	1	627	687	52136	13.328	13.118	13.504
DTProbeTrack02	6	ProbeTrack	12.1	SCS215a	20100805.101847	20100805.102308	8	0.013328	60	10	60-180	60	133	GapExp	0	43	2	6	0	target	0	1013	-1000	51136	13.328	13.002	13.652
DTProbeTrack02	6	ProbeTrack	12.1	SCS215a	20100805.101847	20100805.102314	8	0.013328	60	10	60-180	60	93	GapExp	0	44	2	9	1	target	1	787	607	51743	13.328	13.056	13.567
DTProbeTrack02	6	ProbeTrack	12.1	SCS215a	20100805.101847	20100805.102320	8	0.013328	60	10	60-180	60	161	GapExp	0	45	2	6	0	target	0	454	-1000	50743	13.328	13.128	13.527
DTProbeTrack02	6	ProbeTrack	12.1	SCS215a	20100805.101847	20100805.102326	8	0.013328	60	10	60-180	60	79	GapExp	0	46	2	1	0	distractor	1	1013	494	51237	13.328	13.009	13.647
DTProbeTrack02	6	ProbeTrack	12.1	SCS215a	20100805.101847	20100805.102332	8	0.013328	60	10	60-180	60	72	GapExp	0	47	2	9	1	target	1	747	627	51864	13.328	13.038	13.618
DTProbeTrack02	6	ProbeTrack	12.1	SCS215a	20100805.101847	20100805.102337	8	0.013328	60	10	60-180	60	65	GapExp	0	48	2	9	0	distractor	1	853	574	52438	13.328	13.233	13.422
DTProbeTrack02	6	ProbeTrack	12.1	SCS215a	20100805.101847	20100805.102342	8	0.013328	60	10	60-180	60	118	GapExp	0	49	2	9	1	target	1	480	760	53198	13.328	13.111	13.545
DTProbeTrack02	6	ProbeTrack	12.1	SCS215a	20100805.101847	20100805.102348	8	0.013328	60	10	60-180	60	154	GapExp	0	50	2	1	0	distractor	1	640	680	53878	13.328	12.992	13.630
DTProbeTrack02	6	ProbeTrack	12.1	SCS215a	20100805.101847	20100805.102404	8	0.013328	60	10	60-180	60	115	GapExp	0	51	2	1	1	target	1	774	613	54491	13.328	13.000	13.673
DTProbeTrack02	6	ProbeTrack	12.1	SCS215a	20100805.101847	20100805.102409	8	0.013328	60	10	60-180	60	118	GapExp	0	52	2	6	1	distractor	0	440	-1000	53491	13.328	13.292	13.363
DTProbeTrack02	6	ProbeTrack	12.1	SCS215a	20100805.101847	20100805.102415	8	0.013328	60	10	60-180	60	77	GapExp	0	53	2	45	0	distractor	1	760	620	54111	13.328	13.292	13.364
DTProbeTrack02	6	ProbeTrack	12.1	SCS215a	20100805.101847	20100805.102421	8	0.013328	60	10	60-180	60	69	GapExp	0	54	2	9	0	distractor	1	853	574	54685	13.328	13.284	13.373
DTProbeTrack02	6	ProbeTrack	12.1	SCS215a	20100805.101847	20100805.102426	8	0.013328	60	10	60-180	60	73	GapExp	0	55	2	6	1	target	1	667	667	55352	13.328	13.126	13.564
DTProbeTrack02	6	ProbeTrack	12.1	SCS215a	20100805.101847	20100805.102431	8	0.013328	60	10	60-180	60	83	GapExp	0	56	2	1	0	distractor	1	787	607	55959	13.328	13.150	13.540
DTProbeTrack02	6	ProbeTrack	12.1	SCS215a	20100805.101847	20100805.102437	8	0.013328	60	10	60-180	60	69	GapExp	0	57	2	3	1	distractor	0	1280	-1000	54959	13.328	13.039	13.632
DTProbeTrack02	6	ProbeTrack	12.1	SCS215a	20100805.101847	20100805.102442	8	0.013328	60	10	60-180	60	61	GapExp	0	58	2	3	1	target	1	1493	254	55213	13.328	13.281	13.363
DTProbeTrack02	6	ProbeTrack	12.1	SCS215a	20100805.101847	20100805.102448	8	0.013328	60	10	60-180	60	86	GapExp	0	59	2	9	1	target	1	507	747	55960	13.328	12.979	13.675
DTProbeTrack02	6	ProbeTrack	12.1	SCS215a	20100805.101847	20100805.102453	8	0.013328	60	10	60-180	60	129	GapExp	0	60	2	45	0	distractor	1	773	614	56574	13.328	13.003	13.686
DTProbeTrack02	6	ProbeTrack	12.1	SCS215a	20100805.101847	20100805.102500	8	0.013328	60	10	60-180	60	154	GapExp	0	61	2	1	1	target	1	1027	487	57061	13.372	13.292	26.392
DTProbeTrack02	6	ProbeTrack	12.1	SCS215a	20100805.101847	20100805.102506	8	0.013328	60	10	60-180	60	94	GapExp	0	62	2	1	1	target	1	747	627	57688	13.328	12.975	13.680
DTProbeTrack02	6	ProbeTrack	12.1	SCS215a	20100805.101847	20100805.102512	8	0.013328	60	10	60-180	60	76	GapExp	0	63	2	6	0	distractor	1	680	660	58348	13.328	12.930	13.725
DTProbeTrack02	6	ProbeTrack	12.1	SCS215a	20100805.101847	20100805.102517	8	0.013328	60	10	60-180	60	79	GapExp	0	64	2	3	0	distractor	1	627	687	59035	13.328	13.204	13.451
DTProbeTrack02	6	ProbeTrack	12.1	SCS215a	20100805.101847	20100805.102522	8	0.013328	60	10	60-180	60	101	GapExp	0	65	2	45	0	distractor	1	867	567	59602	13.328	13.047	13.608
DTProbeTrack02	6	ProbeTrack	12.1	SCS215a	20100805.101847	20100805.102528	8	0.013328	60	10	60-180	60	152	GapExp	0	66	2	9	1	target	1	680	660	60262	13.328	12.908	13.748
DTProbeTrack02	6	ProbeTrack	12.1	SCS215a	20100805.101847	20100805.102534	8	0.013328	60	10	60-180	60	76	GapExp	0	67	2	9	1	target	1	374	813	61075	13.328	13.122	13.500
DTProbeTrack02	6	ProbeTrack	12.1	SCS215a	20100805.101847	20100805.102539	8	0.013328	60	10	60-180	60	82	GapExp	0	68	2	3	0	distractor	1	747	627	61702	13.328	13.128	13.526
DTProbeTrack02	6	ProbeTrack	12.1	SCS215a	20100805.101847	20100805.102545	8	0.013328	60	10	60-180	60	160	GapExp	0	69	2	1	1	target	1	907	547	62249	13.328	13.292	13.363
DTProbeTrack02	6	ProbeTrack	12.1	SCS215a	20100805.101847	20100805.102551	8	0.013328	60	10	60-180	60	111	GapExp	0	70	2	6	1	distractor	0	867	-1000	61249	13.328	13.174	13.482
DTProbeTrack02	6	ProbeTrack	12.1	SCS215a	20100805.101847	20100805.102557	8	0.013328	60	10	60-180	60	71	GapExp	0	71	2	3	1	target	1	1027	487	61736	13.328	13.203	13.488
DTProbeTrack02	6	ProbeTrack	12.1	SCS215a	20100805.101847	20100805.102603	8	0.013328	60	10	60-180	60	122	GapExp	0	72	2	1	1	target	1	987	507	62243	13.328	13.293	13.364
DTProbeTrack02	6	ProbeTrack	12.1	SCS215a	20100805.101847	20100805.102609	8	0.013328	60	10	60-180	60	157	GapExp	0	73	2	1	1	target	1	414	793	63036	13.328	13.293	13.366
DTProbeTrack02	6	ProbeTrack	12.1	SCS215a	20100805.101847	20100805.102615	8	0.013328	60	10	60-180	60	120	GapExp	0	74	2	9	0	distractor	1	720	640	63676	13.377	13.000	26.540
DTProbeTrack02	6	ProbeTrack	12.1	SCS215a	20100805.101847	20100805.102620	8	0.013328	60	10	60-180	60	172	GapExp	0	75	2	6	0	distractor	1	680	660	64336	13.328	13.011	13.523
DTProbeTrack02	6	ProbeTrack	12.1	SCS215a	20100805.101847	20100805.102627	8	0.013328	60	10	60-180	60	128	GapExp	0	76	2	9	0	distractor	1	600	700	65036	13.328	13.293	13.363
DTProbeTrack02	6	ProbeTrack	12.1	SCS215a	20100805.101847	20100805.102633	8	0.013328	60	10	60-180	60	140	GapExp	0	77	2	1	0	distractor	1	574	713	65749	13.328	13.135	13.521
DTProbeTrack02	6	ProbeTrack	12.1	SCS215a	20100805.101847	20100805.102639	8	0.013328	60	10	60-180	60	147	GapExp	0	78	2	1	1	target	1	693	654	66403	13.328	13.293	13.363
DTProbeTrack02	6	ProbeTrack	12.1	SCS215a	20100805.101847	20100805.102645	8	0.013328	60	10	60-180	60	107	GapExp	0	79	2	9	1	target	1	640	680	67083	13.328	13.293	13.363
DTProbeTrack02	6	ProbeTrack	12.1	SCS215a	20100805.101847	20100805.102650	8	0.013328	60	10	60-180	60	104	GapExp	0	80	2	9	0	distractor	1	733	634	67717	13.328	13.293	13.363
DTProbeTrack02	6	ProbeTrack	12.1	SCS215a	20100805.101847	20100805.102656	8	0.013328	60	10	60-180	60	124	GapExp	0	81	2	45	0	distractor	1	720	640	68357	13.328	13.290	13.363
DTProbeTrack02	6	ProbeTrack	12.1	SCS215a	20100805.101847	20100805.102702	8	0.013328	60	10	60-180	60	168	GapExp	0	82	2	1	1	target	1	507	747	69104	13.328	13.145	13.512
DTProbeTrack02	6	ProbeTrack	12.1	SCS215a	20100805.101847	20100805.102708	8	0.013328	60	10	60-180	60	96	GapExp	0	83	2	9	0	distractor	1	494	753	69857	13.328	13.293	13.363
DTProbeTrack02	6	ProbeTrack	12.1	SCS215a	20100805.101847	20100805.102714	8	0.013328	60	10	60-180	60	109	GapExp	0	84	2	45	1	target	1	480	760	70617	13.328	12.974	13.715
DTProbeTrack02	6	ProbeTrack	12.1	SCS215a	20100805.101847	20100805.102720	8	0.013328	60	10	60-180	60	96	GapExp	0	85	2	6	0	distractor	1	880	560	71177	13.328	12.975	13.682
DTProbeTrack02	6	ProbeTrack	12.1	SCS215a	20100805.101847	20100805.102725	8	0.013328	60	10	60-180	60	149	GapExp	0	86	2	9	0	distractor	1	760	620	71797	13.328	13.202	13.421
DTProbeTrack02	6	ProbeTrack	12.1	SCS215a	20100805.101847	20100805.102732	8	0.013328	60	10	60-180	60	179	GapExp	0	87	2	9	0	distractor	1	773	614	72411	13.328	13.202	13.454
DTProbeTrack02	6	ProbeTrack	12.1	SCS215a	20100805.101847	20100805.102738	8	0.013328	60	10	60-180	60	73	GapExp	0	88	2	6	0	distractor	1	800	600	73011	13.328	13.293	13.363
DTProbeTrack02	6	ProbeTrack	12.1	SCS215a	20100805.101847	20100805.102744	8	0.013328	60	10	60-180	60	159	GapExp	0	89	2	9	1	target	1	627	687	73698	13.328	13.293	13.363
DTProbeTrack02	6	ProbeTrack	12.1	SCS215a	20100805.101847	20100805.102750	8	0.013328	60	10	60-180	60	80	GapExp	0	90	2	9	0	distractor	1	973	514	74212	13.328	13.292	13.363
DTProbeTrack02	6	ProbeTrack	12.1	SCS215a	20100805.101847	20100805.102755	8	0.013328	60	10	60-180	60	111	GapExp	0	91	2	9	1	target	1	574	713	74925	13.328	13.203	13.459
DTProbeTrack02	6	ProbeTrack	12.1	SCS215a	20100805.101847	20100805.102801	8	0.013328	60	10	60-180	60	105	GapExp	0	92	2	3	0	distractor	1	534	733	75658	13.328	13.293	13.362
DTProbeTrack02	6	ProbeTrack	12.1	SCS215a	20100805.101847	20100805.102806	8	0.013328	60	10	60-180	60	138	GapExp	0	93	2	9	0	target	0	494	-1000	74658	13.328	13.292	13.363
DTProbeTrack02	6	ProbeTrack	12.1	SCS215a	20100805.101847	20100805.102812	8	0.013328	60	10	60-180	60	96	GapExp	0	94	2	9	0	distractor	1	747	627	75285	13.328	13.289	13.368
DTProbeTrack02	6	ProbeTrack	12.1	SCS215a	20100805.101847	20100805.102818	8	0.013328	60	10	60-180	60	151	GapExp	0	95	2	3	1	target	1	560	720	76005	13.328	13.293	13.364
DTProbeTrack02	6	ProbeTrack	12.1	SCS215a	20100805.101847	20100805.102824	8	0.013328	60	10	60-180	60	140	GapExp	0	96	2	1	0	distractor	1	1773	114	76119	13.328	13.113	13.542
DTProbeTrack02	6	ProbeTrack	12.1	SCS215a	20100805.101847	20100805.102831	8	0.013328	60	10	60-180	60	164	GapExp	0	97	2	45	1	target	1	574	713	76832	13.328	13.185	13.471
DTProbeTrack02	6	ProbeTrack	12.1	SCS215a	20100805.101847	20100805.102838	8	0.013328	60	10	60-180	60	116	GapExp	0	98	2	1	0	distractor	1	614	693	77525	13.328	13.293	13.363
DTProbeTrack02	6	ProbeTrack	12.1	SCS215a	20100805.101847	20100805.102843	8	0.013328	60	10	60-180	60	71	GapExp	0	99	2	1	1	target	1	614	693	78218	13.328	13.293	13.364
DTProbeTrack02	6	ProbeTrack	12.1	SCS215a	20100805.101847	20100805.102848	8	0.013328	60	10	60-180	60	125	GapExp	0	100	2	1	0	distractor	1	747	627	78845	13.377	13.205	26.625
DTProbeTrack02	6	ProbeTrack	12.1	SCS215a	20100805.101847	20100805.102904	8	0.013328	60	10	60-180	60	165	GapExp	0	101	2	45	1	target	1	507	747	79592	13.328	13.009	13.680
DTProbeTrack02	6	ProbeTrack	12.1	SCS215a	20100805.101847	20100805.102911	8	0.013328	60	10	60-180	60	180	GapExp	0	102	2	6	0	distractor	1	560	720	80312	13.328	12.032	14.632
DTProbeTrack02	6	ProbeTrack	12.1	SCS215a	20100805.101847	20100805.102918	8	0.013328	60	10	60-180	60	115	GapExp	0	103	2	6	1	target	1	534	733	81045	13.328	13.129	13.526
DTProbeTrack02	6	ProbeTrack	12.1	SCS215a	20100805.101847	20100805.102923	8	0.013328	60	10	60-180	60	179	GapExp	0	104	2	6	0	distractor	1	720	640	81685	13.328	13.158	13.463
DTProbeTrack02	6	ProbeTrack	12.1	SCS215a	20100805.101847	20100805.102930	8	0.013328	60	10	60-180	60	114	GapExp	0	105	2	1	0	distractor	1	654	673	82358	13.328	13.284	13.405
DTProbeTrack02	6	ProbeTrack	12.1	SCS215a	20100805.101847	20100805.102935	8	0.013328	60	10	60-180	60	179	GapExp	0	106	2	45	1	target	1	480	760	83118	13.328	13.258	13.365
DTProbeTrack02	6	ProbeTrack	12.1	SCS215a	20100805.101847	20100805.102942	8	0.013328	60	10	60-180	60	147	GapExp	0	107	2	45	1	distractor	0	507	-1000	82118	13.328	12.993	13.663
DTProbeTrack02	6	ProbeTrack	12.1	SCS215a	20100805.101847	20100805.102949	8	0.013328	60	10	60-180	60	156	GapExp	0	108	2	45	0	distractor	1	694	653	82771	13.328	13.221	13.401
DTProbeTrack02	6	ProbeTrack	12.1	SCS215a	20100805.101847	20100805.102956	8	0.013328	60	10	60-180	60	94	GapExp	0	109	2	9	1	target	1	747	627	83398	13.328	13.140	13.516
DTProbeTrack02	6	ProbeTrack	12.1	SCS215a	20100805.101847	20100805.103001	8	0.013328	60	10	60-180	60	124	GapExp	0	110	2	45	1	distractor	0	640	-1000	82398	13.328	13.167	13.489
DTProbeTrack02	6	ProbeTrack	12.1	SCS215a	20100805.101847	20100805.103008	8	0.013328	60	10	60-180	60	77	GapExp	0	111	2	1	1	target	1	600	700	83098	13.328	13.293	13.364
DTProbeTrack02	6	ProbeTrack	12.1	SCS215a	20100805.101847	20100805.103013	8	0.013328	60	10	60-180	60	171	GapExp	0	112	2	9	0	distractor	1	720	640	83738	13.328	13.292	13.363
DTProbeTrack02	6	ProbeTrack	12.1	SCS215a	20100805.101847	20100805.103019	8	0.013328	60	10	60-180	60	139	GapExp	0	113	2	6	1	target	1	734	633	84371	13.328	12.977	13.713
DTProbeTrack02	6	ProbeTrack	12.1	SCS215a	20100805.101847	20100805.103025	8	0.013328	60	10	60-180	60	81	GapExp	0	114	2	9	1	target	1	587	707	85078	13.328	13.293	13.363
DTProbeTrack02	6	ProbeTrack	12.1	SCS215a	20100805.101847	20100805.103030	8	0.013328	60	10	60-180	60	167	GapExp	0	115	2	9	0	target	0	907	-1000	84078	13.328	13.044	13.645
DTProbeTrack02	6	ProbeTrack	12.1	SCS215a	20100805.101847	20100805.103037	8	0.013328	60	10	60-180	60	137	GapExp	0	116	2	3	0	distractor	1	587	707	84785	13.328	13.153	13.529
DTProbeTrack02	6	ProbeTrack	12.1	SCS215a	20100805.101847	20100805.103043	8	0.013328	60	10	60-180	60	156	GapExp	0	117	2	6	0	distractor	1	600	700	85485	13.328	13.123	13.498
DTProbeTrack02	6	ProbeTrack	12.1	SCS215a	20100805.101847	20100805.103049	8	0.013328	60	10	60-180	60	167	GapExp	0	118	2	6	0	distractor	1	667	667	86152	13.328	13.148	13.508
DTProbeTrack02	6	ProbeTrack	12.1	SCS215a	20100805.101847	20100805.103055	8	0.013328	60	10	60-180	60	72	GapExp	0	119	2	1	1	target	1	680	660	86812	13.328	12.996	13.660
DTProbeTrack02	6	ProbeTrack	12.1	SCS215a	20100805.101847	20100805.103100	8	0.013328	60	10	60-180	60	70	GapExp	0	120	2	6	0	distractor	1	640	680	87492	13.328	13.019	13.637
DTProbeTrack02	6	ProbeTrack	12.1	SCS215a	20100805.101847	20100805.103106	8	0.013328	60	10	60-180	60	117	GapExp	0	121	2	3	1	target	1	627	687	88179	13.328	13.047	13.609
DTProbeTrack02	6	ProbeTrack	12.1	SCS215a	20100805.101847	20100805.103111	8	0.013328	60	10	60-180	60	174	GapExp	0	122	2	6	1	target	1	627	687	88866	13.328	13.250	13.407
DTProbeTrack02	6	ProbeTrack	12.1	SCS215a	20100805.101847	20100805.103118	8	0.013328	60	10	60-180	60	81	GapExp	0	123	2	45	1	target	1	547	727	89593	13.328	13.150	13.538
DTProbeTrack02	6	ProbeTrack	12.1	SCS215a	20100805.101847	20100805.103123	8	0.013328	60	10	60-180	60	179	GapExp	0	124	2	3	1	target	1	627	687	90280	13.328	13.240	13.416
DTProbeTrack02	6	ProbeTrack	12.1	SCS215a	20100805.101847	20100805.103130	8	0.013328	60	10	60-180	60	100	GapExp	0	125	2	3	1	target	1	787	607	90887	13.328	13.113	13.542
DTProbeTrack02	6	ProbeTrack	12.1	SCS215a	20100805.101847	20100805.103135	8	0.013328	60	10	60-180	60	87	GapExp	0	126	2	1	0	distractor	1	747	627	91514	13.328	13.293	13.363
DTProbeTrack02	6	ProbeTrack	12.1	SCS215a	20100805.101847	20100805.103141	8	0.013328	60	10	60-180	60	163	GapExp	0	127	2	3	0	distractor	1	600	700	92214	13.328	13.152	13.470
DTProbeTrack02	6	ProbeTrack	12.1	SCS215a	20100805.101847	20100805.103147	8	0.013328	60	10	60-180	60	115	GapExp	0	128	2	1	1	target	1	587	707	92921	13.328	12.987	13.701
DTProbeTrack02	6	ProbeTrack	12.1	SCS215a	20100805.101847	20100805.103152	8	0.013328	60	10	60-180	60	176	GapExp	0	129	2	45	0	distractor	1	547	727	93648	13.328	13.293	13.363
DTProbeTrack02	6	ProbeTrack	12.1	SCS215a	20100805.101847	20100805.103159	8	0.013328	60	10	60-180	60	154	GapExp	0	130	2	1	0	distractor	1	1147	427	94075	13.328	13.179	13.509
DTProbeTrack02	6	ProbeTrack	12.1	SCS215a	20100805.101847	20100805.103206	8	0.013328	60	10	60-180	60	96	GapExp	0	131	2	3	0	distractor	1	773	614	94689	13.328	13.293	13.363
DTProbeTrack02	6	ProbeTrack	12.1	SCS215a	20100805.101847	20100805.103212	8	0.013328	60	10	60-180	60	170	GapExp	0	132	2	6	1	distractor	0	574	-1000	93689	13.328	13.293	13.366
DTProbeTrack02	6	ProbeTrack	12.1	SCS215a	20100805.101847	20100805.103218	8	0.013328	60	10	60-180	60	100	GapExp	0	133	2	6	0	distractor	1	800	600	94289	13.328	13.085	13.605
DTProbeTrack02	6	ProbeTrack	12.1	SCS215a	20100805.101847	20100805.103224	8	0.013328	60	10	60-180	60	148	GapExp	0	134	2	3	1	target	1	1240	380	94669	13.328	13.293	13.363
DTProbeTrack02	6	ProbeTrack	12.1	SCS215a	20100805.101847	20100805.103231	8	0.013328	60	10	60-180	60	160	GapExp	0	135	2	45	1	target	1	1626	187	94856	13.366	12.990	26.148
DTProbeTrack02	6	ProbeTrack	12.1	SCS215a	20100805.101847	20100805.103238	8	0.013328	60	10	60-180	60	161	GapExp	0	136	2	45	0	distractor	1	547	727	95583	13.328	13.049	13.607
DTProbeTrack02	6	ProbeTrack	12.1	SCS215a	20100805.101847	20100805.103245	8	0.013328	60	10	60-180	60	125	GapExp	0	137	2	45	1	target	1	547	727	96310	13.328	13.097	13.559
DTProbeTrack02	6	ProbeTrack	12.1	SCS215a	20100805.101847	20100805.103251	8	0.013328	60	10	60-180	60	66	GapExp	0	138	2	1	0	target	0	800	-1000	95310	13.328	13.181	13.509
DTProbeTrack02	6	ProbeTrack	12.1	SCS215a	20100805.101847	20100805.103256	8	0.013328	60	10	60-180	60	76	GapExp	0	139	2	45	1	target	1	574	713	96023	13.328	13.209	13.461
DTProbeTrack02	6	ProbeTrack	12.1	SCS215a	20100805.101847	20100805.103302	8	0.013328	60	10	60-180	60	125	GapExp	0	140	2	3	1	target	1	467	767	96790	13.328	13.292	13.363
DTProbeTrack02	6	ProbeTrack	12.1	SCS215a	20100805.101847	20100805.103308	8	0.013328	60	10	60-180	60	64	GapExp	0	141	2	3	0	distractor	1	827	587	97377	13.328	13.293	13.363
DTProbeTrack02	6	ProbeTrack	12.1	SCS215a	20100805.101847	20100805.103313	8	0.013328	60	10	60-180	60	101	GapExp	0	142	2	45	1	target	1	867	567	97944	13.328	12.957	13.699
DTProbeTrack02	6	ProbeTrack	12.1	SCS215a	20100805.101847	20100805.103319	8	0.013328	60	10	60-180	60	137	GapExp	0	143	2	3	0	distractor	1	1080	460	98404	13.328	13.013	13.644
DTProbeTrack02	6	ProbeTrack	12.1	SCS215a	20100805.101847	20100805.103325	8	0.013328	60	10	60-180	60	78	GapExp	0	144	2	9	0	distractor	1	627	687	99091	13.328	13.240	13.441
DTProbeTrack02	6	ProbeTrack	12.1	SCS215a	20100805.101847	20100805.103330	8	0.013328	60	10	60-180	60	71	GapExp	0	145	2	1	1	distractor	0	507	-1000	98091	13.328	13.293	13.363
DTProbeTrack02	6	ProbeTrack	12.1	SCS215a	20100805.101847	20100805.103335	8	0.013328	60	10	60-180	60	123	GapExp	0	146	2	9	1	target	1	360	820	98911	13.328	13.067	13.556
DTProbeTrack02	6	ProbeTrack	12.1	SCS215a	20100805.101847	20100805.103341	8	0.013328	60	10	60-180	60	62	GapExp	0	147	2	1	1	target	1	960	520	99431	13.328	12.929	13.760
DTProbeTrack02	6	ProbeTrack	12.1	SCS215a	20100805.101847	20100805.103346	8	0.013328	60	10	60-180	60	78	GapExp	0	148	2	3	0	distractor	1	987	507	99938	13.328	13.258	13.364
DTProbeTrack02	6	ProbeTrack	12.1	SCS215a	20100805.101847	20100805.103351	8	0.013328	60	10	60-180	60	142	GapExp	0	149	2	3	1	target	1	440	780	100718	13.328	13.112	13.528
DTProbeTrack02	6	ProbeTrack	12.1	SCS215a	20100805.101847	20100805.103357	8	0.013328	60	10	60-180	60	169	GapExp	0	150	2	6	0	distractor	1	800	600	101318	13.328	13.293	13.363
DTProbeTrack02	6	ProbeTrack	12.1	SCS215a	20100805.101847	20100805.103415	8	0.013328	60	10	60-180	60	103	GapExp	0	151	2	9	1	target	1	813	594	101912	13.328	13.079	13.549
DTProbeTrack02	6	ProbeTrack	12.1	SCS215a	20100805.101847	20100805.103421	8	0.013328	60	10	60-180	60	119	GapExp	0	152	2	45	1	target	1	973	514	102426	13.328	13.293	13.363
DTProbeTrack02	6	ProbeTrack	12.1	SCS215a	20100805.101847	20100805.103427	8	0.013328	60	10	60-180	60	173	GapExp	0	153	2	45	0	distractor	1	800	600	103026	13.328	13.052	13.638
DTProbeTrack02	6	ProbeTrack	12.1	SCS215a	20100805.101847	20100805.103434	8	0.013328	60	10	60-180	60	145	GapExp	0	154	2	3	0	distractor	1	787	607	103633	13.328	12.989	13.696
DTProbeTrack02	6	ProbeTrack	12.1	SCS215a	20100805.101847	20100805.103441	8	0.013328	60	10	60-180	60	70	GapExp	0	155	2	3	1	target	1	494	753	104386	13.328	13.293	13.363
DTProbeTrack02	6	ProbeTrack	12.1	SCS215a	20100805.101847	20100805.103445	8	0.013328	60	10	60-180	60	115	GapExp	0	156	2	9	0	distractor	1	614	693	105079	13.326	12.977	13.363
DTProbeTrack02	6	ProbeTrack	12.1	SCS215a	20100805.101847	20100805.103451	8	0.013328	60	10	60-180	60	109	GapExp	0	157	2	3	1	target	1	520	740	105819	13.328	13.293	13.363
DTProbeTrack02	6	ProbeTrack	12.1	SCS215a	20100805.101847	20100805.103457	8	0.013328	60	10	60-180	60	168	GapExp	0	158	2	6	0	distractor	1	694	653	106472	13.328	13.279	13.376
DTProbeTrack02	6	ProbeTrack	12.1	SCS215a	20100805.101847	20100805.103503	8	0.013328	60	10	60-180	60	149	GapExp	0	159	2	45	0	distractor	1	574	713	107185	13.328	13.031	13.592
DTProbeTrack02	6	ProbeTrack	12.1	SCS215a	20100805.101847	20100805.103510	8	0.013328	60	10	60-180	60	118	GapExp	0	160	2	1	0	distractor	1	640	680	107865	13.380	13.268	26.658
DTProbeTrack02	6	ProbeTrack	12.1	SCS215a	20100805.101847	20100805.103515	8	0.013328	60	10	60-180	60	175	GapExp	0	161	2	9	1	target	1	507	747	108612	13.328	13.293	13.363
DTProbeTrack02	6	ProbeTrack	12.1	SCS215a	20100805.101847	20100805.103522	8	0.013328	60	10	60-180	60	166	GapExp	0	162	2	1	1	target	1	1013	494	109106	13.328	12.971	13.684
DTProbeTrack02	6	ProbeTrack	12.1	SCS215a	20100805.101847	20100805.103528	8	0.013328	60	10	60-180	60	149	GapExp	0	163	2	1	0	distractor	1	587	707	109813	13.328	13.293	13.365
DTProbeTrack02	6	ProbeTrack	12.1	SCS215a	20100805.101847	20100805.103534	8	0.013328	60	10	60-180	60	120	GapExp	0	164	2	9	1	target	1	454	773	110586	13.328	13.292	13.363
DTProbeTrack02	6	ProbeTrack	12.1	SCS215a	20100805.101847	20100805.103540	8	0.013328	60	10	60-180	60	80	GapExp	0	165	2	6	0	distractor	1	640	680	111266	13.328	13.293	13.363
DTProbeTrack02	6	ProbeTrack	12.1	SCS215a	20100805.101847	20100805.103545	8	0.013328	60	10	60-180	60	91	GapExp	0	166	2	9	0	distractor	1	667	667	111933	13.328	13.285	13.363
DTProbeTrack02	6	ProbeTrack	12.1	SCS215a	20100805.101847	20100805.103550	8	0.013328	60	10	60-180	60	140	GapExp	0	167	2	6	0	target	0	893	-1000	110933	13.328	13.293	13.363
DTProbeTrack02	6	ProbeTrack	12.1	SCS215a	20100805.101847	20100805.103557	8	0.013328	60	10	60-180	60	146	GapExp	0	168	2	45	1	target	1	587	707	111640	13.328	13.293	13.363
DTProbeTrack02	6	ProbeTrack	12.1	SCS215a	20100805.101847	20100805.103603	8	0.013328	60	10	60-180	60	163	GapExp	0	169	2	3	0	distractor	1	520	740	112380	13.328	13.293	13.363
DTProbeTrack02	6	ProbeTrack	12.1	SCS215a	20100805.101847	20100805.103609	8	0.013328	60	10	60-180	60	175	GapExp	0	170	2	1	0	target	0	733	-1000	111380	13.328	13.123	13.533
DTProbeTrack02	6	ProbeTrack	12.1	SCS215a	20100805.101847	20100805.103616	8	0.013328	60	10	60-180	60	178	GapExp	0	171	2	45	0	distractor	1	574	713	112093	13.328	13.292	13.363
DTProbeTrack02	6	ProbeTrack	12.1	SCS215a	20100805.101847	20100805.103623	8	0.013328	60	10	60-180	60	125	GapExp	0	172	2	45	1	target	1	614	693	112786	13.328	13.293	13.363
DTProbeTrack02	6	ProbeTrack	12.1	SCS215a	20100805.101847	20100805.103629	8	0.013328	60	10	60-180	60	98	GapExp	0	173	2	6	0	distractor	1	534	733	113519	13.328	13.293	13.363
DTProbeTrack02	6	ProbeTrack	12.1	SCS215a	20100805.101847	20100805.103635	8	0.013328	60	10	60-180	60	123	GapExp	0	174	2	6	1	target	1	534	733	114252	13.328	13.293	13.363
DTProbeTrack02	6	ProbeTrack	12.1	SCS215a	20100805.101847	20100805.103640	8	0.013328	60	10	60-180	60	148	GapExp	0	175	2	45	0	distractor	1	747	627	114879	13.328	12.965	13.724
DTProbeTrack02	6	ProbeTrack	12.1	SCS215a	20100805.101847	20100805.103647	8	0.013328	60	10	60-180	60	111	GapExp	0	176	2	1	0	distractor	1	933	534	115413	13.328	13.043	13.613
DTProbeTrack02	6	ProbeTrack	12.1	SCS215a	20100805.101847	20100805.103653	8	0.013328	60	10	60-180	60	132	GapExp	0	177	2	6	1	target	1	707	647	116060	13.328	13.293	13.363
DTProbeTrack02	6	ProbeTrack	12.1	SCS215a	20100805.101847	20100805.103659	8	0.013328	60	10	60-180	60	126	GapExp	0	178	2	3	0	distractor	1	933	534	116594	13.328	13.293	13.363
DTProbeTrack02	6	ProbeTrack	12.1	SCS215a	20100805.101847	20100805.103705	8	0.013328	60	10	60-180	60	61	GapExp	0	179	2	3	0	target	0	1333	-1000	115594	13.328	13.292	13.363
DTProbeTrack02	6	ProbeTrack	12.1	SCS215a	20100805.101847	20100805.103711	8	0.013328	60	10	60-180	60	95	GapExp	0	180	2	6	1	target	1	893	554	116148	13.328	13.293	13.363
DTProbeTrack02	6	ProbeTrack	12.1	SCS215a	20100805.101847	20100805.103716	8	0.013328	60	10	60-180	60	130	GapExp	0	181	2	1	1	target	1	560	720	116868	13.328	13.142	13.513
DTProbeTrack02	6	ProbeTrack	12.1	SCS215a	20100805.101847	20100805.103722	8	0.013328	60	10	60-180	60	117	GapExp	0	182	2	9	1	target	1	654	673	117541	13.328	13.290	13.366
DTProbeTrack02	6	ProbeTrack	12.1	SCS215a	20100805.101847	20100805.103728	8	0.013328	60	10	60-180	60	103	GapExp	0	183	2	3	1	target	1	653	674	118215	13.328	13.293	13.363
DTProbeTrack02	6	ProbeTrack	12.1	SCS215a	20100805.101847	20100805.103733	8	0.013328	60	10	60-180	60	118	GapExp	0	184	2	6	0	distractor	1	1080	460	118675	13.328	12.859	13.761
DTProbeTrack02	6	ProbeTrack	12.1	SCS215a	20100805.101847	20100805.103739	8	0.013328	60	10	60-180	60	75	GapExp	0	185	2	1	1	target	1	640	680	119355	13.328	13.114	13.576
DTProbeTrack02	6	ProbeTrack	12.1	SCS215a	20100805.101847	20100805.103744	8	0.013328	60	10	60-180	60	87	GapExp	0	186	2	6	0	distractor	1	614	693	120048	13.328	13.293	13.363
DTProbeTrack02	6	ProbeTrack	12.1	SCS215a	20100805.101847	20100805.103750	8	0.013328	60	10	60-180	60	139	GapExp	0	187	2	45	1	target	1	547	727	120775	13.328	13.290	13.399
DTProbeTrack02	6	ProbeTrack	12.1	SCS215a	20100805.101847	20100805.103756	8	0.013328	60	10	60-180	60	153	GapExp	0	188	2	45	1	target	1	547	727	121502	13.859	13.155	53.486
DTProbeTrack02	6	ProbeTrack	12.1	SCS215a	20100805.101847	20100805.103803	8	0.013328	60	10	60-180	60	117	GapExp	0	189	2	9	0	target	0	867	-1000	120502	13.328	13.293	13.363
DTProbeTrack02	6	ProbeTrack	12.1	SCS215a	20100805.101847	20100805.103809	8	0.013328	60	10	60-180	60	117	GapExp	0	190	2	9	0	distractor	1	773	614	121116	13.328	13.293	13.363
DTProbeTrack02	6	ProbeTrack	12.1	SCS215a	20100805.101847	20100805.103815	8	0.013328	60	10	60-180	60	93	GapExp	0	191	2	45	0	distractor	1	560	720	121836	13.328	13.153	13.540
DTProbeTrack02	6	ProbeTrack	12.1	SCS215a	20100805.101847	20100805.103821	8	0.013328	60	10	60-180	60	170	GapExp	0	192	2	3	1	target	1	427	787	122623	13.328	13.129	13.526
DTProbeTrack02	6	ProbeTrack	12.1	SCS215a	20100805.101847	20100805.103827	8	0.013328	60	10	60-180	60	62	GapExp	0	193	2	3	0	distractor	1	893	554	123177	13.328	13.293	13.363
DTProbeTrack02	6	ProbeTrack	12.1	SCS215a	20100805.101847	20100805.103832	8	0.013328	60	10	60-180	60	161	GapExp	0	194	2	6	1	target	1	574	713	123890	13.328	13.292	13.364
DTProbeTrack02	6	ProbeTrack	12.1	SCS215a	20100805.101847	20100805.103838	8	0.013328	60	10	60-180	60	157	GapExp	0	195	2	3	1	target	1	534	733	124623	13.328	13.116	13.574
DTProbeTrack02	6	ProbeTrack	12.1	SCS215a	20100805.101847	20100805.103844	8	0.013328	60	10	60-180	60	78	GapExp	0	196	2	9	1	target	1	600	700	125323	13.328	13.293	13.363
DTProbeTrack02	6	ProbeTrack	12.1	SCS215a	20100805.101847	20100805.103849	8	0.013328	60	10	60-180	60	151	GapExp	0	197	2	3	1	target	1	614	693	126016	13.328	13.293	13.363
DTProbeTrack02	6	ProbeTrack	12.1	SCS215a	20100805.101847	20100805.103855	8	0.013328	60	10	60-180	60	101	GapExp	0	198	2	6	1	target	1	720	640	126656	13.328	13.293	13.363
DTProbeTrack02	6	ProbeTrack	12.1	SCS215a	20100805.101847	20100805.103901	8	0.013328	60	10	60-180	60	125	GapExp	0	199	2	45	0	distractor	1	680	660	127316	13.328	13.293	13.364
DTProbeTrack02	6	ProbeTrack	12.1	SCS215a	20100805.101847	20100805.103907	8	0.013328	60	10	60-180	60	141	GapExp	0	200	2	6	1	target	1	587	707	128023	13.328	13.293	13.363
DTProbeTrack02	6	ProbeTrack	12.1	SCS215a	20100805.101847	20100805.103923	8	0.013328	60	10	60-180	60	98	GapExp	0	201	2	3	1	target	1	640	680	128703	13.328	13.293	13.363
DTProbeTrack02	6	ProbeTrack	12.1	SCS215a	20100805.101847	20100805.103929	8	0.013328	60	10	60-180	60	166	GapExp	0	202	2	1	0	distractor	1	640	680	129383	13.328	13.226	13.430
DTProbeTrack02	6	ProbeTrack	12.1	SCS215a	20100805.101847	20100805.103935	8	0.013328	60	10	60-180	60	97	GapExp	0	203	2	3	0	distractor	1	494	753	130136	13.328	13.293	13.363
DTProbeTrack02	6	ProbeTrack	12.1	SCS215a	20100805.101847	20100805.103940	8	0.013328	60	10	60-180	60	154	GapExp	0	204	2	1	0	target	0	574	-1000	129136	13.328	13.237	13.419
DTProbeTrack02	6	ProbeTrack	12.1	SCS215a	20100805.101847	20100805.103946	8	0.013328	60	10	60-180	60	87	GapExp	0	205	2	6	1	target	1	960	520	129656	13.328	13.293	13.364
