exp	sub	code	rev	comp	runtime	trialtime	nstim	refreshdur	cuedur	gapdur	gapOnsetRange	durPostProbe	gapOnsetTime	blocktype	prac	trial	ntargets	soa	probeTarget	resp	acc	rt	pts	tpts	meanFrameDur	minFrameDur	maxFrameDur
DTProbeTrack02	1	ProbeTrack	12.1	SCS215a	20100803.130132	20100803.130151	8	0.013328	60	0	60-180	60	131	NoGap	1	1	2	45	1	target	1	1773	114	114	13.328	13.275	13.414
DTProbeTrack02	1	ProbeTrack	12.1	SCS215a	20100803.130132	20100803.130158	8	0.013328	60	0	60-180	60	66	NoGap	1	2	2	6	1	target	1	1093	454	568	13.328	13.284	13.399
DTProbeTrack02	1	ProbeTrack	12.1	SCS215a	20100803.130132	20100803.130204	8	0.013328	60	0	60-180	60	82	NoGap	1	3	2	45	0	distractor	1	494	753	1321	13.328	13.185	13.471
DTProbeTrack02	1	ProbeTrack	12.1	SCS215a	20100803.130132	20100803.130209	8	0.013328	60	0	60-180	60	71	NoGap	1	4	2	6	0	distractor	1	693	654	1975	13.328	13.259	13.429
DTProbeTrack02	1	ProbeTrack	12.1	SCS215a	20100803.130132	20100803.130214	8	0.013328	60	0	60-180	60	146	NoGap	1	5	2	6	1	target	1	400	800	2775	13.328	12.971	13.649
DTProbeTrack02	1	ProbeTrack	12.1	SCS215a	20100803.130132	20100803.130220	8	0.013328	60	0	60-180	60	63	NoGap	1	6	2	45	1	target	1	614	693	3468	13.328	13.293	13.364
DTProbeTrack02	1	ProbeTrack	12.1	SCS215a	20100803.130132	20100803.130225	8	0.013328	60	0	60-180	60	81	NoGap	1	7	2	6	0	distractor	1	547	727	4195	13.328	13.289	13.363
DTProbeTrack02	1	ProbeTrack	12.1	SCS215a	20100803.130132	20100803.130230	8	0.013328	60	0	60-180	60	164	NoGap	1	8	2	3	0	distractor	1	440	780	4975	13.328	13.004	13.652
DTProbeTrack02	1	ProbeTrack	12.1	SCS215a	20100803.130132	20100803.130236	8	0.013328	60	0	60-180	60	63	NoGap	1	9	2	9	1	target	1	414	793	5768	13.328	13.263	13.387
DTProbeTrack02	1	ProbeTrack	12.1	SCS215a	20100803.130132	20100803.130241	8	0.013328	60	0	60-180	60	64	NoGap	1	10	2	1	0	distractor	1	454	773	6541	13.328	13.292	13.364
DTProbeTrack02	1	ProbeTrack	12.1	SCS215a	20100803.130132	20100803.130245	8	0.013328	60	0	60-180	60	94	NoGap	1	11	2	1	1	target	1	440	780	7321	13.328	13.286	13.365
DTProbeTrack02	1	ProbeTrack	12.1	SCS215a	20100803.130132	20100803.130250	8	0.013328	60	0	60-180	60	122	NoGap	1	12	2	1	0	distractor	1	427	787	8108	13.328	13.293	13.363
DTProbeTrack02	1	ProbeTrack	12.1	SCS215a	20100803.130132	20100803.130256	8	0.013328	60	0	60-180	60	153	NoGap	1	13	2	1	1	target	1	334	833	8941	13.328	13.292	13.363
DTProbeTrack02	1	ProbeTrack	12.1	SCS215a	20100803.130132	20100803.130301	8	0.013328	60	0	60-180	60	65	NoGap	1	14	2	3	1	distractor	0	400	-1000	7941	13.328	13.293	13.363
DTProbeTrack02	1	ProbeTrack	12.1	SCS215a	20100803.130132	20100803.130306	8	0.013328	60	0	60-180	60	105	NoGap	1	15	2	3	1	target	1	440	780	8721	13.389	13.104	26.915
DTProbeTrack02	1	ProbeTrack	12.1	SCS215a	20100803.130132	20100803.130311	8	0.013328	60	0	60-180	60	65	NoGap	1	16	2	3	0	distractor	1	534	733	9454	13.328	13.274	13.381
DTProbeTrack02	1	ProbeTrack	12.1	SCS215a	20100803.130132	20100803.130316	8	0.013328	60	0	60-180	60	158	NoGap	1	17	2	1	1	target	1	377	812	10266	13.328	13.180	13.494
DTProbeTrack02	1	ProbeTrack	12.1	SCS215a	20100803.130132	20100803.130321	8	0.013328	60	0	60-180	60	157	NoGap	1	18	2	1	0	distractor	1	414	793	11059	13.328	13.169	13.453
DTProbeTrack02	1	ProbeTrack	12.1	SCS215a	20100803.130132	20100803.130327	8	0.013328	60	0	60-180	60	79	NoGap	1	19	2	9	1	target	1	494	753	11812	13.328	12.980	13.644
DTProbeTrack02	1	ProbeTrack	12.1	SCS215a	20100803.130132	20100803.130332	8	0.013328	60	0	60-180	60	171	NoGap	1	20	2	9	0	distractor	1	440	780	12592	13.328	13.293	13.363
DTProbeTrack02	1	ProbeTrack	12.1	SCS215a	20100803.130132	20100803.130338	8	0.013328	60	0	60-180	60	173	NoGap	1	21	2	6	1	target	1	347	827	13419	13.328	13.229	13.461
DTProbeTrack02	1	ProbeTrack	12.1	SCS215a	20100803.130132	20100803.130344	8	0.013328	60	0	60-180	60	145	NoGap	1	22	2	9	0	distractor	1	520	740	14159	13.327	12.867	13.756
DTProbeTrack02	1	ProbeTrack	12.1	SCS215a	20100803.130132	20100803.130350	8	0.013328	60	0	60-180	60	145	NoGap	1	23	2	3	0	distractor	1	427	787	14946	13.328	13.293	13.363
DTProbeTrack02	1	ProbeTrack	12.1	SCS215a	20100803.130132	20100803.130356	8	0.013328	60	0	60-180	60	166	NoGap	1	24	2	45	0	distractor	1	440	780	15726	13.328	13.234	13.422
DTProbeTrack02	1	ProbeTrack	12.1	SCS215a	20100803.130132	20100803.130402	8	0.013328	60	0	60-180	60	107	NoGap	1	25	2	3	0	distractor	1	440	780	16506	13.328	13.293	13.363
DTProbeTrack02	1	ProbeTrack	12.1	SCS215a	20100803.130132	20100803.130408	8	0.013328	60	0	60-180	60	173	NoGap	1	26	2	6	0	distractor	1	374	813	17319	13.328	13.224	13.398
DTProbeTrack02	1	ProbeTrack	12.1	SCS215a	20100803.130132	20100803.130414	8	0.013328	60	0	60-180	60	80	NoGap	1	27	2	45	0	distractor	1	427	787	18106	13.328	13.042	13.612
DTProbeTrack02	1	ProbeTrack	12.1	SCS215a	20100803.130132	20100803.130419	8	0.013328	60	0	60-180	60	94	NoGap	1	28	2	6	0	target	0	454	-1000	17106	13.328	13.246	13.442
DTProbeTrack02	1	ProbeTrack	12.1	SCS215a	20100803.130132	20100803.130424	8	0.013328	60	0	60-180	60	124	NoGap	1	29	2	45	0	distractor	1	454	773	17879	13.328	13.035	13.586
DTProbeTrack02	1	ProbeTrack	12.1	SCS215a	20100803.130132	20100803.130430	8	0.013328	60	0	60-180	60	177	NoGap	1	30	2	45	1	target	1	387	807	18686	13.328	12.931	13.725
DTProbeTrack02	1	ProbeTrack	12.1	SCS215a	20100803.130132	20100803.130437	8	0.013328	60	0	60-180	60	95	NoGap	1	31	2	1	1	target	1	574	713	19399	13.328	13.105	13.517
DTProbeTrack02	1	ProbeTrack	12.1	SCS215a	20100803.130132	20100803.130442	8	0.013328	60	0	60-180	60	125	NoGap	1	32	2	45	1	target	1	400	800	20199	13.328	12.979	13.676
DTProbeTrack02	1	ProbeTrack	12.1	SCS215a	20100803.130132	20100803.130448	8	0.013328	60	0	60-180	60	164	NoGap	1	33	2	9	1	target	1	400	800	20999	13.328	12.981	13.675
DTProbeTrack02	1	ProbeTrack	12.1	SCS215a	20100803.130132	20100803.130454	8	0.013328	60	0	60-180	60	155	NoGap	1	34	2	3	1	distractor	0	694	-1000	19999	13.328	13.293	13.363
DTProbeTrack02	1	ProbeTrack	12.1	SCS215a	20100803.130132	20100803.130500	8	0.013328	60	0	60-180	60	126	NoGap	1	35	2	6	1	target	1	454	773	20772	13.328	13.235	13.421
DTProbeTrack02	1	ProbeTrack	12.1	SCS215a	20100803.130132	20100803.130505	8	0.013328	60	0	60-180	60	152	NoGap	1	36	2	9	0	distractor	1	467	767	21539	13.328	13.293	13.363
DTProbeTrack02	1	ProbeTrack	12.1	SCS215a	20100803.130132	20100803.130511	8	0.013328	60	0	60-180	60	92	NoGap	1	37	2	1	0	distractor	1	653	674	22213	13.328	12.977	13.650
DTProbeTrack02	1	ProbeTrack	12.1	SCS215a	20100803.130132	20100803.130517	8	0.013328	60	0	60-180	60	83	NoGap	1	38	2	9	1	target	1	560	720	22933	13.328	13.143	13.513
DTProbeTrack02	1	ProbeTrack	12.1	SCS215a	20100803.130132	20100803.130522	8	0.013328	60	0	60-180	60	120	NoGap	1	39	2	3	1	target	1	374	813	23746	13.328	13.293	13.364
DTProbeTrack02	1	ProbeTrack	12.1	SCS215a	20100803.130132	20100803.130527	8	0.013328	60	0	60-180	60	175	NoGap	1	40	2	9	0	distractor	1	600	700	24446	13.328	13.292	13.379
DTProbeTrack02	1	ProbeTrack	12.1	SCS215a	20100803.130629	20100803.130633	8	0.013327	60	10	60-180	60	63	GapPrac	1	1	2	9	0	distractor	1	680	660	25106	13.328	13.162	13.494
DTProbeTrack02	1	ProbeTrack	12.1	SCS215a	20100803.130629	20100803.130638	8	0.013327	60	10	60-180	60	71	GapPrac	1	2	2	1	1	target	1	613	694	25800	13.328	13.007	13.683
DTProbeTrack02	1	ProbeTrack	12.1	SCS215a	20100803.130629	20100803.130643	8	0.013327	60	10	60-180	60	92	GapPrac	1	3	2	6	0	distractor	1	467	767	26567	13.328	13.293	13.364
DTProbeTrack02	1	ProbeTrack	12.1	SCS215a	20100803.130629	20100803.130649	8	0.013327	60	10	60-180	60	167	GapPrac	1	4	2	45	1	target	1	427	787	27354	13.328	13.187	13.501
DTProbeTrack02	1	ProbeTrack	12.1	SCS215a	20100803.130629	20100803.130655	8	0.013327	60	10	60-180	60	110	GapPrac	1	5	2	1	1	target	1	467	767	28121	13.328	13.293	13.363
DTProbeTrack02	1	ProbeTrack	12.1	SCS215a	20100803.130629	20100803.130701	8	0.013327	60	10	60-180	60	174	GapPrac	1	6	2	6	0	distractor	1	427	787	28908	13.328	13.284	13.375
DTProbeTrack02	1	ProbeTrack	12.1	SCS215a	20100803.130629	20100803.130707	8	0.013327	60	10	60-180	60	129	GapPrac	1	7	2	3	0	distractor	1	480	760	29668	13.328	13.200	13.454
DTProbeTrack02	1	ProbeTrack	12.1	SCS215a	20100803.130629	20100803.130712	8	0.013327	60	10	60-180	60	161	GapPrac	1	8	2	3	1	target	1	374	813	30481	13.328	13.126	13.531
DTProbeTrack02	1	ProbeTrack	12.1	SCS215a	20100803.130629	20100803.130718	8	0.013327	60	10	60-180	60	144	GapPrac	1	9	2	9	0	distractor	1	454	773	31254	13.328	13.292	13.364
DTProbeTrack02	1	ProbeTrack	12.1	SCS215a	20100803.130629	20100803.130724	8	0.013327	60	10	60-180	60	111	GapPrac	1	10	2	9	1	target	1	454	773	32027	13.328	13.293	13.363
DTProbeTrack02	1	ProbeTrack	12.1	SCS215a	20100803.130629	20100803.130730	8	0.013327	60	10	60-180	60	172	GapPrac	1	11	2	1	0	distractor	1	440	780	32807	13.328	13.293	13.363
DTProbeTrack02	1	ProbeTrack	12.1	SCS215a	20100803.130629	20100803.130736	8	0.013327	60	10	60-180	60	114	GapPrac	1	12	2	9	1	target	1	414	793	33600	13.328	12.957	13.698
DTProbeTrack02	1	ProbeTrack	12.1	SCS215a	20100803.130629	20100803.130741	8	0.013327	60	10	60-180	60	160	GapPrac	1	13	2	3	0	target	0	734	-1000	32600	13.328	13.160	13.494
DTProbeTrack02	1	ProbeTrack	12.1	SCS215a	20100803.130629	20100803.130748	8	0.013327	60	10	60-180	60	147	GapPrac	1	14	2	45	1	target	1	427	787	33387	13.328	13.293	13.366
DTProbeTrack02	1	ProbeTrack	12.1	SCS215a	20100803.130629	20100803.130754	8	0.013327	60	10	60-180	60	167	GapPrac	1	15	2	45	0	target	0	454	-1000	32387	13.328	13.207	13.465
DTProbeTrack02	1	ProbeTrack	12.1	SCS215a	20100803.130629	20100803.130801	8	0.013327	60	10	60-180	60	161	GapPrac	1	16	2	6	1	distractor	0	387	-1000	31387	13.328	13.293	13.363
DTProbeTrack02	1	ProbeTrack	12.1	SCS215a	20100803.130629	20100803.130807	8	0.013327	60	10	60-180	60	66	GapPrac	1	17	2	45	0	target	0	427	-1000	30387	13.328	13.293	13.363
DTProbeTrack02	1	ProbeTrack	12.1	SCS215a	20100803.130629	20100803.130812	8	0.013327	60	10	60-180	60	105	GapPrac	1	18	2	1	0	target	0	414	-1000	29387	13.328	13.007	13.683
DTProbeTrack02	1	ProbeTrack	12.1	SCS215a	20100803.130629	20100803.130817	8	0.013327	60	10	60-180	60	92	GapPrac	1	19	2	6	1	target	1	467	767	30154	13.328	13.224	13.466
DTProbeTrack02	1	ProbeTrack	12.1	SCS215a	20100803.130629	20100803.130823	8	0.013327	60	10	60-180	60	71	GapPrac	1	20	2	3	1	target	1	400	800	30954	13.397	13.293	26.623
DTProbeTrack02	1	ProbeTrack	12.1	SCS215a	20100803.131011	20100803.131016	8	0.013327	60	10	60-180	60	135	GapPrac	1	1	2	9	1	distractor	0	760	-1000	29954	13.328	13.255	13.375
DTProbeTrack02	1	ProbeTrack	12.1	SCS215a	20100803.131011	20100803.131022	8	0.013327	60	10	60-180	60	174	GapPrac	1	2	2	3	1	target	1	787	607	30561	13.328	13.253	13.404
DTProbeTrack02	1	ProbeTrack	12.1	SCS215a	20100803.131011	20100803.131029	8	0.013327	60	10	60-180	60	86	GapPrac	1	3	2	1	0	target	0	573	-1000	29561	13.328	13.130	13.492
DTProbeTrack02	1	ProbeTrack	12.1	SCS215a	20100803.131011	20100803.131034	8	0.013327	60	10	60-180	60	169	GapPrac	1	4	2	45	0	distractor	1	893	554	30115	13.328	13.172	13.484
DTProbeTrack02	1	ProbeTrack	12.1	SCS215a	20100803.131011	20100803.131041	8	0.013327	60	10	60-180	60	71	GapPrac	1	5	2	3	0	target	0	627	-1000	29115	13.328	13.141	13.513
DTProbeTrack02	1	ProbeTrack	12.1	SCS215a	20100803.131011	20100803.131046	8	0.013327	60	10	60-180	60	180	GapPrac	1	6	2	3	0	target	0	494	-1000	28115	13.328	13.237	13.384
DTProbeTrack02	1	ProbeTrack	12.1	SCS215a	20100803.131011	20100803.131052	8	0.013327	60	10	60-180	60	162	GapPrac	1	7	2	45	1	target	1	520	740	28855	13.328	12.979	13.643
DTProbeTrack02	1	ProbeTrack	12.1	SCS215a	20100803.131011	20100803.131059	8	0.013327	60	10	60-180	60	148	GapPrac	1	8	2	6	1	target	1	400	800	29655	13.377	13.254	26.267
DTProbeTrack02	1	ProbeTrack	12.1	SCS215a	20100803.131011	20100803.131105	8	0.013327	60	10	60-180	60	116	GapPrac	1	9	2	1	0	target	0	507	-1000	28655	13.328	12.861	13.829
DTProbeTrack02	1	ProbeTrack	12.1	SCS215a	20100803.131011	20100803.131110	8	0.013327	60	10	60-180	60	96	GapPrac	1	10	2	45	1	target	1	360	820	29475	13.328	13.028	13.628
DTProbeTrack02	1	ProbeTrack	12.1	SCS215a	20100803.131011	20100803.131116	8	0.013327	60	10	60-180	60	100	GapPrac	1	11	2	45	0	target	0	414	-1000	28475	13.328	13.250	13.438
DTProbeTrack02	1	ProbeTrack	12.1	SCS215a	20100803.131011	20100803.131122	8	0.013327	60	10	60-180	60	135	GapPrac	1	12	2	1	1	target	1	693	654	29129	13.328	13.038	13.651
DTProbeTrack02	1	ProbeTrack	12.1	SCS215a	20100803.131011	20100803.131128	8	0.013327	60	10	60-180	60	98	GapPrac	1	13	2	6	1	target	1	520	740	29869	13.328	13.138	13.517
DTProbeTrack02	1	ProbeTrack	12.1	SCS215a	20100803.131011	20100803.131133	8	0.013327	60	10	60-180	60	109	GapPrac	1	14	2	6	0	distractor	1	654	673	30542	13.328	13.051	13.637
DTProbeTrack02	1	ProbeTrack	12.1	SCS215a	20100803.131011	20100803.131139	8	0.013327	60	10	60-180	60	112	GapPrac	1	15	2	1	1	target	1	653	674	31216	13.328	13.293	13.363
DTProbeTrack02	1	ProbeTrack	12.1	SCS215a	20100803.131011	20100803.131144	8	0.013327	60	10	60-180	60	171	GapPrac	1	16	2	6	0	distractor	1	494	753	31969	13.328	13.240	13.450
DTProbeTrack02	1	ProbeTrack	12.1	SCS215a	20100803.131011	20100803.131150	8	0.013327	60	10	60-180	60	147	GapPrac	1	17	2	9	0	distractor	1	507	747	32716	13.328	13.250	13.407
DTProbeTrack02	1	ProbeTrack	12.1	SCS215a	20100803.131011	20100803.131156	8	0.013327	60	10	60-180	60	89	GapPrac	1	18	2	9	1	target	1	427	787	33503	13.328	13.225	13.424
DTProbeTrack02	1	ProbeTrack	12.1	SCS215a	20100803.131011	20100803.131202	8	0.013327	60	10	60-180	60	144	GapPrac	1	19	2	9	0	distractor	1	440	780	34283	13.328	13.293	13.363
DTProbeTrack02	1	ProbeTrack	12.1	SCS215a	20100803.131011	20100803.131207	8	0.013327	60	10	60-180	60	168	GapPrac	1	20	2	3	1	target	1	414	793	35076	13.328	13.012	13.676
DTProbeTrack02	1	ProbeTrack	12.1	SCS215a	20100803.131316	20100803.131322	8	0.013328	60	10	60-180	60	142	GapExp	1	1	2	45	0	distractor	1	547	727	35803	13.370	12.813	27.138
DTProbeTrack02	1	ProbeTrack	12.1	SCS215a	20100803.131316	20100803.131328	8	0.013328	60	10	60-180	60	151	GapExp	1	2	2	6	1	target	1	374	813	36616	13.328	13.241	13.414
DTProbeTrack02	1	ProbeTrack	12.1	SCS215a	20100803.131316	20100803.131334	8	0.013328	60	10	60-180	60	95	GapExp	1	3	2	45	1	target	1	387	807	37423	13.328	13.053	13.603
DTProbeTrack02	1	ProbeTrack	12.1	SCS215a	20100803.131316	20100803.131340	8	0.013328	60	10	60-180	60	123	GapExp	1	4	2	9	1	target	1	360	820	38243	13.328	13.293	13.363
DTProbeTrack02	1	ProbeTrack	12.1	SCS215a	20100803.131316	20100803.131345	8	0.013328	60	10	60-180	60	173	GapExp	1	5	2	3	0	target	0	534	-1000	37243	13.328	13.068	13.588
DTProbeTrack02	1	ProbeTrack	12.1	SCS215a	20100803.131316	20100803.131352	8	0.013328	60	10	60-180	60	168	GapExp	0	6	2	6	0	target	0	747	-1000	36243	13.328	13.041	13.615
DTProbeTrack02	1	ProbeTrack	12.1	SCS215a	20100803.131316	20100803.131358	8	0.013328	60	10	60-180	60	90	GapExp	0	7	2	3	0	distractor	1	693	654	36897	13.328	13.277	13.379
DTProbeTrack02	1	ProbeTrack	12.1	SCS215a	20100803.131316	20100803.131404	8	0.013328	60	10	60-180	60	114	GapExp	0	8	2	6	0	distractor	1	667	667	37564	13.328	13.114	13.574
DTProbeTrack02	1	ProbeTrack	12.1	SCS215a	20100803.131316	20100803.131409	8	0.013328	60	10	60-180	60	135	GapExp	0	9	2	9	1	target	1	467	767	38331	13.328	13.217	13.405
DTProbeTrack02	1	ProbeTrack	12.1	SCS215a	20100803.131316	20100803.131415	8	0.013328	60	10	60-180	60	65	GapExp	0	10	2	1	0	distractor	1	614	693	39024	13.328	13.293	13.363
DTProbeTrack02	1	ProbeTrack	12.1	SCS215a	20100803.131316	20100803.131420	8	0.013328	60	10	60-180	60	143	GapExp	0	11	2	3	1	target	1	973	514	39538	13.328	13.188	13.434
DTProbeTrack02	1	ProbeTrack	12.1	SCS215a	20100803.131316	20100803.131426	8	0.013328	60	10	60-180	60	61	GapExp	0	12	2	3	0	distractor	1	1653	174	39712	13.328	13.293	13.363
DTProbeTrack02	1	ProbeTrack	12.1	SCS215a	20100803.131316	20100803.131432	8	0.013328	60	10	60-180	60	66	GapExp	0	13	2	1	1	target	1	733	634	40346	13.328	13.250	13.403
DTProbeTrack02	1	ProbeTrack	12.1	SCS215a	20100803.131316	20100803.131437	8	0.013328	60	10	60-180	60	125	GapExp	0	14	2	6	1	target	1	400	800	41146	13.328	13.293	13.363
DTProbeTrack02	1	ProbeTrack	12.1	SCS215a	20100803.131316	20100803.131443	8	0.013328	60	10	60-180	60	159	GapExp	0	15	2	6	1	target	1	347	827	41973	13.328	13.116	13.539
DTProbeTrack02	1	ProbeTrack	12.1	SCS215a	20100803.131316	20100803.131449	8	0.013328	60	10	60-180	60	142	GapExp	0	16	2	9	0	distractor	1	480	760	42733	13.328	13.166	13.489
DTProbeTrack02	1	ProbeTrack	12.1	SCS215a	20100803.131316	20100803.131454	8	0.013328	60	10	60-180	60	153	GapExp	0	17	2	9	1	target	1	480	760	43493	13.328	13.039	13.582
DTProbeTrack02	1	ProbeTrack	12.1	SCS215a	20100803.131316	20100803.131500	8	0.013328	60	10	60-180	60	116	GapExp	0	18	2	1	1	target	1	480	760	44253	13.328	13.171	13.519
DTProbeTrack02	1	ProbeTrack	12.1	SCS215a	20100803.131316	20100803.131506	8	0.013328	60	10	60-180	60	86	GapExp	0	19	2	3	1	target	1	374	813	45066	13.328	13.293	13.365
DTProbeTrack02	1	ProbeTrack	12.1	SCS215a	20100803.131316	20100803.131511	8	0.013328	60	10	60-180	60	71	GapExp	0	20	2	3	1	target	1	427	787	45853	13.328	13.293	13.363
DTProbeTrack02	1	ProbeTrack	12.1	SCS215a	20100803.131316	20100803.131516	8	0.013328	60	10	60-180	60	94	GapExp	0	21	2	45	0	distractor	1	614	693	46546	13.328	13.293	13.363
DTProbeTrack02	1	ProbeTrack	12.1	SCS215a	20100803.131316	20100803.131521	8	0.013328	60	10	60-180	60	90	GapExp	0	22	2	1	1	target	1	480	760	47306	13.328	13.293	13.363
DTProbeTrack02	1	ProbeTrack	12.1	SCS215a	20100803.131316	20100803.131527	8	0.013328	60	10	60-180	60	159	GapExp	0	23	2	45	1	target	1	440	780	48086	13.328	13.026	13.596
DTProbeTrack02	1	ProbeTrack	12.1	SCS215a	20100803.131316	20100803.131533	8	0.013328	60	10	60-180	60	76	GapExp	0	24	2	6	1	target	1	450	775	48861	13.328	12.929	13.727
DTProbeTrack02	1	ProbeTrack	12.1	SCS215a	20100803.131316	20100803.131538	8	0.013328	60	10	60-180	60	149	GapExp	0	25	2	45	0	distractor	1	574	713	49574	13.328	13.288	13.402
DTProbeTrack02	1	ProbeTrack	12.1	SCS215a	20100803.131316	20100803.131545	8	0.013328	60	10	60-180	60	118	GapExp	0	26	2	45	1	target	1	494	753	50327	13.328	13.279	13.363
DTProbeTrack02	1	ProbeTrack	12.1	SCS215a	20100803.131316	20100803.131551	8	0.013328	60	10	60-180	60	164	GapExp	0	27	2	1	1	target	1	374	813	51140	13.328	13.293	13.363
DTProbeTrack02	1	ProbeTrack	12.1	SCS215a	20100803.131316	20100803.131557	8	0.013328	60	10	60-180	60	124	GapExp	0	28	2	45	0	distractor	1	853	574	51714	13.328	13.061	13.596
DTProbeTrack02	1	ProbeTrack	12.1	SCS215a	20100803.131316	20100803.131603	8	0.013328	60	10	60-180	60	120	GapExp	0	29	2	6	1	target	1	1027	487	52201	13.328	13.019	13.636
DTProbeTrack02	1	ProbeTrack	12.1	SCS215a	20100803.131316	20100803.131609	8	0.013328	60	10	60-180	60	70	GapExp	0	30	2	3	0	distractor	1	627	687	52888	13.328	13.284	13.372
DTProbeTrack02	1	ProbeTrack	12.1	SCS215a	20100803.131316	20100803.131614	8	0.013328	60	10	60-180	60	170	GapExp	0	31	2	45	0	target	0	480	-1000	51888	13.328	13.157	13.520
DTProbeTrack02	1	ProbeTrack	12.1	SCS215a	20100803.131316	20100803.131621	8	0.013328	60	10	60-180	60	158	GapExp	0	32	2	45	0	target	0	534	-1000	50888	13.328	13.281	13.364
DTProbeTrack02	1	ProbeTrack	12.1	SCS215a	20100803.131316	20100803.131628	8	0.013328	60	10	60-180	60	66	GapExp	0	33	2	9	0	target	0	667	-1000	49888	13.328	13.293	13.362
DTProbeTrack02	1	ProbeTrack	12.1	SCS215a	20100803.131316	20100803.131633	8	0.013328	60	10	60-180	60	76	GapExp	0	34	2	6	0	distractor	1	640	680	50568	13.389	13.265	26.588
DTProbeTrack02	1	ProbeTrack	12.1	SCS215a	20100803.131316	20100803.131638	8	0.013328	60	10	60-180	60	64	GapExp	0	35	2	9	1	target	1	480	760	51328	13.328	13.293	13.363
DTProbeTrack02	1	ProbeTrack	12.1	SCS215a	20100803.131316	20100803.131643	8	0.013328	60	10	60-180	60	178	GapExp	0	36	2	1	0	distractor	1	574	713	52041	13.328	13.293	13.363
DTProbeTrack02	1	ProbeTrack	12.1	SCS215a	20100803.131316	20100803.131649	8	0.013328	60	10	60-180	60	103	GapExp	0	37	2	6	1	target	1	467	767	52808	13.328	13.177	13.480
DTProbeTrack02	1	ProbeTrack	12.1	SCS215a	20100803.131316	20100803.131654	8	0.013328	60	10	60-180	60	61	GapExp	0	38	2	45	0	distractor	1	893	554	53362	13.328	12.885	13.737
DTProbeTrack02	1	ProbeTrack	12.1	SCS215a	20100803.131316	20100803.131700	8	0.013328	60	10	60-180	60	71	GapExp	0	39	2	1	0	target	0	507	-1000	52362	13.328	13.293	13.363
DTProbeTrack02	1	ProbeTrack	12.1	SCS215a	20100803.131316	20100803.131705	8	0.013328	60	10	60-180	60	165	GapExp	0	40	2	1	0	distractor	1	814	593	52955	13.328	13.292	13.363
DTProbeTrack02	1	ProbeTrack	12.1	SCS215a	20100803.131316	20100803.131711	8	0.013328	60	10	60-180	60	147	GapExp	0	41	2	45	1	target	1	720	640	53595	13.328	13.210	13.458
DTProbeTrack02	1	ProbeTrack	12.1	SCS215a	20100803.131316	20100803.131718	8	0.013328	60	10	60-180	60	86	GapExp	0	42	2	6	0	distractor	1	667	667	54262	13.328	13.235	13.399
DTProbeTrack02	1	ProbeTrack	12.1	SCS215a	20100803.131316	20100803.131723	8	0.013328	60	10	60-180	60	90	GapExp	0	43	2	9	0	distractor	1	1373	314	54576	13.382	13.284	26.602
DTProbeTrack02	1	ProbeTrack	12.1	SCS215a	20100803.131316	20100803.131729	8	0.013328	60	10	60-180	60	105	GapExp	0	44	2	3	0	distractor	1	867	567	55143	13.328	13.213	13.477
DTProbeTrack02	1	ProbeTrack	12.1	SCS215a	20100803.131316	20100803.131735	8	0.013328	60	10	60-180	60	156	GapExp	0	45	2	6	1	target	1	680	660	55803	13.328	13.172	13.464
DTProbeTrack02	1	ProbeTrack	12.1	SCS215a	20100803.131316	20100803.131741	8	0.013328	60	10	60-180	60	70	GapExp	0	46	2	6	1	target	1	520	740	56543	13.328	13.293	13.363
DTProbeTrack02	1	ProbeTrack	12.1	SCS215a	20100803.131316	20100803.131746	8	0.013328	60	10	60-180	60	142	GapExp	0	47	2	1	0	distractor	1	587	707	57250	13.328	13.292	13.363
DTProbeTrack02	1	ProbeTrack	12.1	SCS215a	20100803.131316	20100803.131752	8	0.013328	60	10	60-180	60	175	GapExp	0	48	2	6	1	distractor	0	547	-1000	56250	13.328	12.989	13.666
DTProbeTrack02	1	ProbeTrack	12.1	SCS215a	20100803.131316	20100803.131758	8	0.013328	60	10	60-180	60	157	GapExp	0	49	2	6	0	distractor	1	627	687	56937	13.328	13.098	13.557
DTProbeTrack02	1	ProbeTrack	12.1	SCS215a	20100803.131316	20100803.131805	8	0.013328	60	10	60-180	60	152	GapExp	0	50	2	45	1	target	1	640	680	57617	13.328	13.033	13.622
DTProbeTrack02	1	ProbeTrack	12.1	SCS215a	20100803.131316	20100803.131838	8	0.013328	60	10	60-180	60	147	GapExp	0	51	2	9	1	target	1	494	753	58370	13.375	13.292	26.305
DTProbeTrack02	1	ProbeTrack	12.1	SCS215a	20100803.131316	20100803.131844	8	0.013328	60	10	60-180	60	153	GapExp	0	52	2	1	1	target	1	494	753	59123	13.328	13.245	13.376
DTProbeTrack02	1	ProbeTrack	12.1	SCS215a	20100803.131316	20100803.131850	8	0.013328	60	10	60-180	60	90	GapExp	0	53	2	45	0	distractor	1	534	733	59856	13.328	13.121	13.568
DTProbeTrack02	1	ProbeTrack	12.1	SCS215a	20100803.131316	20100803.131856	8	0.013328	60	10	60-180	60	69	GapExp	0	54	2	1	0	distractor	1	813	594	60450	13.328	12.953	13.736
DTProbeTrack02	1	ProbeTrack	12.1	SCS215a	20100803.131316	20100803.131901	8	0.013328	60	10	60-180	60	91	GapExp	0	55	2	3	1	target	1	387	807	61257	13.328	13.034	13.588
DTProbeTrack02	1	ProbeTrack	12.1	SCS215a	20100803.131316	20100803.131906	8	0.013328	60	10	60-180	60	80	GapExp	0	56	2	9	1	target	1	440	780	62037	13.328	13.155	13.535
DTProbeTrack02	1	ProbeTrack	12.1	SCS215a	20100803.131316	20100803.131911	8	0.013328	60	10	60-180	60	65	GapExp	0	57	2	1	1	target	1	467	767	62804	13.328	13.117	13.572
DTProbeTrack02	1	ProbeTrack	12.1	SCS215a	20100803.131316	20100803.131916	8	0.013328	60	10	60-180	60	163	GapExp	0	58	2	45	0	distractor	1	574	713	63517	13.328	13.077	13.580
DTProbeTrack02	1	ProbeTrack	12.1	SCS215a	20100803.131316	20100803.131922	8	0.013328	60	10	60-180	60	177	GapExp	0	59	2	3	0	target	0	720	-1000	62517	13.328	13.210	13.452
DTProbeTrack02	1	ProbeTrack	12.1	SCS215a	20100803.131316	20100803.131929	8	0.013328	60	10	60-180	60	152	GapExp	0	60	2	3	0	distractor	1	574	713	63230	13.328	13.071	13.567
DTProbeTrack02	1	ProbeTrack	12.1	SCS215a	20100803.131316	20100803.131935	8	0.013328	60	10	60-180	60	148	GapExp	0	61	2	1	0	distractor	1	494	753	63983	13.328	13.293	13.363
DTProbeTrack02	1	ProbeTrack	12.1	SCS215a	20100803.131316	20100803.131941	8	0.013328	60	10	60-180	60	94	GapExp	0	62	2	6	1	target	1	467	767	64750	13.328	13.293	13.363
DTProbeTrack02	1	ProbeTrack	12.1	SCS215a	20100803.131316	20100803.131946	8	0.013328	60	10	60-180	60	162	GapExp	0	63	2	1	1	target	1	853	574	65324	13.328	13.293	13.363
DTProbeTrack02	1	ProbeTrack	12.1	SCS215a	20100803.131316	20100803.131953	8	0.013328	60	10	60-180	60	173	GapExp	0	64	2	45	1	target	1	507	747	66071	13.328	13.293	13.363
DTProbeTrack02	1	ProbeTrack	12.1	SCS215a	20100803.131316	20100803.131959	8	0.013328	60	10	60-180	60	153	GapExp	0	65	2	9	0	distractor	1	1306	347	66418	13.328	13.292	13.363
DTProbeTrack02	1	ProbeTrack	12.1	SCS215a	20100803.131316	20100803.132006	8	0.013328	60	10	60-180	60	78	GapExp	0	66	2	9	0	distractor	1	587	707	67125	13.328	13.293	13.365
DTProbeTrack02	1	ProbeTrack	12.1	SCS215a	20100803.131316	20100803.132011	8	0.013328	60	10	60-180	60	105	GapExp	0	67	2	45	0	distractor	1	467	767	67892	13.328	13.042	13.580
DTProbeTrack02	1	ProbeTrack	12.1	SCS215a	20100803.131316	20100803.132017	8	0.013328	60	10	60-180	60	81	GapExp	0	68	2	3	0	target	0	680	-1000	66892	13.328	13.293	13.363
DTProbeTrack02	1	ProbeTrack	12.1	SCS215a	20100803.131316	20100803.132022	8	0.013328	60	10	60-180	60	93	GapExp	0	69	2	9	1	target	1	587	707	67599	13.328	13.293	13.363
DTProbeTrack02	1	ProbeTrack	12.1	SCS215a	20100803.131316	20100803.132028	8	0.013328	60	10	60-180	60	150	GapExp	0	70	2	9	1	target	1	1413	294	67893	13.328	13.292	13.363
DTProbeTrack02	1	ProbeTrack	12.1	SCS215a	20100803.131316	20100803.132035	8	0.013328	60	10	60-180	60	149	GapExp	0	71	2	3	1	target	1	480	760	68653	13.328	13.234	13.420
DTProbeTrack02	1	ProbeTrack	12.1	SCS215a	20100803.131316	20100803.132041	8	0.013328	60	10	60-180	60	170	GapExp	0	72	2	1	1	distractor	0	627	-1000	67653	13.327	13.006	13.363
DTProbeTrack02	1	ProbeTrack	12.1	SCS215a	20100803.131316	20100803.132047	8	0.013328	60	10	60-180	60	166	GapExp	0	73	2	45	1	target	1	667	667	68320	13.328	12.855	13.833
DTProbeTrack02	1	ProbeTrack	12.1	SCS215a	20100803.131316	20100803.132054	8	0.013328	60	10	60-180	60	63	GapExp	0	74	2	45	0	distractor	1	547	727	69047	13.328	13.292	13.363
DTProbeTrack02	1	ProbeTrack	12.1	SCS215a	20100803.131316	20100803.132059	8	0.013328	60	10	60-180	60	159	GapExp	0	75	2	1	0	distractor	1	667	667	69714	13.328	13.206	13.484
DTProbeTrack02	1	ProbeTrack	12.1	SCS215a	20100803.131316	20100803.132105	8	0.013328	60	10	60-180	60	150	GapExp	0	76	2	3	0	distractor	1	1200	400	70114	13.328	13.150	13.505
DTProbeTrack02	1	ProbeTrack	12.1	SCS215a	20100803.131316	20100803.132112	8	0.013328	60	10	60-180	60	80	GapExp	0	77	2	6	0	distractor	1	667	667	70781	13.328	13.065	13.557
DTProbeTrack02	1	ProbeTrack	12.1	SCS215a	20100803.131316	20100803.132117	8	0.013328	60	10	60-180	60	164	GapExp	0	78	2	1	0	distractor	1	520	740	71521	13.328	13.293	13.363
DTProbeTrack02	1	ProbeTrack	12.1	SCS215a	20100803.131316	20100803.132123	8	0.013328	60	10	60-180	60	99	GapExp	0	79	2	9	0	distractor	1	520	740	72261	13.328	12.974	13.715
DTProbeTrack02	1	ProbeTrack	12.1	SCS215a	20100803.131316	20100803.132129	8	0.013328	60	10	60-180	60	75	GapExp	0	80	2	45	1	target	1	454	773	73034	13.328	13.158	13.464
DTProbeTrack02	1	ProbeTrack	12.1	SCS215a	20100803.131316	20100803.132134	8	0.013328	60	10	60-180	60	78	GapExp	0	81	2	9	0	distractor	1	480	760	73794	13.328	13.259	13.397
DTProbeTrack02	1	ProbeTrack	12.1	SCS215a	20100803.131316	20100803.132139	8	0.013328	60	10	60-180	60	145	GapExp	0	82	2	9	0	distractor	1	507	747	74541	13.328	13.046	13.576
DTProbeTrack02	1	ProbeTrack	12.1	SCS215a	20100803.131316	20100803.132145	8	0.013328	60	10	60-180	60	161	GapExp	0	83	2	1	1	target	1	1293	354	74895	13.328	13.222	13.433
DTProbeTrack02	1	ProbeTrack	12.1	SCS215a	20100803.131316	20100803.132152	8	0.013328	60	10	60-180	60	166	GapExp	0	84	2	9	1	target	1	1426	287	75182	13.328	13.293	13.363
DTProbeTrack02	1	ProbeTrack	12.1	SCS215a	20100803.131316	20100803.132159	8	0.013328	60	10	60-180	60	72	GapExp	0	85	2	3	1	target	1	1213	394	75576	13.328	13.190	13.466
DTProbeTrack02	1	ProbeTrack	12.1	SCS215a	20100803.131316	20100803.132205	8	0.013328	60	10	60-180	60	119	GapExp	0	86	2	1	0	distractor	1	667	667	76243	13.328	13.293	13.363
DTProbeTrack02	1	ProbeTrack	12.1	SCS215a	20100803.131316	20100803.132210	8	0.013328	60	10	60-180	60	151	GapExp	0	87	2	1	1	target	1	733	634	76877	13.328	13.172	13.485
DTProbeTrack02	1	ProbeTrack	12.1	SCS215a	20100803.131316	20100803.132216	8	0.013328	60	10	60-180	60	151	GapExp	0	88	2	3	1	target	1	467	767	77644	13.328	13.230	13.426
DTProbeTrack02	1	ProbeTrack	12.1	SCS215a	20100803.131316	20100803.132222	8	0.013328	60	10	60-180	60	156	GapExp	0	89	2	6	1	target	1	494	753	78397	13.328	13.293	13.363
DTProbeTrack02	1	ProbeTrack	12.1	SCS215a	20100803.131316	20100803.132228	8	0.013328	60	10	60-180	60	107	GapExp	0	90	2	9	1	target	1	387	807	79204	13.328	13.073	13.606
DTProbeTrack02	1	ProbeTrack	12.1	SCS215a	20100803.131316	20100803.132234	8	0.013328	60	10	60-180	60	110	GapExp	0	91	2	3	0	distractor	1	560	720	79924	13.328	12.955	13.699
DTProbeTrack02	1	ProbeTrack	12.1	SCS215a	20100803.131316	20100803.132239	8	0.013328	60	10	60-180	60	82	GapExp	0	92	2	9	1	target	1	480	760	80684	13.328	13.277	13.412
DTProbeTrack02	1	ProbeTrack	12.1	SCS215a	20100803.131316	20100803.132244	8	0.013328	60	10	60-180	60	153	GapExp	0	93	2	3	1	target	1	614	693	81377	13.328	13.168	13.489
DTProbeTrack02	1	ProbeTrack	12.1	SCS215a	20100803.131316	20100803.132250	8	0.013328	60	10	60-180	60	142	GapExp	0	94	2	6	1	target	1	440	780	82157	13.328	13.293	13.367
DTProbeTrack02	1	ProbeTrack	12.1	SCS215a	20100803.131316	20100803.132256	8	0.013328	60	10	60-180	60	102	GapExp	0	95	2	6	1	target	1	574	713	82870	13.328	13.292	13.363
DTProbeTrack02	1	ProbeTrack	12.1	SCS215a	20100803.131316	20100803.132302	8	0.013328	60	10	60-180	60	133	GapExp	0	96	2	9	1	target	1	1267	367	83237	13.328	13.293	13.363
DTProbeTrack02	1	ProbeTrack	12.1	SCS215a	20100803.131316	20100803.132308	8	0.013328	60	10	60-180	60	87	GapExp	0	97	2	45	0	target	0	1040	-1000	82237	13.328	13.293	13.363
DTProbeTrack02	1	ProbeTrack	12.1	SCS215a	20100803.131316	20100803.132314	8	0.013328	60	10	60-180	60	97	GapExp	0	98	2	1	0	target	0	707	-1000	81237	13.328	13.293	13.363
DTProbeTrack02	1	ProbeTrack	12.1	SCS215a	20100803.131316	20100803.132320	8	0.013328	60	10	60-180	60	129	GapExp	0	99	2	45	1	target	1	494	753	81990	13.328	13.293	13.363
DTProbeTrack02	1	ProbeTrack	12.1	SCS215a	20100803.131316	20100803.132326	8	0.013328	60	10	60-180	60	72	GapExp	0	100	2	3	0	distractor	1	534	733	82723	13.328	13.165	13.490
DTProbeTrack02	1	ProbeTrack	12.1	SCS215a	20100803.131316	20100803.132409	8	0.013328	60	10	60-180	60	147	GapExp	0	101	2	6	0	distractor	1	1280	360	83083	13.328	13.278	13.366
DTProbeTrack02	1	ProbeTrack	12.1	SCS215a	20100803.131316	20100803.132415	8	0.013328	60	10	60-180	60	61	GapExp	0	102	2	3	0	distractor	1	534	733	83816	13.328	13.293	13.363
DTProbeTrack02	1	ProbeTrack	12.1	SCS215a	20100803.131316	20100803.132420	8	0.013328	60	10	60-180	60	177	GapExp	0	103	2	6	0	distractor	1	387	807	84623	13.328	13.293	13.363
DTProbeTrack02	1	ProbeTrack	12.1	SCS215a	20100803.131316	20100803.132427	8	0.013328	60	10	60-180	60	71	GapExp	0	104	2	3	1	target	1	400	800	85423	13.328	13.293	13.363
DTProbeTrack02	1	ProbeTrack	12.1	SCS215a	20100803.131316	20100803.132431	8	0.013328	60	10	60-180	60	70	GapExp	0	105	2	6	1	distractor	0	547	-1000	84423	13.393	13.225	26.310
DTProbeTrack02	1	ProbeTrack	12.1	SCS215a	20100803.131316	20100803.132436	8	0.013328	60	10	60-180	60	121	GapExp	0	106	2	3	1	target	1	1053	474	84897	13.328	13.293	13.364
DTProbeTrack02	1	ProbeTrack	12.1	SCS215a	20100803.131316	20100803.132442	8	0.013328	60	10	60-180	60	163	GapExp	0	107	2	1	0	distractor	1	600	700	85597	13.328	13.166	13.507
DTProbeTrack02	1	ProbeTrack	12.1	SCS215a	20100803.131316	20100803.132449	8	0.013328	60	10	60-180	60	141	GapExp	0	108	2	3	1	target	1	787	607	86204	13.328	13.290	13.365
DTProbeTrack02	1	ProbeTrack	12.1	SCS215a	20100803.131316	20100803.132455	8	0.013328	60	10	60-180	60	84	GapExp	0	109	2	1	1	target	1	680	660	86864	13.328	13.282	13.375
DTProbeTrack02	1	ProbeTrack	12.1	SCS215a	20100803.131316	20100803.132500	8	0.013328	60	10	60-180	60	104	GapExp	0	110	2	3	0	distractor	1	520	740	87604	13.385	13.293	26.377
DTProbeTrack02	1	ProbeTrack	12.1	SCS215a	20100803.131316	20100803.132505	8	0.013328	60	10	60-180	60	68	GapExp	0	111	2	6	1	target	1	427	787	88391	13.328	13.001	13.620
DTProbeTrack02	1	ProbeTrack	12.1	SCS215a	20100803.131316	20100803.132510	8	0.013328	60	10	60-180	60	95	GapExp	0	112	2	45	1	distractor	0	507	-1000	87391	13.328	13.030	13.626
DTProbeTrack02	1	ProbeTrack	12.1	SCS215a	20100803.131316	20100803.132516	8	0.013328	60	10	60-180	60	125	GapExp	0	113	2	6	0	target	0	467	-1000	86391	13.328	13.204	13.406
DTProbeTrack02	1	ProbeTrack	12.1	SCS215a	20100803.131316	20100803.132521	8	0.013328	60	10	60-180	60	136	GapExp	0	114	2	9	0	target	0	600	-1000	85391	13.328	13.255	13.405
DTProbeTrack02	1	ProbeTrack	12.1	SCS215a	20100803.131316	20100803.132527	8	0.013328	60	10	60-180	60	140	GapExp	0	115	2	9	1	target	1	374	813	86204	13.328	12.974	13.681
DTProbeTrack02	1	ProbeTrack	12.1	SCS215a	20100803.131316	20100803.132533	8	0.013328	60	10	60-180	60	154	GapExp	0	116	2	6	0	distractor	1	534	733	86937	13.328	13.218	13.437
DTProbeTrack02	1	ProbeTrack	12.1	SCS215a	20100803.131316	20100803.132539	8	0.013328	60	10	60-180	60	72	GapExp	0	117	2	9	1	target	1	507	747	87684	13.328	13.293	13.363
DTProbeTrack02	1	ProbeTrack	12.1	SCS215a	20100803.131316	20100803.132544	8	0.013328	60	10	60-180	60	76	GapExp	0	118	2	9	0	distractor	1	480	760	88444	13.328	13.293	13.363
DTProbeTrack02	1	ProbeTrack	12.1	SCS215a	20100803.131316	20100803.132549	8	0.013328	60	10	60-180	60	175	GapExp	0	119	2	1	1	target	1	414	793	89237	13.328	13.030	13.592
DTProbeTrack02	1	ProbeTrack	12.1	SCS215a	20100803.131316	20100803.132555	8	0.013328	60	10	60-180	60	98	GapExp	0	120	2	6	0	distractor	1	454	773	90010	13.328	13.258	13.398
DTProbeTrack02	1	ProbeTrack	12.1	SCS215a	20100803.131316	20100803.132601	8	0.013328	60	10	60-180	60	76	GapExp	0	121	2	45	1	target	1	494	753	90763	13.328	13.293	13.363
DTProbeTrack02	1	ProbeTrack	12.1	SCS215a	20100803.131316	20100803.132606	8	0.013328	60	10	60-180	60	81	GapExp	0	122	2	6	0	distractor	1	467	767	91530	13.328	13.260	13.363
DTProbeTrack02	1	ProbeTrack	12.1	SCS215a	20100803.131316	20100803.132611	8	0.013328	60	10	60-180	60	117	GapExp	0	123	2	9	0	distractor	1	520	740	92270	13.328	13.262	13.395
DTProbeTrack02	1	ProbeTrack	12.1	SCS215a	20100803.131316	20100803.132617	8	0.013328	60	10	60-180	60	93	GapExp	0	124	2	9	1	target	1	414	793	93063	13.328	13.293	13.363
DTProbeTrack02	1	ProbeTrack	12.1	SCS215a	20100803.131316	20100803.132622	8	0.013328	60	10	60-180	60	104	GapExp	0	125	2	45	0	distractor	1	547	727	93790	13.328	13.293	13.363
DTProbeTrack02	1	ProbeTrack	12.1	SCS215a	20100803.131316	20100803.132628	8	0.013328	60	10	60-180	60	128	GapExp	0	126	2	3	1	target	1	1053	474	94264	13.328	13.293	13.364
DTProbeTrack02	1	ProbeTrack	12.1	SCS215a	20100803.131316	20100803.132634	8	0.013328	60	10	60-180	60	142	GapExp	0	127	2	6	0	target	0	827	-1000	93264	13.328	13.293	13.363
DTProbeTrack02	1	ProbeTrack	12.1	SCS215a	20100803.131316	20100803.132640	8	0.013328	60	10	60-180	60	139	GapExp	0	128	2	1	1	target	1	507	747	94011	13.328	13.022	13.635
DTProbeTrack02	1	ProbeTrack	12.1	SCS215a	20100803.131316	20100803.132646	8	0.013328	60	10	60-180	60	77	GapExp	0	129	2	45	0	target	0	1080	-1000	93011	13.328	13.293	13.363
DTProbeTrack02	1	ProbeTrack	12.1	SCS215a	20100803.131316	20100803.132652	8	0.013328	60	10	60-180	60	172	GapExp	0	130	2	45	0	target	0	614	-1000	92011	13.328	13.071	13.550
DTProbeTrack02	1	ProbeTrack	12.1	SCS215a	20100803.131316	20100803.132659	8	0.013328	60	10	60-180	60	147	GapExp	0	131	2	45	1	target	1	880	560	92571	13.328	12.882	13.808
DTProbeTrack02	1	ProbeTrack	12.1	SCS215a	20100803.131316	20100803.132706	8	0.013328	60	10	60-180	60	147	GapExp	0	132	2	3	1	target	1	1133	434	93005	13.328	13.159	13.463
DTProbeTrack02	1	ProbeTrack	12.1	SCS215a	20100803.131316	20100803.132712	8	0.013328	60	10	60-180	60	129	GapExp	0	133	2	45	0	distractor	1	560	720	93725	13.328	13.203	13.486
DTProbeTrack02	1	ProbeTrack	12.1	SCS215a	20100803.131316	20100803.132719	8	0.013328	60	10	60-180	60	130	GapExp	0	134	2	3	0	target	0	654	-1000	92725	13.328	12.942	13.713
DTProbeTrack02	1	ProbeTrack	12.1	SCS215a	20100803.131316	20100803.132724	8	0.013328	60	10	60-180	60	170	GapExp	0	135	2	9	0	distractor	1	733	634	93359	13.328	13.293	13.363
DTProbeTrack02	1	ProbeTrack	12.1	SCS215a	20100803.131316	20100803.132731	8	0.013328	60	10	60-180	60	108	GapExp	0	136	2	3	0	distractor	1	747	627	93986	13.328	13.208	13.448
DTProbeTrack02	1	ProbeTrack	12.1	SCS215a	20100803.131316	20100803.132737	8	0.013328	60	10	60-180	60	64	GapExp	0	137	2	3	1	target	1	440	780	94766	13.328	13.124	13.532
DTProbeTrack02	1	ProbeTrack	12.1	SCS215a	20100803.131316	20100803.132741	8	0.013328	60	10	60-180	60	79	GapExp	0	138	2	9	0	distractor	1	507	747	95513	13.328	13.293	13.383
DTProbeTrack02	1	ProbeTrack	12.1	SCS215a	20100803.131316	20100803.132746	8	0.013328	60	10	60-180	60	67	GapExp	0	139	2	6	1	target	1	440	780	96293	13.328	13.183	13.473
DTProbeTrack02	1	ProbeTrack	12.1	SCS215a	20100803.131316	20100803.132751	8	0.013328	60	10	60-180	60	90	GapExp	0	140	2	6	0	distractor	1	1147	427	96720	13.328	13.164	13.508
DTProbeTrack02	1	ProbeTrack	12.1	SCS215a	20100803.131316	20100803.132757	8	0.013328	60	10	60-180	60	175	GapExp	0	141	2	45	0	distractor	1	347	827	97547	13.328	13.227	13.428
DTProbeTrack02	1	ProbeTrack	12.1	SCS215a	20100803.131316	20100803.132804	8	0.013328	60	10	60-180	60	128	GapExp	0	142	2	3	1	target	1	507	747	98294	13.328	13.197	13.425
DTProbeTrack02	1	ProbeTrack	12.1	SCS215a	20100803.131316	20100803.132809	8	0.013328	60	10	60-180	60	73	GapExp	0	143	2	9	1	target	1	427	787	99081	13.328	13.076	13.545
DTProbeTrack02	1	ProbeTrack	12.1	SCS215a	20100803.131316	20100803.132814	8	0.013328	60	10	60-180	60	142	GapExp	0	144	2	3	1	target	1	787	607	99688	13.328	13.220	13.435
DTProbeTrack02	1	ProbeTrack	12.1	SCS215a	20100803.131316	20100803.132821	8	0.013328	60	10	60-180	60	95	GapExp	0	145	2	45	1	target	1	1141	430	100118	13.328	13.192	13.443
DTProbeTrack02	1	ProbeTrack	12.1	SCS215a	20100803.131316	20100803.132827	8	0.013328	60	10	60-180	60	108	GapExp	0	146	2	45	1	target	1	427	787	100905	13.328	13.163	13.489
DTProbeTrack02	1	ProbeTrack	12.1	SCS215a	20100803.131316	20100803.132833	8	0.013328	60	10	60-180	60	157	GapExp	0	147	2	1	0	distractor	1	574	713	101618	13.420	13.242	39.948
DTProbeTrack02	1	ProbeTrack	12.1	SCS215a	20100803.131316	20100803.132839	8	0.013328	60	10	60-180	60	171	GapExp	0	148	2	3	0	target	0	574	-1000	100618	13.328	13.200	13.477
DTProbeTrack02	1	ProbeTrack	12.1	SCS215a	20100803.131316	20100803.132845	8	0.013328	60	10	60-180	60	130	GapExp	0	149	2	45	0	distractor	1	414	793	101411	13.328	13.258	13.367
DTProbeTrack02	1	ProbeTrack	12.1	SCS215a	20100803.131316	20100803.132851	8	0.013328	60	10	60-180	60	87	GapExp	0	150	2	1	0	distractor	1	587	707	102118	13.328	13.225	13.466
DTProbeTrack02	1	ProbeTrack	12.1	SCS215a	20100803.131316	20100803.132916	8	0.013328	60	10	60-180	60	140	GapExp	0	151	2	3	1	target	1	374	813	102931	13.328	13.293	13.363
DTProbeTrack02	1	ProbeTrack	12.1	SCS215a	20100803.131316	20100803.132922	8	0.013328	60	10	60-180	60	167	GapExp	0	152	2	1	0	distractor	1	574	713	103644	13.328	13.028	13.626
DTProbeTrack02	1	ProbeTrack	12.1	SCS215a	20100803.131316	20100803.132928	8	0.013328	60	10	60-180	60	169	GapExp	0	153	2	6	0	distractor	1	813	594	104238	13.328	13.032	13.591
DTProbeTrack02	1	ProbeTrack	12.1	SCS215a	20100803.131316	20100803.132935	8	0.013328	60	10	60-180	60	148	GapExp	0	154	2	1	0	distractor	1	707	647	104885	13.328	13.253	13.368
DTProbeTrack02	1	ProbeTrack	12.1	SCS215a	20100803.131316	20100803.132941	8	0.013328	60	10	60-180	60	71	GapExp	0	155	2	3	0	distractor	1	693	654	105539	13.328	12.987	13.668
DTProbeTrack02	1	ProbeTrack	12.1	SCS215a	20100803.131316	20100803.132946	8	0.013328	60	10	60-180	60	152	GapExp	0	156	2	6	0	target	0	693	-1000	104539	13.373	13.090	26.603
DTProbeTrack02	1	ProbeTrack	12.1	SCS215a	20100803.131316	20100803.132952	8	0.013328	60	10	60-180	60	164	GapExp	0	157	2	9	0	distractor	1	707	647	105186	13.328	13.292	13.363
DTProbeTrack02	1	ProbeTrack	12.1	SCS215a	20100803.131316	20100803.132959	8	0.013328	60	10	60-180	60	149	GapExp	0	158	2	45	1	target	1	454	773	105959	13.412	13.288	39.986
DTProbeTrack02	1	ProbeTrack	12.1	SCS215a	20100803.131316	20100803.133005	8	0.013328	60	10	60-180	60	166	GapExp	0	159	2	9	1	target	1	414	793	106752	13.328	13.164	13.492
DTProbeTrack02	1	ProbeTrack	12.1	SCS215a	20100803.131316	20100803.133011	8	0.013328	60	10	60-180	60	97	GapExp	0	160	2	6	0	distractor	1	507	747	107499	13.328	13.209	13.448
DTProbeTrack02	1	ProbeTrack	12.1	SCS215a	20100803.131316	20100803.133017	8	0.013328	60	10	60-180	60	99	GapExp	0	161	2	3	1	target	1	360	820	108319	13.328	13.285	13.370
DTProbeTrack02	1	ProbeTrack	12.1	SCS215a	20100803.131316	20100803.133022	8	0.013328	60	10	60-180	60	151	GapExp	0	162	2	45	0	distractor	1	454	773	109092	13.328	13.040	13.582
DTProbeTrack02	1	ProbeTrack	12.1	SCS215a	20100803.131316	20100803.133028	8	0.013328	60	10	60-180	60	114	GapExp	0	163	2	1	1	target	1	440	780	109872	13.328	13.139	13.549
DTProbeTrack02	1	ProbeTrack	12.1	SCS215a	20100803.131316	20100803.133034	8	0.013328	60	10	60-180	60	95	GapExp	0	164	2	3	1	target	1	480	760	110632	13.328	13.293	13.363
DTProbeTrack02	1	ProbeTrack	12.1	SCS215a	20100803.131316	20100803.133039	8	0.013328	60	10	60-180	60	99	GapExp	0	165	2	3	0	distractor	1	547	727	111359	13.328	13.246	13.409
DTProbeTrack02	1	ProbeTrack	12.1	SCS215a	20100803.131316	20100803.133044	8	0.013328	60	10	60-180	60	164	GapExp	0	166	2	45	0	distractor	1	494	753	112112	13.328	13.209	13.480
DTProbeTrack02	1	ProbeTrack	12.1	SCS215a	20100803.131316	20100803.133051	8	0.013328	60	10	60-180	60	101	GapExp	0	167	2	3	0	distractor	1	627	687	112799	13.328	13.176	13.479
DTProbeTrack02	1	ProbeTrack	12.1	SCS215a	20100803.131316	20100803.133056	8	0.013328	60	10	60-180	60	61	GapExp	0	168	2	1	1	target	1	494	753	113552	13.328	13.293	13.362
DTProbeTrack02	1	ProbeTrack	12.1	SCS215a	20100803.131316	20100803.133101	8	0.013328	60	10	60-180	60	179	GapExp	0	169	2	3	1	target	1	440	780	114332	13.328	13.292	13.388
DTProbeTrack02	1	ProbeTrack	12.1	SCS215a	20100803.131316	20100803.133107	8	0.013328	60	10	60-180	60	113	GapExp	0	170	2	9	1	target	1	867	567	114899	13.328	13.293	13.363
DTProbeTrack02	1	ProbeTrack	12.1	SCS215a	20100803.131316	20100803.133113	8	0.013328	60	10	60-180	60	65	GapExp	0	171	2	9	0	distractor	1	507	747	115646	13.328	13.253	13.384
DTProbeTrack02	1	ProbeTrack	12.1	SCS215a	20100803.131316	20100803.133118	8	0.013328	60	10	60-180	60	162	GapExp	0	172	2	9	0	distractor	1	520	740	116386	13.328	12.999	13.690
DTProbeTrack02	1	ProbeTrack	12.1	SCS215a	20100803.131316	20100803.133124	8	0.013328	60	10	60-180	60	148	GapExp	0	173	2	1	1	target	1	400	800	117186	13.328	13.171	13.451
DTProbeTrack02	1	ProbeTrack	12.1	SCS215a	20100803.131316	20100803.133130	8	0.013328	60	10	60-180	60	73	GapExp	0	174	2	9	0	distractor	1	494	753	117939	13.393	13.293	26.280
DTProbeTrack02	1	ProbeTrack	12.1	SCS215a	20100803.131316	20100803.133135	8	0.013328	60	10	60-180	60	101	GapExp	0	175	2	1	1	target	1	667	667	118606	13.328	13.207	13.425
DTProbeTrack02	1	ProbeTrack	12.1	SCS215a	20100803.131316	20100803.133140	8	0.013328	60	10	60-180	60	153	GapExp	0	176	2	6	1	target	1	400	800	119406	13.328	13.293	13.363
DTProbeTrack02	1	ProbeTrack	12.1	SCS215a	20100803.131316	20100803.133146	8	0.013328	60	10	60-180	60	80	GapExp	0	177	2	1	1	target	1	680	660	120066	13.328	13.293	13.363
DTProbeTrack02	1	ProbeTrack	12.1	SCS215a	20100803.131316	20100803.133152	8	0.013328	60	10	60-180	60	78	GapExp	0	178	2	6	0	target	0	640	-1000	119066	13.328	13.254	13.403
DTProbeTrack02	1	ProbeTrack	12.1	SCS215a	20100803.131316	20100803.133157	8	0.013328	60	10	60-180	60	78	GapExp	0	179	2	1	0	distractor	1	600	700	119766	13.328	13.143	13.546
DTProbeTrack02	1	ProbeTrack	12.1	SCS215a	20100803.131316	20100803.133202	8	0.013328	60	10	60-180	60	165	GapExp	0	180	2	1	0	distractor	1	654	673	120439	13.328	13.108	13.581
DTProbeTrack02	1	ProbeTrack	12.1	SCS215a	20100803.131316	20100803.133208	8	0.013328	60	10	60-180	60	107	GapExp	0	181	2	45	1	target	1	574	713	121152	13.328	12.966	13.690
DTProbeTrack02	1	ProbeTrack	12.1	SCS215a	20100803.131316	20100803.133214	8	0.013328	60	10	60-180	60	105	GapExp	0	182	2	45	1	target	1	1200	400	121552	13.328	13.263	13.392
DTProbeTrack02	1	ProbeTrack	12.1	SCS215a	20100803.131316	20100803.133221	8	0.013328	60	10	60-180	60	146	GapExp	0	183	2	1	1	target	1	600	700	122252	13.328	13.202	13.453
DTProbeTrack02	1	ProbeTrack	12.1	SCS215a	20100803.131316	20100803.133227	8	0.013328	60	10	60-180	60	164	GapExp	0	184	2	45	1	target	1	560	720	122972	13.328	13.025	13.597
DTProbeTrack02	1	ProbeTrack	12.1	SCS215a	20100803.131316	20100803.133233	8	0.013328	60	10	60-180	60	150	GapExp	0	185	2	6	1	target	1	467	767	123739	13.328	13.292	13.364
DTProbeTrack02	1	ProbeTrack	12.1	SCS215a	20100803.131316	20100803.133239	8	0.013328	60	10	60-180	60	141	GapExp	0	186	2	45	0	distractor	1	520	740	124479	13.328	13.182	13.440
DTProbeTrack02	1	ProbeTrack	12.1	SCS215a	20100803.131316	20100803.133246	8	0.013328	60	10	60-180	60	158	GapExp	0	187	2	6	1	target	1	400	800	125279	13.328	13.187	13.463
DTProbeTrack02	1	ProbeTrack	12.1	SCS215a	20100803.131316	20100803.133252	8	0.013328	60	10	60-180	60	170	GapExp	0	188	2	45	1	target	1	387	807	126086	13.368	13.293	26.688
DTProbeTrack02	1	ProbeTrack	12.1	SCS215a	20100803.131316	20100803.133258	8	0.013328	60	10	60-180	60	110	GapExp	0	189	2	1	1	target	1	347	827	126913	13.328	13.293	13.364
DTProbeTrack02	1	ProbeTrack	12.1	SCS215a	20100803.131316	20100803.133304	8	0.013328	60	10	60-180	60	176	GapExp	0	190	2	6	0	distractor	1	534	733	127646	13.328	13.293	13.366
DTProbeTrack02	1	ProbeTrack	12.1	SCS215a	20100803.131316	20100803.133310	8	0.013328	60	10	60-180	60	133	GapExp	0	191	2	9	1	target	1	520	740	128386	13.328	13.292	13.363
DTProbeTrack02	1	ProbeTrack	12.1	SCS215a	20100803.131316	20100803.133316	8	0.013328	60	10	60-180	60	98	GapExp	0	192	2	9	1	target	1	480	760	129146	13.328	13.293	13.363
DTProbeTrack02	1	ProbeTrack	12.1	SCS215a	20100803.131316	20100803.133321	8	0.013328	60	10	60-180	60	152	GapExp	0	193	2	1	0	distractor	1	680	660	129806	13.328	13.290	13.363
DTProbeTrack02	1	ProbeTrack	12.1	SCS215a	20100803.131316	20100803.133327	8	0.013328	60	10	60-180	60	130	GapExp	0	194	2	6	0	distractor	1	507	747	130553	13.328	13.124	13.498
DTProbeTrack02	1	ProbeTrack	12.1	SCS215a	20100803.131316	20100803.133333	8	0.013328	60	10	60-180	60	108	GapExp	0	195	2	3	0	distractor	1	520	740	131293	13.328	13.272	13.417
DTProbeTrack02	1	ProbeTrack	12.1	SCS215a	20100803.131316	20100803.133338	8	0.013328	60	10	60-180	60	168	GapExp	0	196	2	6	1	target	1	387	807	132100	13.328	13.274	13.414
DTProbeTrack02	1	ProbeTrack	12.1	SCS215a	20100803.131316	20100803.133344	8	0.013328	60	10	60-180	60	174	GapExp	0	197	2	9	0	distractor	1	520	740	132840	13.328	12.911	13.743
DTProbeTrack02	1	ProbeTrack	12.1	SCS215a	20100803.131316	20100803.133351	8	0.013328	60	10	60-180	60	123	GapExp	0	198	2	45	1	target	1	427	787	133627	13.328	13.280	13.377
DTProbeTrack02	1	ProbeTrack	12.1	SCS215a	20100803.131316	20100803.133357	8	0.013328	60	10	60-180	60	161	GapExp	0	199	2	45	1	target	1	454	773	134400	13.328	13.008	13.647
DTProbeTrack02	1	ProbeTrack	12.1	SCS215a	20100803.131316	20100803.133403	8	0.013328	60	10	60-180	60	118	GapExp	0	200	2	1	0	distractor	1	600	700	135100	13.328	13.046	13.642
DTProbeTrack02	1	ProbeTrack	12.1	SCS215a	20100803.131316	20100803.133429	8	0.013328	60	10	60-180	60	171	GapExp	0	201	2	3	0	distractor	1	680	660	135760	13.328	13.293	13.363
DTProbeTrack02	1	ProbeTrack	12.1	SCS215a	20100803.131316	20100803.133436	8	0.013328	60	10	60-180	60	111	GapExp	0	202	2	6	1	target	1	827	587	136347	13.328	13.293	13.363
DTProbeTrack02	1	ProbeTrack	12.1	SCS215a	20100803.131316	20100803.133442	8	0.013328	60	10	60-180	60	156	GapExp	0	203	2	9	1	target	1	454	773	137120	13.328	13.229	13.392
DTProbeTrack02	1	ProbeTrack	12.1	SCS215a	20100803.131316	20100803.133448	8	0.013328	60	10	60-180	60	68	GapExp	0	204	2	9	0	distractor	1	494	753	137873	13.328	13.292	13.363
DTProbeTrack02	1	ProbeTrack	12.1	SCS215a	20100803.131316	20100803.133453	8	0.013328	60	10	60-180	60	108	GapExp	0	205	2	9	0	distractor	1	680	660	138533	13.328	13.293	13.364
