exp	sub	code	rev	comp	runtime	trialtime	nstim	refreshdur	cuedur	gapdur	gapOnsetRange	durPostProbe	gapOnsetTime	blocktype	prac	trial	ntargets	soa	probeTarget	resp	acc	rt	pts	tpts	meanFrameDur	minFrameDur	maxFrameDur
DTProbeTrack02	3	ProbeTrack	12.1	SCS215a	20100804.100304	20100804.100313	8	0.013327	60	0	60-180	60	175	NoGap	1	1	2	9	1	target	1	853	574	574	13.328	12.938	13.718
DTProbeTrack02	3	ProbeTrack	12.1	SCS215a	20100804.100304	20100804.100320	8	0.013327	60	0	60-180	60	118	NoGap	1	2	2	1	0	distractor	1	1027	487	1061	13.328	13.293	13.363
DTProbeTrack02	3	ProbeTrack	12.1	SCS215a	20100804.100304	20100804.100326	8	0.013327	60	0	60-180	60	77	NoGap	1	3	2	9	0	target	0	1147	-1000	61	13.328	12.984	13.641
DTProbeTrack02	3	ProbeTrack	12.1	SCS215a	20100804.100304	20100804.100331	8	0.013327	60	0	60-180	60	151	NoGap	1	4	2	1	1	target	1	613	694	755	13.328	13.293	13.363
DTProbeTrack02	3	ProbeTrack	12.1	SCS215a	20100804.100304	20100804.100337	8	0.013327	60	0	60-180	60	111	NoGap	1	5	2	45	0	distractor	1	747	627	1382	13.328	12.984	13.638
DTProbeTrack02	3	ProbeTrack	12.1	SCS215a	20100804.100304	20100804.100343	8	0.013327	60	0	60-180	60	126	NoGap	1	6	2	9	0	distractor	1	760	620	2002	13.328	13.078	13.610
DTProbeTrack02	3	ProbeTrack	12.1	SCS215a	20100804.100304	20100804.100349	8	0.013327	60	0	60-180	60	127	NoGap	1	7	2	9	1	distractor	0	494	-1000	1002	13.328	13.293	13.362
DTProbeTrack02	3	ProbeTrack	12.1	SCS215a	20100804.100304	20100804.100355	8	0.013327	60	0	60-180	60	116	NoGap	1	8	2	45	1	target	1	627	687	1689	13.328	13.293	13.363
DTProbeTrack02	3	ProbeTrack	12.1	SCS215a	20100804.100304	20100804.100401	8	0.013327	60	0	60-180	60	129	NoGap	1	9	2	1	1	target	1	600	700	2389	13.328	13.293	13.363
DTProbeTrack02	3	ProbeTrack	12.1	SCS215a	20100804.100304	20100804.100407	8	0.013327	60	0	60-180	60	122	NoGap	1	10	2	3	0	distractor	1	560	720	3109	13.328	13.293	13.363
DTProbeTrack02	3	ProbeTrack	12.1	SCS215a	20100804.100304	20100804.100412	8	0.013327	60	0	60-180	60	148	NoGap	1	11	2	3	1	target	1	454	773	3882	13.328	13.194	13.490
DTProbeTrack02	3	ProbeTrack	12.1	SCS215a	20100804.100304	20100804.100418	8	0.013327	60	0	60-180	60	84	NoGap	1	12	2	6	1	target	1	440	780	4662	13.327	13.292	13.363
DTProbeTrack02	3	ProbeTrack	12.1	SCS215a	20100804.100304	20100804.100423	8	0.013327	60	0	60-180	60	152	NoGap	1	13	2	3	0	distractor	1	574	713	5375	13.328	13.287	13.363
DTProbeTrack02	3	ProbeTrack	12.1	SCS215a	20100804.100304	20100804.100429	8	0.013327	60	0	60-180	60	126	NoGap	1	14	2	45	1	target	1	494	753	6128	13.328	13.289	13.366
DTProbeTrack02	3	ProbeTrack	12.1	SCS215a	20100804.100304	20100804.100435	8	0.013327	60	0	60-180	60	103	NoGap	1	15	2	9	1	target	1	614	693	6821	13.328	12.981	13.641
DTProbeTrack02	3	ProbeTrack	12.1	SCS215a	20100804.100304	20100804.100441	8	0.013327	60	0	60-180	60	94	NoGap	1	16	2	6	1	target	1	454	773	7594	13.327	13.065	13.624
DTProbeTrack02	3	ProbeTrack	12.1	SCS215a	20100804.100304	20100804.100446	8	0.013327	60	0	60-180	60	104	NoGap	1	17	2	6	0	distractor	1	547	727	8321	13.328	13.143	13.512
DTProbeTrack02	3	ProbeTrack	12.1	SCS215a	20100804.100304	20100804.100451	8	0.013327	60	0	60-180	60	146	NoGap	1	18	2	3	0	distractor	1	560	720	9041	13.328	12.966	13.655
DTProbeTrack02	3	ProbeTrack	12.1	SCS215a	20100804.100304	20100804.100457	8	0.013327	60	0	60-180	60	149	NoGap	1	19	2	3	1	distractor	0	467	-1000	8041	13.328	12.955	13.701
DTProbeTrack02	3	ProbeTrack	12.1	SCS215a	20100804.100304	20100804.100503	8	0.013327	60	0	60-180	60	146	NoGap	1	20	2	6	0	distractor	1	747	627	8668	13.328	13.062	13.626
DTProbeTrack02	3	ProbeTrack	12.1	SCS215a	20100804.100304	20100804.100509	8	0.013327	60	0	60-180	60	124	NoGap	1	21	2	9	0	distractor	1	587	707	9375	13.328	13.135	13.487
DTProbeTrack02	3	ProbeTrack	12.1	SCS215a	20100804.100304	20100804.100515	8	0.013327	60	0	60-180	60	88	NoGap	1	22	2	45	0	distractor	1	800	600	9975	13.328	13.270	13.385
DTProbeTrack02	3	ProbeTrack	12.1	SCS215a	20100804.100304	20100804.100521	8	0.013327	60	0	60-180	60	162	NoGap	1	23	2	45	0	distractor	1	654	673	10648	13.328	13.169	13.486
DTProbeTrack02	3	ProbeTrack	12.1	SCS215a	20100804.100304	20100804.100528	8	0.013327	60	0	60-180	60	127	NoGap	1	24	2	6	0	distractor	1	654	673	11321	13.328	13.293	13.363
DTProbeTrack02	3	ProbeTrack	12.1	SCS215a	20100804.100304	20100804.100533	8	0.013327	60	0	60-180	60	172	NoGap	1	25	2	1	1	target	1	614	693	12014	13.328	13.047	13.609
DTProbeTrack02	3	ProbeTrack	12.1	SCS215a	20100804.100304	20100804.100540	8	0.013327	60	0	60-180	60	172	NoGap	1	26	2	45	0	distractor	1	614	693	12707	13.328	13.160	13.462
DTProbeTrack02	3	ProbeTrack	12.1	SCS215a	20100804.100304	20100804.100546	8	0.013327	60	0	60-180	60	120	NoGap	1	27	2	9	1	target	1	680	660	13367	13.328	13.293	13.363
DTProbeTrack02	3	ProbeTrack	12.1	SCS215a	20100804.100304	20100804.100552	8	0.013327	60	0	60-180	60	146	NoGap	1	28	2	9	0	distractor	1	720	640	14007	13.328	13.126	13.503
DTProbeTrack02	3	ProbeTrack	12.1	SCS215a	20100804.100304	20100804.100558	8	0.013327	60	0	60-180	60	86	NoGap	1	29	2	3	0	distractor	1	747	627	14634	13.327	13.262	13.393
DTProbeTrack02	3	ProbeTrack	12.1	SCS215a	20100804.100304	20100804.100604	8	0.013327	60	0	60-180	60	148	NoGap	1	30	2	6	1	target	1	600	700	15334	13.328	13.184	13.471
DTProbeTrack02	3	ProbeTrack	12.1	SCS215a	20100804.100304	20100804.100610	8	0.013327	60	0	60-180	60	163	NoGap	1	31	2	45	1	target	1	667	667	16001	13.328	13.289	13.367
DTProbeTrack02	3	ProbeTrack	12.1	SCS215a	20100804.100304	20100804.100616	8	0.013327	60	0	60-180	60	126	NoGap	1	32	2	6	0	distractor	1	627	687	16688	13.328	13.225	13.431
DTProbeTrack02	3	ProbeTrack	12.1	SCS215a	20100804.100304	20100804.100622	8	0.013327	60	0	60-180	60	61	NoGap	1	33	2	3	1	target	1	734	633	17321	13.327	13.293	13.363
DTProbeTrack02	3	ProbeTrack	12.1	SCS215a	20100804.100304	20100804.100627	8	0.013327	60	0	60-180	60	76	NoGap	1	34	2	3	1	target	1	587	707	18028	13.328	13.293	13.363
DTProbeTrack02	3	ProbeTrack	12.1	SCS215a	20100804.100304	20100804.100632	8	0.013327	60	0	60-180	60	149	NoGap	1	35	2	6	1	target	1	587	707	18735	13.328	13.292	13.363
DTProbeTrack02	3	ProbeTrack	12.1	SCS215a	20100804.100304	20100804.100638	8	0.013327	60	0	60-180	60	78	NoGap	1	36	2	1	0	distractor	1	627	687	19422	13.328	13.254	13.401
DTProbeTrack02	3	ProbeTrack	12.1	SCS215a	20100804.100304	20100804.100643	8	0.013327	60	0	60-180	60	127	NoGap	1	37	2	1	1	target	1	560	720	20142	13.328	13.046	13.609
DTProbeTrack02	3	ProbeTrack	12.1	SCS215a	20100804.100304	20100804.100649	8	0.013327	60	0	60-180	60	86	NoGap	1	38	2	1	0	distractor	1	667	667	20809	13.327	13.289	13.363
DTProbeTrack02	3	ProbeTrack	12.1	SCS215a	20100804.100304	20100804.100654	8	0.013327	60	0	60-180	60	143	NoGap	1	39	2	45	1	target	1	534	733	21542	13.328	13.110	13.547
DTProbeTrack02	3	ProbeTrack	12.1	SCS215a	20100804.100304	20100804.100700	8	0.013327	60	0	60-180	60	83	NoGap	1	40	2	1	0	distractor	1	654	673	22215	13.327	13.293	13.363
DTProbeTrack02	3	ProbeTrack	12.1	SCS215a	20100804.100815	20100804.100819	8	0.013328	60	10	60-180	60	173	GapPrac	1	1	2	1	1	distractor	0	1786	-1000	21215	13.328	13.293	13.363
DTProbeTrack02	3	ProbeTrack	12.1	SCS215a	20100804.100815	20100804.100827	8	0.013328	60	10	60-180	60	131	GapPrac	1	2	2	9	1	target	1	1053	474	21689	13.328	13.293	13.363
DTProbeTrack02	3	ProbeTrack	12.1	SCS215a	20100804.100815	20100804.100833	8	0.013328	60	10	60-180	60	166	GapPrac	1	3	2	3	1	target	1	1280	360	22049	13.328	13.274	13.382
DTProbeTrack02	3	ProbeTrack	12.1	SCS215a	20100804.100815	20100804.100840	8	0.013328	60	10	60-180	60	80	GapPrac	1	4	2	6	1	target	1	733	634	22683	13.328	13.036	13.586
DTProbeTrack02	3	ProbeTrack	12.1	SCS215a	20100804.100815	20100804.100845	8	0.013328	60	10	60-180	60	96	GapPrac	1	5	2	1	0	distractor	1	613	694	23377	13.327	13.293	13.362
DTProbeTrack02	3	ProbeTrack	12.1	SCS215a	20100804.100815	20100804.100851	8	0.013328	60	10	60-180	60	157	GapPrac	1	6	2	1	0	target	0	867	-1000	22377	13.328	13.005	13.684
DTProbeTrack02	3	ProbeTrack	12.1	SCS215a	20100804.100815	20100804.100857	8	0.013328	60	10	60-180	60	146	GapPrac	1	7	2	45	1	target	1	574	713	23090	13.369	12.977	26.457
DTProbeTrack02	3	ProbeTrack	12.1	SCS215a	20100804.100815	20100804.100904	8	0.013328	60	10	60-180	60	95	GapPrac	1	8	2	6	0	target	0	653	-1000	22090	13.328	13.097	13.558
DTProbeTrack02	3	ProbeTrack	12.1	SCS215a	20100804.100815	20100804.100909	8	0.013328	60	10	60-180	60	85	GapPrac	1	9	2	9	1	target	1	640	680	22770	13.328	13.061	13.595
DTProbeTrack02	3	ProbeTrack	12.1	SCS215a	20100804.100815	20100804.100915	8	0.013328	60	10	60-180	60	118	GapPrac	1	10	2	3	0	target	0	1067	-1000	21770	13.328	13.165	13.490
DTProbeTrack02	3	ProbeTrack	12.1	SCS215a	20100804.100815	20100804.100921	8	0.013328	60	10	60-180	60	163	GapPrac	1	11	2	1	1	target	1	867	567	22337	13.328	13.259	13.430
DTProbeTrack02	3	ProbeTrack	12.1	SCS215a	20100804.100815	20100804.100927	8	0.013328	60	10	60-180	60	61	GapPrac	1	12	2	45	1	distractor	0	667	-1000	21337	13.328	13.175	13.481
DTProbeTrack02	3	ProbeTrack	12.1	SCS215a	20100804.100815	20100804.100933	8	0.013328	60	10	60-180	60	101	GapPrac	1	13	2	6	0	distractor	1	760	620	21957	13.328	13.049	13.606
DTProbeTrack02	3	ProbeTrack	12.1	SCS215a	20100804.100815	20100804.100939	8	0.013328	60	10	60-180	60	96	GapPrac	1	14	2	9	0	distractor	1	707	647	22604	13.328	13.103	13.552
DTProbeTrack02	3	ProbeTrack	12.1	SCS215a	20100804.100815	20100804.100944	8	0.013328	60	10	60-180	60	78	GapPrac	1	15	2	45	0	target	0	880	-1000	21604	13.328	13.129	13.526
DTProbeTrack02	3	ProbeTrack	12.1	SCS215a	20100804.100815	20100804.100950	8	0.013328	60	10	60-180	60	61	GapPrac	1	16	2	3	0	distractor	1	760	620	22224	13.327	13.275	13.377
DTProbeTrack02	3	ProbeTrack	12.1	SCS215a	20100804.100815	20100804.100955	8	0.013328	60	10	60-180	60	63	GapPrac	1	17	2	3	1	target	1	520	740	22964	13.327	13.052	13.603
DTProbeTrack02	3	ProbeTrack	12.1	SCS215a	20100804.100815	20100804.101000	8	0.013328	60	10	60-180	60	61	GapPrac	1	18	2	6	1	target	1	947	527	23491	13.327	13.062	13.559
DTProbeTrack02	3	ProbeTrack	12.1	SCS215a	20100804.100815	20100804.101005	8	0.013328	60	10	60-180	60	106	GapPrac	1	19	2	9	0	distractor	1	773	614	24105	13.328	13.122	13.568
DTProbeTrack02	3	ProbeTrack	12.1	SCS215a	20100804.100815	20100804.101011	8	0.013328	60	10	60-180	60	177	GapPrac	1	20	2	45	0	distractor	1	800	600	24705	13.328	13.181	13.473
DTProbeTrack02	3	ProbeTrack	12.1	SCS215a	20100804.101256	20100804.101305	8	0.013328	60	10	60-180	60	89	GapPrac	1	1	2	9	1	distractor	0	987	-1000	23705	13.327	13.293	13.363
DTProbeTrack02	3	ProbeTrack	12.1	SCS215a	20100804.101256	20100804.101311	8	0.013328	60	10	60-180	60	121	GapPrac	1	2	2	9	0	target	0	760	-1000	22705	13.328	13.293	13.363
DTProbeTrack02	3	ProbeTrack	12.1	SCS215a	20100804.101256	20100804.101317	8	0.013328	60	10	60-180	60	95	GapPrac	1	3	2	3	1	target	1	494	753	23458	13.328	13.187	13.501
DTProbeTrack02	3	ProbeTrack	12.1	SCS215a	20100804.101256	20100804.101322	8	0.013328	60	10	60-180	60	97	GapPrac	1	4	2	6	0	distractor	1	614	693	24151	13.328	13.125	13.529
DTProbeTrack02	3	ProbeTrack	12.1	SCS215a	20100804.101256	20100804.101327	8	0.013328	60	10	60-180	60	75	GapPrac	1	5	2	1	1	target	1	614	693	24844	13.328	13.216	13.474
DTProbeTrack02	3	ProbeTrack	12.1	SCS215a	20100804.101256	20100804.101332	8	0.013328	60	10	60-180	60	143	GapPrac	1	6	2	6	0	distractor	1	494	753	25597	13.328	12.992	13.664
DTProbeTrack02	3	ProbeTrack	12.1	SCS215a	20100804.101256	20100804.101338	8	0.013328	60	10	60-180	60	117	GapPrac	1	7	2	9	0	distractor	1	800	600	26197	13.328	13.293	13.366
DTProbeTrack02	3	ProbeTrack	12.1	SCS215a	20100804.101256	20100804.101344	8	0.013328	60	10	60-180	60	76	GapPrac	1	8	2	3	0	target	0	947	-1000	25197	13.328	13.293	13.363
DTProbeTrack02	3	ProbeTrack	12.1	SCS215a	20100804.101256	20100804.101350	8	0.013328	60	10	60-180	60	121	GapPrac	1	9	2	6	1	target	1	893	554	25751	13.328	13.293	13.363
DTProbeTrack02	3	ProbeTrack	12.1	SCS215a	20100804.101256	20100804.101356	8	0.013328	60	10	60-180	60	89	GapPrac	1	10	2	9	1	target	1	920	540	26291	13.328	13.196	13.460
DTProbeTrack02	3	ProbeTrack	12.1	SCS215a	20100804.101256	20100804.101401	8	0.013328	60	10	60-180	60	132	GapPrac	1	11	2	1	0	target	0	1027	-1000	25291	13.328	13.293	13.363
DTProbeTrack02	3	ProbeTrack	12.1	SCS215a	20100804.101256	20100804.101408	8	0.013328	60	10	60-180	60	167	GapPrac	1	12	2	1	1	distractor	0	587	-1000	24291	13.328	13.180	13.476
DTProbeTrack02	3	ProbeTrack	12.1	SCS215a	20100804.101256	20100804.101414	8	0.013328	60	10	60-180	60	76	GapPrac	1	13	2	45	1	target	1	653	674	24965	13.328	13.166	13.457
DTProbeTrack02	3	ProbeTrack	12.1	SCS215a	20100804.101256	20100804.101420	8	0.013328	60	10	60-180	60	177	GapPrac	1	14	2	45	1	target	1	440	780	25745	13.328	13.110	13.511
DTProbeTrack02	3	ProbeTrack	12.1	SCS215a	20100804.101256	20100804.101427	8	0.013328	60	10	60-180	60	89	GapPrac	1	15	2	45	0	distractor	1	614	693	26438	13.427	13.125	26.851
DTProbeTrack02	3	ProbeTrack	12.1	SCS215a	20100804.101256	20100804.101432	8	0.013328	60	10	60-180	60	135	GapPrac	1	16	2	6	1	target	1	1093	454	26892	13.328	13.085	13.572
DTProbeTrack02	3	ProbeTrack	12.1	SCS215a	20100804.101256	20100804.101439	8	0.013328	60	10	60-180	60	101	GapPrac	1	17	2	3	1	target	1	1013	494	27386	13.328	13.293	13.362
DTProbeTrack02	3	ProbeTrack	12.1	SCS215a	20100804.101256	20100804.101445	8	0.013328	60	10	60-180	60	67	GapPrac	1	18	2	3	0	target	0	467	-1000	26386	13.327	13.293	13.363
DTProbeTrack02	3	ProbeTrack	12.1	SCS215a	20100804.101256	20100804.101450	8	0.013328	60	10	60-180	60	77	GapPrac	1	19	2	45	0	distractor	1	600	700	27086	13.328	13.022	13.570
DTProbeTrack02	3	ProbeTrack	12.1	SCS215a	20100804.101256	20100804.101455	8	0.013328	60	10	60-180	60	147	GapPrac	1	20	2	1	0	distractor	1	867	567	27653	13.328	13.292	13.363
DTProbeTrack02	3	ProbeTrack	12.1	SCS215a	20100804.101543	20100804.101547	8	0.013328	60	10	60-180	60	174	GapExp	1	1	2	45	0	distractor	1	600	700	28353	13.328	13.075	13.580
DTProbeTrack02	3	ProbeTrack	12.1	SCS215a	20100804.101543	20100804.101554	8	0.013328	60	10	60-180	60	87	GapExp	1	2	2	3	1	target	1	1466	267	28620	13.554	12.974	27.129
DTProbeTrack02	3	ProbeTrack	12.1	SCS215a	20100804.101543	20100804.101600	8	0.013328	60	10	60-180	60	154	GapExp	1	3	2	9	0	distractor	1	573	714	29334	13.328	13.293	13.363
DTProbeTrack02	3	ProbeTrack	12.1	SCS215a	20100804.101543	20100804.101606	8	0.013328	60	10	60-180	60	111	GapExp	1	4	2	6	0	distractor	1	640	680	30014	13.328	13.248	13.406
DTProbeTrack02	3	ProbeTrack	12.1	SCS215a	20100804.101543	20100804.101612	8	0.013328	60	10	60-180	60	171	GapExp	1	5	2	6	1	target	1	520	740	30754	13.328	13.209	13.447
DTProbeTrack02	3	ProbeTrack	12.1	SCS215a	20100804.101543	20100804.101618	8	0.013328	60	10	60-180	60	119	GapExp	0	6	2	3	0	target	0	4598	-1000	29754	13.328	13.215	13.407
DTProbeTrack02	3	ProbeTrack	12.1	SCS215a	20100804.101543	20100804.101628	8	0.013328	60	10	60-180	60	99	GapExp	0	7	2	9	1	target	1	573	714	30468	13.327	13.293	13.363
DTProbeTrack02	3	ProbeTrack	12.1	SCS215a	20100804.101543	20100804.101633	8	0.013328	60	10	60-180	60	141	GapExp	0	8	2	1	0	distractor	1	747	627	31095	13.328	13.153	13.470
DTProbeTrack02	3	ProbeTrack	12.1	SCS215a	20100804.101543	20100804.101639	8	0.013328	60	10	60-180	60	142	GapExp	0	9	2	6	1	target	1	747	627	31722	13.328	13.218	13.438
DTProbeTrack02	3	ProbeTrack	12.1	SCS215a	20100804.101543	20100804.101646	8	0.013328	60	10	60-180	60	105	GapExp	0	10	2	3	0	distractor	1	574	713	32435	13.328	13.286	13.369
DTProbeTrack02	3	ProbeTrack	12.1	SCS215a	20100804.101543	20100804.101651	8	0.013328	60	10	60-180	60	115	GapExp	0	11	2	1	0	distractor	1	520	740	33175	13.328	13.201	13.454
DTProbeTrack02	3	ProbeTrack	12.1	SCS215a	20100804.101543	20100804.101657	8	0.013328	60	10	60-180	60	114	GapExp	0	12	2	1	1	target	1	560	720	33895	13.328	13.175	13.473
DTProbeTrack02	3	ProbeTrack	12.1	SCS215a	20100804.101543	20100804.101702	8	0.013328	60	10	60-180	60	168	GapExp	0	13	2	1	1	target	1	573	714	34609	13.328	13.293	13.363
DTProbeTrack02	3	ProbeTrack	12.1	SCS215a	20100804.101543	20100804.101708	8	0.013328	60	10	60-180	60	98	GapExp	0	14	2	3	0	distractor	1	1080	460	35069	13.328	13.133	13.522
DTProbeTrack02	3	ProbeTrack	12.1	SCS215a	20100804.101543	20100804.101714	8	0.013328	60	10	60-180	60	74	GapExp	0	15	2	9	1	target	1	920	540	35609	13.328	13.117	13.538
DTProbeTrack02	3	ProbeTrack	12.1	SCS215a	20100804.101543	20100804.101720	8	0.013328	60	10	60-180	60	81	GapExp	0	16	2	1	0	distractor	1	973	514	36123	13.328	13.286	13.370
DTProbeTrack02	3	ProbeTrack	12.1	SCS215a	20100804.101543	20100804.101725	8	0.013328	60	10	60-180	60	117	GapExp	0	17	2	6	1	distractor	0	573	-1000	35123	13.328	13.290	13.363
DTProbeTrack02	3	ProbeTrack	12.1	SCS215a	20100804.101543	20100804.101731	8	0.013328	60	10	60-180	60	75	GapExp	0	18	2	1	1	target	1	693	654	35777	13.328	13.293	13.363
DTProbeTrack02	3	ProbeTrack	12.1	SCS215a	20100804.101543	20100804.101736	8	0.013328	60	10	60-180	60	131	GapExp	0	19	2	6	0	distractor	1	573	714	36491	13.328	13.293	13.363
DTProbeTrack02	3	ProbeTrack	12.1	SCS215a	20100804.101543	20100804.101742	8	0.013328	60	10	60-180	60	145	GapExp	0	20	2	45	1	target	1	1120	440	36931	13.328	13.116	13.539
DTProbeTrack02	3	ProbeTrack	12.1	SCS215a	20100804.101543	20100804.101749	8	0.013328	60	10	60-180	60	137	GapExp	0	21	2	6	0	target	0	720	-1000	35931	13.328	13.143	13.545
DTProbeTrack02	3	ProbeTrack	12.1	SCS215a	20100804.101543	20100804.101755	8	0.013328	60	10	60-180	60	162	GapExp	0	22	2	3	1	target	1	1266	367	36298	13.328	13.095	13.561
DTProbeTrack02	3	ProbeTrack	12.1	SCS215a	20100804.101543	20100804.101802	8	0.013328	60	10	60-180	60	105	GapExp	0	23	2	45	1	distractor	0	640	-1000	35298	13.328	13.114	13.541
DTProbeTrack02	3	ProbeTrack	12.1	SCS215a	20100804.101543	20100804.101808	8	0.013328	60	10	60-180	60	99	GapExp	0	24	2	9	0	distractor	1	560	720	36018	13.328	13.293	13.366
DTProbeTrack02	3	ProbeTrack	12.1	SCS215a	20100804.101543	20100804.101813	8	0.013328	60	10	60-180	60	116	GapExp	0	25	2	6	0	distractor	1	827	587	36605	13.328	13.293	13.363
DTProbeTrack02	3	ProbeTrack	12.1	SCS215a	20100804.101543	20100804.101819	8	0.013328	60	10	60-180	60	142	GapExp	0	26	2	6	0	distractor	1	627	687	37292	13.328	13.132	13.489
DTProbeTrack02	3	ProbeTrack	12.1	SCS215a	20100804.101543	20100804.101825	8	0.013328	60	10	60-180	60	101	GapExp	0	27	2	9	0	distractor	1	574	713	38005	13.327	13.167	13.488
DTProbeTrack02	3	ProbeTrack	12.1	SCS215a	20100804.101543	20100804.101831	8	0.013328	60	10	60-180	60	136	GapExp	0	28	2	6	1	target	1	640	680	38685	13.328	13.293	13.363
DTProbeTrack02	3	ProbeTrack	12.1	SCS215a	20100804.101543	20100804.101837	8	0.013328	60	10	60-180	60	96	GapExp	0	29	2	1	0	distractor	1	880	560	39245	13.328	13.210	13.445
DTProbeTrack02	3	ProbeTrack	12.1	SCS215a	20100804.101543	20100804.101842	8	0.013328	60	10	60-180	60	176	GapExp	0	30	2	3	1	target	1	1400	300	39545	13.328	13.136	13.520
DTProbeTrack02	3	ProbeTrack	12.1	SCS215a	20100804.101543	20100804.101850	8	0.013328	60	10	60-180	60	101	GapExp	0	31	2	9	0	distractor	1	1440	280	39825	13.328	13.086	13.570
DTProbeTrack02	3	ProbeTrack	12.1	SCS215a	20100804.101543	20100804.101856	8	0.013328	60	10	60-180	60	131	GapExp	0	32	2	45	0	target	0	920	-1000	38825	13.328	13.112	13.542
DTProbeTrack02	3	ProbeTrack	12.1	SCS215a	20100804.101543	20100804.101903	8	0.013328	60	10	60-180	60	136	GapExp	0	33	2	45	0	distractor	1	653	674	39499	13.328	13.225	13.463
DTProbeTrack02	3	ProbeTrack	12.1	SCS215a	20100804.101543	20100804.101909	8	0.013328	60	10	60-180	60	111	GapExp	0	34	2	6	0	distractor	1	853	574	40073	13.328	13.289	13.363
DTProbeTrack02	3	ProbeTrack	12.1	SCS215a	20100804.101543	20100804.101915	8	0.013328	60	10	60-180	60	119	GapExp	0	35	2	1	0	distractor	1	693	654	40727	13.328	13.168	13.521
DTProbeTrack02	3	ProbeTrack	12.1	SCS215a	20100804.101543	20100804.101921	8	0.013328	60	10	60-180	60	121	GapExp	0	36	2	6	0	distractor	1	627	687	41414	13.328	13.235	13.421
DTProbeTrack02	3	ProbeTrack	12.1	SCS215a	20100804.101543	20100804.101927	8	0.013328	60	10	60-180	60	69	GapExp	0	37	2	9	1	target	1	534	733	42147	13.328	13.156	13.500
DTProbeTrack02	3	ProbeTrack	12.1	SCS215a	20100804.101543	20100804.101932	8	0.013328	60	10	60-180	60	114	GapExp	0	38	2	6	0	distractor	1	534	733	42880	13.328	13.270	13.386
DTProbeTrack02	3	ProbeTrack	12.1	SCS215a	20100804.101543	20100804.101937	8	0.013328	60	10	60-180	60	72	GapExp	0	39	2	1	1	target	1	574	713	43593	13.328	13.111	13.544
DTProbeTrack02	3	ProbeTrack	12.1	SCS215a	20100804.101543	20100804.101942	8	0.013328	60	10	60-180	60	66	GapExp	0	40	2	1	0	distractor	1	960	520	44113	13.328	13.109	13.546
DTProbeTrack02	3	ProbeTrack	12.1	SCS215a	20100804.101543	20100804.101947	8	0.013328	60	10	60-180	60	76	GapExp	0	41	2	9	1	distractor	0	760	-1000	43113	13.328	13.105	13.516
DTProbeTrack02	3	ProbeTrack	12.1	SCS215a	20100804.101543	20100804.101953	8	0.013328	60	10	60-180	60	85	GapExp	0	42	2	1	0	distractor	1	613	694	43807	13.327	13.293	13.363
DTProbeTrack02	3	ProbeTrack	12.1	SCS215a	20100804.101543	20100804.101958	8	0.013328	60	10	60-180	60	118	GapExp	0	43	2	3	1	target	1	1600	200	44007	13.328	13.293	13.363
DTProbeTrack02	3	ProbeTrack	12.1	SCS215a	20100804.101543	20100804.102005	8	0.013328	60	10	60-180	60	154	GapExp	0	44	2	3	0	distractor	1	573	714	44721	13.328	13.069	13.586
DTProbeTrack02	3	ProbeTrack	12.1	SCS215a	20100804.101543	20100804.102011	8	0.013328	60	10	60-180	60	166	GapExp	0	45	2	45	1	target	1	707	647	45368	13.328	13.290	13.365
DTProbeTrack02	3	ProbeTrack	12.1	SCS215a	20100804.101543	20100804.102018	8	0.013328	60	10	60-180	60	173	GapExp	0	46	2	1	0	distractor	1	880	560	45928	13.328	13.292	13.365
DTProbeTrack02	3	ProbeTrack	12.1	SCS215a	20100804.101543	20100804.102024	8	0.013328	60	10	60-180	60	124	GapExp	0	47	2	45	1	target	1	747	627	46555	13.328	13.292	13.363
DTProbeTrack02	3	ProbeTrack	12.1	SCS215a	20100804.101543	20100804.102031	8	0.013328	60	10	60-180	60	149	GapExp	0	48	2	9	1	target	1	587	707	47262	13.328	13.293	13.363
DTProbeTrack02	3	ProbeTrack	12.1	SCS215a	20100804.101543	20100804.102037	8	0.013328	60	10	60-180	60	147	GapExp	0	49	2	6	0	target	0	720	-1000	46262	13.328	13.293	13.363
DTProbeTrack02	3	ProbeTrack	12.1	SCS215a	20100804.101543	20100804.102043	8	0.013328	60	10	60-180	60	169	GapExp	0	50	2	3	1	target	1	614	693	46955	13.328	13.098	13.557
DTProbeTrack02	3	ProbeTrack	12.1	SCS215a	20100804.101543	20100804.102102	8	0.013328	60	10	60-180	60	76	GapExp	0	51	2	9	1	target	1	1267	367	47322	13.327	13.293	13.363
DTProbeTrack02	3	ProbeTrack	12.1	SCS215a	20100804.101543	20100804.102108	8	0.013328	60	10	60-180	60	173	GapExp	0	52	2	45	0	distractor	1	773	614	47936	13.328	13.249	13.422
DTProbeTrack02	3	ProbeTrack	12.1	SCS215a	20100804.101543	20100804.102115	8	0.013328	60	10	60-180	60	91	GapExp	0	53	2	9	1	target	1	587	707	48643	13.328	13.293	13.363
DTProbeTrack02	3	ProbeTrack	12.1	SCS215a	20100804.101543	20100804.102120	8	0.013328	60	10	60-180	60	95	GapExp	0	54	2	45	1	target	1	520	740	49383	13.328	13.293	13.363
DTProbeTrack02	3	ProbeTrack	12.1	SCS215a	20100804.101543	20100804.102126	8	0.013328	60	10	60-180	60	143	GapExp	0	55	2	1	1	target	1	640	680	50063	13.328	13.154	13.501
DTProbeTrack02	3	ProbeTrack	12.1	SCS215a	20100804.101543	20100804.102132	8	0.013328	60	10	60-180	60	151	GapExp	0	56	2	6	1	target	1	853	574	50637	13.328	13.293	13.363
DTProbeTrack02	3	ProbeTrack	12.1	SCS215a	20100804.101543	20100804.102139	8	0.013328	60	10	60-180	60	75	GapExp	0	57	2	45	0	distractor	1	733	634	51271	13.328	13.290	13.363
DTProbeTrack02	3	ProbeTrack	12.1	SCS215a	20100804.101543	20100804.102144	8	0.013328	60	10	60-180	60	104	GapExp	0	58	2	1	1	target	1	587	707	51978	13.328	13.293	13.363
DTProbeTrack02	3	ProbeTrack	12.1	SCS215a	20100804.101543	20100804.102150	8	0.013328	60	10	60-180	60	69	GapExp	0	59	2	3	1	target	1	454	773	52751	13.328	13.293	13.363
DTProbeTrack02	3	ProbeTrack	12.1	SCS215a	20100804.101543	20100804.102155	8	0.013328	60	10	60-180	60	82	GapExp	0	60	2	45	0	distractor	1	680	660	53411	13.328	13.218	13.437
DTProbeTrack02	3	ProbeTrack	12.1	SCS215a	20100804.101543	20100804.102200	8	0.013328	60	10	60-180	60	165	GapExp	0	61	2	1	0	distractor	1	467	767	54178	13.328	13.293	13.363
DTProbeTrack02	3	ProbeTrack	12.1	SCS215a	20100804.101543	20100804.102207	8	0.013328	60	10	60-180	60	66	GapExp	0	62	2	3	1	target	1	693	654	54832	13.328	13.242	13.413
DTProbeTrack02	3	ProbeTrack	12.1	SCS215a	20100804.101543	20100804.102212	8	0.013328	60	10	60-180	60	151	GapExp	0	63	2	3	1	target	1	667	667	55499	13.328	13.247	13.408
DTProbeTrack02	3	ProbeTrack	12.1	SCS215a	20100804.101543	20100804.102218	8	0.013328	60	10	60-180	60	176	GapExp	0	64	2	9	0	distractor	1	627	687	56186	13.328	13.232	13.424
DTProbeTrack02	3	ProbeTrack	12.1	SCS215a	20100804.101543	20100804.102224	8	0.013328	60	10	60-180	60	83	GapExp	0	65	2	1	1	target	1	573	714	56900	13.328	13.177	13.512
DTProbeTrack02	3	ProbeTrack	12.1	SCS215a	20100804.101543	20100804.102229	8	0.013328	60	10	60-180	60	153	GapExp	0	66	2	6	1	target	1	549	726	57626	13.328	13.271	13.420
DTProbeTrack02	3	ProbeTrack	12.1	SCS215a	20100804.101543	20100804.102236	8	0.013328	60	10	60-180	60	133	GapExp	0	67	2	1	1	target	1	600	700	58326	13.328	13.203	13.453
DTProbeTrack02	3	ProbeTrack	12.1	SCS215a	20100804.101543	20100804.102241	8	0.013328	60	10	60-180	60	107	GapExp	0	68	2	9	0	distractor	1	747	627	58953	13.328	13.233	13.457
DTProbeTrack02	3	ProbeTrack	12.1	SCS215a	20100804.101543	20100804.102247	8	0.013328	60	10	60-180	60	128	GapExp	0	69	2	45	1	target	1	627	687	59640	13.328	13.234	13.399
DTProbeTrack02	3	ProbeTrack	12.1	SCS215a	20100804.101543	20100804.102253	8	0.013328	60	10	60-180	60	163	GapExp	0	70	2	1	0	distractor	1	533	734	60374	13.328	13.154	13.535
DTProbeTrack02	3	ProbeTrack	12.1	SCS215a	20100804.101543	20100804.102300	8	0.013328	60	10	60-180	60	179	GapExp	0	71	2	1	1	target	1	640	680	61054	13.328	13.293	13.363
DTProbeTrack02	3	ProbeTrack	12.1	SCS215a	20100804.101543	20100804.102306	8	0.013328	60	10	60-180	60	116	GapExp	0	72	2	45	0	distractor	1	587	707	61761	13.328	13.292	13.363
DTProbeTrack02	3	ProbeTrack	12.1	SCS215a	20100804.101543	20100804.102312	8	0.013328	60	10	60-180	60	119	GapExp	0	73	2	3	1	target	1	1533	234	61995	13.328	13.242	13.412
DTProbeTrack02	3	ProbeTrack	12.1	SCS215a	20100804.101543	20100804.102319	8	0.013328	60	10	60-180	60	107	GapExp	0	74	2	9	1	target	1	467	767	62762	13.328	13.293	13.363
DTProbeTrack02	3	ProbeTrack	12.1	SCS215a	20100804.101543	20100804.102324	8	0.013328	60	10	60-180	60	155	GapExp	0	75	2	3	1	target	1	773	614	63376	13.328	13.153	13.468
DTProbeTrack02	3	ProbeTrack	12.1	SCS215a	20100804.101543	20100804.102331	8	0.013328	60	10	60-180	60	134	GapExp	0	76	2	9	0	target	0	574	-1000	62376	13.328	13.293	13.365
DTProbeTrack02	3	ProbeTrack	12.1	SCS215a	20100804.101543	20100804.102337	8	0.013328	60	10	60-180	60	129	GapExp	0	77	2	45	0	distractor	1	893	554	62930	13.328	13.155	13.535
DTProbeTrack02	3	ProbeTrack	12.1	SCS215a	20100804.101543	20100804.102343	8	0.013328	60	10	60-180	60	70	GapExp	0	78	2	9	1	target	1	1120	440	63370	13.327	13.131	13.557
DTProbeTrack02	3	ProbeTrack	12.1	SCS215a	20100804.101543	20100804.102349	8	0.013328	60	10	60-180	60	165	GapExp	0	79	2	6	1	target	1	440	780	64150	13.328	13.293	13.363
DTProbeTrack02	3	ProbeTrack	12.1	SCS215a	20100804.101543	20100804.102355	8	0.013328	60	10	60-180	60	142	GapExp	0	80	2	6	1	target	1	1733	134	64284	13.328	13.293	13.363
DTProbeTrack02	3	ProbeTrack	12.1	SCS215a	20100804.101543	20100804.102402	8	0.013328	60	10	60-180	60	112	GapExp	0	81	2	9	1	target	1	613	694	64978	13.328	13.293	13.363
DTProbeTrack02	3	ProbeTrack	12.1	SCS215a	20100804.101543	20100804.102408	8	0.013328	60	10	60-180	60	129	GapExp	0	82	2	3	1	target	1	494	753	65731	13.328	13.042	13.646
DTProbeTrack02	3	ProbeTrack	12.1	SCS215a	20100804.101543	20100804.102414	8	0.013328	60	10	60-180	60	88	GapExp	0	83	2	3	0	distractor	1	733	634	66365	13.328	13.161	13.494
DTProbeTrack02	3	ProbeTrack	12.1	SCS215a	20100804.101543	20100804.102419	8	0.013328	60	10	60-180	60	63	GapExp	0	84	2	6	1	target	1	613	694	67059	13.328	13.293	13.364
DTProbeTrack02	3	ProbeTrack	12.1	SCS215a	20100804.101543	20100804.102424	8	0.013328	60	10	60-180	60	81	GapExp	0	85	2	3	1	target	1	533	734	67793	13.327	13.289	13.366
DTProbeTrack02	3	ProbeTrack	12.1	SCS215a	20100804.101543	20100804.102429	8	0.013328	60	10	60-180	60	89	GapExp	0	86	2	3	1	target	1	574	713	68506	13.328	13.116	13.540
DTProbeTrack02	3	ProbeTrack	12.1	SCS215a	20100804.101543	20100804.102434	8	0.013328	60	10	60-180	60	110	GapExp	0	87	2	6	0	distractor	1	773	614	69120	13.328	13.205	13.416
DTProbeTrack02	3	ProbeTrack	12.1	SCS215a	20100804.101543	20100804.102440	8	0.013328	60	10	60-180	60	96	GapExp	0	88	2	45	1	target	1	1760	120	69240	13.328	13.133	13.489
DTProbeTrack02	3	ProbeTrack	12.1	SCS215a	20100804.101543	20100804.102447	8	0.013328	60	10	60-180	60	97	GapExp	0	89	2	6	0	distractor	1	827	587	69827	13.328	13.255	13.399
DTProbeTrack02	3	ProbeTrack	12.1	SCS215a	20100804.101543	20100804.102453	8	0.013328	60	10	60-180	60	130	GapExp	0	90	2	1	0	distractor	1	613	694	70521	13.328	13.293	13.363
DTProbeTrack02	3	ProbeTrack	12.1	SCS215a	20100804.101543	20100804.102459	8	0.013328	60	10	60-180	60	156	GapExp	0	91	2	9	0	distractor	1	680	660	71181	13.328	13.129	13.492
DTProbeTrack02	3	ProbeTrack	12.1	SCS215a	20100804.101543	20100804.102505	8	0.013328	60	10	60-180	60	180	GapExp	0	92	2	1	0	target	0	747	-1000	70181	13.328	13.135	13.520
DTProbeTrack02	3	ProbeTrack	12.1	SCS215a	20100804.101543	20100804.102511	8	0.013328	60	10	60-180	60	154	GapExp	0	93	2	9	1	target	1	680	660	70841	13.328	13.293	13.362
DTProbeTrack02	3	ProbeTrack	12.1	SCS215a	20100804.101543	20100804.102518	8	0.013328	60	10	60-180	60	69	GapExp	0	94	2	6	0	target	0	1000	-1000	69841	13.327	13.159	13.463
DTProbeTrack02	3	ProbeTrack	12.1	SCS215a	20100804.101543	20100804.102523	8	0.013328	60	10	60-180	60	138	GapExp	0	95	2	3	1	target	1	987	507	70348	13.328	13.293	13.363
DTProbeTrack02	3	ProbeTrack	12.1	SCS215a	20100804.101543	20100804.102530	8	0.013328	60	10	60-180	60	156	GapExp	0	96	2	9	0	distractor	1	587	707	71055	13.328	13.293	13.363
DTProbeTrack02	3	ProbeTrack	12.1	SCS215a	20100804.101543	20100804.102536	8	0.013328	60	10	60-180	60	112	GapExp	0	97	2	45	0	distractor	1	1240	380	71435	13.328	13.192	13.428
DTProbeTrack02	3	ProbeTrack	12.1	SCS215a	20100804.101543	20100804.102543	8	0.013328	60	10	60-180	60	97	GapExp	0	98	2	9	0	distractor	1	1213	394	71829	13.328	13.026	13.629
DTProbeTrack02	3	ProbeTrack	12.1	SCS215a	20100804.101543	20100804.102549	8	0.013328	60	10	60-180	60	156	GapExp	0	99	2	45	0	target	0	600	-1000	70829	13.328	13.293	13.363
DTProbeTrack02	3	ProbeTrack	12.1	SCS215a	20100804.101543	20100804.102555	8	0.013328	60	10	60-180	60	79	GapExp	0	100	2	9	1	target	1	600	700	71529	13.327	13.168	13.522
DTProbeTrack02	3	ProbeTrack	12.1	SCS215a	20100804.101543	20100804.102620	8	0.013328	60	10	60-180	60	76	GapExp	0	101	2	6	1	target	1	1613	194	71723	13.328	13.193	13.462
DTProbeTrack02	3	ProbeTrack	12.1	SCS215a	20100804.101543	20100804.102626	8	0.013328	60	10	60-180	60	123	GapExp	0	102	2	9	0	target	0	1386	-1000	70723	13.328	13.180	13.475
DTProbeTrack02	3	ProbeTrack	12.1	SCS215a	20100804.101543	20100804.102633	8	0.013328	60	10	60-180	60	110	GapExp	0	103	2	3	0	distractor	1	720	640	71363	13.328	13.099	13.556
DTProbeTrack02	3	ProbeTrack	12.1	SCS215a	20100804.101543	20100804.102638	8	0.013328	60	10	60-180	60	84	GapExp	0	104	2	45	0	distractor	1	614	693	72056	13.328	13.114	13.507
DTProbeTrack02	3	ProbeTrack	12.1	SCS215a	20100804.101543	20100804.102644	8	0.013328	60	10	60-180	60	121	GapExp	0	105	2	1	0	target	0	947	-1000	71056	13.328	13.292	13.363
DTProbeTrack02	3	ProbeTrack	12.1	SCS215a	20100804.101543	20100804.102650	8	0.013328	60	10	60-180	60	99	GapExp	0	106	2	1	0	target	0	1027	-1000	70056	13.327	13.293	13.363
DTProbeTrack02	3	ProbeTrack	12.1	SCS215a	20100804.101543	20100804.102656	8	0.013328	60	10	60-180	60	99	GapExp	0	107	2	6	1	target	1	560	720	70776	13.328	13.293	13.363
DTProbeTrack02	3	ProbeTrack	12.1	SCS215a	20100804.101543	20100804.102702	8	0.013328	60	10	60-180	60	114	GapExp	0	108	2	9	0	distractor	1	733	634	71410	13.328	13.182	13.473
DTProbeTrack02	3	ProbeTrack	12.1	SCS215a	20100804.101543	20100804.102707	8	0.013328	60	10	60-180	60	170	GapExp	0	109	2	3	1	distractor	0	574	-1000	70410	13.328	13.293	13.363
DTProbeTrack02	3	ProbeTrack	12.1	SCS215a	20100804.101543	20100804.102714	8	0.013328	60	10	60-180	60	101	GapExp	0	110	2	3	1	target	1	587	707	71117	13.328	13.290	13.365
DTProbeTrack02	3	ProbeTrack	12.1	SCS215a	20100804.101543	20100804.102719	8	0.013328	60	10	60-180	60	74	GapExp	0	111	2	1	1	target	1	467	767	71884	13.328	13.293	13.363
DTProbeTrack02	3	ProbeTrack	12.1	SCS215a	20100804.101543	20100804.102724	8	0.013328	60	10	60-180	60	173	GapExp	0	112	2	3	0	distractor	1	534	733	72617	13.328	13.289	13.363
DTProbeTrack02	3	ProbeTrack	12.1	SCS215a	20100804.101543	20100804.102730	8	0.013328	60	10	60-180	60	123	GapExp	0	113	2	1	1	target	1	573	714	73331	13.328	13.293	13.363
DTProbeTrack02	3	ProbeTrack	12.1	SCS215a	20100804.101543	20100804.102736	8	0.013328	60	10	60-180	60	134	GapExp	0	114	2	9	1	target	1	653	674	74005	13.328	13.293	13.364
DTProbeTrack02	3	ProbeTrack	12.1	SCS215a	20100804.101543	20100804.102742	8	0.013328	60	10	60-180	60	171	GapExp	0	115	2	1	1	distractor	0	1040	-1000	73005	13.328	13.293	13.380
DTProbeTrack02	3	ProbeTrack	12.1	SCS215a	20100804.101543	20100804.102749	8	0.013328	60	10	60-180	60	105	GapExp	0	116	2	1	0	target	0	680	-1000	72005	13.327	13.292	13.363
DTProbeTrack02	3	ProbeTrack	12.1	SCS215a	20100804.101543	20100804.102754	8	0.013328	60	10	60-180	60	104	GapExp	0	117	2	6	1	target	1	560	720	72725	13.328	13.293	13.363
DTProbeTrack02	3	ProbeTrack	12.1	SCS215a	20100804.101543	20100804.102800	8	0.013328	60	10	60-180	60	67	GapExp	0	118	2	45	0	distractor	1	573	714	73439	13.328	13.147	13.541
DTProbeTrack02	3	ProbeTrack	12.1	SCS215a	20100804.101543	20100804.102805	8	0.013328	60	10	60-180	60	150	GapExp	0	119	2	3	0	distractor	1	587	707	74146	13.328	13.199	13.456
DTProbeTrack02	3	ProbeTrack	12.1	SCS215a	20100804.101543	20100804.102811	8	0.013328	60	10	60-180	60	69	GapExp	0	120	2	9	0	target	0	1560	-1000	73146	13.327	13.193	13.495
DTProbeTrack02	3	ProbeTrack	12.1	SCS215a	20100804.101543	20100804.102817	8	0.013328	60	10	60-180	60	171	GapExp	0	121	2	6	1	distractor	0	574	-1000	72146	13.328	13.157	13.499
DTProbeTrack02	3	ProbeTrack	12.1	SCS215a	20100804.101543	20100804.102824	8	0.013328	60	10	60-180	60	70	GapExp	0	122	2	1	0	distractor	1	667	667	72813	13.328	13.292	13.363
DTProbeTrack02	3	ProbeTrack	12.1	SCS215a	20100804.101543	20100804.102829	8	0.013328	60	10	60-180	60	170	GapExp	0	123	2	9	0	distractor	1	694	653	73466	13.328	13.159	13.497
DTProbeTrack02	3	ProbeTrack	12.1	SCS215a	20100804.101543	20100804.102835	8	0.013328	60	10	60-180	60	169	GapExp	0	124	2	3	0	distractor	1	534	733	74199	13.328	13.083	13.555
DTProbeTrack02	3	ProbeTrack	12.1	SCS215a	20100804.101543	20100804.102842	8	0.013328	60	10	60-180	60	82	GapExp	0	125	2	45	1	target	1	693	654	74853	13.328	13.192	13.465
DTProbeTrack02	3	ProbeTrack	12.1	SCS215a	20100804.101543	20100804.102848	8	0.013328	60	10	60-180	60	164	GapExp	0	126	2	1	0	distractor	1	667	667	75520	13.328	13.293	13.363
DTProbeTrack02	3	ProbeTrack	12.1	SCS215a	20100804.101543	20100804.102854	8	0.013328	60	10	60-180	60	158	GapExp	0	127	2	1	1	target	1	773	614	76134	13.328	13.293	13.364
DTProbeTrack02	3	ProbeTrack	12.1	SCS215a	20100804.101543	20100804.102900	8	0.013328	60	10	60-180	60	94	GapExp	0	128	2	6	1	target	1	733	634	76768	13.328	13.292	13.363
DTProbeTrack02	3	ProbeTrack	12.1	SCS215a	20100804.101543	20100804.102906	8	0.013328	60	10	60-180	60	89	GapExp	0	129	2	3	1	target	1	587	707	77475	13.327	13.224	13.464
DTProbeTrack02	3	ProbeTrack	12.1	SCS215a	20100804.101543	20100804.102911	8	0.013328	60	10	60-180	60	161	GapExp	0	130	2	1	0	distractor	1	587	707	78182	13.328	13.177	13.478
DTProbeTrack02	3	ProbeTrack	12.1	SCS215a	20100804.101543	20100804.102917	8	0.013328	60	10	60-180	60	173	GapExp	0	131	2	45	1	distractor	0	654	-1000	77182	13.328	13.249	13.372
DTProbeTrack02	3	ProbeTrack	12.1	SCS215a	20100804.101543	20100804.102924	8	0.013328	60	10	60-180	60	167	GapExp	0	132	2	6	0	distractor	1	707	647	77829	13.328	13.191	13.464
DTProbeTrack02	3	ProbeTrack	12.1	SCS215a	20100804.101543	20100804.102931	8	0.013328	60	10	60-180	60	66	GapExp	0	133	2	3	0	distractor	1	667	667	78496	13.328	13.175	13.480
DTProbeTrack02	3	ProbeTrack	12.1	SCS215a	20100804.101543	20100804.102936	8	0.013328	60	10	60-180	60	81	GapExp	0	134	2	45	1	distractor	0	693	-1000	77496	13.328	13.293	13.363
DTProbeTrack02	3	ProbeTrack	12.1	SCS215a	20100804.101543	20100804.102942	8	0.013328	60	10	60-180	60	170	GapExp	0	135	2	45	1	distractor	0	880	-1000	76496	13.328	13.293	13.363
DTProbeTrack02	3	ProbeTrack	12.1	SCS215a	20100804.101543	20100804.102949	8	0.013328	60	10	60-180	60	160	GapExp	0	136	2	1	1	target	1	547	727	77223	13.328	13.293	13.363
DTProbeTrack02	3	ProbeTrack	12.1	SCS215a	20100804.101543	20100804.102955	8	0.013328	60	10	60-180	60	120	GapExp	0	137	2	3	0	target	0	653	-1000	76223	13.328	13.082	13.607
DTProbeTrack02	3	ProbeTrack	12.1	SCS215a	20100804.101543	20100804.103001	8	0.013328	60	10	60-180	60	93	GapExp	0	138	2	9	1	target	1	587	707	76930	13.328	13.094	13.600
DTProbeTrack02	3	ProbeTrack	12.1	SCS215a	20100804.101543	20100804.103006	8	0.013328	60	10	60-180	60	151	GapExp	0	139	2	45	1	target	1	613	694	77624	13.328	13.292	13.363
DTProbeTrack02	3	ProbeTrack	12.1	SCS215a	20100804.101543	20100804.103013	8	0.013328	60	10	60-180	60	88	GapExp	0	140	2	6	0	distractor	1	600	700	78324	13.328	13.168	13.453
DTProbeTrack02	3	ProbeTrack	12.1	SCS215a	20100804.101543	20100804.103018	8	0.013328	60	10	60-180	60	100	GapExp	0	141	2	1	1	target	1	520	740	79064	13.328	13.293	13.364
DTProbeTrack02	3	ProbeTrack	12.1	SCS215a	20100804.101543	20100804.103024	8	0.013328	60	10	60-180	60	82	GapExp	0	142	2	9	1	target	1	667	667	79731	13.328	13.196	13.460
DTProbeTrack02	3	ProbeTrack	12.1	SCS215a	20100804.101543	20100804.103029	8	0.013328	60	10	60-180	60	78	GapExp	0	143	2	3	0	distractor	1	1000	500	80231	13.328	13.154	13.535
DTProbeTrack02	3	ProbeTrack	12.1	SCS215a	20100804.101543	20100804.103035	8	0.013328	60	10	60-180	60	75	GapExp	0	144	2	45	1	target	1	480	760	80991	13.328	13.242	13.414
DTProbeTrack02	3	ProbeTrack	12.1	SCS215a	20100804.101543	20100804.103040	8	0.013328	60	10	60-180	60	132	GapExp	0	145	2	6	1	target	1	334	833	81824	13.328	13.100	13.521
DTProbeTrack02	3	ProbeTrack	12.1	SCS215a	20100804.101543	20100804.103046	8	0.013328	60	10	60-180	60	64	GapExp	0	146	2	9	0	distractor	1	534	733	82557	13.327	13.237	13.451
DTProbeTrack02	3	ProbeTrack	12.1	SCS215a	20100804.101543	20100804.103051	8	0.013328	60	10	60-180	60	132	GapExp	0	147	2	9	0	distractor	1	547	727	83284	13.328	13.293	13.363
DTProbeTrack02	3	ProbeTrack	12.1	SCS215a	20100804.101543	20100804.103057	8	0.013328	60	10	60-180	60	146	GapExp	0	148	2	6	1	target	1	480	760	84044	13.328	13.101	13.520
DTProbeTrack02	3	ProbeTrack	12.1	SCS215a	20100804.101543	20100804.103103	8	0.013328	60	10	60-180	60	65	GapExp	0	149	2	45	1	target	1	667	667	84711	13.328	13.100	13.589
DTProbeTrack02	3	ProbeTrack	12.1	SCS215a	20100804.101543	20100804.103108	8	0.013328	60	10	60-180	60	163	GapExp	0	150	2	3	1	target	1	507	747	85458	13.328	13.083	13.572
DTProbeTrack02	3	ProbeTrack	12.1	SCS215a	20100804.101543	20100804.103133	8	0.013328	60	10	60-180	60	120	GapExp	0	151	2	3	0	target	0	693	-1000	84458	13.328	13.077	13.546
DTProbeTrack02	3	ProbeTrack	12.1	SCS215a	20100804.101543	20100804.103139	8	0.013328	60	10	60-180	60	124	GapExp	0	152	2	9	1	target	1	560	720	85178	13.328	13.293	13.363
DTProbeTrack02	3	ProbeTrack	12.1	SCS215a	20100804.101543	20100804.103145	8	0.013328	60	10	60-180	60	99	GapExp	0	153	2	6	0	distractor	1	773	614	85792	13.328	13.107	13.548
DTProbeTrack02	3	ProbeTrack	12.1	SCS215a	20100804.101543	20100804.103151	8	0.013328	60	10	60-180	60	135	GapExp	0	154	2	1	1	target	1	667	667	86459	13.328	13.293	13.363
DTProbeTrack02	3	ProbeTrack	12.1	SCS215a	20100804.101543	20100804.103157	8	0.013328	60	10	60-180	60	146	GapExp	0	155	2	6	1	target	1	1280	360	86819	13.328	13.293	13.363
DTProbeTrack02	3	ProbeTrack	12.1	SCS215a	20100804.101543	20100804.103203	8	0.013328	60	10	60-180	60	170	GapExp	0	156	2	45	1	target	1	1080	460	87279	13.328	13.170	13.484
DTProbeTrack02	3	ProbeTrack	12.1	SCS215a	20100804.101543	20100804.103211	8	0.013328	60	10	60-180	60	101	GapExp	0	157	2	45	0	distractor	1	613	694	87973	13.328	13.293	13.363
DTProbeTrack02	3	ProbeTrack	12.1	SCS215a	20100804.101543	20100804.103217	8	0.013328	60	10	60-180	60	104	GapExp	0	158	2	9	1	target	1	680	660	88633	13.328	13.293	13.363
DTProbeTrack02	3	ProbeTrack	12.1	SCS215a	20100804.101543	20100804.103222	8	0.013328	60	10	60-180	60	106	GapExp	0	159	2	45	0	distractor	1	613	694	89327	13.328	13.072	13.585
DTProbeTrack02	3	ProbeTrack	12.1	SCS215a	20100804.101543	20100804.103229	8	0.013328	60	10	60-180	60	113	GapExp	0	160	2	6	1	target	1	494	753	90080	13.328	13.292	13.363
DTProbeTrack02	3	ProbeTrack	12.1	SCS215a	20100804.101543	20100804.103234	8	0.013328	60	10	60-180	60	89	GapExp	0	161	2	9	0	distractor	1	547	727	90807	13.328	13.293	13.364
DTProbeTrack02	3	ProbeTrack	12.1	SCS215a	20100804.101543	20100804.103239	8	0.013328	60	10	60-180	60	172	GapExp	0	162	2	3	0	distractor	1	547	727	91534	13.328	13.291	13.363
DTProbeTrack02	3	ProbeTrack	12.1	SCS215a	20100804.101543	20100804.103246	8	0.013328	60	10	60-180	60	143	GapExp	0	163	2	9	1	target	1	640	680	92214	13.374	12.837	27.146
DTProbeTrack02	3	ProbeTrack	12.1	SCS215a	20100804.101543	20100804.103252	8	0.013328	60	10	60-180	60	143	GapExp	0	164	2	3	0	distractor	1	547	727	92941	13.328	13.293	13.363
DTProbeTrack02	3	ProbeTrack	12.1	SCS215a	20100804.101543	20100804.103258	8	0.013328	60	10	60-180	60	81	GapExp	0	165	2	6	1	target	1	520	740	93681	13.328	13.293	13.363
DTProbeTrack02	3	ProbeTrack	12.1	SCS215a	20100804.101543	20100804.103303	8	0.013328	60	10	60-180	60	103	GapExp	0	166	2	6	0	distractor	1	640	680	94361	13.327	13.249	13.372
DTProbeTrack02	3	ProbeTrack	12.1	SCS215a	20100804.101543	20100804.103308	8	0.013328	60	10	60-180	60	66	GapExp	0	167	2	6	0	distractor	1	787	607	94968	13.328	13.293	13.363
DTProbeTrack02	3	ProbeTrack	12.1	SCS215a	20100804.101543	20100804.103314	8	0.013328	60	10	60-180	60	99	GapExp	0	168	2	1	0	distractor	1	787	607	95575	13.328	13.293	13.363
DTProbeTrack02	3	ProbeTrack	12.1	SCS215a	20100804.101543	20100804.103319	8	0.013328	60	10	60-180	60	117	GapExp	0	169	2	45	1	target	1	653	674	96249	13.328	13.258	13.397
DTProbeTrack02	3	ProbeTrack	12.1	SCS215a	20100804.101543	20100804.103325	8	0.013328	60	10	60-180	60	141	GapExp	0	170	2	45	1	target	1	827	587	96836	13.328	13.216	13.439
DTProbeTrack02	3	ProbeTrack	12.1	SCS215a	20100804.101543	20100804.103332	8	0.013328	60	10	60-180	60	69	GapExp	0	171	2	3	1	target	1	653	674	97510	13.328	13.293	13.363
DTProbeTrack02	3	ProbeTrack	12.1	SCS215a	20100804.101543	20100804.103337	8	0.013328	60	10	60-180	60	165	GapExp	0	172	2	45	0	distractor	1	573	714	98224	13.328	13.293	13.392
DTProbeTrack02	3	ProbeTrack	12.1	SCS215a	20100804.101543	20100804.103344	8	0.013328	60	10	60-180	60	109	GapExp	0	173	2	6	0	distractor	1	760	620	98844	13.328	13.293	13.363
DTProbeTrack02	3	ProbeTrack	12.1	SCS215a	20100804.101543	20100804.103350	8	0.013328	60	10	60-180	60	73	GapExp	0	174	2	45	0	target	0	1426	-1000	97844	13.328	13.195	13.461
DTProbeTrack02	3	ProbeTrack	12.1	SCS215a	20100804.101543	20100804.103356	8	0.013328	60	10	60-180	60	179	GapExp	0	175	2	3	1	target	1	587	707	98551	13.328	12.947	13.674
DTProbeTrack02	3	ProbeTrack	12.1	SCS215a	20100804.101543	20100804.103403	8	0.013328	60	10	60-180	60	115	GapExp	0	176	2	1	0	distractor	1	867	567	99118	13.328	13.234	13.389
DTProbeTrack02	3	ProbeTrack	12.1	SCS215a	20100804.101543	20100804.103409	8	0.013328	60	10	60-180	60	124	GapExp	0	177	2	45	0	distractor	1	573	714	99832	13.328	13.292	13.363
DTProbeTrack02	3	ProbeTrack	12.1	SCS215a	20100804.101543	20100804.103415	8	0.013328	60	10	60-180	60	179	GapExp	0	178	2	9	0	distractor	1	507	747	100579	13.328	13.293	13.363
DTProbeTrack02	3	ProbeTrack	12.1	SCS215a	20100804.101543	20100804.103422	8	0.013328	60	10	60-180	60	103	GapExp	0	179	2	45	1	target	1	680	660	101239	13.328	13.290	13.366
DTProbeTrack02	3	ProbeTrack	12.1	SCS215a	20100804.101543	20100804.103428	8	0.013328	60	10	60-180	60	152	GapExp	0	180	2	1	1	target	1	880	560	101799	13.328	13.070	13.552
DTProbeTrack02	3	ProbeTrack	12.1	SCS215a	20100804.101543	20100804.103434	8	0.013328	60	10	60-180	60	139	GapExp	0	181	2	45	1	target	1	560	720	102519	13.328	13.292	13.378
DTProbeTrack02	3	ProbeTrack	12.1	SCS215a	20100804.101543	20100804.103441	8	0.013328	60	10	60-180	60	173	GapExp	0	182	2	9	0	distractor	1	667	667	103186	13.328	13.257	13.363
DTProbeTrack02	3	ProbeTrack	12.1	SCS215a	20100804.101543	20100804.103447	8	0.013328	60	10	60-180	60	179	GapExp	0	183	2	1	1	target	1	494	753	103939	13.328	13.293	13.363
DTProbeTrack02	3	ProbeTrack	12.1	SCS215a	20100804.101543	20100804.103454	8	0.013328	60	10	60-180	60	94	GapExp	0	184	2	45	0	distractor	1	533	734	104673	13.328	13.173	13.517
DTProbeTrack02	3	ProbeTrack	12.1	SCS215a	20100804.101543	20100804.103459	8	0.013328	60	10	60-180	60	89	GapExp	0	185	2	1	1	target	1	534	733	105406	13.328	13.293	13.363
DTProbeTrack02	3	ProbeTrack	12.1	SCS215a	20100804.101543	20100804.103505	8	0.013328	60	10	60-180	60	64	GapExp	0	186	2	3	0	distractor	1	920	540	105946	13.328	13.198	13.458
DTProbeTrack02	3	ProbeTrack	12.1	SCS215a	20100804.101543	20100804.103510	8	0.013328	60	10	60-180	60	138	GapExp	0	187	2	45	0	target	0	680	-1000	104946	13.328	13.191	13.499
DTProbeTrack02	3	ProbeTrack	12.1	SCS215a	20100804.101543	20100804.103516	8	0.013328	60	10	60-180	60	169	GapExp	0	188	2	3	0	distractor	1	574	713	105659	13.328	13.291	13.364
DTProbeTrack02	3	ProbeTrack	12.1	SCS215a	20100804.101543	20100804.103523	8	0.013328	60	10	60-180	60	73	GapExp	0	189	2	45	0	distractor	1	680	660	106319	13.328	13.293	13.363
DTProbeTrack02	3	ProbeTrack	12.1	SCS215a	20100804.101543	20100804.103528	8	0.013328	60	10	60-180	60	73	GapExp	0	190	2	6	1	target	1	640	680	106999	13.328	13.293	13.363
DTProbeTrack02	3	ProbeTrack	12.1	SCS215a	20100804.101543	20100804.103534	8	0.013328	60	10	60-180	60	160	GapExp	0	191	2	9	1	target	1	560	720	107719	13.328	13.139	13.550
DTProbeTrack02	3	ProbeTrack	12.1	SCS215a	20100804.101543	20100804.103540	8	0.013328	60	10	60-180	60	102	GapExp	0	192	2	6	0	target	0	547	-1000	106719	13.328	13.293	13.362
DTProbeTrack02	3	ProbeTrack	12.1	SCS215a	20100804.101543	20100804.103545	8	0.013328	60	10	60-180	60	77	GapExp	0	193	2	6	1	target	1	747	627	107346	13.328	13.293	13.363
DTProbeTrack02	3	ProbeTrack	12.1	SCS215a	20100804.101543	20100804.103551	8	0.013328	60	10	60-180	60	69	GapExp	0	194	2	6	0	distractor	1	613	694	108040	13.328	12.888	13.768
DTProbeTrack02	3	ProbeTrack	12.1	SCS215a	20100804.101543	20100804.103556	8	0.013328	60	10	60-180	60	169	GapExp	0	195	2	1	1	target	1	667	667	108707	13.328	13.050	13.572
DTProbeTrack02	3	ProbeTrack	12.1	SCS215a	20100804.101543	20100804.103602	8	0.013328	60	10	60-180	60	108	GapExp	0	196	2	3	1	target	1	627	687	109394	13.328	13.128	13.527
DTProbeTrack02	3	ProbeTrack	12.1	SCS215a	20100804.101543	20100804.103608	8	0.013328	60	10	60-180	60	158	GapExp	0	197	2	3	0	distractor	1	600	700	110094	13.328	13.206	13.450
DTProbeTrack02	3	ProbeTrack	12.1	SCS215a	20100804.101543	20100804.103614	8	0.013328	60	10	60-180	60	133	GapExp	0	198	2	6	0	distractor	1	600	700	110794	13.328	13.182	13.473
DTProbeTrack02	3	ProbeTrack	12.1	SCS215a	20100804.101543	20100804.103620	8	0.013328	60	10	60-180	60	75	GapExp	0	199	2	45	1	target	1	640	680	111474	13.328	13.120	13.534
DTProbeTrack02	3	ProbeTrack	12.1	SCS215a	20100804.101543	20100804.103626	8	0.013328	60	10	60-180	60	79	GapExp	0	200	2	3	0	target	0	627	-1000	110474	13.328	13.093	13.562
DTProbeTrack02	3	ProbeTrack	12.1	SCS215a	20100804.101543	20100804.103648	8	0.013328	60	10	60-180	60	89	GapExp	0	201	2	9	1	target	1	667	667	111141	13.328	13.141	13.516
DTProbeTrack02	3	ProbeTrack	12.1	SCS215a	20100804.101543	20100804.103653	8	0.013328	60	10	60-180	60	70	GapExp	0	202	2	9	0	distractor	1	587	707	111848	13.328	13.063	13.592
DTProbeTrack02	3	ProbeTrack	12.1	SCS215a	20100804.101543	20100804.103658	8	0.013328	60	10	60-180	60	152	GapExp	0	203	2	3	0	distractor	1	574	713	112561	13.328	13.175	13.483
DTProbeTrack02	3	ProbeTrack	12.1	SCS215a	20100804.101543	20100804.103704	8	0.013328	60	10	60-180	60	92	GapExp	0	204	2	45	0	distractor	1	640	680	113241	13.328	13.095	13.560
DTProbeTrack02	3	ProbeTrack	12.1	SCS215a	20100804.101543	20100804.103710	8	0.013328	60	10	60-180	60	61	GapExp	0	205	2	9	0	distractor	1	800	600	113841	13.328	13.293	13.362
