exp	sub	code	rev	comp	runtime	trialtime	nstim	refreshdur	cuedur	gapdur	gapOnsetRange	durPostProbe	gapOnsetTime	blocktype	prac	trial	ntargets	soa	probeTarget	resp	acc	rt	pts	tpts	meanFrameDur	minFrameDur	maxFrameDur
ProbeTrack11	23	ProbeTrack	11.2	SCS215a	20101117.143613	20101117.143641	8	0.013328	60	0	60-180	60	89	NoGap	1	1	2	0	0	target	0	1173	-1000	-1000	13.328	12.936	13.718
ProbeTrack11	23	ProbeTrack	11.2	SCS215a	20101117.143613	20101117.143654	8	0.013328	60	0	60-180	60	118	NoGap	1	2	2	1	0	distractor	1	613	694	-306	13.328	13.092	13.551
ProbeTrack11	23	ProbeTrack	11.2	SCS215a	20101117.143613	20101117.143711	8	0.013328	60	0	60-180	60	134	NoGap	1	3	2	1	1	target	1	467	767	461	13.328	12.937	13.698
ProbeTrack11	23	ProbeTrack	11.2	SCS215a	20101117.143613	20101117.143718	8	0.013328	60	0	60-180	60	113	NoGap	1	4	2	45	1	target	1	414	793	1254	13.328	13.307	13.344
ProbeTrack11	23	ProbeTrack	11.2	SCS215a	20101117.143613	20101117.143728	8	0.013328	60	0	60-180	60	86	NoGap	1	5	2	3	0	distractor	1	627	687	1941	13.328	13.101	13.538
ProbeTrack11	23	ProbeTrack	11.2	SCS215a	20101117.143613	20101117.143739	8	0.013328	60	0	60-180	60	179	NoGap	1	6	2	1	1	target	1	387	807	2748	13.328	13.092	13.550
ProbeTrack11	23	ProbeTrack	11.2	SCS215a	20101117.143613	20101117.143746	8	0.013328	60	0	60-180	60	85	NoGap	1	7	2	3	1	distractor	0	387	-1000	1748	13.328	12.873	13.794
ProbeTrack11	23	ProbeTrack	11.2	SCS215a	20101117.143613	20101117.143752	8	0.013328	60	0	60-180	60	149	NoGap	1	8	2	1	0	distractor	1	560	720	2468	13.328	12.855	13.805
ProbeTrack11	23	ProbeTrack	11.2	SCS215a	20101117.143613	20101117.143759	8	0.013328	60	0	60-180	60	127	NoGap	1	9	2	0	1	target	1	573	714	3182	13.328	13.111	13.559
ProbeTrack11	23	ProbeTrack	11.2	SCS215a	20101117.143613	20101117.143806	8	0.013328	60	0	60-180	60	176	NoGap	1	10	2	3	0	distractor	1	560	720	3902	13.328	13.039	13.617
ProbeTrack11	23	ProbeTrack	11.2	SCS215a	20101117.143613	20101117.143814	8	0.013328	60	0	60-180	60	171	NoGap	1	11	2	3	1	target	1	320	840	4742	13.328	13.113	13.549
ProbeTrack11	23	ProbeTrack	11.2	SCS215a	20101117.143613	20101117.143820	8	0.013328	60	0	60-180	60	151	NoGap	1	12	2	3	0	target	0	400	-1000	3742	13.328	13.048	13.602
ProbeTrack11	23	ProbeTrack	11.2	SCS215a	20101117.143613	20101117.143827	8	0.013328	60	0	60-180	60	61	NoGap	1	13	2	45	1	target	1	454	773	4515	13.328	13.309	13.345
ProbeTrack11	23	ProbeTrack	11.2	SCS215a	20101117.143613	20101117.143833	8	0.013328	60	0	60-180	60	76	NoGap	1	14	2	3	0	distractor	1	733	634	5149	13.328	13.309	13.345
ProbeTrack11	23	ProbeTrack	11.2	SCS215a	20101117.143613	20101117.143839	8	0.013328	60	0	60-180	60	158	NoGap	1	15	2	1	0	distractor	1	467	767	5916	13.328	13.295	13.362
ProbeTrack11	23	ProbeTrack	11.2	SCS215a	20101117.143613	20101117.143846	8	0.013328	60	0	60-180	60	150	NoGap	1	16	2	45	1	distractor	0	667	-1000	4916	13.328	13.308	13.348
ProbeTrack11	23	ProbeTrack	11.2	SCS215a	20101117.143613	20101117.143853	8	0.013328	60	0	60-180	60	106	NoGap	1	17	2	45	0	distractor	1	587	707	5623	13.328	13.308	13.348
ProbeTrack11	23	ProbeTrack	11.2	SCS215a	20101117.143613	20101117.143900	8	0.013328	60	0	60-180	60	84	NoGap	1	18	2	45	1	target	1	427	787	6410	13.328	13.207	13.460
ProbeTrack11	23	ProbeTrack	11.2	SCS215a	20101117.143613	20101117.143906	8	0.013328	60	0	60-180	60	89	NoGap	1	19	2	0	1	target	1	427	787	7197	13.328	12.854	13.801
ProbeTrack11	23	ProbeTrack	11.2	SCS215a	20101117.143613	20101117.143912	8	0.013328	60	0	60-180	60	79	NoGap	1	20	2	0	1	target	1	494	753	7950	13.328	12.868	13.784
ProbeTrack11	23	ProbeTrack	11.2	SCS215a	20101117.143613	20101117.143917	8	0.013328	60	0	60-180	60	112	NoGap	1	21	2	1	1	target	1	467	767	8717	13.328	13.013	13.645
ProbeTrack11	23	ProbeTrack	11.2	SCS215a	20101117.143613	20101117.143923	8	0.013328	60	0	60-180	60	76	NoGap	1	22	2	0	1	target	1	360	820	9537	13.328	13.309	13.346
ProbeTrack11	23	ProbeTrack	11.2	SCS215a	20101117.143613	20101117.143929	8	0.013328	60	0	60-180	60	171	NoGap	1	23	2	45	0	target	0	427	-1000	8537	13.328	13.288	13.370
ProbeTrack11	23	ProbeTrack	11.2	SCS215a	20101117.143613	20101117.143936	8	0.013328	60	0	60-180	60	72	NoGap	1	24	2	3	1	target	1	520	740	9277	13.328	12.950	13.706
ProbeTrack11	23	ProbeTrack	11.2	SCS215a	20101117.143613	20101117.143941	8	0.013328	60	0	60-180	60	107	NoGap	1	25	2	0	0	distractor	1	440	780	10057	13.328	13.309	13.347
ProbeTrack11	23	ProbeTrack	11.2	SCS215a	20101117.143613	20101117.143947	8	0.013328	60	0	60-180	60	64	NoGap	1	26	2	0	0	distractor	1	534	733	10790	13.328	13.101	13.557
ProbeTrack11	23	ProbeTrack	11.2	SCS215a	20101117.143613	20101117.143952	8	0.013328	60	0	60-180	60	150	NoGap	1	27	2	45	0	distractor	1	440	780	11570	13.328	12.829	13.822
ProbeTrack11	23	ProbeTrack	11.2	SCS215a	20101117.143613	20101117.143959	8	0.013328	60	0	60-180	60	81	NoGap	1	28	2	1	1	target	1	374	813	12383	13.328	13.094	13.565
ProbeTrack11	23	ProbeTrack	11.2	SCS215a	20101117.143613	20101117.144005	8	0.013328	60	0	60-180	60	159	NoGap	1	29	2	3	0	distractor	1	440	780	13163	13.328	13.310	13.344
ProbeTrack11	23	ProbeTrack	11.2	SCS215a	20101117.143613	20101117.144011	8	0.013328	60	0	60-180	60	103	NoGap	1	30	2	1	1	target	1	387	807	13970	13.328	13.309	13.354
ProbeTrack11	23	ProbeTrack	11.2	SCS215a	20101117.143613	20101117.144017	8	0.013328	60	0	60-180	60	149	NoGap	1	31	2	3	1	target	1	334	833	14803	13.328	13.308	13.359
ProbeTrack11	23	ProbeTrack	11.2	SCS215a	20101117.143613	20101117.144024	8	0.013328	60	0	60-180	60	106	NoGap	1	32	2	0	0	distractor	1	414	793	15596	13.328	13.309	13.343
ProbeTrack11	23	ProbeTrack	11.2	SCS215a	20101117.143613	20101117.144030	8	0.013328	60	0	60-180	60	171	NoGap	1	33	2	1	0	target	0	440	-1000	14596	13.328	13.155	13.517
ProbeTrack11	23	ProbeTrack	11.2	SCS215a	20101117.143613	20101117.144037	8	0.013328	60	0	60-180	60	172	NoGap	1	34	2	0	1	target	1	494	753	15349	13.328	12.897	13.746
ProbeTrack11	23	ProbeTrack	11.2	SCS215a	20101117.143613	20101117.144044	8	0.013328	60	0	60-180	60	122	NoGap	1	35	2	0	0	distractor	1	387	807	16156	13.328	13.309	13.346
ProbeTrack11	23	ProbeTrack	11.2	SCS215a	20101117.143613	20101117.144050	8	0.013328	60	0	60-180	60	61	NoGap	1	36	2	3	1	target	1	400	800	16956	13.328	13.310	13.347
ProbeTrack11	23	ProbeTrack	11.2	SCS215a	20101117.143613	20101117.144056	8	0.013328	60	0	60-180	60	82	NoGap	1	37	2	45	0	distractor	1	440	780	17736	13.328	13.110	13.545
ProbeTrack11	23	ProbeTrack	11.2	SCS215a	20101117.143613	20101117.144102	8	0.013328	60	0	60-180	60	117	NoGap	1	38	2	45	1	target	1	387	807	18543	13.328	12.954	13.694
ProbeTrack11	23	ProbeTrack	11.2	SCS215a	20101117.143613	20101117.144109	8	0.013328	60	0	60-180	60	140	NoGap	1	39	2	1	0	distractor	1	680	660	19203	13.328	12.888	13.773
ProbeTrack11	23	ProbeTrack	11.2	SCS215a	20101117.143613	20101117.144115	8	0.013328	60	0	60-180	60	175	NoGap	1	40	2	45	0	distractor	1	480	760	19963	13.328	12.934	13.716
ProbeTrack11	23	ProbeTrack	11.2	SCS215a	20101117.144159	20101117.144211	8	0.013327	60	0	60-180	60	180	GapPrac	1	1	2	3	0	83	-3	840	-1000	18963	13.328	12.924	13.733
ProbeTrack11	23	ProbeTrack	11.2	SCS215a	20101117.144159	20101117.144221	8	0.013327	60	0	60-180	60	129	GapPrac	1	2	2	45	0	distractor	1	773	614	19577	13.328	13.307	13.351
ProbeTrack11	23	ProbeTrack	11.2	SCS215a	20101117.144159	20101117.144231	8	0.013327	60	0	60-180	60	69	GapPrac	1	3	2	1	0	distractor	1	600	700	20277	13.328	12.879	13.790
ProbeTrack11	23	ProbeTrack	11.2	SCS215a	20101117.144159	20101117.144237	8	0.013327	60	0	60-180	60	168	GapPrac	1	4	2	45	1	target	1	414	793	21070	13.328	13.099	13.551
ProbeTrack11	23	ProbeTrack	11.2	SCS215a	20101117.144159	20101117.144247	8	0.013327	60	10	60-180	60	180	GapPrac	1	5	2	1	0	target	0	760	-1000	20070	13.328	12.860	13.794
ProbeTrack11	23	ProbeTrack	11.2	SCS215a	20101117.144159	20101117.144254	8	0.013327	60	0	60-180	60	127	GapPrac	1	6	2	0	0	target	0	760	-1000	19070	13.328	12.883	13.790
ProbeTrack11	23	ProbeTrack	11.2	SCS215a	20101117.144159	20101117.144302	8	0.013327	60	10	60-180	60	146	GapPrac	1	7	2	3	0	distractor	1	907	547	19617	13.328	13.106	13.550
ProbeTrack11	23	ProbeTrack	11.2	SCS215a	20101117.144159	20101117.144309	8	0.013327	60	0	60-180	60	172	GapPrac	1	8	2	45	1	target	1	494	753	20370	13.328	13.095	13.545
ProbeTrack11	23	ProbeTrack	11.2	SCS215a	20101117.144159	20101117.144316	8	0.013327	60	10	60-180	60	86	GapPrac	1	9	2	0	0	target	0	827	-1000	19370	13.328	13.086	13.569
ProbeTrack11	23	ProbeTrack	11.2	SCS215a	20101117.144159	20101117.144323	8	0.013327	60	0	60-180	60	130	GapPrac	1	10	2	1	1	target	1	494	753	20123	13.328	12.894	13.764
ProbeTrack11	23	ProbeTrack	11.2	SCS215a	20101117.144159	20101117.144329	8	0.013327	60	0	60-180	60	97	GapPrac	1	11	2	1	0	distractor	1	893	554	20677	13.328	13.310	13.345
ProbeTrack11	23	ProbeTrack	11.2	SCS215a	20101117.144159	20101117.144335	8	0.013327	60	0	60-180	60	141	GapPrac	1	12	2	3	0	target	0	907	-1000	19677	13.328	13.090	13.565
ProbeTrack11	23	ProbeTrack	11.2	SCS215a	20101117.144159	20101117.144342	8	0.013327	60	0	60-180	60	139	GapPrac	1	13	2	3	1	target	1	440	780	20457	13.328	13.100	13.551
ProbeTrack11	23	ProbeTrack	11.2	SCS215a	20101117.144159	20101117.144349	8	0.013327	60	10	60-180	60	87	GapPrac	1	14	2	45	0	distractor	1	840	580	21037	13.328	13.097	13.549
ProbeTrack11	23	ProbeTrack	11.2	SCS215a	20101117.144159	20101117.144356	8	0.013327	60	10	60-180	60	63	GapPrac	1	15	2	3	1	target	1	694	653	21690	13.328	13.307	13.344
ProbeTrack11	23	ProbeTrack	11.2	SCS215a	20101117.144159	20101117.144402	8	0.013327	60	0	60-180	60	145	GapPrac	1	16	2	45	0	distractor	1	653	674	22364	13.328	13.080	13.581
ProbeTrack11	23	ProbeTrack	11.2	SCS215a	20101117.144159	20101117.144409	8	0.013327	60	10	60-180	60	139	GapPrac	1	17	2	45	1	target	1	587	707	23071	13.328	13.099	13.551
ProbeTrack11	23	ProbeTrack	11.2	SCS215a	20101117.144159	20101117.144417	8	0.013327	60	10	60-180	60	109	GapPrac	1	18	2	1	1	target	1	600	700	23771	13.328	12.948	13.687
ProbeTrack11	23	ProbeTrack	11.2	SCS215a	20101117.144159	20101117.144423	8	0.013327	60	10	60-180	60	144	GapPrac	1	19	2	0	1	target	1	520	740	24511	13.328	13.308	13.347
ProbeTrack11	23	ProbeTrack	11.2	SCS215a	20101117.144159	20101117.144429	8	0.013327	60	0	60-180	60	73	GapPrac	1	20	2	0	1	target	1	520	740	25251	13.328	13.311	13.346
ProbeTrack11	23	ProbeTrack	11.2	SCS215a	20101117.144515	20101117.144520	8	0.013328	60	0	60-180	60	136	GapPrac	1	1	2	45	1	target	1	454	773	26024	13.328	13.103	13.547
ProbeTrack11	23	ProbeTrack	11.2	SCS215a	20101117.144515	20101117.144529	8	0.013328	60	0	60-180	60	73	GapPrac	1	2	2	0	0	distractor	1	667	667	26691	13.328	12.881	13.782
ProbeTrack11	23	ProbeTrack	11.2	SCS215a	20101117.144515	20101117.144535	8	0.013328	60	10	60-180	60	147	GapPrac	1	3	2	0	1	target	1	534	733	27424	13.328	12.931	13.716
ProbeTrack11	23	ProbeTrack	11.2	SCS215a	20101117.144515	20101117.144542	8	0.013328	60	10	60-180	60	98	GapPrac	1	4	2	3	0	distractor	1	787	607	28031	13.328	13.309	13.347
ProbeTrack11	23	ProbeTrack	11.2	SCS215a	20101117.144515	20101117.144548	8	0.013328	60	10	60-180	60	77	GapPrac	1	5	2	1	1	target	1	587	707	28738	13.328	13.308	13.348
ProbeTrack11	23	ProbeTrack	11.2	SCS215a	20101117.144515	20101117.144554	8	0.013328	60	0	60-180	60	130	GapPrac	1	6	2	45	1	target	1	494	753	29491	13.328	12.781	13.874
ProbeTrack11	23	ProbeTrack	11.2	SCS215a	20101117.144515	20101117.144601	8	0.013328	60	0	60-180	60	120	GapPrac	1	7	2	45	0	distractor	1	654	673	30164	13.328	13.304	13.350
ProbeTrack11	23	ProbeTrack	11.2	SCS215a	20101117.144515	20101117.144607	8	0.013328	60	0	60-180	60	103	GapPrac	1	8	2	3	0	distractor	1	680	660	30824	13.328	12.980	13.683
ProbeTrack11	23	ProbeTrack	11.2	SCS215a	20101117.144515	20101117.144614	8	0.013328	60	10	60-180	60	144	GapPrac	1	9	2	3	0	target	0	547	-1000	29824	13.328	12.944	13.712
ProbeTrack11	23	ProbeTrack	11.2	SCS215a	20101117.144515	20101117.144620	8	0.013328	60	10	60-180	60	135	GapPrac	1	10	2	45	1	target	1	693	654	30478	13.328	13.307	13.348
ProbeTrack11	23	ProbeTrack	11.2	SCS215a	20101117.144515	20101117.144628	8	0.013328	60	10	60-180	60	101	GapPrac	1	11	2	0	1	target	1	547	727	31205	13.328	12.905	13.744
ProbeTrack11	23	ProbeTrack	11.2	SCS215a	20101117.144515	20101117.144633	8	0.013328	60	0	60-180	60	114	GapPrac	1	12	2	1	1	target	1	507	747	31952	13.328	13.100	13.553
ProbeTrack11	23	ProbeTrack	11.2	SCS215a	20101117.144515	20101117.144639	8	0.013328	60	0	60-180	60	155	GapPrac	1	13	2	1	0	distractor	1	680	660	32612	13.328	13.104	13.545
ProbeTrack11	23	ProbeTrack	11.2	SCS215a	20101117.144515	20101117.144646	8	0.013328	60	10	60-180	60	173	GapPrac	1	14	2	3	1	target	1	600	700	33312	13.328	13.084	13.559
ProbeTrack11	23	ProbeTrack	11.2	SCS215a	20101117.144515	20101117.144653	8	0.013328	60	10	60-180	60	75	GapPrac	1	15	2	0	0	distractor	1	560	720	34032	13.328	13.099	13.548
ProbeTrack11	23	ProbeTrack	11.2	SCS215a	20101117.144515	20101117.144659	8	0.013328	60	10	60-180	60	127	GapPrac	1	16	2	1	0	distractor	1	1040	480	34512	13.328	13.112	13.539
ProbeTrack11	23	ProbeTrack	11.2	SCS215a	20101117.144515	20101117.144706	8	0.013328	60	10	60-180	60	161	GapPrac	1	17	2	45	0	distractor	1	614	693	35205	13.328	12.915	13.756
ProbeTrack11	23	ProbeTrack	11.2	SCS215a	20101117.144515	20101117.144714	8	0.013328	60	0	60-180	60	111	GapPrac	1	18	2	0	1	target	1	467	767	35972	13.328	12.854	13.800
ProbeTrack11	23	ProbeTrack	11.2	SCS215a	20101117.144515	20101117.144720	8	0.013328	60	0	60-180	60	127	GapPrac	1	19	2	0	0	distractor	1	587	707	36679	13.328	13.007	13.648
ProbeTrack11	23	ProbeTrack	11.2	SCS215a	20101117.144515	20101117.144726	8	0.013328	60	0	60-180	60	114	GapPrac	1	20	2	3	1	target	1	574	713	37392	13.328	13.123	13.546
ProbeTrack11	23	ProbeTrack	11.2	SCS215a	20101117.144806	20101117.144832	8	0.013328	60	0	60-180	60	113	GapExp	1	1	2	1	1	distractor	0	867	-1000	36392	13.328	13.309	13.348
ProbeTrack11	23	ProbeTrack	11.2	SCS215a	20101117.144806	20101117.144841	8	0.013328	60	0	60-180	60	72	GapExp	1	2	2	45	1	target	1	694	653	37045	13.328	13.309	13.347
ProbeTrack11	23	ProbeTrack	11.2	SCS215a	20101117.144806	20101117.144848	8	0.013328	60	0	60-180	60	143	GapExp	0	3	2	1	0	distractor	1	534	733	37778	13.328	12.903	13.741
ProbeTrack11	23	ProbeTrack	11.2	SCS215a	20101117.144806	20101117.144854	8	0.013328	60	10	60-180	60	123	GapExp	0	4	2	0	0	distractor	1	760	620	38398	13.328	13.307	13.346
ProbeTrack11	23	ProbeTrack	11.2	SCS215a	20101117.144806	20101117.144901	8	0.013328	60	0	60-180	60	134	GapExp	0	5	2	45	1	target	1	440	780	39178	13.328	13.310	13.349
ProbeTrack11	23	ProbeTrack	11.2	SCS215a	20101117.144806	20101117.144908	8	0.013328	60	0	60-180	60	134	GapExp	0	6	2	0	0	distractor	1	587	707	39885	13.328	12.898	13.771
ProbeTrack11	23	ProbeTrack	11.2	SCS215a	20101117.144806	20101117.144914	8	0.013328	60	10	60-180	60	95	GapExp	0	7	2	45	1	target	1	414	793	40678	13.328	13.092	13.558
ProbeTrack11	23	ProbeTrack	11.2	SCS215a	20101117.144806	20101117.144920	8	0.013328	60	0	60-180	60	105	GapExp	0	8	2	1	1	target	1	454	773	41451	13.328	12.916	13.736
ProbeTrack11	23	ProbeTrack	11.2	SCS215a	20101117.144806	20101117.144926	8	0.013328	60	10	60-180	60	72	GapExp	0	9	2	45	0	distractor	1	533	734	42185	13.328	13.309	13.346
ProbeTrack11	23	ProbeTrack	11.2	SCS215a	20101117.144806	20101117.144932	8	0.013328	60	10	60-180	60	64	GapExp	0	10	2	0	0	target	0	400	-1000	41185	13.328	12.883	13.779
ProbeTrack11	23	ProbeTrack	11.2	SCS215a	20101117.144806	20101117.144937	8	0.013328	60	0	60-180	60	134	GapExp	0	11	2	45	0	distractor	1	547	727	41912	13.328	13.309	13.348
ProbeTrack11	23	ProbeTrack	11.2	SCS215a	20101117.144806	20101117.144944	8	0.013328	60	10	60-180	60	82	GapExp	0	12	2	45	0	distractor	1	467	767	42679	13.328	13.302	13.368
ProbeTrack11	23	ProbeTrack	11.2	SCS215a	20101117.144806	20101117.144951	8	0.013328	60	10	60-180	60	145	GapExp	0	13	2	1	0	distractor	1	707	647	43326	13.328	12.872	13.778
ProbeTrack11	23	ProbeTrack	11.2	SCS215a	20101117.144806	20101117.144957	8	0.013328	60	0	60-180	60	168	GapExp	0	14	2	1	0	distractor	1	747	627	43953	13.328	13.103	13.558
ProbeTrack11	23	ProbeTrack	11.2	SCS215a	20101117.144806	20101117.145004	8	0.013328	60	0	60-180	60	89	GapExp	0	15	2	3	0	distractor	1	613	694	44647	13.328	12.947	13.717
ProbeTrack11	23	ProbeTrack	11.2	SCS215a	20101117.144806	20101117.145010	8	0.013328	60	10	60-180	60	145	GapExp	0	16	2	3	1	target	1	507	747	45394	13.328	13.309	13.347
ProbeTrack11	23	ProbeTrack	11.2	SCS215a	20101117.144806	20101117.145017	8	0.013328	60	10	60-180	60	138	GapExp	0	17	2	0	0	distractor	1	680	660	46054	13.328	12.894	13.762
ProbeTrack11	23	ProbeTrack	11.2	SCS215a	20101117.144806	20101117.145023	8	0.013328	60	10	60-180	60	100	GapExp	0	18	2	3	1	target	1	467	767	46821	13.328	12.904	13.751
ProbeTrack11	23	ProbeTrack	11.2	SCS215a	20101117.144806	20101117.145029	8	0.013328	60	10	60-180	60	121	GapExp	0	19	2	3	0	distractor	1	547	727	47548	13.328	13.121	13.537
ProbeTrack11	23	ProbeTrack	11.2	SCS215a	20101117.144806	20101117.145036	8	0.013328	60	10	60-180	60	135	GapExp	0	20	2	1	1	target	1	707	647	48195	13.328	13.307	13.347
ProbeTrack11	23	ProbeTrack	11.2	SCS215a	20101117.144806	20101117.145042	8	0.013328	60	10	60-180	60	83	GapExp	0	21	2	1	1	target	1	467	767	48962	13.392	12.891	26.797
ProbeTrack11	23	ProbeTrack	11.2	SCS215a	20101117.144806	20101117.145048	8	0.013328	60	10	60-180	60	79	GapExp	0	22	2	45	1	target	1	440	780	49742	13.328	12.866	13.786
ProbeTrack11	23	ProbeTrack	11.2	SCS215a	20101117.144806	20101117.145054	8	0.013328	60	10	60-180	60	149	GapExp	0	23	2	45	1	target	1	414	793	50535	13.328	13.292	13.360
ProbeTrack11	23	ProbeTrack	11.2	SCS215a	20101117.144806	20101117.145101	8	0.013328	60	0	60-180	60	72	GapExp	0	24	2	3	1	target	1	534	733	51268	13.328	13.306	13.343
ProbeTrack11	23	ProbeTrack	11.2	SCS215a	20101117.144806	20101117.145107	8	0.013328	60	10	60-180	60	179	GapExp	0	25	2	45	1	target	1	480	760	52028	13.328	13.108	13.545
ProbeTrack11	23	ProbeTrack	11.2	SCS215a	20101117.144806	20101117.145114	8	0.013328	60	10	60-180	60	110	GapExp	0	26	2	0	1	target	1	467	767	52795	13.328	13.038	13.604
ProbeTrack11	23	ProbeTrack	11.2	SCS215a	20101117.144806	20101117.145120	8	0.013328	60	10	60-180	60	92	GapExp	0	27	2	45	1	target	1	374	813	53608	13.328	12.971	13.703
ProbeTrack11	23	ProbeTrack	11.2	SCS215a	20101117.144806	20101117.145126	8	0.013328	60	10	60-180	60	158	GapExp	0	28	2	0	1	target	1	454	773	54381	13.328	13.119	13.572
ProbeTrack11	23	ProbeTrack	11.2	SCS215a	20101117.144806	20101117.145133	8	0.013328	60	0	60-180	60	130	GapExp	0	29	2	45	0	distractor	1	733	634	55015	13.414	12.852	40.388
ProbeTrack11	23	ProbeTrack	11.2	SCS215a	20101117.144806	20101117.145140	8	0.013328	60	10	60-180	60	116	GapExp	0	30	2	0	1	distractor	0	574	-1000	54015	13.328	12.841	13.808
ProbeTrack11	23	ProbeTrack	11.2	SCS215a	20101117.144806	20101117.145146	8	0.013328	60	10	60-180	60	72	GapExp	0	31	2	3	0	distractor	1	680	660	54675	13.328	13.275	13.380
ProbeTrack11	23	ProbeTrack	11.2	SCS215a	20101117.144806	20101117.145152	8	0.013328	60	10	60-180	60	119	GapExp	0	32	2	3	0	distractor	1	600	700	55375	13.328	13.309	13.347
ProbeTrack11	23	ProbeTrack	11.2	SCS215a	20101117.144806	20101117.145158	8	0.013328	60	10	60-180	60	120	GapExp	0	33	2	45	0	distractor	1	507	747	56122	13.328	12.924	13.716
ProbeTrack11	23	ProbeTrack	11.2	SCS215a	20101117.144806	20101117.145205	8	0.013328	60	0	60-180	60	91	GapExp	0	34	2	3	0	distractor	1	587	707	56829	13.328	12.865	13.765
ProbeTrack11	23	ProbeTrack	11.2	SCS215a	20101117.144806	20101117.145211	8	0.013328	60	0	60-180	60	69	GapExp	0	35	2	3	0	distractor	1	680	660	57489	13.328	12.858	13.793
ProbeTrack11	23	ProbeTrack	11.2	SCS215a	20101117.144806	20101117.145216	8	0.013328	60	0	60-180	60	132	GapExp	0	36	2	1	1	target	1	467	767	58256	13.328	13.106	13.549
ProbeTrack11	23	ProbeTrack	11.2	SCS215a	20101117.144806	20101117.145222	8	0.013328	60	0	60-180	60	139	GapExp	0	37	2	0	1	target	1	467	767	59023	13.328	13.033	13.624
ProbeTrack11	23	ProbeTrack	11.2	SCS215a	20101117.144806	20101117.145228	8	0.013328	60	10	60-180	60	72	GapExp	0	38	2	3	0	distractor	1	574	713	59736	13.328	12.849	13.796
ProbeTrack11	23	ProbeTrack	11.2	SCS215a	20101117.144806	20101117.145234	8	0.013328	60	10	60-180	60	62	GapExp	0	39	2	1	1	target	1	614	693	60429	13.328	13.290	13.362
ProbeTrack11	23	ProbeTrack	11.2	SCS215a	20101117.144806	20101117.145239	8	0.013328	60	0	60-180	60	120	GapExp	0	40	2	0	0	distractor	1	653	674	61103	13.328	13.306	13.350
ProbeTrack11	23	ProbeTrack	11.2	SCS215a	20101117.144806	20101117.145246	8	0.013328	60	0	60-180	60	66	GapExp	0	41	2	3	1	target	1	467	767	61870	13.328	12.876	13.791
ProbeTrack11	23	ProbeTrack	11.2	SCS215a	20101117.144806	20101117.145251	8	0.013328	60	0	60-180	60	63	GapExp	0	42	2	0	0	distractor	1	534	733	62603	13.328	12.859	13.789
ProbeTrack11	23	ProbeTrack	11.2	SCS215a	20101117.144806	20101117.145256	8	0.013328	60	10	60-180	60	152	GapExp	0	43	2	3	0	distractor	1	613	694	63297	13.328	12.935	13.713
ProbeTrack11	23	ProbeTrack	11.2	SCS215a	20101117.144806	20101117.145302	8	0.013328	60	10	60-180	60	173	GapExp	0	44	2	45	1	target	1	613	694	63991	13.328	13.113	13.544
ProbeTrack11	23	ProbeTrack	11.2	SCS215a	20101117.144806	20101117.145310	8	0.013328	60	10	60-180	60	147	GapExp	0	45	2	0	1	target	1	454	773	64764	13.326	13.004	13.584
ProbeTrack11	23	ProbeTrack	11.2	SCS215a	20101117.144806	20101117.145316	8	0.013328	60	10	60-180	60	92	GapExp	0	46	2	1	1	target	1	454	773	65537	13.328	13.308	13.347
ProbeTrack11	23	ProbeTrack	11.2	SCS215a	20101117.144806	20101117.145323	8	0.013328	60	0	60-180	60	147	GapExp	0	47	2	0	1	target	1	480	760	66297	13.328	12.686	13.979
ProbeTrack11	23	ProbeTrack	11.2	SCS215a	20101117.144806	20101117.145329	8	0.013328	60	0	60-180	60	91	GapExp	0	48	2	0	0	distractor	1	560	720	67017	13.328	12.897	13.773
ProbeTrack11	23	ProbeTrack	11.2	SCS215a	20101117.144806	20101117.145334	8	0.013328	60	0	60-180	60	169	GapExp	0	49	2	0	0	distractor	1	587	707	67724	13.328	13.093	13.557
ProbeTrack11	23	ProbeTrack	11.2	SCS215a	20101117.144806	20101117.145341	8	0.013328	60	0	60-180	60	179	GapExp	0	50	2	3	1	target	1	680	660	68384	13.328	12.898	13.748
ProbeTrack11	23	ProbeTrack	11.2	SCS215a	20101117.144806	20101117.145348	8	0.013328	60	0	60-180	60	99	GapExp	0	51	2	3	1	target	1	507	747	69131	13.328	12.881	13.780
ProbeTrack11	23	ProbeTrack	11.2	SCS215a	20101117.144806	20101117.145354	8	0.013328	60	10	60-180	60	128	GapExp	0	52	2	1	0	target	0	600	-1000	68131	13.328	13.107	13.536
ProbeTrack11	23	ProbeTrack	11.2	SCS215a	20101117.144806	20101117.145400	8	0.013328	60	0	60-180	60	126	GapExp	0	53	2	0	1	target	1	520	740	68871	13.328	12.928	13.723
ProbeTrack11	23	ProbeTrack	11.2	SCS215a	20101117.144806	20101117.145406	8	0.013328	60	10	60-180	60	128	GapExp	0	54	2	45	1	target	1	494	753	69624	13.328	13.091	13.556
ProbeTrack11	23	ProbeTrack	11.2	SCS215a	20101117.144806	20101117.145413	8	0.013328	60	10	60-180	60	77	GapExp	0	55	2	1	1	target	1	440	780	70404	13.328	13.310	13.347
ProbeTrack11	23	ProbeTrack	11.2	SCS215a	20101117.144806	20101117.145419	8	0.013328	60	10	60-180	60	175	GapExp	0	56	2	45	0	distractor	1	693	654	71058	13.328	13.099	13.551
ProbeTrack11	23	ProbeTrack	11.2	SCS215a	20101117.144806	20101117.145427	8	0.013328	60	0	60-180	60	102	GapExp	0	57	2	3	1	target	1	534	733	71791	13.328	13.040	13.623
ProbeTrack11	23	ProbeTrack	11.2	SCS215a	20101117.144806	20101117.145432	8	0.013328	60	0	60-180	60	168	GapExp	0	58	2	1	0	distractor	1	773	614	72405	13.328	13.140	13.498
ProbeTrack11	23	ProbeTrack	11.2	SCS215a	20101117.144806	20101117.145439	8	0.013328	60	10	60-180	60	153	GapExp	0	59	2	3	0	distractor	1	654	673	73078	13.328	13.309	13.347
ProbeTrack11	23	ProbeTrack	11.2	SCS215a	20101117.144806	20101117.145446	8	0.013328	60	0	60-180	60	133	GapExp	0	60	2	0	1	target	1	707	647	73725	13.327	13.050	13.348
ProbeTrack11	23	ProbeTrack	11.2	SCS215a	20101117.144806	20101117.145453	8	0.013328	60	0	60-180	60	153	GapExp	0	61	2	1	1	target	1	507	747	74472	13.328	12.951	13.708
ProbeTrack11	23	ProbeTrack	11.2	SCS215a	20101117.144806	20101117.145459	8	0.013328	60	10	60-180	60	75	GapExp	0	62	2	45	1	target	1	414	793	75265	13.328	13.299	13.357
ProbeTrack11	23	ProbeTrack	11.2	SCS215a	20101117.144806	20101117.145506	8	0.013328	60	0	60-180	60	85	GapExp	0	63	2	1	1	target	1	560	720	75985	13.393	12.949	27.046
ProbeTrack11	23	ProbeTrack	11.2	SCS215a	20101117.144806	20101117.145511	8	0.013328	60	0	60-180	60	100	GapExp	0	64	2	0	1	target	1	480	760	76745	13.390	12.866	26.939
ProbeTrack11	23	ProbeTrack	11.2	SCS215a	20101117.144806	20101117.145517	8	0.013328	60	0	60-180	60	70	GapExp	0	65	2	45	0	distractor	1	773	614	77359	13.328	13.101	13.541
ProbeTrack11	23	ProbeTrack	11.2	SCS215a	20101117.144806	20101117.145524	8	0.013328	60	0	60-180	60	89	GapExp	0	66	2	45	1	target	1	600	700	78059	13.328	13.090	13.566
ProbeTrack11	23	ProbeTrack	11.2	SCS215a	20101117.144806	20101117.145530	8	0.013328	60	10	60-180	60	125	GapExp	0	67	2	45	0	distractor	1	653	674	78733	13.328	13.093	13.557
ProbeTrack11	23	ProbeTrack	11.2	SCS215a	20101117.144806	20101117.145538	8	0.013328	60	0	60-180	60	173	GapExp	0	68	2	1	0	distractor	1	667	667	79400	13.328	13.096	13.554
ProbeTrack11	23	ProbeTrack	11.2	SCS215a	20101117.144806	20101117.145544	8	0.013328	60	10	60-180	60	161	GapExp	0	69	2	0	0	distractor	1	707	647	80047	13.328	13.098	13.557
ProbeTrack11	23	ProbeTrack	11.2	SCS215a	20101117.144806	20101117.145551	8	0.013328	60	10	60-180	60	102	GapExp	0	70	2	0	1	target	1	613	694	80741	13.328	13.012	13.632
ProbeTrack11	23	ProbeTrack	11.2	SCS215a	20101117.144806	20101117.145557	8	0.013328	60	0	60-180	60	172	GapExp	0	71	2	3	0	distractor	1	627	687	81428	13.328	12.880	13.781
ProbeTrack11	23	ProbeTrack	11.2	SCS215a	20101117.144806	20101117.145604	8	0.013328	60	0	60-180	60	83	GapExp	0	72	2	45	0	distractor	1	707	647	82075	13.328	13.310	13.346
ProbeTrack11	23	ProbeTrack	11.2	SCS215a	20101117.144806	20101117.145610	8	0.013328	60	0	60-180	60	176	GapExp	0	73	2	45	0	distractor	1	573	714	82789	13.328	12.972	13.705
ProbeTrack11	23	ProbeTrack	11.2	SCS215a	20101117.144806	20101117.145618	8	0.013328	60	0	60-180	60	154	GapExp	0	74	2	0	0	distractor	1	680	660	83449	13.328	13.307	13.349
ProbeTrack11	23	ProbeTrack	11.2	SCS215a	20101117.144806	20101117.145624	8	0.013328	60	10	60-180	60	89	GapExp	0	75	2	3	1	target	1	707	647	84096	13.328	13.118	13.537
ProbeTrack11	23	ProbeTrack	11.2	SCS215a	20101117.144806	20101117.145641	8	0.013328	60	10	60-180	60	127	GapExp	0	76	2	3	0	distractor	1	600	700	84796	13.328	12.936	13.718
ProbeTrack11	23	ProbeTrack	11.2	SCS215a	20101117.144806	20101117.145647	8	0.013328	60	0	60-180	60	116	GapExp	0	77	2	45	1	target	1	494	753	85549	13.328	12.905	13.752
ProbeTrack11	23	ProbeTrack	11.2	SCS215a	20101117.144806	20101117.145654	8	0.013328	60	0	60-180	60	143	GapExp	0	78	2	45	0	distractor	1	613	694	86243	13.328	13.097	13.554
ProbeTrack11	23	ProbeTrack	11.2	SCS215a	20101117.144806	20101117.145701	8	0.013328	60	0	60-180	60	98	GapExp	0	79	2	3	0	target	0	893	-1000	85243	13.328	13.306	13.346
ProbeTrack11	23	ProbeTrack	11.2	SCS215a	20101117.144806	20101117.145707	8	0.013328	60	0	60-180	60	70	GapExp	0	80	2	1	1	target	1	440	780	86023	13.328	13.310	13.359
ProbeTrack11	23	ProbeTrack	11.2	SCS215a	20101117.144806	20101117.145713	8	0.013328	60	10	60-180	60	111	GapExp	0	81	2	3	0	distractor	1	480	760	86783	13.328	12.948	13.706
ProbeTrack11	23	ProbeTrack	11.2	SCS215a	20101117.144806	20101117.145719	8	0.013328	60	0	60-180	60	133	GapExp	0	82	2	3	1	target	1	534	733	87516	13.328	13.309	13.346
ProbeTrack11	23	ProbeTrack	11.2	SCS215a	20101117.144806	20101117.145725	8	0.013328	60	0	60-180	60	137	GapExp	0	83	2	1	0	distractor	1	560	720	88236	13.328	13.308	13.346
ProbeTrack11	23	ProbeTrack	11.2	SCS215a	20101117.144806	20101117.145732	8	0.013328	60	0	60-180	60	84	GapExp	0	84	2	1	0	distractor	1	987	507	88743	13.328	13.100	13.544
ProbeTrack11	23	ProbeTrack	11.2	SCS215a	20101117.144806	20101117.145738	8	0.013328	60	0	60-180	60	138	GapExp	0	85	2	45	0	distractor	1	707	647	89390	13.328	13.102	13.550
ProbeTrack11	23	ProbeTrack	11.2	SCS215a	20101117.144806	20101117.145746	8	0.013328	60	0	60-180	60	82	GapExp	0	86	2	1	1	target	1	574	713	90103	13.328	13.102	13.557
ProbeTrack11	23	ProbeTrack	11.2	SCS215a	20101117.144806	20101117.145751	8	0.013328	60	0	60-180	60	111	GapExp	0	87	2	45	0	distractor	1	734	633	90736	13.328	13.105	13.541
ProbeTrack11	23	ProbeTrack	11.2	SCS215a	20101117.144806	20101117.145759	8	0.013328	60	10	60-180	60	95	GapExp	0	88	2	0	1	target	1	747	627	91363	13.328	13.113	13.545
ProbeTrack11	23	ProbeTrack	11.2	SCS215a	20101117.144806	20101117.145805	8	0.013328	60	10	60-180	60	151	GapExp	0	89	2	45	0	distractor	1	547	727	92090	13.328	13.105	13.553
ProbeTrack11	23	ProbeTrack	11.2	SCS215a	20101117.144806	20101117.145812	8	0.013328	60	10	60-180	60	178	GapExp	0	90	2	1	1	target	1	640	680	92770	13.328	13.101	13.546
ProbeTrack11	23	ProbeTrack	11.2	SCS215a	20101117.144806	20101117.145827	8	0.013328	60	10	60-180	60	86	GapExp	0	91	2	1	0	distractor	1	680	660	93430	13.328	13.313	13.345
ProbeTrack11	23	ProbeTrack	11.2	SCS215a	20101117.144806	20101117.145834	8	0.013328	60	10	60-180	60	101	GapExp	0	92	2	1	1	target	1	973	514	93944	13.328	13.106	13.563
ProbeTrack11	23	ProbeTrack	11.2	SCS215a	20101117.144806	20101117.145840	8	0.013328	60	0	60-180	60	125	GapExp	0	93	2	45	0	distractor	1	840	580	94524	13.328	12.886	13.763
ProbeTrack11	23	ProbeTrack	11.2	SCS215a	20101117.144806	20101117.145848	8	0.013328	60	10	60-180	60	130	GapExp	0	94	2	0	1	target	1	1786	107	94631	13.376	12.878	13.784
ProbeTrack11	23	ProbeTrack	11.2	SCS215a	20101117.144806	20101117.145856	8	0.013328	60	0	60-180	60	126	GapExp	0	95	2	1	0	distractor	1	627	687	95318	13.328	13.094	13.557
ProbeTrack11	23	ProbeTrack	11.2	SCS215a	20101117.144806	20101117.145902	8	0.013328	60	10	60-180	60	99	GapExp	0	96	2	45	0	distractor	1	600	700	96018	13.328	13.309	13.347
ProbeTrack11	23	ProbeTrack	11.2	SCS215a	20101117.144806	20101117.145909	8	0.013328	60	0	60-180	60	91	GapExp	0	97	2	1	1	target	1	760	620	96638	13.328	13.105	13.551
ProbeTrack11	23	ProbeTrack	11.2	SCS215a	20101117.144806	20101117.145915	8	0.013328	60	0	60-180	60	70	GapExp	0	98	2	1	1	target	1	454	773	97411	13.328	13.107	13.550
ProbeTrack11	23	ProbeTrack	11.2	SCS215a	20101117.144806	20101117.145921	8	0.013328	60	0	60-180	60	139	GapExp	0	99	2	3	1	target	1	1013	494	97905	13.328	13.307	13.350
ProbeTrack11	23	ProbeTrack	11.2	SCS215a	20101117.144806	20101117.145928	8	0.013328	60	0	60-180	60	173	GapExp	0	100	2	45	1	target	1	534	733	98638	13.328	13.086	13.563
ProbeTrack11	23	ProbeTrack	11.2	SCS215a	20101117.144806	20101117.145935	8	0.013328	60	0	60-180	60	150	GapExp	0	101	2	3	0	distractor	1	880	560	99198	13.328	12.927	13.728
ProbeTrack11	23	ProbeTrack	11.2	SCS215a	20101117.144806	20101117.145945	8	0.013328	60	10	60-180	60	76	GapExp	0	102	2	1	1	target	1	3266	0	99198	13.327	13.099	13.545
ProbeTrack11	23	ProbeTrack	11.2	SCS215a	20101117.144806	20101117.145953	8	0.013328	60	0	60-180	60	123	GapExp	0	103	2	45	0	target	0	613	-1000	98198	13.328	12.900	13.761
ProbeTrack11	23	ProbeTrack	11.2	SCS215a	20101117.144806	20101117.150000	8	0.013328	60	10	60-180	60	167	GapExp	0	104	2	3	0	distractor	1	574	713	98911	13.328	13.307	13.347
ProbeTrack11	23	ProbeTrack	11.2	SCS215a	20101117.144806	20101117.150007	8	0.013328	60	10	60-180	60	108	GapExp	0	105	2	45	0	distractor	1	480	760	99671	13.328	13.261	13.394
ProbeTrack11	23	ProbeTrack	11.2	SCS215a	20101117.144806	20101117.150014	8	0.013328	60	0	60-180	60	82	GapExp	0	106	2	45	1	distractor	0	520	-1000	98671	13.328	12.965	13.684
ProbeTrack11	23	ProbeTrack	11.2	SCS215a	20101117.144806	20101117.150020	8	0.013328	60	0	60-180	60	99	GapExp	0	107	2	1	0	distractor	1	560	720	99391	13.328	13.308	13.351
ProbeTrack11	23	ProbeTrack	11.2	SCS215a	20101117.144806	20101117.150027	8	0.013328	60	0	60-180	60	166	GapExp	0	108	2	3	0	distractor	1	534	733	100124	13.328	13.097	13.560
ProbeTrack11	23	ProbeTrack	11.2	SCS215a	20101117.144806	20101117.150034	8	0.013328	60	10	60-180	60	152	GapExp	0	109	2	1	1	target	1	534	733	100857	13.328	12.875	13.780
ProbeTrack11	23	ProbeTrack	11.2	SCS215a	20101117.144806	20101117.150041	8	0.013328	60	10	60-180	60	145	GapExp	0	110	2	45	1	target	1	440	780	101637	13.328	13.284	13.377
ProbeTrack11	23	ProbeTrack	11.2	SCS215a	20101117.144806	20101117.150048	8	0.013328	60	10	60-180	60	145	GapExp	0	111	2	3	0	target	0	480	-1000	100637	13.328	13.097	13.552
ProbeTrack11	23	ProbeTrack	11.2	SCS215a	20101117.144806	20101117.150054	8	0.013328	60	0	60-180	60	160	GapExp	0	112	2	3	0	distractor	1	534	733	101370	13.328	12.915	13.747
ProbeTrack11	23	ProbeTrack	11.2	SCS215a	20101117.144806	20101117.150101	8	0.013328	60	0	60-180	60	153	GapExp	0	113	2	0	0	distractor	1	680	660	102030	13.328	12.910	13.567
ProbeTrack11	23	ProbeTrack	11.2	SCS215a	20101117.144806	20101117.150108	8	0.013328	60	10	60-180	60	104	GapExp	0	114	2	3	1	target	1	640	680	102710	13.328	13.092	13.563
ProbeTrack11	23	ProbeTrack	11.2	SCS215a	20101117.144806	20101117.150114	8	0.013328	60	10	60-180	60	121	GapExp	0	115	2	45	1	target	1	667	667	103377	13.328	13.307	13.346
ProbeTrack11	23	ProbeTrack	11.2	SCS215a	20101117.144806	20101117.150121	8	0.013328	60	0	60-180	60	130	GapExp	0	116	2	1	0	distractor	1	573	714	104091	13.328	13.015	13.627
ProbeTrack11	23	ProbeTrack	11.2	SCS215a	20101117.144806	20101117.150127	8	0.013328	60	0	60-180	60	127	GapExp	0	117	2	1	1	distractor	0	1533	-1000	103091	13.328	13.092	13.556
ProbeTrack11	23	ProbeTrack	11.2	SCS215a	20101117.144806	20101117.150134	8	0.013328	60	10	60-180	60	138	GapExp	0	118	2	45	1	target	1	480	760	103851	13.328	12.881	13.790
ProbeTrack11	23	ProbeTrack	11.2	SCS215a	20101117.144806	20101117.150141	8	0.013328	60	0	60-180	60	105	GapExp	0	119	2	3	0	distractor	1	507	747	104598	13.328	13.308	13.345
ProbeTrack11	23	ProbeTrack	11.2	SCS215a	20101117.144806	20101117.150241	8	0.013328	60	10	60-180	60	114	GapExp	0	120	2	1	1	target	1	440	780	105378	13.328	13.274	13.394
ProbeTrack11	23	ProbeTrack	11.2	SCS215a	20101117.144806	20101117.150247	8	0.013328	60	10	60-180	60	133	GapExp	0	121	2	0	1	target	1	440	780	106158	13.328	13.100	13.551
ProbeTrack11	23	ProbeTrack	11.2	SCS215a	20101117.144806	20101117.150254	8	0.013328	60	10	60-180	60	121	GapExp	0	122	2	45	0	distractor	1	480	760	106918	13.328	12.904	13.743
ProbeTrack11	23	ProbeTrack	11.2	SCS215a	20101117.144806	20101117.150301	8	0.013328	60	10	60-180	60	178	GapExp	0	123	2	3	1	target	1	600	700	107618	13.328	13.093	13.566
ProbeTrack11	23	ProbeTrack	11.2	SCS215a	20101117.144806	20101117.150308	8	0.013328	60	0	60-180	60	109	GapExp	0	124	2	0	0	distractor	1	587	707	108325	13.328	13.101	13.551
ProbeTrack11	23	ProbeTrack	11.2	SCS215a	20101117.144806	20101117.150314	8	0.013328	60	10	60-180	60	138	GapExp	0	125	2	3	0	distractor	1	613	694	109019	13.328	13.064	13.580
ProbeTrack11	23	ProbeTrack	11.2	SCS215a	20101117.144806	20101117.150320	8	0.013328	60	10	60-180	60	175	GapExp	0	126	2	45	0	target	0	507	-1000	108019	13.328	13.098	13.552
ProbeTrack11	23	ProbeTrack	11.2	SCS215a	20101117.144806	20101117.150328	8	0.013328	60	10	60-180	60	79	GapExp	0	127	2	45	1	target	1	374	813	108832	13.328	13.308	13.348
ProbeTrack11	23	ProbeTrack	11.2	SCS215a	20101117.144806	20101117.150335	8	0.013328	60	0	60-180	60	167	GapExp	0	128	2	45	0	distractor	1	560	720	109552	13.328	12.895	13.767
ProbeTrack11	23	ProbeTrack	11.2	SCS215a	20101117.144806	20101117.150342	8	0.013328	60	0	60-180	60	165	GapExp	0	129	2	45	1	target	1	454	773	110325	13.328	12.903	13.745
ProbeTrack11	23	ProbeTrack	11.2	SCS215a	20101117.144806	20101117.150351	8	0.013328	60	10	60-180	60	160	GapExp	0	130	2	3	1	target	1	507	747	111072	13.328	13.306	13.346
ProbeTrack11	23	ProbeTrack	11.2	SCS215a	20101117.144806	20101117.150357	8	0.013328	60	10	60-180	60	103	GapExp	0	131	2	45	0	distractor	1	480	760	111832	13.328	12.936	13.713
ProbeTrack11	23	ProbeTrack	11.2	SCS215a	20101117.144806	20101117.150404	8	0.013328	60	0	60-180	60	100	GapExp	0	132	2	1	1	target	1	520	740	112572	13.328	13.308	13.354
ProbeTrack11	23	ProbeTrack	11.2	SCS215a	20101117.144806	20101117.150410	8	0.013328	60	10	60-180	60	122	GapExp	0	133	2	3	1	target	1	574	713	113285	13.328	12.852	13.807
ProbeTrack11	23	ProbeTrack	11.2	SCS215a	20101117.144806	20101117.150416	8	0.013328	60	0	60-180	60	164	GapExp	0	134	2	0	1	target	1	480	760	114045	13.328	13.104	13.553
ProbeTrack11	23	ProbeTrack	11.2	SCS215a	20101117.144806	20101117.150423	8	0.013328	60	0	60-180	60	104	GapExp	0	135	2	1	0	distractor	1	693	654	114699	13.328	13.099	13.545
ProbeTrack11	23	ProbeTrack	11.2	SCS215a	20101117.144806	20101117.150429	8	0.013328	60	10	60-180	60	101	GapExp	0	136	2	1	0	distractor	1	773	614	115313	13.328	13.308	13.346
ProbeTrack11	23	ProbeTrack	11.2	SCS215a	20101117.144806	20101117.150435	8	0.013328	60	0	60-180	60	163	GapExp	0	137	2	1	0	distractor	1	773	614	115927	13.328	13.308	13.344
ProbeTrack11	23	ProbeTrack	11.2	SCS215a	20101117.144806	20101117.150442	8	0.013328	60	0	60-180	60	159	GapExp	0	138	2	3	0	distractor	1	520	740	116667	13.328	13.310	13.346
ProbeTrack11	23	ProbeTrack	11.2	SCS215a	20101117.144806	20101117.150449	8	0.013328	60	0	60-180	60	171	GapExp	0	139	2	0	1	target	1	454	773	117440	13.328	13.106	13.560
ProbeTrack11	23	ProbeTrack	11.2	SCS215a	20101117.144806	20101117.150459	8	0.013328	60	0	60-180	60	90	GapExp	0	140	2	0	0	distractor	1	693	654	118094	13.328	13.086	13.556
ProbeTrack11	23	ProbeTrack	11.2	SCS215a	20101117.144806	20101117.150505	8	0.013328	60	10	60-180	60	138	GapExp	0	141	2	45	1	target	1	467	767	118861	13.328	13.300	13.363
ProbeTrack11	23	ProbeTrack	11.2	SCS215a	20101117.144806	20101117.150512	8	0.013328	60	0	60-180	60	76	GapExp	0	142	2	0	0	target	0	760	-1000	117861	13.328	13.099	13.563
ProbeTrack11	23	ProbeTrack	11.2	SCS215a	20101117.144806	20101117.150519	8	0.013328	60	10	60-180	60	80	GapExp	0	143	2	45	0	distractor	1	653	674	118535	13.328	13.111	13.558
ProbeTrack11	23	ProbeTrack	11.2	SCS215a	20101117.144806	20101117.150527	8	0.013328	60	0	60-180	60	67	GapExp	0	144	2	45	1	target	1	494	753	119288	13.328	13.092	13.551
ProbeTrack11	23	ProbeTrack	11.2	SCS215a	20101117.144806	20101117.150533	8	0.013328	60	0	60-180	60	77	GapExp	0	145	2	3	1	target	1	893	554	119842	13.328	13.112	13.556
ProbeTrack11	23	ProbeTrack	11.2	SCS215a	20101117.144806	20101117.150539	8	0.013328	60	0	60-180	60	139	GapExp	0	146	2	1	1	target	1	427	787	120629	13.328	12.848	13.793
ProbeTrack11	23	ProbeTrack	11.2	SCS215a	20101117.144806	20101117.150545	8	0.013328	60	0	60-180	60	119	GapExp	0	147	2	45	0	distractor	1	760	620	121249	13.328	12.975	13.679
ProbeTrack11	23	ProbeTrack	11.2	SCS215a	20101117.144806	20101117.150553	8	0.013328	60	0	60-180	60	120	GapExp	0	148	2	45	0	distractor	1	867	567	121816	13.328	12.846	13.804
ProbeTrack11	23	ProbeTrack	11.2	SCS215a	20101117.144806	20101117.150600	8	0.013328	60	0	60-180	60	132	GapExp	0	149	2	45	0	distractor	1	560	720	122536	13.328	13.086	13.551
ProbeTrack11	23	ProbeTrack	11.2	SCS215a	20101117.144806	20101117.150607	8	0.013328	60	10	60-180	60	162	GapExp	0	150	2	45	1	distractor	0	627	-1000	121536	13.328	13.092	13.569
ProbeTrack11	23	ProbeTrack	11.2	SCS215a	20101117.144806	20101117.150614	8	0.013328	60	10	60-180	60	150	GapExp	0	151	2	0	1	target	1	400	800	122336	13.328	12.874	13.784
ProbeTrack11	23	ProbeTrack	11.2	SCS215a	20101117.144806	20101117.150621	8	0.013328	60	0	60-180	60	93	GapExp	0	152	2	1	1	target	1	467	767	123103	13.328	12.926	13.747
ProbeTrack11	23	ProbeTrack	11.2	SCS215a	20101117.144806	20101117.150627	8	0.013328	60	0	60-180	60	120	GapExp	0	153	2	0	1	target	1	400	800	123903	13.328	12.878	13.778
ProbeTrack11	23	ProbeTrack	11.2	SCS215a	20101117.144806	20101117.150633	8	0.013328	60	10	60-180	60	154	GapExp	0	154	2	1	1	target	1	400	800	124703	13.328	13.309	13.346
ProbeTrack11	23	ProbeTrack	11.2	SCS215a	20101117.144806	20101117.150640	8	0.013328	60	10	60-180	60	180	GapExp	0	155	2	1	0	distractor	1	600	700	125403	13.328	13.307	13.346
ProbeTrack11	23	ProbeTrack	11.2	SCS215a	20101117.144806	20101117.150648	8	0.013328	60	0	60-180	60	133	GapExp	0	156	2	0	1	target	1	520	740	126143	13.328	13.305	13.345
ProbeTrack11	23	ProbeTrack	11.2	SCS215a	20101117.144806	20101117.150654	8	0.013328	60	10	60-180	60	141	GapExp	0	157	2	3	0	distractor	1	534	733	126876	13.328	13.311	13.348
ProbeTrack11	23	ProbeTrack	11.2	SCS215a	20101117.144806	20101117.150714	8	0.013328	60	0	60-180	60	173	GapExp	0	158	2	3	0	distractor	1	574	713	127589	13.373	12.852	27.013
ProbeTrack11	23	ProbeTrack	11.2	SCS215a	20101117.144806	20101117.150721	8	0.013328	60	10	60-180	60	171	GapExp	0	159	2	0	1	target	1	494	753	128342	13.328	12.864	13.770
ProbeTrack11	23	ProbeTrack	11.2	SCS215a	20101117.144806	20101117.150735	8	0.013328	60	10	60-180	60	78	GapExp	0	160	2	1	0	32	-3	840	-1000	127342	13.328	13.007	13.648
ProbeTrack11	23	ProbeTrack	11.2	SCS215a	20101117.144806	20101117.150741	8	0.013328	60	10	60-180	60	66	GapExp	0	161	2	0	0	target	0	387	-1000	126342	13.328	13.111	13.554
ProbeTrack11	23	ProbeTrack	11.2	SCS215a	20101117.144806	20101117.150746	8	0.013328	60	10	60-180	60	167	GapExp	0	162	2	0	0	distractor	1	613	694	127036	13.328	12.915	13.739
ProbeTrack11	23	ProbeTrack	11.2	SCS215a	20101117.144806	20101117.150754	8	0.013328	60	0	60-180	60	75	GapExp	0	163	2	1	0	distractor	1	653	674	127710	13.328	13.219	13.442
ProbeTrack11	23	ProbeTrack	11.2	SCS215a	20101117.144806	20101117.150759	8	0.013328	60	10	60-180	60	70	GapExp	0	164	2	3	1	target	1	733	634	128344	13.328	13.303	13.349
ProbeTrack11	23	ProbeTrack	11.2	SCS215a	20101117.144806	20101117.150805	8	0.013328	60	10	60-180	60	137	GapExp	0	165	2	1	1	target	1	507	747	129091	13.328	13.098	13.563
ProbeTrack11	23	ProbeTrack	11.2	SCS215a	20101117.144806	20101117.150811	8	0.013328	60	10	60-180	60	173	GapExp	0	166	2	3	1	distractor	0	654	-1000	128091	13.328	12.847	13.808
ProbeTrack11	23	ProbeTrack	11.2	SCS215a	20101117.144806	20101117.150819	8	0.013328	60	10	60-180	60	176	GapExp	0	167	2	3	1	target	1	600	700	128791	13.328	12.871	13.802
ProbeTrack11	23	ProbeTrack	11.2	SCS215a	20101117.144806	20101117.150826	8	0.013328	60	10	60-180	60	137	GapExp	0	168	2	0	0	target	0	574	-1000	127791	13.328	13.309	13.354
ProbeTrack11	23	ProbeTrack	11.2	SCS215a	20101117.144806	20101117.150832	8	0.013328	60	10	60-180	60	72	GapExp	0	169	2	0	1	target	1	427	787	128578	13.328	13.308	13.348
ProbeTrack11	23	ProbeTrack	11.2	SCS215a	20101117.144806	20101117.150838	8	0.013328	60	10	60-180	60	125	GapExp	0	170	2	45	0	distractor	1	640	680	129258	13.328	13.308	13.346
ProbeTrack11	23	ProbeTrack	11.2	SCS215a	20101117.144806	20101117.150845	8	0.013328	60	0	60-180	60	83	GapExp	0	171	2	45	1	target	1	893	554	129812	13.328	13.131	13.512
ProbeTrack11	23	ProbeTrack	11.2	SCS215a	20101117.144806	20101117.150852	8	0.013328	60	0	60-180	60	69	GapExp	0	172	2	1	0	32	-3	2439	-1000	128812	13.328	13.308	13.345
ProbeTrack11	23	ProbeTrack	11.2	SCS215a	20101117.144806	20101117.150859	8	0.013328	60	0	60-180	60	142	GapExp	0	173	2	0	1	target	1	507	747	129559	13.328	12.892	13.777
ProbeTrack11	23	ProbeTrack	11.2	SCS215a	20101117.144806	20101117.150905	8	0.013328	60	0	60-180	60	61	GapExp	0	174	2	45	1	target	1	467	767	130326	13.328	12.957	13.704
ProbeTrack11	23	ProbeTrack	11.2	SCS215a	20101117.144806	20101117.150912	8	0.013328	60	10	60-180	60	135	GapExp	0	175	2	0	0	distractor	1	760	620	130946	13.328	12.890	13.748
ProbeTrack11	23	ProbeTrack	11.2	SCS215a	20101117.144806	20101117.150918	8	0.013328	60	10	60-180	60	169	GapExp	0	176	2	0	0	distractor	1	773	614	131560	13.328	13.112	13.555
ProbeTrack11	23	ProbeTrack	11.2	SCS215a	20101117.144806	20101117.150926	8	0.013328	60	10	60-180	60	72	GapExp	0	177	2	45	0	target	0	800	-1000	130560	13.328	13.099	13.572
ProbeTrack11	23	ProbeTrack	11.2	SCS215a	20101117.144806	20101117.150932	8	0.013328	60	0	60-180	60	140	GapExp	0	178	2	0	1	target	1	440	780	131340	13.328	12.912	13.749
ProbeTrack11	23	ProbeTrack	11.2	SCS215a	20101117.144806	20101117.150939	8	0.013328	60	0	60-180	60	135	GapExp	0	179	2	0	0	distractor	1	560	720	132060	13.328	12.940	13.711
ProbeTrack11	23	ProbeTrack	11.2	SCS215a	20101117.144806	20101117.150945	8	0.013328	60	0	60-180	60	101	GapExp	0	180	2	1	1	target	1	1173	414	132474	13.328	12.915	13.746
ProbeTrack11	23	ProbeTrack	11.2	SCS215a	20101117.144806	20101117.150952	8	0.013328	60	10	60-180	60	95	GapExp	0	181	2	45	1	target	1	454	773	133247	13.328	13.100	13.555
ProbeTrack11	23	ProbeTrack	11.2	SCS215a	20101117.144806	20101117.150958	8	0.013328	60	10	60-180	60	106	GapExp	0	182	2	0	0	target	0	454	-1000	132247	13.328	12.859	13.806
ProbeTrack11	23	ProbeTrack	11.2	SCS215a	20101117.144806	20101117.151004	8	0.013328	60	0	60-180	60	87	GapExp	0	183	2	1	1	target	1	440	780	133027	13.328	12.927	13.736
ProbeTrack11	23	ProbeTrack	11.2	SCS215a	20101117.144806	20101117.151010	8	0.013328	60	0	60-180	60	105	GapExp	0	184	2	3	1	target	1	653	674	133701	13.328	12.863	13.809
ProbeTrack11	23	ProbeTrack	11.2	SCS215a	20101117.144806	20101117.151018	8	0.013328	60	10	60-180	60	175	GapExp	0	185	2	1	0	target	0	347	-1000	132701	13.328	13.308	13.348
ProbeTrack11	23	ProbeTrack	11.2	SCS215a	20101117.144806	20101117.151024	8	0.013328	60	0	60-180	60	96	GapExp	0	186	2	45	1	target	1	547	727	133428	13.328	13.308	13.348
ProbeTrack11	23	ProbeTrack	11.2	SCS215a	20101117.144806	20101117.151031	8	0.013328	60	10	60-180	60	136	GapExp	0	187	2	3	1	target	1	547	727	134155	13.328	12.899	13.756
ProbeTrack11	23	ProbeTrack	11.2	SCS215a	20101117.144806	20101117.151038	8	0.013328	60	10	60-180	60	165	GapExp	0	188	2	0	0	target	0	1307	-1000	133155	13.328	13.307	13.345
ProbeTrack11	23	ProbeTrack	11.2	SCS215a	20101117.144806	20101117.151045	8	0.013328	60	10	60-180	60	69	GapExp	0	189	2	0	0	distractor	1	640	680	133835	13.328	12.956	13.699
ProbeTrack11	23	ProbeTrack	11.2	SCS215a	20101117.144806	20101117.151051	8	0.013328	60	0	60-180	60	100	GapExp	0	190	2	45	1	target	1	574	713	134548	13.328	12.961	13.689
ProbeTrack11	23	ProbeTrack	11.2	SCS215a	20101117.144806	20101117.151058	8	0.013328	60	10	60-180	60	104	GapExp	0	191	2	3	0	distractor	1	760	620	135168	13.328	13.309	13.360
ProbeTrack11	23	ProbeTrack	11.2	SCS215a	20101117.144806	20101117.151104	8	0.013328	60	10	60-180	60	98	GapExp	0	192	2	45	0	target	0	547	-1000	134168	13.328	13.097	13.564
ProbeTrack11	23	ProbeTrack	11.2	SCS215a	20101117.144806	20101117.151111	8	0.013328	60	10	60-180	60	71	GapExp	0	193	2	3	0	distractor	1	493	754	134922	13.328	13.112	13.556
ProbeTrack11	23	ProbeTrack	11.2	SCS215a	20101117.144806	20101117.151116	8	0.013328	60	0	60-180	60	95	GapExp	0	194	2	45	1	target	1	653	674	135596	13.328	12.887	13.761
ProbeTrack11	23	ProbeTrack	11.2	SCS215a	20101117.144806	20101117.151123	8	0.013328	60	0	60-180	60	163	GapExp	0	195	2	1	0	distractor	1	840	580	136176	13.328	13.100	13.562
ProbeTrack11	23	ProbeTrack	11.2	SCS215a	20101117.144806	20101117.151132	8	0.013328	60	10	60-180	60	84	GapExp	0	196	2	3	1	target	1	680	660	136836	13.328	13.096	13.565
ProbeTrack11	23	ProbeTrack	11.2	SCS215a	20101117.144806	20101117.151138	8	0.013328	60	0	60-180	60	119	GapExp	0	197	2	1	0	target	0	640	-1000	135836	13.328	13.107	13.549
ProbeTrack11	23	ProbeTrack	11.2	SCS215a	20101117.144806	20101117.151145	8	0.013328	60	10	60-180	60	165	GapExp	0	198	2	45	0	target	0	440	-1000	134836	13.328	13.189	13.462
ProbeTrack11	23	ProbeTrack	11.2	SCS215a	20101117.144806	20101117.151152	8	0.013328	60	10	60-180	60	176	GapExp	0	199	2	1	1	target	1	334	833	135669	13.328	13.311	13.346
ProbeTrack11	23	ProbeTrack	11.2	SCS215a	20101117.144806	20101117.151200	8	0.013328	60	0	60-180	60	85	GapExp	0	200	2	3	1	target	1	840	580	136249	13.328	12.853	13.787
ProbeTrack11	23	ProbeTrack	11.2	SCS215a	20101117.144806	20101117.151207	8	0.013328	60	10	60-180	60	174	GapExp	0	201	2	3	1	target	1	573	714	136963	13.328	12.845	13.825
ProbeTrack11	23	ProbeTrack	11.2	SCS215a	20101117.144806	20101117.151214	8	0.013328	60	0	60-180	60	65	GapExp	0	202	2	3	0	32	-3	3332	-1000	135963	13.328	13.100	13.542
ProbeTrack11	23	ProbeTrack	11.2	SCS215a	20101117.144806	20101117.151222	8	0.013328	60	0	60-180	60	135	GapExp	0	203	2	1	1	target	1	760	620	136583	13.328	12.984	13.676
ProbeTrack11	23	ProbeTrack	11.2	SCS215a	20101117.144806	20101117.151229	8	0.013328	60	0	60-180	60	94	GapExp	0	204	2	3	0	distractor	1	574	713	137296	13.328	13.309	13.349
ProbeTrack11	23	ProbeTrack	11.2	SCS215a	20101117.144806	20101117.151236	8	0.013328	60	10	60-180	60	80	GapExp	0	205	2	0	0	target	0	573	-1000	136296	13.328	13.097	13.560
ProbeTrack11	23	ProbeTrack	11.2	SCS215a	20101117.144806	20101117.151247	8	0.013328	60	10	60-180	60	96	GapExp	0	206	2	1	0	distractor	1	560	720	137016	13.328	12.865	13.785
ProbeTrack11	23	ProbeTrack	11.2	SCS215a	20101117.144806	20101117.151253	8	0.013328	60	10	60-180	60	101	GapExp	0	207	2	45	1	target	1	587	707	137723	13.328	13.309	13.349
ProbeTrack11	23	ProbeTrack	11.2	SCS215a	20101117.144806	20101117.151300	8	0.013328	60	0	60-180	60	122	GapExp	0	208	2	1	1	32	-3	2053	-1000	136723	13.328	13.305	13.346
ProbeTrack11	23	ProbeTrack	11.2	SCS215a	20101117.144806	20101117.151312	8	0.013328	60	0	60-180	60	151	GapExp	0	209	2	0	1	target	1	587	707	137430	13.328	12.987	13.676
ProbeTrack11	23	ProbeTrack	11.2	SCS215a	20101117.144806	20101117.151319	8	0.013328	60	10	60-180	60	73	GapExp	0	210	2	0	1	target	1	960	520	137950	13.328	13.101	13.560
ProbeTrack11	23	ProbeTrack	11.2	SCS215a	20101117.144806	20101117.151329	8	0.013328	60	0	60-180	60	89	GapExp	0	211	2	45	0	distractor	1	667	667	138617	13.328	13.104	13.542
ProbeTrack11	23	ProbeTrack	11.2	SCS215a	20101117.144806	20101117.151336	8	0.013328	60	0	60-180	60	78	GapExp	0	212	2	0	0	target	0	627	-1000	137617	13.328	13.312	13.344
ProbeTrack11	23	ProbeTrack	11.2	SCS215a	20101117.144806	20101117.151347	8	0.013328	60	0	60-180	60	112	GapExp	0	213	2	45	0	distractor	1	507	747	138364	13.328	13.105	13.538
ProbeTrack11	23	ProbeTrack	11.2	SCS215a	20101117.144806	20101117.151521	8	0.013328	60	10	60-180	60	156	GapExp	0	214	2	1	0	distractor	1	387	807	139171	13.328	13.084	13.565
ProbeTrack11	23	ProbeTrack	11.2	SCS215a	20101117.144806	20101117.151528	8	0.013328	60	0	60-180	60	72	GapExp	0	215	2	0	0	distractor	1	547	727	139898	13.328	13.011	13.638
ProbeTrack11	23	ProbeTrack	11.2	SCS215a	20101117.144806	20101117.151533	8	0.013328	60	10	60-180	60	147	GapExp	0	216	2	1	0	target	0	414	-1000	138898	13.328	13.309	13.356
ProbeTrack11	23	ProbeTrack	11.2	SCS215a	20101117.144806	20101117.151540	8	0.013328	60	0	60-180	60	94	GapExp	0	217	2	45	1	target	1	374	813	139711	13.328	13.189	13.455
ProbeTrack11	23	ProbeTrack	11.2	SCS215a	20101117.144806	20101117.151546	8	0.013328	60	10	60-180	60	158	GapExp	0	218	2	0	1	target	1	520	740	140451	13.328	13.307	13.344
ProbeTrack11	23	ProbeTrack	11.2	SCS215a	20101117.144806	20101117.151553	8	0.013328	60	0	60-180	60	91	GapExp	0	219	2	3	0	distractor	1	574	713	141164	13.328	13.307	13.347
ProbeTrack11	23	ProbeTrack	11.2	SCS215a	20101117.144806	20101117.151559	8	0.013328	60	0	60-180	60	120	GapExp	0	220	2	45	1	target	1	400	800	141964	13.328	13.308	13.347
ProbeTrack11	23	ProbeTrack	11.2	SCS215a	20101117.144806	20101117.151606	8	0.013328	60	10	60-180	60	86	GapExp	0	221	2	3	1	target	1	720	640	142604	13.328	13.309	13.347
ProbeTrack11	23	ProbeTrack	11.2	SCS215a	20101117.144806	20101117.151613	8	0.013328	60	0	60-180	60	162	GapExp	0	222	2	1	1	distractor	0	320	-1000	141604	13.328	13.305	13.356
ProbeTrack11	23	ProbeTrack	11.2	SCS215a	20101117.144806	20101117.151619	8	0.013328	60	10	60-180	60	90	GapExp	0	223	2	0	0	distractor	1	440	780	142384	13.328	13.308	13.348
ProbeTrack11	23	ProbeTrack	11.2	SCS215a	20101117.144806	20101117.151625	8	0.013328	60	10	60-180	60	122	GapExp	0	224	2	0	0	target	0	813	-1000	141384	13.328	13.100	13.563
ProbeTrack11	23	ProbeTrack	11.2	SCS215a	20101117.144806	20101117.151632	8	0.013328	60	10	60-180	60	146	GapExp	0	225	2	1	0	distractor	1	693	654	142038	13.328	12.991	13.661
ProbeTrack11	23	ProbeTrack	11.2	SCS215a	20101117.144806	20101117.151639	8	0.013328	60	0	60-180	60	146	GapExp	0	226	2	45	0	distractor	1	733	634	142672	13.328	13.071	13.593
ProbeTrack11	23	ProbeTrack	11.2	SCS215a	20101117.144806	20101117.151646	8	0.013328	60	0	60-180	60	112	GapExp	0	227	2	45	0	distractor	1	520	740	143412	13.328	13.302	13.346
ProbeTrack11	23	ProbeTrack	11.2	SCS215a	20101117.144806	20101117.151653	8	0.013328	60	10	60-180	60	71	GapExp	0	228	2	0	0	distractor	1	747	627	144039	13.328	13.092	13.565
ProbeTrack11	23	ProbeTrack	11.2	SCS215a	20101117.144806	20101117.151659	8	0.013328	60	0	60-180	60	91	GapExp	0	229	2	1	0	target	0	560	-1000	143039	13.328	13.105	13.557
ProbeTrack11	23	ProbeTrack	11.2	SCS215a	20101117.144806	20101117.151705	8	0.013328	60	0	60-180	60	132	GapExp	0	230	2	0	1	target	1	400	800	143839	13.328	13.309	13.346
ProbeTrack11	23	ProbeTrack	11.2	SCS215a	20101117.144806	20101117.151711	8	0.013328	60	10	60-180	60	82	GapExp	0	231	2	3	0	distractor	1	467	767	144606	13.328	13.309	13.348
ProbeTrack11	23	ProbeTrack	11.2	SCS215a	20101117.144806	20101117.151717	8	0.013328	60	10	60-180	60	156	GapExp	0	232	2	0	1	target	1	574	713	145319	13.328	12.929	13.732
ProbeTrack11	23	ProbeTrack	11.2	SCS215a	20101117.144806	20101117.151724	8	0.013328	60	0	60-180	60	165	GapExp	0	233	2	1	0	target	0	454	-1000	144319	13.328	12.991	13.663
ProbeTrack11	23	ProbeTrack	11.2	SCS215a	20101117.144806	20101117.151731	8	0.013328	60	0	60-180	60	150	GapExp	0	234	2	1	1	target	1	600	700	145019	13.328	13.303	13.348
ProbeTrack11	23	ProbeTrack	11.2	SCS215a	20101117.144806	20101117.151739	8	0.013328	60	10	60-180	60	141	GapExp	0	235	2	3	0	distractor	1	587	707	145726	13.328	13.307	13.351
ProbeTrack11	23	ProbeTrack	11.2	SCS215a	20101117.144806	20101117.151745	8	0.013328	60	10	60-180	60	62	GapExp	0	236	2	1	0	32	-3	1826	-1000	144726	13.328	13.311	13.345
ProbeTrack11	23	ProbeTrack	11.2	SCS215a	20101117.144806	20101117.151752	8	0.013328	60	0	60-180	60	161	GapExp	0	237	2	45	1	target	1	467	767	145493	13.328	13.309	13.350
ProbeTrack11	23	ProbeTrack	11.2	SCS215a	20101117.144806	20101117.151759	8	0.013328	60	0	60-180	60	99	GapExp	0	238	2	3	0	distractor	1	640	680	146173	13.328	13.308	13.345
ProbeTrack11	23	ProbeTrack	11.2	SCS215a	20101117.144806	20101117.151806	8	0.013328	60	0	60-180	60	115	GapExp	0	239	2	45	0	distractor	1	574	713	146886	13.328	12.957	13.694
ProbeTrack11	23	ProbeTrack	11.2	SCS215a	20101117.144806	20101117.151813	8	0.013328	60	0	60-180	60	118	GapExp	0	240	2	0	0	target	0	3439	-1000	145886	13.328	13.310	13.345
ProbeTrack11	23	ProbeTrack	11.2	SCS215a	20101117.144806	20101117.151822	8	0.013328	60	0	60-180	60	135	GapExp	0	241	2	45	0	distractor	1	467	767	146653	13.328	12.877	13.782
ProbeTrack11	23	ProbeTrack	11.2	SCS215a	20101117.144806	20101117.151829	8	0.013328	60	10	60-180	60	156	GapExp	0	242	2	1	1	target	1	534	733	147386	13.328	13.009	13.643
ProbeTrack11	23	ProbeTrack	11.2	SCS215a	20101117.144806	20101117.151836	8	0.013328	60	0	60-180	60	64	GapExp	0	243	2	3	0	32	-3	2026	-1000	146386	13.328	12.868	13.797
ProbeTrack11	23	ProbeTrack	11.2	SCS215a	20101117.144806	20101117.151843	8	0.013328	60	10	60-180	60	167	GapExp	0	244	2	3	0	target	0	387	-1000	145386	13.329	13.307	13.551
ProbeTrack11	23	ProbeTrack	11.2	SCS215a	20101117.144806	20101117.151850	8	0.013328	60	0	60-180	60	133	GapExp	0	245	2	3	0	distractor	1	573	714	146100	13.328	13.312	13.348
ProbeTrack11	23	ProbeTrack	11.2	SCS215a	20101117.144806	20101117.151856	8	0.013328	60	0	60-180	60	111	GapExp	0	246	2	0	1	target	1	2613	0	146100	13.328	12.906	13.751
ProbeTrack11	23	ProbeTrack	11.2	SCS215a	20101117.144806	20101117.151904	8	0.013328	60	0	60-180	60	128	GapExp	0	247	2	1	0	target	0	680	-1000	145100	13.328	12.996	13.646
ProbeTrack11	23	ProbeTrack	11.2	SCS215a	20101117.144806	20101117.151911	8	0.013328	60	0	60-180	60	165	GapExp	0	248	2	45	0	distractor	1	427	787	145887	13.328	12.944	13.714
ProbeTrack11	23	ProbeTrack	11.2	SCS215a	20101117.144806	20101117.151918	8	0.013328	60	10	60-180	60	136	GapExp	0	249	2	1	0	distractor	1	907	547	146434	13.328	13.098	13.552
ProbeTrack11	23	ProbeTrack	11.2	SCS215a	20101117.144806	20101117.151925	8	0.013328	60	0	60-180	60	119	GapExp	0	250	2	1	1	target	1	2546	0	146434	13.328	13.307	13.347
ProbeTrack11	23	ProbeTrack	11.2	SCS215a	20101117.144806	20101117.151933	8	0.013328	60	10	60-180	60	128	GapExp	0	251	2	1	0	distractor	1	480	760	147194	13.328	13.307	13.347
ProbeTrack11	23	ProbeTrack	11.2	SCS215a	20101117.144806	20101117.151939	8	0.013328	60	10	60-180	60	178	GapExp	0	252	2	1	1	target	1	494	753	147947	13.328	13.096	13.571
ProbeTrack11	23	ProbeTrack	11.2	SCS215a	20101117.144806	20101117.151946	8	0.013328	60	10	60-180	60	110	GapExp	0	253	2	0	1	target	1	2293	0	147947	13.328	13.100	13.563
ProbeTrack11	23	ProbeTrack	11.2	SCS215a	20101117.144806	20101117.151954	8	0.013328	60	0	60-180	60	134	GapExp	0	254	2	45	1	target	1	787	607	148554	13.328	13.102	13.560
ProbeTrack11	23	ProbeTrack	11.2	SCS215a	20101117.144806	20101117.152002	8	0.013328	60	0	60-180	60	67	GapExp	0	255	2	3	1	target	1	1440	280	148834	13.328	13.103	13.558
ProbeTrack11	23	ProbeTrack	11.2	SCS215a	20101117.144806	20101117.152008	8	0.013328	60	10	60-180	60	67	GapExp	0	256	2	0	0	target	0	693	-1000	147834	13.328	13.309	13.346
ProbeTrack11	23	ProbeTrack	11.2	SCS215a	20101117.144806	20101117.152015	8	0.013328	60	10	60-180	60	171	GapExp	0	257	2	45	0	distractor	1	587	707	148541	13.328	13.101	13.560
ProbeTrack11	23	ProbeTrack	11.2	SCS215a	20101117.144806	20101117.152022	8	0.013328	60	0	60-180	60	167	GapExp	0	258	2	3	0	target	0	360	-1000	147541	13.328	12.988	13.668
ProbeTrack11	23	ProbeTrack	11.2	SCS215a	20101117.144806	20101117.152029	8	0.013328	60	0	60-180	60	88	GapExp	0	259	2	3	1	target	1	986	507	148048	13.328	12.858	13.805
ProbeTrack11	23	ProbeTrack	11.2	SCS215a	20101117.144806	20101117.152036	8	0.013328	60	10	60-180	60	156	GapExp	0	260	2	0	0	target	0	454	-1000	147048	13.328	12.976	13.674
ProbeTrack11	23	ProbeTrack	11.2	SCS215a	20101117.144806	20101117.152042	8	0.013328	60	10	60-180	60	126	GapExp	0	261	2	0	1	target	1	480	760	147808	13.328	13.099	13.557
ProbeTrack11	23	ProbeTrack	11.2	SCS215a	20101117.144806	20101117.152050	8	0.013328	60	10	60-180	60	178	GapExp	0	262	2	3	0	distractor	1	334	833	148641	13.328	13.110	13.546
ProbeTrack11	23	ProbeTrack	11.2	SCS215a	20101117.144806	20101117.152057	8	0.013328	60	0	60-180	60	161	GapExp	0	263	2	3	1	distractor	0	534	-1000	147641	13.328	13.002	13.668
ProbeTrack11	23	ProbeTrack	11.2	SCS215a	20101117.144806	20101117.152104	8	0.013328	60	0	60-180	60	148	GapExp	0	264	2	0	0	distractor	1	627	687	148328	13.328	12.910	13.744
ProbeTrack11	23	ProbeTrack	11.2	SCS215a	20101117.144806	20101117.152111	8	0.013328	60	0	60-180	60	121	GapExp	0	265	2	45	0	distractor	1	414	793	149121	13.328	13.226	13.544
ProbeTrack11	23	ProbeTrack	11.2	SCS215a	20101117.144806	20101117.152118	8	0.013328	60	10	60-180	60	64	GapExp	0	266	2	3	1	target	1	720	640	149761	13.328	12.906	13.765
ProbeTrack11	23	ProbeTrack	11.2	SCS215a	20101117.144806	20101117.152124	8	0.013328	60	0	60-180	60	107	GapExp	0	267	2	1	1	distractor	0	467	-1000	148761	13.328	13.220	13.433
ProbeTrack11	23	ProbeTrack	11.2	SCS215a	20101117.144806	20101117.152129	8	0.013328	60	10	60-180	60	94	GapExp	0	268	2	0	0	distractor	1	707	647	149408	13.328	13.307	13.347
ProbeTrack11	23	ProbeTrack	11.2	SCS215a	20101117.144806	20101117.152136	8	0.013328	60	0	60-180	60	68	GapExp	0	269	2	1	1	target	1	547	727	150135	13.328	13.309	13.347
ProbeTrack11	23	ProbeTrack	11.2	SCS215a	20101117.144806	20101117.152141	8	0.013328	60	0	60-180	60	104	GapExp	0	270	2	3	1	target	1	507	747	150882	13.328	13.095	13.563
ProbeTrack11	23	ProbeTrack	11.2	SCS215a	20101117.144806	20101117.152147	8	0.013328	60	0	60-180	60	124	GapExp	0	271	2	1	0	distractor	1	480	760	151642	13.328	13.209	13.445
ProbeTrack11	23	ProbeTrack	11.2	SCS215a	20101117.144806	20101117.152154	8	0.013328	60	0	60-180	60	61	GapExp	0	272	2	45	1	target	1	1626	187	151829	13.328	13.086	13.569
ProbeTrack11	23	ProbeTrack	11.2	SCS215a	20101117.144806	20101117.152200	8	0.013328	60	0	60-180	60	122	GapExp	0	273	2	1	1	target	1	507	747	152576	13.328	12.899	13.743
ProbeTrack11	23	ProbeTrack	11.2	SCS215a	20101117.144806	20101117.152207	8	0.013328	60	10	60-180	60	126	GapExp	0	274	2	0	0	target	0	1346	-1000	151576	13.377	13.018	26.968
ProbeTrack11	23	ProbeTrack	11.2	SCS215a	20101117.144806	20101117.152214	8	0.013328	60	10	60-180	60	75	GapExp	0	275	2	0	1	target	1	467	767	152343	13.328	13.111	13.535
ProbeTrack11	23	ProbeTrack	11.2	SCS215a	20101117.144806	20101117.152220	8	0.013328	60	10	60-180	60	177	GapExp	0	276	2	1	0	distractor	1	560	720	153063	13.328	12.893	13.762
ProbeTrack11	23	ProbeTrack	11.2	SCS215a	20101117.144806	20101117.152227	8	0.013328	60	10	60-180	60	141	GapExp	0	277	2	45	0	distractor	1	387	807	153870	13.328	13.309	13.351
ProbeTrack11	23	ProbeTrack	11.2	SCS215a	20101117.144806	20101117.152233	8	0.013328	60	0	60-180	60	164	GapExp	0	278	2	3	0	distractor	1	520	740	154610	13.328	12.925	13.767
ProbeTrack11	23	ProbeTrack	11.2	SCS215a	20101117.144806	20101117.152241	8	0.013328	60	10	60-180	60	148	GapExp	0	279	2	0	1	target	1	414	793	155403	13.328	13.304	13.353
ProbeTrack11	23	ProbeTrack	11.2	SCS215a	20101117.144806	20101117.152247	8	0.013328	60	10	60-180	60	98	GapExp	0	280	2	45	1	target	1	494	753	156156	13.378	12.900	26.972
ProbeTrack11	23	ProbeTrack	11.2	SCS215a	20101117.144806	20101117.152254	8	0.013328	60	0	60-180	60	148	GapExp	0	281	2	0	0	distractor	1	653	674	156830	13.328	13.300	13.351
ProbeTrack11	23	ProbeTrack	11.2	SCS215a	20101117.144806	20101117.152300	8	0.013328	60	10	60-180	60	130	GapExp	0	282	2	0	1	target	1	428	786	157616	13.328	12.976	13.691
ProbeTrack11	23	ProbeTrack	11.2	SCS215a	20101117.144806	20101117.152306	8	0.013328	60	10	60-180	60	171	GapExp	0	283	2	1	1	distractor	0	867	-1000	156616	13.328	12.865	13.786
ProbeTrack11	23	ProbeTrack	11.2	SCS215a	20101117.144806	20101117.152313	8	0.013328	60	10	60-180	60	62	GapExp	0	284	2	1	1	target	1	414	793	157409	13.401	13.134	26.857
ProbeTrack11	23	ProbeTrack	11.2	SCS215a	20101117.144806	20101117.152319	8	0.013328	60	0	60-180	60	95	GapExp	0	285	2	3	1	target	1	1133	434	157843	13.328	13.059	13.772
ProbeTrack11	23	ProbeTrack	11.2	SCS215a	20101117.144806	20101117.152325	8	0.013328	60	0	60-180	60	91	GapExp	0	286	2	0	1	target	1	454	773	158616	13.328	12.866	13.807
ProbeTrack11	23	ProbeTrack	11.2	SCS215a	20101117.144806	20101117.152330	8	0.013328	60	10	60-180	60	92	GapExp	0	287	2	0	1	target	1	853	574	159190	13.328	12.916	13.749
ProbeTrack11	23	ProbeTrack	11.2	SCS215a	20101117.144806	20101117.152337	8	0.013328	60	0	60-180	60	102	GapExp	0	288	2	1	0	target	0	960	-1000	158190	13.328	13.283	13.363
ProbeTrack11	23	ProbeTrack	11.2	SCS215a	20101117.144806	20101117.152343	8	0.013328	60	0	60-180	60	146	GapExp	0	289	2	45	1	target	1	400	800	158990	13.328	13.024	13.636
ProbeTrack11	23	ProbeTrack	11.2	SCS215a	20101117.144806	20101117.152350	8	0.013328	60	0	60-180	60	151	GapExp	0	290	2	0	1	target	1	400	800	159790	13.328	13.296	13.360
ProbeTrack11	23	ProbeTrack	11.2	SCS215a	20101117.144806	20101117.152357	8	0.013328	60	10	60-180	60	143	GapExp	0	291	2	45	0	distractor	1	613	694	160484	13.328	13.308	13.346
ProbeTrack11	23	ProbeTrack	11.2	SCS215a	20101117.144806	20101117.152404	8	0.013328	60	0	60-180	60	169	GapExp	0	292	2	0	1	target	1	1173	414	160898	13.328	13.307	13.347
ProbeTrack11	23	ProbeTrack	11.2	SCS215a	20101117.144806	20101117.152412	8	0.013328	60	10	60-180	60	137	GapExp	0	293	2	45	1	target	1	427	787	161685	13.328	12.851	13.820
ProbeTrack11	23	ProbeTrack	11.2	SCS215a	20101117.144806	20101117.152418	8	0.013328	60	10	60-180	60	153	GapExp	0	294	2	1	1	target	1	840	580	162265	13.328	12.872	13.790
ProbeTrack11	23	ProbeTrack	11.2	SCS215a	20101117.144806	20101117.152425	8	0.013328	60	0	60-180	60	111	GapExp	0	295	2	45	1	target	1	1200	400	162665	13.328	12.983	13.668
ProbeTrack11	23	ProbeTrack	11.2	SCS215a	20101117.144806	20101117.152433	8	0.013328	60	10	60-180	60	118	GapExp	0	296	2	45	1	target	1	347	827	163492	13.328	13.308	13.346
ProbeTrack11	23	ProbeTrack	11.2	SCS215a	20101117.144806	20101117.152439	8	0.013328	60	0	60-180	60	77	GapExp	0	297	2	0	0	target	0	720	-1000	162492	13.328	13.309	13.346
ProbeTrack11	23	ProbeTrack	11.2	SCS215a	20101117.144806	20101117.152445	8	0.013328	60	10	60-180	60	148	GapExp	0	298	2	1	1	target	1	560	720	163212	13.328	13.047	13.626
ProbeTrack11	23	ProbeTrack	11.2	SCS215a	20101117.144806	20101117.152455	8	0.013328	60	10	60-180	60	106	GapExp	0	299	2	3	0	distractor	1	440	780	163992	13.328	13.041	13.613
ProbeTrack11	23	ProbeTrack	11.2	SCS215a	20101117.144806	20101117.152501	8	0.013328	60	0	60-180	60	168	GapExp	0	300	2	3	0	distractor	1	480	760	164752	13.328	12.857	13.812
ProbeTrack11	23	ProbeTrack	11.2	SCS215a	20101117.144806	20101117.152508	8	0.013328	60	0	60-180	60	123	GapExp	0	301	2	3	1	target	1	387	807	165559	13.328	13.309	13.347
ProbeTrack11	23	ProbeTrack	11.2	SCS215a	20101117.144806	20101117.152514	8	0.013328	60	10	60-180	60	142	GapExp	0	302	2	0	0	distractor	1	400	800	166359	13.328	13.307	13.345
ProbeTrack11	23	ProbeTrack	11.2	SCS215a	20101117.144806	20101117.152520	8	0.013328	60	10	60-180	60	106	GapExp	0	303	2	1	1	distractor	0	494	-1000	165359	13.328	13.308	13.357
ProbeTrack11	23	ProbeTrack	11.2	SCS215a	20101117.144806	20101117.152526	8	0.013328	60	0	60-180	60	73	GapExp	0	304	2	1	1	target	1	760	620	165979	13.328	13.288	13.362
ProbeTrack11	23	ProbeTrack	11.2	SCS215a	20101117.144806	20101117.152532	8	0.013328	60	10	60-180	60	148	GapExp	0	305	2	0	0	distractor	1	494	753	166732	13.328	12.891	13.760
ProbeTrack11	23	ProbeTrack	11.2	SCS215a	20101117.144806	20101117.152540	8	0.013328	60	0	60-180	60	111	GapExp	0	306	2	1	1	target	1	587	707	167439	13.328	13.303	13.348
ProbeTrack11	23	ProbeTrack	11.2	SCS215a	20101117.144806	20101117.152546	8	0.013328	60	0	60-180	60	96	GapExp	0	307	2	0	1	target	1	427	787	168226	13.328	13.037	13.607
ProbeTrack11	23	ProbeTrack	11.2	SCS215a	20101117.144806	20101117.152553	8	0.013328	60	10	60-180	60	171	GapExp	0	308	2	45	0	distractor	1	613	694	168920	13.328	12.930	13.713
ProbeTrack11	23	ProbeTrack	11.2	SCS215a	20101117.144806	20101117.152601	8	0.013328	60	0	60-180	60	130	GapExp	0	309	2	3	0	target	0	1986	-1000	167920	13.328	13.308	13.346
ProbeTrack11	23	ProbeTrack	11.2	SCS215a	20101117.144806	20101117.152609	8	0.013328	60	0	60-180	60	135	GapExp	0	310	2	45	1	target	1	334	833	168753	13.328	13.105	13.546
ProbeTrack11	23	ProbeTrack	11.2	SCS215a	20101117.144806	20101117.152616	8	0.013328	60	10	60-180	60	154	GapExp	0	311	2	45	1	target	1	347	827	169580	13.328	12.932	13.717
ProbeTrack11	23	ProbeTrack	11.2	SCS215a	20101117.144806	20101117.152623	8	0.013328	60	0	60-180	60	104	GapExp	0	312	2	1	0	distractor	1	520	740	170320	13.328	13.288	13.352
ProbeTrack11	23	ProbeTrack	11.2	SCS215a	20101117.144806	20101117.152629	8	0.013328	60	10	60-180	60	89	GapExp	0	313	2	1	0	target	0	414	-1000	169320	13.328	13.306	13.347
ProbeTrack11	23	ProbeTrack	11.2	SCS215a	20101117.144806	20101117.152635	8	0.013328	60	0	60-180	60	133	GapExp	0	314	2	3	0	distractor	1	454	773	170093	13.328	13.104	13.566
ProbeTrack11	23	ProbeTrack	11.2	SCS215a	20101117.144806	20101117.152641	8	0.013328	60	10	60-180	60	110	GapExp	0	315	2	0	0	distractor	1	360	820	170913	13.328	13.032	13.620
ProbeTrack11	23	ProbeTrack	11.2	SCS215a	20101117.144806	20101117.152646	8	0.013328	60	10	60-180	60	176	GapExp	0	316	2	0	1	target	1	360	820	171733	13.328	13.097	13.446
ProbeTrack11	23	ProbeTrack	11.2	SCS215a	20101117.144806	20101117.152653	8	0.013328	60	10	60-180	60	62	GapExp	0	317	2	45	0	distractor	1	414	793	172526	13.328	12.896	13.758
ProbeTrack11	23	ProbeTrack	11.2	SCS215a	20101117.144806	20101117.152659	8	0.013328	60	10	60-180	60	84	GapExp	0	318	2	3	0	distractor	1	320	840	173366	13.328	13.306	13.349
ProbeTrack11	23	ProbeTrack	11.2	SCS215a	20101117.144806	20101117.152704	8	0.013328	60	10	60-180	60	134	GapExp	0	319	2	1	1	distractor	0	374	-1000	172366	13.328	13.312	13.344
ProbeTrack11	23	ProbeTrack	11.2	SCS215a	20101117.144806	20101117.152711	8	0.013328	60	0	60-180	60	93	GapExp	0	320	2	45	0	distractor	1	613	694	173060	13.328	13.077	13.546
ProbeTrack11	23	ProbeTrack	11.2	SCS215a	20101117.144806	20101117.152717	8	0.013328	60	0	60-180	60	134	GapExp	0	321	2	0	1	target	1	360	820	173880	13.328	13.078	13.580
ProbeTrack11	23	ProbeTrack	11.2	SCS215a	20101117.144806	20101117.152723	8	0.013328	60	0	60-180	60	171	GapExp	0	322	2	0	0	distractor	1	454	773	174653	13.328	13.099	13.556
ProbeTrack11	23	ProbeTrack	11.2	SCS215a	20101117.144806	20101117.152729	8	0.013328	60	0	60-180	60	106	GapExp	0	323	2	3	0	distractor	1	427	787	175440	13.328	12.992	13.669
ProbeTrack11	23	ProbeTrack	11.2	SCS215a	20101117.144806	20101117.152735	8	0.013328	60	0	60-180	60	66	GapExp	0	324	2	3	0	distractor	1	467	767	176207	13.328	13.308	13.346
ProbeTrack11	23	ProbeTrack	11.2	SCS215a	20101117.144806	20101117.152740	8	0.013328	60	10	60-180	60	173	GapExp	0	325	2	3	0	distractor	1	334	833	177040	13.328	12.462	14.218
ProbeTrack11	23	ProbeTrack	11.2	SCS215a	20101117.144806	20101117.152747	8	0.013328	60	10	60-180	60	168	GapExp	0	326	2	1	1	target	1	347	827	177867	13.328	13.311	13.347
ProbeTrack11	23	ProbeTrack	11.2	SCS215a	20101117.144806	20101117.152754	8	0.013328	60	0	60-180	60	137	GapExp	0	327	2	1	0	distractor	1	480	760	178627	13.328	12.962	13.699
ProbeTrack11	23	ProbeTrack	11.2	SCS215a	20101117.144806	20101117.152800	8	0.013328	60	10	60-180	60	180	GapExp	0	328	2	3	1	target	1	334	833	179460	13.328	12.840	13.809
ProbeTrack11	23	ProbeTrack	11.2	SCS215a	20101117.144806	20101117.152806	8	0.013328	60	0	60-180	60	171	GapExp	0	329	2	3	0	distractor	1	400	800	180260	13.328	13.309	13.348
ProbeTrack11	23	ProbeTrack	11.2	SCS215a	20101117.144806	20101117.152813	8	0.013328	60	0	60-180	60	68	GapExp	0	330	2	45	0	distractor	1	494	753	181013	13.328	13.087	13.570
ProbeTrack11	23	ProbeTrack	11.2	SCS215a	20101117.144806	20101117.152819	8	0.013328	60	10	60-180	60	174	GapExp	0	331	2	45	0	target	0	733	-1000	180013	13.328	13.108	13.548
ProbeTrack11	23	ProbeTrack	11.2	SCS215a	20101117.144806	20101117.152827	8	0.013328	60	10	60-180	60	134	GapExp	0	332	2	1	1	target	1	400	800	180813	13.328	13.309	13.350
ProbeTrack11	23	ProbeTrack	11.2	SCS215a	20101117.144806	20101117.152833	8	0.013328	60	10	60-180	60	121	GapExp	0	333	2	0	0	distractor	1	440	780	181593	13.328	12.995	13.654
ProbeTrack11	23	ProbeTrack	11.2	SCS215a	20101117.144806	20101117.152839	8	0.013328	60	0	60-180	60	76	GapExp	0	334	2	1	1	target	1	454	773	182366	13.328	13.299	13.365
ProbeTrack11	23	ProbeTrack	11.2	SCS215a	20101117.144806	20101117.152844	8	0.013328	60	10	60-180	60	152	GapExp	0	335	2	3	0	distractor	1	227	887	183253	13.328	13.300	13.345
ProbeTrack11	23	ProbeTrack	11.2	SCS215a	20101117.144806	20101117.152850	8	0.013328	60	0	60-180	60	119	GapExp	0	336	2	45	0	distractor	1	494	753	184006	13.328	13.312	13.347
ProbeTrack11	23	ProbeTrack	11.2	SCS215a	20101117.144806	20101117.152858	8	0.013328	60	0	60-180	60	76	GapExp	0	337	2	0	0	target	0	534	-1000	183006	13.328	12.866	13.796
ProbeTrack11	23	ProbeTrack	11.2	SCS215a	20101117.144806	20101117.152903	8	0.013328	60	10	60-180	60	91	GapExp	0	338	2	0	1	target	1	334	833	183839	13.328	13.310	13.345
ProbeTrack11	23	ProbeTrack	11.2	SCS215a	20101117.144806	20101117.152909	8	0.013328	60	10	60-180	60	98	GapExp	0	339	2	45	0	distractor	1	400	800	184639	13.328	13.091	13.552
ProbeTrack11	23	ProbeTrack	11.2	SCS215a	20101117.144806	20101117.152915	8	0.013328	60	10	60-180	60	141	GapExp	0	340	2	3	0	target	0	414	-1000	183639	13.328	13.089	13.563
ProbeTrack11	23	ProbeTrack	11.2	SCS215a	20101117.144806	20101117.152921	8	0.013328	60	10	60-180	60	144	GapExp	0	341	2	45	0	distractor	1	627	687	184326	13.328	13.108	13.552
ProbeTrack11	23	ProbeTrack	11.2	SCS215a	20101117.144806	20101117.152929	8	0.013328	60	10	60-180	60	118	GapExp	0	342	2	1	0	distractor	1	480	760	185086	13.328	12.982	13.673
ProbeTrack11	23	ProbeTrack	11.2	SCS215a	20101117.144806	20101117.152935	8	0.013328	60	10	60-180	60	86	GapExp	0	343	2	3	0	target	0	613	-1000	184086	13.328	12.989	13.667
ProbeTrack11	23	ProbeTrack	11.2	SCS215a	20101117.144806	20101117.152940	8	0.013328	60	10	60-180	60	69	GapExp	0	344	2	45	1	target	1	560	720	184806	13.328	13.005	13.658
ProbeTrack11	23	ProbeTrack	11.2	SCS215a	20101117.144806	20101117.152946	8	0.013328	60	0	60-180	60	86	GapExp	0	345	2	0	1	target	1	454	773	185579	13.328	13.065	13.580
ProbeTrack11	23	ProbeTrack	11.2	SCS215a	20101117.144806	20101117.152952	8	0.013328	60	0	60-180	60	119	GapExp	0	346	2	1	0	distractor	1	640	680	186259	13.328	13.308	13.349
ProbeTrack11	23	ProbeTrack	11.2	SCS215a	20101117.144806	20101117.152958	8	0.013328	60	10	60-180	60	66	GapExp	0	347	2	1	0	distractor	1	360	820	187079	13.328	12.893	13.586
ProbeTrack11	23	ProbeTrack	11.2	SCS215a	20101117.144806	20101117.153003	8	0.013328	60	10	60-180	60	105	GapExp	0	348	2	3	1	target	1	374	813	187892	13.328	13.310	13.345
ProbeTrack11	23	ProbeTrack	11.2	SCS215a	20101117.144806	20101117.153009	8	0.013328	60	0	60-180	60	92	GapExp	0	349	2	45	1	target	1	1733	134	188026	13.328	13.014	13.649
ProbeTrack11	23	ProbeTrack	11.2	SCS215a	20101117.144806	20101117.153017	8	0.013328	60	10	60-180	60	86	GapExp	0	350	2	1	0	distractor	1	467	767	188793	13.329	13.308	13.551
ProbeTrack11	23	ProbeTrack	11.2	SCS215a	20101117.144806	20101117.153022	8	0.013328	60	0	60-180	60	164	GapExp	0	351	2	0	0	target	0	667	-1000	187793	13.328	13.307	13.347
ProbeTrack11	23	ProbeTrack	11.2	SCS215a	20101117.144806	20101117.153029	8	0.013328	60	0	60-180	60	170	GapExp	0	352	2	45	1	target	1	387	807	188600	13.328	13.087	13.578
ProbeTrack11	23	ProbeTrack	11.2	SCS215a	20101117.144806	20101117.153037	8	0.013328	60	10	60-180	60	154	GapExp	0	353	2	3	0	target	0	294	-1000	187600	13.328	12.862	13.780
ProbeTrack11	23	ProbeTrack	11.2	SCS215a	20101117.144806	20101117.153044	8	0.013328	60	0	60-180	60	161	GapExp	0	354	2	3	1	target	1	347	827	188427	13.328	12.988	13.669
ProbeTrack11	23	ProbeTrack	11.2	SCS215a	20101117.144806	20101117.153050	8	0.013328	60	0	60-180	60	161	GapExp	0	355	2	45	0	distractor	1	573	714	189141	13.328	13.309	13.348
ProbeTrack11	23	ProbeTrack	11.2	SCS215a	20101117.144806	20101117.153057	8	0.013328	60	0	60-180	60	100	GapExp	0	356	2	45	1	target	1	374	813	189954	13.328	13.305	13.347
ProbeTrack11	23	ProbeTrack	11.2	SCS215a	20101117.144806	20101117.153104	8	0.013328	60	10	60-180	60	133	GapExp	0	357	2	0	0	target	0	680	-1000	188954	13.328	13.307	13.346
ProbeTrack11	23	ProbeTrack	11.2	SCS215a	20101117.144806	20101117.153110	8	0.013328	60	0	60-180	60	106	GapExp	0	358	2	45	1	target	1	387	807	189761	13.328	13.308	13.351
ProbeTrack11	23	ProbeTrack	11.2	SCS215a	20101117.144806	20101117.153117	8	0.013328	60	0	60-180	60	117	GapExp	0	359	2	3	1	target	1	427	787	190548	13.328	13.306	13.348
ProbeTrack11	23	ProbeTrack	11.2	SCS215a	20101117.144806	20101117.153123	8	0.013328	60	10	60-180	60	61	GapExp	0	360	2	1	1	target	1	387	807	191355	13.328	12.998	13.656
ProbeTrack11	23	ProbeTrack	11.2	SCS215a	20101117.144806	20101117.153128	8	0.013328	60	0	60-180	60	179	GapExp	0	361	2	0	1	target	1	494	753	192108	13.328	13.106	13.556
ProbeTrack11	23	ProbeTrack	11.2	SCS215a	20101117.144806	20101117.153135	8	0.013328	60	0	60-180	60	139	GapExp	0	362	2	0	1	target	1	347	827	192935	13.328	13.093	13.548
ProbeTrack11	23	ProbeTrack	11.2	SCS215a	20101117.144806	20101117.153141	8	0.013328	60	0	60-180	60	111	GapExp	0	363	2	0	1	target	1	507	747	193682	13.328	13.103	13.555
ProbeTrack11	23	ProbeTrack	11.2	SCS215a	20101117.144806	20101117.153147	8	0.013328	60	0	60-180	60	155	GapExp	0	364	2	1	0	distractor	1	467	767	194449	13.328	13.098	13.544
ProbeTrack11	23	ProbeTrack	11.2	SCS215a	20101117.144806	20101117.153154	8	0.013328	60	10	60-180	60	72	GapExp	0	365	2	1	0	target	0	640	-1000	193449	13.326	13.004	13.347
ProbeTrack11	23	ProbeTrack	11.2	SCS215a	20101117.144806	20101117.153159	8	0.013328	60	10	60-180	60	121	GapExp	0	366	2	45	1	distractor	0	480	-1000	192449	13.328	13.063	13.587
ProbeTrack11	23	ProbeTrack	11.2	SCS215a	20101117.144806	20101117.153206	8	0.013328	60	10	60-180	60	87	GapExp	0	367	2	3	1	target	1	360	820	193269	13.328	12.882	13.790
ProbeTrack11	23	ProbeTrack	11.2	SCS215a	20101117.144806	20101117.153213	8	0.013328	60	10	60-180	60	118	GapExp	0	368	2	3	1	target	1	414	793	194062	13.328	13.309	13.345
ProbeTrack11	23	ProbeTrack	11.2	SCS215a	20101117.144806	20101117.153219	8	0.013328	60	0	60-180	60	144	GapExp	0	369	2	0	1	target	1	387	807	194869	13.328	12.871	13.795
ProbeTrack11	23	ProbeTrack	11.2	SCS215a	20101117.144806	20101117.153225	8	0.013328	60	10	60-180	60	163	GapExp	0	370	2	3	1	target	1	387	807	195676	13.328	13.094	13.550
ProbeTrack11	23	ProbeTrack	11.2	SCS215a	20101117.144806	20101117.153231	8	0.013328	60	0	60-180	60	109	GapExp	0	371	2	0	0	target	0	893	-1000	194676	13.328	13.086	13.564
ProbeTrack11	23	ProbeTrack	11.2	SCS215a	20101117.144806	20101117.153238	8	0.013328	60	10	60-180	60	97	GapExp	0	372	2	45	0	distractor	1	520	740	195416	13.328	12.888	13.773
ProbeTrack11	23	ProbeTrack	11.2	SCS215a	20101117.144806	20101117.153244	8	0.013328	60	10	60-180	60	93	GapExp	0	373	2	0	0	distractor	1	667	667	196083	13.328	13.104	13.551
ProbeTrack11	23	ProbeTrack	11.2	SCS215a	20101117.144806	20101117.153250	8	0.013328	60	0	60-180	60	141	GapExp	0	374	2	1	0	distractor	1	547	727	196810	13.328	13.308	13.348
ProbeTrack11	23	ProbeTrack	11.2	SCS215a	20101117.144806	20101117.153256	8	0.013328	60	0	60-180	60	132	GapExp	0	375	2	45	0	distractor	1	320	840	197650	13.328	12.909	13.748
ProbeTrack11	23	ProbeTrack	11.2	SCS215a	20101117.144806	20101117.153303	8	0.013328	60	0	60-180	60	126	GapExp	0	376	2	3	1	target	1	520	740	198390	13.328	13.307	13.348
ProbeTrack11	23	ProbeTrack	11.2	SCS215a	20101117.144806	20101117.153310	8	0.013328	60	0	60-180	60	162	GapExp	0	377	2	1	1	distractor	0	694	-1000	197390	13.328	13.099	13.569
ProbeTrack11	23	ProbeTrack	11.2	SCS215a	20101117.144806	20101117.153318	8	0.013328	60	10	60-180	60	75	GapExp	0	378	2	0	1	target	1	400	800	198190	13.328	13.308	13.345
ProbeTrack11	23	ProbeTrack	11.2	SCS215a	20101117.144806	20101117.153324	8	0.013328	60	0	60-180	60	170	GapExp	0	379	2	3	0	distractor	1	533	734	198924	13.328	13.308	13.347
ProbeTrack11	23	ProbeTrack	11.2	SCS215a	20101117.144806	20101117.153330	8	0.013328	60	10	60-180	60	71	GapExp	0	380	2	0	1	target	1	374	813	199737	13.328	12.919	13.737
ProbeTrack11	23	ProbeTrack	11.2	SCS215a	20101117.144806	20101117.153335	8	0.013328	60	10	60-180	60	151	GapExp	0	381	2	45	1	distractor	0	600	-1000	198737	13.328	12.904	13.754
ProbeTrack11	23	ProbeTrack	11.2	SCS215a	20101117.144806	20101117.153343	8	0.013328	60	0	60-180	60	122	GapExp	0	382	2	0	0	distractor	1	547	727	199464	13.328	13.308	13.346
ProbeTrack11	23	ProbeTrack	11.2	SCS215a	20101117.144806	20101117.153349	8	0.013328	60	0	60-180	60	88	GapExp	0	383	2	0	0	distractor	1	573	714	200178	13.328	13.106	13.549
ProbeTrack11	23	ProbeTrack	11.2	SCS215a	20101117.144806	20101117.153355	8	0.013328	60	0	60-180	60	146	GapExp	0	384	2	3	1	target	1	587	707	200885	13.328	13.095	13.569
ProbeTrack11	23	ProbeTrack	11.2	SCS215a	20101117.144806	20101117.153401	8	0.013328	60	0	60-180	60	172	GapExp	0	385	2	0	1	distractor	0	414	-1000	199885	13.328	13.104	13.545
ProbeTrack11	23	ProbeTrack	11.2	SCS215a	20101117.144806	20101117.153408	8	0.013328	60	10	60-180	60	146	GapExp	0	386	2	3	0	distractor	1	454	773	200658	13.328	13.097	13.559
ProbeTrack11	23	ProbeTrack	11.2	SCS215a	20101117.144806	20101117.153414	8	0.013328	60	10	60-180	60	75	GapExp	0	387	2	45	0	target	0	947	-1000	199658	13.327	13.039	13.565
ProbeTrack11	23	ProbeTrack	11.2	SCS215a	20101117.144806	20101117.153421	8	0.013328	60	10	60-180	60	70	GapExp	0	388	2	1	0	distractor	1	520	740	200398	13.328	13.296	13.354
ProbeTrack11	23	ProbeTrack	11.2	SCS215a	20101117.144806	20101117.153427	8	0.013328	60	10	60-180	60	62	GapExp	0	389	2	3	1	target	1	573	714	201112	13.328	13.309	13.344
ProbeTrack11	23	ProbeTrack	11.2	SCS215a	20101117.144806	20101117.153433	8	0.013328	60	0	60-180	60	139	GapExp	0	390	2	3	1	target	1	387	807	201919	13.328	12.947	13.709
ProbeTrack11	23	ProbeTrack	11.2	SCS215a	20101117.144806	20101117.153439	8	0.013328	60	0	60-180	60	142	GapExp	0	391	2	45	1	distractor	0	534	-1000	200919	13.328	12.905	13.763
ProbeTrack11	23	ProbeTrack	11.2	SCS215a	20101117.144806	20101117.153446	8	0.013328	60	10	60-180	60	87	GapExp	0	392	2	1	0	target	0	440	-1000	199919	13.328	12.876	13.780
ProbeTrack11	23	ProbeTrack	11.2	SCS215a	20101117.144806	20101117.153452	8	0.013328	60	10	60-180	60	178	GapExp	0	393	2	45	1	target	1	600	700	200619	13.328	13.107	13.551
ProbeTrack11	23	ProbeTrack	11.2	SCS215a	20101117.144806	20101117.153459	8	0.013328	60	0	60-180	60	130	GapExp	0	394	2	1	0	target	0	374	-1000	199619	13.328	13.100	13.570
ProbeTrack11	23	ProbeTrack	11.2	SCS215a	20101117.144806	20101117.153506	8	0.013328	60	10	60-180	60	113	GapExp	0	395	2	1	1	target	1	360	820	200439	13.328	13.307	13.345
ProbeTrack11	23	ProbeTrack	11.2	SCS215a	20101117.144806	20101117.153512	8	0.013328	60	10	60-180	60	112	GapExp	0	396	2	45	1	target	1	653	674	201113	13.328	12.868	13.793
ProbeTrack11	23	ProbeTrack	11.2	SCS215a	20101117.144806	20101117.153518	8	0.013328	60	10	60-180	60	74	GapExp	0	397	2	45	1	distractor	0	653	-1000	200113	13.328	13.086	13.557
ProbeTrack11	23	ProbeTrack	11.2	SCS215a	20101117.144806	20101117.153527	8	0.013328	60	0	60-180	60	102	GapExp	0	398	2	3	1	target	1	467	767	200880	13.328	13.040	13.600
ProbeTrack11	23	ProbeTrack	11.2	SCS215a	20101117.144806	20101117.153532	8	0.013328	60	0	60-180	60	152	GapExp	0	399	2	0	0	target	0	454	-1000	199880	13.328	13.101	13.546
ProbeTrack11	23	ProbeTrack	11.2	SCS215a	20101117.144806	20101117.153539	8	0.013328	60	10	60-180	60	162	GapExp	0	400	2	1	1	distractor	0	614	-1000	198880	13.328	13.307	13.348
ProbeTrack11	23	ProbeTrack	11.2	SCS215a	20101117.144806	20101117.153546	8	0.013328	60	10	60-180	60	89	GapExp	0	401	2	3	1	target	1	427	787	199667	13.328	13.073	13.577
ProbeTrack11	23	ProbeTrack	11.2	SCS215a	20101117.144806	20101117.153551	8	0.013328	60	0	60-180	60	168	GapExp	0	402	2	45	0	target	0	947	-1000	198667	13.328	13.105	13.545
ProbeTrack11	23	ProbeTrack	11.2	SCS215a	20101117.144806	20101117.153559	8	0.013328	60	10	60-180	60	159	GapExp	0	403	2	0	1	target	1	640	680	199347	13.328	12.867	13.789
ProbeTrack11	23	ProbeTrack	11.2	SCS215a	20101117.144806	20101117.153606	8	0.013328	60	0	60-180	60	134	GapExp	0	404	2	3	1	target	1	414	793	200140	13.328	13.310	13.343
ProbeTrack11	23	ProbeTrack	11.2	SCS215a	20101117.144806	20101117.153612	8	0.013328	60	0	60-180	60	136	GapExp	0	405	2	3	1	target	1	414	793	200933	13.328	13.308	13.346
ProbeTrack11	23	ProbeTrack	11.2	SCS215a	20101117.144806	20101117.153618	8	0.013328	60	0	60-180	60	139	GapExp	0	406	2	1	0	distractor	1	547	727	201660	13.328	13.266	13.397
ProbeTrack11	23	ProbeTrack	11.2	SCS215a	20101117.144806	20101117.153624	8	0.013328	60	10	60-180	60	126	GapExp	0	407	2	3	0	target	0	973	-1000	200660	13.328	12.896	13.753
ProbeTrack11	23	ProbeTrack	11.2	SCS215a	20101117.144806	20101117.153632	8	0.013328	60	10	60-180	60	80	GapExp	0	408	2	45	0	distractor	1	400	800	201460	13.328	12.877	13.784
ProbeTrack11	23	ProbeTrack	11.2	SCS215a	20101117.144806	20101117.153638	8	0.013328	60	10	60-180	60	151	GapExp	0	409	2	45	0	distractor	1	587	707	202167	13.328	13.100	13.556
ProbeTrack11	23	ProbeTrack	11.2	SCS215a	20101117.144806	20101117.153645	8	0.013328	60	10	60-180	60	107	GapExp	0	410	2	1	0	target	0	693	-1000	201167	13.328	12.910	13.749
ProbeTrack11	23	ProbeTrack	11.2	SCS215a	20101117.144806	20101117.153651	8	0.013328	60	0	60-180	60	121	GapExp	0	411	2	0	0	distractor	1	533	734	201901	13.328	12.904	13.755
ProbeTrack11	23	ProbeTrack	11.2	SCS215a	20101117.144806	20101117.153657	8	0.013328	60	0	60-180	60	76	GapExp	0	412	2	0	1	distractor	0	800	-1000	200901	13.328	12.948	13.712
ProbeTrack11	23	ProbeTrack	11.2	SCS215a	20101117.144806	20101117.153703	8	0.013328	60	0	60-180	60	134	GapExp	0	413	2	3	1	target	1	467	767	201668	13.328	12.852	13.803
ProbeTrack11	23	ProbeTrack	11.2	SCS215a	20101117.144806	20101117.153709	8	0.013328	60	0	60-180	60	103	GapExp	0	414	2	45	1	target	1	414	793	202461	13.328	13.044	13.606
ProbeTrack11	23	ProbeTrack	11.2	SCS215a	20101117.144806	20101117.153715	8	0.013328	60	10	60-180	60	167	GapExp	0	415	2	0	1	target	1	374	813	203274	13.328	13.303	13.346
ProbeTrack11	23	ProbeTrack	11.2	SCS215a	20101117.144806	20101117.153722	8	0.013328	60	0	60-180	60	130	GapExp	0	416	2	0	0	distractor	1	467	767	204041	13.328	13.088	13.570
ProbeTrack11	23	ProbeTrack	11.2	SCS215a	20101117.144806	20101117.153752	8	0.013328	60	0	60-180	60	140	GapExp	0	417	2	3	0	distractor	1	454	773	204814	13.328	12.972	13.691
ProbeTrack11	23	ProbeTrack	11.2	SCS215a	20101117.144806	20101117.153758	8	0.013328	60	0	60-180	60	65	GapExp	0	418	2	3	1	target	1	360	820	205634	13.328	12.852	13.803
ProbeTrack11	23	ProbeTrack	11.2	SCS215a	20101117.144806	20101117.153803	8	0.013328	60	10	60-180	60	144	GapExp	0	419	2	1	0	distractor	1	334	833	206467	13.328	12.859	13.781
ProbeTrack11	23	ProbeTrack	11.2	SCS215a	20101117.144806	20101117.153809	8	0.013328	60	10	60-180	60	155	GapExp	0	420	2	45	1	target	1	494	753	207220	13.328	13.310	13.349
ProbeTrack11	23	ProbeTrack	11.2	SCS215a	20101117.144806	20101117.153817	8	0.013328	60	10	60-180	60	68	GapExp	0	421	2	3	1	target	1	414	793	208013	13.328	12.877	13.782
ProbeTrack11	23	ProbeTrack	11.2	SCS215a	20101117.144806	20101117.153822	8	0.013328	60	0	60-180	60	177	GapExp	0	422	2	0	1	target	1	440	780	208793	13.328	13.114	13.548
ProbeTrack11	23	ProbeTrack	11.2	SCS215a	20101117.144806	20101117.153829	8	0.013328	60	0	60-180	60	171	GapExp	0	423	2	0	1	target	1	400	800	209593	13.328	13.018	13.636
ProbeTrack11	23	ProbeTrack	11.2	SCS215a	20101117.144806	20101117.153835	8	0.013328	60	10	60-180	60	113	GapExp	0	424	2	1	1	target	1	307	847	210440	13.328	13.093	13.545
ProbeTrack11	23	ProbeTrack	11.2	SCS215a	20101117.144806	20101117.153841	8	0.013328	60	0	60-180	60	178	GapExp	0	425	2	3	1	target	1	320	840	211280	13.328	13.091	13.613
ProbeTrack11	23	ProbeTrack	11.2	SCS215a	20101117.144806	20101117.153848	8	0.013328	60	10	60-180	60	158	GapExp	0	426	2	0	1	target	1	427	787	212067	13.328	12.852	13.793
ProbeTrack11	23	ProbeTrack	11.2	SCS215a	20101117.144806	20101117.153854	8	0.013328	60	10	60-180	60	110	GapExp	0	427	2	3	1	target	1	294	853	212920	13.328	13.296	13.360
ProbeTrack11	23	ProbeTrack	11.2	SCS215a	20101117.144806	20101117.153900	8	0.013328	60	0	60-180	60	145	GapExp	0	428	2	1	1	target	1	374	813	213733	13.328	13.306	13.358
ProbeTrack11	23	ProbeTrack	11.2	SCS215a	20101117.144806	20101117.153906	8	0.013328	60	10	60-180	60	151	GapExp	0	429	2	3	1	distractor	0	320	-1000	212733	13.328	13.309	13.348
ProbeTrack11	23	ProbeTrack	11.2	SCS215a	20101117.144806	20101117.153913	8	0.013328	60	10	60-180	60	64	GapExp	0	430	2	0	0	distractor	1	573	714	213447	13.328	13.308	13.352
ProbeTrack11	23	ProbeTrack	11.2	SCS215a	20101117.144806	20101117.153918	8	0.013328	60	10	60-180	60	89	GapExp	0	431	2	1	0	target	0	534	-1000	212447	13.328	13.111	13.557
ProbeTrack11	23	ProbeTrack	11.2	SCS215a	20101117.144806	20101117.153924	8	0.013328	60	0	60-180	60	168	GapExp	0	432	2	1	0	distractor	1	653	674	213121	13.328	13.092	13.562
ProbeTrack11	23	ProbeTrack	11.2	SCS215a	20101117.144806	20101117.153930	8	0.013328	60	10	60-180	60	155	GapExp	0	433	2	3	1	target	1	454	773	213894	13.328	12.999	13.647
ProbeTrack11	23	ProbeTrack	11.2	SCS215a	20101117.144806	20101117.153937	8	0.013328	60	0	60-180	60	163	GapExp	0	434	2	3	1	target	1	400	800	214694	13.328	13.038	13.634
ProbeTrack11	23	ProbeTrack	11.2	SCS215a	20101117.144806	20101117.153943	8	0.013328	60	0	60-180	60	152	GapExp	0	435	2	3	0	distractor	1	454	773	215467	13.328	13.085	13.559
ProbeTrack11	23	ProbeTrack	11.2	SCS215a	20101117.144806	20101117.153950	8	0.013328	60	10	60-180	60	167	GapExp	0	436	2	45	1	target	1	467	767	216234	13.328	12.873	13.785
ProbeTrack11	23	ProbeTrack	11.2	SCS215a	20101117.144806	20101117.153957	8	0.013328	60	10	60-180	60	152	GapExp	0	437	2	3	1	13	-3	-13	-1000	215234	13.328	12.891	13.768
ProbeTrack11	23	ProbeTrack	11.2	SCS215a	20101117.144806	20101117.154003	8	0.013328	60	0	60-180	60	95	GapExp	0	438	2	45	1	13	-3	-13	-1000	214234	13.328	12.990	13.681
ProbeTrack11	23	ProbeTrack	11.2	SCS215a	20101117.144806	20101117.154012	8	0.013328	60	0	60-180	60	156	GapExp	0	439	2	0	0	distractor	1	667	667	214901	13.328	13.005	13.652
ProbeTrack11	23	ProbeTrack	11.2	SCS215a	20101117.144806	20101117.154025	8	0.013328	60	0	60-180	60	79	GapExp	0	440	2	45	1	target	1	414	793	215694	13.328	12.843	13.802
ProbeTrack11	23	ProbeTrack	11.2	SCS215a	20101117.144806	20101117.154031	8	0.013328	60	10	60-180	60	117	GapExp	0	441	2	1	0	distractor	1	374	813	216507	13.328	13.307	13.349
ProbeTrack11	23	ProbeTrack	11.2	SCS215a	20101117.144806	20101117.154037	8	0.013328	60	10	60-180	60	101	GapExp	0	442	2	1	0	target	0	480	-1000	215507	13.328	13.306	13.352
ProbeTrack11	23	ProbeTrack	11.2	SCS215a	20101117.144806	20101117.154043	8	0.013328	60	10	60-180	60	166	GapExp	0	443	2	0	1	target	1	494	753	216260	13.328	13.102	13.548
ProbeTrack11	23	ProbeTrack	11.2	SCS215a	20101117.144806	20101117.154049	8	0.013328	60	10	60-180	60	173	GapExp	0	444	2	3	0	target	0	360	-1000	215260	13.328	12.981	13.686
ProbeTrack11	23	ProbeTrack	11.2	SCS215a	20101117.144806	20101117.154056	8	0.013328	60	10	60-180	60	105	GapExp	0	445	2	0	0	distractor	1	467	767	216027	13.328	13.105	13.564
ProbeTrack11	23	ProbeTrack	11.2	SCS215a	20101117.144806	20101117.154102	8	0.013328	60	0	60-180	60	131	GapExp	0	446	2	0	0	distractor	1	440	780	216807	13.328	12.868	13.786
ProbeTrack11	23	ProbeTrack	11.2	SCS215a	20101117.144806	20101117.154108	8	0.013328	60	10	60-180	60	80	GapExp	0	447	2	1	1	target	1	307	847	217654	13.328	13.275	13.373
ProbeTrack11	23	ProbeTrack	11.2	SCS215a	20101117.144806	20101117.154114	8	0.013328	60	0	60-180	60	173	GapExp	0	448	2	1	1	target	1	427	787	218441	13.329	13.307	13.697
ProbeTrack11	23	ProbeTrack	11.2	SCS215a	20101117.144806	20101117.154120	8	0.013328	60	10	60-180	60	158	GapExp	0	449	2	1	0	target	0	400	-1000	217441	13.328	12.888	13.765
ProbeTrack11	23	ProbeTrack	11.2	SCS215a	20101117.144806	20101117.154126	8	0.013328	60	10	60-180	60	89	GapExp	0	450	2	3	1	target	1	320	840	218281	13.328	12.971	13.673
