exp	sub	code	rev	comp	runtime	trialtime	nstim	refreshdur	cuedur	gapdur	gapOnsetRange	durPostProbe	gapOnsetTime	blocktype	prac	trial	ntargets	soa	probeTarget	resp	acc	rt	pts	tpts	meanFrameDur	minFrameDur	maxFrameDur
ProbeTrack11	22	ProbeTrack	11.2	SCS215a	20101117.130723	20101117.130740	8	0.013344	60	0	60-180	60	160	NoGap	1	1	2	1	0	distractor	1	6531	0	0	13.328	13.295	13.349
ProbeTrack11	22	ProbeTrack	11.2	SCS215a	20101117.130723	20101117.130758	8	0.013344	60	0	60-180	60	141	NoGap	1	2	2	1	1	target	1	1240	380	380	13.328	13.302	13.352
ProbeTrack11	22	ProbeTrack	11.2	SCS215a	20101117.130723	20101117.130806	8	0.013344	60	0	60-180	60	150	NoGap	1	3	2	0	0	distractor	1	960	520	900	13.328	12.882	13.802
ProbeTrack11	22	ProbeTrack	11.2	SCS215a	20101117.130723	20101117.130819	8	0.013344	60	0	60-180	60	66	NoGap	1	4	2	45	0	distractor	1	520	740	1640	13.328	13.308	13.353
ProbeTrack11	22	ProbeTrack	11.2	SCS215a	20101117.130723	20101117.130825	8	0.013344	60	0	60-180	60	110	NoGap	1	5	2	3	1	target	1	387	807	2447	13.328	13.098	13.544
ProbeTrack11	22	ProbeTrack	11.2	SCS215a	20101117.130723	20101117.130831	8	0.013344	60	0	60-180	60	129	NoGap	1	6	2	45	1	target	1	480	760	3207	13.328	13.308	13.344
ProbeTrack11	22	ProbeTrack	11.2	SCS215a	20101117.130723	20101117.130838	8	0.013344	60	0	60-180	60	133	NoGap	1	7	2	0	1	target	1	667	667	3874	13.328	13.087	13.566
ProbeTrack11	22	ProbeTrack	11.2	SCS215a	20101117.130723	20101117.130845	8	0.013344	60	0	60-180	60	92	NoGap	1	8	2	3	0	distractor	1	773	614	4488	13.328	13.099	13.553
ProbeTrack11	22	ProbeTrack	11.2	SCS215a	20101117.130723	20101117.130851	8	0.013344	60	0	60-180	60	148	NoGap	1	9	2	3	0	distractor	1	773	614	5102	13.328	13.092	13.557
ProbeTrack11	22	ProbeTrack	11.2	SCS215a	20101117.130723	20101117.130857	8	0.013344	60	0	60-180	60	96	NoGap	1	10	2	3	1	target	1	667	667	5769	13.328	13.301	13.361
ProbeTrack11	22	ProbeTrack	11.2	SCS215a	20101117.130723	20101117.130903	8	0.013344	60	0	60-180	60	87	NoGap	1	11	2	45	1	distractor	0	480	-1000	4769	13.328	13.304	13.355
ProbeTrack11	22	ProbeTrack	11.2	SCS215a	20101117.130723	20101117.130909	8	0.013344	60	0	60-180	60	164	NoGap	1	12	2	0	1	target	1	427	787	5556	13.328	13.303	13.350
ProbeTrack11	22	ProbeTrack	11.2	SCS215a	20101117.130723	20101117.130916	8	0.013344	60	0	60-180	60	108	NoGap	1	13	2	3	1	target	1	1186	407	5963	13.328	13.135	13.524
ProbeTrack11	22	ProbeTrack	11.2	SCS215a	20101117.130723	20101117.130923	8	0.013344	60	0	60-180	60	125	NoGap	1	14	2	1	0	distractor	1	587	707	6670	13.328	13.099	13.728
ProbeTrack11	22	ProbeTrack	11.2	SCS215a	20101117.130723	20101117.130929	8	0.013344	60	0	60-180	60	76	NoGap	1	15	2	3	0	distractor	1	800	600	7270	13.328	13.122	13.531
ProbeTrack11	22	ProbeTrack	11.2	SCS215a	20101117.130723	20101117.130935	8	0.013344	60	0	60-180	60	176	NoGap	1	16	2	3	0	distractor	1	480	760	8030	13.328	13.120	13.541
ProbeTrack11	22	ProbeTrack	11.2	SCS215a	20101117.130723	20101117.130941	8	0.013344	60	0	60-180	60	173	NoGap	1	17	2	1	0	distractor	1	520	740	8770	13.328	13.285	13.356
ProbeTrack11	22	ProbeTrack	11.2	SCS215a	20101117.130723	20101117.130948	8	0.013344	60	0	60-180	60	150	NoGap	1	18	2	3	1	target	1	560	720	9490	13.328	12.844	13.804
ProbeTrack11	22	ProbeTrack	11.2	SCS215a	20101117.130723	20101117.130955	8	0.013344	60	0	60-180	60	100	NoGap	1	19	2	45	0	distractor	1	760	620	10110	13.328	12.941	13.723
ProbeTrack11	22	ProbeTrack	11.2	SCS215a	20101117.130723	20101117.131001	8	0.013344	60	0	60-180	60	141	NoGap	1	20	2	0	0	distractor	1	560	720	10830	13.328	12.834	13.823
ProbeTrack11	22	ProbeTrack	11.2	SCS215a	20101117.130723	20101117.131007	8	0.013344	60	0	60-180	60	108	NoGap	1	21	2	0	0	distractor	1	614	693	11523	13.328	12.891	13.758
ProbeTrack11	22	ProbeTrack	11.2	SCS215a	20101117.130723	20101117.131013	8	0.013344	60	0	60-180	60	122	NoGap	1	22	2	45	1	target	1	440	780	12303	13.328	13.307	13.347
ProbeTrack11	22	ProbeTrack	11.2	SCS215a	20101117.130723	20101117.131020	8	0.013344	60	0	60-180	60	140	NoGap	1	23	2	1	1	target	1	467	767	13070	13.328	13.308	13.347
ProbeTrack11	22	ProbeTrack	11.2	SCS215a	20101117.130723	20101117.131026	8	0.013344	60	0	60-180	60	157	NoGap	1	24	2	0	0	distractor	1	454	773	13843	13.328	12.990	13.672
ProbeTrack11	22	ProbeTrack	11.2	SCS215a	20101117.130723	20101117.131033	8	0.013344	60	0	60-180	60	144	NoGap	1	25	2	0	1	target	1	320	840	14683	13.328	13.297	13.362
ProbeTrack11	22	ProbeTrack	11.2	SCS215a	20101117.130723	20101117.131039	8	0.013344	60	0	60-180	60	159	NoGap	1	26	2	1	0	distractor	1	507	747	15430	13.328	12.915	13.742
ProbeTrack11	22	ProbeTrack	11.2	SCS215a	20101117.130723	20101117.131046	8	0.013344	60	0	60-180	60	98	NoGap	1	27	2	1	0	distractor	1	1133	434	15864	13.328	12.957	13.692
ProbeTrack11	22	ProbeTrack	11.2	SCS215a	20101117.130723	20101117.131053	8	0.013344	60	0	60-180	60	77	NoGap	1	28	2	45	0	distractor	1	653	674	16538	13.328	13.265	13.418
ProbeTrack11	22	ProbeTrack	11.2	SCS215a	20101117.130723	20101117.131059	8	0.013344	60	0	60-180	60	64	NoGap	1	29	2	0	0	distractor	1	680	660	17198	13.328	13.308	13.345
ProbeTrack11	22	ProbeTrack	11.2	SCS215a	20101117.130723	20101117.131105	8	0.013344	60	0	60-180	60	143	NoGap	1	30	2	0	1	target	1	494	753	17951	13.328	13.085	13.557
ProbeTrack11	22	ProbeTrack	11.2	SCS215a	20101117.130723	20101117.131112	8	0.013344	60	0	60-180	60	169	NoGap	1	31	2	3	1	target	1	827	587	18538	13.328	12.860	13.792
ProbeTrack11	22	ProbeTrack	11.2	SCS215a	20101117.130723	20101117.131119	8	0.013344	60	0	60-180	60	99	NoGap	1	32	2	45	1	13	-3	-13	-1000	17538	13.328	13.306	13.347
ProbeTrack11	22	ProbeTrack	11.2	SCS215a	20101117.130723	20101117.131135	8	0.013344	60	0	60-180	60	116	NoGap	1	33	2	45	1	target	1	387	807	18345	13.328	13.309	13.346
ProbeTrack11	22	ProbeTrack	11.2	SCS215a	20101117.130723	20101117.131142	8	0.013344	60	0	60-180	60	61	NoGap	1	34	2	1	1	target	1	707	647	18992	13.328	13.311	13.352
ProbeTrack11	22	ProbeTrack	11.2	SCS215a	20101117.130723	20101117.131150	8	0.013344	60	0	60-180	60	169	NoGap	1	35	2	0	1	target	1	307	847	19839	13.328	13.171	13.471
ProbeTrack11	22	ProbeTrack	11.2	SCS215a	20101117.130723	20101117.131157	8	0.013344	60	0	60-180	60	142	NoGap	1	36	2	45	0	distractor	1	667	667	20506	13.328	13.123	13.529
ProbeTrack11	22	ProbeTrack	11.2	SCS215a	20101117.130723	20101117.131204	8	0.013344	60	0	60-180	60	155	NoGap	1	37	2	3	0	distractor	1	480	760	21266	13.328	12.935	13.714
ProbeTrack11	22	ProbeTrack	11.2	SCS215a	20101117.130723	20101117.131211	8	0.013344	60	0	60-180	60	119	NoGap	1	38	2	1	1	target	1	520	740	22006	13.328	13.308	13.347
ProbeTrack11	22	ProbeTrack	11.2	SCS215a	20101117.130723	20101117.131217	8	0.013344	60	0	60-180	60	156	NoGap	1	39	2	45	0	distractor	1	520	740	22746	13.328	13.308	13.347
ProbeTrack11	22	ProbeTrack	11.2	SCS215a	20101117.130723	20101117.131224	8	0.013344	60	0	60-180	60	165	NoGap	1	40	2	1	1	distractor	0	467	-1000	21746	13.328	13.310	13.345
ProbeTrack11	22	ProbeTrack	11.2	SCS215a	20101117.131312	20101117.131324	8	0.013328	60	10	60-180	60	107	GapPrac	1	1	2	1	0	distractor	1	4132	0	21746	13.328	13.039	13.604
ProbeTrack11	22	ProbeTrack	11.2	SCS215a	20101117.131312	20101117.131335	8	0.013328	60	10	60-180	60	76	GapPrac	1	2	2	0	0	target	0	747	-1000	20746	13.328	13.100	13.549
ProbeTrack11	22	ProbeTrack	11.2	SCS215a	20101117.131312	20101117.131344	8	0.013328	60	10	60-180	60	133	GapPrac	1	3	2	3	1	target	1	987	507	21253	13.328	12.874	13.727
ProbeTrack11	22	ProbeTrack	11.2	SCS215a	20101117.131312	20101117.131351	8	0.013328	60	0	60-180	60	62	GapPrac	1	4	2	45	0	distractor	1	1053	474	21727	13.328	13.110	13.540
ProbeTrack11	22	ProbeTrack	11.2	SCS215a	20101117.131312	20101117.131358	8	0.013328	60	10	60-180	60	96	GapPrac	1	5	2	1	1	target	1	1200	400	22127	13.328	12.865	13.790
ProbeTrack11	22	ProbeTrack	11.2	SCS215a	20101117.131312	20101117.131405	8	0.013328	60	0	60-180	60	119	GapPrac	1	6	2	45	1	target	1	653	674	22801	13.328	12.845	13.811
ProbeTrack11	22	ProbeTrack	11.2	SCS215a	20101117.131312	20101117.131412	8	0.013328	60	0	60-180	60	89	GapPrac	1	7	2	0	0	distractor	1	773	614	23415	13.328	13.302	13.366
ProbeTrack11	22	ProbeTrack	11.2	SCS215a	20101117.131312	20101117.131418	8	0.013328	60	10	60-180	60	104	GapPrac	1	8	2	0	0	distractor	1	880	560	23975	13.328	12.868	13.783
ProbeTrack11	22	ProbeTrack	11.2	SCS215a	20101117.131312	20101117.131424	8	0.013328	60	0	60-180	60	84	GapPrac	1	9	2	3	1	target	1	653	674	24649	13.328	13.115	13.554
ProbeTrack11	22	ProbeTrack	11.2	SCS215a	20101117.131312	20101117.131430	8	0.013328	60	10	60-180	60	118	GapPrac	1	10	2	0	1	target	1	667	667	25316	13.328	13.097	13.548
ProbeTrack11	22	ProbeTrack	11.2	SCS215a	20101117.131312	20101117.131436	8	0.013328	60	0	60-180	60	139	GapPrac	1	11	2	0	1	target	1	653	674	25990	13.328	12.864	13.796
ProbeTrack11	22	ProbeTrack	11.2	SCS215a	20101117.131312	20101117.131442	8	0.013328	60	0	60-180	60	61	GapPrac	1	12	2	1	1	target	1	640	680	26670	13.328	12.888	13.759
ProbeTrack11	22	ProbeTrack	11.2	SCS215a	20101117.131312	20101117.131447	8	0.013328	60	10	60-180	60	168	GapPrac	1	13	2	3	1	target	1	560	720	27390	13.328	12.887	13.768
ProbeTrack11	22	ProbeTrack	11.2	SCS215a	20101117.131312	20101117.131454	8	0.013328	60	10	60-180	60	180	GapPrac	1	14	2	1	0	distractor	1	800	600	27990	13.328	13.096	13.559
ProbeTrack11	22	ProbeTrack	11.2	SCS215a	20101117.131312	20101117.131501	8	0.013328	60	10	60-180	60	129	GapPrac	1	15	2	45	1	target	1	587	707	28697	13.328	12.928	13.728
ProbeTrack11	22	ProbeTrack	11.2	SCS215a	20101117.131312	20101117.131508	8	0.013328	60	0	60-180	60	120	GapPrac	1	16	2	1	0	distractor	1	747	627	29324	13.328	13.009	13.643
ProbeTrack11	22	ProbeTrack	11.2	SCS215a	20101117.131312	20101117.131514	8	0.013328	60	0	60-180	60	61	GapPrac	1	17	2	3	0	distractor	1	747	627	29951	13.328	13.297	13.357
ProbeTrack11	22	ProbeTrack	11.2	SCS215a	20101117.131312	20101117.131519	8	0.013328	60	10	60-180	60	155	GapPrac	1	18	2	3	0	distractor	1	653	674	30625	13.328	13.014	13.647
ProbeTrack11	22	ProbeTrack	11.2	SCS215a	20101117.131312	20101117.131526	8	0.013328	60	0	60-180	60	148	GapPrac	1	19	2	45	0	distractor	1	653	674	31299	13.328	13.308	13.347
ProbeTrack11	22	ProbeTrack	11.2	SCS215a	20101117.131312	20101117.131533	8	0.013328	60	10	60-180	60	67	GapPrac	1	20	2	45	0	distractor	1	520	740	32039	13.328	13.291	13.366
ProbeTrack11	22	ProbeTrack	11.2	SCS215a	20101117.131620	20101117.131756	8	0.013328	60	10	60-180	60	77	GapExp	1	1	2	0	0	distractor	1	693	654	32693	13.328	13.298	13.349
ProbeTrack11	22	ProbeTrack	11.2	SCS215a	20101117.131620	20101117.131802	8	0.013328	60	0	60-180	60	160	GapExp	1	2	2	1	0	distractor	1	747	627	33320	13.328	12.932	13.723
ProbeTrack11	22	ProbeTrack	11.2	SCS215a	20101117.131620	20101117.131810	8	0.013328	60	10	60-180	60	146	GapExp	0	3	2	1	1	target	1	573	714	34034	13.328	13.060	13.597
ProbeTrack11	22	ProbeTrack	11.2	SCS215a	20101117.131620	20101117.131816	8	0.013328	60	0	60-180	60	123	GapExp	0	4	2	45	1	target	1	454	773	34807	13.328	13.217	13.454
ProbeTrack11	22	ProbeTrack	11.2	SCS215a	20101117.131620	20101117.131823	8	0.013328	60	10	60-180	60	73	GapExp	0	5	2	1	0	distractor	1	627	687	35494	13.328	13.309	13.351
ProbeTrack11	22	ProbeTrack	11.2	SCS215a	20101117.131620	20101117.131829	8	0.013328	60	10	60-180	60	173	GapExp	0	6	2	3	1	target	1	560	720	36214	13.328	13.278	13.384
ProbeTrack11	22	ProbeTrack	11.2	SCS215a	20101117.131620	20101117.131836	8	0.013328	60	0	60-180	60	80	GapExp	0	7	2	0	0	distractor	1	520	740	36954	13.464	13.310	26.657
ProbeTrack11	22	ProbeTrack	11.2	SCS215a	20101117.131620	20101117.131841	8	0.013328	60	10	60-180	60	88	GapExp	0	8	2	1	1	target	1	654	673	37627	13.328	13.099	13.571
ProbeTrack11	22	ProbeTrack	11.2	SCS215a	20101117.131620	20101117.131847	8	0.013328	60	0	60-180	60	107	GapExp	0	9	2	0	1	target	1	600	700	38327	13.328	12.979	13.673
ProbeTrack11	22	ProbeTrack	11.2	SCS215a	20101117.131620	20101117.131853	8	0.013328	60	0	60-180	60	130	GapExp	0	10	2	0	0	target	0	707	-1000	37327	13.328	13.311	13.345
ProbeTrack11	22	ProbeTrack	11.2	SCS215a	20101117.131620	20101117.131910	8	0.013328	60	0	60-180	60	87	GapExp	0	11	2	1	1	target	1	507	747	38074	13.328	13.302	13.352
ProbeTrack11	22	ProbeTrack	11.2	SCS215a	20101117.131620	20101117.131916	8	0.013328	60	0	60-180	60	166	GapExp	0	12	2	0	0	distractor	1	920	540	38614	13.328	13.045	13.612
ProbeTrack11	22	ProbeTrack	11.2	SCS215a	20101117.131620	20101117.131923	8	0.013328	60	0	60-180	60	134	GapExp	0	13	2	45	1	target	1	893	554	39168	13.328	13.104	13.553
ProbeTrack11	22	ProbeTrack	11.2	SCS215a	20101117.131620	20101117.131930	8	0.013328	60	10	60-180	60	108	GapExp	0	14	2	1	0	distractor	1	733	634	39802	13.328	13.100	13.556
ProbeTrack11	22	ProbeTrack	11.2	SCS215a	20101117.131620	20101117.131936	8	0.013328	60	0	60-180	60	122	GapExp	0	15	2	3	1	target	1	640	680	40482	13.328	13.100	13.564
ProbeTrack11	22	ProbeTrack	11.2	SCS215a	20101117.131620	20101117.131942	8	0.013328	60	10	60-180	60	138	GapExp	0	16	2	1	0	distractor	1	693	654	41136	13.328	13.100	13.551
ProbeTrack11	22	ProbeTrack	11.2	SCS215a	20101117.131620	20101117.131949	8	0.013328	60	0	60-180	60	165	GapExp	0	17	2	3	0	distractor	1	574	713	41849	13.328	13.094	13.555
ProbeTrack11	22	ProbeTrack	11.2	SCS215a	20101117.131620	20101117.131955	8	0.013328	60	10	60-180	60	103	GapExp	0	18	2	1	0	distractor	1	773	614	42463	13.328	12.864	13.778
ProbeTrack11	22	ProbeTrack	11.2	SCS215a	20101117.131620	20101117.132001	8	0.013328	60	0	60-180	60	176	GapExp	0	19	2	45	0	distractor	1	534	733	43196	13.328	12.975	13.676
ProbeTrack11	22	ProbeTrack	11.2	SCS215a	20101117.131620	20101117.132009	8	0.013328	60	10	60-180	60	113	GapExp	0	20	2	0	1	target	1	573	714	43910	13.328	13.297	13.354
ProbeTrack11	22	ProbeTrack	11.2	SCS215a	20101117.131620	20101117.132015	8	0.013328	60	0	60-180	60	75	GapExp	0	21	2	1	0	distractor	1	600	700	44610	13.328	13.306	13.348
ProbeTrack11	22	ProbeTrack	11.2	SCS215a	20101117.131620	20101117.132020	8	0.013328	60	0	60-180	60	94	GapExp	0	22	2	1	0	distractor	1	680	660	45270	13.328	13.301	13.348
ProbeTrack11	22	ProbeTrack	11.2	SCS215a	20101117.131620	20101117.132026	8	0.013328	60	0	60-180	60	118	GapExp	0	23	2	0	1	target	1	560	720	45990	13.328	13.092	13.563
ProbeTrack11	22	ProbeTrack	11.2	SCS215a	20101117.131620	20101117.132032	8	0.013328	60	0	60-180	60	137	GapExp	0	24	2	1	0	distractor	1	627	687	46677	13.328	13.104	13.543
ProbeTrack11	22	ProbeTrack	11.2	SCS215a	20101117.131620	20101117.132039	8	0.013328	60	0	60-180	60	83	GapExp	0	25	2	0	1	target	1	440	780	47457	13.328	12.909	13.747
ProbeTrack11	22	ProbeTrack	11.2	SCS215a	20101117.131620	20101117.132044	8	0.013328	60	0	60-180	60	154	GapExp	0	26	2	45	0	distractor	1	454	773	48230	13.414	13.299	39.960
ProbeTrack11	22	ProbeTrack	11.2	SCS215a	20101117.131620	20101117.132051	8	0.013328	60	10	60-180	60	142	GapExp	0	27	2	45	0	distractor	1	471	765	48995	13.328	12.986	13.675
ProbeTrack11	22	ProbeTrack	11.2	SCS215a	20101117.131620	20101117.132058	8	0.013328	60	10	60-180	60	78	GapExp	0	28	2	1	0	distractor	1	733	634	49629	13.328	13.297	13.354
ProbeTrack11	22	ProbeTrack	11.2	SCS215a	20101117.131620	20101117.132104	8	0.013328	60	0	60-180	60	128	GapExp	0	29	2	0	1	distractor	0	520	-1000	48629	13.328	13.303	13.351
ProbeTrack11	22	ProbeTrack	11.2	SCS215a	20101117.131620	20101117.132110	8	0.013328	60	10	60-180	60	134	GapExp	0	30	2	0	1	target	1	507	747	49376	13.328	12.866	13.800
ProbeTrack11	22	ProbeTrack	11.2	SCS215a	20101117.131620	20101117.132116	8	0.013328	60	0	60-180	60	176	GapExp	0	31	2	45	0	distractor	1	707	647	50023	13.328	13.305	13.355
ProbeTrack11	22	ProbeTrack	11.2	SCS215a	20101117.131620	20101117.132123	8	0.013328	60	10	60-180	60	124	GapExp	0	32	2	45	1	target	1	454	773	50796	13.328	12.914	13.738
ProbeTrack11	22	ProbeTrack	11.2	SCS215a	20101117.131620	20101117.132130	8	0.013328	60	10	60-180	60	104	GapExp	0	33	2	45	0	distractor	1	560	720	51516	13.328	13.308	13.349
ProbeTrack11	22	ProbeTrack	11.2	SCS215a	20101117.131620	20101117.132137	8	0.013328	60	0	60-180	60	156	GapExp	0	34	2	3	1	target	1	587	707	52223	13.328	12.964	13.681
ProbeTrack11	22	ProbeTrack	11.2	SCS215a	20101117.131620	20101117.132144	8	0.013328	60	0	60-180	60	179	GapExp	0	35	2	0	0	32	-3	507	-1000	51223	13.328	12.891	13.790
ProbeTrack11	22	ProbeTrack	11.2	SCS215a	20101117.131620	20101117.132152	8	0.013328	60	0	60-180	60	70	GapExp	0	36	2	0	0	distractor	1	760	620	51843	13.328	12.972	13.689
ProbeTrack11	22	ProbeTrack	11.2	SCS215a	20101117.131620	20101117.132157	8	0.013328	60	10	60-180	60	65	GapExp	0	37	2	3	0	distractor	1	720	640	52483	13.328	13.273	13.384
ProbeTrack11	22	ProbeTrack	11.2	SCS215a	20101117.131620	20101117.132203	8	0.013328	60	0	60-180	60	71	GapExp	0	38	2	3	0	distractor	1	680	660	53143	13.328	12.878	13.785
ProbeTrack11	22	ProbeTrack	11.2	SCS215a	20101117.131620	20101117.132209	8	0.013328	60	0	60-180	60	70	GapExp	0	39	2	1	0	distractor	1	733	634	53777	13.328	13.102	13.545
ProbeTrack11	22	ProbeTrack	11.2	SCS215a	20101117.131620	20101117.132215	8	0.013328	60	10	60-180	60	126	GapExp	0	40	2	0	0	distractor	1	614	693	54470	13.328	13.307	13.355
ProbeTrack11	22	ProbeTrack	11.2	SCS215a	20101117.131620	20101117.132221	8	0.013328	60	10	60-180	60	157	GapExp	0	41	2	1	0	distractor	1	534	733	55203	13.328	13.306	13.355
ProbeTrack11	22	ProbeTrack	11.2	SCS215a	20101117.131620	20101117.132228	8	0.013328	60	10	60-180	60	171	GapExp	0	42	2	45	1	target	1	381	810	56013	13.328	12.919	13.738
ProbeTrack11	22	ProbeTrack	11.2	SCS215a	20101117.131620	20101117.132236	8	0.013328	60	0	60-180	60	66	GapExp	0	43	2	1	1	target	1	574	713	56726	13.328	12.871	13.777
ProbeTrack11	22	ProbeTrack	11.2	SCS215a	20101117.131620	20101117.132317	8	0.013328	60	0	60-180	60	121	GapExp	0	44	2	0	1	target	1	427	787	57513	13.328	13.308	13.344
ProbeTrack11	22	ProbeTrack	11.2	SCS215a	20101117.131620	20101117.132323	8	0.013328	60	10	60-180	60	144	GapExp	0	45	2	1	1	target	1	427	787	58300	13.328	13.309	13.344
ProbeTrack11	22	ProbeTrack	11.2	SCS215a	20101117.131620	20101117.132331	8	0.013328	60	10	60-180	60	125	GapExp	0	46	2	3	1	target	1	480	760	59060	13.328	13.119	13.545
ProbeTrack11	22	ProbeTrack	11.2	SCS215a	20101117.131620	20101117.132337	8	0.013328	60	0	60-180	60	72	GapExp	0	47	2	1	1	target	1	680	660	59720	13.328	12.969	13.702
ProbeTrack11	22	ProbeTrack	11.2	SCS215a	20101117.131620	20101117.132343	8	0.013328	60	0	60-180	60	126	GapExp	0	48	2	1	1	target	1	627	687	60407	13.328	13.276	13.360
ProbeTrack11	22	ProbeTrack	11.2	SCS215a	20101117.131620	20101117.132349	8	0.013328	60	10	60-180	60	157	GapExp	0	49	2	3	1	target	1	494	753	61160	13.328	13.052	13.590
ProbeTrack11	22	ProbeTrack	11.2	SCS215a	20101117.131620	20101117.132356	8	0.013328	60	10	60-180	60	85	GapExp	0	50	2	0	1	target	1	547	727	61887	13.328	13.098	13.561
ProbeTrack11	22	ProbeTrack	11.2	SCS215a	20101117.131620	20101117.132402	8	0.013328	60	10	60-180	60	162	GapExp	0	51	2	1	1	target	1	400	800	62687	13.328	13.308	13.343
ProbeTrack11	22	ProbeTrack	11.2	SCS215a	20101117.131620	20101117.132557	8	0.013328	60	0	60-180	60	106	GapExp	0	52	2	0	0	distractor	1	707	647	63334	13.328	12.890	13.773
ProbeTrack11	22	ProbeTrack	11.2	SCS215a	20101117.131620	20101117.132603	8	0.013328	60	10	60-180	60	170	GapExp	0	53	2	1	0	distractor	1	613	694	64028	13.328	12.906	13.753
ProbeTrack11	22	ProbeTrack	11.2	SCS215a	20101117.131620	20101117.132609	8	0.013328	60	0	60-180	60	169	GapExp	0	54	2	45	1	target	1	467	767	64795	13.328	13.307	13.347
ProbeTrack11	22	ProbeTrack	11.2	SCS215a	20101117.131620	20101117.132617	8	0.013328	60	0	60-180	60	96	GapExp	0	55	2	0	1	target	1	454	773	65568	13.328	13.309	13.344
ProbeTrack11	22	ProbeTrack	11.2	SCS215a	20101117.131620	20101117.132623	8	0.013328	60	0	60-180	60	84	GapExp	0	56	2	1	0	distractor	1	693	654	66222	13.328	13.308	13.347
ProbeTrack11	22	ProbeTrack	11.2	SCS215a	20101117.131620	20101117.132628	8	0.013328	60	10	60-180	60	145	GapExp	0	57	2	45	1	target	1	480	760	66982	13.328	12.852	13.797
ProbeTrack11	22	ProbeTrack	11.2	SCS215a	20101117.131620	20101117.132635	8	0.013328	60	10	60-180	60	72	GapExp	0	58	2	0	1	target	1	507	747	67729	13.328	12.924	13.720
ProbeTrack11	22	ProbeTrack	11.2	SCS215a	20101117.131620	20101117.132640	8	0.013328	60	0	60-180	60	150	GapExp	0	59	2	0	0	distractor	1	494	753	68482	13.328	13.286	13.364
ProbeTrack11	22	ProbeTrack	11.2	SCS215a	20101117.131620	20101117.132647	8	0.013328	60	0	60-180	60	96	GapExp	0	60	2	0	0	distractor	1	507	747	69229	13.328	13.081	13.581
ProbeTrack11	22	ProbeTrack	11.2	SCS215a	20101117.131620	20101117.132652	8	0.013328	60	0	60-180	60	134	GapExp	0	61	2	1	0	distractor	1	520	740	69969	13.328	13.299	13.362
ProbeTrack11	22	ProbeTrack	11.2	SCS215a	20101117.131620	20101117.132715	8	0.013328	60	10	60-180	60	68	GapExp	0	62	2	3	1	target	1	534	733	70702	13.328	13.307	13.344
ProbeTrack11	22	ProbeTrack	11.2	SCS215a	20101117.131620	20101117.132720	8	0.013328	60	10	60-180	60	121	GapExp	0	63	2	45	1	target	1	347	827	71529	13.328	12.968	13.689
ProbeTrack11	22	ProbeTrack	11.2	SCS215a	20101117.131620	20101117.132727	8	0.013328	60	10	60-180	60	138	GapExp	0	64	2	45	1	target	1	853	574	72103	13.328	13.305	13.348
ProbeTrack11	22	ProbeTrack	11.2	SCS215a	20101117.131620	20101117.132734	8	0.013328	60	10	60-180	60	87	GapExp	0	65	2	45	1	target	1	360	820	72923	13.328	13.307	13.346
ProbeTrack11	22	ProbeTrack	11.2	SCS215a	20101117.131620	20101117.132740	8	0.013328	60	10	60-180	60	62	GapExp	0	66	2	1	1	target	1	467	767	73690	13.328	12.975	13.661
ProbeTrack11	22	ProbeTrack	11.2	SCS215a	20101117.131620	20101117.132745	8	0.013328	60	0	60-180	60	169	GapExp	0	67	2	3	1	target	1	427	787	74477	13.328	13.105	13.549
ProbeTrack11	22	ProbeTrack	11.2	SCS215a	20101117.131620	20101117.132751	8	0.013328	60	0	60-180	60	155	GapExp	0	68	2	3	0	distractor	1	587	707	75184	13.328	13.100	13.563
ProbeTrack11	22	ProbeTrack	11.2	SCS215a	20101117.131620	20101117.132758	8	0.013328	60	0	60-180	60	124	GapExp	0	69	2	1	1	target	1	440	780	75964	13.328	13.310	13.354
ProbeTrack11	22	ProbeTrack	11.2	SCS215a	20101117.131620	20101117.132804	8	0.013328	60	0	60-180	60	85	GapExp	0	70	2	3	0	distractor	1	747	627	76591	13.328	13.063	13.586
ProbeTrack11	22	ProbeTrack	11.2	SCS215a	20101117.131620	20101117.132810	8	0.013328	60	10	60-180	60	97	GapExp	0	71	2	3	1	target	1	374	813	77404	13.328	13.305	13.348
ProbeTrack11	22	ProbeTrack	11.2	SCS215a	20101117.131620	20101117.132815	8	0.013328	60	10	60-180	60	99	GapExp	0	72	2	45	0	distractor	1	600	700	78104	13.328	12.874	13.770
ProbeTrack11	22	ProbeTrack	11.2	SCS215a	20101117.131620	20101117.132821	8	0.013328	60	0	60-180	60	129	GapExp	0	73	2	3	1	target	1	414	793	78897	13.328	13.103	13.550
ProbeTrack11	22	ProbeTrack	11.2	SCS215a	20101117.131620	20101117.132827	8	0.013328	60	10	60-180	60	94	GapExp	0	74	2	3	1	target	1	454	773	79670	13.328	13.099	13.561
ProbeTrack11	22	ProbeTrack	11.2	SCS215a	20101117.131620	20101117.132833	8	0.013328	60	0	60-180	60	139	GapExp	0	75	2	3	0	distractor	1	693	654	80324	13.328	13.306	13.356
ProbeTrack11	22	ProbeTrack	11.2	SCS215a	20101117.131620	20101117.132839	8	0.013328	60	10	60-180	60	108	GapExp	0	76	2	0	0	distractor	1	467	767	81091	13.328	13.029	13.632
ProbeTrack11	22	ProbeTrack	11.2	SCS215a	20101117.131620	20101117.132845	8	0.013328	60	0	60-180	60	123	GapExp	0	77	2	1	1	target	1	507	747	81838	13.328	13.304	13.352
ProbeTrack11	22	ProbeTrack	11.2	SCS215a	20101117.131620	20101117.132851	8	0.013328	60	0	60-180	60	150	GapExp	0	78	2	0	0	distractor	1	414	793	82631	13.328	13.310	13.345
ProbeTrack11	22	ProbeTrack	11.2	SCS215a	20101117.131620	20101117.132858	8	0.013328	60	10	60-180	60	115	GapExp	0	79	2	3	0	distractor	1	374	813	83444	13.328	12.913	13.754
ProbeTrack11	22	ProbeTrack	11.2	SCS215a	20101117.131620	20101117.132904	8	0.013328	60	0	60-180	60	172	GapExp	0	80	2	3	1	distractor	0	400	-1000	82444	13.328	13.062	13.600
ProbeTrack11	22	ProbeTrack	11.2	SCS215a	20101117.131620	20101117.132911	8	0.013328	60	0	60-180	60	133	GapExp	0	81	2	0	1	target	1	427	787	83231	13.328	13.105	13.564
ProbeTrack11	22	ProbeTrack	11.2	SCS215a	20101117.131620	20101117.132917	8	0.013328	60	0	60-180	60	109	GapExp	0	82	2	1	0	distractor	1	507	747	83978	13.328	13.110	13.546
ProbeTrack11	22	ProbeTrack	11.2	SCS215a	20101117.131620	20101117.132923	8	0.013328	60	10	60-180	60	119	GapExp	0	83	2	3	0	distractor	1	614	693	84671	13.328	13.027	13.622
ProbeTrack11	22	ProbeTrack	11.2	SCS215a	20101117.131620	20101117.132929	8	0.013328	60	10	60-180	60	105	GapExp	0	84	2	3	0	distractor	1	520	740	85411	13.328	13.309	13.348
ProbeTrack11	22	ProbeTrack	11.2	SCS215a	20101117.131620	20101117.132935	8	0.013328	60	0	60-180	60	117	GapExp	0	85	2	0	1	target	1	507	747	86158	13.328	13.309	13.346
ProbeTrack11	22	ProbeTrack	11.2	SCS215a	20101117.131620	20101117.132941	8	0.013328	60	0	60-180	60	88	GapExp	0	86	2	3	0	distractor	1	587	707	86865	13.328	13.298	13.344
ProbeTrack11	22	ProbeTrack	11.2	SCS215a	20101117.131620	20101117.132947	8	0.013328	60	10	60-180	60	134	GapExp	0	87	2	3	1	target	1	2719	0	86865	13.328	13.306	13.352
ProbeTrack11	22	ProbeTrack	11.2	SCS215a	20101117.131620	20101117.132956	8	0.013328	60	0	60-180	60	75	GapExp	0	88	2	45	0	distractor	1	547	727	87592	13.328	13.307	13.348
ProbeTrack11	22	ProbeTrack	11.2	SCS215a	20101117.131620	20101117.133003	8	0.013328	60	0	60-180	60	175	GapExp	0	89	2	0	1	target	1	600	700	88292	13.328	12.934	13.722
ProbeTrack11	22	ProbeTrack	11.2	SCS215a	20101117.131620	20101117.133010	8	0.013328	60	0	60-180	60	144	GapExp	0	90	2	45	1	target	1	494	753	89045	13.328	13.307	13.345
ProbeTrack11	22	ProbeTrack	11.2	SCS215a	20101117.131620	20101117.133017	8	0.013328	60	10	60-180	60	98	GapExp	0	91	2	45	1	target	1	360	820	89865	13.328	13.310	13.360
ProbeTrack11	22	ProbeTrack	11.2	SCS215a	20101117.131620	20101117.133023	8	0.013328	60	10	60-180	60	90	GapExp	0	92	2	3	1	target	1	440	780	90645	13.328	12.867	13.800
ProbeTrack11	22	ProbeTrack	11.2	SCS215a	20101117.131620	20101117.133032	8	0.013328	60	10	60-180	60	99	GapExp	0	93	2	45	0	distractor	1	560	720	91365	13.328	12.875	13.797
ProbeTrack11	22	ProbeTrack	11.2	SCS215a	20101117.131620	20101117.133038	8	0.013328	60	0	60-180	60	134	GapExp	0	94	2	45	0	distractor	1	494	753	92118	13.328	13.107	13.540
ProbeTrack11	22	ProbeTrack	11.2	SCS215a	20101117.131620	20101117.133101	8	0.013328	60	0	60-180	60	144	GapExp	0	95	2	1	1	target	1	547	727	92845	13.328	13.096	13.567
ProbeTrack11	22	ProbeTrack	11.2	SCS215a	20101117.131620	20101117.133108	8	0.013328	60	0	60-180	60	99	GapExp	0	96	2	3	1	target	1	507	747	93592	13.328	13.085	13.571
ProbeTrack11	22	ProbeTrack	11.2	SCS215a	20101117.131620	20101117.133114	8	0.013328	60	0	60-180	60	123	GapExp	0	97	2	3	0	distractor	1	560	720	94312	13.328	12.910	13.755
ProbeTrack11	22	ProbeTrack	11.2	SCS215a	20101117.131620	20101117.133120	8	0.013328	60	10	60-180	60	106	GapExp	0	98	2	1	0	distractor	1	480	760	95072	13.328	13.308	13.348
ProbeTrack11	22	ProbeTrack	11.2	SCS215a	20101117.131620	20101117.133126	8	0.013328	60	10	60-180	60	93	GapExp	0	99	2	3	1	distractor	0	400	-1000	94072	13.328	13.306	13.346
ProbeTrack11	22	ProbeTrack	11.2	SCS215a	20101117.131620	20101117.133132	8	0.013328	60	0	60-180	60	131	GapExp	0	100	2	3	0	distractor	1	960	520	94592	13.328	12.938	13.715
ProbeTrack11	22	ProbeTrack	11.2	SCS215a	20101117.131620	20101117.133139	8	0.013328	60	10	60-180	60	133	GapExp	0	101	2	45	1	target	1	440	780	95372	13.328	13.299	13.344
ProbeTrack11	22	ProbeTrack	11.2	SCS215a	20101117.131620	20101117.133146	8	0.013328	60	10	60-180	60	91	GapExp	0	102	2	3	0	distractor	1	694	653	96025	13.328	13.079	13.584
ProbeTrack11	22	ProbeTrack	11.2	SCS215a	20101117.131620	20101117.133152	8	0.013328	60	10	60-180	60	180	GapExp	0	103	2	3	0	distractor	1	494	753	96778	13.328	13.308	13.347
ProbeTrack11	22	ProbeTrack	11.2	SCS215a	20101117.131620	20101117.133159	8	0.013328	60	10	60-180	60	159	GapExp	0	104	2	0	1	target	1	374	813	97591	13.328	12.870	13.790
ProbeTrack11	22	ProbeTrack	11.2	SCS215a	20101117.131620	20101117.133206	8	0.013328	60	0	60-180	60	63	GapExp	0	105	2	1	1	target	1	507	747	98338	13.328	13.103	13.553
ProbeTrack11	22	ProbeTrack	11.2	SCS215a	20101117.131620	20101117.133211	8	0.013328	60	10	60-180	60	102	GapExp	0	106	2	3	0	distractor	1	480	760	99098	13.328	13.107	13.551
ProbeTrack11	22	ProbeTrack	11.2	SCS215a	20101117.131620	20101117.133217	8	0.013328	60	10	60-180	60	179	GapExp	0	107	2	3	0	distractor	1	547	727	99825	13.328	13.107	13.555
ProbeTrack11	22	ProbeTrack	11.2	SCS215a	20101117.131620	20101117.133224	8	0.013328	60	0	60-180	60	127	GapExp	0	108	2	45	1	target	1	427	787	100612	13.328	13.309	13.346
ProbeTrack11	22	ProbeTrack	11.2	SCS215a	20101117.131620	20101117.133231	8	0.013328	60	0	60-180	60	152	GapExp	0	109	2	45	0	distractor	1	573	714	101326	13.328	12.940	13.717
ProbeTrack11	22	ProbeTrack	11.2	SCS215a	20101117.131620	20101117.133238	8	0.013328	60	0	60-180	60	90	GapExp	0	110	2	1	0	distractor	1	613	694	102020	13.328	12.894	13.763
ProbeTrack11	22	ProbeTrack	11.2	SCS215a	20101117.131620	20101117.133244	8	0.013328	60	0	60-180	60	143	GapExp	0	111	2	1	1	target	1	400	800	102820	13.328	12.891	13.752
ProbeTrack11	22	ProbeTrack	11.2	SCS215a	20101117.131620	20101117.133250	8	0.013328	60	0	60-180	60	107	GapExp	0	112	2	1	0	distractor	1	520	740	103560	13.328	13.047	13.603
ProbeTrack11	22	ProbeTrack	11.2	SCS215a	20101117.131620	20101117.133256	8	0.013328	60	10	60-180	60	108	GapExp	0	113	2	45	0	distractor	1	760	620	104180	13.328	12.963	13.691
ProbeTrack11	22	ProbeTrack	11.2	SCS215a	20101117.131620	20101117.133302	8	0.013328	60	0	60-180	60	98	GapExp	0	114	2	45	0	distractor	1	480	760	104940	13.328	13.311	13.351
ProbeTrack11	22	ProbeTrack	11.2	SCS215a	20101117.131620	20101117.133309	8	0.013328	60	0	60-180	60	157	GapExp	0	115	2	45	1	target	1	560	720	105660	13.328	13.105	13.559
ProbeTrack11	22	ProbeTrack	11.2	SCS215a	20101117.131620	20101117.133316	8	0.013328	60	10	60-180	60	108	GapExp	0	116	2	0	1	target	1	574	713	106373	13.328	12.954	13.690
ProbeTrack11	22	ProbeTrack	11.2	SCS215a	20101117.131620	20101117.133322	8	0.013328	60	10	60-180	60	104	GapExp	0	117	2	1	1	target	1	427	787	107160	13.328	13.093	13.549
ProbeTrack11	22	ProbeTrack	11.2	SCS215a	20101117.131620	20101117.133328	8	0.013328	60	0	60-180	60	77	GapExp	0	118	2	0	1	target	1	427	787	107947	13.328	13.235	13.415
ProbeTrack11	22	ProbeTrack	11.2	SCS215a	20101117.131620	20101117.133333	8	0.013328	60	0	60-180	60	87	GapExp	0	119	2	45	1	target	1	334	833	108780	13.328	12.839	13.815
ProbeTrack11	22	ProbeTrack	11.2	SCS215a	20101117.131620	20101117.133341	8	0.013328	60	0	60-180	60	148	GapExp	0	120	2	0	0	distractor	1	454	773	109553	13.379	13.211	26.771
ProbeTrack11	22	ProbeTrack	11.2	SCS215a	20101117.131620	20101117.133347	8	0.013328	60	10	60-180	60	65	GapExp	0	121	2	0	1	target	1	440	780	110333	13.328	12.869	13.780
ProbeTrack11	22	ProbeTrack	11.2	SCS215a	20101117.131620	20101117.133353	8	0.013328	60	10	60-180	60	176	GapExp	0	122	2	0	1	distractor	0	334	-1000	109333	13.328	13.065	13.612
ProbeTrack11	22	ProbeTrack	11.2	SCS215a	20101117.131620	20101117.133400	8	0.013328	60	10	60-180	60	72	GapExp	0	123	2	0	1	target	1	480	760	110093	13.328	12.887	13.776
ProbeTrack11	22	ProbeTrack	11.2	SCS215a	20101117.131620	20101117.133405	8	0.013328	60	0	60-180	60	159	GapExp	0	124	2	0	1	target	1	387	807	110900	13.328	12.841	13.757
ProbeTrack11	22	ProbeTrack	11.2	SCS215a	20101117.131620	20101117.133412	8	0.013328	60	10	60-180	60	66	GapExp	0	125	2	45	1	target	1	480	760	111660	13.328	13.057	13.587
ProbeTrack11	22	ProbeTrack	11.2	SCS215a	20101117.131620	20101117.133438	8	0.013328	60	0	60-180	60	103	GapExp	0	126	2	3	0	distractor	1	614	693	112353	13.328	12.930	13.744
ProbeTrack11	22	ProbeTrack	11.2	SCS215a	20101117.131620	20101117.133444	8	0.013328	60	0	60-180	60	100	GapExp	0	127	2	3	0	distractor	1	494	753	113106	13.328	13.308	13.348
ProbeTrack11	22	ProbeTrack	11.2	SCS215a	20101117.131620	20101117.133449	8	0.013328	60	10	60-180	60	151	GapExp	0	128	2	45	0	target	0	653	-1000	112106	13.328	13.128	13.535
ProbeTrack11	22	ProbeTrack	11.2	SCS215a	20101117.131620	20101117.133457	8	0.013328	60	10	60-180	60	146	GapExp	0	129	2	1	1	target	1	427	787	112893	13.328	13.307	13.347
ProbeTrack11	22	ProbeTrack	11.2	SCS215a	20101117.131620	20101117.133545	8	0.013328	60	0	60-180	60	141	GapExp	0	130	2	0	1	target	1	480	760	113653	13.328	12.904	13.751
ProbeTrack11	22	ProbeTrack	11.2	SCS215a	20101117.131620	20101117.133551	8	0.013328	60	10	60-180	60	116	GapExp	0	131	2	3	0	distractor	1	427	787	114440	13.328	13.305	13.344
ProbeTrack11	22	ProbeTrack	11.2	SCS215a	20101117.131620	20101117.133600	8	0.013328	60	10	60-180	60	128	GapExp	0	132	2	0	0	distractor	1	427	787	115227	13.328	13.094	13.571
ProbeTrack11	22	ProbeTrack	11.2	SCS215a	20101117.131620	20101117.133713	8	0.013328	60	0	60-180	60	88	GapExp	0	133	2	0	0	distractor	1	680	660	115887	13.328	13.100	13.551
ProbeTrack11	22	ProbeTrack	11.2	SCS215a	20101117.131620	20101117.133718	8	0.013328	60	0	60-180	60	100	GapExp	0	134	2	45	1	target	1	440	780	116667	13.328	12.869	13.791
ProbeTrack11	22	ProbeTrack	11.2	SCS215a	20101117.131620	20101117.133725	8	0.013328	60	0	60-180	60	154	GapExp	0	135	2	1	0	distractor	1	520	740	117407	13.328	12.945	13.719
ProbeTrack11	22	ProbeTrack	11.2	SCS215a	20101117.131620	20101117.133731	8	0.013328	60	10	60-180	60	109	GapExp	0	136	2	3	0	distractor	1	520	740	118147	13.328	13.298	13.361
ProbeTrack11	22	ProbeTrack	11.2	SCS215a	20101117.131620	20101117.133737	8	0.013328	60	10	60-180	60	111	GapExp	0	137	2	1	0	distractor	1	507	747	118894	13.328	13.309	13.347
ProbeTrack11	22	ProbeTrack	11.2	SCS215a	20101117.131620	20101117.133743	8	0.013328	60	10	60-180	60	93	GapExp	0	138	2	0	0	distractor	1	454	773	119667	13.328	13.306	13.348
ProbeTrack11	22	ProbeTrack	11.2	SCS215a	20101117.131620	20101117.133749	8	0.013328	60	10	60-180	60	106	GapExp	0	139	2	1	0	distractor	1	467	767	120434	13.328	13.090	13.557
ProbeTrack11	22	ProbeTrack	11.2	SCS215a	20101117.131620	20101117.133755	8	0.013328	60	0	60-180	60	129	GapExp	0	140	2	1	0	distractor	1	520	740	121174	13.328	13.096	13.567
ProbeTrack11	22	ProbeTrack	11.2	SCS215a	20101117.131620	20101117.133801	8	0.013328	60	0	60-180	60	79	GapExp	0	141	2	1	1	target	1	707	647	121821	13.328	13.137	13.519
ProbeTrack11	22	ProbeTrack	11.2	SCS215a	20101117.131620	20101117.133807	8	0.013328	60	0	60-180	60	151	GapExp	0	142	2	1	0	distractor	1	520	740	122561	13.328	13.101	13.542
ProbeTrack11	22	ProbeTrack	11.2	SCS215a	20101117.131620	20101117.133816	8	0.013328	60	10	60-180	60	154	GapExp	0	143	2	45	0	distractor	1	480	760	123321	13.328	12.926	13.729
ProbeTrack11	22	ProbeTrack	11.2	SCS215a	20101117.131620	20101117.133823	8	0.013328	60	10	60-180	60	159	GapExp	0	144	2	3	1	target	1	454	773	124094	13.328	12.941	13.695
ProbeTrack11	22	ProbeTrack	11.2	SCS215a	20101117.131620	20101117.133829	8	0.013328	60	10	60-180	60	64	GapExp	0	145	2	0	0	distractor	1	467	767	124861	13.328	13.252	13.404
ProbeTrack11	22	ProbeTrack	11.2	SCS215a	20101117.131620	20101117.133835	8	0.013328	60	0	60-180	60	163	GapExp	0	146	2	3	1	target	1	640	680	125541	13.328	13.309	13.347
ProbeTrack11	22	ProbeTrack	11.2	SCS215a	20101117.131620	20101117.133841	8	0.013328	60	0	60-180	60	175	GapExp	0	147	2	0	1	target	1	427	787	126328	13.328	13.092	13.563
ProbeTrack11	22	ProbeTrack	11.2	SCS215a	20101117.131620	20101117.134023	8	0.013328	60	10	60-180	60	111	GapExp	0	148	2	1	1	target	1	454	773	127101	13.328	12.871	13.784
ProbeTrack11	22	ProbeTrack	11.2	SCS215a	20101117.131620	20101117.134029	8	0.013328	60	10	60-180	60	139	GapExp	0	149	2	1	0	distractor	1	494	753	127854	13.328	13.033	13.631
ProbeTrack11	22	ProbeTrack	11.2	SCS215a	20101117.131620	20101117.134035	8	0.013328	60	0	60-180	60	68	GapExp	0	150	2	0	0	distractor	1	747	627	128481	13.328	12.888	13.751
ProbeTrack11	22	ProbeTrack	11.2	SCS215a	20101117.131620	20101117.134041	8	0.013328	60	10	60-180	60	175	GapExp	0	151	2	3	1	target	1	360	820	129301	13.328	12.914	13.733
ProbeTrack11	22	ProbeTrack	11.2	SCS215a	20101117.131620	20101117.134048	8	0.013328	60	10	60-180	60	113	GapExp	0	152	2	0	0	distractor	1	494	753	130054	13.328	13.289	13.373
ProbeTrack11	22	ProbeTrack	11.2	SCS215a	20101117.131620	20101117.134054	8	0.013328	60	0	60-180	60	63	GapExp	0	153	2	45	0	distractor	1	467	767	130821	13.328	12.936	13.725
ProbeTrack11	22	ProbeTrack	11.2	SCS215a	20101117.131620	20101117.134059	8	0.013328	60	0	60-180	60	136	GapExp	0	154	2	3	1	target	1	494	753	131574	13.328	12.960	13.693
ProbeTrack11	22	ProbeTrack	11.2	SCS215a	20101117.131620	20101117.134108	8	0.013328	60	10	60-180	60	88	GapExp	0	155	2	0	1	target	1	587	707	132281	13.328	13.305	13.351
ProbeTrack11	22	ProbeTrack	11.2	SCS215a	20101117.131620	20101117.134113	8	0.013328	60	10	60-180	60	90	GapExp	0	156	2	45	0	distractor	1	480	760	133041	13.328	13.095	13.569
ProbeTrack11	22	ProbeTrack	11.2	SCS215a	20101117.131620	20101117.134120	8	0.013328	60	10	60-180	60	160	GapExp	0	157	2	0	0	distractor	1	334	833	133874	13.328	13.040	13.603
ProbeTrack11	22	ProbeTrack	11.2	SCS215a	20101117.131620	20101117.134126	8	0.013328	60	0	60-180	60	68	GapExp	0	158	2	1	0	distractor	1	547	727	134601	13.328	13.096	13.570
ProbeTrack11	22	ProbeTrack	11.2	SCS215a	20101117.131620	20101117.134131	8	0.013328	60	0	60-180	60	94	GapExp	0	159	2	3	1	target	1	440	780	135381	13.328	12.957	13.682
ProbeTrack11	22	ProbeTrack	11.2	SCS215a	20101117.131620	20101117.134136	8	0.013328	60	10	60-180	60	87	GapExp	0	160	2	45	1	target	1	467	767	136148	13.328	13.151	13.514
ProbeTrack11	22	ProbeTrack	11.2	SCS215a	20101117.131620	20101117.134143	8	0.013328	60	0	60-180	60	178	GapExp	0	161	2	0	0	distractor	1	573	714	136862	13.328	12.950	13.706
ProbeTrack11	22	ProbeTrack	11.2	SCS215a	20101117.131620	20101117.134149	8	0.013328	60	10	60-180	60	146	GapExp	0	162	2	1	1	target	1	400	800	137662	13.328	13.053	13.604
ProbeTrack11	22	ProbeTrack	11.2	SCS215a	20101117.131620	20101117.134155	8	0.013328	60	0	60-180	60	168	GapExp	0	163	2	1	0	distractor	1	494	753	138415	13.328	12.953	13.708
ProbeTrack11	22	ProbeTrack	11.2	SCS215a	20101117.131620	20101117.134202	8	0.013328	60	0	60-180	60	70	GapExp	0	164	2	45	1	distractor	0	534	-1000	137415	13.328	12.843	13.801
ProbeTrack11	22	ProbeTrack	11.2	SCS215a	20101117.131620	20101117.134209	8	0.013328	60	0	60-180	60	77	GapExp	0	165	2	0	1	target	1	440	780	138195	13.328	13.087	13.558
ProbeTrack11	22	ProbeTrack	11.2	SCS215a	20101117.131620	20101117.134214	8	0.013328	60	0	60-180	60	99	GapExp	0	166	2	1	0	distractor	1	534	733	138928	13.328	12.930	13.733
ProbeTrack11	22	ProbeTrack	11.2	SCS215a	20101117.131620	20101117.134220	8	0.013328	60	10	60-180	60	137	GapExp	0	167	2	3	0	target	0	680	-1000	137928	13.328	13.129	13.511
ProbeTrack11	22	ProbeTrack	11.2	SCS215a	20101117.131620	20101117.134226	8	0.013328	60	0	60-180	60	167	GapExp	0	168	2	0	1	target	1	360	820	138748	13.328	13.309	13.346
ProbeTrack11	22	ProbeTrack	11.2	SCS215a	20101117.131620	20101117.134232	8	0.013328	60	0	60-180	60	112	GapExp	0	169	2	1	1	target	1	427	787	139535	13.328	13.304	13.348
ProbeTrack11	22	ProbeTrack	11.2	SCS215a	20101117.131620	20101117.134238	8	0.013328	60	0	60-180	60	81	GapExp	0	170	2	0	1	target	1	400	800	140335	13.328	12.871	13.778
ProbeTrack11	22	ProbeTrack	11.2	SCS215a	20101117.131620	20101117.134243	8	0.013328	60	10	60-180	60	86	GapExp	0	171	2	45	0	distractor	1	387	807	141142	13.328	12.909	13.749
ProbeTrack11	22	ProbeTrack	11.2	SCS215a	20101117.131620	20101117.134249	8	0.013328	60	0	60-180	60	140	GapExp	0	172	2	3	1	target	1	467	767	141909	13.328	12.912	13.745
ProbeTrack11	22	ProbeTrack	11.2	SCS215a	20101117.131620	20101117.134255	8	0.013328	60	0	60-180	60	156	GapExp	0	173	2	45	1	target	1	440	780	142689	13.328	12.871	13.796
ProbeTrack11	22	ProbeTrack	11.2	SCS215a	20101117.131620	20101117.134302	8	0.013328	60	10	60-180	60	109	GapExp	0	174	2	3	0	distractor	1	520	740	143429	13.328	13.183	13.474
ProbeTrack11	22	ProbeTrack	11.2	SCS215a	20101117.131620	20101117.134308	8	0.013328	60	10	60-180	60	162	GapExp	0	175	2	1	1	target	1	387	807	144236	13.328	12.960	13.682
ProbeTrack11	22	ProbeTrack	11.2	SCS215a	20101117.131620	20101117.134315	8	0.013328	60	10	60-180	60	86	GapExp	0	176	2	0	0	distractor	1	712	644	144880	13.329	13.100	13.620
ProbeTrack11	22	ProbeTrack	11.2	SCS215a	20101117.131620	20101117.134330	8	0.013328	60	0	60-180	60	133	GapExp	0	177	2	3	0	distractor	1	534	733	145613	13.328	13.310	13.345
ProbeTrack11	22	ProbeTrack	11.2	SCS215a	20101117.131620	20101117.134337	8	0.013328	60	10	60-180	60	154	GapExp	0	178	2	0	1	target	1	374	813	146426	13.328	13.309	13.349
ProbeTrack11	22	ProbeTrack	11.2	SCS215a	20101117.131620	20101117.134343	8	0.013328	60	10	60-180	60	141	GapExp	0	179	2	1	0	distractor	1	534	733	147159	13.328	13.308	13.350
ProbeTrack11	22	ProbeTrack	11.2	SCS215a	20101117.131620	20101117.134350	8	0.013328	60	0	60-180	60	151	GapExp	0	180	2	0	1	target	1	427	787	147946	13.328	13.306	13.347
ProbeTrack11	22	ProbeTrack	11.2	SCS215a	20101117.131620	20101117.134356	8	0.013328	60	0	60-180	60	88	GapExp	0	181	2	0	0	distractor	1	587	707	148653	13.328	13.122	13.559
ProbeTrack11	22	ProbeTrack	11.2	SCS215a	20101117.131620	20101117.134402	8	0.013328	60	10	60-180	60	88	GapExp	0	182	2	3	0	distractor	1	427	787	149440	13.328	13.302	13.353
ProbeTrack11	22	ProbeTrack	11.2	SCS215a	20101117.131620	20101117.134408	8	0.013328	60	10	60-180	60	72	GapExp	0	183	2	45	1	target	1	334	833	150273	13.328	12.968	13.679
ProbeTrack11	22	ProbeTrack	11.2	SCS215a	20101117.131620	20101117.134414	8	0.013328	60	0	60-180	60	79	GapExp	0	184	2	45	0	distractor	1	653	674	150947	13.328	12.995	13.651
ProbeTrack11	22	ProbeTrack	11.2	SCS215a	20101117.131620	20101117.134420	8	0.013328	60	0	60-180	60	133	GapExp	0	185	2	3	0	distractor	1	427	787	151734	13.328	13.095	13.558
ProbeTrack11	22	ProbeTrack	11.2	SCS215a	20101117.131620	20101117.134426	8	0.013328	60	0	60-180	60	87	GapExp	0	186	2	1	1	target	1	400	800	152534	13.328	13.307	13.348
ProbeTrack11	22	ProbeTrack	11.2	SCS215a	20101117.131620	20101117.134431	8	0.013328	60	10	60-180	60	101	GapExp	0	187	2	0	0	distractor	1	534	733	153267	13.328	13.309	13.347
ProbeTrack11	22	ProbeTrack	11.2	SCS215a	20101117.131620	20101117.134437	8	0.013328	60	0	60-180	60	149	GapExp	0	188	2	45	0	distractor	1	560	720	153987	13.328	12.953	13.697
ProbeTrack11	22	ProbeTrack	11.2	SCS215a	20101117.131620	20101117.134444	8	0.013328	60	0	60-180	60	110	GapExp	0	189	2	3	1	target	1	480	760	154747	13.328	13.032	13.610
ProbeTrack11	22	ProbeTrack	11.2	SCS215a	20101117.131620	20101117.134450	8	0.013328	60	0	60-180	60	152	GapExp	0	190	2	3	1	target	1	520	740	155487	13.328	13.099	13.553
ProbeTrack11	22	ProbeTrack	11.2	SCS215a	20101117.131620	20101117.134457	8	0.013328	60	10	60-180	60	89	GapExp	0	191	2	0	1	target	1	414	793	156280	13.328	12.843	13.812
ProbeTrack11	22	ProbeTrack	11.2	SCS215a	20101117.131620	20101117.134502	8	0.013328	60	0	60-180	60	92	GapExp	0	192	2	45	0	distractor	1	600	700	156980	13.328	12.848	13.804
ProbeTrack11	22	ProbeTrack	11.2	SCS215a	20101117.131620	20101117.134511	8	0.013328	60	0	60-180	60	74	GapExp	0	193	2	1	1	target	1	533	734	157714	13.328	13.091	13.572
ProbeTrack11	22	ProbeTrack	11.2	SCS215a	20101117.131620	20101117.134516	8	0.013328	60	10	60-180	60	172	GapExp	0	194	2	0	1	target	1	694	653	158367	13.328	12.860	13.784
ProbeTrack11	22	ProbeTrack	11.2	SCS215a	20101117.131620	20101117.134523	8	0.013328	60	0	60-180	60	97	GapExp	0	195	2	1	0	distractor	1	480	760	159127	13.328	13.104	13.544
ProbeTrack11	22	ProbeTrack	11.2	SCS215a	20101117.131620	20101117.134529	8	0.013328	60	10	60-180	60	78	GapExp	0	196	2	1	1	target	1	400	800	159927	13.328	12.907	13.757
ProbeTrack11	22	ProbeTrack	11.2	SCS215a	20101117.131620	20101117.134534	8	0.013328	60	0	60-180	60	64	GapExp	0	197	2	3	1	target	1	427	787	160714	13.328	13.307	13.343
ProbeTrack11	22	ProbeTrack	11.2	SCS215a	20101117.131620	20101117.134539	8	0.013328	60	10	60-180	60	149	GapExp	0	198	2	3	1	target	1	347	827	161541	13.328	12.836	13.817
ProbeTrack11	22	ProbeTrack	11.2	SCS215a	20101117.131620	20101117.134546	8	0.013328	60	10	60-180	60	130	GapExp	0	199	2	3	1	target	1	374	813	162354	13.328	13.309	13.346
ProbeTrack11	22	ProbeTrack	11.2	SCS215a	20101117.131620	20101117.134552	8	0.013328	60	0	60-180	60	174	GapExp	0	200	2	1	1	target	1	454	773	163127	13.328	13.016	13.654
ProbeTrack11	22	ProbeTrack	11.2	SCS215a	20101117.131620	20101117.134559	8	0.013328	60	10	60-180	60	135	GapExp	0	201	2	45	0	distractor	1	587	707	163834	13.328	13.015	13.669
ProbeTrack11	22	ProbeTrack	11.2	SCS215a	20101117.131620	20101117.134606	8	0.013328	60	10	60-180	60	177	GapExp	0	202	2	45	0	target	0	534	-1000	162834	13.328	13.103	13.561
ProbeTrack11	22	ProbeTrack	11.2	SCS215a	20101117.131620	20101117.134614	8	0.013328	60	0	60-180	60	157	GapExp	0	203	2	3	1	target	1	560	720	163554	13.328	13.094	13.555
ProbeTrack11	22	ProbeTrack	11.2	SCS215a	20101117.131620	20101117.134620	8	0.013328	60	10	60-180	60	126	GapExp	0	204	2	3	1	target	1	520	740	164294	13.328	12.870	13.780
ProbeTrack11	22	ProbeTrack	11.2	SCS215a	20101117.131620	20101117.134627	8	0.013328	60	10	60-180	60	78	GapExp	0	205	2	45	1	target	1	454	773	165067	13.328	13.113	13.536
ProbeTrack11	22	ProbeTrack	11.2	SCS215a	20101117.131620	20101117.134632	8	0.013328	60	0	60-180	60	180	GapExp	0	206	2	3	0	distractor	1	533	734	165801	13.328	12.884	13.787
ProbeTrack11	22	ProbeTrack	11.2	SCS215a	20101117.131620	20101117.134639	8	0.013328	60	0	60-180	60	140	GapExp	0	207	2	45	1	target	1	507	747	166548	13.328	12.878	13.775
ProbeTrack11	22	ProbeTrack	11.2	SCS215a	20101117.131620	20101117.134646	8	0.013328	60	0	60-180	60	110	GapExp	0	208	2	3	1	target	1	480	760	167308	13.328	13.057	13.613
ProbeTrack11	22	ProbeTrack	11.2	SCS215a	20101117.131620	20101117.134652	8	0.013328	60	10	60-180	60	102	GapExp	0	209	2	3	1	distractor	0	467	-1000	166308	13.328	13.099	13.694
ProbeTrack11	22	ProbeTrack	11.2	SCS215a	20101117.131620	20101117.134658	8	0.013328	60	10	60-180	60	155	GapExp	0	210	2	3	0	distractor	1	467	767	167075	13.328	13.107	13.549
ProbeTrack11	22	ProbeTrack	11.2	SCS215a	20101117.131620	20101117.134832	8	0.013328	60	10	60-180	60	86	GapExp	0	211	2	45	0	target	0	454	-1000	166075	13.328	12.675	14.001
ProbeTrack11	22	ProbeTrack	11.2	SCS215a	20101117.131620	20101117.134838	8	0.013328	60	10	60-180	60	137	GapExp	0	212	2	3	1	target	1	387	807	166882	13.328	12.985	13.673
ProbeTrack11	22	ProbeTrack	11.2	SCS215a	20101117.131620	20101117.134845	8	0.013328	60	10	60-180	60	117	GapExp	0	213	2	1	0	distractor	1	454	773	167655	13.328	13.305	13.351
ProbeTrack11	22	ProbeTrack	11.2	SCS215a	20101117.131620	20101117.134850	8	0.013328	60	10	60-180	60	142	GapExp	0	214	2	3	0	distractor	1	507	747	168402	13.328	13.138	13.515
ProbeTrack11	22	ProbeTrack	11.2	SCS215a	20101117.131620	20101117.134857	8	0.013328	60	0	60-180	60	106	GapExp	0	215	2	0	0	distractor	1	547	727	169129	13.328	12.879	13.706
ProbeTrack11	22	ProbeTrack	11.2	SCS215a	20101117.131620	20101117.134904	8	0.013328	60	0	60-180	60	90	GapExp	0	216	2	45	0	distractor	1	467	767	169896	13.328	12.857	13.794
ProbeTrack11	22	ProbeTrack	11.2	SCS215a	20101117.131620	20101117.134914	8	0.013328	60	10	60-180	60	102	GapExp	0	217	2	0	0	distractor	1	507	747	170643	13.328	13.308	13.346
ProbeTrack11	22	ProbeTrack	11.2	SCS215a	20101117.131620	20101117.134919	8	0.013328	60	0	60-180	60	143	GapExp	0	218	2	3	1	target	1	400	800	171443	13.328	12.868	13.798
ProbeTrack11	22	ProbeTrack	11.2	SCS215a	20101117.131620	20101117.134925	8	0.013328	60	10	60-180	60	112	GapExp	0	219	2	45	1	target	1	417	792	172235	13.328	12.947	13.705
ProbeTrack11	22	ProbeTrack	11.2	SCS215a	20101117.131620	20101117.134932	8	0.013328	60	10	60-180	60	118	GapExp	0	220	2	3	1	target	1	440	780	173015	13.328	13.306	13.350
ProbeTrack11	22	ProbeTrack	11.2	SCS215a	20101117.131620	20101117.134938	8	0.013328	60	0	60-180	60	61	GapExp	0	221	2	3	1	target	1	520	740	173755	13.328	13.310	13.349
ProbeTrack11	22	ProbeTrack	11.2	SCS215a	20101117.131620	20101117.134945	8	0.013328	60	10	60-180	60	98	GapExp	0	222	2	45	1	target	1	320	840	174595	13.328	13.310	13.345
ProbeTrack11	22	ProbeTrack	11.2	SCS215a	20101117.131620	20101117.134951	8	0.013328	60	10	60-180	60	126	GapExp	0	223	2	0	0	distractor	1	547	727	175322	13.328	12.871	13.786
ProbeTrack11	22	ProbeTrack	11.2	SCS215a	20101117.131620	20101117.134957	8	0.013328	60	0	60-180	60	119	GapExp	0	224	2	0	0	distractor	1	827	587	175909	13.328	13.090	13.557
ProbeTrack11	22	ProbeTrack	11.2	SCS215a	20101117.131620	20101117.135003	8	0.013328	60	10	60-180	60	105	GapExp	0	225	2	45	1	target	1	440	780	176689	13.328	13.106	13.549
ProbeTrack11	22	ProbeTrack	11.2	SCS215a	20101117.131620	20101117.135010	8	0.013328	60	10	60-180	60	95	GapExp	0	226	2	1	1	target	1	400	800	177489	13.328	13.308	13.346
ProbeTrack11	22	ProbeTrack	11.2	SCS215a	20101117.131620	20101117.135015	8	0.013328	60	10	60-180	60	78	GapExp	0	227	2	0	1	target	1	374	813	178302	13.328	12.910	13.756
ProbeTrack11	22	ProbeTrack	11.2	SCS215a	20101117.131620	20101117.135021	8	0.013328	60	10	60-180	60	87	GapExp	0	228	2	45	1	target	1	374	813	179115	13.328	13.295	13.353
ProbeTrack11	22	ProbeTrack	11.2	SCS215a	20101117.131620	20101117.135026	8	0.013328	60	0	60-180	60	107	GapExp	0	229	2	45	0	target	0	600	-1000	178115	13.328	13.241	13.415
ProbeTrack11	22	ProbeTrack	11.2	SCS215a	20101117.131620	20101117.135033	8	0.013328	60	0	60-180	60	113	GapExp	0	230	2	3	0	distractor	1	627	687	178802	13.328	12.891	13.754
ProbeTrack11	22	ProbeTrack	11.2	SCS215a	20101117.131620	20101117.135039	8	0.013328	60	10	60-180	60	84	GapExp	0	231	2	0	1	target	1	440	780	179582	13.328	13.100	13.554
ProbeTrack11	22	ProbeTrack	11.2	SCS215a	20101117.131620	20101117.135045	8	0.013328	60	10	60-180	60	179	GapExp	0	232	2	1	0	distractor	1	907	547	180129	13.328	13.307	13.347
ProbeTrack11	22	ProbeTrack	11.2	SCS215a	20101117.131620	20101117.135052	8	0.013328	60	10	60-180	60	62	GapExp	0	233	2	45	0	distractor	1	547	727	180856	13.328	13.098	13.565
ProbeTrack11	22	ProbeTrack	11.2	SCS215a	20101117.131620	20101117.135058	8	0.013328	60	10	60-180	60	73	GapExp	0	234	2	1	0	distractor	1	614	693	181549	13.328	13.308	13.349
ProbeTrack11	22	ProbeTrack	11.2	SCS215a	20101117.131620	20101117.135103	8	0.013328	60	0	60-180	60	62	GapExp	0	235	2	45	1	target	1	480	760	182309	13.328	13.307	13.346
ProbeTrack11	22	ProbeTrack	11.2	SCS215a	20101117.131620	20101117.135109	8	0.013328	60	0	60-180	60	141	GapExp	0	236	2	0	1	target	1	427	787	183096	13.328	13.102	13.346
ProbeTrack11	22	ProbeTrack	11.2	SCS215a	20101117.131620	20101117.135115	8	0.013328	60	10	60-180	60	173	GapExp	0	237	2	3	1	target	1	400	800	183896	13.328	12.869	13.792
ProbeTrack11	22	ProbeTrack	11.2	SCS215a	20101117.131620	20101117.135121	8	0.013328	60	10	60-180	60	154	GapExp	0	238	2	45	0	distractor	1	574	713	184609	13.328	13.130	13.532
ProbeTrack11	22	ProbeTrack	11.2	SCS215a	20101117.131620	20101117.135129	8	0.013328	60	0	60-180	60	90	GapExp	0	239	2	1	1	target	1	707	647	185256	13.328	13.105	13.557
ProbeTrack11	22	ProbeTrack	11.2	SCS215a	20101117.131620	20101117.135134	8	0.013328	60	10	60-180	60	93	GapExp	0	240	2	0	0	distractor	1	600	700	185956	13.328	13.097	13.550
ProbeTrack11	22	ProbeTrack	11.2	SCS215a	20101117.131620	20101117.135140	8	0.013328	60	0	60-180	60	168	GapExp	0	241	2	1	1	target	1	360	820	186776	13.328	12.861	13.779
ProbeTrack11	22	ProbeTrack	11.2	SCS215a	20101117.131620	20101117.135146	8	0.013328	60	10	60-180	60	114	GapExp	0	242	2	0	1	target	1	347	827	187603	13.328	13.037	13.600
ProbeTrack11	22	ProbeTrack	11.2	SCS215a	20101117.131620	20101117.135154	8	0.013328	60	10	60-180	60	136	GapExp	0	243	2	1	1	target	1	387	807	188410	13.328	13.095	13.561
ProbeTrack11	22	ProbeTrack	11.2	SCS215a	20101117.131620	20101117.135200	8	0.013328	60	10	60-180	60	97	GapExp	0	244	2	45	0	distractor	1	534	733	189143	13.328	12.878	13.786
ProbeTrack11	22	ProbeTrack	11.2	SCS215a	20101117.131620	20101117.135207	8	0.013328	60	0	60-180	60	64	GapExp	0	245	2	3	1	target	1	640	680	189823	13.397	13.132	26.855
ProbeTrack11	22	ProbeTrack	11.2	SCS215a	20101117.131620	20101117.135212	8	0.013328	60	10	60-180	60	106	GapExp	0	246	2	3	0	distractor	1	480	760	190583	13.328	13.300	13.370
ProbeTrack11	22	ProbeTrack	11.2	SCS215a	20101117.131620	20101117.135218	8	0.013328	60	0	60-180	60	144	GapExp	0	247	2	45	1	target	1	400	800	191383	13.328	12.947	13.691
ProbeTrack11	22	ProbeTrack	11.2	SCS215a	20101117.131620	20101117.135227	8	0.013328	60	10	60-180	60	117	GapExp	0	248	2	45	0	distractor	1	494	753	192136	13.328	13.067	13.580
ProbeTrack11	22	ProbeTrack	11.2	SCS215a	20101117.131620	20101117.135234	8	0.013328	60	0	60-180	60	74	GapExp	0	249	2	45	1	target	1	454	773	192909	13.328	12.886	13.778
ProbeTrack11	22	ProbeTrack	11.2	SCS215a	20101117.131620	20101117.135240	8	0.013328	60	0	60-180	60	106	GapExp	0	250	2	45	0	distractor	1	494	753	193662	13.328	13.305	13.351
ProbeTrack11	22	ProbeTrack	11.2	SCS215a	20101117.131620	20101117.135248	8	0.013328	60	10	60-180	60	130	GapExp	0	251	2	45	1	target	1	440	780	194442	13.328	13.307	13.348
ProbeTrack11	22	ProbeTrack	11.2	SCS215a	20101117.131620	20101117.135255	8	0.013328	60	10	60-180	60	77	GapExp	0	252	2	3	0	distractor	1	480	760	195202	13.328	13.091	13.554
ProbeTrack11	22	ProbeTrack	11.2	SCS215a	20101117.131620	20101117.135300	8	0.013328	60	0	60-180	60	140	GapExp	0	253	2	3	1	target	1	427	787	195989	13.328	13.310	13.349
ProbeTrack11	22	ProbeTrack	11.2	SCS215a	20101117.131620	20101117.135307	8	0.013328	60	10	60-180	60	95	GapExp	0	254	2	3	1	target	1	427	787	196776	13.328	13.105	13.550
ProbeTrack11	22	ProbeTrack	11.2	SCS215a	20101117.131620	20101117.135313	8	0.013328	60	0	60-180	60	173	GapExp	0	255	2	0	0	distractor	1	507	747	197523	13.328	13.084	13.571
ProbeTrack11	22	ProbeTrack	11.2	SCS215a	20101117.131620	20101117.135320	8	0.013328	60	0	60-180	60	93	GapExp	0	256	2	3	0	distractor	1	747	627	198150	13.328	12.838	13.816
ProbeTrack11	22	ProbeTrack	11.2	SCS215a	20101117.131620	20101117.135326	8	0.013328	60	0	60-180	60	171	GapExp	0	257	2	3	0	distractor	1	480	760	198910	13.328	13.099	13.562
ProbeTrack11	22	ProbeTrack	11.2	SCS215a	20101117.131620	20101117.135333	8	0.013328	60	10	60-180	60	155	GapExp	0	258	2	1	1	target	1	534	733	199643	13.328	13.310	13.347
ProbeTrack11	22	ProbeTrack	11.2	SCS215a	20101117.131620	20101117.135339	8	0.013328	60	10	60-180	60	180	GapExp	0	259	2	3	1	target	1	374	813	200456	13.328	13.009	13.666
ProbeTrack11	22	ProbeTrack	11.2	SCS215a	20101117.131620	20101117.135346	8	0.013328	60	10	60-180	60	156	GapExp	0	260	2	1	1	target	1	440	780	201236	13.328	13.310	13.353
ProbeTrack11	22	ProbeTrack	11.2	SCS215a	20101117.131620	20101117.135358	8	0.013328	60	10	60-180	60	145	GapExp	0	261	2	1	0	distractor	1	654	673	201909	13.328	13.303	13.347
ProbeTrack11	22	ProbeTrack	11.2	SCS215a	20101117.131620	20101117.135405	8	0.013328	60	0	60-180	60	68	GapExp	0	262	2	1	1	target	1	454	773	202682	13.328	13.036	13.620
ProbeTrack11	22	ProbeTrack	11.2	SCS215a	20101117.131620	20101117.135410	8	0.013328	60	10	60-180	60	124	GapExp	0	263	2	0	1	target	1	454	773	203455	13.328	12.955	13.705
ProbeTrack11	22	ProbeTrack	11.2	SCS215a	20101117.131620	20101117.135416	8	0.013328	60	10	60-180	60	111	GapExp	0	264	2	45	1	target	1	320	840	204295	13.328	13.085	13.552
ProbeTrack11	22	ProbeTrack	11.2	SCS215a	20101117.131620	20101117.135423	8	0.013328	60	10	60-180	60	103	GapExp	0	265	2	3	0	distractor	1	520	740	205035	13.328	13.099	13.570
ProbeTrack11	22	ProbeTrack	11.2	SCS215a	20101117.131620	20101117.135429	8	0.013328	60	10	60-180	60	127	GapExp	0	266	2	0	0	distractor	1	467	767	205802	13.328	13.094	13.541
ProbeTrack11	22	ProbeTrack	11.2	SCS215a	20101117.131620	20101117.135435	8	0.013328	60	10	60-180	60	141	GapExp	0	267	2	0	0	distractor	1	440	780	206582	13.328	13.279	13.374
ProbeTrack11	22	ProbeTrack	11.2	SCS215a	20101117.131620	20101117.135441	8	0.013328	60	10	60-180	60	74	GapExp	0	268	2	0	0	distractor	1	494	753	207335	13.328	13.237	13.406
ProbeTrack11	22	ProbeTrack	11.2	SCS215a	20101117.131620	20101117.135447	8	0.013328	60	10	60-180	60	85	GapExp	0	269	2	45	0	distractor	1	520	740	208075	13.328	13.309	13.344
ProbeTrack11	22	ProbeTrack	11.2	SCS215a	20101117.131620	20101117.135453	8	0.013328	60	10	60-180	60	79	GapExp	0	270	2	1	1	target	1	427	787	208862	13.328	13.309	13.347
ProbeTrack11	22	ProbeTrack	11.2	SCS215a	20101117.131620	20101117.135459	8	0.013328	60	0	60-180	60	152	GapExp	0	271	2	45	0	distractor	1	760	620	209482	13.328	13.104	13.537
ProbeTrack11	22	ProbeTrack	11.2	SCS215a	20101117.131620	20101117.135506	8	0.013328	60	0	60-180	60	121	GapExp	0	272	2	45	1	target	1	427	787	210269	13.328	13.093	13.573
ProbeTrack11	22	ProbeTrack	11.2	SCS215a	20101117.131620	20101117.135513	8	0.013328	60	0	60-180	60	110	GapExp	0	273	2	3	0	distractor	1	613	694	210963	13.328	12.851	13.802
ProbeTrack11	22	ProbeTrack	11.2	SCS215a	20101117.131620	20101117.135519	8	0.013328	60	0	60-180	60	178	GapExp	0	274	2	0	1	target	1	507	747	211710	13.328	13.311	13.344
ProbeTrack11	22	ProbeTrack	11.2	SCS215a	20101117.131620	20101117.135633	8	0.013328	60	0	60-180	60	107	GapExp	0	275	2	45	0	distractor	1	454	773	212483	13.328	13.304	13.345
ProbeTrack11	22	ProbeTrack	11.2	SCS215a	20101117.131620	20101117.135722	8	0.013328	60	10	60-180	60	104	GapExp	0	276	2	3	1	target	1	400	800	213283	13.328	13.064	13.591
ProbeTrack11	22	ProbeTrack	11.2	SCS215a	20101117.131620	20101117.135728	8	0.013328	60	10	60-180	60	76	GapExp	0	277	2	1	1	target	1	360	820	214103	13.328	13.184	13.466
ProbeTrack11	22	ProbeTrack	11.2	SCS215a	20101117.131620	20101117.135733	8	0.013328	60	0	60-180	60	141	GapExp	0	278	2	45	1	target	1	427	787	214890	13.328	13.116	13.540
ProbeTrack11	22	ProbeTrack	11.2	SCS215a	20101117.131620	20101117.135740	8	0.013328	60	0	60-180	60	151	GapExp	0	279	2	1	1	distractor	0	520	-1000	213890	13.328	13.093	13.551
ProbeTrack11	22	ProbeTrack	11.2	SCS215a	20101117.131620	20101117.135746	8	0.013328	60	10	60-180	60	163	GapExp	0	280	2	45	1	target	1	454	773	214663	13.328	13.093	13.565
ProbeTrack11	22	ProbeTrack	11.2	SCS215a	20101117.131620	20101117.135754	8	0.013328	60	10	60-180	60	143	GapExp	0	281	2	45	1	target	1	374	813	215476	13.328	12.911	13.749
ProbeTrack11	22	ProbeTrack	11.2	SCS215a	20101117.131620	20101117.135800	8	0.013328	60	10	60-180	60	75	GapExp	0	282	2	1	1	target	1	414	793	216269	13.328	12.857	13.794
ProbeTrack11	22	ProbeTrack	11.2	SCS215a	20101117.131620	20101117.135805	8	0.013328	60	0	60-180	60	142	GapExp	0	283	2	3	1	target	1	400	800	217069	13.328	13.105	13.553
ProbeTrack11	22	ProbeTrack	11.2	SCS215a	20101117.131620	20101117.135814	8	0.013328	60	0	60-180	60	108	GapExp	0	284	2	0	0	distractor	1	680	660	217729	13.328	13.101	13.562
ProbeTrack11	22	ProbeTrack	11.2	SCS215a	20101117.131620	20101117.135821	8	0.013328	60	0	60-180	60	161	GapExp	0	285	2	45	1	target	1	520	740	218469	13.328	12.977	13.671
ProbeTrack11	22	ProbeTrack	11.2	SCS215a	20101117.131620	20101117.135828	8	0.013328	60	0	60-180	60	152	GapExp	0	286	2	45	0	distractor	1	787	607	219076	13.328	13.117	13.538
ProbeTrack11	22	ProbeTrack	11.2	SCS215a	20101117.131620	20101117.135835	8	0.013328	60	10	60-180	60	78	GapExp	0	287	2	3	0	distractor	1	507	747	219823	13.328	13.091	13.551
ProbeTrack11	22	ProbeTrack	11.2	SCS215a	20101117.131620	20101117.135842	8	0.013328	60	10	60-180	60	120	GapExp	0	288	2	0	1	target	1	1027	487	220310	13.328	13.107	13.550
ProbeTrack11	22	ProbeTrack	11.2	SCS215a	20101117.131620	20101117.135849	8	0.013328	60	10	60-180	60	124	GapExp	0	289	2	0	1	target	1	320	840	221150	13.328	12.931	13.731
ProbeTrack11	22	ProbeTrack	11.2	SCS215a	20101117.131620	20101117.140058	8	0.013328	60	10	60-180	60	66	GapExp	0	290	2	1	0	distractor	1	467	767	221917	13.328	13.116	13.539
ProbeTrack11	22	ProbeTrack	11.2	SCS215a	20101117.131620	20101117.140104	8	0.013328	60	0	60-180	60	167	GapExp	0	291	2	1	0	distractor	1	467	767	222684	13.328	13.099	13.550
ProbeTrack11	22	ProbeTrack	11.2	SCS215a	20101117.131620	20101117.140110	8	0.013328	60	10	60-180	60	93	GapExp	0	292	2	45	1	target	1	400	800	223484	13.328	12.956	13.700
ProbeTrack11	22	ProbeTrack	11.2	SCS215a	20101117.131620	20101117.140116	8	0.013328	60	0	60-180	60	87	GapExp	0	293	2	45	1	target	1	347	827	224311	13.328	13.005	13.660
ProbeTrack11	22	ProbeTrack	11.2	SCS215a	20101117.131620	20101117.140123	8	0.013328	60	10	60-180	60	134	GapExp	0	294	2	1	0	distractor	1	400	800	225111	13.328	13.307	13.347
ProbeTrack11	22	ProbeTrack	11.2	SCS215a	20101117.131620	20101117.140131	8	0.013328	60	0	60-180	60	169	GapExp	0	295	2	0	1	target	1	467	767	225878	13.328	13.098	13.564
ProbeTrack11	22	ProbeTrack	11.2	SCS215a	20101117.131620	20101117.140138	8	0.013328	60	10	60-180	60	107	GapExp	0	296	2	1	0	distractor	1	520	740	226618	13.328	13.105	13.553
ProbeTrack11	22	ProbeTrack	11.2	SCS215a	20101117.131620	20101117.140144	8	0.013328	60	0	60-180	60	65	GapExp	0	297	2	1	1	distractor	0	427	-1000	225618	13.328	13.113	13.548
ProbeTrack11	22	ProbeTrack	11.2	SCS215a	20101117.131620	20101117.140149	8	0.013328	60	0	60-180	60	131	GapExp	0	298	2	3	0	target	0	427	-1000	224618	13.328	13.262	13.397
ProbeTrack11	22	ProbeTrack	11.2	SCS215a	20101117.131620	20101117.140155	8	0.013328	60	0	60-180	60	131	GapExp	0	299	2	45	1	target	1	827	587	225205	13.328	12.877	13.794
ProbeTrack11	22	ProbeTrack	11.2	SCS215a	20101117.131620	20101117.140202	8	0.013328	60	0	60-180	60	93	GapExp	0	300	2	1	0	distractor	1	840	580	225785	13.328	13.308	13.345
ProbeTrack11	22	ProbeTrack	11.2	SCS215a	20101117.131620	20101117.140208	8	0.013328	60	10	60-180	60	168	GapExp	0	301	2	3	0	distractor	1	574	713	226498	13.328	13.309	13.347
ProbeTrack11	22	ProbeTrack	11.2	SCS215a	20101117.131620	20101117.140215	8	0.013328	60	0	60-180	60	180	GapExp	0	302	2	3	1	target	1	414	793	227291	13.328	13.308	13.343
ProbeTrack11	22	ProbeTrack	11.2	SCS215a	20101117.131620	20101117.140221	8	0.013328	60	10	60-180	60	146	GapExp	0	303	2	1	0	distractor	1	467	767	228058	13.328	13.299	13.348
ProbeTrack11	22	ProbeTrack	11.2	SCS215a	20101117.131620	20101117.140228	8	0.013328	60	10	60-180	60	100	GapExp	0	304	2	3	0	distractor	1	454	773	228831	13.328	13.309	13.347
ProbeTrack11	22	ProbeTrack	11.2	SCS215a	20101117.131620	20101117.140233	8	0.013328	60	10	60-180	60	132	GapExp	0	305	2	0	0	distractor	1	494	753	229584	13.328	13.091	13.564
ProbeTrack11	22	ProbeTrack	11.2	SCS215a	20101117.131620	20101117.140240	8	0.013328	60	10	60-180	60	143	GapExp	0	306	2	45	0	distractor	1	547	727	230311	13.328	12.918	13.747
ProbeTrack11	22	ProbeTrack	11.2	SCS215a	20101117.131620	20101117.140247	8	0.013328	60	0	60-180	60	134	GapExp	0	307	2	45	1	target	1	360	820	231131	13.328	13.093	13.570
ProbeTrack11	22	ProbeTrack	11.2	SCS215a	20101117.131620	20101117.140253	8	0.013328	60	0	60-180	60	163	GapExp	0	308	2	3	1	target	1	454	773	231904	13.328	13.093	13.568
ProbeTrack11	22	ProbeTrack	11.2	SCS215a	20101117.131620	20101117.140300	8	0.013328	60	0	60-180	60	107	GapExp	0	309	2	0	1	target	1	613	694	232598	13.328	12.930	13.715
ProbeTrack11	22	ProbeTrack	11.2	SCS215a	20101117.131620	20101117.140306	8	0.013328	60	10	60-180	60	136	GapExp	0	310	2	0	1	target	1	680	660	233258	13.328	13.309	13.349
ProbeTrack11	22	ProbeTrack	11.2	SCS215a	20101117.131620	20101117.140312	8	0.013328	60	0	60-180	60	86	GapExp	0	311	2	3	0	distractor	1	707	647	233905	13.328	13.307	13.346
ProbeTrack11	22	ProbeTrack	11.2	SCS215a	20101117.131620	20101117.140318	8	0.013328	60	10	60-180	60	61	GapExp	0	312	2	45	1	target	1	347	827	234732	13.328	12.850	13.806
ProbeTrack11	22	ProbeTrack	11.2	SCS215a	20101117.131620	20101117.140324	8	0.013328	60	10	60-180	60	162	GapExp	0	313	2	1	0	distractor	1	467	767	235499	13.328	13.307	13.345
ProbeTrack11	22	ProbeTrack	11.2	SCS215a	20101117.131620	20101117.140331	8	0.013328	60	10	60-180	60	78	GapExp	0	314	2	3	0	distractor	1	454	773	236272	13.328	13.016	13.645
ProbeTrack11	22	ProbeTrack	11.2	SCS215a	20101117.131620	20101117.140337	8	0.013328	60	0	60-180	60	107	GapExp	0	315	2	1	1	target	1	374	813	237085	13.328	13.003	13.663
ProbeTrack11	22	ProbeTrack	11.2	SCS215a	20101117.131620	20101117.140342	8	0.013328	60	10	60-180	60	95	GapExp	0	316	2	3	0	distractor	1	400	800	237885	13.328	13.099	13.565
ProbeTrack11	22	ProbeTrack	11.2	SCS215a	20101117.131620	20101117.140348	8	0.013328	60	0	60-180	60	140	GapExp	0	317	2	1	1	target	1	400	800	238685	13.328	12.844	13.804
ProbeTrack11	22	ProbeTrack	11.2	SCS215a	20101117.131620	20101117.140354	8	0.013328	60	0	60-180	60	118	GapExp	0	318	2	0	0	distractor	1	467	767	239452	13.328	13.278	13.371
ProbeTrack11	22	ProbeTrack	11.2	SCS215a	20101117.131620	20101117.140400	8	0.013328	60	10	60-180	60	136	GapExp	0	319	2	3	0	distractor	1	280	860	240312	13.328	13.305	13.345
ProbeTrack11	22	ProbeTrack	11.2	SCS215a	20101117.131620	20101117.140405	8	0.013328	60	0	60-180	60	151	GapExp	0	320	2	0	1	target	1	360	820	241132	13.380	12.826	26.457
ProbeTrack11	22	ProbeTrack	11.2	SCS215a	20101117.131620	20101117.140412	8	0.013328	60	0	60-180	60	170	GapExp	0	321	2	1	0	distractor	1	334	833	241965	13.328	13.080	13.678
ProbeTrack11	22	ProbeTrack	11.2	SCS215a	20101117.131620	20101117.140418	8	0.013328	60	0	60-180	60	85	GapExp	0	322	2	45	0	distractor	1	453	774	242739	13.328	12.958	13.743
ProbeTrack11	22	ProbeTrack	11.2	SCS215a	20101117.131620	20101117.140424	8	0.013328	60	0	60-180	60	158	GapExp	0	323	2	0	0	distractor	1	374	813	243552	13.328	12.887	13.768
ProbeTrack11	22	ProbeTrack	11.2	SCS215a	20101117.131620	20101117.140430	8	0.013328	60	10	60-180	60	103	GapExp	0	324	2	3	1	target	1	307	847	244399	13.328	13.144	13.521
ProbeTrack11	22	ProbeTrack	11.2	SCS215a	20101117.131620	20101117.140435	8	0.013328	60	10	60-180	60	82	GapExp	0	325	2	1	0	distractor	1	307	847	245246	13.328	13.310	13.346
ProbeTrack11	22	ProbeTrack	11.2	SCS215a	20101117.131620	20101117.140441	8	0.013328	60	0	60-180	60	101	GapExp	0	326	2	3	1	distractor	0	467	-1000	244246	13.328	13.308	13.350
ProbeTrack11	22	ProbeTrack	11.2	SCS215a	20101117.131620	20101117.140446	8	0.013328	60	0	60-180	60	154	GapExp	0	327	2	0	1	target	1	334	833	245079	13.328	12.868	13.786
ProbeTrack11	22	ProbeTrack	11.2	SCS215a	20101117.131620	20101117.140452	8	0.013328	60	0	60-180	60	78	GapExp	0	328	2	3	0	distractor	1	574	713	245792	13.328	12.873	13.767
ProbeTrack11	22	ProbeTrack	11.2	SCS215a	20101117.131620	20101117.140457	8	0.013328	60	10	60-180	60	64	GapExp	0	329	2	45	1	distractor	0	454	-1000	244792	13.328	13.041	13.616
ProbeTrack11	22	ProbeTrack	11.2	SCS215a	20101117.131620	20101117.140503	8	0.013328	60	10	60-180	60	111	GapExp	0	330	2	3	0	distractor	1	494	753	245545	13.328	12.931	13.730
ProbeTrack11	22	ProbeTrack	11.2	SCS215a	20101117.131620	20101117.140509	8	0.013328	60	10	60-180	60	129	GapExp	0	331	2	0	0	distractor	1	480	760	246305	13.328	13.104	13.537
ProbeTrack11	22	ProbeTrack	11.2	SCS215a	20101117.131620	20101117.140822	8	0.013328	60	0	60-180	60	72	GapExp	0	332	2	0	1	target	1	587	707	247012	13.328	12.894	13.764
ProbeTrack11	22	ProbeTrack	11.2	SCS215a	20101117.131620	20101117.140827	8	0.013328	60	10	60-180	60	159	GapExp	0	333	2	45	1	target	1	360	820	247832	13.328	12.868	13.781
ProbeTrack11	22	ProbeTrack	11.2	SCS215a	20101117.131620	20101117.140835	8	0.013328	60	0	60-180	60	175	GapExp	0	334	2	3	0	distractor	1	467	767	248599	13.328	12.905	13.751
ProbeTrack11	22	ProbeTrack	11.2	SCS215a	20101117.131620	20101117.140843	8	0.013328	60	10	60-180	60	131	GapExp	0	335	2	3	0	distractor	1	574	713	249312	13.328	13.103	13.545
ProbeTrack11	22	ProbeTrack	11.2	SCS215a	20101117.131620	20101117.140850	8	0.013328	60	10	60-180	60	130	GapExp	0	336	2	45	0	distractor	1	471	765	250077	13.328	12.989	13.668
ProbeTrack11	22	ProbeTrack	11.2	SCS215a	20101117.131620	20101117.140857	8	0.013328	60	0	60-180	60	123	GapExp	0	337	2	1	0	distractor	1	653	674	250751	13.328	13.105	13.562
ProbeTrack11	22	ProbeTrack	11.2	SCS215a	20101117.131620	20101117.140903	8	0.013328	60	10	60-180	60	104	GapExp	0	338	2	3	1	target	1	440	780	251531	13.328	12.908	13.750
ProbeTrack11	22	ProbeTrack	11.2	SCS215a	20101117.131620	20101117.140909	8	0.013328	60	0	60-180	60	101	GapExp	0	339	2	1	0	distractor	1	480	760	252291	13.328	12.871	13.778
ProbeTrack11	22	ProbeTrack	11.2	SCS215a	20101117.131620	20101117.140914	8	0.013328	60	0	60-180	60	62	GapExp	0	340	2	45	1	distractor	0	467	-1000	251291	13.328	12.835	13.822
ProbeTrack11	22	ProbeTrack	11.2	SCS215a	20101117.131620	20101117.140920	8	0.013328	60	0	60-180	60	161	GapExp	0	341	2	3	1	distractor	0	467	-1000	250291	13.328	13.113	13.557
ProbeTrack11	22	ProbeTrack	11.2	SCS215a	20101117.131620	20101117.140926	8	0.013328	60	0	60-180	60	160	GapExp	0	342	2	0	0	distractor	1	840	580	250871	13.328	13.110	13.553
ProbeTrack11	22	ProbeTrack	11.2	SCS215a	20101117.131620	20101117.140933	8	0.013328	60	10	60-180	60	171	GapExp	0	343	2	1	1	target	1	520	740	251611	13.328	12.874	13.775
ProbeTrack11	22	ProbeTrack	11.2	SCS215a	20101117.131620	20101117.140940	8	0.013328	60	10	60-180	60	97	GapExp	0	344	2	45	0	distractor	1	507	747	252358	13.328	13.308	13.348
ProbeTrack11	22	ProbeTrack	11.2	SCS215a	20101117.131620	20101117.140946	8	0.013328	60	0	60-180	60	146	GapExp	0	345	2	3	1	target	1	400	800	253158	13.328	12.862	13.788
ProbeTrack11	22	ProbeTrack	11.2	SCS215a	20101117.131620	20101117.140952	8	0.013328	60	0	60-180	60	115	GapExp	0	346	2	0	0	distractor	1	507	747	253905	13.328	13.152	13.505
ProbeTrack11	22	ProbeTrack	11.2	SCS215a	20101117.131620	20101117.140958	8	0.013328	60	0	60-180	60	62	GapExp	0	347	2	3	0	distractor	1	547	727	254632	13.328	13.021	13.634
ProbeTrack11	22	ProbeTrack	11.2	SCS215a	20101117.131620	20101117.141044	8	0.013328	60	0	60-180	60	133	GapExp	0	348	2	45	1	target	1	374	813	255445	13.328	12.927	13.730
ProbeTrack11	22	ProbeTrack	11.2	SCS215a	20101117.131620	20101117.141051	8	0.013328	60	10	60-180	60	120	GapExp	0	349	2	0	1	target	1	414	793	256238	13.328	12.871	13.779
ProbeTrack11	22	ProbeTrack	11.2	SCS215a	20101117.131620	20101117.141057	8	0.013328	60	10	60-180	60	177	GapExp	0	350	2	0	1	target	1	334	833	257071	13.328	13.093	13.576
ProbeTrack11	22	ProbeTrack	11.2	SCS215a	20101117.131620	20101117.141104	8	0.013328	60	10	60-180	60	73	GapExp	0	351	2	45	0	distractor	1	494	753	257824	13.328	13.057	13.607
ProbeTrack11	22	ProbeTrack	11.2	SCS215a	20101117.131620	20101117.141109	8	0.013328	60	0	60-180	60	136	GapExp	0	352	2	45	1	target	1	480	760	258584	13.328	13.112	13.550
ProbeTrack11	22	ProbeTrack	11.2	SCS215a	20101117.131620	20101117.141116	8	0.013328	60	0	60-180	60	137	GapExp	0	353	2	0	1	target	1	427	787	259371	13.328	12.929	13.714
ProbeTrack11	22	ProbeTrack	11.2	SCS215a	20101117.131620	20101117.141122	8	0.013328	60	10	60-180	60	161	GapExp	0	354	2	0	0	distractor	1	440	780	260151	13.328	13.292	13.357
ProbeTrack11	22	ProbeTrack	11.2	SCS215a	20101117.131620	20101117.141128	8	0.013328	60	10	60-180	60	92	GapExp	0	355	2	1	0	distractor	1	587	707	260858	13.328	12.967	13.696
ProbeTrack11	22	ProbeTrack	11.2	SCS215a	20101117.131620	20101117.141134	8	0.013328	60	0	60-180	60	151	GapExp	0	356	2	3	1	target	1	480	760	261618	13.328	13.308	13.347
ProbeTrack11	22	ProbeTrack	11.2	SCS215a	20101117.131620	20101117.141140	8	0.013328	60	0	60-180	60	171	GapExp	0	357	2	45	0	distractor	1	520	740	262358	13.328	13.099	13.551
ProbeTrack11	22	ProbeTrack	11.2	SCS215a	20101117.131620	20101117.141148	8	0.013328	60	0	60-180	60	116	GapExp	0	358	2	3	0	distractor	1	480	760	263118	13.328	13.116	13.556
ProbeTrack11	22	ProbeTrack	11.2	SCS215a	20101117.131620	20101117.141153	8	0.013328	60	10	60-180	60	76	GapExp	0	359	2	45	0	distractor	1	507	747	263865	13.328	13.086	13.568
ProbeTrack11	22	ProbeTrack	11.2	SCS215a	20101117.131620	20101117.141159	8	0.013328	60	10	60-180	60	61	GapExp	0	360	2	0	0	distractor	1	547	727	264592	13.328	12.898	13.760
ProbeTrack11	22	ProbeTrack	11.2	SCS215a	20101117.131620	20101117.141205	8	0.013328	60	0	60-180	60	63	GapExp	0	361	2	0	0	distractor	1	614	693	265285	13.328	12.965	13.699
ProbeTrack11	22	ProbeTrack	11.2	SCS215a	20101117.131620	20101117.141210	8	0.013328	60	0	60-180	60	156	GapExp	0	362	2	1	0	distractor	1	480	760	266045	13.328	13.119	13.542
ProbeTrack11	22	ProbeTrack	11.2	SCS215a	20101117.131620	20101117.141217	8	0.013328	60	10	60-180	60	85	GapExp	0	363	2	0	1	distractor	0	520	-1000	265045	13.328	13.305	13.348
ProbeTrack11	22	ProbeTrack	11.2	SCS215a	20101117.131620	20101117.141223	8	0.013328	60	0	60-180	60	90	GapExp	0	364	2	45	1	target	1	400	800	265845	13.328	12.942	13.710
ProbeTrack11	22	ProbeTrack	11.2	SCS215a	20101117.131620	20101117.141232	8	0.013328	60	0	60-180	60	64	GapExp	0	365	2	45	0	distractor	1	467	767	266612	13.328	13.308	13.347
ProbeTrack11	22	ProbeTrack	11.2	SCS215a	20101117.131620	20101117.141237	8	0.013328	60	10	60-180	60	109	GapExp	0	366	2	45	1	target	1	387	807	267419	13.328	13.022	13.641
ProbeTrack11	22	ProbeTrack	11.2	SCS215a	20101117.131620	20101117.141244	8	0.013328	60	10	60-180	60	61	GapExp	0	367	2	0	0	distractor	1	454	773	268192	13.328	13.306	13.365
ProbeTrack11	22	ProbeTrack	11.2	SCS215a	20101117.131620	20101117.141249	8	0.013328	60	10	60-180	60	168	GapExp	0	368	2	1	1	distractor	0	440	-1000	267192	13.328	13.086	13.568
ProbeTrack11	22	ProbeTrack	11.2	SCS215a	20101117.131620	20101117.141256	8	0.013328	60	0	60-180	60	144	GapExp	0	369	2	1	0	distractor	1	640	680	267872	13.328	13.268	13.375
ProbeTrack11	22	ProbeTrack	11.2	SCS215a	20101117.131620	20101117.141302	8	0.013328	60	10	60-180	60	104	GapExp	0	370	2	1	1	target	1	414	793	268665	13.328	13.105	13.550
ProbeTrack11	22	ProbeTrack	11.2	SCS215a	20101117.131620	20101117.141308	8	0.013328	60	10	60-180	60	106	GapExp	0	371	2	0	0	distractor	1	560	720	269385	13.328	13.312	13.344
ProbeTrack11	22	ProbeTrack	11.2	SCS215a	20101117.131620	20101117.141313	8	0.013328	60	0	60-180	60	84	GapExp	0	372	2	1	1	target	1	414	793	270178	13.328	12.911	13.746
ProbeTrack11	22	ProbeTrack	11.2	SCS215a	20101117.131620	20101117.141319	8	0.013328	60	0	60-180	60	162	GapExp	0	373	2	45	0	distractor	1	414	793	270971	13.328	13.311	13.345
ProbeTrack11	22	ProbeTrack	11.2	SCS215a	20101117.131620	20101117.141326	8	0.013328	60	0	60-180	60	132	GapExp	0	374	2	3	1	target	1	440	780	271751	13.328	13.232	13.430
ProbeTrack11	22	ProbeTrack	11.2	SCS215a	20101117.131620	20101117.141332	8	0.013328	60	0	60-180	60	112	GapExp	0	375	2	45	0	distractor	1	494	753	272504	13.328	13.031	13.626
ProbeTrack11	22	ProbeTrack	11.2	SCS215a	20101117.131620	20101117.141338	8	0.013328	60	10	60-180	60	143	GapExp	0	376	2	1	0	distractor	1	454	773	273277	13.328	13.101	13.549
ProbeTrack11	22	ProbeTrack	11.2	SCS215a	20101117.131620	20101117.141344	8	0.013328	60	10	60-180	60	171	GapExp	0	377	2	3	1	target	1	507	747	274024	13.328	13.101	13.549
ProbeTrack11	22	ProbeTrack	11.2	SCS215a	20101117.131620	20101117.141351	8	0.013328	60	10	60-180	60	77	GapExp	0	378	2	1	1	target	1	454	773	274797	13.328	13.310	13.348
ProbeTrack11	22	ProbeTrack	11.2	SCS215a	20101117.131620	20101117.141356	8	0.013328	60	10	60-180	60	70	GapExp	0	379	2	3	1	target	1	374	813	275610	13.328	13.308	13.344
ProbeTrack11	22	ProbeTrack	11.2	SCS215a	20101117.131620	20101117.141401	8	0.013328	60	10	60-180	60	102	GapExp	0	380	2	3	1	target	1	334	833	276443	13.328	13.309	13.347
ProbeTrack11	22	ProbeTrack	11.2	SCS215a	20101117.131620	20101117.141407	8	0.013328	60	10	60-180	60	92	GapExp	0	381	2	0	1	target	1	400	800	277243	13.328	12.924	13.732
ProbeTrack11	22	ProbeTrack	11.2	SCS215a	20101117.131620	20101117.141412	8	0.013328	60	10	60-180	60	85	GapExp	0	382	2	3	1	target	1	347	827	278070	13.328	13.089	13.569
ProbeTrack11	22	ProbeTrack	11.2	SCS215a	20101117.131620	20101117.141418	8	0.013328	60	10	60-180	60	136	GapExp	0	383	2	1	0	distractor	1	507	747	278817	13.328	13.304	13.349
ProbeTrack11	22	ProbeTrack	11.2	SCS215a	20101117.131620	20101117.141424	8	0.013328	60	10	60-180	60	108	GapExp	0	384	2	45	0	distractor	1	387	807	279624	13.328	13.282	13.383
ProbeTrack11	22	ProbeTrack	11.2	SCS215a	20101117.131620	20101117.141431	8	0.013328	60	10	60-180	60	162	GapExp	0	385	2	1	1	target	1	347	827	280451	13.328	13.303	13.357
ProbeTrack11	22	ProbeTrack	11.2	SCS215a	20101117.131620	20101117.141437	8	0.013328	60	0	60-180	60	140	GapExp	0	386	2	45	1	target	1	520	740	281191	13.328	13.294	13.346
ProbeTrack11	22	ProbeTrack	11.2	SCS215a	20101117.131620	20101117.141444	8	0.013328	60	10	60-180	60	82	GapExp	0	387	2	1	1	target	1	494	753	281944	13.328	12.912	13.745
ProbeTrack11	22	ProbeTrack	11.2	SCS215a	20101117.131620	20101117.141449	8	0.013328	60	10	60-180	60	121	GapExp	0	388	2	0	0	target	0	440	-1000	280944	13.328	12.847	13.805
ProbeTrack11	22	ProbeTrack	11.2	SCS215a	20101117.131620	20101117.141456	8	0.013328	60	10	60-180	60	65	GapExp	0	389	2	3	0	distractor	1	653	674	281618	13.328	13.111	13.537
ProbeTrack11	22	ProbeTrack	11.2	SCS215a	20101117.131620	20101117.141502	8	0.013328	60	0	60-180	60	94	GapExp	0	390	2	0	0	distractor	1	494	753	282371	13.328	13.103	13.547
ProbeTrack11	22	ProbeTrack	11.2	SCS215a	20101117.131620	20101117.141507	8	0.013328	60	10	60-180	60	76	GapExp	0	391	2	0	1	target	1	427	787	283158	13.328	12.512	14.141
ProbeTrack11	22	ProbeTrack	11.2	SCS215a	20101117.131620	20101117.141513	8	0.013328	60	10	60-180	60	95	GapExp	0	392	2	3	0	distractor	1	454	773	283931	13.328	13.309	13.344
ProbeTrack11	22	ProbeTrack	11.2	SCS215a	20101117.131620	20101117.141519	8	0.013328	60	10	60-180	60	86	GapExp	0	393	2	1	1	target	1	400	800	284731	13.328	13.310	13.348
ProbeTrack11	22	ProbeTrack	11.2	SCS215a	20101117.131620	20101117.141524	8	0.013328	60	0	60-180	60	91	GapExp	0	394	2	1	1	target	1	467	767	285498	13.328	12.839	13.810
ProbeTrack11	22	ProbeTrack	11.2	SCS215a	20101117.131620	20101117.141530	8	0.013328	60	0	60-180	60	149	GapExp	0	395	2	0	0	distractor	1	587	707	286205	13.328	12.865	13.804
ProbeTrack11	22	ProbeTrack	11.2	SCS215a	20101117.131620	20101117.141537	8	0.013328	60	10	60-180	60	173	GapExp	0	396	2	0	1	target	1	440	780	286985	13.328	13.064	13.596
ProbeTrack11	22	ProbeTrack	11.2	SCS215a	20101117.131620	20101117.141544	8	0.013328	60	10	60-180	60	126	GapExp	0	397	2	45	0	distractor	1	480	760	287745	13.328	13.294	13.370
ProbeTrack11	22	ProbeTrack	11.2	SCS215a	20101117.131620	20101117.141551	8	0.013328	60	0	60-180	60	96	GapExp	0	398	2	1	1	target	1	547	727	288472	13.328	13.093	13.562
ProbeTrack11	22	ProbeTrack	11.2	SCS215a	20101117.131620	20101117.141556	8	0.013328	60	0	60-180	60	126	GapExp	0	399	2	45	0	distractor	1	494	753	289225	13.328	13.097	13.550
ProbeTrack11	22	ProbeTrack	11.2	SCS215a	20101117.131620	20101117.141639	8	0.013328	60	0	60-180	60	125	GapExp	0	400	2	3	0	distractor	1	520	740	289965	13.328	13.097	13.558
ProbeTrack11	22	ProbeTrack	11.2	SCS215a	20101117.131620	20101117.141646	8	0.013328	60	10	60-180	60	86	GapExp	0	401	2	0	0	distractor	1	400	800	290765	13.328	13.281	13.373
ProbeTrack11	22	ProbeTrack	11.2	SCS215a	20101117.131620	20101117.141651	8	0.013328	60	0	60-180	60	110	GapExp	0	402	2	1	1	target	1	520	740	291505	13.328	13.310	13.348
ProbeTrack11	22	ProbeTrack	11.2	SCS215a	20101117.131620	20101117.141657	8	0.013328	60	10	60-180	60	105	GapExp	0	403	2	45	1	target	1	387	807	292312	13.328	13.307	13.347
ProbeTrack11	22	ProbeTrack	11.2	SCS215a	20101117.131620	20101117.141704	8	0.013328	60	10	60-180	60	94	GapExp	0	404	2	0	1	target	1	534	733	293045	13.328	12.855	13.808
ProbeTrack11	22	ProbeTrack	11.2	SCS215a	20101117.131620	20101117.141710	8	0.013328	60	10	60-180	60	96	GapExp	0	405	2	45	0	distractor	1	427	787	293832	13.328	13.089	13.568
ProbeTrack11	22	ProbeTrack	11.2	SCS215a	20101117.131620	20101117.141716	8	0.013328	60	0	60-180	60	121	GapExp	0	406	2	3	1	target	1	440	780	294612	13.328	12.904	13.742
ProbeTrack11	22	ProbeTrack	11.2	SCS215a	20101117.131620	20101117.141721	8	0.013328	60	10	60-180	60	174	GapExp	0	407	2	0	0	distractor	1	494	753	295365	13.328	12.904	13.749
ProbeTrack11	22	ProbeTrack	11.2	SCS215a	20101117.131620	20101117.141728	8	0.013328	60	10	60-180	60	90	GapExp	0	408	2	45	0	distractor	1	560	720	296085	13.328	13.085	13.571
ProbeTrack11	22	ProbeTrack	11.2	SCS215a	20101117.131620	20101117.141735	8	0.013328	60	10	60-180	60	167	GapExp	0	409	2	3	1	target	1	520	740	296825	13.328	12.896	13.749
ProbeTrack11	22	ProbeTrack	11.2	SCS215a	20101117.131620	20101117.141741	8	0.013328	60	0	60-180	60	115	GapExp	0	410	2	3	0	distractor	1	653	674	297499	13.328	12.882	13.760
ProbeTrack11	22	ProbeTrack	11.2	SCS215a	20101117.131620	20101117.141747	8	0.013328	60	0	60-180	60	104	GapExp	0	411	2	45	1	target	1	560	720	298219	13.328	13.304	13.362
ProbeTrack11	22	ProbeTrack	11.2	SCS215a	20101117.131620	20101117.141754	8	0.013328	60	0	60-180	60	151	GapExp	0	412	2	0	0	distractor	1	480	760	298979	13.328	13.001	13.668
ProbeTrack11	22	ProbeTrack	11.2	SCS215a	20101117.131620	20101117.141800	8	0.013328	60	10	60-180	60	167	GapExp	0	413	2	45	0	target	0	374	-1000	297979	13.328	13.130	13.517
ProbeTrack11	22	ProbeTrack	11.2	SCS215a	20101117.131620	20101117.141807	8	0.013328	60	10	60-180	60	64	GapExp	0	414	2	1	0	distractor	1	480	760	298739	13.328	13.301	13.346
ProbeTrack11	22	ProbeTrack	11.2	SCS215a	20101117.131620	20101117.141813	8	0.013328	60	0	60-180	60	74	GapExp	0	415	2	0	1	target	1	587	707	299446	13.328	13.310	13.344
ProbeTrack11	22	ProbeTrack	11.2	SCS215a	20101117.131620	20101117.141818	8	0.013328	60	0	60-180	60	117	GapExp	0	416	2	0	0	distractor	1	454	773	300219	13.328	12.966	13.703
ProbeTrack11	22	ProbeTrack	11.2	SCS215a	20101117.131620	20101117.141825	8	0.013328	60	10	60-180	60	77	GapExp	0	417	2	45	0	distractor	1	494	753	300972	13.328	13.085	13.555
ProbeTrack11	22	ProbeTrack	11.2	SCS215a	20101117.131620	20101117.141831	8	0.013328	60	10	60-180	60	84	GapExp	0	418	2	0	1	target	1	440	780	301752	13.328	13.308	13.348
ProbeTrack11	22	ProbeTrack	11.2	SCS215a	20101117.131620	20101117.141836	8	0.013328	60	0	60-180	60	111	GapExp	0	419	2	45	0	distractor	1	440	780	302532	13.328	13.309	13.345
ProbeTrack11	22	ProbeTrack	11.2	SCS215a	20101117.131620	20101117.141843	8	0.013328	60	0	60-180	60	168	GapExp	0	420	2	45	0	distractor	1	587	707	303239	13.328	12.884	13.767
ProbeTrack11	22	ProbeTrack	11.2	SCS215a	20101117.131620	20101117.141850	8	0.013328	60	0	60-180	60	109	GapExp	0	421	2	1	0	distractor	1	627	687	303926	13.328	13.300	13.352
ProbeTrack11	22	ProbeTrack	11.2	SCS215a	20101117.131620	20101117.141856	8	0.013328	60	10	60-180	60	89	GapExp	0	422	2	0	0	distractor	1	467	767	304693	13.328	13.308	13.350
ProbeTrack11	22	ProbeTrack	11.2	SCS215a	20101117.131620	20101117.141902	8	0.013328	60	0	60-180	60	146	GapExp	0	423	2	1	1	target	1	573	714	305407	13.328	12.860	13.795
ProbeTrack11	22	ProbeTrack	11.2	SCS215a	20101117.131620	20101117.141908	8	0.013328	60	0	60-180	60	120	GapExp	0	424	2	45	0	distractor	1	467	767	306174	13.328	12.897	13.759
ProbeTrack11	22	ProbeTrack	11.2	SCS215a	20101117.131620	20101117.141914	8	0.013328	60	0	60-180	60	178	GapExp	0	425	2	1	0	distractor	1	467	767	306941	13.328	13.085	13.556
ProbeTrack11	22	ProbeTrack	11.2	SCS215a	20101117.131620	20101117.141921	8	0.013328	60	10	60-180	60	118	GapExp	0	426	2	1	1	target	1	427	787	307728	13.328	13.100	13.562
ProbeTrack11	22	ProbeTrack	11.2	SCS215a	20101117.131620	20101117.141927	8	0.013328	60	0	60-180	60	147	GapExp	0	427	2	3	0	distractor	1	494	753	308481	13.328	13.034	13.626
ProbeTrack11	22	ProbeTrack	11.2	SCS215a	20101117.131620	20101117.141933	8	0.013328	60	0	60-180	60	125	GapExp	0	428	2	0	0	distractor	1	587	707	309188	13.328	12.867	13.787
ProbeTrack11	22	ProbeTrack	11.2	SCS215a	20101117.131620	20101117.141939	8	0.013328	60	0	60-180	60	120	GapExp	0	429	2	3	0	distractor	1	427	787	309975	13.328	12.897	13.768
ProbeTrack11	22	ProbeTrack	11.2	SCS215a	20101117.131620	20101117.141945	8	0.013328	60	0	60-180	60	142	GapExp	0	430	2	0	1	target	1	480	760	310735	13.328	13.309	13.344
ProbeTrack11	22	ProbeTrack	11.2	SCS215a	20101117.131620	20101117.141952	8	0.013328	60	10	60-180	60	167	GapExp	0	431	2	0	0	distractor	1	427	787	311522	13.374	13.132	26.846
ProbeTrack11	22	ProbeTrack	11.2	SCS215a	20101117.131620	20101117.141958	8	0.013328	60	10	60-180	60	105	GapExp	0	432	2	1	1	target	1	400	800	312322	13.328	12.670	13.985
ProbeTrack11	22	ProbeTrack	11.2	SCS215a	20101117.131620	20101117.142004	8	0.013328	60	10	60-180	60	127	GapExp	0	433	2	0	0	distractor	1	414	793	313115	13.328	13.096	13.539
ProbeTrack11	22	ProbeTrack	11.2	SCS215a	20101117.131620	20101117.142010	8	0.013328	60	0	60-180	60	73	GapExp	0	434	2	1	0	distractor	1	560	720	313835	13.328	13.307	13.348
ProbeTrack11	22	ProbeTrack	11.2	SCS215a	20101117.131620	20101117.142015	8	0.013328	60	10	60-180	60	129	GapExp	0	435	2	1	0	target	0	560	-1000	312835	13.328	12.863	13.784
ProbeTrack11	22	ProbeTrack	11.2	SCS215a	20101117.131620	20101117.142021	8	0.013328	60	0	60-180	60	69	GapExp	0	436	2	1	0	distractor	1	560	720	313555	13.328	12.889	13.827
ProbeTrack11	22	ProbeTrack	11.2	SCS215a	20101117.131620	20101117.142027	8	0.013328	60	10	60-180	60	177	GapExp	0	437	2	1	1	target	1	400	800	314355	13.328	13.302	13.359
ProbeTrack11	22	ProbeTrack	11.2	SCS215a	20101117.131620	20101117.142034	8	0.013328	60	10	60-180	60	120	GapExp	0	438	2	45	1	target	1	334	833	315188	13.328	13.308	13.347
ProbeTrack11	22	ProbeTrack	11.2	SCS215a	20101117.131620	20101117.142040	8	0.013328	60	10	60-180	60	166	GapExp	0	439	2	0	0	distractor	1	454	773	315961	13.328	12.923	13.740
ProbeTrack11	22	ProbeTrack	11.2	SCS215a	20101117.131620	20101117.142047	8	0.013328	60	0	60-180	60	106	GapExp	0	440	2	3	0	distractor	1	467	767	316728	13.328	13.300	13.349
ProbeTrack11	22	ProbeTrack	11.2	SCS215a	20101117.131620	20101117.142052	8	0.013328	60	0	60-180	60	97	GapExp	0	441	2	45	0	distractor	1	520	740	317468	13.328	13.099	13.562
ProbeTrack11	22	ProbeTrack	11.2	SCS215a	20101117.131620	20101117.142058	8	0.013328	60	10	60-180	60	143	GapExp	0	442	2	45	1	target	1	374	813	318281	13.328	13.105	13.556
ProbeTrack11	22	ProbeTrack	11.2	SCS215a	20101117.131620	20101117.142105	8	0.013328	60	10	60-180	60	86	GapExp	0	443	2	1	0	distractor	1	653	674	318955	13.328	13.097	13.559
ProbeTrack11	22	ProbeTrack	11.2	SCS215a	20101117.131620	20101117.142111	8	0.013328	60	0	60-180	60	147	GapExp	0	444	2	1	1	target	1	387	807	319762	13.328	12.951	13.720
ProbeTrack11	22	ProbeTrack	11.2	SCS215a	20101117.131620	20101117.142117	8	0.013328	60	0	60-180	60	165	GapExp	0	445	2	45	0	distractor	1	520	740	320502	13.328	13.305	13.358
ProbeTrack11	22	ProbeTrack	11.2	SCS215a	20101117.131620	20101117.142124	8	0.013328	60	0	60-180	60	63	GapExp	0	446	2	1	0	distractor	1	800	600	321102	13.328	13.308	13.352
ProbeTrack11	22	ProbeTrack	11.2	SCS215a	20101117.131620	20101117.142129	8	0.013328	60	0	60-180	60	151	GapExp	0	447	2	1	1	target	1	347	827	321929	13.328	13.300	13.353
ProbeTrack11	22	ProbeTrack	11.2	SCS215a	20101117.131620	20101117.142135	8	0.013328	60	0	60-180	60	131	GapExp	0	448	2	45	1	target	1	454	773	322702	13.328	12.937	13.718
ProbeTrack11	22	ProbeTrack	11.2	SCS215a	20101117.131620	20101117.142141	8	0.013328	60	0	60-180	60	93	GapExp	0	449	2	45	1	target	1	480	760	323462	13.328	13.086	13.565
ProbeTrack11	22	ProbeTrack	11.2	SCS215a	20101117.131620	20101117.142148	8	0.013328	60	0	60-180	60	159	GapExp	0	450	2	0	1	target	1	387	807	324269	13.328	13.271	13.382
