exp	sub	code	rev	comp	runtime	trialtime	nstim	refreshdur	cuedur	gapdur	gapOnsetRange	durPostProbe	gapOnsetTime	blocktype	prac	trial	ntargets	soa	probeTarget	resp	acc	rt	pts	tpts	meanFrameDur	minFrameDur	maxFrameDur
ProbeTrack11	8	ProbeTrack	11.2	SCS215a	20101011.132749	20101011.132835	8	0.013328	60	0	60-180	60	124	NoGap	1	1	2	0	1	target	1	3972	0	0	13.379	12.887	26.684
ProbeTrack11	8	ProbeTrack	11.2	SCS215a	20101011.132749	20101011.132911	8	0.013328	60	0	60-180	60	61	NoGap	1	2	2	45	1	target	1	1333	334	334	13.438	13.305	26.658
ProbeTrack11	8	ProbeTrack	11.2	SCS215a	20101011.132749	20101011.132919	8	0.013328	60	0	60-180	60	100	NoGap	1	3	2	1	1	distractor	0	334	-1000	-666	13.328	12.909	13.755
ProbeTrack11	8	ProbeTrack	11.2	SCS215a	20101011.132749	20101011.132957	8	0.013328	60	0	60-180	60	156	NoGap	1	4	2	3	1	target	1	494	753	87	13.328	13.108	13.541
ProbeTrack11	8	ProbeTrack	11.2	SCS215a	20101011.132749	20101011.133004	8	0.013328	60	0	60-180	60	87	NoGap	1	5	2	45	1	target	1	334	833	920	13.328	13.090	13.556
ProbeTrack11	8	ProbeTrack	11.2	SCS215a	20101011.132749	20101011.133010	8	0.013328	60	0	60-180	60	64	NoGap	1	6	2	1	0	target	0	414	-1000	-80	13.328	13.095	13.566
ProbeTrack11	8	ProbeTrack	11.2	SCS215a	20101011.132749	20101011.133016	8	0.013328	60	0	60-180	60	147	NoGap	1	7	2	0	0	target	0	640	-1000	-1080	13.377	12.867	26.983
ProbeTrack11	8	ProbeTrack	11.2	SCS215a	20101011.132749	20101011.133025	8	0.013328	60	0	60-180	60	138	NoGap	1	8	2	1	1	target	1	627	687	-393	13.328	12.850	13.820
ProbeTrack11	8	ProbeTrack	11.2	SCS215a	20101011.132749	20101011.133032	8	0.013328	60	0	60-180	60	71	NoGap	1	9	2	1	1	target	1	480	760	367	13.328	12.921	13.741
ProbeTrack11	8	ProbeTrack	11.2	SCS215a	20101011.132749	20101011.133038	8	0.013328	60	0	60-180	60	154	NoGap	1	10	2	0	0	distractor	1	667	667	1034	13.992	12.852	53.316
ProbeTrack11	8	ProbeTrack	11.2	SCS215a	20101011.132749	20101011.133045	8	0.013328	60	0	60-180	60	127	NoGap	1	11	2	45	0	distractor	1	547	727	1761	13.328	13.081	13.570
ProbeTrack11	8	ProbeTrack	11.2	SCS215a	20101011.132749	20101011.133053	8	0.013328	60	0	60-180	60	130	NoGap	1	12	2	45	0	distractor	1	733	634	2395	13.328	13.211	13.513
ProbeTrack11	8	ProbeTrack	11.2	SCS215a	20101011.132749	20101011.133100	8	0.013328	60	0	60-180	60	86	NoGap	1	13	2	3	0	distractor	1	760	620	3015	13.327	13.083	13.543
ProbeTrack11	8	ProbeTrack	11.2	SCS215a	20101011.132749	20101011.133107	8	0.013328	60	0	60-180	60	137	NoGap	1	14	2	0	1	distractor	0	867	-1000	2015	13.426	12.858	27.136
ProbeTrack11	8	ProbeTrack	11.2	SCS215a	20101011.132749	20101011.133114	8	0.013328	60	0	60-180	60	154	NoGap	1	15	2	0	1	target	1	534	733	2748	13.328	12.921	13.760
ProbeTrack11	8	ProbeTrack	11.2	SCS215a	20101011.132749	20101011.133121	8	0.013328	60	0	60-180	60	140	NoGap	1	16	2	3	1	target	1	534	733	3481	13.328	12.873	13.786
ProbeTrack11	8	ProbeTrack	11.2	SCS215a	20101011.132749	20101011.133128	8	0.013328	60	0	60-180	60	121	NoGap	1	17	2	3	0	distractor	1	587	707	4188	13.328	12.928	13.734
ProbeTrack11	8	ProbeTrack	11.2	SCS215a	20101011.132749	20101011.133134	8	0.013328	60	0	60-180	60	100	NoGap	1	18	2	0	0	distractor	1	587	707	4895	13.328	12.856	13.796
ProbeTrack11	8	ProbeTrack	11.2	SCS215a	20101011.132749	20101011.133140	8	0.013328	60	0	60-180	60	135	NoGap	1	19	2	3	0	distractor	1	560	720	5615	13.328	12.911	13.735
ProbeTrack11	8	ProbeTrack	11.2	SCS215a	20101011.132749	20101011.133146	8	0.013328	60	0	60-180	60	160	NoGap	1	20	2	45	1	target	1	507	747	6362	13.451	12.864	27.073
ProbeTrack11	8	ProbeTrack	11.2	SCS215a	20101011.132749	20101011.133154	8	0.013328	60	0	60-180	60	126	NoGap	1	21	2	45	0	distractor	1	587	707	7069	13.328	12.857	13.787
ProbeTrack11	8	ProbeTrack	11.2	SCS215a	20101011.132749	20101011.133201	8	0.013328	60	0	60-180	60	127	NoGap	1	22	2	1	0	distractor	1	574	713	7782	13.435	12.844	39.707
ProbeTrack11	8	ProbeTrack	11.2	SCS215a	20101011.132749	20101011.133207	8	0.013328	60	0	60-180	60	76	NoGap	1	23	2	0	1	target	1	640	680	8462	13.328	13.306	13.352
ProbeTrack11	8	ProbeTrack	11.2	SCS215a	20101011.132749	20101011.133213	8	0.013328	60	0	60-180	60	63	NoGap	1	24	2	1	0	distractor	1	520	740	9202	13.847	13.239	53.308
ProbeTrack11	8	ProbeTrack	11.2	SCS215a	20101011.132749	20101011.133218	8	0.013328	60	0	60-180	60	174	NoGap	1	25	2	3	1	target	1	400	800	10002	13.422	12.849	26.648
ProbeTrack11	8	ProbeTrack	11.2	SCS215a	20101011.132749	20101011.133225	8	0.013328	60	0	60-180	60	79	NoGap	1	26	2	45	1	target	1	480	760	10762	13.497	12.872	27.139
ProbeTrack11	8	ProbeTrack	11.2	SCS215a	20101011.132749	20101011.133231	8	0.013328	60	0	60-180	60	148	NoGap	1	27	2	45	0	distractor	1	800	600	11362	13.328	12.871	13.783
ProbeTrack11	8	ProbeTrack	11.2	SCS215a	20101011.132749	20101011.133238	8	0.013328	60	0	60-180	60	116	NoGap	1	28	2	3	1	target	1	494	753	12115	13.328	12.951	13.709
ProbeTrack11	8	ProbeTrack	11.2	SCS215a	20101011.132749	20101011.133244	8	0.013328	60	0	60-180	60	143	NoGap	1	29	2	0	1	target	1	400	800	12915	13.975	12.911	39.991
ProbeTrack11	8	ProbeTrack	11.2	SCS215a	20101011.132749	20101011.133251	8	0.013328	60	0	60-180	60	163	NoGap	1	30	2	1	1	target	1	387	807	13722	13.377	12.909	26.654
ProbeTrack11	8	ProbeTrack	11.2	SCS215a	20101011.132749	20101011.133257	8	0.013328	60	0	60-180	60	179	NoGap	1	31	2	3	0	distractor	1	427	787	14509	13.373	12.968	26.654
ProbeTrack11	8	ProbeTrack	11.2	SCS215a	20101011.132749	20101011.133304	8	0.013328	60	0	60-180	60	91	NoGap	1	32	2	3	0	distractor	1	547	727	15236	13.328	12.876	13.768
ProbeTrack11	8	ProbeTrack	11.2	SCS215a	20101011.132749	20101011.133310	8	0.013328	60	0	60-180	60	141	NoGap	1	33	2	0	0	distractor	1	334	833	16069	13.328	12.968	13.678
ProbeTrack11	8	ProbeTrack	11.2	SCS215a	20101011.132749	20101011.133316	8	0.013328	60	0	60-180	60	83	NoGap	1	34	2	45	0	distractor	1	547	727	16796	13.328	13.284	13.384
ProbeTrack11	8	ProbeTrack	11.2	SCS215a	20101011.132749	20101011.133322	8	0.013328	60	0	60-180	60	144	NoGap	1	35	2	1	0	distractor	1	400	800	17596	13.328	12.858	13.803
ProbeTrack11	8	ProbeTrack	11.2	SCS215a	20101011.132749	20101011.133328	8	0.013328	60	0	60-180	60	128	NoGap	1	36	2	1	1	distractor	0	547	-1000	16596	13.597	12.882	53.316
ProbeTrack11	8	ProbeTrack	11.2	SCS215a	20101011.132749	20101011.133335	8	0.013328	60	0	60-180	60	131	NoGap	1	37	2	45	1	target	1	467	767	17363	13.328	12.870	13.804
ProbeTrack11	8	ProbeTrack	11.2	SCS215a	20101011.132749	20101011.133342	8	0.013328	60	0	60-180	60	62	NoGap	1	38	2	1	0	distractor	1	574	713	18076	13.473	13.136	26.692
ProbeTrack11	8	ProbeTrack	11.2	SCS215a	20101011.132749	20101011.133347	8	0.013328	60	0	60-180	60	113	NoGap	1	39	2	3	1	target	1	467	767	18843	13.328	12.906	13.755
ProbeTrack11	8	ProbeTrack	11.2	SCS215a	20101011.132749	20101011.133353	8	0.013328	60	0	60-180	60	102	NoGap	1	40	2	0	0	distractor	1	507	747	19590	13.328	12.870	13.785
ProbeTrack11	8	ProbeTrack	11.2	SCS215a	20101011.133438	20101011.133459	8	0.013336	60	10	60-180	60	107	GapPrac	1	1	2	45	0	distractor	1	1973	14	19604	13.328	12.868	13.807
ProbeTrack11	8	ProbeTrack	11.2	SCS215a	20101011.133438	20101011.133508	8	0.013336	60	0	60-180	60	66	GapPrac	1	2	2	45	0	distractor	1	1134	433	20037	13.328	12.846	13.822
ProbeTrack11	8	ProbeTrack	11.2	SCS215a	20101011.133438	20101011.133518	8	0.013336	60	10	60-180	60	116	GapPrac	1	3	2	1	1	target	1	787	607	20644	13.378	12.946	26.650
ProbeTrack11	8	ProbeTrack	11.2	SCS215a	20101011.133438	20101011.133530	8	0.013336	60	10	60-180	60	88	GapPrac	1	4	2	3	0	distractor	1	853	574	21218	13.723	12.873	40.434
ProbeTrack11	8	ProbeTrack	11.2	SCS215a	20101011.133438	20101011.133537	8	0.013336	60	0	60-180	60	142	GapPrac	1	5	2	45	1	target	1	1173	414	21632	13.369	12.864	27.000
ProbeTrack11	8	ProbeTrack	11.2	SCS215a	20101011.133438	20101011.133544	8	0.013336	60	10	60-180	60	160	GapPrac	1	6	2	1	1	target	1	707	647	22279	13.328	12.934	13.720
ProbeTrack11	8	ProbeTrack	11.2	SCS215a	20101011.133438	20101011.133551	8	0.013336	60	0	60-180	60	108	GapPrac	1	7	2	0	1	target	1	574	713	22992	13.328	12.836	13.814
ProbeTrack11	8	ProbeTrack	11.2	SCS215a	20101011.133438	20101011.133557	8	0.013336	60	0	60-180	60	93	GapPrac	1	8	2	3	0	distractor	1	574	713	23705	13.328	12.950	13.700
ProbeTrack11	8	ProbeTrack	11.2	SCS215a	20101011.133438	20101011.133603	8	0.013336	60	10	60-180	60	147	GapPrac	1	9	2	45	1	distractor	0	667	-1000	22705	13.328	12.908	13.757
ProbeTrack11	8	ProbeTrack	11.2	SCS215a	20101011.133438	20101011.133610	8	0.013336	60	10	60-180	60	124	GapPrac	1	10	2	0	0	distractor	1	1520	240	22945	13.427	12.845	27.084
ProbeTrack11	8	ProbeTrack	11.2	SCS215a	20101011.133438	20101011.133617	8	0.013336	60	0	60-180	60	115	GapPrac	1	11	2	1	1	target	1	454	773	23718	13.328	12.934	13.702
ProbeTrack11	8	ProbeTrack	11.2	SCS215a	20101011.133438	20101011.133623	8	0.013336	60	0	60-180	60	125	GapPrac	1	12	2	45	0	distractor	1	547	727	24445	13.421	12.929	26.775
ProbeTrack11	8	ProbeTrack	11.2	SCS215a	20101011.133438	20101011.133630	8	0.013336	60	0	60-180	60	177	GapPrac	1	13	2	1	0	distractor	1	587	707	25152	13.372	12.835	26.961
ProbeTrack11	8	ProbeTrack	11.2	SCS215a	20101011.133438	20101011.133637	8	0.013336	60	10	60-180	60	65	GapPrac	1	14	2	1	0	distractor	1	867	567	25719	13.328	12.863	13.778
ProbeTrack11	8	ProbeTrack	11.2	SCS215a	20101011.133438	20101011.133643	8	0.013336	60	10	60-180	60	120	GapPrac	1	15	2	0	1	target	1	1240	380	26099	13.378	12.850	26.857
ProbeTrack11	8	ProbeTrack	11.2	SCS215a	20101011.133438	20101011.133650	8	0.013336	60	10	60-180	60	151	GapPrac	1	16	2	3	0	distractor	1	667	667	26766	13.328	12.857	13.795
ProbeTrack11	8	ProbeTrack	11.2	SCS215a	20101011.133438	20101011.133656	8	0.013336	60	0	60-180	60	85	GapPrac	1	17	2	0	0	distractor	1	747	627	27393	13.390	12.863	26.985
ProbeTrack11	8	ProbeTrack	11.2	SCS215a	20101011.133438	20101011.133702	8	0.013336	60	10	60-180	60	77	GapPrac	1	18	2	45	0	distractor	1	507	747	28140	13.328	12.875	13.782
ProbeTrack11	8	ProbeTrack	11.2	SCS215a	20101011.133438	20101011.133708	8	0.013336	60	10	60-180	60	140	GapPrac	1	19	2	3	1	distractor	0	494	-1000	27140	13.328	12.853	13.792
ProbeTrack11	8	ProbeTrack	11.2	SCS215a	20101011.133438	20101011.133715	8	0.013336	60	0	60-180	60	66	GapPrac	1	20	2	3	1	target	1	627	687	27827	13.328	12.883	13.770
ProbeTrack11	8	ProbeTrack	11.2	SCS215a	20101011.133754	20101011.133838	8	0.013328	60	10	60-180	60	115	GapExp	1	1	2	1	1	target	1	747	627	28454	13.379	12.865	26.650
ProbeTrack11	8	ProbeTrack	11.2	SCS215a	20101011.133754	20101011.133845	8	0.013328	60	0	60-180	60	113	GapExp	1	2	2	1	0	distractor	1	600	700	29154	13.328	13.309	13.348
ProbeTrack11	8	ProbeTrack	11.2	SCS215a	20101011.133754	20101011.133851	8	0.013328	60	0	60-180	60	77	GapExp	0	3	2	45	0	distractor	1	456	772	29926	13.328	12.903	13.764
ProbeTrack11	8	ProbeTrack	11.2	SCS215a	20101011.133754	20101011.133857	8	0.013328	60	0	60-180	60	109	GapExp	0	4	2	3	1	target	1	454	773	30699	13.328	13.033	13.614
ProbeTrack11	8	ProbeTrack	11.2	SCS215a	20101011.133754	20101011.133903	8	0.013328	60	10	60-180	60	87	GapExp	0	5	2	3	1	target	1	613	694	31393	13.448	12.859	26.662
ProbeTrack11	8	ProbeTrack	11.2	SCS215a	20101011.133754	20101011.133909	8	0.013328	60	0	60-180	60	150	GapExp	0	6	2	0	0	distractor	1	547	727	32120	13.328	12.885	13.777
ProbeTrack11	8	ProbeTrack	11.2	SCS215a	20101011.133754	20101011.133916	8	0.013328	60	10	60-180	60	152	GapExp	0	7	2	1	0	distractor	1	507	747	32867	13.328	13.015	13.643
ProbeTrack11	8	ProbeTrack	11.2	SCS215a	20101011.133754	20101011.133922	8	0.013328	60	0	60-180	60	168	GapExp	0	8	2	0	1	target	1	494	753	33620	13.375	12.851	26.755
ProbeTrack11	8	ProbeTrack	11.2	SCS215a	20101011.133754	20101011.133929	8	0.013328	60	10	60-180	60	99	GapExp	0	9	2	1	1	target	1	494	753	34373	13.328	12.860	13.784
ProbeTrack11	8	ProbeTrack	11.2	SCS215a	20101011.133754	20101011.133948	8	0.013328	60	0	60-180	60	169	GapExp	0	10	2	45	0	distractor	1	534	733	35106	13.368	12.854	27.055
ProbeTrack11	8	ProbeTrack	11.2	SCS215a	20101011.133754	20101011.133956	8	0.013328	60	10	60-180	60	86	GapExp	0	11	2	45	0	distractor	1	440	780	35886	13.328	13.087	13.555
ProbeTrack11	8	ProbeTrack	11.2	SCS215a	20101011.133754	20101011.134004	8	0.013328	60	10	60-180	60	97	GapExp	0	12	2	45	1	distractor	0	374	-1000	34886	13.328	12.874	13.783
ProbeTrack11	8	ProbeTrack	11.2	SCS215a	20101011.133754	20101011.134011	8	0.013328	60	10	60-180	60	171	GapExp	0	13	2	1	1	target	1	693	654	35540	13.542	12.854	27.125
ProbeTrack11	8	ProbeTrack	11.2	SCS215a	20101011.133754	20101011.134018	8	0.013328	60	0	60-180	60	171	GapExp	0	14	2	1	1	target	1	467	767	36307	13.797	12.843	40.464
ProbeTrack11	8	ProbeTrack	11.2	SCS215a	20101011.133754	20101011.134024	8	0.013328	60	10	60-180	60	104	GapExp	0	15	2	1	1	target	1	680	660	36967	13.328	12.927	13.710
ProbeTrack11	8	ProbeTrack	11.2	SCS215a	20101011.133754	20101011.134032	8	0.013328	60	10	60-180	60	177	GapExp	0	16	2	0	1	target	1	587	707	37674	13.371	12.900	27.092
ProbeTrack11	8	ProbeTrack	11.2	SCS215a	20101011.133754	20101011.134039	8	0.013328	60	0	60-180	60	74	GapExp	0	17	2	0	1	target	1	507	747	38421	13.328	13.100	13.560
ProbeTrack11	8	ProbeTrack	11.2	SCS215a	20101011.133754	20101011.134048	8	0.013328	60	0	60-180	60	160	GapExp	0	18	2	1	0	distractor	1	587	707	39128	13.328	12.955	13.634
ProbeTrack11	8	ProbeTrack	11.2	SCS215a	20101011.133754	20101011.134054	8	0.013328	60	10	60-180	60	63	GapExp	0	19	2	3	1	target	1	574	713	39841	13.328	12.867	13.792
ProbeTrack11	8	ProbeTrack	11.2	SCS215a	20101011.133754	20101011.134100	8	0.013328	60	0	60-180	60	135	GapExp	0	20	2	1	1	target	1	520	740	40581	13.328	12.862	13.790
ProbeTrack11	8	ProbeTrack	11.2	SCS215a	20101011.133754	20101011.134106	8	0.013328	60	10	60-180	60	152	GapExp	0	21	2	0	0	distractor	1	747	627	41208	13.373	12.842	26.650
ProbeTrack11	8	ProbeTrack	11.2	SCS215a	20101011.133754	20101011.134113	8	0.013328	60	0	60-180	60	83	GapExp	0	22	2	3	0	distractor	1	640	680	41888	13.391	12.980	26.644
ProbeTrack11	8	ProbeTrack	11.2	SCS215a	20101011.133754	20101011.134119	8	0.013328	60	0	60-180	60	114	GapExp	0	23	2	1	1	target	1	425	788	42676	13.328	12.879	13.803
ProbeTrack11	8	ProbeTrack	11.2	SCS215a	20101011.133754	20101011.134124	8	0.013328	60	10	60-180	60	81	GapExp	0	24	2	0	0	distractor	1	389	806	43482	13.328	12.844	13.811
ProbeTrack11	8	ProbeTrack	11.2	SCS215a	20101011.133754	20101011.134130	8	0.013328	60	0	60-180	60	93	GapExp	0	25	2	3	0	distractor	1	547	727	44209	13.328	12.858	13.784
ProbeTrack11	8	ProbeTrack	11.2	SCS215a	20101011.133754	20101011.134135	8	0.013328	60	0	60-180	60	70	GapExp	0	26	2	45	0	distractor	1	507	747	44956	13.328	12.857	13.811
ProbeTrack11	8	ProbeTrack	11.2	SCS215a	20101011.133754	20101011.134141	8	0.013328	60	0	60-180	60	110	GapExp	0	27	2	0	0	distractor	1	374	813	45769	13.390	12.876	27.125
ProbeTrack11	8	ProbeTrack	11.2	SCS215a	20101011.133754	20101011.134147	8	0.013328	60	10	60-180	60	86	GapExp	0	28	2	3	1	target	1	760	620	46389	13.385	12.838	27.068
ProbeTrack11	8	ProbeTrack	11.2	SCS215a	20101011.133754	20101011.134153	8	0.013328	60	10	60-180	60	163	GapExp	0	29	2	0	1	distractor	0	880	-1000	45389	13.328	12.870	13.788
ProbeTrack11	8	ProbeTrack	11.2	SCS215a	20101011.133754	20101011.134200	8	0.013328	60	10	60-180	60	129	GapExp	0	30	2	45	1	target	1	667	667	46056	13.370	12.868	26.672
ProbeTrack11	8	ProbeTrack	11.2	SCS215a	20101011.133754	20101011.134207	8	0.013328	60	10	60-180	60	134	GapExp	0	31	2	3	0	distractor	1	520	740	46796	13.328	13.005	13.632
ProbeTrack11	8	ProbeTrack	11.2	SCS215a	20101011.133754	20101011.134213	8	0.013328	60	10	60-180	60	83	GapExp	0	32	2	45	0	distractor	1	800	600	47396	13.328	13.005	13.659
ProbeTrack11	8	ProbeTrack	11.2	SCS215a	20101011.133754	20101011.134219	8	0.013328	60	0	60-180	60	140	GapExp	0	33	2	3	1	target	1	560	720	48116	13.379	12.862	26.637
ProbeTrack11	8	ProbeTrack	11.2	SCS215a	20101011.133754	20101011.134225	8	0.013328	60	10	60-180	60	75	GapExp	0	34	2	0	0	distractor	1	534	733	48849	13.328	12.848	13.798
ProbeTrack11	8	ProbeTrack	11.2	SCS215a	20101011.133754	20101011.134231	8	0.013328	60	0	60-180	60	136	GapExp	0	35	2	3	1	target	1	480	760	49609	13.328	12.863	13.791
ProbeTrack11	8	ProbeTrack	11.2	SCS215a	20101011.133754	20101011.134237	8	0.013328	60	0	60-180	60	171	GapExp	0	36	2	3	1	target	1	547	727	50336	13.373	13.043	26.651
ProbeTrack11	8	ProbeTrack	11.2	SCS215a	20101011.133754	20101011.134245	8	0.013328	60	0	60-180	60	141	GapExp	0	37	2	1	1	target	1	627	687	51023	13.328	12.887	13.757
ProbeTrack11	8	ProbeTrack	11.2	SCS215a	20101011.133754	20101011.134251	8	0.013328	60	10	60-180	60	112	GapExp	0	38	2	3	1	target	1	653	674	51697	13.328	12.979	13.680
ProbeTrack11	8	ProbeTrack	11.2	SCS215a	20101011.133754	20101011.134257	8	0.013328	60	10	60-180	60	144	GapExp	0	39	2	3	0	distractor	1	773	614	52311	13.510	12.878	40.420
ProbeTrack11	8	ProbeTrack	11.2	SCS215a	20101011.133754	20101011.134304	8	0.013328	60	10	60-180	60	149	GapExp	0	40	2	45	1	distractor	0	840	-1000	51311	13.367	12.906	26.640
ProbeTrack11	8	ProbeTrack	11.2	SCS215a	20101011.133754	20101011.134311	8	0.013328	60	0	60-180	60	102	GapExp	0	41	2	0	1	target	1	547	727	52038	13.328	12.872	13.779
ProbeTrack11	8	ProbeTrack	11.2	SCS215a	20101011.133754	20101011.134317	8	0.013328	60	0	60-180	60	166	GapExp	0	42	2	3	1	target	1	440	780	52818	13.375	12.882	27.094
ProbeTrack11	8	ProbeTrack	11.2	SCS215a	20101011.133754	20101011.134324	8	0.013328	60	10	60-180	60	84	GapExp	0	43	2	1	0	distractor	1	813	594	53412	13.328	12.931	13.720
ProbeTrack11	8	ProbeTrack	11.2	SCS215a	20101011.133754	20101011.134330	8	0.013328	60	10	60-180	60	97	GapExp	0	44	2	3	1	target	1	840	580	53992	13.328	12.942	13.712
ProbeTrack11	8	ProbeTrack	11.2	SCS215a	20101011.133754	20101011.134336	8	0.013328	60	0	60-180	60	130	GapExp	0	45	2	0	0	target	0	494	-1000	52992	13.328	12.873	13.788
ProbeTrack11	8	ProbeTrack	11.2	SCS215a	20101011.133754	20101011.134342	8	0.013328	60	10	60-180	60	176	GapExp	0	46	2	3	0	distractor	1	693	654	53646	13.370	13.203	26.657
ProbeTrack11	8	ProbeTrack	11.2	SCS215a	20101011.133754	20101011.134349	8	0.013328	60	0	60-180	60	139	GapExp	0	47	2	3	1	target	1	560	720	54366	13.328	12.898	13.744
ProbeTrack11	8	ProbeTrack	11.2	SCS215a	20101011.133754	20101011.134355	8	0.013328	60	0	60-180	60	127	GapExp	0	48	2	0	1	target	1	387	807	55173	13.385	12.838	27.127
ProbeTrack11	8	ProbeTrack	11.2	SCS215a	20101011.133754	20101011.134402	8	0.013328	60	0	60-180	60	77	GapExp	0	49	2	45	1	target	1	520	740	55913	13.384	12.890	26.646
ProbeTrack11	8	ProbeTrack	11.2	SCS215a	20101011.133754	20101011.134408	8	0.013328	60	0	60-180	60	154	GapExp	0	50	2	1	1	target	1	414	793	56706	13.429	12.854	27.133
ProbeTrack11	8	ProbeTrack	11.2	SCS215a	20101011.133754	20101011.134414	8	0.013328	60	0	60-180	60	174	GapExp	0	51	2	0	0	distractor	1	520	740	57446	13.328	12.892	13.771
ProbeTrack11	8	ProbeTrack	11.2	SCS215a	20101011.133754	20101011.134421	8	0.013328	60	0	60-180	60	62	GapExp	0	52	2	3	1	distractor	0	454	-1000	56446	13.328	12.917	13.731
ProbeTrack11	8	ProbeTrack	11.2	SCS215a	20101011.133754	20101011.134426	8	0.013328	60	0	60-180	60	117	GapExp	0	53	2	45	1	target	1	387	807	57253	13.328	12.913	13.743
ProbeTrack11	8	ProbeTrack	11.2	SCS215a	20101011.133754	20101011.134433	8	0.013328	60	0	60-180	60	118	GapExp	0	54	2	45	1	target	1	494	753	58006	13.328	12.851	13.796
ProbeTrack11	8	ProbeTrack	11.2	SCS215a	20101011.133754	20101011.134439	8	0.013328	60	10	60-180	60	97	GapExp	0	55	2	3	1	target	1	733	634	58640	13.659	12.875	39.997
ProbeTrack11	8	ProbeTrack	11.2	SCS215a	20101011.133754	20101011.134445	8	0.013328	60	0	60-180	60	84	GapExp	0	56	2	0	0	distractor	1	654	673	59313	13.328	12.929	13.729
ProbeTrack11	8	ProbeTrack	11.2	SCS215a	20101011.133754	20101011.134451	8	0.013328	60	0	60-180	60	141	GapExp	0	57	2	3	1	target	1	547	727	60040	13.430	12.870	27.130
ProbeTrack11	8	ProbeTrack	11.2	SCS215a	20101011.133754	20101011.134457	8	0.013328	60	10	60-180	60	70	GapExp	0	58	2	1	0	distractor	1	587	707	60747	13.460	12.896	26.869
ProbeTrack11	8	ProbeTrack	11.2	SCS215a	20101011.133754	20101011.134502	8	0.013328	60	10	60-180	60	103	GapExp	0	59	2	1	0	distractor	1	693	654	61401	13.328	12.947	13.697
ProbeTrack11	8	ProbeTrack	11.2	SCS215a	20101011.133754	20101011.134508	8	0.013328	60	0	60-180	60	115	GapExp	0	60	2	1	1	target	1	440	780	62181	13.446	12.861	26.668
ProbeTrack11	8	ProbeTrack	11.2	SCS215a	20101011.133754	20101011.134514	8	0.013328	60	10	60-180	60	130	GapExp	0	61	2	45	1	target	1	720	640	62821	13.328	12.927	13.667
ProbeTrack11	8	ProbeTrack	11.2	SCS215a	20101011.133754	20101011.134521	8	0.013328	60	10	60-180	60	151	GapExp	0	62	2	3	0	distractor	1	587	707	63528	13.374	13.087	26.647
ProbeTrack11	8	ProbeTrack	11.2	SCS215a	20101011.133754	20101011.134528	8	0.013328	60	10	60-180	60	92	GapExp	0	63	2	0	1	target	1	574	713	64241	13.328	12.949	13.697
ProbeTrack11	8	ProbeTrack	11.2	SCS215a	20101011.133754	20101011.134533	8	0.013328	60	10	60-180	60	92	GapExp	0	64	2	3	1	target	1	627	687	64928	13.328	12.892	13.778
ProbeTrack11	8	ProbeTrack	11.2	SCS215a	20101011.133754	20101011.134541	8	0.013328	60	0	60-180	60	141	GapExp	0	65	2	1	1	target	1	494	753	65681	13.380	12.901	26.789
ProbeTrack11	8	ProbeTrack	11.2	SCS215a	20101011.133754	20101011.134547	8	0.013328	60	0	60-180	60	75	GapExp	0	66	2	1	1	target	1	414	793	66474	13.328	13.306	13.344
ProbeTrack11	8	ProbeTrack	11.2	SCS215a	20101011.133754	20101011.134552	8	0.013328	60	0	60-180	60	70	GapExp	0	67	2	45	0	distractor	1	693	654	67128	13.328	12.919	13.719
ProbeTrack11	8	ProbeTrack	11.2	SCS215a	20101011.133754	20101011.134558	8	0.013328	60	10	60-180	60	172	GapExp	0	68	2	45	1	target	1	667	667	67795	13.478	12.848	26.986
ProbeTrack11	8	ProbeTrack	11.2	SCS215a	20101011.133754	20101011.134606	8	0.013328	60	10	60-180	60	80	GapExp	0	69	2	3	0	distractor	1	587	707	68502	13.764	12.841	107.032
ProbeTrack11	8	ProbeTrack	11.2	SCS215a	20101011.133754	20101011.134612	8	0.013328	60	10	60-180	60	93	GapExp	0	70	2	3	0	target	0	853	-1000	67502	13.438	12.846	27.037
ProbeTrack11	8	ProbeTrack	11.2	SCS215a	20101011.133754	20101011.134617	8	0.013328	60	10	60-180	60	87	GapExp	0	71	2	3	0	distractor	1	520	740	68242	13.389	12.881	26.669
ProbeTrack11	8	ProbeTrack	11.2	SCS215a	20101011.133754	20101011.134623	8	0.013328	60	0	60-180	60	105	GapExp	0	72	2	1	1	target	1	613	694	68936	13.386	12.908	26.778
ProbeTrack11	8	ProbeTrack	11.2	SCS215a	20101011.133754	20101011.134629	8	0.013328	60	0	60-180	60	90	GapExp	0	73	2	0	0	distractor	1	657	672	69608	13.390	12.867	27.103
ProbeTrack11	8	ProbeTrack	11.2	SCS215a	20101011.133754	20101011.134634	8	0.013328	60	0	60-180	60	121	GapExp	0	74	2	0	0	distractor	1	680	660	70268	13.328	12.863	13.795
ProbeTrack11	8	ProbeTrack	11.2	SCS215a	20101011.133754	20101011.134640	8	0.013328	60	10	60-180	60	172	GapExp	0	75	2	45	1	target	1	561	720	70988	13.444	12.882	27.028
ProbeTrack11	8	ProbeTrack	11.2	SCS215a	20101011.133754	20101011.134648	8	0.013328	60	10	60-180	60	176	GapExp	0	76	2	1	1	target	1	640	680	71668	13.328	13.089	13.584
ProbeTrack11	8	ProbeTrack	11.2	SCS215a	20101011.133754	20101011.134654	8	0.013328	60	0	60-180	60	180	GapExp	0	77	2	1	0	distractor	1	534	733	72401	13.328	12.942	13.717
ProbeTrack11	8	ProbeTrack	11.2	SCS215a	20101011.133754	20101011.134701	8	0.013328	60	0	60-180	60	67	GapExp	0	78	2	0	0	distractor	1	520	740	73141	13.328	12.867	13.792
ProbeTrack11	8	ProbeTrack	11.2	SCS215a	20101011.133754	20101011.134706	8	0.013328	60	10	60-180	60	106	GapExp	0	79	2	3	0	distractor	1	534	733	73874	13.328	13.006	13.641
ProbeTrack11	8	ProbeTrack	11.2	SCS215a	20101011.133754	20101011.134712	8	0.013328	60	0	60-180	60	130	GapExp	0	80	2	3	0	distractor	1	494	753	74627	13.328	13.096	13.562
ProbeTrack11	8	ProbeTrack	11.2	SCS215a	20101011.133754	20101011.134718	8	0.013328	60	10	60-180	60	105	GapExp	0	81	2	3	1	target	1	480	760	75387	13.385	12.910	27.062
ProbeTrack11	8	ProbeTrack	11.2	SCS215a	20101011.133754	20101011.134724	8	0.013328	60	0	60-180	60	154	GapExp	0	82	2	45	0	distractor	1	800	600	75987	13.328	12.897	13.766
ProbeTrack11	8	ProbeTrack	11.2	SCS215a	20101011.133754	20101011.134731	8	0.013328	60	10	60-180	60	104	GapExp	0	83	2	1	0	target	0	534	-1000	74987	13.328	13.205	13.457
ProbeTrack11	8	ProbeTrack	11.2	SCS215a	20101011.133754	20101011.134737	8	0.013328	60	10	60-180	60	61	GapExp	0	84	2	1	1	target	1	693	654	75641	13.394	12.954	26.391
ProbeTrack11	8	ProbeTrack	11.2	SCS215a	20101011.133754	20101011.134742	8	0.013328	60	0	60-180	60	91	GapExp	0	85	2	3	0	distractor	1	560	720	76361	13.390	12.931	27.051
ProbeTrack11	8	ProbeTrack	11.2	SCS215a	20101011.133754	20101011.134748	8	0.013328	60	10	60-180	60	149	GapExp	0	86	2	0	1	target	1	494	753	77114	13.328	12.899	13.755
ProbeTrack11	8	ProbeTrack	11.2	SCS215a	20101011.133754	20101011.134754	8	0.013328	60	10	60-180	60	160	GapExp	0	87	2	1	0	distractor	1	1040	480	77594	13.415	12.884	27.083
ProbeTrack11	8	ProbeTrack	11.2	SCS215a	20101011.133754	20101011.134801	8	0.013328	60	0	60-180	60	62	GapExp	0	88	2	1	1	target	1	574	713	78307	13.328	13.303	13.346
ProbeTrack11	8	ProbeTrack	11.2	SCS215a	20101011.133754	20101011.134806	8	0.013328	60	0	60-180	60	143	GapExp	0	89	2	1	0	distractor	1	627	687	78994	13.377	13.158	26.661
ProbeTrack11	8	ProbeTrack	11.2	SCS215a	20101011.133754	20101011.134813	8	0.013328	60	10	60-180	60	102	GapExp	0	90	2	0	1	target	1	973	514	79508	13.328	12.854	13.811
ProbeTrack11	8	ProbeTrack	11.2	SCS215a	20101011.133754	20101011.134819	8	0.013328	60	0	60-180	60	122	GapExp	0	91	2	1	0	distractor	1	560	720	80228	13.328	12.879	13.772
ProbeTrack11	8	ProbeTrack	11.2	SCS215a	20101011.133754	20101011.134825	8	0.013328	60	0	60-180	60	89	GapExp	0	92	2	45	1	target	1	454	773	81001	13.328	12.868	13.795
ProbeTrack11	8	ProbeTrack	11.2	SCS215a	20101011.133754	20101011.134831	8	0.013328	60	10	60-180	60	120	GapExp	0	93	2	0	1	target	1	534	733	81734	13.328	13.092	13.562
ProbeTrack11	8	ProbeTrack	11.2	SCS215a	20101011.133754	20101011.134837	8	0.013328	60	10	60-180	60	81	GapExp	0	94	2	45	1	distractor	0	574	-1000	80734	13.328	12.867	13.785
ProbeTrack11	8	ProbeTrack	11.2	SCS215a	20101011.133754	20101011.134843	8	0.013328	60	10	60-180	60	98	GapExp	0	95	2	45	0	target	0	867	-1000	79734	13.420	12.868	26.999
ProbeTrack11	8	ProbeTrack	11.2	SCS215a	20101011.133754	20101011.134849	8	0.013328	60	0	60-180	60	139	GapExp	0	96	2	3	0	distractor	1	987	507	80241	13.328	12.868	13.801
ProbeTrack11	8	ProbeTrack	11.2	SCS215a	20101011.133754	20101011.134856	8	0.013328	60	0	60-180	60	162	GapExp	0	97	2	3	0	distractor	1	573	714	80955	13.328	13.307	13.349
ProbeTrack11	8	ProbeTrack	11.2	SCS215a	20101011.133754	20101011.134902	8	0.013328	60	0	60-180	60	114	GapExp	0	98	2	3	0	distractor	1	494	753	81708	13.385	12.896	27.084
ProbeTrack11	8	ProbeTrack	11.2	SCS215a	20101011.133754	20101011.134908	8	0.013328	60	0	60-180	60	112	GapExp	0	99	2	0	0	distractor	1	560	720	82428	13.385	12.964	26.835
ProbeTrack11	8	ProbeTrack	11.2	SCS215a	20101011.133754	20101011.134914	8	0.013328	60	10	60-180	60	117	GapExp	0	100	2	1	1	distractor	0	534	-1000	81428	13.437	12.863	26.967
ProbeTrack11	8	ProbeTrack	11.2	SCS215a	20101011.133754	20101011.134924	8	0.013328	60	0	60-180	60	169	GapExp	0	101	2	3	1	target	1	587	707	82135	13.373	13.002	26.827
ProbeTrack11	8	ProbeTrack	11.2	SCS215a	20101011.133754	20101011.135158	8	0.013328	60	10	60-180	60	99	GapExp	0	102	2	1	0	distractor	1	547	727	82862	13.328	12.981	13.670
ProbeTrack11	8	ProbeTrack	11.2	SCS215a	20101011.133754	20101011.135204	8	0.013328	60	0	60-180	60	61	GapExp	0	103	2	0	0	distractor	1	587	707	83569	13.328	13.220	13.422
ProbeTrack11	8	ProbeTrack	11.2	SCS215a	20101011.133754	20101011.135209	8	0.013328	60	0	60-180	60	180	GapExp	0	104	2	3	0	distractor	1	534	733	84302	13.417	12.879	26.922
ProbeTrack11	8	ProbeTrack	11.2	SCS215a	20101011.133754	20101011.135215	8	0.013328	60	10	60-180	60	112	GapExp	0	105	2	45	1	target	1	560	720	85022	13.328	12.934	13.703
ProbeTrack11	8	ProbeTrack	11.2	SCS215a	20101011.133754	20101011.135222	8	0.013328	60	10	60-180	60	102	GapExp	0	106	2	3	0	distractor	1	467	767	85789	13.386	12.912	26.644
ProbeTrack11	8	ProbeTrack	11.2	SCS215a	20101011.133754	20101011.135228	8	0.013328	60	10	60-180	60	179	GapExp	0	107	2	45	1	target	1	520	740	86529	13.328	13.085	13.559
ProbeTrack11	8	ProbeTrack	11.2	SCS215a	20101011.133754	20101011.135235	8	0.013328	60	10	60-180	60	114	GapExp	0	108	2	45	0	distractor	1	454	773	87302	13.328	13.018	13.764
ProbeTrack11	8	ProbeTrack	11.2	SCS215a	20101011.133754	20101011.135244	8	0.013328	60	10	60-180	60	88	GapExp	0	109	2	45	0	distractor	1	520	740	88042	13.379	12.881	26.617
ProbeTrack11	8	ProbeTrack	11.2	SCS215a	20101011.133754	20101011.135316	8	0.013328	60	10	60-180	60	96	GapExp	0	110	2	1	1	distractor	0	653	-1000	87042	13.328	12.889	13.765
ProbeTrack11	8	ProbeTrack	11.2	SCS215a	20101011.133754	20101011.135322	8	0.013328	60	0	60-180	60	98	GapExp	0	111	2	45	0	target	0	853	-1000	86042	13.376	12.878	26.886
ProbeTrack11	8	ProbeTrack	11.2	SCS215a	20101011.133754	20101011.135329	8	0.013328	60	0	60-180	60	128	GapExp	0	112	2	1	1	target	1	429	786	86828	13.326	12.889	13.756
ProbeTrack11	8	ProbeTrack	11.2	SCS215a	20101011.133754	20101011.135335	8	0.013328	60	10	60-180	60	95	GapExp	0	113	2	45	0	distractor	1	534	733	87561	13.378	12.938	26.641
ProbeTrack11	8	ProbeTrack	11.2	SCS215a	20101011.133754	20101011.135341	8	0.013328	60	0	60-180	60	63	GapExp	0	114	2	3	0	distractor	1	600	700	88261	13.399	12.879	27.093
ProbeTrack11	8	ProbeTrack	11.2	SCS215a	20101011.133754	20101011.135346	8	0.013328	60	0	60-180	60	112	GapExp	0	115	2	3	0	distractor	1	627	687	88948	13.328	12.867	13.783
ProbeTrack11	8	ProbeTrack	11.2	SCS215a	20101011.133754	20101011.135352	8	0.013328	60	0	60-180	60	167	GapExp	0	116	2	1	0	distractor	1	480	760	89708	13.423	12.876	26.624
ProbeTrack11	8	ProbeTrack	11.2	SCS215a	20101011.133754	20101011.135358	8	0.013328	60	0	60-180	60	69	GapExp	0	117	2	1	0	distractor	1	547	727	90435	13.399	13.124	26.663
ProbeTrack11	8	ProbeTrack	11.2	SCS215a	20101011.133754	20101011.135403	8	0.013328	60	0	60-180	60	171	GapExp	0	118	2	0	0	distractor	1	907	547	90982	13.371	12.845	27.138
ProbeTrack11	8	ProbeTrack	11.2	SCS215a	20101011.133754	20101011.135410	8	0.013328	60	10	60-180	60	75	GapExp	0	119	2	0	0	target	0	680	-1000	89982	13.453	12.879	27.083
ProbeTrack11	8	ProbeTrack	11.2	SCS215a	20101011.133754	20101011.135416	8	0.013328	60	0	60-180	60	176	GapExp	0	120	2	3	1	target	1	574	713	90695	13.372	12.846	27.108
ProbeTrack11	8	ProbeTrack	11.2	SCS215a	20101011.133754	20101011.135423	8	0.013328	60	10	60-180	60	104	GapExp	0	121	2	45	0	distractor	1	494	753	91448	13.328	13.092	13.514
ProbeTrack11	8	ProbeTrack	11.2	SCS215a	20101011.133754	20101011.135429	8	0.013328	60	10	60-180	60	136	GapExp	0	122	2	0	0	target	0	640	-1000	90448	13.328	13.218	13.438
ProbeTrack11	8	ProbeTrack	11.2	SCS215a	20101011.133754	20101011.135435	8	0.013328	60	0	60-180	60	131	GapExp	0	123	2	45	0	distractor	1	534	733	91181	13.328	12.902	13.760
ProbeTrack11	8	ProbeTrack	11.2	SCS215a	20101011.133754	20101011.135442	8	0.013328	60	10	60-180	60	151	GapExp	0	124	2	3	0	distractor	1	480	760	91941	13.328	13.051	13.611
ProbeTrack11	8	ProbeTrack	11.2	SCS215a	20101011.133754	20101011.135448	8	0.013328	60	0	60-180	60	170	GapExp	0	125	2	1	1	target	1	480	760	92701	13.375	12.899	27.092
ProbeTrack11	8	ProbeTrack	11.2	SCS215a	20101011.133754	20101011.135454	8	0.013328	60	0	60-180	60	134	GapExp	0	126	2	3	0	distractor	1	560	720	93421	13.328	12.900	13.756
ProbeTrack11	8	ProbeTrack	11.2	SCS215a	20101011.133754	20101011.135501	8	0.013328	60	10	60-180	60	142	GapExp	0	127	2	3	0	distractor	1	813	594	94015	13.328	12.901	13.754
ProbeTrack11	8	ProbeTrack	11.2	SCS215a	20101011.133754	20101011.135514	8	0.013328	60	10	60-180	60	122	GapExp	0	128	2	0	0	distractor	1	600	700	94715	13.380	12.861	26.666
ProbeTrack11	8	ProbeTrack	11.2	SCS215a	20101011.133754	20101011.135521	8	0.013328	60	10	60-180	60	106	GapExp	0	129	2	0	0	distractor	1	698	651	95366	13.492	12.856	26.953
ProbeTrack11	8	ProbeTrack	11.2	SCS215a	20101011.133754	20101011.135527	8	0.013328	60	10	60-180	60	109	GapExp	0	130	2	1	0	distractor	1	534	733	96099	13.496	13.056	26.654
ProbeTrack11	8	ProbeTrack	11.2	SCS215a	20101011.133754	20101011.135533	8	0.013328	60	0	60-180	60	100	GapExp	0	131	2	3	1	target	1	507	747	96846	13.328	12.855	13.498
ProbeTrack11	8	ProbeTrack	11.2	SCS215a	20101011.133754	20101011.135539	8	0.013328	60	0	60-180	60	175	GapExp	0	132	2	0	1	target	1	428	786	97632	13.375	12.851	26.716
ProbeTrack11	8	ProbeTrack	11.2	SCS215a	20101011.133754	20101011.135545	8	0.013328	60	0	60-180	60	154	GapExp	0	133	2	0	1	target	1	387	807	98439	13.328	12.905	13.753
ProbeTrack11	8	ProbeTrack	11.2	SCS215a	20101011.133754	20101011.135551	8	0.013328	60	10	60-180	60	103	GapExp	0	134	2	3	1	target	1	507	747	99186	13.328	12.870	13.801
ProbeTrack11	8	ProbeTrack	11.2	SCS215a	20101011.133754	20101011.135557	8	0.013328	60	10	60-180	60	133	GapExp	0	135	2	0	0	distractor	1	587	707	99893	13.328	12.994	13.694
ProbeTrack11	8	ProbeTrack	11.2	SCS215a	20101011.133754	20101011.135605	8	0.013328	60	10	60-180	60	66	GapExp	0	136	2	1	0	target	0	494	-1000	98893	13.328	13.104	13.541
ProbeTrack11	8	ProbeTrack	11.2	SCS215a	20101011.133754	20101011.135610	8	0.013328	60	0	60-180	60	68	GapExp	0	137	2	0	0	distractor	1	507	747	99640	13.328	12.864	13.795
ProbeTrack11	8	ProbeTrack	11.2	SCS215a	20101011.133754	20101011.135615	8	0.013328	60	0	60-180	60	62	GapExp	0	138	2	45	0	distractor	1	494	753	100393	13.328	12.885	13.763
ProbeTrack11	8	ProbeTrack	11.2	SCS215a	20101011.133754	20101011.135621	8	0.013328	60	10	60-180	60	62	GapExp	0	139	2	45	1	target	1	374	813	101206	13.328	12.934	13.724
ProbeTrack11	8	ProbeTrack	11.2	SCS215a	20101011.133754	20101011.135631	8	0.013328	60	10	60-180	60	162	GapExp	0	140	2	1	1	target	1	427	787	101993	13.328	13.207	13.448
ProbeTrack11	8	ProbeTrack	11.2	SCS215a	20101011.133754	20101011.135637	8	0.013328	60	10	60-180	60	121	GapExp	0	141	2	1	0	distractor	1	480	760	102753	13.328	13.308	13.348
ProbeTrack11	8	ProbeTrack	11.2	SCS215a	20101011.133754	20101011.135643	8	0.013328	60	10	60-180	60	87	GapExp	0	142	2	3	0	distractor	1	600	700	103453	13.328	13.309	13.346
ProbeTrack11	8	ProbeTrack	11.2	SCS215a	20101011.133754	20101011.135649	8	0.013328	60	10	60-180	60	71	GapExp	0	143	2	1	0	distractor	1	653	674	104127	13.392	12.934	26.784
ProbeTrack11	8	ProbeTrack	11.2	SCS215a	20101011.133754	20101011.135654	8	0.013328	60	10	60-180	60	172	GapExp	0	144	2	45	1	distractor	0	547	-1000	103127	13.328	12.939	13.714
ProbeTrack11	8	ProbeTrack	11.2	SCS215a	20101011.133754	20101011.135702	8	0.013328	60	0	60-180	60	81	GapExp	0	145	2	45	0	target	0	613	-1000	102127	13.328	12.900	13.761
ProbeTrack11	8	ProbeTrack	11.2	SCS215a	20101011.133754	20101011.135708	8	0.013328	60	10	60-180	60	102	GapExp	0	146	2	45	1	target	1	427	787	102914	13.328	12.903	13.757
ProbeTrack11	8	ProbeTrack	11.2	SCS215a	20101011.133754	20101011.135714	8	0.013328	60	0	60-180	60	147	GapExp	0	147	2	3	1	target	1	454	773	103687	13.328	12.890	13.763
ProbeTrack11	8	ProbeTrack	11.2	SCS215a	20101011.133754	20101011.135721	8	0.013328	60	0	60-180	60	124	GapExp	0	148	2	45	1	target	1	387	807	104494	13.328	12.916	13.749
ProbeTrack11	8	ProbeTrack	11.2	SCS215a	20101011.133754	20101011.135727	8	0.013328	60	10	60-180	60	105	GapExp	0	149	2	45	0	distractor	1	427	787	105281	13.328	12.944	13.717
ProbeTrack11	8	ProbeTrack	11.2	SCS215a	20101011.133754	20101011.135733	8	0.013328	60	0	60-180	60	104	GapExp	0	150	2	1	0	distractor	1	627	687	105968	13.386	13.144	26.658
ProbeTrack11	8	ProbeTrack	11.2	SCS215a	20101011.133754	20101011.135739	8	0.013328	60	0	60-180	60	180	GapExp	0	151	2	3	0	distractor	1	560	720	106688	13.372	13.247	26.659
ProbeTrack11	8	ProbeTrack	11.2	SCS215a	20101011.133754	20101011.135746	8	0.013328	60	10	60-180	60	109	GapExp	0	152	2	0	0	distractor	1	787	607	107295	13.328	12.944	13.705
ProbeTrack11	8	ProbeTrack	11.2	SCS215a	20101011.133754	20101011.135752	8	0.013328	60	0	60-180	60	110	GapExp	0	153	2	45	0	distractor	1	627	687	107982	13.328	13.187	13.449
ProbeTrack11	8	ProbeTrack	11.2	SCS215a	20101011.133754	20101011.135759	8	0.013328	60	0	60-180	60	153	GapExp	0	154	2	0	1	target	1	387	807	108789	13.328	12.921	13.741
ProbeTrack11	8	ProbeTrack	11.2	SCS215a	20101011.133754	20101011.135805	8	0.013328	60	0	60-180	60	153	GapExp	0	155	2	45	0	distractor	1	560	720	109509	13.328	13.094	13.562
ProbeTrack11	8	ProbeTrack	11.2	SCS215a	20101011.133754	20101011.135812	8	0.013328	60	0	60-180	60	84	GapExp	0	156	2	45	1	target	1	654	673	110182	13.432	12.880	26.660
ProbeTrack11	8	ProbeTrack	11.2	SCS215a	20101011.133754	20101011.135818	8	0.013328	60	0	60-180	60	137	GapExp	0	157	2	45	0	distractor	1	574	713	110895	13.328	12.932	13.719
ProbeTrack11	8	ProbeTrack	11.2	SCS215a	20101011.133754	20101011.135825	8	0.013328	60	0	60-180	60	95	GapExp	0	158	2	3	1	target	1	560	720	111615	13.389	12.918	26.646
ProbeTrack11	8	ProbeTrack	11.2	SCS215a	20101011.133754	20101011.135831	8	0.013328	60	10	60-180	60	99	GapExp	0	159	2	45	0	distractor	1	454	773	112388	13.428	12.910	26.999
ProbeTrack11	8	ProbeTrack	11.2	SCS215a	20101011.133754	20101011.135837	8	0.013328	60	0	60-180	60	176	GapExp	0	160	2	1	1	target	1	467	767	113155	13.604	12.851	27.131
ProbeTrack11	8	ProbeTrack	11.2	SCS215a	20101011.133754	20101011.135843	8	0.013328	60	10	60-180	60	169	GapExp	0	161	2	0	1	target	1	534	733	113888	13.372	12.918	26.965
ProbeTrack11	8	ProbeTrack	11.2	SCS215a	20101011.133754	20101011.135850	8	0.013328	60	10	60-180	60	146	GapExp	0	162	2	3	0	distractor	1	520	740	114628	13.570	12.856	26.985
ProbeTrack11	8	ProbeTrack	11.2	SCS215a	20101011.133754	20101011.135856	8	0.013328	60	10	60-180	60	67	GapExp	0	163	2	3	1	target	1	480	760	115388	13.397	12.951	26.652
ProbeTrack11	8	ProbeTrack	11.2	SCS215a	20101011.133754	20101011.135902	8	0.013328	60	0	60-180	60	176	GapExp	0	164	2	3	0	distractor	1	574	713	116101	13.417	12.861	27.120
ProbeTrack11	8	ProbeTrack	11.2	SCS215a	20101011.133754	20101011.135909	8	0.013328	60	10	60-180	60	172	GapExp	0	165	2	0	1	target	1	414	793	116894	13.465	12.927	26.974
ProbeTrack11	8	ProbeTrack	11.2	SCS215a	20101011.133754	20101011.135916	8	0.013328	60	0	60-180	60	161	GapExp	0	166	2	45	1	target	1	560	720	117614	13.410	12.881	26.979
ProbeTrack11	8	ProbeTrack	11.2	SCS215a	20101011.133754	20101011.135923	8	0.013328	60	10	60-180	60	89	GapExp	0	167	2	0	1	target	1	600	700	118314	13.328	12.956	13.706
ProbeTrack11	8	ProbeTrack	11.2	SCS215a	20101011.133754	20101011.135930	8	0.013328	60	10	60-180	60	110	GapExp	0	168	2	1	1	target	1	480	760	119074	13.328	13.308	13.346
ProbeTrack11	8	ProbeTrack	11.2	SCS215a	20101011.133754	20101011.135937	8	0.013328	60	0	60-180	60	163	GapExp	0	169	2	0	1	target	1	400	800	119874	13.328	12.884	13.663
ProbeTrack11	8	ProbeTrack	11.2	SCS215a	20101011.133754	20101011.135943	8	0.013328	60	10	60-180	60	124	GapExp	0	170	2	0	1	target	1	494	753	120627	13.328	12.841	13.808
ProbeTrack11	8	ProbeTrack	11.2	SCS215a	20101011.133754	20101011.135949	8	0.013328	60	10	60-180	60	102	GapExp	0	171	2	3	0	distractor	1	587	707	121334	13.328	12.856	13.809
ProbeTrack11	8	ProbeTrack	11.2	SCS215a	20101011.133754	20101011.135955	8	0.013328	60	10	60-180	60	121	GapExp	0	172	2	45	0	distractor	1	560	720	122054	13.374	12.848	26.684
ProbeTrack11	8	ProbeTrack	11.2	SCS215a	20101011.133754	20101011.140002	8	0.013328	60	10	60-180	60	81	GapExp	0	173	2	1	1	target	1	547	727	122781	13.455	12.877	27.112
ProbeTrack11	8	ProbeTrack	11.2	SCS215a	20101011.133754	20101011.140008	8	0.013328	60	0	60-180	60	68	GapExp	0	174	2	45	0	distractor	1	693	654	123435	13.328	12.845	13.800
ProbeTrack11	8	ProbeTrack	11.2	SCS215a	20101011.133754	20101011.140014	8	0.013328	60	10	60-180	60	142	GapExp	0	175	2	0	0	distractor	1	640	680	124115	13.328	12.946	13.723
ProbeTrack11	8	ProbeTrack	11.2	SCS215a	20101011.133754	20101011.140021	8	0.013328	60	10	60-180	60	178	GapExp	0	176	2	45	0	distractor	1	534	733	124848	13.442	12.892	27.093
ProbeTrack11	8	ProbeTrack	11.2	SCS215a	20101011.133754	20101011.140028	8	0.013328	60	0	60-180	60	80	GapExp	0	177	2	45	0	distractor	1	587	707	125555	13.382	12.918	26.658
ProbeTrack11	8	ProbeTrack	11.2	SCS215a	20101011.133754	20101011.140034	8	0.013328	60	10	60-180	60	154	GapExp	0	178	2	3	1	target	1	920	540	126095	13.328	12.891	13.767
ProbeTrack11	8	ProbeTrack	11.2	SCS215a	20101011.133754	20101011.140044	8	0.013328	60	10	60-180	60	112	GapExp	0	179	2	3	1	target	1	640	680	126775	13.328	12.909	13.722
ProbeTrack11	8	ProbeTrack	11.2	SCS215a	20101011.133754	20101011.140051	8	0.013328	60	10	60-180	60	148	GapExp	0	180	2	0	0	distractor	1	627	687	127462	13.328	12.854	13.811
ProbeTrack11	8	ProbeTrack	11.2	SCS215a	20101011.133754	20101011.140057	8	0.013328	60	10	60-180	60	156	GapExp	0	181	2	0	1	target	1	507	747	128209	13.328	13.059	13.610
ProbeTrack11	8	ProbeTrack	11.2	SCS215a	20101011.133754	20101011.140104	8	0.013328	60	10	60-180	60	80	GapExp	0	182	2	0	0	target	0	747	-1000	127209	13.387	12.959	26.649
ProbeTrack11	8	ProbeTrack	11.2	SCS215a	20101011.133754	20101011.140110	8	0.013328	60	10	60-180	60	124	GapExp	0	183	2	45	0	distractor	1	613	694	127903	13.328	12.873	13.767
ProbeTrack11	8	ProbeTrack	11.2	SCS215a	20101011.133754	20101011.140116	8	0.013328	60	0	60-180	60	120	GapExp	0	184	2	1	1	target	1	587	707	128610	13.328	12.928	13.725
ProbeTrack11	8	ProbeTrack	11.2	SCS215a	20101011.133754	20101011.140122	8	0.013328	60	10	60-180	60	119	GapExp	0	185	2	0	0	target	0	614	-1000	127610	13.486	12.881	27.010
ProbeTrack11	8	ProbeTrack	11.2	SCS215a	20101011.133754	20101011.140128	8	0.013328	60	0	60-180	60	123	GapExp	0	186	2	45	0	distractor	1	480	760	128370	13.328	13.005	13.657
ProbeTrack11	8	ProbeTrack	11.2	SCS215a	20101011.133754	20101011.140135	8	0.013328	60	10	60-180	60	173	GapExp	0	187	2	0	0	distractor	1	627	687	129057	13.371	12.884	27.060
ProbeTrack11	8	ProbeTrack	11.2	SCS215a	20101011.133754	20101011.140141	8	0.013328	60	10	60-180	60	160	GapExp	0	188	2	0	0	distractor	1	587	707	129764	13.419	12.842	27.143
ProbeTrack11	8	ProbeTrack	11.2	SCS215a	20101011.133754	20101011.140148	8	0.013328	60	10	60-180	60	92	GapExp	0	189	2	0	0	distractor	1	680	660	130424	13.328	12.953	13.693
ProbeTrack11	8	ProbeTrack	11.2	SCS215a	20101011.133754	20101011.140154	8	0.013328	60	0	60-180	60	147	GapExp	0	190	2	3	1	target	1	454	773	131197	13.328	13.087	13.548
ProbeTrack11	8	ProbeTrack	11.2	SCS215a	20101011.133754	20101011.140200	8	0.013328	60	10	60-180	60	127	GapExp	0	191	2	45	1	target	1	773	614	131811	13.370	13.088	26.643
ProbeTrack11	8	ProbeTrack	11.2	SCS215a	20101011.133754	20101011.140207	8	0.013328	60	0	60-180	60	102	GapExp	0	192	2	1	1	target	1	600	700	132511	13.328	13.001	13.664
ProbeTrack11	8	ProbeTrack	11.2	SCS215a	20101011.133754	20101011.140213	8	0.013328	60	0	60-180	60	110	GapExp	0	193	2	0	0	target	0	640	-1000	131511	13.442	13.133	26.704
ProbeTrack11	8	ProbeTrack	11.2	SCS215a	20101011.133754	20101011.140219	8	0.013328	60	10	60-180	60	165	GapExp	0	194	2	1	1	target	1	507	747	132258	13.328	12.965	13.686
ProbeTrack11	8	ProbeTrack	11.2	SCS215a	20101011.133754	20101011.140225	8	0.013328	60	0	60-180	60	73	GapExp	0	195	2	3	1	target	1	494	753	133011	13.398	12.860	27.082
ProbeTrack11	8	ProbeTrack	11.2	SCS215a	20101011.133754	20101011.140230	8	0.013328	60	0	60-180	60	114	GapExp	0	196	2	45	0	distractor	1	494	753	133764	13.376	12.902	27.097
ProbeTrack11	8	ProbeTrack	11.2	SCS215a	20101011.133754	20101011.140237	8	0.013328	60	10	60-180	60	88	GapExp	0	197	2	1	1	target	1	454	773	134537	13.328	12.844	13.806
ProbeTrack11	8	ProbeTrack	11.2	SCS215a	20101011.133754	20101011.140242	8	0.013328	60	10	60-180	60	100	GapExp	0	198	2	1	1	target	1	454	773	135310	13.328	12.888	13.780
ProbeTrack11	8	ProbeTrack	11.2	SCS215a	20101011.133754	20101011.140248	8	0.013328	60	0	60-180	60	164	GapExp	0	199	2	3	0	distractor	1	480	760	136070	13.328	13.166	13.469
ProbeTrack11	8	ProbeTrack	11.2	SCS215a	20101011.133754	20101011.140255	8	0.013328	60	0	60-180	60	143	GapExp	0	200	2	0	1	target	1	347	827	136897	13.328	12.971	13.683
ProbeTrack11	8	ProbeTrack	11.2	SCS215a	20101011.133754	20101011.140701	8	0.013328	60	0	60-180	60	62	GapExp	0	201	2	1	0	distractor	1	440	780	137677	13.328	12.945	13.720
ProbeTrack11	8	ProbeTrack	11.2	SCS215a	20101011.133754	20101011.140706	8	0.013328	60	0	60-180	60	92	GapExp	0	202	2	45	1	target	1	347	827	138504	13.383	12.335	26.785
ProbeTrack11	8	ProbeTrack	11.2	SCS215a	20101011.133754	20101011.140712	8	0.013328	60	0	60-180	60	149	GapExp	0	203	2	0	1	target	1	600	700	139204	13.328	13.012	13.657
ProbeTrack11	8	ProbeTrack	11.2	SCS215a	20101011.133754	20101011.140718	8	0.013328	60	0	60-180	60	156	GapExp	0	204	2	1	1	target	1	440	780	139984	13.328	12.870	13.786
ProbeTrack11	8	ProbeTrack	11.2	SCS215a	20101011.133754	20101011.140725	8	0.013328	60	0	60-180	60	126	GapExp	0	205	2	45	0	distractor	1	534	733	140717	13.374	12.876	27.110
ProbeTrack11	8	ProbeTrack	11.2	SCS215a	20101011.133754	20101011.140731	8	0.013328	60	0	60-180	60	175	GapExp	0	206	2	0	1	target	1	440	780	141497	13.328	12.894	13.763
ProbeTrack11	8	ProbeTrack	11.2	SCS215a	20101011.133754	20101011.140738	8	0.013328	60	10	60-180	60	158	GapExp	0	207	2	45	1	target	1	494	753	142250	13.327	12.880	13.775
ProbeTrack11	8	ProbeTrack	11.2	SCS215a	20101011.133754	20101011.140745	8	0.013328	60	0	60-180	60	156	GapExp	0	208	2	1	1	target	1	414	793	143043	13.328	12.884	13.774
ProbeTrack11	8	ProbeTrack	11.2	SCS215a	20101011.133754	20101011.140751	8	0.013328	60	0	60-180	60	94	GapExp	0	209	2	0	0	distractor	1	521	740	143783	13.456	12.861	26.937
ProbeTrack11	8	ProbeTrack	11.2	SCS215a	20101011.133754	20101011.140756	8	0.013328	60	0	60-180	60	177	GapExp	0	210	2	3	0	distractor	1	534	733	144516	13.643	12.872	27.109
ProbeTrack11	8	ProbeTrack	11.2	SCS215a	20101011.133754	20101011.140803	8	0.013328	60	0	60-180	60	86	GapExp	0	211	2	0	1	target	1	653	674	145190	13.390	12.847	27.066
ProbeTrack11	8	ProbeTrack	11.2	SCS215a	20101011.133754	20101011.140809	8	0.013328	60	0	60-180	60	128	GapExp	0	212	2	1	0	distractor	1	494	753	145943	13.382	12.843	27.076
ProbeTrack11	8	ProbeTrack	11.2	SCS215a	20101011.133754	20101011.140918	8	0.013328	60	10	60-180	60	124	GapExp	0	213	2	0	1	target	1	520	740	146683	13.328	13.031	13.624
ProbeTrack11	8	ProbeTrack	11.2	SCS215a	20101011.133754	20101011.140924	8	0.013328	60	10	60-180	60	151	GapExp	0	214	2	3	0	distractor	1	510	745	147428	13.328	12.863	13.797
ProbeTrack11	8	ProbeTrack	11.2	SCS215a	20101011.133754	20101011.140930	8	0.013328	60	10	60-180	60	140	GapExp	0	215	2	3	1	target	1	627	687	148115	13.424	12.850	27.090
ProbeTrack11	8	ProbeTrack	11.2	SCS215a	20101011.133754	20101011.140939	8	0.013328	60	0	60-180	60	118	GapExp	0	216	2	45	1	target	1	534	733	148848	13.470	12.900	26.672
ProbeTrack11	8	ProbeTrack	11.2	SCS215a	20101011.133754	20101011.140946	8	0.013328	60	10	60-180	60	71	GapExp	0	217	2	1	1	target	1	560	720	149568	13.396	12.896	26.657
ProbeTrack11	8	ProbeTrack	11.2	SCS215a	20101011.133754	20101011.140951	8	0.013328	60	10	60-180	60	122	GapExp	0	218	2	1	0	distractor	1	667	667	150235	13.379	12.940	27.031
ProbeTrack11	8	ProbeTrack	11.2	SCS215a	20101011.133754	20101011.140957	8	0.013328	60	10	60-180	60	173	GapExp	0	219	2	0	0	distractor	1	680	660	150895	13.328	13.100	13.558
ProbeTrack11	8	ProbeTrack	11.2	SCS215a	20101011.133754	20101011.141004	8	0.013328	60	0	60-180	60	139	GapExp	0	220	2	0	1	target	1	574	713	151608	13.379	12.914	26.671
ProbeTrack11	8	ProbeTrack	11.2	SCS215a	20101011.133754	20101011.141011	8	0.013328	60	10	60-180	60	126	GapExp	0	221	2	45	1	target	1	574	713	152321	13.372	12.939	26.657
ProbeTrack11	8	ProbeTrack	11.2	SCS215a	20101011.133754	20101011.141043	8	0.013328	60	10	60-180	60	176	GapExp	0	222	2	3	1	target	1	534	733	153054	13.371	12.871	27.074
ProbeTrack11	8	ProbeTrack	11.2	SCS215a	20101011.133754	20101011.141050	8	0.013328	60	0	60-180	60	111	GapExp	0	223	2	45	0	distractor	1	534	733	153787	13.376	12.856	27.005
ProbeTrack11	8	ProbeTrack	11.2	SCS215a	20101011.133754	20101011.141056	8	0.013328	60	10	60-180	60	116	GapExp	0	224	2	45	1	target	1	667	667	154454	13.328	12.854	13.781
ProbeTrack11	8	ProbeTrack	11.2	SCS215a	20101011.133754	20101011.141103	8	0.013328	60	10	60-180	60	139	GapExp	0	225	2	0	1	distractor	0	773	-1000	153454	13.328	12.920	13.735
ProbeTrack11	8	ProbeTrack	11.2	SCS215a	20101011.133754	20101011.141110	8	0.013328	60	0	60-180	60	129	GapExp	0	226	2	3	1	target	1	480	760	154214	13.328	12.865	13.783
ProbeTrack11	8	ProbeTrack	11.2	SCS215a	20101011.133754	20101011.141116	8	0.013328	60	0	60-180	60	88	GapExp	0	227	2	1	0	distractor	1	653	674	154888	13.328	12.953	13.698
ProbeTrack11	8	ProbeTrack	11.2	SCS215a	20101011.133754	20101011.141122	8	0.013328	60	10	60-180	60	161	GapExp	0	228	2	3	0	distractor	1	747	627	155515	13.328	12.915	13.746
ProbeTrack11	8	ProbeTrack	11.2	SCS215a	20101011.133754	20101011.141129	8	0.013328	60	10	60-180	60	80	GapExp	0	229	2	1	0	distractor	1	627	687	156202	13.390	12.916	26.689
ProbeTrack11	8	ProbeTrack	11.2	SCS215a	20101011.133754	20101011.141233	8	0.013328	60	0	60-180	60	150	GapExp	0	230	2	1	0	distractor	1	494	753	156955	13.784	12.861	27.092
ProbeTrack11	8	ProbeTrack	11.2	SCS215a	20101011.133754	20101011.141240	8	0.013328	60	10	60-180	60	62	GapExp	0	231	2	0	0	distractor	1	680	660	157615	13.462	12.864	26.960
ProbeTrack11	8	ProbeTrack	11.2	SCS215a	20101011.133754	20101011.141245	8	0.013328	60	0	60-180	60	170	GapExp	0	232	2	45	0	distractor	1	494	753	158368	13.368	12.996	26.945
ProbeTrack11	8	ProbeTrack	11.2	SCS215a	20101011.133754	20101011.141252	8	0.013328	60	0	60-180	60	94	GapExp	0	233	2	45	1	distractor	0	360	-1000	157368	13.383	12.855	27.122
ProbeTrack11	8	ProbeTrack	11.2	SCS215a	20101011.133754	20101011.141258	8	0.013328	60	0	60-180	60	161	GapExp	0	234	2	45	0	distractor	1	560	720	158088	13.369	12.883	27.093
ProbeTrack11	8	ProbeTrack	11.2	SCS215a	20101011.133754	20101011.141305	8	0.013328	60	10	60-180	60	139	GapExp	0	235	2	3	1	target	1	534	733	158821	13.328	12.882	13.775
ProbeTrack11	8	ProbeTrack	11.2	SCS215a	20101011.133754	20101011.141311	8	0.013328	60	10	60-180	60	93	GapExp	0	236	2	1	1	target	1	467	767	159588	13.328	13.047	13.604
ProbeTrack11	8	ProbeTrack	11.2	SCS215a	20101011.133754	20101011.141316	8	0.013328	60	10	60-180	60	76	GapExp	0	237	2	45	0	distractor	1	520	740	160328	13.328	13.265	13.416
ProbeTrack11	8	ProbeTrack	11.2	SCS215a	20101011.133754	20101011.141322	8	0.013328	60	0	60-180	60	167	GapExp	0	238	2	3	0	distractor	1	1107	447	160775	13.546	13.060	26.923
ProbeTrack11	8	ProbeTrack	11.2	SCS215a	20101011.133754	20101011.141330	8	0.013328	60	0	60-180	60	166	GapExp	0	239	2	1	0	distractor	1	707	647	161422	13.328	12.917	13.742
ProbeTrack11	8	ProbeTrack	11.2	SCS215a	20101011.133754	20101011.141336	8	0.013328	60	0	60-180	60	172	GapExp	0	240	2	1	0	distractor	1	507	747	162169	13.328	13.093	13.563
ProbeTrack11	8	ProbeTrack	11.2	SCS215a	20101011.133754	20101011.141356	8	0.013328	60	10	60-180	60	110	GapExp	0	241	2	1	0	distractor	1	640	680	162849	13.328	13.103	13.558
ProbeTrack11	8	ProbeTrack	11.2	SCS215a	20101011.133754	20101011.141402	8	0.013328	60	0	60-180	60	77	GapExp	0	242	2	3	1	target	1	534	733	163582	13.395	12.847	27.046
ProbeTrack11	8	ProbeTrack	11.2	SCS215a	20101011.133754	20101011.141409	8	0.013328	60	10	60-180	60	106	GapExp	0	243	2	1	0	distractor	1	627	687	164269	13.383	12.888	26.979
ProbeTrack11	8	ProbeTrack	11.2	SCS215a	20101011.133754	20101011.141423	8	0.013328	60	0	60-180	60	62	GapExp	0	244	2	45	1	target	1	587	707	164976	13.328	13.053	13.606
ProbeTrack11	8	ProbeTrack	11.2	SCS215a	20101011.133754	20101011.141429	8	0.013328	60	0	60-180	60	68	GapExp	0	245	2	1	0	distractor	1	614	693	165669	13.397	12.916	27.070
ProbeTrack11	8	ProbeTrack	11.2	SCS215a	20101011.133754	20101011.141435	8	0.013328	60	0	60-180	60	144	GapExp	0	246	2	3	1	target	1	560	720	166389	13.328	13.050	13.600
ProbeTrack11	8	ProbeTrack	11.2	SCS215a	20101011.133754	20101011.141441	8	0.013328	60	10	60-180	60	132	GapExp	0	247	2	0	0	distractor	1	427	787	167176	13.434	12.895	27.062
ProbeTrack11	8	ProbeTrack	11.2	SCS215a	20101011.133754	20101011.141447	8	0.013328	60	0	60-180	60	73	GapExp	0	248	2	45	1	target	1	654	673	167849	13.328	13.093	13.569
ProbeTrack11	8	ProbeTrack	11.2	SCS215a	20101011.133754	20101011.141453	8	0.013328	60	10	60-180	60	113	GapExp	0	249	2	3	0	distractor	1	613	694	168543	13.381	12.910	26.642
ProbeTrack11	8	ProbeTrack	11.2	SCS215a	20101011.133754	20101011.141459	8	0.013328	60	0	60-180	60	102	GapExp	0	250	2	3	1	target	1	467	767	169310	13.328	12.927	13.721
ProbeTrack11	8	ProbeTrack	11.2	SCS215a	20101011.133754	20101011.141504	8	0.013328	60	10	60-180	60	125	GapExp	0	251	2	1	1	target	1	534	733	170043	13.328	12.859	13.779
ProbeTrack11	8	ProbeTrack	11.2	SCS215a	20101011.133754	20101011.141511	8	0.013328	60	10	60-180	60	104	GapExp	0	252	2	1	1	target	1	520	740	170783	13.501	12.898	27.035
ProbeTrack11	8	ProbeTrack	11.2	SCS215a	20101011.133754	20101011.141517	8	0.013328	60	10	60-180	60	127	GapExp	0	253	2	1	1	target	1	516	742	171525	13.328	12.982	13.666
ProbeTrack11	8	ProbeTrack	11.2	SCS215a	20101011.133754	20101011.141523	8	0.013328	60	0	60-180	60	70	GapExp	0	254	2	1	0	distractor	1	680	660	172185	13.328	13.241	13.421
ProbeTrack11	8	ProbeTrack	11.2	SCS215a	20101011.133754	20101011.141528	8	0.013328	60	10	60-180	60	153	GapExp	0	255	2	0	0	distractor	1	520	740	172925	13.424	13.057	26.713
ProbeTrack11	8	ProbeTrack	11.2	SCS215a	20101011.133754	20101011.141535	8	0.013328	60	10	60-180	60	138	GapExp	0	256	2	0	1	target	1	720	640	173565	13.328	13.031	13.624
ProbeTrack11	8	ProbeTrack	11.2	SCS215a	20101011.133754	20101011.141541	8	0.013328	60	10	60-180	60	163	GapExp	0	257	2	45	1	distractor	0	467	-1000	172565	13.328	13.010	13.648
ProbeTrack11	8	ProbeTrack	11.2	SCS215a	20101011.133754	20101011.141548	8	0.013328	60	10	60-180	60	174	GapExp	0	258	2	3	1	target	1	560	720	173285	13.328	12.881	13.776
ProbeTrack11	8	ProbeTrack	11.2	SCS215a	20101011.133754	20101011.141555	8	0.013328	60	10	60-180	60	85	GapExp	0	259	2	45	0	distractor	1	733	634	173919	13.328	12.969	13.678
ProbeTrack11	8	ProbeTrack	11.2	SCS215a	20101011.133754	20101011.141601	8	0.013328	60	10	60-180	60	61	GapExp	0	260	2	45	1	target	1	427	787	174706	13.328	12.934	13.712
ProbeTrack11	8	ProbeTrack	11.2	SCS215a	20101011.133754	20101011.141607	8	0.013328	60	0	60-180	60	134	GapExp	0	261	2	45	0	distractor	1	720	640	175346	13.328	12.852	13.798
ProbeTrack11	8	ProbeTrack	11.2	SCS215a	20101011.133754	20101011.141614	8	0.013328	60	10	60-180	60	122	GapExp	0	262	2	3	1	target	1	693	654	176000	13.378	12.853	27.100
ProbeTrack11	8	ProbeTrack	11.2	SCS215a	20101011.133754	20101011.141620	8	0.013328	60	0	60-180	60	150	GapExp	0	263	2	3	0	distractor	1	467	767	176767	13.328	12.928	13.647
ProbeTrack11	8	ProbeTrack	11.2	SCS215a	20101011.133754	20101011.141626	8	0.013328	60	10	60-180	60	120	GapExp	0	264	2	45	1	distractor	0	573	-1000	175767	13.328	12.894	13.768
ProbeTrack11	8	ProbeTrack	11.2	SCS215a	20101011.133754	20101011.141632	8	0.013328	60	10	60-180	60	78	GapExp	0	265	2	0	1	target	1	627	687	176454	13.328	12.976	13.685
ProbeTrack11	8	ProbeTrack	11.2	SCS215a	20101011.133754	20101011.141638	8	0.013328	60	10	60-180	60	150	GapExp	0	266	2	45	1	distractor	0	440	-1000	175454	13.328	13.035	13.606
ProbeTrack11	8	ProbeTrack	11.2	SCS215a	20101011.133754	20101011.141645	8	0.013328	60	10	60-180	60	74	GapExp	0	267	2	0	1	target	1	534	733	176187	13.328	13.116	13.542
ProbeTrack11	8	ProbeTrack	11.2	SCS215a	20101011.133754	20101011.141650	8	0.013328	60	0	60-180	60	123	GapExp	0	268	2	45	0	distractor	1	547	727	176914	13.329	12.893	13.799
ProbeTrack11	8	ProbeTrack	11.2	SCS215a	20101011.133754	20101011.141656	8	0.013328	60	0	60-180	60	171	GapExp	0	269	2	3	0	distractor	1	653	674	177588	13.416	12.870	26.855
ProbeTrack11	8	ProbeTrack	11.2	SCS215a	20101011.133754	20101011.141703	8	0.013328	60	0	60-180	60	148	GapExp	0	270	2	0	1	target	1	440	780	178368	13.483	12.863	27.092
ProbeTrack11	8	ProbeTrack	11.2	SCS215a	20101011.133754	20101011.141709	8	0.013328	60	10	60-180	60	76	GapExp	0	271	2	0	1	target	1	560	720	179088	13.523	12.852	26.925
ProbeTrack11	8	ProbeTrack	11.2	SCS215a	20101011.133754	20101011.141715	8	0.013328	60	0	60-180	60	179	GapExp	0	272	2	0	0	distractor	1	534	733	179821	13.373	12.852	27.118
ProbeTrack11	8	ProbeTrack	11.2	SCS215a	20101011.133754	20101011.141721	8	0.013328	60	10	60-180	60	142	GapExp	0	273	2	1	1	target	1	507	747	180568	13.328	12.930	13.724
ProbeTrack11	8	ProbeTrack	11.2	SCS215a	20101011.133754	20101011.141728	8	0.013328	60	0	60-180	60	88	GapExp	0	274	2	3	0	distractor	1	773	614	181182	13.387	12.953	26.682
ProbeTrack11	8	ProbeTrack	11.2	SCS215a	20101011.133754	20101011.141737	8	0.013328	60	10	60-180	60	178	GapExp	0	275	2	0	1	distractor	0	707	-1000	180182	13.328	13.026	13.612
ProbeTrack11	8	ProbeTrack	11.2	SCS215a	20101011.133754	20101011.141744	8	0.013328	60	10	60-180	60	162	GapExp	0	276	2	0	1	target	1	573	714	180896	13.373	13.069	26.653
ProbeTrack11	8	ProbeTrack	11.2	SCS215a	20101011.133754	20101011.141751	8	0.013328	60	10	60-180	60	157	GapExp	0	277	2	3	1	target	1	547	727	181623	13.328	12.879	13.790
ProbeTrack11	8	ProbeTrack	11.2	SCS215a	20101011.133754	20101011.141757	8	0.013328	60	0	60-180	60	100	GapExp	0	278	2	45	1	target	1	427	787	182410	13.328	12.955	13.698
ProbeTrack11	8	ProbeTrack	11.2	SCS215a	20101011.133754	20101011.141803	8	0.013328	60	0	60-180	60	151	GapExp	0	279	2	3	1	target	1	387	807	183217	13.328	12.893	13.763
ProbeTrack11	8	ProbeTrack	11.2	SCS215a	20101011.133754	20101011.141809	8	0.013328	60	0	60-180	60	177	GapExp	0	280	2	3	0	distractor	1	560	720	183937	13.372	12.862	26.659
ProbeTrack11	8	ProbeTrack	11.2	SCS215a	20101011.133754	20101011.141816	8	0.013328	60	10	60-180	60	67	GapExp	0	281	2	45	0	distractor	1	534	733	184670	13.718	12.845	106.624
ProbeTrack11	8	ProbeTrack	11.2	SCS215a	20101011.133754	20101011.141822	8	0.013328	60	0	60-180	60	123	GapExp	0	282	2	45	1	target	1	427	787	185457	13.665	12.859	93.280
ProbeTrack11	8	ProbeTrack	11.2	SCS215a	20101011.133754	20101011.141831	8	0.013328	60	0	60-180	60	120	GapExp	0	283	2	0	0	distractor	1	494	753	186210	13.328	12.906	13.737
ProbeTrack11	8	ProbeTrack	11.2	SCS215a	20101011.133754	20101011.141838	8	0.013328	60	0	60-180	60	156	GapExp	0	284	2	1	0	distractor	1	415	793	187003	13.379	12.872	27.111
ProbeTrack11	8	ProbeTrack	11.2	SCS215a	20101011.133754	20101011.141845	8	0.013328	60	0	60-180	60	122	GapExp	0	285	2	3	0	distractor	1	480	760	187763	13.328	12.871	13.789
ProbeTrack11	8	ProbeTrack	11.2	SCS215a	20101011.133754	20101011.141851	8	0.013328	60	10	60-180	60	151	GapExp	0	286	2	3	1	distractor	0	440	-1000	186763	13.425	12.881	27.094
ProbeTrack11	8	ProbeTrack	11.2	SCS215a	20101011.133754	20101011.141857	8	0.013328	60	0	60-180	60	132	GapExp	0	287	2	0	0	distractor	1	520	740	187503	13.328	12.898	13.769
ProbeTrack11	8	ProbeTrack	11.2	SCS215a	20101011.133754	20101011.141903	8	0.013328	60	10	60-180	60	101	GapExp	0	288	2	45	1	target	1	507	747	188250	13.328	12.845	13.805
ProbeTrack11	8	ProbeTrack	11.2	SCS215a	20101011.133754	20101011.141909	8	0.013328	60	0	60-180	60	93	GapExp	0	289	2	3	1	target	1	573	714	188964	13.328	13.014	13.648
ProbeTrack11	8	ProbeTrack	11.2	SCS215a	20101011.133754	20101011.141915	8	0.013328	60	10	60-180	60	87	GapExp	0	290	2	0	1	target	1	707	647	189611	13.328	12.927	13.721
ProbeTrack11	8	ProbeTrack	11.2	SCS215a	20101011.133754	20101011.141921	8	0.013328	60	0	60-180	60	82	GapExp	0	291	2	3	0	distractor	1	507	747	190358	13.328	12.866	13.795
ProbeTrack11	8	ProbeTrack	11.2	SCS215a	20101011.133754	20101011.141926	8	0.013328	60	10	60-180	60	134	GapExp	0	292	2	45	0	distractor	1	414	793	191151	13.371	12.858	26.833
ProbeTrack11	8	ProbeTrack	11.2	SCS215a	20101011.133754	20101011.141933	8	0.013328	60	0	60-180	60	88	GapExp	0	293	2	0	1	target	1	454	773	191924	13.328	12.906	13.753
ProbeTrack11	8	ProbeTrack	11.2	SCS215a	20101011.133754	20101011.141938	8	0.013328	60	0	60-180	60	82	GapExp	0	294	2	45	1	target	1	507	747	192671	13.328	12.931	13.719
ProbeTrack11	8	ProbeTrack	11.2	SCS215a	20101011.133754	20101011.141946	8	0.013328	60	10	60-180	60	171	GapExp	0	295	2	3	0	distractor	1	534	733	193404	13.416	12.900	26.819
ProbeTrack11	8	ProbeTrack	11.2	SCS215a	20101011.133754	20101011.141953	8	0.013328	60	0	60-180	60	163	GapExp	0	296	2	1	0	distractor	1	574	713	194117	13.328	12.915	13.748
ProbeTrack11	8	ProbeTrack	11.2	SCS215a	20101011.133754	20101011.141959	8	0.013328	60	10	60-180	60	117	GapExp	0	297	2	45	0	distractor	1	534	733	194850	13.328	13.099	13.554
ProbeTrack11	8	ProbeTrack	11.2	SCS215a	20101011.133754	20101011.142006	8	0.013328	60	0	60-180	60	78	GapExp	0	298	2	45	1	target	1	534	733	195583	13.383	12.874	26.667
ProbeTrack11	8	ProbeTrack	11.2	SCS215a	20101011.133754	20101011.142012	8	0.013328	60	0	60-180	60	115	GapExp	0	299	2	1	1	target	1	640	680	196263	13.383	13.136	26.654
ProbeTrack11	8	ProbeTrack	11.2	SCS215a	20101011.133754	20101011.142018	8	0.013328	60	0	60-180	60	116	GapExp	0	300	2	1	1	target	1	574	713	196976	13.384	12.843	27.058
ProbeTrack11	8	ProbeTrack	11.2	SCS215a	20101011.133754	20101011.142024	8	0.013328	60	0	60-180	60	152	GapExp	0	301	2	45	1	distractor	0	573	-1000	195976	13.328	12.904	13.757
ProbeTrack11	8	ProbeTrack	11.2	SCS215a	20101011.133754	20101011.142031	8	0.013328	60	0	60-180	60	176	GapExp	0	302	2	1	0	distractor	1	600	700	196676	13.328	12.894	13.757
ProbeTrack11	8	ProbeTrack	11.2	SCS215a	20101011.133754	20101011.142040	8	0.013328	60	0	60-180	60	143	GapExp	0	303	2	0	0	distractor	1	773	614	197290	13.328	12.960	13.698
ProbeTrack11	8	ProbeTrack	11.2	SCS215a	20101011.133754	20101011.142046	8	0.013328	60	0	60-180	60	147	GapExp	0	304	2	3	0	distractor	1	547	727	198017	13.377	13.007	26.959
ProbeTrack11	8	ProbeTrack	11.2	SCS215a	20101011.133754	20101011.142057	8	0.013328	60	10	60-180	60	76	GapExp	0	305	2	3	1	target	1	520	740	198757	13.328	13.005	13.638
ProbeTrack11	8	ProbeTrack	11.2	SCS215a	20101011.133754	20101011.142105	8	0.013328	60	0	60-180	60	118	GapExp	0	306	2	0	1	target	1	427	787	199544	13.328	13.307	13.346
ProbeTrack11	8	ProbeTrack	11.2	SCS215a	20101011.133754	20101011.142214	8	0.013328	60	0	60-180	60	82	GapExp	0	307	2	1	0	distractor	1	507	747	200291	13.328	13.114	13.545
ProbeTrack11	8	ProbeTrack	11.2	SCS215a	20101011.133754	20101011.142219	8	0.013328	60	0	60-180	60	171	GapExp	0	308	2	0	0	distractor	1	467	767	201058	13.328	12.920	13.720
ProbeTrack11	8	ProbeTrack	11.2	SCS215a	20101011.133754	20101011.142226	8	0.013328	60	10	60-180	60	164	GapExp	0	309	2	3	1	target	1	494	753	201811	13.328	13.048	13.613
ProbeTrack11	8	ProbeTrack	11.2	SCS215a	20101011.133754	20101011.142232	8	0.013328	60	10	60-180	60	67	GapExp	0	310	2	3	0	target	0	524	-1000	200811	13.328	12.970	13.687
ProbeTrack11	8	ProbeTrack	11.2	SCS215a	20101011.133754	20101011.142237	8	0.013328	60	0	60-180	60	133	GapExp	0	311	2	3	1	target	1	574	713	201524	13.432	13.065	26.652
ProbeTrack11	8	ProbeTrack	11.2	SCS215a	20101011.133754	20101011.142243	8	0.013328	60	0	60-180	60	135	GapExp	0	312	2	1	0	distractor	1	494	753	202277	13.328	12.890	13.768
ProbeTrack11	8	ProbeTrack	11.2	SCS215a	20101011.133754	20101011.142249	8	0.013328	60	0	60-180	60	144	GapExp	0	313	2	3	0	distractor	1	414	793	203070	13.380	12.899	26.663
ProbeTrack11	8	ProbeTrack	11.2	SCS215a	20101011.133754	20101011.142255	8	0.013328	60	0	60-180	60	141	GapExp	0	314	2	0	1	target	1	534	733	203803	13.483	12.850	26.717
ProbeTrack11	8	ProbeTrack	11.2	SCS215a	20101011.133754	20101011.142301	8	0.013328	60	10	60-180	60	89	GapExp	0	315	2	3	0	distractor	1	907	547	204350	13.328	13.120	13.546
ProbeTrack11	8	ProbeTrack	11.2	SCS215a	20101011.133754	20101011.142307	8	0.013328	60	0	60-180	60	107	GapExp	0	316	2	0	1	target	1	480	760	205110	13.328	13.019	13.646
ProbeTrack11	8	ProbeTrack	11.2	SCS215a	20101011.133754	20101011.142313	8	0.013328	60	0	60-180	60	95	GapExp	0	317	2	1	1	target	1	454	773	205883	13.328	13.038	13.622
ProbeTrack11	8	ProbeTrack	11.2	SCS215a	20101011.133754	20101011.142318	8	0.013328	60	10	60-180	60	180	GapExp	0	318	2	45	0	distractor	1	547	727	206610	13.328	12.887	13.762
ProbeTrack11	8	ProbeTrack	11.2	SCS215a	20101011.133754	20101011.142326	8	0.013328	60	10	60-180	60	132	GapExp	0	319	2	1	0	distractor	1	400	800	207410	13.594	12.856	27.078
ProbeTrack11	8	ProbeTrack	11.2	SCS215a	20101011.133754	20101011.142332	8	0.013328	60	10	60-180	60	108	GapExp	0	320	2	3	1	target	1	414	793	208203	13.444	12.947	27.021
ProbeTrack11	8	ProbeTrack	11.2	SCS215a	20101011.133754	20101011.142337	8	0.013328	60	10	60-180	60	171	GapExp	0	321	2	3	1	target	1	480	760	208963	13.328	12.830	13.820
ProbeTrack11	8	ProbeTrack	11.2	SCS215a	20101011.133754	20101011.142344	8	0.013328	60	10	60-180	60	145	GapExp	0	322	2	1	1	target	1	454	773	209736	13.378	12.860	26.659
ProbeTrack11	8	ProbeTrack	11.2	SCS215a	20101011.133754	20101011.142350	8	0.013328	60	0	60-180	60	105	GapExp	0	323	2	0	0	distractor	1	480	760	210496	13.328	12.852	13.798
ProbeTrack11	8	ProbeTrack	11.2	SCS215a	20101011.133754	20101011.142356	8	0.013328	60	0	60-180	60	87	GapExp	0	324	2	0	0	distractor	1	587	707	211203	13.328	12.984	13.660
ProbeTrack11	8	ProbeTrack	11.2	SCS215a	20101011.133754	20101011.142401	8	0.013328	60	10	60-180	60	84	GapExp	0	325	2	45	0	distractor	1	613	694	211897	13.328	12.967	13.674
ProbeTrack11	8	ProbeTrack	11.2	SCS215a	20101011.133754	20101011.142407	8	0.013328	60	10	60-180	60	62	GapExp	0	326	2	0	1	target	1	427	787	212684	13.328	13.045	13.610
ProbeTrack11	8	ProbeTrack	11.2	SCS215a	20101011.133754	20101011.142412	8	0.013328	60	10	60-180	60	136	GapExp	0	327	2	3	0	distractor	1	600	700	213384	13.328	12.900	13.764
ProbeTrack11	8	ProbeTrack	11.2	SCS215a	20101011.133754	20101011.142419	8	0.013328	60	0	60-180	60	130	GapExp	0	328	2	1	0	distractor	1	494	753	214137	13.328	12.874	13.770
ProbeTrack11	8	ProbeTrack	11.2	SCS215a	20101011.133754	20101011.142424	8	0.013328	60	10	60-180	60	92	GapExp	0	329	2	1	1	target	1	440	780	214917	13.328	13.127	13.520
ProbeTrack11	8	ProbeTrack	11.2	SCS215a	20101011.133754	20101011.142430	8	0.013328	60	0	60-180	60	150	GapExp	0	330	2	45	0	distractor	1	480	760	215677	13.328	12.942	13.705
ProbeTrack11	8	ProbeTrack	11.2	SCS215a	20101011.133754	20101011.142437	8	0.013328	60	10	60-180	60	155	GapExp	0	331	2	0	0	distractor	1	507	747	216424	13.328	12.841	13.824
ProbeTrack11	8	ProbeTrack	11.2	SCS215a	20101011.133754	20101011.142444	8	0.013328	60	0	60-180	60	92	GapExp	0	332	2	0	1	target	1	400	800	217224	13.328	13.308	13.347
ProbeTrack11	8	ProbeTrack	11.2	SCS215a	20101011.133754	20101011.142451	8	0.013328	60	0	60-180	60	158	GapExp	0	333	2	3	1	target	1	440	780	218004	13.377	12.904	27.092
ProbeTrack11	8	ProbeTrack	11.2	SCS215a	20101011.133754	20101011.142458	8	0.013328	60	0	60-180	60	69	GapExp	0	334	2	1	1	target	1	467	767	218771	13.328	12.866	13.655
ProbeTrack11	8	ProbeTrack	11.2	SCS215a	20101011.133754	20101011.142503	8	0.013328	60	0	60-180	60	173	GapExp	0	335	2	45	0	distractor	1	320	840	219611	13.369	12.891	27.091
ProbeTrack11	8	ProbeTrack	11.2	SCS215a	20101011.133754	20101011.142510	8	0.013328	60	10	60-180	60	91	GapExp	0	336	2	1	0	target	0	600	-1000	218611	13.328	13.071	13.565
ProbeTrack11	8	ProbeTrack	11.2	SCS215a	20101011.133754	20101011.142516	8	0.013328	60	0	60-180	60	160	GapExp	0	337	2	45	0	distractor	1	480	760	219371	13.328	12.879	13.766
ProbeTrack11	8	ProbeTrack	11.2	SCS215a	20101011.133754	20101011.142522	8	0.013328	60	10	60-180	60	93	GapExp	0	338	2	0	0	target	0	800	-1000	218371	13.328	12.869	13.800
ProbeTrack11	8	ProbeTrack	11.2	SCS215a	20101011.133754	20101011.142528	8	0.013328	60	0	60-180	60	155	GapExp	0	339	2	0	0	distractor	1	454	773	219144	13.428	13.096	26.661
ProbeTrack11	8	ProbeTrack	11.2	SCS215a	20101011.133754	20101011.142534	8	0.013328	60	10	60-180	60	92	GapExp	0	340	2	1	0	distractor	1	427	787	219931	13.328	13.288	13.364
ProbeTrack11	8	ProbeTrack	11.2	SCS215a	20101011.133754	20101011.142540	8	0.013328	60	10	60-180	60	110	GapExp	0	341	2	1	1	distractor	0	440	-1000	218931	13.328	12.848	13.813
ProbeTrack11	8	ProbeTrack	11.2	SCS215a	20101011.133754	20101011.142546	8	0.013328	60	10	60-180	60	65	GapExp	0	342	2	45	0	distractor	1	560	720	219651	13.440	12.857	26.993
ProbeTrack11	8	ProbeTrack	11.2	SCS215a	20101011.133754	20101011.142551	8	0.013328	60	10	60-180	60	116	GapExp	0	343	2	1	0	target	0	587	-1000	218651	13.380	12.838	26.792
ProbeTrack11	8	ProbeTrack	11.2	SCS215a	20101011.133754	20101011.142557	8	0.013328	60	10	60-180	60	171	GapExp	0	344	2	1	1	target	1	573	714	219365	13.372	12.875	26.736
ProbeTrack11	8	ProbeTrack	11.2	SCS215a	20101011.133754	20101011.142604	8	0.013328	60	0	60-180	60	112	GapExp	0	345	2	1	0	distractor	1	400	800	220165	13.449	12.879	27.120
ProbeTrack11	8	ProbeTrack	11.2	SCS215a	20101011.133754	20101011.142609	8	0.013328	60	0	60-180	60	77	GapExp	0	346	2	45	1	target	1	360	820	220985	13.328	12.897	13.760
ProbeTrack11	8	ProbeTrack	11.2	SCS215a	20101011.133754	20101011.142615	8	0.013328	60	10	60-180	60	163	GapExp	0	347	2	45	0	distractor	1	440	780	221765	13.612	12.876	27.105
ProbeTrack11	8	ProbeTrack	11.2	SCS215a	20101011.133754	20101011.142622	8	0.013328	60	10	60-180	60	148	GapExp	0	348	2	1	0	target	0	707	-1000	220765	13.697	12.889	27.046
ProbeTrack11	8	ProbeTrack	11.2	SCS215a	20101011.133754	20101011.142628	8	0.013328	60	0	60-180	60	91	GapExp	0	349	2	45	0	distractor	1	613	694	221459	13.379	12.855	26.652
ProbeTrack11	8	ProbeTrack	11.2	SCS215a	20101011.133754	20101011.142634	8	0.013328	60	10	60-180	60	133	GapExp	0	350	2	0	1	target	1	600	700	222159	13.378	12.841	27.133
ProbeTrack11	8	ProbeTrack	11.2	SCS215a	20101011.133754	20101011.142641	8	0.013328	60	10	60-180	60	121	GapExp	0	351	2	1	0	distractor	1	587	707	222866	13.328	12.898	13.755
ProbeTrack11	8	ProbeTrack	11.2	SCS215a	20101011.133754	20101011.142646	8	0.013328	60	0	60-180	60	135	GapExp	0	352	2	45	1	target	1	480	760	223626	13.328	12.987	13.671
ProbeTrack11	8	ProbeTrack	11.2	SCS215a	20101011.133754	20101011.142653	8	0.013328	60	0	60-180	60	77	GapExp	0	353	2	0	0	distractor	1	467	767	224393	13.328	13.094	13.564
ProbeTrack11	8	ProbeTrack	11.2	SCS215a	20101011.133754	20101011.142658	8	0.013328	60	0	60-180	60	139	GapExp	0	354	2	1	0	distractor	1	565	718	225111	13.328	13.006	13.672
ProbeTrack11	8	ProbeTrack	11.2	SCS215a	20101011.133754	20101011.142704	8	0.013328	60	0	60-180	60	169	GapExp	0	355	2	1	0	distractor	1	520	740	225851	13.328	12.907	13.748
ProbeTrack11	8	ProbeTrack	11.2	SCS215a	20101011.133754	20101011.142710	8	0.013328	60	10	60-180	60	154	GapExp	0	356	2	45	0	distractor	1	733	634	226485	13.367	12.925	26.666
ProbeTrack11	8	ProbeTrack	11.2	SCS215a	20101011.133754	20101011.142718	8	0.013328	60	0	60-180	60	79	GapExp	0	357	2	1	0	distractor	1	733	634	227119	13.328	12.840	13.807
ProbeTrack11	8	ProbeTrack	11.2	SCS215a	20101011.133754	20101011.142723	8	0.013328	60	10	60-180	60	99	GapExp	0	358	2	0	0	distractor	1	560	720	227839	13.386	12.883	26.832
ProbeTrack11	8	ProbeTrack	11.2	SCS215a	20101011.133754	20101011.142729	8	0.013328	60	10	60-180	60	105	GapExp	0	359	2	1	0	distractor	1	440	780	228619	13.328	12.886	13.770
ProbeTrack11	8	ProbeTrack	11.2	SCS215a	20101011.133754	20101011.142735	8	0.013328	60	10	60-180	60	74	GapExp	0	360	2	3	0	distractor	1	560	720	229339	13.457	12.872	27.099
ProbeTrack11	8	ProbeTrack	11.2	SCS215a	20101011.133754	20101011.142740	8	0.013328	60	0	60-180	60	150	GapExp	0	361	2	0	0	distractor	1	507	747	230086	13.378	12.866	27.014
ProbeTrack11	8	ProbeTrack	11.2	SCS215a	20101011.133754	20101011.142746	8	0.013328	60	0	60-180	60	61	GapExp	0	362	2	1	1	target	1	440	780	230866	13.405	13.309	26.659
ProbeTrack11	8	ProbeTrack	11.2	SCS215a	20101011.133754	20101011.142751	8	0.013328	60	10	60-180	60	84	GapExp	0	363	2	1	1	target	1	627	687	231553	13.328	12.873	13.693
ProbeTrack11	8	ProbeTrack	11.2	SCS215a	20101011.133754	20101011.142757	8	0.013328	60	10	60-180	60	91	GapExp	0	364	2	45	0	distractor	1	467	767	232320	13.379	12.885	27.074
ProbeTrack11	8	ProbeTrack	11.2	SCS215a	20101011.133754	20101011.142803	8	0.013328	60	0	60-180	60	169	GapExp	0	365	2	45	1	target	1	614	693	233013	13.446	12.851	26.808
ProbeTrack11	8	ProbeTrack	11.2	SCS215a	20101011.133754	20101011.142810	8	0.013328	60	10	60-180	60	96	GapExp	0	366	2	3	0	distractor	1	773	614	233627	13.328	13.079	13.575
ProbeTrack11	8	ProbeTrack	11.2	SCS215a	20101011.133754	20101011.142819	8	0.013328	60	0	60-180	60	123	GapExp	0	367	2	0	1	target	1	440	780	234407	13.442	12.858	27.120
ProbeTrack11	8	ProbeTrack	11.2	SCS215a	20101011.133754	20101011.142825	8	0.013328	60	10	60-180	60	179	GapExp	0	368	2	45	1	target	1	454	773	235180	13.328	12.870	13.773
ProbeTrack11	8	ProbeTrack	11.2	SCS215a	20101011.133754	20101011.142832	8	0.013328	60	0	60-180	60	78	GapExp	0	369	2	3	1	target	1	480	760	235940	13.328	12.928	13.748
ProbeTrack11	8	ProbeTrack	11.2	SCS215a	20101011.133754	20101011.142837	8	0.013328	60	10	60-180	60	73	GapExp	0	370	2	1	1	target	1	467	767	236707	13.328	12.939	13.775
ProbeTrack11	8	ProbeTrack	11.2	SCS215a	20101011.133754	20101011.142842	8	0.013328	60	10	60-180	60	87	GapExp	0	371	2	3	0	target	0	707	-1000	235707	13.328	12.945	13.720
ProbeTrack11	8	ProbeTrack	11.2	SCS215a	20101011.133754	20101011.142848	8	0.013328	60	0	60-180	60	161	GapExp	0	372	2	45	1	distractor	0	600	-1000	234707	13.328	12.853	13.799
ProbeTrack11	8	ProbeTrack	11.2	SCS215a	20101011.133754	20101011.142855	8	0.013328	60	10	60-180	60	77	GapExp	0	373	2	0	1	target	1	440	780	235487	13.328	12.917	13.756
ProbeTrack11	8	ProbeTrack	11.2	SCS215a	20101011.133754	20101011.142900	8	0.013328	60	0	60-180	60	136	GapExp	0	374	2	45	1	target	1	374	813	236300	13.328	13.100	13.544
ProbeTrack11	8	ProbeTrack	11.2	SCS215a	20101011.133754	20101011.142907	8	0.013328	60	10	60-180	60	111	GapExp	0	375	2	1	0	target	0	387	-1000	235300	13.386	12.859	26.657
ProbeTrack11	8	ProbeTrack	11.2	SCS215a	20101011.133754	20101011.142912	8	0.013328	60	0	60-180	60	163	GapExp	0	376	2	1	1	target	1	454	773	236073	13.328	12.918	13.733
ProbeTrack11	8	ProbeTrack	11.2	SCS215a	20101011.133754	20101011.142918	8	0.013328	60	0	60-180	60	173	GapExp	0	377	2	0	1	target	1	454	773	236846	13.328	12.926	13.729
ProbeTrack11	8	ProbeTrack	11.2	SCS215a	20101011.133754	20101011.142925	8	0.013328	60	10	60-180	60	69	GapExp	0	378	2	0	1	distractor	0	867	-1000	235846	13.328	13.209	13.442
ProbeTrack11	8	ProbeTrack	11.2	SCS215a	20101011.133754	20101011.142930	8	0.013328	60	0	60-180	60	113	GapExp	0	379	2	1	1	target	1	454	773	236619	13.328	13.019	13.625
ProbeTrack11	8	ProbeTrack	11.2	SCS215a	20101011.133754	20101011.142936	8	0.013328	60	10	60-180	60	80	GapExp	0	380	2	0	0	distractor	1	574	713	237332	13.328	12.844	13.818
ProbeTrack11	8	ProbeTrack	11.2	SCS215a	20101011.133754	20101011.142942	8	0.013328	60	10	60-180	60	161	GapExp	0	381	2	0	1	target	1	440	780	238112	13.328	13.008	13.655
ProbeTrack11	8	ProbeTrack	11.2	SCS215a	20101011.133754	20101011.142948	8	0.013328	60	10	60-180	60	92	GapExp	0	382	2	45	1	target	1	653	674	238786	13.425	13.308	26.656
ProbeTrack11	8	ProbeTrack	11.2	SCS215a	20101011.133754	20101011.142954	8	0.013328	60	0	60-180	60	134	GapExp	0	383	2	45	0	distractor	1	534	733	239519	13.328	12.894	13.768
ProbeTrack11	8	ProbeTrack	11.2	SCS215a	20101011.133754	20101011.143001	8	0.013328	60	0	60-180	60	71	GapExp	0	384	2	45	1	target	1	574	713	240232	13.328	13.130	13.537
ProbeTrack11	8	ProbeTrack	11.2	SCS215a	20101011.133754	20101011.143007	8	0.013328	60	0	60-180	60	96	GapExp	0	385	2	1	1	target	1	480	760	240992	13.518	12.935	26.809
ProbeTrack11	8	ProbeTrack	11.2	SCS215a	20101011.133754	20101011.143036	8	0.013328	60	0	60-180	60	147	GapExp	0	386	2	3	1	target	1	414	793	241785	13.328	12.914	13.754
ProbeTrack11	8	ProbeTrack	11.2	SCS215a	20101011.133754	20101011.143042	8	0.013328	60	0	60-180	60	141	GapExp	0	387	2	3	1	target	1	440	780	242565	13.537	12.850	39.996
ProbeTrack11	8	ProbeTrack	11.2	SCS215a	20101011.133754	20101011.143048	8	0.013328	60	10	60-180	60	112	GapExp	0	388	2	3	1	target	1	560	720	243285	13.493	12.834	27.079
ProbeTrack11	8	ProbeTrack	11.2	SCS215a	20101011.133754	20101011.143054	8	0.013328	60	0	60-180	60	174	GapExp	0	389	2	45	1	target	1	453	774	244059	13.775	12.849	27.122
ProbeTrack11	8	ProbeTrack	11.2	SCS215a	20101011.133754	20101011.143103	8	0.013328	60	0	60-180	60	105	GapExp	0	390	2	1	1	target	1	440	780	244839	13.449	12.875	27.092
ProbeTrack11	8	ProbeTrack	11.2	SCS215a	20101011.133754	20101011.143108	8	0.013328	60	10	60-180	60	155	GapExp	0	391	2	45	0	distractor	1	520	740	245579	13.369	12.912	26.753
ProbeTrack11	8	ProbeTrack	11.2	SCS215a	20101011.133754	20101011.143115	8	0.013328	60	10	60-180	60	176	GapExp	0	392	2	3	1	target	1	427	787	246366	13.328	12.985	13.671
ProbeTrack11	8	ProbeTrack	11.2	SCS215a	20101011.133754	20101011.143122	8	0.013328	60	0	60-180	60	116	GapExp	0	393	2	45	1	target	1	667	667	247033	13.374	13.282	26.663
ProbeTrack11	8	ProbeTrack	11.2	SCS215a	20101011.133754	20101011.143128	8	0.013328	60	0	60-180	60	124	GapExp	0	394	2	0	0	distractor	1	600	700	247733	13.328	12.916	13.739
ProbeTrack11	8	ProbeTrack	11.2	SCS215a	20101011.133754	20101011.143135	8	0.013328	60	10	60-180	60	133	GapExp	0	395	2	1	0	distractor	1	440	780	248513	13.328	13.090	13.570
ProbeTrack11	8	ProbeTrack	11.2	SCS215a	20101011.133754	20101011.143141	8	0.013328	60	10	60-180	60	157	GapExp	0	396	2	1	1	distractor	0	560	-1000	247513	13.328	12.866	13.783
ProbeTrack11	8	ProbeTrack	11.2	SCS215a	20101011.133754	20101011.143147	8	0.013328	60	0	60-180	60	69	GapExp	0	397	2	3	0	distractor	1	627	687	248200	13.328	13.282	13.372
ProbeTrack11	8	ProbeTrack	11.2	SCS215a	20101011.133754	20101011.143152	8	0.013328	60	0	60-180	60	65	GapExp	0	398	2	0	1	target	1	440	780	248980	13.404	12.846	26.696
ProbeTrack11	8	ProbeTrack	11.2	SCS215a	20101011.133754	20101011.143157	8	0.013328	60	10	60-180	60	70	GapExp	0	399	2	45	1	target	1	494	753	249733	13.495	12.870	40.337
ProbeTrack11	8	ProbeTrack	11.2	SCS215a	20101011.133754	20101011.143203	8	0.013328	60	0	60-180	60	97	GapExp	0	400	2	0	0	distractor	1	627	687	250420	13.328	12.856	13.805
ProbeTrack11	8	ProbeTrack	11.2	SCS215a	20101011.133754	20101011.143209	8	0.013328	60	10	60-180	60	174	GapExp	0	401	2	1	0	distractor	1	600	700	251120	13.458	12.853	27.122
ProbeTrack11	8	ProbeTrack	11.2	SCS215a	20101011.133754	20101011.143215	8	0.013328	60	10	60-180	60	110	GapExp	0	402	2	3	1	target	1	480	760	251880	13.328	13.082	13.567
ProbeTrack11	8	ProbeTrack	11.2	SCS215a	20101011.133754	20101011.143221	8	0.013328	60	10	60-180	60	88	GapExp	0	403	2	45	1	target	1	560	720	252600	13.379	12.910	26.992
ProbeTrack11	8	ProbeTrack	11.2	SCS215a	20101011.133754	20101011.143227	8	0.013328	60	10	60-180	60	77	GapExp	0	404	2	0	0	distractor	1	507	747	253347	13.526	12.867	40.060
ProbeTrack11	8	ProbeTrack	11.2	SCS215a	20101011.133754	20101011.143233	8	0.013328	60	0	60-180	60	135	GapExp	0	405	2	0	1	target	1	427	787	254134	13.382	12.940	27.049
ProbeTrack11	8	ProbeTrack	11.2	SCS215a	20101011.133754	20101011.143239	8	0.013328	60	0	60-180	60	75	GapExp	0	406	2	45	0	distractor	1	507	747	254881	13.384	12.855	27.129
ProbeTrack11	8	ProbeTrack	11.2	SCS215a	20101011.133754	20101011.143245	8	0.013328	60	10	60-180	60	71	GapExp	0	407	2	0	1	target	1	440	780	255661	13.328	12.919	13.752
ProbeTrack11	8	ProbeTrack	11.2	SCS215a	20101011.133754	20101011.143250	8	0.013328	60	0	60-180	60	171	GapExp	0	408	2	45	1	target	1	560	720	256381	13.328	13.090	13.548
ProbeTrack11	8	ProbeTrack	11.2	SCS215a	20101011.133754	20101011.143257	8	0.013328	60	0	60-180	60	164	GapExp	0	409	2	3	1	target	1	494	753	257134	13.328	13.097	13.563
ProbeTrack11	8	ProbeTrack	11.2	SCS215a	20101011.133754	20101011.143303	8	0.013328	60	10	60-180	60	63	GapExp	0	410	2	1	0	distractor	1	494	753	257887	13.328	13.289	13.375
ProbeTrack11	8	ProbeTrack	11.2	SCS215a	20101011.133754	20101011.143308	8	0.013328	60	10	60-180	60	93	GapExp	0	411	2	45	1	target	1	520	740	258627	13.378	12.914	27.076
ProbeTrack11	8	ProbeTrack	11.2	SCS215a	20101011.133754	20101011.143314	8	0.013328	60	10	60-180	60	125	GapExp	0	412	2	1	1	target	1	454	773	259400	13.382	12.831	26.651
ProbeTrack11	8	ProbeTrack	11.2	SCS215a	20101011.133754	20101011.143320	8	0.013328	60	0	60-180	60	91	GapExp	0	413	2	0	0	distractor	1	507	747	260147	13.328	13.105	13.552
ProbeTrack11	8	ProbeTrack	11.2	SCS215a	20101011.133754	20101011.143326	8	0.013328	60	0	60-180	60	92	GapExp	0	414	2	45	1	target	1	574	713	260860	13.328	12.968	13.702
ProbeTrack11	8	ProbeTrack	11.2	SCS215a	20101011.133754	20101011.143332	8	0.013328	60	0	60-180	60	172	GapExp	0	415	2	0	0	distractor	1	507	747	261607	13.421	12.849	26.686
ProbeTrack11	8	ProbeTrack	11.2	SCS215a	20101011.133754	20101011.143338	8	0.013328	60	10	60-180	60	154	GapExp	0	416	2	1	0	target	0	640	-1000	260607	13.420	12.944	27.046
ProbeTrack11	8	ProbeTrack	11.2	SCS215a	20101011.133754	20101011.143345	8	0.013328	60	10	60-180	60	126	GapExp	0	417	2	45	0	target	0	507	-1000	259607	13.328	12.935	13.744
ProbeTrack11	8	ProbeTrack	11.2	SCS215a	20101011.133754	20101011.143351	8	0.013328	60	10	60-180	60	80	GapExp	0	418	2	45	0	target	0	720	-1000	258607	13.378	12.906	26.711
ProbeTrack11	8	ProbeTrack	11.2	SCS215a	20101011.133754	20101011.143357	8	0.013328	60	0	60-180	60	121	GapExp	0	419	2	1	1	target	1	653	674	259281	13.328	12.969	13.690
ProbeTrack11	8	ProbeTrack	11.2	SCS215a	20101011.133754	20101011.143403	8	0.013328	60	0	60-180	60	124	GapExp	0	420	2	1	0	distractor	1	520	740	260021	13.438	13.010	26.693
ProbeTrack11	8	ProbeTrack	11.2	SCS215a	20101011.133754	20101011.143409	8	0.013328	60	0	60-180	60	131	GapExp	0	421	2	3	0	distractor	1	427	787	260808	13.329	12.934	13.766
ProbeTrack11	8	ProbeTrack	11.2	SCS215a	20101011.133754	20101011.143415	8	0.013328	60	0	60-180	60	180	GapExp	0	422	2	0	1	target	1	454	773	261581	13.328	13.048	13.596
ProbeTrack11	8	ProbeTrack	11.2	SCS215a	20101011.133754	20101011.143421	8	0.013328	60	0	60-180	60	65	GapExp	0	423	2	3	0	target	0	534	-1000	260581	13.400	13.090	26.766
ProbeTrack11	8	ProbeTrack	11.2	SCS215a	20101011.133754	20101011.143426	8	0.013328	60	10	60-180	60	108	GapExp	0	424	2	0	1	target	1	587	707	261288	13.383	13.154	26.818
ProbeTrack11	8	ProbeTrack	11.2	SCS215a	20101011.133754	20101011.143432	8	0.013328	60	0	60-180	60	157	GapExp	0	425	2	1	0	distractor	1	494	753	262041	13.377	12.849	26.769
ProbeTrack11	8	ProbeTrack	11.2	SCS215a	20101011.133754	20101011.143439	8	0.013328	60	0	60-180	60	73	GapExp	0	426	2	0	1	target	1	507	747	262788	13.328	12.911	13.734
ProbeTrack11	8	ProbeTrack	11.2	SCS215a	20101011.133754	20101011.143444	8	0.013328	60	10	60-180	60	131	GapExp	0	427	2	3	1	distractor	0	574	-1000	261788	13.429	12.894	27.092
ProbeTrack11	8	ProbeTrack	11.2	SCS215a	20101011.133754	20101011.143450	8	0.013328	60	0	60-180	60	74	GapExp	0	428	2	0	1	target	1	534	733	262521	13.328	12.853	13.802
ProbeTrack11	8	ProbeTrack	11.2	SCS215a	20101011.133754	20101011.143455	8	0.013328	60	10	60-180	60	82	GapExp	0	429	2	3	0	distractor	1	627	687	263208	13.328	13.308	13.349
ProbeTrack11	8	ProbeTrack	11.2	SCS215a	20101011.133754	20101011.143501	8	0.013328	60	0	60-180	60	128	GapExp	0	430	2	0	1	target	1	427	787	263995	13.328	12.915	13.736
ProbeTrack11	8	ProbeTrack	11.2	SCS215a	20101011.133754	20101011.143507	8	0.013328	60	10	60-180	60	114	GapExp	0	431	2	45	0	target	0	747	-1000	262995	13.372	13.000	26.678
ProbeTrack11	8	ProbeTrack	11.2	SCS215a	20101011.133754	20101011.143513	8	0.013328	60	10	60-180	60	161	GapExp	0	432	2	3	0	distractor	1	440	780	263775	13.328	12.841	13.808
ProbeTrack11	8	ProbeTrack	11.2	SCS215a	20101011.133754	20101011.143520	8	0.013328	60	10	60-180	60	88	GapExp	0	433	2	0	0	distractor	1	707	647	264422	13.386	12.893	26.642
ProbeTrack11	8	ProbeTrack	11.2	SCS215a	20101011.133754	20101011.143526	8	0.013328	60	10	60-180	60	146	GapExp	0	434	2	1	0	target	0	513	-1000	263422	13.573	12.878	27.082
ProbeTrack11	8	ProbeTrack	11.2	SCS215a	20101011.133754	20101011.143538	8	0.013328	60	10	60-180	60	140	GapExp	0	435	2	0	1	target	1	427	787	264209	13.431	12.884	27.047
ProbeTrack11	8	ProbeTrack	11.2	SCS215a	20101011.133754	20101011.143544	8	0.013328	60	10	60-180	60	169	GapExp	0	436	2	45	1	distractor	0	440	-1000	263209	13.447	12.930	27.051
ProbeTrack11	8	ProbeTrack	11.2	SCS215a	20101011.133754	20101011.143552	8	0.013328	60	0	60-180	60	138	GapExp	0	437	2	1	1	target	1	600	700	263909	13.328	12.856	13.798
ProbeTrack11	8	ProbeTrack	11.2	SCS215a	20101011.133754	20101011.143558	8	0.013328	60	10	60-180	60	170	GapExp	0	438	2	0	0	target	0	920	-1000	262909	13.328	12.892	13.746
ProbeTrack11	8	ProbeTrack	11.2	SCS215a	20101011.133754	20101011.143605	8	0.013328	60	10	60-180	60	91	GapExp	0	439	2	0	0	distractor	1	693	654	263563	13.444	12.967	27.015
ProbeTrack11	8	ProbeTrack	11.2	SCS215a	20101011.133754	20101011.143610	8	0.013328	60	0	60-180	60	94	GapExp	0	440	2	3	0	distractor	1	574	713	264276	13.389	12.928	26.995
ProbeTrack11	8	ProbeTrack	11.2	SCS215a	20101011.133754	20101011.143650	8	0.013328	60	10	60-180	60	85	GapExp	0	441	2	45	0	distractor	1	427	787	265063	13.328	12.987	13.685
ProbeTrack11	8	ProbeTrack	11.2	SCS215a	20101011.133754	20101011.143655	8	0.013328	60	10	60-180	60	171	GapExp	0	442	2	45	1	distractor	0	454	-1000	264063	13.367	12.853	27.126
ProbeTrack11	8	ProbeTrack	11.2	SCS215a	20101011.133754	20101011.143703	8	0.013328	60	0	60-180	60	85	GapExp	0	443	2	45	1	target	1	534	733	264796	13.436	13.161	26.709
ProbeTrack11	8	ProbeTrack	11.2	SCS215a	20101011.133754	20101011.143709	8	0.013328	60	10	60-180	60	78	GapExp	0	444	2	3	1	target	1	454	773	265569	13.328	12.859	13.792
ProbeTrack11	8	ProbeTrack	11.2	SCS215a	20101011.133754	20101011.143714	8	0.013328	60	0	60-180	60	178	GapExp	0	445	2	1	0	distractor	1	467	767	266336	13.420	12.855	26.684
ProbeTrack11	8	ProbeTrack	11.2	SCS215a	20101011.133754	20101011.143720	8	0.013328	60	0	60-180	60	100	GapExp	0	446	2	3	1	target	1	507	747	267083	13.389	12.855	27.128
ProbeTrack11	8	ProbeTrack	11.2	SCS215a	20101011.133754	20101011.143726	8	0.013328	60	10	60-180	60	154	GapExp	0	447	2	1	1	target	1	507	747	267830	13.375	12.891	27.074
ProbeTrack11	8	ProbeTrack	11.2	SCS215a	20101011.133754	20101011.143732	8	0.013328	60	0	60-180	60	163	GapExp	0	448	2	0	1	target	1	467	767	268597	13.376	13.094	26.766
ProbeTrack11	8	ProbeTrack	11.2	SCS215a	20101011.133754	20101011.143739	8	0.013328	60	10	60-180	60	90	GapExp	0	449	2	3	0	target	0	587	-1000	267597	13.328	12.873	13.787
ProbeTrack11	8	ProbeTrack	11.2	SCS215a	20101011.133754	20101011.143744	8	0.013328	60	10	60-180	60	84	GapExp	0	450	2	3	0	distractor	1	520	740	268337	13.328	13.109	13.547
