exp	sub	code	rev	comp	runtime	trialtime	nstim	refreshdur	cuedur	gapdur	gapOnsetRange	durPostProbe	gapOnsetTime	blocktype	prac	trial	ntargets	soa	probeTarget	resp	acc	rt	pts	tpts	meanFrameDur	minFrameDur	maxFrameDur
ProbeTrack11	6	ProbeTrack	11.2	SCS215a	20100818.115413	20100818.115422	8	0.013328	60	0	60-180	60	95	NoGap	1	1	2	3	1	target	1	520	740	740	13.390	13.269	26.673
ProbeTrack11	6	ProbeTrack	11.2	SCS215a	20100818.115413	20100818.115501	8	0.013328	60	0	60-180	60	145	NoGap	1	2	2	1	0	distractor	1	547	727	1467	13.328	13.104	13.569
ProbeTrack11	6	ProbeTrack	11.2	SCS215a	20100818.115413	20100818.115515	8	0.013328	60	0	60-180	60	173	NoGap	1	3	2	0	0	distractor	1	574	713	2180	13.328	12.944	13.790
ProbeTrack11	6	ProbeTrack	11.2	SCS215a	20100818.115413	20100818.115526	8	0.013328	60	0	60-180	60	150	NoGap	1	4	2	1	1	target	1	467	767	2947	13.328	12.979	13.679
ProbeTrack11	6	ProbeTrack	11.2	SCS215a	20100818.115413	20100818.115534	8	0.013328	60	0	60-180	60	65	NoGap	1	5	2	0	0	distractor	1	707	647	3594	13.328	13.307	13.346
ProbeTrack11	6	ProbeTrack	11.2	SCS215a	20100818.115413	20100818.115540	8	0.013328	60	0	60-180	60	162	NoGap	1	6	2	3	0	distractor	1	440	780	4374	13.328	13.303	13.348
ProbeTrack11	6	ProbeTrack	11.2	SCS215a	20100818.115413	20100818.115547	8	0.013328	60	0	60-180	60	103	NoGap	1	7	2	1	1	13	-3	600	-1000	3374	13.328	13.307	13.347
ProbeTrack11	6	ProbeTrack	11.2	SCS215a	20100818.115413	20100818.115553	8	0.013328	60	0	60-180	60	78	NoGap	1	8	2	45	0	distractor	1	733	634	4008	13.328	12.996	13.659
ProbeTrack11	6	ProbeTrack	11.2	SCS215a	20100818.115413	20100818.115600	8	0.013328	60	0	60-180	60	136	NoGap	1	9	2	1	1	target	1	574	713	4721	13.328	12.844	13.811
ProbeTrack11	6	ProbeTrack	11.2	SCS215a	20100818.115413	20100818.115606	8	0.013328	60	0	60-180	60	135	NoGap	1	10	2	1	0	distractor	1	587	707	5428	13.328	12.897	13.757
ProbeTrack11	6	ProbeTrack	11.2	SCS215a	20100818.115413	20100818.115613	8	0.013328	60	0	60-180	60	163	NoGap	1	11	2	45	0	distractor	1	707	647	6075	13.328	13.105	13.557
ProbeTrack11	6	ProbeTrack	11.2	SCS215a	20100818.115413	20100818.115620	8	0.013328	60	0	60-180	60	76	NoGap	1	12	2	0	1	target	1	560	720	6795	13.328	12.928	13.727
ProbeTrack11	6	ProbeTrack	11.2	SCS215a	20100818.115413	20100818.115626	8	0.013328	60	0	60-180	60	168	NoGap	1	13	2	45	1	target	1	574	713	7508	13.328	12.945	13.702
ProbeTrack11	6	ProbeTrack	11.2	SCS215a	20100818.115413	20100818.115634	8	0.013328	60	0	60-180	60	139	NoGap	1	14	2	45	1	target	1	623	689	8197	13.328	13.049	13.601
ProbeTrack11	6	ProbeTrack	11.2	SCS215a	20100818.115413	20100818.115641	8	0.013328	60	0	60-180	60	72	NoGap	1	15	2	0	0	distractor	1	720	640	8837	13.328	13.062	13.585
ProbeTrack11	6	ProbeTrack	11.2	SCS215a	20100818.115413	20100818.115647	8	0.013328	60	0	60-180	60	137	NoGap	1	16	2	45	1	target	1	587	707	9544	13.328	13.111	13.557
ProbeTrack11	6	ProbeTrack	11.2	SCS215a	20100818.115413	20100818.115654	8	0.013328	60	0	60-180	60	88	NoGap	1	17	2	45	0	distractor	1	573	714	10258	13.328	13.102	13.552
ProbeTrack11	6	ProbeTrack	11.2	SCS215a	20100818.115413	20100818.115700	8	0.013328	60	0	60-180	60	130	NoGap	1	18	2	0	1	target	1	707	647	10905	13.328	13.097	13.545
ProbeTrack11	6	ProbeTrack	11.2	SCS215a	20100818.115413	20100818.115706	8	0.013328	60	0	60-180	60	87	NoGap	1	19	2	3	1	target	1	574	713	11618	13.328	12.960	13.689
ProbeTrack11	6	ProbeTrack	11.2	SCS215a	20100818.115413	20100818.115712	8	0.013328	60	0	60-180	60	68	NoGap	1	20	2	3	0	distractor	1	613	694	12312	13.328	13.096	13.571
ProbeTrack11	6	ProbeTrack	11.2	SCS215a	20100818.115413	20100818.115718	8	0.013328	60	0	60-180	60	165	NoGap	1	21	2	45	0	distractor	1	507	747	13059	13.328	13.308	13.346
ProbeTrack11	6	ProbeTrack	11.2	SCS215a	20100818.115413	20100818.115725	8	0.013328	60	0	60-180	60	116	NoGap	1	22	2	1	0	distractor	1	574	713	13772	13.328	12.874	13.795
ProbeTrack11	6	ProbeTrack	11.2	SCS215a	20100818.115413	20100818.115732	8	0.013328	60	0	60-180	60	180	NoGap	1	23	2	1	1	target	1	613	694	14466	13.328	13.306	13.352
ProbeTrack11	6	ProbeTrack	11.2	SCS215a	20100818.115413	20100818.115738	8	0.013328	60	0	60-180	60	116	NoGap	1	24	2	3	1	target	1	733	634	15100	13.328	13.300	13.363
ProbeTrack11	6	ProbeTrack	11.2	SCS215a	20100818.115413	20100818.115745	8	0.013328	60	0	60-180	60	146	NoGap	1	25	2	1	1	target	1	600	700	15800	13.328	13.300	13.348
ProbeTrack11	6	ProbeTrack	11.2	SCS215a	20100818.115413	20100818.115752	8	0.013328	60	0	60-180	60	169	NoGap	1	26	2	45	0	distractor	1	627	687	16487	13.328	12.885	13.561
ProbeTrack11	6	ProbeTrack	11.2	SCS215a	20100818.115413	20100818.115759	8	0.013328	60	0	60-180	60	102	NoGap	1	27	2	3	1	target	1	640	680	17167	13.328	13.310	13.348
ProbeTrack11	6	ProbeTrack	11.2	SCS215a	20100818.115413	20100818.115805	8	0.013328	60	0	60-180	60	176	NoGap	1	28	2	45	1	target	1	613	694	17861	13.328	12.891	13.764
ProbeTrack11	6	ProbeTrack	11.2	SCS215a	20100818.115413	20100818.115813	8	0.013328	60	0	60-180	60	148	NoGap	1	29	2	0	0	distractor	1	573	714	18575	13.328	13.170	13.506
ProbeTrack11	6	ProbeTrack	11.2	SCS215a	20100818.115413	20100818.115820	8	0.013328	60	0	60-180	60	152	NoGap	1	30	2	0	1	target	1	547	727	19302	13.377	13.309	26.654
ProbeTrack11	6	ProbeTrack	11.2	SCS215a	20100818.115413	20100818.115826	8	0.013328	60	0	60-180	60	157	NoGap	1	31	2	3	0	distractor	1	507	747	20049	13.328	13.106	13.556
ProbeTrack11	6	ProbeTrack	11.2	SCS215a	20100818.115413	20100818.115833	8	0.013328	60	0	60-180	60	69	NoGap	1	32	2	45	1	target	1	494	753	20802	13.328	13.097	13.557
ProbeTrack11	6	ProbeTrack	11.2	SCS215a	20100818.115413	20100818.115839	8	0.013328	60	0	60-180	60	122	NoGap	1	33	2	3	1	target	1	440	780	21582	13.328	13.106	13.552
ProbeTrack11	6	ProbeTrack	11.2	SCS215a	20100818.115413	20100818.115845	8	0.013328	60	0	60-180	60	126	NoGap	1	34	2	3	0	distractor	1	520	740	22322	13.328	13.304	13.346
ProbeTrack11	6	ProbeTrack	11.2	SCS215a	20100818.115413	20100818.115851	8	0.013328	60	0	60-180	60	107	NoGap	1	35	2	0	0	distractor	1	520	740	23062	13.328	13.197	13.460
ProbeTrack11	6	ProbeTrack	11.2	SCS215a	20100818.115413	20100818.115857	8	0.013328	60	0	60-180	60	168	NoGap	1	36	2	1	0	distractor	1	467	767	23829	13.328	12.927	13.740
ProbeTrack11	6	ProbeTrack	11.2	SCS215a	20100818.115413	20100818.115904	8	0.013328	60	0	60-180	60	165	NoGap	1	37	2	1	0	distractor	1	414	793	24622	13.328	13.307	13.347
ProbeTrack11	6	ProbeTrack	11.2	SCS215a	20100818.115413	20100818.115910	8	0.013328	60	0	60-180	60	158	NoGap	1	38	2	0	1	target	1	560	720	25342	13.328	13.053	13.602
ProbeTrack11	6	ProbeTrack	11.2	SCS215a	20100818.115413	20100818.115917	8	0.013328	60	0	60-180	60	72	NoGap	1	39	2	3	0	distractor	1	534	733	26075	13.328	13.309	13.347
ProbeTrack11	6	ProbeTrack	11.2	SCS215a	20100818.115413	20100818.115923	8	0.013328	60	0	60-180	60	178	NoGap	1	40	2	0	1	target	1	534	733	26808	13.328	13.302	13.363
ProbeTrack11	6	ProbeTrack	11.2	SCS215a	20100818.120030	20100818.120034	8	0.013328	60	10	60-180	60	165	GapPrac	1	1	2	0	0	83	-3	627	-1000	25808	13.328	12.908	13.763
ProbeTrack11	6	ProbeTrack	11.2	SCS215a	20100818.120030	20100818.120045	8	0.013328	60	10	60-180	60	108	GapPrac	1	2	2	45	1	target	1	600	700	26508	13.328	13.025	13.635
ProbeTrack11	6	ProbeTrack	11.2	SCS215a	20100818.120030	20100818.120055	8	0.013328	60	0	60-180	60	125	GapPrac	1	3	2	3	0	distractor	1	494	753	27261	13.328	12.877	13.768
ProbeTrack11	6	ProbeTrack	11.2	SCS215a	20100818.120030	20100818.120102	8	0.013328	60	0	60-180	60	64	GapPrac	1	4	2	3	1	target	1	773	614	27875	13.328	12.924	13.732
ProbeTrack11	6	ProbeTrack	11.2	SCS215a	20100818.120030	20100818.120107	8	0.013328	60	0	60-180	60	112	GapPrac	1	5	2	45	0	distractor	1	534	733	28608	13.328	12.983	13.680
ProbeTrack11	6	ProbeTrack	11.2	SCS215a	20100818.120030	20100818.120115	8	0.013328	60	10	60-180	60	153	GapPrac	1	6	2	0	0	distractor	1	653	674	29282	13.328	12.881	13.775
ProbeTrack11	6	ProbeTrack	11.2	SCS215a	20100818.120030	20100818.120121	8	0.013328	60	10	60-180	60	66	GapPrac	1	7	2	3	1	target	1	640	680	29962	13.328	13.110	13.555
ProbeTrack11	6	ProbeTrack	11.2	SCS215a	20100818.120030	20100818.120127	8	0.013328	60	0	60-180	60	70	GapPrac	1	8	2	45	1	13	-3	3412	-1000	28962	13.381	13.059	26.632
ProbeTrack11	6	ProbeTrack	11.2	SCS215a	20100818.120030	20100818.120136	8	0.013328	60	10	60-180	60	104	GapPrac	1	9	2	0	1	target	1	640	680	29642	13.328	12.891	13.766
ProbeTrack11	6	ProbeTrack	11.2	SCS215a	20100818.120030	20100818.120144	8	0.013328	60	0	60-180	60	128	GapPrac	1	10	2	3	0	distractor	1	520	740	30382	13.328	12.977	13.686
ProbeTrack11	6	ProbeTrack	11.2	SCS215a	20100818.120030	20100818.120150	8	0.013328	60	0	60-180	60	70	GapPrac	1	11	2	0	1	target	1	614	693	31075	13.328	13.312	13.346
ProbeTrack11	6	ProbeTrack	11.2	SCS215a	20100818.120030	20100818.120156	8	0.013328	60	10	60-180	60	143	GapPrac	1	12	2	45	0	distractor	1	480	760	31835	13.328	13.097	13.571
ProbeTrack11	6	ProbeTrack	11.2	SCS215a	20100818.120030	20100818.120203	8	0.013328	60	0	60-180	60	145	GapPrac	1	13	2	1	1	target	1	773	614	32449	13.328	13.112	13.550
ProbeTrack11	6	ProbeTrack	11.2	SCS215a	20100818.120030	20100818.120210	8	0.013328	60	10	60-180	60	151	GapPrac	1	14	2	3	0	distractor	1	587	707	33156	13.328	13.287	13.364
ProbeTrack11	6	ProbeTrack	11.2	SCS215a	20100818.120030	20100818.120216	8	0.013328	60	0	60-180	60	83	GapPrac	1	15	2	3	1	target	1	427	787	33943	13.328	13.098	13.553
ProbeTrack11	6	ProbeTrack	11.2	SCS215a	20100818.120030	20100818.120222	8	0.013328	60	10	60-180	60	171	GapPrac	1	16	2	1	1	target	1	560	720	34663	13.328	13.043	13.582
ProbeTrack11	6	ProbeTrack	11.2	SCS215a	20100818.120030	20100818.120229	8	0.013328	60	10	60-180	60	88	GapPrac	1	17	2	1	0	distractor	1	520	740	35403	13.328	12.971	13.685
ProbeTrack11	6	ProbeTrack	11.2	SCS215a	20100818.120030	20100818.120234	8	0.013328	60	10	60-180	60	122	GapPrac	1	18	2	45	1	target	1	400	800	36203	13.375	12.885	27.100
ProbeTrack11	6	ProbeTrack	11.2	SCS215a	20100818.120030	20100818.120241	8	0.013328	60	0	60-180	60	172	GapPrac	1	19	2	1	0	distractor	1	440	780	36983	13.328	12.928	13.727
ProbeTrack11	6	ProbeTrack	11.2	SCS215a	20100818.120030	20100818.120248	8	0.013328	60	0	60-180	60	107	GapPrac	1	20	2	0	0	distractor	1	467	767	37750	13.328	12.899	13.750
ProbeTrack11	6	ProbeTrack	11.2	SCS215a	20100818.120340	20100818.120343	8	0.013328	60	0	60-180	60	158	GapExp	1	1	2	1	1	target	1	480	760	38510	13.328	13.308	13.349
ProbeTrack11	6	ProbeTrack	11.2	SCS215a	20100818.120340	20100818.120404	8	0.013328	60	0	60-180	60	95	GapExp	1	2	2	3	0	distractor	1	400	800	39310	13.328	13.308	13.353
ProbeTrack11	6	ProbeTrack	11.2	SCS215a	20100818.120340	20100818.120410	8	0.013328	60	0	60-180	60	132	GapExp	0	3	2	3	1	target	1	454	773	40083	13.328	13.309	13.346
ProbeTrack11	6	ProbeTrack	11.2	SCS215a	20100818.120340	20100818.120416	8	0.013328	60	10	60-180	60	97	GapExp	0	4	2	1	0	distractor	1	414	793	40876	13.328	13.093	13.572
ProbeTrack11	6	ProbeTrack	11.2	SCS215a	20100818.120340	20100818.120422	8	0.013328	60	10	60-180	60	128	GapExp	0	5	2	3	1	target	1	534	733	41609	13.328	12.929	13.715
ProbeTrack11	6	ProbeTrack	11.2	SCS215a	20100818.120340	20100818.120428	8	0.013328	60	10	60-180	60	74	GapExp	0	6	2	1	0	distractor	1	600	700	42309	13.328	13.091	13.556
ProbeTrack11	6	ProbeTrack	11.2	SCS215a	20100818.120340	20100818.120435	8	0.013328	60	10	60-180	60	141	GapExp	0	7	2	45	1	distractor	0	414	-1000	41309	13.328	12.896	13.755
ProbeTrack11	6	ProbeTrack	11.2	SCS215a	20100818.120340	20100818.120442	8	0.013328	60	10	60-180	60	106	GapExp	0	8	2	3	1	target	1	454	773	42082	13.328	13.098	13.564
ProbeTrack11	6	ProbeTrack	11.2	SCS215a	20100818.120340	20100818.120448	8	0.013328	60	10	60-180	60	137	GapExp	0	9	2	3	1	target	1	454	773	42855	13.328	13.298	13.354
ProbeTrack11	6	ProbeTrack	11.2	SCS215a	20100818.120340	20100818.120454	8	0.013328	60	10	60-180	60	68	GapExp	0	10	2	0	1	target	1	454	773	43628	13.328	13.309	13.348
ProbeTrack11	6	ProbeTrack	11.2	SCS215a	20100818.120340	20100818.120459	8	0.013328	60	0	60-180	60	114	GapExp	0	11	2	45	0	distractor	1	613	694	44322	13.328	12.933	13.348
ProbeTrack11	6	ProbeTrack	11.2	SCS215a	20100818.120340	20100818.120506	8	0.013328	60	0	60-180	60	157	GapExp	0	12	2	45	0	distractor	1	520	740	45062	13.328	12.925	13.732
ProbeTrack11	6	ProbeTrack	11.2	SCS215a	20100818.120340	20100818.120513	8	0.013328	60	10	60-180	60	84	GapExp	0	13	2	3	0	distractor	1	574	713	45775	13.328	13.306	13.346
ProbeTrack11	6	ProbeTrack	11.2	SCS215a	20100818.120340	20100818.120519	8	0.013328	60	0	60-180	60	101	GapExp	0	14	2	45	0	distractor	1	534	733	46508	13.328	13.112	13.559
ProbeTrack11	6	ProbeTrack	11.2	SCS215a	20100818.120340	20100818.120525	8	0.013328	60	0	60-180	60	64	GapExp	0	15	2	1	1	target	1	574	713	47221	13.328	12.855	13.808
ProbeTrack11	6	ProbeTrack	11.2	SCS215a	20100818.120340	20100818.120530	8	0.013328	60	0	60-180	60	160	GapExp	0	16	2	3	1	target	1	454	773	47994	13.328	12.912	13.731
ProbeTrack11	6	ProbeTrack	11.2	SCS215a	20100818.120340	20100818.120536	8	0.013328	60	0	60-180	60	110	GapExp	0	17	2	1	0	distractor	1	507	747	48741	13.326	12.897	13.762
ProbeTrack11	6	ProbeTrack	11.2	SCS215a	20100818.120340	20100818.120542	8	0.013328	60	0	60-180	60	69	GapExp	0	18	2	0	1	target	1	454	773	49514	13.328	13.309	13.348
ProbeTrack11	6	ProbeTrack	11.2	SCS215a	20100818.120340	20100818.120547	8	0.013328	60	10	60-180	60	63	GapExp	0	19	2	3	1	target	1	427	787	50301	13.328	12.881	13.776
ProbeTrack11	6	ProbeTrack	11.2	SCS215a	20100818.120340	20100818.120552	8	0.013328	60	0	60-180	60	66	GapExp	0	20	2	1	0	distractor	1	467	767	51068	13.402	13.289	26.699
ProbeTrack11	6	ProbeTrack	11.2	SCS215a	20100818.120340	20100818.120557	8	0.013328	60	10	60-180	60	86	GapExp	0	21	2	3	1	distractor	0	334	-1000	50068	13.328	13.235	13.427
ProbeTrack11	6	ProbeTrack	11.2	SCS215a	20100818.120340	20100818.120603	8	0.013328	60	10	60-180	60	118	GapExp	0	22	2	0	0	distractor	1	427	787	50855	13.328	12.979	13.677
ProbeTrack11	6	ProbeTrack	11.2	SCS215a	20100818.120340	20100818.120609	8	0.013328	60	10	60-180	60	101	GapExp	0	23	2	3	1	target	1	693	654	51509	13.328	12.857	13.792
ProbeTrack11	6	ProbeTrack	11.2	SCS215a	20100818.120340	20100818.120615	8	0.013328	60	0	60-180	60	85	GapExp	0	24	2	1	0	distractor	1	467	767	52276	13.328	12.867	13.798
ProbeTrack11	6	ProbeTrack	11.2	SCS215a	20100818.120340	20100818.120620	8	0.013328	60	10	60-180	60	156	GapExp	0	25	2	45	0	distractor	1	494	753	53029	13.328	12.898	13.773
ProbeTrack11	6	ProbeTrack	11.2	SCS215a	20100818.120340	20100818.120627	8	0.013328	60	0	60-180	60	87	GapExp	0	26	2	45	0	distractor	1	507	747	53776	13.328	12.875	13.809
ProbeTrack11	6	ProbeTrack	11.2	SCS215a	20100818.120340	20100818.120633	8	0.013328	60	0	60-180	60	122	GapExp	0	27	2	0	0	distractor	1	440	780	54556	13.328	12.893	13.778
ProbeTrack11	6	ProbeTrack	11.2	SCS215a	20100818.120340	20100818.120639	8	0.013328	60	0	60-180	60	113	GapExp	0	28	2	0	1	target	1	520	740	55296	13.386	12.921	27.085
ProbeTrack11	6	ProbeTrack	11.2	SCS215a	20100818.120340	20100818.120644	8	0.013328	60	10	60-180	60	156	GapExp	0	29	2	3	1	target	1	520	740	56036	13.328	13.268	13.397
ProbeTrack11	6	ProbeTrack	11.2	SCS215a	20100818.120340	20100818.120651	8	0.013328	60	0	60-180	60	106	GapExp	0	30	2	45	1	target	1	414	793	56829	13.328	12.856	13.801
ProbeTrack11	6	ProbeTrack	11.2	SCS215a	20100818.120340	20100818.120657	8	0.013328	60	0	60-180	60	130	GapExp	0	31	2	1	0	distractor	1	480	760	57589	13.328	12.925	13.731
ProbeTrack11	6	ProbeTrack	11.2	SCS215a	20100818.120340	20100818.120703	8	0.013328	60	10	60-180	60	92	GapExp	0	32	2	1	0	distractor	1	467	767	58356	13.328	13.098	13.552
ProbeTrack11	6	ProbeTrack	11.2	SCS215a	20100818.120340	20100818.120708	8	0.013328	60	10	60-180	60	77	GapExp	0	33	2	0	0	distractor	1	480	760	59116	13.328	12.926	13.744
ProbeTrack11	6	ProbeTrack	11.2	SCS215a	20100818.120340	20100818.120714	8	0.013328	60	10	60-180	60	97	GapExp	0	34	2	45	1	target	1	454	773	59889	13.328	13.297	13.360
ProbeTrack11	6	ProbeTrack	11.2	SCS215a	20100818.120340	20100818.120720	8	0.013328	60	10	60-180	60	132	GapExp	0	35	2	0	1	target	1	427	787	60676	13.328	13.306	13.348
ProbeTrack11	6	ProbeTrack	11.2	SCS215a	20100818.120340	20100818.120726	8	0.013328	60	10	60-180	60	134	GapExp	0	36	2	1	0	distractor	1	400	800	61476	13.328	13.288	13.366
ProbeTrack11	6	ProbeTrack	11.2	SCS215a	20100818.120340	20100818.120732	8	0.013328	60	0	60-180	60	173	GapExp	0	37	2	0	1	target	1	507	747	62223	13.328	13.106	13.569
ProbeTrack11	6	ProbeTrack	11.2	SCS215a	20100818.120340	20100818.120739	8	0.013328	60	0	60-180	60	162	GapExp	0	38	2	1	0	distractor	1	547	727	62950	13.326	12.861	13.755
ProbeTrack11	6	ProbeTrack	11.2	SCS215a	20100818.120340	20100818.120746	8	0.013328	60	0	60-180	60	124	GapExp	0	39	2	3	1	target	1	494	753	63703	13.328	12.892	13.776
ProbeTrack11	6	ProbeTrack	11.2	SCS215a	20100818.120340	20100818.120752	8	0.013328	60	10	60-180	60	159	GapExp	0	40	2	0	0	target	0	494	-1000	62703	13.328	13.091	13.562
ProbeTrack11	6	ProbeTrack	11.2	SCS215a	20100818.120340	20100818.120758	8	0.013328	60	0	60-180	60	128	GapExp	0	41	2	1	0	distractor	1	494	753	63456	13.328	12.899	13.754
ProbeTrack11	6	ProbeTrack	11.2	SCS215a	20100818.120340	20100818.120805	8	0.013328	60	0	60-180	60	156	GapExp	0	42	2	45	0	distractor	1	507	747	64203	13.328	12.927	13.723
ProbeTrack11	6	ProbeTrack	11.2	SCS215a	20100818.120340	20100818.120812	8	0.013328	60	0	60-180	60	141	GapExp	0	43	2	1	1	target	1	467	767	64970	13.328	12.876	13.767
ProbeTrack11	6	ProbeTrack	11.2	SCS215a	20100818.120340	20100818.120818	8	0.013328	60	0	60-180	60	72	GapExp	0	44	2	0	0	distractor	1	507	747	65717	13.328	13.308	13.347
ProbeTrack11	6	ProbeTrack	11.2	SCS215a	20100818.120340	20100818.120823	8	0.013328	60	10	60-180	60	94	GapExp	0	45	2	45	1	target	1	480	760	66477	13.328	12.901	13.748
ProbeTrack11	6	ProbeTrack	11.2	SCS215a	20100818.120340	20100818.120829	8	0.013328	60	10	60-180	60	122	GapExp	0	46	2	45	0	target	0	560	-1000	65477	13.328	13.001	13.648
ProbeTrack11	6	ProbeTrack	11.2	SCS215a	20100818.120340	20100818.120836	8	0.013328	60	0	60-180	60	168	GapExp	0	47	2	3	0	distractor	1	587	707	66184	13.328	12.965	13.689
ProbeTrack11	6	ProbeTrack	11.2	SCS215a	20100818.120340	20100818.120842	8	0.013328	60	10	60-180	60	131	GapExp	0	48	2	1	1	target	1	586	707	66891	13.328	12.898	13.764
ProbeTrack11	6	ProbeTrack	11.2	SCS215a	20100818.120340	20100818.120849	8	0.013328	60	0	60-180	60	104	GapExp	0	49	2	1	1	target	1	507	747	67638	13.328	12.891	13.755
ProbeTrack11	6	ProbeTrack	11.2	SCS215a	20100818.120340	20100818.120854	8	0.013328	60	10	60-180	60	125	GapExp	0	50	2	0	1	target	1	467	767	68405	13.328	13.085	13.557
ProbeTrack11	6	ProbeTrack	11.2	SCS215a	20100818.120340	20100818.120901	8	0.013328	60	0	60-180	60	82	GapExp	0	51	2	1	0	distractor	1	614	693	69098	13.328	13.095	13.561
ProbeTrack11	6	ProbeTrack	11.2	SCS215a	20100818.120340	20100818.120906	8	0.013328	60	0	60-180	60	109	GapExp	0	52	2	3	0	distractor	1	480	760	69858	13.328	13.010	13.645
ProbeTrack11	6	ProbeTrack	11.2	SCS215a	20100818.120340	20100818.120912	8	0.013328	60	10	60-180	60	164	GapExp	0	53	2	0	0	target	0	387	-1000	68858	13.328	12.860	13.791
ProbeTrack11	6	ProbeTrack	11.2	SCS215a	20100818.120340	20100818.120918	8	0.013328	60	10	60-180	60	106	GapExp	0	54	2	45	0	target	0	574	-1000	67858	13.328	13.306	13.345
ProbeTrack11	6	ProbeTrack	11.2	SCS215a	20100818.120340	20100818.120925	8	0.013328	60	10	60-180	60	160	GapExp	0	55	2	1	0	distractor	1	520	740	68598	13.328	12.891	13.775
ProbeTrack11	6	ProbeTrack	11.2	SCS215a	20100818.120340	20100818.120932	8	0.013328	60	0	60-180	60	165	GapExp	0	56	2	3	1	target	1	547	727	69325	13.328	12.903	13.752
ProbeTrack11	6	ProbeTrack	11.2	SCS215a	20100818.120340	20100818.120938	8	0.013328	60	10	60-180	60	165	GapExp	0	57	2	0	0	distractor	1	587	707	70032	13.328	12.870	13.778
ProbeTrack11	6	ProbeTrack	11.2	SCS215a	20100818.120340	20100818.120945	8	0.013328	60	0	60-180	60	160	GapExp	0	58	2	1	1	target	1	440	780	70812	13.328	13.092	13.563
ProbeTrack11	6	ProbeTrack	11.2	SCS215a	20100818.120340	20100818.120952	8	0.013328	60	0	60-180	60	140	GapExp	0	59	2	45	0	distractor	1	600	700	71512	13.328	13.086	13.565
ProbeTrack11	6	ProbeTrack	11.2	SCS215a	20100818.120340	20100818.120959	8	0.013328	60	10	60-180	60	126	GapExp	0	60	2	45	0	distractor	1	587	707	72219	13.328	13.308	13.348
ProbeTrack11	6	ProbeTrack	11.2	SCS215a	20100818.120340	20100818.121006	8	0.013328	60	0	60-180	60	145	GapExp	0	61	2	0	0	distractor	1	507	747	72966	13.328	12.887	13.761
ProbeTrack11	6	ProbeTrack	11.2	SCS215a	20100818.120340	20100818.121012	8	0.013328	60	0	60-180	60	81	GapExp	0	62	2	3	0	distractor	1	560	720	73686	13.328	12.902	13.750
ProbeTrack11	6	ProbeTrack	11.2	SCS215a	20100818.120340	20100818.121018	8	0.013328	60	0	60-180	60	86	GapExp	0	63	2	0	0	distractor	1	520	740	74426	13.328	12.994	13.664
ProbeTrack11	6	ProbeTrack	11.2	SCS215a	20100818.120340	20100818.121023	8	0.013328	60	10	60-180	60	83	GapExp	0	64	2	0	0	distractor	1	414	793	75219	13.325	12.843	13.345
ProbeTrack11	6	ProbeTrack	11.2	SCS215a	20100818.120340	20100818.121028	8	0.013328	60	10	60-180	60	79	GapExp	0	65	2	0	0	distractor	1	467	767	75986	13.328	13.118	13.525
ProbeTrack11	6	ProbeTrack	11.2	SCS215a	20100818.120340	20100818.121034	8	0.013328	60	10	60-180	60	135	GapExp	0	66	2	0	1	distractor	0	760	-1000	74986	13.328	12.960	13.682
ProbeTrack11	6	ProbeTrack	11.2	SCS215a	20100818.120340	20100818.121040	8	0.013328	60	0	60-180	60	128	GapExp	0	67	2	1	0	distractor	1	494	753	75739	13.328	13.028	13.641
ProbeTrack11	6	ProbeTrack	11.2	SCS215a	20100818.120340	20100818.121046	8	0.013328	60	0	60-180	60	175	GapExp	0	68	2	45	0	distractor	1	480	760	76499	13.328	12.947	13.708
ProbeTrack11	6	ProbeTrack	11.2	SCS215a	20100818.120340	20100818.121053	8	0.013328	60	0	60-180	60	165	GapExp	0	69	2	0	0	distractor	1	507	747	77246	13.328	12.912	13.754
ProbeTrack11	6	ProbeTrack	11.2	SCS215a	20100818.120340	20100818.121059	8	0.013328	60	10	60-180	60	132	GapExp	0	70	2	3	1	target	1	494	753	77999	13.328	13.291	13.365
ProbeTrack11	6	ProbeTrack	11.2	SCS215a	20100818.120340	20100818.121105	8	0.013328	60	10	60-180	60	131	GapExp	0	71	2	45	1	target	1	547	727	78726	13.328	12.865	13.785
ProbeTrack11	6	ProbeTrack	11.2	SCS215a	20100818.120340	20100818.121112	8	0.013328	60	0	60-180	60	161	GapExp	0	72	2	0	1	target	1	507	747	79473	13.328	12.867	13.788
ProbeTrack11	6	ProbeTrack	11.2	SCS215a	20100818.120340	20100818.121119	8	0.013328	60	10	60-180	60	168	GapExp	0	73	2	0	0	distractor	1	720	640	80113	13.328	13.063	13.595
ProbeTrack11	6	ProbeTrack	11.2	SCS215a	20100818.120340	20100818.121125	8	0.013328	60	0	60-180	60	175	GapExp	0	74	2	45	1	target	1	480	760	80873	13.328	12.917	13.733
ProbeTrack11	6	ProbeTrack	11.2	SCS215a	20100818.120340	20100818.121132	8	0.013328	60	10	60-180	60	110	GapExp	0	75	2	1	1	target	1	454	773	81646	13.328	13.307	13.345
ProbeTrack11	6	ProbeTrack	11.2	SCS215a	20100818.120340	20100818.121138	8	0.013328	60	0	60-180	60	151	GapExp	0	76	2	3	0	distractor	1	480	760	82406	13.328	13.300	13.345
ProbeTrack11	6	ProbeTrack	11.2	SCS215a	20100818.120340	20100818.121145	8	0.013328	60	0	60-180	60	138	GapExp	0	77	2	1	0	distractor	1	534	733	83139	13.328	13.094	13.562
ProbeTrack11	6	ProbeTrack	11.2	SCS215a	20100818.120340	20100818.121151	8	0.013328	60	0	60-180	60	103	GapExp	0	78	2	1	1	target	1	480	760	83899	13.328	13.090	13.552
ProbeTrack11	6	ProbeTrack	11.2	SCS215a	20100818.120340	20100818.121156	8	0.013328	60	0	60-180	60	129	GapExp	0	79	2	3	1	target	1	414	793	84692	13.328	12.962	13.685
ProbeTrack11	6	ProbeTrack	11.2	SCS215a	20100818.120340	20100818.121202	8	0.013328	60	0	60-180	60	95	GapExp	0	80	2	45	1	target	1	467	767	85459	13.328	13.310	13.344
ProbeTrack11	6	ProbeTrack	11.2	SCS215a	20100818.120340	20100818.121208	8	0.013328	60	10	60-180	60	83	GapExp	0	81	2	3	0	target	0	440	-1000	84459	13.328	12.960	13.708
ProbeTrack11	6	ProbeTrack	11.2	SCS215a	20100818.120340	20100818.121214	8	0.013328	60	10	60-180	60	113	GapExp	0	82	2	3	1	target	1	534	733	85192	13.328	13.166	13.505
ProbeTrack11	6	ProbeTrack	11.2	SCS215a	20100818.120340	20100818.121220	8	0.013328	60	10	60-180	60	127	GapExp	0	83	2	0	0	distractor	1	494	753	85945	13.328	12.975	13.675
ProbeTrack11	6	ProbeTrack	11.2	SCS215a	20100818.120340	20100818.121225	8	0.013328	60	0	60-180	60	115	GapExp	0	84	2	3	1	target	1	454	773	86718	13.328	12.868	13.782
ProbeTrack11	6	ProbeTrack	11.2	SCS215a	20100818.120340	20100818.121231	8	0.013328	60	0	60-180	60	124	GapExp	0	85	2	3	0	distractor	1	574	713	87431	13.328	13.098	13.572
ProbeTrack11	6	ProbeTrack	11.2	SCS215a	20100818.120340	20100818.121237	8	0.013328	60	10	60-180	60	103	GapExp	0	86	2	3	0	distractor	1	427	787	88218	13.328	12.997	13.667
ProbeTrack11	6	ProbeTrack	11.2	SCS215a	20100818.120340	20100818.121243	8	0.013328	60	10	60-180	60	90	GapExp	0	87	2	45	0	distractor	1	520	740	88958	13.328	13.130	13.527
ProbeTrack11	6	ProbeTrack	11.2	SCS215a	20100818.120340	20100818.121249	8	0.013328	60	0	60-180	60	61	GapExp	0	88	2	1	1	target	1	467	767	89725	13.328	12.905	13.753
ProbeTrack11	6	ProbeTrack	11.2	SCS215a	20100818.120340	20100818.121254	8	0.013328	60	10	60-180	60	129	GapExp	0	89	2	45	0	distractor	1	454	773	90498	13.328	13.111	13.554
ProbeTrack11	6	ProbeTrack	11.2	SCS215a	20100818.120340	20100818.121300	8	0.013328	60	0	60-180	60	148	GapExp	0	90	2	45	1	target	1	480	760	91258	13.328	12.960	13.706
ProbeTrack11	6	ProbeTrack	11.2	SCS215a	20100818.120340	20100818.121307	8	0.013328	60	0	60-180	60	149	GapExp	0	91	2	1	1	target	1	427	787	92045	13.328	13.106	13.536
ProbeTrack11	6	ProbeTrack	11.2	SCS215a	20100818.120340	20100818.121313	8	0.013328	60	0	60-180	60	94	GapExp	0	92	2	1	1	target	1	547	727	92772	13.328	13.309	13.344
ProbeTrack11	6	ProbeTrack	11.2	SCS215a	20100818.120340	20100818.121319	8	0.013328	60	0	60-180	60	93	GapExp	0	93	2	0	1	distractor	0	480	-1000	91772	13.328	13.309	13.349
ProbeTrack11	6	ProbeTrack	11.2	SCS215a	20100818.120340	20100818.121324	8	0.013328	60	10	60-180	60	116	GapExp	0	94	2	45	0	distractor	1	467	767	92539	13.328	13.302	13.357
ProbeTrack11	6	ProbeTrack	11.2	SCS215a	20100818.120340	20100818.121331	8	0.013328	60	0	60-180	60	133	GapExp	0	95	2	3	0	distractor	1	534	733	93272	13.328	12.911	13.737
ProbeTrack11	6	ProbeTrack	11.2	SCS215a	20100818.120340	20100818.121337	8	0.013328	60	0	60-180	60	114	GapExp	0	96	2	3	0	distractor	1	574	713	93985	13.328	13.307	13.344
ProbeTrack11	6	ProbeTrack	11.2	SCS215a	20100818.120340	20100818.121343	8	0.013328	60	10	60-180	60	114	GapExp	0	97	2	0	1	target	1	560	720	94705	13.328	13.092	13.564
ProbeTrack11	6	ProbeTrack	11.2	SCS215a	20100818.120340	20100818.121349	8	0.013328	60	0	60-180	60	122	GapExp	0	98	2	3	1	target	1	520	740	95445	13.328	13.308	13.349
ProbeTrack11	6	ProbeTrack	11.2	SCS215a	20100818.120340	20100818.121355	8	0.013328	60	0	60-180	60	150	GapExp	0	99	2	3	0	distractor	1	574	713	96158	13.328	13.101	13.563
ProbeTrack11	6	ProbeTrack	11.2	SCS215a	20100818.120340	20100818.121401	8	0.013328	60	10	60-180	60	80	GapExp	0	100	2	45	0	distractor	1	534	733	96891	13.328	13.299	13.347
ProbeTrack11	6	ProbeTrack	11.2	SCS215a	20100818.120340	20100818.121407	8	0.013328	60	0	60-180	60	179	GapExp	0	101	2	1	1	target	1	440	780	97671	13.328	13.304	13.350
ProbeTrack11	6	ProbeTrack	11.2	SCS215a	20100818.120340	20100818.121414	8	0.013328	60	10	60-180	60	148	GapExp	0	102	2	45	1	target	1	427	787	98458	13.328	13.249	13.406
ProbeTrack11	6	ProbeTrack	11.2	SCS215a	20100818.120340	20100818.121421	8	0.013328	60	10	60-180	60	159	GapExp	0	103	2	45	0	distractor	1	547	727	99185	13.328	13.278	13.376
ProbeTrack11	6	ProbeTrack	11.2	SCS215a	20100818.120340	20100818.121428	8	0.013328	60	10	60-180	60	91	GapExp	0	104	2	45	1	target	1	480	760	99945	13.328	13.311	13.347
ProbeTrack11	6	ProbeTrack	11.2	SCS215a	20100818.120340	20100818.121434	8	0.013328	60	10	60-180	60	155	GapExp	0	105	2	1	0	distractor	1	600	700	100645	13.328	13.308	13.346
ProbeTrack11	6	ProbeTrack	11.2	SCS215a	20100818.120340	20100818.121441	8	0.013328	60	10	60-180	60	75	GapExp	0	106	2	45	0	distractor	1	480	760	101405	13.328	13.267	13.398
ProbeTrack11	6	ProbeTrack	11.2	SCS215a	20100818.120340	20100818.121446	8	0.013328	60	0	60-180	60	159	GapExp	0	107	2	3	1	target	1	494	753	102158	13.328	13.103	13.558
ProbeTrack11	6	ProbeTrack	11.2	SCS215a	20100818.120340	20100818.121453	8	0.013328	60	0	60-180	60	109	GapExp	0	108	2	3	0	distractor	1	573	714	102872	13.328	13.097	13.565
ProbeTrack11	6	ProbeTrack	11.2	SCS215a	20100818.120340	20100818.121459	8	0.013328	60	0	60-180	60	150	GapExp	0	109	2	45	0	distractor	1	613	694	103566	13.328	13.091	13.559
ProbeTrack11	6	ProbeTrack	11.2	SCS215a	20100818.120340	20100818.121506	8	0.013328	60	0	60-180	60	65	GapExp	0	110	2	3	1	target	1	560	720	104286	13.328	13.090	13.552
ProbeTrack11	6	ProbeTrack	11.2	SCS215a	20100818.120340	20100818.121513	8	0.013328	60	0	60-180	60	112	GapExp	0	111	2	0	0	distractor	1	614	693	104979	13.328	12.890	13.749
ProbeTrack11	6	ProbeTrack	11.2	SCS215a	20100818.120340	20100818.121519	8	0.013328	60	10	60-180	60	86	GapExp	0	112	2	1	1	target	1	440	780	105759	13.328	13.312	13.345
ProbeTrack11	6	ProbeTrack	11.2	SCS215a	20100818.120340	20100818.121524	8	0.013328	60	0	60-180	60	99	GapExp	0	113	2	45	1	target	1	494	753	106512	13.328	13.092	13.564
ProbeTrack11	6	ProbeTrack	11.2	SCS215a	20100818.120340	20100818.121531	8	0.013328	60	0	60-180	60	109	GapExp	0	114	2	1	1	target	1	440	780	107292	13.328	13.062	13.602
ProbeTrack11	6	ProbeTrack	11.2	SCS215a	20100818.120340	20100818.121536	8	0.013328	60	10	60-180	60	152	GapExp	0	115	2	1	0	target	0	454	-1000	106292	13.328	12.983	13.673
ProbeTrack11	6	ProbeTrack	11.2	SCS215a	20100818.120340	20100818.121543	8	0.013328	60	10	60-180	60	166	GapExp	0	116	2	0	0	target	0	547	-1000	105292	13.328	12.960	13.701
ProbeTrack11	6	ProbeTrack	11.2	SCS215a	20100818.120340	20100818.121549	8	0.013328	60	10	60-180	60	82	GapExp	0	117	2	3	0	target	0	480	-1000	104292	13.328	13.083	13.573
ProbeTrack11	6	ProbeTrack	11.2	SCS215a	20100818.120340	20100818.121555	8	0.013328	60	10	60-180	60	74	GapExp	0	118	2	45	0	distractor	1	414	793	105085	13.328	12.859	13.784
ProbeTrack11	6	ProbeTrack	11.2	SCS215a	20100818.120340	20100818.121601	8	0.013328	60	10	60-180	60	68	GapExp	0	119	2	45	1	target	1	414	793	105878	13.328	13.228	13.413
ProbeTrack11	6	ProbeTrack	11.2	SCS215a	20100818.120340	20100818.121607	8	0.013328	60	0	60-180	60	146	GapExp	0	120	2	45	0	distractor	1	587	707	106585	13.328	13.305	13.348
ProbeTrack11	6	ProbeTrack	11.2	SCS215a	20100818.120340	20100818.121614	8	0.013328	60	10	60-180	60	107	GapExp	0	121	2	3	0	distractor	1	467	767	107352	13.328	13.303	13.355
ProbeTrack11	6	ProbeTrack	11.2	SCS215a	20100818.120340	20100818.121619	8	0.013328	60	10	60-180	60	101	GapExp	0	122	2	3	0	target	0	454	-1000	106352	13.328	13.272	13.378
ProbeTrack11	6	ProbeTrack	11.2	SCS215a	20100818.120340	20100818.121625	8	0.013328	60	0	60-180	60	110	GapExp	0	123	2	45	0	distractor	1	507	747	107099	13.328	12.913	13.750
ProbeTrack11	6	ProbeTrack	11.2	SCS215a	20100818.120340	20100818.121631	8	0.013328	60	10	60-180	60	110	GapExp	0	124	2	3	1	target	1	467	767	107866	13.328	13.022	13.640
ProbeTrack11	6	ProbeTrack	11.2	SCS215a	20100818.120340	20100818.121637	8	0.013328	60	10	60-180	60	160	GapExp	0	125	2	3	0	target	0	427	-1000	106866	13.328	12.877	13.771
ProbeTrack11	6	ProbeTrack	11.2	SCS215a	20100818.120340	20100818.121643	8	0.013328	60	10	60-180	60	115	GapExp	0	126	2	45	1	target	1	534	733	107599	13.328	13.099	13.559
ProbeTrack11	6	ProbeTrack	11.2	SCS215a	20100818.120340	20100818.121650	8	0.013328	60	10	60-180	60	114	GapExp	0	127	2	45	1	target	1	427	787	108386	13.328	12.866	13.792
ProbeTrack11	6	ProbeTrack	11.2	SCS215a	20100818.120340	20100818.121657	8	0.013328	60	10	60-180	60	145	GapExp	0	128	2	3	1	target	1	387	807	109193	13.328	13.246	13.409
ProbeTrack11	6	ProbeTrack	11.2	SCS215a	20100818.120340	20100818.121703	8	0.013328	60	10	60-180	60	98	GapExp	0	129	2	45	1	target	1	400	800	109993	13.328	13.309	13.348
ProbeTrack11	6	ProbeTrack	11.2	SCS215a	20100818.120340	20100818.121710	8	0.013328	60	10	60-180	60	136	GapExp	0	130	2	45	0	distractor	1	454	773	110766	13.328	13.292	13.351
ProbeTrack11	6	ProbeTrack	11.2	SCS215a	20100818.120340	20100818.121716	8	0.013328	60	0	60-180	60	75	GapExp	0	131	2	0	0	distractor	1	547	727	111493	13.326	13.007	13.347
ProbeTrack11	6	ProbeTrack	11.2	SCS215a	20100818.120340	20100818.121722	8	0.013328	60	10	60-180	60	108	GapExp	0	132	2	3	0	target	0	600	-1000	110493	13.328	13.312	13.343
ProbeTrack11	6	ProbeTrack	11.2	SCS215a	20100818.120340	20100818.121728	8	0.013328	60	10	60-180	60	92	GapExp	0	133	2	3	1	target	1	574	713	111206	13.328	13.058	13.591
ProbeTrack11	6	ProbeTrack	11.2	SCS215a	20100818.120340	20100818.121733	8	0.013328	60	0	60-180	60	69	GapExp	0	134	2	0	0	distractor	1	627	687	111893	13.328	12.925	13.740
ProbeTrack11	6	ProbeTrack	11.2	SCS215a	20100818.120340	20100818.121739	8	0.013328	60	10	60-180	60	135	GapExp	0	135	2	45	1	target	1	440	780	112673	13.328	13.008	13.640
ProbeTrack11	6	ProbeTrack	11.2	SCS215a	20100818.120340	20100818.121745	8	0.013328	60	0	60-180	60	93	GapExp	0	136	2	1	1	target	1	520	740	113413	13.328	13.179	13.489
ProbeTrack11	6	ProbeTrack	11.2	SCS215a	20100818.120340	20100818.121750	8	0.013328	60	10	60-180	60	163	GapExp	0	137	2	0	1	target	1	440	780	114193	13.328	12.974	13.688
ProbeTrack11	6	ProbeTrack	11.2	SCS215a	20100818.120340	20100818.121757	8	0.013328	60	10	60-180	60	117	GapExp	0	138	2	45	1	target	1	467	767	114960	13.328	12.857	13.801
ProbeTrack11	6	ProbeTrack	11.2	SCS215a	20100818.120340	20100818.121803	8	0.013328	60	10	60-180	60	155	GapExp	0	139	2	0	1	target	1	440	780	115740	13.328	12.903	13.751
ProbeTrack11	6	ProbeTrack	11.2	SCS215a	20100818.120340	20100818.121810	8	0.013328	60	10	60-180	60	97	GapExp	0	140	2	3	1	target	1	480	760	116500	13.328	12.856	13.806
ProbeTrack11	6	ProbeTrack	11.2	SCS215a	20100818.120340	20100818.121815	8	0.013328	60	0	60-180	60	168	GapExp	0	141	2	1	1	target	1	480	760	117260	13.328	12.961	13.686
ProbeTrack11	6	ProbeTrack	11.2	SCS215a	20100818.120340	20100818.121821	8	0.013328	60	10	60-180	60	75	GapExp	0	142	2	3	0	target	0	520	-1000	116260	13.328	13.131	13.528
ProbeTrack11	6	ProbeTrack	11.2	SCS215a	20100818.120340	20100818.121827	8	0.013328	60	10	60-180	60	169	GapExp	0	143	2	0	1	target	1	427	787	117047	13.328	13.303	13.346
ProbeTrack11	6	ProbeTrack	11.2	SCS215a	20100818.120340	20100818.121833	8	0.013328	60	10	60-180	60	121	GapExp	0	144	2	3	0	distractor	1	507	747	117794	13.328	13.217	13.425
ProbeTrack11	6	ProbeTrack	11.2	SCS215a	20100818.120340	20100818.121839	8	0.013328	60	10	60-180	60	149	GapExp	0	145	2	0	1	target	1	507	747	118541	13.328	12.945	13.718
ProbeTrack11	6	ProbeTrack	11.2	SCS215a	20100818.120340	20100818.121846	8	0.013328	60	0	60-180	60	63	GapExp	0	146	2	45	1	target	1	454	773	119314	13.328	12.914	13.738
ProbeTrack11	6	ProbeTrack	11.2	SCS215a	20100818.120340	20100818.121851	8	0.013328	60	0	60-180	60	73	GapExp	0	147	2	1	0	distractor	1	574	713	120027	13.328	13.241	13.413
ProbeTrack11	6	ProbeTrack	11.2	SCS215a	20100818.120340	20100818.121856	8	0.013328	60	0	60-180	60	170	GapExp	0	148	2	45	1	target	1	414	793	120820	13.328	12.878	13.764
ProbeTrack11	6	ProbeTrack	11.2	SCS215a	20100818.120340	20100818.121903	8	0.013328	60	0	60-180	60	117	GapExp	0	149	2	3	0	distractor	1	480	760	121580	13.328	12.964	13.689
ProbeTrack11	6	ProbeTrack	11.2	SCS215a	20100818.120340	20100818.121909	8	0.013328	60	0	60-180	60	119	GapExp	0	150	2	45	1	target	1	427	787	122367	13.328	12.955	13.703
ProbeTrack11	6	ProbeTrack	11.2	SCS215a	20100818.120340	20100818.121916	8	0.013328	60	10	60-180	60	118	GapExp	0	151	2	0	1	target	1	360	820	123187	13.328	12.935	13.723
ProbeTrack11	6	ProbeTrack	11.2	SCS215a	20100818.120340	20100818.121921	8	0.013328	60	0	60-180	60	153	GapExp	0	152	2	3	1	target	1	414	793	123980	13.328	13.289	13.366
ProbeTrack11	6	ProbeTrack	11.2	SCS215a	20100818.120340	20100818.121927	8	0.013328	60	10	60-180	60	144	GapExp	0	153	2	0	1	target	1	360	820	124800	13.328	13.303	13.347
ProbeTrack11	6	ProbeTrack	11.2	SCS215a	20100818.120340	20100818.121934	8	0.013328	60	10	60-180	60	86	GapExp	0	154	2	1	0	distractor	1	400	800	125600	13.328	13.096	13.544
ProbeTrack11	6	ProbeTrack	11.2	SCS215a	20100818.120340	20100818.121940	8	0.013328	60	10	60-180	60	128	GapExp	0	155	2	45	0	distractor	1	347	827	126427	13.328	13.095	13.560
ProbeTrack11	6	ProbeTrack	11.2	SCS215a	20100818.120340	20100818.121946	8	0.013328	60	10	60-180	60	86	GapExp	0	156	2	1	1	target	1	400	800	127227	13.328	13.106	13.543
ProbeTrack11	6	ProbeTrack	11.2	SCS215a	20100818.120340	20100818.121951	8	0.013328	60	10	60-180	60	74	GapExp	0	157	2	45	0	distractor	1	320	840	128067	13.328	13.309	13.346
ProbeTrack11	6	ProbeTrack	11.2	SCS215a	20100818.120340	20100818.121957	8	0.013328	60	10	60-180	60	141	GapExp	0	158	2	1	1	target	1	294	853	128920	13.328	13.309	13.346
ProbeTrack11	6	ProbeTrack	11.2	SCS215a	20100818.120340	20100818.122004	8	0.013328	60	10	60-180	60	66	GapExp	0	159	2	1	0	distractor	1	374	813	129733	13.328	13.172	13.484
ProbeTrack11	6	ProbeTrack	11.2	SCS215a	20100818.120340	20100818.122009	8	0.013328	60	10	60-180	60	111	GapExp	0	160	2	0	1	target	1	307	847	130580	13.328	12.941	13.715
ProbeTrack11	6	ProbeTrack	11.2	SCS215a	20100818.120340	20100818.122014	8	0.013328	60	0	60-180	60	146	GapExp	0	161	2	45	1	target	1	374	813	131393	13.328	12.938	13.712
ProbeTrack11	6	ProbeTrack	11.2	SCS215a	20100818.120340	20100818.122021	8	0.013328	60	10	60-180	60	109	GapExp	0	162	2	1	0	multi	-2	414	-1000	130393	13.328	12.903	13.759
ProbeTrack11	6	ProbeTrack	11.2	SCS215a	20100818.120340	20100818.122027	8	0.013328	60	10	60-180	60	169	GapExp	0	163	2	3	1	target	1	347	827	131220	13.328	12.864	13.783
ProbeTrack11	6	ProbeTrack	11.2	SCS215a	20100818.120340	20100818.122033	8	0.013328	60	10	60-180	60	174	GapExp	0	164	2	1	0	target	0	307	-1000	130220	13.328	13.114	13.537
ProbeTrack11	6	ProbeTrack	11.2	SCS215a	20100818.120340	20100818.122041	8	0.013328	60	10	60-180	60	81	GapExp	0	165	2	0	1	target	1	507	747	130967	13.328	12.844	13.818
ProbeTrack11	6	ProbeTrack	11.2	SCS215a	20100818.120340	20100818.122046	8	0.013328	60	10	60-180	60	80	GapExp	0	166	2	45	0	distractor	1	454	773	131740	13.328	13.057	13.579
ProbeTrack11	6	ProbeTrack	11.2	SCS215a	20100818.120340	20100818.122052	8	0.013328	60	10	60-180	60	141	GapExp	0	167	2	0	0	distractor	1	440	780	132520	13.328	12.997	13.655
ProbeTrack11	6	ProbeTrack	11.2	SCS215a	20100818.120340	20100818.122059	8	0.013328	60	10	60-180	60	127	GapExp	0	168	2	0	0	distractor	1	427	787	133307	13.328	13.102	13.548
ProbeTrack11	6	ProbeTrack	11.2	SCS215a	20100818.120340	20100818.122105	8	0.013328	60	10	60-180	60	66	GapExp	0	169	2	3	1	target	1	440	780	134087	13.328	13.056	13.607
ProbeTrack11	6	ProbeTrack	11.2	SCS215a	20100818.120340	20100818.122110	8	0.013328	60	0	60-180	60	76	GapExp	0	170	2	1	0	distractor	1	547	727	134814	13.328	13.105	13.548
ProbeTrack11	6	ProbeTrack	11.2	SCS215a	20100818.120340	20100818.122116	8	0.013328	60	10	60-180	60	100	GapExp	0	171	2	3	1	target	1	414	793	135607	13.328	13.306	13.349
ProbeTrack11	6	ProbeTrack	11.2	SCS215a	20100818.120340	20100818.122122	8	0.013328	60	10	60-180	60	92	GapExp	0	172	2	45	0	distractor	1	427	787	136394	13.328	12.981	13.670
ProbeTrack11	6	ProbeTrack	11.2	SCS215a	20100818.120340	20100818.122128	8	0.013328	60	10	60-180	60	99	GapExp	0	173	2	1	0	distractor	1	400	800	137194	13.328	13.227	13.425
ProbeTrack11	6	ProbeTrack	11.2	SCS215a	20100818.120340	20100818.122133	8	0.013328	60	10	60-180	60	106	GapExp	0	174	2	45	1	target	1	414	793	137987	13.328	13.087	13.560
ProbeTrack11	6	ProbeTrack	11.2	SCS215a	20100818.120340	20100818.122139	8	0.013328	60	0	60-180	60	142	GapExp	0	175	2	1	1	target	1	494	753	138740	13.328	13.307	13.356
ProbeTrack11	6	ProbeTrack	11.2	SCS215a	20100818.120340	20100818.122146	8	0.013328	60	10	60-180	60	177	GapExp	0	176	2	1	1	target	1	400	800	139540	13.328	13.058	13.600
ProbeTrack11	6	ProbeTrack	11.2	SCS215a	20100818.120340	20100818.122152	8	0.013328	60	10	60-180	60	100	GapExp	0	177	2	3	1	target	1	347	827	140367	13.328	13.083	13.564
ProbeTrack11	6	ProbeTrack	11.2	SCS215a	20100818.120340	20100818.122158	8	0.013328	60	0	60-180	60	88	GapExp	0	178	2	3	1	target	1	534	733	141100	13.328	13.305	13.345
ProbeTrack11	6	ProbeTrack	11.2	SCS215a	20100818.120340	20100818.122203	8	0.013328	60	10	60-180	60	105	GapExp	0	179	2	45	0	target	0	400	-1000	140100	13.328	13.308	13.349
ProbeTrack11	6	ProbeTrack	11.2	SCS215a	20100818.120340	20100818.122209	8	0.013328	60	10	60-180	60	64	GapExp	0	180	2	0	1	target	1	414	793	140893	13.328	12.856	13.794
ProbeTrack11	6	ProbeTrack	11.2	SCS215a	20100818.120340	20100818.122214	8	0.013328	60	10	60-180	60	146	GapExp	0	181	2	3	0	distractor	1	400	800	141693	13.328	13.108	13.551
ProbeTrack11	6	ProbeTrack	11.2	SCS215a	20100818.120340	20100818.122221	8	0.013328	60	0	60-180	60	68	GapExp	0	182	2	0	0	target	0	507	-1000	140693	13.328	12.849	13.803
ProbeTrack11	6	ProbeTrack	11.2	SCS215a	20100818.120340	20100818.122226	8	0.013328	60	0	60-180	60	144	GapExp	0	183	2	45	0	distractor	1	587	707	141400	13.328	13.094	13.557
ProbeTrack11	6	ProbeTrack	11.2	SCS215a	20100818.120340	20100818.122233	8	0.013328	60	10	60-180	60	69	GapExp	0	184	2	3	0	target	0	440	-1000	140400	13.328	12.905	13.745
ProbeTrack11	6	ProbeTrack	11.2	SCS215a	20100818.120340	20100818.122238	8	0.013328	60	0	60-180	60	123	GapExp	0	185	2	3	1	target	1	360	820	141220	13.328	13.309	13.346
ProbeTrack11	6	ProbeTrack	11.2	SCS215a	20100818.120340	20100818.122244	8	0.013328	60	10	60-180	60	70	GapExp	0	186	2	1	1	target	1	507	747	141967	13.328	13.309	13.347
ProbeTrack11	6	ProbeTrack	11.2	SCS215a	20100818.120340	20100818.122250	8	0.013328	60	10	60-180	60	171	GapExp	0	187	2	3	1	target	1	467	767	142734	13.328	12.857	13.789
ProbeTrack11	6	ProbeTrack	11.2	SCS215a	20100818.120340	20100818.122256	8	0.013328	60	10	60-180	60	159	GapExp	0	188	2	45	1	target	1	414	793	143527	13.328	13.096	13.573
ProbeTrack11	6	ProbeTrack	11.2	SCS215a	20100818.120340	20100818.122304	8	0.013328	60	10	60-180	60	147	GapExp	0	189	2	1	0	distractor	1	374	813	144340	13.328	13.299	13.363
ProbeTrack11	6	ProbeTrack	11.2	SCS215a	20100818.120340	20100818.122312	8	0.013328	60	10	60-180	60	119	GapExp	0	190	2	3	0	target	0	374	-1000	143340	13.328	13.075	13.576
ProbeTrack11	6	ProbeTrack	11.2	SCS215a	20100818.120340	20100818.122318	8	0.013328	60	0	60-180	60	88	GapExp	0	191	2	3	1	target	1	560	720	144060	13.328	12.936	13.707
ProbeTrack11	6	ProbeTrack	11.2	SCS215a	20100818.120340	20100818.122326	8	0.013328	60	0	60-180	60	74	GapExp	0	192	2	45	0	distractor	1	440	780	144840	13.328	13.307	13.348
ProbeTrack11	6	ProbeTrack	11.2	SCS215a	20100818.120340	20100818.122332	8	0.013328	60	0	60-180	60	161	GapExp	0	193	2	3	0	distractor	1	480	760	145600	13.328	12.899	13.745
ProbeTrack11	6	ProbeTrack	11.2	SCS215a	20100818.120340	20100818.122339	8	0.013328	60	10	60-180	60	162	GapExp	0	194	2	0	0	target	0	414	-1000	144600	13.328	13.022	13.641
ProbeTrack11	6	ProbeTrack	11.2	SCS215a	20100818.120340	20100818.122345	8	0.013328	60	0	60-180	60	146	GapExp	0	195	2	3	0	distractor	1	454	773	145373	13.328	12.873	13.768
ProbeTrack11	6	ProbeTrack	11.2	SCS215a	20100818.120340	20100818.122355	8	0.013328	60	0	60-180	60	152	GapExp	0	196	2	45	1	target	1	507	747	146120	13.328	12.975	13.688
ProbeTrack11	6	ProbeTrack	11.2	SCS215a	20100818.120340	20100818.122402	8	0.013328	60	10	60-180	60	91	GapExp	0	197	2	0	1	target	1	494	753	146873	13.328	13.186	13.475
ProbeTrack11	6	ProbeTrack	11.2	SCS215a	20100818.120340	20100818.122407	8	0.013328	60	0	60-180	60	177	GapExp	0	198	2	45	1	target	1	454	773	147646	13.328	12.837	13.811
ProbeTrack11	6	ProbeTrack	11.2	SCS215a	20100818.120340	20100818.122414	8	0.013328	60	0	60-180	60	159	GapExp	0	199	2	0	1	target	1	387	807	148453	13.328	13.098	13.545
ProbeTrack11	6	ProbeTrack	11.2	SCS215a	20100818.120340	20100818.122420	8	0.013328	60	10	60-180	60	173	GapExp	0	200	2	0	0	target	0	480	-1000	147453	13.328	12.923	13.718
ProbeTrack11	6	ProbeTrack	11.2	SCS215a	20100818.120340	20100818.122427	8	0.013328	60	0	60-180	60	172	GapExp	0	201	2	3	1	target	1	494	753	148206	13.328	13.086	13.573
ProbeTrack11	6	ProbeTrack	11.2	SCS215a	20100818.120340	20100818.122434	8	0.013328	60	0	60-180	60	71	GapExp	0	202	2	45	0	distractor	1	494	753	148959	13.328	13.100	13.562
ProbeTrack11	6	ProbeTrack	11.2	SCS215a	20100818.120340	20100818.122439	8	0.013328	60	10	60-180	60	178	GapExp	0	203	2	1	1	target	1	400	800	149759	13.328	12.954	13.698
ProbeTrack11	6	ProbeTrack	11.2	SCS215a	20100818.120340	20100818.122446	8	0.013328	60	0	60-180	60	77	GapExp	0	204	2	1	0	distractor	1	520	740	150499	13.328	12.853	13.801
ProbeTrack11	6	ProbeTrack	11.2	SCS215a	20100818.120340	20100818.122452	8	0.013328	60	0	60-180	60	85	GapExp	0	205	2	1	1	target	1	440	780	151279	13.328	12.836	13.745
ProbeTrack11	6	ProbeTrack	11.2	SCS215a	20100818.120340	20100818.122457	8	0.013328	60	10	60-180	60	139	GapExp	0	206	2	0	0	distractor	1	467	767	152046	13.328	12.944	13.721
ProbeTrack11	6	ProbeTrack	11.2	SCS215a	20100818.120340	20100818.122503	8	0.013328	60	0	60-180	60	93	GapExp	0	207	2	0	1	target	1	427	787	152833	13.328	13.105	13.551
ProbeTrack11	6	ProbeTrack	11.2	SCS215a	20100818.120340	20100818.122509	8	0.013328	60	0	60-180	60	157	GapExp	0	208	2	1	0	distractor	1	534	733	153566	13.328	12.921	13.735
ProbeTrack11	6	ProbeTrack	11.2	SCS215a	20100818.120340	20100818.122515	8	0.013328	60	0	60-180	60	124	GapExp	0	209	2	45	1	target	1	427	787	154353	13.328	12.906	13.763
ProbeTrack11	6	ProbeTrack	11.2	SCS215a	20100818.120340	20100818.122522	8	0.013328	60	10	60-180	60	155	GapExp	0	210	2	1	0	distractor	1	414	793	155146	13.328	12.838	13.803
ProbeTrack11	6	ProbeTrack	11.2	SCS215a	20100818.120340	20100818.122528	8	0.013328	60	10	60-180	60	131	GapExp	0	211	2	1	0	distractor	1	574	713	155859	13.328	12.885	13.775
ProbeTrack11	6	ProbeTrack	11.2	SCS215a	20100818.120340	20100818.122534	8	0.013328	60	10	60-180	60	161	GapExp	0	212	2	0	1	target	1	480	760	156619	13.422	12.861	40.363
ProbeTrack11	6	ProbeTrack	11.2	SCS215a	20100818.120340	20100818.122541	8	0.013328	60	0	60-180	60	110	GapExp	0	213	2	0	1	target	1	440	780	157399	13.328	13.308	13.347
ProbeTrack11	6	ProbeTrack	11.2	SCS215a	20100818.120340	20100818.122547	8	0.013328	60	10	60-180	60	120	GapExp	0	214	2	1	1	target	1	467	767	158166	13.328	12.901	13.751
ProbeTrack11	6	ProbeTrack	11.2	SCS215a	20100818.120340	20100818.122553	8	0.013328	60	10	60-180	60	81	GapExp	0	215	2	45	0	distractor	1	414	793	158959	13.328	13.098	13.572
ProbeTrack11	6	ProbeTrack	11.2	SCS215a	20100818.120340	20100818.122558	8	0.013328	60	0	60-180	60	148	GapExp	0	216	2	0	0	distractor	1	480	760	159719	13.328	12.924	13.734
ProbeTrack11	6	ProbeTrack	11.2	SCS215a	20100818.120340	20100818.122605	8	0.013328	60	10	60-180	60	106	GapExp	0	217	2	3	0	target	0	454	-1000	158719	13.328	13.308	13.348
ProbeTrack11	6	ProbeTrack	11.2	SCS215a	20100818.120340	20100818.122611	8	0.013328	60	10	60-180	60	83	GapExp	0	218	2	45	1	distractor	0	400	-1000	157719	13.328	12.922	13.739
ProbeTrack11	6	ProbeTrack	11.2	SCS215a	20100818.120340	20100818.122616	8	0.013328	60	0	60-180	60	156	GapExp	0	219	2	0	1	target	1	400	800	158519	13.328	12.875	13.614
ProbeTrack11	6	ProbeTrack	11.2	SCS215a	20100818.120340	20100818.122623	8	0.013328	60	0	60-180	60	114	GapExp	0	220	2	3	1	target	1	560	720	159239	13.328	13.307	13.348
ProbeTrack11	6	ProbeTrack	11.2	SCS215a	20100818.120340	20100818.122629	8	0.013328	60	0	60-180	60	131	GapExp	0	221	2	45	0	distractor	1	454	773	160012	13.328	13.308	13.351
ProbeTrack11	6	ProbeTrack	11.2	SCS215a	20100818.120340	20100818.122635	8	0.013328	60	0	60-180	60	109	GapExp	0	222	2	0	1	target	1	440	780	160792	13.328	13.310	13.347
ProbeTrack11	6	ProbeTrack	11.2	SCS215a	20100818.120340	20100818.122641	8	0.013328	60	0	60-180	60	75	GapExp	0	223	2	0	0	distractor	1	440	780	161572	13.328	12.939	13.704
ProbeTrack11	6	ProbeTrack	11.2	SCS215a	20100818.120340	20100818.122646	8	0.013328	60	0	60-180	60	154	GapExp	0	224	2	3	0	distractor	1	707	647	162219	13.328	13.118	13.537
ProbeTrack11	6	ProbeTrack	11.2	SCS215a	20100818.120340	20100818.122652	8	0.013328	60	10	60-180	60	81	GapExp	0	225	2	1	1	target	1	427	787	163006	13.328	12.905	13.763
ProbeTrack11	6	ProbeTrack	11.2	SCS215a	20100818.120340	20100818.122658	8	0.013328	60	0	60-180	60	102	GapExp	0	226	2	3	1	target	1	387	807	163813	13.328	12.926	13.733
ProbeTrack11	6	ProbeTrack	11.2	SCS215a	20100818.120340	20100818.122703	8	0.013328	60	0	60-180	60	106	GapExp	0	227	2	0	1	target	1	427	787	164600	13.328	13.293	13.350
ProbeTrack11	6	ProbeTrack	11.2	SCS215a	20100818.120340	20100818.122709	8	0.013328	60	10	60-180	60	145	GapExp	0	228	2	45	1	target	1	427	787	165387	13.328	13.058	13.665
ProbeTrack11	6	ProbeTrack	11.2	SCS215a	20100818.120340	20100818.122715	8	0.013328	60	10	60-180	60	87	GapExp	0	229	2	1	1	distractor	0	720	-1000	164387	13.328	12.894	13.769
ProbeTrack11	6	ProbeTrack	11.2	SCS215a	20100818.120340	20100818.122721	8	0.013328	60	10	60-180	60	111	GapExp	0	230	2	1	0	distractor	1	440	780	165167	13.328	12.892	13.762
ProbeTrack11	6	ProbeTrack	11.2	SCS215a	20100818.120340	20100818.122727	8	0.013328	60	0	60-180	60	124	GapExp	0	231	2	45	1	target	1	467	767	165934	13.328	12.961	13.708
ProbeTrack11	6	ProbeTrack	11.2	SCS215a	20100818.120340	20100818.122733	8	0.013328	60	10	60-180	60	155	GapExp	0	232	2	45	0	distractor	1	440	780	166714	13.328	12.953	13.701
ProbeTrack11	6	ProbeTrack	11.2	SCS215a	20100818.120340	20100818.122740	8	0.013328	60	10	60-180	60	176	GapExp	0	233	2	1	0	distractor	1	440	780	167494	13.328	12.995	13.653
ProbeTrack11	6	ProbeTrack	11.2	SCS215a	20100818.120340	20100818.122747	8	0.013328	60	0	60-180	60	77	GapExp	0	234	2	3	1	target	1	520	740	168234	13.328	13.308	13.349
ProbeTrack11	6	ProbeTrack	11.2	SCS215a	20100818.120340	20100818.122753	8	0.013328	60	0	60-180	60	102	GapExp	0	235	2	1	1	target	1	427	787	169021	13.330	12.953	13.811
ProbeTrack11	6	ProbeTrack	11.2	SCS215a	20100818.120340	20100818.122758	8	0.013328	60	0	60-180	60	144	GapExp	0	236	2	3	0	distractor	1	560	720	169741	13.328	12.897	13.745
ProbeTrack11	6	ProbeTrack	11.2	SCS215a	20100818.120340	20100818.122805	8	0.013328	60	0	60-180	60	77	GapExp	0	237	2	1	0	distractor	1	560	720	170461	13.328	13.063	13.586
ProbeTrack11	6	ProbeTrack	11.2	SCS215a	20100818.120340	20100818.122810	8	0.013328	60	10	60-180	60	128	GapExp	0	238	2	45	1	target	1	507	747	171208	13.328	12.985	13.736
ProbeTrack11	6	ProbeTrack	11.2	SCS215a	20100818.120340	20100818.122816	8	0.013328	60	10	60-180	60	99	GapExp	0	239	2	0	0	distractor	1	454	773	171981	13.328	13.119	13.545
ProbeTrack11	6	ProbeTrack	11.2	SCS215a	20100818.120340	20100818.122822	8	0.013328	60	10	60-180	60	73	GapExp	0	240	2	1	1	target	1	454	773	172754	13.328	13.306	13.346
ProbeTrack11	6	ProbeTrack	11.2	SCS215a	20100818.120340	20100818.122827	8	0.013328	60	10	60-180	60	121	GapExp	0	241	2	1	0	target	0	747	-1000	171754	13.328	12.882	13.767
ProbeTrack11	6	ProbeTrack	11.2	SCS215a	20100818.120340	20100818.122833	8	0.013328	60	10	60-180	60	166	GapExp	0	242	2	45	1	target	1	427	787	172541	13.328	12.843	13.832
ProbeTrack11	6	ProbeTrack	11.2	SCS215a	20100818.120340	20100818.122840	8	0.013328	60	0	60-180	60	143	GapExp	0	243	2	0	0	distractor	1	507	747	173288	13.328	13.104	13.566
ProbeTrack11	6	ProbeTrack	11.2	SCS215a	20100818.120340	20100818.122846	8	0.013328	60	10	60-180	60	80	GapExp	0	244	2	45	1	target	1	507	747	174035	13.328	12.893	13.771
ProbeTrack11	6	ProbeTrack	11.2	SCS215a	20100818.120340	20100818.122852	8	0.013328	60	0	60-180	60	151	GapExp	0	245	2	3	0	distractor	1	840	580	174615	13.328	12.855	13.786
ProbeTrack11	6	ProbeTrack	11.2	SCS215a	20100818.120340	20100818.122859	8	0.013328	60	10	60-180	60	142	GapExp	0	246	2	45	0	distractor	1	653	674	175289	13.410	12.847	40.464
ProbeTrack11	6	ProbeTrack	11.2	SCS215a	20100818.120340	20100818.122906	8	0.013328	60	0	60-180	60	128	GapExp	0	247	2	1	0	distractor	1	520	740	176029	13.328	12.850	13.813
ProbeTrack11	6	ProbeTrack	11.2	SCS215a	20100818.120340	20100818.122912	8	0.013328	60	0	60-180	60	158	GapExp	0	248	2	1	0	distractor	1	587	707	176736	13.328	13.071	13.584
ProbeTrack11	6	ProbeTrack	11.2	SCS215a	20100818.120340	20100818.122918	8	0.013328	60	10	60-180	60	110	GapExp	0	249	2	3	1	target	1	426	787	177523	13.385	12.913	26.660
ProbeTrack11	6	ProbeTrack	11.2	SCS215a	20100818.120340	20100818.122924	8	0.013328	60	0	60-180	60	99	GapExp	0	250	2	1	1	distractor	0	507	-1000	176523	13.328	12.911	13.755
ProbeTrack11	6	ProbeTrack	11.2	SCS215a	20100818.120340	20100818.122930	8	0.013328	60	10	60-180	60	115	GapExp	0	251	2	45	0	distractor	1	454	773	177296	13.328	12.919	13.747
ProbeTrack11	6	ProbeTrack	11.2	SCS215a	20100818.120340	20100818.122937	8	0.013328	60	0	60-180	60	179	GapExp	0	252	2	1	1	distractor	0	427	-1000	176296	13.697	12.879	40.443
ProbeTrack11	6	ProbeTrack	11.2	SCS215a	20100818.120340	20100818.122943	8	0.013328	60	0	60-180	60	122	GapExp	0	253	2	1	1	target	1	440	780	177076	13.328	12.859	13.786
ProbeTrack11	6	ProbeTrack	11.2	SCS215a	20100818.120340	20100818.122949	8	0.013328	60	0	60-180	60	136	GapExp	0	254	2	3	1	target	1	414	793	177869	13.382	13.107	26.695
ProbeTrack11	6	ProbeTrack	11.2	SCS215a	20100818.120340	20100818.122955	8	0.013328	60	10	60-180	60	116	GapExp	0	255	2	45	0	distractor	1	427	787	178656	13.328	12.964	13.686
ProbeTrack11	6	ProbeTrack	11.2	SCS215a	20100818.120340	20100818.123002	8	0.013328	60	10	60-180	60	66	GapExp	0	256	2	1	1	target	1	547	727	179383	13.328	13.013	13.636
ProbeTrack11	6	ProbeTrack	11.2	SCS215a	20100818.120340	20100818.123007	8	0.013328	60	10	60-180	60	81	GapExp	0	257	2	3	0	distractor	1	454	773	180156	13.328	12.887	13.756
ProbeTrack11	6	ProbeTrack	11.2	SCS215a	20100818.120340	20100818.123012	8	0.013328	60	0	60-180	60	153	GapExp	0	258	2	45	0	distractor	1	547	727	180883	13.328	12.932	13.734
ProbeTrack11	6	ProbeTrack	11.2	SCS215a	20100818.120340	20100818.123019	8	0.013328	60	10	60-180	60	106	GapExp	0	259	2	1	1	target	1	440	780	181663	13.328	13.019	13.642
ProbeTrack11	6	ProbeTrack	11.2	SCS215a	20100818.120340	20100818.123025	8	0.013328	60	0	60-180	60	81	GapExp	0	260	2	0	0	distractor	1	534	733	182396	14.001	12.864	39.893
ProbeTrack11	6	ProbeTrack	11.2	SCS215a	20100818.120340	20100818.123033	8	0.013328	60	0	60-180	60	157	GapExp	0	261	2	1	0	distractor	1	507	747	183143	13.328	12.947	13.712
ProbeTrack11	6	ProbeTrack	11.2	SCS215a	20100818.120340	20100818.123040	8	0.013328	60	10	60-180	60	95	GapExp	0	262	2	1	1	target	1	414	793	183936	13.328	13.099	13.558
ProbeTrack11	6	ProbeTrack	11.2	SCS215a	20100818.120340	20100818.123045	8	0.013328	60	10	60-180	60	72	GapExp	0	263	2	0	0	distractor	1	387	807	184743	13.328	13.010	13.646
ProbeTrack11	6	ProbeTrack	11.2	SCS215a	20100818.120340	20100818.123050	8	0.013328	60	0	60-180	60	141	GapExp	0	264	2	45	1	target	1	374	813	185556	13.328	13.079	13.571
ProbeTrack11	6	ProbeTrack	11.2	SCS215a	20100818.120340	20100818.123057	8	0.013328	60	0	60-180	60	134	GapExp	0	265	2	1	0	distractor	1	414	793	186349	13.328	12.936	13.723
ProbeTrack11	6	ProbeTrack	11.2	SCS215a	20100818.120340	20100818.123103	8	0.013328	60	10	60-180	60	119	GapExp	0	266	2	1	1	target	1	347	827	187176	13.328	12.977	13.685
ProbeTrack11	6	ProbeTrack	11.2	SCS215a	20100818.120340	20100818.123109	8	0.013328	60	0	60-180	60	96	GapExp	0	267	2	1	0	target	0	560	-1000	186176	13.328	12.875	13.779
ProbeTrack11	6	ProbeTrack	11.2	SCS215a	20100818.120340	20100818.123115	8	0.013328	60	0	60-180	60	83	GapExp	0	268	2	45	1	target	1	547	727	186903	13.328	12.854	13.804
ProbeTrack11	6	ProbeTrack	11.2	SCS215a	20100818.120340	20100818.123121	8	0.013328	60	10	60-180	60	120	GapExp	0	269	2	45	1	distractor	0	480	-1000	185903	13.328	12.951	13.707
ProbeTrack11	6	ProbeTrack	11.2	SCS215a	20100818.120340	20100818.123127	8	0.013328	60	10	60-180	60	98	GapExp	0	270	2	0	0	distractor	1	560	720	186623	13.328	13.106	13.553
ProbeTrack11	6	ProbeTrack	11.2	SCS215a	20100818.120340	20100818.123133	8	0.013328	60	0	60-180	60	108	GapExp	0	271	2	45	1	target	1	520	740	187363	13.328	13.023	13.627
ProbeTrack11	6	ProbeTrack	11.2	SCS215a	20100818.120340	20100818.123141	8	0.013328	60	0	60-180	60	145	GapExp	0	272	2	1	0	distractor	1	494	753	188116	13.328	13.093	13.554
ProbeTrack11	6	ProbeTrack	11.2	SCS215a	20100818.120340	20100818.123147	8	0.013328	60	0	60-180	60	175	GapExp	0	273	2	0	0	distractor	1	520	740	188856	13.328	13.112	13.558
ProbeTrack11	6	ProbeTrack	11.2	SCS215a	20100818.120340	20100818.123154	8	0.013328	60	0	60-180	60	122	GapExp	0	274	2	3	1	target	1	440	780	189636	13.328	13.112	13.547
ProbeTrack11	6	ProbeTrack	11.2	SCS215a	20100818.120340	20100818.123200	8	0.013328	60	10	60-180	60	119	GapExp	0	275	2	0	0	distractor	1	600	700	190336	13.328	12.974	13.682
ProbeTrack11	6	ProbeTrack	11.2	SCS215a	20100818.120340	20100818.123206	8	0.013328	60	0	60-180	60	85	GapExp	0	276	2	3	1	target	1	467	767	191103	13.328	13.069	13.581
ProbeTrack11	6	ProbeTrack	11.2	SCS215a	20100818.120340	20100818.123211	8	0.013328	60	10	60-180	60	78	GapExp	0	277	2	45	1	target	1	587	707	191810	13.328	12.905	13.752
ProbeTrack11	6	ProbeTrack	11.2	SCS215a	20100818.120340	20100818.123217	8	0.013328	60	0	60-180	60	113	GapExp	0	278	2	3	0	distractor	1	467	767	192577	13.328	12.967	13.687
ProbeTrack11	6	ProbeTrack	11.2	SCS215a	20100818.120340	20100818.123223	8	0.013328	60	10	60-180	60	110	GapExp	0	279	2	3	0	distractor	1	454	773	193350	13.328	12.886	13.777
ProbeTrack11	6	ProbeTrack	11.2	SCS215a	20100818.120340	20100818.123229	8	0.013328	60	0	60-180	60	107	GapExp	0	280	2	45	1	target	1	467	767	194117	13.328	12.921	13.739
ProbeTrack11	6	ProbeTrack	11.2	SCS215a	20100818.120340	20100818.123235	8	0.013328	60	10	60-180	60	82	GapExp	0	281	2	1	0	distractor	1	347	827	194944	13.328	13.081	13.576
ProbeTrack11	6	ProbeTrack	11.2	SCS215a	20100818.120340	20100818.123240	8	0.013328	60	10	60-180	60	166	GapExp	0	282	2	1	1	target	1	427	787	195731	13.328	12.978	13.679
ProbeTrack11	6	ProbeTrack	11.2	SCS215a	20100818.120340	20100818.123247	8	0.013328	60	0	60-180	60	117	GapExp	0	283	2	0	0	target	0	494	-1000	194731	13.328	12.884	13.762
ProbeTrack11	6	ProbeTrack	11.2	SCS215a	20100818.120340	20100818.123253	8	0.013328	60	10	60-180	60	139	GapExp	0	284	2	3	0	distractor	1	400	800	195531	13.328	13.031	13.622
ProbeTrack11	6	ProbeTrack	11.2	SCS215a	20100818.120340	20100818.123259	8	0.013328	60	10	60-180	60	160	GapExp	0	285	2	45	1	target	1	440	780	196311	13.328	12.996	13.657
ProbeTrack11	6	ProbeTrack	11.2	SCS215a	20100818.120340	20100818.123306	8	0.013328	60	10	60-180	60	149	GapExp	0	286	2	0	0	distractor	1	427	787	197098	13.328	12.983	13.538
ProbeTrack11	6	ProbeTrack	11.2	SCS215a	20100818.120340	20100818.123312	8	0.013328	60	10	60-180	60	175	GapExp	0	287	2	3	0	distractor	1	507	747	197845	13.328	13.004	13.652
ProbeTrack11	6	ProbeTrack	11.2	SCS215a	20100818.120340	20100818.123319	8	0.013328	60	0	60-180	60	72	GapExp	0	288	2	1	0	distractor	1	547	727	198572	13.328	12.942	13.731
ProbeTrack11	6	ProbeTrack	11.2	SCS215a	20100818.120340	20100818.123325	8	0.013328	60	10	60-180	60	73	GapExp	0	289	2	3	1	target	1	520	740	199312	13.328	13.307	13.355
ProbeTrack11	6	ProbeTrack	11.2	SCS215a	20100818.120340	20100818.123330	8	0.013328	60	0	60-180	60	176	GapExp	0	290	2	0	1	target	1	480	760	200072	13.328	13.058	13.661
ProbeTrack11	6	ProbeTrack	11.2	SCS215a	20100818.120340	20100818.123336	8	0.013328	60	0	60-180	60	169	GapExp	0	291	2	1	0	distractor	1	680	660	200732	13.328	12.921	13.740
ProbeTrack11	6	ProbeTrack	11.2	SCS215a	20100818.120340	20100818.123343	8	0.013328	60	0	60-180	60	91	GapExp	0	292	2	0	1	target	1	427	787	201519	13.328	12.865	13.793
ProbeTrack11	6	ProbeTrack	11.2	SCS215a	20100818.120340	20100818.123348	8	0.013328	60	10	60-180	60	139	GapExp	0	293	2	0	1	target	1	454	773	202292	13.328	12.930	13.715
ProbeTrack11	6	ProbeTrack	11.2	SCS215a	20100818.120340	20100818.123355	8	0.013328	60	0	60-180	60	90	GapExp	0	294	2	45	0	distractor	1	507	747	203039	13.328	13.094	13.549
ProbeTrack11	6	ProbeTrack	11.2	SCS215a	20100818.120340	20100818.123401	8	0.013328	60	10	60-180	60	130	GapExp	0	295	2	45	0	distractor	1	507	747	203786	13.328	12.900	13.756
ProbeTrack11	6	ProbeTrack	11.2	SCS215a	20100818.120340	20100818.123407	8	0.013328	60	10	60-180	60	83	GapExp	0	296	2	3	0	distractor	1	440	780	204566	13.328	12.949	13.693
ProbeTrack11	6	ProbeTrack	11.2	SCS215a	20100818.120340	20100818.123413	8	0.013328	60	10	60-180	60	86	GapExp	0	297	2	1	0	target	0	347	-1000	203566	13.328	13.295	13.359
ProbeTrack11	6	ProbeTrack	11.2	SCS215a	20100818.120340	20100818.123418	8	0.013328	60	10	60-180	60	133	GapExp	0	298	2	0	1	distractor	0	400	-1000	202566	13.328	13.305	13.352
ProbeTrack11	6	ProbeTrack	11.2	SCS215a	20100818.120340	20100818.123425	8	0.013328	60	0	60-180	60	73	GapExp	0	299	2	0	1	target	1	374	813	203379	13.328	13.241	13.429
ProbeTrack11	6	ProbeTrack	11.2	SCS215a	20100818.120340	20100818.123430	8	0.013328	60	10	60-180	60	143	GapExp	0	300	2	45	1	distractor	0	467	-1000	202379	13.328	13.091	13.550
ProbeTrack11	6	ProbeTrack	11.2	SCS215a	20100818.120340	20100818.123437	8	0.013328	60	10	60-180	60	66	GapExp	0	301	2	45	0	distractor	1	494	753	203132	13.328	13.104	13.558
ProbeTrack11	6	ProbeTrack	11.2	SCS215a	20100818.120340	20100818.123443	8	0.013328	60	10	60-180	60	75	GapExp	0	302	2	3	1	target	1	360	820	203952	13.328	13.308	13.351
ProbeTrack11	6	ProbeTrack	11.2	SCS215a	20100818.120340	20100818.123451	8	0.013328	60	0	60-180	60	105	GapExp	0	303	2	45	0	distractor	1	454	773	204725	13.328	13.092	13.558
ProbeTrack11	6	ProbeTrack	11.2	SCS215a	20100818.120340	20100818.123457	8	0.013328	60	0	60-180	60	106	GapExp	0	304	2	45	1	target	1	414	793	205518	13.328	13.295	13.347
ProbeTrack11	6	ProbeTrack	11.2	SCS215a	20100818.120340	20100818.123503	8	0.013328	60	0	60-180	60	111	GapExp	0	305	2	3	1	target	1	387	807	206325	13.328	13.139	13.523
ProbeTrack11	6	ProbeTrack	11.2	SCS215a	20100818.120340	20100818.123508	8	0.013328	60	10	60-180	60	96	GapExp	0	306	2	1	0	distractor	1	400	800	207125	13.328	13.304	13.347
ProbeTrack11	6	ProbeTrack	11.2	SCS215a	20100818.120340	20100818.123514	8	0.013328	60	10	60-180	60	97	GapExp	0	307	2	3	0	target	0	334	-1000	206125	13.328	12.931	13.730
ProbeTrack11	6	ProbeTrack	11.2	SCS215a	20100818.120340	20100818.123519	8	0.013328	60	0	60-180	60	98	GapExp	0	308	2	3	1	target	1	440	780	206905	13.328	12.886	13.761
ProbeTrack11	6	ProbeTrack	11.2	SCS215a	20100818.120340	20100818.123524	8	0.013328	60	0	60-180	60	83	GapExp	0	309	2	0	1	target	1	440	780	207685	13.328	12.949	13.712
ProbeTrack11	6	ProbeTrack	11.2	SCS215a	20100818.120340	20100818.123530	8	0.013328	60	10	60-180	60	173	GapExp	0	310	2	45	0	distractor	1	467	767	208452	13.328	13.178	13.492
ProbeTrack11	6	ProbeTrack	11.2	SCS215a	20100818.120340	20100818.123537	8	0.013328	60	10	60-180	60	112	GapExp	0	311	2	3	1	target	1	534	733	209185	13.328	13.308	13.349
ProbeTrack11	6	ProbeTrack	11.2	SCS215a	20100818.120340	20100818.123543	8	0.013328	60	0	60-180	60	140	GapExp	0	312	2	0	0	distractor	1	454	773	209958	13.328	13.072	13.572
ProbeTrack11	6	ProbeTrack	11.2	SCS215a	20100818.120340	20100818.123549	8	0.013328	60	10	60-180	60	157	GapExp	0	313	2	0	1	target	1	387	807	210765	13.328	13.101	13.564
ProbeTrack11	6	ProbeTrack	11.2	SCS215a	20100818.120340	20100818.123556	8	0.013328	60	10	60-180	60	130	GapExp	0	314	2	0	0	target	0	414	-1000	209765	13.328	13.228	13.426
ProbeTrack11	6	ProbeTrack	11.2	SCS215a	20100818.120340	20100818.123601	8	0.013328	60	0	60-180	60	118	GapExp	0	315	2	45	1	target	1	454	773	210538	13.328	13.107	13.560
ProbeTrack11	6	ProbeTrack	11.2	SCS215a	20100818.120340	20100818.123608	8	0.013328	60	10	60-180	60	93	GapExp	0	316	2	0	1	target	1	360	820	211358	13.328	12.911	13.744
ProbeTrack11	6	ProbeTrack	11.2	SCS215a	20100818.120340	20100818.123613	8	0.013328	60	0	60-180	60	160	GapExp	0	317	2	1	1	target	1	440	780	212138	13.328	12.936	13.733
ProbeTrack11	6	ProbeTrack	11.2	SCS215a	20100818.120340	20100818.123619	8	0.013328	60	0	60-180	60	169	GapExp	0	318	2	1	0	distractor	1	574	713	212851	13.328	13.091	13.564
ProbeTrack11	6	ProbeTrack	11.2	SCS215a	20100818.120340	20100818.123626	8	0.013328	60	0	60-180	60	77	GapExp	0	319	2	45	0	distractor	1	480	760	213611	13.328	13.309	13.347
ProbeTrack11	6	ProbeTrack	11.2	SCS215a	20100818.120340	20100818.123631	8	0.013328	60	10	60-180	60	157	GapExp	0	320	2	3	0	distractor	1	480	760	214371	13.328	13.004	13.664
ProbeTrack11	6	ProbeTrack	11.2	SCS215a	20100818.120340	20100818.123638	8	0.013328	60	0	60-180	60	163	GapExp	0	321	2	0	1	target	1	387	807	215178	13.328	13.295	13.351
ProbeTrack11	6	ProbeTrack	11.2	SCS215a	20100818.120340	20100818.123644	8	0.013328	60	0	60-180	60	162	GapExp	0	322	2	1	1	target	1	494	753	215931	13.328	13.099	13.554
ProbeTrack11	6	ProbeTrack	11.2	SCS215a	20100818.120340	20100818.123650	8	0.013328	60	10	60-180	60	68	GapExp	0	323	2	45	1	target	1	680	660	216591	13.328	13.098	13.551
ProbeTrack11	6	ProbeTrack	11.2	SCS215a	20100818.120340	20100818.123656	8	0.013328	60	0	60-180	60	171	GapExp	0	324	2	45	1	target	1	347	827	217418	13.328	13.097	13.558
ProbeTrack11	6	ProbeTrack	11.2	SCS215a	20100818.120340	20100818.123707	8	0.013328	60	0	60-180	60	112	GapExp	0	325	2	0	0	distractor	1	494	753	218171	13.328	12.910	13.747
ProbeTrack11	6	ProbeTrack	11.2	SCS215a	20100818.120340	20100818.123713	8	0.013328	60	0	60-180	60	72	GapExp	0	326	2	1	1	target	1	400	800	218971	13.328	12.897	13.756
ProbeTrack11	6	ProbeTrack	11.2	SCS215a	20100818.120340	20100818.123718	8	0.013328	60	0	60-180	60	160	GapExp	0	327	2	1	1	target	1	360	820	219791	13.328	13.114	13.550
ProbeTrack11	6	ProbeTrack	11.2	SCS215a	20100818.120340	20100818.123724	8	0.013328	60	10	60-180	60	145	GapExp	0	328	2	3	0	distractor	1	454	773	220564	13.328	13.107	13.544
ProbeTrack11	6	ProbeTrack	11.2	SCS215a	20100818.120340	20100818.123730	8	0.013328	60	0	60-180	60	159	GapExp	0	329	2	45	1	target	1	427	787	221351	13.328	12.862	13.798
ProbeTrack11	6	ProbeTrack	11.2	SCS215a	20100818.120340	20100818.123737	8	0.013328	60	0	60-180	60	76	GapExp	0	330	2	0	0	distractor	1	480	760	222111	13.328	13.063	13.599
ProbeTrack11	6	ProbeTrack	11.2	SCS215a	20100818.120340	20100818.123742	8	0.013328	60	0	60-180	60	130	GapExp	0	331	2	1	1	target	1	400	800	222911	13.328	12.929	13.738
ProbeTrack11	6	ProbeTrack	11.2	SCS215a	20100818.120340	20100818.123748	8	0.013328	60	0	60-180	60	176	GapExp	0	332	2	0	0	distractor	1	614	693	223604	13.328	12.965	13.679
ProbeTrack11	6	ProbeTrack	11.2	SCS215a	20100818.120340	20100818.123754	8	0.013328	60	0	60-180	60	64	GapExp	0	333	2	3	0	distractor	1	520	740	224344	13.328	12.929	13.729
ProbeTrack11	6	ProbeTrack	11.2	SCS215a	20100818.120340	20100818.123759	8	0.013328	60	0	60-180	60	80	GapExp	0	334	2	45	0	distractor	1	547	727	225071	13.328	13.101	13.555
ProbeTrack11	6	ProbeTrack	11.2	SCS215a	20100818.120340	20100818.123806	8	0.013328	60	0	60-180	60	180	GapExp	0	335	2	45	1	target	1	374	813	225884	13.328	13.112	13.545
ProbeTrack11	6	ProbeTrack	11.2	SCS215a	20100818.120340	20100818.123813	8	0.013328	60	10	60-180	60	105	GapExp	0	336	2	45	1	distractor	0	387	-1000	224884	13.328	13.011	13.638
ProbeTrack11	6	ProbeTrack	11.2	SCS215a	20100818.120340	20100818.123819	8	0.013328	60	0	60-180	60	63	GapExp	0	337	2	0	1	target	1	360	820	225704	13.328	13.312	13.348
ProbeTrack11	6	ProbeTrack	11.2	SCS215a	20100818.120340	20100818.123824	8	0.013328	60	0	60-180	60	69	GapExp	0	338	2	45	0	distractor	1	440	780	226484	13.328	13.100	13.538
ProbeTrack11	6	ProbeTrack	11.2	SCS215a	20100818.120340	20100818.123833	8	0.013328	60	0	60-180	60	161	GapExp	0	339	2	3	1	target	1	347	827	227311	13.328	13.103	13.552
ProbeTrack11	6	ProbeTrack	11.2	SCS215a	20100818.120340	20100818.123839	8	0.013328	60	0	60-180	60	121	GapExp	0	340	2	0	0	distractor	1	534	733	228044	13.328	13.307	13.346
ProbeTrack11	6	ProbeTrack	11.2	SCS215a	20100818.120340	20100818.123845	8	0.013328	60	10	60-180	60	113	GapExp	0	341	2	3	1	target	1	427	787	228831	13.328	12.958	13.696
ProbeTrack11	6	ProbeTrack	11.2	SCS215a	20100818.120340	20100818.123851	8	0.013328	60	0	60-180	60	97	GapExp	0	342	2	0	0	distractor	1	494	753	229584	13.328	13.306	13.356
ProbeTrack11	6	ProbeTrack	11.2	SCS215a	20100818.120340	20100818.123856	8	0.013328	60	10	60-180	60	169	GapExp	0	343	2	0	1	target	1	334	833	230417	13.328	12.848	13.808
ProbeTrack11	6	ProbeTrack	11.2	SCS215a	20100818.120340	20100818.123902	8	0.013328	60	10	60-180	60	78	GapExp	0	344	2	1	1	target	1	307	847	231264	13.328	13.008	13.649
ProbeTrack11	6	ProbeTrack	11.2	SCS215a	20100818.120340	20100818.123907	8	0.013328	60	0	60-180	60	139	GapExp	0	345	2	3	0	distractor	1	454	773	232037	13.328	13.096	13.545
ProbeTrack11	6	ProbeTrack	11.2	SCS215a	20100818.120340	20100818.123914	8	0.013328	60	0	60-180	60	119	GapExp	0	346	2	3	0	distractor	1	414	793	232830	13.326	12.930	13.348
ProbeTrack11	6	ProbeTrack	11.2	SCS215a	20100818.120340	20100818.123919	8	0.013328	60	10	60-180	60	91	GapExp	0	347	2	3	0	distractor	1	374	813	233643	13.328	13.309	13.348
ProbeTrack11	6	ProbeTrack	11.2	SCS215a	20100818.120340	20100818.123925	8	0.013328	60	10	60-180	60	170	GapExp	0	348	2	3	1	target	1	387	807	234450	13.328	12.876	13.773
ProbeTrack11	6	ProbeTrack	11.2	SCS215a	20100818.120340	20100818.123931	8	0.013328	60	10	60-180	60	103	GapExp	0	349	2	1	1	distractor	0	427	-1000	233450	13.328	13.091	13.546
ProbeTrack11	6	ProbeTrack	11.2	SCS215a	20100818.120340	20100818.123937	8	0.013328	60	0	60-180	60	113	GapExp	0	350	2	0	1	target	1	440	780	234230	13.328	13.085	13.564
ProbeTrack11	6	ProbeTrack	11.2	SCS215a	20100818.120340	20100818.123943	8	0.013328	60	0	60-180	60	161	GapExp	0	351	2	0	1	target	1	334	833	235063	13.328	13.090	13.562
ProbeTrack11	6	ProbeTrack	11.2	SCS215a	20100818.120340	20100818.123950	8	0.013328	60	0	60-180	60	169	GapExp	0	352	2	0	0	distractor	1	454	773	235836	13.328	12.930	13.720
ProbeTrack11	6	ProbeTrack	11.2	SCS215a	20100818.120340	20100818.123957	8	0.013328	60	0	60-180	60	109	GapExp	0	353	2	0	0	distractor	1	454	773	236609	13.328	13.070	13.578
ProbeTrack11	6	ProbeTrack	11.2	SCS215a	20100818.120340	20100818.124003	8	0.013328	60	0	60-180	60	79	GapExp	0	354	2	1	0	distractor	1	480	760	237369	13.328	13.100	13.571
ProbeTrack11	6	ProbeTrack	11.2	SCS215a	20100818.120340	20100818.124009	8	0.013328	60	0	60-180	60	103	GapExp	0	355	2	45	0	distractor	1	440	780	238149	13.328	13.105	13.554
ProbeTrack11	6	ProbeTrack	11.2	SCS215a	20100818.120340	20100818.124018	8	0.013328	60	0	60-180	60	93	GapExp	0	356	2	1	0	distractor	1	427	787	238936	13.328	13.101	13.558
ProbeTrack11	6	ProbeTrack	11.2	SCS215a	20100818.120340	20100818.124024	8	0.013328	60	0	60-180	60	177	GapExp	0	357	2	45	1	target	1	440	780	239716	13.328	13.087	13.563
ProbeTrack11	6	ProbeTrack	11.2	SCS215a	20100818.120340	20100818.124031	8	0.013328	60	0	60-180	60	139	GapExp	0	358	2	45	1	target	1	347	827	240543	13.328	12.936	13.719
ProbeTrack11	6	ProbeTrack	11.2	SCS215a	20100818.120340	20100818.124037	8	0.013328	60	0	60-180	60	120	GapExp	0	359	2	3	1	target	1	374	813	241356	13.328	13.307	13.354
ProbeTrack11	6	ProbeTrack	11.2	SCS215a	20100818.120340	20100818.124043	8	0.013328	60	0	60-180	60	174	GapExp	0	360	2	3	0	distractor	1	440	780	242136	13.328	13.307	13.349
ProbeTrack11	6	ProbeTrack	11.2	SCS215a	20100818.120340	20100818.124049	8	0.013328	60	0	60-180	60	91	GapExp	0	361	2	45	0	distractor	1	520	740	242876	13.328	13.294	13.347
ProbeTrack11	6	ProbeTrack	11.2	SCS215a	20100818.120340	20100818.124055	8	0.013328	60	10	60-180	60	168	GapExp	0	362	2	3	0	distractor	1	360	820	243696	13.328	13.097	13.552
ProbeTrack11	6	ProbeTrack	11.2	SCS215a	20100818.120340	20100818.124102	8	0.013328	60	10	60-180	60	81	GapExp	0	363	2	1	1	distractor	0	440	-1000	242696	13.328	13.056	13.592
ProbeTrack11	6	ProbeTrack	11.2	SCS215a	20100818.120340	20100818.124107	8	0.013328	60	10	60-180	60	83	GapExp	0	364	2	3	0	target	0	494	-1000	241696	13.391	12.941	27.041
ProbeTrack11	6	ProbeTrack	11.2	SCS215a	20100818.120340	20100818.124113	8	0.013328	60	0	60-180	60	104	GapExp	0	365	2	3	0	distractor	1	440	780	242476	13.328	13.130	13.511
ProbeTrack11	6	ProbeTrack	11.2	SCS215a	20100818.120340	20100818.124142	8	0.013328	60	10	60-180	60	144	GapExp	0	366	2	0	0	distractor	1	414	793	243269	13.377	12.910	26.840
ProbeTrack11	6	ProbeTrack	11.2	SCS215a	20100818.120340	20100818.124148	8	0.013328	60	10	60-180	60	86	GapExp	0	367	2	3	1	target	1	454	773	244042	13.328	12.937	13.706
ProbeTrack11	6	ProbeTrack	11.2	SCS215a	20100818.120340	20100818.124153	8	0.013328	60	10	60-180	60	78	GapExp	0	368	2	1	0	target	0	680	-1000	243042	13.328	13.302	13.347
ProbeTrack11	6	ProbeTrack	11.2	SCS215a	20100818.120340	20100818.124159	8	0.013328	60	10	60-180	60	172	GapExp	0	369	2	3	1	distractor	0	773	-1000	242042	13.328	13.104	13.348
ProbeTrack11	6	ProbeTrack	11.2	SCS215a	20100818.120340	20100818.124206	8	0.013328	60	0	60-180	60	88	GapExp	0	370	2	3	1	target	1	427	787	242829	13.328	13.105	13.551
ProbeTrack11	6	ProbeTrack	11.2	SCS215a	20100818.120340	20100818.124211	8	0.013328	60	10	60-180	60	167	GapExp	0	371	2	1	1	target	1	494	753	243582	13.328	12.957	13.707
ProbeTrack11	6	ProbeTrack	11.2	SCS215a	20100818.120340	20100818.124217	8	0.013328	60	0	60-180	60	110	GapExp	0	372	2	0	0	distractor	1	574	713	244295	13.328	12.916	13.740
ProbeTrack11	6	ProbeTrack	11.2	SCS215a	20100818.120340	20100818.124223	8	0.013328	60	10	60-180	60	132	GapExp	0	373	2	1	1	target	1	534	733	245028	13.328	12.931	13.711
ProbeTrack11	6	ProbeTrack	11.2	SCS215a	20100818.120340	20100818.124229	8	0.013328	60	0	60-180	60	149	GapExp	0	374	2	3	0	distractor	1	494	753	245781	13.328	12.868	13.794
ProbeTrack11	6	ProbeTrack	11.2	SCS215a	20100818.120340	20100818.124236	8	0.013328	60	0	60-180	60	84	GapExp	0	375	2	45	0	distractor	1	467	767	246548	13.328	12.929	13.744
ProbeTrack11	6	ProbeTrack	11.2	SCS215a	20100818.120340	20100818.124243	8	0.013328	60	0	60-180	60	74	GapExp	0	376	2	45	0	distractor	1	440	780	247328	13.328	12.973	13.679
ProbeTrack11	6	ProbeTrack	11.2	SCS215a	20100818.120340	20100818.124249	8	0.013328	60	0	60-180	60	145	GapExp	0	377	2	0	1	target	1	440	780	248108	13.328	13.076	13.592
ProbeTrack11	6	ProbeTrack	11.2	SCS215a	20100818.120340	20100818.124255	8	0.013328	60	0	60-180	60	65	GapExp	0	378	2	1	1	target	1	440	780	248888	13.328	12.852	13.804
ProbeTrack11	6	ProbeTrack	11.2	SCS215a	20100818.120340	20100818.124259	8	0.013328	60	0	60-180	60	122	GapExp	0	379	2	0	0	distractor	1	560	720	249608	13.328	12.873	13.787
ProbeTrack11	6	ProbeTrack	11.2	SCS215a	20100818.120340	20100818.124305	8	0.013328	60	0	60-180	60	135	GapExp	0	380	2	3	0	distractor	1	467	767	250375	13.328	12.875	13.765
ProbeTrack11	6	ProbeTrack	11.2	SCS215a	20100818.120340	20100818.124311	8	0.013328	60	10	60-180	60	138	GapExp	0	381	2	0	0	distractor	1	387	807	251182	13.328	12.912	13.743
ProbeTrack11	6	ProbeTrack	11.2	SCS215a	20100818.120340	20100818.124317	8	0.013328	60	0	60-180	60	102	GapExp	0	382	2	1	1	target	1	454	773	251955	13.328	13.308	13.347
ProbeTrack11	6	ProbeTrack	11.2	SCS215a	20100818.120340	20100818.124324	8	0.013328	60	0	60-180	60	131	GapExp	0	383	2	0	1	target	1	427	787	252742	13.328	12.977	13.689
ProbeTrack11	6	ProbeTrack	11.2	SCS215a	20100818.120340	20100818.124329	8	0.013328	60	0	60-180	60	73	GapExp	0	384	2	0	1	target	1	494	753	253495	13.328	13.094	13.557
ProbeTrack11	6	ProbeTrack	11.2	SCS215a	20100818.120340	20100818.124334	8	0.013328	60	10	60-180	60	161	GapExp	0	385	2	3	1	target	1	547	727	254222	13.328	12.833	13.827
ProbeTrack11	6	ProbeTrack	11.2	SCS215a	20100818.120340	20100818.124341	8	0.013328	60	10	60-180	60	105	GapExp	0	386	2	45	0	distractor	1	414	793	255015	13.328	13.095	13.726
ProbeTrack11	6	ProbeTrack	11.2	SCS215a	20100818.120340	20100818.124347	8	0.013328	60	0	60-180	60	114	GapExp	0	387	2	1	0	distractor	1	720	640	255655	13.328	12.908	13.733
ProbeTrack11	6	ProbeTrack	11.2	SCS215a	20100818.120340	20100818.124353	8	0.013328	60	0	60-180	60	150	GapExp	0	388	2	1	1	target	1	400	800	256455	13.328	12.962	13.700
ProbeTrack11	6	ProbeTrack	11.2	SCS215a	20100818.120340	20100818.124359	8	0.013328	60	10	60-180	60	124	GapExp	0	389	2	1	0	target	0	414	-1000	255455	13.328	13.309	13.347
ProbeTrack11	6	ProbeTrack	11.2	SCS215a	20100818.120340	20100818.124404	8	0.013328	60	10	60-180	60	169	GapExp	0	390	2	1	0	distractor	1	494	753	256208	13.328	13.110	13.551
ProbeTrack11	6	ProbeTrack	11.2	SCS215a	20100818.120340	20100818.124418	8	0.013328	60	0	60-180	60	155	GapExp	0	391	2	3	0	distractor	1	467	767	256975	13.328	12.879	13.786
ProbeTrack11	6	ProbeTrack	11.2	SCS215a	20100818.120340	20100818.124424	8	0.013328	60	10	60-180	60	85	GapExp	0	392	2	1	0	target	0	427	-1000	255975	13.328	13.304	13.359
ProbeTrack11	6	ProbeTrack	11.2	SCS215a	20100818.120340	20100818.124430	8	0.013328	60	10	60-180	60	164	GapExp	0	393	2	0	1	target	1	494	753	256728	13.374	12.984	26.675
ProbeTrack11	6	ProbeTrack	11.2	SCS215a	20100818.120340	20100818.124436	8	0.013328	60	10	60-180	60	154	GapExp	0	394	2	45	1	target	1	374	813	257541	13.328	13.091	13.566
ProbeTrack11	6	ProbeTrack	11.2	SCS215a	20100818.120340	20100818.124443	8	0.013328	60	10	60-180	60	109	GapExp	0	395	2	0	1	target	1	387	807	258348	13.328	13.120	13.549
ProbeTrack11	6	ProbeTrack	11.2	SCS215a	20100818.120340	20100818.124449	8	0.013328	60	0	60-180	60	91	GapExp	0	396	2	3	1	target	1	427	787	259135	13.328	13.029	13.625
ProbeTrack11	6	ProbeTrack	11.2	SCS215a	20100818.120340	20100818.124454	8	0.013328	60	10	60-180	60	131	GapExp	0	397	2	0	1	target	1	347	827	259962	13.328	12.968	13.694
ProbeTrack11	6	ProbeTrack	11.2	SCS215a	20100818.120340	20100818.124500	8	0.013328	60	0	60-180	60	111	GapExp	0	398	2	45	1	target	1	400	800	260762	13.328	13.006	13.658
ProbeTrack11	6	ProbeTrack	11.2	SCS215a	20100818.120340	20100818.124506	8	0.013328	60	0	60-180	60	86	GapExp	0	399	2	1	1	target	1	440	780	261542	13.328	13.012	13.634
ProbeTrack11	6	ProbeTrack	11.2	SCS215a	20100818.120340	20100818.124511	8	0.013328	60	10	60-180	60	141	GapExp	0	400	2	1	0	target	0	440	-1000	260542	13.328	13.112	13.536
ProbeTrack11	6	ProbeTrack	11.2	SCS215a	20100818.120340	20100818.124518	8	0.013328	60	10	60-180	60	142	GapExp	0	401	2	45	1	distractor	0	653	-1000	259542	13.328	12.874	13.793
ProbeTrack11	6	ProbeTrack	11.2	SCS215a	20100818.120340	20100818.124525	8	0.013328	60	10	60-180	60	98	GapExp	0	402	2	1	1	target	1	494	753	260295	13.328	12.994	13.655
ProbeTrack11	6	ProbeTrack	11.2	SCS215a	20100818.120340	20100818.124531	8	0.013328	60	0	60-180	60	64	GapExp	0	403	2	45	1	distractor	0	414	-1000	259295	13.328	13.280	13.375
ProbeTrack11	6	ProbeTrack	11.2	SCS215a	20100818.120340	20100818.124536	8	0.013328	60	0	60-180	60	63	GapExp	0	404	2	45	0	distractor	1	534	733	260028	13.328	12.894	13.760
ProbeTrack11	6	ProbeTrack	11.2	SCS215a	20100818.120340	20100818.124542	8	0.013328	60	10	60-180	60	102	GapExp	0	405	2	0	0	distractor	1	414	793	260821	13.328	13.037	13.606
ProbeTrack11	6	ProbeTrack	11.2	SCS215a	20100818.120340	20100818.124548	8	0.013328	60	10	60-180	60	88	GapExp	0	406	2	3	0	distractor	1	467	767	261588	13.328	12.833	13.828
ProbeTrack11	6	ProbeTrack	11.2	SCS215a	20100818.120340	20100818.124553	8	0.013328	60	10	60-180	60	81	GapExp	0	407	2	45	0	distractor	1	414	793	262381	13.328	13.308	13.346
ProbeTrack11	6	ProbeTrack	11.2	SCS215a	20100818.120340	20100818.124559	8	0.013328	60	10	60-180	60	110	GapExp	0	408	2	3	1	target	1	707	647	263028	13.328	12.920	13.734
ProbeTrack11	6	ProbeTrack	11.2	SCS215a	20100818.120340	20100818.124605	8	0.013328	60	10	60-180	60	180	GapExp	0	409	2	45	1	target	1	507	747	263775	13.328	13.302	13.346
ProbeTrack11	6	ProbeTrack	11.2	SCS215a	20100818.120340	20100818.124612	8	0.013328	60	10	60-180	60	124	GapExp	0	410	2	0	1	target	1	534	733	264508	13.328	12.930	13.720
ProbeTrack11	6	ProbeTrack	11.2	SCS215a	20100818.120340	20100818.124619	8	0.013328	60	0	60-180	60	160	GapExp	0	411	2	45	1	target	1	454	773	265281	13.328	13.303	13.360
ProbeTrack11	6	ProbeTrack	11.2	SCS215a	20100818.120340	20100818.124625	8	0.013328	60	0	60-180	60	172	GapExp	0	412	2	45	0	distractor	1	534	733	266014	13.328	13.013	13.636
ProbeTrack11	6	ProbeTrack	11.2	SCS215a	20100818.120340	20100818.124632	8	0.013328	60	10	60-180	60	139	GapExp	0	413	2	0	1	target	1	507	747	266761	13.328	13.306	13.346
ProbeTrack11	6	ProbeTrack	11.2	SCS215a	20100818.120340	20100818.124639	8	0.013328	60	0	60-180	60	167	GapExp	0	414	2	45	1	target	1	454	773	267534	13.328	13.172	13.476
ProbeTrack11	6	ProbeTrack	11.2	SCS215a	20100818.120340	20100818.124645	8	0.013328	60	10	60-180	60	152	GapExp	0	415	2	1	1	target	1	414	793	268327	13.328	12.880	13.772
ProbeTrack11	6	ProbeTrack	11.2	SCS215a	20100818.120340	20100818.124652	8	0.013328	60	0	60-180	60	80	GapExp	0	416	2	0	1	target	1	400	800	269127	13.328	12.874	13.794
ProbeTrack11	6	ProbeTrack	11.2	SCS215a	20100818.120340	20100818.124658	8	0.013328	60	0	60-180	60	168	GapExp	0	417	2	0	1	target	1	347	827	269954	13.328	13.085	13.573
ProbeTrack11	6	ProbeTrack	11.2	SCS215a	20100818.120340	20100818.124705	8	0.013328	60	0	60-180	60	62	GapExp	0	418	2	45	0	distractor	1	494	753	270707	13.328	13.101	13.553
ProbeTrack11	6	ProbeTrack	11.2	SCS215a	20100818.120340	20100818.124710	8	0.013328	60	0	60-180	60	166	GapExp	0	419	2	0	0	distractor	1	374	813	271520	13.328	12.944	13.713
ProbeTrack11	6	ProbeTrack	11.2	SCS215a	20100818.120340	20100818.124716	8	0.013328	60	10	60-180	60	125	GapExp	0	420	2	0	1	target	1	160	920	272440	13.328	13.308	13.348
ProbeTrack11	6	ProbeTrack	11.2	SCS215a	20100818.120340	20100818.124722	8	0.013328	60	0	60-180	60	118	GapExp	0	421	2	1	0	target	0	294	-1000	271440	13.328	13.070	13.586
ProbeTrack11	6	ProbeTrack	11.2	SCS215a	20100818.120340	20100818.124728	8	0.013328	60	10	60-180	60	80	GapExp	0	422	2	0	0	distractor	1	547	727	272167	13.328	13.180	13.478
ProbeTrack11	6	ProbeTrack	11.2	SCS215a	20100818.120340	20100818.124734	8	0.013328	60	0	60-180	60	161	GapExp	0	423	2	0	1	target	1	360	820	272987	13.328	12.925	13.733
ProbeTrack11	6	ProbeTrack	11.2	SCS215a	20100818.120340	20100818.124740	8	0.013328	60	0	60-180	60	138	GapExp	0	424	2	1	0	distractor	1	560	720	273707	13.328	12.966	13.677
ProbeTrack11	6	ProbeTrack	11.2	SCS215a	20100818.120340	20100818.124746	8	0.013328	60	0	60-180	60	168	GapExp	0	425	2	3	1	target	1	400	800	274507	13.328	12.919	13.739
ProbeTrack11	6	ProbeTrack	11.2	SCS215a	20100818.120340	20100818.124752	8	0.013328	60	10	60-180	60	121	GapExp	0	426	2	45	0	distractor	1	414	793	275300	13.328	13.069	13.579
ProbeTrack11	6	ProbeTrack	11.2	SCS215a	20100818.120340	20100818.124759	8	0.013328	60	0	60-180	60	135	GapExp	0	427	2	3	0	distractor	1	467	767	276067	13.328	13.309	13.346
ProbeTrack11	6	ProbeTrack	11.2	SCS215a	20100818.120340	20100818.124805	8	0.013328	60	0	60-180	60	102	GapExp	0	428	2	0	0	distractor	1	480	760	276827	13.328	13.307	13.348
ProbeTrack11	6	ProbeTrack	11.2	SCS215a	20100818.120340	20100818.124815	8	0.013328	60	0	60-180	60	90	GapExp	0	429	2	0	1	target	1	427	787	277614	13.328	12.893	13.762
ProbeTrack11	6	ProbeTrack	11.2	SCS215a	20100818.120340	20100818.124821	8	0.013328	60	10	60-180	60	115	GapExp	0	430	2	1	0	distractor	1	427	787	278401	13.328	12.926	13.730
ProbeTrack11	6	ProbeTrack	11.2	SCS215a	20100818.120340	20100818.124826	8	0.013328	60	10	60-180	60	86	GapExp	0	431	2	1	1	target	1	387	807	279208	13.328	13.308	13.347
ProbeTrack11	6	ProbeTrack	11.2	SCS215a	20100818.120340	20100818.124832	8	0.013328	60	0	60-180	60	172	GapExp	0	432	2	1	1	target	1	414	793	280001	13.328	13.305	13.347
ProbeTrack11	6	ProbeTrack	11.2	SCS215a	20100818.120340	20100818.124838	8	0.013328	60	0	60-180	60	150	GapExp	0	433	2	3	0	distractor	1	334	833	280834	13.328	13.308	13.346
ProbeTrack11	6	ProbeTrack	11.2	SCS215a	20100818.120340	20100818.124847	8	0.013328	60	0	60-180	60	140	GapExp	0	434	2	3	1	target	1	374	813	281647	13.328	12.948	13.717
ProbeTrack11	6	ProbeTrack	11.2	SCS215a	20100818.120340	20100818.124853	8	0.013328	60	10	60-180	60	164	GapExp	0	435	2	1	1	target	1	334	833	282480	13.328	12.891	13.758
ProbeTrack11	6	ProbeTrack	11.2	SCS215a	20100818.120340	20100818.124859	8	0.013328	60	0	60-180	60	92	GapExp	0	436	2	45	0	distractor	1	414	793	283273	13.328	13.240	13.406
ProbeTrack11	6	ProbeTrack	11.2	SCS215a	20100818.120340	20100818.124905	8	0.013328	60	0	60-180	60	132	GapExp	0	437	2	0	1	target	1	267	867	284140	13.328	13.091	13.560
ProbeTrack11	6	ProbeTrack	11.2	SCS215a	20100818.120340	20100818.124910	8	0.013328	60	10	60-180	60	179	GapExp	0	438	2	3	0	distractor	1	547	727	284867	13.328	13.105	13.551
ProbeTrack11	6	ProbeTrack	11.2	SCS215a	20100818.120340	20100818.124917	8	0.013328	60	10	60-180	60	167	GapExp	0	439	2	1	0	distractor	1	387	807	285674	13.328	13.082	13.567
ProbeTrack11	6	ProbeTrack	11.2	SCS215a	20100818.120340	20100818.124923	8	0.013328	60	10	60-180	60	131	GapExp	0	440	2	3	0	target	0	387	-1000	284674	13.328	13.295	13.368
ProbeTrack11	6	ProbeTrack	11.2	SCS215a	20100818.120340	20100818.124929	8	0.013328	60	10	60-180	60	137	GapExp	0	441	2	0	0	distractor	1	454	773	285447	13.328	12.859	13.796
ProbeTrack11	6	ProbeTrack	11.2	SCS215a	20100818.120340	20100818.124935	8	0.013328	60	10	60-180	60	121	GapExp	0	442	2	1	1	target	1	414	793	286240	13.328	12.885	13.771
ProbeTrack11	6	ProbeTrack	11.2	SCS215a	20100818.120340	20100818.124941	8	0.013328	60	10	60-180	60	149	GapExp	0	443	2	0	0	target	0	587	-1000	285240	13.328	13.103	13.402
ProbeTrack11	6	ProbeTrack	11.2	SCS215a	20100818.120340	20100818.124947	8	0.013328	60	10	60-180	60	173	GapExp	0	444	2	0	0	target	0	534	-1000	284240	13.328	13.099	13.565
ProbeTrack11	6	ProbeTrack	11.2	SCS215a	20100818.120340	20100818.124954	8	0.013328	60	0	60-180	60	108	GapExp	0	445	2	0	1	target	1	347	827	285067	13.328	13.044	13.612
ProbeTrack11	6	ProbeTrack	11.2	SCS215a	20100818.120340	20100818.124959	8	0.013328	60	10	60-180	60	110	GapExp	0	446	2	0	1	target	1	360	820	285887	13.328	12.922	13.742
ProbeTrack11	6	ProbeTrack	11.2	SCS215a	20100818.120340	20100818.125005	8	0.013328	60	10	60-180	60	93	GapExp	0	447	2	1	1	target	1	334	833	286720	13.328	13.311	13.347
ProbeTrack11	6	ProbeTrack	11.2	SCS215a	20100818.120340	20100818.125010	8	0.013328	60	0	60-180	60	149	GapExp	0	448	2	3	0	distractor	1	467	767	287487	13.328	12.983	13.680
ProbeTrack11	6	ProbeTrack	11.2	SCS215a	20100818.120340	20100818.125016	8	0.013328	60	0	60-180	60	100	GapExp	0	449	2	0	0	distractor	1	494	753	288240	13.328	12.857	13.795
ProbeTrack11	6	ProbeTrack	11.2	SCS215a	20100818.120340	20100818.125022	8	0.013328	60	0	60-180	60	128	GapExp	0	450	2	3	0	distractor	1	467	767	289007	13.328	13.106	13.551
