exp	sub	code	rev	comp	runtime	trialtime	nstim	refreshdur	cuedur	gapdur	gapOnsetRange	durPostProbe	gapOnsetTime	blocktype	prac	trial	ntargets	soa	probeTarget	resp	acc	rt	pts	tpts	meanFrameDur	minFrameDur	maxFrameDur
ProbeTrack11	21	ProbeTrack	11.2	SCS215a	20101115.142706	20101115.142742	8	0.013328	60	0	60-180	60	108	NoGap	1	1	2	0	0	distractor	1	6678	0	0	13.328	13.089	13.553
ProbeTrack11	21	ProbeTrack	11.2	SCS215a	20101115.142706	20101115.142804	8	0.013328	60	0	60-180	60	73	NoGap	1	2	2	0	0	distractor	1	1906	47	47	13.328	13.307	13.346
ProbeTrack11	21	ProbeTrack	11.2	SCS215a	20101115.142706	20101115.142813	8	0.013328	60	0	60-180	60	110	NoGap	1	3	2	1	0	distractor	1	853	574	621	13.328	13.079	13.564
ProbeTrack11	21	ProbeTrack	11.2	SCS215a	20101115.142706	20101115.142826	8	0.013328	60	0	60-180	60	72	NoGap	1	4	2	1	0	distractor	1	1320	340	961	13.328	12.897	13.764
ProbeTrack11	21	ProbeTrack	11.2	SCS215a	20101115.142706	20101115.142832	8	0.013328	60	0	60-180	60	128	NoGap	1	5	2	0	0	distractor	1	707	647	1608	13.330	12.925	13.799
ProbeTrack11	21	ProbeTrack	11.2	SCS215a	20101115.142706	20101115.142839	8	0.013328	60	0	60-180	60	62	NoGap	1	6	2	0	1	target	1	747	627	2235	13.328	12.897	13.752
ProbeTrack11	21	ProbeTrack	11.2	SCS215a	20101115.142706	20101115.142846	8	0.013328	60	0	60-180	60	92	NoGap	1	7	2	45	0	distractor	1	655	673	2908	13.328	12.906	13.752
ProbeTrack11	21	ProbeTrack	11.2	SCS215a	20101115.142706	20101115.142852	8	0.013328	60	0	60-180	60	91	NoGap	1	8	2	3	1	target	1	667	667	3575	13.328	13.309	13.348
ProbeTrack11	21	ProbeTrack	11.2	SCS215a	20101115.142706	20101115.142858	8	0.013328	60	0	60-180	60	177	NoGap	1	9	2	1	1	target	1	627	687	4262	13.328	12.871	13.794
ProbeTrack11	21	ProbeTrack	11.2	SCS215a	20101115.142706	20101115.142905	8	0.013328	60	0	60-180	60	177	NoGap	1	10	2	1	1	target	1	653	674	4936	13.328	13.059	13.600
ProbeTrack11	21	ProbeTrack	11.2	SCS215a	20101115.142706	20101115.142912	8	0.013328	60	0	60-180	60	103	NoGap	1	11	2	1	1	target	1	587	707	5643	13.328	13.132	13.521
ProbeTrack11	21	ProbeTrack	11.2	SCS215a	20101115.142706	20101115.142919	8	0.013328	60	0	60-180	60	180	NoGap	1	12	2	45	1	target	1	680	660	6303	13.328	12.873	13.789
ProbeTrack11	21	ProbeTrack	11.2	SCS215a	20101115.142706	20101115.142926	8	0.013328	60	0	60-180	60	151	NoGap	1	13	2	45	1	target	1	614	693	6996	13.328	13.007	13.645
ProbeTrack11	21	ProbeTrack	11.2	SCS215a	20101115.142706	20101115.142933	8	0.013328	60	0	60-180	60	106	NoGap	1	14	2	0	1	target	1	680	660	7656	13.328	12.889	13.788
ProbeTrack11	21	ProbeTrack	11.2	SCS215a	20101115.142706	20101115.142940	8	0.013328	60	0	60-180	60	103	NoGap	1	15	2	45	0	distractor	1	760	620	8276	13.328	12.929	13.725
ProbeTrack11	21	ProbeTrack	11.2	SCS215a	20101115.142706	20101115.142946	8	0.013328	60	0	60-180	60	174	NoGap	1	16	2	3	1	target	1	547	727	9003	13.328	12.981	13.657
ProbeTrack11	21	ProbeTrack	11.2	SCS215a	20101115.142706	20101115.142953	8	0.013328	60	0	60-180	60	171	NoGap	1	17	2	1	1	target	1	654	673	9676	13.328	12.872	13.775
ProbeTrack11	21	ProbeTrack	11.2	SCS215a	20101115.142706	20101115.143000	8	0.013328	60	0	60-180	60	76	NoGap	1	18	2	1	0	target	0	773	-1000	8676	13.328	13.110	13.543
ProbeTrack11	21	ProbeTrack	11.2	SCS215a	20101115.142706	20101115.143006	8	0.013328	60	0	60-180	60	142	NoGap	1	19	2	45	0	distractor	1	720	640	9316	13.328	13.108	13.565
ProbeTrack11	21	ProbeTrack	11.2	SCS215a	20101115.142706	20101115.143014	8	0.013328	60	0	60-180	60	155	NoGap	1	20	2	3	1	target	1	1120	440	9756	13.328	13.102	13.540
ProbeTrack11	21	ProbeTrack	11.2	SCS215a	20101115.142706	20101115.143022	8	0.013328	60	0	60-180	60	116	NoGap	1	21	2	3	1	target	1	1186	407	10163	13.328	13.111	13.549
ProbeTrack11	21	ProbeTrack	11.2	SCS215a	20101115.142706	20101115.143029	8	0.013328	60	0	60-180	60	84	NoGap	1	22	2	3	0	distractor	1	720	640	10803	13.328	12.999	13.639
ProbeTrack11	21	ProbeTrack	11.2	SCS215a	20101115.142706	20101115.143035	8	0.013328	60	0	60-180	60	104	NoGap	1	23	2	0	0	distractor	1	733	634	11437	13.328	13.091	13.555
ProbeTrack11	21	ProbeTrack	11.2	SCS215a	20101115.142706	20101115.143041	8	0.013328	60	0	60-180	60	103	NoGap	1	24	2	3	0	distractor	1	1306	347	11784	13.328	12.954	13.703
ProbeTrack11	21	ProbeTrack	11.2	SCS215a	20101115.142706	20101115.143047	8	0.013328	60	0	60-180	60	141	NoGap	1	25	2	3	1	target	1	600	700	12484	13.328	13.090	13.568
ProbeTrack11	21	ProbeTrack	11.2	SCS215a	20101115.142706	20101115.143054	8	0.013328	60	0	60-180	60	156	NoGap	1	26	2	45	1	target	1	507	747	13231	13.328	13.172	13.487
ProbeTrack11	21	ProbeTrack	11.2	SCS215a	20101115.142706	20101115.143101	8	0.013328	60	0	60-180	60	147	NoGap	1	27	2	3	0	distractor	1	1160	420	13651	13.328	13.102	13.557
ProbeTrack11	21	ProbeTrack	11.2	SCS215a	20101115.142706	20101115.143109	8	0.013328	60	0	60-180	60	66	NoGap	1	28	2	1	0	distractor	1	1027	487	14138	13.328	13.103	13.557
ProbeTrack11	21	ProbeTrack	11.2	SCS215a	20101115.142706	20101115.143115	8	0.013328	60	0	60-180	60	115	NoGap	1	29	2	0	1	target	1	1107	447	14585	13.326	12.871	13.742
ProbeTrack11	21	ProbeTrack	11.2	SCS215a	20101115.142706	20101115.143122	8	0.013328	60	0	60-180	60	66	NoGap	1	30	2	3	0	distractor	1	787	607	15192	13.328	13.310	13.347
ProbeTrack11	21	ProbeTrack	11.2	SCS215a	20101115.142706	20101115.143128	8	0.013328	60	0	60-180	60	75	NoGap	1	31	2	45	1	distractor	0	1440	-1000	14192	13.328	13.265	13.389
ProbeTrack11	21	ProbeTrack	11.2	SCS215a	20101115.142706	20101115.143136	8	0.013328	60	0	60-180	60	70	NoGap	1	32	2	0	0	distractor	1	893	554	14746	13.328	13.309	13.353
ProbeTrack11	21	ProbeTrack	11.2	SCS215a	20101115.142706	20101115.143142	8	0.013328	60	0	60-180	60	88	NoGap	1	33	2	1	1	target	1	680	660	15406	13.328	13.018	13.639
ProbeTrack11	21	ProbeTrack	11.2	SCS215a	20101115.142706	20101115.143148	8	0.013328	60	0	60-180	60	73	NoGap	1	34	2	0	1	target	1	773	614	16020	13.328	13.307	13.347
ProbeTrack11	21	ProbeTrack	11.2	SCS215a	20101115.142706	20101115.143154	8	0.013328	60	0	60-180	60	106	NoGap	1	35	2	1	0	distractor	1	1120	440	16460	13.328	12.989	13.676
ProbeTrack11	21	ProbeTrack	11.2	SCS215a	20101115.142706	20101115.143201	8	0.013328	60	0	60-180	60	170	NoGap	1	36	2	0	1	target	1	773	614	17074	13.328	13.120	13.549
ProbeTrack11	21	ProbeTrack	11.2	SCS215a	20101115.142706	20101115.143208	8	0.013328	60	0	60-180	60	136	NoGap	1	37	2	45	1	target	1	827	587	17661	13.328	12.948	13.696
ProbeTrack11	21	ProbeTrack	11.2	SCS215a	20101115.142706	20101115.143215	8	0.013328	60	0	60-180	60	149	NoGap	1	38	2	45	0	distractor	1	733	634	18295	13.328	13.308	13.347
ProbeTrack11	21	ProbeTrack	11.2	SCS215a	20101115.142706	20101115.143223	8	0.013328	60	0	60-180	60	157	NoGap	1	39	2	3	0	target	0	694	-1000	17295	13.328	13.310	13.348
ProbeTrack11	21	ProbeTrack	11.2	SCS215a	20101115.142706	20101115.143230	8	0.013328	60	0	60-180	60	121	NoGap	1	40	2	45	0	distractor	1	1546	227	17522	13.328	12.928	13.729
ProbeTrack11	21	ProbeTrack	11.2	SCS215a	20101115.143314	20101115.143329	8	0.013328	60	10	60-180	60	74	GapPrac	1	1	2	45	1	target	1	1040	480	18002	13.328	13.107	13.540
ProbeTrack11	21	ProbeTrack	11.2	SCS215a	20101115.143314	20101115.143337	8	0.013328	60	10	60-180	60	157	GapPrac	1	2	2	1	1	target	1	640	680	18682	13.328	13.111	13.551
ProbeTrack11	21	ProbeTrack	11.2	SCS215a	20101115.143314	20101115.143345	8	0.013328	60	0	60-180	60	124	GapPrac	1	3	2	3	1	target	1	680	660	19342	13.328	13.308	13.347
ProbeTrack11	21	ProbeTrack	11.2	SCS215a	20101115.143314	20101115.143351	8	0.013328	60	0	60-180	60	74	GapPrac	1	4	2	1	1	target	1	640	680	20022	13.328	12.849	13.806
ProbeTrack11	21	ProbeTrack	11.2	SCS215a	20101115.143314	20101115.143357	8	0.013328	60	10	60-180	60	120	GapPrac	1	5	2	3	1	target	1	893	554	20576	13.328	13.078	13.571
ProbeTrack11	21	ProbeTrack	11.2	SCS215a	20101115.143314	20101115.143404	8	0.013328	60	0	60-180	60	179	GapPrac	1	6	2	1	0	distractor	1	707	647	21223	13.328	13.099	13.552
ProbeTrack11	21	ProbeTrack	11.2	SCS215a	20101115.143314	20101115.143411	8	0.013328	60	10	60-180	60	173	GapPrac	1	7	2	45	0	distractor	1	1120	440	21663	13.328	13.090	13.562
ProbeTrack11	21	ProbeTrack	11.2	SCS215a	20101115.143314	20101115.143419	8	0.013328	60	0	60-180	60	141	GapPrac	1	8	2	45	0	distractor	1	867	567	22230	13.328	13.307	13.349
ProbeTrack11	21	ProbeTrack	11.2	SCS215a	20101115.143314	20101115.143426	8	0.013328	60	10	60-180	60	126	GapPrac	1	9	2	1	1	target	1	920	540	22770	13.328	13.105	13.552
ProbeTrack11	21	ProbeTrack	11.2	SCS215a	20101115.143314	20101115.143433	8	0.013328	60	0	60-180	60	180	GapPrac	1	10	2	1	1	target	1	667	667	23437	13.328	13.014	13.672
ProbeTrack11	21	ProbeTrack	11.2	SCS215a	20101115.143314	20101115.143440	8	0.013328	60	10	60-180	60	112	GapPrac	1	11	2	0	1	target	1	534	733	24170	13.328	13.093	13.551
ProbeTrack11	21	ProbeTrack	11.2	SCS215a	20101115.143314	20101115.143446	8	0.013328	60	10	60-180	60	147	GapPrac	1	12	2	1	0	target	0	800	-1000	23170	13.328	13.090	13.551
ProbeTrack11	21	ProbeTrack	11.2	SCS215a	20101115.143314	20101115.143453	8	0.013328	60	10	60-180	60	66	GapPrac	1	13	2	45	1	target	1	613	694	23864	13.328	13.102	13.547
ProbeTrack11	21	ProbeTrack	11.2	SCS215a	20101115.143314	20101115.143459	8	0.013328	60	0	60-180	60	85	GapPrac	1	14	2	45	1	target	1	693	654	24518	13.328	12.869	13.791
ProbeTrack11	21	ProbeTrack	11.2	SCS215a	20101115.143314	20101115.143506	8	0.013328	60	0	60-180	60	142	GapPrac	1	15	2	0	1	target	1	520	740	25258	13.328	12.884	13.767
ProbeTrack11	21	ProbeTrack	11.2	SCS215a	20101115.143314	20101115.143512	8	0.013328	60	10	60-180	60	109	GapPrac	1	16	2	0	0	distractor	1	1360	320	25578	13.328	13.125	13.560
ProbeTrack11	21	ProbeTrack	11.2	SCS215a	20101115.143314	20101115.143519	8	0.013328	60	0	60-180	60	67	GapPrac	1	17	2	0	0	distractor	1	893	554	26132	13.328	13.306	13.346
ProbeTrack11	21	ProbeTrack	11.2	SCS215a	20101115.143314	20101115.143525	8	0.013328	60	10	60-180	60	135	GapPrac	1	18	2	3	0	target	0	667	-1000	25132	13.328	13.307	13.348
ProbeTrack11	21	ProbeTrack	11.2	SCS215a	20101115.143314	20101115.143532	8	0.013328	60	0	60-180	60	135	GapPrac	1	19	2	3	0	distractor	1	600	700	25832	13.328	12.882	13.769
ProbeTrack11	21	ProbeTrack	11.2	SCS215a	20101115.143314	20101115.143538	8	0.013328	60	0	60-180	60	122	GapPrac	1	20	2	3	1	target	1	494	753	26585	13.328	12.950	13.709
ProbeTrack11	21	ProbeTrack	11.2	SCS215a	20101115.143614	20101115.143647	8	0.013328	60	0	60-180	60	69	GapExp	1	1	2	45	1	target	1	680	660	27245	13.328	12.922	13.740
ProbeTrack11	21	ProbeTrack	11.2	SCS215a	20101115.143614	20101115.143654	8	0.013328	60	10	60-180	60	162	GapExp	1	2	2	45	0	target	0	853	-1000	26245	13.327	12.917	13.734
ProbeTrack11	21	ProbeTrack	11.2	SCS215a	20101115.143614	20101115.143702	8	0.013328	60	10	60-180	60	62	GapExp	0	3	2	1	0	distractor	1	1040	480	26725	13.328	13.035	13.633
ProbeTrack11	21	ProbeTrack	11.2	SCS215a	20101115.143614	20101115.143709	8	0.013328	60	10	60-180	60	139	GapExp	0	4	2	45	1	target	1	680	660	27385	13.328	12.887	13.755
ProbeTrack11	21	ProbeTrack	11.2	SCS215a	20101115.143614	20101115.143716	8	0.013328	60	10	60-180	60	96	GapExp	0	5	2	0	1	target	1	587	707	28092	13.328	13.309	13.348
ProbeTrack11	21	ProbeTrack	11.2	SCS215a	20101115.143614	20101115.143723	8	0.013328	60	10	60-180	60	67	GapExp	0	6	2	3	0	distractor	1	827	587	28679	13.328	13.309	13.356
ProbeTrack11	21	ProbeTrack	11.2	SCS215a	20101115.143614	20101115.143729	8	0.013328	60	10	60-180	60	144	GapExp	0	7	2	3	0	distractor	1	760	620	29299	13.328	13.288	13.354
ProbeTrack11	21	ProbeTrack	11.2	SCS215a	20101115.143614	20101115.143736	8	0.013328	60	10	60-180	60	126	GapExp	0	8	2	0	0	distractor	1	947	527	29826	13.328	12.836	13.823
ProbeTrack11	21	ProbeTrack	11.2	SCS215a	20101115.143614	20101115.143743	8	0.013328	60	0	60-180	60	69	GapExp	0	9	2	3	1	target	1	707	647	30473	13.328	13.039	13.601
ProbeTrack11	21	ProbeTrack	11.2	SCS215a	20101115.143614	20101115.143752	8	0.013328	60	10	60-180	60	105	GapExp	0	10	2	0	1	target	1	574	713	31186	13.328	13.308	13.352
ProbeTrack11	21	ProbeTrack	11.2	SCS215a	20101115.143614	20101115.143759	8	0.013328	60	10	60-180	60	102	GapExp	0	11	2	0	0	distractor	1	1147	427	31613	13.328	13.307	13.348
ProbeTrack11	21	ProbeTrack	11.2	SCS215a	20101115.143614	20101115.143805	8	0.013328	60	10	60-180	60	144	GapExp	0	12	2	1	1	target	1	507	747	32360	13.328	12.917	13.744
ProbeTrack11	21	ProbeTrack	11.2	SCS215a	20101115.143614	20101115.143812	8	0.013328	60	0	60-180	60	127	GapExp	0	13	2	45	1	target	1	680	660	33020	13.328	12.945	13.705
ProbeTrack11	21	ProbeTrack	11.2	SCS215a	20101115.143614	20101115.143819	8	0.013328	60	0	60-180	60	146	GapExp	0	14	2	45	1	target	1	707	647	33667	13.328	12.830	13.829
ProbeTrack11	21	ProbeTrack	11.2	SCS215a	20101115.143614	20101115.143826	8	0.013328	60	0	60-180	60	70	GapExp	0	15	2	3	1	target	1	827	587	34254	13.328	13.095	13.557
ProbeTrack11	21	ProbeTrack	11.2	SCS215a	20101115.143614	20101115.143832	8	0.013328	60	10	60-180	60	108	GapExp	0	16	2	45	1	target	1	494	753	35007	13.376	13.308	26.414
ProbeTrack11	21	ProbeTrack	11.2	SCS215a	20101115.143614	20101115.143839	8	0.013328	60	0	60-180	60	77	GapExp	0	17	2	3	0	distractor	1	693	654	35661	13.327	12.857	13.813
ProbeTrack11	21	ProbeTrack	11.2	SCS215a	20101115.143614	20101115.143845	8	0.013328	60	0	60-180	60	114	GapExp	0	18	2	45	1	target	1	520	740	36401	13.328	13.217	13.441
ProbeTrack11	21	ProbeTrack	11.2	SCS215a	20101115.143614	20101115.143852	8	0.013328	60	0	60-180	60	148	GapExp	0	19	2	3	0	distractor	1	640	680	37081	13.328	13.083	13.556
ProbeTrack11	21	ProbeTrack	11.2	SCS215a	20101115.143614	20101115.143858	8	0.013328	60	10	60-180	60	116	GapExp	0	20	2	45	0	distractor	1	720	640	37721	13.328	13.109	13.559
ProbeTrack11	21	ProbeTrack	11.2	SCS215a	20101115.143614	20101115.143905	8	0.013328	60	0	60-180	60	130	GapExp	0	21	2	3	1	target	1	427	787	38508	13.328	13.099	13.543
ProbeTrack11	21	ProbeTrack	11.2	SCS215a	20101115.143614	20101115.143912	8	0.013328	60	0	60-180	60	87	GapExp	0	22	2	0	1	target	1	560	720	39228	13.328	13.307	13.347
ProbeTrack11	21	ProbeTrack	11.2	SCS215a	20101115.143614	20101115.143917	8	0.013328	60	10	60-180	60	62	GapExp	0	23	2	3	0	distractor	1	800	600	39828	13.328	13.086	13.525
ProbeTrack11	21	ProbeTrack	11.2	SCS215a	20101115.143614	20101115.143923	8	0.013328	60	0	60-180	60	175	GapExp	0	24	2	0	1	target	1	1107	447	40275	13.328	12.458	14.189
ProbeTrack11	21	ProbeTrack	11.2	SCS215a	20101115.143614	20101115.143931	8	0.013328	60	10	60-180	60	88	GapExp	0	25	2	3	1	distractor	0	534	-1000	39275	13.328	13.308	13.347
ProbeTrack11	21	ProbeTrack	11.2	SCS215a	20101115.143614	20101115.143937	8	0.013328	60	10	60-180	60	168	GapExp	0	26	2	3	1	target	1	773	614	39889	13.328	12.864	13.797
ProbeTrack11	21	ProbeTrack	11.2	SCS215a	20101115.143614	20101115.143944	8	0.013328	60	0	60-180	60	120	GapExp	0	27	2	45	1	target	1	520	740	40629	13.328	12.835	13.807
ProbeTrack11	21	ProbeTrack	11.2	SCS215a	20101115.143614	20101115.143951	8	0.013328	60	0	60-180	60	108	GapExp	0	28	2	3	0	distractor	1	720	640	41269	13.328	12.915	13.735
ProbeTrack11	21	ProbeTrack	11.2	SCS215a	20101115.143614	20101115.143956	8	0.013328	60	0	60-180	60	137	GapExp	0	29	2	3	1	target	1	547	727	41996	13.328	12.909	13.767
ProbeTrack11	21	ProbeTrack	11.2	SCS215a	20101115.143614	20101115.144003	8	0.013328	60	10	60-180	60	79	GapExp	0	30	2	45	1	target	1	427	787	42783	13.328	13.052	13.563
ProbeTrack11	21	ProbeTrack	11.2	SCS215a	20101115.143614	20101115.144010	8	0.013328	60	0	60-180	60	61	GapExp	0	31	2	1	1	target	1	534	733	43516	13.328	12.929	13.722
ProbeTrack11	21	ProbeTrack	11.2	SCS215a	20101115.143614	20101115.144015	8	0.013328	60	0	60-180	60	69	GapExp	0	32	2	45	1	distractor	0	347	-1000	42516	13.328	13.108	13.547
ProbeTrack11	21	ProbeTrack	11.2	SCS215a	20101115.143614	20101115.144021	8	0.013328	60	0	60-180	60	138	GapExp	0	33	2	3	1	target	1	440	780	43296	13.328	13.310	13.346
ProbeTrack11	21	ProbeTrack	11.2	SCS215a	20101115.143614	20101115.144027	8	0.013328	60	10	60-180	60	105	GapExp	0	34	2	1	1	target	1	347	827	44123	13.328	13.291	13.357
ProbeTrack11	21	ProbeTrack	11.2	SCS215a	20101115.143614	20101115.144033	8	0.013328	60	10	60-180	60	120	GapExp	0	35	2	3	0	target	0	600	-1000	43123	13.328	12.918	13.738
ProbeTrack11	21	ProbeTrack	11.2	SCS215a	20101115.143614	20101115.144039	8	0.013328	60	10	60-180	60	131	GapExp	0	36	2	3	1	target	1	560	720	43843	13.328	12.912	13.742
ProbeTrack11	21	ProbeTrack	11.2	SCS215a	20101115.143614	20101115.144045	8	0.013328	60	0	60-180	60	167	GapExp	0	37	2	1	0	distractor	1	640	680	44523	13.328	13.103	13.563
ProbeTrack11	21	ProbeTrack	11.2	SCS215a	20101115.143614	20101115.144052	8	0.013328	60	0	60-180	60	149	GapExp	0	38	2	0	1	target	1	1000	500	45023	13.328	13.117	13.551
ProbeTrack11	21	ProbeTrack	11.2	SCS215a	20101115.143614	20101115.144059	8	0.013328	60	10	60-180	60	111	GapExp	0	39	2	3	1	target	1	827	587	45610	13.328	13.303	13.351
ProbeTrack11	21	ProbeTrack	11.2	SCS215a	20101115.143614	20101115.144105	8	0.013328	60	10	60-180	60	153	GapExp	0	40	2	1	0	distractor	1	1107	447	46057	13.328	12.904	13.743
ProbeTrack11	21	ProbeTrack	11.2	SCS215a	20101115.143614	20101115.144112	8	0.013328	60	0	60-180	60	89	GapExp	0	41	2	3	1	target	1	813	594	46651	13.328	13.096	13.561
ProbeTrack11	21	ProbeTrack	11.2	SCS215a	20101115.143614	20101115.144118	8	0.013328	60	0	60-180	60	168	GapExp	0	42	2	45	1	target	1	534	733	47384	13.328	13.089	13.562
ProbeTrack11	21	ProbeTrack	11.2	SCS215a	20101115.143614	20101115.144125	8	0.013328	60	10	60-180	60	91	GapExp	0	43	2	1	1	target	1	587	707	48091	13.328	12.907	13.750
ProbeTrack11	21	ProbeTrack	11.2	SCS215a	20101115.143614	20101115.144131	8	0.013328	60	0	60-180	60	61	GapExp	0	44	2	1	0	distractor	1	653	674	48765	13.328	13.006	13.664
ProbeTrack11	21	ProbeTrack	11.2	SCS215a	20101115.143614	20101115.144137	8	0.013328	60	10	60-180	60	86	GapExp	0	45	2	45	1	target	1	467	767	49532	13.328	13.310	13.345
ProbeTrack11	21	ProbeTrack	11.2	SCS215a	20101115.143614	20101115.144143	8	0.013328	60	0	60-180	60	166	GapExp	0	46	2	0	0	distractor	1	560	720	50252	13.328	12.916	13.780
ProbeTrack11	21	ProbeTrack	11.2	SCS215a	20101115.143614	20101115.144150	8	0.013328	60	0	60-180	60	156	GapExp	0	47	2	3	0	distractor	1	520	740	50992	13.328	13.028	13.646
ProbeTrack11	21	ProbeTrack	11.2	SCS215a	20101115.143614	20101115.144158	8	0.013328	60	0	60-180	60	172	GapExp	0	48	2	45	0	distractor	1	587	707	51699	13.328	12.652	14.005
ProbeTrack11	21	ProbeTrack	11.2	SCS215a	20101115.143614	20101115.144206	8	0.013328	60	0	60-180	60	64	GapExp	0	49	2	45	1	target	1	520	740	52439	13.328	13.309	13.348
ProbeTrack11	21	ProbeTrack	11.2	SCS215a	20101115.143614	20101115.144212	8	0.013328	60	0	60-180	60	64	GapExp	0	50	2	0	1	target	1	520	740	53179	13.328	13.309	13.346
ProbeTrack11	21	ProbeTrack	11.2	SCS215a	20101115.143614	20101115.144217	8	0.013328	60	0	60-180	60	170	GapExp	0	51	2	0	0	distractor	1	773	614	53793	13.328	12.879	13.770
ProbeTrack11	21	ProbeTrack	11.2	SCS215a	20101115.143614	20101115.144224	8	0.013328	60	0	60-180	60	115	GapExp	0	52	2	1	1	target	1	427	787	54580	13.328	13.011	13.642
ProbeTrack11	21	ProbeTrack	11.2	SCS215a	20101115.143614	20101115.144231	8	0.013328	60	10	60-180	60	176	GapExp	0	53	2	0	0	target	0	374	-1000	53580	13.328	12.889	13.776
ProbeTrack11	21	ProbeTrack	11.2	SCS215a	20101115.143614	20101115.144238	8	0.013328	60	0	60-180	60	89	GapExp	0	54	2	1	1	target	1	467	767	54347	13.328	13.308	13.361
ProbeTrack11	21	ProbeTrack	11.2	SCS215a	20101115.143614	20101115.144244	8	0.013328	60	10	60-180	60	94	GapExp	0	55	2	45	0	target	0	387	-1000	53347	13.433	13.101	26.697
ProbeTrack11	21	ProbeTrack	11.2	SCS215a	20101115.143614	20101115.144250	8	0.013328	60	0	60-180	60	107	GapExp	0	56	2	3	1	target	1	440	780	54127	13.328	12.941	13.705
ProbeTrack11	21	ProbeTrack	11.2	SCS215a	20101115.143614	20101115.144257	8	0.013328	60	0	60-180	60	97	GapExp	0	57	2	45	1	target	1	587	707	54834	13.328	12.853	13.787
ProbeTrack11	21	ProbeTrack	11.2	SCS215a	20101115.143614	20101115.144303	8	0.013328	60	10	60-180	60	126	GapExp	0	58	2	1	1	target	1	467	767	55601	13.328	13.028	13.636
ProbeTrack11	21	ProbeTrack	11.2	SCS215a	20101115.143614	20101115.144310	8	0.013328	60	10	60-180	60	115	GapExp	0	59	2	1	0	target	0	1173	-1000	54601	13.328	12.862	13.789
ProbeTrack11	21	ProbeTrack	11.2	SCS215a	20101115.143614	20101115.144316	8	0.013328	60	10	60-180	60	173	GapExp	0	60	2	1	0	target	0	494	-1000	53601	13.328	12.900	13.762
ProbeTrack11	21	ProbeTrack	11.2	SCS215a	20101115.143614	20101115.144324	8	0.013328	60	0	60-180	60	96	GapExp	0	61	2	45	1	target	1	414	793	54394	13.328	12.901	13.770
ProbeTrack11	21	ProbeTrack	11.2	SCS215a	20101115.143614	20101115.144330	8	0.013328	60	10	60-180	60	177	GapExp	0	62	2	3	0	distractor	1	1333	334	54728	13.328	13.097	13.571
ProbeTrack11	21	ProbeTrack	11.2	SCS215a	20101115.143614	20101115.144338	8	0.013328	60	10	60-180	60	112	GapExp	0	63	2	3	1	target	1	360	820	55548	13.328	12.933	13.725
ProbeTrack11	21	ProbeTrack	11.2	SCS215a	20101115.143614	20101115.144344	8	0.013328	60	10	60-180	60	123	GapExp	0	64	2	3	1	target	1	400	800	56348	13.328	13.310	13.348
ProbeTrack11	21	ProbeTrack	11.2	SCS215a	20101115.143614	20101115.144350	8	0.013328	60	0	60-180	60	146	GapExp	0	65	2	45	1	target	1	414	793	57141	13.328	13.309	13.346
ProbeTrack11	21	ProbeTrack	11.2	SCS215a	20101115.143614	20101115.144357	8	0.013328	60	10	60-180	60	111	GapExp	0	66	2	3	0	target	0	600	-1000	56141	13.328	13.309	13.347
ProbeTrack11	21	ProbeTrack	11.2	SCS215a	20101115.143614	20101115.144403	8	0.013328	60	10	60-180	60	128	GapExp	0	67	2	45	1	target	1	387	807	56948	13.328	12.923	13.733
ProbeTrack11	21	ProbeTrack	11.2	SCS215a	20101115.143614	20101115.144411	8	0.013328	60	10	60-180	60	100	GapExp	0	68	2	1	1	target	1	547	727	57675	13.328	13.083	13.567
ProbeTrack11	21	ProbeTrack	11.2	SCS215a	20101115.143614	20101115.144416	8	0.013328	60	0	60-180	60	152	GapExp	0	69	2	45	0	distractor	1	614	693	58368	13.328	13.308	13.348
ProbeTrack11	21	ProbeTrack	11.2	SCS215a	20101115.143614	20101115.144424	8	0.013328	60	10	60-180	60	161	GapExp	0	70	2	0	0	target	0	1013	-1000	57368	13.328	12.926	13.717
ProbeTrack11	21	ProbeTrack	11.2	SCS215a	20101115.143614	20101115.144431	8	0.013328	60	10	60-180	60	132	GapExp	0	71	2	1	1	target	1	480	760	58128	13.328	13.299	13.351
ProbeTrack11	21	ProbeTrack	11.2	SCS215a	20101115.143614	20101115.144437	8	0.013328	60	10	60-180	60	71	GapExp	0	72	2	45	0	target	0	1626	-1000	57128	13.328	12.958	13.705
ProbeTrack11	21	ProbeTrack	11.2	SCS215a	20101115.143614	20101115.144444	8	0.013328	60	0	60-180	60	113	GapExp	0	73	2	1	0	distractor	1	747	627	57755	13.328	13.305	13.346
ProbeTrack11	21	ProbeTrack	11.2	SCS215a	20101115.143614	20101115.144450	8	0.013328	60	10	60-180	60	135	GapExp	0	74	2	3	0	distractor	1	1040	480	58235	13.328	13.309	13.344
ProbeTrack11	21	ProbeTrack	11.2	SCS215a	20101115.143614	20101115.144457	8	0.013328	60	0	60-180	60	179	GapExp	0	75	2	0	0	distractor	1	613	694	58929	13.328	13.099	13.555
ProbeTrack11	21	ProbeTrack	11.2	SCS215a	20101115.143614	20101115.144504	8	0.013328	60	0	60-180	60	108	GapExp	0	76	2	3	0	distractor	1	560	720	59649	13.328	13.086	13.565
ProbeTrack11	21	ProbeTrack	11.2	SCS215a	20101115.143614	20101115.144510	8	0.013328	60	0	60-180	60	157	GapExp	0	77	2	1	1	target	1	480	760	60409	13.328	13.090	13.565
ProbeTrack11	21	ProbeTrack	11.2	SCS215a	20101115.143614	20101115.144516	8	0.013328	60	10	60-180	60	124	GapExp	0	78	2	3	0	distractor	1	733	634	61043	13.328	13.105	13.558
ProbeTrack11	21	ProbeTrack	11.2	SCS215a	20101115.143614	20101115.144523	8	0.013328	60	0	60-180	60	149	GapExp	0	79	2	1	0	distractor	1	760	620	61663	13.328	13.060	13.588
ProbeTrack11	21	ProbeTrack	11.2	SCS215a	20101115.143614	20101115.144529	8	0.013328	60	10	60-180	60	76	GapExp	0	80	2	45	1	target	1	600	700	62363	13.328	13.308	13.347
ProbeTrack11	21	ProbeTrack	11.2	SCS215a	20101115.143614	20101115.144535	8	0.013328	60	10	60-180	60	75	GapExp	0	81	2	3	1	target	1	520	740	63103	13.328	13.305	13.350
ProbeTrack11	21	ProbeTrack	11.2	SCS215a	20101115.143614	20101115.144541	8	0.013328	60	0	60-180	60	107	GapExp	0	82	2	45	1	target	1	480	760	63863	13.328	12.846	13.811
ProbeTrack11	21	ProbeTrack	11.2	SCS215a	20101115.143614	20101115.144547	8	0.013328	60	0	60-180	60	171	GapExp	0	83	2	45	1	target	1	653	674	64537	13.328	13.105	13.647
ProbeTrack11	21	ProbeTrack	11.2	SCS215a	20101115.143614	20101115.144554	8	0.013328	60	10	60-180	60	165	GapExp	0	84	2	0	1	target	1	534	733	65270	13.328	12.886	13.783
ProbeTrack11	21	ProbeTrack	11.2	SCS215a	20101115.143614	20101115.144601	8	0.013328	60	10	60-180	60	81	GapExp	0	85	2	3	0	distractor	1	1133	434	65704	13.328	13.309	13.347
ProbeTrack11	21	ProbeTrack	11.2	SCS215a	20101115.143614	20101115.144607	8	0.013328	60	10	60-180	60	85	GapExp	0	86	2	3	0	target	0	827	-1000	64704	13.328	13.089	13.554
ProbeTrack11	21	ProbeTrack	11.2	SCS215a	20101115.143614	20101115.144613	8	0.013328	60	10	60-180	60	75	GapExp	0	87	2	0	0	distractor	1	1187	407	65111	13.328	13.098	13.543
ProbeTrack11	21	ProbeTrack	11.2	SCS215a	20101115.143614	20101115.144620	8	0.013328	60	0	60-180	60	127	GapExp	0	88	2	45	1	target	1	800	600	65711	13.415	13.094	26.849
ProbeTrack11	21	ProbeTrack	11.2	SCS215a	20101115.143614	20101115.144626	8	0.013328	60	0	60-180	60	148	GapExp	0	89	2	1	1	target	1	600	700	66411	13.328	13.309	13.351
ProbeTrack11	21	ProbeTrack	11.2	SCS215a	20101115.143614	20101115.144633	8	0.013328	60	0	60-180	60	93	GapExp	0	90	2	0	1	target	1	520	740	67151	13.328	13.309	13.348
ProbeTrack11	21	ProbeTrack	11.2	SCS215a	20101115.143614	20101115.144638	8	0.013328	60	10	60-180	60	165	GapExp	0	91	2	0	0	target	0	960	-1000	66151	13.328	13.019	13.633
ProbeTrack11	21	ProbeTrack	11.2	SCS215a	20101115.143614	20101115.144646	8	0.013328	60	0	60-180	60	161	GapExp	0	92	2	3	1	target	1	534	733	66884	13.328	13.309	13.347
ProbeTrack11	21	ProbeTrack	11.2	SCS215a	20101115.143614	20101115.144652	8	0.013328	60	10	60-180	60	111	GapExp	0	93	2	1	0	distractor	1	1120	440	67324	13.327	12.862	13.786
ProbeTrack11	21	ProbeTrack	11.2	SCS215a	20101115.143614	20101115.144659	8	0.013328	60	10	60-180	60	131	GapExp	0	94	2	3	1	target	1	680	660	67984	13.328	13.309	13.347
ProbeTrack11	21	ProbeTrack	11.2	SCS215a	20101115.143614	20101115.144705	8	0.013328	60	10	60-180	60	173	GapExp	0	95	2	0	0	distractor	1	920	540	68524	13.328	12.992	13.661
ProbeTrack11	21	ProbeTrack	11.2	SCS215a	20101115.143614	20101115.144712	8	0.013328	60	10	60-180	60	154	GapExp	0	96	2	0	1	target	1	653	674	69198	13.328	12.982	13.674
ProbeTrack11	21	ProbeTrack	11.2	SCS215a	20101115.143614	20101115.144719	8	0.013328	60	10	60-180	60	78	GapExp	0	97	2	1	1	distractor	0	1240	-1000	68198	13.328	13.201	13.463
ProbeTrack11	21	ProbeTrack	11.2	SCS215a	20101115.143614	20101115.144725	8	0.013328	60	0	60-180	60	154	GapExp	0	98	2	3	1	target	1	613	694	68892	13.328	12.958	13.702
ProbeTrack11	21	ProbeTrack	11.2	SCS215a	20101115.143614	20101115.144731	8	0.013328	60	0	60-180	60	120	GapExp	0	99	2	1	0	distractor	1	693	654	69546	13.328	13.098	13.559
ProbeTrack11	21	ProbeTrack	11.2	SCS215a	20101115.143614	20101115.144738	8	0.013328	60	10	60-180	60	65	GapExp	0	100	2	0	0	distractor	1	947	527	70073	13.328	13.307	13.350
ProbeTrack11	21	ProbeTrack	11.2	SCS215a	20101115.143614	20101115.144743	8	0.013328	60	10	60-180	60	146	GapExp	0	101	2	1	0	target	0	924	-1000	69073	13.328	12.966	13.702
ProbeTrack11	21	ProbeTrack	11.2	SCS215a	20101115.143614	20101115.144844	8	0.013328	60	10	60-180	60	146	GapExp	0	102	2	45	1	distractor	0	920	-1000	68073	13.328	13.307	13.348
ProbeTrack11	21	ProbeTrack	11.2	SCS215a	20101115.143614	20101115.144852	8	0.013328	60	0	60-180	60	158	GapExp	0	103	2	3	1	target	1	387	807	68880	13.328	12.899	13.770
ProbeTrack11	21	ProbeTrack	11.2	SCS215a	20101115.143614	20101115.144858	8	0.013328	60	10	60-180	60	163	GapExp	0	104	2	45	0	distractor	1	720	640	69520	13.328	12.955	13.694
ProbeTrack11	21	ProbeTrack	11.2	SCS215a	20101115.143614	20101115.144907	8	0.013328	60	0	60-180	60	165	GapExp	0	105	2	1	1	target	1	400	800	70320	13.328	13.036	13.616
ProbeTrack11	21	ProbeTrack	11.2	SCS215a	20101115.143614	20101115.144914	8	0.013328	60	0	60-180	60	114	GapExp	0	106	2	1	0	distractor	1	693	654	70974	13.328	12.840	13.820
ProbeTrack11	21	ProbeTrack	11.2	SCS215a	20101115.143614	20101115.144920	8	0.013328	60	10	60-180	60	175	GapExp	0	107	2	45	0	distractor	1	840	580	71554	13.328	13.030	13.636
ProbeTrack11	21	ProbeTrack	11.2	SCS215a	20101115.143614	20101115.144928	8	0.013328	60	0	60-180	60	71	GapExp	0	108	2	0	0	distractor	1	787	607	72161	13.328	13.310	13.346
ProbeTrack11	21	ProbeTrack	11.2	SCS215a	20101115.143614	20101115.144933	8	0.013328	60	0	60-180	60	136	GapExp	0	109	2	45	1	target	1	454	773	72934	13.328	13.310	13.347
ProbeTrack11	21	ProbeTrack	11.2	SCS215a	20101115.143614	20101115.144940	8	0.013328	60	10	60-180	60	91	GapExp	0	110	2	3	1	distractor	0	1013	-1000	71934	13.328	13.232	13.418
ProbeTrack11	21	ProbeTrack	11.2	SCS215a	20101115.143614	20101115.144946	8	0.013328	60	10	60-180	60	91	GapExp	0	111	2	0	1	target	1	440	780	72714	13.328	13.311	13.345
ProbeTrack11	21	ProbeTrack	11.2	SCS215a	20101115.143614	20101115.144952	8	0.013328	60	10	60-180	60	137	GapExp	0	112	2	45	0	distractor	1	680	660	73374	13.328	13.308	13.346
ProbeTrack11	21	ProbeTrack	11.2	SCS215a	20101115.143614	20101115.144959	8	0.013328	60	10	60-180	60	93	GapExp	0	113	2	1	1	target	1	707	647	74021	13.328	13.308	13.347
ProbeTrack11	21	ProbeTrack	11.2	SCS215a	20101115.143614	20101115.145005	8	0.013328	60	10	60-180	60	73	GapExp	0	114	2	1	1	target	1	507	747	74768	13.328	13.101	13.543
ProbeTrack11	21	ProbeTrack	11.2	SCS215a	20101115.143614	20101115.145010	8	0.013328	60	0	60-180	60	110	GapExp	0	115	2	0	1	target	1	600	700	75468	13.328	13.116	13.541
ProbeTrack11	21	ProbeTrack	11.2	SCS215a	20101115.143614	20101115.145016	8	0.013328	60	10	60-180	60	120	GapExp	0	116	2	3	1	target	1	640	680	76148	13.328	13.309	13.345
ProbeTrack11	21	ProbeTrack	11.2	SCS215a	20101115.143614	20101115.145023	8	0.013328	60	0	60-180	60	66	GapExp	0	117	2	45	1	target	1	414	793	76941	13.328	13.307	13.345
ProbeTrack11	21	ProbeTrack	11.2	SCS215a	20101115.143614	20101115.145029	8	0.013328	60	10	60-180	60	64	GapExp	0	118	2	1	0	distractor	1	853	574	77515	13.328	13.309	13.346
ProbeTrack11	21	ProbeTrack	11.2	SCS215a	20101115.143614	20101115.145034	8	0.013328	60	0	60-180	60	85	GapExp	0	119	2	1	1	distractor	0	494	-1000	76515	13.328	12.977	13.682
ProbeTrack11	21	ProbeTrack	11.2	SCS215a	20101115.143614	20101115.145040	8	0.013328	60	0	60-180	60	74	GapExp	0	120	2	3	0	distractor	1	613	694	77209	13.328	12.845	13.801
ProbeTrack11	21	ProbeTrack	11.2	SCS215a	20101115.143614	20101115.145045	8	0.013328	60	0	60-180	60	124	GapExp	0	121	2	3	1	target	1	480	760	77969	13.328	13.095	13.542
ProbeTrack11	21	ProbeTrack	11.2	SCS215a	20101115.143614	20101115.145052	8	0.013328	60	10	60-180	60	80	GapExp	0	122	2	1	0	distractor	1	653	674	78643	13.328	13.304	13.354
ProbeTrack11	21	ProbeTrack	11.2	SCS215a	20101115.143614	20101115.145057	8	0.013328	60	10	60-180	60	131	GapExp	0	123	2	45	0	distractor	1	627	687	79330	13.328	13.307	13.347
ProbeTrack11	21	ProbeTrack	11.2	SCS215a	20101115.143614	20101115.145104	8	0.013328	60	10	60-180	60	153	GapExp	0	124	2	45	1	target	1	400	800	80130	13.328	13.304	13.348
ProbeTrack11	21	ProbeTrack	11.2	SCS215a	20101115.143614	20101115.145111	8	0.013328	60	0	60-180	60	104	GapExp	0	125	2	1	1	target	1	760	620	80750	13.326	12.904	13.346
ProbeTrack11	21	ProbeTrack	11.2	SCS215a	20101115.143614	20101115.145117	8	0.013328	60	0	60-180	60	66	GapExp	0	126	2	3	0	distractor	1	640	680	81430	13.328	12.916	13.760
ProbeTrack11	21	ProbeTrack	11.2	SCS215a	20101115.143614	20101115.145123	8	0.013328	60	10	60-180	60	80	GapExp	0	127	2	1	0	distractor	1	760	620	82050	13.328	12.892	13.763
ProbeTrack11	21	ProbeTrack	11.2	SCS215a	20101115.143614	20101115.145128	8	0.013328	60	10	60-180	60	136	GapExp	0	128	2	0	1	target	1	480	760	82810	13.328	12.958	13.711
ProbeTrack11	21	ProbeTrack	11.2	SCS215a	20101115.143614	20101115.145135	8	0.013328	60	0	60-180	60	77	GapExp	0	129	2	45	0	distractor	1	613	694	83504	13.328	13.092	13.555
ProbeTrack11	21	ProbeTrack	11.2	SCS215a	20101115.143614	20101115.145141	8	0.013328	60	0	60-180	60	83	GapExp	0	130	2	0	1	target	1	534	733	84237	13.328	13.203	13.451
ProbeTrack11	21	ProbeTrack	11.2	SCS215a	20101115.143614	20101115.145146	8	0.013328	60	10	60-180	60	105	GapExp	0	131	2	45	1	target	1	733	634	84871	13.328	13.305	13.349
ProbeTrack11	21	ProbeTrack	11.2	SCS215a	20101115.143614	20101115.145153	8	0.013328	60	10	60-180	60	122	GapExp	0	132	2	1	0	target	0	707	-1000	83871	13.328	13.309	13.347
ProbeTrack11	21	ProbeTrack	11.2	SCS215a	20101115.143614	20101115.145159	8	0.013328	60	10	60-180	60	175	GapExp	0	133	2	1	0	distractor	1	760	620	84491	13.328	13.307	13.350
ProbeTrack11	21	ProbeTrack	11.2	SCS215a	20101115.143614	20101115.145206	8	0.013328	60	0	60-180	60	146	GapExp	0	134	2	45	0	distractor	1	653	674	85165	13.328	13.299	13.348
ProbeTrack11	21	ProbeTrack	11.2	SCS215a	20101115.143614	20101115.145213	8	0.013328	60	10	60-180	60	96	GapExp	0	135	2	3	0	target	0	973	-1000	84165	13.328	13.308	13.345
ProbeTrack11	21	ProbeTrack	11.2	SCS215a	20101115.143614	20101115.145219	8	0.013328	60	0	60-180	60	133	GapExp	0	136	2	1	0	distractor	1	587	707	84872	13.328	13.308	13.347
ProbeTrack11	21	ProbeTrack	11.2	SCS215a	20101115.143614	20101115.145226	8	0.013328	60	10	60-180	60	76	GapExp	0	137	2	45	0	distractor	1	520	740	85612	13.328	12.856	13.796
ProbeTrack11	21	ProbeTrack	11.2	SCS215a	20101115.143614	20101115.145232	8	0.013328	60	0	60-180	60	109	GapExp	0	138	2	0	1	distractor	0	547	-1000	84612	13.328	12.937	13.712
ProbeTrack11	21	ProbeTrack	11.2	SCS215a	20101115.143614	20101115.145238	8	0.013328	60	10	60-180	60	142	GapExp	0	139	2	1	1	target	1	720	640	85252	13.328	13.111	13.540
ProbeTrack11	21	ProbeTrack	11.2	SCS215a	20101115.143614	20101115.145244	8	0.013328	60	10	60-180	60	121	GapExp	0	140	2	1	1	target	1	467	767	86019	13.328	13.099	13.550
ProbeTrack11	21	ProbeTrack	11.2	SCS215a	20101115.143614	20101115.145250	8	0.013328	60	10	60-180	60	97	GapExp	0	141	2	0	1	target	1	560	720	86739	13.328	13.107	13.536
ProbeTrack11	21	ProbeTrack	11.2	SCS215a	20101115.143614	20101115.145257	8	0.013328	60	10	60-180	60	104	GapExp	0	142	2	45	0	distractor	1	467	767	87506	13.328	13.097	13.559
ProbeTrack11	21	ProbeTrack	11.2	SCS215a	20101115.143614	20101115.145304	8	0.013328	60	10	60-180	60	111	GapExp	0	143	2	3	0	distractor	1	573	714	88220	13.383	12.864	27.114
ProbeTrack11	21	ProbeTrack	11.2	SCS215a	20101115.143614	20101115.145310	8	0.013328	60	10	60-180	60	97	GapExp	0	144	2	0	0	target	0	494	-1000	87220	13.328	13.308	13.347
ProbeTrack11	21	ProbeTrack	11.2	SCS215a	20101115.143614	20101115.145315	8	0.013328	60	0	60-180	60	161	GapExp	0	145	2	3	1	target	1	640	680	87900	13.328	12.843	13.820
ProbeTrack11	21	ProbeTrack	11.2	SCS215a	20101115.143614	20101115.145322	8	0.013328	60	0	60-180	60	105	GapExp	0	146	2	45	0	distractor	1	667	667	88567	13.328	12.915	13.737
ProbeTrack11	21	ProbeTrack	11.2	SCS215a	20101115.143614	20101115.145329	8	0.013328	60	0	60-180	60	102	GapExp	0	147	2	3	0	distractor	1	654	673	89240	13.328	13.307	13.348
ProbeTrack11	21	ProbeTrack	11.2	SCS215a	20101115.143614	20101115.145335	8	0.013328	60	0	60-180	60	97	GapExp	0	148	2	0	1	target	1	560	720	89960	13.328	13.098	13.569
ProbeTrack11	21	ProbeTrack	11.2	SCS215a	20101115.143614	20101115.145341	8	0.013328	60	10	60-180	60	90	GapExp	0	149	2	1	1	target	1	454	773	90733	13.328	12.958	13.701
ProbeTrack11	21	ProbeTrack	11.2	SCS215a	20101115.143614	20101115.145346	8	0.013328	60	0	60-180	60	153	GapExp	0	150	2	3	1	target	1	414	793	91526	13.328	13.105	13.550
ProbeTrack11	21	ProbeTrack	11.2	SCS215a	20101115.143614	20101115.145353	8	0.013328	60	10	60-180	60	166	GapExp	0	151	2	45	1	target	1	374	813	92339	13.328	12.952	13.715
ProbeTrack11	21	ProbeTrack	11.2	SCS215a	20101115.143614	20101115.145400	8	0.013328	60	10	60-180	60	113	GapExp	0	152	2	45	1	target	1	374	813	93152	13.328	12.925	13.734
ProbeTrack11	21	ProbeTrack	11.2	SCS215a	20101115.143614	20101115.145406	8	0.013328	60	10	60-180	60	68	GapExp	0	153	2	0	1	target	1	467	767	93919	13.328	13.309	13.345
ProbeTrack11	21	ProbeTrack	11.2	SCS215a	20101115.143614	20101115.145412	8	0.013328	60	0	60-180	60	119	GapExp	0	154	2	3	0	distractor	1	494	753	94672	13.328	13.004	13.637
ProbeTrack11	21	ProbeTrack	11.2	SCS215a	20101115.143614	20101115.145418	8	0.013328	60	10	60-180	60	91	GapExp	0	155	2	45	0	target	0	507	-1000	93672	13.328	13.304	13.348
ProbeTrack11	21	ProbeTrack	11.2	SCS215a	20101115.143614	20101115.145424	8	0.013328	60	0	60-180	60	170	GapExp	0	156	2	0	0	distractor	1	667	667	94339	13.328	12.875	13.775
ProbeTrack11	21	ProbeTrack	11.2	SCS215a	20101115.143614	20101115.145431	8	0.013328	60	10	60-180	60	101	GapExp	0	157	2	45	0	distractor	1	600	700	95039	13.328	13.098	13.542
ProbeTrack11	21	ProbeTrack	11.2	SCS215a	20101115.143614	20101115.145437	8	0.013328	60	10	60-180	60	105	GapExp	0	158	2	3	0	distractor	1	694	653	95692	13.328	12.914	13.767
ProbeTrack11	21	ProbeTrack	11.2	SCS215a	20101115.143614	20101115.145444	8	0.013328	60	0	60-180	60	170	GapExp	0	159	2	0	1	target	1	560	720	96412	13.328	13.309	13.348
ProbeTrack11	21	ProbeTrack	11.2	SCS215a	20101115.143614	20101115.145451	8	0.013328	60	0	60-180	60	63	GapExp	0	160	2	45	0	distractor	1	813	594	97006	13.328	13.101	13.545
ProbeTrack11	21	ProbeTrack	11.2	SCS215a	20101115.143614	20101115.145457	8	0.013328	60	0	60-180	60	75	GapExp	0	161	2	45	0	distractor	1	640	680	97686	13.328	13.115	13.544
ProbeTrack11	21	ProbeTrack	11.2	SCS215a	20101115.143614	20101115.145503	8	0.013328	60	0	60-180	60	133	GapExp	0	162	2	0	0	distractor	1	907	547	98233	13.328	13.085	13.567
ProbeTrack11	21	ProbeTrack	11.2	SCS215a	20101115.143614	20101115.145510	8	0.013328	60	10	60-180	60	154	GapExp	0	163	2	0	0	distractor	1	507	747	98980	13.328	13.052	13.605
ProbeTrack11	21	ProbeTrack	11.2	SCS215a	20101115.143614	20101115.145517	8	0.013328	60	10	60-180	60	175	GapExp	0	164	2	1	0	target	0	840	-1000	97980	13.328	12.846	13.813
ProbeTrack11	21	ProbeTrack	11.2	SCS215a	20101115.143614	20101115.145524	8	0.013328	60	10	60-180	60	145	GapExp	0	165	2	3	0	distractor	1	587	707	98687	13.471	12.870	26.699
ProbeTrack11	21	ProbeTrack	11.2	SCS215a	20101115.143614	20101115.145531	8	0.013328	60	10	60-180	60	153	GapExp	0	166	2	45	0	target	0	520	-1000	97687	13.369	13.104	26.638
ProbeTrack11	21	ProbeTrack	11.2	SCS215a	20101115.143614	20101115.145538	8	0.013328	60	0	60-180	60	89	GapExp	0	167	2	0	1	target	1	1027	487	98174	13.328	12.859	13.784
ProbeTrack11	21	ProbeTrack	11.2	SCS215a	20101115.143614	20101115.145544	8	0.013328	60	10	60-180	60	152	GapExp	0	168	2	3	1	target	1	760	620	98794	13.328	12.986	13.675
ProbeTrack11	21	ProbeTrack	11.2	SCS215a	20101115.143614	20101115.145550	8	0.013328	60	10	60-180	60	145	GapExp	0	169	2	0	0	distractor	1	640	680	99474	13.328	12.924	13.725
ProbeTrack11	21	ProbeTrack	11.2	SCS215a	20101115.143614	20101115.145556	8	0.013328	60	10	60-180	60	165	GapExp	0	170	2	1	0	target	0	680	-1000	98474	13.328	13.024	13.634
ProbeTrack11	21	ProbeTrack	11.2	SCS215a	20101115.143614	20101115.145603	8	0.013328	60	0	60-180	60	130	GapExp	0	171	2	0	0	distractor	1	707	647	99121	13.328	13.309	13.347
ProbeTrack11	21	ProbeTrack	11.2	SCS215a	20101115.143614	20101115.145609	8	0.013328	60	0	60-180	60	135	GapExp	0	172	2	0	0	distractor	1	680	660	99781	13.328	13.310	13.350
ProbeTrack11	21	ProbeTrack	11.2	SCS215a	20101115.143614	20101115.145616	8	0.013328	60	0	60-180	60	64	GapExp	0	173	2	0	0	distractor	1	707	647	100428	13.328	12.882	13.792
ProbeTrack11	21	ProbeTrack	11.2	SCS215a	20101115.143614	20101115.145622	8	0.013328	60	0	60-180	60	171	GapExp	0	174	2	0	1	target	1	534	733	101161	13.328	13.109	13.557
ProbeTrack11	21	ProbeTrack	11.2	SCS215a	20101115.143614	20101115.145629	8	0.013328	60	10	60-180	60	75	GapExp	0	175	2	3	0	distractor	1	547	727	101888	13.328	12.953	13.696
ProbeTrack11	21	ProbeTrack	11.2	SCS215a	20101115.143614	20101115.145634	8	0.013328	60	0	60-180	60	111	GapExp	0	176	2	3	1	target	1	534	733	102621	13.328	12.910	13.741
ProbeTrack11	21	ProbeTrack	11.2	SCS215a	20101115.143614	20101115.145640	8	0.013328	60	10	60-180	60	167	GapExp	0	177	2	45	1	target	1	454	773	103394	13.328	12.870	13.771
ProbeTrack11	21	ProbeTrack	11.2	SCS215a	20101115.143614	20101115.145647	8	0.013328	60	0	60-180	60	84	GapExp	0	178	2	1	1	target	1	347	827	104221	13.328	12.967	13.691
ProbeTrack11	21	ProbeTrack	11.2	SCS215a	20101115.143614	20101115.145653	8	0.013328	60	10	60-180	60	91	GapExp	0	179	2	3	0	target	0	720	-1000	103221	13.328	13.213	13.432
ProbeTrack11	21	ProbeTrack	11.2	SCS215a	20101115.143614	20101115.145659	8	0.013328	60	0	60-180	60	139	GapExp	0	180	2	3	0	distractor	1	680	660	103881	13.328	12.945	13.725
ProbeTrack11	21	ProbeTrack	11.2	SCS215a	20101115.143614	20101115.145705	8	0.013328	60	0	60-180	60	146	GapExp	0	181	2	0	1	target	1	800	600	104481	13.327	12.854	13.821
ProbeTrack11	21	ProbeTrack	11.2	SCS215a	20101115.143614	20101115.145712	8	0.013328	60	0	60-180	60	158	GapExp	0	182	2	3	1	target	1	520	740	105221	13.328	13.087	13.551
ProbeTrack11	21	ProbeTrack	11.2	SCS215a	20101115.143614	20101115.145719	8	0.013328	60	0	60-180	60	113	GapExp	0	183	2	45	0	distractor	1	813	594	105815	13.328	12.888	13.757
ProbeTrack11	21	ProbeTrack	11.2	SCS215a	20101115.143614	20101115.145725	8	0.013328	60	0	60-180	60	172	GapExp	0	184	2	3	1	target	1	507	747	106562	13.328	12.939	13.719
ProbeTrack11	21	ProbeTrack	11.2	SCS215a	20101115.143614	20101115.145732	8	0.013328	60	0	60-180	60	86	GapExp	0	185	2	1	0	distractor	1	853	574	107136	13.328	12.934	13.725
ProbeTrack11	21	ProbeTrack	11.2	SCS215a	20101115.143614	20101115.145738	8	0.013328	60	0	60-180	60	77	GapExp	0	186	2	45	0	distractor	1	680	660	107796	13.328	13.032	13.625
ProbeTrack11	21	ProbeTrack	11.2	SCS215a	20101115.143614	20101115.145744	8	0.013328	60	10	60-180	60	104	GapExp	0	187	2	0	1	target	1	454	773	108569	13.328	13.027	13.630
ProbeTrack11	21	ProbeTrack	11.2	SCS215a	20101115.143614	20101115.145750	8	0.013328	60	10	60-180	60	89	GapExp	0	188	2	45	0	distractor	1	547	727	109296	13.328	12.955	13.704
ProbeTrack11	21	ProbeTrack	11.2	SCS215a	20101115.143614	20101115.145756	8	0.013328	60	0	60-180	60	74	GapExp	0	189	2	1	0	distractor	1	800	600	109896	13.328	13.055	13.590
ProbeTrack11	21	ProbeTrack	11.2	SCS215a	20101115.143614	20101115.145802	8	0.013328	60	10	60-180	60	179	GapExp	0	190	2	3	1	target	1	614	693	110589	13.328	12.902	13.744
ProbeTrack11	21	ProbeTrack	11.2	SCS215a	20101115.143614	20101115.145809	8	0.013328	60	10	60-180	60	130	GapExp	0	191	2	0	1	target	1	800	600	111189	13.328	13.308	13.346
ProbeTrack11	21	ProbeTrack	11.2	SCS215a	20101115.143614	20101115.145816	8	0.013328	60	0	60-180	60	75	GapExp	0	192	2	0	1	target	1	507	747	111936	13.328	13.100	13.558
ProbeTrack11	21	ProbeTrack	11.2	SCS215a	20101115.143614	20101115.145821	8	0.013328	60	10	60-180	60	170	GapExp	0	193	2	45	0	distractor	1	534	733	112669	13.328	12.985	13.680
ProbeTrack11	21	ProbeTrack	11.2	SCS215a	20101115.143614	20101115.145828	8	0.013328	60	10	60-180	60	139	GapExp	0	194	2	3	1	target	1	494	753	113422	13.328	13.098	13.559
ProbeTrack11	21	ProbeTrack	11.2	SCS215a	20101115.143614	20101115.145834	8	0.013328	60	0	60-180	60	107	GapExp	0	195	2	0	0	distractor	1	613	694	114116	13.328	13.098	13.549
ProbeTrack11	21	ProbeTrack	11.2	SCS215a	20101115.143614	20101115.145840	8	0.013328	60	10	60-180	60	77	GapExp	0	196	2	3	0	distractor	1	494	753	114869	13.328	12.848	13.809
ProbeTrack11	21	ProbeTrack	11.2	SCS215a	20101115.143614	20101115.145846	8	0.013328	60	0	60-180	60	128	GapExp	0	197	2	3	1	target	1	574	713	115582	13.328	13.305	13.346
ProbeTrack11	21	ProbeTrack	11.2	SCS215a	20101115.143614	20101115.145852	8	0.013328	60	0	60-180	60	83	GapExp	0	198	2	1	0	distractor	1	667	667	116249	13.328	13.307	13.348
ProbeTrack11	21	ProbeTrack	11.2	SCS215a	20101115.143614	20101115.145857	8	0.013328	60	10	60-180	60	88	GapExp	0	199	2	1	1	target	1	440	780	117029	13.328	12.873	13.775
ProbeTrack11	21	ProbeTrack	11.2	SCS215a	20101115.143614	20101115.145903	8	0.013328	60	10	60-180	60	87	GapExp	0	200	2	0	0	target	0	560	-1000	116029	13.328	13.103	13.542
ProbeTrack11	21	ProbeTrack	11.2	SCS215a	20101115.143614	20101115.145909	8	0.013328	60	0	60-180	60	118	GapExp	0	201	2	0	1	target	1	520	740	116769	13.328	12.940	13.730
ProbeTrack11	21	ProbeTrack	11.2	SCS215a	20101115.143614	20101115.145915	8	0.013328	60	10	60-180	60	148	GapExp	0	202	2	3	1	target	1	467	767	117536	13.328	12.888	13.776
ProbeTrack11	21	ProbeTrack	11.2	SCS215a	20101115.143614	20101115.145921	8	0.013328	60	10	60-180	60	136	GapExp	0	203	2	1	1	target	1	494	753	118289	13.328	12.979	13.665
ProbeTrack11	21	ProbeTrack	11.2	SCS215a	20101115.143614	20101115.145927	8	0.013328	60	0	60-180	60	134	GapExp	0	204	2	3	1	target	1	640	680	118969	13.328	12.902	13.749
ProbeTrack11	21	ProbeTrack	11.2	SCS215a	20101115.143614	20101115.145933	8	0.013328	60	10	60-180	60	113	GapExp	0	205	2	45	1	target	1	400	800	119769	13.328	12.864	13.792
ProbeTrack11	21	ProbeTrack	11.2	SCS215a	20101115.143614	20101115.145940	8	0.013328	60	10	60-180	60	148	GapExp	0	206	2	0	0	target	0	920	-1000	118769	13.328	13.309	13.346
ProbeTrack11	21	ProbeTrack	11.2	SCS215a	20101115.143614	20101115.145947	8	0.013328	60	0	60-180	60	130	GapExp	0	207	2	1	0	distractor	1	654	673	119442	13.328	12.972	13.697
ProbeTrack11	21	ProbeTrack	11.2	SCS215a	20101115.143614	20101115.145953	8	0.013328	60	0	60-180	60	149	GapExp	0	208	2	3	0	distractor	1	613	694	120136	13.328	13.097	13.545
ProbeTrack11	21	ProbeTrack	11.2	SCS215a	20101115.143614	20101115.145959	8	0.013328	60	0	60-180	60	88	GapExp	0	209	2	1	0	distractor	1	640	680	120816	13.328	12.875	13.792
ProbeTrack11	21	ProbeTrack	11.2	SCS215a	20101115.143614	20101115.150005	8	0.013328	60	10	60-180	60	178	GapExp	0	210	2	1	1	target	1	600	700	121516	13.328	12.889	13.761
ProbeTrack11	21	ProbeTrack	11.2	SCS215a	20101115.143614	20101115.150012	8	0.013328	60	0	60-180	60	101	GapExp	0	211	2	3	1	target	1	494	753	122269	13.328	12.848	13.789
ProbeTrack11	21	ProbeTrack	11.2	SCS215a	20101115.143614	20101115.150017	8	0.013328	60	10	60-180	60	107	GapExp	0	212	2	45	1	target	1	414	793	123062	13.328	12.925	13.727
ProbeTrack11	21	ProbeTrack	11.2	SCS215a	20101115.143614	20101115.150024	8	0.013328	60	10	60-180	60	68	GapExp	0	213	2	0	0	distractor	1	574	713	123775	13.328	12.911	13.736
ProbeTrack11	21	ProbeTrack	11.2	SCS215a	20101115.143614	20101115.150029	8	0.013328	60	0	60-180	60	75	GapExp	0	214	2	3	0	distractor	1	707	647	124422	13.328	12.914	13.746
ProbeTrack11	21	ProbeTrack	11.2	SCS215a	20101115.143614	20101115.150035	8	0.013328	60	0	60-180	60	179	GapExp	0	215	2	0	1	target	1	360	820	125242	13.328	12.981	13.678
ProbeTrack11	21	ProbeTrack	11.2	SCS215a	20101115.143614	20101115.150041	8	0.013328	60	0	60-180	60	126	GapExp	0	216	2	45	1	distractor	0	467	-1000	124242	13.328	12.936	13.712
ProbeTrack11	21	ProbeTrack	11.2	SCS215a	20101115.143614	20101115.150048	8	0.013328	60	0	60-180	60	78	GapExp	0	217	2	0	0	distractor	1	773	614	124856	13.328	12.989	13.668
ProbeTrack11	21	ProbeTrack	11.2	SCS215a	20101115.143614	20101115.150053	8	0.013328	60	10	60-180	60	89	GapExp	0	218	2	0	0	distractor	1	987	507	125363	13.328	12.915	13.733
ProbeTrack11	21	ProbeTrack	11.2	SCS215a	20101115.143614	20101115.150059	8	0.013328	60	0	60-180	60	179	GapExp	0	219	2	0	0	distractor	1	680	660	126023	13.328	12.921	13.735
ProbeTrack11	21	ProbeTrack	11.2	SCS215a	20101115.143614	20101115.150106	8	0.013328	60	10	60-180	60	152	GapExp	0	220	2	0	0	target	0	1320	-1000	125023	13.328	12.861	13.788
ProbeTrack11	21	ProbeTrack	11.2	SCS215a	20101115.143614	20101115.150114	8	0.013328	60	10	60-180	60	68	GapExp	0	221	2	1	0	distractor	1	773	614	125637	13.328	13.309	13.348
ProbeTrack11	21	ProbeTrack	11.2	SCS215a	20101115.143614	20101115.150119	8	0.013328	60	0	60-180	60	162	GapExp	0	222	2	0	0	distractor	1	720	640	126277	13.328	12.964	13.695
ProbeTrack11	21	ProbeTrack	11.2	SCS215a	20101115.143614	20101115.150126	8	0.013328	60	0	60-180	60	151	GapExp	0	223	2	0	0	distractor	1	547	727	127004	13.328	13.308	13.347
ProbeTrack11	21	ProbeTrack	11.2	SCS215a	20101115.143614	20101115.150133	8	0.013328	60	10	60-180	60	80	GapExp	0	224	2	45	1	target	1	534	733	127737	13.328	12.851	13.807
ProbeTrack11	21	ProbeTrack	11.2	SCS215a	20101115.143614	20101115.150139	8	0.013328	60	10	60-180	60	62	GapExp	0	225	2	0	1	target	1	574	713	128450	13.328	13.310	13.345
ProbeTrack11	21	ProbeTrack	11.2	SCS215a	20101115.143614	20101115.150144	8	0.013328	60	0	60-180	60	121	GapExp	0	226	2	1	1	target	1	480	760	129210	13.328	13.098	13.562
ProbeTrack11	21	ProbeTrack	11.2	SCS215a	20101115.143614	20101115.150150	8	0.013328	60	0	60-180	60	163	GapExp	0	227	2	0	1	target	1	427	787	129997	13.328	13.092	13.568
ProbeTrack11	21	ProbeTrack	11.2	SCS215a	20101115.143614	20101115.150156	8	0.013328	60	10	60-180	60	67	GapExp	0	228	2	1	0	target	0	1160	-1000	128997	13.328	12.938	13.714
ProbeTrack11	21	ProbeTrack	11.2	SCS215a	20101115.143614	20101115.150202	8	0.013328	60	10	60-180	60	120	GapExp	0	229	2	0	1	target	1	574	713	129710	13.328	12.955	13.701
ProbeTrack11	21	ProbeTrack	11.2	SCS215a	20101115.143614	20101115.150208	8	0.013328	60	0	60-180	60	157	GapExp	0	230	2	45	0	distractor	1	627	687	130397	13.328	13.083	13.577
ProbeTrack11	21	ProbeTrack	11.2	SCS215a	20101115.143614	20101115.150216	8	0.013328	60	0	60-180	60	143	GapExp	0	231	2	0	0	distractor	1	787	607	131004	13.328	13.023	13.634
ProbeTrack11	21	ProbeTrack	11.2	SCS215a	20101115.143614	20101115.150222	8	0.013328	60	0	60-180	60	74	GapExp	0	232	2	0	0	distractor	1	667	667	131671	13.328	13.306	13.346
ProbeTrack11	21	ProbeTrack	11.2	SCS215a	20101115.143614	20101115.150228	8	0.013328	60	10	60-180	60	167	GapExp	0	233	2	0	1	target	1	507	747	132418	13.327	12.861	13.808
ProbeTrack11	21	ProbeTrack	11.2	SCS215a	20101115.143614	20101115.150235	8	0.013328	60	10	60-180	60	119	GapExp	0	234	2	3	1	target	1	400	800	133218	13.328	13.309	13.348
ProbeTrack11	21	ProbeTrack	11.2	SCS215a	20101115.143614	20101115.150241	8	0.013328	60	0	60-180	60	87	GapExp	0	235	2	3	0	distractor	1	507	747	133965	13.328	12.908	13.752
ProbeTrack11	21	ProbeTrack	11.2	SCS215a	20101115.143614	20101115.150246	8	0.013328	60	10	60-180	60	137	GapExp	0	236	2	1	0	target	0	427	-1000	132965	13.328	13.046	13.603
ProbeTrack11	21	ProbeTrack	11.2	SCS215a	20101115.143614	20101115.150252	8	0.013328	60	10	60-180	60	103	GapExp	0	237	2	1	1	target	1	587	707	133672	13.328	13.300	13.360
ProbeTrack11	21	ProbeTrack	11.2	SCS215a	20101115.143614	20101115.150258	8	0.013328	60	10	60-180	60	166	GapExp	0	238	2	3	0	distractor	1	520	740	134412	13.328	13.307	13.357
ProbeTrack11	21	ProbeTrack	11.2	SCS215a	20101115.143614	20101115.150305	8	0.013328	60	0	60-180	60	71	GapExp	0	239	2	45	1	target	1	507	747	135159	13.328	13.309	13.344
ProbeTrack11	21	ProbeTrack	11.2	SCS215a	20101115.143614	20101115.150310	8	0.013328	60	0	60-180	60	179	GapExp	0	240	2	1	0	distractor	1	494	753	135912	13.328	13.309	13.347
ProbeTrack11	21	ProbeTrack	11.2	SCS215a	20101115.143614	20101115.150317	8	0.013328	60	10	60-180	60	105	GapExp	0	241	2	3	1	target	1	427	787	136699	13.328	12.893	13.765
ProbeTrack11	21	ProbeTrack	11.2	SCS215a	20101115.143614	20101115.150323	8	0.013328	60	0	60-180	60	70	GapExp	0	242	2	1	1	target	1	907	547	137246	13.328	12.986	13.666
ProbeTrack11	21	ProbeTrack	11.2	SCS215a	20101115.143614	20101115.150328	8	0.013328	60	0	60-180	60	105	GapExp	0	243	2	0	0	distractor	1	560	720	137966	13.328	13.112	13.555
ProbeTrack11	21	ProbeTrack	11.2	SCS215a	20101115.143614	20101115.150334	8	0.013328	60	10	60-180	60	171	GapExp	0	244	2	1	0	distractor	1	707	647	138613	13.328	13.307	13.348
ProbeTrack11	21	ProbeTrack	11.2	SCS215a	20101115.143614	20101115.150341	8	0.013328	60	10	60-180	60	62	GapExp	0	245	2	45	1	target	1	520	740	139353	13.328	13.308	13.359
ProbeTrack11	21	ProbeTrack	11.2	SCS215a	20101115.143614	20101115.150347	8	0.013328	60	10	60-180	60	70	GapExp	0	246	2	1	0	distractor	1	560	720	140073	13.328	13.309	13.348
ProbeTrack11	21	ProbeTrack	11.2	SCS215a	20101115.143614	20101115.150353	8	0.013328	60	10	60-180	60	75	GapExp	0	247	2	45	0	target	0	400	-1000	139073	13.328	13.074	13.577
ProbeTrack11	21	ProbeTrack	11.2	SCS215a	20101115.143614	20101115.150359	8	0.013328	60	10	60-180	60	92	GapExp	0	248	2	45	1	target	1	520	740	139813	13.328	12.921	13.744
ProbeTrack11	21	ProbeTrack	11.2	SCS215a	20101115.143614	20101115.150405	8	0.013328	60	0	60-180	60	124	GapExp	0	249	2	0	1	target	1	400	800	140613	13.328	13.105	13.544
ProbeTrack11	21	ProbeTrack	11.2	SCS215a	20101115.143614	20101115.150411	8	0.013328	60	0	60-180	60	91	GapExp	0	250	2	3	0	distractor	1	600	700	141313	13.328	12.962	13.697
ProbeTrack11	21	ProbeTrack	11.2	SCS215a	20101115.143614	20101115.150416	8	0.013328	60	0	60-180	60	61	GapExp	0	251	2	45	1	target	1	560	720	142033	13.328	13.310	13.350
ProbeTrack11	21	ProbeTrack	11.2	SCS215a	20101115.143614	20101115.150422	8	0.013328	60	0	60-180	60	155	GapExp	0	252	2	0	1	target	1	400	800	142833	13.328	13.022	13.639
ProbeTrack11	21	ProbeTrack	11.2	SCS215a	20101115.143614	20101115.150429	8	0.013328	60	0	60-180	60	108	GapExp	0	253	2	3	1	target	1	440	780	143613	13.328	13.305	13.347
ProbeTrack11	21	ProbeTrack	11.2	SCS215a	20101115.143614	20101115.150435	8	0.013328	60	10	60-180	60	105	GapExp	0	254	2	3	1	target	1	534	733	144346	13.328	13.232	13.427
ProbeTrack11	21	ProbeTrack	11.2	SCS215a	20101115.143614	20101115.150441	8	0.013328	60	0	60-180	60	130	GapExp	0	255	2	0	1	target	1	387	807	145153	13.328	13.298	13.356
ProbeTrack11	21	ProbeTrack	11.2	SCS215a	20101115.143614	20101115.150447	8	0.013328	60	10	60-180	60	118	GapExp	0	256	2	0	0	target	0	800	-1000	144153	13.328	13.309	13.347
ProbeTrack11	21	ProbeTrack	11.2	SCS215a	20101115.143614	20101115.150455	8	0.013328	60	0	60-180	60	117	GapExp	0	257	2	3	1	target	1	454	773	144926	13.328	13.095	13.554
ProbeTrack11	21	ProbeTrack	11.2	SCS215a	20101115.143614	20101115.150500	8	0.013328	60	10	60-180	60	88	GapExp	0	258	2	1	1	target	1	574	713	145639	13.328	12.873	13.780
ProbeTrack11	21	ProbeTrack	11.2	SCS215a	20101115.143614	20101115.150506	8	0.013328	60	0	60-180	60	63	GapExp	0	259	2	45	0	target	0	400	-1000	144639	13.328	13.306	13.347
ProbeTrack11	21	ProbeTrack	11.2	SCS215a	20101115.143614	20101115.150511	8	0.013328	60	10	60-180	60	103	GapExp	0	260	2	45	1	target	1	480	760	145399	13.328	13.308	13.346
ProbeTrack11	21	ProbeTrack	11.2	SCS215a	20101115.143614	20101115.150518	8	0.013328	60	0	60-180	60	175	GapExp	0	261	2	1	1	target	1	400	800	146199	13.328	12.909	13.736
ProbeTrack11	21	ProbeTrack	11.2	SCS215a	20101115.143614	20101115.150524	8	0.013328	60	10	60-180	60	116	GapExp	0	262	2	1	0	distractor	1	773	614	146813	13.328	13.308	13.347
ProbeTrack11	21	ProbeTrack	11.2	SCS215a	20101115.143614	20101115.150531	8	0.013328	60	0	60-180	60	80	GapExp	0	263	2	0	0	target	0	627	-1000	145813	13.328	13.208	13.442
ProbeTrack11	21	ProbeTrack	11.2	SCS215a	20101115.143614	20101115.150536	8	0.013328	60	0	60-180	60	67	GapExp	0	264	2	1	0	distractor	1	534	733	146546	13.328	12.930	13.730
ProbeTrack11	21	ProbeTrack	11.2	SCS215a	20101115.143614	20101115.150541	8	0.013328	60	10	60-180	60	149	GapExp	0	265	2	45	0	target	0	467	-1000	145546	13.328	13.116	13.544
ProbeTrack11	21	ProbeTrack	11.2	SCS215a	20101115.143614	20101115.150548	8	0.013328	60	0	60-180	60	166	GapExp	0	266	2	1	1	target	1	534	733	146279	13.328	13.191	13.453
ProbeTrack11	21	ProbeTrack	11.2	SCS215a	20101115.143614	20101115.150557	8	0.013328	60	0	60-180	60	172	GapExp	0	267	2	3	0	distractor	1	507	747	147026	13.328	13.100	13.545
ProbeTrack11	21	ProbeTrack	11.2	SCS215a	20101115.143614	20101115.150603	8	0.013328	60	10	60-180	60	107	GapExp	0	268	2	3	0	target	0	1107	-1000	146026	13.328	13.115	13.549
ProbeTrack11	21	ProbeTrack	11.2	SCS215a	20101115.143614	20101115.150610	8	0.013328	60	0	60-180	60	134	GapExp	0	269	2	3	0	distractor	1	613	694	146720	13.328	12.887	13.769
ProbeTrack11	21	ProbeTrack	11.2	SCS215a	20101115.143614	20101115.150616	8	0.013328	60	0	60-180	60	127	GapExp	0	270	2	1	0	distractor	1	667	667	147387	13.328	12.946	13.709
ProbeTrack11	21	ProbeTrack	11.2	SCS215a	20101115.143614	20101115.150622	8	0.013328	60	10	60-180	60	67	GapExp	0	271	2	3	1	target	1	467	767	148154	13.328	13.080	13.587
ProbeTrack11	21	ProbeTrack	11.2	SCS215a	20101115.143614	20101115.150627	8	0.013328	60	10	60-180	60	75	GapExp	0	272	2	1	1	target	1	667	667	148821	13.328	13.020	13.627
ProbeTrack11	21	ProbeTrack	11.2	SCS215a	20101115.143614	20101115.150632	8	0.013328	60	0	60-180	60	97	GapExp	0	273	2	45	0	distractor	1	547	727	149548	13.328	12.879	13.771
ProbeTrack11	21	ProbeTrack	11.2	SCS215a	20101115.143614	20101115.150638	8	0.013328	60	10	60-180	60	85	GapExp	0	274	2	0	1	target	1	560	720	150268	13.328	12.887	13.780
ProbeTrack11	21	ProbeTrack	11.2	SCS215a	20101115.143614	20101115.150644	8	0.013328	60	10	60-180	60	62	GapExp	0	275	2	0	0	target	0	880	-1000	149268	13.328	12.893	13.764
ProbeTrack11	21	ProbeTrack	11.2	SCS215a	20101115.143614	20101115.150652	8	0.013328	60	0	60-180	60	154	GapExp	0	276	2	0	0	distractor	1	547	727	149995	13.328	13.095	13.557
ProbeTrack11	21	ProbeTrack	11.2	SCS215a	20101115.143614	20101115.150659	8	0.013328	60	10	60-180	60	128	GapExp	0	277	2	45	0	distractor	1	547	727	150722	13.328	12.921	13.744
ProbeTrack11	21	ProbeTrack	11.2	SCS215a	20101115.143614	20101115.150707	8	0.013328	60	0	60-180	60	76	GapExp	0	278	2	1	0	distractor	1	613	694	151416	13.328	12.926	13.713
ProbeTrack11	21	ProbeTrack	11.2	SCS215a	20101115.143614	20101115.150712	8	0.013328	60	0	60-180	60	78	GapExp	0	279	2	1	1	target	1	827	587	152003	13.328	13.098	13.558
ProbeTrack11	21	ProbeTrack	11.2	SCS215a	20101115.143614	20101115.150718	8	0.013328	60	10	60-180	60	148	GapExp	0	280	2	1	0	distractor	1	480	760	152763	13.328	13.103	13.522
ProbeTrack11	21	ProbeTrack	11.2	SCS215a	20101115.143614	20101115.150725	8	0.013328	60	10	60-180	60	64	GapExp	0	281	2	45	1	target	1	467	767	153530	13.328	12.891	13.757
ProbeTrack11	21	ProbeTrack	11.2	SCS215a	20101115.143614	20101115.150731	8	0.013328	60	10	60-180	60	71	GapExp	0	282	2	45	0	target	0	427	-1000	152530	13.328	12.946	13.724
ProbeTrack11	21	ProbeTrack	11.2	SCS215a	20101115.143614	20101115.150738	8	0.013328	60	0	60-180	60	95	GapExp	0	283	2	1	1	target	1	520	740	153270	13.328	13.307	13.347
ProbeTrack11	21	ProbeTrack	11.2	SCS215a	20101115.143614	20101115.150744	8	0.013328	60	0	60-180	60	157	GapExp	0	284	2	3	0	distractor	1	627	687	153957	13.328	12.871	13.795
ProbeTrack11	21	ProbeTrack	11.2	SCS215a	20101115.143614	20101115.150750	8	0.013328	60	10	60-180	60	61	GapExp	0	285	2	1	0	distractor	1	640	680	154637	13.328	12.936	13.738
ProbeTrack11	21	ProbeTrack	11.2	SCS215a	20101115.143614	20101115.150756	8	0.013328	60	0	60-180	60	166	GapExp	0	286	2	0	1	target	1	400	800	155437	13.328	12.845	13.814
ProbeTrack11	21	ProbeTrack	11.2	SCS215a	20101115.143614	20101115.150802	8	0.013328	60	0	60-180	60	67	GapExp	0	287	2	45	0	distractor	1	720	640	156077	13.328	12.853	13.803
ProbeTrack11	21	ProbeTrack	11.2	SCS215a	20101115.143614	20101115.150808	8	0.013328	60	0	60-180	60	133	GapExp	0	288	2	45	0	target	0	427	-1000	155077	13.328	13.108	13.555
ProbeTrack11	21	ProbeTrack	11.2	SCS215a	20101115.143614	20101115.150817	8	0.013328	60	0	60-180	60	165	GapExp	0	289	2	1	1	distractor	0	520	-1000	154077	13.328	13.073	13.574
ProbeTrack11	21	ProbeTrack	11.2	SCS215a	20101115.143614	20101115.150823	8	0.013328	60	0	60-180	60	129	GapExp	0	290	2	3	0	distractor	1	640	680	154757	13.328	13.098	13.562
ProbeTrack11	21	ProbeTrack	11.2	SCS215a	20101115.143614	20101115.150829	8	0.013328	60	10	60-180	60	174	GapExp	0	291	2	45	1	target	1	787	607	155364	13.328	12.890	13.780
ProbeTrack11	21	ProbeTrack	11.2	SCS215a	20101115.143614	20101115.150837	8	0.013328	60	0	60-180	60	89	GapExp	0	292	2	45	1	target	1	574	713	156077	13.328	13.308	13.354
ProbeTrack11	21	ProbeTrack	11.2	SCS215a	20101115.143614	20101115.150843	8	0.013328	60	0	60-180	60	149	GapExp	0	293	2	0	0	distractor	1	547	727	156804	13.328	13.086	13.568
ProbeTrack11	21	ProbeTrack	11.2	SCS215a	20101115.143614	20101115.150850	8	0.013328	60	0	60-180	60	139	GapExp	0	294	2	1	0	distractor	1	547	727	157531	13.328	13.096	13.563
ProbeTrack11	21	ProbeTrack	11.2	SCS215a	20101115.143614	20101115.150856	8	0.013328	60	0	60-180	60	158	GapExp	0	295	2	0	1	target	1	347	827	158358	13.328	13.097	13.563
ProbeTrack11	21	ProbeTrack	11.2	SCS215a	20101115.143614	20101115.150903	8	0.013328	60	0	60-180	60	173	GapExp	0	296	2	1	1	target	1	467	767	159125	13.328	12.846	13.802
ProbeTrack11	21	ProbeTrack	11.2	SCS215a	20101115.143614	20101115.150910	8	0.013328	60	10	60-180	60	160	GapExp	0	297	2	1	1	target	1	387	807	159932	13.328	12.912	13.755
ProbeTrack11	21	ProbeTrack	11.2	SCS215a	20101115.143614	20101115.150916	8	0.013328	60	0	60-180	60	174	GapExp	0	298	2	0	1	target	1	480	760	160692	13.328	13.014	13.631
ProbeTrack11	21	ProbeTrack	11.2	SCS215a	20101115.143614	20101115.150923	8	0.013328	60	10	60-180	60	168	GapExp	0	299	2	45	0	distractor	1	920	540	161232	13.328	12.870	13.779
ProbeTrack11	21	ProbeTrack	11.2	SCS215a	20101115.143614	20101115.150931	8	0.013328	60	0	60-180	60	165	GapExp	0	300	2	3	1	target	1	494	753	161985	13.328	12.934	13.727
ProbeTrack11	21	ProbeTrack	11.2	SCS215a	20101115.143614	20101115.150937	8	0.013328	60	10	60-180	60	103	GapExp	0	301	2	45	0	target	0	693	-1000	160985	13.328	12.974	13.670
ProbeTrack11	21	ProbeTrack	11.2	SCS215a	20101115.143614	20101115.150943	8	0.013328	60	0	60-180	60	172	GapExp	0	302	2	0	0	distractor	1	534	733	161718	13.328	12.882	13.758
ProbeTrack11	21	ProbeTrack	11.2	SCS215a	20101115.143614	20101115.150950	8	0.013328	60	0	60-180	60	84	GapExp	0	303	2	1	1	target	1	467	767	162485	13.328	12.980	13.676
ProbeTrack11	21	ProbeTrack	11.2	SCS215a	20101115.143614	20101115.150956	8	0.013328	60	10	60-180	60	90	GapExp	0	304	2	3	1	target	1	813	594	163079	13.328	12.885	13.755
ProbeTrack11	21	ProbeTrack	11.2	SCS215a	20101115.143614	20101115.151002	8	0.013328	60	0	60-180	60	104	GapExp	0	305	2	1	0	distractor	1	507	747	163826	13.328	13.113	13.556
ProbeTrack11	21	ProbeTrack	11.2	SCS215a	20101115.143614	20101115.151008	8	0.013328	60	0	60-180	60	67	GapExp	0	306	2	45	0	distractor	1	507	747	164573	13.328	12.848	13.790
ProbeTrack11	21	ProbeTrack	11.2	SCS215a	20101115.143614	20101115.151014	8	0.013328	60	0	60-180	60	176	GapExp	0	307	2	45	0	distractor	1	733	634	165207	13.328	12.925	13.756
ProbeTrack11	21	ProbeTrack	11.2	SCS215a	20101115.143614	20101115.151021	8	0.013328	60	0	60-180	60	115	GapExp	0	308	2	45	0	distractor	1	507	747	165954	13.328	12.977	13.702
ProbeTrack11	21	ProbeTrack	11.2	SCS215a	20101115.143614	20101115.151027	8	0.013328	60	0	60-180	60	123	GapExp	0	309	2	0	1	target	1	494	753	166707	13.326	12.844	13.351
ProbeTrack11	21	ProbeTrack	11.2	SCS215a	20101115.143614	20101115.151033	8	0.013328	60	10	60-180	60	123	GapExp	0	310	2	3	0	distractor	1	520	740	167447	13.328	12.972	13.549
ProbeTrack11	21	ProbeTrack	11.2	SCS215a	20101115.143614	20101115.151040	8	0.013328	60	10	60-180	60	138	GapExp	0	311	2	1	0	distractor	1	1227	387	167834	13.328	13.307	13.349
ProbeTrack11	21	ProbeTrack	11.2	SCS215a	20101115.143614	20101115.151046	8	0.013328	60	0	60-180	60	110	GapExp	0	312	2	1	1	target	1	400	800	168634	13.328	12.830	13.826
ProbeTrack11	21	ProbeTrack	11.2	SCS215a	20101115.143614	20101115.151052	8	0.013328	60	0	60-180	60	80	GapExp	0	313	2	0	0	distractor	1	653	674	169308	13.328	12.929	13.732
ProbeTrack11	21	ProbeTrack	11.2	SCS215a	20101115.143614	20101115.151057	8	0.013328	60	0	60-180	60	76	GapExp	0	314	2	3	0	distractor	1	640	680	169988	13.459	12.869	40.178
ProbeTrack11	21	ProbeTrack	11.2	SCS215a	20101115.143614	20101115.151103	8	0.013328	60	10	60-180	60	146	GapExp	0	315	2	3	1	target	1	440	780	170768	13.328	12.868	13.560
ProbeTrack11	21	ProbeTrack	11.2	SCS215a	20101115.143614	20101115.151109	8	0.013328	60	10	60-180	60	87	GapExp	0	316	2	45	0	distractor	1	827	587	171355	13.328	12.903	13.737
ProbeTrack11	21	ProbeTrack	11.2	SCS215a	20101115.143614	20101115.151116	8	0.013328	60	10	60-180	60	166	GapExp	0	317	2	45	0	distractor	1	534	733	172088	13.328	13.108	13.562
ProbeTrack11	21	ProbeTrack	11.2	SCS215a	20101115.143614	20101115.151123	8	0.013328	60	0	60-180	60	93	GapExp	0	318	2	0	1	target	1	454	773	172861	13.328	12.864	13.791
ProbeTrack11	21	ProbeTrack	11.2	SCS215a	20101115.143614	20101115.151128	8	0.013328	60	10	60-180	60	161	GapExp	0	319	2	45	1	target	1	440	780	173641	13.328	12.953	13.709
ProbeTrack11	21	ProbeTrack	11.2	SCS215a	20101115.143614	20101115.151136	8	0.013328	60	10	60-180	60	180	GapExp	0	320	2	3	1	target	1	414	793	174434	13.328	12.908	13.765
ProbeTrack11	21	ProbeTrack	11.2	SCS215a	20101115.143614	20101115.151143	8	0.013328	60	0	60-180	60	116	GapExp	0	321	2	0	0	distractor	1	733	634	175068	13.328	12.843	13.809
ProbeTrack11	21	ProbeTrack	11.2	SCS215a	20101115.143614	20101115.151149	8	0.013328	60	10	60-180	60	180	GapExp	0	322	2	3	0	distractor	1	640	680	175748	13.328	12.935	13.725
ProbeTrack11	21	ProbeTrack	11.2	SCS215a	20101115.143614	20101115.151156	8	0.013328	60	10	60-180	60	107	GapExp	0	323	2	0	1	target	1	387	807	176555	13.328	13.308	13.347
ProbeTrack11	21	ProbeTrack	11.2	SCS215a	20101115.143614	20101115.151201	8	0.013328	60	0	60-180	60	128	GapExp	0	324	2	45	0	distractor	1	1160	420	176975	13.328	12.998	13.664
ProbeTrack11	21	ProbeTrack	11.2	SCS215a	20101115.143614	20101115.151208	8	0.013328	60	10	60-180	60	145	GapExp	0	325	2	0	0	target	0	893	-1000	175975	13.328	13.113	13.558
ProbeTrack11	21	ProbeTrack	11.2	SCS215a	20101115.143614	20101115.151215	8	0.013328	60	0	60-180	60	123	GapExp	0	326	2	3	0	distractor	1	760	620	176595	13.328	12.872	13.778
ProbeTrack11	21	ProbeTrack	11.2	SCS215a	20101115.143614	20101115.151221	8	0.013328	60	0	60-180	60	105	GapExp	0	327	2	1	1	target	1	694	653	177248	13.328	12.910	13.741
ProbeTrack11	21	ProbeTrack	11.2	SCS215a	20101115.143614	20101115.151227	8	0.013328	60	0	60-180	60	67	GapExp	0	328	2	3	0	distractor	1	680	660	177908	13.328	13.308	13.346
ProbeTrack11	21	ProbeTrack	11.2	SCS215a	20101115.143614	20101115.151232	8	0.013328	60	10	60-180	60	153	GapExp	0	329	2	45	0	distractor	1	920	540	178448	13.329	12.914	13.741
ProbeTrack11	21	ProbeTrack	11.2	SCS215a	20101115.143614	20101115.151240	8	0.013328	60	10	60-180	60	135	GapExp	0	330	2	1	1	target	1	573	714	179162	13.328	13.310	13.347
ProbeTrack11	21	ProbeTrack	11.2	SCS215a	20101115.143614	20101115.151246	8	0.013328	60	10	60-180	60	98	GapExp	0	331	2	1	1	target	1	494	753	179915	13.328	13.015	13.522
ProbeTrack11	21	ProbeTrack	11.2	SCS215a	20101115.143614	20101115.151252	8	0.013328	60	10	60-180	60	76	GapExp	0	332	2	1	0	target	0	480	-1000	178915	13.328	13.309	13.346
ProbeTrack11	21	ProbeTrack	11.2	SCS215a	20101115.143614	20101115.151257	8	0.013328	60	10	60-180	60	66	GapExp	0	333	2	1	0	distractor	1	813	594	179509	13.328	13.086	13.560
ProbeTrack11	21	ProbeTrack	11.2	SCS215a	20101115.143614	20101115.151303	8	0.013328	60	10	60-180	60	65	GapExp	0	334	2	45	0	distractor	1	880	560	180069	13.328	13.067	13.589
ProbeTrack11	21	ProbeTrack	11.2	SCS215a	20101115.143614	20101115.151309	8	0.013328	60	0	60-180	60	161	GapExp	0	335	2	45	1	target	1	440	780	180849	13.328	13.097	13.570
ProbeTrack11	21	ProbeTrack	11.2	SCS215a	20101115.143614	20101115.151316	8	0.013328	60	0	60-180	60	175	GapExp	0	336	2	45	0	distractor	1	667	667	181516	13.328	13.088	13.565
ProbeTrack11	21	ProbeTrack	11.2	SCS215a	20101115.143614	20101115.151323	8	0.013328	60	10	60-180	60	175	GapExp	0	337	2	45	1	target	1	480	760	182276	13.328	12.918	13.731
ProbeTrack11	21	ProbeTrack	11.2	SCS215a	20101115.143614	20101115.151330	8	0.013328	60	10	60-180	60	63	GapExp	0	338	2	1	1	target	1	494	753	183029	13.328	12.549	14.096
ProbeTrack11	21	ProbeTrack	11.2	SCS215a	20101115.143614	20101115.151335	8	0.013328	60	0	60-180	60	147	GapExp	0	339	2	45	0	distractor	1	600	700	183729	13.328	13.062	13.598
ProbeTrack11	21	ProbeTrack	11.2	SCS215a	20101115.143614	20101115.151342	8	0.013328	60	0	60-180	60	111	GapExp	0	340	2	0	0	distractor	1	613	694	184423	13.328	13.307	13.348
ProbeTrack11	21	ProbeTrack	11.2	SCS215a	20101115.143614	20101115.151348	8	0.013328	60	10	60-180	60	107	GapExp	0	341	2	1	1	target	1	547	727	185150	13.328	13.305	13.348
ProbeTrack11	21	ProbeTrack	11.2	SCS215a	20101115.143614	20101115.151354	8	0.013328	60	10	60-180	60	159	GapExp	0	342	2	3	0	distractor	1	600	700	185850	13.328	13.275	13.371
ProbeTrack11	21	ProbeTrack	11.2	SCS215a	20101115.143614	20101115.151401	8	0.013328	60	10	60-180	60	92	GapExp	0	343	2	1	1	target	1	454	773	186623	13.328	12.874	13.791
ProbeTrack11	21	ProbeTrack	11.2	SCS215a	20101115.143614	20101115.151406	8	0.013328	60	10	60-180	60	96	GapExp	0	344	2	0	1	target	1	667	667	187290	13.328	12.978	13.681
ProbeTrack11	21	ProbeTrack	11.2	SCS215a	20101115.143614	20101115.151412	8	0.013328	60	0	60-180	60	172	GapExp	0	345	2	45	1	target	1	454	773	188063	13.328	12.945	13.695
ProbeTrack11	21	ProbeTrack	11.2	SCS215a	20101115.143614	20101115.151419	8	0.013328	60	0	60-180	60	151	GapExp	0	346	2	45	0	distractor	1	733	634	188697	13.328	12.980	13.689
ProbeTrack11	21	ProbeTrack	11.2	SCS215a	20101115.143614	20101115.151427	8	0.013328	60	0	60-180	60	172	GapExp	0	347	2	0	0	distractor	1	893	554	189251	13.371	13.095	26.693
ProbeTrack11	21	ProbeTrack	11.2	SCS215a	20101115.143614	20101115.151434	8	0.013328	60	10	60-180	60	62	GapExp	0	348	2	0	0	distractor	1	614	693	189944	13.396	13.099	26.674
ProbeTrack11	21	ProbeTrack	11.2	SCS215a	20101115.143614	20101115.151439	8	0.013328	60	10	60-180	60	170	GapExp	0	349	2	1	1	target	1	1360	320	190264	13.328	12.497	14.155
ProbeTrack11	21	ProbeTrack	11.2	SCS215a	20101115.143614	20101115.151447	8	0.013328	60	10	60-180	60	103	GapExp	0	350	2	3	1	target	1	600	700	190964	13.328	13.098	13.561
ProbeTrack11	21	ProbeTrack	11.2	SCS215a	20101115.143614	20101115.151453	8	0.013328	60	10	60-180	60	66	GapExp	0	351	2	3	1	target	1	387	807	191771	13.328	13.219	13.426
ProbeTrack11	21	ProbeTrack	11.2	SCS215a	20101115.143614	20101115.151629	8	0.013328	60	0	60-180	60	178	GapExp	0	352	2	45	0	distractor	1	600	700	192471	13.328	13.215	13.445
ProbeTrack11	21	ProbeTrack	11.2	SCS215a	20101115.143614	20101115.151637	8	0.013328	60	0	60-180	60	118	GapExp	0	353	2	3	0	distractor	1	693	654	193125	13.328	13.153	13.499
ProbeTrack11	21	ProbeTrack	11.2	SCS215a	20101115.143614	20101115.151644	8	0.013328	60	10	60-180	60	134	GapExp	0	354	2	45	1	target	1	374	813	193938	13.328	12.920	13.739
ProbeTrack11	21	ProbeTrack	11.2	SCS215a	20101115.143614	20101115.151650	8	0.013328	60	10	60-180	60	132	GapExp	0	355	2	0	0	target	0	920	-1000	192938	13.328	12.867	13.801
ProbeTrack11	21	ProbeTrack	11.2	SCS215a	20101115.143614	20101115.151657	8	0.013328	60	10	60-180	60	180	GapExp	0	356	2	0	1	target	1	467	767	193705	13.328	12.970	13.678
ProbeTrack11	21	ProbeTrack	11.2	SCS215a	20101115.143614	20101115.151703	8	0.013328	60	0	60-180	60	168	GapExp	0	357	2	45	1	target	1	414	793	194498	13.328	12.995	13.651
ProbeTrack11	21	ProbeTrack	11.2	SCS215a	20101115.143614	20101115.151710	8	0.013328	60	10	60-180	60	164	GapExp	0	358	2	45	0	distractor	1	640	680	195178	13.328	13.309	13.346
ProbeTrack11	21	ProbeTrack	11.2	SCS215a	20101115.143614	20101115.151718	8	0.013328	60	0	60-180	60	70	GapExp	0	359	2	1	0	distractor	1	760	620	195798	13.328	12.918	13.729
ProbeTrack11	21	ProbeTrack	11.2	SCS215a	20101115.143614	20101115.151724	8	0.013328	60	0	60-180	60	156	GapExp	0	360	2	3	1	target	1	467	767	196565	13.328	13.090	13.570
ProbeTrack11	21	ProbeTrack	11.2	SCS215a	20101115.143614	20101115.151730	8	0.013328	60	0	60-180	60	120	GapExp	0	361	2	3	0	distractor	1	547	727	197292	13.328	12.978	13.680
ProbeTrack11	21	ProbeTrack	11.2	SCS215a	20101115.143614	20101115.151736	8	0.013328	60	0	60-180	60	130	GapExp	0	362	2	1	1	target	1	427	787	198079	13.328	13.088	13.563
ProbeTrack11	21	ProbeTrack	11.2	SCS215a	20101115.143614	20101115.151742	8	0.013328	60	0	60-180	60	104	GapExp	0	363	2	1	0	distractor	1	694	653	198732	13.328	13.097	13.555
ProbeTrack11	21	ProbeTrack	11.2	SCS215a	20101115.143614	20101115.151747	8	0.013328	60	0	60-180	60	143	GapExp	0	364	2	45	1	target	1	374	813	199545	13.328	13.307	13.347
ProbeTrack11	21	ProbeTrack	11.2	SCS215a	20101115.143614	20101115.151754	8	0.013328	60	10	60-180	60	114	GapExp	0	365	2	45	0	distractor	1	560	720	200265	13.328	13.034	13.622
ProbeTrack11	21	ProbeTrack	11.2	SCS215a	20101115.143614	20101115.151801	8	0.013328	60	0	60-180	60	176	GapExp	0	366	2	1	0	distractor	1	547	727	200992	13.328	12.969	13.681
ProbeTrack11	21	ProbeTrack	11.2	SCS215a	20101115.143614	20101115.151808	8	0.013328	60	0	60-180	60	176	GapExp	0	367	2	3	1	distractor	0	427	-1000	199992	13.328	12.905	13.748
ProbeTrack11	21	ProbeTrack	11.2	SCS215a	20101115.143614	20101115.151815	8	0.013328	60	10	60-180	60	110	GapExp	0	368	2	0	0	distractor	1	534	733	200725	13.328	13.309	13.348
ProbeTrack11	21	ProbeTrack	11.2	SCS215a	20101115.143614	20101115.151821	8	0.013328	60	10	60-180	60	159	GapExp	0	369	2	0	1	target	1	414	793	201518	13.328	13.308	13.346
ProbeTrack11	21	ProbeTrack	11.2	SCS215a	20101115.143614	20101115.151827	8	0.013328	60	10	60-180	60	150	GapExp	0	370	2	0	1	target	1	494	753	202271	13.328	13.039	13.609
ProbeTrack11	21	ProbeTrack	11.2	SCS215a	20101115.143614	20101115.151834	8	0.013328	60	0	60-180	60	121	GapExp	0	371	2	0	1	target	1	480	760	203031	13.328	12.917	13.739
ProbeTrack11	21	ProbeTrack	11.2	SCS215a	20101115.143614	20101115.151839	8	0.013328	60	10	60-180	60	135	GapExp	0	372	2	0	1	target	1	467	767	203798	13.328	13.118	13.552
ProbeTrack11	21	ProbeTrack	11.2	SCS215a	20101115.143614	20101115.151846	8	0.013328	60	10	60-180	60	121	GapExp	0	373	2	1	0	distractor	1	520	740	204538	13.328	13.110	13.557
ProbeTrack11	21	ProbeTrack	11.2	SCS215a	20101115.143614	20101115.151852	8	0.013328	60	10	60-180	60	143	GapExp	0	374	2	0	0	distractor	1	534	733	205271	13.328	12.910	13.746
ProbeTrack11	21	ProbeTrack	11.2	SCS215a	20101115.143614	20101115.151858	8	0.013328	60	10	60-180	60	140	GapExp	0	375	2	1	0	distractor	1	467	767	206038	13.328	13.035	13.623
ProbeTrack11	21	ProbeTrack	11.2	SCS215a	20101115.143614	20101115.151904	8	0.013328	60	10	60-180	60	107	GapExp	0	376	2	0	1	target	1	480	760	206798	13.328	13.308	13.346
ProbeTrack11	21	ProbeTrack	11.2	SCS215a	20101115.143614	20101115.151910	8	0.013328	60	10	60-180	60	96	GapExp	0	377	2	0	1	target	1	467	767	207565	13.328	13.303	13.346
ProbeTrack11	21	ProbeTrack	11.2	SCS215a	20101115.143614	20101115.151916	8	0.013328	60	0	60-180	60	164	GapExp	0	378	2	45	0	target	0	560	-1000	206565	13.328	12.853	13.796
ProbeTrack11	21	ProbeTrack	11.2	SCS215a	20101115.143614	20101115.151923	8	0.013328	60	10	60-180	60	160	GapExp	0	379	2	3	0	target	0	707	-1000	205565	13.328	12.866	13.786
ProbeTrack11	21	ProbeTrack	11.2	SCS215a	20101115.143614	20101115.151930	8	0.013328	60	0	60-180	60	129	GapExp	0	380	2	1	0	distractor	1	613	694	206259	13.328	13.309	13.344
ProbeTrack11	21	ProbeTrack	11.2	SCS215a	20101115.143614	20101115.151937	8	0.013328	60	10	60-180	60	176	GapExp	0	381	2	0	1	target	1	494	753	207012	13.328	13.309	13.346
ProbeTrack11	21	ProbeTrack	11.2	SCS215a	20101115.143614	20101115.151944	8	0.013328	60	0	60-180	60	83	GapExp	0	382	2	1	1	target	1	534	733	207745	13.328	13.309	13.351
ProbeTrack11	21	ProbeTrack	11.2	SCS215a	20101115.143614	20101115.151950	8	0.013328	60	0	60-180	60	156	GapExp	0	383	2	45	0	distractor	1	560	720	208465	13.328	13.024	13.626
ProbeTrack11	21	ProbeTrack	11.2	SCS215a	20101115.143614	20101115.151957	8	0.013328	60	10	60-180	60	83	GapExp	0	384	2	3	0	distractor	1	467	767	209232	13.328	12.995	13.671
ProbeTrack11	21	ProbeTrack	11.2	SCS215a	20101115.143614	20101115.152003	8	0.013328	60	0	60-180	60	97	GapExp	0	385	2	1	1	target	1	440	780	210012	13.328	13.001	13.655
ProbeTrack11	21	ProbeTrack	11.2	SCS215a	20101115.143614	20101115.152008	8	0.013328	60	0	60-180	60	112	GapExp	0	386	2	1	0	distractor	1	507	747	210759	13.328	13.079	13.589
ProbeTrack11	21	ProbeTrack	11.2	SCS215a	20101115.143614	20101115.152014	8	0.013328	60	10	60-180	60	163	GapExp	0	387	2	3	0	distractor	1	600	700	211459	13.328	12.890	13.778
ProbeTrack11	21	ProbeTrack	11.2	SCS215a	20101115.143614	20101115.152021	8	0.013328	60	0	60-180	60	175	GapExp	0	388	2	1	1	target	1	440	780	212239	13.328	13.311	13.345
ProbeTrack11	21	ProbeTrack	11.2	SCS215a	20101115.143614	20101115.152027	8	0.013328	60	0	60-180	60	131	GapExp	0	389	2	3	0	distractor	1	720	640	212879	13.328	13.308	13.346
ProbeTrack11	21	ProbeTrack	11.2	SCS215a	20101115.143614	20101115.152034	8	0.013328	60	10	60-180	60	143	GapExp	0	390	2	3	0	distractor	1	720	640	213519	13.328	12.968	13.679
ProbeTrack11	21	ProbeTrack	11.2	SCS215a	20101115.143614	20101115.152040	8	0.013328	60	10	60-180	60	151	GapExp	0	391	2	0	1	target	1	667	667	214186	13.328	13.305	13.348
ProbeTrack11	21	ProbeTrack	11.2	SCS215a	20101115.143614	20101115.152048	8	0.013328	60	0	60-180	60	152	GapExp	0	392	2	1	1	target	1	507	747	214933	13.328	13.018	13.638
ProbeTrack11	21	ProbeTrack	11.2	SCS215a	20101115.143614	20101115.152055	8	0.013328	60	0	60-180	60	126	GapExp	0	393	2	45	1	target	1	534	733	215666	13.328	13.307	13.347
ProbeTrack11	21	ProbeTrack	11.2	SCS215a	20101115.143614	20101115.152101	8	0.013328	60	10	60-180	60	68	GapExp	0	394	2	0	1	target	1	773	614	216280	13.328	13.307	13.348
ProbeTrack11	21	ProbeTrack	11.2	SCS215a	20101115.143614	20101115.152107	8	0.013328	60	10	60-180	60	100	GapExp	0	395	2	45	1	target	1	480	760	217040	13.328	13.098	13.549
ProbeTrack11	21	ProbeTrack	11.2	SCS215a	20101115.143614	20101115.152113	8	0.013328	60	0	60-180	60	147	GapExp	0	396	2	45	0	distractor	1	800	600	217640	13.328	12.955	13.690
ProbeTrack11	21	ProbeTrack	11.2	SCS215a	20101115.143614	20101115.152120	8	0.013328	60	0	60-180	60	85	GapExp	0	397	2	1	0	distractor	1	693	654	218294	13.328	13.063	13.593
ProbeTrack11	21	ProbeTrack	11.2	SCS215a	20101115.143614	20101115.152126	8	0.013328	60	10	60-180	60	96	GapExp	0	398	2	45	1	distractor	0	427	-1000	217294	13.328	13.098	13.555
ProbeTrack11	21	ProbeTrack	11.2	SCS215a	20101115.143614	20101115.152132	8	0.013328	60	0	60-180	60	168	GapExp	0	399	2	3	1	target	1	627	687	217981	13.328	13.303	13.351
ProbeTrack11	21	ProbeTrack	11.2	SCS215a	20101115.143614	20101115.152138	8	0.013328	60	10	60-180	60	88	GapExp	0	400	2	3	1	target	1	534	733	218714	13.328	12.906	13.753
ProbeTrack11	21	ProbeTrack	11.2	SCS215a	20101115.143614	20101115.152156	8	0.013328	60	0	60-180	60	106	GapExp	0	401	2	1	1	target	1	374	813	219527	13.327	13.107	13.347
ProbeTrack11	21	ProbeTrack	11.2	SCS215a	20101115.143614	20101115.152202	8	0.013328	60	0	60-180	60	160	GapExp	0	402	2	1	1	target	1	360	820	220347	13.330	13.103	13.789
ProbeTrack11	21	ProbeTrack	11.2	SCS215a	20101115.143614	20101115.152208	8	0.013328	60	10	60-180	60	141	GapExp	0	403	2	3	1	target	1	547	727	221074	13.328	13.105	13.549
ProbeTrack11	21	ProbeTrack	11.2	SCS215a	20101115.143614	20101115.152215	8	0.013328	60	0	60-180	60	67	GapExp	0	404	2	0	0	distractor	1	653	674	221748	13.328	13.100	13.571
ProbeTrack11	21	ProbeTrack	11.2	SCS215a	20101115.143614	20101115.152221	8	0.013328	60	10	60-180	60	141	GapExp	0	405	2	0	0	distractor	1	560	720	222468	13.328	12.955	13.703
ProbeTrack11	21	ProbeTrack	11.2	SCS215a	20101115.143614	20101115.152227	8	0.013328	60	0	60-180	60	109	GapExp	0	406	2	3	0	distractor	1	827	587	223055	13.328	13.309	13.346
ProbeTrack11	21	ProbeTrack	11.2	SCS215a	20101115.143614	20101115.152233	8	0.013328	60	0	60-180	60	117	GapExp	0	407	2	45	1	target	1	454	773	223828	13.328	12.993	13.657
ProbeTrack11	21	ProbeTrack	11.2	SCS215a	20101115.143614	20101115.152239	8	0.013328	60	10	60-180	60	167	GapExp	0	408	2	3	0	distractor	1	613	694	224522	13.328	13.307	13.349
ProbeTrack11	21	ProbeTrack	11.2	SCS215a	20101115.143614	20101115.152246	8	0.013328	60	0	60-180	60	154	GapExp	0	409	2	3	1	target	1	480	760	225282	13.328	13.309	13.346
ProbeTrack11	21	ProbeTrack	11.2	SCS215a	20101115.143614	20101115.152252	8	0.013328	60	10	60-180	60	147	GapExp	0	410	2	1	1	target	1	374	813	226095	13.328	13.090	13.576
ProbeTrack11	21	ProbeTrack	11.2	SCS215a	20101115.143614	20101115.152258	8	0.013328	60	0	60-180	60	153	GapExp	0	411	2	45	1	target	1	427	787	226882	13.328	13.248	13.416
ProbeTrack11	21	ProbeTrack	11.2	SCS215a	20101115.143614	20101115.152305	8	0.013328	60	10	60-180	60	150	GapExp	0	412	2	0	0	target	0	720	-1000	225882	13.328	12.862	13.800
ProbeTrack11	21	ProbeTrack	11.2	SCS215a	20101115.143614	20101115.152312	8	0.013328	60	10	60-180	60	156	GapExp	0	413	2	45	0	target	0	454	-1000	224882	13.328	12.917	13.742
ProbeTrack11	21	ProbeTrack	11.2	SCS215a	20101115.143614	20101115.152321	8	0.013328	60	0	60-180	60	115	GapExp	0	414	2	0	0	distractor	1	614	693	225575	13.328	12.863	13.796
ProbeTrack11	21	ProbeTrack	11.2	SCS215a	20101115.143614	20101115.152327	8	0.013328	60	10	60-180	60	100	GapExp	0	415	2	3	1	target	1	440	780	226355	13.328	13.098	13.553
ProbeTrack11	21	ProbeTrack	11.2	SCS215a	20101115.143614	20101115.152332	8	0.013328	60	10	60-180	60	119	GapExp	0	416	2	0	1	target	1	427	787	227142	13.328	12.906	13.749
ProbeTrack11	21	ProbeTrack	11.2	SCS215a	20101115.143614	20101115.152338	8	0.013328	60	10	60-180	60	91	GapExp	0	417	2	45	1	distractor	0	427	-1000	226142	13.328	13.101	13.559
ProbeTrack11	21	ProbeTrack	11.2	SCS215a	20101115.143614	20101115.152344	8	0.013328	60	10	60-180	60	160	GapExp	0	418	2	0	0	distractor	1	693	654	226796	13.328	13.043	13.610
ProbeTrack11	21	ProbeTrack	11.2	SCS215a	20101115.143614	20101115.152351	8	0.013328	60	10	60-180	60	115	GapExp	0	419	2	0	1	target	1	387	807	227603	13.328	13.256	13.402
ProbeTrack11	21	ProbeTrack	11.2	SCS215a	20101115.143614	20101115.152357	8	0.013328	60	0	60-180	60	111	GapExp	0	420	2	45	1	target	1	440	780	228383	13.328	13.310	13.346
ProbeTrack11	21	ProbeTrack	11.2	SCS215a	20101115.143614	20101115.152403	8	0.013328	60	0	60-180	60	131	GapExp	0	421	2	1	1	target	1	520	740	229123	13.328	13.307	13.350
ProbeTrack11	21	ProbeTrack	11.2	SCS215a	20101115.143614	20101115.152410	8	0.013328	60	0	60-180	60	129	GapExp	0	422	2	1	0	distractor	1	653	674	229797	13.328	13.032	13.635
ProbeTrack11	21	ProbeTrack	11.2	SCS215a	20101115.143614	20101115.152416	8	0.013328	60	0	60-180	60	151	GapExp	0	423	2	1	0	distractor	1	760	620	230417	13.328	13.106	13.551
ProbeTrack11	21	ProbeTrack	11.2	SCS215a	20101115.143614	20101115.152423	8	0.013328	60	0	60-180	60	79	GapExp	0	424	2	45	0	distractor	1	627	687	231104	13.328	12.963	13.690
ProbeTrack11	21	ProbeTrack	11.2	SCS215a	20101115.143614	20101115.152429	8	0.013328	60	0	60-180	60	125	GapExp	0	425	2	45	0	distractor	1	547	727	231831	13.328	13.118	13.539
ProbeTrack11	21	ProbeTrack	11.2	SCS215a	20101115.143614	20101115.152436	8	0.013328	60	0	60-180	60	75	GapExp	0	426	2	3	1	target	1	747	627	232458	13.328	13.097	13.562
ProbeTrack11	21	ProbeTrack	11.2	SCS215a	20101115.143614	20101115.152442	8	0.013328	60	0	60-180	60	135	GapExp	0	427	2	3	1	target	1	534	733	233191	13.328	12.840	13.804
ProbeTrack11	21	ProbeTrack	11.2	SCS215a	20101115.143614	20101115.152448	8	0.013328	60	10	60-180	60	81	GapExp	0	428	2	1	1	target	1	347	827	234018	13.328	13.007	13.634
ProbeTrack11	21	ProbeTrack	11.2	SCS215a	20101115.143614	20101115.152453	8	0.013328	60	10	60-180	60	121	GapExp	0	429	2	1	1	target	1	374	813	234831	13.328	13.216	13.442
ProbeTrack11	21	ProbeTrack	11.2	SCS215a	20101115.143614	20101115.152459	8	0.013328	60	10	60-180	60	91	GapExp	0	430	2	1	0	target	0	454	-1000	233831	13.328	13.098	13.548
ProbeTrack11	21	ProbeTrack	11.2	SCS215a	20101115.143614	20101115.152504	8	0.013328	60	0	60-180	60	171	GapExp	0	431	2	3	0	distractor	1	693	654	234485	13.328	13.102	13.558
ProbeTrack11	21	ProbeTrack	11.2	SCS215a	20101115.143614	20101115.152511	8	0.013328	60	10	60-180	60	64	GapExp	0	432	2	45	1	target	1	426	787	235272	13.328	12.929	13.726
ProbeTrack11	21	ProbeTrack	11.2	SCS215a	20101115.143614	20101115.152517	8	0.013328	60	0	60-180	60	82	GapExp	0	433	2	0	1	target	1	520	740	236012	13.328	13.310	13.346
ProbeTrack11	21	ProbeTrack	11.2	SCS215a	20101115.143614	20101115.152522	8	0.013328	60	0	60-180	60	113	GapExp	0	434	2	1	0	distractor	1	534	733	236745	13.328	12.850	13.794
ProbeTrack11	21	ProbeTrack	11.2	SCS215a	20101115.143614	20101115.152528	8	0.013328	60	10	60-180	60	178	GapExp	0	435	2	45	1	target	1	534	733	237478	13.328	13.276	13.376
ProbeTrack11	21	ProbeTrack	11.2	SCS215a	20101115.143614	20101115.152535	8	0.013328	60	10	60-180	60	107	GapExp	0	436	2	3	0	target	0	427	-1000	236478	13.328	12.886	13.772
ProbeTrack11	21	ProbeTrack	11.2	SCS215a	20101115.143614	20101115.152541	8	0.013328	60	0	60-180	60	116	GapExp	0	437	2	0	1	target	1	720	640	237118	13.328	13.117	13.553
ProbeTrack11	21	ProbeTrack	11.2	SCS215a	20101115.143614	20101115.152548	8	0.013328	60	0	60-180	60	176	GapExp	0	438	2	0	0	distractor	1	613	694	237812	13.328	13.309	13.344
ProbeTrack11	21	ProbeTrack	11.2	SCS215a	20101115.143614	20101115.152554	8	0.013328	60	10	60-180	60	152	GapExp	0	439	2	3	1	target	1	467	767	238579	13.328	13.031	13.629
ProbeTrack11	21	ProbeTrack	11.2	SCS215a	20101115.143614	20101115.152601	8	0.013328	60	0	60-180	60	125	GapExp	0	440	2	1	0	target	0	507	-1000	237579	13.328	13.093	13.554
ProbeTrack11	21	ProbeTrack	11.2	SCS215a	20101115.143614	20101115.152607	8	0.013328	60	10	60-180	60	78	GapExp	0	441	2	1	0	target	0	680	-1000	236579	13.328	13.310	13.347
ProbeTrack11	21	ProbeTrack	11.2	SCS215a	20101115.143614	20101115.152612	8	0.013328	60	0	60-180	60	80	GapExp	0	442	2	3	0	distractor	1	600	700	237279	13.328	12.985	13.669
ProbeTrack11	21	ProbeTrack	11.2	SCS215a	20101115.143614	20101115.152618	8	0.013328	60	0	60-180	60	120	GapExp	0	443	2	45	0	distractor	1	813	594	237873	13.328	13.301	13.354
ProbeTrack11	21	ProbeTrack	11.2	SCS215a	20101115.143614	20101115.152624	8	0.013328	60	10	60-180	60	143	GapExp	0	444	2	0	0	distractor	1	960	520	238393	13.328	13.306	13.348
ProbeTrack11	21	ProbeTrack	11.2	SCS215a	20101115.143614	20101115.152631	8	0.013328	60	10	60-180	60	68	GapExp	0	445	2	0	0	distractor	1	867	567	238960	13.328	12.951	13.711
ProbeTrack11	21	ProbeTrack	11.2	SCS215a	20101115.143614	20101115.152637	8	0.013328	60	0	60-180	60	171	GapExp	0	446	2	3	0	distractor	1	787	607	239567	13.370	12.898	26.644
ProbeTrack11	21	ProbeTrack	11.2	SCS215a	20101115.143614	20101115.152644	8	0.013328	60	10	60-180	60	94	GapExp	0	447	2	45	0	distractor	1	1093	454	240021	13.329	12.844	13.813
ProbeTrack11	21	ProbeTrack	11.2	SCS215a	20101115.143614	20101115.152650	8	0.013328	60	0	60-180	60	137	GapExp	0	448	2	45	1	target	1	680	660	240681	13.328	12.934	13.787
ProbeTrack11	21	ProbeTrack	11.2	SCS215a	20101115.143614	20101115.152657	8	0.013328	60	10	60-180	60	137	GapExp	0	449	2	0	1	distractor	0	973	-1000	239681	13.328	13.055	13.612
ProbeTrack11	21	ProbeTrack	11.2	SCS215a	20101115.143614	20101115.152704	8	0.013328	60	10	60-180	60	101	GapExp	0	450	2	3	1	target	1	560	720	240401	13.328	13.097	13.554
