exp	sub	code	rev	comp	runtime	trialtime	nstim	refreshdur	cuedur	gapdur	gapOnsetRange	durPostProbe	gapOnsetTime	blocktype	prac	trial	ntargets	soa	probeTarget	resp	acc	rt	pts	tpts	meanFrameDur	minFrameDur	maxFrameDur
ProbeTrack11	7	ProbeTrack	11.2	SCS215a	20100819.120017	20100819.120023	8	0.013328	60	0	60-180	60	68	NoGap	1	1	2	1	0	distractor	1	800	600	600	13.328	13.293	13.363
ProbeTrack11	7	ProbeTrack	11.2	SCS215a	20100819.120017	20100819.120054	8	0.013328	60	0	60-180	60	137	NoGap	1	2	2	3	1	target	1	640	680	1280	13.328	13.289	13.363
ProbeTrack11	7	ProbeTrack	11.2	SCS215a	20100819.120017	20100819.120103	8	0.013328	60	0	60-180	60	167	NoGap	1	3	2	3	0	distractor	1	534	733	2013	13.328	13.283	13.363
ProbeTrack11	7	ProbeTrack	11.2	SCS215a	20100819.120017	20100819.120114	8	0.013328	60	0	60-180	60	80	NoGap	1	4	2	1	1	target	1	600	700	2713	13.328	13.293	13.363
ProbeTrack11	7	ProbeTrack	11.2	SCS215a	20100819.120017	20100819.120120	8	0.013328	60	0	60-180	60	125	NoGap	1	5	2	3	0	distractor	1	534	733	3446	13.328	13.222	13.435
ProbeTrack11	7	ProbeTrack	11.2	SCS215a	20100819.120017	20100819.120131	8	0.013328	60	0	60-180	60	70	NoGap	1	6	2	0	1	target	1	587	707	4153	13.328	13.293	13.363
ProbeTrack11	7	ProbeTrack	11.2	SCS215a	20100819.120017	20100819.120136	8	0.013328	60	0	60-180	60	171	NoGap	1	7	2	0	1	target	1	574	713	4866	13.328	13.272	13.416
ProbeTrack11	7	ProbeTrack	11.2	SCS215a	20100819.120017	20100819.120145	8	0.013328	60	0	60-180	60	180	NoGap	1	8	2	0	0	distractor	1	574	713	5579	13.328	13.293	13.363
ProbeTrack11	7	ProbeTrack	11.2	SCS215a	20100819.120017	20100819.120152	8	0.013328	60	0	60-180	60	63	NoGap	1	9	2	45	0	distractor	1	614	693	6272	13.328	13.264	13.392
ProbeTrack11	7	ProbeTrack	11.2	SCS215a	20100819.120017	20100819.120159	8	0.013328	60	0	60-180	60	152	NoGap	1	10	2	0	1	target	1	547	727	6999	13.328	13.293	13.367
ProbeTrack11	7	ProbeTrack	11.2	SCS215a	20100819.120017	20100819.120206	8	0.013328	60	0	60-180	60	67	NoGap	1	11	2	45	1	target	1	520	740	7739	13.328	13.292	13.363
ProbeTrack11	7	ProbeTrack	11.2	SCS215a	20100819.120017	20100819.120212	8	0.013328	60	0	60-180	60	138	NoGap	1	12	2	1	0	distractor	1	800	600	8339	13.328	13.293	13.363
ProbeTrack11	7	ProbeTrack	11.2	SCS215a	20100819.120017	20100819.120219	8	0.013328	60	0	60-180	60	162	NoGap	1	13	2	1	1	target	1	480	760	9099	13.328	13.293	13.363
ProbeTrack11	7	ProbeTrack	11.2	SCS215a	20100819.120017	20100819.120226	8	0.013328	60	0	60-180	60	110	NoGap	1	14	2	3	1	target	1	547	727	9826	13.327	13.288	13.363
ProbeTrack11	7	ProbeTrack	11.2	SCS215a	20100819.120017	20100819.120233	8	0.013328	60	0	60-180	60	62	NoGap	1	15	2	45	0	distractor	1	614	693	10519	13.328	13.288	13.366
ProbeTrack11	7	ProbeTrack	11.2	SCS215a	20100819.120017	20100819.120239	8	0.013328	60	0	60-180	60	169	NoGap	1	16	2	0	1	target	1	574	713	11232	13.328	13.236	13.419
ProbeTrack11	7	ProbeTrack	11.2	SCS215a	20100819.120017	20100819.120246	8	0.013328	60	0	60-180	60	138	NoGap	1	17	2	1	1	target	1	600	700	11932	13.328	13.293	13.363
ProbeTrack11	7	ProbeTrack	11.2	SCS215a	20100819.120017	20100819.120253	8	0.013328	60	0	60-180	60	172	NoGap	1	18	2	3	1	target	1	494	753	12685	13.328	13.293	13.363
ProbeTrack11	7	ProbeTrack	11.2	SCS215a	20100819.120017	20100819.120301	8	0.013328	60	0	60-180	60	101	NoGap	1	19	2	3	0	distractor	1	800	600	13285	13.328	13.293	13.363
ProbeTrack11	7	ProbeTrack	11.2	SCS215a	20100819.120017	20100819.120309	8	0.013328	60	0	60-180	60	65	NoGap	1	20	2	45	1	target	1	574	713	13998	13.328	13.238	13.450
ProbeTrack11	7	ProbeTrack	11.2	SCS215a	20100819.120017	20100819.120315	8	0.013328	60	0	60-180	60	135	NoGap	1	21	2	45	0	distractor	1	613	694	14692	13.328	13.187	13.467
ProbeTrack11	7	ProbeTrack	11.2	SCS215a	20100819.120017	20100819.120323	8	0.013328	60	0	60-180	60	140	NoGap	1	22	2	45	1	target	1	520	740	15432	13.328	13.276	13.367
ProbeTrack11	7	ProbeTrack	11.2	SCS215a	20100819.120017	20100819.120330	8	0.013328	60	0	60-180	60	173	NoGap	1	23	2	45	0	target	0	680	-1000	14432	13.328	13.293	13.363
ProbeTrack11	7	ProbeTrack	11.2	SCS215a	20100819.120017	20100819.120338	8	0.013328	60	0	60-180	60	90	NoGap	1	24	2	45	1	target	1	654	673	15105	13.328	13.293	13.363
ProbeTrack11	7	ProbeTrack	11.2	SCS215a	20100819.120017	20100819.120346	8	0.013328	60	0	60-180	60	127	NoGap	1	25	2	0	0	distractor	1	374	813	15918	13.328	13.293	13.363
ProbeTrack11	7	ProbeTrack	11.2	SCS215a	20100819.120017	20100819.120352	8	0.013328	60	0	60-180	60	123	NoGap	1	26	2	45	0	distractor	1	560	720	16638	13.328	13.293	13.363
ProbeTrack11	7	ProbeTrack	11.2	SCS215a	20100819.120017	20100819.120359	8	0.013328	60	0	60-180	60	101	NoGap	1	27	2	0	0	distractor	1	707	647	17285	13.328	13.293	13.363
ProbeTrack11	7	ProbeTrack	11.2	SCS215a	20100819.120017	20100819.120405	8	0.013328	60	0	60-180	60	86	NoGap	1	28	2	3	0	distractor	1	507	747	18032	13.328	13.293	13.363
ProbeTrack11	7	ProbeTrack	11.2	SCS215a	20100819.120017	20100819.120411	8	0.013328	60	0	60-180	60	67	NoGap	1	29	2	0	0	distractor	1	614	693	18725	13.328	13.293	13.363
ProbeTrack11	7	ProbeTrack	11.2	SCS215a	20100819.120017	20100819.120416	8	0.013328	60	0	60-180	60	164	NoGap	1	30	2	1	1	target	1	587	707	19432	13.328	13.290	13.363
ProbeTrack11	7	ProbeTrack	11.2	SCS215a	20100819.120017	20100819.120423	8	0.013328	60	0	60-180	60	74	NoGap	1	31	2	0	0	distractor	1	667	667	20099	13.327	13.293	13.362
ProbeTrack11	7	ProbeTrack	11.2	SCS215a	20100819.120017	20100819.120429	8	0.013328	60	0	60-180	60	71	NoGap	1	32	2	3	1	target	1	414	793	20892	13.328	13.289	13.366
ProbeTrack11	7	ProbeTrack	11.2	SCS215a	20100819.120017	20100819.120435	8	0.013328	60	0	60-180	60	81	NoGap	1	33	2	45	1	target	1	400	800	21692	13.327	13.293	13.363
ProbeTrack11	7	ProbeTrack	11.2	SCS215a	20100819.120017	20100819.120442	8	0.013328	60	0	60-180	60	109	NoGap	1	34	2	1	0	distractor	1	400	800	22492	13.328	13.004	13.618
ProbeTrack11	7	ProbeTrack	11.2	SCS215a	20100819.120017	20100819.120448	8	0.013328	60	0	60-180	60	105	NoGap	1	35	2	3	0	distractor	1	440	780	23272	13.328	13.293	13.363
ProbeTrack11	7	ProbeTrack	11.2	SCS215a	20100819.120017	20100819.120454	8	0.013328	60	0	60-180	60	64	NoGap	1	36	2	1	0	distractor	1	454	773	24045	13.328	13.293	13.363
ProbeTrack11	7	ProbeTrack	11.2	SCS215a	20100819.120017	20100819.120504	8	0.013328	60	0	60-180	60	136	NoGap	1	37	2	3	1	target	1	400	800	24845	13.328	13.292	13.363
ProbeTrack11	7	ProbeTrack	11.2	SCS215a	20100819.120017	20100819.120510	8	0.013328	60	0	60-180	60	67	NoGap	1	38	2	0	1	target	1	494	753	25598	13.328	12.943	13.712
ProbeTrack11	7	ProbeTrack	11.2	SCS215a	20100819.120017	20100819.120518	8	0.013328	60	0	60-180	60	179	NoGap	1	39	2	1	1	target	1	654	673	26271	13.328	13.293	13.363
ProbeTrack11	7	ProbeTrack	11.2	SCS215a	20100819.120017	20100819.120525	8	0.013328	60	0	60-180	60	61	NoGap	1	40	2	1	0	distractor	1	707	647	26918	13.328	13.293	13.372
ProbeTrack11	7	ProbeTrack	11.2	SCS215a	20100819.120626	20100819.120637	8	0.013328	60	10	60-180	60	111	GapPrac	1	1	2	3	1	distractor	0	933	-1000	25918	13.328	13.302	13.348
ProbeTrack11	7	ProbeTrack	11.2	SCS215a	20100819.120626	20100819.120648	8	0.013328	60	0	60-180	60	74	GapPrac	1	2	2	3	0	distractor	1	6211	0	25918	13.328	13.301	13.354
ProbeTrack11	7	ProbeTrack	11.2	SCS215a	20100819.120626	20100819.120659	8	0.013328	60	0	60-180	60	82	GapPrac	1	3	2	1	0	distractor	1	1813	94	26012	13.328	13.309	13.353
ProbeTrack11	7	ProbeTrack	11.2	SCS215a	20100819.120626	20100819.120708	8	0.013328	60	0	60-180	60	96	GapPrac	1	4	2	45	1	target	1	920	540	26552	13.328	13.308	13.351
ProbeTrack11	7	ProbeTrack	11.2	SCS215a	20100819.120626	20100819.120716	8	0.013328	60	10	60-180	60	64	GapPrac	1	5	2	45	1	target	1	614	693	27245	13.328	13.308	13.348
ProbeTrack11	7	ProbeTrack	11.2	SCS215a	20100819.120626	20100819.120723	8	0.013328	60	10	60-180	60	104	GapPrac	1	6	2	0	1	target	1	574	713	27958	13.328	13.309	13.352
ProbeTrack11	7	ProbeTrack	11.2	SCS215a	20100819.120626	20100819.120729	8	0.013328	60	0	60-180	60	130	GapPrac	1	7	2	45	1	target	1	534	733	28691	13.328	13.050	13.637
ProbeTrack11	7	ProbeTrack	11.2	SCS215a	20100819.120626	20100819.120736	8	0.013328	60	10	60-180	60	167	GapPrac	1	8	2	3	0	distractor	1	573	714	29405	13.328	12.859	13.793
ProbeTrack11	7	ProbeTrack	11.2	SCS215a	20100819.120626	20100819.120743	8	0.013328	60	10	60-180	60	161	GapPrac	1	9	2	3	1	target	1	534	733	30138	13.328	13.299	13.349
ProbeTrack11	7	ProbeTrack	11.2	SCS215a	20100819.120626	20100819.120750	8	0.013328	60	0	60-180	60	68	GapPrac	1	10	2	0	1	target	1	774	613	30751	13.328	13.306	13.352
ProbeTrack11	7	ProbeTrack	11.2	SCS215a	20100819.120626	20100819.120756	8	0.013328	60	10	60-180	60	153	GapPrac	1	11	2	1	0	distractor	1	534	733	31484	13.328	13.122	13.540
ProbeTrack11	7	ProbeTrack	11.2	SCS215a	20100819.120626	20100819.120803	8	0.013328	60	10	60-180	60	122	GapPrac	1	12	2	45	0	distractor	1	414	793	32277	13.328	13.112	13.550
ProbeTrack11	7	ProbeTrack	11.2	SCS215a	20100819.120626	20100819.120809	8	0.013328	60	0	60-180	60	91	GapPrac	1	13	2	0	0	distractor	1	707	647	32924	13.328	13.307	13.345
ProbeTrack11	7	ProbeTrack	11.2	SCS215a	20100819.120626	20100819.120816	8	0.013328	60	0	60-180	60	158	GapPrac	1	14	2	3	1	target	1	613	694	33618	13.375	12.907	26.681
ProbeTrack11	7	ProbeTrack	11.2	SCS215a	20100819.120626	20100819.120823	8	0.013328	60	0	60-180	60	121	GapPrac	1	15	2	1	1	target	1	667	667	34285	13.328	13.298	13.360
ProbeTrack11	7	ProbeTrack	11.2	SCS215a	20100819.120626	20100819.120830	8	0.013328	60	0	60-180	60	169	GapPrac	1	16	2	1	0	distractor	1	640	680	34965	13.328	13.309	13.345
ProbeTrack11	7	ProbeTrack	11.2	SCS215a	20100819.120626	20100819.120838	8	0.013328	60	0	60-180	60	115	GapPrac	1	17	2	3	0	distractor	1	600	700	35665	13.328	13.304	13.348
ProbeTrack11	7	ProbeTrack	11.2	SCS215a	20100819.120626	20100819.120844	8	0.013328	60	10	60-180	60	178	GapPrac	1	18	2	0	0	distractor	1	774	613	36278	13.328	13.309	13.361
ProbeTrack11	7	ProbeTrack	11.2	SCS215a	20100819.120626	20100819.120852	8	0.013328	60	10	60-180	60	68	GapPrac	1	19	2	1	1	target	1	840	580	36858	13.328	13.308	13.348
ProbeTrack11	7	ProbeTrack	11.2	SCS215a	20100819.120626	20100819.120858	8	0.013328	60	0	60-180	60	169	GapPrac	1	20	2	45	0	distractor	1	600	700	37558	13.328	13.298	13.352
ProbeTrack11	7	ProbeTrack	11.2	SCS215a	20100819.120955	20100819.121000	8	0.013328	60	0	60-180	60	87	GapExp	1	1	2	45	0	distractor	1	587	707	38265	13.328	13.098	13.559
ProbeTrack11	7	ProbeTrack	11.2	SCS215a	20100819.120955	20100819.121013	8	0.013328	60	0	60-180	60	71	GapExp	1	2	2	1	0	distractor	1	613	694	38959	13.328	13.293	13.365
ProbeTrack11	7	ProbeTrack	11.2	SCS215a	20100819.120955	20100819.121018	8	0.013328	60	10	60-180	60	145	GapExp	0	3	2	0	0	distractor	1	680	660	39619	13.328	13.308	13.349
ProbeTrack11	7	ProbeTrack	11.2	SCS215a	20100819.120955	20100819.121025	8	0.013328	60	0	60-180	60	89	GapExp	0	4	2	1	1	target	1	494	753	40372	13.328	13.304	13.354
ProbeTrack11	7	ProbeTrack	11.2	SCS215a	20100819.120955	20100819.121031	8	0.013328	60	10	60-180	60	134	GapExp	0	5	2	1	0	target	0	600	-1000	39372	13.328	13.303	13.347
ProbeTrack11	7	ProbeTrack	11.2	SCS215a	20100819.120955	20100819.121038	8	0.013328	60	10	60-180	60	116	GapExp	0	6	2	3	0	distractor	1	600	700	40072	13.328	13.308	13.347
ProbeTrack11	7	ProbeTrack	11.2	SCS215a	20100819.120955	20100819.121045	8	0.013328	60	0	60-180	60	170	GapExp	0	7	2	45	0	distractor	1	640	680	40752	13.328	13.300	13.353
ProbeTrack11	7	ProbeTrack	11.2	SCS215a	20100819.120955	20100819.121052	8	0.013328	60	10	60-180	60	78	GapExp	0	8	2	45	1	target	1	600	700	41452	13.328	13.309	13.346
ProbeTrack11	7	ProbeTrack	11.2	SCS215a	20100819.120955	20100819.121059	8	0.013328	60	0	60-180	60	151	GapExp	0	9	2	3	0	distractor	1	600	700	42152	13.328	13.306	13.351
ProbeTrack11	7	ProbeTrack	11.2	SCS215a	20100819.120955	20100819.121105	8	0.013328	60	10	60-180	60	171	GapExp	0	10	2	45	1	distractor	0	747	-1000	41152	13.328	13.101	13.560
ProbeTrack11	7	ProbeTrack	11.2	SCS215a	20100819.120955	20100819.121113	8	0.013328	60	10	60-180	60	85	GapExp	0	11	2	1	1	target	1	494	753	41905	13.328	13.274	13.388
ProbeTrack11	7	ProbeTrack	11.2	SCS215a	20100819.120955	20100819.121118	8	0.013328	60	0	60-180	60	129	GapExp	0	12	2	1	1	target	1	547	727	42632	13.328	13.103	13.551
ProbeTrack11	7	ProbeTrack	11.2	SCS215a	20100819.120955	20100819.121124	8	0.013328	60	10	60-180	60	92	GapExp	0	13	2	0	0	distractor	1	640	680	43312	13.328	13.099	13.557
ProbeTrack11	7	ProbeTrack	11.2	SCS215a	20100819.120955	20100819.121130	8	0.013328	60	0	60-180	60	174	GapExp	0	14	2	45	1	target	1	614	693	44005	13.328	13.105	13.543
ProbeTrack11	7	ProbeTrack	11.2	SCS215a	20100819.120955	20100819.121138	8	0.013328	60	0	60-180	60	135	GapExp	0	15	2	1	1	target	1	534	733	44738	13.328	13.108	13.561
ProbeTrack11	7	ProbeTrack	11.2	SCS215a	20100819.120955	20100819.121144	8	0.013328	60	10	60-180	60	73	GapExp	0	16	2	0	1	target	1	707	647	45385	13.328	13.308	13.346
ProbeTrack11	7	ProbeTrack	11.2	SCS215a	20100819.120955	20100819.121149	8	0.013328	60	0	60-180	60	105	GapExp	0	17	2	1	0	target	0	707	-1000	44385	13.328	13.308	13.353
ProbeTrack11	7	ProbeTrack	11.2	SCS215a	20100819.120955	20100819.121155	8	0.013328	60	0	60-180	60	62	GapExp	0	18	2	1	0	distractor	1	773	614	44999	13.328	13.143	13.513
ProbeTrack11	7	ProbeTrack	11.2	SCS215a	20100819.120955	20100819.121200	8	0.013328	60	0	60-180	60	155	GapExp	0	19	2	3	0	distractor	1	693	654	45653	13.328	13.097	13.571
ProbeTrack11	7	ProbeTrack	11.2	SCS215a	20100819.120955	20100819.121207	8	0.013328	60	10	60-180	60	126	GapExp	0	20	2	45	1	target	1	520	740	46393	13.328	13.096	13.556
ProbeTrack11	7	ProbeTrack	11.2	SCS215a	20100819.120955	20100819.121215	8	0.013328	60	0	60-180	60	142	GapExp	0	21	2	45	1	target	1	507	747	47140	13.328	13.100	13.554
ProbeTrack11	7	ProbeTrack	11.2	SCS215a	20100819.120955	20100819.121222	8	0.013328	60	10	60-180	60	140	GapExp	0	22	2	0	0	distractor	1	640	680	47820	13.328	13.108	13.551
ProbeTrack11	7	ProbeTrack	11.2	SCS215a	20100819.120955	20100819.121229	8	0.013328	60	0	60-180	60	111	GapExp	0	23	2	3	1	target	1	587	707	48527	13.328	13.113	13.551
ProbeTrack11	7	ProbeTrack	11.2	SCS215a	20100819.120955	20100819.121235	8	0.013328	60	10	60-180	60	122	GapExp	0	24	2	3	1	target	1	480	760	49287	13.328	13.101	13.559
ProbeTrack11	7	ProbeTrack	11.2	SCS215a	20100819.120955	20100819.121242	8	0.013328	60	0	60-180	60	127	GapExp	0	25	2	45	0	distractor	1	640	680	49967	13.328	13.102	13.550
ProbeTrack11	7	ProbeTrack	11.2	SCS215a	20100819.120955	20100819.121249	8	0.013328	60	0	60-180	60	178	GapExp	0	26	2	1	0	distractor	1	653	674	50641	13.328	13.306	13.346
ProbeTrack11	7	ProbeTrack	11.2	SCS215a	20100819.120955	20100819.121255	8	0.013328	60	0	60-180	60	137	GapExp	0	27	2	1	1	target	1	573	714	51355	13.328	13.091	13.550
ProbeTrack11	7	ProbeTrack	11.2	SCS215a	20100819.120955	20100819.121302	8	0.013328	60	0	60-180	60	105	GapExp	0	28	2	1	0	distractor	1	667	667	52022	13.328	13.084	13.578
ProbeTrack11	7	ProbeTrack	11.2	SCS215a	20100819.120955	20100819.121308	8	0.013328	60	10	60-180	60	87	GapExp	0	29	2	45	0	distractor	1	853	574	52596	13.328	13.092	13.548
ProbeTrack11	7	ProbeTrack	11.2	SCS215a	20100819.120955	20100819.121315	8	0.013328	60	10	60-180	60	150	GapExp	0	30	2	45	0	distractor	1	707	647	53243	13.328	13.107	13.538
ProbeTrack11	7	ProbeTrack	11.2	SCS215a	20100819.120955	20100819.121322	8	0.013328	60	10	60-180	60	112	GapExp	0	31	2	1	1	target	1	640	680	53923	13.328	13.306	13.345
ProbeTrack11	7	ProbeTrack	11.2	SCS215a	20100819.120955	20100819.121328	8	0.013328	60	10	60-180	60	63	GapExp	0	32	2	45	0	distractor	1	680	660	54583	13.328	13.304	13.348
ProbeTrack11	7	ProbeTrack	11.2	SCS215a	20100819.120955	20100819.121334	8	0.013328	60	0	60-180	60	110	GapExp	0	33	2	0	1	target	1	560	720	55303	13.328	13.308	13.345
ProbeTrack11	7	ProbeTrack	11.2	SCS215a	20100819.120955	20100819.121340	8	0.013328	60	10	60-180	60	81	GapExp	0	34	2	45	1	target	1	547	727	56030	13.328	13.309	13.346
ProbeTrack11	7	ProbeTrack	11.2	SCS215a	20100819.120955	20100819.121346	8	0.013328	60	10	60-180	60	171	GapExp	0	35	2	45	0	distractor	1	494	753	56783	13.328	13.102	13.543
ProbeTrack11	7	ProbeTrack	11.2	SCS215a	20100819.120955	20100819.121354	8	0.013328	60	10	60-180	60	76	GapExp	0	36	2	3	0	distractor	1	640	680	57463	13.328	12.933	13.709
ProbeTrack11	7	ProbeTrack	11.2	SCS215a	20100819.120955	20100819.121401	8	0.013328	60	0	60-180	60	78	GapExp	0	37	2	1	1	target	1	547	727	58190	13.328	12.908	13.741
ProbeTrack11	7	ProbeTrack	11.2	SCS215a	20100819.120955	20100819.121408	8	0.013328	60	0	60-180	60	161	GapExp	0	38	2	1	0	distractor	1	587	707	58897	13.328	13.306	13.346
ProbeTrack11	7	ProbeTrack	11.2	SCS215a	20100819.120955	20100819.121415	8	0.013328	60	10	60-180	60	109	GapExp	0	39	2	0	1	target	1	454	773	59670	13.328	13.295	13.357
ProbeTrack11	7	ProbeTrack	11.2	SCS215a	20100819.120955	20100819.121421	8	0.013328	60	0	60-180	60	98	GapExp	0	40	2	3	0	distractor	1	507	747	60417	13.328	13.099	13.557
ProbeTrack11	7	ProbeTrack	11.2	SCS215a	20100819.120955	20100819.121427	8	0.013328	60	10	60-180	60	114	GapExp	0	41	2	0	1	target	1	507	747	61164	13.328	13.102	13.545
ProbeTrack11	7	ProbeTrack	11.2	SCS215a	20100819.120955	20100819.121433	8	0.013328	60	0	60-180	60	178	GapExp	0	42	2	3	0	distractor	1	534	733	61897	13.328	13.307	13.347
ProbeTrack11	7	ProbeTrack	11.2	SCS215a	20100819.120955	20100819.121439	8	0.013328	60	10	60-180	60	127	GapExp	0	43	2	0	0	distractor	1	560	720	62617	13.328	13.297	13.353
ProbeTrack11	7	ProbeTrack	11.2	SCS215a	20100819.120955	20100819.121445	8	0.013328	60	0	60-180	60	137	GapExp	0	44	2	3	0	distractor	1	427	787	63404	13.328	12.968	13.696
ProbeTrack11	7	ProbeTrack	11.2	SCS215a	20100819.120955	20100819.121451	8	0.013328	60	0	60-180	60	174	GapExp	0	45	2	45	0	distractor	1	587	707	64111	13.328	13.277	13.381
ProbeTrack11	7	ProbeTrack	11.2	SCS215a	20100819.120955	20100819.121458	8	0.013328	60	0	60-180	60	129	GapExp	0	46	2	3	1	distractor	0	547	-1000	63111	13.328	13.309	13.356
ProbeTrack11	7	ProbeTrack	11.2	SCS215a	20100819.120955	20100819.121504	8	0.013328	60	0	60-180	60	81	GapExp	0	47	2	45	0	distractor	1	893	554	63665	13.328	13.288	13.374
ProbeTrack11	7	ProbeTrack	11.2	SCS215a	20100819.120955	20100819.121511	8	0.013328	60	0	60-180	60	170	GapExp	0	48	2	45	1	target	1	574	713	64378	13.606	12.870	27.068
ProbeTrack11	7	ProbeTrack	11.2	SCS215a	20100819.120955	20100819.121518	8	0.013328	60	0	60-180	60	128	GapExp	0	49	2	45	1	target	1	574	713	65091	13.373	12.857	26.812
ProbeTrack11	7	ProbeTrack	11.2	SCS215a	20100819.120955	20100819.121525	8	0.013328	60	10	60-180	60	61	GapExp	0	50	2	3	0	distractor	1	600	700	65791	13.328	12.884	13.775
ProbeTrack11	7	ProbeTrack	11.2	SCS215a	20100819.120955	20100819.121531	8	0.013328	60	0	60-180	60	106	GapExp	0	51	2	3	1	target	1	547	727	66518	13.328	12.931	13.715
ProbeTrack11	7	ProbeTrack	11.2	SCS215a	20100819.120955	20100819.121536	8	0.013328	60	0	60-180	60	61	GapExp	0	52	2	45	1	target	1	547	727	67245	13.328	12.984	13.676
ProbeTrack11	7	ProbeTrack	11.2	SCS215a	20100819.120955	20100819.121542	8	0.013328	60	0	60-180	60	133	GapExp	0	53	2	45	0	distractor	1	574	713	67958	13.328	12.887	13.784
ProbeTrack11	7	ProbeTrack	11.2	SCS215a	20100819.120955	20100819.121549	8	0.013328	60	10	60-180	60	150	GapExp	0	54	2	3	1	target	1	507	747	68705	13.328	12.929	13.756
ProbeTrack11	7	ProbeTrack	11.2	SCS215a	20100819.120955	20100819.121555	8	0.013328	60	0	60-180	60	144	GapExp	0	55	2	0	0	distractor	1	547	727	69432	13.328	12.901	13.748
ProbeTrack11	7	ProbeTrack	11.2	SCS215a	20100819.120955	20100819.121603	8	0.013328	60	0	60-180	60	161	GapExp	0	56	2	1	0	distractor	1	499	751	70183	13.620	12.854	27.034
ProbeTrack11	7	ProbeTrack	11.2	SCS215a	20100819.120955	20100819.121609	8	0.013328	60	10	60-180	60	132	GapExp	0	57	2	3	1	target	1	547	727	70910	13.328	13.309	13.344
ProbeTrack11	7	ProbeTrack	11.2	SCS215a	20100819.120955	20100819.121615	8	0.013328	60	10	60-180	60	99	GapExp	0	58	2	0	1	target	1	640	680	71590	13.328	13.308	13.347
ProbeTrack11	7	ProbeTrack	11.2	SCS215a	20100819.120955	20100819.121621	8	0.013328	60	10	60-180	60	154	GapExp	0	59	2	0	0	distractor	1	547	727	72317	13.328	13.306	13.346
ProbeTrack11	7	ProbeTrack	11.2	SCS215a	20100819.120955	20100819.121627	8	0.013328	60	10	60-180	60	144	GapExp	0	60	2	45	1	target	1	467	767	73084	13.328	13.100	13.556
ProbeTrack11	7	ProbeTrack	11.2	SCS215a	20100819.120955	20100819.121634	8	0.013328	60	10	60-180	60	101	GapExp	0	61	2	1	1	target	1	733	634	73718	13.328	13.103	13.549
ProbeTrack11	7	ProbeTrack	11.2	SCS215a	20100819.120955	20100819.121640	8	0.013328	60	10	60-180	60	109	GapExp	0	62	2	45	0	distractor	1	960	520	74238	13.328	13.102	13.552
ProbeTrack11	7	ProbeTrack	11.2	SCS215a	20100819.120955	20100819.121647	8	0.013328	60	0	60-180	60	138	GapExp	0	63	2	0	0	distractor	1	853	574	74812	13.328	13.308	13.348
ProbeTrack11	7	ProbeTrack	11.2	SCS215a	20100819.120955	20100819.121654	8	0.013328	60	10	60-180	60	106	GapExp	0	64	2	3	0	distractor	1	534	733	75545	13.328	13.092	13.565
ProbeTrack11	7	ProbeTrack	11.2	SCS215a	20100819.120955	20100819.121700	8	0.013328	60	0	60-180	60	137	GapExp	0	65	2	0	0	distractor	1	693	654	76199	13.328	13.094	13.561
ProbeTrack11	7	ProbeTrack	11.2	SCS215a	20100819.120955	20100819.121706	8	0.013328	60	10	60-180	60	127	GapExp	0	66	2	1	1	target	1	640	680	76879	13.328	13.307	13.345
ProbeTrack11	7	ProbeTrack	11.2	SCS215a	20100819.120955	20100819.121712	8	0.013328	60	10	60-180	60	146	GapExp	0	67	2	45	1	target	1	494	753	77632	13.328	13.279	13.379
ProbeTrack11	7	ProbeTrack	11.2	SCS215a	20100819.120955	20100819.121719	8	0.013328	60	0	60-180	60	144	GapExp	0	68	2	0	1	target	1	507	747	78379	13.328	13.061	13.600
ProbeTrack11	7	ProbeTrack	11.2	SCS215a	20100819.120955	20100819.121725	8	0.013328	60	10	60-180	60	105	GapExp	0	69	2	0	1	target	1	547	727	79106	13.328	13.300	13.349
ProbeTrack11	7	ProbeTrack	11.2	SCS215a	20100819.120955	20100819.121731	8	0.013328	60	10	60-180	60	161	GapExp	0	70	2	45	1	target	1	614	693	79799	13.328	13.306	13.356
ProbeTrack11	7	ProbeTrack	11.2	SCS215a	20100819.120955	20100819.121738	8	0.013328	60	10	60-180	60	140	GapExp	0	71	2	45	1	target	1	480	760	80559	13.328	13.297	13.358
ProbeTrack11	7	ProbeTrack	11.2	SCS215a	20100819.120955	20100819.121745	8	0.013328	60	0	60-180	60	97	GapExp	0	72	2	45	1	target	1	640	680	81239	13.328	13.075	13.568
ProbeTrack11	7	ProbeTrack	11.2	SCS215a	20100819.120955	20100819.121751	8	0.013328	60	0	60-180	60	170	GapExp	0	73	2	3	0	distractor	1	614	693	81932	13.328	13.309	13.345
ProbeTrack11	7	ProbeTrack	11.2	SCS215a	20100819.120955	20100819.121758	8	0.013328	60	10	60-180	60	179	GapExp	0	74	2	45	0	distractor	1	494	753	82685	13.328	12.899	13.763
ProbeTrack11	7	ProbeTrack	11.2	SCS215a	20100819.120955	20100819.121805	8	0.013328	60	10	60-180	60	130	GapExp	0	75	2	1	1	target	1	694	653	83338	13.328	12.863	13.782
ProbeTrack11	7	ProbeTrack	11.2	SCS215a	20100819.120955	20100819.121811	8	0.013328	60	0	60-180	60	119	GapExp	0	76	2	1	0	distractor	1	600	700	84038	13.328	13.090	13.556
ProbeTrack11	7	ProbeTrack	11.2	SCS215a	20100819.120955	20100819.121818	8	0.013328	60	0	60-180	60	86	GapExp	0	77	2	3	0	distractor	1	574	713	84751	13.328	12.987	13.681
ProbeTrack11	7	ProbeTrack	11.2	SCS215a	20100819.120955	20100819.121824	8	0.013328	60	10	60-180	60	179	GapExp	0	78	2	1	0	target	0	560	-1000	83751	13.328	13.278	13.359
ProbeTrack11	7	ProbeTrack	11.2	SCS215a	20100819.120955	20100819.121830	8	0.013328	60	0	60-180	60	108	GapExp	0	79	2	1	0	distractor	1	587	707	84458	13.328	13.309	13.346
ProbeTrack11	7	ProbeTrack	11.2	SCS215a	20100819.120955	20100819.121836	8	0.013328	60	0	60-180	60	70	GapExp	0	80	2	45	1	target	1	614	693	85151	13.328	13.308	13.348
ProbeTrack11	7	ProbeTrack	11.2	SCS215a	20100819.120955	20100819.121842	8	0.013328	60	10	60-180	60	100	GapExp	0	81	2	3	0	distractor	1	587	707	85858	13.328	13.300	13.350
ProbeTrack11	7	ProbeTrack	11.2	SCS215a	20100819.120955	20100819.121849	8	0.013328	60	10	60-180	60	107	GapExp	0	82	2	45	0	distractor	1	640	680	86538	13.328	13.022	13.633
ProbeTrack11	7	ProbeTrack	11.2	SCS215a	20100819.120955	20100819.121856	8	0.013328	60	0	60-180	60	164	GapExp	0	83	2	3	0	distractor	1	733	634	87172	13.328	13.018	13.643
ProbeTrack11	7	ProbeTrack	11.2	SCS215a	20100819.120955	20100819.121902	8	0.013328	60	0	60-180	60	79	GapExp	0	84	2	0	1	target	1	760	620	87792	13.328	13.308	13.348
ProbeTrack11	7	ProbeTrack	11.2	SCS215a	20100819.120955	20100819.121908	8	0.013328	60	0	60-180	60	156	GapExp	0	85	2	1	0	distractor	1	640	680	88472	13.328	12.892	13.760
ProbeTrack11	7	ProbeTrack	11.2	SCS215a	20100819.120955	20100819.121914	8	0.013328	60	10	60-180	60	168	GapExp	0	86	2	45	0	distractor	1	1053	474	88946	13.328	13.097	13.569
ProbeTrack11	7	ProbeTrack	11.2	SCS215a	20100819.120955	20100819.121922	8	0.013328	60	0	60-180	60	125	GapExp	0	87	2	45	0	distractor	1	707	647	89593	13.328	13.020	13.658
ProbeTrack11	7	ProbeTrack	11.2	SCS215a	20100819.120955	20100819.121930	8	0.013328	60	0	60-180	60	129	GapExp	0	88	2	1	1	target	1	613	694	90287	13.380	12.910	26.520
ProbeTrack11	7	ProbeTrack	11.2	SCS215a	20100819.120955	20100819.121936	8	0.013328	60	0	60-180	60	79	GapExp	0	89	2	45	0	distractor	1	1120	440	90727	13.328	13.052	13.611
ProbeTrack11	7	ProbeTrack	11.2	SCS215a	20100819.120955	20100819.121943	8	0.013328	60	10	60-180	60	158	GapExp	0	90	2	1	1	target	1	520	740	91467	13.328	13.098	13.570
ProbeTrack11	7	ProbeTrack	11.2	SCS215a	20100819.120955	20100819.121950	8	0.013328	60	10	60-180	60	178	GapExp	0	91	2	1	1	target	1	720	640	92107	13.328	13.118	13.542
ProbeTrack11	7	ProbeTrack	11.2	SCS215a	20100819.120955	20100819.121957	8	0.013328	60	10	60-180	60	81	GapExp	0	92	2	0	1	target	1	574	713	92820	13.328	13.119	13.542
ProbeTrack11	7	ProbeTrack	11.2	SCS215a	20100819.120955	20100819.122002	8	0.013328	60	0	60-180	60	96	GapExp	0	93	2	1	1	target	1	480	760	93580	13.328	12.972	13.668
ProbeTrack11	7	ProbeTrack	11.2	SCS215a	20100819.120955	20100819.122008	8	0.013328	60	0	60-180	60	155	GapExp	0	94	2	1	0	distractor	1	733	634	94214	13.328	13.003	13.651
ProbeTrack11	7	ProbeTrack	11.2	SCS215a	20100819.120955	20100819.122015	8	0.013328	60	10	60-180	60	127	GapExp	0	95	2	0	0	target	0	560	-1000	93214	13.328	13.296	13.350
ProbeTrack11	7	ProbeTrack	11.2	SCS215a	20100819.120955	20100819.122021	8	0.013328	60	0	60-180	60	64	GapExp	0	96	2	0	0	distractor	1	947	527	93741	13.328	13.269	13.394
ProbeTrack11	7	ProbeTrack	11.2	SCS215a	20100819.120955	20100819.122026	8	0.013328	60	10	60-180	60	77	GapExp	0	97	2	45	1	target	1	520	740	94481	13.328	13.267	13.390
ProbeTrack11	7	ProbeTrack	11.2	SCS215a	20100819.120955	20100819.122032	8	0.013328	60	0	60-180	60	118	GapExp	0	98	2	45	1	target	1	773	614	95095	13.328	13.112	13.549
ProbeTrack11	7	ProbeTrack	11.2	SCS215a	20100819.120955	20100819.122039	8	0.013328	60	10	60-180	60	156	GapExp	0	99	2	45	1	target	1	480	760	95855	13.328	12.845	13.824
ProbeTrack11	7	ProbeTrack	11.2	SCS215a	20100819.120955	20100819.122046	8	0.013328	60	10	60-180	60	155	GapExp	0	100	2	0	1	target	1	494	753	96608	13.328	12.853	13.806
ProbeTrack11	7	ProbeTrack	11.2	SCS215a	20100819.120955	20100819.122052	8	0.013328	60	10	60-180	60	148	GapExp	0	101	2	3	0	distractor	1	693	654	97262	13.328	12.844	13.803
ProbeTrack11	7	ProbeTrack	11.2	SCS215a	20100819.120955	20100819.122101	8	0.013328	60	10	60-180	60	141	GapExp	0	102	2	0	1	target	1	480	760	98022	13.328	12.937	13.733
ProbeTrack11	7	ProbeTrack	11.2	SCS215a	20100819.120955	20100819.122108	8	0.013328	60	0	60-180	60	170	GapExp	0	103	2	45	1	target	1	334	833	98855	13.328	12.976	13.681
ProbeTrack11	7	ProbeTrack	11.2	SCS215a	20100819.120955	20100819.122115	8	0.013328	60	0	60-180	60	169	GapExp	0	104	2	3	1	target	1	494	753	99608	13.328	13.307	13.348
ProbeTrack11	7	ProbeTrack	11.2	SCS215a	20100819.120955	20100819.122121	8	0.013328	60	10	60-180	60	94	GapExp	0	105	2	0	0	distractor	1	640	680	100288	13.328	13.093	13.554
ProbeTrack11	7	ProbeTrack	11.2	SCS215a	20100819.120955	20100819.122127	8	0.013328	60	10	60-180	60	178	GapExp	0	106	2	1	1	target	1	547	727	101015	13.328	13.097	13.549
ProbeTrack11	7	ProbeTrack	11.2	SCS215a	20100819.120955	20100819.122134	8	0.013328	60	10	60-180	60	161	GapExp	0	107	2	3	0	distractor	1	680	660	101675	13.328	13.102	13.555
ProbeTrack11	7	ProbeTrack	11.2	SCS215a	20100819.120955	20100819.122141	8	0.013328	60	0	60-180	60	130	GapExp	0	108	2	1	0	distractor	1	600	700	102375	13.328	13.100	13.550
ProbeTrack11	7	ProbeTrack	11.2	SCS215a	20100819.120955	20100819.122147	8	0.013328	60	0	60-180	60	180	GapExp	0	109	2	0	1	target	1	494	753	103128	13.328	13.025	13.628
ProbeTrack11	7	ProbeTrack	11.2	SCS215a	20100819.120955	20100819.122154	8	0.013328	60	0	60-180	60	100	GapExp	0	110	2	1	1	target	1	560	720	103848	13.328	13.099	13.556
ProbeTrack11	7	ProbeTrack	11.2	SCS215a	20100819.120955	20100819.122200	8	0.013328	60	10	60-180	60	169	GapExp	0	111	2	45	0	target	0	507	-1000	102848	13.328	13.111	13.548
ProbeTrack11	7	ProbeTrack	11.2	SCS215a	20100819.120955	20100819.122207	8	0.013328	60	0	60-180	60	103	GapExp	0	112	2	45	1	target	1	520	740	103588	13.328	13.173	13.483
ProbeTrack11	7	ProbeTrack	11.2	SCS215a	20100819.120955	20100819.122213	8	0.013328	60	10	60-180	60	142	GapExp	0	113	2	45	0	distractor	1	627	687	104275	13.328	13.002	13.656
ProbeTrack11	7	ProbeTrack	11.2	SCS215a	20100819.120955	20100819.122220	8	0.013328	60	10	60-180	60	131	GapExp	0	114	2	0	0	distractor	1	534	733	105008	13.328	13.015	13.637
ProbeTrack11	7	ProbeTrack	11.2	SCS215a	20100819.120955	20100819.122227	8	0.013328	60	0	60-180	60	74	GapExp	0	115	2	45	0	distractor	1	547	727	105735	13.328	13.307	13.345
ProbeTrack11	7	ProbeTrack	11.2	SCS215a	20100819.120955	20100819.122232	8	0.013328	60	0	60-180	60	98	GapExp	0	116	2	0	1	target	1	547	727	106462	13.328	12.968	13.676
ProbeTrack11	7	ProbeTrack	11.2	SCS215a	20100819.120955	20100819.122238	8	0.013328	60	0	60-180	60	91	GapExp	0	117	2	0	0	distractor	1	667	667	107129	13.328	12.914	13.729
ProbeTrack11	7	ProbeTrack	11.2	SCS215a	20100819.120955	20100819.122244	8	0.013328	60	0	60-180	60	124	GapExp	0	118	2	0	0	distractor	1	840	580	107709	13.328	13.093	13.549
ProbeTrack11	7	ProbeTrack	11.2	SCS215a	20100819.120955	20100819.122250	8	0.013328	60	10	60-180	60	131	GapExp	0	119	2	1	1	distractor	0	627	-1000	106709	13.328	12.859	13.798
ProbeTrack11	7	ProbeTrack	11.2	SCS215a	20100819.120955	20100819.122257	8	0.013328	60	0	60-180	60	138	GapExp	0	120	2	3	0	distractor	1	680	660	107369	13.328	12.905	13.760
ProbeTrack11	7	ProbeTrack	11.2	SCS215a	20100819.120955	20100819.122303	8	0.013328	60	10	60-180	60	74	GapExp	0	121	2	1	1	target	1	560	720	108089	13.328	12.870	13.786
ProbeTrack11	7	ProbeTrack	11.2	SCS215a	20100819.120955	20100819.122309	8	0.013328	60	10	60-180	60	84	GapExp	0	122	2	0	0	distractor	1	614	693	108782	13.328	13.038	13.619
ProbeTrack11	7	ProbeTrack	11.2	SCS215a	20100819.120955	20100819.122320	8	0.013328	60	0	60-180	60	117	GapExp	0	123	2	0	0	distractor	1	600	700	109482	13.328	13.118	13.535
ProbeTrack11	7	ProbeTrack	11.2	SCS215a	20100819.120955	20100819.122326	8	0.013328	60	10	60-180	60	77	GapExp	0	124	2	0	0	distractor	1	534	733	110215	13.328	13.308	13.344
ProbeTrack11	7	ProbeTrack	11.2	SCS215a	20100819.120955	20100819.122331	8	0.013328	60	0	60-180	60	175	GapExp	0	125	2	1	1	target	1	551	725	110940	13.328	13.012	13.644
ProbeTrack11	7	ProbeTrack	11.2	SCS215a	20100819.120955	20100819.122338	8	0.013328	60	0	60-180	60	167	GapExp	0	126	2	0	0	distractor	1	574	713	111653	13.328	12.896	13.755
ProbeTrack11	7	ProbeTrack	11.2	SCS215a	20100819.120955	20100819.122345	8	0.013328	60	0	60-180	60	126	GapExp	0	127	2	3	0	distractor	1	520	740	112393	13.328	13.300	13.347
ProbeTrack11	7	ProbeTrack	11.2	SCS215a	20100819.120955	20100819.122351	8	0.013328	60	10	60-180	60	68	GapExp	0	128	2	3	1	target	1	747	627	113020	13.328	13.309	13.344
ProbeTrack11	7	ProbeTrack	11.2	SCS215a	20100819.120955	20100819.122357	8	0.013328	60	10	60-180	60	105	GapExp	0	129	2	0	1	target	1	520	740	113760	13.328	13.266	13.377
ProbeTrack11	7	ProbeTrack	11.2	SCS215a	20100819.120955	20100819.122402	8	0.013328	60	10	60-180	60	107	GapExp	0	130	2	1	0	distractor	1	494	753	114513	13.328	13.311	13.346
ProbeTrack11	7	ProbeTrack	11.2	SCS215a	20100819.120955	20100819.122408	8	0.013328	60	10	60-180	60	164	GapExp	0	131	2	1	0	distractor	1	534	733	115246	13.328	13.087	13.555
ProbeTrack11	7	ProbeTrack	11.2	SCS215a	20100819.120955	20100819.122416	8	0.013328	60	10	60-180	60	179	GapExp	0	132	2	45	1	target	1	480	760	116006	13.328	13.105	13.537
ProbeTrack11	7	ProbeTrack	11.2	SCS215a	20100819.120955	20100819.122423	8	0.013328	60	10	60-180	60	74	GapExp	0	133	2	45	0	distractor	1	627	687	116693	13.328	13.105	13.558
ProbeTrack11	7	ProbeTrack	11.2	SCS215a	20100819.120955	20100819.122429	8	0.013328	60	10	60-180	60	139	GapExp	0	134	2	0	0	distractor	1	560	720	117413	13.328	13.111	13.538
ProbeTrack11	7	ProbeTrack	11.2	SCS215a	20100819.120955	20100819.122435	8	0.013328	60	0	60-180	60	125	GapExp	0	135	2	3	1	target	1	520	740	118153	13.328	13.107	13.564
ProbeTrack11	7	ProbeTrack	11.2	SCS215a	20100819.120955	20100819.122441	8	0.013328	60	0	60-180	60	178	GapExp	0	136	2	45	0	distractor	1	653	674	118827	13.328	13.100	13.569
ProbeTrack11	7	ProbeTrack	11.2	SCS215a	20100819.120955	20100819.122449	8	0.013328	60	0	60-180	60	161	GapExp	0	137	2	3	0	distractor	1	587	707	119534	13.328	13.029	13.632
ProbeTrack11	7	ProbeTrack	11.2	SCS215a	20100819.120955	20100819.122455	8	0.013328	60	0	60-180	60	110	GapExp	0	138	2	45	0	distractor	1	587	707	120241	13.328	12.918	13.745
ProbeTrack11	7	ProbeTrack	11.2	SCS215a	20100819.120955	20100819.122501	8	0.013328	60	10	60-180	60	166	GapExp	0	139	2	45	1	target	1	560	720	120961	13.328	12.853	13.798
ProbeTrack11	7	ProbeTrack	11.2	SCS215a	20100819.120955	20100819.122509	8	0.013328	60	0	60-180	60	128	GapExp	0	140	2	1	1	target	1	587	707	121668	13.328	12.866	13.786
ProbeTrack11	7	ProbeTrack	11.2	SCS215a	20100819.120955	20100819.122515	8	0.013328	60	10	60-180	60	105	GapExp	0	141	2	1	0	distractor	1	547	727	122395	13.328	13.312	13.347
ProbeTrack11	7	ProbeTrack	11.2	SCS215a	20100819.120955	20100819.122521	8	0.013328	60	0	60-180	60	81	GapExp	0	142	2	3	1	target	1	560	720	123115	13.328	13.307	13.356
ProbeTrack11	7	ProbeTrack	11.2	SCS215a	20100819.120955	20100819.122526	8	0.013328	60	0	60-180	60	164	GapExp	0	143	2	1	1	target	1	414	793	123908	13.328	13.296	13.355
ProbeTrack11	7	ProbeTrack	11.2	SCS215a	20100819.120955	20100819.122534	8	0.013328	60	0	60-180	60	180	GapExp	0	144	2	3	1	target	1	507	747	124655	13.328	13.307	13.346
ProbeTrack11	7	ProbeTrack	11.2	SCS215a	20100819.120955	20100819.122541	8	0.013328	60	0	60-180	60	84	GapExp	0	145	2	1	0	distractor	1	587	707	125362	13.328	13.309	13.347
ProbeTrack11	7	ProbeTrack	11.2	SCS215a	20100819.120955	20100819.122547	8	0.013328	60	10	60-180	60	105	GapExp	0	146	2	3	1	distractor	0	707	-1000	124362	13.328	13.105	13.545
ProbeTrack11	7	ProbeTrack	11.2	SCS215a	20100819.120955	20100819.122553	8	0.013328	60	10	60-180	60	120	GapExp	0	147	2	0	1	target	1	547	727	125089	13.328	13.112	13.551
ProbeTrack11	7	ProbeTrack	11.2	SCS215a	20100819.120955	20100819.122559	8	0.013328	60	0	60-180	60	81	GapExp	0	148	2	3	1	target	1	534	733	125822	13.328	12.953	13.728
ProbeTrack11	7	ProbeTrack	11.2	SCS215a	20100819.120955	20100819.122604	8	0.013328	60	10	60-180	60	96	GapExp	0	149	2	1	1	target	1	560	720	126542	13.328	13.311	13.345
ProbeTrack11	7	ProbeTrack	11.2	SCS215a	20100819.120955	20100819.122610	8	0.013328	60	0	60-180	60	177	GapExp	0	150	2	3	0	distractor	1	560	720	127262	13.328	12.964	13.710
ProbeTrack11	7	ProbeTrack	11.2	SCS215a	20100819.120955	20100819.122618	8	0.013328	60	0	60-180	60	159	GapExp	0	151	2	3	1	target	1	507	747	128009	13.328	12.999	13.663
ProbeTrack11	7	ProbeTrack	11.2	SCS215a	20100819.120955	20100819.122626	8	0.013328	60	0	60-180	60	95	GapExp	0	152	2	1	0	distractor	1	667	667	128676	13.328	13.305	13.356
ProbeTrack11	7	ProbeTrack	11.2	SCS215a	20100819.120955	20100819.122632	8	0.013328	60	10	60-180	60	134	GapExp	0	153	2	0	0	distractor	1	627	687	129363	13.328	12.999	13.660
ProbeTrack11	7	ProbeTrack	11.2	SCS215a	20100819.120955	20100819.122638	8	0.013328	60	0	60-180	60	83	GapExp	0	154	2	3	1	target	1	440	780	130143	13.804	12.857	39.976
ProbeTrack11	7	ProbeTrack	11.2	SCS215a	20100819.120955	20100819.122643	8	0.013328	60	10	60-180	60	141	GapExp	0	155	2	3	0	distractor	1	507	747	130890	13.328	12.882	13.777
ProbeTrack11	7	ProbeTrack	11.2	SCS215a	20100819.120955	20100819.122650	8	0.013328	60	10	60-180	60	162	GapExp	0	156	2	3	0	distractor	1	694	653	131543	13.371	12.882	26.999
ProbeTrack11	7	ProbeTrack	11.2	SCS215a	20100819.120955	20100819.122656	8	0.013328	60	10	60-180	60	115	GapExp	0	157	2	45	1	target	1	507	747	132290	13.328	13.061	13.589
ProbeTrack11	7	ProbeTrack	11.2	SCS215a	20100819.120955	20100819.122703	8	0.013328	60	10	60-180	60	147	GapExp	0	158	2	1	0	distractor	1	653	674	132964	13.328	12.915	13.752
ProbeTrack11	7	ProbeTrack	11.2	SCS215a	20100819.120955	20100819.122709	8	0.013328	60	0	60-180	60	76	GapExp	0	159	2	0	0	distractor	1	627	687	133651	13.328	12.915	13.746
ProbeTrack11	7	ProbeTrack	11.2	SCS215a	20100819.120955	20100819.122715	8	0.013328	60	0	60-180	60	69	GapExp	0	160	2	0	1	target	1	640	680	134331	13.328	12.894	13.779
ProbeTrack11	7	ProbeTrack	11.2	SCS215a	20100819.120955	20100819.122720	8	0.013328	60	10	60-180	60	77	GapExp	0	161	2	0	0	distractor	1	534	733	135064	13.327	13.302	13.348
ProbeTrack11	7	ProbeTrack	11.2	SCS215a	20100819.120955	20100819.122726	8	0.013328	60	0	60-180	60	158	GapExp	0	162	2	3	0	distractor	1	733	634	135698	13.873	12.870	40.340
ProbeTrack11	7	ProbeTrack	11.2	SCS215a	20100819.120955	20100819.122733	8	0.013328	60	0	60-180	60	127	GapExp	0	163	2	0	0	distractor	1	560	720	136418	13.328	13.113	13.537
ProbeTrack11	7	ProbeTrack	11.2	SCS215a	20100819.120955	20100819.122739	8	0.013328	60	10	60-180	60	104	GapExp	0	164	2	45	1	target	1	494	753	137171	13.328	13.103	13.558
ProbeTrack11	7	ProbeTrack	11.2	SCS215a	20100819.120955	20100819.122745	8	0.013328	60	0	60-180	60	153	GapExp	0	165	2	0	0	distractor	1	574	713	137884	13.328	12.898	13.761
ProbeTrack11	7	ProbeTrack	11.2	SCS215a	20100819.120955	20100819.122751	8	0.013328	60	0	60-180	60	81	GapExp	0	166	2	3	1	target	1	534	733	138617	13.328	13.005	13.663
ProbeTrack11	7	ProbeTrack	11.2	SCS215a	20100819.120955	20100819.122757	8	0.013328	60	10	60-180	60	161	GapExp	0	167	2	0	0	target	0	973	-1000	137617	13.328	12.896	13.765
ProbeTrack11	7	ProbeTrack	11.2	SCS215a	20100819.120955	20100819.122804	8	0.013328	60	10	60-180	60	140	GapExp	0	168	2	45	1	target	1	587	707	138324	13.328	13.095	13.551
ProbeTrack11	7	ProbeTrack	11.2	SCS215a	20100819.120955	20100819.122811	8	0.013328	60	0	60-180	60	76	GapExp	0	169	2	45	1	target	1	507	747	139071	13.328	13.310	13.346
ProbeTrack11	7	ProbeTrack	11.2	SCS215a	20100819.120955	20100819.122817	8	0.013328	60	0	60-180	60	164	GapExp	0	170	2	3	1	target	1	440	780	139851	13.328	13.014	13.649
ProbeTrack11	7	ProbeTrack	11.2	SCS215a	20100819.120955	20100819.122825	8	0.013328	60	10	60-180	60	67	GapExp	0	171	2	0	1	target	1	534	733	140584	13.328	13.048	13.612
ProbeTrack11	7	ProbeTrack	11.2	SCS215a	20100819.120955	20100819.122831	8	0.013328	60	10	60-180	60	127	GapExp	0	172	2	45	0	target	0	720	-1000	139584	13.328	13.122	13.514
ProbeTrack11	7	ProbeTrack	11.2	SCS215a	20100819.120955	20100819.122838	8	0.013328	60	10	60-180	60	82	GapExp	0	173	2	1	1	target	1	440	780	140364	13.328	13.258	13.395
ProbeTrack11	7	ProbeTrack	11.2	SCS215a	20100819.120955	20100819.122844	8	0.013328	60	0	60-180	60	133	GapExp	0	174	2	1	0	distractor	1	574	713	141077	13.328	13.308	13.349
ProbeTrack11	7	ProbeTrack	11.2	SCS215a	20100819.120955	20100819.122850	8	0.013328	60	10	60-180	60	120	GapExp	0	175	2	1	1	target	1	494	753	141830	13.328	13.309	13.351
ProbeTrack11	7	ProbeTrack	11.2	SCS215a	20100819.120955	20100819.122856	8	0.013328	60	0	60-180	60	112	GapExp	0	176	2	0	1	target	1	880	560	142390	13.328	13.005	13.645
ProbeTrack11	7	ProbeTrack	11.2	SCS215a	20100819.120955	20100819.122902	8	0.013328	60	0	60-180	60	142	GapExp	0	177	2	3	0	distractor	1	613	694	143084	13.328	13.295	13.349
ProbeTrack11	7	ProbeTrack	11.2	SCS215a	20100819.120955	20100819.122909	8	0.013328	60	10	60-180	60	104	GapExp	0	178	2	1	1	target	1	387	807	143891	13.328	13.108	13.536
ProbeTrack11	7	ProbeTrack	11.2	SCS215a	20100819.120955	20100819.122915	8	0.013328	60	0	60-180	60	154	GapExp	0	179	2	0	0	distractor	1	520	740	144631	13.328	13.091	13.558
ProbeTrack11	7	ProbeTrack	11.2	SCS215a	20100819.120955	20100819.122922	8	0.013328	60	10	60-180	60	140	GapExp	0	180	2	1	1	target	1	387	807	145438	13.328	13.096	13.558
ProbeTrack11	7	ProbeTrack	11.2	SCS215a	20100819.120955	20100819.122928	8	0.013328	60	10	60-180	60	180	GapExp	0	181	2	1	1	target	1	387	807	146245	13.328	13.098	13.557
ProbeTrack11	7	ProbeTrack	11.2	SCS215a	20100819.120955	20100819.122935	8	0.013328	60	0	60-180	60	161	GapExp	0	182	2	1	1	target	1	494	753	146998	13.328	12.900	13.757
ProbeTrack11	7	ProbeTrack	11.2	SCS215a	20100819.120955	20100819.122942	8	0.013328	60	0	60-180	60	86	GapExp	0	183	2	0	1	target	1	454	773	147771	13.328	13.300	13.355
ProbeTrack11	7	ProbeTrack	11.2	SCS215a	20100819.120955	20100819.122947	8	0.013328	60	0	60-180	60	78	GapExp	0	184	2	0	0	distractor	1	600	700	148471	13.328	12.872	13.785
ProbeTrack11	7	ProbeTrack	11.2	SCS215a	20100819.120955	20100819.122952	8	0.013328	60	10	60-180	60	89	GapExp	0	185	2	3	1	target	1	427	787	149258	13.328	13.104	13.544
ProbeTrack11	7	ProbeTrack	11.2	SCS215a	20100819.120955	20100819.122958	8	0.013328	60	10	60-180	60	103	GapExp	0	186	2	1	0	target	0	467	-1000	148258	13.328	13.100	13.556
ProbeTrack11	7	ProbeTrack	11.2	SCS215a	20100819.120955	20100819.123004	8	0.013328	60	10	60-180	60	136	GapExp	0	187	2	1	0	distractor	1	613	694	148952	13.328	13.034	13.624
ProbeTrack11	7	ProbeTrack	11.2	SCS215a	20100819.120955	20100819.123011	8	0.013328	60	0	60-180	60	155	GapExp	0	188	2	1	0	distractor	1	760	620	149572	13.328	13.102	13.560
ProbeTrack11	7	ProbeTrack	11.2	SCS215a	20100819.120955	20100819.123018	8	0.013328	60	10	60-180	60	101	GapExp	0	189	2	0	1	target	1	454	773	150345	13.328	13.107	13.550
ProbeTrack11	7	ProbeTrack	11.2	SCS215a	20100819.120955	20100819.123024	8	0.013328	60	0	60-180	60	89	GapExp	0	190	2	3	0	distractor	1	707	647	150992	13.328	13.308	13.356
ProbeTrack11	7	ProbeTrack	11.2	SCS215a	20100819.120955	20100819.123029	8	0.013328	60	0	60-180	60	170	GapExp	0	191	2	3	0	distractor	1	574	713	151705	13.328	13.295	13.358
ProbeTrack11	7	ProbeTrack	11.2	SCS215a	20100819.120955	20100819.123036	8	0.013328	60	10	60-180	60	105	GapExp	0	192	2	1	0	distractor	1	494	753	152458	13.328	13.234	13.436
ProbeTrack11	7	ProbeTrack	11.2	SCS215a	20100819.120955	20100819.123042	8	0.013328	60	10	60-180	60	163	GapExp	0	193	2	1	0	distractor	1	640	680	153138	13.328	13.306	13.360
ProbeTrack11	7	ProbeTrack	11.2	SCS215a	20100819.120955	20100819.123048	8	0.013328	60	10	60-180	60	141	GapExp	0	194	2	0	1	target	1	507	747	153885	13.328	13.305	13.348
ProbeTrack11	7	ProbeTrack	11.2	SCS215a	20100819.120955	20100819.123055	8	0.013328	60	0	60-180	60	62	GapExp	0	195	2	3	1	target	1	600	700	154585	13.328	13.090	13.566
ProbeTrack11	7	ProbeTrack	11.2	SCS215a	20100819.120955	20100819.123100	8	0.013328	60	0	60-180	60	158	GapExp	0	196	2	45	0	distractor	1	467	767	155352	13.328	12.868	13.797
ProbeTrack11	7	ProbeTrack	11.2	SCS215a	20100819.120955	20100819.123107	8	0.013328	60	10	60-180	60	172	GapExp	0	197	2	0	0	distractor	1	893	554	155906	13.328	12.943	13.720
ProbeTrack11	7	ProbeTrack	11.2	SCS215a	20100819.120955	20100819.123114	8	0.013328	60	0	60-180	60	140	GapExp	0	198	2	3	1	target	1	467	767	156673	13.328	13.291	13.377
ProbeTrack11	7	ProbeTrack	11.2	SCS215a	20100819.120955	20100819.123120	8	0.013328	60	10	60-180	60	164	GapExp	0	199	2	3	1	target	1	520	740	157413	13.373	13.096	26.665
ProbeTrack11	7	ProbeTrack	11.2	SCS215a	20100819.120955	20100819.123127	8	0.013328	60	0	60-180	60	122	GapExp	0	200	2	0	0	distractor	1	520	740	158153	13.328	13.307	13.346
ProbeTrack11	7	ProbeTrack	11.2	SCS215a	20100819.120955	20100819.123132	8	0.013328	60	10	60-180	60	143	GapExp	0	201	2	3	0	distractor	1	454	773	158926	13.328	13.099	13.563
ProbeTrack11	7	ProbeTrack	11.2	SCS215a	20100819.120955	20100819.123141	8	0.013328	60	0	60-180	60	172	GapExp	0	202	2	3	0	distractor	1	520	740	159666	13.328	13.103	13.556
ProbeTrack11	7	ProbeTrack	11.2	SCS215a	20100819.120955	20100819.123148	8	0.013328	60	0	60-180	60	132	GapExp	0	203	2	0	1	target	1	640	680	160346	13.328	12.972	13.673
ProbeTrack11	7	ProbeTrack	11.2	SCS215a	20100819.120955	20100819.123154	8	0.013328	60	0	60-180	60	70	GapExp	0	204	2	1	1	target	1	467	767	161113	13.328	12.950	13.713
ProbeTrack11	7	ProbeTrack	11.2	SCS215a	20100819.120955	20100819.123201	8	0.013328	60	0	60-180	60	165	GapExp	0	205	2	0	1	target	1	534	733	161846	13.328	13.039	13.626
ProbeTrack11	7	ProbeTrack	11.2	SCS215a	20100819.120955	20100819.123212	8	0.013328	60	10	60-180	60	113	GapExp	0	206	2	3	0	distractor	1	760	620	162466	13.328	13.161	13.488
ProbeTrack11	7	ProbeTrack	11.2	SCS215a	20100819.120955	20100819.123219	8	0.013328	60	0	60-180	60	108	GapExp	0	207	2	3	0	distractor	1	547	727	163193	13.328	13.263	13.375
ProbeTrack11	7	ProbeTrack	11.2	SCS215a	20100819.120955	20100819.123227	8	0.013328	60	10	60-180	60	161	GapExp	0	208	2	1	0	distractor	1	640	680	163873	13.328	13.302	13.345
ProbeTrack11	7	ProbeTrack	11.2	SCS215a	20100819.120955	20100819.123234	8	0.013328	60	0	60-180	60	69	GapExp	0	209	2	45	1	target	1	613	694	164567	13.328	13.308	13.349
ProbeTrack11	7	ProbeTrack	11.2	SCS215a	20100819.120955	20100819.123240	8	0.013328	60	0	60-180	60	155	GapExp	0	210	2	1	1	target	1	467	767	165334	13.328	13.307	13.348
ProbeTrack11	7	ProbeTrack	11.2	SCS215a	20100819.120955	20100819.123247	8	0.013328	60	10	60-180	60	160	GapExp	0	211	2	45	0	distractor	1	760	620	165954	13.328	13.093	13.567
ProbeTrack11	7	ProbeTrack	11.2	SCS215a	20100819.120955	20100819.123255	8	0.013328	60	0	60-180	60	76	GapExp	0	212	2	45	1	target	1	467	767	166721	13.328	13.309	13.347
ProbeTrack11	7	ProbeTrack	11.2	SCS215a	20100819.120955	20100819.123301	8	0.013328	60	10	60-180	60	137	GapExp	0	213	2	3	1	target	1	640	680	167401	13.328	12.912	13.749
ProbeTrack11	7	ProbeTrack	11.2	SCS215a	20100819.120955	20100819.123307	8	0.013328	60	10	60-180	60	106	GapExp	0	214	2	1	0	distractor	1	720	640	168041	13.328	13.099	13.554
ProbeTrack11	7	ProbeTrack	11.2	SCS215a	20100819.120955	20100819.123314	8	0.013328	60	10	60-180	60	77	GapExp	0	215	2	0	1	target	1	480	760	168801	13.328	13.117	13.543
ProbeTrack11	7	ProbeTrack	11.2	SCS215a	20100819.120955	20100819.123319	8	0.013328	60	10	60-180	60	178	GapExp	0	216	2	3	1	target	1	440	780	169581	13.328	12.901	13.767
ProbeTrack11	7	ProbeTrack	11.2	SCS215a	20100819.120955	20100819.123325	8	0.013328	60	0	60-180	60	149	GapExp	0	217	2	45	1	target	1	507	747	170328	13.328	13.145	13.519
ProbeTrack11	7	ProbeTrack	11.2	SCS215a	20100819.120955	20100819.123332	8	0.013328	60	0	60-180	60	170	GapExp	0	218	2	0	0	distractor	1	680	660	170988	13.372	12.940	27.045
ProbeTrack11	7	ProbeTrack	11.2	SCS215a	20100819.120955	20100819.123339	8	0.013328	60	0	60-180	60	65	GapExp	0	219	2	1	0	distractor	1	973	514	171502	13.328	13.305	13.347
ProbeTrack11	7	ProbeTrack	11.2	SCS215a	20100819.120955	20100819.123344	8	0.013328	60	10	60-180	60	144	GapExp	0	220	2	1	0	distractor	1	534	733	172235	13.328	13.264	13.377
ProbeTrack11	7	ProbeTrack	11.2	SCS215a	20100819.120955	20100819.123350	8	0.013328	60	0	60-180	60	150	GapExp	0	221	2	0	0	distractor	1	507	747	172982	13.328	13.105	13.564
ProbeTrack11	7	ProbeTrack	11.2	SCS215a	20100819.120955	20100819.123356	8	0.013328	60	10	60-180	60	148	GapExp	0	222	2	45	0	target	0	467	-1000	171982	13.328	13.112	13.561
ProbeTrack11	7	ProbeTrack	11.2	SCS215a	20100819.120955	20100819.123403	8	0.013328	60	0	60-180	60	73	GapExp	0	223	2	0	1	target	1	480	760	172742	13.328	13.309	13.348
ProbeTrack11	7	ProbeTrack	11.2	SCS215a	20100819.120955	20100819.123410	8	0.013328	60	10	60-180	60	145	GapExp	0	224	2	0	0	distractor	1	547	727	173469	13.426	12.846	26.642
ProbeTrack11	7	ProbeTrack	11.2	SCS215a	20100819.120955	20100819.123416	8	0.013328	60	10	60-180	60	167	GapExp	0	225	2	0	0	distractor	1	534	733	174202	13.328	13.104	13.562
ProbeTrack11	7	ProbeTrack	11.2	SCS215a	20100819.120955	20100819.123423	8	0.013328	60	0	60-180	60	160	GapExp	0	226	2	0	0	distractor	1	734	633	174835	13.328	13.308	13.355
ProbeTrack11	7	ProbeTrack	11.2	SCS215a	20100819.120955	20100819.123433	8	0.013328	60	0	60-180	60	137	GapExp	0	227	2	45	1	target	1	480	760	175595	13.328	13.153	13.509
ProbeTrack11	7	ProbeTrack	11.2	SCS215a	20100819.120955	20100819.123440	8	0.013328	60	0	60-180	60	165	GapExp	0	228	2	1	0	distractor	1	494	753	176348	13.328	13.091	13.550
ProbeTrack11	7	ProbeTrack	11.2	SCS215a	20100819.120955	20100819.123446	8	0.013328	60	10	60-180	60	69	GapExp	0	229	2	45	1	target	1	427	787	177135	13.328	13.085	13.569
ProbeTrack11	7	ProbeTrack	11.2	SCS215a	20100819.120955	20100819.123452	8	0.013328	60	10	60-180	60	162	GapExp	0	230	2	0	0	distractor	1	494	753	177888	13.328	13.105	13.551
ProbeTrack11	7	ProbeTrack	11.2	SCS215a	20100819.120955	20100819.123500	8	0.013328	60	10	60-180	60	177	GapExp	0	231	2	3	1	target	1	414	793	178681	13.328	12.883	13.772
ProbeTrack11	7	ProbeTrack	11.2	SCS215a	20100819.120955	20100819.123506	8	0.013328	60	0	60-180	60	87	GapExp	0	232	2	1	1	target	1	480	760	179441	13.328	13.306	13.350
ProbeTrack11	7	ProbeTrack	11.2	SCS215a	20100819.120955	20100819.123512	8	0.013328	60	0	60-180	60	148	GapExp	0	233	2	45	0	distractor	1	680	660	180101	13.328	12.904	13.562
ProbeTrack11	7	ProbeTrack	11.2	SCS215a	20100819.120955	20100819.123519	8	0.013328	60	0	60-180	60	118	GapExp	0	234	2	3	0	distractor	1	494	753	180854	13.328	13.309	13.348
ProbeTrack11	7	ProbeTrack	11.2	SCS215a	20100819.120955	20100819.123525	8	0.013328	60	10	60-180	60	119	GapExp	0	235	2	45	0	distractor	1	787	607	181461	13.328	13.308	13.347
ProbeTrack11	7	ProbeTrack	11.2	SCS215a	20100819.120955	20100819.123532	8	0.013328	60	10	60-180	60	135	GapExp	0	236	2	45	1	target	1	467	767	182228	13.328	13.298	13.346
ProbeTrack11	7	ProbeTrack	11.2	SCS215a	20100819.120955	20100819.123539	8	0.013328	60	10	60-180	60	169	GapExp	0	237	2	1	0	distractor	1	613	694	182922	13.328	13.033	13.355
ProbeTrack11	7	ProbeTrack	11.2	SCS215a	20100819.120955	20100819.123545	8	0.013328	60	0	60-180	60	97	GapExp	0	238	2	45	0	distractor	1	787	607	183529	13.328	12.898	13.754
ProbeTrack11	7	ProbeTrack	11.2	SCS215a	20100819.120955	20100819.123552	8	0.013328	60	0	60-180	60	96	GapExp	0	239	2	3	0	distractor	1	560	720	184249	13.389	13.309	26.630
ProbeTrack11	7	ProbeTrack	11.2	SCS215a	20100819.120955	20100819.123559	8	0.013328	60	10	60-180	60	110	GapExp	0	240	2	3	1	target	1	427	787	185036	13.328	13.308	13.348
ProbeTrack11	7	ProbeTrack	11.2	SCS215a	20100819.120955	20100819.123605	8	0.013328	60	0	60-180	60	78	GapExp	0	241	2	3	1	target	1	613	694	185730	13.328	12.998	13.652
ProbeTrack11	7	ProbeTrack	11.2	SCS215a	20100819.120955	20100819.123610	8	0.013328	60	10	60-180	60	174	GapExp	0	242	2	45	0	distractor	1	494	753	186483	13.328	13.034	13.610
ProbeTrack11	7	ProbeTrack	11.2	SCS215a	20100819.120955	20100819.123618	8	0.013328	60	10	60-180	60	87	GapExp	0	243	2	45	0	distractor	1	787	607	187090	13.328	12.946	13.716
ProbeTrack11	7	ProbeTrack	11.2	SCS215a	20100819.120955	20100819.123624	8	0.013328	60	10	60-180	60	66	GapExp	0	244	2	0	1	target	1	520	740	187830	13.328	13.059	13.674
ProbeTrack11	7	ProbeTrack	11.2	SCS215a	20100819.120955	20100819.123629	8	0.013328	60	10	60-180	60	180	GapExp	0	245	2	3	0	distractor	1	547	727	188557	13.328	12.899	13.763
ProbeTrack11	7	ProbeTrack	11.2	SCS215a	20100819.120955	20100819.123636	8	0.013328	60	10	60-180	60	113	GapExp	0	246	2	1	0	distractor	1	520	740	189297	13.328	13.308	13.347
ProbeTrack11	7	ProbeTrack	11.2	SCS215a	20100819.120955	20100819.123642	8	0.013328	60	10	60-180	60	165	GapExp	0	247	2	1	0	distractor	1	853	574	189871	13.328	12.989	13.660
ProbeTrack11	7	ProbeTrack	11.2	SCS215a	20100819.120955	20100819.123649	8	0.013328	60	0	60-180	60	95	GapExp	0	248	2	0	1	target	1	560	720	190591	13.328	12.921	13.730
ProbeTrack11	7	ProbeTrack	11.2	SCS215a	20100819.120955	20100819.123654	8	0.013328	60	10	60-180	60	168	GapExp	0	249	2	45	1	target	1	480	760	191351	13.328	13.028	13.635
ProbeTrack11	7	ProbeTrack	11.2	SCS215a	20100819.120955	20100819.123702	8	0.013328	60	0	60-180	60	100	GapExp	0	250	2	1	0	distractor	1	560	720	192071	13.328	13.308	13.348
ProbeTrack11	7	ProbeTrack	11.2	SCS215a	20100819.120955	20100819.123707	8	0.013328	60	10	60-180	60	85	GapExp	0	251	2	0	0	target	0	454	-1000	191071	13.328	13.094	13.574
ProbeTrack11	7	ProbeTrack	11.2	SCS215a	20100819.120955	20100819.123713	8	0.013328	60	0	60-180	60	141	GapExp	0	252	2	45	0	distractor	1	520	740	191811	13.327	12.929	13.774
ProbeTrack11	7	ProbeTrack	11.2	SCS215a	20100819.120955	20100819.123721	8	0.013328	60	10	60-180	60	94	GapExp	0	253	2	1	0	distractor	1	454	773	192584	13.328	13.310	13.346
ProbeTrack11	7	ProbeTrack	11.2	SCS215a	20100819.120955	20100819.123728	8	0.013328	60	10	60-180	60	108	GapExp	0	254	2	3	0	distractor	1	414	793	193377	13.328	13.092	13.565
ProbeTrack11	7	ProbeTrack	11.2	SCS215a	20100819.120955	20100819.123734	8	0.013328	60	10	60-180	60	135	GapExp	0	255	2	45	0	target	0	694	-1000	192377	13.328	13.030	13.632
ProbeTrack11	7	ProbeTrack	11.2	SCS215a	20100819.120955	20100819.123741	8	0.013328	60	0	60-180	60	110	GapExp	0	256	2	3	0	target	0	520	-1000	191377	13.328	12.981	13.676
ProbeTrack11	7	ProbeTrack	11.2	SCS215a	20100819.120955	20100819.123748	8	0.013328	60	10	60-180	60	117	GapExp	0	257	2	1	0	distractor	1	653	674	192051	13.328	12.930	13.735
ProbeTrack11	7	ProbeTrack	11.2	SCS215a	20100819.120955	20100819.123754	8	0.013328	60	10	60-180	60	141	GapExp	0	258	2	3	1	target	1	454	773	192824	13.378	12.847	27.027
ProbeTrack11	7	ProbeTrack	11.2	SCS215a	20100819.120955	20100819.123802	8	0.013328	60	10	60-180	60	128	GapExp	0	259	2	45	0	distractor	1	480	760	193584	13.328	13.295	13.360
ProbeTrack11	7	ProbeTrack	11.2	SCS215a	20100819.120955	20100819.123811	8	0.013328	60	10	60-180	60	109	GapExp	0	260	2	3	0	distractor	1	547	727	194311	13.328	12.853	13.612
ProbeTrack11	7	ProbeTrack	11.2	SCS215a	20100819.120955	20100819.123820	8	0.013328	60	0	60-180	60	97	GapExp	0	261	2	3	0	distractor	1	494	753	195064	13.328	13.308	13.348
ProbeTrack11	7	ProbeTrack	11.2	SCS215a	20100819.120955	20100819.123826	8	0.013328	60	10	60-180	60	176	GapExp	0	262	2	3	0	distractor	1	560	720	195784	13.328	13.176	13.473
ProbeTrack11	7	ProbeTrack	11.2	SCS215a	20100819.120955	20100819.123833	8	0.013328	60	0	60-180	60	95	GapExp	0	263	2	3	0	distractor	1	800	600	196384	13.328	13.310	13.346
ProbeTrack11	7	ProbeTrack	11.2	SCS215a	20100819.120955	20100819.123839	8	0.013328	60	10	60-180	60	91	GapExp	0	264	2	0	1	target	1	667	667	197051	13.328	13.216	13.429
ProbeTrack11	7	ProbeTrack	11.2	SCS215a	20100819.120955	20100819.123845	8	0.013328	60	10	60-180	60	67	GapExp	0	265	2	1	0	distractor	1	467	767	197818	13.328	13.098	13.541
ProbeTrack11	7	ProbeTrack	11.2	SCS215a	20100819.120955	20100819.123850	8	0.013328	60	0	60-180	60	149	GapExp	0	266	2	1	0	distractor	1	440	780	198598	13.328	13.096	13.558
ProbeTrack11	7	ProbeTrack	11.2	SCS215a	20100819.120955	20100819.123856	8	0.013328	60	10	60-180	60	88	GapExp	0	267	2	1	0	distractor	1	520	740	199338	13.328	13.278	13.379
ProbeTrack11	7	ProbeTrack	11.2	SCS215a	20100819.120955	20100819.123902	8	0.013328	60	10	60-180	60	112	GapExp	0	268	2	3	1	target	1	507	747	200085	13.328	13.308	13.345
ProbeTrack11	7	ProbeTrack	11.2	SCS215a	20100819.120955	20100819.123907	8	0.013328	60	10	60-180	60	65	GapExp	0	269	2	45	1	distractor	0	494	-1000	199085	13.328	13.281	13.375
ProbeTrack11	7	ProbeTrack	11.2	SCS215a	20100819.120955	20100819.123914	8	0.013328	60	10	60-180	60	166	GapExp	0	270	2	1	1	target	1	440	780	199865	13.328	12.882	13.766
ProbeTrack11	7	ProbeTrack	11.2	SCS215a	20100819.120955	20100819.123920	8	0.013328	60	10	60-180	60	178	GapExp	0	271	2	1	0	distractor	1	693	654	200519	13.328	13.099	13.562
ProbeTrack11	7	ProbeTrack	11.2	SCS215a	20100819.120955	20100819.123927	8	0.013328	60	10	60-180	60	85	GapExp	0	272	2	45	0	distractor	1	480	760	201279	13.328	13.098	13.552
ProbeTrack11	7	ProbeTrack	11.2	SCS215a	20100819.120955	20100819.123933	8	0.013328	60	10	60-180	60	97	GapExp	0	273	2	1	0	distractor	1	574	713	201992	13.328	13.267	13.382
ProbeTrack11	7	ProbeTrack	11.2	SCS215a	20100819.120955	20100819.123939	8	0.013328	60	10	60-180	60	105	GapExp	0	274	2	3	1	target	1	1986	7	201999	13.328	13.307	13.351
ProbeTrack11	7	ProbeTrack	11.2	SCS215a	20100819.120955	20100819.123946	8	0.013328	60	10	60-180	60	67	GapExp	0	275	2	3	1	target	1	467	767	202766	13.328	13.276	13.376
ProbeTrack11	7	ProbeTrack	11.2	SCS215a	20100819.120955	20100819.123951	8	0.013328	60	0	60-180	60	153	GapExp	0	276	2	3	1	target	1	467	767	203533	13.328	12.971	13.687
ProbeTrack11	7	ProbeTrack	11.2	SCS215a	20100819.120955	20100819.123957	8	0.013328	60	10	60-180	60	177	GapExp	0	277	2	45	0	distractor	1	427	787	204320	13.328	12.926	13.713
ProbeTrack11	7	ProbeTrack	11.2	SCS215a	20100819.120955	20100819.124004	8	0.013328	60	0	60-180	60	92	GapExp	0	278	2	0	1	target	1	520	740	205060	13.328	12.973	13.676
ProbeTrack11	7	ProbeTrack	11.2	SCS215a	20100819.120955	20100819.124009	8	0.013328	60	10	60-180	60	131	GapExp	0	279	2	1	0	distractor	1	480	760	205820	13.328	13.309	13.345
ProbeTrack11	7	ProbeTrack	11.2	SCS215a	20100819.120955	20100819.124015	8	0.013328	60	10	60-180	60	88	GapExp	0	280	2	0	1	target	1	427	787	206607	13.328	13.101	13.570
ProbeTrack11	7	ProbeTrack	11.2	SCS215a	20100819.120955	20100819.124021	8	0.013328	60	10	60-180	60	178	GapExp	0	281	2	0	1	distractor	0	627	-1000	205607	13.328	13.100	13.557
ProbeTrack11	7	ProbeTrack	11.2	SCS215a	20100819.120955	20100819.124027	8	0.013328	60	10	60-180	60	76	GapExp	0	282	2	45	1	target	1	427	787	206394	13.328	13.307	13.347
ProbeTrack11	7	ProbeTrack	11.2	SCS215a	20100819.120955	20100819.124033	8	0.013328	60	0	60-180	60	102	GapExp	0	283	2	0	0	distractor	1	600	700	207094	13.328	13.171	13.477
ProbeTrack11	7	ProbeTrack	11.2	SCS215a	20100819.120955	20100819.124039	8	0.013328	60	0	60-180	60	141	GapExp	0	284	2	0	1	target	1	547	727	207821	13.328	13.310	13.348
ProbeTrack11	7	ProbeTrack	11.2	SCS215a	20100819.120955	20100819.124045	8	0.013328	60	10	60-180	60	106	GapExp	0	285	2	3	1	target	1	400	800	208621	13.387	12.906	26.911
ProbeTrack11	7	ProbeTrack	11.2	SCS215a	20100819.120955	20100819.124051	8	0.013328	60	10	60-180	60	161	GapExp	0	286	2	0	1	target	1	507	747	209368	13.328	13.099	13.571
ProbeTrack11	7	ProbeTrack	11.2	SCS215a	20100819.120955	20100819.124057	8	0.013328	60	0	60-180	60	175	GapExp	0	287	2	1	0	distractor	1	520	740	210108	13.328	13.104	13.569
ProbeTrack11	7	ProbeTrack	11.2	SCS215a	20100819.120955	20100819.124103	8	0.013328	60	0	60-180	60	164	GapExp	0	288	2	3	1	target	1	640	680	210788	13.328	13.110	13.548
ProbeTrack11	7	ProbeTrack	11.2	SCS215a	20100819.120955	20100819.124110	8	0.013328	60	0	60-180	60	69	GapExp	0	289	2	0	1	target	1	560	720	211508	13.328	13.310	13.346
ProbeTrack11	7	ProbeTrack	11.2	SCS215a	20100819.120955	20100819.124115	8	0.013328	60	10	60-180	60	164	GapExp	0	290	2	1	0	distractor	1	600	700	212208	13.328	13.308	13.349
ProbeTrack11	7	ProbeTrack	11.2	SCS215a	20100819.120955	20100819.124122	8	0.013328	60	0	60-180	60	110	GapExp	0	291	2	3	0	distractor	1	494	753	212961	13.328	12.834	13.815
ProbeTrack11	7	ProbeTrack	11.2	SCS215a	20100819.120955	20100819.124127	8	0.013328	60	10	60-180	60	121	GapExp	0	292	2	45	0	distractor	1	667	667	213628	13.328	13.308	13.353
ProbeTrack11	7	ProbeTrack	11.2	SCS215a	20100819.120955	20100819.124134	8	0.013328	60	10	60-180	60	68	GapExp	0	293	2	0	0	distractor	1	720	640	214268	13.328	13.269	13.390
ProbeTrack11	7	ProbeTrack	11.2	SCS215a	20100819.120955	20100819.124140	8	0.013328	60	0	60-180	60	155	GapExp	0	294	2	0	0	distractor	1	574	713	214981	13.328	13.105	13.542
ProbeTrack11	7	ProbeTrack	11.2	SCS215a	20100819.120955	20100819.124146	8	0.013328	60	10	60-180	60	71	GapExp	0	295	2	3	0	distractor	1	600	700	215681	13.328	12.976	13.672
ProbeTrack11	7	ProbeTrack	11.2	SCS215a	20100819.120955	20100819.124151	8	0.013328	60	10	60-180	60	97	GapExp	0	296	2	45	1	target	1	560	720	216401	13.328	13.077	13.550
ProbeTrack11	7	ProbeTrack	11.2	SCS215a	20100819.120955	20100819.124158	8	0.013328	60	10	60-180	60	101	GapExp	0	297	2	1	0	distractor	1	494	753	217154	13.328	13.309	13.348
ProbeTrack11	7	ProbeTrack	11.2	SCS215a	20100819.120955	20100819.124204	8	0.013328	60	0	60-180	60	72	GapExp	0	298	2	45	0	distractor	1	667	667	217821	13.328	13.305	13.347
ProbeTrack11	7	ProbeTrack	11.2	SCS215a	20100819.120955	20100819.124210	8	0.013328	60	10	60-180	60	174	GapExp	0	299	2	1	1	target	1	600	700	218521	13.328	12.951	13.699
ProbeTrack11	7	ProbeTrack	11.2	SCS215a	20100819.120955	20100819.124216	8	0.013328	60	0	60-180	60	127	GapExp	0	300	2	0	1	target	1	560	720	219241	13.328	13.310	13.346
ProbeTrack11	7	ProbeTrack	11.2	SCS215a	20100819.120955	20100819.124222	8	0.013328	60	10	60-180	60	100	GapExp	0	301	2	3	0	distractor	1	360	820	220061	13.328	12.945	13.712
ProbeTrack11	7	ProbeTrack	11.2	SCS215a	20100819.120955	20100819.124234	8	0.013328	60	10	60-180	60	157	GapExp	0	302	2	1	0	186	-3	534	-1000	219061	13.328	13.105	13.564
ProbeTrack11	7	ProbeTrack	11.2	SCS215a	20100819.120955	20100819.124241	8	0.013328	60	10	60-180	60	89	GapExp	0	303	2	3	1	target	1	480	760	219821	13.328	13.098	13.564
ProbeTrack11	7	ProbeTrack	11.2	SCS215a	20100819.120955	20100819.124247	8	0.013328	60	0	60-180	60	120	GapExp	0	304	2	3	1	target	1	454	773	220594	13.328	12.888	13.763
ProbeTrack11	7	ProbeTrack	11.2	SCS215a	20100819.120955	20100819.124255	8	0.013328	60	10	60-180	60	167	GapExp	0	305	2	45	1	target	1	387	807	221401	13.328	13.097	13.554
ProbeTrack11	7	ProbeTrack	11.2	SCS215a	20100819.120955	20100819.124302	8	0.013328	60	0	60-180	60	74	GapExp	0	306	2	0	1	target	1	480	760	222161	13.328	13.306	13.343
ProbeTrack11	7	ProbeTrack	11.2	SCS215a	20100819.120955	20100819.124307	8	0.013328	60	0	60-180	60	68	GapExp	0	307	2	45	0	distractor	1	773	614	222775	13.328	13.308	13.348
ProbeTrack11	7	ProbeTrack	11.2	SCS215a	20100819.120955	20100819.124313	8	0.013328	60	0	60-180	60	81	GapExp	0	308	2	0	0	distractor	1	520	740	223515	13.328	13.311	13.350
ProbeTrack11	7	ProbeTrack	11.2	SCS215a	20100819.120955	20100819.124318	8	0.013328	60	0	60-180	60	96	GapExp	0	309	2	45	1	target	1	520	740	224255	13.328	13.105	13.549
ProbeTrack11	7	ProbeTrack	11.2	SCS215a	20100819.120955	20100819.124325	8	0.013328	60	0	60-180	60	142	GapExp	0	310	2	0	0	distractor	1	454	773	225028	13.328	12.836	13.821
ProbeTrack11	7	ProbeTrack	11.2	SCS215a	20100819.120955	20100819.124331	8	0.013328	60	10	60-180	60	106	GapExp	0	311	2	0	1	target	1	414	793	225821	13.328	13.303	13.353
ProbeTrack11	7	ProbeTrack	11.2	SCS215a	20100819.120955	20100819.124337	8	0.013328	60	10	60-180	60	75	GapExp	0	312	2	1	1	target	1	440	780	226601	13.328	12.922	13.720
ProbeTrack11	7	ProbeTrack	11.2	SCS215a	20100819.120955	20100819.124342	8	0.013328	60	0	60-180	60	131	GapExp	0	313	2	0	1	target	1	427	787	227388	13.328	12.868	13.788
ProbeTrack11	7	ProbeTrack	11.2	SCS215a	20100819.120955	20100819.124348	8	0.013328	60	0	60-180	60	110	GapExp	0	314	2	0	0	distractor	1	427	787	228175	13.328	12.849	13.821
ProbeTrack11	7	ProbeTrack	11.2	SCS215a	20100819.120955	20100819.124356	8	0.013328	60	0	60-180	60	166	GapExp	0	315	2	0	1	target	1	427	787	228962	13.329	13.061	13.737
ProbeTrack11	7	ProbeTrack	11.2	SCS215a	20100819.120955	20100819.124403	8	0.013328	60	10	60-180	60	163	GapExp	0	316	2	3	0	distractor	1	560	720	229682	13.328	12.861	13.801
ProbeTrack11	7	ProbeTrack	11.2	SCS215a	20100819.120955	20100819.124409	8	0.013328	60	0	60-180	60	78	GapExp	0	317	2	45	0	distractor	1	613	694	230376	13.382	13.303	26.632
ProbeTrack11	7	ProbeTrack	11.2	SCS215a	20100819.120955	20100819.124415	8	0.013328	60	0	60-180	60	115	GapExp	0	318	2	1	1	target	1	574	713	231089	13.328	12.968	13.696
ProbeTrack11	7	ProbeTrack	11.2	SCS215a	20100819.120955	20100819.124421	8	0.013328	60	0	60-180	60	72	GapExp	0	319	2	45	1	target	1	440	780	231869	13.328	13.085	13.561
ProbeTrack11	7	ProbeTrack	11.2	SCS215a	20100819.120955	20100819.124426	8	0.013328	60	0	60-180	60	124	GapExp	0	320	2	0	0	distractor	1	707	647	232516	13.328	13.077	13.575
ProbeTrack11	7	ProbeTrack	11.2	SCS215a	20100819.120955	20100819.124433	8	0.013328	60	0	60-180	60	103	GapExp	0	321	2	0	1	target	1	469	766	233282	13.328	12.910	13.739
ProbeTrack11	7	ProbeTrack	11.2	SCS215a	20100819.120955	20100819.124438	8	0.013328	60	0	60-180	60	153	GapExp	0	322	2	45	1	target	1	414	793	234075	13.328	13.276	13.394
ProbeTrack11	7	ProbeTrack	11.2	SCS215a	20100819.120955	20100819.124445	8	0.013328	60	0	60-180	60	74	GapExp	0	323	2	0	1	target	1	480	760	234835	13.328	13.301	13.357
ProbeTrack11	7	ProbeTrack	11.2	SCS215a	20100819.120955	20100819.124451	8	0.013328	60	0	60-180	60	75	GapExp	0	324	2	45	1	target	1	400	800	235635	13.328	12.902	13.770
ProbeTrack11	7	ProbeTrack	11.2	SCS215a	20100819.120955	20100819.124458	8	0.013328	60	10	60-180	60	163	GapExp	0	325	2	45	1	target	1	387	807	236442	13.328	12.915	13.740
ProbeTrack11	7	ProbeTrack	11.2	SCS215a	20100819.120955	20100819.124505	8	0.013328	60	0	60-180	60	116	GapExp	0	326	2	3	0	distractor	1	733	634	237076	13.328	13.309	13.358
ProbeTrack11	7	ProbeTrack	11.2	SCS215a	20100819.120955	20100819.124511	8	0.013328	60	0	60-180	60	165	GapExp	0	327	2	45	1	target	1	414	793	237869	13.328	12.852	13.796
ProbeTrack11	7	ProbeTrack	11.2	SCS215a	20100819.120955	20100819.124518	8	0.013328	60	10	60-180	60	153	GapExp	0	328	2	3	1	target	1	414	793	238662	13.328	13.167	13.487
ProbeTrack11	7	ProbeTrack	11.2	SCS215a	20100819.120955	20100819.124525	8	0.013328	60	0	60-180	60	164	GapExp	0	329	2	1	1	target	1	454	773	239435	13.328	13.091	13.548
ProbeTrack11	7	ProbeTrack	11.2	SCS215a	20100819.120955	20100819.124531	8	0.013328	60	10	60-180	60	94	GapExp	0	330	2	45	1	target	1	374	813	240248	13.328	12.891	13.766
ProbeTrack11	7	ProbeTrack	11.2	SCS215a	20100819.120955	20100819.124537	8	0.013328	60	10	60-180	60	141	GapExp	0	331	2	3	0	distractor	1	547	727	240975	13.328	13.098	13.545
ProbeTrack11	7	ProbeTrack	11.2	SCS215a	20100819.120955	20100819.124543	8	0.013328	60	0	60-180	60	97	GapExp	0	332	2	3	1	target	1	440	780	241755	13.328	13.107	13.548
ProbeTrack11	7	ProbeTrack	11.2	SCS215a	20100819.120955	20100819.124549	8	0.013328	60	10	60-180	60	83	GapExp	0	333	2	3	1	target	1	467	767	242522	13.328	13.212	13.446
ProbeTrack11	7	ProbeTrack	11.2	SCS215a	20100819.120955	20100819.124554	8	0.013328	60	0	60-180	60	85	GapExp	0	334	2	0	1	target	1	494	753	243275	13.328	13.306	13.345
ProbeTrack11	7	ProbeTrack	11.2	SCS215a	20100819.120955	20100819.124600	8	0.013328	60	0	60-180	60	143	GapExp	0	335	2	45	1	target	1	574	713	243988	13.328	13.291	13.352
ProbeTrack11	7	ProbeTrack	11.2	SCS215a	20100819.120955	20100819.124607	8	0.013328	60	0	60-180	60	140	GapExp	0	336	2	0	1	target	1	440	780	244768	13.328	13.222	13.429
ProbeTrack11	7	ProbeTrack	11.2	SCS215a	20100819.120955	20100819.124613	8	0.013328	60	0	60-180	60	77	GapExp	0	337	2	45	0	distractor	1	760	620	245388	13.328	13.087	13.553
ProbeTrack11	7	ProbeTrack	11.2	SCS215a	20100819.120955	20100819.124619	8	0.013328	60	10	60-180	60	64	GapExp	0	338	2	0	0	target	0	587	-1000	244388	13.328	13.110	13.551
ProbeTrack11	7	ProbeTrack	11.2	SCS215a	20100819.120955	20100819.124625	8	0.013328	60	10	60-180	60	76	GapExp	0	339	2	45	0	distractor	1	494	753	245141	13.328	13.082	13.563
ProbeTrack11	7	ProbeTrack	11.2	SCS215a	20100819.120955	20100819.124631	8	0.013328	60	0	60-180	60	63	GapExp	0	340	2	1	1	target	1	720	640	245781	13.328	13.094	13.551
ProbeTrack11	7	ProbeTrack	11.2	SCS215a	20100819.120955	20100819.124636	8	0.013328	60	10	60-180	60	92	GapExp	0	341	2	45	1	target	1	414	793	246574	13.328	13.311	13.348
ProbeTrack11	7	ProbeTrack	11.2	SCS215a	20100819.120955	20100819.124643	8	0.013328	60	0	60-180	60	153	GapExp	0	342	2	1	1	target	1	560	720	247294	13.328	13.300	13.350
ProbeTrack11	7	ProbeTrack	11.2	SCS215a	20100819.120955	20100819.124649	8	0.013328	60	10	60-180	60	120	GapExp	0	343	2	0	0	distractor	1	507	747	248041	13.328	12.897	13.747
ProbeTrack11	7	ProbeTrack	11.2	SCS215a	20100819.120955	20100819.124655	8	0.013328	60	10	60-180	60	107	GapExp	0	344	2	0	1	target	1	600	700	248741	13.328	12.905	13.753
ProbeTrack11	7	ProbeTrack	11.2	SCS215a	20100819.120955	20100819.124702	8	0.013328	60	0	60-180	60	164	GapExp	0	345	2	1	0	distractor	1	494	753	249494	13.375	12.879	26.772
ProbeTrack11	7	ProbeTrack	11.2	SCS215a	20100819.120955	20100819.124709	8	0.013328	60	0	60-180	60	67	GapExp	0	346	2	3	0	distractor	1	773	614	250108	13.328	13.111	13.557
ProbeTrack11	7	ProbeTrack	11.2	SCS215a	20100819.120955	20100819.124714	8	0.013328	60	0	60-180	60	177	GapExp	0	347	2	1	0	distractor	1	733	634	250742	13.328	13.101	13.549
ProbeTrack11	7	ProbeTrack	11.2	SCS215a	20100819.120955	20100819.124721	8	0.013328	60	0	60-180	60	172	GapExp	0	348	2	0	1	target	1	467	767	251509	13.328	13.309	13.348
ProbeTrack11	7	ProbeTrack	11.2	SCS215a	20100819.120955	20100819.124728	8	0.013328	60	10	60-180	60	64	GapExp	0	349	2	45	1	target	1	400	800	252309	13.328	12.917	13.738
ProbeTrack11	7	ProbeTrack	11.2	SCS215a	20100819.120955	20100819.124733	8	0.013328	60	10	60-180	60	171	GapExp	0	350	2	0	0	distractor	1	574	713	253022	13.328	13.305	13.347
ProbeTrack11	7	ProbeTrack	11.2	SCS215a	20100819.120955	20100819.124740	8	0.013328	60	0	60-180	60	159	GapExp	0	351	2	45	0	distractor	1	534	733	253755	13.328	13.101	13.567
ProbeTrack11	7	ProbeTrack	11.2	SCS215a	20100819.120955	20100819.124748	8	0.013328	60	0	60-180	60	119	GapExp	0	352	2	45	0	distractor	1	480	760	254515	13.328	13.267	13.378
ProbeTrack11	7	ProbeTrack	11.2	SCS215a	20100819.120955	20100819.124754	8	0.013328	60	10	60-180	60	150	GapExp	0	353	2	3	0	distractor	1	653	674	255189	13.328	13.299	13.357
ProbeTrack11	7	ProbeTrack	11.2	SCS215a	20100819.120955	20100819.124801	8	0.013328	60	10	60-180	60	141	GapExp	0	354	2	3	1	target	1	507	747	255936	13.328	13.306	13.348
ProbeTrack11	7	ProbeTrack	11.2	SCS215a	20100819.120955	20100819.124807	8	0.013328	60	10	60-180	60	115	GapExp	0	355	2	0	0	distractor	1	467	767	256703	13.328	13.308	13.347
ProbeTrack11	7	ProbeTrack	11.2	SCS215a	20100819.120955	20100819.124813	8	0.013328	60	0	60-180	60	163	GapExp	0	356	2	0	0	distractor	1	440	780	257483	13.328	13.285	13.359
ProbeTrack11	7	ProbeTrack	11.2	SCS215a	20100819.120955	20100819.124821	8	0.013328	60	0	60-180	60	137	GapExp	0	357	2	1	1	target	1	627	687	258170	13.328	13.309	13.347
ProbeTrack11	7	ProbeTrack	11.2	SCS215a	20100819.120955	20100819.124827	8	0.013328	60	0	60-180	60	135	GapExp	0	358	2	1	1	target	1	454	773	258943	13.328	12.835	13.813
ProbeTrack11	7	ProbeTrack	11.2	SCS215a	20100819.120955	20100819.124834	8	0.013328	60	10	60-180	60	75	GapExp	0	359	2	3	1	target	1	414	793	259736	13.328	13.309	13.350
ProbeTrack11	7	ProbeTrack	11.2	SCS215a	20100819.120955	20100819.124839	8	0.013328	60	10	60-180	60	72	GapExp	0	360	2	45	0	distractor	1	440	780	260516	13.328	13.059	13.598
ProbeTrack11	7	ProbeTrack	11.2	SCS215a	20100819.120955	20100819.124845	8	0.013328	60	10	60-180	60	161	GapExp	0	361	2	3	1	target	1	494	753	261269	13.328	12.840	13.800
ProbeTrack11	7	ProbeTrack	11.2	SCS215a	20100819.120955	20100819.124852	8	0.013328	60	10	60-180	60	141	GapExp	0	362	2	3	1	target	1	480	760	262029	13.328	12.912	13.744
ProbeTrack11	7	ProbeTrack	11.2	SCS215a	20100819.120955	20100819.124859	8	0.013328	60	10	60-180	60	120	GapExp	0	363	2	1	1	target	1	547	727	262756	13.328	12.906	13.756
ProbeTrack11	7	ProbeTrack	11.2	SCS215a	20100819.120955	20100819.124905	8	0.013328	60	10	60-180	60	131	GapExp	0	364	2	1	1	target	1	693	654	263410	13.328	13.087	13.558
ProbeTrack11	7	ProbeTrack	11.2	SCS215a	20100819.120955	20100819.124912	8	0.013328	60	0	60-180	60	173	GapExp	0	365	2	1	0	distractor	1	720	640	264050	13.328	13.305	13.348
ProbeTrack11	7	ProbeTrack	11.2	SCS215a	20100819.120955	20100819.124918	8	0.013328	60	0	60-180	60	130	GapExp	0	366	2	1	1	target	1	494	753	264803	13.328	13.308	13.347
ProbeTrack11	7	ProbeTrack	11.2	SCS215a	20100819.120955	20100819.124924	8	0.013328	60	10	60-180	60	100	GapExp	0	367	2	1	1	target	1	520	740	265543	13.328	13.303	13.350
ProbeTrack11	7	ProbeTrack	11.2	SCS215a	20100819.120955	20100819.124930	8	0.013328	60	10	60-180	60	162	GapExp	0	368	2	1	1	target	1	427	787	266330	13.328	13.310	13.344
ProbeTrack11	7	ProbeTrack	11.2	SCS215a	20100819.120955	20100819.124937	8	0.013328	60	10	60-180	60	180	GapExp	0	369	2	3	1	target	1	454	773	267103	13.328	13.186	13.477
ProbeTrack11	7	ProbeTrack	11.2	SCS215a	20100819.120955	20100819.124944	8	0.013328	60	0	60-180	60	77	GapExp	0	370	2	3	1	target	1	733	634	267737	13.328	13.305	13.354
ProbeTrack11	7	ProbeTrack	11.2	SCS215a	20100819.120955	20100819.124949	8	0.013328	60	0	60-180	60	79	GapExp	0	371	2	3	1	target	1	467	767	268504	13.328	13.084	13.560
ProbeTrack11	7	ProbeTrack	11.2	SCS215a	20100819.120955	20100819.124955	8	0.013328	60	0	60-180	60	107	GapExp	0	372	2	1	0	distractor	1	534	733	269237	13.328	13.104	13.562
ProbeTrack11	7	ProbeTrack	11.2	SCS215a	20100819.120955	20100819.125001	8	0.013328	60	0	60-180	60	123	GapExp	0	373	2	0	0	distractor	1	667	667	269904	13.328	13.306	13.347
ProbeTrack11	7	ProbeTrack	11.2	SCS215a	20100819.120955	20100819.125007	8	0.013328	60	0	60-180	60	152	GapExp	0	374	2	45	0	distractor	1	520	740	270644	13.328	13.303	13.350
ProbeTrack11	7	ProbeTrack	11.2	SCS215a	20100819.120955	20100819.125013	8	0.013328	60	0	60-180	60	74	GapExp	0	375	2	45	0	distractor	1	547	727	271371	13.328	12.869	13.794
ProbeTrack11	7	ProbeTrack	11.2	SCS215a	20100819.120955	20100819.125019	8	0.013328	60	10	60-180	60	124	GapExp	0	376	2	1	1	distractor	0	400	-1000	270371	13.328	13.294	13.362
ProbeTrack11	7	ProbeTrack	11.2	SCS215a	20100819.120955	20100819.125026	8	0.013328	60	10	60-180	60	166	GapExp	0	377	2	3	0	distractor	1	400	800	271171	13.328	12.864	13.791
ProbeTrack11	7	ProbeTrack	11.2	SCS215a	20100819.120955	20100819.125032	8	0.013328	60	0	60-180	60	128	GapExp	0	378	2	0	1	target	1	627	687	271858	13.328	12.946	13.707
ProbeTrack11	7	ProbeTrack	11.2	SCS215a	20100819.120955	20100819.125038	8	0.013328	60	10	60-180	60	102	GapExp	0	379	2	0	1	target	1	374	813	272671	13.328	13.068	13.594
ProbeTrack11	7	ProbeTrack	11.2	SCS215a	20100819.120955	20100819.125044	8	0.013328	60	10	60-180	60	159	GapExp	0	380	2	1	1	target	1	414	793	273464	13.328	13.308	13.347
ProbeTrack11	7	ProbeTrack	11.2	SCS215a	20100819.120955	20100819.125050	8	0.013328	60	0	60-180	60	162	GapExp	0	381	2	45	1	target	1	347	827	274291	13.328	12.852	13.806
ProbeTrack11	7	ProbeTrack	11.2	SCS215a	20100819.120955	20100819.125057	8	0.013328	60	0	60-180	60	98	GapExp	0	382	2	45	0	distractor	1	667	667	274958	13.328	13.076	13.593
ProbeTrack11	7	ProbeTrack	11.2	SCS215a	20100819.120955	20100819.125103	8	0.013328	60	10	60-180	60	160	GapExp	0	383	2	1	1	target	1	547	727	275685	13.420	13.265	39.988
ProbeTrack11	7	ProbeTrack	11.2	SCS215a	20100819.120955	20100819.125110	8	0.013328	60	10	60-180	60	67	GapExp	0	384	2	1	1	target	1	494	753	276438	13.328	13.306	13.356
ProbeTrack11	7	ProbeTrack	11.2	SCS215a	20100819.120955	20100819.125115	8	0.013328	60	10	60-180	60	172	GapExp	0	385	2	3	0	distractor	1	480	760	277198	13.328	13.277	13.383
ProbeTrack11	7	ProbeTrack	11.2	SCS215a	20100819.120955	20100819.125122	8	0.013328	60	10	60-180	60	110	GapExp	0	386	2	45	0	target	0	534	-1000	276198	13.328	12.919	13.710
ProbeTrack11	7	ProbeTrack	11.2	SCS215a	20100819.120955	20100819.125128	8	0.013328	60	0	60-180	60	143	GapExp	0	387	2	0	0	distractor	1	693	654	276852	13.328	13.106	13.549
ProbeTrack11	7	ProbeTrack	11.2	SCS215a	20100819.120955	20100819.125135	8	0.013328	60	10	60-180	60	103	GapExp	0	388	2	3	1	target	1	547	727	277579	13.328	13.104	13.550
ProbeTrack11	7	ProbeTrack	11.2	SCS215a	20100819.120955	20100819.125141	8	0.013328	60	10	60-180	60	176	GapExp	0	389	2	0	1	distractor	0	693	-1000	276579	13.328	13.093	13.561
ProbeTrack11	7	ProbeTrack	11.2	SCS215a	20100819.120955	20100819.125148	8	0.013328	60	0	60-180	60	98	GapExp	0	390	2	45	0	distractor	1	640	680	277259	13.328	12.852	13.788
ProbeTrack11	7	ProbeTrack	11.2	SCS215a	20100819.120955	20100819.125154	8	0.013328	60	0	60-180	60	78	GapExp	0	391	2	0	0	distractor	1	507	747	278006	13.328	13.094	13.565
ProbeTrack11	7	ProbeTrack	11.2	SCS215a	20100819.120955	20100819.125200	8	0.013328	60	0	60-180	60	122	GapExp	0	392	2	0	0	distractor	1	494	753	278759	13.328	13.239	13.413
ProbeTrack11	7	ProbeTrack	11.2	SCS215a	20100819.120955	20100819.125206	8	0.013328	60	10	60-180	60	106	GapExp	0	393	2	45	0	distractor	1	467	767	279526	13.328	13.291	13.359
ProbeTrack11	7	ProbeTrack	11.2	SCS215a	20100819.120955	20100819.125212	8	0.013328	60	0	60-180	60	67	GapExp	0	394	2	1	0	distractor	1	560	720	280246	13.328	13.074	13.574
ProbeTrack11	7	ProbeTrack	11.2	SCS215a	20100819.120955	20100819.125217	8	0.013328	60	10	60-180	60	128	GapExp	0	395	2	0	1	target	1	454	773	281019	13.328	12.866	13.798
ProbeTrack11	7	ProbeTrack	11.2	SCS215a	20100819.120955	20100819.125223	8	0.013328	60	10	60-180	60	90	GapExp	0	396	2	0	1	target	1	414	793	281812	13.328	13.050	13.713
ProbeTrack11	7	ProbeTrack	11.2	SCS215a	20100819.120955	20100819.125228	8	0.013328	60	0	60-180	60	91	GapExp	0	397	2	45	1	target	1	494	753	282565	13.328	12.936	13.719
ProbeTrack11	7	ProbeTrack	11.2	SCS215a	20100819.120955	20100819.125234	8	0.013328	60	0	60-180	60	108	GapExp	0	398	2	45	1	target	1	440	780	283345	13.328	13.154	13.501
ProbeTrack11	7	ProbeTrack	11.2	SCS215a	20100819.120955	20100819.125240	8	0.013328	60	0	60-180	60	139	GapExp	0	399	2	3	1	target	1	867	567	283912	13.328	13.043	13.610
ProbeTrack11	7	ProbeTrack	11.2	SCS215a	20100819.120955	20100819.125247	8	0.013328	60	10	60-180	60	143	GapExp	0	400	2	3	1	target	1	534	733	284645	13.328	12.963	13.679
ProbeTrack11	7	ProbeTrack	11.2	SCS215a	20100819.120955	20100819.125255	8	0.013328	60	0	60-180	60	146	GapExp	0	401	2	45	0	distractor	1	534	733	285378	13.328	13.302	13.352
ProbeTrack11	7	ProbeTrack	11.2	SCS215a	20100819.120955	20100819.125303	8	0.013328	60	0	60-180	60	171	GapExp	0	402	2	45	1	target	1	440	780	286158	13.328	13.094	13.566
ProbeTrack11	7	ProbeTrack	11.2	SCS215a	20100819.120955	20100819.125314	8	0.013328	60	0	60-180	60	101	GapExp	0	403	2	3	1	target	1	467	767	286925	13.328	13.294	13.346
ProbeTrack11	7	ProbeTrack	11.2	SCS215a	20100819.120955	20100819.125321	8	0.013328	60	0	60-180	60	143	GapExp	0	404	2	3	1	target	1	387	807	287732	13.328	13.106	13.557
ProbeTrack11	7	ProbeTrack	11.2	SCS215a	20100819.120955	20100819.125327	8	0.013328	60	0	60-180	60	158	GapExp	0	405	2	3	1	target	1	427	787	288519	13.328	13.100	13.554
ProbeTrack11	7	ProbeTrack	11.2	SCS215a	20100819.120955	20100819.125333	8	0.013328	60	10	60-180	60	138	GapExp	0	406	2	0	1	target	1	480	760	289279	13.328	13.093	13.563
ProbeTrack11	7	ProbeTrack	11.2	SCS215a	20100819.120955	20100819.125339	8	0.013328	60	0	60-180	60	95	GapExp	0	407	2	45	1	target	1	480	760	290039	13.328	13.036	13.619
ProbeTrack11	7	ProbeTrack	11.2	SCS215a	20100819.120955	20100819.125345	8	0.013328	60	10	60-180	60	164	GapExp	0	408	2	3	0	distractor	1	507	747	290786	13.328	12.911	13.744
ProbeTrack11	7	ProbeTrack	11.2	SCS215a	20100819.120955	20100819.125352	8	0.013328	60	0	60-180	60	137	GapExp	0	409	2	1	0	32	-3	427	-1000	289786	13.328	13.077	13.585
ProbeTrack11	7	ProbeTrack	11.2	SCS215a	20100819.120955	20100819.125357	8	0.013328	60	10	60-180	60	66	GapExp	0	410	2	0	1	distractor	0	613	-1000	288786	13.328	13.306	13.345
ProbeTrack11	7	ProbeTrack	11.2	SCS215a	20100819.120955	20100819.125403	8	0.013328	60	10	60-180	60	175	GapExp	0	411	2	45	1	target	1	347	827	289613	13.328	12.920	13.746
ProbeTrack11	7	ProbeTrack	11.2	SCS215a	20100819.120955	20100819.125412	8	0.013328	60	10	60-180	60	175	GapExp	0	412	2	3	0	distractor	1	467	767	290380	13.328	13.019	13.649
ProbeTrack11	7	ProbeTrack	11.2	SCS215a	20100819.120955	20100819.125418	8	0.013328	60	0	60-180	60	178	GapExp	0	413	2	1	1	target	1	427	787	291167	13.328	13.309	13.345
ProbeTrack11	7	ProbeTrack	11.2	SCS215a	20100819.120955	20100819.125425	8	0.013328	60	0	60-180	60	64	GapExp	0	414	2	45	0	distractor	1	534	733	291900	13.328	13.309	13.346
ProbeTrack11	7	ProbeTrack	11.2	SCS215a	20100819.120955	20100819.125430	8	0.013328	60	0	60-180	60	166	GapExp	0	415	2	1	1	target	1	400	800	292700	13.327	13.099	13.360
ProbeTrack11	7	ProbeTrack	11.2	SCS215a	20100819.120955	20100819.125437	8	0.013328	60	10	60-180	60	174	GapExp	0	416	2	3	0	distractor	1	574	713	293413	13.328	13.302	13.348
ProbeTrack11	7	ProbeTrack	11.2	SCS215a	20100819.120955	20100819.125444	8	0.013328	60	10	60-180	60	61	GapExp	0	417	2	45	0	distractor	1	427	787	294200	13.328	13.112	13.549
ProbeTrack11	7	ProbeTrack	11.2	SCS215a	20100819.120955	20100819.125450	8	0.013328	60	10	60-180	60	80	GapExp	0	418	2	1	0	distractor	1	693	654	294854	13.328	13.099	13.551
ProbeTrack11	7	ProbeTrack	11.2	SCS215a	20100819.120955	20100819.125455	8	0.013328	60	0	60-180	60	110	GapExp	0	419	2	1	1	target	1	480	760	295614	13.328	13.297	13.350
ProbeTrack11	7	ProbeTrack	11.2	SCS215a	20100819.120955	20100819.125501	8	0.013328	60	0	60-180	60	82	GapExp	0	420	2	45	0	distractor	1	454	773	296387	13.328	13.308	13.346
ProbeTrack11	7	ProbeTrack	11.2	SCS215a	20100819.120955	20100819.125506	8	0.013328	60	10	60-180	60	153	GapExp	0	421	2	3	1	target	1	480	760	297147	13.328	12.881	13.786
ProbeTrack11	7	ProbeTrack	11.2	SCS215a	20100819.120955	20100819.125513	8	0.013328	60	10	60-180	60	73	GapExp	0	422	2	0	0	distractor	1	613	694	297841	13.328	12.876	13.783
ProbeTrack11	7	ProbeTrack	11.2	SCS215a	20100819.120955	20100819.125519	8	0.013328	60	10	60-180	60	89	GapExp	0	423	2	1	1	186	-3	813	-1000	296841	13.328	12.883	13.782
ProbeTrack11	7	ProbeTrack	11.2	SCS215a	20100819.120955	20100819.125527	8	0.013328	60	0	60-180	60	63	GapExp	0	424	2	0	1	target	1	494	753	297594	13.328	13.308	13.348
ProbeTrack11	7	ProbeTrack	11.2	SCS215a	20100819.120955	20100819.125533	8	0.013328	60	0	60-180	60	63	GapExp	0	425	2	0	1	target	1	414	793	298387	13.328	13.104	13.539
ProbeTrack11	7	ProbeTrack	11.2	SCS215a	20100819.120955	20100819.125538	8	0.013328	60	0	60-180	60	135	GapExp	0	426	2	3	0	distractor	1	440	780	299167	13.328	13.098	13.561
ProbeTrack11	7	ProbeTrack	11.2	SCS215a	20100819.120955	20100819.125544	8	0.013328	60	0	60-180	60	93	GapExp	0	427	2	1	1	target	1	587	707	299874	13.328	13.309	13.348
ProbeTrack11	7	ProbeTrack	11.2	SCS215a	20100819.120955	20100819.125549	8	0.013328	60	0	60-180	60	125	GapExp	0	428	2	1	1	target	1	640	680	300554	13.328	12.885	13.777
ProbeTrack11	7	ProbeTrack	11.2	SCS215a	20100819.120955	20100819.125555	8	0.013328	60	0	60-180	60	89	GapExp	0	429	2	3	0	distractor	1	747	627	301181	13.328	13.105	13.547
ProbeTrack11	7	ProbeTrack	11.2	SCS215a	20100819.120955	20100819.125600	8	0.013328	60	10	60-180	60	170	GapExp	0	430	2	3	0	distractor	1	520	740	301921	13.328	12.893	13.774
ProbeTrack11	7	ProbeTrack	11.2	SCS215a	20100819.120955	20100819.125607	8	0.013328	60	0	60-180	60	135	GapExp	0	431	2	45	1	target	1	427	787	302708	13.328	13.105	13.537
ProbeTrack11	7	ProbeTrack	11.2	SCS215a	20100819.120955	20100819.125614	8	0.013328	60	10	60-180	60	83	GapExp	0	432	2	45	1	target	1	627	687	303395	13.328	13.037	13.614
ProbeTrack11	7	ProbeTrack	11.2	SCS215a	20100819.120955	20100819.125620	8	0.013328	60	10	60-180	60	129	GapExp	0	433	2	0	0	target	0	560	-1000	302395	13.328	12.893	13.765
ProbeTrack11	7	ProbeTrack	11.2	SCS215a	20100819.120955	20100819.125626	8	0.013328	60	10	60-180	60	120	GapExp	0	434	2	0	0	target	0	520	-1000	301395	13.328	13.308	13.350
ProbeTrack11	7	ProbeTrack	11.2	SCS215a	20100819.120955	20100819.125632	8	0.013328	60	0	60-180	60	145	GapExp	0	435	2	1	0	distractor	1	507	747	302142	13.328	13.289	13.380
ProbeTrack11	7	ProbeTrack	11.2	SCS215a	20100819.120955	20100819.125638	8	0.013328	60	0	60-180	60	97	GapExp	0	436	2	45	0	distractor	1	467	767	302909	13.328	13.283	13.361
ProbeTrack11	7	ProbeTrack	11.2	SCS215a	20100819.120955	20100819.125645	8	0.013328	60	10	60-180	60	143	GapExp	0	437	2	3	1	target	1	494	753	303662	13.328	13.285	13.385
ProbeTrack11	7	ProbeTrack	11.2	SCS215a	20100819.120955	20100819.125652	8	0.013328	60	0	60-180	60	62	GapExp	0	438	2	3	1	target	1	494	753	304415	13.328	13.300	13.345
ProbeTrack11	7	ProbeTrack	11.2	SCS215a	20100819.120955	20100819.125658	8	0.013328	60	10	60-180	60	134	GapExp	0	439	2	3	0	target	0	547	-1000	303415	13.329	12.980	13.762
ProbeTrack11	7	ProbeTrack	11.2	SCS215a	20100819.120955	20100819.125704	8	0.013328	60	0	60-180	60	102	GapExp	0	440	2	0	1	target	1	440	780	304195	13.328	12.926	13.739
ProbeTrack11	7	ProbeTrack	11.2	SCS215a	20100819.120955	20100819.125710	8	0.013328	60	10	60-180	60	156	GapExp	0	441	2	0	0	distractor	1	520	740	304935	13.328	13.091	13.549
ProbeTrack11	7	ProbeTrack	11.2	SCS215a	20100819.120955	20100819.125717	8	0.013328	60	10	60-180	60	134	GapExp	0	442	2	45	0	target	0	480	-1000	303935	13.328	13.102	13.555
ProbeTrack11	7	ProbeTrack	11.2	SCS215a	20100819.120955	20100819.125725	8	0.013328	60	0	60-180	60	87	GapExp	0	443	2	1	1	target	1	733	634	304569	13.328	13.311	13.345
ProbeTrack11	7	ProbeTrack	11.2	SCS215a	20100819.120955	20100819.125730	8	0.013328	60	10	60-180	60	88	GapExp	0	444	2	1	0	distractor	1	747	627	305196	13.328	13.090	13.566
ProbeTrack11	7	ProbeTrack	11.2	SCS215a	20100819.120955	20100819.125736	8	0.013328	60	0	60-180	60	146	GapExp	0	445	2	3	1	target	1	480	760	305956	13.328	12.999	13.656
ProbeTrack11	7	ProbeTrack	11.2	SCS215a	20100819.120955	20100819.125743	8	0.013328	60	0	60-180	60	94	GapExp	0	446	2	45	1	target	1	627	687	306643	13.328	13.098	13.561
ProbeTrack11	7	ProbeTrack	11.2	SCS215a	20100819.120955	20100819.125750	8	0.013328	60	0	60-180	60	77	GapExp	0	447	2	3	1	target	1	507	747	307390	13.328	13.310	13.349
ProbeTrack11	7	ProbeTrack	11.2	SCS215a	20100819.120955	20100819.125755	8	0.013328	60	10	60-180	60	102	GapExp	0	448	2	3	0	distractor	1	427	787	308177	13.328	13.029	13.622
ProbeTrack11	7	ProbeTrack	11.2	SCS215a	20100819.120955	20100819.125801	8	0.013328	60	10	60-180	60	179	GapExp	0	449	2	0	1	target	1	427	787	308964	13.328	12.854	13.790
ProbeTrack11	7	ProbeTrack	11.2	SCS215a	20100819.120955	20100819.125807	8	0.013328	60	0	60-180	60	104	GapExp	0	450	2	1	0	distractor	1	667	667	309631	13.328	13.086	13.560
