exp	sub	code	rev	comp	runtime	trialtime	nstim	refreshdur	cuedur	gapdur	gapOnsetRange	durPostProbe	gapOnsetTime	blocktype	prac	trial	ntargets	soa	probeTarget	resp	acc	rt	pts	tpts	meanFrameDur	minFrameDur	maxFrameDur
ProbeTrack11	9	ProbeTrack	11.2	SCS215a	20101013.130311	20101013.130350	8	0.013328	60	0	60-180	60	96	NoGap	1	1	2	1	1	target	1	7344	0	0	13.328	13.234	13.388
ProbeTrack11	9	ProbeTrack	11.2	SCS215a	20101013.130311	20101013.130408	8	0.013328	60	0	60-180	60	80	NoGap	1	2	2	3	0	distractor	1	1093	454	454	13.328	13.146	13.476
ProbeTrack11	9	ProbeTrack	11.2	SCS215a	20101013.130311	20101013.130417	8	0.013328	60	0	60-180	60	148	NoGap	1	3	2	3	1	target	1	920	540	994	13.328	13.293	13.362
ProbeTrack11	9	ProbeTrack	11.2	SCS215a	20101013.130311	20101013.130437	8	0.013328	60	0	60-180	60	120	NoGap	1	4	2	45	0	distractor	1	600	700	1694	13.328	13.293	13.363
ProbeTrack11	9	ProbeTrack	11.2	SCS215a	20101013.130311	20101013.130444	8	0.013328	60	0	60-180	60	177	NoGap	1	5	2	1	0	distractor	1	653	674	2368	13.328	13.293	13.363
ProbeTrack11	9	ProbeTrack	11.2	SCS215a	20101013.130311	20101013.130451	8	0.013328	60	0	60-180	60	70	NoGap	1	6	2	3	1	target	1	1133	434	2802	13.328	13.143	13.546
ProbeTrack11	9	ProbeTrack	11.2	SCS215a	20101013.130311	20101013.130457	8	0.013328	60	0	60-180	60	160	NoGap	1	7	2	45	1	target	1	480	760	3562	13.328	13.289	13.363
ProbeTrack11	9	ProbeTrack	11.2	SCS215a	20101013.130311	20101013.130506	8	0.013328	60	0	60-180	60	171	NoGap	1	8	2	0	0	distractor	1	374	813	4375	13.328	13.293	13.363
ProbeTrack11	9	ProbeTrack	11.2	SCS215a	20101013.130311	20101013.130512	8	0.013328	60	0	60-180	60	152	NoGap	1	9	2	1	1	distractor	0	587	-1000	3375	13.328	13.293	13.363
ProbeTrack11	9	ProbeTrack	11.2	SCS215a	20101013.130311	20101013.130519	8	0.013328	60	0	60-180	60	85	NoGap	1	10	2	3	1	target	1	1053	474	3849	13.328	13.293	13.363
ProbeTrack11	9	ProbeTrack	11.2	SCS215a	20101013.130311	20101013.130526	8	0.013328	60	0	60-180	60	119	NoGap	1	11	2	45	0	distractor	1	587	707	4556	13.328	13.293	13.363
ProbeTrack11	9	ProbeTrack	11.2	SCS215a	20101013.130311	20101013.130534	8	0.013328	60	0	60-180	60	118	NoGap	1	12	2	3	0	distractor	1	600	700	5256	13.328	13.293	13.363
ProbeTrack11	9	ProbeTrack	11.2	SCS215a	20101013.130311	20101013.130540	8	0.013328	60	0	60-180	60	85	NoGap	1	13	2	3	1	target	1	827	587	5843	13.328	13.120	13.503
ProbeTrack11	9	ProbeTrack	11.2	SCS215a	20101013.130311	20101013.130546	8	0.013328	60	0	60-180	60	103	NoGap	1	14	2	45	0	distractor	1	400	800	6643	13.328	13.293	13.367
ProbeTrack11	9	ProbeTrack	11.2	SCS215a	20101013.130311	20101013.130552	8	0.013328	60	0	60-180	60	180	NoGap	1	15	2	1	0	distractor	1	574	713	7356	13.328	13.293	13.363
ProbeTrack11	9	ProbeTrack	11.2	SCS215a	20101013.130311	20101013.130559	8	0.013328	60	0	60-180	60	159	NoGap	1	16	2	0	1	target	1	494	753	8109	13.328	13.194	13.462
ProbeTrack11	9	ProbeTrack	11.2	SCS215a	20101013.130311	20101013.130606	8	0.013328	60	0	60-180	60	149	NoGap	1	17	2	3	0	distractor	1	667	667	8776	13.328	13.292	13.363
ProbeTrack11	9	ProbeTrack	11.2	SCS215a	20101013.130311	20101013.130614	8	0.013328	60	0	60-180	60	166	NoGap	1	18	2	1	0	distractor	1	560	720	9496	13.328	13.293	13.363
ProbeTrack11	9	ProbeTrack	11.2	SCS215a	20101013.130311	20101013.130620	8	0.013328	60	0	60-180	60	156	NoGap	1	19	2	45	1	target	1	400	800	10296	13.328	13.031	13.658
ProbeTrack11	9	ProbeTrack	11.2	SCS215a	20101013.130311	20101013.130627	8	0.013328	60	0	60-180	60	86	NoGap	1	20	2	45	1	target	1	520	740	11036	13.328	13.209	13.479
ProbeTrack11	9	ProbeTrack	11.2	SCS215a	20101013.130311	20101013.130634	8	0.013328	60	0	60-180	60	70	NoGap	1	21	2	0	0	distractor	1	680	660	11696	13.328	13.290	13.363
ProbeTrack11	9	ProbeTrack	11.2	SCS215a	20101013.130311	20101013.130640	8	0.013328	60	0	60-180	60	77	NoGap	1	22	2	1	1	target	1	654	673	12369	13.328	13.293	13.363
ProbeTrack11	9	ProbeTrack	11.2	SCS215a	20101013.130311	20101013.130646	8	0.013328	60	0	60-180	60	82	NoGap	1	23	2	45	0	distractor	1	374	813	13182	13.328	13.293	13.363
ProbeTrack11	9	ProbeTrack	11.2	SCS215a	20101013.130311	20101013.130651	8	0.013328	60	0	60-180	60	153	NoGap	1	24	2	0	1	target	1	733	634	13816	13.328	13.290	13.363
ProbeTrack11	9	ProbeTrack	11.2	SCS215a	20101013.130311	20101013.130658	8	0.013328	60	0	60-180	60	64	NoGap	1	25	2	1	1	target	1	667	667	14483	13.328	13.281	13.376
ProbeTrack11	9	ProbeTrack	11.2	SCS215a	20101013.130311	20101013.130704	8	0.013328	60	0	60-180	60	159	NoGap	1	26	2	1	0	distractor	1	640	680	15163	13.328	12.901	13.787
ProbeTrack11	9	ProbeTrack	11.2	SCS215a	20101013.130311	20101013.130711	8	0.013328	60	0	60-180	60	113	NoGap	1	27	2	0	1	target	1	667	667	15830	13.328	13.219	13.403
ProbeTrack11	9	ProbeTrack	11.2	SCS215a	20101013.130311	20101013.130717	8	0.013328	60	0	60-180	60	128	NoGap	1	28	2	3	0	distractor	1	547	727	16557	13.328	13.293	13.363
ProbeTrack11	9	ProbeTrack	11.2	SCS215a	20101013.130311	20101013.130723	8	0.013328	60	0	60-180	60	74	NoGap	1	29	2	0	0	distractor	1	693	654	17211	13.328	13.194	13.427
ProbeTrack11	9	ProbeTrack	11.2	SCS215a	20101013.130311	20101013.130729	8	0.013328	60	0	60-180	60	110	NoGap	1	30	2	45	0	distractor	1	574	713	17924	13.328	13.281	13.374
ProbeTrack11	9	ProbeTrack	11.2	SCS215a	20101013.130311	20101013.130735	8	0.013328	60	0	60-180	60	113	NoGap	1	31	2	45	1	target	1	574	713	18637	13.328	13.287	13.403
ProbeTrack11	9	ProbeTrack	11.2	SCS215a	20101013.130311	20101013.130743	8	0.013328	60	0	60-180	60	108	NoGap	1	32	2	0	1	target	1	960	520	19157	13.328	13.289	13.366
ProbeTrack11	9	ProbeTrack	11.2	SCS215a	20101013.130311	20101013.130749	8	0.013328	60	0	60-180	60	163	NoGap	1	33	2	3	0	distractor	1	587	707	19864	13.328	12.954	13.668
ProbeTrack11	9	ProbeTrack	11.2	SCS215a	20101013.130311	20101013.130756	8	0.013328	60	0	60-180	60	140	NoGap	1	34	2	0	0	distractor	1	600	700	20564	13.328	13.103	13.552
ProbeTrack11	9	ProbeTrack	11.2	SCS215a	20101013.130311	20101013.130803	8	0.013328	60	0	60-180	60	86	NoGap	1	35	2	0	1	target	1	600	700	21264	13.328	13.293	13.362
ProbeTrack11	9	ProbeTrack	11.2	SCS215a	20101013.130311	20101013.130808	8	0.013328	60	0	60-180	60	147	NoGap	1	36	2	45	1	target	1	427	787	22051	13.328	13.293	13.363
ProbeTrack11	9	ProbeTrack	11.2	SCS215a	20101013.130311	20101013.130815	8	0.013328	60	0	60-180	60	107	NoGap	1	37	2	1	1	target	1	627	687	22738	13.328	13.293	13.363
ProbeTrack11	9	ProbeTrack	11.2	SCS215a	20101013.130311	20101013.130822	8	0.013328	60	0	60-180	60	119	NoGap	1	38	2	3	1	target	1	587	707	23445	13.328	13.134	13.523
ProbeTrack11	9	ProbeTrack	11.2	SCS215a	20101013.130311	20101013.130827	8	0.013328	60	0	60-180	60	75	NoGap	1	39	2	1	0	distractor	1	640	680	24125	13.328	13.293	13.363
ProbeTrack11	9	ProbeTrack	11.2	SCS215a	20101013.130311	20101013.130833	8	0.013328	60	0	60-180	60	157	NoGap	1	40	2	0	0	distractor	1	614	693	24818	13.328	13.293	13.363
ProbeTrack11	9	ProbeTrack	11.2	SCS215a	20101013.130914	20101013.130932	8	0.013328	60	10	60-180	60	89	GapPrac	1	1	2	45	1	target	1	907	547	25365	13.328	12.939	13.726
ProbeTrack11	9	ProbeTrack	11.2	SCS215a	20101013.130914	20101013.130941	8	0.013328	60	10	60-180	60	121	GapPrac	1	2	2	45	0	distractor	1	1133	434	25799	13.328	12.903	13.756
ProbeTrack11	9	ProbeTrack	11.2	SCS215a	20101013.130914	20101013.130957	8	0.013328	60	0	60-180	60	93	GapPrac	1	3	2	1	1	target	1	640	680	26479	13.328	13.171	13.465
ProbeTrack11	9	ProbeTrack	11.2	SCS215a	20101013.130914	20101013.131004	8	0.013328	60	10	60-180	60	115	GapPrac	1	4	2	3	1	target	1	720	640	27119	13.328	12.857	13.804
ProbeTrack11	9	ProbeTrack	11.2	SCS215a	20101013.130914	20101013.131010	8	0.013328	60	0	60-180	60	149	GapPrac	1	5	2	45	0	distractor	1	600	700	27819	13.328	13.309	13.346
ProbeTrack11	9	ProbeTrack	11.2	SCS215a	20101013.130914	20101013.131018	8	0.013328	60	10	60-180	60	63	GapPrac	1	6	2	3	1	target	1	653	674	28493	13.328	13.308	13.356
ProbeTrack11	9	ProbeTrack	11.2	SCS215a	20101013.130914	20101013.131023	8	0.013328	60	10	60-180	60	70	GapPrac	1	7	2	45	1	distractor	0	560	-1000	27493	13.328	13.092	13.565
ProbeTrack11	9	ProbeTrack	11.2	SCS215a	20101013.130914	20101013.131029	8	0.013328	60	0	60-180	60	154	GapPrac	1	8	2	3	1	target	1	693	654	28147	13.328	13.105	13.557
ProbeTrack11	9	ProbeTrack	11.2	SCS215a	20101013.130914	20101013.131036	8	0.013328	60	0	60-180	60	68	GapPrac	1	9	2	45	1	target	1	574	713	28860	13.328	13.268	13.400
ProbeTrack11	9	ProbeTrack	11.2	SCS215a	20101013.130914	20101013.131042	8	0.013328	60	0	60-180	60	169	GapPrac	1	10	2	0	0	distractor	1	760	620	29480	13.328	13.105	13.564
ProbeTrack11	9	ProbeTrack	11.2	SCS215a	20101013.130914	20101013.131050	8	0.013328	60	10	60-180	60	164	GapPrac	1	11	2	45	0	target	0	773	-1000	28480	13.328	12.874	13.773
ProbeTrack11	9	ProbeTrack	11.2	SCS215a	20101013.130914	20101013.131057	8	0.013328	60	10	60-180	60	117	GapPrac	1	12	2	1	0	target	0	960	-1000	27480	13.328	13.106	13.563
ProbeTrack11	9	ProbeTrack	11.2	SCS215a	20101013.130914	20101013.131104	8	0.013328	60	10	60-180	60	172	GapPrac	1	13	2	1	1	target	1	947	527	28007	13.328	13.307	13.349
ProbeTrack11	9	ProbeTrack	11.2	SCS215a	20101013.130914	20101013.131114	8	0.013328	60	10	60-180	60	115	GapPrac	1	14	2	0	1	distractor	0	933	-1000	27007	13.328	12.990	13.656
ProbeTrack11	9	ProbeTrack	11.2	SCS215a	20101013.130914	20101013.131121	8	0.013328	60	0	60-180	60	107	GapPrac	1	15	2	0	1	target	1	600	700	27707	13.328	13.226	13.441
ProbeTrack11	9	ProbeTrack	11.2	SCS215a	20101013.130914	20101013.131128	8	0.013328	60	0	60-180	60	127	GapPrac	1	16	2	1	0	distractor	1	707	647	28354	13.328	13.308	13.348
ProbeTrack11	9	ProbeTrack	11.2	SCS215a	20101013.130914	20101013.131134	8	0.013328	60	10	60-180	60	144	GapPrac	1	17	2	3	0	distractor	1	1267	367	28721	13.328	13.102	13.543
ProbeTrack11	9	ProbeTrack	11.2	SCS215a	20101013.130914	20101013.131142	8	0.013328	60	0	60-180	60	62	GapPrac	1	18	2	1	1	target	1	1053	474	29195	13.328	12.916	13.741
ProbeTrack11	9	ProbeTrack	11.2	SCS215a	20101013.130914	20101013.131148	8	0.013328	60	0	60-180	60	178	GapPrac	1	19	2	3	0	target	0	813	-1000	28195	13.328	13.080	13.563
ProbeTrack11	9	ProbeTrack	11.2	SCS215a	20101013.130914	20101013.131155	8	0.013328	60	10	60-180	60	88	GapPrac	1	20	2	0	0	distractor	1	933	534	28729	13.328	12.959	13.703
ProbeTrack11	9	ProbeTrack	11.2	SCS215a	20101013.131319	20101013.131325	8	0.013328	60	0	60-180	60	156	GapPrac	1	1	2	3	1	target	1	733	634	29363	13.328	13.309	13.347
ProbeTrack11	9	ProbeTrack	11.2	SCS215a	20101013.131319	20101013.131334	8	0.013328	60	0	60-180	60	61	GapPrac	1	2	2	0	0	distractor	1	907	547	29910	13.328	12.944	13.706
ProbeTrack11	9	ProbeTrack	11.2	SCS215a	20101013.131319	20101013.131340	8	0.013328	60	0	60-180	60	136	GapPrac	1	3	2	1	1	target	1	680	660	30570	13.378	12.943	26.648
ProbeTrack11	9	ProbeTrack	11.2	SCS215a	20101013.131319	20101013.131347	8	0.013328	60	0	60-180	60	180	GapPrac	1	4	2	3	0	distractor	1	720	640	31210	13.328	13.091	13.570
ProbeTrack11	9	ProbeTrack	11.2	SCS215a	20101013.131319	20101013.131354	8	0.013328	60	0	60-180	60	166	GapPrac	1	5	2	3	1	target	1	720	640	31850	13.328	12.882	13.777
ProbeTrack11	9	ProbeTrack	11.2	SCS215a	20101013.131319	20101013.131401	8	0.013328	60	0	60-180	60	77	GapPrac	1	6	2	0	1	target	1	747	627	32477	13.328	13.104	13.551
ProbeTrack11	9	ProbeTrack	11.2	SCS215a	20101013.131319	20101013.131406	8	0.013328	60	0	60-180	60	97	GapPrac	1	7	2	45	1	target	1	494	753	33230	13.328	13.309	13.350
ProbeTrack11	9	ProbeTrack	11.2	SCS215a	20101013.131319	20101013.131416	8	0.013328	60	10	60-180	60	79	GapPrac	1	8	2	3	0	target	0	840	-1000	32230	13.328	12.933	13.715
ProbeTrack11	9	ProbeTrack	11.2	SCS215a	20101013.131319	20101013.131422	8	0.013328	60	0	60-180	60	137	GapPrac	1	9	2	3	0	distractor	1	787	607	32837	13.328	12.917	13.739
ProbeTrack11	9	ProbeTrack	11.2	SCS215a	20101013.131319	20101013.131429	8	0.013328	60	10	60-180	60	126	GapPrac	1	10	2	0	0	distractor	1	1493	254	33091	13.328	13.310	13.345
ProbeTrack11	9	ProbeTrack	11.2	SCS215a	20101013.131319	20101013.131438	8	0.013328	60	0	60-180	60	132	GapPrac	1	11	2	1	0	distractor	1	1040	480	33571	13.328	13.240	13.432
ProbeTrack11	9	ProbeTrack	11.2	SCS215a	20101013.131319	20101013.131445	8	0.013328	60	10	60-180	60	105	GapPrac	1	12	2	1	1	target	1	1267	367	33938	13.328	12.867	13.795
ProbeTrack11	9	ProbeTrack	11.2	SCS215a	20101013.131319	20101013.131451	8	0.013328	60	0	60-180	60	71	GapPrac	1	13	2	45	0	distractor	1	733	634	34572	13.328	13.226	13.428
ProbeTrack11	9	ProbeTrack	11.2	SCS215a	20101013.131319	20101013.131458	8	0.013328	60	10	60-180	60	147	GapPrac	1	14	2	3	1	target	1	893	554	35126	13.328	12.932	13.719
ProbeTrack11	9	ProbeTrack	11.2	SCS215a	20101013.131319	20101013.131507	8	0.013328	60	10	60-180	60	153	GapPrac	1	15	2	1	0	distractor	1	653	674	35800	13.328	13.284	13.370
ProbeTrack11	9	ProbeTrack	11.2	SCS215a	20101013.131319	20101013.131514	8	0.013328	60	0	60-180	60	65	GapPrac	1	16	2	0	0	distractor	1	827	587	36387	14.594	12.866	146.608
ProbeTrack11	9	ProbeTrack	11.2	SCS215a	20101013.131319	20101013.131520	8	0.013328	60	10	60-180	60	130	GapPrac	1	17	2	45	1	target	1	574	713	37100	13.328	13.155	13.503
ProbeTrack11	9	ProbeTrack	11.2	SCS215a	20101013.131319	20101013.131527	8	0.013328	60	10	60-180	60	97	GapPrac	1	18	2	45	0	distractor	1	574	713	37813	13.328	13.308	13.348
ProbeTrack11	9	ProbeTrack	11.2	SCS215a	20101013.131319	20101013.131534	8	0.013328	60	0	60-180	60	162	GapPrac	1	19	2	1	1	target	1	693	654	38467	13.328	12.995	13.671
ProbeTrack11	9	ProbeTrack	11.2	SCS215a	20101013.131319	20101013.131541	8	0.013328	60	10	60-180	60	150	GapPrac	1	20	2	0	1	target	1	707	647	39114	13.328	13.307	13.348
ProbeTrack11	9	ProbeTrack	11.2	SCS215a	20101013.131610	20101013.131647	8	0.013328	60	0	60-180	60	67	GapExp	1	1	2	45	1	target	1	494	753	39867	13.328	12.946	13.771
ProbeTrack11	9	ProbeTrack	11.2	SCS215a	20101013.131610	20101013.131653	8	0.013328	60	10	60-180	60	156	GapExp	1	2	2	0	1	target	1	467	767	40634	13.328	13.004	13.627
ProbeTrack11	9	ProbeTrack	11.2	SCS215a	20101013.131610	20101013.131700	8	0.013328	60	0	60-180	60	64	GapExp	0	3	2	45	0	distractor	1	600	700	41334	13.328	12.885	13.765
ProbeTrack11	9	ProbeTrack	11.2	SCS215a	20101013.131610	20101013.131706	8	0.013328	60	0	60-180	60	91	GapExp	0	4	2	0	1	target	1	427	787	42121	13.328	12.940	13.725
ProbeTrack11	9	ProbeTrack	11.2	SCS215a	20101013.131610	20101013.131712	8	0.013328	60	0	60-180	60	178	GapExp	0	5	2	45	0	distractor	1	813	594	42715	13.328	12.912	13.745
ProbeTrack11	9	ProbeTrack	11.2	SCS215a	20101013.131610	20101013.131719	8	0.013328	60	10	60-180	60	62	GapExp	0	6	2	0	1	target	1	1013	494	43209	13.328	13.310	13.349
ProbeTrack11	9	ProbeTrack	11.2	SCS215a	20101013.131610	20101013.131725	8	0.013328	60	10	60-180	60	129	GapExp	0	7	2	45	0	distractor	1	480	760	43969	13.328	13.300	13.352
ProbeTrack11	9	ProbeTrack	11.2	SCS215a	20101013.131610	20101013.131732	8	0.013328	60	10	60-180	60	118	GapExp	0	8	2	3	0	distractor	1	1200	400	44369	13.328	13.287	13.366
ProbeTrack11	9	ProbeTrack	11.2	SCS215a	20101013.131610	20101013.131739	8	0.013328	60	10	60-180	60	175	GapExp	0	9	2	1	0	distractor	1	880	560	44929	13.328	13.309	13.352
ProbeTrack11	9	ProbeTrack	11.2	SCS215a	20101013.131610	20101013.131747	8	0.013328	60	0	60-180	60	166	GapExp	0	10	2	45	0	distractor	1	574	713	45642	13.328	13.312	13.352
ProbeTrack11	9	ProbeTrack	11.2	SCS215a	20101013.131610	20101013.131754	8	0.013328	60	10	60-180	60	66	GapExp	0	11	2	1	1	target	1	800	600	46242	13.328	13.307	13.347
ProbeTrack11	9	ProbeTrack	11.2	SCS215a	20101013.131610	20101013.131800	8	0.013328	60	0	60-180	60	162	GapExp	0	12	2	45	1	target	1	667	667	46909	13.328	12.929	13.719
ProbeTrack11	9	ProbeTrack	11.2	SCS215a	20101013.131610	20101013.131808	8	0.013328	60	10	60-180	60	84	GapExp	0	13	2	1	0	target	0	1706	-1000	45909	13.328	13.307	13.348
ProbeTrack11	9	ProbeTrack	11.2	SCS215a	20101013.131610	20101013.131815	8	0.013328	60	0	60-180	60	147	GapExp	0	14	2	3	1	target	1	640	680	46589	13.328	13.308	13.348
ProbeTrack11	9	ProbeTrack	11.2	SCS215a	20101013.131610	20101013.131823	8	0.013328	60	10	60-180	60	171	GapExp	0	15	2	1	0	distractor	1	667	667	47256	13.328	12.920	13.739
ProbeTrack11	9	ProbeTrack	11.2	SCS215a	20101013.131610	20101013.131830	8	0.013328	60	0	60-180	60	118	GapExp	0	16	2	1	0	target	0	667	-1000	46256	13.328	13.308	13.347
ProbeTrack11	9	ProbeTrack	11.2	SCS215a	20101013.131610	20101013.131836	8	0.013328	60	0	60-180	60	67	GapExp	0	17	2	45	0	distractor	1	1520	240	46496	13.328	13.309	13.348
ProbeTrack11	9	ProbeTrack	11.2	SCS215a	20101013.131610	20101013.131844	8	0.013328	60	0	60-180	60	133	GapExp	0	18	2	3	0	distractor	1	1373	314	46810	13.328	13.308	13.348
ProbeTrack11	9	ProbeTrack	11.2	SCS215a	20101013.131610	20101013.131851	8	0.013328	60	10	60-180	60	145	GapExp	0	19	2	45	1	target	1	534	733	47543	13.328	12.860	13.806
ProbeTrack11	9	ProbeTrack	11.2	SCS215a	20101013.131610	20101013.131859	8	0.013328	60	10	60-180	60	178	GapExp	0	20	2	3	0	distractor	1	707	647	48190	13.867	12.858	120.025
ProbeTrack11	9	ProbeTrack	11.2	SCS215a	20101013.131610	20101013.131907	8	0.013328	60	0	60-180	60	115	GapExp	0	21	2	0	0	distractor	1	773	614	48804	13.328	13.099	13.543
ProbeTrack11	9	ProbeTrack	11.2	SCS215a	20101013.131610	20101013.131913	8	0.013328	60	10	60-180	60	139	GapExp	0	22	2	45	1	target	1	707	647	49451	13.328	13.105	13.549
ProbeTrack11	9	ProbeTrack	11.2	SCS215a	20101013.131610	20101013.131922	8	0.013328	60	10	60-180	60	148	GapExp	0	23	2	1	1	target	1	693	654	50105	13.328	13.102	13.552
ProbeTrack11	9	ProbeTrack	11.2	SCS215a	20101013.131610	20101013.131930	8	0.013328	60	10	60-180	60	148	GapExp	0	24	2	45	0	distractor	1	613	694	50799	13.328	13.055	13.609
ProbeTrack11	9	ProbeTrack	11.2	SCS215a	20101013.131610	20101013.131938	8	0.013328	60	0	60-180	60	142	GapExp	0	25	2	45	0	distractor	1	907	547	51346	13.328	12.865	13.794
ProbeTrack11	9	ProbeTrack	11.2	SCS215a	20101013.131610	20101013.131946	8	0.013328	60	10	60-180	60	144	GapExp	0	26	2	3	1	target	1	1533	234	51580	13.328	12.871	13.786
ProbeTrack11	9	ProbeTrack	11.2	SCS215a	20101013.131610	20101013.131953	8	0.013328	60	10	60-180	60	162	GapExp	0	27	2	3	1	target	1	600	700	52280	13.328	12.978	13.684
ProbeTrack11	9	ProbeTrack	11.2	SCS215a	20101013.131610	20101013.132001	8	0.013328	60	10	60-180	60	61	GapExp	0	28	2	45	0	distractor	1	547	727	53007	13.328	13.309	13.346
ProbeTrack11	9	ProbeTrack	11.2	SCS215a	20101013.131610	20101013.132007	8	0.013328	60	10	60-180	60	68	GapExp	0	29	2	45	1	target	1	534	733	53740	13.328	12.846	13.800
ProbeTrack11	9	ProbeTrack	11.2	SCS215a	20101013.131610	20101013.132013	8	0.013328	60	0	60-180	60	97	GapExp	0	30	2	1	1	target	1	613	694	54434	13.328	12.900	13.763
ProbeTrack11	9	ProbeTrack	11.2	SCS215a	20101013.131610	20101013.132020	8	0.013328	60	10	60-180	60	80	GapExp	0	31	2	45	1	target	1	987	507	54941	13.328	12.921	13.744
ProbeTrack11	9	ProbeTrack	11.2	SCS215a	20101013.131610	20101013.132026	8	0.013328	60	0	60-180	60	159	GapExp	0	32	2	1	1	target	1	640	680	55621	13.328	13.307	13.356
ProbeTrack11	9	ProbeTrack	11.2	SCS215a	20101013.131610	20101013.132034	8	0.013328	60	0	60-180	60	153	GapExp	0	33	2	0	1	target	1	600	700	56321	13.328	13.309	13.346
ProbeTrack11	9	ProbeTrack	11.2	SCS215a	20101013.131610	20101013.132042	8	0.013328	60	10	60-180	60	172	GapExp	0	34	2	0	0	distractor	1	707	647	56968	13.328	12.864	13.799
ProbeTrack11	9	ProbeTrack	11.2	SCS215a	20101013.131610	20101013.132048	8	0.013328	60	10	60-180	60	170	GapExp	0	35	2	0	1	target	1	693	654	57622	13.328	12.953	13.698
ProbeTrack11	9	ProbeTrack	11.2	SCS215a	20101013.131610	20101013.132055	8	0.013328	60	10	60-180	60	83	GapExp	0	36	2	0	0	distractor	1	867	567	58189	13.328	12.917	13.743
ProbeTrack11	9	ProbeTrack	11.2	SCS215a	20101013.131610	20101013.132101	8	0.013328	60	10	60-180	60	71	GapExp	0	37	2	1	0	target	0	867	-1000	57189	13.328	13.108	13.556
ProbeTrack11	9	ProbeTrack	11.2	SCS215a	20101013.131610	20101013.132107	8	0.013328	60	0	60-180	60	92	GapExp	0	38	2	45	1	target	1	520	740	57929	13.328	12.861	13.806
ProbeTrack11	9	ProbeTrack	11.2	SCS215a	20101013.131610	20101013.132113	8	0.013328	60	0	60-180	60	153	GapExp	0	39	2	45	1	target	1	507	747	58676	13.328	13.083	13.571
ProbeTrack11	9	ProbeTrack	11.2	SCS215a	20101013.131610	20101013.132120	8	0.013328	60	0	60-180	60	97	GapExp	0	40	2	3	1	target	1	507	747	59423	13.328	13.107	13.556
ProbeTrack11	9	ProbeTrack	11.2	SCS215a	20101013.131610	20101013.132126	8	0.013328	60	0	60-180	60	97	GapExp	0	41	2	3	0	distractor	1	680	660	60083	13.328	12.952	13.702
ProbeTrack11	9	ProbeTrack	11.2	SCS215a	20101013.131610	20101013.132132	8	0.013328	60	10	60-180	60	92	GapExp	0	42	2	45	0	distractor	1	587	707	60790	13.328	12.862	13.792
ProbeTrack11	9	ProbeTrack	11.2	SCS215a	20101013.131610	20101013.132138	8	0.013328	60	10	60-180	60	62	GapExp	0	43	2	45	0	target	0	3585	-1000	59790	13.328	12.879	13.777
ProbeTrack11	9	ProbeTrack	11.2	SCS215a	20101013.131610	20101013.132147	8	0.013328	60	10	60-180	60	77	GapExp	0	44	2	3	0	distractor	1	960	520	60310	13.328	13.303	13.347
ProbeTrack11	9	ProbeTrack	11.2	SCS215a	20101013.131610	20101013.132153	8	0.013328	60	0	60-180	60	118	GapExp	0	45	2	45	1	target	1	560	720	61030	13.328	13.310	13.347
ProbeTrack11	9	ProbeTrack	11.2	SCS215a	20101013.131610	20101013.132159	8	0.013328	60	0	60-180	60	108	GapExp	0	46	2	3	0	distractor	1	640	680	61710	13.328	13.290	13.358
ProbeTrack11	9	ProbeTrack	11.2	SCS215a	20101013.131610	20101013.132205	8	0.013328	60	0	60-180	60	89	GapExp	0	47	2	0	0	distractor	1	987	507	62217	13.328	12.878	13.789
ProbeTrack11	9	ProbeTrack	11.2	SCS215a	20101013.131610	20101013.132211	8	0.013328	60	10	60-180	60	158	GapExp	0	48	2	0	0	distractor	1	1240	380	62597	13.328	12.973	13.613
ProbeTrack11	9	ProbeTrack	11.2	SCS215a	20101013.131610	20101013.132218	8	0.013328	60	0	60-180	60	115	GapExp	0	49	2	3	0	distractor	1	907	547	63144	13.328	13.101	13.549
ProbeTrack11	9	ProbeTrack	11.2	SCS215a	20101013.131610	20101013.132225	8	0.013328	60	0	60-180	60	155	GapExp	0	50	2	1	1	target	1	600	700	63844	13.328	13.085	13.573
ProbeTrack11	9	ProbeTrack	11.2	SCS215a	20101013.131610	20101013.132231	8	0.013328	60	0	60-180	60	136	GapExp	0	51	2	1	0	distractor	1	773	614	64458	13.328	13.108	13.547
ProbeTrack11	9	ProbeTrack	11.2	SCS215a	20101013.131610	20101013.132237	8	0.013328	60	10	60-180	60	114	GapExp	0	52	2	3	1	target	1	640	680	65138	13.328	12.971	13.687
ProbeTrack11	9	ProbeTrack	11.2	SCS215a	20101013.131610	20101013.132243	8	0.013328	60	10	60-180	60	80	GapExp	0	53	2	3	1	target	1	880	560	65698	13.328	13.304	13.356
ProbeTrack11	9	ProbeTrack	11.2	SCS215a	20101013.131610	20101013.132249	8	0.013328	60	0	60-180	60	70	GapExp	0	54	2	45	1	target	1	627	687	66385	13.328	12.837	13.825
ProbeTrack11	9	ProbeTrack	11.2	SCS215a	20101013.131610	20101013.132255	8	0.013328	60	10	60-180	60	153	GapExp	0	55	2	45	1	target	1	800	600	66985	13.328	12.914	13.742
ProbeTrack11	9	ProbeTrack	11.2	SCS215a	20101013.131610	20101013.132303	8	0.013328	60	10	60-180	60	178	GapExp	0	56	2	1	0	distractor	1	1533	234	67219	13.328	12.862	13.790
ProbeTrack11	9	ProbeTrack	11.2	SCS215a	20101013.131610	20101013.132311	8	0.013328	60	0	60-180	60	107	GapExp	0	57	2	1	1	target	1	693	654	67873	13.328	13.309	13.346
ProbeTrack11	9	ProbeTrack	11.2	SCS215a	20101013.131610	20101013.132317	8	0.013328	60	10	60-180	60	78	GapExp	0	58	2	1	1	target	1	1826	87	67960	13.328	13.309	13.346
ProbeTrack11	9	ProbeTrack	11.2	SCS215a	20101013.131610	20101013.132324	8	0.013328	60	0	60-180	60	130	GapExp	0	59	2	0	1	target	1	534	733	68693	13.328	12.855	13.801
ProbeTrack11	9	ProbeTrack	11.2	SCS215a	20101013.131610	20101013.132330	8	0.013328	60	10	60-180	60	114	GapExp	0	60	2	0	1	target	1	1760	120	68813	13.328	13.307	13.345
ProbeTrack11	9	ProbeTrack	11.2	SCS215a	20101013.131610	20101013.132337	8	0.013328	60	10	60-180	60	134	GapExp	0	61	2	0	1	target	1	747	627	69440	13.328	13.309	13.350
ProbeTrack11	9	ProbeTrack	11.2	SCS215a	20101013.131610	20101013.132343	8	0.013328	60	10	60-180	60	122	GapExp	0	62	2	1	1	target	1	787	607	70047	13.328	12.888	13.762
ProbeTrack11	9	ProbeTrack	11.2	SCS215a	20101013.131610	20101013.132350	8	0.013328	60	10	60-180	60	127	GapExp	0	63	2	3	0	distractor	1	867	567	70614	13.328	12.858	13.795
ProbeTrack11	9	ProbeTrack	11.2	SCS215a	20101013.131610	20101013.132358	8	0.013328	60	10	60-180	60	82	GapExp	0	64	2	3	1	target	1	640	680	71294	13.328	13.309	13.344
ProbeTrack11	9	ProbeTrack	11.2	SCS215a	20101013.131610	20101013.132404	8	0.013328	60	10	60-180	60	100	GapExp	0	65	2	45	1	distractor	0	1586	-1000	70294	13.328	13.099	13.543
ProbeTrack11	9	ProbeTrack	11.2	SCS215a	20101013.131610	20101013.132411	8	0.013328	60	10	60-180	60	123	GapExp	0	66	2	45	1	target	1	467	767	71061	13.328	13.309	13.347
ProbeTrack11	9	ProbeTrack	11.2	SCS215a	20101013.131610	20101013.132417	8	0.013328	60	0	60-180	60	82	GapExp	0	67	2	1	0	distractor	1	1013	494	71555	13.328	12.867	13.788
ProbeTrack11	9	ProbeTrack	11.2	SCS215a	20101013.131610	20101013.132423	8	0.013328	60	10	60-180	60	93	GapExp	0	68	2	45	0	distractor	1	534	733	72288	13.328	13.099	13.550
ProbeTrack11	9	ProbeTrack	11.2	SCS215a	20101013.131610	20101013.132429	8	0.013328	60	10	60-180	60	146	GapExp	0	69	2	1	0	distractor	1	1080	460	72748	13.328	12.859	13.798
ProbeTrack11	9	ProbeTrack	11.2	SCS215a	20101013.131610	20101013.132436	8	0.013328	60	0	60-180	60	73	GapExp	0	70	2	3	0	distractor	1	880	560	73308	13.328	13.106	13.544
ProbeTrack11	9	ProbeTrack	11.2	SCS215a	20101013.131610	20101013.132442	8	0.013328	60	0	60-180	60	170	GapExp	0	71	2	1	1	target	1	574	713	74021	13.328	13.106	13.569
ProbeTrack11	9	ProbeTrack	11.2	SCS215a	20101013.131610	20101013.132449	8	0.013328	60	10	60-180	60	88	GapExp	0	72	2	0	1	target	1	1413	294	74315	13.328	12.973	13.689
ProbeTrack11	9	ProbeTrack	11.2	SCS215a	20101013.131610	20101013.132455	8	0.013328	60	0	60-180	60	68	GapExp	0	73	2	1	1	target	1	640	680	74995	13.328	12.859	13.810
ProbeTrack11	9	ProbeTrack	11.2	SCS215a	20101013.131610	20101013.132500	8	0.013328	60	10	60-180	60	69	GapExp	0	74	2	1	1	target	1	587	707	75702	13.328	13.299	13.343
ProbeTrack11	9	ProbeTrack	11.2	SCS215a	20101013.131610	20101013.132505	8	0.013328	60	0	60-180	60	132	GapExp	0	75	2	3	1	target	1	813	594	76296	13.328	12.847	13.793
ProbeTrack11	9	ProbeTrack	11.2	SCS215a	20101013.131610	20101013.132513	8	0.013328	60	0	60-180	60	145	GapExp	0	76	2	1	1	target	1	520	740	77036	13.328	12.877	13.799
ProbeTrack11	9	ProbeTrack	11.2	SCS215a	20101013.131610	20101013.132519	8	0.013328	60	0	60-180	60	107	GapExp	0	77	2	1	0	distractor	1	773	614	77650	13.328	12.895	13.748
ProbeTrack11	9	ProbeTrack	11.2	SCS215a	20101013.131610	20101013.132525	8	0.013328	60	10	60-180	60	123	GapExp	0	78	2	1	0	distractor	1	800	600	78250	13.724	12.894	119.987
ProbeTrack11	9	ProbeTrack	11.2	SCS215a	20101013.131610	20101013.132531	8	0.013328	60	0	60-180	60	164	GapExp	0	79	2	0	1	target	1	560	720	78970	13.328	13.272	13.389
ProbeTrack11	9	ProbeTrack	11.2	SCS215a	20101013.131610	20101013.132538	8	0.013328	60	0	60-180	60	66	GapExp	0	80	2	3	1	target	1	534	733	79703	13.328	12.939	13.713
ProbeTrack11	9	ProbeTrack	11.2	SCS215a	20101013.131610	20101013.132543	8	0.013328	60	0	60-180	60	62	GapExp	0	81	2	1	1	target	1	534	733	80436	13.328	13.302	13.353
ProbeTrack11	9	ProbeTrack	11.2	SCS215a	20101013.131610	20101013.132548	8	0.013328	60	10	60-180	60	142	GapExp	0	82	2	1	1	distractor	0	827	-1000	79436	13.328	13.094	13.568
ProbeTrack11	9	ProbeTrack	11.2	SCS215a	20101013.131610	20101013.132555	8	0.013328	60	10	60-180	60	178	GapExp	0	83	2	0	0	distractor	1	680	660	80096	13.328	12.958	13.693
ProbeTrack11	9	ProbeTrack	11.2	SCS215a	20101013.131610	20101013.132602	8	0.013328	60	0	60-180	60	163	GapExp	0	84	2	3	0	distractor	1	813	594	80690	13.328	13.013	13.635
ProbeTrack11	9	ProbeTrack	11.2	SCS215a	20101013.131610	20101013.132608	8	0.013328	60	10	60-180	60	94	GapExp	0	85	2	0	0	distractor	1	1120	440	81130	13.328	13.308	13.348
ProbeTrack11	9	ProbeTrack	11.2	SCS215a	20101013.131610	20101013.132617	8	0.013328	60	0	60-180	60	161	GapExp	0	86	2	1	1	target	1	520	740	81870	13.328	12.882	13.776
ProbeTrack11	9	ProbeTrack	11.2	SCS215a	20101013.131610	20101013.132624	8	0.013328	60	10	60-180	60	120	GapExp	0	87	2	0	0	distractor	1	827	587	82457	13.328	12.940	13.729
ProbeTrack11	9	ProbeTrack	11.2	SCS215a	20101013.131610	20101013.132630	8	0.013328	60	10	60-180	60	132	GapExp	0	88	2	3	1	target	1	760	620	83077	13.329	13.308	13.615
ProbeTrack11	9	ProbeTrack	11.2	SCS215a	20101013.131610	20101013.132638	8	0.013328	60	0	60-180	60	159	GapExp	0	89	2	0	1	target	1	574	713	83790	13.328	12.971	13.701
ProbeTrack11	9	ProbeTrack	11.2	SCS215a	20101013.131610	20101013.132644	8	0.013328	60	0	60-180	60	89	GapExp	0	90	2	0	0	distractor	1	960	520	84310	13.328	12.948	13.708
ProbeTrack11	9	ProbeTrack	11.2	SCS215a	20101013.131610	20101013.132650	8	0.013328	60	10	60-180	60	77	GapExp	0	91	2	45	0	target	0	1186	-1000	83310	13.328	12.890	13.780
ProbeTrack11	9	ProbeTrack	11.2	SCS215a	20101013.131610	20101013.132657	8	0.013328	60	10	60-180	60	148	GapExp	0	92	2	3	1	target	1	574	713	84023	13.328	13.067	13.588
ProbeTrack11	9	ProbeTrack	11.2	SCS215a	20101013.131610	20101013.132703	8	0.013328	60	10	60-180	60	180	GapExp	0	93	2	0	1	target	1	787	607	84630	13.328	12.865	13.789
ProbeTrack11	9	ProbeTrack	11.2	SCS215a	20101013.131610	20101013.132710	8	0.013328	60	0	60-180	60	168	GapExp	0	94	2	1	0	distractor	1	747	627	85257	13.328	12.867	13.791
ProbeTrack11	9	ProbeTrack	11.2	SCS215a	20101013.131610	20101013.132717	8	0.013328	60	0	60-180	60	171	GapExp	0	95	2	1	0	distractor	1	640	680	85937	13.328	12.911	13.729
ProbeTrack11	9	ProbeTrack	11.2	SCS215a	20101013.131610	20101013.132724	8	0.013328	60	10	60-180	60	73	GapExp	0	96	2	3	1	target	1	587	707	86644	13.392	13.143	26.841
ProbeTrack11	9	ProbeTrack	11.2	SCS215a	20101013.131610	20101013.132729	8	0.013328	60	0	60-180	60	175	GapExp	0	97	2	3	0	distractor	1	627	687	87331	13.328	12.967	13.711
ProbeTrack11	9	ProbeTrack	11.2	SCS215a	20101013.131610	20101013.132736	8	0.013328	60	0	60-180	60	73	GapExp	0	98	2	0	0	distractor	1	614	693	88024	13.328	12.902	13.771
ProbeTrack11	9	ProbeTrack	11.2	SCS215a	20101013.131610	20101013.132741	8	0.013328	60	10	60-180	60	88	GapExp	0	99	2	1	0	distractor	1	587	707	88731	13.328	13.024	13.634
ProbeTrack11	9	ProbeTrack	11.2	SCS215a	20101013.131610	20101013.132746	8	0.013328	60	0	60-180	60	74	GapExp	0	100	2	3	1	target	1	560	720	89451	13.328	12.902	13.759
ProbeTrack11	9	ProbeTrack	11.2	SCS215a	20101013.131610	20101013.132752	8	0.013328	60	0	60-180	60	68	GapExp	0	101	2	3	1	target	1	627	687	90138	13.328	13.109	13.555
ProbeTrack11	9	ProbeTrack	11.2	SCS215a	20101013.131610	20101013.132814	8	0.013328	60	0	60-180	60	139	GapExp	0	102	2	1	1	target	1	587	707	90845	13.328	12.952	13.693
ProbeTrack11	9	ProbeTrack	11.2	SCS215a	20101013.131610	20101013.132820	8	0.013328	60	10	60-180	60	179	GapExp	0	103	2	3	0	distractor	1	1533	234	91079	13.328	13.309	13.348
ProbeTrack11	9	ProbeTrack	11.2	SCS215a	20101013.131610	20101013.132828	8	0.013328	60	10	60-180	60	135	GapExp	0	104	2	45	0	distractor	1	640	680	91759	13.328	12.964	13.690
ProbeTrack11	9	ProbeTrack	11.2	SCS215a	20101013.131610	20101013.132835	8	0.013328	60	10	60-180	60	150	GapExp	0	105	2	45	0	distractor	1	667	667	92426	13.328	13.105	13.557
ProbeTrack11	9	ProbeTrack	11.2	SCS215a	20101013.131610	20101013.132842	8	0.013328	60	0	60-180	60	109	GapExp	0	106	2	1	0	distractor	1	760	620	93046	13.328	13.099	13.550
ProbeTrack11	9	ProbeTrack	11.2	SCS215a	20101013.131610	20101013.132848	8	0.013328	60	10	60-180	60	154	GapExp	0	107	2	3	0	target	0	5172	-1000	92046	13.328	13.085	13.577
ProbeTrack11	9	ProbeTrack	11.2	SCS215a	20101013.131610	20101013.132859	8	0.013328	60	0	60-180	60	142	GapExp	0	108	2	0	1	target	1	534	733	92779	13.328	12.944	13.703
ProbeTrack11	9	ProbeTrack	11.2	SCS215a	20101013.131610	20101013.132905	8	0.013328	60	10	60-180	60	151	GapExp	0	109	2	0	0	distractor	1	960	520	93299	13.688	12.940	120.004
ProbeTrack11	9	ProbeTrack	11.2	SCS215a	20101013.131610	20101013.132912	8	0.013328	60	0	60-180	60	73	GapExp	0	110	2	45	1	target	1	534	733	94032	13.328	13.258	13.395
ProbeTrack11	9	ProbeTrack	11.2	SCS215a	20101013.131610	20101013.132920	8	0.013328	60	0	60-180	60	104	GapExp	0	111	2	0	0	distractor	1	627	687	94719	13.328	13.179	13.486
ProbeTrack11	9	ProbeTrack	11.2	SCS215a	20101013.131610	20101013.132925	8	0.013328	60	10	60-180	60	171	GapExp	0	112	2	3	0	distractor	1	627	687	95406	13.328	13.281	13.379
ProbeTrack11	9	ProbeTrack	11.2	SCS215a	20101013.131610	20101013.132932	8	0.013328	60	10	60-180	60	153	GapExp	0	113	2	0	1	target	1	547	727	96133	13.328	12.875	13.781
ProbeTrack11	9	ProbeTrack	11.2	SCS215a	20101013.131610	20101013.132939	8	0.013328	60	0	60-180	60	168	GapExp	0	114	2	3	0	distractor	1	520	740	96873	13.328	12.912	13.724
ProbeTrack11	9	ProbeTrack	11.2	SCS215a	20101013.131610	20101013.132945	8	0.013328	60	0	60-180	60	112	GapExp	0	115	2	45	1	target	1	573	714	97587	13.328	12.873	13.773
ProbeTrack11	9	ProbeTrack	11.2	SCS215a	20101013.131610	20101013.132952	8	0.013328	60	10	60-180	60	130	GapExp	0	116	2	3	0	distractor	1	680	660	98247	13.328	12.886	13.777
ProbeTrack11	9	ProbeTrack	11.2	SCS215a	20101013.131610	20101013.132958	8	0.013328	60	10	60-180	60	98	GapExp	0	117	2	1	1	target	1	400	800	99047	13.328	13.307	13.349
ProbeTrack11	9	ProbeTrack	11.2	SCS215a	20101013.131610	20101013.133004	8	0.013328	60	10	60-180	60	66	GapExp	0	118	2	1	1	target	1	587	707	99754	13.328	13.305	13.351
ProbeTrack11	9	ProbeTrack	11.2	SCS215a	20101013.131610	20101013.133009	8	0.013328	60	10	60-180	60	101	GapExp	0	119	2	45	0	distractor	1	613	694	100448	13.328	13.308	13.349
ProbeTrack11	9	ProbeTrack	11.2	SCS215a	20101013.131610	20101013.133015	8	0.013328	60	0	60-180	60	76	GapExp	0	120	2	0	1	target	1	440	780	101228	13.328	13.310	13.346
ProbeTrack11	9	ProbeTrack	11.2	SCS215a	20101013.131610	20101013.133023	8	0.013328	60	0	60-180	60	76	GapExp	0	121	2	3	0	distractor	1	867	567	101795	13.328	13.308	13.359
ProbeTrack11	9	ProbeTrack	11.2	SCS215a	20101013.131610	20101013.133029	8	0.013328	60	0	60-180	60	126	GapExp	0	122	2	1	0	distractor	1	560	720	102515	13.328	13.306	13.350
ProbeTrack11	9	ProbeTrack	11.2	SCS215a	20101013.131610	20101013.133035	8	0.013328	60	0	60-180	60	139	GapExp	0	123	2	0	1	target	1	427	787	103302	13.329	12.996	13.680
ProbeTrack11	9	ProbeTrack	11.2	SCS215a	20101013.131610	20101013.133041	8	0.013328	60	10	60-180	60	96	GapExp	0	124	2	0	0	distractor	1	973	514	103816	13.328	13.098	13.551
ProbeTrack11	9	ProbeTrack	11.2	SCS215a	20101013.131610	20101013.133047	8	0.013328	60	0	60-180	60	142	GapExp	0	125	2	3	0	distractor	1	693	654	104470	13.328	12.894	13.749
ProbeTrack11	9	ProbeTrack	11.2	SCS215a	20101013.131610	20101013.133053	8	0.013328	60	0	60-180	60	161	GapExp	0	126	2	3	0	distractor	1	880	560	105030	13.328	12.968	13.702
ProbeTrack11	9	ProbeTrack	11.2	SCS215a	20101013.131610	20101013.133100	8	0.013328	60	10	60-180	60	161	GapExp	0	127	2	45	1	target	1	520	740	105770	13.328	12.912	13.746
ProbeTrack11	9	ProbeTrack	11.2	SCS215a	20101013.131610	20101013.133108	8	0.013328	60	0	60-180	60	75	GapExp	0	128	2	45	0	distractor	1	680	660	106430	13.328	13.105	13.552
ProbeTrack11	9	ProbeTrack	11.2	SCS215a	20101013.131610	20101013.133113	8	0.013328	60	0	60-180	60	75	GapExp	0	129	2	1	0	distractor	1	654	673	107103	13.328	13.309	13.347
ProbeTrack11	9	ProbeTrack	11.2	SCS215a	20101013.131610	20101013.133119	8	0.013328	60	0	60-180	60	74	GapExp	0	130	2	3	0	distractor	1	520	740	107843	13.328	12.915	13.741
ProbeTrack11	9	ProbeTrack	11.2	SCS215a	20101013.131610	20101013.133124	8	0.013328	60	10	60-180	60	116	GapExp	0	131	2	1	1	target	1	547	727	108570	13.328	13.100	13.565
ProbeTrack11	9	ProbeTrack	11.2	SCS215a	20101013.131610	20101013.133130	8	0.013328	60	0	60-180	60	98	GapExp	0	132	2	3	0	distractor	1	960	520	109090	13.328	13.097	13.570
ProbeTrack11	9	ProbeTrack	11.2	SCS215a	20101013.131610	20101013.133136	8	0.013328	60	0	60-180	60	98	GapExp	0	133	2	1	1	target	1	494	753	109843	13.328	13.310	13.344
ProbeTrack11	9	ProbeTrack	11.2	SCS215a	20101013.131610	20101013.133142	8	0.013328	60	10	60-180	60	111	GapExp	0	134	2	0	0	distractor	1	680	660	110503	13.328	12.929	13.731
ProbeTrack11	9	ProbeTrack	11.2	SCS215a	20101013.131610	20101013.133147	8	0.013328	60	10	60-180	60	80	GapExp	0	135	2	3	1	target	1	520	740	111243	13.328	13.308	13.350
ProbeTrack11	9	ProbeTrack	11.2	SCS215a	20101013.131610	20101013.133153	8	0.013328	60	10	60-180	60	95	GapExp	0	136	2	1	0	distractor	1	733	634	111877	13.328	13.272	13.384
ProbeTrack11	9	ProbeTrack	11.2	SCS215a	20101013.131610	20101013.133159	8	0.013328	60	10	60-180	60	140	GapExp	0	137	2	0	0	distractor	1	587	707	112584	13.328	13.055	13.606
ProbeTrack11	9	ProbeTrack	11.2	SCS215a	20101013.131610	20101013.133205	8	0.013328	60	10	60-180	60	93	GapExp	0	138	2	45	1	target	1	454	773	113357	13.328	12.892	13.746
ProbeTrack11	9	ProbeTrack	11.2	SCS215a	20101013.131610	20101013.133213	8	0.013328	60	10	60-180	60	166	GapExp	0	139	2	0	1	target	1	640	680	114037	13.328	12.883	13.766
ProbeTrack11	9	ProbeTrack	11.2	SCS215a	20101013.131610	20101013.133220	8	0.013328	60	10	60-180	60	123	GapExp	0	140	2	45	1	target	1	653	674	114711	13.328	12.881	13.781
ProbeTrack11	9	ProbeTrack	11.2	SCS215a	20101013.131610	20101013.133226	8	0.013328	60	10	60-180	60	113	GapExp	0	141	2	3	0	distractor	1	560	720	115431	13.328	12.931	13.725
ProbeTrack11	9	ProbeTrack	11.2	SCS215a	20101013.131610	20101013.133232	8	0.013328	60	10	60-180	60	91	GapExp	0	142	2	45	1	distractor	0	827	-1000	114431	13.470	12.837	40.120
ProbeTrack11	9	ProbeTrack	11.2	SCS215a	20101013.131610	20101013.133239	8	0.013328	60	0	60-180	60	89	GapExp	0	143	2	1	0	distractor	1	893	554	114985	13.328	13.099	13.562
ProbeTrack11	9	ProbeTrack	11.2	SCS215a	20101013.131610	20101013.133245	8	0.013328	60	10	60-180	60	128	GapExp	0	144	2	1	0	target	0	1746	-1000	113985	13.328	12.853	13.814
ProbeTrack11	9	ProbeTrack	11.2	SCS215a	20101013.131610	20101013.133252	8	0.013328	60	0	60-180	60	135	GapExp	0	145	2	0	1	target	1	520	740	114725	13.328	12.919	13.738
ProbeTrack11	9	ProbeTrack	11.2	SCS215a	20101013.131610	20101013.133301	8	0.013328	60	0	60-180	60	102	GapExp	0	146	2	3	1	target	1	414	793	115518	13.328	12.877	13.788
ProbeTrack11	9	ProbeTrack	11.2	SCS215a	20101013.131610	20101013.133306	8	0.013328	60	10	60-180	60	88	GapExp	0	147	2	3	1	target	1	534	733	116251	13.328	12.866	13.791
ProbeTrack11	9	ProbeTrack	11.2	SCS215a	20101013.131610	20101013.133312	8	0.013328	60	0	60-180	60	73	GapExp	0	148	2	3	0	distractor	1	613	694	116945	13.328	12.849	13.817
ProbeTrack11	9	ProbeTrack	11.2	SCS215a	20101013.131610	20101013.133317	8	0.013328	60	0	60-180	60	153	GapExp	0	149	2	3	0	distractor	1	494	753	117698	13.328	12.932	13.725
ProbeTrack11	9	ProbeTrack	11.2	SCS215a	20101013.131610	20101013.133323	8	0.013328	60	0	60-180	60	107	GapExp	0	150	2	1	0	distractor	1	680	660	118358	13.328	12.901	13.764
ProbeTrack11	9	ProbeTrack	11.2	SCS215a	20101013.131610	20101013.133330	8	0.013328	60	0	60-180	60	171	GapExp	0	151	2	1	0	distractor	1	480	760	119118	13.328	13.110	13.552
ProbeTrack11	9	ProbeTrack	11.2	SCS215a	20101013.131610	20101013.133336	8	0.013328	60	0	60-180	60	119	GapExp	0	152	2	3	1	target	1	480	760	119878	13.328	12.915	13.739
ProbeTrack11	9	ProbeTrack	11.2	SCS215a	20101013.131610	20101013.133342	8	0.013328	60	0	60-180	60	155	GapExp	0	153	2	45	0	distractor	1	587	707	120585	13.328	13.092	13.566
ProbeTrack11	9	ProbeTrack	11.2	SCS215a	20101013.131610	20101013.133349	8	0.013328	60	0	60-180	60	103	GapExp	0	154	2	1	0	distractor	1	600	700	121285	13.328	13.018	13.640
ProbeTrack11	9	ProbeTrack	11.2	SCS215a	20101013.131610	20101013.133355	8	0.013328	60	10	60-180	60	161	GapExp	0	155	2	0	0	target	0	1533	-1000	120285	13.328	13.090	13.572
ProbeTrack11	9	ProbeTrack	11.2	SCS215a	20101013.131610	20101013.133402	8	0.013328	60	0	60-180	60	128	GapExp	0	156	2	1	1	target	1	507	747	121032	13.328	13.108	13.563
ProbeTrack11	9	ProbeTrack	11.2	SCS215a	20101013.131610	20101013.133409	8	0.013328	60	10	60-180	60	169	GapExp	0	157	2	0	0	distractor	1	947	527	121559	13.328	12.982	13.662
ProbeTrack11	9	ProbeTrack	11.2	SCS215a	20101013.131610	20101013.133417	8	0.013328	60	0	60-180	60	106	GapExp	0	158	2	3	1	target	1	520	740	122299	13.328	13.109	13.546
ProbeTrack11	9	ProbeTrack	11.2	SCS215a	20101013.131610	20101013.133423	8	0.013328	60	0	60-180	60	112	GapExp	0	159	2	45	1	target	1	480	760	123059	13.328	12.846	13.797
ProbeTrack11	9	ProbeTrack	11.2	SCS215a	20101013.131610	20101013.133429	8	0.013328	60	10	60-180	60	63	GapExp	0	160	2	3	0	distractor	1	1040	480	123539	13.328	13.305	13.359
ProbeTrack11	9	ProbeTrack	11.2	SCS215a	20101013.131610	20101013.133435	8	0.013328	60	10	60-180	60	170	GapExp	0	161	2	3	0	distractor	1	1040	480	124019	13.328	13.104	13.559
ProbeTrack11	9	ProbeTrack	11.2	SCS215a	20101013.131610	20101013.133444	8	0.013328	60	0	60-180	60	160	GapExp	0	162	2	3	1	target	1	560	720	124739	13.375	13.246	26.397
ProbeTrack11	9	ProbeTrack	11.2	SCS215a	20101013.131610	20101013.133450	8	0.013328	60	0	60-180	60	117	GapExp	0	163	2	0	0	distractor	1	707	647	125386	13.328	13.309	13.345
ProbeTrack11	9	ProbeTrack	11.2	SCS215a	20101013.131610	20101013.133456	8	0.013328	60	0	60-180	60	175	GapExp	0	164	2	45	1	target	1	600	700	126086	13.328	12.891	13.808
ProbeTrack11	9	ProbeTrack	11.2	SCS215a	20101013.131610	20101013.133504	8	0.013328	60	0	60-180	60	166	GapExp	0	165	2	45	0	distractor	1	534	733	126819	13.328	13.308	13.349
ProbeTrack11	9	ProbeTrack	11.2	SCS215a	20101013.131610	20101013.133511	8	0.013328	60	0	60-180	60	121	GapExp	0	166	2	45	1	target	1	427	787	127606	13.328	13.251	13.406
ProbeTrack11	9	ProbeTrack	11.2	SCS215a	20101013.131610	20101013.133517	8	0.013328	60	0	60-180	60	81	GapExp	0	167	2	45	1	target	1	494	753	128359	13.328	13.308	13.347
ProbeTrack11	9	ProbeTrack	11.2	SCS215a	20101013.131610	20101013.133523	8	0.013328	60	10	60-180	60	127	GapExp	0	168	2	0	1	distractor	0	747	-1000	127359	13.328	12.958	13.703
ProbeTrack11	9	ProbeTrack	11.2	SCS215a	20101013.131610	20101013.133535	8	0.013328	60	0	60-180	60	104	GapExp	0	169	2	45	1	target	1	507	747	128106	13.328	13.098	13.543
ProbeTrack11	9	ProbeTrack	11.2	SCS215a	20101013.131610	20101013.133550	8	0.013328	60	10	60-180	60	79	GapExp	0	170	2	45	1	target	1	414	793	128899	13.328	12.903	13.753
ProbeTrack11	9	ProbeTrack	11.2	SCS215a	20101013.131610	20101013.133557	8	0.013328	60	10	60-180	60	107	GapExp	0	171	2	0	0	distractor	1	1147	427	129326	13.328	13.101	13.553
ProbeTrack11	9	ProbeTrack	11.2	SCS215a	20101013.131610	20101013.133603	8	0.013328	60	0	60-180	60	101	GapExp	0	172	2	0	0	distractor	1	787	607	129933	13.328	12.874	13.772
ProbeTrack11	9	ProbeTrack	11.2	SCS215a	20101013.131610	20101013.133609	8	0.013328	60	0	60-180	60	92	GapExp	0	173	2	45	0	distractor	1	653	674	130607	13.328	13.105	13.550
ProbeTrack11	9	ProbeTrack	11.2	SCS215a	20101013.131610	20101013.133616	8	0.013328	60	10	60-180	60	63	GapExp	0	174	2	1	1	target	1	693	654	131261	13.328	12.869	13.782
ProbeTrack11	9	ProbeTrack	11.2	SCS215a	20101013.131610	20101013.133621	8	0.013328	60	10	60-180	60	146	GapExp	0	175	2	3	0	distractor	1	720	640	131901	13.328	13.220	13.431
ProbeTrack11	9	ProbeTrack	11.2	SCS215a	20101013.131610	20101013.133628	8	0.013328	60	0	60-180	60	148	GapExp	0	176	2	0	0	distractor	1	907	547	132448	13.328	13.306	13.348
ProbeTrack11	9	ProbeTrack	11.2	SCS215a	20101013.131610	20101013.133635	8	0.013328	60	0	60-180	60	179	GapExp	0	177	2	45	0	distractor	1	613	694	133142	13.328	12.883	13.773
ProbeTrack11	9	ProbeTrack	11.2	SCS215a	20101013.131610	20101013.133642	8	0.013328	60	0	60-180	60	137	GapExp	0	178	2	1	1	target	1	547	727	133869	13.328	13.041	13.602
ProbeTrack11	9	ProbeTrack	11.2	SCS215a	20101013.131610	20101013.133650	8	0.013328	60	10	60-180	60	63	GapExp	0	179	2	45	0	distractor	1	1053	474	134343	13.328	12.895	13.780
ProbeTrack11	9	ProbeTrack	11.2	SCS215a	20101013.131610	20101013.133656	8	0.013328	60	0	60-180	60	175	GapExp	0	180	2	3	1	target	1	600	700	135043	13.328	12.939	13.717
ProbeTrack11	9	ProbeTrack	11.2	SCS215a	20101013.131610	20101013.133703	8	0.013328	60	0	60-180	60	162	GapExp	0	181	2	0	0	distractor	1	613	694	135737	13.328	13.291	13.380
ProbeTrack11	9	ProbeTrack	11.2	SCS215a	20101013.131610	20101013.133709	8	0.013328	60	10	60-180	60	77	GapExp	0	182	2	1	0	distractor	1	1013	494	136231	13.328	12.889	13.764
ProbeTrack11	9	ProbeTrack	11.2	SCS215a	20101013.131610	20101013.133715	8	0.013328	60	0	60-180	60	155	GapExp	0	183	2	45	1	target	1	507	747	136978	13.328	12.918	13.725
ProbeTrack11	9	ProbeTrack	11.2	SCS215a	20101013.131610	20101013.133722	8	0.013328	60	10	60-180	60	116	GapExp	0	184	2	3	0	target	0	520	-1000	135978	13.328	13.086	13.571
ProbeTrack11	9	ProbeTrack	11.2	SCS215a	20101013.131610	20101013.133728	8	0.013328	60	10	60-180	60	147	GapExp	0	185	2	1	1	target	1	1466	267	136245	13.328	13.089	13.572
ProbeTrack11	9	ProbeTrack	11.2	SCS215a	20101013.131610	20101013.133735	8	0.013328	60	0	60-180	60	162	GapExp	0	186	2	0	0	distractor	1	760	620	136865	13.328	12.996	13.647
ProbeTrack11	9	ProbeTrack	11.2	SCS215a	20101013.131610	20101013.133742	8	0.013328	60	10	60-180	60	89	GapExp	0	187	2	0	1	target	1	613	694	137559	13.328	12.922	13.736
ProbeTrack11	9	ProbeTrack	11.2	SCS215a	20101013.131610	20101013.133747	8	0.013328	60	0	60-180	60	163	GapExp	0	188	2	0	0	distractor	1	627	687	138246	13.328	12.979	13.681
ProbeTrack11	9	ProbeTrack	11.2	SCS215a	20101013.131610	20101013.133754	8	0.013328	60	10	60-180	60	158	GapExp	0	189	2	0	0	distractor	1	627	687	138933	13.328	12.880	13.774
ProbeTrack11	9	ProbeTrack	11.2	SCS215a	20101013.131610	20101013.133800	8	0.013328	60	0	60-180	60	159	GapExp	0	190	2	0	0	distractor	1	614	693	139626	13.328	12.849	13.803
ProbeTrack11	9	ProbeTrack	11.2	SCS215a	20101013.131610	20101013.133806	8	0.013328	60	0	60-180	60	145	GapExp	0	191	2	0	1	target	1	480	760	140386	13.328	12.976	13.681
ProbeTrack11	9	ProbeTrack	11.2	SCS215a	20101013.131610	20101013.133812	8	0.013328	60	0	60-180	60	94	GapExp	0	192	2	1	0	distractor	1	534	733	141119	13.328	13.309	13.347
ProbeTrack11	9	ProbeTrack	11.2	SCS215a	20101013.131610	20101013.133818	8	0.013328	60	10	60-180	60	173	GapExp	0	193	2	3	1	target	1	627	687	141806	13.328	12.993	13.653
ProbeTrack11	9	ProbeTrack	11.2	SCS215a	20101013.131610	20101013.133825	8	0.013328	60	10	60-180	60	107	GapExp	0	194	2	1	1	target	1	494	753	142559	13.328	12.904	13.748
ProbeTrack11	9	ProbeTrack	11.2	SCS215a	20101013.131610	20101013.133830	8	0.013328	60	0	60-180	60	173	GapExp	0	195	2	0	1	target	1	454	773	143332	13.328	13.097	13.559
ProbeTrack11	9	ProbeTrack	11.2	SCS215a	20101013.131610	20101013.133837	8	0.013328	60	10	60-180	60	138	GapExp	0	196	2	45	0	distractor	1	547	727	144059	13.328	12.951	13.717
ProbeTrack11	9	ProbeTrack	11.2	SCS215a	20101013.131610	20101013.133844	8	0.013328	60	10	60-180	60	85	GapExp	0	197	2	1	0	distractor	1	880	560	144619	13.328	13.099	13.566
ProbeTrack11	9	ProbeTrack	11.2	SCS215a	20101013.131610	20101013.133849	8	0.013328	60	10	60-180	60	137	GapExp	0	198	2	45	0	distractor	1	507	747	145366	13.328	13.010	13.649
ProbeTrack11	9	ProbeTrack	11.2	SCS215a	20101013.131610	20101013.133856	8	0.013328	60	0	60-180	60	102	GapExp	0	199	2	1	0	distractor	1	1160	420	145786	13.328	12.998	13.652
ProbeTrack11	9	ProbeTrack	11.2	SCS215a	20101013.131610	20101013.133902	8	0.013328	60	0	60-180	60	148	GapExp	0	200	2	3	0	distractor	1	800	600	146386	13.328	13.042	13.642
ProbeTrack11	9	ProbeTrack	11.2	SCS215a	20101013.131610	20101013.133909	8	0.013328	60	10	60-180	60	91	GapExp	0	201	2	45	1	target	1	480	760	147146	14.202	12.949	133.661
ProbeTrack11	9	ProbeTrack	11.2	SCS215a	20101013.131610	20101013.133950	8	0.013328	60	10	60-180	60	127	GapExp	0	202	2	45	1	target	1	507	747	147893	13.328	12.848	13.805
ProbeTrack11	9	ProbeTrack	11.2	SCS215a	20101013.131610	20101013.133957	8	0.013328	60	10	60-180	60	142	GapExp	0	203	2	0	0	distractor	1	787	607	148500	13.328	13.307	13.347
ProbeTrack11	9	ProbeTrack	11.2	SCS215a	20101013.131610	20101013.134004	8	0.013328	60	0	60-180	60	148	GapExp	0	204	2	0	0	distractor	1	480	760	149260	13.328	13.092	13.557
ProbeTrack11	9	ProbeTrack	11.2	SCS215a	20101013.131610	20101013.134014	8	0.013328	60	0	60-180	60	151	GapExp	0	205	2	0	0	distractor	1	960	520	149780	13.328	13.032	13.630
ProbeTrack11	9	ProbeTrack	11.2	SCS215a	20101013.131610	20101013.134020	8	0.013328	60	0	60-180	60	173	GapExp	0	206	2	3	0	distractor	1	1000	500	150280	13.328	12.853	13.812
ProbeTrack11	9	ProbeTrack	11.2	SCS215a	20101013.131610	20101013.134027	8	0.013328	60	0	60-180	60	148	GapExp	0	207	2	1	1	target	1	1360	320	150600	13.328	12.867	13.776
ProbeTrack11	9	ProbeTrack	11.2	SCS215a	20101013.131610	20101013.134035	8	0.013328	60	10	60-180	60	151	GapExp	0	208	2	3	0	distractor	1	907	547	151147	13.372	12.933	26.678
ProbeTrack11	9	ProbeTrack	11.2	SCS215a	20101013.131610	20101013.134041	8	0.013328	60	10	60-180	60	77	GapExp	0	209	2	45	0	distractor	1	507	747	151894	13.328	12.853	13.804
ProbeTrack11	9	ProbeTrack	11.2	SCS215a	20101013.131610	20101013.134049	8	0.013328	60	10	60-180	60	98	GapExp	0	210	2	1	0	target	0	787	-1000	150894	13.328	13.309	13.350
ProbeTrack11	9	ProbeTrack	11.2	SCS215a	20101013.131610	20101013.134054	8	0.013328	60	10	60-180	60	153	GapExp	0	211	2	45	0	distractor	1	520	740	151634	13.328	12.967	13.689
ProbeTrack11	9	ProbeTrack	11.2	SCS215a	20101013.131610	20101013.134102	8	0.013328	60	0	60-180	60	180	GapExp	0	212	2	45	1	target	1	427	787	152421	13.328	12.863	13.818
ProbeTrack11	9	ProbeTrack	11.2	SCS215a	20101013.131610	20101013.134109	8	0.013328	60	10	60-180	60	140	GapExp	0	213	2	45	0	distractor	1	494	753	153174	13.328	12.943	13.709
ProbeTrack11	9	ProbeTrack	11.2	SCS215a	20101013.131610	20101013.134116	8	0.013328	60	10	60-180	60	134	GapExp	0	214	2	3	0	distractor	1	800	600	153774	13.328	13.309	13.345
ProbeTrack11	9	ProbeTrack	11.2	SCS215a	20101013.131610	20101013.134122	8	0.013328	60	0	60-180	60	61	GapExp	0	215	2	3	1	target	1	653	674	154448	13.328	13.299	13.358
ProbeTrack11	9	ProbeTrack	11.2	SCS215a	20101013.131610	20101013.134127	8	0.013328	60	0	60-180	60	120	GapExp	0	216	2	45	0	distractor	1	535	733	155181	13.328	12.886	13.778
ProbeTrack11	9	ProbeTrack	11.2	SCS215a	20101013.131610	20101013.134133	8	0.013328	60	10	60-180	60	178	GapExp	0	217	2	0	0	distractor	1	587	707	155888	13.328	13.308	13.347
ProbeTrack11	9	ProbeTrack	11.2	SCS215a	20101013.131610	20101013.134141	8	0.013328	60	10	60-180	60	68	GapExp	0	218	2	3	0	distractor	1	534	733	156621	13.328	13.096	13.571
ProbeTrack11	9	ProbeTrack	11.2	SCS215a	20101013.131610	20101013.134146	8	0.013328	60	10	60-180	60	65	GapExp	0	219	2	1	1	target	1	560	720	157341	13.328	12.970	13.677
ProbeTrack11	9	ProbeTrack	11.2	SCS215a	20101013.131610	20101013.134153	8	0.013328	60	10	60-180	60	160	GapExp	0	220	2	1	1	target	1	600	700	158041	13.328	13.100	13.550
ProbeTrack11	9	ProbeTrack	11.2	SCS215a	20101013.131610	20101013.134200	8	0.013328	60	10	60-180	60	65	GapExp	0	221	2	3	1	target	1	640	680	158721	13.328	13.114	13.537
ProbeTrack11	9	ProbeTrack	11.2	SCS215a	20101013.131610	20101013.134205	8	0.013328	60	10	60-180	60	166	GapExp	0	222	2	45	0	distractor	1	627	687	159408	13.328	13.299	13.356
ProbeTrack11	9	ProbeTrack	11.2	SCS215a	20101013.131610	20101013.134213	8	0.013328	60	10	60-180	60	133	GapExp	0	223	2	3	0	distractor	1	440	780	160188	13.328	13.100	13.551
ProbeTrack11	9	ProbeTrack	11.2	SCS215a	20101013.131610	20101013.134220	8	0.013328	60	0	60-180	60	82	GapExp	0	224	2	0	1	target	1	547	727	160915	13.328	12.990	13.664
ProbeTrack11	9	ProbeTrack	11.2	SCS215a	20101013.131610	20101013.134225	8	0.013328	60	10	60-180	60	139	GapExp	0	225	2	3	1	distractor	0	800	-1000	159915	13.328	13.128	13.529
ProbeTrack11	9	ProbeTrack	11.2	SCS215a	20101013.131610	20101013.134231	8	0.013328	60	0	60-180	60	82	GapExp	0	226	2	45	0	distractor	1	960	520	160435	13.328	13.075	13.576
ProbeTrack11	9	ProbeTrack	11.2	SCS215a	20101013.131610	20101013.134238	8	0.013328	60	0	60-180	60	143	GapExp	0	227	2	1	1	target	1	480	760	161195	13.328	12.951	13.706
ProbeTrack11	9	ProbeTrack	11.2	SCS215a	20101013.131610	20101013.134243	8	0.013328	60	0	60-180	60	168	GapExp	0	228	2	3	1	target	1	480	760	161955	13.328	12.893	13.770
ProbeTrack11	9	ProbeTrack	11.2	SCS215a	20101013.131610	20101013.134250	8	0.013328	60	0	60-180	60	163	GapExp	0	229	2	0	0	distractor	1	613	694	162649	13.328	12.994	13.777
ProbeTrack11	9	ProbeTrack	11.2	SCS215a	20101013.131610	20101013.134256	8	0.013328	60	0	60-180	60	67	GapExp	0	230	2	45	0	distractor	1	787	607	163256	13.328	13.103	13.552
ProbeTrack11	9	ProbeTrack	11.2	SCS215a	20101013.131610	20101013.134302	8	0.013328	60	0	60-180	60	146	GapExp	0	231	2	3	0	distractor	1	494	753	164009	13.328	12.885	13.771
ProbeTrack11	9	ProbeTrack	11.2	SCS215a	20101013.131610	20101013.134308	8	0.013328	60	10	60-180	60	68	GapExp	0	232	2	3	1	target	1	760	620	164629	13.328	13.011	13.662
ProbeTrack11	9	ProbeTrack	11.2	SCS215a	20101013.131610	20101013.134314	8	0.013328	60	10	60-180	60	180	GapExp	0	233	2	3	0	distractor	1	534	733	165362	13.328	12.885	13.778
ProbeTrack11	9	ProbeTrack	11.2	SCS215a	20101013.131610	20101013.134320	8	0.013328	60	0	60-180	60	79	GapExp	0	234	2	1	0	distractor	1	493	754	166116	13.328	12.905	13.760
ProbeTrack11	9	ProbeTrack	11.2	SCS215a	20101013.131610	20101013.134326	8	0.013328	60	0	60-180	60	163	GapExp	0	235	2	1	0	distractor	1	680	660	166776	13.328	13.301	13.353
ProbeTrack11	9	ProbeTrack	11.2	SCS215a	20101013.131610	20101013.134332	8	0.013328	60	10	60-180	60	155	GapExp	0	236	2	1	1	target	1	534	733	167509	13.328	13.305	13.345
ProbeTrack11	9	ProbeTrack	11.2	SCS215a	20101013.131610	20101013.134340	8	0.013328	60	0	60-180	60	138	GapExp	0	237	2	0	0	distractor	1	547	727	168236	13.328	13.309	13.347
ProbeTrack11	9	ProbeTrack	11.2	SCS215a	20101013.131610	20101013.134346	8	0.013328	60	0	60-180	60	96	GapExp	0	238	2	45	0	distractor	1	520	740	168976	13.328	13.099	13.563
ProbeTrack11	9	ProbeTrack	11.2	SCS215a	20101013.131610	20101013.134353	8	0.013328	60	10	60-180	60	156	GapExp	0	239	2	0	0	distractor	1	520	740	169716	13.328	12.888	13.770
ProbeTrack11	9	ProbeTrack	11.2	SCS215a	20101013.131610	20101013.134359	8	0.013328	60	0	60-180	60	94	GapExp	0	240	2	1	1	target	1	520	740	170456	13.328	13.098	13.572
ProbeTrack11	9	ProbeTrack	11.2	SCS215a	20101013.131610	20101013.134404	8	0.013328	60	0	60-180	60	100	GapExp	0	241	2	1	0	distractor	1	614	693	171149	13.328	13.307	13.347
ProbeTrack11	9	ProbeTrack	11.2	SCS215a	20101013.131610	20101013.134410	8	0.013328	60	0	60-180	60	66	GapExp	0	242	2	1	1	target	1	440	780	171929	13.328	12.897	13.751
ProbeTrack11	9	ProbeTrack	11.2	SCS215a	20101013.131610	20101013.134415	8	0.013328	60	10	60-180	60	130	GapExp	0	243	2	0	0	distractor	1	693	654	172583	13.328	12.881	13.757
ProbeTrack11	9	ProbeTrack	11.2	SCS215a	20101013.131610	20101013.134421	8	0.013328	60	10	60-180	60	130	GapExp	0	244	2	0	1	target	1	467	767	173350	13.328	13.295	13.356
ProbeTrack11	9	ProbeTrack	11.2	SCS215a	20101013.131610	20101013.134427	8	0.013328	60	0	60-180	60	163	GapExp	0	245	2	0	1	target	1	627	687	174037	13.328	13.092	13.558
ProbeTrack11	9	ProbeTrack	11.2	SCS215a	20101013.131610	20101013.134434	8	0.013328	60	0	60-180	60	92	GapExp	0	246	2	45	1	target	1	374	813	174850	13.328	12.899	13.750
ProbeTrack11	9	ProbeTrack	11.2	SCS215a	20101013.131610	20101013.134440	8	0.013328	60	0	60-180	60	110	GapExp	0	247	2	3	1	target	1	494	753	175603	13.328	13.092	13.550
ProbeTrack11	9	ProbeTrack	11.2	SCS215a	20101013.131610	20101013.134445	8	0.013328	60	0	60-180	60	143	GapExp	0	248	2	3	0	distractor	1	547	727	176330	13.328	12.879	13.783
ProbeTrack11	9	ProbeTrack	11.2	SCS215a	20101013.131610	20101013.134452	8	0.013328	60	10	60-180	60	164	GapExp	0	249	2	0	0	distractor	1	840	580	176910	13.328	12.891	13.764
ProbeTrack11	9	ProbeTrack	11.2	SCS215a	20101013.131610	20101013.134459	8	0.013328	60	10	60-180	60	163	GapExp	0	250	2	3	0	distractor	1	933	534	177444	13.328	13.079	13.583
ProbeTrack11	9	ProbeTrack	11.2	SCS215a	20101013.131610	20101013.134505	8	0.013328	60	10	60-180	60	75	GapExp	0	251	2	45	1	target	1	320	840	178284	13.328	13.165	13.473
ProbeTrack11	9	ProbeTrack	11.2	SCS215a	20101013.131610	20101013.134511	8	0.013328	60	0	60-180	60	159	GapExp	0	252	2	1	0	distractor	1	534	733	179017	13.328	13.074	13.575
ProbeTrack11	9	ProbeTrack	11.2	SCS215a	20101013.131610	20101013.134517	8	0.013328	60	10	60-180	60	164	GapExp	0	253	2	0	0	distractor	1	760	620	179637	13.328	13.050	13.617
ProbeTrack11	9	ProbeTrack	11.2	SCS215a	20101013.131610	20101013.134525	8	0.013328	60	0	60-180	60	109	GapExp	0	254	2	0	1	target	1	547	727	180364	13.328	13.093	13.554
ProbeTrack11	9	ProbeTrack	11.2	SCS215a	20101013.131610	20101013.134530	8	0.013328	60	0	60-180	60	101	GapExp	0	255	2	0	1	target	1	467	767	181131	13.328	13.307	13.349
ProbeTrack11	9	ProbeTrack	11.2	SCS215a	20101013.131610	20101013.134536	8	0.013328	60	10	60-180	60	66	GapExp	0	256	2	3	1	target	1	374	813	181944	13.328	13.309	13.346
ProbeTrack11	9	ProbeTrack	11.2	SCS215a	20101013.131610	20101013.134541	8	0.013328	60	0	60-180	60	93	GapExp	0	257	2	45	0	distractor	1	600	700	182644	13.328	12.875	13.776
ProbeTrack11	9	ProbeTrack	11.2	SCS215a	20101013.131610	20101013.134547	8	0.013328	60	0	60-180	60	148	GapExp	0	258	2	3	1	target	1	547	727	183371	13.328	12.884	13.768
ProbeTrack11	9	ProbeTrack	11.2	SCS215a	20101013.131610	20101013.134553	8	0.013328	60	0	60-180	60	157	GapExp	0	259	2	0	0	distractor	1	787	607	183978	14.058	12.872	133.294
ProbeTrack11	9	ProbeTrack	11.2	SCS215a	20101013.131610	20101013.134600	8	0.013328	60	0	60-180	60	142	GapExp	0	260	2	0	0	distractor	1	520	740	184718	13.328	13.307	13.347
ProbeTrack11	9	ProbeTrack	11.2	SCS215a	20101013.131610	20101013.134606	8	0.013328	60	0	60-180	60	103	GapExp	0	261	2	3	0	distractor	1	693	654	185372	13.328	13.095	13.561
ProbeTrack11	9	ProbeTrack	11.2	SCS215a	20101013.131610	20101013.134612	8	0.013328	60	0	60-180	60	154	GapExp	0	262	2	1	0	distractor	1	547	727	186099	13.328	12.874	13.772
ProbeTrack11	9	ProbeTrack	11.2	SCS215a	20101013.131610	20101013.134619	8	0.013328	60	10	60-180	60	65	GapExp	0	263	2	3	1	target	1	387	807	186906	13.328	12.844	13.799
ProbeTrack11	9	ProbeTrack	11.2	SCS215a	20101013.131610	20101013.134624	8	0.013328	60	10	60-180	60	114	GapExp	0	264	2	1	1	target	1	374	813	187719	13.328	12.861	13.786
ProbeTrack11	9	ProbeTrack	11.2	SCS215a	20101013.131610	20101013.134630	8	0.013328	60	10	60-180	60	152	GapExp	0	265	2	1	0	target	0	400	-1000	186719	13.328	13.034	13.349
ProbeTrack11	9	ProbeTrack	11.2	SCS215a	20101013.131610	20101013.134636	8	0.013328	60	0	60-180	60	175	GapExp	0	266	2	1	1	target	1	707	647	187366	13.328	12.854	13.802
ProbeTrack11	9	ProbeTrack	11.2	SCS215a	20101013.131610	20101013.134643	8	0.013328	60	0	60-180	60	174	GapExp	0	267	2	45	0	distractor	1	654	673	188039	13.328	13.250	13.401
ProbeTrack11	9	ProbeTrack	11.2	SCS215a	20101013.131610	20101013.134650	8	0.013328	60	10	60-180	60	176	GapExp	0	268	2	3	0	distractor	1	636	682	188721	13.328	12.867	13.774
ProbeTrack11	9	ProbeTrack	11.2	SCS215a	20101013.131610	20101013.134657	8	0.013328	60	10	60-180	60	177	GapExp	0	269	2	1	1	target	1	627	687	189408	13.328	13.173	13.493
ProbeTrack11	9	ProbeTrack	11.2	SCS215a	20101013.131610	20101013.134704	8	0.013328	60	0	60-180	60	116	GapExp	0	270	2	0	1	target	1	467	767	190175	13.328	12.926	13.716
ProbeTrack11	9	ProbeTrack	11.2	SCS215a	20101013.131610	20101013.134710	8	0.013328	60	10	60-180	60	148	GapExp	0	271	2	1	1	target	1	693	654	190829	13.328	12.894	13.781
ProbeTrack11	9	ProbeTrack	11.2	SCS215a	20101013.131610	20101013.134717	8	0.013328	60	0	60-180	60	75	GapExp	0	272	2	45	1	target	1	454	773	191602	13.328	13.104	13.544
ProbeTrack11	9	ProbeTrack	11.2	SCS215a	20101013.131610	20101013.134722	8	0.013328	60	0	60-180	60	99	GapExp	0	273	2	45	1	target	1	573	714	192316	13.328	13.054	13.596
ProbeTrack11	9	ProbeTrack	11.2	SCS215a	20101013.131610	20101013.134729	8	0.013328	60	10	60-180	60	104	GapExp	0	274	2	0	1	target	1	547	727	193043	13.328	13.098	13.570
ProbeTrack11	9	ProbeTrack	11.2	SCS215a	20101013.131610	20101013.134736	8	0.013328	60	10	60-180	60	112	GapExp	0	275	2	0	1	target	1	480	760	193803	13.328	12.993	13.646
ProbeTrack11	9	ProbeTrack	11.2	SCS215a	20101013.131610	20101013.134741	8	0.013328	60	0	60-180	60	110	GapExp	0	276	2	1	0	distractor	1	560	720	194523	13.328	13.307	13.346
ProbeTrack11	9	ProbeTrack	11.2	SCS215a	20101013.131610	20101013.134747	8	0.013328	60	10	60-180	60	127	GapExp	0	277	2	1	1	target	1	560	720	195243	13.328	13.304	13.350
ProbeTrack11	9	ProbeTrack	11.2	SCS215a	20101013.131610	20101013.134753	8	0.013328	60	10	60-180	60	151	GapExp	0	278	2	1	0	distractor	1	1053	474	195717	13.328	13.309	13.348
ProbeTrack11	9	ProbeTrack	11.2	SCS215a	20101013.131610	20101013.134801	8	0.013328	60	0	60-180	60	162	GapExp	0	279	2	3	1	target	1	360	820	196537	13.328	12.907	13.743
ProbeTrack11	9	ProbeTrack	11.2	SCS215a	20101013.131610	20101013.134808	8	0.013328	60	0	60-180	60	153	GapExp	0	280	2	1	1	target	1	414	793	197330	13.328	12.890	13.746
ProbeTrack11	9	ProbeTrack	11.2	SCS215a	20101013.131610	20101013.134815	8	0.013328	60	0	60-180	60	81	GapExp	0	281	2	1	1	target	1	467	767	198097	13.328	13.306	13.349
ProbeTrack11	9	ProbeTrack	11.2	SCS215a	20101013.131610	20101013.134820	8	0.013328	60	10	60-180	60	110	GapExp	0	282	2	0	1	target	1	387	807	198904	13.328	13.287	13.347
ProbeTrack11	9	ProbeTrack	11.2	SCS215a	20101013.131610	20101013.134826	8	0.013328	60	10	60-180	60	93	GapExp	0	283	2	45	0	distractor	1	480	760	199664	13.328	12.877	13.795
ProbeTrack11	9	ProbeTrack	11.2	SCS215a	20101013.131610	20101013.134832	8	0.013328	60	10	60-180	60	144	GapExp	0	284	2	3	1	target	1	387	807	200471	13.328	12.846	13.803
ProbeTrack11	9	ProbeTrack	11.2	SCS215a	20101013.131610	20101013.134838	8	0.013328	60	10	60-180	60	144	GapExp	0	285	2	45	0	distractor	1	494	753	201224	13.328	12.978	13.671
ProbeTrack11	9	ProbeTrack	11.2	SCS215a	20101013.131610	20101013.134846	8	0.013328	60	10	60-180	60	122	GapExp	0	286	2	45	1	target	1	360	820	202044	13.328	12.984	13.667
ProbeTrack11	9	ProbeTrack	11.2	SCS215a	20101013.131610	20101013.134852	8	0.013328	60	0	60-180	60	125	GapExp	0	287	2	1	0	distractor	1	640	680	202724	13.328	12.885	13.771
ProbeTrack11	9	ProbeTrack	11.2	SCS215a	20101013.131610	20101013.134858	8	0.013328	60	0	60-180	60	111	GapExp	0	288	2	3	1	target	1	387	807	203531	13.328	13.306	13.348
ProbeTrack11	9	ProbeTrack	11.2	SCS215a	20101013.131610	20101013.134904	8	0.013328	60	0	60-180	60	118	GapExp	0	289	2	45	1	target	1	480	760	204291	13.328	13.260	13.407
ProbeTrack11	9	ProbeTrack	11.2	SCS215a	20101013.131610	20101013.134910	8	0.013328	60	10	60-180	60	133	GapExp	0	290	2	3	0	distractor	1	547	727	205018	13.328	12.926	13.743
ProbeTrack11	9	ProbeTrack	11.2	SCS215a	20101013.131610	20101013.134916	8	0.013328	60	10	60-180	60	172	GapExp	0	291	2	45	1	target	1	427	787	205805	13.328	12.834	13.821
ProbeTrack11	9	ProbeTrack	11.2	SCS215a	20101013.131610	20101013.134923	8	0.013328	60	0	60-180	60	64	GapExp	0	292	2	0	1	target	1	494	753	206558	13.328	13.060	13.574
ProbeTrack11	9	ProbeTrack	11.2	SCS215a	20101013.131610	20101013.134928	8	0.013328	60	10	60-180	60	67	GapExp	0	293	2	45	1	target	1	400	800	207358	13.328	13.000	13.649
ProbeTrack11	9	ProbeTrack	11.2	SCS215a	20101013.131610	20101013.134934	8	0.013328	60	0	60-180	60	104	GapExp	0	294	2	45	0	distractor	1	414	793	208151	13.328	13.099	13.554
ProbeTrack11	9	ProbeTrack	11.2	SCS215a	20101013.131610	20101013.134941	8	0.013328	60	10	60-180	60	71	GapExp	0	295	2	1	1	target	1	507	747	208898	13.328	13.306	13.344
ProbeTrack11	9	ProbeTrack	11.2	SCS215a	20101013.131610	20101013.134946	8	0.013328	60	0	60-180	60	180	GapExp	0	296	2	45	1	target	1	427	787	209685	13.328	13.307	13.349
ProbeTrack11	9	ProbeTrack	11.2	SCS215a	20101013.131610	20101013.134953	8	0.013328	60	0	60-180	60	180	GapExp	0	297	2	0	0	distractor	1	680	660	210345	13.328	13.296	13.357
ProbeTrack11	9	ProbeTrack	11.2	SCS215a	20101013.131610	20101013.135000	8	0.013328	60	0	60-180	60	151	GapExp	0	298	2	3	1	target	1	440	780	211125	13.328	13.098	13.551
ProbeTrack11	9	ProbeTrack	11.2	SCS215a	20101013.131610	20101013.135008	8	0.013328	60	10	60-180	60	93	GapExp	0	299	2	1	0	target	0	587	-1000	210125	13.328	13.309	13.346
ProbeTrack11	9	ProbeTrack	11.2	SCS215a	20101013.131610	20101013.135014	8	0.013328	60	0	60-180	60	136	GapExp	0	300	2	0	1	target	1	480	760	210885	13.328	13.310	13.347
ProbeTrack11	9	ProbeTrack	11.2	SCS215a	20101013.131610	20101013.135020	8	0.013328	60	0	60-180	60	163	GapExp	0	301	2	3	0	83	-3	560	-1000	209885	13.328	12.889	13.760
ProbeTrack11	9	ProbeTrack	11.2	SCS215a	20101013.131610	20101013.135057	8	0.013328	60	0	60-180	60	78	GapExp	0	302	2	45	1	target	1	840	580	210465	13.328	13.023	13.634
ProbeTrack11	9	ProbeTrack	11.2	SCS215a	20101013.131610	20101013.135105	8	0.013328	60	10	60-180	60	152	GapExp	0	303	2	0	0	distractor	1	1693	154	210619	13.328	12.888	13.787
ProbeTrack11	9	ProbeTrack	11.2	SCS215a	20101013.131610	20101013.135113	8	0.013328	60	0	60-180	60	113	GapExp	0	304	2	0	0	target	0	374	-1000	209619	13.328	12.860	13.798
ProbeTrack11	9	ProbeTrack	11.2	SCS215a	20101013.131610	20101013.135119	8	0.013328	60	10	60-180	60	68	GapExp	0	305	2	3	1	target	1	733	634	210253	13.328	13.308	13.348
ProbeTrack11	9	ProbeTrack	11.2	SCS215a	20101013.131610	20101013.135124	8	0.013328	60	0	60-180	60	98	GapExp	0	306	2	0	0	distractor	1	574	713	210966	13.328	13.043	13.616
ProbeTrack11	9	ProbeTrack	11.2	SCS215a	20101013.131610	20101013.135130	8	0.013328	60	0	60-180	60	79	GapExp	0	307	2	45	0	distractor	1	480	760	211726	13.328	13.295	13.348
ProbeTrack11	9	ProbeTrack	11.2	SCS215a	20101013.131610	20101013.135135	8	0.013328	60	10	60-180	60	152	GapExp	0	308	2	45	1	target	1	1067	467	212193	13.328	13.309	13.347
ProbeTrack11	9	ProbeTrack	11.2	SCS215a	20101013.131610	20101013.135144	8	0.013328	60	10	60-180	60	170	GapExp	0	309	2	45	1	target	1	440	780	212973	13.328	13.297	13.372
ProbeTrack11	9	ProbeTrack	11.2	SCS215a	20101013.131610	20101013.135151	8	0.013328	60	0	60-180	60	85	GapExp	0	310	2	45	0	distractor	1	587	707	213680	13.328	13.278	13.371
ProbeTrack11	9	ProbeTrack	11.2	SCS215a	20101013.131610	20101013.135157	8	0.013328	60	10	60-180	60	71	GapExp	0	311	2	0	1	target	1	400	800	214480	13.328	13.311	13.345
ProbeTrack11	9	ProbeTrack	11.2	SCS215a	20101013.131610	20101013.135205	8	0.013328	60	10	60-180	60	109	GapExp	0	312	2	3	1	target	1	414	793	215273	13.328	12.883	13.771
ProbeTrack11	9	ProbeTrack	11.2	SCS215a	20101013.131610	20101013.135217	8	0.013328	60	0	60-180	60	154	GapExp	0	313	2	45	0	distractor	1	693	654	215927	13.328	13.099	13.563
ProbeTrack11	9	ProbeTrack	11.2	SCS215a	20101013.131610	20101013.135223	8	0.013328	60	10	60-180	60	154	GapExp	0	314	2	45	1	target	1	467	767	216694	13.328	12.905	13.759
ProbeTrack11	9	ProbeTrack	11.2	SCS215a	20101013.131610	20101013.135231	8	0.013328	60	10	60-180	60	74	GapExp	0	315	2	1	0	distractor	1	695	653	217347	13.390	12.867	26.836
ProbeTrack11	9	ProbeTrack	11.2	SCS215a	20101013.131610	20101013.135236	8	0.013328	60	10	60-180	60	61	GapExp	0	316	2	45	1	target	1	760	620	217967	13.328	12.914	13.728
ProbeTrack11	9	ProbeTrack	11.2	SCS215a	20101013.131610	20101013.135242	8	0.013328	60	0	60-180	60	159	GapExp	0	317	2	0	1	target	1	387	807	218774	13.328	13.098	13.553
ProbeTrack11	9	ProbeTrack	11.2	SCS215a	20101013.131610	20101013.135249	8	0.013328	60	0	60-180	60	68	GapExp	0	318	2	3	1	target	1	427	787	219561	13.328	13.309	13.348
ProbeTrack11	9	ProbeTrack	11.2	SCS215a	20101013.131610	20101013.135254	8	0.013328	60	0	60-180	60	71	GapExp	0	319	2	45	0	distractor	1	880	560	220121	13.328	13.310	13.344
ProbeTrack11	9	ProbeTrack	11.2	SCS215a	20101013.131610	20101013.135300	8	0.013328	60	0	60-180	60	82	GapExp	0	320	2	0	0	distractor	1	653	674	220795	13.328	13.305	13.346
ProbeTrack11	9	ProbeTrack	11.2	SCS215a	20101013.131610	20101013.135306	8	0.013328	60	10	60-180	60	88	GapExp	0	321	2	0	0	distractor	1	640	680	221475	13.328	13.089	13.573
ProbeTrack11	9	ProbeTrack	11.2	SCS215a	20101013.131610	20101013.135312	8	0.013328	60	0	60-180	60	133	GapExp	0	322	2	0	1	target	1	387	807	222282	13.328	13.021	13.618
ProbeTrack11	9	ProbeTrack	11.2	SCS215a	20101013.131610	20101013.135317	8	0.013328	60	10	60-180	60	86	GapExp	0	323	2	3	1	target	1	667	667	222949	13.328	13.288	13.352
ProbeTrack11	9	ProbeTrack	11.2	SCS215a	20101013.131610	20101013.135323	8	0.013328	60	0	60-180	60	161	GapExp	0	324	2	0	1	target	1	400	800	223749	13.328	12.982	13.677
ProbeTrack11	9	ProbeTrack	11.2	SCS215a	20101013.131610	20101013.135329	8	0.013328	60	10	60-180	60	106	GapExp	0	325	2	1	0	distractor	1	547	727	224476	13.328	13.305	13.357
ProbeTrack11	9	ProbeTrack	11.2	SCS215a	20101013.131610	20101013.135335	8	0.013328	60	10	60-180	60	119	GapExp	0	326	2	1	0	distractor	1	614	693	225169	13.328	13.066	13.612
ProbeTrack11	9	ProbeTrack	11.2	SCS215a	20101013.131610	20101013.135341	8	0.013328	60	0	60-180	60	97	GapExp	0	327	2	0	1	target	1	374	813	225982	13.328	12.841	13.816
ProbeTrack11	9	ProbeTrack	11.2	SCS215a	20101013.131610	20101013.135346	8	0.013328	60	0	60-180	60	114	GapExp	0	328	2	3	1	target	1	560	720	226702	13.328	12.968	13.681
ProbeTrack11	9	ProbeTrack	11.2	SCS215a	20101013.131610	20101013.135352	8	0.013328	60	0	60-180	60	160	GapExp	0	329	2	1	1	target	1	374	813	227515	13.328	13.287	13.363
ProbeTrack11	9	ProbeTrack	11.2	SCS215a	20101013.131610	20101013.135358	8	0.013328	60	0	60-180	60	90	GapExp	0	330	2	0	0	distractor	1	574	713	228228	13.328	13.225	13.424
ProbeTrack11	9	ProbeTrack	11.2	SCS215a	20101013.131610	20101013.135404	8	0.013328	60	0	60-180	60	77	GapExp	0	331	2	45	0	distractor	1	547	727	228955	13.328	13.033	13.609
ProbeTrack11	9	ProbeTrack	11.2	SCS215a	20101013.131610	20101013.135409	8	0.013328	60	10	60-180	60	158	GapExp	0	332	2	1	0	distractor	1	600	700	229655	13.328	13.099	13.571
ProbeTrack11	9	ProbeTrack	11.2	SCS215a	20101013.131610	20101013.135416	8	0.013328	60	0	60-180	60	62	GapExp	0	333	2	1	0	distractor	1	667	667	230322	13.328	12.864	13.792
ProbeTrack11	9	ProbeTrack	11.2	SCS215a	20101013.131610	20101013.135421	8	0.013328	60	10	60-180	60	121	GapExp	0	334	2	45	0	distractor	1	574	713	231035	13.328	12.934	13.721
ProbeTrack11	9	ProbeTrack	11.2	SCS215a	20101013.131610	20101013.135428	8	0.013328	60	10	60-180	60	155	GapExp	0	335	2	3	0	target	0	440	-1000	230035	13.328	12.907	13.753
ProbeTrack11	9	ProbeTrack	11.2	SCS215a	20101013.131610	20101013.135434	8	0.013328	60	0	60-180	60	77	GapExp	0	336	2	1	0	distractor	1	560	720	230755	13.328	13.098	13.548
ProbeTrack11	9	ProbeTrack	11.2	SCS215a	20101013.131610	20101013.135441	8	0.013328	60	0	60-180	60	119	GapExp	0	337	2	3	1	target	1	494	753	231508	13.328	12.997	13.660
ProbeTrack11	9	ProbeTrack	11.2	SCS215a	20101013.131610	20101013.135453	8	0.013328	60	0	60-180	60	107	GapExp	0	338	2	3	1	target	1	600	700	232208	13.328	12.961	13.710
ProbeTrack11	9	ProbeTrack	11.2	SCS215a	20101013.131610	20101013.135459	8	0.013328	60	10	60-180	60	156	GapExp	0	339	2	1	1	target	1	574	713	232921	13.328	13.308	13.346
ProbeTrack11	9	ProbeTrack	11.2	SCS215a	20101013.131610	20101013.135506	8	0.013328	60	0	60-180	60	146	GapExp	0	340	2	0	1	target	1	414	793	233714	13.328	13.307	13.350
ProbeTrack11	9	ProbeTrack	11.2	SCS215a	20101013.131610	20101013.135513	8	0.013328	60	10	60-180	60	102	GapExp	0	341	2	0	1	distractor	0	613	-1000	232714	13.328	13.102	13.553
ProbeTrack11	9	ProbeTrack	11.2	SCS215a	20101013.131610	20101013.135525	8	0.013328	60	10	60-180	60	115	GapExp	0	342	2	3	1	target	1	427	787	233501	13.328	13.268	13.404
ProbeTrack11	9	ProbeTrack	11.2	SCS215a	20101013.131610	20101013.135531	8	0.013328	60	10	60-180	60	71	GapExp	0	343	2	45	1	distractor	0	694	-1000	232501	13.328	13.099	13.564
ProbeTrack11	9	ProbeTrack	11.2	SCS215a	20101013.131610	20101013.135537	8	0.013328	60	10	60-180	60	113	GapExp	0	344	2	0	1	target	1	467	767	233268	13.328	12.878	13.782
ProbeTrack11	9	ProbeTrack	11.2	SCS215a	20101013.131610	20101013.135543	8	0.013328	60	10	60-180	60	173	GapExp	0	345	2	1	1	target	1	414	793	234061	13.328	13.309	13.346
ProbeTrack11	9	ProbeTrack	11.2	SCS215a	20101013.131610	20101013.135550	8	0.013328	60	0	60-180	60	84	GapExp	0	346	2	1	1	target	1	520	740	234801	13.328	12.940	13.740
ProbeTrack11	9	ProbeTrack	11.2	SCS215a	20101013.131610	20101013.135555	8	0.013328	60	10	60-180	60	129	GapExp	0	347	2	45	0	distractor	1	573	714	235515	13.328	12.931	13.726
ProbeTrack11	9	ProbeTrack	11.2	SCS215a	20101013.131610	20101013.135602	8	0.013328	60	10	60-180	60	64	GapExp	0	348	2	1	0	distractor	1	1280	360	235875	13.328	13.300	13.348
ProbeTrack11	9	ProbeTrack	11.2	SCS215a	20101013.131610	20101013.135608	8	0.013328	60	10	60-180	60	154	GapExp	0	349	2	0	0	distractor	1	733	634	236509	13.373	13.106	26.675
ProbeTrack11	9	ProbeTrack	11.2	SCS215a	20101013.131610	20101013.135614	8	0.013328	60	0	60-180	60	98	GapExp	0	350	2	0	1	target	1	574	713	237222	13.328	13.107	13.551
ProbeTrack11	9	ProbeTrack	11.2	SCS215a	20101013.131610	20101013.135620	8	0.013328	60	10	60-180	60	141	GapExp	0	351	2	45	0	distractor	1	534	733	237955	13.328	12.921	13.749
ProbeTrack11	9	ProbeTrack	11.2	SCS215a	20101013.131610	20101013.135626	8	0.013328	60	0	60-180	60	136	GapExp	0	352	2	45	1	target	1	360	820	238775	13.328	13.095	13.548
ProbeTrack11	9	ProbeTrack	11.2	SCS215a	20101013.131610	20101013.135633	8	0.013328	60	10	60-180	60	110	GapExp	0	353	2	1	0	distractor	1	454	773	239548	13.328	12.969	13.682
ProbeTrack11	9	ProbeTrack	11.2	SCS215a	20101013.131610	20101013.135639	8	0.013328	60	0	60-180	60	155	GapExp	0	354	2	3	0	distractor	1	454	773	240321	13.328	13.310	13.347
ProbeTrack11	9	ProbeTrack	11.2	SCS215a	20101013.131610	20101013.135645	8	0.013328	60	10	60-180	60	122	GapExp	0	355	2	45	0	target	0	400	-1000	239321	13.328	13.311	13.346
ProbeTrack11	9	ProbeTrack	11.2	SCS215a	20101013.131610	20101013.135651	8	0.013328	60	0	60-180	60	114	GapExp	0	356	2	1	0	distractor	1	1013	494	239815	13.328	12.874	13.793
ProbeTrack11	9	ProbeTrack	11.2	SCS215a	20101013.131610	20101013.135658	8	0.013328	60	10	60-180	60	106	GapExp	0	357	2	3	0	distractor	1	614	693	240508	13.328	13.100	13.556
ProbeTrack11	9	ProbeTrack	11.2	SCS215a	20101013.131610	20101013.135703	8	0.013328	60	10	60-180	60	98	GapExp	0	358	2	3	0	distractor	1	560	720	241228	13.328	13.090	13.566
ProbeTrack11	9	ProbeTrack	11.2	SCS215a	20101013.131610	20101013.135709	8	0.013328	60	10	60-180	60	70	GapExp	0	359	2	45	1	target	1	587	707	241935	13.328	12.936	13.727
ProbeTrack11	9	ProbeTrack	11.2	SCS215a	20101013.131610	20101013.135715	8	0.013328	60	10	60-180	60	142	GapExp	0	360	2	3	0	distractor	1	600	700	242635	13.328	13.087	13.564
ProbeTrack11	9	ProbeTrack	11.2	SCS215a	20101013.131610	20101013.135722	8	0.013328	60	10	60-180	60	163	GapExp	0	361	2	3	1	target	1	600	700	243335	13.328	13.295	13.361
ProbeTrack11	9	ProbeTrack	11.2	SCS215a	20101013.131610	20101013.135728	8	0.013328	60	0	60-180	60	75	GapExp	0	362	2	45	1	target	1	494	753	244088	13.328	12.901	13.749
ProbeTrack11	9	ProbeTrack	11.2	SCS215a	20101013.131610	20101013.135734	8	0.013328	60	10	60-180	60	64	GapExp	0	363	2	3	0	distractor	1	987	507	244595	13.328	13.028	13.636
ProbeTrack11	9	ProbeTrack	11.2	SCS215a	20101013.131610	20101013.135739	8	0.013328	60	10	60-180	60	103	GapExp	0	364	2	1	0	target	0	1440	-1000	243595	13.328	12.961	13.719
ProbeTrack11	9	ProbeTrack	11.2	SCS215a	20101013.131610	20101013.135746	8	0.013328	60	10	60-180	60	81	GapExp	0	365	2	45	0	distractor	1	747	627	244222	13.328	13.106	13.537
ProbeTrack11	9	ProbeTrack	11.2	SCS215a	20101013.131610	20101013.135752	8	0.013328	60	10	60-180	60	165	GapExp	0	366	2	45	0	distractor	1	773	614	244836	13.328	12.852	13.818
ProbeTrack11	9	ProbeTrack	11.2	SCS215a	20101013.131610	20101013.135759	8	0.013328	60	10	60-180	60	108	GapExp	0	367	2	45	1	target	1	347	827	245663	13.326	12.978	13.564
ProbeTrack11	9	ProbeTrack	11.2	SCS215a	20101013.131610	20101013.135806	8	0.013328	60	0	60-180	60	81	GapExp	0	368	2	3	0	distractor	1	627	687	246350	13.328	13.109	13.560
ProbeTrack11	9	ProbeTrack	11.2	SCS215a	20101013.131610	20101013.135811	8	0.013328	60	0	60-180	60	97	GapExp	0	369	2	0	1	target	1	494	753	247103	13.328	13.312	13.343
ProbeTrack11	9	ProbeTrack	11.2	SCS215a	20101013.131610	20101013.135817	8	0.013328	60	0	60-180	60	160	GapExp	0	370	2	1	1	target	1	840	580	247683	13.328	13.299	13.359
ProbeTrack11	9	ProbeTrack	11.2	SCS215a	20101013.131610	20101013.135824	8	0.013328	60	0	60-180	60	66	GapExp	0	371	2	0	1	target	1	480	760	248443	13.328	12.965	13.688
ProbeTrack11	9	ProbeTrack	11.2	SCS215a	20101013.131610	20101013.135829	8	0.013328	60	10	60-180	60	158	GapExp	0	372	2	3	1	target	1	454	773	249216	13.328	13.100	13.564
ProbeTrack11	9	ProbeTrack	11.2	SCS215a	20101013.131610	20101013.135835	8	0.013328	60	0	60-180	60	124	GapExp	0	373	2	3	0	distractor	1	587	707	249923	13.328	13.114	13.549
ProbeTrack11	9	ProbeTrack	11.2	SCS215a	20101013.131610	20101013.135841	8	0.013328	60	0	60-180	60	147	GapExp	0	374	2	0	0	distractor	1	507	747	250670	13.328	12.846	13.798
ProbeTrack11	9	ProbeTrack	11.2	SCS215a	20101013.131610	20101013.135848	8	0.013328	60	10	60-180	60	63	GapExp	0	375	2	0	0	target	0	1093	-1000	249670	13.328	13.312	13.345
ProbeTrack11	9	ProbeTrack	11.2	SCS215a	20101013.131610	20101013.135855	8	0.013328	60	0	60-180	60	176	GapExp	0	376	2	0	1	target	1	440	780	250450	13.328	13.015	13.655
ProbeTrack11	9	ProbeTrack	11.2	SCS215a	20101013.131610	20101013.135901	8	0.013328	60	10	60-180	60	167	GapExp	0	377	2	0	1	target	1	507	747	251197	13.328	13.078	13.590
ProbeTrack11	9	ProbeTrack	11.2	SCS215a	20101013.131610	20101013.135908	8	0.013328	60	0	60-180	60	91	GapExp	0	378	2	1	1	target	1	480	760	251957	13.328	12.855	13.802
ProbeTrack11	9	ProbeTrack	11.2	SCS215a	20101013.131610	20101013.135913	8	0.013328	60	0	60-180	60	130	GapExp	0	379	2	0	0	distractor	1	627	687	252644	13.327	13.099	13.366
ProbeTrack11	9	ProbeTrack	11.2	SCS215a	20101013.131610	20101013.135920	8	0.013328	60	0	60-180	60	78	GapExp	0	380	2	45	0	distractor	1	773	614	253258	13.328	13.310	13.346
ProbeTrack11	9	ProbeTrack	11.2	SCS215a	20101013.131610	20101013.135926	8	0.013328	60	0	60-180	60	128	GapExp	0	381	2	1	1	target	1	440	780	254038	13.328	12.903	13.759
ProbeTrack11	9	ProbeTrack	11.2	SCS215a	20101013.131610	20101013.135931	8	0.013328	60	10	60-180	60	165	GapExp	0	382	2	0	1	target	1	467	767	254805	13.328	13.104	13.545
ProbeTrack11	9	ProbeTrack	11.2	SCS215a	20101013.131610	20101013.135938	8	0.013328	60	10	60-180	60	100	GapExp	0	383	2	0	0	distractor	1	640	680	255485	13.328	13.305	13.349
ProbeTrack11	9	ProbeTrack	11.2	SCS215a	20101013.131610	20101013.135945	8	0.013328	60	0	60-180	60	166	GapExp	0	384	2	1	1	target	1	720	640	256125	13.328	13.100	13.563
ProbeTrack11	9	ProbeTrack	11.2	SCS215a	20101013.131610	20101013.135952	8	0.013328	60	10	60-180	60	159	GapExp	0	385	2	45	0	distractor	1	467	767	256892	13.328	13.303	13.349
ProbeTrack11	9	ProbeTrack	11.2	SCS215a	20101013.131610	20101013.135959	8	0.013328	60	10	60-180	60	129	GapExp	0	386	2	45	0	distractor	1	613	694	257586	13.328	13.085	13.573
ProbeTrack11	9	ProbeTrack	11.2	SCS215a	20101013.131610	20101013.140006	8	0.013328	60	0	60-180	60	111	GapExp	0	387	2	0	0	distractor	1	920	540	258126	13.328	12.943	13.721
ProbeTrack11	9	ProbeTrack	11.2	SCS215a	20101013.131610	20101013.140012	8	0.013328	60	10	60-180	60	62	GapExp	0	388	2	3	1	target	1	467	767	258893	13.328	13.099	13.564
ProbeTrack11	9	ProbeTrack	11.2	SCS215a	20101013.131610	20101013.140017	8	0.013328	60	0	60-180	60	159	GapExp	0	389	2	45	0	distractor	1	587	707	259600	13.328	13.085	13.571
ProbeTrack11	9	ProbeTrack	11.2	SCS215a	20101013.131610	20101013.140024	8	0.013328	60	10	60-180	60	176	GapExp	0	390	2	1	1	distractor	0	534	-1000	258600	13.328	13.295	13.347
ProbeTrack11	9	ProbeTrack	11.2	SCS215a	20101013.131610	20101013.140031	8	0.013328	60	0	60-180	60	149	GapExp	0	391	2	1	0	distractor	1	614	693	259293	13.328	12.910	13.736
ProbeTrack11	9	ProbeTrack	11.2	SCS215a	20101013.131610	20101013.140037	8	0.013328	60	0	60-180	60	155	GapExp	0	392	2	45	0	distractor	1	627	687	259980	13.328	12.985	13.672
ProbeTrack11	9	ProbeTrack	11.2	SCS215a	20101013.131610	20101013.140045	8	0.013328	60	0	60-180	60	95	GapExp	0	393	2	1	1	target	1	534	733	260713	13.328	13.312	13.344
ProbeTrack11	9	ProbeTrack	11.2	SCS215a	20101013.131610	20101013.140051	8	0.013328	60	10	60-180	60	169	GapExp	0	394	2	1	0	distractor	1	587	707	261420	13.328	12.882	13.776
ProbeTrack11	9	ProbeTrack	11.2	SCS215a	20101013.131610	20101013.140058	8	0.013328	60	0	60-180	60	117	GapExp	0	395	2	3	1	target	1	480	760	262180	13.328	12.947	13.724
ProbeTrack11	9	ProbeTrack	11.2	SCS215a	20101013.131610	20101013.140103	8	0.013328	60	10	60-180	60	90	GapExp	0	396	2	1	1	target	1	507	747	262927	13.328	12.888	13.766
ProbeTrack11	9	ProbeTrack	11.2	SCS215a	20101013.131610	20101013.140109	8	0.013328	60	0	60-180	60	141	GapExp	0	397	2	3	1	target	1	667	667	263594	13.328	13.096	13.561
ProbeTrack11	9	ProbeTrack	11.2	SCS215a	20101013.131610	20101013.140115	8	0.013328	60	10	60-180	60	113	GapExp	0	398	2	1	0	distractor	1	613	694	264288	13.328	13.097	13.552
ProbeTrack11	9	ProbeTrack	11.2	SCS215a	20101013.131610	20101013.140121	8	0.013328	60	0	60-180	60	173	GapExp	0	399	2	0	0	distractor	1	667	667	264955	13.327	12.957	13.691
ProbeTrack11	9	ProbeTrack	11.2	SCS215a	20101013.131610	20101013.140128	8	0.013328	60	10	60-180	60	111	GapExp	0	400	2	0	1	target	1	480	760	265715	13.328	13.100	13.550
ProbeTrack11	9	ProbeTrack	11.2	SCS215a	20101013.131610	20101013.140134	8	0.013328	60	10	60-180	60	108	GapExp	0	401	2	0	1	target	1	467	767	266482	13.386	12.862	27.127
ProbeTrack11	9	ProbeTrack	11.2	SCS215a	20101013.131610	20101013.140139	8	0.013328	60	10	60-180	60	126	GapExp	0	402	2	1	1	target	1	507	747	267229	13.328	13.049	13.591
ProbeTrack11	9	ProbeTrack	11.2	SCS215a	20101013.131610	20101013.140145	8	0.013328	60	0	60-180	60	72	GapExp	0	403	2	3	1	target	1	440	780	268009	13.329	13.309	13.521
ProbeTrack11	9	ProbeTrack	11.2	SCS215a	20101013.131610	20101013.140152	8	0.013328	60	0	60-180	60	110	GapExp	0	404	2	45	0	distractor	1	595	703	268712	13.328	13.061	13.584
ProbeTrack11	9	ProbeTrack	11.2	SCS215a	20101013.131610	20101013.140158	8	0.013328	60	10	60-180	60	96	GapExp	0	405	2	3	1	target	1	374	813	269525	13.328	12.986	13.685
ProbeTrack11	9	ProbeTrack	11.2	SCS215a	20101013.131610	20101013.140203	8	0.013328	60	10	60-180	60	92	GapExp	0	406	2	1	1	target	1	440	780	270305	13.328	12.904	13.761
ProbeTrack11	9	ProbeTrack	11.2	SCS215a	20101013.131610	20101013.140209	8	0.013328	60	10	60-180	60	141	GapExp	0	407	2	1	0	distractor	1	539	731	271036	13.328	13.061	13.596
ProbeTrack11	9	ProbeTrack	11.2	SCS215a	20101013.131610	20101013.140215	8	0.013328	60	10	60-180	60	81	GapExp	0	408	2	1	0	distractor	1	560	720	271756	13.328	13.015	13.643
ProbeTrack11	9	ProbeTrack	11.2	SCS215a	20101013.131610	20101013.140220	8	0.013328	60	0	60-180	60	135	GapExp	0	409	2	45	0	distractor	1	520	740	272496	13.328	12.881	13.762
ProbeTrack11	9	ProbeTrack	11.2	SCS215a	20101013.131610	20101013.140227	8	0.013328	60	10	60-180	60	144	GapExp	0	410	2	0	0	distractor	1	1493	254	272750	13.328	12.961	13.682
ProbeTrack11	9	ProbeTrack	11.2	SCS215a	20101013.131610	20101013.140234	8	0.013328	60	0	60-180	60	113	GapExp	0	411	2	45	1	target	1	360	820	273570	13.328	13.097	13.350
ProbeTrack11	9	ProbeTrack	11.2	SCS215a	20101013.131610	20101013.140240	8	0.013328	60	10	60-180	60	139	GapExp	0	412	2	0	1	target	1	560	720	274290	13.328	13.063	13.604
ProbeTrack11	9	ProbeTrack	11.2	SCS215a	20101013.131610	20101013.140246	8	0.013328	60	10	60-180	60	135	GapExp	0	413	2	0	1	target	1	400	800	275090	13.328	13.100	13.557
ProbeTrack11	9	ProbeTrack	11.2	SCS215a	20101013.131610	20101013.140252	8	0.013328	60	10	60-180	60	111	GapExp	0	414	2	45	1	target	1	347	827	275917	13.328	13.087	13.548
ProbeTrack11	9	ProbeTrack	11.2	SCS215a	20101013.131610	20101013.140258	8	0.013328	60	0	60-180	60	171	GapExp	0	415	2	3	0	distractor	1	680	660	276577	13.328	13.098	13.564
ProbeTrack11	9	ProbeTrack	11.2	SCS215a	20101013.131610	20101013.140304	8	0.013328	60	10	60-180	60	110	GapExp	0	416	2	45	1	target	1	320	840	277417	13.328	13.310	13.347
ProbeTrack11	9	ProbeTrack	11.2	SCS215a	20101013.131610	20101013.140311	8	0.013328	60	10	60-180	60	172	GapExp	0	417	2	3	1	target	1	427	787	278204	13.328	12.983	13.655
ProbeTrack11	9	ProbeTrack	11.2	SCS215a	20101013.131610	20101013.140317	8	0.013328	60	10	60-180	60	81	GapExp	0	418	2	1	1	target	1	1853	74	278278	13.328	12.987	13.669
ProbeTrack11	9	ProbeTrack	11.2	SCS215a	20101013.131610	20101013.140324	8	0.013328	60	10	60-180	60	146	GapExp	0	419	2	1	0	target	0	720	-1000	277278	13.328	13.306	13.353
ProbeTrack11	9	ProbeTrack	11.2	SCS215a	20101013.131610	20101013.140330	8	0.013328	60	0	60-180	60	108	GapExp	0	420	2	3	1	target	1	507	747	278025	13.328	12.891	13.772
ProbeTrack11	9	ProbeTrack	11.2	SCS215a	20101013.131610	20101013.140336	8	0.013328	60	0	60-180	60	133	GapExp	0	421	2	45	1	target	1	374	813	278838	13.328	12.918	13.745
ProbeTrack11	9	ProbeTrack	11.2	SCS215a	20101013.131610	20101013.140342	8	0.013328	60	10	60-180	60	121	GapExp	0	422	2	3	1	target	1	360	820	279658	13.328	13.308	13.346
ProbeTrack11	9	ProbeTrack	11.2	SCS215a	20101013.131610	20101013.140351	8	0.013328	60	10	60-180	60	164	GapExp	0	423	2	3	0	target	0	414	-1000	278658	13.328	12.883	13.759
ProbeTrack11	9	ProbeTrack	11.2	SCS215a	20101013.131610	20101013.140358	8	0.013328	60	0	60-180	60	155	GapExp	0	424	2	3	0	distractor	1	813	594	279252	13.328	12.896	13.752
ProbeTrack11	9	ProbeTrack	11.2	SCS215a	20101013.131610	20101013.140405	8	0.013328	60	0	60-180	60	128	GapExp	0	425	2	0	0	distractor	1	733	634	279886	13.328	12.894	13.779
ProbeTrack11	9	ProbeTrack	11.2	SCS215a	20101013.131610	20101013.140411	8	0.013328	60	10	60-180	60	132	GapExp	0	426	2	0	0	distractor	1	591	705	280591	13.328	13.007	13.668
ProbeTrack11	9	ProbeTrack	11.2	SCS215a	20101013.131610	20101013.140417	8	0.013328	60	0	60-180	60	146	GapExp	0	427	2	0	1	target	1	467	767	281358	13.328	13.309	13.347
ProbeTrack11	9	ProbeTrack	11.2	SCS215a	20101013.131610	20101013.140423	8	0.013328	60	0	60-180	60	139	GapExp	0	428	2	1	1	target	1	454	773	282131	13.328	12.878	13.766
ProbeTrack11	9	ProbeTrack	11.2	SCS215a	20101013.131610	20101013.140429	8	0.013328	60	10	60-180	60	119	GapExp	0	429	2	3	1	target	1	534	733	282864	13.328	12.851	13.812
ProbeTrack11	9	ProbeTrack	11.2	SCS215a	20101013.131610	20101013.140435	8	0.013328	60	0	60-180	60	132	GapExp	0	430	2	3	0	distractor	1	933	534	283398	13.328	13.280	13.391
ProbeTrack11	9	ProbeTrack	11.2	SCS215a	20101013.131610	20101013.140441	8	0.013328	60	0	60-180	60	103	GapExp	0	431	2	45	1	target	1	480	760	284158	13.328	13.302	13.356
ProbeTrack11	9	ProbeTrack	11.2	SCS215a	20101013.131610	20101013.140447	8	0.013328	60	10	60-180	60	155	GapExp	0	432	2	1	1	target	1	680	660	284818	13.328	12.871	13.775
ProbeTrack11	9	ProbeTrack	11.2	SCS215a	20101013.131610	20101013.140454	8	0.013328	60	0	60-180	60	154	GapExp	0	433	2	45	1	target	1	387	807	285625	13.328	12.863	13.783
ProbeTrack11	9	ProbeTrack	11.2	SCS215a	20101013.131610	20101013.140501	8	0.013328	60	0	60-180	60	128	GapExp	0	434	2	45	1	target	1	480	760	286385	13.328	12.950	13.781
ProbeTrack11	9	ProbeTrack	11.2	SCS215a	20101013.131610	20101013.140507	8	0.013328	60	10	60-180	60	61	GapExp	0	435	2	0	0	distractor	1	1013	494	286879	13.328	12.850	13.806
ProbeTrack11	9	ProbeTrack	11.2	SCS215a	20101013.131610	20101013.140513	8	0.013328	60	10	60-180	60	118	GapExp	0	436	2	3	0	distractor	1	1346	327	287206	13.328	13.105	13.544
ProbeTrack11	9	ProbeTrack	11.2	SCS215a	20101013.131610	20101013.140519	8	0.013328	60	10	60-180	60	67	GapExp	0	437	2	0	1	target	1	534	733	287939	13.328	12.933	13.722
ProbeTrack11	9	ProbeTrack	11.2	SCS215a	20101013.131610	20101013.140525	8	0.013328	60	0	60-180	60	143	GapExp	0	438	2	45	0	distractor	1	494	753	288692	13.328	13.299	13.348
ProbeTrack11	9	ProbeTrack	11.2	SCS215a	20101013.131610	20101013.140531	8	0.013328	60	0	60-180	60	163	GapExp	0	439	2	3	1	target	1	494	753	289445	13.328	13.091	13.564
ProbeTrack11	9	ProbeTrack	11.2	SCS215a	20101013.131610	20101013.140539	8	0.013328	60	0	60-180	60	109	GapExp	0	440	2	3	1	target	1	400	800	290245	13.328	12.927	13.723
ProbeTrack11	9	ProbeTrack	11.2	SCS215a	20101013.131610	20101013.140545	8	0.013328	60	10	60-180	60	155	GapExp	0	441	2	45	0	distractor	1	507	747	290992	13.328	13.307	13.348
ProbeTrack11	9	ProbeTrack	11.2	SCS215a	20101013.131610	20101013.140552	8	0.013328	60	10	60-180	60	74	GapExp	0	442	2	0	1	target	1	574	713	291705	13.328	12.974	13.684
ProbeTrack11	9	ProbeTrack	11.2	SCS215a	20101013.131610	20101013.140557	8	0.013328	60	0	60-180	60	164	GapExp	0	443	2	1	0	distractor	1	627	687	292392	13.328	13.308	13.347
ProbeTrack11	9	ProbeTrack	11.2	SCS215a	20101013.131610	20101013.140604	8	0.013328	60	10	60-180	60	129	GapExp	0	444	2	0	1	target	1	520	740	293132	13.328	13.307	13.346
ProbeTrack11	9	ProbeTrack	11.2	SCS215a	20101013.131610	20101013.140610	8	0.013328	60	0	60-180	60	159	GapExp	0	445	2	1	0	distractor	1	587	707	293839	13.328	13.107	13.548
ProbeTrack11	9	ProbeTrack	11.2	SCS215a	20101013.131610	20101013.140616	8	0.013328	60	10	60-180	60	73	GapExp	0	446	2	0	1	target	1	494	753	294592	13.328	12.902	13.762
ProbeTrack11	9	ProbeTrack	11.2	SCS215a	20101013.131610	20101013.140621	8	0.013328	60	10	60-180	60	84	GapExp	0	447	2	0	1	target	1	467	767	295359	13.328	12.862	13.801
ProbeTrack11	9	ProbeTrack	11.2	SCS215a	20101013.131610	20101013.140627	8	0.013328	60	0	60-180	60	82	GapExp	0	448	2	45	1	target	1	454	773	296132	13.776	12.845	119.951
ProbeTrack11	9	ProbeTrack	11.2	SCS215a	20101013.131610	20101013.140633	8	0.013328	60	0	60-180	60	102	GapExp	0	449	2	3	0	distractor	1	627	687	296819	13.328	13.309	13.355
ProbeTrack11	9	ProbeTrack	11.2	SCS215a	20101013.131610	20101013.140638	8	0.013328	60	10	60-180	60	64	GapExp	0	450	2	45	1	target	1	440	780	297599	13.328	13.084	13.558
