exp	sub	code	rev	comp	runtime	trialtime	nstim	refreshdur	cuedur	gapdur	gapOnsetRange	durPostProbe	gapOnsetTime	blocktype	prac	trial	ntargets	soa	probeTarget	resp	acc	rt	pts	tpts	meanFrameDur	minFrameDur	maxFrameDur
ProbeTrack11	12	ProbeTrack	11.2	SCS215a	20101020.141939	20101020.142006	8	0.013327	60	0	60-180	60	83	NoGap	1	1	2	3	1	distractor	0	494	-1000	-1000	13.328	13.293	13.363
ProbeTrack11	12	ProbeTrack	11.2	SCS215a	20101020.141939	20101020.142017	8	0.013327	60	0	60-180	60	156	NoGap	1	2	2	0	0	distractor	1	2266	0	-1000	13.328	13.293	13.374
ProbeTrack11	12	ProbeTrack	11.2	SCS215a	20101020.141939	20101020.142040	8	0.013327	60	0	60-180	60	107	NoGap	1	3	2	3	1	target	1	467	767	-233	13.328	13.293	13.362
ProbeTrack11	12	ProbeTrack	11.2	SCS215a	20101020.141939	20101020.142058	8	0.013327	60	0	60-180	60	69	NoGap	1	4	2	0	1	target	1	387	807	574	13.328	13.293	13.363
ProbeTrack11	12	ProbeTrack	11.2	SCS215a	20101020.141939	20101020.142105	8	0.013327	60	0	60-180	60	156	NoGap	1	5	2	45	0	distractor	1	680	660	1234	13.328	13.293	13.373
ProbeTrack11	12	ProbeTrack	11.2	SCS215a	20101020.141939	20101020.142113	8	0.013327	60	0	60-180	60	130	NoGap	1	6	2	0	1	target	1	560	720	1954	13.328	13.290	13.366
ProbeTrack11	12	ProbeTrack	11.2	SCS215a	20101020.141939	20101020.142120	8	0.013327	60	0	60-180	60	127	NoGap	1	7	2	3	1	distractor	0	494	-1000	954	13.328	13.293	13.363
ProbeTrack11	12	ProbeTrack	11.2	SCS215a	20101020.141939	20101020.142127	8	0.013327	60	0	60-180	60	151	NoGap	1	8	2	45	1	target	1	574	713	1667	13.328	13.293	13.363
ProbeTrack11	12	ProbeTrack	11.2	SCS215a	20101020.141939	20101020.142135	8	0.013327	60	0	60-180	60	120	NoGap	1	9	2	1	1	target	1	654	673	2340	13.328	13.293	13.363
ProbeTrack11	12	ProbeTrack	11.2	SCS215a	20101020.141939	20101020.142142	8	0.013327	60	0	60-180	60	67	NoGap	1	10	2	3	0	distractor	1	640	680	3020	13.328	13.291	13.363
ProbeTrack11	12	ProbeTrack	11.2	SCS215a	20101020.141939	20101020.142148	8	0.013327	60	0	60-180	60	63	NoGap	1	11	2	1	0	distractor	1	773	614	3634	13.328	13.289	13.363
ProbeTrack11	12	ProbeTrack	11.2	SCS215a	20101020.141939	20101020.142154	8	0.013327	60	0	60-180	60	180	NoGap	1	12	2	45	0	distractor	1	534	733	4367	13.328	13.224	13.401
ProbeTrack11	12	ProbeTrack	11.2	SCS215a	20101020.141939	20101020.142201	8	0.013327	60	0	60-180	60	107	NoGap	1	13	2	1	0	distractor	1	520	740	5107	13.327	13.293	13.362
ProbeTrack11	12	ProbeTrack	11.2	SCS215a	20101020.141939	20101020.142207	8	0.013327	60	0	60-180	60	71	NoGap	1	14	2	1	1	target	1	600	700	5807	13.328	13.293	13.363
ProbeTrack11	12	ProbeTrack	11.2	SCS215a	20101020.141939	20101020.142213	8	0.013327	60	0	60-180	60	149	NoGap	1	15	2	1	0	distractor	1	574	713	6520	13.328	13.293	13.363
ProbeTrack11	12	ProbeTrack	11.2	SCS215a	20101020.141939	20101020.142220	8	0.013327	60	0	60-180	60	73	NoGap	1	16	2	0	1	target	1	534	733	7253	13.328	13.293	13.362
ProbeTrack11	12	ProbeTrack	11.2	SCS215a	20101020.141939	20101020.142225	8	0.013327	60	0	60-180	60	164	NoGap	1	17	2	3	0	distractor	1	507	747	8000	13.328	13.036	13.619
ProbeTrack11	12	ProbeTrack	11.2	SCS215a	20101020.141939	20101020.142232	8	0.013327	60	0	60-180	60	156	NoGap	1	18	2	45	1	target	1	427	787	8787	13.328	13.293	13.363
ProbeTrack11	12	ProbeTrack	11.2	SCS215a	20101020.141939	20101020.142239	8	0.013327	60	0	60-180	60	134	NoGap	1	19	2	1	0	distractor	1	560	720	9507	13.328	13.293	13.363
ProbeTrack11	12	ProbeTrack	11.2	SCS215a	20101020.141939	20101020.142246	8	0.013327	60	0	60-180	60	76	NoGap	1	20	2	1	1	target	1	480	760	10267	13.328	13.293	13.370
ProbeTrack11	12	ProbeTrack	11.2	SCS215a	20101020.141939	20101020.142251	8	0.013327	60	0	60-180	60	116	NoGap	1	21	2	1	1	target	1	320	840	11107	13.328	13.025	13.631
ProbeTrack11	12	ProbeTrack	11.2	SCS215a	20101020.141939	20101020.142257	8	0.013327	60	0	60-180	60	151	NoGap	1	22	2	0	0	distractor	1	347	827	11934	13.328	13.289	13.363
ProbeTrack11	12	ProbeTrack	11.2	SCS215a	20101020.141939	20101020.142304	8	0.013327	60	0	60-180	60	174	NoGap	1	23	2	45	1	target	1	534	733	12667	13.328	13.293	13.363
ProbeTrack11	12	ProbeTrack	11.2	SCS215a	20101020.141939	20101020.142311	8	0.013327	60	0	60-180	60	155	NoGap	1	24	2	1	0	distractor	1	467	767	13434	13.328	13.293	13.362
ProbeTrack11	12	ProbeTrack	11.2	SCS215a	20101020.141939	20101020.142323	8	0.013327	60	0	60-180	60	178	NoGap	1	25	2	45	0	distractor	1	534	733	14167	13.328	13.290	13.365
ProbeTrack11	12	ProbeTrack	11.2	SCS215a	20101020.141939	20101020.142331	8	0.013327	60	0	60-180	60	138	NoGap	1	26	2	3	0	distractor	1	507	747	14914	13.328	13.162	13.494
ProbeTrack11	12	ProbeTrack	11.2	SCS215a	20101020.141939	20101020.142338	8	0.013327	60	0	60-180	60	99	NoGap	1	27	2	0	0	distractor	1	494	753	15667	13.328	13.293	13.363
ProbeTrack11	12	ProbeTrack	11.2	SCS215a	20101020.141939	20101020.142343	8	0.013327	60	0	60-180	60	80	NoGap	1	28	2	45	0	distractor	1	520	740	16407	13.327	13.141	13.514
ProbeTrack11	12	ProbeTrack	11.2	SCS215a	20101020.141939	20101020.142350	8	0.013327	60	0	60-180	60	107	NoGap	1	29	2	1	1	target	1	587	707	17114	13.328	13.293	13.363
ProbeTrack11	12	ProbeTrack	11.2	SCS215a	20101020.141939	20101020.142356	8	0.013327	60	0	60-180	60	85	NoGap	1	30	2	0	0	distractor	1	374	813	17927	13.328	13.203	13.417
ProbeTrack11	12	ProbeTrack	11.2	SCS215a	20101020.141939	20101020.142401	8	0.013327	60	0	60-180	60	61	NoGap	1	31	2	45	1	distractor	0	467	-1000	16927	13.328	13.293	13.362
ProbeTrack11	12	ProbeTrack	11.2	SCS215a	20101020.141939	20101020.142407	8	0.013327	60	0	60-180	60	171	NoGap	1	32	2	0	1	target	1	440	780	17707	13.328	13.293	13.363
ProbeTrack11	12	ProbeTrack	11.2	SCS215a	20101020.141939	20101020.142414	8	0.013327	60	0	60-180	60	83	NoGap	1	33	2	45	1	target	1	627	687	18394	13.328	13.293	13.363
ProbeTrack11	12	ProbeTrack	11.2	SCS215a	20101020.141939	20101020.142420	8	0.013327	60	0	60-180	60	159	NoGap	1	34	2	3	0	distractor	1	613	694	19088	13.328	13.293	13.363
ProbeTrack11	12	ProbeTrack	11.2	SCS215a	20101020.141939	20101020.142427	8	0.013327	60	0	60-180	60	147	NoGap	1	35	2	3	1	target	1	400	800	19888	13.328	13.289	13.366
ProbeTrack11	12	ProbeTrack	11.2	SCS215a	20101020.141939	20101020.142433	8	0.013327	60	0	60-180	60	129	NoGap	1	36	2	0	0	distractor	1	600	700	20588	13.328	13.293	13.363
ProbeTrack11	12	ProbeTrack	11.2	SCS215a	20101020.141939	20101020.142439	8	0.013327	60	0	60-180	60	102	NoGap	1	37	2	3	0	distractor	1	534	733	21321	13.327	13.293	13.363
ProbeTrack11	12	ProbeTrack	11.2	SCS215a	20101020.141939	20101020.142446	8	0.013327	60	0	60-180	60	140	NoGap	1	38	2	0	1	target	1	534	733	22054	13.328	13.293	13.363
ProbeTrack11	12	ProbeTrack	11.2	SCS215a	20101020.141939	20101020.142452	8	0.013327	60	0	60-180	60	76	NoGap	1	39	2	45	0	distractor	1	680	660	22714	13.328	13.280	13.365
ProbeTrack11	12	ProbeTrack	11.2	SCS215a	20101020.141939	20101020.142459	8	0.013327	60	0	60-180	60	87	NoGap	1	40	2	3	1	distractor	0	507	-1000	21714	13.327	13.293	13.363
ProbeTrack11	12	ProbeTrack	11.2	SCS215a	20101020.142537	20101020.142552	8	0.013328	60	10	60-180	60	107	GapPrac	1	1	2	45	0	distractor	1	1013	494	22208	13.328	13.032	13.624
ProbeTrack11	12	ProbeTrack	11.2	SCS215a	20101020.142537	20101020.142600	8	0.013328	60	0	60-180	60	87	GapPrac	1	2	2	3	0	distractor	1	693	654	22862	13.328	13.309	13.345
ProbeTrack11	12	ProbeTrack	11.2	SCS215a	20101020.142537	20101020.142616	8	0.013328	60	0	60-180	60	70	GapPrac	1	3	2	45	0	distractor	1	653	674	23536	13.328	13.307	13.345
ProbeTrack11	12	ProbeTrack	11.2	SCS215a	20101020.142537	20101020.142622	8	0.013328	60	10	60-180	60	147	GapPrac	1	4	2	1	0	target	0	960	-1000	22536	13.328	12.842	13.828
ProbeTrack11	12	ProbeTrack	11.2	SCS215a	20101020.142537	20101020.142630	8	0.013328	60	10	60-180	60	166	GapPrac	1	5	2	45	1	target	1	640	680	23216	13.328	13.309	13.348
ProbeTrack11	12	ProbeTrack	11.2	SCS215a	20101020.142537	20101020.142638	8	0.013328	60	0	60-180	60	114	GapPrac	1	6	2	1	0	distractor	1	680	660	23876	13.328	13.307	13.348
ProbeTrack11	12	ProbeTrack	11.2	SCS215a	20101020.142537	20101020.142644	8	0.013328	60	0	60-180	60	88	GapPrac	1	7	2	45	0	distractor	1	813	594	24470	13.328	12.926	13.735
ProbeTrack11	12	ProbeTrack	11.2	SCS215a	20101020.142537	20101020.142651	8	0.013328	60	10	60-180	60	152	GapPrac	1	8	2	3	1	target	1	574	713	25183	13.328	13.055	13.615
ProbeTrack11	12	ProbeTrack	11.2	SCS215a	20101020.142537	20101020.142658	8	0.013328	60	10	60-180	60	164	GapPrac	1	9	2	1	1	target	1	1453	274	25457	13.328	13.308	13.347
ProbeTrack11	12	ProbeTrack	11.2	SCS215a	20101020.142537	20101020.142706	8	0.013328	60	0	60-180	60	79	GapPrac	1	10	2	1	1	target	1	613	694	26151	13.328	13.114	13.529
ProbeTrack11	12	ProbeTrack	11.2	SCS215a	20101020.142537	20101020.142712	8	0.013328	60	10	60-180	60	117	GapPrac	1	11	2	45	0	distractor	1	507	747	26898	13.328	13.307	13.348
ProbeTrack11	12	ProbeTrack	11.2	SCS215a	20101020.142537	20101020.142719	8	0.013328	60	0	60-180	60	121	GapPrac	1	12	2	3	1	target	1	480	760	27658	13.328	13.312	13.344
ProbeTrack11	12	ProbeTrack	11.2	SCS215a	20101020.142537	20101020.142725	8	0.013328	60	0	60-180	60	170	GapPrac	1	13	2	0	1	target	1	400	800	28458	13.328	12.869	13.796
ProbeTrack11	12	ProbeTrack	11.2	SCS215a	20101020.142537	20101020.142732	8	0.013328	60	0	60-180	60	176	GapPrac	1	14	2	3	0	distractor	1	614	693	29151	13.328	12.860	13.802
ProbeTrack11	12	ProbeTrack	11.2	SCS215a	20101020.142537	20101020.142739	8	0.013328	60	0	60-180	60	74	GapPrac	1	15	2	45	1	target	1	627	687	29838	13.328	13.136	13.516
ProbeTrack11	12	ProbeTrack	11.2	SCS215a	20101020.142537	20101020.142745	8	0.013328	60	10	60-180	60	128	GapPrac	1	16	2	1	0	distractor	1	440	780	30618	13.328	13.005	13.657
ProbeTrack11	12	ProbeTrack	11.2	SCS215a	20101020.142537	20101020.142751	8	0.013328	60	10	60-180	60	143	GapPrac	1	17	2	0	1	target	1	760	620	31238	13.328	13.100	13.550
ProbeTrack11	12	ProbeTrack	11.2	SCS215a	20101020.142537	20101020.142758	8	0.013328	60	10	60-180	60	170	GapPrac	1	18	2	0	0	distractor	1	880	560	31798	13.328	13.312	13.347
ProbeTrack11	12	ProbeTrack	11.2	SCS215a	20101020.142537	20101020.142808	8	0.013328	60	0	60-180	60	74	GapPrac	1	19	2	0	0	distractor	1	987	507	32305	13.328	13.110	13.547
ProbeTrack11	12	ProbeTrack	11.2	SCS215a	20101020.142537	20101020.142813	8	0.013328	60	10	60-180	60	131	GapPrac	1	20	2	3	0	target	0	587	-1000	31305	13.328	13.310	13.350
ProbeTrack11	12	ProbeTrack	11.2	SCS215a	20101020.142852	20101020.142932	8	0.013328	60	0	60-180	60	73	GapExp	1	1	2	3	0	distractor	1	387	807	32112	13.328	12.991	13.663
ProbeTrack11	12	ProbeTrack	11.2	SCS215a	20101020.142852	20101020.142940	8	0.013328	60	10	60-180	60	79	GapExp	1	2	2	3	0	distractor	1	653	674	32786	13.328	13.308	13.347
ProbeTrack11	12	ProbeTrack	11.2	SCS215a	20101020.142852	20101020.142947	8	0.013328	60	0	60-180	60	107	GapExp	0	3	2	45	0	distractor	1	480	760	33546	13.328	13.055	13.600
ProbeTrack11	12	ProbeTrack	11.2	SCS215a	20101020.142852	20101020.142954	8	0.013328	60	10	60-180	60	70	GapExp	0	4	2	45	0	distractor	1	414	793	34339	13.328	13.286	13.374
ProbeTrack11	12	ProbeTrack	11.2	SCS215a	20101020.142852	20101020.143000	8	0.013328	60	10	60-180	60	167	GapExp	0	5	2	0	1	target	1	534	733	35072	13.328	13.294	13.346
ProbeTrack11	12	ProbeTrack	11.2	SCS215a	20101020.142852	20101020.143007	8	0.013328	60	10	60-180	60	126	GapExp	0	6	2	0	1	target	1	534	733	35805	13.328	13.311	13.346
ProbeTrack11	12	ProbeTrack	11.2	SCS215a	20101020.142852	20101020.143013	8	0.013328	60	10	60-180	60	111	GapExp	0	7	2	3	0	distractor	1	454	773	36578	13.328	13.309	13.358
ProbeTrack11	12	ProbeTrack	11.2	SCS215a	20101020.142852	20101020.143019	8	0.013328	60	10	60-180	60	97	GapExp	0	8	2	45	0	distractor	1	400	800	37378	13.328	12.959	13.686
ProbeTrack11	12	ProbeTrack	11.2	SCS215a	20101020.142852	20101020.143026	8	0.013328	60	10	60-180	60	124	GapExp	0	9	2	0	0	target	0	653	-1000	36378	13.328	12.868	13.781
ProbeTrack11	12	ProbeTrack	11.2	SCS215a	20101020.142852	20101020.143032	8	0.013328	60	0	60-180	60	112	GapExp	0	10	2	45	1	target	1	547	727	37105	13.328	13.278	13.364
ProbeTrack11	12	ProbeTrack	11.2	SCS215a	20101020.142852	20101020.143039	8	0.013328	60	10	60-180	60	107	GapExp	0	11	2	0	1	target	1	507	747	37852	13.328	13.099	13.557
ProbeTrack11	12	ProbeTrack	11.2	SCS215a	20101020.142852	20101020.143045	8	0.013328	60	0	60-180	60	178	GapExp	0	12	2	0	0	distractor	1	494	753	38605	13.328	13.105	13.559
ProbeTrack11	12	ProbeTrack	11.2	SCS215a	20101020.142852	20101020.143052	8	0.013328	60	10	60-180	60	103	GapExp	0	13	2	0	0	distractor	1	507	747	39352	13.328	12.855	13.806
ProbeTrack11	12	ProbeTrack	11.2	SCS215a	20101020.142852	20101020.143058	8	0.013328	60	10	60-180	60	85	GapExp	0	14	2	0	0	distractor	1	520	740	40092	13.328	13.308	13.346
ProbeTrack11	12	ProbeTrack	11.2	SCS215a	20101020.142852	20101020.143104	8	0.013328	60	10	60-180	60	68	GapExp	0	15	2	1	0	distractor	1	520	740	40832	13.328	13.308	13.347
ProbeTrack11	12	ProbeTrack	11.2	SCS215a	20101020.142852	20101020.143109	8	0.013328	60	0	60-180	60	126	GapExp	0	16	2	3	0	distractor	1	614	693	41525	13.328	13.309	13.346
ProbeTrack11	12	ProbeTrack	11.2	SCS215a	20101020.142852	20101020.143116	8	0.013328	60	0	60-180	60	99	GapExp	0	17	2	3	0	distractor	1	667	667	42192	13.328	13.310	13.348
ProbeTrack11	12	ProbeTrack	11.2	SCS215a	20101020.142852	20101020.143122	8	0.013328	60	10	60-180	60	130	GapExp	0	18	2	45	1	distractor	0	640	-1000	41192	13.328	13.110	13.560
ProbeTrack11	12	ProbeTrack	11.2	SCS215a	20101020.142852	20101020.143129	8	0.013328	60	10	60-180	60	81	GapExp	0	19	2	45	0	distractor	1	427	787	41979	13.328	13.311	13.346
ProbeTrack11	12	ProbeTrack	11.2	SCS215a	20101020.142852	20101020.143136	8	0.013328	60	10	60-180	60	161	GapExp	0	20	2	45	0	target	0	480	-1000	40979	13.328	13.306	13.348
ProbeTrack11	12	ProbeTrack	11.2	SCS215a	20101020.142852	20101020.143143	8	0.013328	60	0	60-180	60	66	GapExp	0	21	2	0	1	target	1	707	647	41626	13.328	12.866	13.796
ProbeTrack11	12	ProbeTrack	11.2	SCS215a	20101020.142852	20101020.143149	8	0.013328	60	0	60-180	60	91	GapExp	0	22	2	1	1	target	1	707	647	42273	13.328	13.108	13.538
ProbeTrack11	12	ProbeTrack	11.2	SCS215a	20101020.142852	20101020.143154	8	0.013328	60	10	60-180	60	86	GapExp	0	23	2	1	0	distractor	1	733	634	42907	13.328	13.311	13.349
ProbeTrack11	12	ProbeTrack	11.2	SCS215a	20101020.142852	20101020.143200	8	0.013328	60	10	60-180	60	62	GapExp	0	24	2	1	1	target	1	560	720	43627	13.328	13.307	13.354
ProbeTrack11	12	ProbeTrack	11.2	SCS215a	20101020.142852	20101020.143206	8	0.013328	60	10	60-180	60	80	GapExp	0	25	2	45	1	distractor	0	547	-1000	42627	13.328	12.835	13.823
ProbeTrack11	12	ProbeTrack	11.2	SCS215a	20101020.142852	20101020.143212	8	0.013328	60	10	60-180	60	139	GapExp	0	26	2	1	0	distractor	1	614	693	43320	13.573	12.877	40.013
ProbeTrack11	12	ProbeTrack	11.2	SCS215a	20101020.142852	20101020.143221	8	0.013328	60	0	60-180	60	99	GapExp	0	27	2	3	0	distractor	1	480	760	44080	13.328	13.310	13.348
ProbeTrack11	12	ProbeTrack	11.2	SCS215a	20101020.142852	20101020.143227	8	0.013328	60	10	60-180	60	70	GapExp	0	28	2	1	1	target	1	760	620	44700	13.328	13.065	13.583
ProbeTrack11	12	ProbeTrack	11.2	SCS215a	20101020.142852	20101020.143233	8	0.013328	60	0	60-180	60	154	GapExp	0	29	2	0	0	distractor	1	534	733	45433	13.328	13.034	13.624
ProbeTrack11	12	ProbeTrack	11.2	SCS215a	20101020.142852	20101020.143240	8	0.013328	60	0	60-180	60	71	GapExp	0	30	2	3	0	distractor	1	600	700	46133	13.328	13.095	13.557
ProbeTrack11	12	ProbeTrack	11.2	SCS215a	20101020.142852	20101020.143245	8	0.013328	60	0	60-180	60	152	GapExp	0	31	2	0	1	target	1	667	667	46800	13.328	13.158	13.503
ProbeTrack11	12	ProbeTrack	11.2	SCS215a	20101020.142852	20101020.143251	8	0.013328	60	0	60-180	60	157	GapExp	0	32	2	45	0	distractor	1	440	780	47580	13.328	12.959	13.708
ProbeTrack11	12	ProbeTrack	11.2	SCS215a	20101020.142852	20101020.143259	8	0.013328	60	10	60-180	60	159	GapExp	0	33	2	3	1	target	1	893	554	48134	13.328	13.068	13.587
ProbeTrack11	12	ProbeTrack	11.2	SCS215a	20101020.142852	20101020.143306	8	0.013328	60	10	60-180	60	95	GapExp	0	34	2	1	0	distractor	1	613	694	48828	13.328	12.959	13.710
ProbeTrack11	12	ProbeTrack	11.2	SCS215a	20101020.142852	20101020.143312	8	0.013328	60	10	60-180	60	110	GapExp	0	35	2	3	0	distractor	1	440	780	49608	13.328	13.098	13.557
ProbeTrack11	12	ProbeTrack	11.2	SCS215a	20101020.142852	20101020.143318	8	0.013328	60	0	60-180	60	63	GapExp	0	36	2	45	0	distractor	1	760	620	50228	13.328	13.308	13.348
ProbeTrack11	12	ProbeTrack	11.2	SCS215a	20101020.142852	20101020.143324	8	0.013328	60	0	60-180	60	97	GapExp	0	37	2	3	0	distractor	1	507	747	50975	13.328	13.303	13.348
ProbeTrack11	12	ProbeTrack	11.2	SCS215a	20101020.142852	20101020.143404	8	0.013328	60	10	60-180	60	129	GapExp	0	38	2	1	1	target	1	520	740	51715	13.328	13.040	13.604
ProbeTrack11	12	ProbeTrack	11.2	SCS215a	20101020.142852	20101020.143410	8	0.013328	60	0	60-180	60	108	GapExp	0	39	2	3	0	distractor	1	680	660	52375	13.328	12.871	13.808
ProbeTrack11	12	ProbeTrack	11.2	SCS215a	20101020.142852	20101020.143416	8	0.013328	60	10	60-180	60	152	GapExp	0	40	2	45	0	distractor	1	520	740	53115	13.328	12.882	13.754
ProbeTrack11	12	ProbeTrack	11.2	SCS215a	20101020.142852	20101020.143424	8	0.013328	60	0	60-180	60	145	GapExp	0	41	2	45	0	distractor	1	534	733	53848	13.458	12.868	39.980
ProbeTrack11	12	ProbeTrack	11.2	SCS215a	20101020.142852	20101020.143431	8	0.013328	60	0	60-180	60	175	GapExp	0	42	2	1	1	target	1	587	707	54555	13.732	12.907	53.690
ProbeTrack11	12	ProbeTrack	11.2	SCS215a	20101020.142852	20101020.143438	8	0.013328	60	10	60-180	60	157	GapExp	0	43	2	3	1	target	1	427	787	55342	13.953	12.845	53.757
ProbeTrack11	12	ProbeTrack	11.2	SCS215a	20101020.142852	20101020.143445	8	0.013328	60	10	60-180	60	171	GapExp	0	44	2	45	1	target	1	360	820	56162	13.328	13.103	13.549
ProbeTrack11	12	ProbeTrack	11.2	SCS215a	20101020.142852	20101020.143452	8	0.013328	60	10	60-180	60	78	GapExp	0	45	2	45	0	distractor	1	454	773	56935	13.328	13.101	13.562
ProbeTrack11	12	ProbeTrack	11.2	SCS215a	20101020.142852	20101020.143458	8	0.013328	60	10	60-180	60	92	GapExp	0	46	2	45	1	target	1	360	820	57755	13.328	12.892	13.764
ProbeTrack11	12	ProbeTrack	11.2	SCS215a	20101020.142852	20101020.143505	8	0.013328	60	0	60-180	60	77	GapExp	0	47	2	0	0	distractor	1	693	654	58409	13.328	12.884	13.690
ProbeTrack11	12	ProbeTrack	11.2	SCS215a	20101020.142852	20101020.143511	8	0.013328	60	0	60-180	60	62	GapExp	0	48	2	45	0	distractor	1	587	707	59116	13.328	12.879	13.790
ProbeTrack11	12	ProbeTrack	11.2	SCS215a	20101020.142852	20101020.143518	8	0.013328	60	10	60-180	60	79	GapExp	0	49	2	45	0	target	0	414	-1000	58116	13.328	12.952	13.705
ProbeTrack11	12	ProbeTrack	11.2	SCS215a	20101020.142852	20101020.143538	8	0.013328	60	0	60-180	60	128	GapExp	0	50	2	3	1	target	1	587	707	58823	13.328	13.311	13.345
ProbeTrack11	12	ProbeTrack	11.2	SCS215a	20101020.142852	20101020.143544	8	0.013328	60	10	60-180	60	91	GapExp	0	51	2	1	1	distractor	0	400	-1000	57823	13.328	13.312	13.349
ProbeTrack11	12	ProbeTrack	11.2	SCS215a	20101020.142852	20101020.143550	8	0.013328	60	0	60-180	60	130	GapExp	0	52	2	3	0	distractor	1	680	660	58483	13.328	13.132	13.519
ProbeTrack11	12	ProbeTrack	11.2	SCS215a	20101020.142852	20101020.143556	8	0.013328	60	0	60-180	60	100	GapExp	0	53	2	45	1	target	1	534	733	59216	13.328	13.304	13.348
ProbeTrack11	12	ProbeTrack	11.2	SCS215a	20101020.142852	20101020.143603	8	0.013328	60	10	60-180	60	98	GapExp	0	54	2	0	1	target	1	400	800	60016	13.328	13.308	13.344
ProbeTrack11	12	ProbeTrack	11.2	SCS215a	20101020.142852	20101020.143612	8	0.013328	60	10	60-180	60	175	GapExp	0	55	2	1	1	target	1	374	813	60829	13.328	13.167	13.473
ProbeTrack11	12	ProbeTrack	11.2	SCS215a	20101020.142852	20101020.143619	8	0.013328	60	0	60-180	60	161	GapExp	0	56	2	45	1	target	1	427	787	61616	13.328	13.206	13.443
ProbeTrack11	12	ProbeTrack	11.2	SCS215a	20101020.142852	20101020.143626	8	0.013328	60	10	60-180	60	141	GapExp	0	57	2	3	1	target	1	467	767	62383	13.328	12.974	13.672
ProbeTrack11	12	ProbeTrack	11.2	SCS215a	20101020.142852	20101020.143633	8	0.013328	60	0	60-180	60	139	GapExp	0	58	2	3	1	target	1	560	720	63103	13.328	13.310	13.347
ProbeTrack11	12	ProbeTrack	11.2	SCS215a	20101020.142852	20101020.143639	8	0.013328	60	0	60-180	60	151	GapExp	0	59	2	0	0	distractor	1	734	633	63736	13.328	12.914	13.747
ProbeTrack11	12	ProbeTrack	11.2	SCS215a	20101020.142852	20101020.143646	8	0.013328	60	0	60-180	60	167	GapExp	0	60	2	3	1	target	1	467	767	64503	13.328	13.162	13.440
ProbeTrack11	12	ProbeTrack	11.2	SCS215a	20101020.142852	20101020.143652	8	0.013328	60	0	60-180	60	117	GapExp	0	61	2	45	0	distractor	1	707	647	65150	13.328	13.308	13.346
ProbeTrack11	12	ProbeTrack	11.2	SCS215a	20101020.142852	20101020.143659	8	0.013328	60	10	60-180	60	147	GapExp	0	62	2	1	1	target	1	693	654	65804	13.328	12.919	13.738
ProbeTrack11	12	ProbeTrack	11.2	SCS215a	20101020.142852	20101020.143706	8	0.013328	60	0	60-180	60	180	GapExp	0	63	2	3	1	target	1	480	760	66564	13.328	13.262	13.387
ProbeTrack11	12	ProbeTrack	11.2	SCS215a	20101020.142852	20101020.143713	8	0.013328	60	0	60-180	60	71	GapExp	0	64	2	1	1	target	1	640	680	67244	13.328	13.308	13.348
ProbeTrack11	12	ProbeTrack	11.2	SCS215a	20101020.142852	20101020.143718	8	0.013328	60	10	60-180	60	136	GapExp	0	65	2	0	0	distractor	1	587	707	67951	13.328	13.119	13.536
ProbeTrack11	12	ProbeTrack	11.2	SCS215a	20101020.142852	20101020.143725	8	0.013328	60	10	60-180	60	128	GapExp	0	66	2	45	1	target	1	427	787	68738	13.328	13.110	13.540
ProbeTrack11	12	ProbeTrack	11.2	SCS215a	20101020.142852	20101020.143732	8	0.013328	60	0	60-180	60	153	GapExp	0	67	2	1	1	target	1	560	720	69458	13.328	13.101	13.556
ProbeTrack11	12	ProbeTrack	11.2	SCS215a	20101020.142852	20101020.143738	8	0.013328	60	0	60-180	60	168	GapExp	0	68	2	0	0	distractor	1	773	614	70072	13.328	12.856	13.564
ProbeTrack11	12	ProbeTrack	11.2	SCS215a	20101020.142852	20101020.143745	8	0.013328	60	0	60-180	60	128	GapExp	0	69	2	3	1	target	1	494	753	70825	13.328	13.307	13.347
ProbeTrack11	12	ProbeTrack	11.2	SCS215a	20101020.142852	20101020.143755	8	0.013328	60	0	60-180	60	64	GapExp	0	70	2	1	0	distractor	1	613	694	71519	13.328	13.309	13.344
ProbeTrack11	12	ProbeTrack	11.2	SCS215a	20101020.142852	20101020.143800	8	0.013328	60	10	60-180	60	89	GapExp	0	71	2	45	0	distractor	1	587	707	72226	13.328	12.864	13.792
ProbeTrack11	12	ProbeTrack	11.2	SCS215a	20101020.142852	20101020.143807	8	0.013328	60	10	60-180	60	117	GapExp	0	72	2	1	0	distractor	1	773	614	72840	13.328	13.115	13.551
ProbeTrack11	12	ProbeTrack	11.2	SCS215a	20101020.142852	20101020.143813	8	0.013328	60	10	60-180	60	158	GapExp	0	73	2	3	1	target	1	480	760	73600	13.328	13.107	13.563
ProbeTrack11	12	ProbeTrack	11.2	SCS215a	20101020.142852	20101020.143820	8	0.013328	60	10	60-180	60	177	GapExp	0	74	2	45	1	target	1	440	780	74380	13.328	13.105	13.553
ProbeTrack11	12	ProbeTrack	11.2	SCS215a	20101020.142852	20101020.143828	8	0.013328	60	0	60-180	60	108	GapExp	0	75	2	1	1	target	1	520	740	75120	13.328	13.101	13.561
ProbeTrack11	12	ProbeTrack	11.2	SCS215a	20101020.142852	20101020.143833	8	0.013328	60	10	60-180	60	171	GapExp	0	76	2	1	0	distractor	1	480	760	75880	13.328	12.941	13.709
ProbeTrack11	12	ProbeTrack	11.2	SCS215a	20101020.142852	20101020.143840	8	0.013328	60	10	60-180	60	132	GapExp	0	77	2	1	1	target	1	494	753	76633	13.328	13.116	13.550
ProbeTrack11	12	ProbeTrack	11.2	SCS215a	20101020.142852	20101020.143847	8	0.013328	60	10	60-180	60	61	GapExp	0	78	2	3	1	target	1	494	753	77386	13.328	13.277	13.366
ProbeTrack11	12	ProbeTrack	11.2	SCS215a	20101020.142852	20101020.143853	8	0.013328	60	0	60-180	60	122	GapExp	0	79	2	0	1	target	1	467	767	78153	13.328	13.308	13.346
ProbeTrack11	12	ProbeTrack	11.2	SCS215a	20101020.142852	20101020.143858	8	0.013328	60	10	60-180	60	148	GapExp	0	80	2	1	0	distractor	1	600	700	78853	13.328	13.045	13.609
ProbeTrack11	12	ProbeTrack	11.2	SCS215a	20101020.142852	20101020.143905	8	0.013328	60	10	60-180	60	169	GapExp	0	81	2	45	0	distractor	1	467	767	79620	13.328	12.878	13.785
ProbeTrack11	12	ProbeTrack	11.2	SCS215a	20101020.142852	20101020.143912	8	0.013328	60	0	60-180	60	176	GapExp	0	82	2	0	0	distractor	1	627	687	80307	13.328	13.279	13.372
ProbeTrack11	12	ProbeTrack	11.2	SCS215a	20101020.142852	20101020.143919	8	0.013328	60	10	60-180	60	169	GapExp	0	83	2	3	0	distractor	1	600	700	81007	13.328	13.306	13.346
ProbeTrack11	12	ProbeTrack	11.2	SCS215a	20101020.142852	20101020.143926	8	0.013328	60	0	60-180	60	140	GapExp	0	84	2	0	0	distractor	1	627	687	81694	13.328	13.308	13.345
ProbeTrack11	12	ProbeTrack	11.2	SCS215a	20101020.142852	20101020.143933	8	0.013328	60	0	60-180	60	111	GapExp	0	85	2	3	0	distractor	1	667	667	82361	13.328	13.308	13.349
ProbeTrack11	12	ProbeTrack	11.2	SCS215a	20101020.142852	20101020.143946	8	0.013328	60	0	60-180	60	64	GapExp	0	86	2	0	0	distractor	1	773	614	82975	13.328	13.098	13.551
ProbeTrack11	12	ProbeTrack	11.2	SCS215a	20101020.142852	20101020.143952	8	0.013328	60	0	60-180	60	66	GapExp	0	87	2	3	1	distractor	0	600	-1000	81975	13.328	13.086	13.557
ProbeTrack11	12	ProbeTrack	11.2	SCS215a	20101020.142852	20101020.143957	8	0.013328	60	10	60-180	60	80	GapExp	0	88	2	1	0	distractor	1	840	580	82555	13.328	13.308	13.347
ProbeTrack11	12	ProbeTrack	11.2	SCS215a	20101020.142852	20101020.144003	8	0.013328	60	10	60-180	60	104	GapExp	0	89	2	0	0	distractor	1	653	674	83229	13.328	13.308	13.354
ProbeTrack11	12	ProbeTrack	11.2	SCS215a	20101020.142852	20101020.144009	8	0.013328	60	0	60-180	60	95	GapExp	0	90	2	0	0	distractor	1	680	660	83889	13.328	13.310	13.344
ProbeTrack11	12	ProbeTrack	11.2	SCS215a	20101020.142852	20101020.144015	8	0.013328	60	0	60-180	60	154	GapExp	0	91	2	45	1	target	1	587	707	84596	13.328	13.308	13.350
ProbeTrack11	12	ProbeTrack	11.2	SCS215a	20101020.142852	20101020.144022	8	0.013328	60	10	60-180	60	132	GapExp	0	92	2	45	0	distractor	1	427	787	85383	13.328	13.296	13.353
ProbeTrack11	12	ProbeTrack	11.2	SCS215a	20101020.142852	20101020.144029	8	0.013328	60	10	60-180	60	144	GapExp	0	93	2	1	1	target	1	440	780	86163	13.328	13.252	13.402
ProbeTrack11	12	ProbeTrack	11.2	SCS215a	20101020.142852	20101020.144035	8	0.013328	60	10	60-180	60	85	GapExp	0	94	2	1	1	target	1	494	753	86916	13.328	13.308	13.348
ProbeTrack11	12	ProbeTrack	11.2	SCS215a	20101020.142852	20101020.144044	8	0.013328	60	0	60-180	60	83	GapExp	0	95	2	1	1	target	1	627	687	87603	13.328	13.307	13.347
ProbeTrack11	12	ProbeTrack	11.2	SCS215a	20101020.142852	20101020.144050	8	0.013328	60	10	60-180	60	87	GapExp	0	96	2	3	0	distractor	1	494	753	88356	13.328	13.310	13.346
ProbeTrack11	12	ProbeTrack	11.2	SCS215a	20101020.142852	20101020.144055	8	0.013328	60	0	60-180	60	126	GapExp	0	97	2	0	1	target	1	613	694	89050	13.328	13.086	13.557
ProbeTrack11	12	ProbeTrack	11.2	SCS215a	20101020.142852	20101020.144102	8	0.013328	60	10	60-180	60	93	GapExp	0	98	2	45	1	target	1	374	813	89863	13.328	13.307	13.348
ProbeTrack11	12	ProbeTrack	11.2	SCS215a	20101020.142852	20101020.144108	8	0.013328	60	10	60-180	60	76	GapExp	0	99	2	3	0	distractor	1	640	680	90543	13.328	13.002	13.658
ProbeTrack11	12	ProbeTrack	11.2	SCS215a	20101020.142852	20101020.144114	8	0.013328	60	10	60-180	60	131	GapExp	0	100	2	0	0	distractor	1	600	700	91243	13.429	12.944	40.349
ProbeTrack11	12	ProbeTrack	11.2	SCS215a	20101020.142852	20101020.144121	8	0.013328	60	0	60-180	60	67	GapExp	0	101	2	0	0	distractor	1	614	693	91936	13.328	13.309	13.344
ProbeTrack11	12	ProbeTrack	11.2	SCS215a	20101020.142852	20101020.144147	8	0.013328	60	0	60-180	60	173	GapExp	0	102	2	45	0	distractor	1	574	713	92649	13.328	13.286	13.365
ProbeTrack11	12	ProbeTrack	11.2	SCS215a	20101020.142852	20101020.144155	8	0.013328	60	10	60-180	60	113	GapExp	0	103	2	3	0	distractor	1	600	700	93349	13.328	12.975	13.687
ProbeTrack11	12	ProbeTrack	11.2	SCS215a	20101020.142852	20101020.144203	8	0.013328	60	0	60-180	60	87	GapExp	0	104	2	0	1	target	1	560	720	94069	13.328	13.087	13.563
ProbeTrack11	12	ProbeTrack	11.2	SCS215a	20101020.142852	20101020.144211	8	0.013328	60	10	60-180	60	110	GapExp	0	105	2	3	1	target	1	400	800	94869	13.328	13.309	13.345
ProbeTrack11	12	ProbeTrack	11.2	SCS215a	20101020.142852	20101020.144217	8	0.013328	60	0	60-180	60	103	GapExp	0	106	2	0	0	distractor	1	534	733	95602	13.328	13.300	13.357
ProbeTrack11	12	ProbeTrack	11.2	SCS215a	20101020.142852	20101020.144223	8	0.013328	60	0	60-180	60	78	GapExp	0	107	2	0	0	distractor	1	494	753	96355	13.328	13.307	13.343
ProbeTrack11	12	ProbeTrack	11.2	SCS215a	20101020.142852	20101020.144228	8	0.013328	60	10	60-180	60	103	GapExp	0	108	2	0	1	target	1	707	647	97002	13.328	12.859	13.800
ProbeTrack11	12	ProbeTrack	11.2	SCS215a	20101020.142852	20101020.144234	8	0.013328	60	10	60-180	60	82	GapExp	0	109	2	1	0	distractor	1	587	707	97709	13.328	13.308	13.347
ProbeTrack11	12	ProbeTrack	11.2	SCS215a	20101020.142852	20101020.144243	8	0.013328	60	0	60-180	60	65	GapExp	0	110	2	45	0	distractor	1	667	667	98376	13.328	13.077	13.577
ProbeTrack11	12	ProbeTrack	11.2	SCS215a	20101020.142852	20101020.144249	8	0.013328	60	0	60-180	60	153	GapExp	0	111	2	0	1	target	1	880	560	98936	13.328	13.288	13.375
ProbeTrack11	12	ProbeTrack	11.2	SCS215a	20101020.142852	20101020.144256	8	0.013328	60	10	60-180	60	142	GapExp	0	112	2	0	1	target	1	1013	494	99430	13.328	13.097	13.543
ProbeTrack11	12	ProbeTrack	11.2	SCS215a	20101020.142852	20101020.144308	8	0.013328	60	10	60-180	60	161	GapExp	0	113	2	1	1	distractor	0	693	-1000	98430	13.328	12.847	13.795
ProbeTrack11	12	ProbeTrack	11.2	SCS215a	20101020.142852	20101020.144315	8	0.013328	60	10	60-180	60	116	GapExp	0	114	2	45	0	target	0	413	-1000	97430	13.328	13.113	13.550
ProbeTrack11	12	ProbeTrack	11.2	SCS215a	20101020.142852	20101020.144327	8	0.013328	60	0	60-180	60	116	GapExp	0	115	2	3	1	target	1	574	713	98143	13.328	13.110	13.538
ProbeTrack11	12	ProbeTrack	11.2	SCS215a	20101020.142852	20101020.144333	8	0.013328	60	10	60-180	60	67	GapExp	0	116	2	45	1	target	1	427	787	98930	13.328	13.305	13.346
ProbeTrack11	12	ProbeTrack	11.2	SCS215a	20101020.142852	20101020.144339	8	0.013328	60	0	60-180	60	96	GapExp	0	117	2	3	0	distractor	1	560	720	99650	13.328	13.042	13.607
ProbeTrack11	12	ProbeTrack	11.2	SCS215a	20101020.142852	20101020.144345	8	0.013328	60	10	60-180	60	86	GapExp	0	118	2	0	0	distractor	1	547	727	100377	13.328	13.082	13.578
ProbeTrack11	12	ProbeTrack	11.2	SCS215a	20101020.142852	20101020.144353	8	0.013328	60	0	60-180	60	166	GapExp	0	119	2	0	1	target	1	507	747	101124	13.328	13.090	13.560
ProbeTrack11	12	ProbeTrack	11.2	SCS215a	20101020.142852	20101020.144400	8	0.013328	60	0	60-180	60	103	GapExp	0	120	2	3	0	distractor	1	507	747	101871	13.328	13.309	13.349
ProbeTrack11	12	ProbeTrack	11.2	SCS215a	20101020.142852	20101020.144405	8	0.013328	60	10	60-180	60	156	GapExp	0	121	2	3	1	target	1	574	713	102584	13.328	13.108	13.558
ProbeTrack11	12	ProbeTrack	11.2	SCS215a	20101020.142852	20101020.144412	8	0.013328	60	10	60-180	60	137	GapExp	0	122	2	45	0	target	0	614	-1000	101584	13.328	12.934	13.719
ProbeTrack11	12	ProbeTrack	11.2	SCS215a	20101020.142852	20101020.144419	8	0.013328	60	0	60-180	60	153	GapExp	0	123	2	1	0	distractor	1	480	760	102344	13.328	12.897	13.752
ProbeTrack11	12	ProbeTrack	11.2	SCS215a	20101020.142852	20101020.144425	8	0.013328	60	0	60-180	60	141	GapExp	0	124	2	0	0	distractor	1	574	713	103057	13.328	12.902	13.760
ProbeTrack11	12	ProbeTrack	11.2	SCS215a	20101020.142852	20101020.144432	8	0.013328	60	10	60-180	60	108	GapExp	0	125	2	3	1	target	1	667	667	103724	13.328	13.100	13.557
ProbeTrack11	12	ProbeTrack	11.2	SCS215a	20101020.142852	20101020.144438	8	0.013328	60	0	60-180	60	164	GapExp	0	126	2	1	0	distractor	1	494	753	104477	13.328	13.108	13.548
ProbeTrack11	12	ProbeTrack	11.2	SCS215a	20101020.142852	20101020.144445	8	0.013328	60	10	60-180	60	114	GapExp	0	127	2	0	1	target	1	494	753	105230	13.328	13.081	13.574
ProbeTrack11	12	ProbeTrack	11.2	SCS215a	20101020.142852	20101020.144451	8	0.013328	60	10	60-180	60	80	GapExp	0	128	2	3	1	target	1	547	727	105957	13.328	13.307	13.351
ProbeTrack11	12	ProbeTrack	11.2	SCS215a	20101020.142852	20101020.144456	8	0.013328	60	10	60-180	60	158	GapExp	0	129	2	0	1	target	1	400	800	106757	13.328	13.308	13.347
ProbeTrack11	12	ProbeTrack	11.2	SCS215a	20101020.142852	20101020.144503	8	0.013328	60	0	60-180	60	144	GapExp	0	130	2	1	1	target	1	494	753	107510	13.328	12.874	13.795
ProbeTrack11	12	ProbeTrack	11.2	SCS215a	20101020.142852	20101020.144509	8	0.013328	60	10	60-180	60	152	GapExp	0	131	2	45	1	target	1	334	833	108343	13.328	12.997	13.659
ProbeTrack11	12	ProbeTrack	11.2	SCS215a	20101020.142852	20101020.144516	8	0.013328	60	0	60-180	60	168	GapExp	0	132	2	45	1	target	1	374	813	109156	13.328	13.308	13.347
ProbeTrack11	12	ProbeTrack	11.2	SCS215a	20101020.142852	20101020.144523	8	0.013328	60	0	60-180	60	103	GapExp	0	133	2	45	0	distractor	1	1480	260	109416	13.328	13.137	13.524
ProbeTrack11	12	ProbeTrack	11.2	SCS215a	20101020.142852	20101020.144531	8	0.013328	60	10	60-180	60	173	GapExp	0	134	2	3	1	target	1	520	740	110156	13.328	13.304	13.358
ProbeTrack11	12	ProbeTrack	11.2	SCS215a	20101020.142852	20101020.144538	8	0.013328	60	10	60-180	60	104	GapExp	0	135	2	3	0	distractor	1	1000	500	110656	13.328	12.892	13.751
ProbeTrack11	12	ProbeTrack	11.2	SCS215a	20101020.142852	20101020.144544	8	0.013328	60	0	60-180	60	97	GapExp	0	136	2	45	1	target	1	640	680	111336	13.328	13.124	13.541
ProbeTrack11	12	ProbeTrack	11.2	SCS215a	20101020.142852	20101020.144551	8	0.013328	60	0	60-180	60	65	GapExp	0	137	2	0	0	distractor	1	587	707	112043	13.328	13.309	13.345
ProbeTrack11	12	ProbeTrack	11.2	SCS215a	20101020.142852	20101020.144556	8	0.013328	60	0	60-180	60	150	GapExp	0	138	2	1	0	distractor	1	520	740	112783	13.328	13.108	13.545
ProbeTrack11	12	ProbeTrack	11.2	SCS215a	20101020.142852	20101020.144603	8	0.013328	60	0	60-180	60	93	GapExp	0	139	2	3	0	distractor	1	800	600	113383	13.328	13.311	13.348
ProbeTrack11	12	ProbeTrack	11.2	SCS215a	20101020.142852	20101020.144609	8	0.013328	60	0	60-180	60	176	GapExp	0	140	2	45	1	target	1	627	687	114070	13.328	13.104	13.560
ProbeTrack11	12	ProbeTrack	11.2	SCS215a	20101020.142852	20101020.144619	8	0.013328	60	0	60-180	60	97	GapExp	0	141	2	0	0	distractor	1	600	700	114770	13.328	12.966	13.675
ProbeTrack11	12	ProbeTrack	11.2	SCS215a	20101020.142852	20101020.144627	8	0.013328	60	0	60-180	60	165	GapExp	0	142	2	3	1	distractor	0	733	-1000	113770	13.328	13.308	13.350
ProbeTrack11	12	ProbeTrack	11.2	SCS215a	20101020.142852	20101020.144634	8	0.013328	60	0	60-180	60	119	GapExp	0	143	2	1	1	target	1	587	707	114477	13.328	13.308	13.350
ProbeTrack11	12	ProbeTrack	11.2	SCS215a	20101020.142852	20101020.144639	8	0.013328	60	0	60-180	60	135	GapExp	0	144	2	45	1	target	1	640	680	115157	13.328	13.024	13.633
ProbeTrack11	12	ProbeTrack	11.2	SCS215a	20101020.142852	20101020.144654	8	0.013328	60	0	60-180	60	155	GapExp	0	145	2	3	1	target	1	627	687	115844	13.328	13.308	13.346
ProbeTrack11	12	ProbeTrack	11.2	SCS215a	20101020.142852	20101020.144701	8	0.013328	60	10	60-180	60	126	GapExp	0	146	2	3	0	distractor	1	427	787	116631	13.328	13.304	13.349
ProbeTrack11	12	ProbeTrack	11.2	SCS215a	20101020.142852	20101020.144707	8	0.013328	60	10	60-180	60	110	GapExp	0	147	2	3	0	distractor	1	574	713	117344	13.328	13.098	13.558
ProbeTrack11	12	ProbeTrack	11.2	SCS215a	20101020.142852	20101020.144713	8	0.013328	60	0	60-180	60	109	GapExp	0	148	2	1	1	target	1	640	680	118024	13.328	13.003	13.652
ProbeTrack11	12	ProbeTrack	11.2	SCS215a	20101020.142852	20101020.144719	8	0.013328	60	0	60-180	60	129	GapExp	0	149	2	45	0	distractor	1	587	707	118731	13.328	13.098	13.569
ProbeTrack11	12	ProbeTrack	11.2	SCS215a	20101020.142852	20101020.144726	8	0.013328	60	10	60-180	60	140	GapExp	0	150	2	45	1	target	1	574	713	119444	13.328	13.104	13.540
ProbeTrack11	12	ProbeTrack	11.2	SCS215a	20101020.142852	20101020.144735	8	0.013328	60	0	60-180	60	147	GapExp	0	151	2	45	0	distractor	1	534	733	120177	13.328	13.088	13.555
ProbeTrack11	12	ProbeTrack	11.2	SCS215a	20101020.142852	20101020.144742	8	0.013328	60	0	60-180	60	112	GapExp	0	152	2	0	0	distractor	1	707	647	120824	13.383	12.984	26.928
ProbeTrack11	12	ProbeTrack	11.2	SCS215a	20101020.142852	20101020.144749	8	0.013328	60	10	60-180	60	157	GapExp	0	153	2	3	1	distractor	0	520	-1000	119824	13.328	12.993	13.668
ProbeTrack11	12	ProbeTrack	11.2	SCS215a	20101020.142852	20101020.144755	8	0.013328	60	0	60-180	60	170	GapExp	0	154	2	45	0	distractor	1	467	767	120591	13.328	13.308	13.347
ProbeTrack11	12	ProbeTrack	11.2	SCS215a	20101020.142852	20101020.144822	8	0.013328	60	0	60-180	60	69	GapExp	0	155	2	3	0	distractor	1	547	727	121318	13.328	13.097	13.546
ProbeTrack11	12	ProbeTrack	11.2	SCS215a	20101020.142852	20101020.144828	8	0.013328	60	0	60-180	60	66	GapExp	0	156	2	3	1	target	1	667	667	121985	13.328	13.264	13.384
ProbeTrack11	12	ProbeTrack	11.2	SCS215a	20101020.142852	20101020.144834	8	0.013328	60	0	60-180	60	169	GapExp	0	157	2	1	0	distractor	1	613	694	122679	13.326	12.828	13.820
ProbeTrack11	12	ProbeTrack	11.2	SCS215a	20101020.142852	20101020.144840	8	0.013328	60	0	60-180	60	79	GapExp	0	158	2	0	1	distractor	0	773	-1000	121679	13.328	13.309	13.348
ProbeTrack11	12	ProbeTrack	11.2	SCS215a	20101020.142852	20101020.144846	8	0.013328	60	10	60-180	60	108	GapExp	0	159	2	1	0	distractor	1	614	693	122372	13.328	13.279	13.369
ProbeTrack11	12	ProbeTrack	11.2	SCS215a	20101020.142852	20101020.144852	8	0.013328	60	10	60-180	60	83	GapExp	0	160	2	3	0	distractor	1	547	727	123099	13.328	12.945	13.724
ProbeTrack11	12	ProbeTrack	11.2	SCS215a	20101020.142852	20101020.144858	8	0.013328	60	10	60-180	60	114	GapExp	0	161	2	1	0	distractor	1	507	747	123846	13.328	13.105	13.541
ProbeTrack11	12	ProbeTrack	11.2	SCS215a	20101020.142852	20101020.144904	8	0.013328	60	10	60-180	60	144	GapExp	0	162	2	1	0	distractor	1	614	693	124539	13.328	13.084	13.574
ProbeTrack11	12	ProbeTrack	11.2	SCS215a	20101020.142852	20101020.144911	8	0.013328	60	10	60-180	60	104	GapExp	0	163	2	3	1	target	1	547	727	125266	13.328	13.103	13.539
ProbeTrack11	12	ProbeTrack	11.2	SCS215a	20101020.142852	20101020.144917	8	0.013328	60	10	60-180	60	139	GapExp	0	164	2	45	1	target	1	400	800	126066	13.328	13.311	13.344
ProbeTrack11	12	ProbeTrack	11.2	SCS215a	20101020.142852	20101020.144923	8	0.013328	60	10	60-180	60	179	GapExp	0	165	2	3	1	target	1	560	720	126786	13.328	13.266	13.380
ProbeTrack11	12	ProbeTrack	11.2	SCS215a	20101020.142852	20101020.144931	8	0.013328	60	10	60-180	60	88	GapExp	0	166	2	0	1	target	1	560	720	127506	13.328	13.043	13.609
ProbeTrack11	12	ProbeTrack	11.2	SCS215a	20101020.142852	20101020.144936	8	0.013328	60	0	60-180	60	106	GapExp	0	167	2	0	1	target	1	667	667	128173	13.328	13.303	13.348
ProbeTrack11	12	ProbeTrack	11.2	SCS215a	20101020.142852	20101020.144942	8	0.013328	60	0	60-180	60	135	GapExp	0	168	2	1	0	distractor	1	693	654	128827	13.329	13.309	13.666
ProbeTrack11	12	ProbeTrack	11.2	SCS215a	20101020.142852	20101020.144948	8	0.013328	60	0	60-180	60	140	GapExp	0	169	2	45	1	target	1	507	747	129574	13.328	13.067	13.593
ProbeTrack11	12	ProbeTrack	11.2	SCS215a	20101020.142852	20101020.144959	8	0.013328	60	10	60-180	60	114	GapExp	0	170	2	1	1	target	1	507	747	130321	13.383	12.854	26.641
ProbeTrack11	12	ProbeTrack	11.2	SCS215a	20101020.142852	20101020.145005	8	0.013328	60	0	60-180	60	167	GapExp	0	171	2	1	1	target	1	480	760	131081	13.328	12.937	13.730
ProbeTrack11	12	ProbeTrack	11.2	SCS215a	20101020.142852	20101020.145012	8	0.013328	60	0	60-180	60	110	GapExp	0	172	2	3	1	target	1	547	727	131808	13.328	12.871	13.801
ProbeTrack11	12	ProbeTrack	11.2	SCS215a	20101020.142852	20101020.145017	8	0.013328	60	0	60-180	60	124	GapExp	0	173	2	1	1	target	1	547	727	132535	13.328	12.941	13.706
ProbeTrack11	12	ProbeTrack	11.2	SCS215a	20101020.142852	20101020.145023	8	0.013328	60	0	60-180	60	94	GapExp	0	174	2	1	1	target	1	427	787	133322	13.328	12.860	13.804
ProbeTrack11	12	ProbeTrack	11.2	SCS215a	20101020.142852	20101020.145029	8	0.013328	60	0	60-180	60	104	GapExp	0	175	2	45	1	target	1	414	793	134115	13.328	12.853	13.799
ProbeTrack11	12	ProbeTrack	11.2	SCS215a	20101020.142852	20101020.145035	8	0.013328	60	10	60-180	60	146	GapExp	0	176	2	0	0	distractor	1	414	793	134908	13.327	13.098	13.345
ProbeTrack11	12	ProbeTrack	11.2	SCS215a	20101020.142852	20101020.145058	8	0.013328	60	10	60-180	60	120	GapExp	0	177	2	0	1	distractor	0	454	-1000	133908	13.328	13.097	13.558
ProbeTrack11	12	ProbeTrack	11.2	SCS215a	20101020.142852	20101020.145104	8	0.013328	60	0	60-180	60	103	GapExp	0	178	2	3	1	target	1	720	640	134548	13.328	13.042	13.616
ProbeTrack11	12	ProbeTrack	11.2	SCS215a	20101020.142852	20101020.145110	8	0.013328	60	10	60-180	60	100	GapExp	0	179	2	45	0	distractor	1	507	747	135295	13.328	13.105	13.539
ProbeTrack11	12	ProbeTrack	11.2	SCS215a	20101020.142852	20101020.145116	8	0.013328	60	0	60-180	60	92	GapExp	0	180	2	3	1	target	1	547	727	136022	13.328	12.943	13.705
ProbeTrack11	12	ProbeTrack	11.2	SCS215a	20101020.142852	20101020.145122	8	0.013328	60	10	60-180	60	177	GapExp	0	181	2	3	1	distractor	0	667	-1000	135022	13.328	13.268	13.389
ProbeTrack11	12	ProbeTrack	11.2	SCS215a	20101020.142852	20101020.145129	8	0.013328	60	10	60-180	60	75	GapExp	0	182	2	0	0	distractor	1	800	600	135622	13.328	12.840	13.808
ProbeTrack11	12	ProbeTrack	11.2	SCS215a	20101020.142852	20101020.145134	8	0.013328	60	0	60-180	60	119	GapExp	0	183	2	1	0	distractor	1	787	607	136229	13.328	12.993	13.657
ProbeTrack11	12	ProbeTrack	11.2	SCS215a	20101020.142852	20101020.145141	8	0.013328	60	10	60-180	60	122	GapExp	0	184	2	45	1	target	1	360	820	137049	13.328	13.308	13.345
ProbeTrack11	12	ProbeTrack	11.2	SCS215a	20101020.142852	20101020.145147	8	0.013328	60	0	60-180	60	77	GapExp	0	185	2	0	0	distractor	1	720	640	137689	13.328	12.913	13.760
ProbeTrack11	12	ProbeTrack	11.2	SCS215a	20101020.142852	20101020.145153	8	0.013328	60	0	60-180	60	153	GapExp	0	186	2	0	0	distractor	1	600	700	138389	13.328	13.094	13.566
ProbeTrack11	12	ProbeTrack	11.2	SCS215a	20101020.142852	20101020.145159	8	0.013328	60	0	60-180	60	89	GapExp	0	187	2	1	0	distractor	1	986	507	138896	13.328	12.956	13.705
ProbeTrack11	12	ProbeTrack	11.2	SCS215a	20101020.142852	20101020.145205	8	0.013328	60	10	60-180	60	101	GapExp	0	188	2	45	0	distractor	1	454	773	139669	13.328	13.283	13.375
ProbeTrack11	12	ProbeTrack	11.2	SCS215a	20101020.142852	20101020.145250	8	0.013328	60	0	60-180	60	93	GapExp	0	189	2	1	0	distractor	1	547	727	140396	13.328	13.099	13.544
ProbeTrack11	12	ProbeTrack	11.2	SCS215a	20101020.142852	20101020.145256	8	0.013328	60	10	60-180	60	166	GapExp	0	190	2	0	1	target	1	480	760	141156	13.328	13.108	13.541
ProbeTrack11	12	ProbeTrack	11.2	SCS215a	20101020.142852	20101020.145302	8	0.013328	60	10	60-180	60	90	GapExp	0	191	2	1	0	distractor	1	653	674	141830	13.328	13.089	13.551
ProbeTrack11	12	ProbeTrack	11.2	SCS215a	20101020.142852	20101020.145308	8	0.013328	60	10	60-180	60	164	GapExp	0	192	2	3	0	distractor	1	653	674	142504	13.328	13.110	13.545
ProbeTrack11	12	ProbeTrack	11.2	SCS215a	20101020.142852	20101020.145315	8	0.013328	60	0	60-180	60	177	GapExp	0	193	2	45	1	target	1	613	694	143198	13.328	12.853	13.802
ProbeTrack11	12	ProbeTrack	11.2	SCS215a	20101020.142852	20101020.145322	8	0.013328	60	10	60-180	60	166	GapExp	0	194	2	0	0	distractor	1	587	707	143905	13.328	13.038	13.631
ProbeTrack11	12	ProbeTrack	11.2	SCS215a	20101020.142852	20101020.145329	8	0.013328	60	10	60-180	60	78	GapExp	0	195	2	0	1	target	1	494	753	144658	13.328	13.008	13.653
ProbeTrack11	12	ProbeTrack	11.2	SCS215a	20101020.142852	20101020.145335	8	0.013328	60	0	60-180	60	165	GapExp	0	196	2	0	1	target	1	507	747	145405	13.328	13.308	13.346
ProbeTrack11	12	ProbeTrack	11.2	SCS215a	20101020.142852	20101020.145341	8	0.013328	60	0	60-180	60	125	GapExp	0	197	2	1	1	target	1	667	667	146072	13.328	13.309	13.346
ProbeTrack11	12	ProbeTrack	11.2	SCS215a	20101020.142852	20101020.145347	8	0.013328	60	10	60-180	60	70	GapExp	0	198	2	0	1	target	1	667	667	146739	13.328	13.098	13.387
ProbeTrack11	12	ProbeTrack	11.2	SCS215a	20101020.142852	20101020.145353	8	0.013328	60	10	60-180	60	171	GapExp	0	199	2	0	0	distractor	1	600	700	147439	13.328	13.229	13.420
ProbeTrack11	12	ProbeTrack	11.2	SCS215a	20101020.142852	20101020.145400	8	0.013328	60	0	60-180	60	131	GapExp	0	200	2	45	1	target	1	534	733	148172	13.328	13.308	13.345
ProbeTrack11	12	ProbeTrack	11.2	SCS215a	20101020.142852	20101020.145407	8	0.013328	60	0	60-180	60	122	GapExp	0	201	2	45	1	target	1	573	714	148886	13.328	13.093	13.558
ProbeTrack11	12	ProbeTrack	11.2	SCS215a	20101020.142852	20101020.145446	8	0.013328	60	10	60-180	60	158	GapExp	0	202	2	1	1	target	1	494	753	149639	13.328	13.068	13.552
ProbeTrack11	12	ProbeTrack	11.2	SCS215a	20101020.142852	20101020.145453	8	0.013328	60	0	60-180	60	105	GapExp	0	203	2	0	1	target	1	440	780	150419	13.328	13.213	13.443
ProbeTrack11	12	ProbeTrack	11.2	SCS215a	20101020.142852	20101020.145459	8	0.013328	60	10	60-180	60	79	GapExp	0	204	2	45	1	target	1	347	827	151246	13.328	13.305	13.351
ProbeTrack11	12	ProbeTrack	11.2	SCS215a	20101020.142852	20101020.145504	8	0.013328	60	10	60-180	60	136	GapExp	0	205	2	45	0	target	0	427	-1000	150246	13.328	12.901	13.749
ProbeTrack11	12	ProbeTrack	11.2	SCS215a	20101020.142852	20101020.145511	8	0.013328	60	10	60-180	60	179	GapExp	0	206	2	1	1	target	1	520	740	150986	13.328	13.309	13.345
ProbeTrack11	12	ProbeTrack	11.2	SCS215a	20101020.142852	20101020.145518	8	0.013328	60	10	60-180	60	80	GapExp	0	207	2	3	1	target	1	507	747	151733	13.328	12.920	13.737
ProbeTrack11	12	ProbeTrack	11.2	SCS215a	20101020.142852	20101020.145523	8	0.013328	60	0	60-180	60	134	GapExp	0	208	2	1	1	target	1	587	707	152440	13.328	13.043	13.604
ProbeTrack11	12	ProbeTrack	11.2	SCS215a	20101020.142852	20101020.145529	8	0.013328	60	0	60-180	60	143	GapExp	0	209	2	1	0	distractor	1	773	614	153054	13.328	13.308	13.349
ProbeTrack11	12	ProbeTrack	11.2	SCS215a	20101020.142852	20101020.145536	8	0.013328	60	10	60-180	60	149	GapExp	0	210	2	45	0	distractor	1	560	720	153774	13.328	12.864	13.791
ProbeTrack11	12	ProbeTrack	11.2	SCS215a	20101020.142852	20101020.145544	8	0.013328	60	10	60-180	60	148	GapExp	0	211	2	45	1	target	1	494	753	154527	13.328	12.955	13.700
ProbeTrack11	12	ProbeTrack	11.2	SCS215a	20101020.142852	20101020.145551	8	0.013328	60	10	60-180	60	169	GapExp	0	212	2	1	0	distractor	1	574	713	155240	13.328	13.104	13.550
ProbeTrack11	12	ProbeTrack	11.2	SCS215a	20101020.142852	20101020.145557	8	0.013328	60	0	60-180	60	159	GapExp	0	213	2	45	0	distractor	1	640	680	155920	13.328	13.091	13.567
ProbeTrack11	12	ProbeTrack	11.2	SCS215a	20101020.142852	20101020.145604	8	0.013328	60	0	60-180	60	180	GapExp	0	214	2	1	0	distractor	1	547	727	156647	13.328	13.292	13.357
ProbeTrack11	12	ProbeTrack	11.2	SCS215a	20101020.142852	20101020.145612	8	0.013328	60	10	60-180	60	163	GapExp	0	215	2	0	0	distractor	1	414	793	157440	13.328	12.839	13.802
ProbeTrack11	12	ProbeTrack	11.2	SCS215a	20101020.142852	20101020.145712	8	0.013328	60	0	60-180	60	83	GapExp	0	216	2	1	0	distractor	1	613	694	158134	13.328	13.309	13.352
ProbeTrack11	12	ProbeTrack	11.2	SCS215a	20101020.142852	20101020.145718	8	0.013328	60	10	60-180	60	65	GapExp	0	217	2	0	0	distractor	1	440	780	158914	13.328	13.093	13.562
ProbeTrack11	12	ProbeTrack	11.2	SCS215a	20101020.142852	20101020.145723	8	0.013328	60	10	60-180	60	106	GapExp	0	218	2	3	0	distractor	1	414	793	159707	13.328	12.884	13.773
ProbeTrack11	12	ProbeTrack	11.2	SCS215a	20101020.142852	20101020.145729	8	0.013328	60	10	60-180	60	65	GapExp	0	219	2	1	0	distractor	1	440	780	160487	13.328	13.104	13.558
ProbeTrack11	12	ProbeTrack	11.2	SCS215a	20101020.142852	20101020.145734	8	0.013328	60	0	60-180	60	168	GapExp	0	220	2	0	1	target	1	507	747	161234	13.328	13.012	13.646
ProbeTrack11	12	ProbeTrack	11.2	SCS215a	20101020.142852	20101020.145740	8	0.013328	60	10	60-180	60	94	GapExp	0	221	2	45	0	distractor	1	414	793	162027	13.328	12.881	13.760
ProbeTrack11	12	ProbeTrack	11.2	SCS215a	20101020.142852	20101020.145747	8	0.013328	60	10	60-180	60	159	GapExp	0	222	2	1	0	distractor	1	494	753	162780	13.328	13.010	13.666
ProbeTrack11	12	ProbeTrack	11.2	SCS215a	20101020.142852	20101020.145753	8	0.013328	60	10	60-180	60	112	GapExp	0	223	2	0	1	target	1	547	727	163507	13.328	13.310	13.349
ProbeTrack11	12	ProbeTrack	11.2	SCS215a	20101020.142852	20101020.145759	8	0.013328	60	10	60-180	60	152	GapExp	0	224	2	0	1	target	1	573	714	164221	13.328	13.295	13.369
ProbeTrack11	12	ProbeTrack	11.2	SCS215a	20101020.142852	20101020.145806	8	0.013328	60	10	60-180	60	160	GapExp	0	225	2	1	1	target	1	600	700	164921	13.328	13.270	13.394
ProbeTrack11	12	ProbeTrack	11.2	SCS215a	20101020.142852	20101020.145911	8	0.013328	60	0	60-180	60	87	GapExp	0	226	2	1	0	distractor	1	693	654	165575	13.328	13.147	13.505
ProbeTrack11	12	ProbeTrack	11.2	SCS215a	20101020.142852	20101020.145916	8	0.013328	60	10	60-180	60	113	GapExp	0	227	2	3	1	target	1	467	767	166342	13.328	13.296	13.352
ProbeTrack11	12	ProbeTrack	11.2	SCS215a	20101020.142852	20101020.145922	8	0.013328	60	0	60-180	60	159	GapExp	0	228	2	45	0	distractor	1	480	760	167102	13.328	12.970	13.683
ProbeTrack11	12	ProbeTrack	11.2	SCS215a	20101020.142852	20101020.145929	8	0.013328	60	10	60-180	60	178	GapExp	0	229	2	3	0	distractor	1	667	667	167769	13.328	12.848	13.802
ProbeTrack11	12	ProbeTrack	11.2	SCS215a	20101020.142852	20101020.145936	8	0.013328	60	10	60-180	60	72	GapExp	0	230	2	45	0	distractor	1	693	654	168423	13.328	13.040	13.619
ProbeTrack11	12	ProbeTrack	11.2	SCS215a	20101020.142852	20101020.145942	8	0.013328	60	10	60-180	60	72	GapExp	0	231	2	45	0	distractor	1	560	720	169143	13.328	12.991	13.652
ProbeTrack11	12	ProbeTrack	11.2	SCS215a	20101020.142852	20101020.145949	8	0.013328	60	0	60-180	60	142	GapExp	0	232	2	0	1	target	1	853	574	169717	13.328	13.112	13.556
ProbeTrack11	12	ProbeTrack	11.2	SCS215a	20101020.142852	20101020.145956	8	0.013328	60	10	60-180	60	126	GapExp	0	233	2	0	1	target	1	494	753	170470	13.328	13.309	13.347
ProbeTrack11	12	ProbeTrack	11.2	SCS215a	20101020.142852	20101020.150002	8	0.013328	60	0	60-180	60	66	GapExp	0	234	2	3	0	distractor	1	1880	60	170530	13.328	13.106	13.557
ProbeTrack11	12	ProbeTrack	11.2	SCS215a	20101020.142852	20101020.150009	8	0.013328	60	10	60-180	60	96	GapExp	0	235	2	3	0	distractor	1	654	673	171203	13.328	12.962	13.682
ProbeTrack11	12	ProbeTrack	11.2	SCS215a	20101020.142852	20101020.150015	8	0.013328	60	10	60-180	60	129	GapExp	0	236	2	1	0	distractor	1	960	520	171723	13.328	13.103	13.555
ProbeTrack11	12	ProbeTrack	11.2	SCS215a	20101020.142852	20101020.150022	8	0.013328	60	10	60-180	60	171	GapExp	0	237	2	1	1	target	1	467	767	172490	13.328	12.938	13.731
ProbeTrack11	12	ProbeTrack	11.2	SCS215a	20101020.142852	20101020.150029	8	0.013328	60	10	60-180	60	76	GapExp	0	238	2	45	1	target	1	560	720	173210	13.328	13.306	13.344
ProbeTrack11	12	ProbeTrack	11.2	SCS215a	20101020.142852	20101020.150036	8	0.013328	60	0	60-180	60	77	GapExp	0	239	2	1	0	distractor	1	667	667	173877	13.325	12.872	13.345
ProbeTrack11	12	ProbeTrack	11.2	SCS215a	20101020.142852	20101020.150042	8	0.013328	60	10	60-180	60	83	GapExp	0	240	2	3	1	target	1	507	747	174624	13.328	12.891	13.750
ProbeTrack11	12	ProbeTrack	11.2	SCS215a	20101020.142852	20101020.150048	8	0.013328	60	10	60-180	60	169	GapExp	0	241	2	1	0	distractor	1	760	620	175244	13.328	12.876	13.771
ProbeTrack11	12	ProbeTrack	11.2	SCS215a	20101020.142852	20101020.150055	8	0.013328	60	0	60-180	60	142	GapExp	0	242	2	1	0	distractor	1	573	714	175958	13.328	13.106	13.537
ProbeTrack11	12	ProbeTrack	11.2	SCS215a	20101020.142852	20101020.150107	8	0.013328	60	0	60-180	60	99	GapExp	0	243	2	45	0	target	0	1493	-1000	174958	13.328	12.973	13.693
ProbeTrack11	12	ProbeTrack	11.2	SCS215a	20101020.142852	20101020.150114	8	0.013328	60	10	60-180	60	72	GapExp	0	244	2	3	0	distractor	1	747	627	175585	13.328	13.303	13.346
ProbeTrack11	12	ProbeTrack	11.2	SCS215a	20101020.142852	20101020.150121	8	0.013328	60	0	60-180	60	149	GapExp	0	245	2	1	0	distractor	1	680	660	176245	13.328	13.104	13.545
ProbeTrack11	12	ProbeTrack	11.2	SCS215a	20101020.142852	20101020.150127	8	0.013328	60	0	60-180	60	127	GapExp	0	246	2	0	1	target	1	440	780	177025	13.328	13.103	13.561
ProbeTrack11	12	ProbeTrack	11.2	SCS215a	20101020.142852	20101020.150133	8	0.013328	60	10	60-180	60	78	GapExp	0	247	2	3	0	distractor	1	360	820	177845	13.328	12.958	13.714
ProbeTrack11	12	ProbeTrack	11.2	SCS215a	20101020.142852	20101020.150139	8	0.013328	60	10	60-180	60	111	GapExp	0	248	2	0	0	distractor	1	360	820	178665	13.328	12.882	13.770
ProbeTrack11	12	ProbeTrack	11.2	SCS215a	20101020.142852	20101020.150145	8	0.013328	60	10	60-180	60	138	GapExp	0	249	2	0	1	distractor	0	680	-1000	177665	13.328	12.876	13.772
ProbeTrack11	12	ProbeTrack	11.2	SCS215a	20101020.142852	20101020.150151	8	0.013328	60	0	60-180	60	66	GapExp	0	250	2	45	0	distractor	1	573	714	178379	13.443	12.858	26.582
ProbeTrack11	12	ProbeTrack	11.2	SCS215a	20101020.142852	20101020.150157	8	0.013328	60	0	60-180	60	97	GapExp	0	251	2	45	1	target	1	534	733	179112	13.328	13.310	13.344
ProbeTrack11	12	ProbeTrack	11.2	SCS215a	20101020.142852	20101020.150245	8	0.013328	60	10	60-180	60	110	GapExp	0	252	2	0	0	distractor	1	414	793	179905	13.328	13.309	13.346
ProbeTrack11	12	ProbeTrack	11.2	SCS215a	20101020.142852	20101020.150251	8	0.013328	60	10	60-180	60	172	GapExp	0	253	2	1	1	target	1	440	780	180685	13.328	13.059	13.587
ProbeTrack11	12	ProbeTrack	11.2	SCS215a	20101020.142852	20101020.150258	8	0.013328	60	0	60-180	60	152	GapExp	0	254	2	3	0	distractor	1	560	720	181405	13.328	13.113	13.541
ProbeTrack11	12	ProbeTrack	11.2	SCS215a	20101020.142852	20101020.150304	8	0.013328	60	0	60-180	60	92	GapExp	0	255	2	0	1	target	1	520	740	182145	13.328	13.108	13.559
ProbeTrack11	12	ProbeTrack	11.2	SCS215a	20101020.142852	20101020.150310	8	0.013328	60	0	60-180	60	100	GapExp	0	256	2	0	1	target	1	440	780	182925	13.328	12.880	13.779
ProbeTrack11	12	ProbeTrack	11.2	SCS215a	20101020.142852	20101020.150315	8	0.013328	60	0	60-180	60	93	GapExp	0	257	2	1	0	target	0	640	-1000	181925	13.328	13.307	13.345
ProbeTrack11	12	ProbeTrack	11.2	SCS215a	20101020.142852	20101020.150321	8	0.013328	60	10	60-180	60	102	GapExp	0	258	2	0	0	distractor	1	467	767	182692	13.328	13.308	13.348
ProbeTrack11	12	ProbeTrack	11.2	SCS215a	20101020.142852	20101020.150327	8	0.013328	60	0	60-180	60	177	GapExp	0	259	2	3	1	distractor	0	454	-1000	181692	13.328	13.102	13.538
ProbeTrack11	12	ProbeTrack	11.2	SCS215a	20101020.142852	20101020.150334	8	0.013328	60	10	60-180	60	110	GapExp	0	260	2	45	1	distractor	0	600	-1000	180692	13.328	13.104	13.547
ProbeTrack11	12	ProbeTrack	11.2	SCS215a	20101020.142852	20101020.150341	8	0.013328	60	0	60-180	60	63	GapExp	0	261	2	45	0	distractor	1	973	514	181206	13.328	13.007	13.637
ProbeTrack11	12	ProbeTrack	11.2	SCS215a	20101020.142852	20101020.150347	8	0.013328	60	10	60-180	60	88	GapExp	0	262	2	3	1	target	1	547	727	181933	13.328	13.105	13.545
ProbeTrack11	12	ProbeTrack	11.2	SCS215a	20101020.142852	20101020.150353	8	0.013328	60	10	60-180	60	132	GapExp	0	263	2	0	1	target	1	387	807	182740	13.328	12.890	13.777
ProbeTrack11	12	ProbeTrack	11.2	SCS215a	20101020.142852	20101020.150359	8	0.013328	60	0	60-180	60	108	GapExp	0	264	2	45	1	target	1	640	680	183420	13.328	13.309	13.348
ProbeTrack11	12	ProbeTrack	11.2	SCS215a	20101020.142852	20101020.150405	8	0.013328	60	10	60-180	60	78	GapExp	0	265	2	0	0	target	0	640	-1000	182420	13.328	13.031	13.609
ProbeTrack11	12	ProbeTrack	11.2	SCS215a	20101020.142852	20101020.150411	8	0.013328	60	10	60-180	60	155	GapExp	0	266	2	45	1	target	1	587	707	183127	13.328	13.119	13.532
ProbeTrack11	12	ProbeTrack	11.2	SCS215a	20101020.142852	20101020.150418	8	0.013328	60	10	60-180	60	135	GapExp	0	267	2	0	0	distractor	1	600	700	183827	13.328	13.146	13.510
ProbeTrack11	12	ProbeTrack	11.2	SCS215a	20101020.142852	20101020.150425	8	0.013328	60	10	60-180	60	123	GapExp	0	268	2	3	0	distractor	1	640	680	184507	13.328	13.298	13.359
ProbeTrack11	12	ProbeTrack	11.2	SCS215a	20101020.142852	20101020.150431	8	0.013328	60	0	60-180	60	180	GapExp	0	269	2	1	1	target	1	907	547	185054	13.328	13.308	13.347
ProbeTrack11	12	ProbeTrack	11.2	SCS215a	20101020.142852	20101020.150439	8	0.013328	60	0	60-180	60	94	GapExp	0	270	2	0	1	target	1	534	733	185787	13.328	13.301	13.348
ProbeTrack11	12	ProbeTrack	11.2	SCS215a	20101020.142852	20101020.150444	8	0.013328	60	0	60-180	60	87	GapExp	0	271	2	0	1	target	1	547	727	186514	13.328	13.093	13.551
ProbeTrack11	12	ProbeTrack	11.2	SCS215a	20101020.142852	20101020.150450	8	0.013328	60	10	60-180	60	92	GapExp	0	272	2	45	1	target	1	507	747	187261	13.328	13.103	13.567
ProbeTrack11	12	ProbeTrack	11.2	SCS215a	20101020.142852	20101020.150456	8	0.013328	60	0	60-180	60	173	GapExp	0	273	2	0	1	target	1	414	793	188054	13.328	13.045	13.610
ProbeTrack11	12	ProbeTrack	11.2	SCS215a	20101020.142852	20101020.150503	8	0.013328	60	0	60-180	60	111	GapExp	0	274	2	1	1	target	1	494	753	188807	13.328	13.203	13.435
ProbeTrack11	12	ProbeTrack	11.2	SCS215a	20101020.142852	20101020.150508	8	0.013328	60	10	60-180	60	69	GapExp	0	275	2	1	0	distractor	1	560	720	189527	13.328	13.294	13.356
ProbeTrack11	12	ProbeTrack	11.2	SCS215a	20101020.142852	20101020.150514	8	0.013328	60	0	60-180	60	166	GapExp	0	276	2	3	1	target	1	600	700	190227	13.328	12.923	13.741
ProbeTrack11	12	ProbeTrack	11.2	SCS215a	20101020.142852	20101020.150521	8	0.013328	60	0	60-180	60	71	GapExp	0	277	2	45	1	target	1	400	800	191027	13.327	13.117	13.540
ProbeTrack11	12	ProbeTrack	11.2	SCS215a	20101020.142852	20101020.150614	8	0.013328	60	10	60-180	60	172	GapExp	0	278	2	3	1	target	1	360	820	191847	13.328	13.022	13.634
ProbeTrack11	12	ProbeTrack	11.2	SCS215a	20101020.142852	20101020.150621	8	0.013328	60	0	60-180	60	83	GapExp	0	279	2	1	1	target	1	440	780	192627	13.328	13.086	13.563
ProbeTrack11	12	ProbeTrack	11.2	SCS215a	20101020.142852	20101020.150626	8	0.013328	60	0	60-180	60	172	GapExp	0	280	2	3	0	distractor	1	600	700	193327	13.328	13.031	13.628
ProbeTrack11	12	ProbeTrack	11.2	SCS215a	20101020.142852	20101020.150633	8	0.013328	60	0	60-180	60	143	GapExp	0	281	2	45	0	distractor	1	574	713	194040	13.328	13.307	13.349
ProbeTrack11	12	ProbeTrack	11.2	SCS215a	20101020.142852	20101020.150640	8	0.013328	60	10	60-180	60	101	GapExp	0	282	2	1	0	distractor	1	547	727	194767	13.328	12.890	13.776
ProbeTrack11	12	ProbeTrack	11.2	SCS215a	20101020.142852	20101020.150646	8	0.013328	60	0	60-180	60	79	GapExp	0	283	2	0	1	target	1	507	747	195514	13.328	13.078	13.580
ProbeTrack11	12	ProbeTrack	11.2	SCS215a	20101020.142852	20101020.150654	8	0.013328	60	10	60-180	60	113	GapExp	0	284	2	1	0	distractor	1	494	753	196267	13.328	12.927	13.713
ProbeTrack11	12	ProbeTrack	11.2	SCS215a	20101020.142852	20101020.150700	8	0.013328	60	10	60-180	60	125	GapExp	0	285	2	1	0	distractor	1	747	627	196894	13.328	12.830	13.822
ProbeTrack11	12	ProbeTrack	11.2	SCS215a	20101020.142852	20101020.150706	8	0.013328	60	0	60-180	60	168	GapExp	0	286	2	0	1	target	1	840	580	197474	13.328	13.063	13.591
ProbeTrack11	12	ProbeTrack	11.2	SCS215a	20101020.142852	20101020.150713	8	0.013328	60	0	60-180	60	142	GapExp	0	287	2	0	0	distractor	1	454	773	198247	13.328	13.091	13.560
ProbeTrack11	12	ProbeTrack	11.2	SCS215a	20101020.142852	20101020.150745	8	0.013328	60	0	60-180	60	74	GapExp	0	288	2	0	0	distractor	1	627	687	198934	13.328	13.298	13.351
ProbeTrack11	12	ProbeTrack	11.2	SCS215a	20101020.142852	20101020.150750	8	0.013328	60	0	60-180	60	145	GapExp	0	289	2	1	0	distractor	1	494	753	199687	13.328	13.222	13.439
ProbeTrack11	12	ProbeTrack	11.2	SCS215a	20101020.142852	20101020.150756	8	0.013328	60	10	60-180	60	180	GapExp	0	290	2	0	1	target	1	440	780	200467	13.328	13.307	13.348
ProbeTrack11	12	ProbeTrack	11.2	SCS215a	20101020.142852	20101020.150803	8	0.013328	60	10	60-180	60	162	GapExp	0	291	2	3	0	target	0	813	-1000	199467	13.328	12.878	13.780
ProbeTrack11	12	ProbeTrack	11.2	SCS215a	20101020.142852	20101020.150810	8	0.013328	60	0	60-180	60	113	GapExp	0	292	2	1	0	distractor	1	813	594	200061	13.328	13.306	13.347
ProbeTrack11	12	ProbeTrack	11.2	SCS215a	20101020.142852	20101020.150816	8	0.013328	60	0	60-180	60	171	GapExp	0	293	2	1	0	distractor	1	507	747	200808	13.328	13.096	13.546
ProbeTrack11	12	ProbeTrack	11.2	SCS215a	20101020.142852	20101020.150846	8	0.013328	60	10	60-180	60	84	GapExp	0	294	2	1	0	distractor	1	480	760	201568	13.328	13.306	13.363
ProbeTrack11	12	ProbeTrack	11.2	SCS215a	20101020.142852	20101020.150852	8	0.013328	60	0	60-180	60	74	GapExp	0	295	2	1	1	target	1	507	747	202315	13.328	13.307	13.348
ProbeTrack11	12	ProbeTrack	11.2	SCS215a	20101020.142852	20101020.150857	8	0.013328	60	10	60-180	60	177	GapExp	0	296	2	1	1	target	1	414	793	203108	13.328	12.992	13.680
ProbeTrack11	12	ProbeTrack	11.2	SCS215a	20101020.142852	20101020.150904	8	0.013328	60	10	60-180	60	125	GapExp	0	297	2	0	1	target	1	467	767	203875	13.328	13.267	13.390
ProbeTrack11	12	ProbeTrack	11.2	SCS215a	20101020.142852	20101020.150910	8	0.013328	60	10	60-180	60	151	GapExp	0	298	2	0	0	distractor	1	600	700	204575	13.328	12.886	13.770
ProbeTrack11	12	ProbeTrack	11.2	SCS215a	20101020.142852	20101020.150916	8	0.013328	60	10	60-180	60	159	GapExp	0	299	2	1	1	target	1	440	780	205355	13.328	13.109	13.540
ProbeTrack11	12	ProbeTrack	11.2	SCS215a	20101020.142852	20101020.150923	8	0.013328	60	10	60-180	60	108	GapExp	0	300	2	3	1	target	1	520	740	206095	13.328	13.309	13.349
ProbeTrack11	12	ProbeTrack	11.2	SCS215a	20101020.142852	20101020.150928	8	0.013328	60	0	60-180	60	105	GapExp	0	301	2	45	1	target	1	387	807	206902	13.328	13.099	13.569
ProbeTrack11	12	ProbeTrack	11.2	SCS215a	20101020.142852	20101020.150950	8	0.013328	60	10	60-180	60	82	GapExp	0	302	2	45	1	target	1	360	820	207722	13.328	13.104	13.543
ProbeTrack11	12	ProbeTrack	11.2	SCS215a	20101020.142852	20101020.150956	8	0.013328	60	0	60-180	60	166	GapExp	0	303	2	1	1	target	1	360	820	208542	13.328	13.306	13.345
ProbeTrack11	12	ProbeTrack	11.2	SCS215a	20101020.142852	20101020.151002	8	0.013328	60	10	60-180	60	111	GapExp	0	304	2	0	1	target	1	440	780	209322	13.328	12.925	13.730
ProbeTrack11	12	ProbeTrack	11.2	SCS215a	20101020.142852	20101020.151008	8	0.013328	60	0	60-180	60	109	GapExp	0	305	2	1	0	distractor	1	707	647	209969	13.328	12.914	13.738
ProbeTrack11	12	ProbeTrack	11.2	SCS215a	20101020.142852	20101020.151015	8	0.013328	60	10	60-180	60	151	GapExp	0	306	2	3	1	target	1	387	807	210776	13.328	13.306	13.350
ProbeTrack11	12	ProbeTrack	11.2	SCS215a	20101020.142852	20101020.151021	8	0.013328	60	10	60-180	60	154	GapExp	0	307	2	1	1	target	1	454	773	211549	13.376	12.890	26.681
ProbeTrack11	12	ProbeTrack	11.2	SCS215a	20101020.142852	20101020.151027	8	0.013328	60	0	60-180	60	160	GapExp	0	308	2	1	0	distractor	1	613	694	212243	13.328	13.092	13.550
ProbeTrack11	12	ProbeTrack	11.2	SCS215a	20101020.142852	20101020.151045	8	0.013328	60	10	60-180	60	106	GapExp	0	309	2	3	0	distractor	1	427	787	213030	13.328	13.302	13.348
ProbeTrack11	12	ProbeTrack	11.2	SCS215a	20101020.142852	20101020.151051	8	0.013328	60	10	60-180	60	97	GapExp	0	310	2	0	1	target	1	653	674	213704	13.328	13.304	13.352
ProbeTrack11	12	ProbeTrack	11.2	SCS215a	20101020.142852	20101020.151057	8	0.013328	60	0	60-180	60	75	GapExp	0	311	2	45	0	distractor	1	520	740	214444	13.328	13.113	13.556
ProbeTrack11	12	ProbeTrack	11.2	SCS215a	20101020.142852	20101020.151115	8	0.013328	60	10	60-180	60	130	GapExp	0	312	2	0	0	distractor	1	480	760	215204	13.328	12.883	13.765
ProbeTrack11	12	ProbeTrack	11.2	SCS215a	20101020.142852	20101020.151121	8	0.013328	60	10	60-180	60	78	GapExp	0	313	2	45	0	distractor	1	480	760	215964	13.328	13.099	13.552
ProbeTrack11	12	ProbeTrack	11.2	SCS215a	20101020.142852	20101020.151128	8	0.013328	60	0	60-180	60	77	GapExp	0	314	2	1	0	distractor	1	640	680	216644	13.328	13.071	13.572
ProbeTrack11	12	ProbeTrack	11.2	SCS215a	20101020.142852	20101020.151134	8	0.013328	60	0	60-180	60	157	GapExp	0	315	2	3	1	target	1	547	727	217371	13.328	13.304	13.348
ProbeTrack11	12	ProbeTrack	11.2	SCS215a	20101020.142852	20101020.151140	8	0.013328	60	10	60-180	60	143	GapExp	0	316	2	0	0	distractor	1	733	634	218005	13.328	12.828	13.822
ProbeTrack11	12	ProbeTrack	11.2	SCS215a	20101020.142852	20101020.151146	8	0.013328	60	0	60-180	60	67	GapExp	0	317	2	45	1	target	1	693	654	218659	13.328	13.299	13.363
ProbeTrack11	12	ProbeTrack	11.2	SCS215a	20101020.142852	20101020.151152	8	0.013328	60	10	60-180	60	173	GapExp	0	318	2	1	1	target	1	667	667	219326	13.328	13.279	13.367
ProbeTrack11	12	ProbeTrack	11.2	SCS215a	20101020.142852	20101020.151159	8	0.013328	60	0	60-180	60	78	GapExp	0	319	2	1	0	distractor	1	720	640	219966	13.328	12.882	13.760
ProbeTrack11	12	ProbeTrack	11.2	SCS215a	20101020.142852	20101020.151205	8	0.013328	60	10	60-180	60	177	GapExp	0	320	2	0	1	target	1	494	753	220719	13.328	13.104	13.542
ProbeTrack11	12	ProbeTrack	11.2	SCS215a	20101020.142852	20101020.151212	8	0.013328	60	10	60-180	60	74	GapExp	0	321	2	0	0	distractor	1	1946	27	220746	13.328	13.110	13.551
ProbeTrack11	12	ProbeTrack	11.2	SCS215a	20101020.142852	20101020.151239	8	0.013328	60	0	60-180	60	71	GapExp	0	322	2	0	1	target	1	547	727	221473	13.328	13.112	13.557
ProbeTrack11	12	ProbeTrack	11.2	SCS215a	20101020.142852	20101020.151244	8	0.013328	60	0	60-180	60	140	GapExp	0	323	2	45	0	distractor	1	574	713	222186	13.328	13.095	13.554
ProbeTrack11	12	ProbeTrack	11.2	SCS215a	20101020.142852	20101020.151301	8	0.013328	60	0	60-180	60	76	GapExp	0	324	2	1	1	target	1	613	694	222880	13.328	13.106	13.556
ProbeTrack11	12	ProbeTrack	11.2	SCS215a	20101020.142852	20101020.151306	8	0.013328	60	0	60-180	60	85	GapExp	0	325	2	0	0	distractor	1	693	654	223534	13.328	13.090	13.559
ProbeTrack11	12	ProbeTrack	11.2	SCS215a	20101020.142852	20101020.151312	8	0.013328	60	10	60-180	60	118	GapExp	0	326	2	0	0	distractor	1	440	780	224314	13.328	13.298	13.356
ProbeTrack11	12	ProbeTrack	11.2	SCS215a	20101020.142852	20101020.151318	8	0.013328	60	0	60-180	60	134	GapExp	0	327	2	3	1	target	1	574	713	225027	13.328	13.045	13.612
ProbeTrack11	12	ProbeTrack	11.2	SCS215a	20101020.142852	20101020.151324	8	0.013328	60	10	60-180	60	126	GapExp	0	328	2	0	1	target	1	480	760	225787	13.328	13.308	13.351
ProbeTrack11	12	ProbeTrack	11.2	SCS215a	20101020.142852	20101020.151330	8	0.013328	60	0	60-180	60	106	GapExp	0	329	2	45	0	distractor	1	600	700	226487	13.328	13.093	13.566
ProbeTrack11	12	ProbeTrack	11.2	SCS215a	20101020.142852	20101020.151336	8	0.013328	60	10	60-180	60	74	GapExp	0	330	2	1	1	target	1	480	760	227247	13.328	13.112	13.558
ProbeTrack11	12	ProbeTrack	11.2	SCS215a	20101020.142852	20101020.151341	8	0.013328	60	0	60-180	60	69	GapExp	0	331	2	45	1	target	1	587	707	227954	13.328	13.092	13.555
ProbeTrack11	12	ProbeTrack	11.2	SCS215a	20101020.142852	20101020.151416	8	0.013328	60	0	60-180	60	137	GapExp	0	332	2	45	0	distractor	1	547	727	228681	13.328	12.985	13.671
ProbeTrack11	12	ProbeTrack	11.2	SCS215a	20101020.142852	20101020.151423	8	0.013328	60	0	60-180	60	125	GapExp	0	333	2	1	1	target	1	427	787	229468	13.328	13.011	13.643
ProbeTrack11	12	ProbeTrack	11.2	SCS215a	20101020.142852	20101020.151428	8	0.013328	60	0	60-180	60	118	GapExp	0	334	2	1	1	target	1	494	753	230221	13.328	13.204	13.461
ProbeTrack11	12	ProbeTrack	11.2	SCS215a	20101020.142852	20101020.151434	8	0.013328	60	10	60-180	60	138	GapExp	0	335	2	0	1	target	1	494	753	230974	13.328	12.982	13.669
ProbeTrack11	12	ProbeTrack	11.2	SCS215a	20101020.142852	20101020.151440	8	0.013328	60	10	60-180	60	143	GapExp	0	336	2	1	1	target	1	400	800	231774	13.328	13.307	13.346
ProbeTrack11	12	ProbeTrack	11.2	SCS215a	20101020.142852	20101020.151446	8	0.013328	60	0	60-180	60	170	GapExp	0	337	2	1	1	target	1	414	793	232567	13.328	13.112	13.552
ProbeTrack11	12	ProbeTrack	11.2	SCS215a	20101020.142852	20101020.151453	8	0.013328	60	0	60-180	60	107	GapExp	0	338	2	0	1	target	1	454	773	233340	13.328	12.849	13.806
ProbeTrack11	12	ProbeTrack	11.2	SCS215a	20101020.142852	20101020.151458	8	0.013328	60	10	60-180	60	119	GapExp	0	339	2	3	1	target	1	267	867	234207	13.328	12.932	13.719
ProbeTrack11	12	ProbeTrack	11.2	SCS215a	20101020.142852	20101020.151504	8	0.013328	60	0	60-180	60	130	GapExp	0	340	2	3	1	target	1	374	813	235020	13.328	13.308	13.348
ProbeTrack11	12	ProbeTrack	11.2	SCS215a	20101020.142852	20101020.151510	8	0.013328	60	10	60-180	60	81	GapExp	0	341	2	0	1	distractor	0	520	-1000	234020	13.328	13.083	13.584
ProbeTrack11	12	ProbeTrack	11.2	SCS215a	20101020.142852	20101020.151515	8	0.013328	60	10	60-180	60	166	GapExp	0	342	2	45	0	distractor	1	720	640	234660	13.328	12.891	13.761
ProbeTrack11	12	ProbeTrack	11.2	SCS215a	20101020.142852	20101020.151523	8	0.013328	60	0	60-180	60	95	GapExp	0	343	2	3	0	target	0	640	-1000	233660	13.328	13.054	13.604
ProbeTrack11	12	ProbeTrack	11.2	SCS215a	20101020.142852	20101020.151529	8	0.013328	60	10	60-180	60	113	GapExp	0	344	2	45	1	target	1	454	773	234433	13.328	12.985	13.661
ProbeTrack11	12	ProbeTrack	11.2	SCS215a	20101020.142852	20101020.151536	8	0.013328	60	0	60-180	60	65	GapExp	0	345	2	45	0	distractor	1	520	740	235173	13.328	13.096	13.564
ProbeTrack11	12	ProbeTrack	11.2	SCS215a	20101020.142852	20101020.151541	8	0.013328	60	0	60-180	60	133	GapExp	0	346	2	45	1	target	1	467	767	235940	13.328	13.110	13.551
ProbeTrack11	12	ProbeTrack	11.2	SCS215a	20101020.142852	20101020.151548	8	0.013328	60	0	60-180	60	122	GapExp	0	347	2	45	0	distractor	1	520	740	236680	13.328	13.093	13.558
ProbeTrack11	12	ProbeTrack	11.2	SCS215a	20101020.142852	20101020.151555	8	0.013328	60	10	60-180	60	155	GapExp	0	348	2	3	0	distractor	1	1360	320	237000	13.328	12.882	13.761
ProbeTrack11	12	ProbeTrack	11.2	SCS215a	20101020.142852	20101020.151602	8	0.013328	60	10	60-180	60	152	GapExp	0	349	2	0	0	distractor	1	547	727	237727	13.328	13.303	13.368
ProbeTrack11	12	ProbeTrack	11.2	SCS215a	20101020.142852	20101020.151609	8	0.013328	60	10	60-180	60	163	GapExp	0	350	2	45	0	distractor	1	534	733	238460	13.328	12.883	13.782
ProbeTrack11	12	ProbeTrack	11.2	SCS215a	20101020.142852	20101020.151616	8	0.013328	60	0	60-180	60	99	GapExp	0	351	2	45	1	target	1	867	567	239027	13.328	13.085	13.510
ProbeTrack11	12	ProbeTrack	11.2	SCS215a	20101020.142852	20101020.151623	8	0.013328	60	10	60-180	60	94	GapExp	0	352	2	1	0	distractor	1	707	647	239674	13.328	12.994	13.664
ProbeTrack11	12	ProbeTrack	11.2	SCS215a	20101020.142852	20101020.151629	8	0.013328	60	10	60-180	60	159	GapExp	0	353	2	45	1	target	1	374	813	240487	13.328	13.100	13.548
ProbeTrack11	12	ProbeTrack	11.2	SCS215a	20101020.142852	20101020.151636	8	0.013328	60	0	60-180	60	131	GapExp	0	354	2	3	1	target	1	427	787	241274	13.328	12.909	13.755
ProbeTrack11	12	ProbeTrack	11.2	SCS215a	20101020.142852	20101020.151642	8	0.013328	60	0	60-180	60	164	GapExp	0	355	2	3	0	distractor	1	720	640	241914	13.328	13.097	13.558
ProbeTrack11	12	ProbeTrack	11.2	SCS215a	20101020.142852	20101020.151649	8	0.013328	60	0	60-180	60	117	GapExp	0	356	2	1	0	target	0	574	-1000	240914	13.328	12.879	13.778
ProbeTrack11	12	ProbeTrack	11.2	SCS215a	20101020.142852	20101020.151655	8	0.013328	60	0	60-180	60	126	GapExp	0	357	2	0	0	distractor	1	827	587	241501	13.328	12.922	13.720
ProbeTrack11	12	ProbeTrack	11.2	SCS215a	20101020.142852	20101020.151702	8	0.013328	60	0	60-180	60	86	GapExp	0	358	2	3	1	target	1	1160	420	241921	13.328	13.308	13.348
ProbeTrack11	12	ProbeTrack	11.2	SCS215a	20101020.142852	20101020.151708	8	0.013328	60	0	60-180	60	164	GapExp	0	359	2	0	0	distractor	1	533	734	242655	13.328	13.284	13.370
ProbeTrack11	12	ProbeTrack	11.2	SCS215a	20101020.142852	20101020.151714	8	0.013328	60	10	60-180	60	160	GapExp	0	360	2	3	0	distractor	1	587	707	243362	13.328	13.309	13.346
ProbeTrack11	12	ProbeTrack	11.2	SCS215a	20101020.142852	20101020.151721	8	0.013328	60	0	60-180	60	167	GapExp	0	361	2	3	1	target	1	520	740	244102	13.328	13.080	13.576
ProbeTrack11	12	ProbeTrack	11.2	SCS215a	20101020.142852	20101020.151727	8	0.013328	60	0	60-180	60	71	GapExp	0	362	2	0	1	target	1	587	707	244809	13.328	13.105	13.549
ProbeTrack11	12	ProbeTrack	11.2	SCS215a	20101020.142852	20101020.151733	8	0.013328	60	10	60-180	60	114	GapExp	0	363	2	0	0	distractor	1	640	680	245489	13.328	13.091	13.558
ProbeTrack11	12	ProbeTrack	11.2	SCS215a	20101020.142852	20101020.151739	8	0.013328	60	0	60-180	60	100	GapExp	0	364	2	3	0	distractor	1	600	700	246189	13.328	13.090	13.554
ProbeTrack11	12	ProbeTrack	11.2	SCS215a	20101020.142852	20101020.151745	8	0.013328	60	10	60-180	60	115	GapExp	0	365	2	45	1	target	1	320	840	247029	13.328	13.309	13.345
ProbeTrack11	12	ProbeTrack	11.2	SCS215a	20101020.142852	20101020.151810	8	0.013328	60	10	60-180	60	114	GapExp	0	366	2	45	0	target	0	334	-1000	246029	13.328	12.849	13.805
ProbeTrack11	12	ProbeTrack	11.2	SCS215a	20101020.142852	20101020.151816	8	0.013328	60	10	60-180	60	130	GapExp	0	367	2	0	0	distractor	1	640	680	246709	13.328	13.307	13.346
ProbeTrack11	12	ProbeTrack	11.2	SCS215a	20101020.142852	20101020.151823	8	0.013328	60	0	60-180	60	100	GapExp	0	368	2	45	0	distractor	1	587	707	247416	13.326	12.944	13.552
ProbeTrack11	12	ProbeTrack	11.2	SCS215a	20101020.142852	20101020.151829	8	0.013328	60	0	60-180	60	104	GapExp	0	369	2	0	1	target	1	747	627	248043	13.328	13.000	13.657
ProbeTrack11	12	ProbeTrack	11.2	SCS215a	20101020.142852	20101020.151835	8	0.013328	60	0	60-180	60	66	GapExp	0	370	2	0	0	distractor	1	693	654	248697	13.328	13.301	13.368
ProbeTrack11	12	ProbeTrack	11.2	SCS215a	20101020.142852	20101020.151840	8	0.013328	60	0	60-180	60	101	GapExp	0	371	2	0	0	distractor	1	587	707	249404	13.328	12.974	13.681
ProbeTrack11	12	ProbeTrack	11.2	SCS215a	20101020.142852	20101020.151846	8	0.013328	60	0	60-180	60	172	GapExp	0	372	2	1	1	target	1	1213	394	249798	13.328	13.309	13.348
ProbeTrack11	12	ProbeTrack	11.2	SCS215a	20101020.142852	20101020.151853	8	0.013328	60	10	60-180	60	68	GapExp	0	373	2	45	1	target	1	400	800	250598	13.328	12.890	13.767
ProbeTrack11	12	ProbeTrack	11.2	SCS215a	20101020.142852	20101020.151858	8	0.013328	60	0	60-180	60	109	GapExp	0	374	2	45	0	distractor	1	627	687	251285	13.328	13.116	13.553
ProbeTrack11	12	ProbeTrack	11.2	SCS215a	20101020.142852	20101020.151905	8	0.013328	60	0	60-180	60	62	GapExp	0	375	2	3	0	distractor	1	667	667	251952	13.328	13.091	13.570
ProbeTrack11	12	ProbeTrack	11.2	SCS215a	20101020.142852	20101020.151910	8	0.013328	60	0	60-180	60	86	GapExp	0	376	2	1	1	distractor	0	560	-1000	250952	13.326	13.040	13.546
ProbeTrack11	12	ProbeTrack	11.2	SCS215a	20101020.142852	20101020.151916	8	0.013328	60	10	60-180	60	86	GapExp	0	377	2	1	1	target	1	440	780	251732	13.328	13.309	13.347
ProbeTrack11	12	ProbeTrack	11.2	SCS215a	20101020.142852	20101020.151922	8	0.013328	60	10	60-180	60	178	GapExp	0	378	2	3	1	target	1	360	820	252552	13.328	13.263	13.387
ProbeTrack11	12	ProbeTrack	11.2	SCS215a	20101020.142852	20101020.151928	8	0.013328	60	0	60-180	60	68	GapExp	0	379	2	3	0	distractor	1	613	694	253246	13.328	13.310	13.344
ProbeTrack11	12	ProbeTrack	11.2	SCS215a	20101020.142852	20101020.151934	8	0.013328	60	10	60-180	60	159	GapExp	0	380	2	3	0	distractor	1	480	760	254006	13.328	13.099	13.753
ProbeTrack11	12	ProbeTrack	11.2	SCS215a	20101020.142852	20101020.151940	8	0.013328	60	0	60-180	60	133	GapExp	0	381	2	0	0	distractor	1	467	767	254773	13.328	13.109	13.554
ProbeTrack11	12	ProbeTrack	11.2	SCS215a	20101020.142852	20101020.151946	8	0.013328	60	0	60-180	60	118	GapExp	0	382	2	3	1	target	1	467	767	255540	13.328	12.854	13.801
ProbeTrack11	12	ProbeTrack	11.2	SCS215a	20101020.142852	20101020.151952	8	0.013328	60	0	60-180	60	141	GapExp	0	383	2	1	1	target	1	547	727	256267	13.328	12.883	13.773
ProbeTrack11	12	ProbeTrack	11.2	SCS215a	20101020.142852	20101020.151958	8	0.013328	60	10	60-180	60	100	GapExp	0	384	2	0	1	target	1	294	853	257120	13.328	13.308	13.346
ProbeTrack11	12	ProbeTrack	11.2	SCS215a	20101020.142852	20101020.152004	8	0.013328	60	10	60-180	60	125	GapExp	0	385	2	45	1	distractor	0	334	-1000	256120	13.328	13.296	13.375
ProbeTrack11	12	ProbeTrack	11.2	SCS215a	20101020.142852	20101020.152010	8	0.013328	60	10	60-180	60	165	GapExp	0	386	2	3	0	distractor	1	387	807	256927	13.328	13.300	13.353
ProbeTrack11	12	ProbeTrack	11.2	SCS215a	20101020.142852	20101020.152024	8	0.013328	60	0	60-180	60	169	GapExp	0	387	2	0	0	distractor	1	600	700	257627	13.328	12.922	13.741
ProbeTrack11	12	ProbeTrack	11.2	SCS215a	20101020.142852	20101020.152030	8	0.013328	60	0	60-180	60	91	GapExp	0	388	2	3	0	distractor	1	454	773	258400	13.328	12.882	13.762
ProbeTrack11	12	ProbeTrack	11.2	SCS215a	20101020.142852	20101020.152036	8	0.013328	60	0	60-180	60	85	GapExp	0	389	2	3	0	distractor	1	534	733	259133	13.328	13.101	13.557
ProbeTrack11	12	ProbeTrack	11.2	SCS215a	20101020.142852	20101020.152041	8	0.013328	60	10	60-180	60	156	GapExp	0	390	2	45	1	target	1	374	813	259946	13.328	13.021	13.637
ProbeTrack11	12	ProbeTrack	11.2	SCS215a	20101020.142852	20101020.152048	8	0.013328	60	10	60-180	60	89	GapExp	0	391	2	3	0	distractor	1	494	753	260699	13.328	13.086	13.563
ProbeTrack11	12	ProbeTrack	11.2	SCS215a	20101020.142852	20101020.152054	8	0.013328	60	10	60-180	60	123	GapExp	0	392	2	1	0	distractor	1	494	753	261452	13.328	13.307	13.347
ProbeTrack11	12	ProbeTrack	11.2	SCS215a	20101020.142852	20101020.152100	8	0.013328	60	10	60-180	60	171	GapExp	0	393	2	1	1	target	1	547	727	262179	13.328	12.833	13.824
ProbeTrack11	12	ProbeTrack	11.2	SCS215a	20101020.142852	20101020.152107	8	0.013328	60	10	60-180	60	107	GapExp	0	394	2	45	0	target	0	760	-1000	261179	13.328	13.306	13.355
ProbeTrack11	12	ProbeTrack	11.2	SCS215a	20101020.142852	20101020.152114	8	0.013328	60	0	60-180	60	75	GapExp	0	395	2	0	1	distractor	0	507	-1000	260179	13.328	13.296	13.350
ProbeTrack11	12	ProbeTrack	11.2	SCS215a	20101020.142852	20101020.152119	8	0.013328	60	0	60-180	60	134	GapExp	0	396	2	45	1	target	1	454	773	260952	13.328	13.022	13.633
ProbeTrack11	12	ProbeTrack	11.2	SCS215a	20101020.142852	20101020.152125	8	0.013328	60	0	60-180	60	84	GapExp	0	397	2	3	1	target	1	600	700	261652	13.328	12.876	13.793
ProbeTrack11	12	ProbeTrack	11.2	SCS215a	20101020.142852	20101020.152131	8	0.013328	60	10	60-180	60	155	GapExp	0	398	2	3	1	target	1	320	840	262492	13.328	12.939	13.728
ProbeTrack11	12	ProbeTrack	11.2	SCS215a	20101020.142852	20101020.152137	8	0.013328	60	10	60-180	60	123	GapExp	0	399	2	1	1	target	1	400	800	263292	13.328	12.853	13.786
ProbeTrack11	12	ProbeTrack	11.2	SCS215a	20101020.142852	20101020.152143	8	0.013328	60	10	60-180	60	177	GapExp	0	400	2	0	1	target	1	334	833	264125	13.328	13.100	13.555
ProbeTrack11	12	ProbeTrack	11.2	SCS215a	20101020.142852	20101020.152149	8	0.013328	60	10	60-180	60	127	GapExp	0	401	2	3	1	target	1	334	833	264958	13.326	12.916	13.344
ProbeTrack11	12	ProbeTrack	11.2	SCS215a	20101020.142852	20101020.152155	8	0.013328	60	10	60-180	60	114	GapExp	0	402	2	3	0	target	0	440	-1000	263958	13.328	6.888	19.768
ProbeTrack11	12	ProbeTrack	11.2	SCS215a	20101020.142852	20101020.152202	8	0.013328	60	10	60-180	60	150	GapExp	0	403	2	0	0	distractor	1	973	514	264472	13.328	12.922	13.727
ProbeTrack11	12	ProbeTrack	11.2	SCS215a	20101020.142852	20101020.152209	8	0.013328	60	10	60-180	60	68	GapExp	0	404	2	1	0	distractor	1	600	700	265172	13.394	13.073	26.921
ProbeTrack11	12	ProbeTrack	11.2	SCS215a	20101020.142852	20101020.152214	8	0.013328	60	10	60-180	60	168	GapExp	0	405	2	45	0	distractor	1	387	807	265979	13.328	13.223	13.433
ProbeTrack11	12	ProbeTrack	11.2	SCS215a	20101020.142852	20101020.152221	8	0.013328	60	0	60-180	60	80	GapExp	0	406	2	3	1	target	1	707	647	266626	13.328	13.098	13.551
ProbeTrack11	12	ProbeTrack	11.2	SCS215a	20101020.142852	20101020.152227	8	0.013328	60	10	60-180	60	94	GapExp	0	407	2	1	1	target	1	480	760	267386	13.328	12.942	13.721
ProbeTrack11	12	ProbeTrack	11.2	SCS215a	20101020.142852	20101020.152259	8	0.013328	60	0	60-180	60	99	GapExp	0	408	2	45	1	target	1	414	793	268179	13.328	13.235	13.433
ProbeTrack11	12	ProbeTrack	11.2	SCS215a	20101020.142852	20101020.152305	8	0.013328	60	0	60-180	60	93	GapExp	0	409	2	45	1	target	1	360	820	268999	13.328	12.873	13.787
ProbeTrack11	12	ProbeTrack	11.2	SCS215a	20101020.142852	20101020.152311	8	0.013328	60	10	60-180	60	150	GapExp	0	410	2	3	0	distractor	1	374	813	269812	13.328	12.999	13.667
ProbeTrack11	12	ProbeTrack	11.2	SCS215a	20101020.142852	20101020.152318	8	0.013328	60	0	60-180	60	143	GapExp	0	411	2	3	0	target	0	454	-1000	268812	13.328	13.004	13.646
ProbeTrack11	12	ProbeTrack	11.2	SCS215a	20101020.142852	20101020.152324	8	0.013328	60	10	60-180	60	156	GapExp	0	412	2	3	0	distractor	1	667	667	269479	13.328	12.973	13.687
ProbeTrack11	12	ProbeTrack	11.2	SCS215a	20101020.142852	20101020.152331	8	0.013328	60	0	60-180	60	176	GapExp	0	413	2	0	0	distractor	1	600	700	270179	13.328	12.925	13.739
ProbeTrack11	12	ProbeTrack	11.2	SCS215a	20101020.142852	20101020.152337	8	0.013328	60	10	60-180	60	91	GapExp	0	414	2	0	0	distractor	1	507	747	270926	13.328	12.920	13.743
ProbeTrack11	12	ProbeTrack	11.2	SCS215a	20101020.142852	20101020.152343	8	0.013328	60	10	60-180	60	140	GapExp	0	415	2	1	0	distractor	1	547	727	271653	13.328	13.097	13.557
ProbeTrack11	12	ProbeTrack	11.2	SCS215a	20101020.142852	20101020.152349	8	0.013328	60	0	60-180	60	179	GapExp	0	416	2	45	1	target	1	587	707	272360	13.328	12.869	13.801
ProbeTrack11	12	ProbeTrack	11.2	SCS215a	20101020.142852	20101020.152356	8	0.013328	60	0	60-180	60	180	GapExp	0	417	2	45	0	distractor	1	653	674	273034	13.328	12.989	13.676
ProbeTrack11	12	ProbeTrack	11.2	SCS215a	20101020.142852	20101020.152404	8	0.013328	60	10	60-180	60	104	GapExp	0	418	2	45	0	distractor	1	520	740	273774	13.328	12.908	13.747
ProbeTrack11	12	ProbeTrack	11.2	SCS215a	20101020.142852	20101020.152410	8	0.013328	60	0	60-180	60	149	GapExp	0	419	2	0	1	target	1	587	707	274481	13.328	13.045	13.625
ProbeTrack11	12	ProbeTrack	11.2	SCS215a	20101020.142852	20101020.152417	8	0.013328	60	0	60-180	60	119	GapExp	0	420	2	1	0	distractor	1	640	680	275161	13.328	13.033	13.617
ProbeTrack11	12	ProbeTrack	11.2	SCS215a	20101020.142852	20101020.152423	8	0.013328	60	0	60-180	60	100	GapExp	0	421	2	1	1	target	1	720	640	275801	13.328	13.307	13.348
ProbeTrack11	12	ProbeTrack	11.2	SCS215a	20101020.142852	20101020.152429	8	0.013328	60	0	60-180	60	66	GapExp	0	422	2	1	0	distractor	1	627	687	276488	13.328	13.307	13.348
ProbeTrack11	12	ProbeTrack	11.2	SCS215a	20101020.142852	20101020.152436	8	0.013328	60	0	60-180	60	124	GapExp	0	423	2	3	0	distractor	1	720	640	277128	13.328	13.310	13.352
ProbeTrack11	12	ProbeTrack	11.2	SCS215a	20101020.142852	20101020.152442	8	0.013328	60	0	60-180	60	90	GapExp	0	424	2	3	0	distractor	1	520	740	277868	13.328	13.278	13.384
ProbeTrack11	12	ProbeTrack	11.2	SCS215a	20101020.142852	20101020.152447	8	0.013328	60	0	60-180	60	77	GapExp	0	425	2	0	1	target	1	547	727	278595	13.328	13.104	13.563
ProbeTrack11	12	ProbeTrack	11.2	SCS215a	20101020.142852	20101020.152453	8	0.013328	60	10	60-180	60	128	GapExp	0	426	2	45	1	target	1	400	800	279395	13.327	13.089	13.568
ProbeTrack11	12	ProbeTrack	11.2	SCS215a	20101020.142852	20101020.152459	8	0.013328	60	0	60-180	60	80	GapExp	0	427	2	3	1	target	1	467	767	280162	13.328	13.313	13.344
ProbeTrack11	12	ProbeTrack	11.2	SCS215a	20101020.142852	20101020.152505	8	0.013328	60	0	60-180	60	104	GapExp	0	428	2	3	0	distractor	1	587	707	280869	13.328	12.945	13.725
ProbeTrack11	12	ProbeTrack	11.2	SCS215a	20101020.142852	20101020.152511	8	0.013328	60	0	60-180	60	157	GapExp	0	429	2	3	0	distractor	1	467	767	281636	13.328	13.305	13.352
ProbeTrack11	12	ProbeTrack	11.2	SCS215a	20101020.142852	20101020.152517	8	0.013328	60	10	60-180	60	133	GapExp	0	430	2	1	1	target	1	467	767	282403	13.328	12.853	13.806
ProbeTrack11	12	ProbeTrack	11.2	SCS215a	20101020.142852	20101020.152523	8	0.013328	60	0	60-180	60	100	GapExp	0	431	2	3	1	target	1	520	740	283143	13.328	12.864	13.790
ProbeTrack11	12	ProbeTrack	11.2	SCS215a	20101020.142852	20101020.152529	8	0.013328	60	10	60-180	60	164	GapExp	0	432	2	3	1	target	1	360	820	283963	13.328	13.181	13.483
ProbeTrack11	12	ProbeTrack	11.2	SCS215a	20101020.142852	20101020.152536	8	0.013328	60	10	60-180	60	155	GapExp	0	433	2	45	1	target	1	440	780	284743	13.328	12.921	13.716
ProbeTrack11	12	ProbeTrack	11.2	SCS215a	20101020.142852	20101020.152543	8	0.013328	60	10	60-180	60	120	GapExp	0	434	2	3	1	target	1	600	700	285443	13.328	12.867	13.774
ProbeTrack11	12	ProbeTrack	11.2	SCS215a	20101020.142852	20101020.152549	8	0.013328	60	0	60-180	60	151	GapExp	0	435	2	3	1	target	1	427	787	286230	13.328	13.096	13.553
ProbeTrack11	12	ProbeTrack	11.2	SCS215a	20101020.142852	20101020.152555	8	0.013328	60	0	60-180	60	129	GapExp	0	436	2	45	1	target	1	387	807	287037	13.328	13.019	13.642
ProbeTrack11	12	ProbeTrack	11.2	SCS215a	20101020.142852	20101020.152601	8	0.013328	60	0	60-180	60	143	GapExp	0	437	2	45	1	target	1	347	827	287864	13.328	13.306	13.346
ProbeTrack11	12	ProbeTrack	11.2	SCS215a	20101020.142852	20101020.152608	8	0.013328	60	10	60-180	60	148	GapExp	0	438	2	1	1	distractor	0	507	-1000	286864	13.328	12.881	13.778
ProbeTrack11	12	ProbeTrack	11.2	SCS215a	20101020.142852	20101020.152615	8	0.013328	60	10	60-180	60	152	GapExp	0	439	2	3	0	target	0	494	-1000	285864	13.328	12.922	13.740
ProbeTrack11	12	ProbeTrack	11.2	SCS215a	20101020.142852	20101020.152621	8	0.013328	60	0	60-180	60	156	GapExp	0	440	2	1	1	distractor	0	600	-1000	284864	13.328	13.312	13.345
ProbeTrack11	12	ProbeTrack	11.2	SCS215a	20101020.142852	20101020.152628	8	0.013328	60	10	60-180	60	149	GapExp	0	441	2	1	0	distractor	1	680	660	285524	13.328	13.306	13.349
ProbeTrack11	12	ProbeTrack	11.2	SCS215a	20101020.142852	20101020.152635	8	0.013328	60	0	60-180	60	159	GapExp	0	442	2	3	0	distractor	1	547	727	286251	13.328	13.048	13.622
ProbeTrack11	12	ProbeTrack	11.2	SCS215a	20101020.142852	20101020.152641	8	0.013328	60	10	60-180	60	142	GapExp	0	443	2	3	1	target	1	440	780	287031	13.328	12.917	13.733
ProbeTrack11	12	ProbeTrack	11.2	SCS215a	20101020.142852	20101020.152647	8	0.013328	60	0	60-180	60	62	GapExp	0	444	2	3	1	distractor	0	560	-1000	286031	13.328	12.992	13.666
ProbeTrack11	12	ProbeTrack	11.2	SCS215a	20101020.142852	20101020.152652	8	0.013328	60	0	60-180	60	97	GapExp	0	445	2	45	1	target	1	427	787	286818	13.328	12.846	13.805
ProbeTrack11	12	ProbeTrack	11.2	SCS215a	20101020.142852	20101020.152658	8	0.013328	60	10	60-180	60	123	GapExp	0	446	2	45	0	distractor	1	494	753	287571	13.328	12.955	13.701
ProbeTrack11	12	ProbeTrack	11.2	SCS215a	20101020.142852	20101020.152705	8	0.013328	60	10	60-180	60	121	GapExp	0	447	2	45	0	distractor	1	454	773	288344	13.328	12.973	13.696
ProbeTrack11	12	ProbeTrack	11.2	SCS215a	20101020.142852	20101020.152711	8	0.013328	60	0	60-180	60	178	GapExp	0	448	2	45	0	distractor	1	547	727	289071	13.328	12.858	13.787
ProbeTrack11	12	ProbeTrack	11.2	SCS215a	20101020.142852	20101020.152719	8	0.013328	60	0	60-180	60	92	GapExp	0	449	2	1	0	distractor	1	1280	360	289431	13.328	12.912	13.745
ProbeTrack11	12	ProbeTrack	11.2	SCS215a	20101020.142852	20101020.152725	8	0.013328	60	10	60-180	60	79	GapExp	0	450	2	45	1	target	1	427	787	290218	13.328	12.865	13.790
