exp	sub	code	rev	comp	runtime	trialtime	nstim	refreshdur	cuedur	gapdur	gapOnsetRange	durPostProbe	gapOnsetTime	blocktype	prac	trial	ntargets	soa	probeTarget	resp	acc	rt	pts	tpts	meanFrameDur	minFrameDur	maxFrameDur
ProbeTrack11	19	ProbeTrack	11.2	SCS215a	20101110.143913	20101110.143956	8	0.013327	60	0	60-180	60	109	NoGap	1	1	2	1	1	target	1	10303	0	0	13.328	13.103	13.558
ProbeTrack11	19	ProbeTrack	11.2	SCS215a	20101110.143913	20101110.144031	8	0.013327	60	0	60-180	60	122	NoGap	1	2	2	0	0	distractor	1	960	520	520	13.328	13.096	13.551
ProbeTrack11	19	ProbeTrack	11.2	SCS215a	20101110.143913	20101110.144042	8	0.013327	60	0	60-180	60	143	NoGap	1	3	2	1	1	target	1	574	713	1233	13.328	13.056	13.593
ProbeTrack11	19	ProbeTrack	11.2	SCS215a	20101110.143913	20101110.144056	8	0.013327	60	0	60-180	60	68	NoGap	1	4	2	3	1	target	1	494	753	1986	13.328	13.264	13.397
ProbeTrack11	19	ProbeTrack	11.2	SCS215a	20101110.143913	20101110.144102	8	0.013327	60	0	60-180	60	64	NoGap	1	5	2	0	1	target	1	573	714	2700	13.328	13.303	13.347
ProbeTrack11	19	ProbeTrack	11.2	SCS215a	20101110.143913	20101110.144107	8	0.013327	60	0	60-180	60	152	NoGap	1	6	2	3	1	target	1	440	780	3480	13.328	13.136	13.519
ProbeTrack11	19	ProbeTrack	11.2	SCS215a	20101110.143913	20101110.144115	8	0.013327	60	0	60-180	60	159	NoGap	1	7	2	1	1	target	1	387	807	4287	13.328	13.239	13.417
ProbeTrack11	19	ProbeTrack	11.2	SCS215a	20101110.143913	20101110.144121	8	0.013327	60	0	60-180	60	159	NoGap	1	8	2	45	0	distractor	1	480	760	5047	13.328	12.979	13.678
ProbeTrack11	19	ProbeTrack	11.2	SCS215a	20101110.143913	20101110.144129	8	0.013327	60	0	60-180	60	70	NoGap	1	9	2	3	0	32	-3	627	-1000	4047	13.328	13.307	13.348
ProbeTrack11	19	ProbeTrack	11.2	SCS215a	20101110.143913	20101110.144135	8	0.013327	60	0	60-180	60	67	NoGap	1	10	2	45	1	target	1	467	767	4814	13.328	12.860	13.784
ProbeTrack11	19	ProbeTrack	11.2	SCS215a	20101110.143913	20101110.144141	8	0.013327	60	0	60-180	60	172	NoGap	1	11	2	3	1	target	1	534	733	5547	13.328	13.091	13.557
ProbeTrack11	19	ProbeTrack	11.2	SCS215a	20101110.143913	20101110.144148	8	0.013327	60	0	60-180	60	99	NoGap	1	12	2	3	1	target	1	494	753	6300	13.328	13.306	13.347
ProbeTrack11	19	ProbeTrack	11.2	SCS215a	20101110.143913	20101110.144154	8	0.013327	60	0	60-180	60	149	NoGap	1	13	2	1	0	distractor	1	480	760	7060	13.328	13.310	13.347
ProbeTrack11	19	ProbeTrack	11.2	SCS215a	20101110.143913	20101110.144201	8	0.013327	60	0	60-180	60	69	NoGap	1	14	2	0	1	target	1	454	773	7833	13.328	13.107	13.548
ProbeTrack11	19	ProbeTrack	11.2	SCS215a	20101110.143913	20101110.144207	8	0.013327	60	0	60-180	60	99	NoGap	1	15	2	0	0	distractor	1	520	740	8573	13.328	13.097	13.551
ProbeTrack11	19	ProbeTrack	11.2	SCS215a	20101110.143913	20101110.144213	8	0.013327	60	0	60-180	60	112	NoGap	1	16	2	1	0	distractor	1	853	574	9147	13.328	13.099	13.543
ProbeTrack11	19	ProbeTrack	11.2	SCS215a	20101110.143913	20101110.144220	8	0.013327	60	0	60-180	60	174	NoGap	1	17	2	3	0	distractor	1	467	767	9914	13.328	13.103	13.540
ProbeTrack11	19	ProbeTrack	11.2	SCS215a	20101110.143913	20101110.144228	8	0.013327	60	0	60-180	60	100	NoGap	1	18	2	3	1	target	1	414	793	10707	13.328	13.308	13.344
ProbeTrack11	19	ProbeTrack	11.2	SCS215a	20101110.143913	20101110.144235	8	0.013327	60	0	60-180	60	93	NoGap	1	19	2	3	0	distractor	1	587	707	11414	13.328	12.891	13.751
ProbeTrack11	19	ProbeTrack	11.2	SCS215a	20101110.143913	20101110.144242	8	0.013327	60	0	60-180	60	154	NoGap	1	20	2	3	0	distractor	1	480	760	12174	13.328	13.094	13.554
ProbeTrack11	19	ProbeTrack	11.2	SCS215a	20101110.143913	20101110.144249	8	0.013327	60	0	60-180	60	143	NoGap	1	21	2	45	0	distractor	1	440	780	12954	13.328	12.951	13.716
ProbeTrack11	19	ProbeTrack	11.2	SCS215a	20101110.143913	20101110.144256	8	0.013327	60	0	60-180	60	117	NoGap	1	22	2	45	0	distractor	1	427	787	13741	13.328	12.887	13.779
ProbeTrack11	19	ProbeTrack	11.2	SCS215a	20101110.143913	20101110.144303	8	0.013327	60	0	60-180	60	116	NoGap	1	23	2	0	0	distractor	1	520	740	14481	13.328	13.113	13.555
ProbeTrack11	19	ProbeTrack	11.2	SCS215a	20101110.143913	20101110.144310	8	0.013327	60	0	60-180	60	169	NoGap	1	24	2	0	1	target	1	414	793	15274	13.328	13.118	13.539
ProbeTrack11	19	ProbeTrack	11.2	SCS215a	20101110.143913	20101110.144317	8	0.013327	60	0	60-180	60	81	NoGap	1	25	2	1	0	distractor	1	520	740	16014	13.328	13.098	13.548
ProbeTrack11	19	ProbeTrack	11.2	SCS215a	20101110.143913	20101110.144324	8	0.013327	60	0	60-180	60	97	NoGap	1	26	2	45	1	target	1	347	827	16841	13.328	12.846	13.809
ProbeTrack11	19	ProbeTrack	11.2	SCS215a	20101110.143913	20101110.144331	8	0.013327	60	0	60-180	60	90	NoGap	1	27	2	1	0	32	-3	520	-1000	15841	13.328	13.307	13.344
ProbeTrack11	19	ProbeTrack	11.2	SCS215a	20101110.143913	20101110.144337	8	0.013327	60	0	60-180	60	119	NoGap	1	28	2	45	1	target	1	600	700	16541	13.328	13.102	13.561
ProbeTrack11	19	ProbeTrack	11.2	SCS215a	20101110.143913	20101110.144344	8	0.013327	60	0	60-180	60	100	NoGap	1	29	2	0	0	distractor	1	547	727	17268	13.328	13.111	13.544
ProbeTrack11	19	ProbeTrack	11.2	SCS215a	20101110.143913	20101110.144351	8	0.013327	60	0	60-180	60	166	NoGap	1	30	2	0	0	distractor	1	613	694	17962	13.328	12.872	13.783
ProbeTrack11	19	ProbeTrack	11.2	SCS215a	20101110.143913	20101110.144358	8	0.013327	60	0	60-180	60	173	NoGap	1	31	2	1	1	target	1	454	773	18735	13.328	13.093	13.543
ProbeTrack11	19	ProbeTrack	11.2	SCS215a	20101110.143913	20101110.144406	8	0.013327	60	0	60-180	60	125	NoGap	1	32	2	45	0	distractor	1	414	793	19528	13.328	13.024	13.628
ProbeTrack11	19	ProbeTrack	11.2	SCS215a	20101110.143913	20101110.144414	8	0.013327	60	0	60-180	60	103	NoGap	1	33	2	45	0	distractor	1	867	567	20095	13.328	13.309	13.347
ProbeTrack11	19	ProbeTrack	11.2	SCS215a	20101110.143913	20101110.144423	8	0.013327	60	0	60-180	60	157	NoGap	1	34	2	0	1	target	1	347	827	20922	13.328	13.310	13.348
ProbeTrack11	19	ProbeTrack	11.2	SCS215a	20101110.143913	20101110.144430	8	0.013327	60	0	60-180	60	87	NoGap	1	35	2	1	1	target	1	520	740	21662	13.328	13.304	13.347
ProbeTrack11	19	ProbeTrack	11.2	SCS215a	20101110.143913	20101110.144436	8	0.013327	60	0	60-180	60	74	NoGap	1	36	2	0	1	distractor	0	693	-1000	20662	13.328	13.086	13.556
ProbeTrack11	19	ProbeTrack	11.2	SCS215a	20101110.143913	20101110.144442	8	0.013327	60	0	60-180	60	118	NoGap	1	37	2	1	0	distractor	1	1027	487	21149	13.328	13.291	13.373
ProbeTrack11	19	ProbeTrack	11.2	SCS215a	20101110.143913	20101110.144451	8	0.013327	60	0	60-180	60	115	NoGap	1	38	2	45	1	target	1	360	820	21969	13.328	13.309	13.347
ProbeTrack11	19	ProbeTrack	11.2	SCS215a	20101110.143913	20101110.144459	8	0.013327	60	0	60-180	60	73	NoGap	1	39	2	45	1	target	1	347	827	22796	13.328	12.868	13.794
ProbeTrack11	19	ProbeTrack	11.2	SCS215a	20101110.143913	20101110.144506	8	0.013327	60	0	60-180	60	70	NoGap	1	40	2	3	0	target	0	613	-1000	21796	13.328	13.310	13.346
ProbeTrack11	19	ProbeTrack	11.2	SCS215a	20101110.144552	20101110.144608	8	0.013328	60	0	60-180	60	78	GapPrac	1	1	2	1	1	target	1	387	807	22603	13.328	13.309	13.347
ProbeTrack11	19	ProbeTrack	11.2	SCS215a	20101110.144552	20101110.144614	8	0.013328	60	10	60-180	60	82	GapPrac	1	2	2	3	1	target	1	374	813	23416	13.328	12.919	13.731
ProbeTrack11	19	ProbeTrack	11.2	SCS215a	20101110.144552	20101110.144620	8	0.013328	60	0	60-180	60	129	GapPrac	1	3	2	45	0	distractor	1	680	660	24076	13.328	12.868	13.796
ProbeTrack11	19	ProbeTrack	11.2	SCS215a	20101110.144552	20101110.144632	8	0.013328	60	0	60-180	60	146	GapPrac	1	4	2	0	1	target	1	587	707	24783	13.328	13.099	13.544
ProbeTrack11	19	ProbeTrack	11.2	SCS215a	20101110.144552	20101110.144639	8	0.013328	60	0	60-180	60	178	GapPrac	1	5	2	45	1	target	1	480	760	25543	13.328	13.026	13.630
ProbeTrack11	19	ProbeTrack	11.2	SCS215a	20101110.144552	20101110.144647	8	0.013328	60	10	60-180	60	137	GapPrac	1	6	2	45	1	distractor	0	3892	-1000	24543	13.328	12.972	13.683
ProbeTrack11	19	ProbeTrack	11.2	SCS215a	20101110.144552	20101110.144658	8	0.013328	60	0	60-180	60	159	GapPrac	1	7	2	1	1	target	1	747	627	25170	13.328	12.865	13.785
ProbeTrack11	19	ProbeTrack	11.2	SCS215a	20101110.144552	20101110.144707	8	0.013328	60	10	60-180	60	150	GapPrac	1	8	2	3	0	distractor	1	787	607	25777	13.328	13.092	13.557
ProbeTrack11	19	ProbeTrack	11.2	SCS215a	20101110.144552	20101110.144714	8	0.013328	60	0	60-180	60	140	GapPrac	1	9	2	1	0	distractor	1	667	667	26444	13.328	12.892	13.778
ProbeTrack11	19	ProbeTrack	11.2	SCS215a	20101110.144552	20101110.144721	8	0.013328	60	10	60-180	60	177	GapPrac	1	10	2	1	1	target	1	560	720	27164	13.328	13.092	13.549
ProbeTrack11	19	ProbeTrack	11.2	SCS215a	20101110.144552	20101110.144728	8	0.013328	60	10	60-180	60	173	GapPrac	1	11	2	3	1	target	1	547	727	27891	13.328	13.106	13.558
ProbeTrack11	19	ProbeTrack	11.2	SCS215a	20101110.144552	20101110.144735	8	0.013328	60	0	60-180	60	143	GapPrac	1	12	2	3	0	distractor	1	640	680	28571	13.328	12.898	13.765
ProbeTrack11	19	ProbeTrack	11.2	SCS215a	20101110.144552	20101110.144742	8	0.013328	60	0	60-180	60	81	GapPrac	1	13	2	0	0	distractor	1	787	607	29178	13.328	13.306	13.347
ProbeTrack11	19	ProbeTrack	11.2	SCS215a	20101110.144552	20101110.144748	8	0.013328	60	0	60-180	60	140	GapPrac	1	14	2	3	1	target	1	480	760	29938	13.328	13.309	13.347
ProbeTrack11	19	ProbeTrack	11.2	SCS215a	20101110.144552	20101110.144755	8	0.013328	60	10	60-180	60	143	GapPrac	1	15	2	0	0	distractor	1	600	700	30638	13.328	12.880	13.782
ProbeTrack11	19	ProbeTrack	11.2	SCS215a	20101110.144552	20101110.144801	8	0.013328	60	10	60-180	60	79	GapPrac	1	16	2	0	1	target	1	520	740	31378	13.328	13.309	13.347
ProbeTrack11	19	ProbeTrack	11.2	SCS215a	20101110.144552	20101110.144807	8	0.013328	60	0	60-180	60	119	GapPrac	1	17	2	0	1	target	1	494	753	32131	13.328	13.305	13.358
ProbeTrack11	19	ProbeTrack	11.2	SCS215a	20101110.144552	20101110.144813	8	0.013328	60	10	60-180	60	117	GapPrac	1	18	2	45	0	distractor	1	534	733	32864	13.328	13.103	13.552
ProbeTrack11	19	ProbeTrack	11.2	SCS215a	20101110.144552	20101110.144820	8	0.013328	60	0	60-180	60	149	GapPrac	1	19	2	45	0	distractor	1	547	727	33591	13.328	13.098	13.572
ProbeTrack11	19	ProbeTrack	11.2	SCS215a	20101110.144552	20101110.144827	8	0.013328	60	10	60-180	60	141	GapPrac	1	20	2	1	0	distractor	1	560	720	34311	13.328	13.238	13.425
ProbeTrack11	19	ProbeTrack	11.2	SCS215a	20101110.144908	20101110.144948	8	0.013328	60	10	60-180	60	115	GapExp	1	1	2	1	0	distractor	1	507	747	35058	13.328	12.860	13.816
ProbeTrack11	19	ProbeTrack	11.2	SCS215a	20101110.144908	20101110.144956	8	0.013328	60	0	60-180	60	133	GapExp	1	2	2	1	0	distractor	1	507	747	35805	13.328	13.118	13.544
ProbeTrack11	19	ProbeTrack	11.2	SCS215a	20101110.144908	20101110.145002	8	0.013328	60	10	60-180	60	61	GapExp	0	3	2	0	1	target	1	480	760	36565	13.328	12.879	13.785
ProbeTrack11	19	ProbeTrack	11.2	SCS215a	20101110.144908	20101110.145007	8	0.013328	60	0	60-180	60	145	GapExp	0	4	2	0	0	distractor	1	414	793	37358	13.328	13.250	13.412
ProbeTrack11	19	ProbeTrack	11.2	SCS215a	20101110.144908	20101110.145013	8	0.013328	60	10	60-180	60	149	GapExp	0	5	2	0	0	target	0	574	-1000	36358	13.328	12.861	13.794
ProbeTrack11	19	ProbeTrack	11.2	SCS215a	20101110.144908	20101110.145020	8	0.013328	60	0	60-180	60	64	GapExp	0	6	2	1	1	target	1	520	740	37098	13.328	13.308	13.359
ProbeTrack11	19	ProbeTrack	11.2	SCS215a	20101110.144908	20101110.145026	8	0.013328	60	10	60-180	60	66	GapExp	0	7	2	45	1	target	1	627	687	37785	13.328	13.096	13.563
ProbeTrack11	19	ProbeTrack	11.2	SCS215a	20101110.144908	20101110.145032	8	0.013328	60	0	60-180	60	88	GapExp	0	8	2	3	0	distractor	1	640	680	38465	13.328	13.085	13.561
ProbeTrack11	19	ProbeTrack	11.2	SCS215a	20101110.144908	20101110.145038	8	0.013328	60	10	60-180	60	155	GapExp	0	9	2	1	0	distractor	1	534	733	39198	13.328	12.957	13.701
ProbeTrack11	19	ProbeTrack	11.2	SCS215a	20101110.144908	20101110.145045	8	0.013328	60	0	60-180	60	170	GapExp	0	10	2	1	0	distractor	1	520	740	39938	13.328	12.999	13.653
ProbeTrack11	19	ProbeTrack	11.2	SCS215a	20101110.144908	20101110.145051	8	0.013328	60	0	60-180	60	168	GapExp	0	11	2	45	1	target	1	480	760	40698	13.328	12.927	13.741
ProbeTrack11	19	ProbeTrack	11.2	SCS215a	20101110.144908	20101110.145058	8	0.013328	60	0	60-180	60	136	GapExp	0	12	2	3	0	distractor	1	534	733	41431	13.328	13.105	13.548
ProbeTrack11	19	ProbeTrack	11.2	SCS215a	20101110.144908	20101110.145105	8	0.013328	60	0	60-180	60	179	GapExp	0	13	2	45	1	target	1	507	747	42178	13.328	13.104	13.545
ProbeTrack11	19	ProbeTrack	11.2	SCS215a	20101110.144908	20101110.145112	8	0.013328	60	0	60-180	60	174	GapExp	0	14	2	1	0	distractor	1	480	760	42938	13.328	13.096	13.553
ProbeTrack11	19	ProbeTrack	11.2	SCS215a	20101110.144908	20101110.145119	8	0.013328	60	10	60-180	60	93	GapExp	0	15	2	1	0	distractor	1	520	740	43678	13.328	13.311	13.345
ProbeTrack11	19	ProbeTrack	11.2	SCS215a	20101110.144908	20101110.145125	8	0.013328	60	0	60-180	60	127	GapExp	0	16	2	0	1	target	1	533	734	44412	13.328	13.299	13.356
ProbeTrack11	19	ProbeTrack	11.2	SCS215a	20101110.144908	20101110.145131	8	0.013328	60	0	60-180	60	123	GapExp	0	17	2	0	1	target	1	427	787	45199	13.328	13.309	13.346
ProbeTrack11	19	ProbeTrack	11.2	SCS215a	20101110.144908	20101110.145137	8	0.013328	60	10	60-180	60	146	GapExp	0	18	2	1	0	distractor	1	494	753	45952	13.328	13.150	13.505
ProbeTrack11	19	ProbeTrack	11.2	SCS215a	20101110.144908	20101110.145143	8	0.013328	60	0	60-180	60	115	GapExp	0	19	2	45	1	target	1	387	807	46759	13.328	12.886	13.771
ProbeTrack11	19	ProbeTrack	11.2	SCS215a	20101110.144908	20101110.145149	8	0.013328	60	10	60-180	60	80	GapExp	0	20	2	45	1	target	1	347	827	47586	13.328	13.080	13.571
ProbeTrack11	19	ProbeTrack	11.2	SCS215a	20101110.144908	20101110.145155	8	0.013328	60	0	60-180	60	97	GapExp	0	21	2	3	0	distractor	1	547	727	48313	13.328	13.309	13.350
ProbeTrack11	19	ProbeTrack	11.2	SCS215a	20101110.144908	20101110.145201	8	0.013328	60	10	60-180	60	167	GapExp	0	22	2	3	1	target	1	374	813	49126	13.328	13.310	13.353
ProbeTrack11	19	ProbeTrack	11.2	SCS215a	20101110.144908	20101110.145207	8	0.013328	60	10	60-180	60	123	GapExp	0	23	2	45	1	target	1	400	800	49926	13.328	13.053	13.617
ProbeTrack11	19	ProbeTrack	11.2	SCS215a	20101110.144908	20101110.145213	8	0.013328	60	0	60-180	60	80	GapExp	0	24	2	0	1	target	1	507	747	50673	13.328	13.308	13.361
ProbeTrack11	19	ProbeTrack	11.2	SCS215a	20101110.144908	20101110.145219	8	0.013328	60	0	60-180	60	115	GapExp	0	25	2	45	0	distractor	1	587	707	51380	13.328	13.309	13.347
ProbeTrack11	19	ProbeTrack	11.2	SCS215a	20101110.144908	20101110.145225	8	0.013328	60	0	60-180	60	67	GapExp	0	26	2	3	0	distractor	1	587	707	52087	13.328	12.920	13.748
ProbeTrack11	19	ProbeTrack	11.2	SCS215a	20101110.144908	20101110.145231	8	0.013328	60	0	60-180	60	96	GapExp	0	27	2	45	1	target	1	360	820	52907	13.328	12.900	13.762
ProbeTrack11	19	ProbeTrack	11.2	SCS215a	20101110.144908	20101110.145237	8	0.013328	60	10	60-180	60	116	GapExp	0	28	2	0	1	target	1	494	753	53660	13.328	12.876	13.775
ProbeTrack11	19	ProbeTrack	11.2	SCS215a	20101110.144908	20101110.145243	8	0.013328	60	10	60-180	60	166	GapExp	0	29	2	45	0	distractor	1	440	780	54440	13.328	13.106	13.551
ProbeTrack11	19	ProbeTrack	11.2	SCS215a	20101110.144908	20101110.145250	8	0.013328	60	0	60-180	60	156	GapExp	0	30	2	45	1	target	1	400	800	55240	13.328	13.091	13.566
ProbeTrack11	19	ProbeTrack	11.2	SCS215a	20101110.144908	20101110.145257	8	0.013328	60	0	60-180	60	150	GapExp	0	31	2	3	0	distractor	1	467	767	56007	13.428	13.299	26.659
ProbeTrack11	19	ProbeTrack	11.2	SCS215a	20101110.144908	20101110.145303	8	0.013328	60	0	60-180	60	75	GapExp	0	32	2	0	1	target	1	494	753	56760	13.328	12.987	13.658
ProbeTrack11	19	ProbeTrack	11.2	SCS215a	20101110.144908	20101110.145308	8	0.013328	60	0	60-180	60	69	GapExp	0	33	2	0	1	target	1	480	760	57520	13.328	13.299	13.347
ProbeTrack11	19	ProbeTrack	11.2	SCS215a	20101110.144908	20101110.145314	8	0.013328	60	10	60-180	60	175	GapExp	0	34	2	3	1	target	1	467	767	58287	13.328	13.113	13.547
ProbeTrack11	19	ProbeTrack	11.2	SCS215a	20101110.144908	20101110.145320	8	0.013328	60	10	60-180	60	101	GapExp	0	35	2	3	1	target	1	387	807	59094	13.328	13.110	13.562
ProbeTrack11	19	ProbeTrack	11.2	SCS215a	20101110.144908	20101110.145326	8	0.013328	60	10	60-180	60	154	GapExp	0	36	2	45	0	distractor	1	494	753	59847	13.328	13.085	13.559
ProbeTrack11	19	ProbeTrack	11.2	SCS215a	20101110.144908	20101110.145333	8	0.013328	60	10	60-180	60	148	GapExp	0	37	2	3	1	target	1	520	740	60587	13.328	12.923	13.738
ProbeTrack11	19	ProbeTrack	11.2	SCS215a	20101110.144908	20101110.145339	8	0.013328	60	0	60-180	60	151	GapExp	0	38	2	0	0	distractor	1	440	780	61367	13.328	13.175	13.493
ProbeTrack11	19	ProbeTrack	11.2	SCS215a	20101110.144908	20101110.145345	8	0.013328	60	10	60-180	60	78	GapExp	0	39	2	45	1	target	1	347	827	62194	13.328	13.294	13.354
ProbeTrack11	19	ProbeTrack	11.2	SCS215a	20101110.144908	20101110.145351	8	0.013328	60	0	60-180	60	72	GapExp	0	40	2	3	1	target	1	440	780	62974	13.328	13.300	13.355
ProbeTrack11	19	ProbeTrack	11.2	SCS215a	20101110.144908	20101110.145356	8	0.013328	60	0	60-180	60	177	GapExp	0	41	2	3	0	distractor	1	520	740	63714	13.328	12.987	13.671
ProbeTrack11	19	ProbeTrack	11.2	SCS215a	20101110.144908	20101110.145403	8	0.013328	60	10	60-180	60	114	GapExp	0	42	2	45	1	target	1	320	840	64554	13.328	13.101	13.550
ProbeTrack11	19	ProbeTrack	11.2	SCS215a	20101110.144908	20101110.145409	8	0.013328	60	0	60-180	60	71	GapExp	0	43	2	0	0	distractor	1	627	687	65241	13.328	13.290	13.370
ProbeTrack11	19	ProbeTrack	11.2	SCS215a	20101110.144908	20101110.145414	8	0.013328	60	10	60-180	60	80	GapExp	0	44	2	0	0	target	0	427	-1000	64241	13.328	13.302	13.349
ProbeTrack11	19	ProbeTrack	11.2	SCS215a	20101110.144908	20101110.145420	8	0.013328	60	0	60-180	60	146	GapExp	0	45	2	3	0	distractor	1	427	787	65028	13.328	13.307	13.347
ProbeTrack11	19	ProbeTrack	11.2	SCS215a	20101110.144908	20101110.145426	8	0.013328	60	0	60-180	60	172	GapExp	0	46	2	1	0	distractor	1	1000	500	65528	13.328	13.306	13.352
ProbeTrack11	19	ProbeTrack	11.2	SCS215a	20101110.144908	20101110.145433	8	0.013328	60	10	60-180	60	160	GapExp	0	47	2	3	0	distractor	1	773	614	66142	13.328	13.309	13.358
ProbeTrack11	19	ProbeTrack	11.2	SCS215a	20101110.144908	20101110.145440	8	0.013328	60	10	60-180	60	62	GapExp	0	48	2	3	0	distractor	1	667	667	66809	13.328	13.283	13.359
ProbeTrack11	19	ProbeTrack	11.2	SCS215a	20101110.144908	20101110.145446	8	0.013328	60	10	60-180	60	69	GapExp	0	49	2	45	0	distractor	1	920	540	67349	13.328	13.086	13.560
ProbeTrack11	19	ProbeTrack	11.2	SCS215a	20101110.144908	20101110.145452	8	0.013328	60	0	60-180	60	80	GapExp	0	50	2	0	0	distractor	1	813	594	67943	13.328	13.112	13.557
ProbeTrack11	19	ProbeTrack	11.2	SCS215a	20101110.144908	20101110.145457	8	0.013328	60	10	60-180	60	180	GapExp	0	51	2	0	0	distractor	1	640	680	68623	13.328	13.104	13.543
ProbeTrack11	19	ProbeTrack	11.2	SCS215a	20101110.144908	20101110.145504	8	0.013328	60	10	60-180	60	152	GapExp	0	52	2	45	1	target	1	427	787	69410	13.328	12.863	13.790
ProbeTrack11	19	ProbeTrack	11.2	SCS215a	20101110.144908	20101110.145511	8	0.013328	60	10	60-180	60	98	GapExp	0	53	2	0	1	target	1	440	780	70190	13.328	13.307	13.348
ProbeTrack11	19	ProbeTrack	11.2	SCS215a	20101110.144908	20101110.145518	8	0.013328	60	0	60-180	60	85	GapExp	0	54	2	3	1	target	1	494	753	70943	13.328	13.301	13.347
ProbeTrack11	19	ProbeTrack	11.2	SCS215a	20101110.144908	20101110.145523	8	0.013328	60	0	60-180	60	93	GapExp	0	55	2	3	1	target	1	534	733	71676	13.328	13.309	13.343
ProbeTrack11	19	ProbeTrack	11.2	SCS215a	20101110.144908	20101110.145529	8	0.013328	60	10	60-180	60	113	GapExp	0	56	2	1	0	distractor	1	480	760	72436	13.328	13.308	13.348
ProbeTrack11	19	ProbeTrack	11.2	SCS215a	20101110.144908	20101110.145534	8	0.013328	60	10	60-180	60	163	GapExp	0	57	2	45	1	target	1	360	820	73256	13.328	12.881	13.782
ProbeTrack11	19	ProbeTrack	11.2	SCS215a	20101110.144908	20101110.145541	8	0.013328	60	10	60-180	60	84	GapExp	0	58	2	1	0	distractor	1	653	674	73930	13.328	13.086	13.562
ProbeTrack11	19	ProbeTrack	11.2	SCS215a	20101110.144908	20101110.145547	8	0.013328	60	0	60-180	60	98	GapExp	0	59	2	45	0	distractor	1	507	747	74677	13.328	13.308	13.346
ProbeTrack11	19	ProbeTrack	11.2	SCS215a	20101110.144908	20101110.145553	8	0.013328	60	10	60-180	60	64	GapExp	0	60	2	0	0	distractor	1	573	714	75391	13.328	12.855	13.799
ProbeTrack11	19	ProbeTrack	11.2	SCS215a	20101110.144908	20101110.145558	8	0.013328	60	10	60-180	60	162	GapExp	0	61	2	1	1	target	1	534	733	76124	13.328	12.996	13.661
ProbeTrack11	19	ProbeTrack	11.2	SCS215a	20101110.144908	20101110.145604	8	0.013328	60	10	60-180	60	80	GapExp	0	62	2	45	0	distractor	1	507	747	76871	13.328	12.970	13.671
ProbeTrack11	19	ProbeTrack	11.2	SCS215a	20101110.144908	20101110.145610	8	0.013328	60	0	60-180	60	136	GapExp	0	63	2	0	1	distractor	0	454	-1000	75871	13.328	13.302	13.348
ProbeTrack11	19	ProbeTrack	11.2	SCS215a	20101110.144908	20101110.145616	8	0.013328	60	0	60-180	60	175	GapExp	0	64	2	45	0	distractor	1	640	680	76551	13.328	12.933	13.719
ProbeTrack11	19	ProbeTrack	11.2	SCS215a	20101110.144908	20101110.145624	8	0.013328	60	10	60-180	60	169	GapExp	0	65	2	3	1	target	1	387	807	77358	13.328	13.304	13.352
ProbeTrack11	19	ProbeTrack	11.2	SCS215a	20101110.144908	20101110.145630	8	0.013328	60	0	60-180	60	131	GapExp	0	66	2	0	0	distractor	1	733	634	77992	13.429	12.872	27.117
ProbeTrack11	19	ProbeTrack	11.2	SCS215a	20101110.144908	20101110.145637	8	0.013328	60	0	60-180	60	170	GapExp	0	67	2	45	0	distractor	1	627	687	78679	13.328	13.099	13.544
ProbeTrack11	19	ProbeTrack	11.2	SCS215a	20101110.144908	20101110.145644	8	0.013328	60	10	60-180	60	143	GapExp	0	68	2	3	0	distractor	1	614	693	79372	13.328	13.117	13.553
ProbeTrack11	19	ProbeTrack	11.2	SCS215a	20101110.144908	20101110.145651	8	0.013328	60	10	60-180	60	134	GapExp	0	69	2	3	1	target	1	653	674	80046	13.328	13.089	13.567
ProbeTrack11	19	ProbeTrack	11.2	SCS215a	20101110.144908	20101110.145657	8	0.013328	60	10	60-180	60	86	GapExp	0	70	2	3	0	distractor	1	827	587	80633	13.328	13.052	13.608
ProbeTrack11	19	ProbeTrack	11.2	SCS215a	20101110.144908	20101110.145703	8	0.013328	60	0	60-180	60	147	GapExp	0	71	2	1	0	distractor	1	494	753	81386	13.328	13.092	13.556
ProbeTrack11	19	ProbeTrack	11.2	SCS215a	20101110.144908	20101110.145709	8	0.013328	60	10	60-180	60	147	GapExp	0	72	2	3	0	distractor	1	547	727	82113	13.328	13.098	13.541
ProbeTrack11	19	ProbeTrack	11.2	SCS215a	20101110.144908	20101110.145716	8	0.013328	60	10	60-180	60	90	GapExp	0	73	2	1	0	distractor	1	680	660	82773	13.328	13.296	13.347
ProbeTrack11	19	ProbeTrack	11.2	SCS215a	20101110.144908	20101110.145722	8	0.013328	60	0	60-180	60	140	GapExp	0	74	2	1	0	distractor	1	627	687	83460	13.328	13.302	13.352
ProbeTrack11	19	ProbeTrack	11.2	SCS215a	20101110.144908	20101110.145728	8	0.013328	60	0	60-180	60	141	GapExp	0	75	2	45	1	target	1	480	760	84220	13.328	13.300	13.357
ProbeTrack11	19	ProbeTrack	11.2	SCS215a	20101110.144908	20101110.145734	8	0.013328	60	10	60-180	60	158	GapExp	0	76	2	0	1	target	1	427	787	85007	13.327	13.303	13.345
ProbeTrack11	19	ProbeTrack	11.2	SCS215a	20101110.144908	20101110.145741	8	0.013328	60	0	60-180	60	132	GapExp	0	77	2	0	1	target	1	467	767	85774	13.328	13.092	13.550
ProbeTrack11	19	ProbeTrack	11.2	SCS215a	20101110.144908	20101110.145747	8	0.013328	60	10	60-180	60	180	GapExp	0	78	2	0	1	target	1	387	807	86581	13.328	13.099	13.538
ProbeTrack11	19	ProbeTrack	11.2	SCS215a	20101110.144908	20101110.145753	8	0.013328	60	0	60-180	60	98	GapExp	0	79	2	45	1	target	1	414	793	87374	13.328	13.099	13.558
ProbeTrack11	19	ProbeTrack	11.2	SCS215a	20101110.144908	20101110.145759	8	0.013328	60	10	60-180	60	159	GapExp	0	80	2	0	0	distractor	1	587	707	88081	13.328	13.308	13.348
ProbeTrack11	19	ProbeTrack	11.2	SCS215a	20101110.144908	20101110.145806	8	0.013328	60	0	60-180	60	160	GapExp	0	81	2	1	1	target	1	507	747	88828	13.328	13.091	13.566
ProbeTrack11	19	ProbeTrack	11.2	SCS215a	20101110.144908	20101110.145812	8	0.013328	60	0	60-180	60	165	GapExp	0	82	2	45	0	distractor	1	547	727	89555	13.328	13.046	13.641
ProbeTrack11	19	ProbeTrack	11.2	SCS215a	20101110.144908	20101110.145819	8	0.013328	60	0	60-180	60	112	GapExp	0	83	2	0	1	target	1	627	687	90242	13.328	13.310	13.346
ProbeTrack11	19	ProbeTrack	11.2	SCS215a	20101110.144908	20101110.145825	8	0.013328	60	0	60-180	60	169	GapExp	0	84	2	1	0	distractor	1	494	753	90995	13.328	13.284	13.364
ProbeTrack11	19	ProbeTrack	11.2	SCS215a	20101110.144908	20101110.145832	8	0.013328	60	0	60-180	60	138	GapExp	0	85	2	0	0	distractor	1	707	647	91642	13.328	13.308	13.348
ProbeTrack11	19	ProbeTrack	11.2	SCS215a	20101110.144908	20101110.145838	8	0.013328	60	0	60-180	60	101	GapExp	0	86	2	0	1	target	1	440	780	92422	13.328	13.311	13.348
ProbeTrack11	19	ProbeTrack	11.2	SCS215a	20101110.144908	20101110.145844	8	0.013328	60	0	60-180	60	88	GapExp	0	87	2	3	1	target	1	494	753	93175	13.328	13.112	13.555
ProbeTrack11	19	ProbeTrack	11.2	SCS215a	20101110.144908	20101110.145849	8	0.013328	60	10	60-180	60	103	GapExp	0	88	2	0	0	distractor	1	560	720	93895	13.328	13.105	13.542
ProbeTrack11	19	ProbeTrack	11.2	SCS215a	20101110.144908	20101110.145855	8	0.013328	60	10	60-180	60	129	GapExp	0	89	2	1	0	distractor	1	613	694	94589	13.328	12.868	13.794
ProbeTrack11	19	ProbeTrack	11.2	SCS215a	20101110.144908	20101110.145901	8	0.013328	60	0	60-180	60	76	GapExp	0	90	2	3	0	distractor	1	574	713	95302	13.328	13.309	13.344
ProbeTrack11	19	ProbeTrack	11.2	SCS215a	20101110.144908	20101110.145906	8	0.013328	60	0	60-180	60	103	GapExp	0	91	2	0	1	target	1	427	787	96089	13.328	13.305	13.347
ProbeTrack11	19	ProbeTrack	11.2	SCS215a	20101110.144908	20101110.145912	8	0.013328	60	10	60-180	60	90	GapExp	0	92	2	45	1	target	1	587	707	96796	13.328	13.308	13.348
ProbeTrack11	19	ProbeTrack	11.2	SCS215a	20101110.144908	20101110.145919	8	0.013328	60	0	60-180	60	112	GapExp	0	93	2	45	0	distractor	1	494	753	97549	13.328	13.307	13.348
ProbeTrack11	19	ProbeTrack	11.2	SCS215a	20101110.144908	20101110.145925	8	0.013328	60	10	60-180	60	140	GapExp	0	94	2	0	1	target	1	360	820	98369	13.328	12.903	13.762
ProbeTrack11	19	ProbeTrack	11.2	SCS215a	20101110.144908	20101110.145932	8	0.013328	60	0	60-180	60	131	GapExp	0	95	2	1	1	target	1	454	773	99142	13.328	13.102	13.547
ProbeTrack11	19	ProbeTrack	11.2	SCS215a	20101110.144908	20101110.145938	8	0.013328	60	0	60-180	60	73	GapExp	0	96	2	3	1	target	1	600	700	99842	13.328	13.309	13.346
ProbeTrack11	19	ProbeTrack	11.2	SCS215a	20101110.144908	20101110.145943	8	0.013328	60	10	60-180	60	155	GapExp	0	97	2	1	0	distractor	1	467	767	100609	13.328	13.306	13.347
ProbeTrack11	19	ProbeTrack	11.2	SCS215a	20101110.144908	20101110.145949	8	0.013328	60	10	60-180	60	123	GapExp	0	98	2	3	0	distractor	1	467	767	101376	13.328	13.022	13.635
ProbeTrack11	19	ProbeTrack	11.2	SCS215a	20101110.144908	20101110.145955	8	0.013328	60	0	60-180	60	155	GapExp	0	99	2	3	0	distractor	1	494	753	102129	13.328	12.931	13.717
ProbeTrack11	19	ProbeTrack	11.2	SCS215a	20101110.144908	20101110.150001	8	0.013328	60	0	60-180	60	115	GapExp	0	100	2	45	1	target	1	427	787	102916	13.328	13.307	13.345
ProbeTrack11	19	ProbeTrack	11.2	SCS215a	20101110.144908	20101110.150007	8	0.013328	60	10	60-180	60	127	GapExp	0	101	2	0	0	distractor	1	454	773	103689	13.328	13.112	13.543
ProbeTrack11	19	ProbeTrack	11.2	SCS215a	20101110.144908	20101110.150014	8	0.013328	60	10	60-180	60	172	GapExp	0	102	2	45	1	target	1	360	820	104509	13.328	13.019	13.665
ProbeTrack11	19	ProbeTrack	11.2	SCS215a	20101110.144908	20101110.150021	8	0.013328	60	10	60-180	60	147	GapExp	0	103	2	1	0	distractor	1	613	694	105203	13.328	12.860	13.784
ProbeTrack11	19	ProbeTrack	11.2	SCS215a	20101110.144908	20101110.150027	8	0.013328	60	10	60-180	60	166	GapExp	0	104	2	45	0	target	0	1040	-1000	104203	13.328	13.033	13.624
ProbeTrack11	19	ProbeTrack	11.2	SCS215a	20101110.144908	20101110.150035	8	0.013328	60	10	60-180	60	119	GapExp	0	105	2	3	0	distractor	1	613	694	104897	13.328	12.896	13.776
ProbeTrack11	19	ProbeTrack	11.2	SCS215a	20101110.144908	20101110.150043	8	0.013328	60	0	60-180	60	117	GapExp	0	106	2	3	1	target	1	760	620	105517	13.328	13.309	13.346
ProbeTrack11	19	ProbeTrack	11.2	SCS215a	20101110.144908	20101110.150050	8	0.013328	60	10	60-180	60	86	GapExp	0	107	2	45	1	target	1	374	813	106330	13.328	13.308	13.346
ProbeTrack11	19	ProbeTrack	11.2	SCS215a	20101110.144908	20101110.150056	8	0.013328	60	0	60-180	60	174	GapExp	0	108	2	0	1	target	1	507	747	107077	13.328	13.105	13.536
ProbeTrack11	19	ProbeTrack	11.2	SCS215a	20101110.144908	20101110.150102	8	0.013328	60	0	60-180	60	135	GapExp	0	109	2	3	0	distractor	1	454	773	107850	13.328	13.105	13.543
ProbeTrack11	19	ProbeTrack	11.2	SCS215a	20101110.144908	20101110.150109	8	0.013328	60	10	60-180	60	66	GapExp	0	110	2	3	1	target	1	400	800	108650	13.328	13.109	13.556
ProbeTrack11	19	ProbeTrack	11.2	SCS215a	20101110.144908	20101110.150114	8	0.013328	60	10	60-180	60	64	GapExp	0	111	2	1	1	target	1	387	807	109457	13.328	13.308	13.348
ProbeTrack11	19	ProbeTrack	11.2	SCS215a	20101110.144908	20101110.150119	8	0.013328	60	0	60-180	60	104	GapExp	0	112	2	0	0	distractor	1	494	753	110210	13.328	13.309	13.347
ProbeTrack11	19	ProbeTrack	11.2	SCS215a	20101110.144908	20101110.150124	8	0.013328	60	10	60-180	60	80	GapExp	0	113	2	1	0	distractor	1	494	753	110963	13.328	13.085	13.557
ProbeTrack11	19	ProbeTrack	11.2	SCS215a	20101110.144908	20101110.150129	8	0.013328	60	0	60-180	60	88	GapExp	0	114	2	1	1	target	1	374	813	111776	13.328	13.280	13.369
ProbeTrack11	19	ProbeTrack	11.2	SCS215a	20101110.144908	20101110.150134	8	0.013328	60	0	60-180	60	78	GapExp	0	115	2	1	0	distractor	1	387	807	112583	13.328	13.311	13.348
ProbeTrack11	19	ProbeTrack	11.2	SCS215a	20101110.144908	20101110.150139	8	0.013328	60	0	60-180	60	92	GapExp	0	116	2	1	1	target	1	307	847	113430	13.328	12.953	13.705
ProbeTrack11	19	ProbeTrack	11.2	SCS215a	20101110.144908	20101110.150145	8	0.013328	60	10	60-180	60	106	GapExp	0	117	2	1	1	target	1	427	787	114217	13.328	13.088	13.560
ProbeTrack11	19	ProbeTrack	11.2	SCS215a	20101110.144908	20101110.150150	8	0.013328	60	0	60-180	60	116	GapExp	0	118	2	3	0	distractor	1	547	727	114944	13.328	13.298	13.349
ProbeTrack11	19	ProbeTrack	11.2	SCS215a	20101110.144908	20101110.150156	8	0.013328	60	0	60-180	60	131	GapExp	0	119	2	1	1	target	1	467	767	115711	13.328	13.270	13.375
ProbeTrack11	19	ProbeTrack	11.2	SCS215a	20101110.144908	20101110.150202	8	0.013328	60	10	60-180	60	163	GapExp	0	120	2	3	0	distractor	1	374	813	116524	13.328	13.306	13.347
ProbeTrack11	19	ProbeTrack	11.2	SCS215a	20101110.144908	20101110.150208	8	0.013328	60	10	60-180	60	99	GapExp	0	121	2	1	1	target	1	427	787	117311	13.328	13.100	13.555
ProbeTrack11	19	ProbeTrack	11.2	SCS215a	20101110.144908	20101110.150213	8	0.013328	60	10	60-180	60	137	GapExp	0	122	2	3	0	distractor	1	440	780	118091	13.328	13.105	13.540
ProbeTrack11	19	ProbeTrack	11.2	SCS215a	20101110.144908	20101110.150220	8	0.013328	60	0	60-180	60	130	GapExp	0	123	2	45	0	distractor	1	707	647	118738	13.328	13.100	13.556
ProbeTrack11	19	ProbeTrack	11.2	SCS215a	20101110.144908	20101110.150226	8	0.013328	60	10	60-180	60	64	GapExp	0	124	2	0	0	distractor	1	760	620	119358	13.328	12.885	13.779
ProbeTrack11	19	ProbeTrack	11.2	SCS215a	20101110.144908	20101110.150232	8	0.013328	60	0	60-180	60	123	GapExp	0	125	2	45	0	distractor	1	414	793	120151	13.328	13.104	13.552
ProbeTrack11	19	ProbeTrack	11.2	SCS215a	20101110.144908	20101110.150238	8	0.013328	60	0	60-180	60	116	GapExp	0	126	2	1	0	distractor	1	494	753	120904	13.328	12.992	13.658
ProbeTrack11	19	ProbeTrack	11.2	SCS215a	20101110.144908	20101110.150244	8	0.013328	60	10	60-180	60	165	GapExp	0	127	2	1	1	target	1	347	827	121731	13.328	13.232	13.432
ProbeTrack11	19	ProbeTrack	11.2	SCS215a	20101110.144908	20101110.150251	8	0.013328	60	0	60-180	60	93	GapExp	0	128	2	1	1	target	1	560	720	122451	13.328	13.308	13.351
ProbeTrack11	19	ProbeTrack	11.2	SCS215a	20101110.144908	20101110.150256	8	0.013328	60	10	60-180	60	121	GapExp	0	129	2	1	1	target	1	440	780	123231	13.328	13.301	13.354
ProbeTrack11	19	ProbeTrack	11.2	SCS215a	20101110.144908	20101110.150303	8	0.013328	60	10	60-180	60	141	GapExp	0	130	2	3	1	target	1	480	760	123991	13.328	13.296	13.354
ProbeTrack11	19	ProbeTrack	11.2	SCS215a	20101110.144908	20101110.150309	8	0.013328	60	0	60-180	60	162	GapExp	0	131	2	0	0	distractor	1	707	647	124638	13.328	13.094	13.560
ProbeTrack11	19	ProbeTrack	11.2	SCS215a	20101110.144908	20101110.150316	8	0.013328	60	10	60-180	60	138	GapExp	0	132	2	3	1	target	1	467	767	125405	13.328	13.100	13.543
ProbeTrack11	19	ProbeTrack	11.2	SCS215a	20101110.144908	20101110.150322	8	0.013328	60	10	60-180	60	76	GapExp	0	133	2	3	1	target	1	480	760	126165	13.328	13.118	13.550
ProbeTrack11	19	ProbeTrack	11.2	SCS215a	20101110.144908	20101110.150327	8	0.013328	60	10	60-180	60	150	GapExp	0	134	2	45	0	distractor	1	480	760	126925	13.328	13.106	13.555
ProbeTrack11	19	ProbeTrack	11.2	SCS215a	20101110.144908	20101110.150334	8	0.013328	60	0	60-180	60	156	GapExp	0	135	2	3	0	distractor	1	427	787	127712	13.328	13.308	13.346
ProbeTrack11	19	ProbeTrack	11.2	SCS215a	20101110.144908	20101110.150340	8	0.013328	60	10	60-180	60	152	GapExp	0	136	2	1	1	target	1	440	780	128492	13.328	13.307	13.347
ProbeTrack11	19	ProbeTrack	11.2	SCS215a	20101110.144908	20101110.150347	8	0.013328	60	0	60-180	60	78	GapExp	0	137	2	0	0	distractor	1	547	727	129219	13.328	13.306	13.357
ProbeTrack11	19	ProbeTrack	11.2	SCS215a	20101110.144908	20101110.150352	8	0.013328	60	10	60-180	60	68	GapExp	0	138	2	1	1	target	1	867	567	129786	13.328	13.118	13.550
ProbeTrack11	19	ProbeTrack	11.2	SCS215a	20101110.144908	20101110.150357	8	0.013328	60	10	60-180	60	116	GapExp	0	139	2	0	0	distractor	1	467	767	130553	13.328	13.104	13.548
ProbeTrack11	19	ProbeTrack	11.2	SCS215a	20101110.144908	20101110.150403	8	0.013328	60	0	60-180	60	62	GapExp	0	140	2	1	0	distractor	1	520	740	131293	13.328	13.310	13.345
ProbeTrack11	19	ProbeTrack	11.2	SCS215a	20101110.144908	20101110.150408	8	0.013328	60	10	60-180	60	126	GapExp	0	141	2	45	1	target	1	374	813	132106	13.328	12.866	13.790
ProbeTrack11	19	ProbeTrack	11.2	SCS215a	20101110.144908	20101110.150414	8	0.013328	60	0	60-180	60	98	GapExp	0	142	2	1	1	target	1	534	733	132839	13.328	13.288	13.358
ProbeTrack11	19	ProbeTrack	11.2	SCS215a	20101110.144908	20101110.150420	8	0.013328	60	0	60-180	60	67	GapExp	0	143	2	1	0	distractor	1	640	680	133519	13.328	13.092	13.565
ProbeTrack11	19	ProbeTrack	11.2	SCS215a	20101110.144908	20101110.150425	8	0.013328	60	10	60-180	60	119	GapExp	0	144	2	1	0	distractor	1	680	660	134179	13.328	13.101	13.550
ProbeTrack11	19	ProbeTrack	11.2	SCS215a	20101110.144908	20101110.150431	8	0.013328	60	10	60-180	60	146	GapExp	0	145	2	3	0	distractor	1	494	753	134932	13.328	13.102	13.553
ProbeTrack11	19	ProbeTrack	11.2	SCS215a	20101110.144908	20101110.150437	8	0.013328	60	0	60-180	60	113	GapExp	0	146	2	0	0	distractor	1	507	747	135679	13.328	13.186	13.471
ProbeTrack11	19	ProbeTrack	11.2	SCS215a	20101110.144908	20101110.150443	8	0.013328	60	0	60-180	60	167	GapExp	0	147	2	1	0	distractor	1	454	773	136452	13.328	13.306	13.348
ProbeTrack11	19	ProbeTrack	11.2	SCS215a	20101110.144908	20101110.150449	8	0.013328	60	10	60-180	60	133	GapExp	0	148	2	1	0	distractor	1	414	793	137245	13.328	13.308	13.345
ProbeTrack11	19	ProbeTrack	11.2	SCS215a	20101110.144908	20101110.150455	8	0.013328	60	0	60-180	60	159	GapExp	0	149	2	0	0	distractor	1	400	800	138045	13.328	13.273	13.405
ProbeTrack11	19	ProbeTrack	11.2	SCS215a	20101110.144908	20101110.150501	8	0.013328	60	0	60-180	60	76	GapExp	0	150	2	1	1	target	1	454	773	138818	13.398	13.049	26.651
ProbeTrack11	19	ProbeTrack	11.2	SCS215a	20101110.144908	20101110.150506	8	0.013328	60	10	60-180	60	98	GapExp	0	151	2	45	1	target	1	387	807	139625	13.379	13.105	26.641
ProbeTrack11	19	ProbeTrack	11.2	SCS215a	20101110.144908	20101110.150512	8	0.013328	60	10	60-180	60	145	GapExp	0	152	2	0	0	target	0	547	-1000	138625	13.328	13.300	13.378
ProbeTrack11	19	ProbeTrack	11.2	SCS215a	20101110.144908	20101110.150519	8	0.013328	60	0	60-180	60	116	GapExp	0	153	2	3	0	distractor	1	574	713	139338	13.328	12.960	13.710
ProbeTrack11	19	ProbeTrack	11.2	SCS215a	20101110.144908	20101110.150526	8	0.013328	60	0	60-180	60	82	GapExp	0	154	2	1	1	target	1	587	707	140045	13.328	13.305	13.347
ProbeTrack11	19	ProbeTrack	11.2	SCS215a	20101110.144908	20101110.150531	8	0.013328	60	10	60-180	60	177	GapExp	0	155	2	1	1	target	1	547	727	140772	13.328	13.298	13.357
ProbeTrack11	19	ProbeTrack	11.2	SCS215a	20101110.144908	20101110.150538	8	0.013328	60	10	60-180	60	151	GapExp	0	156	2	3	1	target	1	307	847	141619	13.326	12.834	13.808
ProbeTrack11	19	ProbeTrack	11.2	SCS215a	20101110.144908	20101110.150544	8	0.013328	60	0	60-180	60	127	GapExp	0	157	2	3	0	distractor	1	494	753	142372	13.328	13.148	13.496
ProbeTrack11	19	ProbeTrack	11.2	SCS215a	20101110.144908	20101110.150550	8	0.013328	60	10	60-180	60	76	GapExp	0	158	2	0	1	target	1	387	807	143179	13.328	13.100	13.550
ProbeTrack11	19	ProbeTrack	11.2	SCS215a	20101110.144908	20101110.150555	8	0.013328	60	0	60-180	60	136	GapExp	0	159	2	45	1	target	1	414	793	143972	13.328	13.112	13.549
ProbeTrack11	19	ProbeTrack	11.2	SCS215a	20101110.144908	20101110.150601	8	0.013328	60	10	60-180	60	160	GapExp	0	160	2	1	1	target	1	360	820	144792	13.328	12.984	13.681
ProbeTrack11	19	ProbeTrack	11.2	SCS215a	20101110.144908	20101110.150608	8	0.013328	60	0	60-180	60	119	GapExp	0	161	2	3	0	distractor	1	880	560	145352	13.328	13.264	13.385
ProbeTrack11	19	ProbeTrack	11.2	SCS215a	20101110.144908	20101110.150614	8	0.013328	60	10	60-180	60	103	GapExp	0	162	2	45	0	distractor	1	480	760	146112	13.328	12.870	13.785
ProbeTrack11	19	ProbeTrack	11.2	SCS215a	20101110.144908	20101110.150620	8	0.013328	60	0	60-180	60	120	GapExp	0	163	2	3	0	distractor	1	440	780	146892	13.328	13.311	13.344
ProbeTrack11	19	ProbeTrack	11.2	SCS215a	20101110.144908	20101110.150626	8	0.013328	60	0	60-180	60	153	GapExp	0	164	2	45	0	distractor	1	560	720	147612	13.328	13.308	13.346
ProbeTrack11	19	ProbeTrack	11.2	SCS215a	20101110.144908	20101110.150633	8	0.013328	60	10	60-180	60	148	GapExp	0	165	2	45	1	target	1	547	727	148339	13.328	13.076	13.586
ProbeTrack11	19	ProbeTrack	11.2	SCS215a	20101110.144908	20101110.150640	8	0.013328	60	0	60-180	60	85	GapExp	0	166	2	1	1	target	1	560	720	149059	13.328	13.054	13.607
ProbeTrack11	19	ProbeTrack	11.2	SCS215a	20101110.144908	20101110.150645	8	0.013328	60	10	60-180	60	156	GapExp	0	167	2	0	0	target	0	427	-1000	148059	13.328	13.101	13.562
ProbeTrack11	19	ProbeTrack	11.2	SCS215a	20101110.144908	20101110.150651	8	0.013328	60	10	60-180	60	107	GapExp	0	168	2	1	0	distractor	1	467	767	148826	13.328	13.309	13.344
ProbeTrack11	19	ProbeTrack	11.2	SCS215a	20101110.144908	20101110.150657	8	0.013328	60	10	60-180	60	177	GapExp	0	169	2	0	0	distractor	1	627	687	149513	13.328	12.954	13.703
ProbeTrack11	19	ProbeTrack	11.2	SCS215a	20101110.144908	20101110.150704	8	0.013328	60	0	60-180	60	133	GapExp	0	170	2	1	0	distractor	1	574	713	150226	13.328	13.306	13.347
ProbeTrack11	19	ProbeTrack	11.2	SCS215a	20101110.144908	20101110.150710	8	0.013328	60	0	60-180	60	127	GapExp	0	171	2	45	0	distractor	1	414	793	151019	13.328	13.307	13.353
ProbeTrack11	19	ProbeTrack	11.2	SCS215a	20101110.144908	20101110.150717	8	0.013328	60	0	60-180	60	69	GapExp	0	172	2	1	0	distractor	1	560	720	151739	13.328	12.985	13.670
ProbeTrack11	19	ProbeTrack	11.2	SCS215a	20101110.144908	20101110.150722	8	0.013328	60	10	60-180	60	74	GapExp	0	173	2	1	1	target	1	507	747	152486	13.328	13.112	13.556
ProbeTrack11	19	ProbeTrack	11.2	SCS215a	20101110.144908	20101110.150727	8	0.013328	60	0	60-180	60	116	GapExp	0	174	2	45	1	target	1	400	800	153286	13.328	12.939	13.725
ProbeTrack11	19	ProbeTrack	11.2	SCS215a	20101110.144908	20101110.150734	8	0.013328	60	10	60-180	60	117	GapExp	0	175	2	45	0	target	0	454	-1000	152286	13.328	13.106	13.556
ProbeTrack11	19	ProbeTrack	11.2	SCS215a	20101110.144908	20101110.150741	8	0.013328	60	10	60-180	60	172	GapExp	0	176	2	0	0	target	0	534	-1000	151286	13.328	13.267	13.384
ProbeTrack11	19	ProbeTrack	11.2	SCS215a	20101110.144908	20101110.150750	8	0.013328	60	0	60-180	60	146	GapExp	0	177	2	1	1	target	1	427	787	152073	13.327	13.308	13.346
ProbeTrack11	19	ProbeTrack	11.2	SCS215a	20101110.144908	20101110.150757	8	0.013328	60	0	60-180	60	172	GapExp	0	178	2	0	1	target	1	400	800	152873	13.328	13.112	13.552
ProbeTrack11	19	ProbeTrack	11.2	SCS215a	20101110.144908	20101110.150803	8	0.013328	60	0	60-180	60	94	GapExp	0	179	2	3	1	target	1	574	713	153586	13.328	13.305	13.353
ProbeTrack11	19	ProbeTrack	11.2	SCS215a	20101110.144908	20101110.150808	8	0.013328	60	0	60-180	60	69	GapExp	0	180	2	0	1	target	1	520	740	154326	13.328	13.309	13.347
ProbeTrack11	19	ProbeTrack	11.2	SCS215a	20101110.144908	20101110.150813	8	0.013328	60	0	60-180	60	91	GapExp	0	181	2	45	1	target	1	347	827	155153	13.328	13.309	13.348
ProbeTrack11	19	ProbeTrack	11.2	SCS215a	20101110.144908	20101110.150820	8	0.013328	60	10	60-180	60	109	GapExp	0	182	2	0	0	distractor	1	627	687	155840	13.328	12.961	13.693
ProbeTrack11	19	ProbeTrack	11.2	SCS215a	20101110.144908	20101110.150826	8	0.013328	60	10	60-180	60	170	GapExp	0	183	2	3	1	target	1	440	780	156620	13.328	13.307	13.347
ProbeTrack11	19	ProbeTrack	11.2	SCS215a	20101110.144908	20101110.150833	8	0.013328	60	0	60-180	60	137	GapExp	0	184	2	45	0	distractor	1	467	767	157387	13.328	13.276	13.378
ProbeTrack11	19	ProbeTrack	11.2	SCS215a	20101110.144908	20101110.150839	8	0.013328	60	10	60-180	60	81	GapExp	0	185	2	1	1	target	1	400	800	158187	13.328	13.308	13.347
ProbeTrack11	19	ProbeTrack	11.2	SCS215a	20101110.144908	20101110.150845	8	0.013328	60	10	60-180	60	73	GapExp	0	186	2	1	1	target	1	414	793	158980	13.328	13.054	13.598
ProbeTrack11	19	ProbeTrack	11.2	SCS215a	20101110.144908	20101110.150850	8	0.013328	60	10	60-180	60	63	GapExp	0	187	2	1	0	distractor	1	560	720	159700	13.328	12.880	13.779
ProbeTrack11	19	ProbeTrack	11.2	SCS215a	20101110.144908	20101110.150855	8	0.013328	60	10	60-180	60	79	GapExp	0	188	2	45	1	target	1	365	818	160518	13.328	13.051	13.608
ProbeTrack11	19	ProbeTrack	11.2	SCS215a	20101110.144908	20101110.150901	8	0.013328	60	0	60-180	60	135	GapExp	0	189	2	3	1	target	1	893	554	161072	13.328	13.302	13.348
ProbeTrack11	19	ProbeTrack	11.2	SCS215a	20101110.144908	20101110.150907	8	0.013328	60	0	60-180	60	175	GapExp	0	190	2	3	1	target	1	507	747	161819	13.328	12.862	13.797
ProbeTrack11	19	ProbeTrack	11.2	SCS215a	20101110.144908	20101110.150914	8	0.013328	60	10	60-180	60	149	GapExp	0	191	2	0	0	distractor	1	534	733	162552	13.328	12.890	13.771
ProbeTrack11	19	ProbeTrack	11.2	SCS215a	20101110.144908	20101110.150920	8	0.013328	60	10	60-180	60	86	GapExp	0	192	2	45	0	distractor	1	454	773	163325	13.328	13.104	13.565
ProbeTrack11	19	ProbeTrack	11.2	SCS215a	20101110.144908	20101110.150926	8	0.013328	60	10	60-180	60	80	GapExp	0	193	2	3	0	distractor	1	467	767	164092	13.328	13.099	13.562
ProbeTrack11	19	ProbeTrack	11.2	SCS215a	20101110.144908	20101110.150931	8	0.013328	60	10	60-180	60	69	GapExp	0	194	2	0	1	target	1	587	707	164799	13.328	13.306	13.348
ProbeTrack11	19	ProbeTrack	11.2	SCS215a	20101110.144908	20101110.150936	8	0.013328	60	10	60-180	60	95	GapExp	0	195	2	3	1	target	1	347	827	165626	13.328	13.019	13.644
ProbeTrack11	19	ProbeTrack	11.2	SCS215a	20101110.144908	20101110.150942	8	0.013328	60	0	60-180	60	63	GapExp	0	196	2	3	0	distractor	1	480	760	166386	13.328	13.311	13.346
ProbeTrack11	19	ProbeTrack	11.2	SCS215a	20101110.144908	20101110.150947	8	0.013328	60	0	60-180	60	71	GapExp	0	197	2	0	0	distractor	1	507	747	167133	13.327	13.012	13.641
ProbeTrack11	19	ProbeTrack	11.2	SCS215a	20101110.144908	20101110.150953	8	0.013328	60	0	60-180	60	62	GapExp	0	198	2	1	1	target	1	480	760	167893	13.328	13.302	13.345
ProbeTrack11	19	ProbeTrack	11.2	SCS215a	20101110.144908	20101110.150958	8	0.013328	60	10	60-180	60	82	GapExp	0	199	2	0	1	target	1	347	827	168720	13.328	13.310	13.347
ProbeTrack11	19	ProbeTrack	11.2	SCS215a	20101110.144908	20101110.151003	8	0.013328	60	10	60-180	60	164	GapExp	0	200	2	1	1	target	1	400	800	169520	13.328	13.102	13.548
ProbeTrack11	19	ProbeTrack	11.2	SCS215a	20101110.144908	20101110.151009	8	0.013328	60	0	60-180	60	172	GapExp	0	201	2	3	1	target	1	414	793	170313	13.328	12.879	13.772
ProbeTrack11	19	ProbeTrack	11.2	SCS215a	20101110.144908	20101110.151016	8	0.013328	60	10	60-180	60	110	GapExp	0	202	2	0	1	target	1	547	727	171040	13.328	12.960	13.689
ProbeTrack11	19	ProbeTrack	11.2	SCS215a	20101110.144908	20101110.151022	8	0.013328	60	0	60-180	60	157	GapExp	0	203	2	1	1	target	1	387	807	171847	13.328	13.107	13.542
ProbeTrack11	19	ProbeTrack	11.2	SCS215a	20101110.144908	20101110.151028	8	0.013328	60	10	60-180	60	132	GapExp	0	204	2	0	1	target	1	360	820	172667	13.328	13.001	13.661
ProbeTrack11	19	ProbeTrack	11.2	SCS215a	20101110.144908	20101110.151034	8	0.013328	60	10	60-180	60	76	GapExp	0	205	2	3	1	target	1	454	773	173440	13.328	13.309	13.353
ProbeTrack11	19	ProbeTrack	11.2	SCS215a	20101110.144908	20101110.151039	8	0.013328	60	10	60-180	60	68	GapExp	0	206	2	45	1	target	1	320	840	174280	13.328	13.311	13.346
ProbeTrack11	19	ProbeTrack	11.2	SCS215a	20101110.144908	20101110.151044	8	0.013328	60	0	60-180	60	131	GapExp	0	207	2	0	1	target	1	294	853	175133	13.328	12.870	13.791
ProbeTrack11	19	ProbeTrack	11.2	SCS215a	20101110.144908	20101110.151050	8	0.013328	60	0	60-180	60	155	GapExp	0	208	2	1	1	target	1	360	820	175953	13.328	12.920	13.743
ProbeTrack11	19	ProbeTrack	11.2	SCS215a	20101110.144908	20101110.151056	8	0.013328	60	0	60-180	60	150	GapExp	0	209	2	0	0	distractor	1	480	760	176713	13.328	13.100	13.549
ProbeTrack11	19	ProbeTrack	11.2	SCS215a	20101110.144908	20101110.151102	8	0.013328	60	10	60-180	60	164	GapExp	0	210	2	1	1	target	1	294	853	177566	13.328	13.307	13.351
ProbeTrack11	19	ProbeTrack	11.2	SCS215a	20101110.144908	20101110.151108	8	0.013328	60	10	60-180	60	104	GapExp	0	211	2	3	1	target	1	294	853	178419	13.328	13.152	13.498
ProbeTrack11	19	ProbeTrack	11.2	SCS215a	20101110.144908	20101110.151114	8	0.013328	60	10	60-180	60	171	GapExp	0	212	2	1	1	target	1	307	847	179266	13.328	13.304	13.344
ProbeTrack11	19	ProbeTrack	11.2	SCS215a	20101110.144908	20101110.151120	8	0.013328	60	10	60-180	60	141	GapExp	0	213	2	0	0	distractor	1	480	760	180026	13.328	13.308	13.348
ProbeTrack11	19	ProbeTrack	11.2	SCS215a	20101110.144908	20101110.151126	8	0.013328	60	0	60-180	60	152	GapExp	0	214	2	45	0	distractor	1	547	727	180753	13.328	13.056	13.589
ProbeTrack11	19	ProbeTrack	11.2	SCS215a	20101110.144908	20101110.151133	8	0.013328	60	10	60-180	60	85	GapExp	0	215	2	45	0	distractor	1	440	780	181533	13.328	13.106	13.545
ProbeTrack11	19	ProbeTrack	11.2	SCS215a	20101110.144908	20101110.151139	8	0.013328	60	0	60-180	60	112	GapExp	0	216	2	45	0	distractor	1	987	507	182040	13.328	12.969	13.675
ProbeTrack11	19	ProbeTrack	11.2	SCS215a	20101110.144908	20101110.151146	8	0.013328	60	10	60-180	60	165	GapExp	0	217	2	3	0	distractor	1	347	827	182867	13.328	13.105	13.553
ProbeTrack11	19	ProbeTrack	11.2	SCS215a	20101110.144908	20101110.151152	8	0.013328	60	10	60-180	60	133	GapExp	0	218	2	3	1	target	1	374	813	183680	13.328	13.133	13.529
ProbeTrack11	19	ProbeTrack	11.2	SCS215a	20101110.144908	20101110.151158	8	0.013328	60	10	60-180	60	91	GapExp	0	219	2	1	1	target	1	387	807	184487	13.328	13.288	13.356
ProbeTrack11	19	ProbeTrack	11.2	SCS215a	20101110.144908	20101110.151204	8	0.013328	60	0	60-180	60	130	GapExp	0	220	2	1	0	distractor	1	440	780	185267	13.328	13.297	13.354
ProbeTrack11	19	ProbeTrack	11.2	SCS215a	20101110.144908	20101110.151210	8	0.013328	60	10	60-180	60	155	GapExp	0	221	2	3	0	distractor	1	347	827	186094	13.328	13.308	13.346
ProbeTrack11	19	ProbeTrack	11.2	SCS215a	20101110.144908	20101110.151217	8	0.013328	60	10	60-180	60	128	GapExp	0	222	2	45	1	target	1	440	780	186874	13.328	12.902	13.754
ProbeTrack11	19	ProbeTrack	11.2	SCS215a	20101110.144908	20101110.151223	8	0.013328	60	10	60-180	60	136	GapExp	0	223	2	0	0	target	0	400	-1000	185874	13.328	12.871	13.765
ProbeTrack11	19	ProbeTrack	11.2	SCS215a	20101110.144908	20101110.151229	8	0.013328	60	10	60-180	60	112	GapExp	0	224	2	45	0	32	-3	454	-1000	184874	13.328	12.961	13.691
ProbeTrack11	19	ProbeTrack	11.2	SCS215a	20101110.144908	20101110.151236	8	0.013328	60	10	60-180	60	124	GapExp	0	225	2	0	0	distractor	1	387	807	185681	13.328	13.309	13.348
ProbeTrack11	19	ProbeTrack	11.2	SCS215a	20101110.144908	20101110.151246	8	0.013328	60	0	60-180	60	143	GapExp	0	226	2	45	1	target	1	347	827	186508	13.328	12.944	13.704
ProbeTrack11	19	ProbeTrack	11.2	SCS215a	20101110.144908	20101110.151252	8	0.013328	60	10	60-180	60	82	GapExp	0	227	2	1	1	target	1	454	773	187281	13.328	12.959	13.677
ProbeTrack11	19	ProbeTrack	11.2	SCS215a	20101110.144908	20101110.151258	8	0.013328	60	0	60-180	60	147	GapExp	0	228	2	3	1	target	1	347	827	188108	13.328	13.072	13.584
ProbeTrack11	19	ProbeTrack	11.2	SCS215a	20101110.144908	20101110.151303	8	0.013328	60	10	60-180	60	64	GapExp	0	229	2	1	1	target	1	440	780	188888	13.328	12.951	13.716
ProbeTrack11	19	ProbeTrack	11.2	SCS215a	20101110.144908	20101110.151308	8	0.013328	60	0	60-180	60	73	GapExp	0	230	2	3	1	target	1	374	813	189701	13.328	13.306	13.345
ProbeTrack11	19	ProbeTrack	11.2	SCS215a	20101110.144908	20101110.151313	8	0.013328	60	0	60-180	60	64	GapExp	0	231	2	1	1	target	1	374	813	190514	13.328	12.883	13.773
ProbeTrack11	19	ProbeTrack	11.2	SCS215a	20101110.144908	20101110.151318	8	0.013328	60	0	60-180	60	110	GapExp	0	232	2	45	1	target	1	347	827	191341	13.328	13.105	13.566
ProbeTrack11	19	ProbeTrack	11.2	SCS215a	20101110.144908	20101110.151324	8	0.013328	60	10	60-180	60	73	GapExp	0	233	2	1	1	target	1	707	647	191988	13.328	13.100	13.568
ProbeTrack11	19	ProbeTrack	11.2	SCS215a	20101110.144908	20101110.151330	8	0.013328	60	10	60-180	60	91	GapExp	0	234	2	3	1	target	1	347	827	192815	13.328	12.970	13.674
ProbeTrack11	19	ProbeTrack	11.2	SCS215a	20101110.144908	20101110.151335	8	0.013328	60	0	60-180	60	90	GapExp	0	235	2	45	0	distractor	1	494	753	193568	13.328	13.309	13.347
ProbeTrack11	19	ProbeTrack	11.2	SCS215a	20101110.144908	20101110.151341	8	0.013328	60	0	60-180	60	156	GapExp	0	236	2	45	1	target	1	294	853	194421	13.328	13.308	13.351
ProbeTrack11	19	ProbeTrack	11.2	SCS215a	20101110.144908	20101110.151348	8	0.013328	60	10	60-180	60	149	GapExp	0	237	2	0	1	target	1	467	767	195188	13.328	13.306	13.356
ProbeTrack11	19	ProbeTrack	11.2	SCS215a	20101110.144908	20101110.151354	8	0.013328	60	0	60-180	60	107	GapExp	0	238	2	0	0	distractor	1	480	760	195948	13.328	13.310	13.354
ProbeTrack11	19	ProbeTrack	11.2	SCS215a	20101110.144908	20101110.151400	8	0.013328	60	10	60-180	60	158	GapExp	0	239	2	45	0	distractor	1	454	773	196721	13.328	13.111	13.553
ProbeTrack11	19	ProbeTrack	11.2	SCS215a	20101110.144908	20101110.151407	8	0.013328	60	10	60-180	60	142	GapExp	0	240	2	45	0	distractor	1	560	720	197441	13.328	13.308	13.345
ProbeTrack11	19	ProbeTrack	11.2	SCS215a	20101110.144908	20101110.151414	8	0.013328	60	10	60-180	60	61	GapExp	0	241	2	3	0	distractor	1	707	647	198088	13.330	13.099	13.778
ProbeTrack11	19	ProbeTrack	11.2	SCS215a	20101110.144908	20101110.151419	8	0.013328	60	0	60-180	60	77	GapExp	0	242	2	0	1	target	1	480	760	198848	13.327	13.308	13.356
ProbeTrack11	19	ProbeTrack	11.2	SCS215a	20101110.144908	20101110.151424	8	0.013328	60	0	60-180	60	118	GapExp	0	243	2	45	1	target	1	414	793	199641	13.328	13.307	13.348
ProbeTrack11	19	ProbeTrack	11.2	SCS215a	20101110.144908	20101110.151430	8	0.013328	60	0	60-180	60	180	GapExp	0	244	2	1	0	distractor	1	360	820	200461	13.328	13.307	13.346
ProbeTrack11	19	ProbeTrack	11.2	SCS215a	20101110.144908	20101110.151436	8	0.013328	60	10	60-180	60	99	GapExp	0	245	2	1	0	distractor	1	467	767	201228	13.328	13.003	13.661
ProbeTrack11	19	ProbeTrack	11.2	SCS215a	20101110.144908	20101110.151442	8	0.013328	60	10	60-180	60	178	GapExp	0	246	2	45	0	distractor	1	467	767	201995	13.328	13.309	13.349
ProbeTrack11	19	ProbeTrack	11.2	SCS215a	20101110.144908	20101110.151450	8	0.013328	60	10	60-180	60	146	GapExp	0	247	2	3	0	distractor	1	507	747	202742	13.328	13.309	13.355
ProbeTrack11	19	ProbeTrack	11.2	SCS215a	20101110.144908	20101110.151456	8	0.013328	60	0	60-180	60	84	GapExp	0	248	2	1	1	target	1	494	753	203495	13.328	13.085	13.565
ProbeTrack11	19	ProbeTrack	11.2	SCS215a	20101110.144908	20101110.151501	8	0.013328	60	10	60-180	60	159	GapExp	0	249	2	1	1	target	1	427	787	204282	13.328	13.106	13.552
ProbeTrack11	19	ProbeTrack	11.2	SCS215a	20101110.144908	20101110.151508	8	0.013328	60	0	60-180	60	134	GapExp	0	250	2	1	1	target	1	467	767	205049	13.328	13.100	13.555
ProbeTrack11	19	ProbeTrack	11.2	SCS215a	20101110.144908	20101110.151513	8	0.013328	60	10	60-180	60	97	GapExp	0	251	2	1	1	distractor	0	693	-1000	204049	13.328	13.310	13.348
ProbeTrack11	19	ProbeTrack	11.2	SCS215a	20101110.144908	20101110.151519	8	0.013328	60	10	60-180	60	159	GapExp	0	252	2	0	0	target	0	454	-1000	203049	13.328	13.306	13.347
ProbeTrack11	19	ProbeTrack	11.2	SCS215a	20101110.144908	20101110.151526	8	0.013328	60	0	60-180	60	172	GapExp	0	253	2	1	1	target	1	454	773	203822	13.328	13.104	13.551
ProbeTrack11	19	ProbeTrack	11.2	SCS215a	20101110.144908	20101110.151535	8	0.013328	60	0	60-180	60	178	GapExp	0	254	2	45	1	target	1	387	807	204629	13.328	13.108	13.552
ProbeTrack11	19	ProbeTrack	11.2	SCS215a	20101110.144908	20101110.151543	8	0.013328	60	0	60-180	60	153	GapExp	0	255	2	1	0	distractor	1	454	773	205402	13.328	13.290	13.374
ProbeTrack11	19	ProbeTrack	11.2	SCS215a	20101110.144908	20101110.151549	8	0.013328	60	0	60-180	60	91	GapExp	0	256	2	0	0	distractor	1	587	707	206109	13.328	13.309	13.346
ProbeTrack11	19	ProbeTrack	11.2	SCS215a	20101110.144908	20101110.151554	8	0.013328	60	0	60-180	60	93	GapExp	0	257	2	1	1	target	1	454	773	206882	13.328	13.307	13.347
ProbeTrack11	19	ProbeTrack	11.2	SCS215a	20101110.144908	20101110.151559	8	0.013328	60	10	60-180	60	120	GapExp	0	258	2	3	1	target	1	374	813	207695	13.328	12.937	13.716
ProbeTrack11	19	ProbeTrack	11.2	SCS215a	20101110.144908	20101110.151605	8	0.013328	60	10	60-180	60	148	GapExp	0	259	2	3	0	distractor	1	547	727	208422	13.328	13.111	13.511
ProbeTrack11	19	ProbeTrack	11.2	SCS215a	20101110.144908	20101110.151611	8	0.013328	60	0	60-180	60	174	GapExp	0	260	2	45	1	target	1	374	813	209235	13.328	12.877	13.766
ProbeTrack11	19	ProbeTrack	11.2	SCS215a	20101110.144908	20101110.151618	8	0.013328	60	0	60-180	60	161	GapExp	0	261	2	3	0	distractor	1	414	793	210028	13.328	13.299	13.357
ProbeTrack11	19	ProbeTrack	11.2	SCS215a	20101110.144908	20101110.151624	8	0.013328	60	0	60-180	60	93	GapExp	0	262	2	1	0	distractor	1	494	753	210781	13.328	13.306	13.344
ProbeTrack11	19	ProbeTrack	11.2	SCS215a	20101110.144908	20101110.151630	8	0.013328	60	10	60-180	60	152	GapExp	0	263	2	0	1	target	1	440	780	211561	13.328	13.308	13.346
ProbeTrack11	19	ProbeTrack	11.2	SCS215a	20101110.144908	20101110.151636	8	0.013328	60	10	60-180	60	83	GapExp	0	264	2	1	1	target	1	400	800	212361	13.328	13.312	13.344
ProbeTrack11	19	ProbeTrack	11.2	SCS215a	20101110.144908	20101110.151641	8	0.013328	60	0	60-180	60	176	GapExp	0	265	2	3	1	target	1	347	827	213188	13.328	13.098	13.543
ProbeTrack11	19	ProbeTrack	11.2	SCS215a	20101110.144908	20101110.151647	8	0.013328	60	0	60-180	60	130	GapExp	0	266	2	45	0	distractor	1	427	787	213975	13.328	13.105	13.566
ProbeTrack11	19	ProbeTrack	11.2	SCS215a	20101110.144908	20101110.151654	8	0.013328	60	10	60-180	60	80	GapExp	0	267	2	1	0	distractor	1	507	747	214722	13.328	13.301	13.356
ProbeTrack11	19	ProbeTrack	11.2	SCS215a	20101110.144908	20101110.151659	8	0.013328	60	0	60-180	60	155	GapExp	0	268	2	0	1	target	1	507	747	215469	13.328	13.305	13.351
ProbeTrack11	19	ProbeTrack	11.2	SCS215a	20101110.144908	20101110.151705	8	0.013328	60	0	60-180	60	92	GapExp	0	269	2	45	1	target	1	507	747	216216	13.328	13.302	13.355
ProbeTrack11	19	ProbeTrack	11.2	SCS215a	20101110.144908	20101110.151711	8	0.013328	60	0	60-180	60	126	GapExp	0	270	2	0	1	target	1	360	820	217036	13.328	13.309	13.345
ProbeTrack11	19	ProbeTrack	11.2	SCS215a	20101110.144908	20101110.151716	8	0.013328	60	10	60-180	60	136	GapExp	0	271	2	45	1	distractor	0	627	-1000	216036	13.328	13.083	13.567
ProbeTrack11	19	ProbeTrack	11.2	SCS215a	20101110.144908	20101110.151723	8	0.013328	60	10	60-180	60	161	GapExp	0	272	2	0	1	target	1	347	827	216863	13.327	13.058	13.354
ProbeTrack11	19	ProbeTrack	11.2	SCS215a	20101110.144908	20101110.151730	8	0.013328	60	10	60-180	60	88	GapExp	0	273	2	45	1	target	1	414	793	217656	13.328	13.098	13.557
ProbeTrack11	19	ProbeTrack	11.2	SCS215a	20101110.144908	20101110.151736	8	0.013328	60	10	60-180	60	96	GapExp	0	274	2	1	0	distractor	1	440	780	218436	13.328	12.868	13.797
ProbeTrack11	19	ProbeTrack	11.2	SCS215a	20101110.144908	20101110.151742	8	0.013328	60	0	60-180	60	129	GapExp	0	275	2	45	0	distractor	1	534	733	219169	13.328	13.099	13.547
ProbeTrack11	19	ProbeTrack	11.2	SCS215a	20101110.144908	20101110.151749	8	0.013328	60	0	60-180	60	140	GapExp	0	276	2	0	0	distractor	1	454	773	219942	13.328	13.103	13.550
ProbeTrack11	19	ProbeTrack	11.2	SCS215a	20101110.144908	20101110.151756	8	0.013328	60	10	60-180	60	112	GapExp	0	277	2	45	0	distractor	1	574	713	220655	13.328	13.307	13.348
ProbeTrack11	19	ProbeTrack	11.2	SCS215a	20101110.144908	20101110.151802	8	0.013328	60	10	60-180	60	70	GapExp	0	278	2	1	0	target	0	800	-1000	219655	13.328	13.305	13.352
ProbeTrack11	19	ProbeTrack	11.2	SCS215a	20101110.144908	20101110.151808	8	0.013328	60	10	60-180	60	149	GapExp	0	279	2	3	1	target	1	427	787	220442	13.328	13.309	13.345
ProbeTrack11	19	ProbeTrack	11.2	SCS215a	20101110.144908	20101110.151815	8	0.013328	60	10	60-180	60	152	GapExp	0	280	2	3	0	distractor	1	467	767	221209	13.328	13.307	13.350
ProbeTrack11	19	ProbeTrack	11.2	SCS215a	20101110.144908	20101110.151821	8	0.013328	60	0	60-180	60	135	GapExp	0	281	2	0	0	distractor	1	574	713	221922	13.328	13.297	13.354
ProbeTrack11	19	ProbeTrack	11.2	SCS215a	20101110.144908	20101110.151827	8	0.013328	60	10	60-180	60	71	GapExp	0	282	2	3	0	distractor	1	907	547	222469	13.328	12.941	13.708
ProbeTrack11	19	ProbeTrack	11.2	SCS215a	20101110.144908	20101110.151833	8	0.013328	60	0	60-180	60	106	GapExp	0	283	2	1	0	distractor	1	693	654	223123	13.328	12.914	13.736
ProbeTrack11	19	ProbeTrack	11.2	SCS215a	20101110.144908	20101110.151838	8	0.013328	60	0	60-180	60	71	GapExp	0	284	2	3	1	target	1	547	727	223850	13.328	13.105	13.537
ProbeTrack11	19	ProbeTrack	11.2	SCS215a	20101110.144908	20101110.151843	8	0.013328	60	10	60-180	60	144	GapExp	0	285	2	45	1	target	1	374	813	224663	13.328	13.309	13.352
ProbeTrack11	19	ProbeTrack	11.2	SCS215a	20101110.144908	20101110.151850	8	0.013328	60	10	60-180	60	142	GapExp	0	286	2	45	1	target	1	360	820	225483	13.328	12.931	13.711
ProbeTrack11	19	ProbeTrack	11.2	SCS215a	20101110.144908	20101110.151857	8	0.013328	60	0	60-180	60	77	GapExp	0	287	2	45	0	distractor	1	574	713	226196	13.328	12.916	13.755
ProbeTrack11	19	ProbeTrack	11.2	SCS215a	20101110.144908	20101110.151902	8	0.013328	60	0	60-180	60	124	GapExp	0	288	2	3	1	target	1	440	780	226976	13.328	13.308	13.351
ProbeTrack11	19	ProbeTrack	11.2	SCS215a	20101110.144908	20101110.151909	8	0.013328	60	10	60-180	60	94	GapExp	0	289	2	0	1	target	1	494	753	227729	13.328	12.909	13.737
ProbeTrack11	19	ProbeTrack	11.2	SCS215a	20101110.144908	20101110.151914	8	0.013328	60	10	60-180	60	122	GapExp	0	290	2	1	1	target	1	494	753	228482	13.328	13.108	13.551
ProbeTrack11	19	ProbeTrack	11.2	SCS215a	20101110.144908	20101110.151920	8	0.013328	60	10	60-180	60	152	GapExp	0	291	2	0	1	target	1	427	787	229269	13.328	12.929	13.719
ProbeTrack11	19	ProbeTrack	11.2	SCS215a	20101110.144908	20101110.151926	8	0.013328	60	10	60-180	60	175	GapExp	0	292	2	3	1	target	1	374	813	230082	13.328	13.023	13.627
ProbeTrack11	19	ProbeTrack	11.2	SCS215a	20101110.144908	20101110.151933	8	0.013328	60	10	60-180	60	130	GapExp	0	293	2	3	0	distractor	1	454	773	230855	13.328	13.304	13.350
ProbeTrack11	19	ProbeTrack	11.2	SCS215a	20101110.144908	20101110.151939	8	0.013328	60	0	60-180	60	166	GapExp	0	294	2	3	0	distractor	1	560	720	231575	13.328	12.895	13.773
ProbeTrack11	19	ProbeTrack	11.2	SCS215a	20101110.144908	20101110.151945	8	0.013328	60	0	60-180	60	99	GapExp	0	295	2	45	1	target	1	387	807	232382	13.328	13.303	13.348
ProbeTrack11	19	ProbeTrack	11.2	SCS215a	20101110.144908	20101110.151951	8	0.013328	60	10	60-180	60	106	GapExp	0	296	2	3	1	target	1	334	833	233215	13.328	13.135	13.511
ProbeTrack11	19	ProbeTrack	11.2	SCS215a	20101110.144908	20101110.151957	8	0.013328	60	10	60-180	60	76	GapExp	0	297	2	3	0	distractor	1	520	740	233955	13.328	13.106	13.559
ProbeTrack11	19	ProbeTrack	11.2	SCS215a	20101110.144908	20101110.152002	8	0.013328	60	0	60-180	60	74	GapExp	0	298	2	45	0	distractor	1	560	720	234675	13.328	13.094	13.565
ProbeTrack11	19	ProbeTrack	11.2	SCS215a	20101110.144908	20101110.152008	8	0.013328	60	0	60-180	60	159	GapExp	0	299	2	0	1	target	1	600	700	235375	13.328	13.296	13.368
ProbeTrack11	19	ProbeTrack	11.2	SCS215a	20101110.144908	20101110.152014	8	0.013328	60	0	60-180	60	175	GapExp	0	300	2	3	0	distractor	1	467	767	236142	13.328	13.120	13.548
ProbeTrack11	19	ProbeTrack	11.2	SCS215a	20101110.144908	20101110.152021	8	0.013328	60	0	60-180	60	108	GapExp	0	301	2	3	1	target	1	494	753	236895	13.328	13.307	13.350
ProbeTrack11	19	ProbeTrack	11.2	SCS215a	20101110.144908	20101110.152026	8	0.013328	60	10	60-180	60	127	GapExp	0	302	2	0	1	target	1	387	807	237702	13.437	13.128	27.041
ProbeTrack11	19	ProbeTrack	11.2	SCS215a	20101110.144908	20101110.152032	8	0.013328	60	0	60-180	60	151	GapExp	0	303	2	0	0	distractor	1	427	787	238489	13.328	13.100	13.561
ProbeTrack11	19	ProbeTrack	11.2	SCS215a	20101110.144908	20101110.152038	8	0.013328	60	10	60-180	60	169	GapExp	0	304	2	0	1	target	1	414	793	239282	13.328	13.085	13.563
ProbeTrack11	19	ProbeTrack	11.2	SCS215a	20101110.144908	20101110.152044	8	0.013328	60	0	60-180	60	142	GapExp	0	305	2	0	0	distractor	1	507	747	240029	13.328	12.898	13.750
ProbeTrack11	19	ProbeTrack	11.2	SCS215a	20101110.144908	20101110.152050	8	0.013328	60	10	60-180	60	83	GapExp	0	306	2	3	1	target	1	507	747	240776	13.328	13.300	13.356
ProbeTrack11	19	ProbeTrack	11.2	SCS215a	20101110.144908	20101110.152056	8	0.013328	60	0	60-180	60	110	GapExp	0	307	2	1	0	distractor	1	440	780	241556	13.328	12.876	13.795
ProbeTrack11	19	ProbeTrack	11.2	SCS215a	20101110.144908	20101110.152101	8	0.013328	60	10	60-180	60	163	GapExp	0	308	2	45	1	target	1	414	793	242349	13.328	13.299	13.354
ProbeTrack11	19	ProbeTrack	11.2	SCS215a	20101110.144908	20101110.152108	8	0.013328	60	10	60-180	60	104	GapExp	0	309	2	0	1	target	1	467	767	243116	13.328	13.305	13.356
ProbeTrack11	19	ProbeTrack	11.2	SCS215a	20101110.144908	20101110.152114	8	0.013328	60	0	60-180	60	94	GapExp	0	310	2	1	1	target	1	414	793	243909	13.327	13.100	13.564
ProbeTrack11	19	ProbeTrack	11.2	SCS215a	20101110.144908	20101110.152119	8	0.013328	60	10	60-180	60	145	GapExp	0	311	2	3	0	distractor	1	907	547	244456	13.328	12.933	13.723
ProbeTrack11	19	ProbeTrack	11.2	SCS215a	20101110.144908	20101110.152126	8	0.013328	60	10	60-180	60	105	GapExp	0	312	2	0	1	target	1	520	740	245196	13.328	13.113	13.535
ProbeTrack11	19	ProbeTrack	11.2	SCS215a	20101110.144908	20101110.152132	8	0.013328	60	0	60-180	60	160	GapExp	0	313	2	45	0	32	-3	414	-1000	244196	13.328	13.105	13.562
ProbeTrack11	19	ProbeTrack	11.2	SCS215a	20101110.144908	20101110.152139	8	0.013328	60	10	60-180	60	114	GapExp	0	314	2	3	0	distractor	1	494	753	244949	13.328	13.307	13.347
ProbeTrack11	19	ProbeTrack	11.2	SCS215a	20101110.144908	20101110.152145	8	0.013328	60	10	60-180	60	176	GapExp	0	315	2	45	1	target	1	427	787	245736	13.328	13.306	13.353
ProbeTrack11	19	ProbeTrack	11.2	SCS215a	20101110.144908	20101110.152152	8	0.013328	60	10	60-180	60	142	GapExp	0	316	2	0	0	distractor	1	627	687	246423	13.328	13.307	13.347
ProbeTrack11	19	ProbeTrack	11.2	SCS215a	20101110.144908	20101110.152158	8	0.013328	60	0	60-180	60	105	GapExp	0	317	2	1	1	target	1	547	727	247150	13.328	12.887	13.749
ProbeTrack11	19	ProbeTrack	11.2	SCS215a	20101110.144908	20101110.152204	8	0.013328	60	10	60-180	60	101	GapExp	0	318	2	0	0	distractor	1	560	720	247870	13.328	13.092	13.548
ProbeTrack11	19	ProbeTrack	11.2	SCS215a	20101110.144908	20101110.152209	8	0.013328	60	0	60-180	60	154	GapExp	0	319	2	1	0	distractor	1	454	773	248643	13.328	12.904	13.746
ProbeTrack11	19	ProbeTrack	11.2	SCS215a	20101110.144908	20101110.152215	8	0.013328	60	10	60-180	60	173	GapExp	0	320	2	3	0	distractor	1	400	800	249443	13.328	13.112	13.544
ProbeTrack11	19	ProbeTrack	11.2	SCS215a	20101110.144908	20101110.152223	8	0.013328	60	0	60-180	60	120	GapExp	0	321	2	0	0	distractor	1	494	753	250196	13.328	12.905	13.754
ProbeTrack11	19	ProbeTrack	11.2	SCS215a	20101110.144908	20101110.152229	8	0.013328	60	0	60-180	60	87	GapExp	0	322	2	1	1	target	1	467	767	250963	13.328	13.309	13.346
ProbeTrack11	19	ProbeTrack	11.2	SCS215a	20101110.144908	20101110.152234	8	0.013328	60	0	60-180	60	73	GapExp	0	323	2	45	0	distractor	1	387	807	251770	13.328	13.307	13.347
ProbeTrack11	19	ProbeTrack	11.2	SCS215a	20101110.144908	20101110.152240	8	0.013328	60	10	60-180	60	115	GapExp	0	324	2	3	1	target	1	374	813	252583	13.328	12.890	13.771
ProbeTrack11	19	ProbeTrack	11.2	SCS215a	20101110.144908	20101110.152245	8	0.013328	60	10	60-180	60	147	GapExp	0	325	2	1	0	distractor	1	507	747	253330	13.328	12.912	13.758
ProbeTrack11	19	ProbeTrack	11.2	SCS215a	20101110.144908	20101110.152252	8	0.013328	60	0	60-180	60	99	GapExp	0	326	2	1	1	target	1	400	800	254130	13.328	13.099	13.557
ProbeTrack11	19	ProbeTrack	11.2	SCS215a	20101110.144908	20101110.152257	8	0.013328	60	10	60-180	60	114	GapExp	0	327	2	0	0	distractor	1	427	787	254917	13.328	12.877	13.779
ProbeTrack11	19	ProbeTrack	11.2	SCS215a	20101110.144908	20101110.152303	8	0.013328	60	0	60-180	60	163	GapExp	0	328	2	0	1	target	1	454	773	255690	13.328	13.301	13.357
ProbeTrack11	19	ProbeTrack	11.2	SCS215a	20101110.144908	20101110.152309	8	0.013328	60	0	60-180	60	62	GapExp	0	329	2	45	1	target	1	427	787	256477	13.328	13.239	13.403
ProbeTrack11	19	ProbeTrack	11.2	SCS215a	20101110.144908	20101110.152316	8	0.013328	60	0	60-180	60	92	GapExp	0	330	2	45	1	target	1	387	807	257284	13.328	13.308	13.346
ProbeTrack11	19	ProbeTrack	11.2	SCS215a	20101110.144908	20101110.152322	8	0.013328	60	10	60-180	60	167	GapExp	0	331	2	3	0	target	0	520	-1000	256284	13.328	13.310	13.349
ProbeTrack11	19	ProbeTrack	11.2	SCS215a	20101110.144908	20101110.152328	8	0.013328	60	0	60-180	60	174	GapExp	0	332	2	0	0	distractor	1	600	700	256984	13.328	12.934	13.728
ProbeTrack11	19	ProbeTrack	11.2	SCS215a	20101110.144908	20101110.152335	8	0.013328	60	0	60-180	60	160	GapExp	0	333	2	1	0	distractor	1	560	720	257704	13.328	13.038	13.634
ProbeTrack11	19	ProbeTrack	11.2	SCS215a	20101110.144908	20101110.152341	8	0.013328	60	0	60-180	60	126	GapExp	0	334	2	45	0	distractor	1	547	727	258431	13.328	12.861	13.797
ProbeTrack11	19	ProbeTrack	11.2	SCS215a	20101110.144908	20101110.152348	8	0.013328	60	10	60-180	60	71	GapExp	0	335	2	0	1	target	1	454	773	259204	13.328	13.104	13.547
ProbeTrack11	19	ProbeTrack	11.2	SCS215a	20101110.144908	20101110.152353	8	0.013328	60	10	60-180	60	177	GapExp	0	336	2	45	0	distractor	1	507	747	259951	13.328	12.891	13.757
ProbeTrack11	19	ProbeTrack	11.2	SCS215a	20101110.144908	20101110.152400	8	0.013328	60	0	60-180	60	145	GapExp	0	337	2	45	0	distractor	1	480	760	260711	13.416	13.094	26.647
ProbeTrack11	19	ProbeTrack	11.2	SCS215a	20101110.144908	20101110.152407	8	0.013328	60	10	60-180	60	169	GapExp	0	338	2	45	1	distractor	0	587	-1000	259711	13.328	12.892	13.763
ProbeTrack11	19	ProbeTrack	11.2	SCS215a	20101110.144908	20101110.152415	8	0.013328	60	10	60-180	60	77	GapExp	0	339	2	0	1	target	1	454	773	260484	13.328	13.106	13.549
ProbeTrack11	19	ProbeTrack	11.2	SCS215a	20101110.144908	20101110.152421	8	0.013328	60	0	60-180	60	155	GapExp	0	340	2	45	1	target	1	427	787	261271	13.328	13.105	13.556
ProbeTrack11	19	ProbeTrack	11.2	SCS215a	20101110.144908	20101110.152427	8	0.013328	60	10	60-180	60	130	GapExp	0	341	2	45	1	target	1	440	780	262051	13.328	13.100	13.549
ProbeTrack11	19	ProbeTrack	11.2	SCS215a	20101110.144908	20101110.152434	8	0.013328	60	10	60-180	60	88	GapExp	0	342	2	3	1	distractor	0	614	-1000	261051	13.328	13.309	13.345
ProbeTrack11	19	ProbeTrack	11.2	SCS215a	20101110.144908	20101110.152440	8	0.013328	60	10	60-180	60	127	GapExp	0	343	2	3	0	distractor	1	494	753	261804	13.328	12.911	13.749
ProbeTrack11	19	ProbeTrack	11.2	SCS215a	20101110.144908	20101110.152447	8	0.013328	60	0	60-180	60	63	GapExp	0	344	2	0	0	distractor	1	920	540	262344	13.328	13.308	13.344
ProbeTrack11	19	ProbeTrack	11.2	SCS215a	20101110.144908	20101110.152453	8	0.013328	60	10	60-180	60	163	GapExp	0	345	2	1	0	distractor	1	627	687	263031	13.328	13.305	13.350
ProbeTrack11	19	ProbeTrack	11.2	SCS215a	20101110.144908	20101110.152459	8	0.013328	60	10	60-180	60	79	GapExp	0	346	2	0	0	target	0	987	-1000	262031	13.328	12.846	13.816
ProbeTrack11	19	ProbeTrack	11.2	SCS215a	20101110.144908	20101110.152505	8	0.013328	60	0	60-180	60	124	GapExp	0	347	2	1	0	distractor	1	853	574	262605	13.328	13.091	13.545
ProbeTrack11	19	ProbeTrack	11.2	SCS215a	20101110.144908	20101110.152512	8	0.013328	60	10	60-180	60	90	GapExp	0	348	2	1	1	target	1	454	773	263378	13.328	13.306	13.350
ProbeTrack11	19	ProbeTrack	11.2	SCS215a	20101110.144908	20101110.152517	8	0.013328	60	0	60-180	60	175	GapExp	0	349	2	3	1	target	1	427	787	264165	13.328	13.112	13.550
ProbeTrack11	19	ProbeTrack	11.2	SCS215a	20101110.144908	20101110.152523	8	0.013328	60	10	60-180	60	174	GapExp	0	350	2	3	1	target	1	400	800	264965	13.328	13.114	13.549
ProbeTrack11	19	ProbeTrack	11.2	SCS215a	20101110.144908	20101110.152530	8	0.013328	60	0	60-180	60	163	GapExp	0	351	2	3	1	target	1	374	813	265778	13.328	13.308	13.351
ProbeTrack11	19	ProbeTrack	11.2	SCS215a	20101110.144908	20101110.152536	8	0.013328	60	10	60-180	60	168	GapExp	0	352	2	45	1	target	1	307	847	266625	13.328	13.300	13.358
ProbeTrack11	19	ProbeTrack	11.2	SCS215a	20101110.144908	20101110.152543	8	0.013328	60	10	60-180	60	70	GapExp	0	353	2	3	1	target	1	400	800	267425	13.328	13.015	13.640
ProbeTrack11	19	ProbeTrack	11.2	SCS215a	20101110.144908	20101110.152548	8	0.013328	60	10	60-180	60	117	GapExp	0	354	2	0	1	target	1	427	787	268212	13.328	13.298	13.371
ProbeTrack11	19	ProbeTrack	11.2	SCS215a	20101110.144908	20101110.152554	8	0.013328	60	0	60-180	60	100	GapExp	0	355	2	3	0	distractor	1	627	687	268899	13.328	12.996	13.662
ProbeTrack11	19	ProbeTrack	11.2	SCS215a	20101110.144908	20101110.152559	8	0.013328	60	0	60-180	60	70	GapExp	0	356	2	45	1	target	1	467	767	269666	13.328	13.092	13.570
ProbeTrack11	19	ProbeTrack	11.2	SCS215a	20101110.144908	20101110.152605	8	0.013328	60	0	60-180	60	72	GapExp	0	357	2	3	0	distractor	1	773	614	270280	13.328	13.266	13.389
ProbeTrack11	19	ProbeTrack	11.2	SCS215a	20101110.144908	20101110.152611	8	0.013328	60	0	60-180	60	70	GapExp	0	358	2	3	0	distractor	1	760	620	270900	13.328	13.308	13.345
ProbeTrack11	19	ProbeTrack	11.2	SCS215a	20101110.144908	20101110.152616	8	0.013328	60	0	60-180	60	169	GapExp	0	359	2	0	0	distractor	1	414	793	271693	13.328	12.884	13.763
ProbeTrack11	19	ProbeTrack	11.2	SCS215a	20101110.144908	20101110.152622	8	0.013328	60	0	60-180	60	125	GapExp	0	360	2	1	0	distractor	1	480	760	272453	13.328	13.307	13.351
ProbeTrack11	19	ProbeTrack	11.2	SCS215a	20101110.144908	20101110.152628	8	0.013328	60	10	60-180	60	124	GapExp	0	361	2	45	0	distractor	1	480	760	273213	13.328	12.964	13.691
ProbeTrack11	19	ProbeTrack	11.2	SCS215a	20101110.144908	20101110.152634	8	0.013328	60	0	60-180	60	153	GapExp	0	362	2	45	1	target	1	440	780	273993	13.328	13.111	13.556
ProbeTrack11	19	ProbeTrack	11.2	SCS215a	20101110.144908	20101110.152641	8	0.013328	60	0	60-180	60	160	GapExp	0	363	2	45	0	distractor	1	587	707	274700	13.328	13.112	13.536
ProbeTrack11	19	ProbeTrack	11.2	SCS215a	20101110.144908	20101110.152648	8	0.013328	60	10	60-180	60	129	GapExp	0	364	2	0	0	distractor	1	613	694	275394	13.328	12.890	13.761
ProbeTrack11	19	ProbeTrack	11.2	SCS215a	20101110.144908	20101110.152654	8	0.013328	60	10	60-180	60	142	GapExp	0	365	2	0	1	target	1	534	733	276127	13.328	13.302	13.347
ProbeTrack11	19	ProbeTrack	11.2	SCS215a	20101110.144908	20101110.152700	8	0.013328	60	10	60-180	60	73	GapExp	0	366	2	3	0	distractor	1	613	694	276821	13.328	13.306	13.352
ProbeTrack11	19	ProbeTrack	11.2	SCS215a	20101110.144908	20101110.152706	8	0.013328	60	10	60-180	60	162	GapExp	0	367	2	1	0	distractor	1	547	727	277548	13.328	13.309	13.347
ProbeTrack11	19	ProbeTrack	11.2	SCS215a	20101110.144908	20101110.152712	8	0.013328	60	0	60-180	60	141	GapExp	0	368	2	0	1	target	1	494	753	278301	13.328	13.304	13.354
ProbeTrack11	19	ProbeTrack	11.2	SCS215a	20101110.144908	20101110.152718	8	0.013328	60	0	60-180	60	173	GapExp	0	369	2	45	1	target	1	360	820	279121	13.328	13.090	13.560
ProbeTrack11	19	ProbeTrack	11.2	SCS215a	20101110.144908	20101110.152725	8	0.013328	60	0	60-180	60	96	GapExp	0	370	2	3	0	distractor	1	627	687	279808	13.328	13.308	13.346
ProbeTrack11	19	ProbeTrack	11.2	SCS215a	20101110.144908	20101110.152730	8	0.013328	60	10	60-180	60	156	GapExp	0	371	2	0	1	target	1	414	793	280601	13.328	13.085	13.555
ProbeTrack11	19	ProbeTrack	11.2	SCS215a	20101110.144908	20101110.152737	8	0.013328	60	10	60-180	60	100	GapExp	0	372	2	45	0	target	0	613	-1000	279601	13.328	13.097	13.556
ProbeTrack11	19	ProbeTrack	11.2	SCS215a	20101110.144908	20101110.152743	8	0.013328	60	0	60-180	60	67	GapExp	0	373	2	45	0	distractor	1	880	560	280161	13.328	13.100	13.550
ProbeTrack11	19	ProbeTrack	11.2	SCS215a	20101110.144908	20101110.152750	8	0.013328	60	0	60-180	60	99	GapExp	0	374	2	1	1	target	1	507	747	280908	13.328	13.306	13.344
ProbeTrack11	19	ProbeTrack	11.2	SCS215a	20101110.144908	20101110.152755	8	0.013328	60	0	60-180	60	130	GapExp	0	375	2	3	1	target	1	520	740	281648	13.328	13.308	13.344
ProbeTrack11	19	ProbeTrack	11.2	SCS215a	20101110.144908	20101110.152801	8	0.013328	60	10	60-180	60	117	GapExp	0	376	2	45	0	distractor	1	400	800	282448	13.328	12.924	13.720
ProbeTrack11	19	ProbeTrack	11.2	SCS215a	20101110.144908	20101110.152807	8	0.013328	60	0	60-180	60	150	GapExp	0	377	2	1	0	distractor	1	467	767	283215	13.328	12.978	13.673
ProbeTrack11	19	ProbeTrack	11.2	SCS215a	20101110.144908	20101110.152813	8	0.013328	60	10	60-180	60	65	GapExp	0	378	2	1	1	target	1	387	807	284022	13.328	13.097	13.556
ProbeTrack11	19	ProbeTrack	11.2	SCS215a	20101110.144908	20101110.152818	8	0.013328	60	10	60-180	60	156	GapExp	0	379	2	1	0	target	0	387	-1000	283022	13.328	13.098	13.555
ProbeTrack11	19	ProbeTrack	11.2	SCS215a	20101110.144908	20101110.152825	8	0.013328	60	10	60-180	60	165	GapExp	0	380	2	45	0	distractor	1	454	773	283795	13.328	13.097	13.564
ProbeTrack11	19	ProbeTrack	11.2	SCS215a	20101110.144908	20101110.152835	8	0.013328	60	10	60-180	60	99	GapExp	0	381	2	0	1	target	1	414	793	284588	13.328	13.307	13.348
ProbeTrack11	19	ProbeTrack	11.2	SCS215a	20101110.144908	20101110.152840	8	0.013328	60	10	60-180	60	115	GapExp	0	382	2	0	0	distractor	1	574	713	285301	13.328	12.916	13.731
ProbeTrack11	19	ProbeTrack	11.2	SCS215a	20101110.144908	20101110.152846	8	0.013328	60	10	60-180	60	166	GapExp	0	383	2	1	0	distractor	1	427	787	286088	13.328	13.090	13.552
ProbeTrack11	19	ProbeTrack	11.2	SCS215a	20101110.144908	20101110.152853	8	0.013328	60	10	60-180	60	126	GapExp	0	384	2	45	1	target	1	320	840	286928	13.328	13.307	13.352
ProbeTrack11	19	ProbeTrack	11.2	SCS215a	20101110.144908	20101110.152859	8	0.013328	60	0	60-180	60	68	GapExp	0	385	2	1	0	distractor	1	520	740	287668	13.328	13.310	13.355
ProbeTrack11	19	ProbeTrack	11.2	SCS215a	20101110.144908	20101110.152904	8	0.013328	60	0	60-180	60	101	GapExp	0	386	2	1	1	target	1	440	780	288448	13.328	13.307	13.350
ProbeTrack11	19	ProbeTrack	11.2	SCS215a	20101110.144908	20101110.152909	8	0.013328	60	10	60-180	60	85	GapExp	0	387	2	0	1	target	1	440	780	289228	13.328	13.105	13.550
ProbeTrack11	19	ProbeTrack	11.2	SCS215a	20101110.144908	20101110.152915	8	0.013328	60	10	60-180	60	121	GapExp	0	388	2	45	0	distractor	1	454	773	290001	13.328	13.107	13.555
ProbeTrack11	19	ProbeTrack	11.2	SCS215a	20101110.144908	20101110.152921	8	0.013328	60	0	60-180	60	178	GapExp	0	389	2	1	1	target	1	507	747	290748	13.327	13.098	13.551
ProbeTrack11	19	ProbeTrack	11.2	SCS215a	20101110.144908	20101110.152928	8	0.013328	60	0	60-180	60	89	GapExp	0	390	2	3	1	target	1	454	773	291521	13.328	13.310	13.346
ProbeTrack11	19	ProbeTrack	11.2	SCS215a	20101110.144908	20101110.152933	8	0.013328	60	0	60-180	60	133	GapExp	0	391	2	0	1	target	1	374	813	292334	13.328	13.305	13.347
ProbeTrack11	19	ProbeTrack	11.2	SCS215a	20101110.144908	20101110.152939	8	0.013328	60	0	60-180	60	101	GapExp	0	392	2	3	1	target	1	454	773	293107	13.328	13.124	13.532
ProbeTrack11	19	ProbeTrack	11.2	SCS215a	20101110.144908	20101110.152944	8	0.013328	60	0	60-180	60	74	GapExp	0	393	2	0	1	target	1	427	787	293894	13.327	13.093	13.562
ProbeTrack11	19	ProbeTrack	11.2	SCS215a	20101110.144908	20101110.152949	8	0.013328	60	0	60-180	60	122	GapExp	0	394	2	1	0	distractor	1	494	753	294647	13.328	13.307	13.354
ProbeTrack11	19	ProbeTrack	11.2	SCS215a	20101110.144908	20101110.152955	8	0.013328	60	10	60-180	60	177	GapExp	0	395	2	45	0	distractor	1	520	740	295387	13.328	13.303	13.350
ProbeTrack11	19	ProbeTrack	11.2	SCS215a	20101110.144908	20101110.153002	8	0.013328	60	0	60-180	60	67	GapExp	0	396	2	3	0	distractor	1	733	634	296021	13.327	13.309	13.346
ProbeTrack11	19	ProbeTrack	11.2	SCS215a	20101110.144908	20101110.153008	8	0.013328	60	0	60-180	60	131	GapExp	0	397	2	3	1	target	1	374	813	296834	13.328	13.307	13.347
ProbeTrack11	19	ProbeTrack	11.2	SCS215a	20101110.144908	20101110.153013	8	0.013328	60	10	60-180	60	141	GapExp	0	398	2	45	1	target	1	374	813	297647	13.328	13.310	13.346
ProbeTrack11	19	ProbeTrack	11.2	SCS215a	20101110.144908	20101110.153020	8	0.013328	60	0	60-180	60	79	GapExp	0	399	2	3	0	distractor	1	547	727	298374	13.328	13.105	13.542
ProbeTrack11	19	ProbeTrack	11.2	SCS215a	20101110.144908	20101110.153025	8	0.013328	60	0	60-180	60	116	GapExp	0	400	2	1	1	target	1	507	747	299121	13.328	13.096	13.544
ProbeTrack11	19	ProbeTrack	11.2	SCS215a	20101110.144908	20101110.153031	8	0.013328	60	0	60-180	60	69	GapExp	0	401	2	3	1	target	1	387	807	299928	13.328	13.306	13.348
ProbeTrack11	19	ProbeTrack	11.2	SCS215a	20101110.144908	20101110.153036	8	0.013328	60	0	60-180	60	116	GapExp	0	402	2	0	1	target	1	347	827	300755	13.328	13.310	13.345
ProbeTrack11	19	ProbeTrack	11.2	SCS215a	20101110.144908	20101110.153041	8	0.013328	60	0	60-180	60	94	GapExp	0	403	2	45	1	target	1	294	853	301608	13.328	13.094	13.560
ProbeTrack11	19	ProbeTrack	11.2	SCS215a	20101110.144908	20101110.153047	8	0.013328	60	10	60-180	60	86	GapExp	0	404	2	45	0	distractor	1	467	767	302375	13.328	13.264	13.405
ProbeTrack11	19	ProbeTrack	11.2	SCS215a	20101110.144908	20101110.153053	8	0.013328	60	10	60-180	60	125	GapExp	0	405	2	45	0	distractor	1	454	773	303148	13.328	13.098	13.550
ProbeTrack11	19	ProbeTrack	11.2	SCS215a	20101110.144908	20101110.153100	8	0.013328	60	10	60-180	60	138	GapExp	0	406	2	3	0	distractor	1	573	714	303862	13.328	13.097	13.560
ProbeTrack11	19	ProbeTrack	11.2	SCS215a	20101110.144908	20101110.153106	8	0.013328	60	10	60-180	60	86	GapExp	0	407	2	1	0	target	0	494	-1000	302862	13.328	12.935	13.706
ProbeTrack11	19	ProbeTrack	11.2	SCS215a	20101110.144908	20101110.153111	8	0.013328	60	0	60-180	60	148	GapExp	0	408	2	3	1	target	1	480	760	303622	13.328	13.308	13.345
ProbeTrack11	19	ProbeTrack	11.2	SCS215a	20101110.144908	20101110.153118	8	0.013328	60	10	60-180	60	108	GapExp	0	409	2	45	0	distractor	1	534	733	304355	13.328	12.846	13.820
ProbeTrack11	19	ProbeTrack	11.2	SCS215a	20101110.144908	20101110.153125	8	0.013328	60	0	60-180	60	103	GapExp	0	410	2	3	1	target	1	347	827	305182	13.328	12.927	13.717
ProbeTrack11	19	ProbeTrack	11.2	SCS215a	20101110.144908	20101110.153130	8	0.013328	60	0	60-180	60	110	GapExp	0	411	2	45	0	distractor	1	374	813	305995	13.328	12.880	13.783
ProbeTrack11	19	ProbeTrack	11.2	SCS215a	20101110.144908	20101110.153136	8	0.013328	60	0	60-180	60	150	GapExp	0	412	2	45	1	target	1	374	813	306808	13.328	13.098	13.569
ProbeTrack11	19	ProbeTrack	11.2	SCS215a	20101110.144908	20101110.153142	8	0.013328	60	0	60-180	60	82	GapExp	0	413	2	0	1	target	1	560	720	307528	13.328	13.109	13.554
ProbeTrack11	19	ProbeTrack	11.2	SCS215a	20101110.144908	20101110.153148	8	0.013328	60	10	60-180	60	176	GapExp	0	414	2	1	0	distractor	1	507	747	308275	13.328	12.988	13.669
ProbeTrack11	19	ProbeTrack	11.2	SCS215a	20101110.144908	20101110.153154	8	0.013328	60	0	60-180	60	145	GapExp	0	415	2	3	1	target	1	374	813	309088	13.328	13.309	13.354
ProbeTrack11	19	ProbeTrack	11.2	SCS215a	20101110.144908	20101110.153200	8	0.013328	60	10	60-180	60	101	GapExp	0	416	2	1	0	target	0	440	-1000	308088	13.328	13.309	13.348
ProbeTrack11	19	ProbeTrack	11.2	SCS215a	20101110.144908	20101110.153206	8	0.013328	60	0	60-180	60	120	GapExp	0	417	2	1	0	distractor	1	507	747	308835	13.328	12.878	13.774
ProbeTrack11	19	ProbeTrack	11.2	SCS215a	20101110.144908	20101110.153211	8	0.013328	60	10	60-180	60	165	GapExp	0	418	2	45	1	target	1	347	827	309662	13.328	13.100	13.553
ProbeTrack11	19	ProbeTrack	11.2	SCS215a	20101110.144908	20101110.153218	8	0.013328	60	0	60-180	60	103	GapExp	0	419	2	0	0	distractor	1	480	760	310422	13.328	13.106	13.563
ProbeTrack11	19	ProbeTrack	11.2	SCS215a	20101110.144908	20101110.153224	8	0.013328	60	0	60-180	60	87	GapExp	0	420	2	0	1	target	1	427	787	311209	13.328	13.303	13.347
ProbeTrack11	19	ProbeTrack	11.2	SCS215a	20101110.144908	20101110.153229	8	0.013328	60	0	60-180	60	80	GapExp	0	421	2	1	0	target	0	454	-1000	310209	13.328	13.308	13.348
ProbeTrack11	19	ProbeTrack	11.2	SCS215a	20101110.144908	20101110.153234	8	0.013328	60	10	60-180	60	104	GapExp	0	422	2	45	0	target	0	800	-1000	309209	13.328	13.308	13.344
ProbeTrack11	19	ProbeTrack	11.2	SCS215a	20101110.144908	20101110.153241	8	0.013328	60	0	60-180	60	117	GapExp	0	423	2	45	0	distractor	1	613	694	309903	13.328	13.308	13.350
ProbeTrack11	19	ProbeTrack	11.2	SCS215a	20101110.144908	20101110.153248	8	0.013328	60	0	60-180	60	117	GapExp	0	424	2	45	0	distractor	1	627	687	310590	13.328	13.309	13.349
ProbeTrack11	19	ProbeTrack	11.2	SCS215a	20101110.144908	20101110.153255	8	0.013328	60	0	60-180	60	118	GapExp	0	425	2	3	0	distractor	1	560	720	311310	13.328	13.101	13.555
ProbeTrack11	19	ProbeTrack	11.2	SCS215a	20101110.144908	20101110.153300	8	0.013328	60	10	60-180	60	98	GapExp	0	426	2	0	1	target	1	427	787	312097	13.328	13.310	13.345
ProbeTrack11	19	ProbeTrack	11.2	SCS215a	20101110.144908	20101110.153306	8	0.013328	60	0	60-180	60	100	GapExp	0	427	2	0	0	distractor	1	489	756	312853	13.328	13.181	13.470
ProbeTrack11	19	ProbeTrack	11.2	SCS215a	20101110.144908	20101110.153311	8	0.013328	60	10	60-180	60	169	GapExp	0	428	2	3	0	distractor	1	414	793	313646	13.328	13.308	13.347
ProbeTrack11	19	ProbeTrack	11.2	SCS215a	20101110.144908	20101110.153318	8	0.013328	60	10	60-180	60	162	GapExp	0	429	2	3	1	target	1	374	813	314459	13.328	13.302	13.353
ProbeTrack11	19	ProbeTrack	11.2	SCS215a	20101110.144908	20101110.153324	8	0.013328	60	0	60-180	60	126	GapExp	0	430	2	0	0	distractor	1	574	713	315172	13.327	13.308	13.347
ProbeTrack11	19	ProbeTrack	11.2	SCS215a	20101110.144908	20101110.153330	8	0.013328	60	0	60-180	60	89	GapExp	0	431	2	45	1	target	1	427	787	315959	13.328	12.908	13.756
ProbeTrack11	19	ProbeTrack	11.2	SCS215a	20101110.144908	20101110.153336	8	0.013328	60	0	60-180	60	159	GapExp	0	432	2	0	1	target	1	374	813	316772	13.328	12.908	13.757
ProbeTrack11	19	ProbeTrack	11.2	SCS215a	20101110.144908	20101110.153342	8	0.013328	60	10	60-180	60	126	GapExp	0	433	2	0	0	distractor	1	627	687	317459	13.328	13.018	13.654
ProbeTrack11	19	ProbeTrack	11.2	SCS215a	20101110.144908	20101110.153348	8	0.013328	60	0	60-180	60	76	GapExp	0	434	2	3	1	target	1	454	773	318232	13.328	13.307	13.352
ProbeTrack11	19	ProbeTrack	11.2	SCS215a	20101110.144908	20101110.153353	8	0.013328	60	10	60-180	60	103	GapExp	0	435	2	3	1	target	1	387	807	319039	13.328	13.309	13.347
ProbeTrack11	19	ProbeTrack	11.2	SCS215a	20101110.144908	20101110.153359	8	0.013328	60	10	60-180	60	115	GapExp	0	436	2	1	0	distractor	1	520	740	319779	13.328	13.310	13.348
ProbeTrack11	19	ProbeTrack	11.2	SCS215a	20101110.144908	20101110.153404	8	0.013328	60	0	60-180	60	82	GapExp	0	437	2	0	1	target	1	613	694	320473	13.328	12.920	13.745
ProbeTrack11	19	ProbeTrack	11.2	SCS215a	20101110.144908	20101110.153410	8	0.013328	60	0	60-180	60	172	GapExp	0	438	2	0	0	distractor	1	454	773	321246	13.328	13.107	13.556
ProbeTrack11	19	ProbeTrack	11.2	SCS215a	20101110.144908	20101110.153416	8	0.013328	60	10	60-180	60	67	GapExp	0	439	2	0	0	distractor	1	520	740	321986	13.328	13.307	13.348
ProbeTrack11	19	ProbeTrack	11.2	SCS215a	20101110.144908	20101110.153421	8	0.013328	60	10	60-180	60	77	GapExp	0	440	2	45	0	distractor	1	480	760	322746	13.328	12.968	13.687
ProbeTrack11	19	ProbeTrack	11.2	SCS215a	20101110.144908	20101110.153427	8	0.013328	60	10	60-180	60	125	GapExp	0	441	2	0	0	distractor	1	507	747	323493	13.328	13.306	13.344
ProbeTrack11	19	ProbeTrack	11.2	SCS215a	20101110.144908	20101110.153433	8	0.013328	60	0	60-180	60	126	GapExp	0	442	2	3	0	distractor	1	933	534	324027	13.328	13.310	13.346
ProbeTrack11	19	ProbeTrack	11.2	SCS215a	20101110.144908	20101110.153439	8	0.013328	60	0	60-180	60	140	GapExp	0	443	2	45	0	distractor	1	427	787	324814	13.328	13.310	13.352
ProbeTrack11	19	ProbeTrack	11.2	SCS215a	20101110.144908	20101110.153446	8	0.013328	60	10	60-180	60	138	GapExp	0	444	2	45	0	distractor	1	454	773	325587	13.328	13.112	13.556
ProbeTrack11	19	ProbeTrack	11.2	SCS215a	20101110.144908	20101110.153452	8	0.013328	60	0	60-180	60	106	GapExp	0	445	2	0	0	distractor	1	454	773	326360	13.328	13.106	13.540
ProbeTrack11	19	ProbeTrack	11.2	SCS215a	20101110.144908	20101110.153458	8	0.013328	60	0	60-180	60	75	GapExp	0	446	2	0	1	target	1	560	720	327080	13.328	13.267	13.384
ProbeTrack11	19	ProbeTrack	11.2	SCS215a	20101110.144908	20101110.153503	8	0.013328	60	10	60-180	60	65	GapExp	0	447	2	1	1	target	1	480	760	327840	13.327	12.853	13.798
ProbeTrack11	19	ProbeTrack	11.2	SCS215a	20101110.144908	20101110.153508	8	0.013328	60	0	60-180	60	149	GapExp	0	448	2	3	1	target	1	454	773	328613	13.328	13.306	13.351
ProbeTrack11	19	ProbeTrack	11.2	SCS215a	20101110.144908	20101110.153515	8	0.013328	60	10	60-180	60	126	GapExp	0	449	2	1	1	target	1	427	787	329400	13.328	13.309	13.350
ProbeTrack11	19	ProbeTrack	11.2	SCS215a	20101110.144908	20101110.153520	8	0.013328	60	10	60-180	60	90	GapExp	0	450	2	1	0	target	0	773	-1000	328400	13.328	13.100	13.556
