exp	sub	code	rev	comp	runtime	trialtime	nstim	refreshdur	cuedur	gapdur	gapOnsetRange	durPostProbe	gapOnsetTime	blocktype	prac	trial	ntargets	soa	probeTarget	resp	acc	rt	pts	tpts	meanFrameDur	minFrameDur	maxFrameDur
ProbeTrack11	1	ProbeTrack	11.1	SCS215a	20100810.120518	20100810.120549	8	0.013333	60	0	60-180	60	109	NoGap	1	1	2	45	1	distractor	0	5265	-1000	-1000	13.328	13.099	13.548
ProbeTrack11	1	ProbeTrack	11.1	SCS215a	20100810.120518	20100810.120621	8	0.013333	60	0	60-180	60	132	NoGap	1	2	2	0	0	distractor	1	520	740	-260	13.328	13.135	13.532
ProbeTrack11	1	ProbeTrack	11.1	SCS215a	20100810.120518	20100810.120634	8	0.013333	60	0	60-180	60	115	NoGap	1	3	2	45	0	target	0	840	-1000	-1260	13.373	12.834	26.920
ProbeTrack11	1	ProbeTrack	11.1	SCS215a	20100810.120518	20100810.120642	8	0.013333	60	0	60-180	60	131	NoGap	1	4	2	45	0	target	0	867	-1000	-2260	13.328	13.306	13.353
ProbeTrack11	1	ProbeTrack	11.1	SCS215a	20100810.120518	20100810.120650	8	0.013333	60	0	60-180	60	176	NoGap	1	5	2	1	1	32	-3	280	-1000	-3260	13.376	13.070	26.848
ProbeTrack11	1	ProbeTrack	11.1	SCS215a	20100810.120518	20100810.120656	8	0.013333	60	0	60-180	60	106	NoGap	1	6	2	1	1	distractor	0	1266	-1000	-4260	13.328	12.858	13.813
ProbeTrack11	1	ProbeTrack	11.1	SCS215a	20100810.120518	20100810.120704	8	0.013333	60	0	60-180	60	156	NoGap	1	7	2	1	0	distractor	1	1706	147	-4113	13.373	12.878	26.705
ProbeTrack11	1	ProbeTrack	11.1	SCS215a	20100810.120518	20100810.120712	8	0.013333	60	0	60-180	60	122	NoGap	1	8	2	3	0	distractor	1	1227	387	-3726	13.328	12.874	13.768
ProbeTrack11	1	ProbeTrack	11.1	SCS215a	20100810.120518	20100810.120720	8	0.013333	60	0	60-180	60	143	NoGap	1	9	2	45	1	target	1	1040	480	-3246	13.328	12.862	13.787
ProbeTrack11	1	ProbeTrack	11.1	SCS215a	20100810.120518	20100810.120728	8	0.013333	60	0	60-180	60	131	NoGap	1	10	2	3	1	distractor	0	2448	-1000	-4246	13.377	13.099	26.417
ProbeTrack11	1	ProbeTrack	11.1	SCS215a	20100810.120518	20100810.120736	8	0.013333	60	0	60-180	60	130	NoGap	1	11	2	3	0	target	0	1187	-1000	-5246	13.328	13.034	13.611
ProbeTrack11	1	ProbeTrack	11.1	SCS215a	20100810.120518	20100810.120744	8	0.013333	60	0	60-180	60	151	NoGap	1	12	2	1	1	target	1	1160	420	-4826	13.328	12.996	13.653
ProbeTrack11	1	ProbeTrack	11.1	SCS215a	20100810.120518	20100810.120751	8	0.013333	60	0	60-180	60	150	NoGap	1	13	2	3	0	distractor	1	1040	480	-4346	13.374	12.996	26.732
ProbeTrack11	1	ProbeTrack	11.1	SCS215a	20100810.120518	20100810.120758	8	0.013333	60	0	60-180	60	156	NoGap	1	14	2	45	1	target	1	1346	327	-4019	13.328	13.203	13.450
ProbeTrack11	1	ProbeTrack	11.1	SCS215a	20100810.120518	20100810.120806	8	0.013333	60	0	60-180	60	72	NoGap	1	15	2	1	1	target	1	867	567	-3452	13.328	13.176	13.480
ProbeTrack11	1	ProbeTrack	11.1	SCS215a	20100810.120518	20100810.120812	8	0.013333	60	0	60-180	60	79	NoGap	1	16	2	1	0	distractor	1	733	634	-2818	13.328	13.304	13.349
ProbeTrack11	1	ProbeTrack	11.1	SCS215a	20100810.120518	20100810.120818	8	0.013333	60	0	60-180	60	118	NoGap	1	17	2	3	1	target	1	720	640	-2178	13.328	12.827	13.760
ProbeTrack11	1	ProbeTrack	11.1	SCS215a	20100810.120518	20100810.120824	8	0.013333	60	0	60-180	60	141	NoGap	1	18	2	3	1	target	1	1213	394	-1784	13.328	13.068	13.587
ProbeTrack11	1	ProbeTrack	11.1	SCS215a	20100810.120518	20100810.120831	8	0.013333	60	0	60-180	60	99	NoGap	1	19	2	45	0	distractor	1	1053	474	-1310	13.328	12.973	13.601
ProbeTrack11	1	ProbeTrack	11.1	SCS215a	20100810.120518	20100810.120839	8	0.013333	60	0	60-180	60	74	NoGap	1	20	2	1	1	target	1	800	600	-710	13.328	13.304	13.353
ProbeTrack11	1	ProbeTrack	11.1	SCS215a	20100810.120518	20100810.120845	8	0.013333	60	0	60-180	60	173	NoGap	1	21	2	0	0	distractor	1	774	613	-97	13.371	12.872	26.610
ProbeTrack11	1	ProbeTrack	11.1	SCS215a	20100810.120518	20100810.120852	8	0.013333	60	0	60-180	60	123	NoGap	1	22	2	1	0	distractor	1	907	547	450	13.328	13.307	13.349
ProbeTrack11	1	ProbeTrack	11.1	SCS215a	20100810.120518	20100810.120859	8	0.013333	60	0	60-180	60	163	NoGap	1	23	2	0	0	distractor	1	853	574	1024	13.328	12.860	13.791
ProbeTrack11	1	ProbeTrack	11.1	SCS215a	20100810.120518	20100810.120906	8	0.013333	60	0	60-180	60	107	NoGap	1	24	2	3	0	distractor	1	1213	394	1418	13.328	12.874	13.772
ProbeTrack11	1	ProbeTrack	11.1	SCS215a	20100810.120518	20100810.120913	8	0.013333	60	0	60-180	60	128	NoGap	1	25	2	0	1	target	1	1013	494	1912	13.328	13.309	13.351
ProbeTrack11	1	ProbeTrack	11.1	SCS215a	20100810.120518	20100810.120920	8	0.013333	60	0	60-180	60	145	NoGap	1	26	2	0	1	target	1	907	547	2459	13.328	12.858	13.794
ProbeTrack11	1	ProbeTrack	11.1	SCS215a	20100810.120518	20100810.120929	8	0.013333	60	0	60-180	60	133	NoGap	1	27	2	1	0	distractor	1	707	647	3106	13.328	12.847	13.800
ProbeTrack11	1	ProbeTrack	11.1	SCS215a	20100810.120518	20100810.120936	8	0.013333	60	0	60-180	60	78	NoGap	1	28	2	0	0	distractor	1	947	527	3633	13.328	13.305	13.349
ProbeTrack11	1	ProbeTrack	11.1	SCS215a	20100810.120518	20100810.120942	8	0.013333	60	0	60-180	60	129	NoGap	1	29	2	0	1	target	1	947	527	4160	13.328	12.877	13.774
ProbeTrack11	1	ProbeTrack	11.1	SCS215a	20100810.120518	20100810.120948	8	0.013333	60	0	60-180	60	131	NoGap	1	30	2	0	0	distractor	1	934	533	4693	13.328	13.303	13.350
ProbeTrack11	1	ProbeTrack	11.1	SCS215a	20100810.120518	20100810.120955	8	0.013333	60	0	60-180	60	100	NoGap	1	31	2	45	1	target	1	1520	240	4933	13.328	12.862	13.783
ProbeTrack11	1	ProbeTrack	11.1	SCS215a	20100810.120518	20100810.121005	8	0.013333	60	0	60-180	60	105	NoGap	1	32	2	0	1	target	1	787	607	5540	13.328	13.262	13.388
ProbeTrack11	1	ProbeTrack	11.1	SCS215a	20100810.120518	20100810.121011	8	0.013333	60	0	60-180	60	165	NoGap	1	33	2	45	0	distractor	1	947	527	6067	13.328	13.110	13.558
ProbeTrack11	1	ProbeTrack	11.1	SCS215a	20100810.120518	20100810.121019	8	0.013333	60	0	60-180	60	84	NoGap	1	34	2	0	1	target	1	787	607	6674	13.328	12.958	13.710
ProbeTrack11	1	ProbeTrack	11.1	SCS215a	20100810.120518	20100810.121026	8	0.013333	60	0	60-180	60	101	NoGap	1	35	2	45	0	distractor	1	1147	427	7101	13.328	13.306	13.347
ProbeTrack11	1	ProbeTrack	11.1	SCS215a	20100810.120518	20100810.121033	8	0.013333	60	0	60-180	60	111	NoGap	1	36	2	45	1	target	1	907	547	7648	13.328	12.862	13.785
ProbeTrack11	1	ProbeTrack	11.1	SCS215a	20100810.120518	20100810.121040	8	0.013333	60	0	60-180	60	158	NoGap	1	37	2	3	0	distractor	1	733	634	8282	13.328	12.931	13.737
ProbeTrack11	1	ProbeTrack	11.1	SCS215a	20100810.120518	20100810.121047	8	0.013333	60	0	60-180	60	157	NoGap	1	38	2	1	0	distractor	1	947	527	8809	13.328	13.094	13.556
ProbeTrack11	1	ProbeTrack	11.1	SCS215a	20100810.120518	20100810.121055	8	0.013333	60	0	60-180	60	161	NoGap	1	39	2	3	1	target	1	920	540	9349	13.328	13.098	13.543
ProbeTrack11	1	ProbeTrack	11.1	SCS215a	20100810.120518	20100810.121102	8	0.013333	60	0	60-180	60	138	NoGap	1	40	2	3	1	target	1	787	607	9956	13.328	13.107	13.550
ProbeTrack11	1	ProbeTrack	11.1	SCS215a	20100810.121152	20100810.121204	8	0.013328	60	0	60-180	60	170	GapPrac	1	1	2	1	0	target	0	3546	-1000	8956	13.328	13.101	13.543
ProbeTrack11	1	ProbeTrack	11.1	SCS215a	20100810.121152	20100810.121215	8	0.013328	60	0	60-180	60	142	GapPrac	1	2	2	3	0	distractor	1	1013	494	9450	13.375	13.094	26.553
ProbeTrack11	1	ProbeTrack	11.1	SCS215a	20100810.121152	20100810.121222	8	0.013328	60	10	60-180	60	179	GapPrac	1	3	2	3	1	target	1	2852	0	9450	13.328	13.295	13.354
ProbeTrack11	1	ProbeTrack	11.1	SCS215a	20100810.121152	20100810.121231	8	0.013328	60	10	60-180	60	160	GapPrac	1	4	2	3	0	distractor	1	3679	0	9450	13.328	12.882	13.776
ProbeTrack11	1	ProbeTrack	11.1	SCS215a	20100810.121152	20100810.121241	8	0.013328	60	10	60-180	60	175	GapPrac	1	5	2	3	1	target	1	1173	414	9864	13.328	13.104	13.549
ProbeTrack11	1	ProbeTrack	11.1	SCS215a	20100810.121152	20100810.121249	8	0.013328	60	0	60-180	60	162	GapPrac	1	6	2	3	1	distractor	0	3599	-1000	8864	13.328	12.851	13.801
ProbeTrack11	1	ProbeTrack	11.1	SCS215a	20100810.121152	20100810.121259	8	0.013328	60	10	60-180	60	82	GapPrac	1	7	2	45	0	target	0	880	-1000	7864	13.328	12.880	13.776
ProbeTrack11	1	ProbeTrack	11.1	SCS215a	20100810.121152	20100810.121306	8	0.013328	60	0	60-180	60	102	GapPrac	1	8	2	45	0	distractor	1	1093	454	8318	13.328	12.950	13.699
ProbeTrack11	1	ProbeTrack	11.1	SCS215a	20100810.121152	20100810.121313	8	0.013328	60	0	60-180	60	136	GapPrac	1	9	2	45	1	target	1	1000	500	8818	13.328	13.065	13.705
ProbeTrack11	1	ProbeTrack	11.1	SCS215a	20100810.121152	20100810.121320	8	0.013328	60	10	60-180	60	62	GapPrac	1	10	2	0	0	distractor	1	2146	0	8818	13.328	12.883	13.780
ProbeTrack11	1	ProbeTrack	11.1	SCS215a	20100810.121152	20100810.121327	8	0.013328	60	0	60-180	60	167	GapPrac	1	11	2	0	0	distractor	1	1240	380	9198	13.328	13.186	13.455
ProbeTrack11	1	ProbeTrack	11.1	SCS215a	20100810.121152	20100810.121334	8	0.013328	60	0	60-180	60	106	GapPrac	1	12	2	3	0	distractor	1	973	514	9712	13.328	13.009	13.648
ProbeTrack11	1	ProbeTrack	11.1	SCS215a	20100810.121152	20100810.121341	8	0.013328	60	10	60-180	60	89	GapPrac	1	13	2	1	1	target	1	1027	487	10199	13.328	12.859	13.793
ProbeTrack11	1	ProbeTrack	11.1	SCS215a	20100810.121152	20100810.121347	8	0.013328	60	10	60-180	60	155	GapPrac	1	14	2	1	0	distractor	1	760	620	10819	13.328	13.233	13.417
ProbeTrack11	1	ProbeTrack	11.1	SCS215a	20100810.121152	20100810.121354	8	0.013328	60	0	60-180	60	100	GapPrac	1	15	2	0	1	target	1	933	534	11353	13.328	13.309	13.345
ProbeTrack11	1	ProbeTrack	11.1	SCS215a	20100810.121152	20100810.121400	8	0.013328	60	0	60-180	60	118	GapPrac	1	16	2	1	0	distractor	1	1093	454	11807	13.328	12.998	13.635
ProbeTrack11	1	ProbeTrack	11.1	SCS215a	20100810.121152	20100810.121407	8	0.013328	60	10	60-180	60	147	GapPrac	1	17	2	3	0	distractor	1	1133	434	12241	13.328	12.912	13.758
ProbeTrack11	1	ProbeTrack	11.1	SCS215a	20100810.121152	20100810.121414	8	0.013328	60	0	60-180	60	65	GapPrac	1	18	2	1	1	target	1	1320	340	12581	13.328	13.091	13.552
ProbeTrack11	1	ProbeTrack	11.1	SCS215a	20100810.121152	20100810.121420	8	0.013328	60	10	60-180	60	69	GapPrac	1	19	2	0	1	distractor	0	2079	-1000	11581	13.328	12.896	13.732
ProbeTrack11	1	ProbeTrack	11.1	SCS215a	20100810.121152	20100810.121427	8	0.013328	60	10	60-180	60	103	GapPrac	1	20	2	45	1	target	1	800	600	12181	13.373	13.088	26.827
ProbeTrack11	1	ProbeTrack	11.1	SCS215a	20100810.121515	20100810.121540	8	0.013327	60	0	60-180	60	78	GapExp	1	1	2	0	1	target	1	1013	494	12675	13.328	12.844	13.818
ProbeTrack11	1	ProbeTrack	11.1	SCS215a	20100810.121515	20100810.121549	8	0.013327	60	10	60-180	60	164	GapExp	1	2	2	3	1	target	1	760	620	13295	13.328	12.940	13.716
ProbeTrack11	1	ProbeTrack	11.1	SCS215a	20100810.121515	20100810.121556	8	0.013327	60	0	60-180	60	150	GapExp	1	3	2	3	1	target	1	1120	440	13735	13.328	12.861	13.798
ProbeTrack11	1	ProbeTrack	11.1	SCS215a	20100810.121515	20100810.121603	8	0.013327	60	10	60-180	60	85	GapExp	1	4	2	45	0	distractor	1	880	560	14295	13.328	12.871	13.778
ProbeTrack11	1	ProbeTrack	11.1	SCS215a	20100810.121515	20100810.121610	8	0.013327	60	0	60-180	60	149	GapExp	1	5	2	1	1	target	1	733	634	14929	13.328	13.114	13.543
ProbeTrack11	1	ProbeTrack	11.1	SCS215a	20100810.121515	20100810.121617	8	0.013327	60	0	60-180	60	162	GapExp	0	6	2	0	0	target	0	747	-1000	13929	13.328	13.013	13.644
ProbeTrack11	1	ProbeTrack	11.1	SCS215a	20100810.121515	20100810.121623	8	0.013327	60	0	60-180	60	180	GapExp	0	7	2	45	0	distractor	1	1280	360	14289	13.328	12.888	13.773
ProbeTrack11	1	ProbeTrack	11.1	SCS215a	20100810.121515	20100810.121632	8	0.013327	60	10	60-180	60	104	GapExp	0	8	2	1	1	distractor	0	1480	-1000	13289	13.381	12.882	27.117
ProbeTrack11	1	ProbeTrack	11.1	SCS215a	20100810.121515	20100810.121638	8	0.013327	60	0	60-180	60	165	GapExp	0	9	2	1	0	distractor	1	840	580	13869	13.328	12.223	14.436
ProbeTrack11	1	ProbeTrack	11.1	SCS215a	20100810.121515	20100810.121646	8	0.013327	60	0	60-180	60	166	GapExp	0	10	2	45	1	target	1	1253	374	14243	13.328	12.905	13.737
ProbeTrack11	1	ProbeTrack	11.1	SCS215a	20100810.121515	20100810.121654	8	0.013327	60	10	60-180	60	127	GapExp	0	11	2	3	0	target	0	1187	-1000	13243	13.376	13.093	26.645
ProbeTrack11	1	ProbeTrack	11.1	SCS215a	20100810.121515	20100810.121701	8	0.013327	60	0	60-180	60	83	GapExp	0	12	2	1	1	target	1	960	520	13763	13.328	13.094	13.555
ProbeTrack11	1	ProbeTrack	11.1	SCS215a	20100810.121515	20100810.121707	8	0.013327	60	10	60-180	60	158	GapExp	0	13	2	3	0	distractor	1	1306	347	14110	13.328	13.099	13.555
ProbeTrack11	1	ProbeTrack	11.1	SCS215a	20100810.121515	20100810.121714	8	0.013327	60	0	60-180	60	173	GapExp	0	14	2	0	0	distractor	1	853	574	14684	13.328	13.088	13.554
ProbeTrack11	1	ProbeTrack	11.1	SCS215a	20100810.121515	20100810.121721	8	0.013327	60	0	60-180	60	133	GapExp	0	15	2	1	0	distractor	1	800	600	15284	13.377	13.076	26.664
ProbeTrack11	1	ProbeTrack	11.1	SCS215a	20100810.121515	20100810.121728	8	0.013327	60	10	60-180	60	100	GapExp	0	16	2	0	1	target	1	693	654	15938	13.383	12.850	27.094
ProbeTrack11	1	ProbeTrack	11.1	SCS215a	20100810.121515	20100810.121734	8	0.013327	60	0	60-180	60	144	GapExp	0	17	2	1	0	distractor	1	973	514	16452	13.328	12.857	13.783
ProbeTrack11	1	ProbeTrack	11.1	SCS215a	20100810.121515	20100810.121741	8	0.013327	60	10	60-180	60	143	GapExp	0	18	2	3	0	distractor	1	1053	474	16926	13.328	12.930	13.726
ProbeTrack11	1	ProbeTrack	11.1	SCS215a	20100810.121515	20100810.121748	8	0.013327	60	0	60-180	60	143	GapExp	0	19	2	0	0	distractor	1	787	607	17533	13.328	12.959	13.680
ProbeTrack11	1	ProbeTrack	11.1	SCS215a	20100810.121515	20100810.121754	8	0.013327	60	0	60-180	60	173	GapExp	0	20	2	1	0	distractor	1	813	594	18127	13.328	13.257	13.416
ProbeTrack11	1	ProbeTrack	11.1	SCS215a	20100810.121515	20100810.121801	8	0.013327	60	0	60-180	60	123	GapExp	0	21	2	3	0	distractor	1	787	607	18734	13.379	12.913	26.715
ProbeTrack11	1	ProbeTrack	11.1	SCS215a	20100810.121515	20100810.121807	8	0.013327	60	0	60-180	60	86	GapExp	0	22	2	45	0	distractor	1	867	567	19301	13.328	12.888	13.775
ProbeTrack11	1	ProbeTrack	11.1	SCS215a	20100810.121515	20100810.121814	8	0.013327	60	10	60-180	60	89	GapExp	0	23	2	3	1	distractor	0	840	-1000	18301	13.328	12.968	13.698
ProbeTrack11	1	ProbeTrack	11.1	SCS215a	20100810.121515	20100810.121820	8	0.013327	60	0	60-180	60	123	GapExp	0	24	2	1	1	target	1	800	600	18901	13.328	12.867	13.797
ProbeTrack11	1	ProbeTrack	11.1	SCS215a	20100810.121515	20100810.121826	8	0.013327	60	0	60-180	60	119	GapExp	0	25	2	3	1	target	1	720	640	19541	13.328	13.251	13.397
ProbeTrack11	1	ProbeTrack	11.1	SCS215a	20100810.121515	20100810.121832	8	0.013327	60	0	60-180	60	89	GapExp	0	26	2	1	1	target	1	574	713	20254	13.328	13.014	13.642
ProbeTrack11	1	ProbeTrack	11.1	SCS215a	20100810.121515	20100810.121838	8	0.013327	60	0	60-180	60	76	GapExp	0	27	2	45	1	target	1	627	687	20941	13.436	13.097	26.496
ProbeTrack11	1	ProbeTrack	11.1	SCS215a	20100810.121515	20100810.121844	8	0.013327	60	10	60-180	60	66	GapExp	0	28	2	1	0	distractor	1	827	587	21528	13.391	13.312	26.653
ProbeTrack11	1	ProbeTrack	11.1	SCS215a	20100810.121515	20100810.121849	8	0.013327	60	0	60-180	60	95	GapExp	0	29	2	45	0	distractor	1	880	560	22088	13.328	13.298	13.355
ProbeTrack11	1	ProbeTrack	11.1	SCS215a	20100810.121515	20100810.121856	8	0.013327	60	0	60-180	60	162	GapExp	0	30	2	45	0	distractor	1	707	647	22735	13.328	13.076	13.573
ProbeTrack11	1	ProbeTrack	11.1	SCS215a	20100810.121515	20100810.121903	8	0.013327	60	10	60-180	60	159	GapExp	0	31	2	45	0	distractor	1	893	554	23289	13.328	12.914	13.745
ProbeTrack11	1	ProbeTrack	11.1	SCS215a	20100810.121515	20100810.121911	8	0.013327	60	0	60-180	60	65	GapExp	0	32	2	0	0	distractor	1	787	607	23896	13.328	13.310	13.344
ProbeTrack11	1	ProbeTrack	11.1	SCS215a	20100810.121515	20100810.121917	8	0.013327	60	10	60-180	60	74	GapExp	0	33	2	45	0	distractor	1	627	687	24583	13.328	12.888	13.779
ProbeTrack11	1	ProbeTrack	11.1	SCS215a	20100810.121515	20100810.121923	8	0.013327	60	10	60-180	60	172	GapExp	0	34	2	45	0	distractor	1	546	727	25310	13.328	12.901	13.755
ProbeTrack11	1	ProbeTrack	11.1	SCS215a	20100810.121515	20100810.121930	8	0.013327	60	0	60-180	60	156	GapExp	0	35	2	1	1	target	1	733	634	25944	13.328	12.850	13.790
ProbeTrack11	1	ProbeTrack	11.1	SCS215a	20100810.121515	20100810.121937	8	0.013327	60	10	60-180	60	156	GapExp	0	36	2	45	1	distractor	0	1080	-1000	24944	13.328	13.306	13.347
ProbeTrack11	1	ProbeTrack	11.1	SCS215a	20100810.121515	20100810.121945	8	0.013327	60	0	60-180	60	135	GapExp	0	37	2	0	0	distractor	1	720	640	25584	13.328	13.218	13.446
ProbeTrack11	1	ProbeTrack	11.1	SCS215a	20100810.121515	20100810.121951	8	0.013327	60	10	60-180	60	144	GapExp	0	38	2	0	0	target	0	760	-1000	24584	13.328	12.928	13.734
ProbeTrack11	1	ProbeTrack	11.1	SCS215a	20100810.121515	20100810.121958	8	0.013327	60	10	60-180	60	74	GapExp	0	39	2	1	0	distractor	1	693	654	25238	13.328	13.177	13.460
ProbeTrack11	1	ProbeTrack	11.1	SCS215a	20100810.121515	20100810.122003	8	0.013327	60	10	60-180	60	124	GapExp	0	40	2	1	0	target	0	1160	-1000	24238	13.328	12.864	13.805
ProbeTrack11	1	ProbeTrack	11.1	SCS215a	20100810.121515	20100810.122010	8	0.013327	60	0	60-180	60	127	GapExp	0	41	2	0	1	distractor	0	574	-1000	23238	13.328	12.866	13.802
ProbeTrack11	1	ProbeTrack	11.1	SCS215a	20100810.121515	20100810.122016	8	0.013327	60	10	60-180	60	175	GapExp	0	42	2	45	1	target	1	627	687	23925	13.328	13.097	13.564
ProbeTrack11	1	ProbeTrack	11.1	SCS215a	20100810.121515	20100810.122024	8	0.013327	60	0	60-180	60	168	GapExp	0	43	2	1	0	distractor	1	547	727	24652	13.374	12.848	27.127
ProbeTrack11	1	ProbeTrack	11.1	SCS215a	20100810.121515	20100810.122031	8	0.013327	60	0	60-180	60	173	GapExp	0	44	2	0	1	target	1	627	687	25339	13.328	13.106	13.558
ProbeTrack11	1	ProbeTrack	11.1	SCS215a	20100810.121515	20100810.122037	8	0.013327	60	0	60-180	60	86	GapExp	0	45	2	3	0	distractor	1	613	694	26033	13.328	13.102	13.560
ProbeTrack11	1	ProbeTrack	11.1	SCS215a	20100810.121515	20100810.122042	8	0.013327	60	0	60-180	60	143	GapExp	0	46	2	1	1	distractor	0	787	-1000	25033	13.328	13.232	13.427
ProbeTrack11	1	ProbeTrack	11.1	SCS215a	20100810.121515	20100810.122049	8	0.013327	60	0	60-180	60	112	GapExp	0	47	2	45	1	target	1	667	667	25700	13.328	12.975	13.688
ProbeTrack11	1	ProbeTrack	11.1	SCS215a	20100810.121515	20100810.122055	8	0.013327	60	10	60-180	60	96	GapExp	0	48	2	3	1	target	1	747	627	26327	13.328	13.002	13.653
ProbeTrack11	1	ProbeTrack	11.1	SCS215a	20100810.121515	20100810.122101	8	0.013327	60	0	60-180	60	129	GapExp	0	49	2	45	1	target	1	694	653	26980	13.328	13.033	13.611
ProbeTrack11	1	ProbeTrack	11.1	SCS215a	20100810.121515	20100810.122108	8	0.013327	60	10	60-180	60	169	GapExp	0	50	2	0	0	distractor	1	1080	460	27440	13.328	12.981	13.784
ProbeTrack11	1	ProbeTrack	11.1	SCS215a	20100810.121515	20100810.122115	8	0.013327	60	0	60-180	60	124	GapExp	0	51	2	45	0	distractor	1	933	534	27974	13.328	12.953	13.761
ProbeTrack11	1	ProbeTrack	11.1	SCS215a	20100810.121515	20100810.122123	8	0.013327	60	0	60-180	60	137	GapExp	0	52	2	45	1	target	1	907	547	28521	13.328	13.088	13.552
ProbeTrack11	1	ProbeTrack	11.1	SCS215a	20100810.121515	20100810.122134	8	0.013327	60	10	60-180	60	159	GapExp	0	53	2	3	0	distractor	1	760	620	29141	13.371	12.851	26.673
ProbeTrack11	1	ProbeTrack	11.1	SCS215a	20100810.121515	20100810.122141	8	0.013327	60	10	60-180	60	125	GapExp	0	54	2	45	1	target	1	574	713	29854	13.328	13.089	13.559
ProbeTrack11	1	ProbeTrack	11.1	SCS215a	20100810.121515	20100810.122148	8	0.013327	60	0	60-180	60	171	GapExp	0	55	2	1	0	distractor	1	1293	354	30208	13.371	12.962	26.671
ProbeTrack11	1	ProbeTrack	11.1	SCS215a	20100810.121515	20100810.122155	8	0.013327	60	10	60-180	60	149	GapExp	0	56	2	45	0	distractor	1	734	633	30841	13.328	13.096	13.565
ProbeTrack11	1	ProbeTrack	11.1	SCS215a	20100810.121515	20100810.122203	8	0.013327	60	0	60-180	60	106	GapExp	0	57	2	0	0	target	0	667	-1000	29841	13.328	12.941	13.716
ProbeTrack11	1	ProbeTrack	11.1	SCS215a	20100810.121515	20100810.122211	8	0.013327	60	10	60-180	60	116	GapExp	0	58	2	45	1	distractor	0	680	-1000	28841	13.328	13.299	13.353
ProbeTrack11	1	ProbeTrack	11.1	SCS215a	20100810.121515	20100810.122218	8	0.013327	60	10	60-180	60	107	GapExp	0	59	2	1	0	distractor	1	774	613	29454	13.328	12.893	13.764
ProbeTrack11	1	ProbeTrack	11.1	SCS215a	20100810.121515	20100810.122225	8	0.013327	60	0	60-180	60	118	GapExp	0	60	2	45	0	distractor	1	840	580	30034	13.328	13.298	13.357
ProbeTrack11	1	ProbeTrack	11.1	SCS215a	20100810.121515	20100810.122231	8	0.013327	60	0	60-180	60	179	GapExp	0	61	2	0	0	distractor	1	880	560	30594	13.328	12.854	13.811
ProbeTrack11	1	ProbeTrack	11.1	SCS215a	20100810.121515	20100810.122238	8	0.013327	60	0	60-180	60	177	GapExp	0	62	2	0	0	distractor	1	760	620	31214	13.328	7.842	18.808
ProbeTrack11	1	ProbeTrack	11.1	SCS215a	20100810.121515	20100810.122245	8	0.013327	60	0	60-180	60	108	GapExp	0	63	2	0	0	distractor	1	747	627	31841	13.328	13.168	13.487
ProbeTrack11	1	ProbeTrack	11.1	SCS215a	20100810.121515	20100810.122251	8	0.013327	60	0	60-180	60	125	GapExp	0	64	2	45	1	target	1	454	773	32614	13.328	12.161	14.495
ProbeTrack11	1	ProbeTrack	11.1	SCS215a	20100810.121515	20100810.122258	8	0.013327	60	0	60-180	60	121	GapExp	0	65	2	1	1	target	1	733	634	33248	13.328	12.951	13.712
ProbeTrack11	1	ProbeTrack	11.1	SCS215a	20100810.121515	20100810.122304	8	0.013327	60	10	60-180	60	87	GapExp	0	66	2	45	0	distractor	1	587	707	33955	13.328	13.108	13.555
ProbeTrack11	1	ProbeTrack	11.1	SCS215a	20100810.121515	20100810.122311	8	0.013327	60	0	60-180	60	150	GapExp	0	67	2	45	0	distractor	1	547	727	34682	13.328	13.110	13.547
ProbeTrack11	1	ProbeTrack	11.1	SCS215a	20100810.121515	20100810.122317	8	0.013327	60	10	60-180	60	97	GapExp	0	68	2	0	1	distractor	0	880	-1000	33682	13.328	12.855	13.802
ProbeTrack11	1	ProbeTrack	11.1	SCS215a	20100810.121515	20100810.122324	8	0.013327	60	10	60-180	60	102	GapExp	0	69	2	45	0	target	0	840	-1000	32682	13.328	12.993	13.657
ProbeTrack11	1	ProbeTrack	11.1	SCS215a	20100810.121515	20100810.122330	8	0.013327	60	0	60-180	60	129	GapExp	0	70	2	3	0	distractor	1	947	527	33209	13.328	13.308	13.345
ProbeTrack11	1	ProbeTrack	11.1	SCS215a	20100810.121515	20100810.122337	8	0.013327	60	10	60-180	60	147	GapExp	0	71	2	1	1	target	1	760	620	33829	13.328	13.302	13.355
ProbeTrack11	1	ProbeTrack	11.1	SCS215a	20100810.121515	20100810.122343	8	0.013327	60	10	60-180	60	117	GapExp	0	72	2	3	1	target	1	867	567	34396	13.328	12.881	13.771
ProbeTrack11	1	ProbeTrack	11.1	SCS215a	20100810.121515	20100810.122350	8	0.013327	60	10	60-180	60	137	GapExp	0	73	2	0	0	target	0	694	-1000	33396	13.328	12.928	13.729
ProbeTrack11	1	ProbeTrack	11.1	SCS215a	20100810.121515	20100810.122356	8	0.013327	60	10	60-180	60	120	GapExp	0	74	2	3	1	distractor	0	587	-1000	32396	13.328	13.289	13.366
ProbeTrack11	1	ProbeTrack	11.1	SCS215a	20100810.121515	20100810.122403	8	0.013327	60	0	60-180	60	82	GapExp	0	75	2	3	0	distractor	1	813	594	32990	13.328	12.869	13.784
ProbeTrack11	1	ProbeTrack	11.1	SCS215a	20100810.121515	20100810.122408	8	0.013327	60	10	60-180	60	113	GapExp	0	76	2	1	1	target	1	707	647	33637	13.380	12.974	26.663
ProbeTrack11	1	ProbeTrack	11.1	SCS215a	20100810.121515	20100810.122415	8	0.013327	60	10	60-180	60	67	GapExp	0	77	2	45	1	target	1	707	647	34284	13.328	13.036	13.614
ProbeTrack11	1	ProbeTrack	11.1	SCS215a	20100810.121515	20100810.122421	8	0.013327	60	10	60-180	60	136	GapExp	0	78	2	0	1	target	1	773	614	34898	13.328	12.929	13.714
ProbeTrack11	1	ProbeTrack	11.1	SCS215a	20100810.121515	20100810.122427	8	0.013327	60	10	60-180	60	122	GapExp	0	79	2	3	0	distractor	1	1720	140	35038	13.328	13.099	13.558
ProbeTrack11	1	ProbeTrack	11.1	SCS215a	20100810.121515	20100810.122434	8	0.013327	60	0	60-180	60	103	GapExp	0	80	2	45	1	target	1	454	773	35811	13.328	12.904	13.762
ProbeTrack11	1	ProbeTrack	11.1	SCS215a	20100810.121515	20100810.122441	8	0.013327	60	10	60-180	60	159	GapExp	0	81	2	0	0	distractor	1	680	660	36471	13.328	12.993	13.667
ProbeTrack11	1	ProbeTrack	11.1	SCS215a	20100810.121515	20100810.122448	8	0.013327	60	10	60-180	60	141	GapExp	0	82	2	3	1	target	1	400	800	37271	13.328	12.985	13.663
ProbeTrack11	1	ProbeTrack	11.1	SCS215a	20100810.121515	20100810.122454	8	0.013327	60	0	60-180	60	159	GapExp	0	83	2	45	0	distractor	1	560	720	37991	13.328	13.105	13.550
ProbeTrack11	1	ProbeTrack	11.1	SCS215a	20100810.121515	20100810.122501	8	0.013327	60	10	60-180	60	89	GapExp	0	84	2	1	1	target	1	480	760	38751	13.328	13.304	13.347
ProbeTrack11	1	ProbeTrack	11.1	SCS215a	20100810.121515	20100810.122507	8	0.013327	60	0	60-180	60	123	GapExp	0	85	2	45	1	distractor	0	680	-1000	37751	13.328	12.988	13.715
ProbeTrack11	1	ProbeTrack	11.1	SCS215a	20100810.121515	20100810.122514	8	0.013327	60	0	60-180	60	166	GapExp	0	86	2	3	0	distractor	1	654	673	38424	13.328	13.303	13.353
ProbeTrack11	1	ProbeTrack	11.1	SCS215a	20100810.121515	20100810.122521	8	0.013327	60	0	60-180	60	70	GapExp	0	87	2	1	1	target	1	773	614	39038	13.328	12.853	13.795
ProbeTrack11	1	ProbeTrack	11.1	SCS215a	20100810.121515	20100810.122526	8	0.013327	60	10	60-180	60	144	GapExp	0	88	2	1	1	target	1	560	720	39758	13.328	12.949	13.714
ProbeTrack11	1	ProbeTrack	11.1	SCS215a	20100810.121515	20100810.122533	8	0.013327	60	10	60-180	60	169	GapExp	0	89	2	45	1	target	1	627	687	40445	13.328	12.843	13.797
ProbeTrack11	1	ProbeTrack	11.1	SCS215a	20100810.121515	20100810.122540	8	0.013327	60	0	60-180	60	114	GapExp	0	90	2	0	1	target	1	547	727	41172	13.328	12.853	13.772
ProbeTrack11	1	ProbeTrack	11.1	SCS215a	20100810.121515	20100810.122546	8	0.013327	60	0	60-180	60	119	GapExp	0	91	2	3	1	target	1	614	693	41865	13.328	13.308	13.347
ProbeTrack11	1	ProbeTrack	11.1	SCS215a	20100810.121515	20100810.122552	8	0.013327	60	0	60-180	60	75	GapExp	0	92	2	3	1	target	1	507	747	42612	13.328	13.092	13.549
ProbeTrack11	1	ProbeTrack	11.1	SCS215a	20100810.121515	20100810.122558	8	0.013327	60	0	60-180	60	99	GapExp	0	93	2	3	0	distractor	1	1466	267	42879	13.328	12.948	13.716
ProbeTrack11	1	ProbeTrack	11.1	SCS215a	20100810.121515	20100810.122604	8	0.013327	60	10	60-180	60	119	GapExp	0	94	2	1	0	distractor	1	840	580	43459	13.378	12.880	26.764
ProbeTrack11	1	ProbeTrack	11.1	SCS215a	20100810.121515	20100810.122611	8	0.013327	60	10	60-180	60	108	GapExp	0	95	2	3	1	distractor	0	747	-1000	42459	13.328	12.877	13.775
ProbeTrack11	1	ProbeTrack	11.1	SCS215a	20100810.121515	20100810.122617	8	0.013327	60	0	60-180	60	126	GapExp	0	96	2	1	1	target	1	641	680	43139	13.381	13.026	26.822
ProbeTrack11	1	ProbeTrack	11.1	SCS215a	20100810.121515	20100810.122623	8	0.013327	60	10	60-180	60	134	GapExp	0	97	2	3	1	target	1	574	713	43852	13.427	13.305	26.526
ProbeTrack11	1	ProbeTrack	11.1	SCS215a	20100810.121515	20100810.122629	8	0.013327	60	10	60-180	60	77	GapExp	0	98	2	3	0	distractor	1	720	640	44492	13.328	12.630	13.795
ProbeTrack11	1	ProbeTrack	11.1	SCS215a	20100810.121515	20100810.122635	8	0.013327	60	10	60-180	60	65	GapExp	0	99	2	3	0	target	0	907	-1000	43492	13.328	13.105	13.561
ProbeTrack11	1	ProbeTrack	11.1	SCS215a	20100810.121515	20100810.122641	8	0.013327	60	0	60-180	60	130	GapExp	0	100	2	1	0	37	-3	-13	-1000	42492	13.328	12.851	13.788
ProbeTrack11	1	ProbeTrack	11.1	SCS215a	20100810.121515	20100810.122647	8	0.013327	60	10	60-180	60	154	GapExp	0	101	2	1	1	target	1	600	700	43192	13.328	13.202	13.453
ProbeTrack11	1	ProbeTrack	11.1	SCS215a	20100810.121515	20100810.122654	8	0.013327	60	10	60-180	60	67	GapExp	0	102	2	3	1	target	1	520	740	43932	13.328	12.849	13.830
ProbeTrack11	1	ProbeTrack	11.1	SCS215a	20100810.121515	20100810.122700	8	0.013327	60	10	60-180	60	168	GapExp	0	103	2	45	0	target	0	920	-1000	42932	13.328	12.863	13.793
ProbeTrack11	1	ProbeTrack	11.1	SCS215a	20100810.121515	20100810.122707	8	0.013327	60	10	60-180	60	160	GapExp	0	104	2	0	1	target	1	733	634	43566	13.328	12.911	13.750
ProbeTrack11	1	ProbeTrack	11.1	SCS215a	20100810.121515	20100810.122714	8	0.013327	60	10	60-180	60	158	GapExp	0	105	2	1	0	distractor	1	667	667	44233	13.328	13.106	13.548
ProbeTrack11	1	ProbeTrack	11.1	SCS215a	20100810.121515	20100810.122721	8	0.013327	60	10	60-180	60	171	GapExp	0	106	2	0	1	target	1	800	600	44833	13.328	12.913	13.744
ProbeTrack11	1	ProbeTrack	11.1	SCS215a	20100810.121515	20100810.122728	8	0.013327	60	0	60-180	60	142	GapExp	0	107	2	3	1	target	1	574	713	45546	13.328	12.844	13.804
ProbeTrack11	1	ProbeTrack	11.1	SCS215a	20100810.121515	20100810.122735	8	0.013327	60	0	60-180	60	112	GapExp	0	108	2	0	0	distractor	1	694	653	46199	13.328	12.895	13.748
ProbeTrack11	1	ProbeTrack	11.1	SCS215a	20100810.121515	20100810.122741	8	0.013327	60	10	60-180	60	168	GapExp	0	109	2	45	1	target	1	587	707	46906	13.328	12.981	13.677
ProbeTrack11	1	ProbeTrack	11.1	SCS215a	20100810.121515	20100810.122749	8	0.013327	60	0	60-180	60	126	GapExp	0	110	2	3	0	32	-3	787	-1000	45906	13.328	12.931	13.715
ProbeTrack11	1	ProbeTrack	11.1	SCS215a	20100810.121515	20100810.122755	8	0.013327	60	10	60-180	60	75	GapExp	0	111	2	45	1	target	1	667	667	46573	13.328	13.302	13.349
ProbeTrack11	1	ProbeTrack	11.1	SCS215a	20100810.121515	20100810.122801	8	0.013327	60	10	60-180	60	177	GapExp	0	112	2	1	0	target	0	494	-1000	45573	13.328	12.941	13.728
ProbeTrack11	1	ProbeTrack	11.1	SCS215a	20100810.121515	20100810.123017	8	0.013327	60	10	60-180	60	142	GapExp	0	113	2	1	0	distractor	1	627	687	46260	13.328	12.895	13.771
ProbeTrack11	1	ProbeTrack	11.1	SCS215a	20100810.121515	20100810.123024	8	0.013327	60	10	60-180	60	106	GapExp	0	114	2	3	0	target	0	520	-1000	45260	13.328	12.930	13.739
ProbeTrack11	1	ProbeTrack	11.1	SCS215a	20100810.121515	20100810.123029	8	0.013327	60	10	60-180	60	171	GapExp	0	115	2	45	1	target	1	534	733	45993	13.328	13.027	13.628
ProbeTrack11	1	ProbeTrack	11.1	SCS215a	20100810.121515	20100810.123037	8	0.013327	60	10	60-180	60	112	GapExp	0	116	2	45	1	target	1	534	733	46726	13.328	13.010	13.645
ProbeTrack11	1	ProbeTrack	11.1	SCS215a	20100810.121515	20100810.123044	8	0.013327	60	0	60-180	60	62	GapExp	0	117	2	45	1	target	1	440	780	47506	13.328	12.890	13.759
ProbeTrack11	1	ProbeTrack	11.1	SCS215a	20100810.121515	20100810.123049	8	0.013327	60	10	60-180	60	140	GapExp	0	118	2	3	1	target	1	427	787	48293	13.328	12.857	13.789
ProbeTrack11	1	ProbeTrack	11.1	SCS215a	20100810.121515	20100810.123056	8	0.013327	60	10	60-180	60	66	GapExp	0	119	2	45	1	target	1	400	800	49093	13.328	12.903	13.758
ProbeTrack11	1	ProbeTrack	11.1	SCS215a	20100810.121515	20100810.123101	8	0.013327	60	0	60-180	60	159	GapExp	0	120	2	45	1	distractor	0	707	-1000	48093	13.328	12.873	13.797
ProbeTrack11	1	ProbeTrack	11.1	SCS215a	20100810.121515	20100810.123109	8	0.013327	60	0	60-180	60	130	GapExp	0	121	2	1	0	distractor	1	853	574	48667	13.328	12.864	13.777
ProbeTrack11	1	ProbeTrack	11.1	SCS215a	20100810.121515	20100810.123116	8	0.013327	60	0	60-180	60	173	GapExp	0	122	2	45	0	distractor	1	840	580	49247	13.328	12.901	13.763
ProbeTrack11	1	ProbeTrack	11.1	SCS215a	20100810.121515	20100810.123123	8	0.013327	60	10	60-180	60	110	GapExp	0	123	2	3	0	target	0	507	-1000	48247	13.328	13.047	13.620
ProbeTrack11	1	ProbeTrack	11.1	SCS215a	20100810.121515	20100810.123129	8	0.013327	60	10	60-180	60	144	GapExp	0	124	2	1	1	target	1	400	800	49047	13.328	12.859	13.796
ProbeTrack11	1	ProbeTrack	11.1	SCS215a	20100810.121515	20100810.123136	8	0.013327	60	0	60-180	60	117	GapExp	0	125	2	3	1	distractor	0	640	-1000	48047	13.382	13.006	26.656
ProbeTrack11	1	ProbeTrack	11.1	SCS215a	20100810.121515	20100810.123142	8	0.013327	60	0	60-180	60	142	GapExp	0	126	2	1	0	distractor	1	1293	354	48401	13.328	12.857	13.789
ProbeTrack11	1	ProbeTrack	11.1	SCS215a	20100810.121515	20100810.123149	8	0.013327	60	10	60-180	60	132	GapExp	0	127	2	45	0	distractor	1	853	574	48975	13.328	13.258	13.386
ProbeTrack11	1	ProbeTrack	11.1	SCS215a	20100810.121515	20100810.123156	8	0.013327	60	10	60-180	60	102	GapExp	0	128	2	0	1	target	1	1160	420	49395	13.328	12.889	13.796
ProbeTrack11	1	ProbeTrack	11.1	SCS215a	20100810.121515	20100810.123203	8	0.013327	60	10	60-180	60	112	GapExp	0	129	2	0	1	target	1	534	733	50128	13.328	13.100	13.555
ProbeTrack11	1	ProbeTrack	11.1	SCS215a	20100810.121515	20100810.123208	8	0.013327	60	0	60-180	60	65	GapExp	0	130	2	3	1	target	1	480	760	50888	13.328	12.906	13.766
ProbeTrack11	1	ProbeTrack	11.1	SCS215a	20100810.121515	20100810.123214	8	0.013327	60	10	60-180	60	103	GapExp	0	131	2	1	0	target	0	547	-1000	49888	13.328	12.828	13.819
ProbeTrack11	1	ProbeTrack	11.1	SCS215a	20100810.121515	20100810.123220	8	0.013327	60	0	60-180	60	178	GapExp	0	132	2	1	1	target	1	374	813	50701	13.328	13.305	13.524
ProbeTrack11	1	ProbeTrack	11.1	SCS215a	20100810.121515	20100810.123226	8	0.013327	60	0	60-180	60	179	GapExp	0	133	2	3	1	distractor	0	520	-1000	49701	13.328	12.946	13.709
ProbeTrack11	1	ProbeTrack	11.1	SCS215a	20100810.121515	20100810.123233	8	0.013327	60	0	60-180	60	144	GapExp	0	134	2	1	1	target	1	374	813	50514	13.328	13.308	13.347
ProbeTrack11	1	ProbeTrack	11.1	SCS215a	20100810.121515	20100810.123239	8	0.013327	60	10	60-180	60	175	GapExp	0	135	2	3	1	target	1	360	820	51334	13.328	12.889	13.767
ProbeTrack11	1	ProbeTrack	11.1	SCS215a	20100810.121515	20100810.123246	8	0.013327	60	10	60-180	60	94	GapExp	0	136	2	0	0	distractor	1	760	620	51954	13.328	13.103	13.543
ProbeTrack11	1	ProbeTrack	11.1	SCS215a	20100810.121515	20100810.123252	8	0.013327	60	0	60-180	60	169	GapExp	0	137	2	3	1	target	1	387	807	52761	13.328	13.094	13.563
ProbeTrack11	1	ProbeTrack	11.1	SCS215a	20100810.121515	20100810.123259	8	0.013327	60	0	60-180	60	162	GapExp	0	138	2	3	0	distractor	1	627	687	53448	13.328	13.098	13.565
ProbeTrack11	1	ProbeTrack	11.1	SCS215a	20100810.121515	20100810.123305	8	0.013327	60	10	60-180	60	141	GapExp	0	139	2	3	1	target	1	480	760	54208	13.378	13.099	26.663
ProbeTrack11	1	ProbeTrack	11.1	SCS215a	20100810.121515	20100810.123312	8	0.013327	60	10	60-180	60	132	GapExp	0	140	2	0	1	target	1	427	787	54995	13.381	12.948	26.672
ProbeTrack11	1	ProbeTrack	11.1	SCS215a	20100810.121515	20100810.123318	8	0.013327	60	10	60-180	60	90	GapExp	0	141	2	3	1	distractor	0	467	-1000	53995	13.328	13.308	13.348
ProbeTrack11	1	ProbeTrack	11.1	SCS215a	20100810.121515	20100810.123324	8	0.013327	60	10	60-180	60	139	GapExp	0	142	2	1	1	target	1	520	740	54735	13.328	12.965	13.697
ProbeTrack11	1	ProbeTrack	11.1	SCS215a	20100810.121515	20100810.123330	8	0.013327	60	0	60-180	60	124	GapExp	0	143	2	0	1	target	1	454	773	55508	13.328	13.305	13.349
ProbeTrack11	1	ProbeTrack	11.1	SCS215a	20100810.121515	20100810.123336	8	0.013327	60	0	60-180	60	78	GapExp	0	144	2	0	1	target	1	400	800	56308	13.328	13.218	13.413
ProbeTrack11	1	ProbeTrack	11.1	SCS215a	20100810.121515	20100810.123342	8	0.013327	60	10	60-180	60	88	GapExp	0	145	2	3	1	target	1	440	780	57088	13.328	12.889	13.752
ProbeTrack11	1	ProbeTrack	11.1	SCS215a	20100810.121515	20100810.123348	8	0.013327	60	10	60-180	60	147	GapExp	0	146	2	1	0	distractor	1	640	680	57768	13.328	13.093	13.548
ProbeTrack11	1	ProbeTrack	11.1	SCS215a	20100810.121515	20100810.123354	8	0.013327	60	0	60-180	60	112	GapExp	0	147	2	0	0	distractor	1	760	620	58388	13.328	12.877	13.793
ProbeTrack11	1	ProbeTrack	11.1	SCS215a	20100810.121515	20100810.123400	8	0.013327	60	10	60-180	60	118	GapExp	0	148	2	0	1	target	1	600	700	59088	13.328	12.856	13.814
ProbeTrack11	1	ProbeTrack	11.1	SCS215a	20100810.121515	20100810.123407	8	0.013327	60	0	60-180	60	68	GapExp	0	149	2	0	1	target	1	400	800	59888	13.328	13.308	13.348
ProbeTrack11	1	ProbeTrack	11.1	SCS215a	20100810.121515	20100810.123412	8	0.013327	60	10	60-180	60	134	GapExp	0	150	2	1	1	target	1	587	707	60595	13.328	13.058	13.586
ProbeTrack11	1	ProbeTrack	11.1	SCS215a	20100810.121515	20100810.123418	8	0.013327	60	10	60-180	60	75	GapExp	0	151	2	1	0	target	0	827	-1000	59595	13.328	12.878	13.785
ProbeTrack11	1	ProbeTrack	11.1	SCS215a	20100810.121515	20100810.123424	8	0.013327	60	0	60-180	60	80	GapExp	0	152	2	1	1	distractor	0	627	-1000	58595	13.328	13.112	13.542
ProbeTrack11	1	ProbeTrack	11.1	SCS215a	20100810.121515	20100810.123430	8	0.013327	60	0	60-180	60	72	GapExp	0	153	2	45	0	distractor	1	1013	494	59089	13.328	13.094	13.563
ProbeTrack11	1	ProbeTrack	11.1	SCS215a	20100810.121515	20100810.123437	8	0.013327	60	0	60-180	60	158	GapExp	0	154	2	0	0	distractor	1	893	554	59643	13.328	13.220	13.429
ProbeTrack11	1	ProbeTrack	11.1	SCS215a	20100810.121515	20100810.123444	8	0.013327	60	0	60-180	60	173	GapExp	0	155	2	45	0	distractor	1	747	627	60270	13.328	13.118	13.556
ProbeTrack11	1	ProbeTrack	11.1	SCS215a	20100810.121515	20100810.123451	8	0.013327	60	10	60-180	60	94	GapExp	0	156	2	0	0	distractor	1	1093	454	60724	13.328	13.103	13.552
ProbeTrack11	1	ProbeTrack	11.1	SCS215a	20100810.121515	20100810.123458	8	0.013327	60	10	60-180	60	98	GapExp	0	157	2	45	1	target	1	494	753	61477	13.328	13.111	13.557
ProbeTrack11	1	ProbeTrack	11.1	SCS215a	20100810.121515	20100810.123504	8	0.013327	60	0	60-180	60	170	GapExp	0	158	2	3	1	target	1	534	733	62210	13.328	12.899	13.771
ProbeTrack11	1	ProbeTrack	11.1	SCS215a	20100810.121515	20100810.123511	8	0.013327	60	10	60-180	60	120	GapExp	0	159	2	45	1	target	1	440	780	62990	13.328	12.873	13.787
ProbeTrack11	1	ProbeTrack	11.1	SCS215a	20100810.121515	20100810.123517	8	0.013327	60	0	60-180	60	137	GapExp	0	160	2	45	1	target	1	520	740	63730	13.328	12.946	13.712
ProbeTrack11	1	ProbeTrack	11.1	SCS215a	20100810.121515	20100810.123524	8	0.013327	60	0	60-180	60	96	GapExp	0	161	2	1	1	target	1	587	707	64437	13.328	13.105	13.555
ProbeTrack11	1	ProbeTrack	11.1	SCS215a	20100810.121515	20100810.123552	8	0.013327	60	0	60-180	60	111	GapExp	0	162	2	45	1	target	1	707	647	65084	13.327	12.959	13.683
ProbeTrack11	1	ProbeTrack	11.1	SCS215a	20100810.121515	20100810.123600	8	0.013327	60	10	60-180	60	145	GapExp	0	163	2	3	0	distractor	1	773	614	65698	13.328	12.935	13.556
ProbeTrack11	1	ProbeTrack	11.1	SCS215a	20100810.121515	20100810.123607	8	0.013327	60	0	60-180	60	113	GapExp	0	164	2	45	0	distractor	1	707	647	66345	13.328	12.899	13.759
ProbeTrack11	1	ProbeTrack	11.1	SCS215a	20100810.121515	20100810.123614	8	0.013327	60	0	60-180	60	126	GapExp	0	165	2	3	0	distractor	1	880	560	66905	13.328	12.981	13.641
ProbeTrack11	1	ProbeTrack	11.1	SCS215a	20100810.121515	20100810.123620	8	0.013327	60	10	60-180	60	75	GapExp	0	166	2	0	0	distractor	1	827	587	67492	13.328	13.184	13.479
ProbeTrack11	1	ProbeTrack	11.1	SCS215a	20100810.121515	20100810.123626	8	0.013327	60	0	60-180	60	67	GapExp	0	167	2	1	1	target	1	1027	487	67979	13.328	13.307	13.348
ProbeTrack11	1	ProbeTrack	11.1	SCS215a	20100810.121515	20100810.123632	8	0.013327	60	0	60-180	60	159	GapExp	0	168	2	45	1	target	1	374	813	68792	13.328	10.733	15.916
ProbeTrack11	1	ProbeTrack	11.1	SCS215a	20100810.121515	20100810.123639	8	0.013327	60	0	60-180	60	104	GapExp	0	169	2	3	0	distractor	1	680	660	69452	13.328	13.278	13.369
ProbeTrack11	1	ProbeTrack	11.1	SCS215a	20100810.121515	20100810.123645	8	0.013327	60	10	60-180	60	130	GapExp	0	170	2	0	0	distractor	1	680	660	70112	13.328	13.107	13.548
ProbeTrack11	1	ProbeTrack	11.1	SCS215a	20100810.121515	20100810.123651	8	0.013327	60	10	60-180	60	158	GapExp	0	171	2	0	0	distractor	1	694	653	70765	13.328	13.297	13.370
ProbeTrack11	1	ProbeTrack	11.1	SCS215a	20100810.121515	20100810.123658	8	0.013327	60	0	60-180	60	160	GapExp	0	172	2	0	1	target	1	494	753	71518	13.328	13.102	13.544
ProbeTrack11	1	ProbeTrack	11.1	SCS215a	20100810.121515	20100810.123704	8	0.013327	60	10	60-180	60	88	GapExp	0	173	2	0	0	distractor	1	613	694	72212	13.328	12.841	13.814
ProbeTrack11	1	ProbeTrack	11.1	SCS215a	20100810.121515	20100810.123710	8	0.013327	60	10	60-180	60	98	GapExp	0	174	2	1	0	distractor	1	707	647	72859	13.328	12.846	13.796
ProbeTrack11	1	ProbeTrack	11.1	SCS215a	20100810.121515	20100810.123716	8	0.013327	60	10	60-180	60	139	GapExp	0	175	2	1	1	target	1	613	694	73553	13.328	13.306	13.352
ProbeTrack11	1	ProbeTrack	11.1	SCS215a	20100810.121515	20100810.123722	8	0.013327	60	0	60-180	60	114	GapExp	0	176	2	1	1	target	1	440	780	74333	13.328	13.304	13.349
ProbeTrack11	1	ProbeTrack	11.1	SCS215a	20100810.121515	20100810.123729	8	0.013327	60	10	60-180	60	160	GapExp	0	177	2	45	1	target	1	440	780	75113	13.328	12.973	13.650
ProbeTrack11	1	ProbeTrack	11.1	SCS215a	20100810.121515	20100810.123736	8	0.013327	60	0	60-180	60	143	GapExp	0	178	2	3	0	distractor	1	920	540	75653	13.328	13.296	13.362
ProbeTrack11	1	ProbeTrack	11.1	SCS215a	20100810.121515	20100810.123743	8	0.013327	60	10	60-180	60	66	GapExp	0	179	2	3	1	target	1	560	720	76373	13.328	13.300	13.352
ProbeTrack11	1	ProbeTrack	11.1	SCS215a	20100810.121515	20100810.123748	8	0.013327	60	10	60-180	60	163	GapExp	0	180	2	0	1	target	1	387	807	77180	13.328	12.947	13.707
ProbeTrack11	1	ProbeTrack	11.1	SCS215a	20100810.121515	20100810.123755	8	0.013327	60	10	60-180	60	144	GapExp	0	181	2	3	0	distractor	1	640	680	77860	13.328	12.842	13.791
ProbeTrack11	1	ProbeTrack	11.1	SCS215a	20100810.121515	20100810.123801	8	0.013327	60	10	60-180	60	172	GapExp	0	182	2	3	1	target	1	520	740	78600	13.328	12.839	13.828
ProbeTrack11	1	ProbeTrack	11.1	SCS215a	20100810.121515	20100810.123808	8	0.013327	60	0	60-180	60	143	GapExp	0	183	2	1	0	distractor	1	613	694	79294	13.328	12.867	13.791
ProbeTrack11	1	ProbeTrack	11.1	SCS215a	20100810.121515	20100810.123814	8	0.013327	60	10	60-180	60	176	GapExp	0	184	2	0	1	distractor	0	520	-1000	78294	13.328	13.084	13.563
ProbeTrack11	1	ProbeTrack	11.1	SCS215a	20100810.121515	20100810.123821	8	0.013327	60	0	60-180	60	132	GapExp	0	185	2	45	1	target	1	1173	414	78708	13.328	12.910	13.757
ProbeTrack11	1	ProbeTrack	11.1	SCS215a	20100810.121515	20100810.124107	8	0.013327	60	0	60-180	60	113	GapExp	0	186	2	1	0	distractor	1	3292	0	78708	13.328	12.892	13.764
ProbeTrack11	1	ProbeTrack	11.1	SCS215a	20100810.121515	20100810.124116	8	0.013327	60	10	60-180	60	96	GapExp	0	187	2	1	1	target	1	573	714	79422	13.328	12.936	13.732
ProbeTrack11	1	ProbeTrack	11.1	SCS215a	20100810.121515	20100810.124121	8	0.013327	60	10	60-180	60	65	GapExp	0	188	2	0	1	target	1	693	654	80076	13.393	13.307	26.682
ProbeTrack11	1	ProbeTrack	11.1	SCS215a	20100810.121515	20100810.124127	8	0.013327	60	10	60-180	60	178	GapExp	0	189	2	1	0	distractor	1	494	753	80829	13.328	13.303	13.349
ProbeTrack11	1	ProbeTrack	11.1	SCS215a	20100810.121515	20100810.124134	8	0.013327	60	10	60-180	60	92	GapExp	0	190	2	45	1	target	1	707	647	81476	13.328	13.210	13.453
ProbeTrack11	1	ProbeTrack	11.1	SCS215a	20100810.121515	20100810.124140	8	0.013327	60	0	60-180	60	124	GapExp	0	191	2	1	0	target	0	920	-1000	80476	13.328	13.271	13.372
ProbeTrack11	1	ProbeTrack	11.1	SCS215a	20100810.121515	20100810.124147	8	0.013327	60	10	60-180	60	179	GapExp	0	192	2	3	0	78	-3	1280	-1000	79476	13.327	13.094	13.566
ProbeTrack11	1	ProbeTrack	11.1	SCS215a	20100810.121515	20100810.124214	8	0.013327	60	0	60-180	60	82	GapExp	0	193	2	0	0	32	-3	880	-1000	78476	13.328	13.099	13.568
ProbeTrack11	1	ProbeTrack	11.1	SCS215a	20100810.121515	20100810.124220	8	0.013327	60	10	60-180	60	95	GapExp	0	194	2	45	0	distractor	1	840	580	79056	13.328	12.919	13.722
ProbeTrack11	1	ProbeTrack	11.1	SCS215a	20100810.121515	20100810.124226	8	0.013327	60	10	60-180	60	133	GapExp	0	195	2	0	1	186	-3	534	-1000	78056	13.328	12.920	13.730
ProbeTrack11	1	ProbeTrack	11.1	SCS215a	20100810.121515	20100810.124233	8	0.013327	60	10	60-180	60	108	GapExp	0	196	2	1	1	186	-3	533	-1000	77056	13.384	12.863	26.672
ProbeTrack11	1	ProbeTrack	11.1	SCS215a	20100810.121515	20100810.124239	8	0.013327	60	10	60-180	60	129	GapExp	0	197	2	0	0	target	0	827	-1000	76056	13.328	12.913	13.745
ProbeTrack11	1	ProbeTrack	11.1	SCS215a	20100810.121515	20100810.124245	8	0.013327	60	10	60-180	60	131	GapExp	0	198	2	3	0	distractor	1	640	680	76736	13.328	12.881	13.772
ProbeTrack11	1	ProbeTrack	11.1	SCS215a	20100810.121515	20100810.124252	8	0.013327	60	10	60-180	60	176	GapExp	0	199	2	3	0	target	0	1853	-1000	75736	13.410	12.901	26.544
ProbeTrack11	1	ProbeTrack	11.1	SCS215a	20100810.121515	20100810.124300	8	0.013327	60	0	60-180	60	148	GapExp	0	200	2	0	1	target	1	2173	0	75736	13.328	12.853	13.802
ProbeTrack11	1	ProbeTrack	11.1	SCS215a	20100810.121515	20100810.124308	8	0.013327	60	10	60-180	60	136	GapExp	0	201	2	3	1	distractor	0	1053	-1000	74736	13.328	12.966	13.683
ProbeTrack11	1	ProbeTrack	11.1	SCS215a	20100810.121515	20100810.125010	8	0.013327	60	10	60-180	60	90	GapExp	0	202	2	0	1	target	1	667	667	75403	13.328	13.292	13.363
ProbeTrack11	1	ProbeTrack	11.1	SCS215a	20100810.121515	20100810.125017	8	0.013327	60	0	60-180	60	80	GapExp	0	203	2	3	1	target	1	560	720	76123	13.328	13.147	13.511
ProbeTrack11	1	ProbeTrack	11.1	SCS215a	20100810.121515	20100810.125024	8	0.013327	60	10	60-180	60	63	GapExp	0	204	2	1	0	distractor	1	614	693	76816	13.328	13.101	13.563
ProbeTrack11	1	ProbeTrack	11.1	SCS215a	20100810.121515	20100810.125029	8	0.013327	60	0	60-180	60	115	GapExp	0	205	2	3	1	target	1	494	753	77569	13.328	13.030	13.624
ProbeTrack11	1	ProbeTrack	11.1	SCS215a	20100810.121515	20100810.125035	8	0.013327	60	10	60-180	60	135	GapExp	0	206	2	0	1	target	1	653	674	78243	13.328	12.863	13.786
ProbeTrack11	1	ProbeTrack	11.1	SCS215a	20100810.121515	20100810.125041	8	0.013327	60	10	60-180	60	115	GapExp	0	207	2	1	0	target	0	947	-1000	77243	13.328	13.118	13.553
ProbeTrack11	1	ProbeTrack	11.1	SCS215a	20100810.121515	20100810.125048	8	0.013327	60	0	60-180	60	108	GapExp	0	208	2	0	1	target	1	613	694	77937	13.328	13.307	13.364
ProbeTrack11	1	ProbeTrack	11.1	SCS215a	20100810.121515	20100810.125054	8	0.013327	60	0	60-180	60	146	GapExp	0	209	2	45	1	target	1	813	594	78531	13.409	13.300	26.703
ProbeTrack11	1	ProbeTrack	11.1	SCS215a	20100810.121515	20100810.125101	8	0.013327	60	10	60-180	60	108	GapExp	0	210	2	45	1	target	1	600	700	79231	13.328	13.307	13.349
ProbeTrack11	1	ProbeTrack	11.1	SCS215a	20100810.121515	20100810.125107	8	0.013327	60	0	60-180	60	178	GapExp	0	211	2	0	0	distractor	1	1280	360	79591	13.328	12.855	13.807
ProbeTrack11	1	ProbeTrack	11.1	SCS215a	20100810.121515	20100810.125336	8	0.013327	60	0	60-180	60	170	GapExp	0	212	2	45	0	distractor	1	680	660	80251	13.328	12.945	13.715
ProbeTrack11	1	ProbeTrack	11.1	SCS215a	20100810.121515	20100810.125344	8	0.013327	60	10	60-180	60	145	GapExp	0	213	2	0	0	distractor	1	734	633	80884	13.328	13.161	13.492
ProbeTrack11	1	ProbeTrack	11.1	SCS215a	20100810.121515	20100810.125354	8	0.013327	60	0	60-180	60	167	GapExp	0	214	2	0	0	distractor	1	640	680	81564	13.328	12.864	13.788
ProbeTrack11	1	ProbeTrack	11.1	SCS215a	20100810.121515	20100810.125404	8	0.013327	60	10	60-180	60	163	GapExp	0	215	2	1	1	distractor	0	653	-1000	80564	13.328	13.230	13.422
ProbeTrack11	1	ProbeTrack	11.1	SCS215a	20100810.121515	20100810.125413	8	0.013327	60	0	60-180	60	115	GapExp	0	216	2	3	0	distractor	1	614	693	81257	13.328	12.860	13.792
ProbeTrack11	1	ProbeTrack	11.1	SCS215a	20100810.121515	20100810.125419	8	0.013327	60	0	60-180	60	129	GapExp	0	217	2	0	0	target	0	680	-1000	80257	13.328	12.846	13.821
ProbeTrack11	1	ProbeTrack	11.1	SCS215a	20100810.121515	20100810.125425	8	0.013327	60	0	60-180	60	139	GapExp	0	218	2	3	1	target	1	654	673	80930	13.328	12.861	13.799
ProbeTrack11	1	ProbeTrack	11.1	SCS215a	20100810.121515	20100810.125441	8	0.013327	60	10	60-180	60	163	GapExp	0	219	2	0	0	distractor	1	640	680	81610	13.328	12.923	13.738
ProbeTrack11	1	ProbeTrack	11.1	SCS215a	20100810.121515	20100810.125447	8	0.013327	60	10	60-180	60	172	GapExp	0	220	2	0	1	distractor	0	334	-1000	80610	13.328	13.099	13.556
ProbeTrack11	1	ProbeTrack	11.1	SCS215a	20100810.121515	20100810.125454	8	0.013327	60	10	60-180	60	82	GapExp	0	221	2	1	0	distractor	1	893	554	81164	13.328	13.083	13.567
ProbeTrack11	1	ProbeTrack	11.1	SCS215a	20100810.121515	20100810.125500	8	0.013327	60	10	60-180	60	78	GapExp	0	222	2	1	1	target	1	2159	0	81164	13.328	13.174	13.484
ProbeTrack11	1	ProbeTrack	11.1	SCS215a	20100810.121515	20100810.125507	8	0.013327	60	0	60-180	60	148	GapExp	0	223	2	1	1	target	1	494	753	81917	13.328	13.303	13.352
ProbeTrack11	1	ProbeTrack	11.1	SCS215a	20100810.121515	20100810.125513	8	0.013327	60	0	60-180	60	105	GapExp	0	224	2	3	0	distractor	1	334	833	82750	13.391	13.278	26.655
ProbeTrack11	1	ProbeTrack	11.1	SCS215a	20100810.121515	20100810.125519	8	0.013327	60	0	60-180	60	178	GapExp	0	225	2	45	0	target	0	374	-1000	81750	13.328	13.128	13.524
ProbeTrack11	1	ProbeTrack	11.1	SCS215a	20100810.121515	20100810.125526	8	0.013327	60	10	60-180	60	136	GapExp	0	226	2	0	0	32	-3	94	-1000	80750	13.328	12.857	13.801
ProbeTrack11	1	ProbeTrack	11.1	SCS215a	20100810.121515	20100810.125532	8	0.013327	60	10	60-180	60	151	GapExp	0	227	2	0	0	distractor	1	534	733	81483	13.376	13.165	26.656
ProbeTrack11	1	ProbeTrack	11.1	SCS215a	20100810.121515	20100810.125539	8	0.013327	60	0	60-180	60	102	GapExp	0	228	2	0	1	target	1	1800	100	81583	13.328	12.865	13.789
ProbeTrack11	1	ProbeTrack	11.1	SCS215a	20100810.121515	20100810.130149	8	0.013327	60	0	60-180	60	168	GapExp	0	229	2	45	1	target	1	494	753	82336	13.328	12.871	13.793
ProbeTrack11	1	ProbeTrack	11.1	SCS215a	20100810.121515	20100810.130157	8	0.013327	60	10	60-180	60	114	GapExp	0	230	2	45	0	distractor	1	720	640	82976	13.328	12.857	13.769
ProbeTrack11	1	ProbeTrack	11.1	SCS215a	20100810.121515	20100810.130204	8	0.013327	60	10	60-180	60	157	GapExp	0	231	2	1	1	target	1	654	673	83649	13.328	12.904	13.743
ProbeTrack11	1	ProbeTrack	11.1	SCS215a	20100810.121515	20100810.130210	8	0.013327	60	10	60-180	60	164	GapExp	0	232	2	45	1	target	1	587	707	84356	13.328	13.110	13.541
ProbeTrack11	1	ProbeTrack	11.1	SCS215a	20100810.121515	20100810.130218	8	0.013327	60	10	60-180	60	164	GapExp	0	233	2	1	0	distractor	1	627	687	85043	13.372	13.105	26.685
ProbeTrack11	1	ProbeTrack	11.1	SCS215a	20100810.121515	20100810.130225	8	0.013327	60	10	60-180	60	61	GapExp	0	234	2	1	0	32	-3	1000	-1000	84043	13.328	12.862	13.801
ProbeTrack11	1	ProbeTrack	11.1	SCS215a	20100810.121515	20100810.130230	8	0.013327	60	0	60-180	60	84	GapExp	0	235	2	45	0	distractor	1	681	660	84703	13.328	12.880	13.767
ProbeTrack11	1	ProbeTrack	11.1	SCS215a	20100810.121515	20100810.130255	8	0.013327	60	0	60-180	60	158	GapExp	0	236	2	1	1	target	1	467	767	85470	13.328	13.063	13.590
ProbeTrack11	1	ProbeTrack	11.1	SCS215a	20100810.121515	20100810.130301	8	0.013327	60	0	60-180	60	131	GapExp	0	237	2	3	0	distractor	1	613	694	86164	13.328	13.303	13.346
ProbeTrack11	1	ProbeTrack	11.1	SCS215a	20100810.121515	20100810.130307	8	0.013327	60	10	60-180	60	118	GapExp	0	238	2	45	0	distractor	1	534	733	86897	13.328	12.871	13.782
ProbeTrack11	1	ProbeTrack	11.1	SCS215a	20100810.121515	20100810.130314	8	0.013327	60	0	60-180	60	82	GapExp	0	239	2	0	1	target	1	547	727	87624	13.328	13.306	13.348
ProbeTrack11	1	ProbeTrack	11.1	SCS215a	20100810.121515	20100810.130320	8	0.013327	60	0	60-180	60	155	GapExp	0	240	2	3	1	target	1	547	727	88351	13.328	13.101	13.558
ProbeTrack11	1	ProbeTrack	11.1	SCS215a	20100810.121515	20100810.130326	8	0.013327	60	0	60-180	60	124	GapExp	0	241	2	45	0	distractor	1	560	720	89071	13.328	12.945	13.712
ProbeTrack11	1	ProbeTrack	11.1	SCS215a	20100810.121515	20100810.130333	8	0.013327	60	10	60-180	60	86	GapExp	0	242	2	0	0	distractor	1	627	687	89758	13.328	13.061	13.604
ProbeTrack11	1	ProbeTrack	11.1	SCS215a	20100810.121515	20100810.130338	8	0.013327	60	0	60-180	60	174	GapExp	0	243	2	1	0	distractor	1	573	714	90472	13.328	12.861	13.795
ProbeTrack11	1	ProbeTrack	11.1	SCS215a	20100810.121515	20100810.130346	8	0.013327	60	10	60-180	60	73	GapExp	0	244	2	0	1	target	1	507	747	91219	13.328	13.303	13.347
ProbeTrack11	1	ProbeTrack	11.1	SCS215a	20100810.121515	20100810.130351	8	0.013327	60	10	60-180	60	81	GapExp	0	245	2	3	0	distractor	1	520	740	91959	13.328	12.944	13.718
ProbeTrack11	1	ProbeTrack	11.1	SCS215a	20100810.121515	20100810.130357	8	0.013327	60	10	60-180	60	112	GapExp	0	246	2	0	1	target	1	560	720	92679	13.328	13.306	13.353
ProbeTrack11	1	ProbeTrack	11.1	SCS215a	20100810.121515	20100810.130402	8	0.013327	60	10	60-180	60	158	GapExp	0	247	2	45	0	32	-3	1240	-1000	91679	13.328	13.108	13.543
ProbeTrack11	1	ProbeTrack	11.1	SCS215a	20100810.121515	20100810.130410	8	0.013327	60	10	60-180	60	72	GapExp	0	248	2	45	0	distractor	1	600	700	92379	13.328	12.958	13.714
ProbeTrack11	1	ProbeTrack	11.1	SCS215a	20100810.121515	20100810.130417	8	0.013327	60	10	60-180	60	149	GapExp	0	249	2	1	1	target	1	587	707	93086	13.328	13.104	13.557
ProbeTrack11	1	ProbeTrack	11.1	SCS215a	20100810.121515	20100810.130423	8	0.013327	60	10	60-180	60	137	GapExp	0	250	2	3	0	distractor	1	667	667	93753	13.328	13.104	13.556
ProbeTrack11	1	ProbeTrack	11.1	SCS215a	20100810.121515	20100810.130430	8	0.013327	60	10	60-180	60	155	GapExp	0	251	2	3	0	distractor	1	534	733	94486	13.328	13.107	13.558
ProbeTrack11	1	ProbeTrack	11.1	SCS215a	20100810.121515	20100810.130437	8	0.013327	60	0	60-180	60	87	GapExp	0	252	2	3	0	distractor	1	734	633	95119	13.328	13.110	13.534
ProbeTrack11	1	ProbeTrack	11.1	SCS215a	20100810.121515	20100810.130443	8	0.013327	60	0	60-180	60	100	GapExp	0	253	2	45	1	target	1	387	807	95926	13.328	12.870	13.793
ProbeTrack11	1	ProbeTrack	11.1	SCS215a	20100810.121515	20100810.130449	8	0.013327	60	0	60-180	60	91	GapExp	0	254	2	1	1	target	1	414	793	96719	13.328	13.305	13.352
ProbeTrack11	1	ProbeTrack	11.1	SCS215a	20100810.121515	20100810.130455	8	0.013327	60	0	60-180	60	155	GapExp	0	255	2	0	0	distractor	1	653	674	97393	13.328	13.021	13.646
ProbeTrack11	1	ProbeTrack	11.1	SCS215a	20100810.121515	20100810.130501	8	0.013327	60	0	60-180	60	69	GapExp	0	256	2	45	1	target	1	520	740	98133	13.328	12.990	13.680
ProbeTrack11	1	ProbeTrack	11.1	SCS215a	20100810.121515	20100810.130507	8	0.013327	60	0	60-180	60	72	GapExp	0	257	2	1	1	target	1	480	760	98893	13.328	13.116	13.539
ProbeTrack11	1	ProbeTrack	11.1	SCS215a	20100810.121515	20100810.130512	8	0.013327	60	10	60-180	60	103	GapExp	0	258	2	1	1	target	1	494	753	99646	13.328	13.106	13.549
ProbeTrack11	1	ProbeTrack	11.1	SCS215a	20100810.121515	20100810.130518	8	0.013327	60	0	60-180	60	61	GapExp	0	259	2	1	1	target	1	587	707	100353	13.328	13.246	13.406
ProbeTrack11	1	ProbeTrack	11.1	SCS215a	20100810.121515	20100810.130523	8	0.013327	60	0	60-180	60	83	GapExp	0	260	2	1	0	distractor	1	400	800	101153	13.397	12.888	13.762
ProbeTrack11	1	ProbeTrack	11.1	SCS215a	20100810.121515	20100810.130553	8	0.013327	60	10	60-180	60	145	GapExp	0	261	2	1	1	target	1	347	827	101980	13.328	12.955	13.721
ProbeTrack11	1	ProbeTrack	11.1	SCS215a	20100810.121515	20100810.130559	8	0.013327	60	10	60-180	60	149	GapExp	0	262	2	3	0	distractor	1	600	700	102680	13.328	13.306	13.358
ProbeTrack11	1	ProbeTrack	11.1	SCS215a	20100810.121515	20100810.130606	8	0.013327	60	0	60-180	60	161	GapExp	0	263	2	3	0	distractor	1	467	767	103447	13.328	13.274	13.388
ProbeTrack11	1	ProbeTrack	11.1	SCS215a	20100810.121515	20100810.130612	8	0.013327	60	0	60-180	60	77	GapExp	0	264	2	3	0	distractor	1	507	747	104194	13.328	13.299	13.362
ProbeTrack11	1	ProbeTrack	11.1	SCS215a	20100810.121515	20100810.130618	8	0.013327	60	10	60-180	60	70	GapExp	0	265	2	3	0	distractor	1	560	720	104914	13.328	12.870	13.801
ProbeTrack11	1	ProbeTrack	11.1	SCS215a	20100810.121515	20100810.130623	8	0.013327	60	0	60-180	60	166	GapExp	0	266	2	0	1	target	1	667	667	105581	13.328	12.850	13.775
ProbeTrack11	1	ProbeTrack	11.1	SCS215a	20100810.121515	20100810.130630	8	0.013327	60	10	60-180	60	176	GapExp	0	267	2	3	1	target	1	400	800	106381	13.328	12.874	13.783
ProbeTrack11	1	ProbeTrack	11.1	SCS215a	20100810.121515	20100810.130637	8	0.013327	60	0	60-180	60	133	GapExp	0	268	2	45	0	distractor	1	3359	0	106381	13.327	12.986	13.661
ProbeTrack11	1	ProbeTrack	11.1	SCS215a	20100810.121515	20100810.130646	8	0.013327	60	10	60-180	60	175	GapExp	0	269	2	45	0	target	0	574	-1000	105381	13.328	13.114	13.560
ProbeTrack11	1	ProbeTrack	11.1	SCS215a	20100810.121515	20100810.130654	8	0.013327	60	10	60-180	60	74	GapExp	0	270	2	0	1	target	1	507	747	106128	13.328	12.963	13.685
ProbeTrack11	1	ProbeTrack	11.1	SCS215a	20100810.121515	20100810.130659	8	0.013327	60	0	60-180	60	142	GapExp	0	271	2	45	1	target	1	627	687	106815	13.328	12.857	13.784
ProbeTrack11	1	ProbeTrack	11.1	SCS215a	20100810.121515	20100810.130706	8	0.013327	60	0	60-180	60	114	GapExp	0	272	2	1	0	distractor	1	667	667	107482	13.328	13.308	13.346
ProbeTrack11	1	ProbeTrack	11.1	SCS215a	20100810.121515	20100810.130713	8	0.013327	60	0	60-180	60	131	GapExp	0	273	2	0	0	distractor	1	747	627	108109	13.328	13.104	13.543
ProbeTrack11	1	ProbeTrack	11.1	SCS215a	20100810.121515	20100810.130719	8	0.013327	60	0	60-180	60	78	GapExp	0	274	2	3	1	target	1	667	667	108776	13.328	13.108	13.546
ProbeTrack11	1	ProbeTrack	11.1	SCS215a	20100810.121515	20100810.130725	8	0.013327	60	0	60-180	60	85	GapExp	0	275	2	1	0	distractor	1	713	644	109420	13.328	12.897	13.755
ProbeTrack11	1	ProbeTrack	11.1	SCS215a	20100810.121515	20100810.130730	8	0.013327	60	0	60-180	60	124	GapExp	0	276	2	45	1	target	1	773	614	110034	13.328	13.308	13.350
ProbeTrack11	1	ProbeTrack	11.1	SCS215a	20100810.121515	20100810.130737	8	0.013327	60	10	60-180	60	82	GapExp	0	277	2	0	0	32	-3	467	-1000	109034	13.328	12.883	13.778
ProbeTrack11	1	ProbeTrack	11.1	SCS215a	20100810.121515	20100810.130743	8	0.013327	60	0	60-180	60	109	GapExp	0	278	2	1	0	distractor	1	813	594	109628	13.328	13.253	13.408
ProbeTrack11	1	ProbeTrack	11.1	SCS215a	20100810.121515	20100810.130749	8	0.013327	60	0	60-180	60	70	GapExp	0	279	2	0	1	target	1	560	720	110348	13.328	13.307	13.348
ProbeTrack11	1	ProbeTrack	11.1	SCS215a	20100810.121515	20100810.130754	8	0.013327	60	0	60-180	60	170	GapExp	0	280	2	0	0	distractor	1	534	733	111081	13.328	12.905	13.745
ProbeTrack11	1	ProbeTrack	11.1	SCS215a	20100810.121515	20100810.130801	8	0.013327	60	0	60-180	60	86	GapExp	0	281	2	45	0	distractor	1	667	667	111748	13.328	12.971	13.678
ProbeTrack11	1	ProbeTrack	11.1	SCS215a	20100810.121515	20100810.130807	8	0.013327	60	0	60-180	60	69	GapExp	0	282	2	45	0	distractor	1	587	707	112455	13.328	12.950	13.709
ProbeTrack11	1	ProbeTrack	11.1	SCS215a	20100810.121515	20100810.130813	8	0.013327	60	0	60-180	60	176	GapExp	0	283	2	0	1	target	1	454	773	113228	13.328	13.102	13.553
ProbeTrack11	1	ProbeTrack	11.1	SCS215a	20100810.121515	20100810.130821	8	0.013327	60	10	60-180	60	88	GapExp	0	284	2	1	0	distractor	1	694	653	113881	13.328	13.016	13.638
ProbeTrack11	1	ProbeTrack	11.1	SCS215a	20100810.121515	20100810.130827	8	0.013327	60	0	60-180	60	165	GapExp	0	285	2	3	0	distractor	1	560	720	114601	13.328	12.859	13.806
ProbeTrack11	1	ProbeTrack	11.1	SCS215a	20100810.121515	20100810.130834	8	0.013327	60	0	60-180	60	121	GapExp	0	286	2	0	1	target	1	454	773	115374	13.385	12.871	27.120
ProbeTrack11	1	ProbeTrack	11.1	SCS215a	20100810.121515	20100810.130840	8	0.013327	60	0	60-180	60	136	GapExp	0	287	2	0	1	target	1	427	787	116161	13.328	12.888	13.781
ProbeTrack11	1	ProbeTrack	11.1	SCS215a	20100810.121515	20100810.130846	8	0.013327	60	10	60-180	60	159	GapExp	0	288	2	3	1	distractor	0	574	-1000	115161	13.328	12.958	13.688
ProbeTrack11	1	ProbeTrack	11.1	SCS215a	20100810.121515	20100810.130852	8	0.013327	60	0	60-180	60	106	GapExp	0	289	2	0	1	target	1	507	747	115908	13.328	12.840	13.814
ProbeTrack11	1	ProbeTrack	11.1	SCS215a	20100810.121515	20100810.130905	8	0.013327	60	10	60-180	60	65	GapExp	0	290	2	3	0	distractor	1	813	594	116502	13.328	13.150	13.518
ProbeTrack11	1	ProbeTrack	11.1	SCS215a	20100810.121515	20100810.130911	8	0.013327	60	0	60-180	60	178	GapExp	0	291	2	1	0	distractor	1	693	654	117156	13.328	13.072	13.584
ProbeTrack11	1	ProbeTrack	11.1	SCS215a	20100810.121515	20100810.130918	8	0.013327	60	0	60-180	60	76	GapExp	0	292	2	3	1	target	1	480	760	117916	13.328	12.984	13.671
ProbeTrack11	1	ProbeTrack	11.1	SCS215a	20100810.121515	20100810.130924	8	0.013327	60	10	60-180	60	138	GapExp	0	293	2	3	1	target	1	480	760	118676	13.378	13.084	26.649
ProbeTrack11	1	ProbeTrack	11.1	SCS215a	20100810.121515	20100810.130930	8	0.013327	60	10	60-180	60	170	GapExp	0	294	2	1	1	target	1	480	760	119436	13.328	12.915	13.728
ProbeTrack11	1	ProbeTrack	11.1	SCS215a	20100810.121515	20100810.130937	8	0.013327	60	10	60-180	60	169	GapExp	0	295	2	1	1	target	1	414	793	120229	13.328	12.841	13.809
ProbeTrack11	1	ProbeTrack	11.1	SCS215a	20100810.121515	20100810.130944	8	0.013327	60	10	60-180	60	83	GapExp	0	296	2	45	1	target	1	560	720	120949	13.328	12.916	13.719
ProbeTrack11	1	ProbeTrack	11.1	SCS215a	20100810.121515	20100810.130950	8	0.013327	60	0	60-180	60	180	GapExp	0	297	2	3	0	target	0	640	-1000	119949	13.328	12.829	13.809
ProbeTrack11	1	ProbeTrack	11.1	SCS215a	20100810.121515	20100810.130957	8	0.013327	60	10	60-180	60	69	GapExp	0	298	2	45	0	distractor	1	627	687	120636	13.328	13.307	13.352
ProbeTrack11	1	ProbeTrack	11.1	SCS215a	20100810.121515	20100810.131003	8	0.013327	60	10	60-180	60	175	GapExp	0	299	2	1	0	target	0	614	-1000	119636	13.328	13.169	13.486
ProbeTrack11	1	ProbeTrack	11.1	SCS215a	20100810.121515	20100810.131010	8	0.013327	60	0	60-180	60	91	GapExp	0	300	2	1	0	distractor	1	1000	500	120136	13.328	12.863	13.793
ProbeTrack11	1	ProbeTrack	11.1	SCS215a	20100810.121515	20100810.131016	8	0.013327	60	10	60-180	60	92	GapExp	0	301	2	0	0	distractor	1	547	727	120863	13.328	13.308	13.349
ProbeTrack11	1	ProbeTrack	11.1	SCS215a	20100810.121515	20100810.131021	8	0.013327	60	0	60-180	60	170	GapExp	0	302	2	0	1	32	-3	400	-1000	119863	13.424	12.878	27.088
ProbeTrack11	1	ProbeTrack	11.1	SCS215a	20100810.121515	20100810.131028	8	0.013327	60	10	60-180	60	101	GapExp	0	303	2	45	0	distractor	1	627	687	120550	13.328	13.085	13.562
ProbeTrack11	1	ProbeTrack	11.1	SCS215a	20100810.121515	20100810.131034	8	0.013327	60	0	60-180	60	129	GapExp	0	304	2	1	1	target	1	693	654	121204	13.431	12.977	27.070
ProbeTrack11	1	ProbeTrack	11.1	SCS215a	20100810.121515	20100810.131041	8	0.013327	60	10	60-180	60	106	GapExp	0	305	2	45	0	distractor	1	587	707	121911	13.328	13.089	13.556
ProbeTrack11	1	ProbeTrack	11.1	SCS215a	20100810.121515	20100810.131048	8	0.013327	60	0	60-180	60	114	GapExp	0	306	2	1	0	distractor	1	880	560	122471	13.328	13.304	13.348
ProbeTrack11	1	ProbeTrack	11.1	SCS215a	20100810.121515	20100810.131129	8	0.013327	60	0	60-180	60	150	GapExp	0	307	2	3	1	target	1	1586	207	122678	13.328	12.942	13.701
ProbeTrack11	1	ProbeTrack	11.1	SCS215a	20100810.121515	20100810.131138	8	0.013327	60	10	60-180	60	112	GapExp	0	308	2	0	0	distractor	1	560	720	123398	13.328	13.098	13.552
ProbeTrack11	1	ProbeTrack	11.1	SCS215a	20100810.121515	20100810.131144	8	0.013327	60	0	60-180	60	157	GapExp	0	309	2	3	1	target	1	680	660	124058	13.328	12.970	13.686
ProbeTrack11	1	ProbeTrack	11.1	SCS215a	20100810.121515	20100810.131151	8	0.013327	60	0	60-180	60	70	GapExp	0	310	2	3	1	target	1	1293	354	124412	13.328	12.856	13.796
ProbeTrack11	1	ProbeTrack	11.1	SCS215a	20100810.121515	20100810.131157	8	0.013327	60	10	60-180	60	117	GapExp	0	311	2	0	0	distractor	1	614	693	125105	13.381	13.104	26.662
ProbeTrack11	1	ProbeTrack	11.1	SCS215a	20100810.121515	20100810.131233	8	0.013327	60	10	60-180	60	144	GapExp	0	312	2	45	1	target	1	427	787	125892	13.328	13.273	13.401
ProbeTrack11	1	ProbeTrack	11.1	SCS215a	20100810.121515	20100810.131239	8	0.013327	60	0	60-180	60	92	GapExp	0	313	2	3	1	target	1	587	707	126599	13.328	13.082	13.581
ProbeTrack11	1	ProbeTrack	11.1	SCS215a	20100810.121515	20100810.131245	8	0.013327	60	0	60-180	60	163	GapExp	0	314	2	0	0	distractor	1	480	760	127359	13.328	12.935	13.716
ProbeTrack11	1	ProbeTrack	11.1	SCS215a	20100810.121515	20100810.131251	8	0.013327	60	0	60-180	60	63	GapExp	0	315	2	3	0	distractor	1	747	627	127986	13.328	13.031	13.620
ProbeTrack11	1	ProbeTrack	11.1	SCS215a	20100810.121515	20100810.131257	8	0.013327	60	10	60-180	60	110	GapExp	0	316	2	3	1	distractor	0	720	-1000	126986	13.328	13.307	13.356
ProbeTrack11	1	ProbeTrack	11.1	SCS215a	20100810.121515	20100810.131303	8	0.013327	60	0	60-180	60	116	GapExp	0	317	2	0	1	target	1	614	693	127679	13.328	13.143	13.504
ProbeTrack11	1	ProbeTrack	11.1	SCS215a	20100810.121515	20100810.131309	8	0.013327	60	10	60-180	60	125	GapExp	0	318	2	45	1	target	1	614	693	128372	13.328	12.862	13.796
ProbeTrack11	1	ProbeTrack	11.1	SCS215a	20100810.121515	20100810.131316	8	0.013327	60	0	60-180	60	163	GapExp	0	319	2	45	0	distractor	1	693	654	129026	13.329	12.868	13.827
ProbeTrack11	1	ProbeTrack	11.1	SCS215a	20100810.121515	20100810.131323	8	0.013327	60	0	60-180	60	75	GapExp	0	320	2	3	1	target	1	574	713	129739	13.328	12.961	13.696
ProbeTrack11	1	ProbeTrack	11.1	SCS215a	20100810.121515	20100810.131329	8	0.013327	60	10	60-180	60	173	GapExp	0	321	2	45	0	distractor	1	467	767	130506	13.328	12.883	13.791
ProbeTrack11	1	ProbeTrack	11.1	SCS215a	20100810.121515	20100810.131413	8	0.013327	60	10	60-180	60	114	GapExp	0	322	2	45	0	distractor	1	520	740	131246	13.328	12.932	13.719
ProbeTrack11	1	ProbeTrack	11.1	SCS215a	20100810.121515	20100810.131420	8	0.013327	60	10	60-180	60	166	GapExp	0	323	2	0	1	target	1	720	640	131886	13.328	12.867	13.783
ProbeTrack11	1	ProbeTrack	11.1	SCS215a	20100810.121515	20100810.131426	8	0.013327	60	0	60-180	60	124	GapExp	0	324	2	0	1	target	1	773	614	132500	13.328	10.693	15.982
ProbeTrack11	1	ProbeTrack	11.1	SCS215a	20100810.121515	20100810.131432	8	0.013327	60	10	60-180	60	125	GapExp	0	325	2	45	0	target	0	534	-1000	131500	13.328	12.864	13.782
