exp	sub	code	rev	comp	runtime	trialtime	nstim	refreshdur	cuedur	gapdur	gapOnsetRange	durPostProbe	gapOnsetTime	blocktype	prac	trial	ntargets	soa	probeTarget	resp	acc	rt	pts	tpts	meanFrameDur	minFrameDur	maxFrameDur
ProbeTrack11	18	ProbeTrack	11.2	SCS215a	20101110.130635	20101110.130723	8	0.013338	60	0	60-180	60	143	NoGap	1	1	2	3	1	distractor	0	16433	-1000	-1000	13.328	13.090	13.570
ProbeTrack11	18	ProbeTrack	11.2	SCS215a	20101110.130635	20101110.130752	8	0.013338	60	0	60-180	60	77	NoGap	1	2	2	0	1	target	1	773	614	-386	13.328	13.267	13.378
ProbeTrack11	18	ProbeTrack	11.2	SCS215a	20101110.130635	20101110.130800	8	0.013338	60	0	60-180	60	132	NoGap	1	3	2	1	0	distractor	1	547	727	341	13.328	13.308	13.348
ProbeTrack11	18	ProbeTrack	11.2	SCS215a	20101110.130635	20101110.130816	8	0.013338	60	0	60-180	60	79	NoGap	1	4	2	45	0	distractor	1	574	713	1054	13.328	13.211	13.433
ProbeTrack11	18	ProbeTrack	11.2	SCS215a	20101110.130635	20101110.130822	8	0.013338	60	0	60-180	60	162	NoGap	1	5	2	45	0	distractor	1	440	780	1834	13.328	13.010	13.647
ProbeTrack11	18	ProbeTrack	11.2	SCS215a	20101110.130635	20101110.130829	8	0.013338	60	0	60-180	60	97	NoGap	1	6	2	3	0	distractor	1	467	767	2601	13.327	13.288	13.361
ProbeTrack11	18	ProbeTrack	11.2	SCS215a	20101110.130635	20101110.130835	8	0.013338	60	0	60-180	60	87	NoGap	1	7	2	45	1	distractor	0	414	-1000	1601	13.328	13.288	13.364
ProbeTrack11	18	ProbeTrack	11.2	SCS215a	20101110.130635	20101110.130844	8	0.013338	60	0	60-180	60	145	NoGap	1	8	2	3	0	distractor	1	707	647	2248	13.328	13.303	13.348
ProbeTrack11	18	ProbeTrack	11.2	SCS215a	20101110.130635	20101110.130850	8	0.013338	60	0	60-180	60	154	NoGap	1	9	2	45	1	target	1	4212	0	2248	13.328	13.076	13.584
ProbeTrack11	18	ProbeTrack	11.2	SCS215a	20101110.130635	20101110.130901	8	0.013338	60	0	60-180	60	170	NoGap	1	10	2	45	0	distractor	1	574	713	2961	13.328	13.308	13.351
ProbeTrack11	18	ProbeTrack	11.2	SCS215a	20101110.130635	20101110.130909	8	0.013338	60	0	60-180	60	113	NoGap	1	11	2	3	1	distractor	0	454	-1000	1961	13.328	12.962	13.709
ProbeTrack11	18	ProbeTrack	11.2	SCS215a	20101110.130635	20101110.130915	8	0.013338	60	0	60-180	60	134	NoGap	1	12	2	3	0	distractor	1	520	740	2701	13.328	13.098	13.564
ProbeTrack11	18	ProbeTrack	11.2	SCS215a	20101110.130635	20101110.130921	8	0.013338	60	0	60-180	60	95	NoGap	1	13	2	0	1	distractor	0	1240	-1000	1701	13.328	12.878	13.766
ProbeTrack11	18	ProbeTrack	11.2	SCS215a	20101110.130635	20101110.130928	8	0.013338	60	0	60-180	60	120	NoGap	1	14	2	0	0	distractor	1	720	640	2341	13.328	12.838	13.813
ProbeTrack11	18	ProbeTrack	11.2	SCS215a	20101110.130635	20101110.130934	8	0.013338	60	0	60-180	60	66	NoGap	1	15	2	45	1	target	1	880	560	2901	13.328	12.888	13.763
ProbeTrack11	18	ProbeTrack	11.2	SCS215a	20101110.130635	20101110.130941	8	0.013338	60	0	60-180	60	114	NoGap	1	16	2	1	1	target	1	1000	500	3401	13.328	13.309	13.347
ProbeTrack11	18	ProbeTrack	11.2	SCS215a	20101110.130635	20101110.130947	8	0.013338	60	0	60-180	60	61	NoGap	1	17	2	1	0	distractor	1	734	633	4034	13.328	13.311	13.346
ProbeTrack11	18	ProbeTrack	11.2	SCS215a	20101110.130635	20101110.130954	8	0.013338	60	0	60-180	60	134	NoGap	1	18	2	1	0	distractor	1	627	687	4721	13.328	12.886	13.778
ProbeTrack11	18	ProbeTrack	11.2	SCS215a	20101110.130635	20101110.131000	8	0.013338	60	0	60-180	60	86	NoGap	1	19	2	0	0	distractor	1	667	667	5388	13.328	13.182	13.465
ProbeTrack11	18	ProbeTrack	11.2	SCS215a	20101110.130635	20101110.131006	8	0.013338	60	0	60-180	60	135	NoGap	1	20	2	0	0	distractor	1	427	787	6175	13.328	12.906	13.748
ProbeTrack11	18	ProbeTrack	11.2	SCS215a	20101110.130635	20101110.131012	8	0.013338	60	0	60-180	60	153	NoGap	1	21	2	3	1	target	1	627	687	6862	13.328	13.307	13.351
ProbeTrack11	18	ProbeTrack	11.2	SCS215a	20101110.130635	20101110.131019	8	0.013338	60	0	60-180	60	85	NoGap	1	22	2	45	1	target	1	534	733	7595	13.328	13.110	13.544
ProbeTrack11	18	ProbeTrack	11.2	SCS215a	20101110.130635	20101110.131026	8	0.013338	60	0	60-180	60	82	NoGap	1	23	2	0	0	distractor	1	427	787	8382	13.328	12.895	13.771
ProbeTrack11	18	ProbeTrack	11.2	SCS215a	20101110.130635	20101110.131031	8	0.013338	60	0	60-180	60	123	NoGap	1	24	2	45	0	distractor	1	547	727	9109	13.328	12.887	13.757
ProbeTrack11	18	ProbeTrack	11.2	SCS215a	20101110.130635	20101110.131038	8	0.013338	60	0	60-180	60	80	NoGap	1	25	2	3	0	distractor	1	667	667	9776	13.328	13.308	13.344
ProbeTrack11	18	ProbeTrack	11.2	SCS215a	20101110.130635	20101110.131044	8	0.013338	60	0	60-180	60	70	NoGap	1	26	2	1	1	distractor	0	640	-1000	8776	13.328	13.308	13.347
ProbeTrack11	18	ProbeTrack	11.2	SCS215a	20101110.130635	20101110.131049	8	0.013338	60	0	60-180	60	71	NoGap	1	27	2	1	0	distractor	1	773	614	9390	13.328	13.311	13.348
ProbeTrack11	18	ProbeTrack	11.2	SCS215a	20101110.130635	20101110.131055	8	0.013338	60	0	60-180	60	117	NoGap	1	28	2	0	1	target	1	880	560	9950	13.328	13.113	13.550
ProbeTrack11	18	ProbeTrack	11.2	SCS215a	20101110.130635	20101110.131101	8	0.013338	60	0	60-180	60	79	NoGap	1	29	2	45	0	distractor	1	627	687	10637	13.328	12.921	13.737
ProbeTrack11	18	ProbeTrack	11.2	SCS215a	20101110.130635	20101110.131108	8	0.013338	60	0	60-180	60	68	NoGap	1	30	2	3	1	target	1	853	574	11211	13.328	13.077	13.562
ProbeTrack11	18	ProbeTrack	11.2	SCS215a	20101110.130635	20101110.131114	8	0.013338	60	0	60-180	60	80	NoGap	1	31	2	0	0	distractor	1	880	560	11771	13.328	13.309	13.348
ProbeTrack11	18	ProbeTrack	11.2	SCS215a	20101110.130635	20101110.131120	8	0.013338	60	0	60-180	60	134	NoGap	1	32	2	3	0	distractor	1	507	747	12518	13.328	13.309	13.348
ProbeTrack11	18	ProbeTrack	11.2	SCS215a	20101110.130635	20101110.131126	8	0.013338	60	0	60-180	60	161	NoGap	1	33	2	1	1	target	1	600	700	13218	13.328	13.004	13.647
ProbeTrack11	18	ProbeTrack	11.2	SCS215a	20101110.130635	20101110.131133	8	0.013338	60	0	60-180	60	77	NoGap	1	34	2	1	1	distractor	0	840	-1000	12218	13.328	13.309	13.345
ProbeTrack11	18	ProbeTrack	11.2	SCS215a	20101110.130635	20101110.131139	8	0.013338	60	0	60-180	60	155	NoGap	1	35	2	1	0	distractor	1	720	640	12858	13.328	13.300	13.361
ProbeTrack11	18	ProbeTrack	11.2	SCS215a	20101110.130635	20101110.131145	8	0.013338	60	0	60-180	60	82	NoGap	1	36	2	0	1	target	1	720	640	13498	13.328	12.900	13.771
ProbeTrack11	18	ProbeTrack	11.2	SCS215a	20101110.130635	20101110.131151	8	0.013338	60	0	60-180	60	165	NoGap	1	37	2	1	1	target	1	547	727	14225	13.328	13.304	13.344
ProbeTrack11	18	ProbeTrack	11.2	SCS215a	20101110.130635	20101110.131157	8	0.013338	60	0	60-180	60	136	NoGap	1	38	2	3	1	target	1	614	693	14918	13.328	13.103	13.567
ProbeTrack11	18	ProbeTrack	11.2	SCS215a	20101110.130635	20101110.131204	8	0.013338	60	0	60-180	60	71	NoGap	1	39	2	45	1	target	1	813	594	15512	13.328	13.110	13.558
ProbeTrack11	18	ProbeTrack	11.2	SCS215a	20101110.130635	20101110.131210	8	0.013338	60	0	60-180	60	135	NoGap	1	40	2	0	1	target	1	507	747	16259	13.328	13.108	13.549
ProbeTrack11	18	ProbeTrack	11.2	SCS215a	20101110.131255	20101110.131307	8	0.013328	60	0	60-180	60	145	GapPrac	1	1	2	45	0	distractor	1	747	627	16886	13.328	12.965	13.679
ProbeTrack11	18	ProbeTrack	11.2	SCS215a	20101110.131255	20101110.131315	8	0.013328	60	10	60-180	60	168	GapPrac	1	2	2	45	1	distractor	0	614	-1000	15886	13.328	13.113	13.557
ProbeTrack11	18	ProbeTrack	11.2	SCS215a	20101110.131255	20101110.131322	8	0.013328	60	0	60-180	60	170	GapPrac	1	3	2	1	1	186	-3	907	-1000	14886	13.328	13.309	13.347
ProbeTrack11	18	ProbeTrack	11.2	SCS215a	20101110.131255	20101110.131335	8	0.013328	60	0	60-180	60	75	GapPrac	1	4	2	3	1	target	1	1973	14	14900	13.328	13.310	13.349
ProbeTrack11	18	ProbeTrack	11.2	SCS215a	20101110.131255	20101110.131344	8	0.013328	60	10	60-180	60	125	GapPrac	1	5	2	1	0	distractor	1	1173	414	15314	13.328	13.305	13.347
ProbeTrack11	18	ProbeTrack	11.2	SCS215a	20101110.131255	20101110.131353	8	0.013328	60	10	60-180	60	74	GapPrac	1	6	2	3	0	distractor	1	893	554	15868	13.328	13.305	13.347
ProbeTrack11	18	ProbeTrack	11.2	SCS215a	20101110.131255	20101110.131359	8	0.013328	60	0	60-180	60	68	GapPrac	1	7	2	45	1	target	1	800	600	16468	13.328	13.309	13.347
ProbeTrack11	18	ProbeTrack	11.2	SCS215a	20101110.131255	20101110.131406	8	0.013328	60	0	60-180	60	149	GapPrac	1	8	2	3	0	distractor	1	680	660	17128	13.328	13.308	13.347
ProbeTrack11	18	ProbeTrack	11.2	SCS215a	20101110.131255	20101110.131414	8	0.013328	60	10	60-180	60	149	GapPrac	1	9	2	1	1	distractor	0	667	-1000	16128	13.328	13.297	13.353
ProbeTrack11	18	ProbeTrack	11.2	SCS215a	20101110.131255	20101110.131421	8	0.013328	60	0	60-180	60	134	GapPrac	1	10	2	1	1	target	1	653	674	16802	13.328	13.308	13.347
ProbeTrack11	18	ProbeTrack	11.2	SCS215a	20101110.131255	20101110.131427	8	0.013328	60	0	60-180	60	167	GapPrac	1	11	2	45	0	distractor	1	733	634	17436	13.328	13.289	13.355
ProbeTrack11	18	ProbeTrack	11.2	SCS215a	20101110.131255	20101110.131435	8	0.013328	60	0	60-180	60	153	GapPrac	1	12	2	0	0	target	0	853	-1000	16436	13.328	13.300	13.347
ProbeTrack11	18	ProbeTrack	11.2	SCS215a	20101110.131255	20101110.131442	8	0.013328	60	10	60-180	60	103	GapPrac	1	13	2	45	0	distractor	1	813	594	17030	13.328	13.307	13.346
ProbeTrack11	18	ProbeTrack	11.2	SCS215a	20101110.131255	20101110.131449	8	0.013328	60	10	60-180	60	62	GapPrac	1	14	2	0	1	target	1	947	527	17557	13.521	13.291	26.665
ProbeTrack11	18	ProbeTrack	11.2	SCS215a	20101110.131255	20101110.131455	8	0.013328	60	10	60-180	60	64	GapPrac	1	15	2	3	1	target	1	613	694	18251	13.328	13.307	13.353
ProbeTrack11	18	ProbeTrack	11.2	SCS215a	20101110.131255	20101110.131501	8	0.013328	60	0	60-180	60	64	GapPrac	1	16	2	0	1	target	1	627	687	18938	13.328	12.908	13.747
ProbeTrack11	18	ProbeTrack	11.2	SCS215a	20101110.131255	20101110.131506	8	0.013328	60	0	60-180	60	148	GapPrac	1	17	2	1	0	distractor	1	720	640	19578	13.328	13.094	13.570
ProbeTrack11	18	ProbeTrack	11.2	SCS215a	20101110.131255	20101110.131513	8	0.013328	60	10	60-180	60	131	GapPrac	1	18	2	45	1	distractor	0	960	-1000	18578	13.328	13.107	13.548
ProbeTrack11	18	ProbeTrack	11.2	SCS215a	20101110.131255	20101110.131521	8	0.013328	60	0	60-180	60	86	GapPrac	1	19	2	3	1	target	1	747	627	19205	13.328	13.099	13.545
ProbeTrack11	18	ProbeTrack	11.2	SCS215a	20101110.131255	20101110.131527	8	0.013328	60	10	60-180	60	163	GapPrac	1	20	2	0	0	target	0	867	-1000	18205	13.328	13.096	13.559
ProbeTrack11	18	ProbeTrack	11.2	SCS215a	20101110.131609	20101110.131615	8	0.013328	60	10	60-180	60	117	GapPrac	1	1	2	3	1	target	1	560	720	18925	13.328	13.306	13.346
ProbeTrack11	18	ProbeTrack	11.2	SCS215a	20101110.131609	20101110.131623	8	0.013328	60	10	60-180	60	112	GapPrac	1	2	2	1	0	distractor	1	560	720	19645	13.328	13.105	13.538
ProbeTrack11	18	ProbeTrack	11.2	SCS215a	20101110.131609	20101110.131629	8	0.013328	60	0	60-180	60	158	GapPrac	1	3	2	1	0	distractor	1	667	667	20312	13.328	13.113	13.549
ProbeTrack11	18	ProbeTrack	11.2	SCS215a	20101110.131609	20101110.131637	8	0.013328	60	0	60-180	60	129	GapPrac	1	4	2	3	0	distractor	1	600	700	21012	13.800	13.112	133.275
ProbeTrack11	18	ProbeTrack	11.2	SCS215a	20101110.131609	20101110.131643	8	0.013328	60	0	60-180	60	156	GapPrac	1	5	2	3	1	distractor	0	640	-1000	20012	13.328	13.081	13.556
ProbeTrack11	18	ProbeTrack	11.2	SCS215a	20101110.131609	20101110.131650	8	0.013328	60	0	60-180	60	74	GapPrac	1	6	2	0	1	target	1	853	574	20586	13.328	13.311	13.349
ProbeTrack11	18	ProbeTrack	11.2	SCS215a	20101110.131609	20101110.131655	8	0.013328	60	0	60-180	60	158	GapPrac	1	7	2	0	0	distractor	1	880	560	21146	13.328	13.309	13.345
ProbeTrack11	18	ProbeTrack	11.2	SCS215a	20101110.131609	20101110.131702	8	0.013328	60	10	60-180	60	89	GapPrac	1	8	2	0	1	target	1	787	607	21753	13.328	13.310	13.346
ProbeTrack11	18	ProbeTrack	11.2	SCS215a	20101110.131609	20101110.131708	8	0.013328	60	10	60-180	60	153	GapPrac	1	9	2	1	0	distractor	1	960	520	22273	13.328	13.309	13.346
ProbeTrack11	18	ProbeTrack	11.2	SCS215a	20101110.131609	20101110.131716	8	0.013328	60	10	60-180	60	129	GapPrac	1	10	2	45	0	target	0	-13	-1000	21273	13.328	12.943	13.701
ProbeTrack11	18	ProbeTrack	11.2	SCS215a	20101110.131609	20101110.131722	8	0.013328	60	10	60-180	60	116	GapPrac	1	11	2	3	0	target	0	787	-1000	20273	13.328	12.860	13.789
ProbeTrack11	18	ProbeTrack	11.2	SCS215a	20101110.131609	20101110.131729	8	0.013328	60	0	60-180	60	128	GapPrac	1	12	2	1	1	target	1	867	567	20840	13.328	13.232	13.432
ProbeTrack11	18	ProbeTrack	11.2	SCS215a	20101110.131609	20101110.131735	8	0.013328	60	10	60-180	60	97	GapPrac	1	13	2	1	1	distractor	0	920	-1000	19840	13.328	13.309	13.347
ProbeTrack11	18	ProbeTrack	11.2	SCS215a	20101110.131609	20101110.131741	8	0.013328	60	10	60-180	60	81	GapPrac	1	14	2	3	1	target	1	640	680	20520	13.328	13.058	13.604
ProbeTrack11	18	ProbeTrack	11.2	SCS215a	20101110.131609	20101110.131747	8	0.013328	60	0	60-180	60	156	GapPrac	1	15	2	1	0	distractor	1	813	594	21114	13.328	13.098	13.549
ProbeTrack11	18	ProbeTrack	11.2	SCS215a	20101110.131609	20101110.131754	8	0.013328	60	0	60-180	60	147	GapPrac	1	16	2	3	0	distractor	1	1506	247	21361	13.328	13.304	13.361
ProbeTrack11	18	ProbeTrack	11.2	SCS215a	20101110.131609	20101110.131801	8	0.013328	60	10	60-180	60	138	GapPrac	1	17	2	45	1	target	1	827	587	21948	13.328	12.859	13.799
ProbeTrack11	18	ProbeTrack	11.2	SCS215a	20101110.131609	20101110.131809	8	0.013328	60	0	60-180	60	173	GapPrac	1	18	2	45	0	distractor	1	680	660	22608	13.328	13.093	13.563
ProbeTrack11	18	ProbeTrack	11.2	SCS215a	20101110.131609	20101110.131817	8	0.013328	60	0	60-180	60	89	GapPrac	1	19	2	45	1	target	1	707	647	23255	13.328	13.307	13.350
ProbeTrack11	18	ProbeTrack	11.2	SCS215a	20101110.131609	20101110.131823	8	0.013328	60	10	60-180	60	136	GapPrac	1	20	2	0	0	target	0	720	-1000	22255	13.328	13.092	13.564
ProbeTrack11	18	ProbeTrack	11.2	SCS215a	20101110.131908	20101110.131914	8	0.013328	60	10	60-180	60	169	GapPrac	1	1	2	45	0	distractor	1	1187	407	22662	13.328	12.859	13.814
ProbeTrack11	18	ProbeTrack	11.2	SCS215a	20101110.131908	20101110.131924	8	0.013328	60	10	60-180	60	157	GapPrac	1	2	2	1	1	target	1	880	560	23222	13.328	13.105	13.544
ProbeTrack11	18	ProbeTrack	11.2	SCS215a	20101110.131908	20101110.131932	8	0.013328	60	10	60-180	60	121	GapPrac	1	3	2	3	1	target	1	1093	454	23676	13.328	13.096	13.553
ProbeTrack11	18	ProbeTrack	11.2	SCS215a	20101110.131908	20101110.131938	8	0.013328	60	0	60-180	60	105	GapPrac	1	4	2	45	0	distractor	1	1107	447	24123	13.328	13.301	13.345
ProbeTrack11	18	ProbeTrack	11.2	SCS215a	20101110.131908	20101110.131946	8	0.013328	60	10	60-180	60	129	GapPrac	1	5	2	45	0	distractor	1	1120	440	24563	13.328	13.094	13.556
ProbeTrack11	18	ProbeTrack	11.2	SCS215a	20101110.131908	20101110.131953	8	0.013328	60	0	60-180	60	152	GapPrac	1	6	2	1	1	target	1	1600	200	24763	13.328	12.889	13.765
ProbeTrack11	18	ProbeTrack	11.2	SCS215a	20101110.131908	20101110.132001	8	0.013328	60	10	60-180	60	90	GapPrac	1	7	2	3	0	distractor	1	827	587	25350	13.328	12.879	13.771
ProbeTrack11	18	ProbeTrack	11.2	SCS215a	20101110.131908	20101110.132008	8	0.013328	60	10	60-180	60	126	GapPrac	1	8	2	0	1	target	1	1226	387	25737	13.328	12.943	13.705
ProbeTrack11	18	ProbeTrack	11.2	SCS215a	20101110.131908	20101110.132015	8	0.013328	60	0	60-180	60	148	GapPrac	1	9	2	0	0	distractor	1	853	574	26311	13.328	13.098	13.564
ProbeTrack11	18	ProbeTrack	11.2	SCS215a	20101110.131908	20101110.132022	8	0.013328	60	0	60-180	60	156	GapPrac	1	10	2	45	1	target	1	800	600	26911	13.328	12.907	13.735
ProbeTrack11	18	ProbeTrack	11.2	SCS215a	20101110.131908	20101110.132029	8	0.013328	60	0	60-180	60	86	GapPrac	1	11	2	3	0	distractor	1	813	594	27505	13.328	13.104	13.556
ProbeTrack11	18	ProbeTrack	11.2	SCS215a	20101110.131908	20101110.132035	8	0.013328	60	0	60-180	60	80	GapPrac	1	12	2	45	0	distractor	1	987	507	28012	13.328	13.116	13.551
ProbeTrack11	18	ProbeTrack	11.2	SCS215a	20101110.131908	20101110.132042	8	0.013328	60	10	60-180	60	93	GapPrac	1	13	2	3	1	target	1	667	667	28679	13.328	12.924	13.727
ProbeTrack11	18	ProbeTrack	11.2	SCS215a	20101110.131908	20101110.132048	8	0.013328	60	10	60-180	60	62	GapPrac	1	14	2	45	1	target	1	573	714	29393	13.328	12.972	13.673
ProbeTrack11	18	ProbeTrack	11.2	SCS215a	20101110.131908	20101110.132054	8	0.013328	60	10	60-180	60	62	GapPrac	1	15	2	1	0	distractor	1	640	680	30073	13.328	13.308	13.347
ProbeTrack11	18	ProbeTrack	11.2	SCS215a	20101110.131908	20101110.132059	8	0.013328	60	0	60-180	60	121	GapPrac	1	16	2	3	1	target	1	747	627	30700	13.328	13.206	13.451
ProbeTrack11	18	ProbeTrack	11.2	SCS215a	20101110.131908	20101110.132106	8	0.013328	60	10	60-180	60	146	GapPrac	1	17	2	1	1	target	1	960	520	31220	13.328	13.309	13.347
ProbeTrack11	18	ProbeTrack	11.2	SCS215a	20101110.131908	20101110.132113	8	0.013328	60	0	60-180	60	92	GapPrac	1	18	2	1	0	distractor	1	680	660	31880	13.328	13.255	13.407
ProbeTrack11	18	ProbeTrack	11.2	SCS215a	20101110.131908	20101110.132119	8	0.013328	60	10	60-180	60	64	GapPrac	1	19	2	0	0	distractor	1	561	720	32600	13.328	13.059	13.582
ProbeTrack11	18	ProbeTrack	11.2	SCS215a	20101110.131908	20101110.132124	8	0.013328	60	0	60-180	60	149	GapPrac	1	20	2	0	1	target	1	787	607	33207	13.328	13.100	13.570
ProbeTrack11	18	ProbeTrack	11.2	SCS215a	20101110.132205	20101110.132257	8	0.013328	60	10	60-180	60	92	GapExp	1	1	2	1	0	target	0	1933	-1000	32207	13.328	13.310	13.347
ProbeTrack11	18	ProbeTrack	11.2	SCS215a	20101110.132205	20101110.132305	8	0.013328	60	10	60-180	60	71	GapExp	1	2	2	0	1	target	1	707	647	32854	13.328	13.310	13.351
ProbeTrack11	18	ProbeTrack	11.2	SCS215a	20101110.132205	20101110.132311	8	0.013328	60	10	60-180	60	157	GapExp	0	3	2	0	1	target	1	1133	434	33288	13.328	13.310	13.348
ProbeTrack11	18	ProbeTrack	11.2	SCS215a	20101110.132205	20101110.132319	8	0.013328	60	10	60-180	60	177	GapExp	0	4	2	45	0	distractor	1	533	734	34022	13.328	13.299	13.358
ProbeTrack11	18	ProbeTrack	11.2	SCS215a	20101110.132205	20101110.132326	8	0.013328	60	0	60-180	60	95	GapExp	0	5	2	45	0	distractor	1	720	640	34662	13.328	13.308	13.343
ProbeTrack11	18	ProbeTrack	11.2	SCS215a	20101110.132205	20101110.132333	8	0.013328	60	0	60-180	60	151	GapExp	0	6	2	45	0	distractor	1	613	694	35356	13.328	13.309	13.346
ProbeTrack11	18	ProbeTrack	11.2	SCS215a	20101110.132205	20101110.132340	8	0.013328	60	10	60-180	60	132	GapExp	0	7	2	45	0	distractor	1	574	713	36069	13.328	12.911	13.751
ProbeTrack11	18	ProbeTrack	11.2	SCS215a	20101110.132205	20101110.132347	8	0.013328	60	0	60-180	60	159	GapExp	0	8	2	1	0	distractor	1	1093	454	36523	13.328	13.105	13.550
ProbeTrack11	18	ProbeTrack	11.2	SCS215a	20101110.132205	20101110.132359	8	0.013328	60	10	60-180	60	70	GapExp	0	9	2	45	0	distractor	1	534	733	37256	13.328	12.851	13.806
ProbeTrack11	18	ProbeTrack	11.2	SCS215a	20101110.132205	20101110.132406	8	0.013328	60	10	60-180	60	128	GapExp	0	10	2	45	1	target	1	627	687	37943	13.328	12.919	13.743
ProbeTrack11	18	ProbeTrack	11.2	SCS215a	20101110.132205	20101110.132413	8	0.013328	60	0	60-180	60	97	GapExp	0	11	2	45	1	target	1	640	680	38623	13.328	13.114	13.541
ProbeTrack11	18	ProbeTrack	11.2	SCS215a	20101110.132205	20101110.132419	8	0.013328	60	10	60-180	60	138	GapExp	0	12	2	3	1	target	1	560	720	39343	13.328	13.094	13.556
ProbeTrack11	18	ProbeTrack	11.2	SCS215a	20101110.132205	20101110.132426	8	0.013328	60	10	60-180	60	120	GapExp	0	13	2	1	0	distractor	1	747	627	39970	13.328	12.894	13.761
ProbeTrack11	18	ProbeTrack	11.2	SCS215a	20101110.132205	20101110.132432	8	0.013328	60	0	60-180	60	97	GapExp	0	14	2	45	0	distractor	1	653	674	40644	13.328	13.102	13.547
ProbeTrack11	18	ProbeTrack	11.2	SCS215a	20101110.132205	20101110.132438	8	0.013328	60	10	60-180	60	110	GapExp	0	15	2	1	0	distractor	1	760	620	41264	13.328	13.293	13.550
ProbeTrack11	18	ProbeTrack	11.2	SCS215a	20101110.132205	20101110.132445	8	0.013328	60	10	60-180	60	135	GapExp	0	16	2	3	1	target	1	653	674	41938	13.328	12.861	13.788
ProbeTrack11	18	ProbeTrack	11.2	SCS215a	20101110.132205	20101110.132451	8	0.013328	60	0	60-180	60	139	GapExp	0	17	2	45	1	target	1	574	713	42651	13.328	13.034	13.621
ProbeTrack11	18	ProbeTrack	11.2	SCS215a	20101110.132205	20101110.132458	8	0.013328	60	10	60-180	60	176	GapExp	0	18	2	45	0	target	0	454	-1000	41651	13.328	12.887	13.769
ProbeTrack11	18	ProbeTrack	11.2	SCS215a	20101110.132205	20101110.132506	8	0.013328	60	0	60-180	60	62	GapExp	0	19	2	3	1	target	1	1013	494	42145	13.327	13.299	13.349
ProbeTrack11	18	ProbeTrack	11.2	SCS215a	20101110.132205	20101110.132511	8	0.013328	60	10	60-180	60	115	GapExp	0	20	2	3	0	distractor	1	693	654	42799	13.328	13.303	13.348
ProbeTrack11	18	ProbeTrack	11.2	SCS215a	20101110.132205	20101110.132518	8	0.013328	60	10	60-180	60	66	GapExp	0	21	2	45	0	distractor	1	600	700	43499	13.328	13.294	13.355
ProbeTrack11	18	ProbeTrack	11.2	SCS215a	20101110.132205	20101110.132524	8	0.013328	60	10	60-180	60	127	GapExp	0	22	2	45	1	target	1	414	793	44292	13.328	12.857	13.799
ProbeTrack11	18	ProbeTrack	11.2	SCS215a	20101110.132205	20101110.132530	8	0.013328	60	0	60-180	60	175	GapExp	0	23	2	45	1	target	1	507	747	45039	13.328	13.095	13.549
ProbeTrack11	18	ProbeTrack	11.2	SCS215a	20101110.132205	20101110.132538	8	0.013328	60	0	60-180	60	76	GapExp	0	24	2	1	1	target	1	640	680	45719	13.328	13.307	13.343
ProbeTrack11	18	ProbeTrack	11.2	SCS215a	20101110.132205	20101110.132543	8	0.013328	60	0	60-180	60	113	GapExp	0	25	2	1	1	target	1	454	773	46492	13.328	13.308	13.351
ProbeTrack11	18	ProbeTrack	11.2	SCS215a	20101110.132205	20101110.132549	8	0.013328	60	0	60-180	60	77	GapExp	0	26	2	0	1	target	1	520	740	47232	13.328	13.098	13.549
ProbeTrack11	18	ProbeTrack	11.2	SCS215a	20101110.132205	20101110.132555	8	0.013328	60	0	60-180	60	61	GapExp	0	27	2	1	1	target	1	547	727	47959	13.328	13.303	13.348
ProbeTrack11	18	ProbeTrack	11.2	SCS215a	20101110.132205	20101110.132600	8	0.013328	60	0	60-180	60	78	GapExp	0	28	2	3	1	target	1	440	780	48739	13.328	13.295	13.348
ProbeTrack11	18	ProbeTrack	11.2	SCS215a	20101110.132205	20101110.132606	8	0.013328	60	0	60-180	60	131	GapExp	0	29	2	1	1	target	1	334	833	49572	13.328	13.255	13.393
ProbeTrack11	18	ProbeTrack	11.2	SCS215a	20101110.132205	20101110.132612	8	0.013328	60	0	60-180	60	84	GapExp	0	30	2	45	1	target	1	653	674	50246	13.328	13.088	13.556
ProbeTrack11	18	ProbeTrack	11.2	SCS215a	20101110.132205	20101110.132618	8	0.013328	60	0	60-180	60	87	GapExp	0	31	2	0	1	target	1	520	740	50986	13.328	13.310	13.346
ProbeTrack11	18	ProbeTrack	11.2	SCS215a	20101110.132205	20101110.132623	8	0.013328	60	10	60-180	60	80	GapExp	0	32	2	45	1	target	1	361	820	51806	13.328	13.096	13.558
ProbeTrack11	18	ProbeTrack	11.2	SCS215a	20101110.132205	20101110.132629	8	0.013328	60	10	60-180	60	118	GapExp	0	33	2	0	0	distractor	1	760	620	52426	13.328	13.040	13.614
ProbeTrack11	18	ProbeTrack	11.2	SCS215a	20101110.132205	20101110.132636	8	0.013328	60	10	60-180	60	180	GapExp	0	34	2	0	0	distractor	1	667	667	53093	13.328	13.307	13.344
ProbeTrack11	18	ProbeTrack	11.2	SCS215a	20101110.132205	20101110.132643	8	0.013328	60	10	60-180	60	74	GapExp	0	35	2	1	0	distractor	1	534	733	53826	13.328	13.311	13.344
ProbeTrack11	18	ProbeTrack	11.2	SCS215a	20101110.132205	20101110.132649	8	0.013328	60	10	60-180	60	139	GapExp	0	36	2	45	0	distractor	1	480	760	54586	13.328	13.295	13.354
ProbeTrack11	18	ProbeTrack	11.2	SCS215a	20101110.132205	20101110.132656	8	0.013328	60	10	60-180	60	154	GapExp	0	37	2	1	1	target	1	627	687	55273	13.328	12.861	13.776
ProbeTrack11	18	ProbeTrack	11.2	SCS215a	20101110.132205	20101110.132702	8	0.013328	60	0	60-180	60	65	GapExp	0	38	2	3	1	target	1	1080	460	55733	13.327	13.307	13.345
ProbeTrack11	18	ProbeTrack	11.2	SCS215a	20101110.132205	20101110.132708	8	0.013328	60	10	60-180	60	90	GapExp	0	39	2	1	0	distractor	1	653	674	56407	13.328	13.090	13.565
ProbeTrack11	18	ProbeTrack	11.2	SCS215a	20101110.132205	20101110.132714	8	0.013328	60	0	60-180	60	78	GapExp	0	40	2	0	0	distractor	1	720	640	57047	13.328	13.105	13.557
ProbeTrack11	18	ProbeTrack	11.2	SCS215a	20101110.132205	20101110.132719	8	0.013328	60	10	60-180	60	161	GapExp	0	41	2	0	0	distractor	1	520	740	57787	13.328	13.295	13.371
ProbeTrack11	18	ProbeTrack	11.2	SCS215a	20101110.132205	20101110.132726	8	0.013328	60	0	60-180	60	150	GapExp	0	42	2	45	1	target	1	587	707	58494	13.328	12.949	13.699
ProbeTrack11	18	ProbeTrack	11.2	SCS215a	20101110.132205	20101110.132733	8	0.013328	60	0	60-180	60	85	GapExp	0	43	2	45	0	distractor	1	414	793	59287	13.328	13.106	13.550
ProbeTrack11	18	ProbeTrack	11.2	SCS215a	20101110.132205	20101110.132741	8	0.013328	60	10	60-180	60	118	GapExp	0	44	2	0	1	target	1	640	680	59967	13.328	12.903	13.761
ProbeTrack11	18	ProbeTrack	11.2	SCS215a	20101110.132205	20101110.132747	8	0.013328	60	0	60-180	60	161	GapExp	0	45	2	3	0	distractor	1	853	574	60541	13.328	13.100	13.553
ProbeTrack11	18	ProbeTrack	11.2	SCS215a	20101110.132205	20101110.132754	8	0.013328	60	10	60-180	60	148	GapExp	0	46	2	0	0	distractor	1	627	687	61228	13.328	13.306	13.346
ProbeTrack11	18	ProbeTrack	11.2	SCS215a	20101110.132205	20101110.132800	8	0.013328	60	0	60-180	60	152	GapExp	0	47	2	0	0	distractor	1	600	700	61928	13.328	13.304	13.354
ProbeTrack11	18	ProbeTrack	11.2	SCS215a	20101110.132205	20101110.132807	8	0.013328	60	0	60-180	60	67	GapExp	0	48	2	3	1	target	1	880	560	62488	13.328	13.308	13.344
ProbeTrack11	18	ProbeTrack	11.2	SCS215a	20101110.132205	20101110.132812	8	0.013328	60	10	60-180	60	148	GapExp	0	49	2	0	0	distractor	1	667	667	63155	13.328	13.050	13.605
ProbeTrack11	18	ProbeTrack	11.2	SCS215a	20101110.132205	20101110.132819	8	0.013328	60	10	60-180	60	159	GapExp	0	50	2	3	1	target	1	853	574	63729	13.328	13.105	13.515
ProbeTrack11	18	ProbeTrack	11.2	SCS215a	20101110.132205	20101110.132826	8	0.013328	60	10	60-180	60	162	GapExp	0	51	2	45	1	target	1	480	760	64489	13.328	13.101	13.554
ProbeTrack11	18	ProbeTrack	11.2	SCS215a	20101110.132205	20101110.132833	8	0.013328	60	0	60-180	60	82	GapExp	0	52	2	45	1	target	1	494	753	65242	13.328	12.912	13.736
ProbeTrack11	18	ProbeTrack	11.2	SCS215a	20101110.132205	20101110.132839	8	0.013328	60	10	60-180	60	107	GapExp	0	53	2	3	0	target	0	760	-1000	64242	13.328	13.099	13.543
ProbeTrack11	18	ProbeTrack	11.2	SCS215a	20101110.132205	20101110.132845	8	0.013328	60	10	60-180	60	156	GapExp	0	54	2	3	1	target	1	587	707	64949	13.328	13.105	13.556
ProbeTrack11	18	ProbeTrack	11.2	SCS215a	20101110.132205	20101110.132852	8	0.013328	60	0	60-180	60	157	GapExp	0	55	2	0	1	target	1	653	674	65623	13.328	13.108	13.563
ProbeTrack11	18	ProbeTrack	11.2	SCS215a	20101110.132205	20101110.132904	8	0.013328	60	10	60-180	60	95	GapExp	0	56	2	45	1	target	1	534	733	66356	13.378	12.841	26.660
ProbeTrack11	18	ProbeTrack	11.2	SCS215a	20101110.132205	20101110.132911	8	0.013328	60	10	60-180	60	102	GapExp	0	57	2	1	1	target	1	467	767	67123	13.328	12.860	13.807
ProbeTrack11	18	ProbeTrack	11.2	SCS215a	20101110.132205	20101110.132917	8	0.013328	60	10	60-180	60	126	GapExp	0	58	2	1	1	target	1	587	707	67830	13.328	12.908	13.765
ProbeTrack11	18	ProbeTrack	11.2	SCS215a	20101110.132205	20101110.132924	8	0.013328	60	10	60-180	60	105	GapExp	0	59	2	3	1	target	1	534	733	68563	13.328	12.884	13.765
ProbeTrack11	18	ProbeTrack	11.2	SCS215a	20101110.132205	20101110.132930	8	0.013328	60	10	60-180	60	78	GapExp	0	60	2	45	1	target	1	600	700	69263	13.328	13.304	13.348
ProbeTrack11	18	ProbeTrack	11.2	SCS215a	20101110.132205	20101110.132943	8	0.013328	60	0	60-180	60	170	GapExp	0	61	2	3	1	target	1	427	787	70050	13.328	13.306	13.347
ProbeTrack11	18	ProbeTrack	11.2	SCS215a	20101110.132205	20101110.132951	8	0.013328	60	0	60-180	60	151	GapExp	0	62	2	0	0	distractor	1	627	687	70737	13.328	13.309	13.346
ProbeTrack11	18	ProbeTrack	11.2	SCS215a	20101110.132205	20101110.132957	8	0.013328	60	10	60-180	60	85	GapExp	0	63	2	1	0	distractor	1	667	667	71404	13.328	13.310	13.347
ProbeTrack11	18	ProbeTrack	11.2	SCS215a	20101110.132205	20101110.133004	8	0.013328	60	0	60-180	60	90	GapExp	0	64	2	0	1	target	1	920	540	71944	13.328	12.953	13.705
ProbeTrack11	18	ProbeTrack	11.2	SCS215a	20101110.132205	20101110.133010	8	0.013328	60	0	60-180	60	166	GapExp	0	65	2	0	1	target	1	574	713	72657	13.328	12.872	13.347
ProbeTrack11	18	ProbeTrack	11.2	SCS215a	20101110.132205	20101110.133016	8	0.013328	60	0	60-180	60	163	GapExp	0	66	2	45	1	target	1	720	640	73297	13.328	13.037	13.624
ProbeTrack11	18	ProbeTrack	11.2	SCS215a	20101110.132205	20101110.133024	8	0.013328	60	0	60-180	60	161	GapExp	0	67	2	3	0	distractor	1	680	660	73957	13.328	13.103	13.570
ProbeTrack11	18	ProbeTrack	11.2	SCS215a	20101110.132205	20101110.133031	8	0.013328	60	10	60-180	60	142	GapExp	0	68	2	0	1	target	1	534	733	74690	13.328	13.114	13.538
ProbeTrack11	18	ProbeTrack	11.2	SCS215a	20101110.132205	20101110.133037	8	0.013328	60	0	60-180	60	140	GapExp	0	69	2	3	1	target	1	720	640	75330	13.328	13.072	13.589
ProbeTrack11	18	ProbeTrack	11.2	SCS215a	20101110.132205	20101110.133043	8	0.013328	60	10	60-180	60	133	GapExp	0	70	2	0	1	target	1	680	660	75990	13.328	13.227	13.422
ProbeTrack11	18	ProbeTrack	11.2	SCS215a	20101110.132205	20101110.133050	8	0.013328	60	10	60-180	60	94	GapExp	0	71	2	3	0	distractor	1	640	680	76670	13.328	13.104	13.537
ProbeTrack11	18	ProbeTrack	11.2	SCS215a	20101110.132205	20101110.133056	8	0.013328	60	0	60-180	60	63	GapExp	0	72	2	3	0	distractor	1	773	614	77284	13.328	12.917	13.744
ProbeTrack11	18	ProbeTrack	11.2	SCS215a	20101110.132205	20101110.133101	8	0.013328	60	0	60-180	60	123	GapExp	0	73	2	0	0	distractor	1	640	680	77964	13.328	13.165	13.506
ProbeTrack11	18	ProbeTrack	11.2	SCS215a	20101110.132205	20101110.133107	8	0.013328	60	10	60-180	60	73	GapExp	0	74	2	1	1	distractor	0	547	-1000	76964	13.328	12.990	13.657
ProbeTrack11	18	ProbeTrack	11.2	SCS215a	20101110.132205	20101110.133112	8	0.013328	60	0	60-180	60	138	GapExp	0	75	2	45	1	target	1	547	727	77691	13.328	12.849	13.801
ProbeTrack11	18	ProbeTrack	11.2	SCS215a	20101110.132205	20101110.133119	8	0.013328	60	10	60-180	60	78	GapExp	0	76	2	1	0	distractor	1	560	720	78411	13.328	12.933	13.715
ProbeTrack11	18	ProbeTrack	11.2	SCS215a	20101110.132205	20101110.133126	8	0.013328	60	10	60-180	60	147	GapExp	0	77	2	1	1	target	1	507	747	79158	13.328	13.000	13.661
ProbeTrack11	18	ProbeTrack	11.2	SCS215a	20101110.132205	20101110.133133	8	0.013328	60	10	60-180	60	114	GapExp	0	78	2	1	1	target	1	560	720	79878	13.328	13.094	13.550
ProbeTrack11	18	ProbeTrack	11.2	SCS215a	20101110.132205	20101110.133139	8	0.013328	60	10	60-180	60	162	GapExp	0	79	2	0	0	target	0	627	-1000	78878	13.328	13.113	13.543
ProbeTrack11	18	ProbeTrack	11.2	SCS215a	20101110.132205	20101110.133146	8	0.013328	60	0	60-180	60	172	GapExp	0	80	2	45	0	distractor	1	653	674	79552	13.328	13.081	13.571
ProbeTrack11	18	ProbeTrack	11.2	SCS215a	20101110.132205	20101110.133153	8	0.013328	60	10	60-180	60	97	GapExp	0	81	2	0	1	target	1	747	627	80179	13.328	13.099	13.563
ProbeTrack11	18	ProbeTrack	11.2	SCS215a	20101110.132205	20101110.133159	8	0.013328	60	10	60-180	60	114	GapExp	0	82	2	3	0	distractor	1	787	607	80786	13.328	13.092	13.564
ProbeTrack11	18	ProbeTrack	11.2	SCS215a	20101110.132205	20101110.133206	8	0.013328	60	10	60-180	60	64	GapExp	0	83	2	0	0	distractor	1	560	720	81506	13.325	12.894	13.346
ProbeTrack11	18	ProbeTrack	11.2	SCS215a	20101110.132205	20101110.133211	8	0.013328	60	10	60-180	60	87	GapExp	0	84	2	1	0	distractor	1	494	753	82259	13.328	12.955	13.710
ProbeTrack11	18	ProbeTrack	11.2	SCS215a	20101110.132205	20101110.133218	8	0.013328	60	0	60-180	60	112	GapExp	0	85	2	0	1	target	1	574	713	82972	13.328	13.303	13.364
ProbeTrack11	18	ProbeTrack	11.2	SCS215a	20101110.132205	20101110.133224	8	0.013328	60	0	60-180	60	177	GapExp	0	86	2	3	0	distractor	1	400	800	83772	13.328	13.037	13.616
ProbeTrack11	18	ProbeTrack	11.2	SCS215a	20101110.132205	20101110.133231	8	0.013328	60	0	60-180	60	83	GapExp	0	87	2	1	0	target	0	707	-1000	82772	13.328	13.307	13.345
ProbeTrack11	18	ProbeTrack	11.2	SCS215a	20101110.132205	20101110.133237	8	0.013328	60	0	60-180	60	102	GapExp	0	88	2	3	0	distractor	1	627	687	83459	13.328	13.112	13.549
ProbeTrack11	18	ProbeTrack	11.2	SCS215a	20101110.132205	20101110.133243	8	0.013328	60	0	60-180	60	154	GapExp	0	89	2	45	1	target	1	693	654	84113	13.328	13.109	13.534
ProbeTrack11	18	ProbeTrack	11.2	SCS215a	20101110.132205	20101110.133250	8	0.013328	60	10	60-180	60	63	GapExp	0	90	2	0	1	target	1	680	660	84773	13.328	13.114	13.535
ProbeTrack11	18	ProbeTrack	11.2	SCS215a	20101110.132205	20101110.133255	8	0.013328	60	0	60-180	60	76	GapExp	0	91	2	45	0	distractor	1	600	700	85473	13.328	13.308	13.345
ProbeTrack11	18	ProbeTrack	11.2	SCS215a	20101110.132205	20101110.133301	8	0.013328	60	10	60-180	60	103	GapExp	0	92	2	0	1	target	1	560	720	86193	13.328	13.058	13.597
ProbeTrack11	18	ProbeTrack	11.2	SCS215a	20101110.132205	20101110.133307	8	0.013328	60	10	60-180	60	63	GapExp	0	93	2	1	0	distractor	1	454	773	86966	13.328	13.311	13.344
ProbeTrack11	18	ProbeTrack	11.2	SCS215a	20101110.132205	20101110.133312	8	0.013328	60	10	60-180	60	134	GapExp	0	94	2	1	1	target	1	574	713	87679	13.328	13.103	13.544
ProbeTrack11	18	ProbeTrack	11.2	SCS215a	20101110.132205	20101110.133318	8	0.013328	60	10	60-180	60	156	GapExp	0	95	2	1	0	distractor	1	520	740	88419	13.327	12.978	13.684
ProbeTrack11	18	ProbeTrack	11.2	SCS215a	20101110.132205	20101110.133325	8	0.013328	60	0	60-180	60	103	GapExp	0	96	2	0	0	distractor	1	600	700	89119	13.328	13.120	13.551
ProbeTrack11	18	ProbeTrack	11.2	SCS215a	20101110.132205	20101110.133331	8	0.013328	60	0	60-180	60	138	GapExp	0	97	2	1	0	distractor	1	573	714	89833	13.328	13.311	13.345
ProbeTrack11	18	ProbeTrack	11.2	SCS215a	20101110.132205	20101110.133337	8	0.013328	60	10	60-180	60	127	GapExp	0	98	2	45	0	distractor	1	427	787	90620	13.328	12.915	13.741
ProbeTrack11	18	ProbeTrack	11.2	SCS215a	20101110.132205	20101110.133344	8	0.013328	60	10	60-180	60	109	GapExp	0	99	2	1	0	distractor	1	480	760	91380	13.328	13.119	13.535
ProbeTrack11	18	ProbeTrack	11.2	SCS215a	20101110.132205	20101110.133351	8	0.013328	60	10	60-180	60	148	GapExp	0	100	2	3	1	target	1	547	727	92107	13.328	13.308	13.347
ProbeTrack11	18	ProbeTrack	11.2	SCS215a	20101110.132205	20101110.133357	8	0.013328	60	0	60-180	60	122	GapExp	0	101	2	3	1	target	1	520	740	92847	13.328	13.093	13.554
ProbeTrack11	18	ProbeTrack	11.2	SCS215a	20101110.132205	20101110.133413	8	0.013328	60	0	60-180	60	167	GapExp	0	102	2	0	0	distractor	1	534	733	93580	13.328	13.306	13.354
ProbeTrack11	18	ProbeTrack	11.2	SCS215a	20101110.132205	20101110.133424	8	0.013328	60	0	60-180	60	120	GapExp	0	103	2	0	0	distractor	1	494	753	94333	13.328	13.190	13.468
ProbeTrack11	18	ProbeTrack	11.2	SCS215a	20101110.132205	20101110.133430	8	0.013328	60	0	60-180	60	136	GapExp	0	104	2	1	0	distractor	1	613	694	95027	13.328	13.300	13.349
ProbeTrack11	18	ProbeTrack	11.2	SCS215a	20101110.132205	20101110.133437	8	0.013328	60	0	60-180	60	100	GapExp	0	105	2	1	0	distractor	1	947	527	95554	13.328	12.953	13.698
ProbeTrack11	18	ProbeTrack	11.2	SCS215a	20101110.132205	20101110.133444	8	0.013328	60	10	60-180	60	78	GapExp	0	106	2	3	0	distractor	1	494	753	96307	13.327	13.307	13.347
ProbeTrack11	18	ProbeTrack	11.2	SCS215a	20101110.132205	20101110.133451	8	0.013328	60	10	60-180	60	112	GapExp	0	107	2	45	0	distractor	1	853	574	96881	13.328	12.931	13.713
ProbeTrack11	18	ProbeTrack	11.2	SCS215a	20101110.132205	20101110.133457	8	0.013328	60	0	60-180	60	167	GapExp	0	108	2	1	1	distractor	0	1013	-1000	95881	13.328	12.933	13.717
ProbeTrack11	18	ProbeTrack	11.2	SCS215a	20101110.132205	20101110.133505	8	0.013328	60	0	60-180	60	115	GapExp	0	109	2	45	1	220	-3	853	-1000	94881	13.328	13.095	13.558
ProbeTrack11	18	ProbeTrack	11.2	SCS215a	20101110.132205	20101110.133511	8	0.013328	60	0	60-180	60	95	GapExp	0	110	2	1	0	distractor	1	4958	0	94881	13.328	13.306	13.345
ProbeTrack11	18	ProbeTrack	11.2	SCS215a	20101110.132205	20101110.133523	8	0.013328	60	0	60-180	60	139	GapExp	0	111	2	1	0	distractor	1	707	647	95528	13.328	12.940	13.717
ProbeTrack11	18	ProbeTrack	11.2	SCS215a	20101110.132205	20101110.133532	8	0.013328	60	10	60-180	60	94	GapExp	0	112	2	3	0	target	0	1027	-1000	94528	13.328	12.988	13.662
ProbeTrack11	18	ProbeTrack	11.2	SCS215a	20101110.132205	20101110.133539	8	0.013328	60	0	60-180	60	161	GapExp	0	113	2	45	0	distractor	1	667	667	95195	13.328	13.114	13.544
ProbeTrack11	18	ProbeTrack	11.2	SCS215a	20101110.132205	20101110.133547	8	0.013328	60	10	60-180	60	78	GapExp	0	114	2	0	1	distractor	0	1133	-1000	94195	13.328	12.874	13.785
ProbeTrack11	18	ProbeTrack	11.2	SCS215a	20101110.132205	20101110.133553	8	0.013328	60	0	60-180	60	119	GapExp	0	115	2	3	1	target	1	587	707	94902	13.328	13.017	13.637
ProbeTrack11	18	ProbeTrack	11.2	SCS215a	20101110.132205	20101110.133559	8	0.013328	60	10	60-180	60	174	GapExp	0	116	2	1	1	target	1	827	587	95489	13.328	13.092	13.556
ProbeTrack11	18	ProbeTrack	11.2	SCS215a	20101110.132205	20101110.133606	8	0.013328	60	0	60-180	60	67	GapExp	0	117	2	0	0	distractor	1	813	594	96083	13.328	13.098	13.551
ProbeTrack11	18	ProbeTrack	11.2	SCS215a	20101110.132205	20101110.133612	8	0.013328	60	10	60-180	60	158	GapExp	0	118	2	0	0	distractor	1	907	547	96630	13.328	12.833	13.818
ProbeTrack11	18	ProbeTrack	11.2	SCS215a	20101110.132205	20101110.133619	8	0.013328	60	0	60-180	60	146	GapExp	0	119	2	3	1	target	1	667	667	97297	13.328	12.904	13.768
ProbeTrack11	18	ProbeTrack	11.2	SCS215a	20101110.132205	20101110.133625	8	0.013328	60	0	60-180	60	88	GapExp	0	120	2	0	1	target	1	680	660	97957	13.325	12.869	13.605
ProbeTrack11	18	ProbeTrack	11.2	SCS215a	20101110.132205	20101110.133631	8	0.013328	60	10	60-180	60	83	GapExp	0	121	2	45	1	target	1	467	767	98724	13.328	13.308	13.347
ProbeTrack11	18	ProbeTrack	11.2	SCS215a	20101110.132205	20101110.133637	8	0.013328	60	10	60-180	60	70	GapExp	0	122	2	0	1	target	1	680	660	99384	13.328	12.875	13.781
ProbeTrack11	18	ProbeTrack	11.2	SCS215a	20101110.132205	20101110.133642	8	0.013328	60	0	60-180	60	123	GapExp	0	123	2	3	1	target	1	600	700	100084	13.328	12.875	13.799
ProbeTrack11	18	ProbeTrack	11.2	SCS215a	20101110.132205	20101110.133649	8	0.013328	60	0	60-180	60	117	GapExp	0	124	2	1	0	distractor	1	547	727	100811	13.327	13.075	13.579
ProbeTrack11	18	ProbeTrack	11.2	SCS215a	20101110.132205	20101110.133655	8	0.013328	60	10	60-180	60	158	GapExp	0	125	2	3	0	target	0	760	-1000	99811	13.328	12.952	13.712
ProbeTrack11	18	ProbeTrack	11.2	SCS215a	20101110.132205	20101110.133701	8	0.013328	60	10	60-180	60	111	GapExp	0	126	2	3	0	distractor	1	667	667	100478	13.328	13.104	13.556
ProbeTrack11	18	ProbeTrack	11.2	SCS215a	20101110.132205	20101110.133708	8	0.013328	60	0	60-180	60	99	GapExp	0	127	2	45	1	target	1	587	707	101185	13.328	13.017	13.631
ProbeTrack11	18	ProbeTrack	11.2	SCS215a	20101110.132205	20101110.133714	8	0.013328	60	0	60-180	60	152	GapExp	0	128	2	45	0	distractor	1	707	647	101832	13.328	12.841	13.804
ProbeTrack11	18	ProbeTrack	11.2	SCS215a	20101110.132205	20101110.133721	8	0.013328	60	10	60-180	60	144	GapExp	0	129	2	3	0	distractor	1	734	633	102465	13.328	12.858	13.798
ProbeTrack11	18	ProbeTrack	11.2	SCS215a	20101110.132205	20101110.133728	8	0.013328	60	0	60-180	60	151	GapExp	0	130	2	45	1	target	1	867	567	103032	13.609	12.876	66.992
ProbeTrack11	18	ProbeTrack	11.2	SCS215a	20101110.132205	20101110.133735	8	0.013328	60	0	60-180	60	91	GapExp	0	131	2	45	0	distractor	1	840	580	103612	13.328	12.899	13.743
ProbeTrack11	18	ProbeTrack	11.2	SCS215a	20101110.132205	20101110.133742	8	0.013328	60	10	60-180	60	121	GapExp	0	132	2	1	1	target	1	600	700	104312	13.328	13.064	13.347
ProbeTrack11	18	ProbeTrack	11.2	SCS215a	20101110.132205	20101110.133748	8	0.013328	60	10	60-180	60	167	GapExp	0	133	2	45	0	distractor	1	653	674	104986	13.328	13.058	13.597
ProbeTrack11	18	ProbeTrack	11.2	SCS215a	20101110.132205	20101110.133755	8	0.013328	60	0	60-180	60	90	GapExp	0	134	2	1	0	distractor	1	547	727	105713	13.328	13.172	13.472
ProbeTrack11	18	ProbeTrack	11.2	SCS215a	20101110.132205	20101110.133801	8	0.013328	60	10	60-180	60	80	GapExp	0	135	2	45	1	target	1	440	780	106493	13.328	12.831	13.813
ProbeTrack11	18	ProbeTrack	11.2	SCS215a	20101110.132205	20101110.133807	8	0.013328	60	10	60-180	60	178	GapExp	0	136	2	0	1	target	1	574	713	107206	13.328	12.847	13.791
ProbeTrack11	18	ProbeTrack	11.2	SCS215a	20101110.132205	20101110.133814	8	0.013328	60	0	60-180	60	174	GapExp	0	137	2	0	0	distractor	1	733	634	107840	13.327	13.050	13.544
ProbeTrack11	18	ProbeTrack	11.2	SCS215a	20101110.132205	20101110.133820	8	0.013328	60	0	60-180	60	131	GapExp	0	138	2	0	1	target	1	534	733	108573	13.328	13.094	13.569
ProbeTrack11	18	ProbeTrack	11.2	SCS215a	20101110.132205	20101110.133846	8	0.013328	60	10	60-180	60	86	GapExp	0	139	2	0	0	distractor	1	667	667	109240	13.328	12.972	13.684
ProbeTrack11	18	ProbeTrack	11.2	SCS215a	20101110.132205	20101110.133852	8	0.013328	60	0	60-180	60	177	GapExp	0	140	2	45	0	distractor	1	600	700	109940	13.328	12.879	13.763
ProbeTrack11	18	ProbeTrack	11.2	SCS215a	20101110.132205	20101110.133859	8	0.013328	60	0	60-180	60	170	GapExp	0	141	2	0	0	distractor	1	1320	340	110280	13.328	12.960	13.696
ProbeTrack11	18	ProbeTrack	11.2	SCS215a	20101110.132205	20101110.133906	8	0.013328	60	0	60-180	60	68	GapExp	0	142	2	1	1	target	1	800	600	110880	13.328	12.858	13.799
ProbeTrack11	18	ProbeTrack	11.2	SCS215a	20101110.132205	20101110.133912	8	0.013328	60	10	60-180	60	89	GapExp	0	143	2	3	0	distractor	1	467	767	111647	13.328	13.049	13.594
ProbeTrack11	18	ProbeTrack	11.2	SCS215a	20101110.132205	20101110.133918	8	0.013328	60	10	60-180	60	143	GapExp	0	144	2	0	0	distractor	1	680	660	112307	13.328	13.297	13.348
ProbeTrack11	18	ProbeTrack	11.2	SCS215a	20101110.132205	20101110.133925	8	0.013328	60	0	60-180	60	117	GapExp	0	145	2	45	0	distractor	1	547	727	113034	13.328	13.291	13.359
ProbeTrack11	18	ProbeTrack	11.2	SCS215a	20101110.132205	20101110.133932	8	0.013328	60	10	60-180	60	125	GapExp	0	146	2	1	1	target	1	600	700	113734	13.328	12.873	13.778
ProbeTrack11	18	ProbeTrack	11.2	SCS215a	20101110.132205	20101110.133939	8	0.013328	60	10	60-180	60	65	GapExp	0	147	2	0	1	target	1	547	727	114461	13.328	12.872	13.784
ProbeTrack11	18	ProbeTrack	11.2	SCS215a	20101110.132205	20101110.133945	8	0.013328	60	0	60-180	60	101	GapExp	0	148	2	1	1	target	1	720	640	115101	13.327	13.051	13.596
ProbeTrack11	18	ProbeTrack	11.2	SCS215a	20101110.132205	20101110.133951	8	0.013328	60	10	60-180	60	84	GapExp	0	149	2	1	0	distractor	1	627	687	115788	13.328	13.107	13.549
ProbeTrack11	18	ProbeTrack	11.2	SCS215a	20101110.132205	20101110.133956	8	0.013328	60	0	60-180	60	83	GapExp	0	150	2	3	0	distractor	1	907	547	116335	13.328	13.062	13.596
ProbeTrack11	18	ProbeTrack	11.2	SCS215a	20101110.132205	20101110.134002	8	0.013328	60	10	60-180	60	168	GapExp	0	151	2	0	1	target	1	573	714	117049	13.328	12.862	13.791
ProbeTrack11	18	ProbeTrack	11.2	SCS215a	20101110.132205	20101110.134008	8	0.013328	60	0	60-180	60	149	GapExp	0	152	2	45	0	distractor	1	574	713	117762	13.328	12.862	13.811
ProbeTrack11	18	ProbeTrack	11.2	SCS215a	20101110.132205	20101110.134015	8	0.013328	60	0	60-180	60	145	GapExp	0	153	2	1	1	target	1	573	714	118476	13.328	12.848	13.808
ProbeTrack11	18	ProbeTrack	11.2	SCS215a	20101110.132205	20101110.134022	8	0.013328	60	10	60-180	60	63	GapExp	0	154	2	0	0	target	0	707	-1000	117476	13.327	12.969	13.669
ProbeTrack11	18	ProbeTrack	11.2	SCS215a	20101110.132205	20101110.134028	8	0.013328	60	0	60-180	60	69	GapExp	0	155	2	3	0	distractor	1	787	607	118083	13.328	12.910	13.748
ProbeTrack11	18	ProbeTrack	11.2	SCS215a	20101110.132205	20101110.134034	8	0.013328	60	0	60-180	60	155	GapExp	0	156	2	0	1	distractor	0	840	-1000	117083	13.328	12.866	13.776
ProbeTrack11	18	ProbeTrack	11.2	SCS215a	20101110.132205	20101110.134040	8	0.013328	60	10	60-180	60	112	GapExp	0	157	2	1	1	target	1	600	700	117783	13.327	13.099	13.563
ProbeTrack11	18	ProbeTrack	11.2	SCS215a	20101110.132205	20101110.134046	8	0.013328	60	10	60-180	60	129	GapExp	0	158	2	1	1	target	1	507	747	118530	13.328	12.922	13.711
ProbeTrack11	18	ProbeTrack	11.2	SCS215a	20101110.132205	20101110.134052	8	0.013328	60	0	60-180	60	161	GapExp	0	159	2	1	1	target	1	560	720	119250	13.328	13.106	13.549
ProbeTrack11	18	ProbeTrack	11.2	SCS215a	20101110.132205	20101110.134059	8	0.013328	60	0	60-180	60	93	GapExp	0	160	2	1	1	target	1	613	694	119944	13.328	13.091	13.549
ProbeTrack11	18	ProbeTrack	11.2	SCS215a	20101110.132205	20101110.134106	8	0.013328	60	0	60-180	60	77	GapExp	0	161	2	0	0	distractor	1	640	680	120624	13.328	12.857	13.799
ProbeTrack11	18	ProbeTrack	11.2	SCS215a	20101110.132205	20101110.134111	8	0.013328	60	10	60-180	60	137	GapExp	0	162	2	1	1	target	1	520	740	121364	13.328	13.092	13.571
ProbeTrack11	18	ProbeTrack	11.2	SCS215a	20101110.132205	20101110.134126	8	0.013328	60	0	60-180	60	96	GapExp	0	163	2	3	1	target	1	520	740	122104	13.328	12.856	13.809
ProbeTrack11	18	ProbeTrack	11.2	SCS215a	20101110.132205	20101110.134132	8	0.013328	60	0	60-180	60	144	GapExp	0	164	2	3	1	target	1	947	527	122631	13.328	13.205	13.457
ProbeTrack11	18	ProbeTrack	11.2	SCS215a	20101110.132205	20101110.134139	8	0.013328	60	10	60-180	60	141	GapExp	0	165	2	0	0	target	0	667	-1000	121631	13.328	13.010	13.646
ProbeTrack11	18	ProbeTrack	11.2	SCS215a	20101110.132205	20101110.134146	8	0.013328	60	10	60-180	60	66	GapExp	0	166	2	3	1	target	1	547	727	122358	13.327	12.950	13.690
ProbeTrack11	18	ProbeTrack	11.2	SCS215a	20101110.132205	20101110.134152	8	0.013328	60	0	60-180	60	101	GapExp	0	167	2	1	0	distractor	1	760	620	122978	13.328	13.057	13.607
ProbeTrack11	18	ProbeTrack	11.2	SCS215a	20101110.132205	20101110.134158	8	0.013328	60	10	60-180	60	64	GapExp	0	168	2	1	0	distractor	1	747	627	123605	13.328	12.892	13.765
ProbeTrack11	18	ProbeTrack	11.2	SCS215a	20101110.132205	20101110.134203	8	0.013328	60	0	60-180	60	74	GapExp	0	169	2	0	1	target	1	1053	474	124079	13.328	12.878	13.811
ProbeTrack11	18	ProbeTrack	11.2	SCS215a	20101110.132205	20101110.134209	8	0.013328	60	10	60-180	60	115	GapExp	0	170	2	0	1	target	1	653	674	124753	13.328	13.118	13.543
ProbeTrack11	18	ProbeTrack	11.2	SCS215a	20101110.132205	20101110.134215	8	0.013328	60	0	60-180	60	97	GapExp	0	171	2	1	1	target	1	507	747	125500	13.328	13.048	13.609
ProbeTrack11	18	ProbeTrack	11.2	SCS215a	20101110.132205	20101110.134221	8	0.013328	60	10	60-180	60	117	GapExp	0	172	2	3	0	distractor	1	520	740	126240	13.328	13.066	13.585
ProbeTrack11	18	ProbeTrack	11.2	SCS215a	20101110.132205	20101110.134227	8	0.013328	60	10	60-180	60	110	GapExp	0	173	2	45	0	distractor	1	427	787	127027	13.328	12.890	13.775
ProbeTrack11	18	ProbeTrack	11.2	SCS215a	20101110.132205	20101110.134233	8	0.013328	60	10	60-180	60	175	GapExp	0	174	2	0	1	distractor	0	1000	-1000	126027	13.328	13.307	13.348
ProbeTrack11	18	ProbeTrack	11.2	SCS215a	20101110.132205	20101110.134241	8	0.013328	60	0	60-180	60	61	GapExp	0	175	2	3	1	target	1	627	687	126714	13.328	12.978	13.691
ProbeTrack11	18	ProbeTrack	11.2	SCS215a	20101110.132205	20101110.134246	8	0.013328	60	0	60-180	60	162	GapExp	0	176	2	45	0	distractor	1	1640	180	126894	13.328	12.889	13.760
ProbeTrack11	18	ProbeTrack	11.2	SCS215a	20101110.132205	20101110.134254	8	0.013328	60	10	60-180	60	131	GapExp	0	177	2	45	1	distractor	0	520	-1000	125894	13.416	13.293	39.993
ProbeTrack11	18	ProbeTrack	11.2	SCS215a	20101110.132205	20101110.134301	8	0.013328	60	0	60-180	60	90	GapExp	0	178	2	3	0	distractor	1	613	694	126588	13.328	12.950	13.697
ProbeTrack11	18	ProbeTrack	11.2	SCS215a	20101110.132205	20101110.134307	8	0.013328	60	10	60-180	60	70	GapExp	0	179	2	3	0	distractor	1	1027	487	127075	13.328	13.090	13.563
ProbeTrack11	18	ProbeTrack	11.2	SCS215a	20101110.132205	20101110.134313	8	0.013328	60	10	60-180	60	80	GapExp	0	180	2	45	1	target	1	534	733	127808	13.328	12.927	13.719
ProbeTrack11	18	ProbeTrack	11.2	SCS215a	20101110.132205	20101110.134319	8	0.013328	60	10	60-180	60	84	GapExp	0	181	2	3	1	target	1	520	740	128548	13.328	13.310	13.345
ProbeTrack11	18	ProbeTrack	11.2	SCS215a	20101110.132205	20101110.134324	8	0.013328	60	0	60-180	60	98	GapExp	0	182	2	1	1	target	1	1000	500	129048	13.328	13.213	13.442
ProbeTrack11	18	ProbeTrack	11.2	SCS215a	20101110.132205	20101110.134330	8	0.013328	60	10	60-180	60	137	GapExp	0	183	2	45	0	distractor	1	547	727	129775	13.328	13.092	13.549
ProbeTrack11	18	ProbeTrack	11.2	SCS215a	20101110.132205	20101110.134338	8	0.013328	60	10	60-180	60	123	GapExp	0	184	2	3	1	target	1	547	727	130502	13.328	12.887	13.775
ProbeTrack11	18	ProbeTrack	11.2	SCS215a	20101110.132205	20101110.134344	8	0.013328	60	0	60-180	60	126	GapExp	0	185	2	1	0	distractor	1	427	787	131289	13.328	13.309	13.347
ProbeTrack11	18	ProbeTrack	11.2	SCS215a	20101110.132205	20101110.134350	8	0.013328	60	10	60-180	60	171	GapExp	0	186	2	45	0	distractor	1	387	807	132096	13.328	12.881	13.779
ProbeTrack11	18	ProbeTrack	11.2	SCS215a	20101110.132205	20101110.134357	8	0.013328	60	10	60-180	60	125	GapExp	0	187	2	0	0	distractor	1	480	760	132856	13.328	13.310	13.346
ProbeTrack11	18	ProbeTrack	11.2	SCS215a	20101110.132205	20101110.134403	8	0.013328	60	0	60-180	60	116	GapExp	0	188	2	45	1	target	1	907	547	133403	13.328	13.307	13.347
ProbeTrack11	18	ProbeTrack	11.2	SCS215a	20101110.132205	20101110.134410	8	0.013328	60	0	60-180	60	105	GapExp	0	189	2	0	0	distractor	1	773	614	134017	13.328	12.962	13.687
ProbeTrack11	18	ProbeTrack	11.2	SCS215a	20101110.132205	20101110.134416	8	0.013328	60	10	60-180	60	164	GapExp	0	190	2	1	1	target	1	520	740	134757	13.326	12.860	13.860
ProbeTrack11	18	ProbeTrack	11.2	SCS215a	20101110.132205	20101110.134422	8	0.013328	60	10	60-180	60	171	GapExp	0	191	2	45	0	distractor	1	760	620	135377	13.328	12.923	13.721
ProbeTrack11	18	ProbeTrack	11.2	SCS215a	20101110.132205	20101110.134430	8	0.013328	60	0	60-180	60	122	GapExp	0	192	2	45	0	target	0	600	-1000	134377	13.328	13.084	13.562
ProbeTrack11	18	ProbeTrack	11.2	SCS215a	20101110.132205	20101110.134437	8	0.013328	60	0	60-180	60	65	GapExp	0	193	2	45	1	target	1	627	687	135064	13.328	13.308	13.347
ProbeTrack11	18	ProbeTrack	11.2	SCS215a	20101110.132205	20101110.134443	8	0.013328	60	10	60-180	60	62	GapExp	0	194	2	45	0	target	0	534	-1000	134064	13.328	13.306	13.349
ProbeTrack11	18	ProbeTrack	11.2	SCS215a	20101110.132205	20101110.134453	8	0.013328	60	10	60-180	60	119	GapExp	0	195	2	3	1	target	1	454	773	134837	13.328	12.938	13.733
ProbeTrack11	18	ProbeTrack	11.2	SCS215a	20101110.132205	20101110.134459	8	0.013328	60	0	60-180	60	95	GapExp	0	196	2	0	1	target	1	520	740	135577	13.328	13.105	13.557
ProbeTrack11	18	ProbeTrack	11.2	SCS215a	20101110.132205	20101110.134504	8	0.013328	60	10	60-180	60	85	GapExp	0	197	2	0	0	target	0	520	-1000	134577	13.455	13.220	26.955
ProbeTrack11	18	ProbeTrack	11.2	SCS215a	20101110.132205	20101110.134510	8	0.013328	60	10	60-180	60	71	GapExp	0	198	2	0	1	target	1	640	680	135257	13.328	13.312	13.350
ProbeTrack11	18	ProbeTrack	11.2	SCS215a	20101110.132205	20101110.134515	8	0.013328	60	10	60-180	60	150	GapExp	0	199	2	1	0	distractor	1	640	680	135937	13.328	12.876	13.785
ProbeTrack11	18	ProbeTrack	11.2	SCS215a	20101110.132205	20101110.134521	8	0.013328	60	0	60-180	60	172	GapExp	0	200	2	0	0	distractor	1	1253	374	136311	13.328	12.927	13.736
ProbeTrack11	18	ProbeTrack	11.2	SCS215a	20101110.132205	20101110.134529	8	0.013328	60	0	60-180	60	135	GapExp	0	201	2	0	0	distractor	1	867	567	136878	13.426	12.986	39.978
ProbeTrack11	18	ProbeTrack	11.2	SCS215a	20101110.132205	20101110.134543	8	0.013328	60	0	60-180	60	180	GapExp	0	202	2	3	0	90	-3	507	-1000	135878	13.506	12.851	39.963
ProbeTrack11	18	ProbeTrack	11.2	SCS215a	20101110.132205	20101110.134549	8	0.013328	60	10	60-180	60	114	GapExp	0	203	2	1	0	target	0	627	-1000	134878	13.381	13.034	26.624
ProbeTrack11	18	ProbeTrack	11.2	SCS215a	20101110.132205	20101110.134556	8	0.013328	60	0	60-180	60	152	GapExp	0	204	2	3	0	distractor	1	1226	387	135265	13.328	13.087	13.558
ProbeTrack11	18	ProbeTrack	11.2	SCS215a	20101110.132205	20101110.134603	8	0.013328	60	10	60-180	60	156	GapExp	0	205	2	1	1	distractor	0	1813	-1000	134265	13.328	12.889	13.638
ProbeTrack11	18	ProbeTrack	11.2	SCS215a	20101110.132205	20101110.134611	8	0.013328	60	0	60-180	60	84	GapExp	0	206	2	3	1	target	1	773	614	134879	13.327	13.299	13.352
ProbeTrack11	18	ProbeTrack	11.2	SCS215a	20101110.132205	20101110.134617	8	0.013328	60	0	60-180	60	101	GapExp	0	207	2	1	0	distractor	1	587	707	135586	13.328	13.252	13.415
ProbeTrack11	18	ProbeTrack	11.2	SCS215a	20101110.132205	20101110.134622	8	0.013328	60	0	60-180	60	64	GapExp	0	208	2	1	0	distractor	1	707	647	136233	13.328	13.084	13.560
ProbeTrack11	18	ProbeTrack	11.2	SCS215a	20101110.132205	20101110.134628	8	0.013328	60	10	60-180	60	137	GapExp	0	209	2	45	1	target	1	574	713	136946	13.328	12.925	13.752
ProbeTrack11	18	ProbeTrack	11.2	SCS215a	20101110.132205	20101110.134635	8	0.013328	60	0	60-180	60	152	GapExp	0	210	2	45	0	distractor	1	720	640	137586	13.328	12.851	13.815
ProbeTrack11	18	ProbeTrack	11.2	SCS215a	20101110.132205	20101110.134642	8	0.013328	60	10	60-180	60	132	GapExp	0	211	2	3	1	target	1	760	620	138206	13.328	12.865	13.789
ProbeTrack11	18	ProbeTrack	11.2	SCS215a	20101110.132205	20101110.134648	8	0.013328	60	10	60-180	60	169	GapExp	0	212	2	0	0	distractor	1	694	653	138859	13.328	12.868	13.785
ProbeTrack11	18	ProbeTrack	11.2	SCS215a	20101110.132205	20101110.134655	8	0.013328	60	10	60-180	60	126	GapExp	0	213	2	45	0	distractor	1	733	634	139493	13.328	12.911	13.743
ProbeTrack11	18	ProbeTrack	11.2	SCS215a	20101110.132205	20101110.134701	8	0.013328	60	0	60-180	60	76	GapExp	0	214	2	45	1	target	1	600	700	140193	13.328	13.139	13.528
ProbeTrack11	18	ProbeTrack	11.2	SCS215a	20101110.132205	20101110.134707	8	0.013328	60	10	60-180	60	179	GapExp	0	215	2	45	0	distractor	1	640	680	140873	13.328	12.971	13.689
ProbeTrack11	18	ProbeTrack	11.2	SCS215a	20101110.132205	20101110.134715	8	0.013328	60	0	60-180	60	117	GapExp	0	216	2	3	0	distractor	1	547	727	141600	13.328	12.876	13.770
ProbeTrack11	18	ProbeTrack	11.2	SCS215a	20101110.132205	20101110.134721	8	0.013328	60	10	60-180	60	162	GapExp	0	217	2	3	1	target	1	613	694	142294	13.328	13.308	13.345
ProbeTrack11	18	ProbeTrack	11.2	SCS215a	20101110.132205	20101110.134734	8	0.013328	60	0	60-180	60	97	GapExp	0	218	2	1	0	distractor	1	534	733	143027	13.328	13.308	13.347
ProbeTrack11	18	ProbeTrack	11.2	SCS215a	20101110.132205	20101110.134741	8	0.013328	60	10	60-180	60	149	GapExp	0	219	2	3	1	distractor	0	813	-1000	142027	13.328	13.304	13.347
ProbeTrack11	18	ProbeTrack	11.2	SCS215a	20101110.132205	20101110.134748	8	0.013328	60	0	60-180	60	110	GapExp	0	220	2	45	0	distractor	1	693	654	142681	13.328	13.309	13.350
ProbeTrack11	18	ProbeTrack	11.2	SCS215a	20101110.132205	20101110.134754	8	0.013328	60	0	60-180	60	179	GapExp	0	221	2	1	1	target	1	534	733	143414	13.328	13.093	13.548
ProbeTrack11	18	ProbeTrack	11.2	SCS215a	20101110.132205	20101110.134801	8	0.013328	60	10	60-180	60	176	GapExp	0	222	2	45	1	target	1	574	713	144127	13.328	12.962	13.687
ProbeTrack11	18	ProbeTrack	11.2	SCS215a	20101110.132205	20101110.134809	8	0.013328	60	0	60-180	60	78	GapExp	0	223	2	0	0	distractor	1	800	600	144727	13.328	13.307	13.346
ProbeTrack11	18	ProbeTrack	11.2	SCS215a	20101110.132205	20101110.134814	8	0.013328	60	10	60-180	60	104	GapExp	0	224	2	45	1	target	1	547	727	145454	13.328	13.087	13.563
ProbeTrack11	18	ProbeTrack	11.2	SCS215a	20101110.132205	20101110.134821	8	0.013328	60	10	60-180	60	144	GapExp	0	225	2	45	1	distractor	0	840	-1000	144454	13.328	12.924	13.734
ProbeTrack11	18	ProbeTrack	11.2	SCS215a	20101110.132205	20101110.134828	8	0.013328	60	10	60-180	60	83	GapExp	0	226	2	1	1	distractor	0	947	-1000	143454	13.328	13.276	13.388
ProbeTrack11	18	ProbeTrack	11.2	SCS215a	20101110.132205	20101110.134932	8	0.013328	60	10	60-180	60	124	GapExp	0	227	2	1	0	distractor	1	707	647	144101	13.328	13.098	13.561
ProbeTrack11	18	ProbeTrack	11.2	SCS215a	20101110.132205	20101110.134939	8	0.013328	60	0	60-180	60	67	GapExp	0	228	2	0	1	target	1	654	673	144774	13.466	13.174	39.986
ProbeTrack11	18	ProbeTrack	11.2	SCS215a	20101110.132205	20101110.134944	8	0.013328	60	0	60-180	60	126	GapExp	0	229	2	0	0	distractor	1	573	714	145488	13.328	13.095	13.551
ProbeTrack11	18	ProbeTrack	11.2	SCS215a	20101110.132205	20101110.134952	8	0.013328	60	10	60-180	60	131	GapExp	0	230	2	0	1	target	1	627	687	146175	13.328	13.092	13.566
ProbeTrack11	18	ProbeTrack	11.2	SCS215a	20101110.132205	20101110.134958	8	0.013328	60	10	60-180	60	62	GapExp	0	231	2	45	0	distractor	1	374	813	146988	13.328	13.118	13.551
ProbeTrack11	18	ProbeTrack	11.2	SCS215a	20101110.132205	20101110.135005	8	0.013328	60	10	60-180	60	95	GapExp	0	232	2	45	1	distractor	0	374	-1000	145988	13.328	13.093	13.563
ProbeTrack11	18	ProbeTrack	11.2	SCS215a	20101110.132205	20101110.135012	8	0.013328	60	0	60-180	60	81	GapExp	0	233	2	3	0	distractor	1	760	620	146608	13.328	13.308	13.349
ProbeTrack11	18	ProbeTrack	11.2	SCS215a	20101110.132205	20101110.135018	8	0.013328	60	0	60-180	60	132	GapExp	0	234	2	1	0	distractor	1	733	634	147242	13.328	13.028	13.639
ProbeTrack11	18	ProbeTrack	11.2	SCS215a	20101110.132205	20101110.135024	8	0.013328	60	0	60-180	60	129	GapExp	0	235	2	3	0	distractor	1	653	674	147916	13.328	13.308	13.347
ProbeTrack11	18	ProbeTrack	11.2	SCS215a	20101110.132205	20101110.135031	8	0.013328	60	10	60-180	60	90	GapExp	0	236	2	3	1	target	1	1240	380	148296	13.328	13.310	13.345
ProbeTrack11	18	ProbeTrack	11.2	SCS215a	20101110.132205	20101110.135038	8	0.013328	60	0	60-180	60	71	GapExp	0	237	2	1	1	target	1	600	700	148996	13.327	13.307	13.347
ProbeTrack11	18	ProbeTrack	11.2	SCS215a	20101110.132205	20101110.135044	8	0.013328	60	10	60-180	60	170	GapExp	0	238	2	0	0	distractor	1	534	733	149729	13.328	13.308	13.347
ProbeTrack11	18	ProbeTrack	11.2	SCS215a	20101110.132205	20101110.135050	8	0.013328	60	10	60-180	60	92	GapExp	0	239	2	0	0	distractor	1	840	580	150309	13.328	13.308	13.349
ProbeTrack11	18	ProbeTrack	11.2	SCS215a	20101110.132205	20101110.135056	8	0.013328	60	0	60-180	60	85	GapExp	0	240	2	45	0	distractor	1	587	707	151016	13.328	13.309	13.346
ProbeTrack11	18	ProbeTrack	11.2	SCS215a	20101110.132205	20101110.135104	8	0.013328	60	0	60-180	60	138	GapExp	0	241	2	1	1	target	1	747	627	151643	13.328	12.857	13.801
ProbeTrack11	18	ProbeTrack	11.2	SCS215a	20101110.132205	20101110.135110	8	0.013328	60	10	60-180	60	78	GapExp	0	242	2	45	0	distractor	1	414	793	152436	13.328	12.905	13.753
ProbeTrack11	18	ProbeTrack	11.2	SCS215a	20101110.132205	20101110.135116	8	0.013328	60	0	60-180	60	101	GapExp	0	243	2	45	0	distractor	1	693	654	153090	13.328	13.300	13.348
ProbeTrack11	18	ProbeTrack	11.2	SCS215a	20101110.132205	20101110.135123	8	0.013328	60	10	60-180	60	136	GapExp	0	244	2	45	1	target	1	467	767	153857	13.328	13.106	13.555
ProbeTrack11	18	ProbeTrack	11.2	SCS215a	20101110.132205	20101110.135129	8	0.013328	60	0	60-180	60	68	GapExp	0	245	2	0	1	target	1	560	720	154577	13.328	13.309	13.348
ProbeTrack11	18	ProbeTrack	11.2	SCS215a	20101110.132205	20101110.135139	8	0.013328	60	0	60-180	60	169	GapExp	0	246	2	45	1	target	1	507	747	155324	13.328	13.092	13.577
ProbeTrack11	18	ProbeTrack	11.2	SCS215a	20101110.132205	20101110.135146	8	0.013328	60	0	60-180	60	146	GapExp	0	247	2	1	1	target	1	680	660	155984	13.328	13.309	13.344
ProbeTrack11	18	ProbeTrack	11.2	SCS215a	20101110.132205	20101110.135154	8	0.013328	60	10	60-180	60	73	GapExp	0	248	2	0	0	distractor	1	613	694	156678	13.328	12.964	13.702
ProbeTrack11	18	ProbeTrack	11.2	SCS215a	20101110.132205	20101110.135201	8	0.013328	60	0	60-180	60	78	GapExp	0	249	2	0	1	target	1	627	687	157365	13.328	13.143	13.495
ProbeTrack11	18	ProbeTrack	11.2	SCS215a	20101110.132205	20101110.135207	8	0.013328	60	10	60-180	60	180	GapExp	0	250	2	3	1	target	1	560	720	158085	13.328	12.907	13.749
ProbeTrack11	18	ProbeTrack	11.2	SCS215a	20101110.132205	20101110.135214	8	0.013328	60	10	60-180	60	174	GapExp	0	251	2	1	0	distractor	1	640	680	158765	13.328	13.309	13.349
ProbeTrack11	18	ProbeTrack	11.2	SCS215a	20101110.132205	20101110.135221	8	0.013328	60	0	60-180	60	117	GapExp	0	252	2	0	0	distractor	1	2799	0	158765	13.328	13.307	13.349
ProbeTrack11	18	ProbeTrack	11.2	SCS215a	20101110.132205	20101110.135230	8	0.013328	60	0	60-180	60	158	GapExp	0	253	2	3	1	target	1	547	727	159492	13.328	13.308	13.346
ProbeTrack11	18	ProbeTrack	11.2	SCS215a	20101110.132205	20101110.135236	8	0.013328	60	10	60-180	60	66	GapExp	0	254	2	1	0	distractor	1	693	654	160146	13.328	13.057	13.587
ProbeTrack11	18	ProbeTrack	11.2	SCS215a	20101110.132205	20101110.135242	8	0.013328	60	10	60-180	60	140	GapExp	0	255	2	1	1	distractor	0	520	-1000	159146	13.328	13.100	13.563
ProbeTrack11	18	ProbeTrack	11.2	SCS215a	20101110.132205	20101110.135248	8	0.013328	60	0	60-180	60	84	GapExp	0	256	2	1	0	distractor	1	920	540	159686	13.328	13.099	13.554
ProbeTrack11	18	ProbeTrack	11.2	SCS215a	20101110.132205	20101110.135254	8	0.013328	60	0	60-180	60	149	GapExp	0	257	2	45	0	distractor	1	747	627	160313	13.328	13.117	13.552
ProbeTrack11	18	ProbeTrack	11.2	SCS215a	20101110.132205	20101110.135301	8	0.013328	60	0	60-180	60	97	GapExp	0	258	2	0	0	distractor	1	760	620	160933	13.328	13.098	13.556
ProbeTrack11	18	ProbeTrack	11.2	SCS215a	20101110.132205	20101110.135307	8	0.013328	60	0	60-180	60	180	GapExp	0	259	2	3	0	distractor	1	1120	440	161373	13.328	13.090	13.564
ProbeTrack11	18	ProbeTrack	11.2	SCS215a	20101110.132205	20101110.135315	8	0.013328	60	0	60-180	60	100	GapExp	0	260	2	3	1	target	1	880	560	161933	13.328	12.928	13.735
ProbeTrack11	18	ProbeTrack	11.2	SCS215a	20101110.132205	20101110.135321	8	0.013328	60	10	60-180	60	112	GapExp	0	261	2	3	1	target	1	534	733	162666	13.493	13.017	39.981
ProbeTrack11	18	ProbeTrack	11.2	SCS215a	20101110.132205	20101110.135327	8	0.013328	60	0	60-180	60	140	GapExp	0	262	2	1	1	target	1	653	674	163340	13.328	13.002	13.669
ProbeTrack11	18	ProbeTrack	11.2	SCS215a	20101110.132205	20101110.135333	8	0.013328	60	0	60-180	60	169	GapExp	0	263	2	1	0	distractor	1	507	747	164087	13.328	12.930	13.725
ProbeTrack11	18	ProbeTrack	11.2	SCS215a	20101110.132205	20101110.135340	8	0.013328	60	0	60-180	60	164	GapExp	0	264	2	45	1	target	1	587	707	164794	13.328	13.311	13.350
ProbeTrack11	18	ProbeTrack	11.2	SCS215a	20101110.132205	20101110.135347	8	0.013328	60	0	60-180	60	95	GapExp	0	265	2	1	0	distractor	1	627	687	165481	13.328	13.246	13.411
ProbeTrack11	18	ProbeTrack	11.2	SCS215a	20101110.132205	20101110.135353	8	0.013328	60	10	60-180	60	90	GapExp	0	266	2	45	1	target	1	400	800	166281	13.328	12.865	13.792
ProbeTrack11	18	ProbeTrack	11.2	SCS215a	20101110.132205	20101110.135359	8	0.013328	60	0	60-180	60	142	GapExp	0	267	2	45	1	target	1	547	727	167008	13.328	12.889	13.773
ProbeTrack11	18	ProbeTrack	11.2	SCS215a	20101110.132205	20101110.135406	8	0.013328	60	0	60-180	60	142	GapExp	0	268	2	0	1	target	1	507	747	167755	13.328	13.100	13.544
ProbeTrack11	18	ProbeTrack	11.2	SCS215a	20101110.132205	20101110.135413	8	0.013328	60	0	60-180	60	155	GapExp	0	269	2	3	0	13	-3	9676	-1000	166755	13.328	12.969	13.693
ProbeTrack11	18	ProbeTrack	11.2	SCS215a	20101110.132205	20101110.135428	8	0.013328	60	10	60-180	60	99	GapExp	0	270	2	3	0	distractor	1	720	640	167395	13.328	12.878	13.789
ProbeTrack11	18	ProbeTrack	11.2	SCS215a	20101110.132205	20101110.135435	8	0.013328	60	0	60-180	60	135	GapExp	0	271	2	1	0	distractor	1	1360	320	167715	13.328	13.207	13.447
ProbeTrack11	18	ProbeTrack	11.2	SCS215a	20101110.132205	20101110.135442	8	0.013328	60	0	60-180	60	113	GapExp	0	272	2	1	0	distractor	1	653	674	168389	13.328	12.883	13.766
ProbeTrack11	18	ProbeTrack	11.2	SCS215a	20101110.132205	20101110.135449	8	0.013328	60	10	60-180	60	87	GapExp	0	273	2	1	1	distractor	0	440	-1000	167389	13.327	13.307	13.346
ProbeTrack11	18	ProbeTrack	11.2	SCS215a	20101110.132205	20101110.135454	8	0.013328	60	10	60-180	60	163	GapExp	0	274	2	1	0	distractor	1	640	680	168069	13.328	13.091	13.556
ProbeTrack11	18	ProbeTrack	11.2	SCS215a	20101110.132205	20101110.135501	8	0.013328	60	10	60-180	60	102	GapExp	0	275	2	1	0	distractor	1	534	733	168802	13.328	13.104	13.554
ProbeTrack11	18	ProbeTrack	11.2	SCS215a	20101110.132205	20101110.135507	8	0.013328	60	0	60-180	60	121	GapExp	0	276	2	45	0	distractor	1	534	733	169535	13.328	13.108	13.554
ProbeTrack11	18	ProbeTrack	11.2	SCS215a	20101110.132205	20101110.135514	8	0.013328	60	0	60-180	60	64	GapExp	0	277	2	3	0	distractor	1	560	720	170255	13.328	13.103	13.557
ProbeTrack11	18	ProbeTrack	11.2	SCS215a	20101110.132205	20101110.135519	8	0.013328	60	0	60-180	60	124	GapExp	0	278	2	0	0	distractor	1	1067	467	170722	13.328	13.108	13.549
ProbeTrack11	18	ProbeTrack	11.2	SCS215a	20101110.132205	20101110.135525	8	0.013328	60	0	60-180	60	156	GapExp	0	279	2	0	1	target	1	987	507	171229	13.328	13.002	13.663
ProbeTrack11	18	ProbeTrack	11.2	SCS215a	20101110.132205	20101110.135533	8	0.013328	60	10	60-180	60	164	GapExp	0	280	2	1	0	distractor	1	613	694	171923	13.328	12.931	13.720
ProbeTrack11	18	ProbeTrack	11.2	SCS215a	20101110.132205	20101110.135539	8	0.013328	60	0	60-180	60	100	GapExp	0	281	2	45	1	target	1	480	760	172683	13.328	13.307	13.350
ProbeTrack11	18	ProbeTrack	11.2	SCS215a	20101110.132205	20101110.135546	8	0.013328	60	10	60-180	60	168	GapExp	0	282	2	45	1	distractor	0	720	-1000	171683	13.328	12.902	13.759
ProbeTrack11	18	ProbeTrack	11.2	SCS215a	20101110.132205	20101110.135553	8	0.013328	60	0	60-180	60	74	GapExp	0	283	2	3	0	distractor	1	1146	427	172110	13.328	13.306	13.343
ProbeTrack11	18	ProbeTrack	11.2	SCS215a	20101110.132205	20101110.135600	8	0.013328	60	0	60-180	60	77	GapExp	0	284	2	45	0	distractor	1	827	587	172697	13.328	13.308	13.346
ProbeTrack11	18	ProbeTrack	11.2	SCS215a	20101110.132205	20101110.135606	8	0.013328	60	10	60-180	60	61	GapExp	0	285	2	45	1	target	1	680	660	173357	13.328	13.308	13.345
ProbeTrack11	18	ProbeTrack	11.2	SCS215a	20101110.132205	20101110.135614	8	0.013328	60	10	60-180	60	170	GapExp	0	286	2	45	1	target	1	787	607	173964	13.328	13.229	13.426
ProbeTrack11	18	ProbeTrack	11.2	SCS215a	20101110.132205	20101110.135622	8	0.013328	60	0	60-180	60	71	GapExp	0	287	2	0	1	target	1	600	700	174664	13.328	13.301	13.350
ProbeTrack11	18	ProbeTrack	11.2	SCS215a	20101110.132205	20101110.135632	8	0.013328	60	0	60-180	60	161	GapExp	0	288	2	0	1	target	1	467	767	175431	13.328	12.912	13.737
ProbeTrack11	18	ProbeTrack	11.2	SCS215a	20101110.132205	20101110.135638	8	0.013328	60	10	60-180	60	132	GapExp	0	289	2	0	1	target	1	467	767	176198	13.328	13.099	13.541
ProbeTrack11	18	ProbeTrack	11.2	SCS215a	20101110.132205	20101110.135645	8	0.013328	60	0	60-180	60	99	GapExp	0	290	2	3	0	distractor	1	520	740	176938	13.328	13.096	13.559
ProbeTrack11	18	ProbeTrack	11.2	SCS215a	20101110.132205	20101110.135650	8	0.013328	60	10	60-180	60	126	GapExp	0	291	2	0	0	distractor	1	733	634	177572	13.328	12.948	13.700
ProbeTrack11	18	ProbeTrack	11.2	SCS215a	20101110.132205	20101110.135657	8	0.013328	60	0	60-180	60	117	GapExp	0	292	2	3	1	target	1	414	793	178365	13.328	12.884	13.783
ProbeTrack11	18	ProbeTrack	11.2	SCS215a	20101110.132205	20101110.135702	8	0.013328	60	0	60-180	60	132	GapExp	0	293	2	45	0	distractor	1	427	787	179152	13.328	12.860	13.350
ProbeTrack11	18	ProbeTrack	11.2	SCS215a	20101110.132205	20101110.135709	8	0.013328	60	0	60-180	60	168	GapExp	0	294	2	0	0	distractor	1	560	720	179872	13.328	13.007	13.641
ProbeTrack11	18	ProbeTrack	11.2	SCS215a	20101110.132205	20101110.135715	8	0.013328	60	10	60-180	60	95	GapExp	0	295	2	0	0	distractor	1	640	680	180552	13.328	13.307	13.344
ProbeTrack11	18	ProbeTrack	11.2	SCS215a	20101110.132205	20101110.135722	8	0.013328	60	0	60-180	60	119	GapExp	0	296	2	3	0	distractor	1	627	687	181239	13.328	13.278	13.392
ProbeTrack11	18	ProbeTrack	11.2	SCS215a	20101110.132205	20101110.135728	8	0.013328	60	0	60-180	60	109	GapExp	0	297	2	0	0	distractor	1	560	720	181959	13.328	13.309	13.350
ProbeTrack11	18	ProbeTrack	11.2	SCS215a	20101110.132205	20101110.135735	8	0.013328	60	0	60-180	60	78	GapExp	0	298	2	0	1	target	1	747	627	182586	13.328	13.103	13.540
ProbeTrack11	18	ProbeTrack	11.2	SCS215a	20101110.132205	20101110.135740	8	0.013328	60	0	60-180	60	131	GapExp	0	299	2	0	0	distractor	1	480	760	183346	13.328	13.010	13.658
ProbeTrack11	18	ProbeTrack	11.2	SCS215a	20101110.132205	20101110.135746	8	0.013328	60	0	60-180	60	100	GapExp	0	300	2	0	0	distractor	1	414	793	184139	13.328	12.896	13.347
ProbeTrack11	18	ProbeTrack	11.2	SCS215a	20101110.132205	20101110.135752	8	0.013328	60	10	60-180	60	134	GapExp	0	301	2	1	0	distractor	1	440	780	184919	13.328	13.308	13.346
ProbeTrack11	18	ProbeTrack	11.2	SCS215a	20101110.132205	20101110.135758	8	0.013328	60	0	60-180	60	143	GapExp	0	302	2	45	0	distractor	1	587	707	185626	13.326	12.834	13.808
ProbeTrack11	18	ProbeTrack	11.2	SCS215a	20101110.132205	20101110.135805	8	0.013328	60	10	60-180	60	86	GapExp	0	303	2	3	0	distractor	1	573	714	186340	13.328	12.832	13.816
ProbeTrack11	18	ProbeTrack	11.2	SCS215a	20101110.132205	20101110.135812	8	0.013328	60	0	60-180	60	130	GapExp	0	304	2	45	1	target	1	613	694	187034	13.328	13.093	13.555
ProbeTrack11	18	ProbeTrack	11.2	SCS215a	20101110.132205	20101110.135821	8	0.013328	60	10	60-180	60	64	GapExp	0	305	2	45	1	target	1	374	813	187847	13.328	13.270	13.385
ProbeTrack11	18	ProbeTrack	11.2	SCS215a	20101110.132205	20101110.135827	8	0.013328	60	10	60-180	60	83	GapExp	0	306	2	0	1	target	1	307	847	188694	13.328	13.311	13.345
ProbeTrack11	18	ProbeTrack	11.2	SCS215a	20101110.132205	20101110.135832	8	0.013328	60	10	60-180	60	103	GapExp	0	307	2	1	0	distractor	1	427	787	189481	13.328	13.304	13.344
ProbeTrack11	18	ProbeTrack	11.2	SCS215a	20101110.132205	20101110.135837	8	0.013328	60	10	60-180	60	176	GapExp	0	308	2	0	1	target	1	560	720	190201	13.328	13.077	13.574
ProbeTrack11	18	ProbeTrack	11.2	SCS215a	20101110.132205	20101110.135844	8	0.013328	60	10	60-180	60	90	GapExp	0	309	2	1	0	distractor	1	360	820	191021	13.328	13.106	13.556
ProbeTrack11	18	ProbeTrack	11.2	SCS215a	20101110.132205	20101110.135851	8	0.013328	60	10	60-180	60	78	GapExp	0	310	2	3	1	distractor	0	427	-1000	190021	13.328	13.112	13.550
ProbeTrack11	18	ProbeTrack	11.2	SCS215a	20101110.132205	20101110.135857	8	0.013328	60	0	60-180	60	62	GapExp	0	311	2	1	1	target	1	733	634	190655	13.328	13.100	13.554
ProbeTrack11	18	ProbeTrack	11.2	SCS215a	20101110.132205	20101110.135903	8	0.013328	60	10	60-180	60	125	GapExp	0	312	2	1	1	target	1	387	807	191462	13.328	12.850	13.799
ProbeTrack11	18	ProbeTrack	11.2	SCS215a	20101110.132205	20101110.135908	8	0.013328	60	10	60-180	60	122	GapExp	0	313	2	45	0	distractor	1	414	793	192255	13.328	13.306	13.348
ProbeTrack11	18	ProbeTrack	11.2	SCS215a	20101110.132205	20101110.135915	8	0.013328	60	0	60-180	60	126	GapExp	0	314	2	45	1	target	1	480	760	193015	13.328	13.138	13.521
ProbeTrack11	18	ProbeTrack	11.2	SCS215a	20101110.132205	20101110.135921	8	0.013328	60	0	60-180	60	136	GapExp	0	315	2	3	1	target	1	653	674	193689	13.328	13.250	13.415
ProbeTrack11	18	ProbeTrack	11.2	SCS215a	20101110.132205	20101110.135928	8	0.013328	60	0	60-180	60	65	GapExp	0	316	2	0	1	target	1	574	713	194402	13.328	13.105	13.549
ProbeTrack11	18	ProbeTrack	11.2	SCS215a	20101110.132205	20101110.135933	8	0.013328	60	0	60-180	60	81	GapExp	0	317	2	1	1	target	1	507	747	195149	13.328	13.104	13.557
ProbeTrack11	18	ProbeTrack	11.2	SCS215a	20101110.132205	20101110.135938	8	0.013328	60	10	60-180	60	75	GapExp	0	318	2	45	1	distractor	0	374	-1000	194149	13.328	13.308	13.345
ProbeTrack11	18	ProbeTrack	11.2	SCS215a	20101110.132205	20101110.135944	8	0.013328	60	10	60-180	60	163	GapExp	0	319	2	1	1	target	1	440	780	194929	13.328	13.278	13.378
ProbeTrack11	18	ProbeTrack	11.2	SCS215a	20101110.132205	20101110.135950	8	0.013328	60	0	60-180	60	180	GapExp	0	320	2	3	0	distractor	1	454	773	195702	13.328	13.105	13.553
ProbeTrack11	18	ProbeTrack	11.2	SCS215a	20101110.132205	20101110.140008	8	0.013328	60	0	60-180	60	114	GapExp	0	321	2	3	0	distractor	1	427	787	196489	13.328	13.091	13.566
ProbeTrack11	18	ProbeTrack	11.2	SCS215a	20101110.132205	20101110.140110	8	0.013328	60	0	60-180	60	161	GapExp	0	322	2	3	1	target	1	414	793	197282	13.328	13.084	13.572
ProbeTrack11	18	ProbeTrack	11.2	SCS215a	20101110.132205	20101110.140117	8	0.013328	60	0	60-180	60	158	GapExp	0	323	2	0	1	target	1	507	747	198029	13.328	13.304	13.360
ProbeTrack11	18	ProbeTrack	11.2	SCS215a	20101110.132205	20101110.140123	8	0.013328	60	10	60-180	60	64	GapExp	0	324	2	3	0	distractor	1	507	747	198776	13.328	13.196	13.471
ProbeTrack11	18	ProbeTrack	11.2	SCS215a	20101110.132205	20101110.140128	8	0.013328	60	10	60-180	60	141	GapExp	0	325	2	1	1	distractor	0	494	-1000	197776	13.328	13.075	13.588
ProbeTrack11	18	ProbeTrack	11.2	SCS215a	20101110.132205	20101110.140136	8	0.013328	60	10	60-180	60	174	GapExp	0	326	2	0	0	distractor	1	454	773	198549	13.328	12.867	13.779
ProbeTrack11	18	ProbeTrack	11.2	SCS215a	20101110.132205	20101110.140142	8	0.013328	60	10	60-180	60	71	GapExp	0	327	2	0	0	distractor	1	414	793	199342	13.328	13.309	13.348
ProbeTrack11	18	ProbeTrack	11.2	SCS215a	20101110.132205	20101110.140148	8	0.013328	60	10	60-180	60	122	GapExp	0	328	2	3	0	distractor	1	400	800	200142	13.327	13.108	13.344
ProbeTrack11	18	ProbeTrack	11.2	SCS215a	20101110.132205	20101110.140154	8	0.013328	60	10	60-180	60	63	GapExp	0	329	2	45	0	distractor	1	880	560	200702	13.328	13.307	13.348
ProbeTrack11	18	ProbeTrack	11.2	SCS215a	20101110.132205	20101110.140202	8	0.013328	60	0	60-180	60	145	GapExp	0	330	2	1	1	distractor	0	400	-1000	199702	13.328	13.309	13.346
ProbeTrack11	18	ProbeTrack	11.2	SCS215a	20101110.132205	20101110.140208	8	0.013328	60	0	60-180	60	88	GapExp	0	331	2	1	0	target	0	1013	-1000	198702	13.447	12.987	26.971
ProbeTrack11	18	ProbeTrack	11.2	SCS215a	20101110.132205	20101110.140214	8	0.013328	60	0	60-180	60	61	GapExp	0	332	2	3	0	distractor	1	613	694	199396	13.399	13.095	26.639
ProbeTrack11	18	ProbeTrack	11.2	SCS215a	20101110.132205	20101110.140220	8	0.013328	60	10	60-180	60	104	GapExp	0	333	2	3	1	target	1	787	607	200003	13.328	12.930	13.548
ProbeTrack11	18	ProbeTrack	11.2	SCS215a	20101110.132205	20101110.140226	8	0.013328	60	0	60-180	60	137	GapExp	0	334	2	1	0	distractor	1	813	594	200597	13.328	12.963	13.698
ProbeTrack11	18	ProbeTrack	11.2	SCS215a	20101110.132205	20101110.140232	8	0.013328	60	10	60-180	60	115	GapExp	0	335	2	3	0	distractor	1	520	740	201337	13.328	13.309	13.347
ProbeTrack11	18	ProbeTrack	11.2	SCS215a	20101110.132205	20101110.140238	8	0.013328	60	10	60-180	60	64	GapExp	0	336	2	3	1	target	1	600	700	202037	13.328	13.092	13.564
ProbeTrack11	18	ProbeTrack	11.2	SCS215a	20101110.132205	20101110.140243	8	0.013328	60	10	60-180	60	115	GapExp	0	337	2	3	1	distractor	0	613	-1000	201037	13.328	12.870	13.790
ProbeTrack11	18	ProbeTrack	11.2	SCS215a	20101110.132205	20101110.140249	8	0.013328	60	10	60-180	60	115	GapExp	0	338	2	45	0	distractor	1	414	793	201830	13.328	13.089	13.570
ProbeTrack11	18	ProbeTrack	11.2	SCS215a	20101110.132205	20101110.140256	8	0.013328	60	10	60-180	60	149	GapExp	0	339	2	3	1	target	1	520	740	202570	13.328	13.299	13.360
ProbeTrack11	18	ProbeTrack	11.2	SCS215a	20101110.132205	20101110.140302	8	0.013328	60	10	60-180	60	100	GapExp	0	340	2	45	1	target	1	440	780	203350	13.328	12.875	13.783
ProbeTrack11	18	ProbeTrack	11.2	SCS215a	20101110.132205	20101110.140308	8	0.013328	60	0	60-180	60	156	GapExp	0	341	2	0	1	target	1	520	740	204090	13.328	13.099	13.565
ProbeTrack11	18	ProbeTrack	11.2	SCS215a	20101110.132205	20101110.140315	8	0.013328	60	10	60-180	60	172	GapExp	0	342	2	3	0	distractor	1	680	660	204750	13.328	13.103	13.556
ProbeTrack11	18	ProbeTrack	11.2	SCS215a	20101110.132205	20101110.140322	8	0.013328	60	10	60-180	60	129	GapExp	0	343	2	1	1	target	1	707	647	205397	13.328	13.308	13.348
ProbeTrack11	18	ProbeTrack	11.2	SCS215a	20101110.132205	20101110.140328	8	0.013328	60	10	60-180	60	175	GapExp	0	344	2	0	0	distractor	1	467	767	206164	13.328	12.916	13.740
ProbeTrack11	18	ProbeTrack	11.2	SCS215a	20101110.132205	20101110.140336	8	0.013328	60	0	60-180	60	165	GapExp	0	345	2	1	1	target	1	547	727	206891	13.328	13.151	13.509
ProbeTrack11	18	ProbeTrack	11.2	SCS215a	20101110.132205	20101110.140342	8	0.013328	60	10	60-180	60	147	GapExp	0	346	2	3	0	distractor	1	454	773	207664	13.328	13.309	13.347
ProbeTrack11	18	ProbeTrack	11.2	SCS215a	20101110.132205	20101110.140348	8	0.013328	60	10	60-180	60	98	GapExp	0	347	2	0	0	distractor	1	627	687	208351	13.328	13.241	13.407
ProbeTrack11	18	ProbeTrack	11.2	SCS215a	20101110.132205	20101110.140354	8	0.013328	60	0	60-180	60	148	GapExp	0	348	2	0	0	distractor	1	480	760	209111	13.328	12.994	13.650
ProbeTrack11	18	ProbeTrack	11.2	SCS215a	20101110.132205	20101110.140400	8	0.013328	60	10	60-180	60	95	GapExp	0	349	2	3	1	target	1	560	720	209831	13.328	13.113	13.552
ProbeTrack11	18	ProbeTrack	11.2	SCS215a	20101110.132205	20101110.140406	8	0.013328	60	10	60-180	60	120	GapExp	0	350	2	45	1	distractor	0	494	-1000	208831	13.328	12.914	13.743
ProbeTrack11	18	ProbeTrack	11.2	SCS215a	20101110.132205	20101110.140412	8	0.013328	60	10	60-180	60	94	GapExp	0	351	2	0	1	target	1	560	720	209551	13.328	13.045	13.595
ProbeTrack11	18	ProbeTrack	11.2	SCS215a	20101110.132205	20101110.140418	8	0.013328	60	0	60-180	60	157	GapExp	0	352	2	45	1	target	1	480	760	210311	13.328	12.971	13.688
ProbeTrack11	18	ProbeTrack	11.2	SCS215a	20101110.132205	20101110.140425	8	0.013328	60	0	60-180	60	166	GapExp	0	353	2	45	0	distractor	1	427	787	211098	13.328	13.082	13.567
ProbeTrack11	18	ProbeTrack	11.2	SCS215a	20101110.132205	20101110.140432	8	0.013328	60	10	60-180	60	161	GapExp	0	354	2	3	0	distractor	1	414	793	211891	13.328	13.306	13.352
ProbeTrack11	18	ProbeTrack	11.2	SCS215a	20101110.132205	20101110.140438	8	0.013328	60	10	60-180	60	178	GapExp	0	355	2	3	0	distractor	1	374	813	212704	13.328	12.970	13.680
ProbeTrack11	18	ProbeTrack	11.2	SCS215a	20101110.132205	20101110.140445	8	0.013328	60	10	60-180	60	119	GapExp	0	356	2	45	1	target	1	374	813	213517	13.328	13.099	13.570
ProbeTrack11	18	ProbeTrack	11.2	SCS215a	20101110.132205	20101110.140453	8	0.013328	60	0	60-180	60	123	GapExp	0	357	2	45	0	distractor	1	1426	287	213804	13.328	13.180	13.470
ProbeTrack11	18	ProbeTrack	11.2	SCS215a	20101110.132205	20101110.140512	8	0.013328	60	0	60-180	60	174	GapExp	0	358	2	45	1	target	1	693	654	214458	13.328	12.855	13.802
ProbeTrack11	18	ProbeTrack	11.2	SCS215a	20101110.132205	20101110.140521	8	0.013328	60	0	60-180	60	116	GapExp	0	359	2	45	0	distractor	1	773	614	215072	13.328	12.848	13.803
ProbeTrack11	18	ProbeTrack	11.2	SCS215a	20101110.132205	20101110.140533	8	0.013328	60	0	60-180	60	157	GapExp	0	360	2	0	0	distractor	1	1000	500	215572	13.328	13.307	13.346
ProbeTrack11	18	ProbeTrack	11.2	SCS215a	20101110.132205	20101110.140540	8	0.013328	60	10	60-180	60	65	GapExp	0	361	2	1	0	distractor	1	827	587	216159	13.328	13.053	13.587
ProbeTrack11	18	ProbeTrack	11.2	SCS215a	20101110.132205	20101110.140546	8	0.013328	60	0	60-180	60	129	GapExp	0	362	2	3	1	target	1	1160	420	216579	13.328	13.128	13.535
ProbeTrack11	18	ProbeTrack	11.2	SCS215a	20101110.132205	20101110.140554	8	0.013328	60	10	60-180	60	148	GapExp	0	363	2	45	0	distractor	1	414	793	217372	13.328	13.309	13.346
ProbeTrack11	18	ProbeTrack	11.2	SCS215a	20101110.132205	20101110.140601	8	0.013328	60	0	60-180	60	64	GapExp	0	364	2	3	0	distractor	1	534	733	218105	13.328	13.178	13.465
ProbeTrack11	18	ProbeTrack	11.2	SCS215a	20101110.132205	20101110.140606	8	0.013328	60	10	60-180	60	70	GapExp	0	365	2	0	0	distractor	1	653	674	218779	13.328	12.907	13.743
ProbeTrack11	18	ProbeTrack	11.2	SCS215a	20101110.132205	20101110.140611	8	0.013328	60	0	60-180	60	97	GapExp	0	366	2	1	0	distractor	1	467	767	219546	13.328	13.105	13.552
ProbeTrack11	18	ProbeTrack	11.2	SCS215a	20101110.132205	20101110.140617	8	0.013328	60	10	60-180	60	106	GapExp	0	367	2	3	1	target	1	667	667	220213	13.328	12.878	13.763
ProbeTrack11	18	ProbeTrack	11.2	SCS215a	20101110.132205	20101110.140623	8	0.013328	60	0	60-180	60	104	GapExp	0	368	2	3	0	distractor	1	613	694	220907	13.328	12.912	13.738
ProbeTrack11	18	ProbeTrack	11.2	SCS215a	20101110.132205	20101110.140629	8	0.013328	60	10	60-180	60	62	GapExp	0	369	2	45	0	distractor	1	387	807	221714	13.328	12.949	13.707
ProbeTrack11	18	ProbeTrack	11.2	SCS215a	20101110.132205	20101110.140634	8	0.013328	60	10	60-180	60	160	GapExp	0	370	2	0	1	target	1	507	747	222461	13.328	12.961	13.689
ProbeTrack11	18	ProbeTrack	11.2	SCS215a	20101110.132205	20101110.140641	8	0.013328	60	0	60-180	60	129	GapExp	0	371	2	1	0	distractor	1	454	773	223234	13.328	13.025	13.641
ProbeTrack11	18	ProbeTrack	11.2	SCS215a	20101110.132205	20101110.140647	8	0.013328	60	10	60-180	60	98	GapExp	0	372	2	1	1	target	1	560	720	223954	13.328	12.895	13.760
ProbeTrack11	18	ProbeTrack	11.2	SCS215a	20101110.132205	20101110.140653	8	0.013328	60	0	60-180	60	136	GapExp	0	373	2	0	1	target	1	507	747	224701	13.328	12.933	13.721
ProbeTrack11	18	ProbeTrack	11.2	SCS215a	20101110.132205	20101110.140659	8	0.013328	60	10	60-180	60	93	GapExp	0	374	2	3	1	target	1	507	747	225448	13.328	13.091	13.554
ProbeTrack11	18	ProbeTrack	11.2	SCS215a	20101110.132205	20101110.140705	8	0.013328	60	10	60-180	60	169	GapExp	0	375	2	3	0	distractor	1	400	800	226248	13.328	13.212	13.462
ProbeTrack11	18	ProbeTrack	11.2	SCS215a	20101110.132205	20101110.140711	8	0.013328	60	10	60-180	60	136	GapExp	0	376	2	0	0	distractor	1	680	660	226908	13.328	12.906	13.749
ProbeTrack11	18	ProbeTrack	11.2	SCS215a	20101110.132205	20101110.140717	8	0.013328	60	10	60-180	60	155	GapExp	0	377	2	45	1	target	1	414	793	227701	13.328	13.308	13.346
ProbeTrack11	18	ProbeTrack	11.2	SCS215a	20101110.132205	20101110.140724	8	0.013328	60	0	60-180	60	134	GapExp	0	378	2	45	1	target	1	573	714	228415	13.328	12.995	13.676
ProbeTrack11	18	ProbeTrack	11.2	SCS215a	20101110.132205	20101110.140731	8	0.013328	60	10	60-180	60	82	GapExp	0	379	2	0	1	target	1	587	707	229122	13.328	13.152	13.487
ProbeTrack11	18	ProbeTrack	11.2	SCS215a	20101110.132205	20101110.140737	8	0.013328	60	0	60-180	60	132	GapExp	0	380	2	1	1	target	1	454	773	229895	13.328	12.934	13.738
ProbeTrack11	18	ProbeTrack	11.2	SCS215a	20101110.132205	20101110.140743	8	0.013328	60	10	60-180	60	121	GapExp	0	381	2	3	1	target	1	427	787	230682	13.328	13.084	13.570
ProbeTrack11	18	ProbeTrack	11.2	SCS215a	20101110.132205	20101110.140749	8	0.013328	60	10	60-180	60	109	GapExp	0	382	2	45	0	distractor	1	520	740	231422	13.328	13.100	13.557
ProbeTrack11	18	ProbeTrack	11.2	SCS215a	20101110.132205	20101110.140756	8	0.013328	60	10	60-180	60	170	GapExp	0	383	2	45	1	target	1	454	773	232195	13.328	13.130	13.533
ProbeTrack11	18	ProbeTrack	11.2	SCS215a	20101110.132205	20101110.140803	8	0.013328	60	0	60-180	60	136	GapExp	0	384	2	3	1	target	1	693	654	232849	13.328	13.118	13.550
ProbeTrack11	18	ProbeTrack	11.2	SCS215a	20101110.132205	20101110.140810	8	0.013328	60	0	60-180	60	103	GapExp	0	385	2	1	0	distractor	1	627	687	233536	13.328	13.309	13.347
ProbeTrack11	18	ProbeTrack	11.2	SCS215a	20101110.132205	20101110.140820	8	0.013328	60	0	60-180	60	145	GapExp	0	386	2	3	0	distractor	1	800	600	234136	13.328	12.886	13.776
ProbeTrack11	18	ProbeTrack	11.2	SCS215a	20101110.132205	20101110.140827	8	0.013328	60	0	60-180	60	117	GapExp	0	387	2	45	1	target	1	760	620	234756	13.328	13.101	13.557
ProbeTrack11	18	ProbeTrack	11.2	SCS215a	20101110.132205	20101110.140833	8	0.013328	60	0	60-180	60	100	GapExp	0	388	2	3	0	distractor	1	494	753	235509	13.328	12.920	13.738
ProbeTrack11	18	ProbeTrack	11.2	SCS215a	20101110.132205	20101110.140839	8	0.013328	60	10	60-180	60	63	GapExp	0	389	2	45	0	distractor	1	440	780	236289	13.328	12.938	13.717
ProbeTrack11	18	ProbeTrack	11.2	SCS215a	20101110.132205	20101110.140845	8	0.013328	60	10	60-180	60	141	GapExp	0	390	2	0	1	target	1	547	727	237016	13.328	12.945	13.707
ProbeTrack11	18	ProbeTrack	11.2	SCS215a	20101110.132205	20101110.140851	8	0.013328	60	0	60-180	60	93	GapExp	0	391	2	0	0	distractor	1	840	580	237596	13.328	12.892	13.748
ProbeTrack11	18	ProbeTrack	11.2	SCS215a	20101110.132205	20101110.140857	8	0.013328	60	0	60-180	60	104	GapExp	0	392	2	45	0	distractor	1	534	733	238329	13.328	12.871	13.787
ProbeTrack11	18	ProbeTrack	11.2	SCS215a	20101110.132205	20101110.140903	8	0.013328	60	10	60-180	60	86	GapExp	0	393	2	45	0	distractor	1	547	727	239056	13.328	13.305	13.354
ProbeTrack11	18	ProbeTrack	11.2	SCS215a	20101110.132205	20101110.140909	8	0.013328	60	0	60-180	60	92	GapExp	0	394	2	1	0	distractor	1	653	674	239730	13.328	13.308	13.346
ProbeTrack11	18	ProbeTrack	11.2	SCS215a	20101110.132205	20101110.140915	8	0.013328	60	0	60-180	60	154	GapExp	0	395	2	45	1	target	1	747	627	240357	13.328	12.955	13.712
ProbeTrack11	18	ProbeTrack	11.2	SCS215a	20101110.132205	20101110.140922	8	0.013328	60	10	60-180	60	152	GapExp	0	396	2	1	1	distractor	0	693	-1000	239357	13.328	12.906	13.753
ProbeTrack11	18	ProbeTrack	11.2	SCS215a	20101110.132205	20101110.140928	8	0.013328	60	0	60-180	60	72	GapExp	0	397	2	3	1	target	1	507	747	240104	13.328	12.884	13.777
ProbeTrack11	18	ProbeTrack	11.2	SCS215a	20101110.132205	20101110.140933	8	0.013328	60	0	60-180	60	114	GapExp	0	398	2	3	1	target	1	507	747	240851	13.328	13.309	13.343
ProbeTrack11	18	ProbeTrack	11.2	SCS215a	20101110.132205	20101110.140939	8	0.013328	60	10	60-180	60	171	GapExp	0	399	2	3	0	distractor	1	334	833	241684	13.328	13.307	13.345
ProbeTrack11	18	ProbeTrack	11.2	SCS215a	20101110.132205	20101110.140945	8	0.013328	60	0	60-180	60	83	GapExp	0	400	2	1	1	target	1	600	700	242384	13.328	13.048	13.613
ProbeTrack11	18	ProbeTrack	11.2	SCS215a	20101110.132205	20101110.140951	8	0.013328	60	10	60-180	60	82	GapExp	0	401	2	3	0	distractor	1	693	654	243038	13.328	13.106	13.551
ProbeTrack11	18	ProbeTrack	11.2	SCS215a	20101110.132205	20101110.140956	8	0.013328	60	10	60-180	60	70	GapExp	0	402	2	3	1	target	1	494	753	243791	13.328	13.087	13.553
ProbeTrack11	18	ProbeTrack	11.2	SCS215a	20101110.132205	20101110.141002	8	0.013328	60	10	60-180	60	122	GapExp	0	403	2	0	0	distractor	1	507	747	244538	13.328	12.880	13.787
ProbeTrack11	18	ProbeTrack	11.2	SCS215a	20101110.132205	20101110.141008	8	0.013328	60	10	60-180	60	93	GapExp	0	404	2	45	1	target	1	467	767	245305	13.328	12.866	13.789
ProbeTrack11	18	ProbeTrack	11.2	SCS215a	20101110.132205	20101110.141016	8	0.013328	60	10	60-180	60	172	GapExp	0	405	2	0	1	target	1	520	740	246045	13.328	12.954	13.695
ProbeTrack11	18	ProbeTrack	11.2	SCS215a	20101110.132205	20101110.141023	8	0.013328	60	10	60-180	60	130	GapExp	0	406	2	1	1	target	1	467	767	246812	13.328	13.106	13.550
ProbeTrack11	18	ProbeTrack	11.2	SCS215a	20101110.132205	20101110.141030	8	0.013328	60	10	60-180	60	172	GapExp	0	407	2	0	0	distractor	1	853	574	247386	13.328	13.099	13.557
ProbeTrack11	18	ProbeTrack	11.2	SCS215a	20101110.132205	20101110.141037	8	0.013328	60	10	60-180	60	83	GapExp	0	408	2	3	1	target	1	427	787	248173	13.328	13.106	13.547
ProbeTrack11	18	ProbeTrack	11.2	SCS215a	20101110.132205	20101110.141043	8	0.013328	60	10	60-180	60	138	GapExp	0	409	2	3	0	target	0	613	-1000	247173	13.328	12.983	13.652
ProbeTrack11	18	ProbeTrack	11.2	SCS215a	20101110.132205	20101110.141049	8	0.013328	60	10	60-180	60	167	GapExp	0	410	2	45	0	distractor	1	387	807	247980	13.328	12.864	13.802
ProbeTrack11	18	ProbeTrack	11.2	SCS215a	20101110.132205	20101110.141056	8	0.013328	60	0	60-180	60	121	GapExp	0	411	2	1	1	target	1	574	713	248693	13.328	12.885	13.767
ProbeTrack11	18	ProbeTrack	11.2	SCS215a	20101110.132205	20101110.141102	8	0.013328	60	10	60-180	60	150	GapExp	0	412	2	0	1	distractor	0	640	-1000	247693	13.328	12.858	13.799
ProbeTrack11	18	ProbeTrack	11.2	SCS215a	20101110.132205	20101110.141109	8	0.013328	60	0	60-180	60	71	GapExp	0	413	2	0	0	target	0	627	-1000	246693	13.328	13.305	13.355
ProbeTrack11	18	ProbeTrack	11.2	SCS215a	20101110.132205	20101110.141114	8	0.013328	60	10	60-180	60	109	GapExp	0	414	2	1	1	target	1	600	700	247393	13.328	13.100	13.540
ProbeTrack11	18	ProbeTrack	11.2	SCS215a	20101110.132205	20101110.141120	8	0.013328	60	0	60-180	60	177	GapExp	0	415	2	1	1	target	1	573	714	248107	13.328	13.307	13.355
ProbeTrack11	18	ProbeTrack	11.2	SCS215a	20101110.132205	20101110.141126	8	0.013328	60	10	60-180	60	117	GapExp	0	416	2	0	1	target	1	560	720	248827	13.328	13.102	13.562
ProbeTrack11	18	ProbeTrack	11.2	SCS215a	20101110.132205	20101110.141132	8	0.013328	60	10	60-180	60	125	GapExp	0	417	2	45	0	target	0	467	-1000	247827	13.328	12.849	13.795
ProbeTrack11	18	ProbeTrack	11.2	SCS215a	20101110.132205	20101110.141139	8	0.013328	60	0	60-180	60	62	GapExp	0	418	2	3	1	target	1	574	713	248540	13.328	13.311	13.348
ProbeTrack11	18	ProbeTrack	11.2	SCS215a	20101110.132205	20101110.141144	8	0.013328	60	10	60-180	60	119	GapExp	0	419	2	3	0	distractor	1	933	534	249074	13.328	12.899	13.764
ProbeTrack11	18	ProbeTrack	11.2	SCS215a	20101110.132205	20101110.141151	8	0.013328	60	10	60-180	60	180	GapExp	0	420	2	0	1	target	1	534	733	249807	13.328	13.307	13.346
ProbeTrack11	18	ProbeTrack	11.2	SCS215a	20101110.132205	20101110.141157	8	0.013328	60	10	60-180	60	115	GapExp	0	421	2	3	1	target	1	427	787	250594	13.328	12.836	13.821
ProbeTrack11	18	ProbeTrack	11.2	SCS215a	20101110.132205	20101110.141203	8	0.013328	60	0	60-180	60	70	GapExp	0	422	2	3	1	target	1	880	560	251154	13.328	13.110	13.551
ProbeTrack11	18	ProbeTrack	11.2	SCS215a	20101110.132205	20101110.141209	8	0.013328	60	0	60-180	60	169	GapExp	0	423	2	3	0	distractor	1	547	727	251881	13.328	13.105	13.556
ProbeTrack11	18	ProbeTrack	11.2	SCS215a	20101110.132205	20101110.141217	8	0.013328	60	10	60-180	60	92	GapExp	0	424	2	3	0	distractor	1	480	760	252641	13.328	13.094	13.547
ProbeTrack11	18	ProbeTrack	11.2	SCS215a	20101110.132205	20101110.141222	8	0.013328	60	10	60-180	60	94	GapExp	0	425	2	1	0	distractor	1	547	727	253368	13.328	13.302	13.348
ProbeTrack11	18	ProbeTrack	11.2	SCS215a	20101110.132205	20101110.141228	8	0.013328	60	0	60-180	60	85	GapExp	0	426	2	1	1	target	1	653	674	254042	13.328	13.307	13.345
ProbeTrack11	18	ProbeTrack	11.2	SCS215a	20101110.132205	20101110.141233	8	0.013328	60	0	60-180	60	61	GapExp	0	427	2	1	1	target	1	494	753	254795	13.328	13.309	13.347
ProbeTrack11	18	ProbeTrack	11.2	SCS215a	20101110.132205	20101110.141239	8	0.013328	60	10	60-180	60	140	GapExp	0	428	2	1	1	target	1	547	727	255522	13.328	13.307	13.348
ProbeTrack11	18	ProbeTrack	11.2	SCS215a	20101110.132205	20101110.141245	8	0.013328	60	10	60-180	60	180	GapExp	0	429	2	1	1	target	1	427	787	256309	13.328	13.119	13.538
ProbeTrack11	18	ProbeTrack	11.2	SCS215a	20101110.132205	20101110.141252	8	0.013328	60	10	60-180	60	85	GapExp	0	430	2	1	0	distractor	1	773	614	256923	13.328	12.955	13.699
ProbeTrack11	18	ProbeTrack	11.2	SCS215a	20101110.132205	20101110.141258	8	0.013328	60	0	60-180	60	128	GapExp	0	431	2	0	1	target	1	480	760	257683	13.328	12.872	13.798
ProbeTrack11	18	ProbeTrack	11.2	SCS215a	20101110.132205	20101110.141304	8	0.013328	60	10	60-180	60	169	GapExp	0	432	2	1	0	target	0	520	-1000	256683	13.328	13.105	13.555
ProbeTrack11	18	ProbeTrack	11.2	SCS215a	20101110.132205	20101110.141311	8	0.013328	60	0	60-180	60	84	GapExp	0	433	2	0	1	target	1	520	740	257423	13.328	12.998	13.665
ProbeTrack11	18	ProbeTrack	11.2	SCS215a	20101110.132205	20101110.141316	8	0.013328	60	0	60-180	60	155	GapExp	0	434	2	3	1	target	1	613	694	258117	13.328	12.876	13.765
ProbeTrack11	18	ProbeTrack	11.2	SCS215a	20101110.132205	20101110.141323	8	0.013328	60	0	60-180	60	154	GapExp	0	435	2	1	0	distractor	1	547	727	258844	13.328	13.002	13.642
ProbeTrack11	18	ProbeTrack	11.2	SCS215a	20101110.132205	20101110.141329	8	0.013328	60	10	60-180	60	103	GapExp	0	436	2	1	0	distractor	1	600	700	259544	13.328	13.299	13.356
ProbeTrack11	18	ProbeTrack	11.2	SCS215a	20101110.132205	20101110.141335	8	0.013328	60	0	60-180	60	120	GapExp	0	437	2	3	1	target	1	1053	474	260018	13.328	12.834	13.808
ProbeTrack11	18	ProbeTrack	11.2	SCS215a	20101110.132205	20101110.141341	8	0.013328	60	0	60-180	60	126	GapExp	0	438	2	3	0	distractor	1	427	787	260805	13.328	12.979	13.544
ProbeTrack11	18	ProbeTrack	11.2	SCS215a	20101110.132205	20101110.141347	8	0.013328	60	0	60-180	60	159	GapExp	0	439	2	1	1	target	1	600	700	261505	13.328	13.060	13.597
ProbeTrack11	18	ProbeTrack	11.2	SCS215a	20101110.132205	20101110.141353	8	0.013328	60	0	60-180	60	130	GapExp	0	440	2	0	0	distractor	1	467	767	262272	13.328	13.106	13.569
ProbeTrack11	18	ProbeTrack	11.2	SCS215a	20101110.132205	20101110.141400	8	0.013328	60	0	60-180	60	125	GapExp	0	441	2	0	1	target	1	507	747	263019	13.328	13.094	13.548
ProbeTrack11	18	ProbeTrack	11.2	SCS215a	20101110.132205	20101110.141406	8	0.013328	60	0	60-180	60	144	GapExp	0	442	2	1	0	distractor	1	520	740	263759	13.328	12.930	13.727
ProbeTrack11	18	ProbeTrack	11.2	SCS215a	20101110.132205	20101110.141412	8	0.013328	60	0	60-180	60	180	GapExp	0	443	2	0	1	target	1	1027	487	264246	13.328	12.951	13.711
ProbeTrack11	18	ProbeTrack	11.2	SCS215a	20101110.132205	20101110.141420	8	0.013328	60	0	60-180	60	133	GapExp	0	444	2	0	1	target	1	480	760	265006	13.328	13.308	13.344
ProbeTrack11	18	ProbeTrack	11.2	SCS215a	20101110.132205	20101110.141426	8	0.013328	60	0	60-180	60	173	GapExp	0	445	2	45	1	target	1	494	753	265759	13.328	12.924	13.747
ProbeTrack11	18	ProbeTrack	11.2	SCS215a	20101110.132205	20101110.141434	8	0.013328	60	10	60-180	60	92	GapExp	0	446	2	0	1	target	1	560	720	266479	13.328	13.035	13.347
ProbeTrack11	18	ProbeTrack	11.2	SCS215a	20101110.132205	20101110.141439	8	0.013328	60	0	60-180	60	132	GapExp	0	447	2	45	1	target	1	427	787	267266	13.328	12.892	13.753
ProbeTrack11	18	ProbeTrack	11.2	SCS215a	20101110.132205	20101110.141446	8	0.013328	60	0	60-180	60	107	GapExp	0	448	2	45	0	distractor	1	494	753	268019	13.328	12.885	13.774
ProbeTrack11	18	ProbeTrack	11.2	SCS215a	20101110.132205	20101110.141452	8	0.013328	60	10	60-180	60	105	GapExp	0	449	2	3	0	distractor	1	507	747	268766	13.328	13.306	13.354
ProbeTrack11	18	ProbeTrack	11.2	SCS215a	20101110.132205	20101110.141458	8	0.013328	60	0	60-180	60	141	GapExp	0	450	2	3	1	target	1	494	753	269519	13.328	13.111	13.549
