exp	sub	code	rev	comp	runtime	trialtime	nstim	refreshdur	cuedur	gapdur	gapOnsetRange	durPostProbe	gapOnsetTime	blocktype	prac	trial	ntargets	soa	probeTarget	resp	acc	rt	pts	tpts	meanFrameDur	minFrameDur	maxFrameDur
ProbeTrack11	16	ProbeTrack	11.2	SCS215a	20101027.142325	20101027.142359	8	0.013328	60	0	60-180	60	75	NoGap	1	1	2	0	0	distractor	1	893	554	554	13.328	12.987	13.670
ProbeTrack11	16	ProbeTrack	11.2	SCS215a	20101027.142325	20101027.142411	8	0.013328	60	0	60-180	60	73	NoGap	1	2	2	3	0	distractor	1	520	740	1294	13.328	13.310	13.348
ProbeTrack11	16	ProbeTrack	11.2	SCS215a	20101027.142325	20101027.142448	8	0.013328	60	0	60-180	60	80	NoGap	1	3	2	1	1	target	1	334	833	2127	13.328	13.313	13.347
ProbeTrack11	16	ProbeTrack	11.2	SCS215a	20101027.142325	20101027.142516	8	0.013328	60	0	60-180	60	144	NoGap	1	4	2	45	0	distractor	1	254	873	3000	13.328	12.958	13.698
ProbeTrack11	16	ProbeTrack	11.2	SCS215a	20101027.142325	20101027.142524	8	0.013328	60	0	60-180	60	115	NoGap	1	5	2	1	1	target	1	374	813	3813	13.328	13.309	13.348
ProbeTrack11	16	ProbeTrack	11.2	SCS215a	20101027.142325	20101027.142531	8	0.013328	60	0	60-180	60	133	NoGap	1	6	2	3	0	distractor	1	707	647	4460	13.328	12.878	13.791
ProbeTrack11	16	ProbeTrack	11.2	SCS215a	20101027.142325	20101027.142538	8	0.013328	60	0	60-180	60	125	NoGap	1	7	2	1	0	target	0	400	-1000	3460	13.328	13.307	13.352
ProbeTrack11	16	ProbeTrack	11.2	SCS215a	20101027.142325	20101027.142544	8	0.013328	60	0	60-180	60	146	NoGap	1	8	2	1	0	distractor	1	813	594	4054	13.328	13.309	13.346
ProbeTrack11	16	ProbeTrack	11.2	SCS215a	20101027.142325	20101027.142551	8	0.013328	60	0	60-180	60	126	NoGap	1	9	2	3	1	target	1	294	853	4907	13.328	13.306	13.344
ProbeTrack11	16	ProbeTrack	11.2	SCS215a	20101027.142325	20101027.142557	8	0.013328	60	0	60-180	60	137	NoGap	1	10	2	1	1	target	1	307	847	5754	13.328	12.966	13.699
ProbeTrack11	16	ProbeTrack	11.2	SCS215a	20101027.142325	20101027.142603	8	0.013328	60	0	60-180	60	144	NoGap	1	11	2	45	0	distractor	1	267	867	6621	13.328	13.101	13.569
ProbeTrack11	16	ProbeTrack	11.2	SCS215a	20101027.142325	20101027.142610	8	0.013328	60	0	60-180	60	171	NoGap	1	12	2	0	1	target	1	294	853	7474	13.328	13.310	13.347
ProbeTrack11	16	ProbeTrack	11.2	SCS215a	20101027.142325	20101027.142616	8	0.013328	60	0	60-180	60	70	NoGap	1	13	2	45	0	distractor	1	360	820	8294	13.328	12.888	13.780
ProbeTrack11	16	ProbeTrack	11.2	SCS215a	20101027.142325	20101027.142622	8	0.013328	60	0	60-180	60	92	NoGap	1	14	2	3	1	distractor	0	294	-1000	7294	13.328	13.308	13.347
ProbeTrack11	16	ProbeTrack	11.2	SCS215a	20101027.142325	20101027.142627	8	0.013328	60	0	60-180	60	79	NoGap	1	15	2	45	1	target	1	414	793	8087	13.328	13.309	13.345
ProbeTrack11	16	ProbeTrack	11.2	SCS215a	20101027.142325	20101027.142633	8	0.013328	60	0	60-180	60	142	NoGap	1	16	2	0	1	target	1	414	793	8880	13.328	13.307	13.348
ProbeTrack11	16	ProbeTrack	11.2	SCS215a	20101027.142325	20101027.142639	8	0.013328	60	0	60-180	60	173	NoGap	1	17	2	3	0	distractor	1	240	880	9760	13.328	13.106	13.548
ProbeTrack11	16	ProbeTrack	11.2	SCS215a	20101027.142325	20101027.142646	8	0.013328	60	0	60-180	60	103	NoGap	1	18	2	45	0	distractor	1	414	793	10553	13.328	12.870	13.772
ProbeTrack11	16	ProbeTrack	11.2	SCS215a	20101027.142325	20101027.142652	8	0.013328	60	0	60-180	60	122	NoGap	1	19	2	3	0	target	0	534	-1000	9553	13.328	12.853	13.828
ProbeTrack11	16	ProbeTrack	11.2	SCS215a	20101027.142325	20101027.142658	8	0.013328	60	0	60-180	60	145	NoGap	1	20	2	45	1	target	1	374	813	10366	13.328	13.104	13.556
ProbeTrack11	16	ProbeTrack	11.2	SCS215a	20101027.142325	20101027.142705	8	0.013328	60	0	60-180	60	148	NoGap	1	21	2	45	1	target	1	374	813	11179	13.328	12.900	13.743
ProbeTrack11	16	ProbeTrack	11.2	SCS215a	20101027.142325	20101027.142712	8	0.013328	60	0	60-180	60	139	NoGap	1	22	2	0	1	target	1	334	833	12012	13.328	12.900	13.756
ProbeTrack11	16	ProbeTrack	11.2	SCS215a	20101027.142325	20101027.142718	8	0.013328	60	0	60-180	60	154	NoGap	1	23	2	0	1	target	1	347	827	12839	13.329	13.294	13.537
ProbeTrack11	16	ProbeTrack	11.2	SCS215a	20101027.142325	20101027.142724	8	0.013328	60	0	60-180	60	145	NoGap	1	24	2	45	1	target	1	347	827	13666	13.328	13.268	13.390
ProbeTrack11	16	ProbeTrack	11.2	SCS215a	20101027.142325	20101027.142731	8	0.013328	60	0	60-180	60	149	NoGap	1	25	2	1	0	distractor	1	454	773	14439	13.328	13.307	13.348
ProbeTrack11	16	ProbeTrack	11.2	SCS215a	20101027.142325	20101027.142737	8	0.013328	60	0	60-180	60	180	NoGap	1	26	2	45	0	distractor	1	427	787	15226	13.328	13.078	13.567
ProbeTrack11	16	ProbeTrack	11.2	SCS215a	20101027.142325	20101027.142745	8	0.013328	60	0	60-180	60	157	NoGap	1	27	2	1	1	target	1	414	793	16019	13.328	12.883	13.759
ProbeTrack11	16	ProbeTrack	11.2	SCS215a	20101027.142325	20101027.142751	8	0.013328	60	0	60-180	60	70	NoGap	1	28	2	0	0	distractor	1	480	760	16779	13.328	13.309	13.345
ProbeTrack11	16	ProbeTrack	11.2	SCS215a	20101027.142325	20101027.142756	8	0.013328	60	0	60-180	60	154	NoGap	1	29	2	1	1	target	1	267	867	17646	13.328	13.087	13.557
ProbeTrack11	16	ProbeTrack	11.2	SCS215a	20101027.142325	20101027.142802	8	0.013328	60	0	60-180	60	62	NoGap	1	30	2	3	0	target	0	347	-1000	16646	13.328	13.099	13.565
ProbeTrack11	16	ProbeTrack	11.2	SCS215a	20101027.142325	20101027.142807	8	0.013328	60	0	60-180	60	113	NoGap	1	31	2	3	1	target	1	400	800	17446	13.328	13.061	13.582
ProbeTrack11	16	ProbeTrack	11.2	SCS215a	20101027.142325	20101027.142813	8	0.013328	60	0	60-180	60	145	NoGap	1	32	2	0	0	distractor	1	400	800	18246	13.328	12.948	13.703
ProbeTrack11	16	ProbeTrack	11.2	SCS215a	20101027.142325	20101027.142819	8	0.013328	60	0	60-180	60	178	NoGap	1	33	2	3	1	distractor	0	440	-1000	17246	13.328	13.073	13.572
ProbeTrack11	16	ProbeTrack	11.2	SCS215a	20101027.142325	20101027.142825	8	0.013328	60	0	60-180	60	70	NoGap	1	34	2	1	0	target	0	520	-1000	16246	13.328	13.307	13.344
ProbeTrack11	16	ProbeTrack	11.2	SCS215a	20101027.142325	20101027.142830	8	0.013328	60	0	60-180	60	144	NoGap	1	35	2	45	1	target	1	613	694	16940	13.328	13.113	13.551
ProbeTrack11	16	ProbeTrack	11.2	SCS215a	20101027.142325	20101027.142837	8	0.013328	60	0	60-180	60	179	NoGap	1	36	2	0	1	distractor	0	547	-1000	15940	13.328	13.086	13.556
ProbeTrack11	16	ProbeTrack	11.2	SCS215a	20101027.142325	20101027.142844	8	0.013328	60	0	60-180	60	154	NoGap	1	37	2	0	0	target	0	334	-1000	14940	13.328	12.838	13.807
ProbeTrack11	16	ProbeTrack	11.2	SCS215a	20101027.142325	20101027.142850	8	0.013328	60	0	60-180	60	107	NoGap	1	38	2	0	0	distractor	1	693	654	15594	13.328	12.870	13.782
ProbeTrack11	16	ProbeTrack	11.2	SCS215a	20101027.142325	20101027.142856	8	0.013328	60	0	60-180	60	71	NoGap	1	39	2	3	1	target	1	467	767	16361	13.328	13.028	13.634
ProbeTrack11	16	ProbeTrack	11.2	SCS215a	20101027.142325	20101027.142901	8	0.013328	60	0	60-180	60	115	NoGap	1	40	2	1	0	distractor	1	454	773	17134	13.328	13.308	13.347
ProbeTrack11	16	ProbeTrack	11.2	SCS215a	20101027.143003	20101027.143017	8	0.013328	60	10	60-180	60	98	GapPrac	1	1	2	45	0	target	0	733	-1000	16134	13.328	12.912	13.732
ProbeTrack11	16	ProbeTrack	11.2	SCS215a	20101027.143003	20101027.143026	8	0.013328	60	10	60-180	60	135	GapPrac	1	2	2	3	0	distractor	1	494	753	16887	13.328	13.049	13.600
ProbeTrack11	16	ProbeTrack	11.2	SCS215a	20101027.143003	20101027.143044	8	0.013328	60	0	60-180	60	94	GapPrac	1	3	2	45	1	target	1	454	773	17660	13.328	12.908	13.734
ProbeTrack11	16	ProbeTrack	11.2	SCS215a	20101027.143003	20101027.143050	8	0.013328	60	10	60-180	60	163	GapPrac	1	4	2	1	0	target	0	440	-1000	16660	13.328	13.099	13.553
ProbeTrack11	16	ProbeTrack	11.2	SCS215a	20101027.143003	20101027.143057	8	0.013328	60	0	60-180	60	138	GapPrac	1	5	2	3	1	target	1	613	694	17354	13.328	12.892	13.766
ProbeTrack11	16	ProbeTrack	11.2	SCS215a	20101027.143003	20101027.143103	8	0.013328	60	10	60-180	60	141	GapPrac	1	6	2	45	1	target	1	507	747	18101	13.371	12.889	26.638
ProbeTrack11	16	ProbeTrack	11.2	SCS215a	20101027.143003	20101027.143110	8	0.013328	60	10	60-180	60	154	GapPrac	1	7	2	3	0	target	0	454	-1000	17101	13.424	12.885	26.896
ProbeTrack11	16	ProbeTrack	11.2	SCS215a	20101027.143003	20101027.143116	8	0.013328	60	0	60-180	60	81	GapPrac	1	8	2	3	0	distractor	1	600	700	17801	13.328	12.953	13.704
ProbeTrack11	16	ProbeTrack	11.2	SCS215a	20101027.143003	20101027.143122	8	0.013328	60	10	60-180	60	95	GapPrac	1	9	2	0	1	target	1	334	833	18634	13.328	12.941	13.715
ProbeTrack11	16	ProbeTrack	11.2	SCS215a	20101027.143003	20101027.143128	8	0.013328	60	10	60-180	60	122	GapPrac	1	10	2	1	1	target	1	480	760	19394	13.328	12.858	13.813
ProbeTrack11	16	ProbeTrack	11.2	SCS215a	20101027.143003	20101027.143134	8	0.013328	60	0	60-180	60	80	GapPrac	1	11	2	0	0	distractor	1	507	747	20141	13.328	12.847	13.805
ProbeTrack11	16	ProbeTrack	11.2	SCS215a	20101027.143003	20101027.143139	8	0.013328	60	10	60-180	60	128	GapPrac	1	12	2	3	1	distractor	0	480	-1000	19141	13.328	12.972	13.679
ProbeTrack11	16	ProbeTrack	11.2	SCS215a	20101027.143003	20101027.143145	8	0.013328	60	0	60-180	60	126	GapPrac	1	13	2	1	1	target	1	440	780	19921	13.384	12.876	26.657
ProbeTrack11	16	ProbeTrack	11.2	SCS215a	20101027.143003	20101027.143151	8	0.013328	60	10	60-180	60	87	GapPrac	1	14	2	0	0	distractor	1	560	720	20641	13.328	13.308	13.346
ProbeTrack11	16	ProbeTrack	11.2	SCS215a	20101027.143003	20101027.143157	8	0.013328	60	0	60-180	60	173	GapPrac	1	15	2	45	1	target	1	480	760	21401	13.328	13.310	13.356
ProbeTrack11	16	ProbeTrack	11.2	SCS215a	20101027.143003	20101027.143204	8	0.013328	60	10	60-180	60	143	GapPrac	1	16	2	1	0	target	0	534	-1000	20401	13.328	12.875	13.768
ProbeTrack11	16	ProbeTrack	11.2	SCS215a	20101027.143003	20101027.143210	8	0.013328	60	0	60-180	60	160	GapPrac	1	17	2	1	0	distractor	1	547	727	21128	13.328	12.991	13.659
ProbeTrack11	16	ProbeTrack	11.2	SCS215a	20101027.143003	20101027.143217	8	0.013328	60	10	60-180	60	164	GapPrac	1	18	2	45	0	target	0	494	-1000	20128	13.328	12.876	13.796
ProbeTrack11	16	ProbeTrack	11.2	SCS215a	20101027.143003	20101027.143224	8	0.013328	60	0	60-180	60	97	GapPrac	1	19	2	0	1	target	1	800	600	20728	13.328	13.308	13.346
ProbeTrack11	16	ProbeTrack	11.2	SCS215a	20101027.143003	20101027.143230	8	0.013328	60	0	60-180	60	117	GapPrac	1	20	2	45	0	distractor	1	414	793	21521	13.328	12.905	13.743
ProbeTrack11	16	ProbeTrack	11.2	SCS215a	20101027.143304	20101027.143314	8	0.013328	60	0	60-180	60	142	GapPrac	1	1	2	0	0	distractor	1	427	787	22308	13.328	13.150	13.495
ProbeTrack11	16	ProbeTrack	11.2	SCS215a	20101027.143304	20101027.143327	8	0.013328	60	10	60-180	60	175	GapPrac	1	2	2	1	1	target	1	587	707	23015	13.328	12.902	13.755
ProbeTrack11	16	ProbeTrack	11.2	SCS215a	20101027.143304	20101027.143334	8	0.013328	60	0	60-180	60	176	GapPrac	1	3	2	3	0	distractor	1	627	687	23702	13.328	12.897	13.783
ProbeTrack11	16	ProbeTrack	11.2	SCS215a	20101027.143304	20101027.143341	8	0.013328	60	0	60-180	60	65	GapPrac	1	4	2	1	0	distractor	1	680	660	24362	13.328	13.307	13.348
ProbeTrack11	16	ProbeTrack	11.2	SCS215a	20101027.143304	20101027.143347	8	0.013328	60	10	60-180	60	78	GapPrac	1	5	2	45	1	distractor	0	334	-1000	23362	13.328	12.845	13.806
ProbeTrack11	16	ProbeTrack	11.2	SCS215a	20101027.143304	20101027.143352	8	0.013328	60	0	60-180	60	143	GapPrac	1	6	2	45	1	target	1	454	773	24135	13.328	13.104	13.554
ProbeTrack11	16	ProbeTrack	11.2	SCS215a	20101027.143304	20101027.143359	8	0.013328	60	0	60-180	60	144	GapPrac	1	7	2	1	1	target	1	494	753	24888	13.328	13.088	13.557
ProbeTrack11	16	ProbeTrack	11.2	SCS215a	20101027.143304	20101027.143405	8	0.013328	60	10	60-180	60	131	GapPrac	1	8	2	3	0	distractor	1	200	900	25788	13.330	12.938	13.805
ProbeTrack11	16	ProbeTrack	11.2	SCS215a	20101027.143304	20101027.143411	8	0.013328	60	0	60-180	60	139	GapPrac	1	9	2	1	0	distractor	1	347	827	26615	13.328	13.307	13.344
ProbeTrack11	16	ProbeTrack	11.2	SCS215a	20101027.143304	20101027.143417	8	0.013328	60	10	60-180	60	131	GapPrac	1	10	2	0	0	distractor	1	560	720	27335	13.328	13.305	13.351
ProbeTrack11	16	ProbeTrack	11.2	SCS215a	20101027.143304	20101027.143423	8	0.013328	60	0	60-180	60	77	GapPrac	1	11	2	45	0	target	0	334	-1000	26335	13.328	13.034	13.624
ProbeTrack11	16	ProbeTrack	11.2	SCS215a	20101027.143304	20101027.143429	8	0.013328	60	10	60-180	60	122	GapPrac	1	12	2	1	1	target	1	320	840	27175	13.328	12.838	13.809
ProbeTrack11	16	ProbeTrack	11.2	SCS215a	20101027.143304	20101027.143435	8	0.013328	60	10	60-180	60	96	GapPrac	1	13	2	45	0	distractor	1	400	800	27975	13.328	12.971	13.671
ProbeTrack11	16	ProbeTrack	11.2	SCS215a	20101027.143304	20101027.143441	8	0.013328	60	10	60-180	60	149	GapPrac	1	14	2	1	0	distractor	1	560	720	28695	13.328	12.904	13.764
ProbeTrack11	16	ProbeTrack	11.2	SCS215a	20101027.143304	20101027.143447	8	0.013328	60	0	60-180	60	156	GapPrac	1	15	2	0	1	target	1	454	773	29468	13.328	12.844	13.819
ProbeTrack11	16	ProbeTrack	11.2	SCS215a	20101027.143304	20101027.143453	8	0.013328	60	0	60-180	60	126	GapPrac	1	16	2	3	0	distractor	1	440	780	30248	13.328	12.993	13.352
ProbeTrack11	16	ProbeTrack	11.2	SCS215a	20101027.143304	20101027.143459	8	0.013328	60	10	60-180	60	110	GapPrac	1	17	2	3	1	target	1	374	813	31061	13.328	12.981	13.677
ProbeTrack11	16	ProbeTrack	11.2	SCS215a	20101027.143304	20101027.143505	8	0.013328	60	0	60-180	60	84	GapPrac	1	18	2	3	1	target	1	387	807	31868	13.328	13.307	13.350
ProbeTrack11	16	ProbeTrack	11.2	SCS215a	20101027.143304	20101027.143510	8	0.013328	60	10	60-180	60	167	GapPrac	1	19	2	0	1	distractor	0	214	-1000	30868	13.328	12.864	13.785
ProbeTrack11	16	ProbeTrack	11.2	SCS215a	20101027.143304	20101027.143516	8	0.013328	60	0	60-180	60	129	GapPrac	1	20	2	0	0	target	0	547	-1000	29868	13.330	13.099	13.788
ProbeTrack11	16	ProbeTrack	11.2	SCS215a	20101027.143603	20101027.143607	8	0.013328	60	10	60-180	60	68	GapPrac	1	1	2	1	1	distractor	0	334	-1000	28868	13.328	12.934	13.716
ProbeTrack11	16	ProbeTrack	11.2	SCS215a	20101027.143603	20101027.143613	8	0.013328	60	0	60-180	60	157	GapPrac	1	2	2	1	0	distractor	1	440	780	29648	13.328	12.903	13.753
ProbeTrack11	16	ProbeTrack	11.2	SCS215a	20101027.143603	20101027.143619	8	0.013328	60	0	60-180	60	69	GapPrac	1	3	2	45	1	target	1	307	847	30495	13.328	13.103	13.558
ProbeTrack11	16	ProbeTrack	11.2	SCS215a	20101027.143603	20101027.143624	8	0.013328	60	10	60-180	60	172	GapPrac	1	4	2	1	0	distractor	1	374	813	31308	13.328	13.113	13.558
ProbeTrack11	16	ProbeTrack	11.2	SCS215a	20101027.143603	20101027.143630	8	0.013328	60	0	60-180	60	86	GapPrac	1	5	2	0	0	target	0	440	-1000	30308	13.328	12.915	13.747
ProbeTrack11	16	ProbeTrack	11.2	SCS215a	20101027.143603	20101027.143636	8	0.013328	60	0	60-180	60	63	GapPrac	1	6	2	3	0	distractor	1	414	793	31101	13.328	13.022	13.635
ProbeTrack11	16	ProbeTrack	11.2	SCS215a	20101027.143603	20101027.143641	8	0.013328	60	10	60-180	60	170	GapPrac	1	7	2	1	0	distractor	1	294	853	31954	13.328	12.916	13.752
ProbeTrack11	16	ProbeTrack	11.2	SCS215a	20101027.143603	20101027.143647	8	0.013328	60	10	60-180	60	140	GapPrac	1	8	2	45	1	target	1	454	773	32727	13.328	13.104	13.553
ProbeTrack11	16	ProbeTrack	11.2	SCS215a	20101027.143603	20101027.143654	8	0.013328	60	10	60-180	60	140	GapPrac	1	9	2	0	0	distractor	1	400	800	33527	13.328	13.034	13.622
ProbeTrack11	16	ProbeTrack	11.2	SCS215a	20101027.143603	20101027.143700	8	0.013328	60	0	60-180	60	154	GapPrac	1	10	2	3	1	target	1	374	813	34340	13.328	12.920	13.744
ProbeTrack11	16	ProbeTrack	11.2	SCS215a	20101027.143603	20101027.143706	8	0.013328	60	10	60-180	60	102	GapPrac	1	11	2	3	1	distractor	0	334	-1000	33340	13.328	13.309	13.355
ProbeTrack11	16	ProbeTrack	11.2	SCS215a	20101027.143603	20101027.143711	8	0.013328	60	0	60-180	60	120	GapPrac	1	12	2	0	1	target	1	374	813	34153	13.328	13.142	13.503
ProbeTrack11	16	ProbeTrack	11.2	SCS215a	20101027.143603	20101027.143717	8	0.013328	60	0	60-180	60	153	GapPrac	1	13	2	45	1	target	1	347	827	34980	13.328	12.893	13.775
ProbeTrack11	16	ProbeTrack	11.2	SCS215a	20101027.143603	20101027.143723	8	0.013328	60	10	60-180	60	147	GapPrac	1	14	2	1	1	target	1	320	840	35820	13.328	13.098	13.558
ProbeTrack11	16	ProbeTrack	11.2	SCS215a	20101027.143603	20101027.143729	8	0.013328	60	10	60-180	60	89	GapPrac	1	15	2	3	0	target	0	374	-1000	34820	13.328	13.100	13.546
ProbeTrack11	16	ProbeTrack	11.2	SCS215a	20101027.143603	20101027.143735	8	0.013328	60	0	60-180	60	170	GapPrac	1	16	2	45	0	distractor	1	374	813	35633	13.328	13.113	13.551
ProbeTrack11	16	ProbeTrack	11.2	SCS215a	20101027.143603	20101027.143742	8	0.013328	60	0	60-180	60	146	GapPrac	1	17	2	1	1	target	1	387	807	36440	13.328	13.044	13.608
ProbeTrack11	16	ProbeTrack	11.2	SCS215a	20101027.143603	20101027.143748	8	0.013328	60	10	60-180	60	70	GapPrac	1	18	2	0	1	target	1	427	787	37227	13.328	12.870	13.784
ProbeTrack11	16	ProbeTrack	11.2	SCS215a	20101027.143603	20101027.143753	8	0.013328	60	0	60-180	60	145	GapPrac	1	19	2	1	0	distractor	1	454	773	38000	13.328	12.912	13.730
ProbeTrack11	16	ProbeTrack	11.2	SCS215a	20101027.143603	20101027.143759	8	0.013328	60	10	60-180	60	81	GapPrac	1	20	2	45	0	distractor	1	400	800	38800	13.328	12.877	13.778
ProbeTrack11	16	ProbeTrack	11.2	SCS215a	20101027.143827	20101027.143923	8	0.013328	60	10	60-180	60	176	GapExp	1	1	2	45	0	distractor	1	427	787	39587	13.328	12.922	13.737
ProbeTrack11	16	ProbeTrack	11.2	SCS215a	20101027.143827	20101027.143943	8	0.013328	60	10	60-180	60	108	GapExp	1	2	2	0	1	target	1	374	813	40400	13.328	13.099	13.562
ProbeTrack11	16	ProbeTrack	11.2	SCS215a	20101027.143827	20101027.143949	8	0.013328	60	10	60-180	60	131	GapExp	0	3	2	3	1	distractor	0	320	-1000	39400	13.328	12.853	13.796
ProbeTrack11	16	ProbeTrack	11.2	SCS215a	20101027.143827	20101027.143955	8	0.013328	60	0	60-180	60	137	GapExp	0	4	2	0	1	target	1	374	813	40213	13.328	12.924	13.733
ProbeTrack11	16	ProbeTrack	11.2	SCS215a	20101027.143827	20101027.144001	8	0.013328	60	0	60-180	60	92	GapExp	0	5	2	3	0	distractor	1	454	773	40986	13.328	13.290	13.347
ProbeTrack11	16	ProbeTrack	11.2	SCS215a	20101027.143827	20101027.144006	8	0.013328	60	10	60-180	60	164	GapExp	0	6	2	1	1	target	1	374	813	41799	13.328	12.940	13.690
ProbeTrack11	16	ProbeTrack	11.2	SCS215a	20101027.143827	20101027.144012	8	0.013328	60	10	60-180	60	87	GapExp	0	7	2	0	1	target	1	400	800	42599	13.328	13.308	13.345
ProbeTrack11	16	ProbeTrack	11.2	SCS215a	20101027.143827	20101027.144018	8	0.013328	60	0	60-180	60	176	GapExp	0	8	2	3	0	distractor	1	480	760	43359	13.328	12.913	13.745
ProbeTrack11	16	ProbeTrack	11.2	SCS215a	20101027.143827	20101027.144024	8	0.013328	60	0	60-180	60	109	GapExp	0	9	2	3	0	distractor	1	440	780	44139	13.328	13.112	13.552
ProbeTrack11	16	ProbeTrack	11.2	SCS215a	20101027.143827	20101027.144030	8	0.013328	60	10	60-180	60	131	GapExp	0	10	2	0	1	target	1	400	800	44939	13.328	13.107	13.553
ProbeTrack11	16	ProbeTrack	11.2	SCS215a	20101027.143827	20101027.144036	8	0.013328	60	0	60-180	60	76	GapExp	0	11	2	1	0	distractor	1	414	793	45732	13.328	13.309	13.344
ProbeTrack11	16	ProbeTrack	11.2	SCS215a	20101027.143827	20101027.144041	8	0.013328	60	10	60-180	60	137	GapExp	0	12	2	1	0	distractor	1	280	860	46592	13.328	13.306	13.349
ProbeTrack11	16	ProbeTrack	11.2	SCS215a	20101027.143827	20101027.144046	8	0.013328	60	0	60-180	60	138	GapExp	0	13	2	0	1	distractor	0	387	-1000	45592	13.328	12.886	13.769
ProbeTrack11	16	ProbeTrack	11.2	SCS215a	20101027.143827	20101027.144053	8	0.013328	60	0	60-180	60	73	GapExp	0	14	2	1	1	target	1	294	853	46445	13.328	13.105	13.546
ProbeTrack11	16	ProbeTrack	11.2	SCS215a	20101027.143827	20101027.144058	8	0.013328	60	10	60-180	60	62	GapExp	0	15	2	3	1	distractor	0	347	-1000	45445	13.328	12.887	13.775
ProbeTrack11	16	ProbeTrack	11.2	SCS215a	20101027.143827	20101027.144103	8	0.013328	60	0	60-180	60	66	GapExp	0	16	2	1	1	target	1	387	807	46252	13.328	13.307	13.346
ProbeTrack11	16	ProbeTrack	11.2	SCS215a	20101027.143827	20101027.144108	8	0.013328	60	10	60-180	60	120	GapExp	0	17	2	45	0	distractor	1	254	873	47125	13.328	13.100	13.555
ProbeTrack11	16	ProbeTrack	11.2	SCS215a	20101027.143827	20101027.144114	8	0.013328	60	0	60-180	60	101	GapExp	0	18	2	45	0	distractor	1	440	780	47905	13.328	13.111	13.559
ProbeTrack11	16	ProbeTrack	11.2	SCS215a	20101027.143827	20101027.144120	8	0.013328	60	0	60-180	60	72	GapExp	0	19	2	1	0	target	0	560	-1000	46905	13.328	13.099	13.571
ProbeTrack11	16	ProbeTrack	11.2	SCS215a	20101027.143827	20101027.144126	8	0.013328	60	10	60-180	60	61	GapExp	0	20	2	45	0	distractor	1	520	740	47645	13.328	13.301	13.356
ProbeTrack11	16	ProbeTrack	11.2	SCS215a	20101027.143827	20101027.144131	8	0.013328	60	0	60-180	60	102	GapExp	0	21	2	3	1	target	1	360	820	48465	13.328	12.903	13.741
ProbeTrack11	16	ProbeTrack	11.2	SCS215a	20101027.143827	20101027.144137	8	0.013328	60	0	60-180	60	122	GapExp	0	22	2	0	0	target	0	533	-1000	47465	13.328	13.309	13.346
ProbeTrack11	16	ProbeTrack	11.2	SCS215a	20101027.143827	20101027.144142	8	0.013328	60	10	60-180	60	172	GapExp	0	23	2	1	0	distractor	1	414	793	48258	13.328	12.886	13.765
ProbeTrack11	16	ProbeTrack	11.2	SCS215a	20101027.143827	20101027.144149	8	0.013328	60	10	60-180	60	148	GapExp	0	24	2	0	1	distractor	0	200	-1000	47258	13.328	13.099	13.571
ProbeTrack11	16	ProbeTrack	11.2	SCS215a	20101027.143827	20101027.144155	8	0.013328	60	10	60-180	60	97	GapExp	0	25	2	0	0	target	0	334	-1000	46258	13.328	12.896	13.748
ProbeTrack11	16	ProbeTrack	11.2	SCS215a	20101027.143827	20101027.144200	8	0.013328	60	10	60-180	60	172	GapExp	0	26	2	0	0	distractor	1	440	780	47038	13.328	12.871	13.772
ProbeTrack11	16	ProbeTrack	11.2	SCS215a	20101027.143827	20101027.144207	8	0.013328	60	10	60-180	60	173	GapExp	0	27	2	3	0	distractor	1	720	640	47678	13.328	12.857	13.793
ProbeTrack11	16	ProbeTrack	11.2	SCS215a	20101027.143827	20101027.144213	8	0.013328	60	10	60-180	60	64	GapExp	0	28	2	45	0	target	0	467	-1000	46678	13.328	13.030	13.618
ProbeTrack11	16	ProbeTrack	11.2	SCS215a	20101027.143827	20101027.144219	8	0.013328	60	0	60-180	60	142	GapExp	0	29	2	0	0	distractor	1	440	780	47458	13.328	12.873	13.764
ProbeTrack11	16	ProbeTrack	11.2	SCS215a	20101027.143827	20101027.144225	8	0.013328	60	10	60-180	60	94	GapExp	0	30	2	0	0	distractor	1	747	627	48085	13.328	12.969	13.695
ProbeTrack11	16	ProbeTrack	11.2	SCS215a	20101027.143827	20101027.144231	8	0.013328	60	10	60-180	60	90	GapExp	0	31	2	1	1	target	1	507	747	48832	13.328	13.092	13.558
ProbeTrack11	16	ProbeTrack	11.2	SCS215a	20101027.143827	20101027.144236	8	0.013328	60	0	60-180	60	72	GapExp	0	32	2	1	0	distractor	1	414	793	49625	13.328	12.855	13.795
ProbeTrack11	16	ProbeTrack	11.2	SCS215a	20101027.143827	20101027.144241	8	0.013328	60	0	60-180	60	112	GapExp	0	33	2	3	0	distractor	1	414	793	50418	13.328	13.071	13.588
ProbeTrack11	16	ProbeTrack	11.2	SCS215a	20101027.143827	20101027.144247	8	0.013328	60	10	60-180	60	94	GapExp	0	34	2	0	0	distractor	1	427	787	51205	13.328	12.899	13.764
ProbeTrack11	16	ProbeTrack	11.2	SCS215a	20101027.143827	20101027.144252	8	0.013328	60	10	60-180	60	77	GapExp	0	35	2	1	0	distractor	1	680	660	51865	13.328	13.093	13.548
ProbeTrack11	16	ProbeTrack	11.2	SCS215a	20101027.143827	20101027.144258	8	0.013328	60	0	60-180	60	102	GapExp	0	36	2	1	1	target	1	347	827	52692	13.328	13.301	13.358
ProbeTrack11	16	ProbeTrack	11.2	SCS215a	20101027.143827	20101027.144306	8	0.013328	60	0	60-180	60	157	GapExp	0	37	2	1	1	target	1	414	793	53485	13.328	13.078	13.584
ProbeTrack11	16	ProbeTrack	11.2	SCS215a	20101027.143827	20101027.144312	8	0.013328	60	10	60-180	60	173	GapExp	0	38	2	1	0	distractor	1	240	880	54365	13.328	13.097	13.553
ProbeTrack11	16	ProbeTrack	11.2	SCS215a	20101027.143827	20101027.144318	8	0.013328	60	0	60-180	60	128	GapExp	0	39	2	3	1	target	1	400	800	55165	13.328	13.310	13.347
ProbeTrack11	16	ProbeTrack	11.2	SCS215a	20101027.143827	20101027.144324	8	0.013328	60	0	60-180	60	155	GapExp	0	40	2	1	0	distractor	1	400	800	55965	13.328	12.913	13.761
ProbeTrack11	16	ProbeTrack	11.2	SCS215a	20101027.143827	20101027.144330	8	0.013328	60	0	60-180	60	66	GapExp	0	41	2	1	1	distractor	0	360	-1000	54965	13.328	13.136	13.503
ProbeTrack11	16	ProbeTrack	11.2	SCS215a	20101027.143827	20101027.144335	8	0.013328	60	0	60-180	60	175	GapExp	0	42	2	45	0	distractor	1	374	813	55778	13.328	12.829	13.814
ProbeTrack11	16	ProbeTrack	11.2	SCS215a	20101027.143827	20101027.144342	8	0.013328	60	0	60-180	60	136	GapExp	0	43	2	45	1	target	1	534	733	56511	13.328	13.042	13.613
ProbeTrack11	16	ProbeTrack	11.2	SCS215a	20101027.143827	20101027.144348	8	0.013328	60	0	60-180	60	71	GapExp	0	44	2	1	1	target	1	360	820	57331	13.328	13.097	13.552
ProbeTrack11	16	ProbeTrack	11.2	SCS215a	20101027.143827	20101027.144353	8	0.013328	60	10	60-180	60	104	GapExp	0	45	2	1	0	distractor	1	374	813	58144	13.328	12.956	13.710
ProbeTrack11	16	ProbeTrack	11.2	SCS215a	20101027.143827	20101027.144359	8	0.013328	60	10	60-180	60	177	GapExp	0	46	2	0	1	distractor	0	334	-1000	57144	13.328	13.230	13.427
ProbeTrack11	16	ProbeTrack	11.2	SCS215a	20101027.143827	20101027.144405	8	0.013328	60	0	60-180	60	96	GapExp	0	47	2	3	1	target	1	307	847	57991	13.328	12.786	13.876
ProbeTrack11	16	ProbeTrack	11.2	SCS215a	20101027.143827	20101027.144411	8	0.013328	60	0	60-180	60	129	GapExp	0	48	2	3	1	target	1	334	833	58824	13.328	13.145	13.504
ProbeTrack11	16	ProbeTrack	11.2	SCS215a	20101027.143827	20101027.144416	8	0.013328	60	0	60-180	60	88	GapExp	0	49	2	0	1	target	1	280	860	59684	13.328	12.868	13.803
ProbeTrack11	16	ProbeTrack	11.2	SCS215a	20101027.143827	20101027.144421	8	0.013328	60	0	60-180	60	63	GapExp	0	50	2	0	1	target	1	307	847	60531	13.328	13.309	13.344
ProbeTrack11	16	ProbeTrack	11.2	SCS215a	20101027.143827	20101027.144426	8	0.013328	60	0	60-180	60	180	GapExp	0	51	2	0	1	target	1	280	860	61391	13.328	12.922	13.727
ProbeTrack11	16	ProbeTrack	11.2	SCS215a	20101027.143827	20101027.144432	8	0.013328	60	10	60-180	60	125	GapExp	0	52	2	3	1	target	1	267	867	62258	13.328	12.931	13.730
ProbeTrack11	16	ProbeTrack	11.2	SCS215a	20101027.143827	20101027.144438	8	0.013328	60	10	60-180	60	86	GapExp	0	53	2	45	0	distractor	1	280	860	63118	13.328	12.875	13.786
ProbeTrack11	16	ProbeTrack	11.2	SCS215a	20101027.143827	20101027.144444	8	0.013328	60	0	60-180	60	132	GapExp	0	54	2	0	0	distractor	1	560	720	63838	13.328	13.102	13.543
ProbeTrack11	16	ProbeTrack	11.2	SCS215a	20101027.143827	20101027.144450	8	0.013328	60	0	60-180	60	69	GapExp	0	55	2	1	1	target	1	484	758	64596	13.328	12.966	13.701
ProbeTrack11	16	ProbeTrack	11.2	SCS215a	20101027.143827	20101027.144455	8	0.013328	60	0	60-180	60	76	GapExp	0	56	2	45	0	distractor	1	347	827	65423	13.328	13.302	13.351
ProbeTrack11	16	ProbeTrack	11.2	SCS215a	20101027.143827	20101027.144501	8	0.013328	60	10	60-180	60	96	GapExp	0	57	2	1	1	target	1	467	767	66190	13.328	13.039	13.624
ProbeTrack11	16	ProbeTrack	11.2	SCS215a	20101027.143827	20101027.144506	8	0.013328	60	0	60-180	60	133	GapExp	0	58	2	45	1	target	1	307	847	67037	13.328	12.896	13.748
ProbeTrack11	16	ProbeTrack	11.2	SCS215a	20101027.143827	20101027.144512	8	0.013328	60	0	60-180	60	175	GapExp	0	59	2	0	1	target	1	387	807	67844	13.328	12.844	13.810
ProbeTrack11	16	ProbeTrack	11.2	SCS215a	20101027.143827	20101027.144519	8	0.013328	60	0	60-180	60	160	GapExp	0	60	2	3	0	distractor	1	427	787	68631	13.328	13.105	13.560
ProbeTrack11	16	ProbeTrack	11.2	SCS215a	20101027.143827	20101027.144525	8	0.013328	60	0	60-180	60	136	GapExp	0	61	2	1	1	target	1	294	853	69484	13.328	13.032	13.609
ProbeTrack11	16	ProbeTrack	11.2	SCS215a	20101027.143827	20101027.144531	8	0.013328	60	10	60-180	60	177	GapExp	0	62	2	0	1	target	1	494	753	70237	13.328	13.270	13.385
ProbeTrack11	16	ProbeTrack	11.2	SCS215a	20101027.143827	20101027.144537	8	0.013328	60	10	60-180	60	113	GapExp	0	63	2	0	1	target	1	547	727	70964	13.328	12.885	13.778
ProbeTrack11	16	ProbeTrack	11.2	SCS215a	20101027.143827	20101027.144543	8	0.013328	60	10	60-180	60	165	GapExp	0	64	2	1	0	distractor	1	280	860	71824	13.328	12.919	13.725
ProbeTrack11	16	ProbeTrack	11.2	SCS215a	20101027.143827	20101027.144549	8	0.013328	60	10	60-180	60	98	GapExp	0	65	2	0	0	target	0	387	-1000	70824	13.328	13.121	13.560
ProbeTrack11	16	ProbeTrack	11.2	SCS215a	20101027.143827	20101027.144555	8	0.013328	60	10	60-180	60	154	GapExp	0	66	2	0	0	distractor	1	640	680	71504	13.328	12.877	13.775
ProbeTrack11	16	ProbeTrack	11.2	SCS215a	20101027.143827	20101027.144601	8	0.013328	60	10	60-180	60	106	GapExp	0	67	2	45	1	distractor	0	374	-1000	70504	13.328	13.086	13.566
ProbeTrack11	16	ProbeTrack	11.2	SCS215a	20101027.143827	20101027.144607	8	0.013328	60	0	60-180	60	125	GapExp	0	68	2	1	0	distractor	1	400	800	71304	13.328	12.843	13.804
ProbeTrack11	16	ProbeTrack	11.2	SCS215a	20101027.143827	20101027.144613	8	0.013328	60	0	60-180	60	117	GapExp	0	69	2	3	0	distractor	1	454	773	72077	13.443	12.906	26.806
ProbeTrack11	16	ProbeTrack	11.2	SCS215a	20101027.143827	20101027.144619	8	0.013328	60	0	60-180	60	101	GapExp	0	70	2	1	0	target	0	507	-1000	71077	13.328	13.308	13.349
ProbeTrack11	16	ProbeTrack	11.2	SCS215a	20101027.143827	20101027.144624	8	0.013328	60	10	60-180	60	119	GapExp	0	71	2	1	1	target	1	427	787	71864	13.328	13.177	13.468
ProbeTrack11	16	ProbeTrack	11.2	SCS215a	20101027.143827	20101027.144630	8	0.013328	60	10	60-180	60	86	GapExp	0	72	2	3	1	target	1	440	780	72644	13.328	13.039	13.617
ProbeTrack11	16	ProbeTrack	11.2	SCS215a	20101027.143827	20101027.144636	8	0.013328	60	10	60-180	60	76	GapExp	0	73	2	45	0	distractor	1	440	780	73424	13.328	13.001	13.643
ProbeTrack11	16	ProbeTrack	11.2	SCS215a	20101027.143827	20101027.144641	8	0.013328	60	10	60-180	60	114	GapExp	0	74	2	0	0	distractor	1	480	760	74184	13.328	13.016	13.630
ProbeTrack11	16	ProbeTrack	11.2	SCS215a	20101027.143827	20101027.144647	8	0.013328	60	0	60-180	60	155	GapExp	0	75	2	45	0	distractor	1	387	807	74991	13.328	12.987	13.673
ProbeTrack11	16	ProbeTrack	11.2	SCS215a	20101027.143827	20101027.144654	8	0.013328	60	10	60-180	60	169	GapExp	0	76	2	0	0	distractor	1	374	813	75804	13.328	12.894	13.781
ProbeTrack11	16	ProbeTrack	11.2	SCS215a	20101027.143827	20101027.144700	8	0.013328	60	0	60-180	60	130	GapExp	0	77	2	3	1	target	1	520	740	76544	13.328	13.308	13.346
ProbeTrack11	16	ProbeTrack	11.2	SCS215a	20101027.143827	20101027.144706	8	0.013328	60	10	60-180	60	105	GapExp	0	78	2	1	0	distractor	1	360	820	77364	13.328	13.308	13.347
ProbeTrack11	16	ProbeTrack	11.2	SCS215a	20101027.143827	20101027.144712	8	0.013328	60	10	60-180	60	172	GapExp	0	79	2	3	0	distractor	1	440	780	78144	13.328	13.031	13.626
ProbeTrack11	16	ProbeTrack	11.2	SCS215a	20101027.143827	20101027.144718	8	0.013328	60	0	60-180	60	79	GapExp	0	80	2	0	1	target	1	334	833	78977	13.328	13.308	13.345
ProbeTrack11	16	ProbeTrack	11.2	SCS215a	20101027.143827	20101027.144723	8	0.013328	60	0	60-180	60	64	GapExp	0	81	2	1	0	distractor	1	387	807	79784	13.562	12.858	53.620
ProbeTrack11	16	ProbeTrack	11.2	SCS215a	20101027.143827	20101027.144728	8	0.013328	60	10	60-180	60	137	GapExp	0	82	2	1	1	distractor	0	294	-1000	78784	13.328	12.883	13.775
ProbeTrack11	16	ProbeTrack	11.2	SCS215a	20101027.143827	20101027.144734	8	0.013328	60	10	60-180	60	77	GapExp	0	83	2	3	0	distractor	1	427	787	79571	13.328	13.123	13.529
ProbeTrack11	16	ProbeTrack	11.2	SCS215a	20101027.143827	20101027.144739	8	0.013328	60	10	60-180	60	114	GapExp	0	84	2	45	1	target	1	467	767	80338	13.328	12.904	13.749
ProbeTrack11	16	ProbeTrack	11.2	SCS215a	20101027.143827	20101027.144746	8	0.013328	60	0	60-180	60	62	GapExp	0	85	2	1	1	target	1	454	773	81111	13.328	12.920	13.741
ProbeTrack11	16	ProbeTrack	11.2	SCS215a	20101027.143827	20101027.144750	8	0.013328	60	0	60-180	60	152	GapExp	0	86	2	3	1	target	1	334	833	81944	13.328	12.856	13.803
ProbeTrack11	16	ProbeTrack	11.2	SCS215a	20101027.143827	20101027.144757	8	0.013328	60	10	60-180	60	88	GapExp	0	87	2	0	1	target	1	294	853	82797	13.328	13.030	13.622
ProbeTrack11	16	ProbeTrack	11.2	SCS215a	20101027.143827	20101027.144802	8	0.013328	60	0	60-180	60	138	GapExp	0	88	2	3	0	distractor	1	334	833	83630	13.328	12.852	13.806
ProbeTrack11	16	ProbeTrack	11.2	SCS215a	20101027.143827	20101027.144808	8	0.013328	60	0	60-180	60	177	GapExp	0	89	2	0	0	target	0	414	-1000	82630	13.328	12.838	13.827
ProbeTrack11	16	ProbeTrack	11.2	SCS215a	20101027.143827	20101027.144814	8	0.013328	60	10	60-180	60	104	GapExp	0	90	2	3	1	target	1	320	840	83470	13.328	12.842	13.814
ProbeTrack11	16	ProbeTrack	11.2	SCS215a	20101027.143827	20101027.144819	8	0.013328	60	0	60-180	60	87	GapExp	0	91	2	0	0	distractor	1	427	787	84257	13.328	12.920	13.723
ProbeTrack11	16	ProbeTrack	11.2	SCS215a	20101027.143827	20101027.144824	8	0.013328	60	0	60-180	60	165	GapExp	0	92	2	0	1	target	1	320	840	85097	13.328	13.251	13.410
ProbeTrack11	16	ProbeTrack	11.2	SCS215a	20101027.143827	20101027.144831	8	0.013328	60	10	60-180	60	97	GapExp	0	93	2	3	0	distractor	1	347	827	85924	13.328	13.006	13.644
ProbeTrack11	16	ProbeTrack	11.2	SCS215a	20101027.143827	20101027.144836	8	0.013328	60	10	60-180	60	133	GapExp	0	94	2	3	0	distractor	1	374	813	86737	13.328	12.810	13.843
ProbeTrack11	16	ProbeTrack	11.2	SCS215a	20101027.143827	20101027.144842	8	0.013328	60	0	60-180	60	63	GapExp	0	95	2	45	1	distractor	0	361	-1000	85737	13.328	12.932	13.741
ProbeTrack11	16	ProbeTrack	11.2	SCS215a	20101027.143827	20101027.144847	8	0.013328	60	0	60-180	60	101	GapExp	0	96	2	1	1	target	1	294	853	86590	13.328	12.880	13.761
ProbeTrack11	16	ProbeTrack	11.2	SCS215a	20101027.143827	20101027.144853	8	0.013328	60	0	60-180	60	71	GapExp	0	97	2	1	0	distractor	1	440	780	87370	13.328	12.972	13.689
ProbeTrack11	16	ProbeTrack	11.2	SCS215a	20101027.143827	20101027.144858	8	0.013328	60	0	60-180	60	115	GapExp	0	98	2	45	1	target	1	454	773	88143	13.328	13.119	13.550
ProbeTrack11	16	ProbeTrack	11.2	SCS215a	20101027.143827	20101027.144904	8	0.013328	60	0	60-180	60	129	GapExp	0	99	2	1	1	target	1	400	800	88943	13.328	12.996	13.658
ProbeTrack11	16	ProbeTrack	11.2	SCS215a	20101027.143827	20101027.144910	8	0.013328	60	0	60-180	60	136	GapExp	0	100	2	0	1	target	1	294	853	89796	13.328	12.986	13.672
ProbeTrack11	16	ProbeTrack	11.2	SCS215a	20101027.143827	20101027.144915	8	0.013328	60	0	60-180	60	120	GapExp	0	101	2	45	0	distractor	1	387	807	90603	13.328	13.105	13.544
ProbeTrack11	16	ProbeTrack	11.2	SCS215a	20101027.143827	20101027.144922	8	0.013328	60	10	60-180	60	170	GapExp	0	102	2	45	0	distractor	1	360	820	91423	13.328	13.097	13.566
ProbeTrack11	16	ProbeTrack	11.2	SCS215a	20101027.143827	20101027.144929	8	0.013328	60	10	60-180	60	122	GapExp	0	103	2	45	0	distractor	1	400	800	92223	13.328	12.869	13.779
ProbeTrack11	16	ProbeTrack	11.2	SCS215a	20101027.143827	20101027.144935	8	0.013328	60	10	60-180	60	63	GapExp	0	104	2	3	1	target	1	387	807	93030	13.328	13.110	13.539
ProbeTrack11	16	ProbeTrack	11.2	SCS215a	20101027.143827	20101027.144940	8	0.013328	60	10	60-180	60	81	GapExp	0	105	2	0	1	target	1	454	773	93803	13.328	13.098	13.559
ProbeTrack11	16	ProbeTrack	11.2	SCS215a	20101027.143827	20101027.144946	8	0.013328	60	0	60-180	60	160	GapExp	0	106	2	0	1	distractor	0	334	-1000	92803	13.328	13.097	13.545
ProbeTrack11	16	ProbeTrack	11.2	SCS215a	20101027.143827	20101027.144952	8	0.013328	60	0	60-180	60	117	GapExp	0	107	2	1	0	target	0	334	-1000	91803	13.328	13.110	13.552
ProbeTrack11	16	ProbeTrack	11.2	SCS215a	20101027.143827	20101027.144957	8	0.013328	60	10	60-180	60	65	GapExp	0	108	2	1	1	target	1	467	767	92570	13.328	13.299	13.347
ProbeTrack11	16	ProbeTrack	11.2	SCS215a	20101027.143827	20101027.145002	8	0.013328	60	0	60-180	60	115	GapExp	0	109	2	45	1	target	1	427	787	93357	13.328	12.847	13.806
ProbeTrack11	16	ProbeTrack	11.2	SCS215a	20101027.143827	20101027.145008	8	0.013328	60	0	60-180	60	180	GapExp	0	110	2	45	0	distractor	1	400	800	94157	13.328	13.295	13.361
ProbeTrack11	16	ProbeTrack	11.2	SCS215a	20101027.143827	20101027.145015	8	0.013328	60	0	60-180	60	151	GapExp	0	111	2	1	1	target	1	307	847	95004	13.328	13.310	13.351
ProbeTrack11	16	ProbeTrack	11.2	SCS215a	20101027.143827	20101027.145022	8	0.013328	60	0	60-180	60	120	GapExp	0	112	2	1	0	distractor	1	414	793	95797	13.328	13.302	13.345
ProbeTrack11	16	ProbeTrack	11.2	SCS215a	20101027.143827	20101027.145027	8	0.013328	60	0	60-180	60	68	GapExp	0	113	2	0	1	distractor	0	507	-1000	94797	13.328	12.888	13.765
ProbeTrack11	16	ProbeTrack	11.2	SCS215a	20101027.143827	20101027.145032	8	0.013328	60	10	60-180	60	107	GapExp	0	114	2	3	0	target	0	494	-1000	93797	13.328	12.920	13.723
ProbeTrack11	16	ProbeTrack	11.2	SCS215a	20101027.143827	20101027.145040	8	0.013328	60	0	60-180	60	120	GapExp	0	115	2	0	0	distractor	1	480	760	94557	13.328	13.076	13.566
ProbeTrack11	16	ProbeTrack	11.2	SCS215a	20101027.143827	20101027.145046	8	0.013328	60	0	60-180	60	160	GapExp	0	116	2	3	1	target	1	414	793	95350	13.328	12.880	13.771
ProbeTrack11	16	ProbeTrack	11.2	SCS215a	20101027.143827	20101027.145052	8	0.013328	60	0	60-180	60	70	GapExp	0	117	2	45	1	target	1	334	833	96183	13.328	13.313	13.346
ProbeTrack11	16	ProbeTrack	11.2	SCS215a	20101027.143827	20101027.145058	8	0.013328	60	0	60-180	60	144	GapExp	0	118	2	3	1	target	1	320	840	97023	13.328	12.968	13.695
ProbeTrack11	16	ProbeTrack	11.2	SCS215a	20101027.143827	20101027.145104	8	0.013328	60	10	60-180	60	107	GapExp	0	119	2	1	1	target	1	347	827	97850	13.327	13.149	13.350
ProbeTrack11	16	ProbeTrack	11.2	SCS215a	20101027.143827	20101027.145109	8	0.013328	60	0	60-180	60	159	GapExp	0	120	2	1	0	distractor	1	560	720	98570	13.328	12.836	13.817
ProbeTrack11	16	ProbeTrack	11.2	SCS215a	20101027.143827	20101027.145115	8	0.013328	60	10	60-180	60	130	GapExp	0	121	2	45	0	distractor	1	427	787	99357	13.328	13.099	13.558
ProbeTrack11	16	ProbeTrack	11.2	SCS215a	20101027.143827	20101027.145122	8	0.013328	60	10	60-180	60	99	GapExp	0	122	2	3	0	distractor	1	494	753	100110	13.328	12.954	13.717
ProbeTrack11	16	ProbeTrack	11.2	SCS215a	20101027.143827	20101027.145128	8	0.013328	60	10	60-180	60	80	GapExp	0	123	2	0	0	distractor	1	480	760	100870	13.328	13.033	13.635
ProbeTrack11	16	ProbeTrack	11.2	SCS215a	20101027.143827	20101027.145133	8	0.013328	60	10	60-180	60	141	GapExp	0	124	2	1	0	distractor	1	427	787	101657	13.328	12.896	13.760
ProbeTrack11	16	ProbeTrack	11.2	SCS215a	20101027.143827	20101027.145140	8	0.013328	60	10	60-180	60	119	GapExp	0	125	2	0	0	distractor	1	454	773	102430	13.328	13.122	13.538
ProbeTrack11	16	ProbeTrack	11.2	SCS215a	20101027.143827	20101027.145145	8	0.013328	60	0	60-180	60	76	GapExp	0	126	2	1	1	target	1	427	787	103217	13.472	13.048	26.661
ProbeTrack11	16	ProbeTrack	11.2	SCS215a	20101027.143827	20101027.145150	8	0.013328	60	10	60-180	60	153	GapExp	0	127	2	1	1	target	1	374	813	104030	13.377	13.111	26.583
ProbeTrack11	16	ProbeTrack	11.2	SCS215a	20101027.143827	20101027.145157	8	0.013328	60	10	60-180	60	98	GapExp	0	128	2	45	1	distractor	0	440	-1000	103030	13.328	12.918	13.742
ProbeTrack11	16	ProbeTrack	11.2	SCS215a	20101027.143827	20101027.145203	8	0.013328	60	0	60-180	60	144	GapExp	0	129	2	1	0	distractor	1	480	760	103790	13.328	12.872	13.783
ProbeTrack11	16	ProbeTrack	11.2	SCS215a	20101027.143827	20101027.145209	8	0.013328	60	10	60-180	60	137	GapExp	0	130	2	1	1	target	1	280	860	104650	13.328	12.995	13.675
ProbeTrack11	16	ProbeTrack	11.2	SCS215a	20101027.143827	20101027.145215	8	0.013328	60	0	60-180	60	99	GapExp	0	131	2	45	0	distractor	1	440	780	105430	13.328	13.309	13.348
ProbeTrack11	16	ProbeTrack	11.2	SCS215a	20101027.143827	20101027.145221	8	0.013328	60	10	60-180	60	174	GapExp	0	132	2	3	1	target	1	320	840	106270	13.328	13.307	13.354
ProbeTrack11	16	ProbeTrack	11.2	SCS215a	20101027.143827	20101027.145227	8	0.013328	60	0	60-180	60	132	GapExp	0	133	2	1	1	target	1	334	833	107103	13.328	12.862	13.789
ProbeTrack11	16	ProbeTrack	11.2	SCS215a	20101027.143827	20101027.145233	8	0.013328	60	0	60-180	60	61	GapExp	0	134	2	0	1	distractor	0	440	-1000	106103	13.328	12.889	13.755
ProbeTrack11	16	ProbeTrack	11.2	SCS215a	20101027.143827	20101027.145237	8	0.013328	60	0	60-180	60	95	GapExp	0	135	2	1	1	target	1	280	860	106963	13.328	13.306	13.348
ProbeTrack11	16	ProbeTrack	11.2	SCS215a	20101027.143827	20101027.145243	8	0.013328	60	0	60-180	60	79	GapExp	0	136	2	45	1	target	1	294	853	107816	13.328	13.308	13.356
ProbeTrack11	16	ProbeTrack	11.2	SCS215a	20101027.143827	20101027.145248	8	0.013328	60	10	60-180	60	132	GapExp	0	137	2	1	1	target	1	414	793	108609	13.328	13.002	13.641
ProbeTrack11	16	ProbeTrack	11.2	SCS215a	20101027.143827	20101027.145254	8	0.013328	60	10	60-180	60	118	GapExp	0	138	2	45	0	distractor	1	374	813	109422	13.328	13.100	13.559
ProbeTrack11	16	ProbeTrack	11.2	SCS215a	20101027.143827	20101027.145301	8	0.013328	60	10	60-180	60	104	GapExp	0	139	2	45	1	target	1	374	813	110235	13.328	13.097	13.571
ProbeTrack11	16	ProbeTrack	11.2	SCS215a	20101027.143827	20101027.145307	8	0.013328	60	0	60-180	60	154	GapExp	0	140	2	0	0	distractor	1	454	773	111008	13.328	12.958	13.714
ProbeTrack11	16	ProbeTrack	11.2	SCS215a	20101027.143827	20101027.145313	8	0.013328	60	0	60-180	60	65	GapExp	0	141	2	45	0	target	0	347	-1000	110008	13.328	13.308	13.348
ProbeTrack11	16	ProbeTrack	11.2	SCS215a	20101027.143827	20101027.145318	8	0.013328	60	10	60-180	60	165	GapExp	0	142	2	45	0	distractor	1	347	827	110835	13.328	13.300	13.361
ProbeTrack11	16	ProbeTrack	11.2	SCS215a	20101027.143827	20101027.145326	8	0.013328	60	10	60-180	60	112	GapExp	0	143	2	3	0	target	0	387	-1000	109835	13.328	13.028	13.629
ProbeTrack11	16	ProbeTrack	11.2	SCS215a	20101027.143827	20101027.145331	8	0.013328	60	0	60-180	60	99	GapExp	0	144	2	1	0	distractor	1	480	760	110595	13.328	12.871	13.783
ProbeTrack11	16	ProbeTrack	11.2	SCS215a	20101027.143827	20101027.145337	8	0.013328	60	10	60-180	60	64	GapExp	0	145	2	45	1	target	1	374	813	111408	13.328	12.908	13.774
ProbeTrack11	16	ProbeTrack	11.2	SCS215a	20101027.143827	20101027.145342	8	0.013328	60	10	60-180	60	149	GapExp	0	146	2	3	0	distractor	1	307	847	112255	13.328	13.105	13.542
ProbeTrack11	16	ProbeTrack	11.2	SCS215a	20101027.143827	20101027.145348	8	0.013328	60	0	60-180	60	160	GapExp	0	147	2	45	1	target	1	400	800	113055	13.328	12.894	13.761
ProbeTrack11	16	ProbeTrack	11.2	SCS215a	20101027.143827	20101027.145355	8	0.013328	60	10	60-180	60	88	GapExp	0	148	2	3	1	target	1	294	853	113908	13.328	13.297	13.361
ProbeTrack11	16	ProbeTrack	11.2	SCS215a	20101027.143827	20101027.145400	8	0.013328	60	0	60-180	60	144	GapExp	0	149	2	0	1	target	1	294	853	114761	13.328	13.011	13.663
ProbeTrack11	16	ProbeTrack	11.2	SCS215a	20101027.143827	20101027.145406	8	0.013328	60	0	60-180	60	89	GapExp	0	150	2	0	0	distractor	1	453	774	115535	13.328	13.306	13.350
ProbeTrack11	16	ProbeTrack	11.2	SCS215a	20101027.143827	20101027.145411	8	0.013328	60	0	60-180	60	176	GapExp	0	151	2	1	1	target	1	294	853	116388	13.328	13.112	13.544
ProbeTrack11	16	ProbeTrack	11.2	SCS215a	20101027.143827	20101027.145417	8	0.013328	60	10	60-180	60	103	GapExp	0	152	2	1	1	target	1	267	867	117255	13.328	13.113	13.538
ProbeTrack11	16	ProbeTrack	11.2	SCS215a	20101027.143827	20101027.145423	8	0.013328	60	10	60-180	60	93	GapExp	0	153	2	3	0	target	0	254	-1000	116255	13.328	12.888	13.769
ProbeTrack11	16	ProbeTrack	11.2	SCS215a	20101027.143827	20101027.145428	8	0.013328	60	0	60-180	60	77	GapExp	0	154	2	1	0	distractor	1	494	753	117008	13.328	12.909	13.733
ProbeTrack11	16	ProbeTrack	11.2	SCS215a	20101027.143827	20101027.145433	8	0.013328	60	10	60-180	60	169	GapExp	0	155	2	0	1	distractor	0	414	-1000	116008	13.328	12.948	13.716
ProbeTrack11	16	ProbeTrack	11.2	SCS215a	20101027.143827	20101027.145440	8	0.013328	60	0	60-180	60	154	GapExp	0	156	2	45	1	target	1	294	853	116861	13.328	12.954	13.689
ProbeTrack11	16	ProbeTrack	11.2	SCS215a	20101027.143827	20101027.145446	8	0.013328	60	10	60-180	60	171	GapExp	0	157	2	1	0	target	0	440	-1000	115861	13.328	12.987	13.681
ProbeTrack11	16	ProbeTrack	11.2	SCS215a	20101027.143827	20101027.145453	8	0.013328	60	10	60-180	60	68	GapExp	0	158	2	0	1	target	1	334	833	116694	13.328	13.100	13.569
ProbeTrack11	16	ProbeTrack	11.2	SCS215a	20101027.143827	20101027.145458	8	0.013328	60	10	60-180	60	96	GapExp	0	159	2	3	1	target	1	294	853	117547	13.328	13.285	13.365
ProbeTrack11	16	ProbeTrack	11.2	SCS215a	20101027.143827	20101027.145503	8	0.013328	60	0	60-180	60	141	GapExp	0	160	2	3	1	target	1	347	827	118374	13.328	12.857	13.799
ProbeTrack11	16	ProbeTrack	11.2	SCS215a	20101027.143827	20101027.145509	8	0.013328	60	0	60-180	60	96	GapExp	0	161	2	0	0	distractor	1	467	767	119141	13.328	13.309	13.353
ProbeTrack11	16	ProbeTrack	11.2	SCS215a	20101027.143827	20101027.145514	8	0.013328	60	10	60-180	60	117	GapExp	0	162	2	0	1	target	1	320	840	119981	13.328	13.014	13.635
ProbeTrack11	16	ProbeTrack	11.2	SCS215a	20101027.143827	20101027.145520	8	0.013328	60	0	60-180	60	148	GapExp	0	163	2	3	0	distractor	1	440	780	120761	13.328	12.965	13.702
ProbeTrack11	16	ProbeTrack	11.2	SCS215a	20101027.143827	20101027.145526	8	0.013328	60	0	60-180	60	96	GapExp	0	164	2	3	0	distractor	1	494	753	121514	13.328	13.307	13.347
ProbeTrack11	16	ProbeTrack	11.2	SCS215a	20101027.143827	20101027.145531	8	0.013328	60	0	60-180	60	142	GapExp	0	165	2	45	0	distractor	1	440	780	122294	13.328	13.286	13.377
ProbeTrack11	16	ProbeTrack	11.2	SCS215a	20101027.143827	20101027.145538	8	0.013328	60	10	60-180	60	105	GapExp	0	166	2	1	0	distractor	1	400	800	123094	13.328	12.943	13.705
ProbeTrack11	16	ProbeTrack	11.2	SCS215a	20101027.143827	20101027.145543	8	0.013328	60	0	60-180	60	144	GapExp	0	167	2	3	0	distractor	1	440	780	123874	13.328	13.281	13.376
ProbeTrack11	16	ProbeTrack	11.2	SCS215a	20101027.143827	20101027.145550	8	0.013328	60	0	60-180	60	168	GapExp	0	168	2	3	1	target	1	294	853	124727	13.328	12.865	13.791
ProbeTrack11	16	ProbeTrack	11.2	SCS215a	20101027.143827	20101027.145556	8	0.013328	60	0	60-180	60	152	GapExp	0	169	2	3	0	distractor	1	440	780	125507	13.328	12.862	13.785
ProbeTrack11	16	ProbeTrack	11.2	SCS215a	20101027.143827	20101027.145602	8	0.013328	60	10	60-180	60	116	GapExp	0	170	2	0	1	target	1	387	807	126314	13.328	12.904	13.744
ProbeTrack11	16	ProbeTrack	11.2	SCS215a	20101027.143827	20101027.145608	8	0.013328	60	10	60-180	60	66	GapExp	0	171	2	3	1	target	1	347	827	127141	13.328	12.917	13.723
ProbeTrack11	16	ProbeTrack	11.2	SCS215a	20101027.143827	20101027.145613	8	0.013328	60	10	60-180	60	139	GapExp	0	172	2	3	1	target	1	307	847	127988	13.328	12.963	13.688
ProbeTrack11	16	ProbeTrack	11.2	SCS215a	20101027.143827	20101027.145619	8	0.013328	60	10	60-180	60	85	GapExp	0	173	2	45	0	distractor	1	387	807	128795	13.328	12.855	13.789
ProbeTrack11	16	ProbeTrack	11.2	SCS215a	20101027.143827	20101027.145624	8	0.013328	60	10	60-180	60	64	GapExp	0	174	2	45	0	distractor	1	454	773	129568	13.328	13.099	13.570
ProbeTrack11	16	ProbeTrack	11.2	SCS215a	20101027.143827	20101027.145630	8	0.013328	60	0	60-180	60	143	GapExp	0	175	2	0	1	target	1	307	847	130415	13.328	12.989	13.659
ProbeTrack11	16	ProbeTrack	11.2	SCS215a	20101027.143827	20101027.145636	8	0.013328	60	10	60-180	60	94	GapExp	0	176	2	0	1	target	1	347	827	131242	13.328	12.912	13.752
ProbeTrack11	16	ProbeTrack	11.2	SCS215a	20101027.143827	20101027.145641	8	0.013328	60	0	60-180	60	70	GapExp	0	177	2	3	1	distractor	0	374	-1000	130242	13.328	13.020	13.639
ProbeTrack11	16	ProbeTrack	11.2	SCS215a	20101027.143827	20101027.145646	8	0.013328	60	10	60-180	60	162	GapExp	0	178	2	3	1	target	1	320	840	131082	13.328	13.306	13.358
ProbeTrack11	16	ProbeTrack	11.2	SCS215a	20101027.143827	20101027.145652	8	0.013328	60	0	60-180	60	172	GapExp	0	179	2	1	0	distractor	1	427	787	131869	13.328	13.311	13.347
ProbeTrack11	16	ProbeTrack	11.2	SCS215a	20101027.143827	20101027.145700	8	0.013328	60	10	60-180	60	144	GapExp	0	180	2	45	1	distractor	0	307	-1000	130869	13.328	12.971	13.679
ProbeTrack11	16	ProbeTrack	11.2	SCS215a	20101027.143827	20101027.145707	8	0.013328	60	0	60-180	60	137	GapExp	0	181	2	0	0	distractor	1	627	687	131556	13.328	13.110	13.556
ProbeTrack11	16	ProbeTrack	11.2	SCS215a	20101027.143827	20101027.145713	8	0.013328	60	0	60-180	60	150	GapExp	0	182	2	0	1	target	1	347	827	132383	13.328	12.900	13.756
ProbeTrack11	16	ProbeTrack	11.2	SCS215a	20101027.143827	20101027.145719	8	0.013328	60	0	60-180	60	111	GapExp	0	183	2	0	1	target	1	307	847	133230	13.328	12.910	13.750
ProbeTrack11	16	ProbeTrack	11.2	SCS215a	20101027.143827	20101027.145724	8	0.013328	60	10	60-180	60	108	GapExp	0	184	2	1	0	distractor	1	400	800	134030	13.328	13.310	13.346
ProbeTrack11	16	ProbeTrack	11.2	SCS215a	20101027.143827	20101027.145730	8	0.013328	60	10	60-180	60	145	GapExp	0	185	2	1	1	target	1	294	853	134883	13.328	13.094	13.563
ProbeTrack11	16	ProbeTrack	11.2	SCS215a	20101027.143827	20101027.145736	8	0.013328	60	10	60-180	60	154	GapExp	0	186	2	0	0	target	0	334	-1000	133883	13.328	12.878	13.783
ProbeTrack11	16	ProbeTrack	11.2	SCS215a	20101027.143827	20101027.145742	8	0.013328	60	0	60-180	60	142	GapExp	0	187	2	3	1	target	1	334	833	134716	13.328	12.863	13.794
ProbeTrack11	16	ProbeTrack	11.2	SCS215a	20101027.143827	20101027.145748	8	0.013328	60	0	60-180	60	63	GapExp	0	188	2	1	1	target	1	320	840	135556	13.328	13.049	13.613
ProbeTrack11	16	ProbeTrack	11.2	SCS215a	20101027.143827	20101027.145752	8	0.013328	60	10	60-180	60	151	GapExp	0	189	2	1	0	distractor	1	440	780	136336	13.328	12.901	13.754
ProbeTrack11	16	ProbeTrack	11.2	SCS215a	20101027.143827	20101027.145759	8	0.013328	60	10	60-180	60	138	GapExp	0	190	2	45	1	target	1	320	840	137176	13.328	12.966	13.690
ProbeTrack11	16	ProbeTrack	11.2	SCS215a	20101027.143827	20101027.145805	8	0.013328	60	10	60-180	60	152	GapExp	0	191	2	0	0	target	0	374	-1000	136176	13.328	12.871	13.784
ProbeTrack11	16	ProbeTrack	11.2	SCS215a	20101027.143827	20101027.145811	8	0.013328	60	10	60-180	60	101	GapExp	0	192	2	3	0	target	0	307	-1000	135176	13.328	13.309	13.344
ProbeTrack11	16	ProbeTrack	11.2	SCS215a	20101027.143827	20101027.145817	8	0.013328	60	0	60-180	60	169	GapExp	0	193	2	0	0	distractor	1	427	787	135963	13.328	13.089	13.569
ProbeTrack11	16	ProbeTrack	11.2	SCS215a	20101027.143827	20101027.145823	8	0.013328	60	0	60-180	60	99	GapExp	0	194	2	1	1	target	1	320	840	136803	13.328	12.936	13.730
ProbeTrack11	16	ProbeTrack	11.2	SCS215a	20101027.143827	20101027.145828	8	0.013328	60	10	60-180	60	172	GapExp	0	195	2	45	1	target	1	348	826	137629	13.328	12.849	13.804
ProbeTrack11	16	ProbeTrack	11.2	SCS215a	20101027.143827	20101027.145835	8	0.013328	60	10	60-180	60	163	GapExp	0	196	2	1	0	distractor	1	454	773	138402	13.328	12.892	13.765
ProbeTrack11	16	ProbeTrack	11.2	SCS215a	20101027.143827	20101027.145842	8	0.013328	60	0	60-180	60	138	GapExp	0	197	2	45	0	distractor	1	440	780	139182	13.328	13.099	13.543
ProbeTrack11	16	ProbeTrack	11.2	SCS215a	20101027.143827	20101027.145848	8	0.013328	60	0	60-180	60	125	GapExp	0	198	2	1	0	distractor	1	467	767	139949	13.328	13.310	13.344
ProbeTrack11	16	ProbeTrack	11.2	SCS215a	20101027.143827	20101027.145854	8	0.013328	60	0	60-180	60	156	GapExp	0	199	2	0	1	target	1	280	860	140809	13.328	12.898	13.765
ProbeTrack11	16	ProbeTrack	11.2	SCS215a	20101027.143827	20101027.145900	8	0.013328	60	10	60-180	60	168	GapExp	0	200	2	3	0	target	0	360	-1000	139809	13.328	13.291	13.372
ProbeTrack11	16	ProbeTrack	11.2	SCS215a	20101027.143827	20101027.145907	8	0.013328	60	0	60-180	60	171	GapExp	0	201	2	3	0	distractor	1	587	707	140516	13.328	12.877	13.779
ProbeTrack11	16	ProbeTrack	11.2	SCS215a	20101027.143827	20101027.145913	8	0.013328	60	10	60-180	60	123	GapExp	0	202	2	45	1	target	1	280	860	141376	13.328	13.308	13.350
ProbeTrack11	16	ProbeTrack	11.2	SCS215a	20101027.143827	20101027.145919	8	0.013328	60	0	60-180	60	103	GapExp	0	203	2	45	1	target	1	360	820	142196	13.328	13.005	13.661
ProbeTrack11	16	ProbeTrack	11.2	SCS215a	20101027.143827	20101027.145925	8	0.013328	60	10	60-180	60	93	GapExp	0	204	2	1	0	distractor	1	334	833	143029	13.328	12.856	13.797
ProbeTrack11	16	ProbeTrack	11.2	SCS215a	20101027.143827	20101027.145930	8	0.013328	60	0	60-180	60	103	GapExp	0	205	2	3	0	distractor	1	440	780	143809	13.328	13.306	13.356
ProbeTrack11	16	ProbeTrack	11.2	SCS215a	20101027.143827	20101027.145936	8	0.013328	60	10	60-180	60	163	GapExp	0	206	2	3	1	target	1	307	847	144656	13.328	12.953	13.719
ProbeTrack11	16	ProbeTrack	11.2	SCS215a	20101027.143827	20101027.145946	8	0.013328	60	0	60-180	60	63	GapExp	0	207	2	3	1	target	1	347	827	145483	13.328	12.997	13.667
ProbeTrack11	16	ProbeTrack	11.2	SCS215a	20101027.143827	20101027.145951	8	0.013328	60	10	60-180	60	102	GapExp	0	208	2	45	1	target	1	294	853	146336	13.328	13.308	13.349
ProbeTrack11	16	ProbeTrack	11.2	SCS215a	20101027.143827	20101027.145957	8	0.013328	60	0	60-180	60	158	GapExp	0	209	2	0	1	target	1	267	867	147203	13.328	12.872	13.791
ProbeTrack11	16	ProbeTrack	11.2	SCS215a	20101027.143827	20101027.150003	8	0.013328	60	0	60-180	60	98	GapExp	0	210	2	0	0	target	0	347	-1000	146203	13.328	13.307	13.348
ProbeTrack11	16	ProbeTrack	11.2	SCS215a	20101027.143827	20101027.150008	8	0.013328	60	10	60-180	60	129	GapExp	0	211	2	1	0	distractor	1	374	813	147016	13.328	13.094	13.543
ProbeTrack11	16	ProbeTrack	11.2	SCS215a	20101027.143827	20101027.150014	8	0.013328	60	10	60-180	60	109	GapExp	0	212	2	0	0	target	0	320	-1000	146016	13.328	12.937	13.713
ProbeTrack11	16	ProbeTrack	11.2	SCS215a	20101027.143827	20101027.150019	8	0.013328	60	10	60-180	60	94	GapExp	0	213	2	0	1	distractor	0	374	-1000	145016	13.328	13.309	13.352
ProbeTrack11	16	ProbeTrack	11.2	SCS215a	20101027.143827	20101027.150025	8	0.013328	60	10	60-180	60	140	GapExp	0	214	2	0	1	target	1	360	820	145836	13.328	13.276	13.390
ProbeTrack11	16	ProbeTrack	11.2	SCS215a	20101027.143827	20101027.150031	8	0.013328	60	0	60-180	60	70	GapExp	0	215	2	45	1	target	1	374	813	146649	13.328	12.860	13.797
ProbeTrack11	16	ProbeTrack	11.2	SCS215a	20101027.143827	20101027.150036	8	0.013328	60	0	60-180	60	82	GapExp	0	216	2	1	1	target	1	320	840	147489	13.328	13.309	13.346
ProbeTrack11	16	ProbeTrack	11.2	SCS215a	20101027.143827	20101027.150041	8	0.013328	60	0	60-180	60	64	GapExp	0	217	2	3	1	target	1	320	840	148329	13.328	13.312	13.347
ProbeTrack11	16	ProbeTrack	11.2	SCS215a	20101027.143827	20101027.150046	8	0.013328	60	0	60-180	60	142	GapExp	0	218	2	3	0	distractor	1	387	807	149136	13.328	12.981	13.680
ProbeTrack11	16	ProbeTrack	11.2	SCS215a	20101027.143827	20101027.150052	8	0.013328	60	10	60-180	60	132	GapExp	0	219	2	1	1	target	1	334	833	149969	13.328	13.306	13.347
ProbeTrack11	16	ProbeTrack	11.2	SCS215a	20101027.143827	20101027.150058	8	0.013328	60	10	60-180	60	98	GapExp	0	220	2	0	1	target	1	294	853	150822	13.328	12.925	13.717
ProbeTrack11	16	ProbeTrack	11.2	SCS215a	20101027.143827	20101027.150103	8	0.013328	60	0	60-180	60	107	GapExp	0	221	2	45	1	target	1	440	780	151602	13.328	12.908	13.757
ProbeTrack11	16	ProbeTrack	11.2	SCS215a	20101027.143827	20101027.150109	8	0.013328	60	0	60-180	60	97	GapExp	0	222	2	45	1	target	1	294	853	152455	13.328	12.984	13.669
ProbeTrack11	16	ProbeTrack	11.2	SCS215a	20101027.143827	20101027.150115	8	0.013328	60	10	60-180	60	90	GapExp	0	223	2	0	0	distractor	1	387	807	153262	13.328	13.305	13.352
ProbeTrack11	16	ProbeTrack	11.2	SCS215a	20101027.143827	20101027.150121	8	0.013328	60	0	60-180	60	125	GapExp	0	224	2	3	1	target	1	280	860	154122	13.328	13.095	13.562
ProbeTrack11	16	ProbeTrack	11.2	SCS215a	20101027.143827	20101027.150126	8	0.013328	60	10	60-180	60	175	GapExp	0	225	2	0	1	target	1	307	847	154969	13.328	12.865	13.780
ProbeTrack11	16	ProbeTrack	11.2	SCS215a	20101027.143827	20101027.150132	8	0.013328	60	10	60-180	60	128	GapExp	0	226	2	45	1	target	1	347	827	155796	13.328	12.873	13.778
ProbeTrack11	16	ProbeTrack	11.2	SCS215a	20101027.143827	20101027.150139	8	0.013328	60	10	60-180	60	96	GapExp	0	227	2	1	1	target	1	414	793	156589	13.328	12.998	13.671
ProbeTrack11	16	ProbeTrack	11.2	SCS215a	20101027.143827	20101027.150144	8	0.013328	60	10	60-180	60	142	GapExp	0	228	2	0	1	target	1	280	860	157449	13.328	12.840	13.812
ProbeTrack11	16	ProbeTrack	11.2	SCS215a	20101027.143827	20101027.150150	8	0.013328	60	10	60-180	60	104	GapExp	0	229	2	1	0	distractor	1	427	787	158236	13.328	13.060	13.606
ProbeTrack11	16	ProbeTrack	11.2	SCS215a	20101027.143827	20101027.150156	8	0.013328	60	0	60-180	60	124	GapExp	0	230	2	1	0	target	0	334	-1000	157236	13.328	12.935	13.709
ProbeTrack11	16	ProbeTrack	11.2	SCS215a	20101027.143827	20101027.150201	8	0.013328	60	10	60-180	60	143	GapExp	0	231	2	0	1	target	1	267	867	158103	13.328	12.948	13.724
ProbeTrack11	16	ProbeTrack	11.2	SCS215a	20101027.143827	20101027.150207	8	0.013328	60	10	60-180	60	174	GapExp	0	232	2	1	0	target	0	334	-1000	157103	13.328	12.948	13.713
ProbeTrack11	16	ProbeTrack	11.2	SCS215a	20101027.143827	20101027.150214	8	0.013328	60	10	60-180	60	149	GapExp	0	233	2	0	0	target	0	320	-1000	156103	13.328	13.283	13.364
ProbeTrack11	16	ProbeTrack	11.2	SCS215a	20101027.143827	20101027.150220	8	0.013328	60	10	60-180	60	82	GapExp	0	234	2	3	0	target	0	400	-1000	155103	13.328	12.868	13.808
ProbeTrack11	16	ProbeTrack	11.2	SCS215a	20101027.143827	20101027.150225	8	0.013328	60	0	60-180	60	174	GapExp	0	235	2	1	0	distractor	1	427	787	155890	13.328	13.114	13.535
ProbeTrack11	16	ProbeTrack	11.2	SCS215a	20101027.143827	20101027.150231	8	0.013328	60	10	60-180	60	133	GapExp	0	236	2	0	0	distractor	1	400	800	156690	13.328	12.825	13.821
ProbeTrack11	16	ProbeTrack	11.2	SCS215a	20101027.143827	20101027.150238	8	0.013328	60	10	60-180	60	158	GapExp	0	237	2	0	0	target	0	267	-1000	155690	13.328	13.311	13.347
ProbeTrack11	16	ProbeTrack	11.2	SCS215a	20101027.143827	20101027.150244	8	0.013328	60	10	60-180	60	112	GapExp	0	238	2	1	1	target	1	294	853	156543	13.328	12.912	13.745
ProbeTrack11	16	ProbeTrack	11.2	SCS215a	20101027.143827	20101027.150249	8	0.013328	60	0	60-180	60	74	GapExp	0	239	2	0	0	distractor	1	907	547	157090	13.328	13.309	13.344
ProbeTrack11	16	ProbeTrack	11.2	SCS215a	20101027.143827	20101027.150255	8	0.013328	60	0	60-180	60	173	GapExp	0	240	2	45	0	target	0	254	-1000	156090	13.328	13.017	13.626
ProbeTrack11	16	ProbeTrack	11.2	SCS215a	20101027.143827	20101027.150302	8	0.013328	60	10	60-180	60	179	GapExp	0	241	2	1	1	target	1	294	853	156943	13.328	13.098	13.566
ProbeTrack11	16	ProbeTrack	11.2	SCS215a	20101027.143827	20101027.150308	8	0.013328	60	0	60-180	60	138	GapExp	0	242	2	45	0	distractor	1	454	773	157716	13.328	13.103	13.554
ProbeTrack11	16	ProbeTrack	11.2	SCS215a	20101027.143827	20101027.150315	8	0.013328	60	0	60-180	60	116	GapExp	0	243	2	45	1	target	1	307	847	158563	13.328	13.038	13.624
ProbeTrack11	16	ProbeTrack	11.2	SCS215a	20101027.143827	20101027.150321	8	0.013328	60	0	60-180	60	159	GapExp	0	244	2	1	1	target	1	334	833	159396	13.328	13.296	13.346
ProbeTrack11	16	ProbeTrack	11.2	SCS215a	20101027.143827	20101027.150327	8	0.013328	60	10	60-180	60	79	GapExp	0	245	2	3	0	distractor	1	320	840	160236	13.328	13.312	13.347
ProbeTrack11	16	ProbeTrack	11.2	SCS215a	20101027.143827	20101027.150333	8	0.013328	60	0	60-180	60	132	GapExp	0	246	2	0	1	target	1	280	860	161096	13.328	13.308	13.349
ProbeTrack11	16	ProbeTrack	11.2	SCS215a	20101027.143827	20101027.150338	8	0.013328	60	10	60-180	60	176	GapExp	0	247	2	45	0	distractor	1	507	747	161843	13.328	12.848	13.794
ProbeTrack11	16	ProbeTrack	11.2	SCS215a	20101027.143827	20101027.150346	8	0.013328	60	0	60-180	60	97	GapExp	0	248	2	45	1	target	1	360	820	162663	13.328	13.092	13.572
ProbeTrack11	16	ProbeTrack	11.2	SCS215a	20101027.143827	20101027.150351	8	0.013328	60	10	60-180	60	122	GapExp	0	249	2	1	1	target	1	240	880	163543	13.328	12.893	13.813
ProbeTrack11	16	ProbeTrack	11.2	SCS215a	20101027.143827	20101027.150357	8	0.013328	60	10	60-180	60	131	GapExp	0	250	2	0	1	distractor	0	280	-1000	162543	13.328	12.881	13.774
ProbeTrack11	16	ProbeTrack	11.2	SCS215a	20101027.143827	20101027.150403	8	0.013328	60	10	60-180	60	161	GapExp	0	251	2	1	1	target	1	307	847	163390	13.328	12.903	13.762
ProbeTrack11	16	ProbeTrack	11.2	SCS215a	20101027.143827	20101027.150409	8	0.013328	60	0	60-180	60	160	GapExp	0	252	2	3	1	target	1	320	840	164230	13.328	12.995	13.679
ProbeTrack11	16	ProbeTrack	11.2	SCS215a	20101027.143827	20101027.150415	8	0.013328	60	10	60-180	60	120	GapExp	0	253	2	45	1	target	1	320	840	165070	13.328	12.878	13.781
ProbeTrack11	16	ProbeTrack	11.2	SCS215a	20101027.143827	20101027.150421	8	0.013328	60	0	60-180	60	63	GapExp	0	254	2	3	1	target	1	360	820	165890	13.328	12.892	13.765
ProbeTrack11	16	ProbeTrack	11.2	SCS215a	20101027.143827	20101027.150426	8	0.013328	60	10	60-180	60	160	GapExp	0	255	2	45	1	distractor	0	347	-1000	164890	13.328	13.061	13.589
ProbeTrack11	16	ProbeTrack	11.2	SCS215a	20101027.143827	20101027.150433	8	0.013328	60	10	60-180	60	109	GapExp	0	256	2	0	1	target	1	200	900	165790	13.328	13.022	13.622
ProbeTrack11	16	ProbeTrack	11.2	SCS215a	20101027.143827	20101027.150438	8	0.013328	60	10	60-180	60	131	GapExp	0	257	2	3	1	target	1	254	873	166663	13.328	12.894	13.757
ProbeTrack11	16	ProbeTrack	11.2	SCS215a	20101027.143827	20101027.150444	8	0.013328	60	10	60-180	60	172	GapExp	0	258	2	1	0	distractor	1	320	840	167503	13.328	13.077	13.579
ProbeTrack11	16	ProbeTrack	11.2	SCS215a	20101027.143827	20101027.150450	8	0.013328	60	0	60-180	60	177	GapExp	0	259	2	45	0	distractor	1	480	760	168263	13.328	12.898	13.761
ProbeTrack11	16	ProbeTrack	11.2	SCS215a	20101027.143827	20101027.150458	8	0.013328	60	10	60-180	60	137	GapExp	0	260	2	0	1	target	1	400	800	169063	13.328	12.858	13.795
ProbeTrack11	16	ProbeTrack	11.2	SCS215a	20101027.143827	20101027.150504	8	0.013328	60	10	60-180	60	149	GapExp	0	261	2	1	0	distractor	1	440	780	169843	13.328	13.305	13.351
ProbeTrack11	16	ProbeTrack	11.2	SCS215a	20101027.143827	20101027.150510	8	0.013328	60	0	60-180	60	153	GapExp	0	262	2	1	0	distractor	1	507	747	170590	13.328	12.974	13.696
ProbeTrack11	16	ProbeTrack	11.2	SCS215a	20101027.143827	20101027.150516	8	0.013328	60	0	60-180	60	144	GapExp	0	263	2	0	1	target	1	347	827	171417	13.328	12.923	13.746
ProbeTrack11	16	ProbeTrack	11.2	SCS215a	20101027.143827	20101027.150522	8	0.013328	60	10	60-180	60	169	GapExp	0	264	2	45	1	target	1	347	827	172244	13.328	12.889	13.774
ProbeTrack11	16	ProbeTrack	11.2	SCS215a	20101027.143827	20101027.150529	8	0.013328	60	10	60-180	60	138	GapExp	0	265	2	3	0	distractor	1	374	813	173057	13.328	13.109	13.557
ProbeTrack11	16	ProbeTrack	11.2	SCS215a	20101027.143827	20101027.150535	8	0.013328	60	10	60-180	60	95	GapExp	0	266	2	3	0	distractor	1	427	787	173844	13.328	13.308	13.344
ProbeTrack11	16	ProbeTrack	11.2	SCS215a	20101027.143827	20101027.150540	8	0.013328	60	0	60-180	60	160	GapExp	0	267	2	1	1	target	1	320	840	174684	13.328	13.303	13.348
ProbeTrack11	16	ProbeTrack	11.2	SCS215a	20101027.143827	20101027.150546	8	0.013328	60	0	60-180	60	99	GapExp	0	268	2	45	1	target	1	320	840	175524	13.328	12.855	13.815
ProbeTrack11	16	ProbeTrack	11.2	SCS215a	20101027.143827	20101027.150552	8	0.013328	60	10	60-180	60	148	GapExp	0	269	2	3	0	distractor	1	374	813	176337	13.328	12.962	13.699
ProbeTrack11	16	ProbeTrack	11.2	SCS215a	20101027.143827	20101027.150558	8	0.013328	60	0	60-180	60	102	GapExp	0	270	2	45	1	target	1	347	827	177164	13.328	12.951	13.699
ProbeTrack11	16	ProbeTrack	11.2	SCS215a	20101027.143827	20101027.150604	8	0.013328	60	10	60-180	60	122	GapExp	0	271	2	0	1	target	1	294	853	178017	13.328	12.891	13.752
ProbeTrack11	16	ProbeTrack	11.2	SCS215a	20101027.143827	20101027.150610	8	0.013328	60	0	60-180	60	151	GapExp	0	272	2	0	0	distractor	1	414	793	178810	13.328	12.979	13.686
ProbeTrack11	16	ProbeTrack	11.2	SCS215a	20101027.143827	20101027.150616	8	0.013328	60	10	60-180	60	127	GapExp	0	273	2	3	0	distractor	1	427	787	179597	13.328	12.858	13.788
ProbeTrack11	16	ProbeTrack	11.2	SCS215a	20101027.143827	20101027.150622	8	0.013328	60	10	60-180	60	119	GapExp	0	274	2	45	1	target	1	334	833	180430	13.328	13.297	13.365
ProbeTrack11	16	ProbeTrack	11.2	SCS215a	20101027.143827	20101027.150628	8	0.013328	60	0	60-180	60	139	GapExp	0	275	2	0	0	distractor	1	414	793	181223	13.328	12.998	13.653
ProbeTrack11	16	ProbeTrack	11.2	SCS215a	20101027.143827	20101027.150634	8	0.013328	60	10	60-180	60	153	GapExp	0	276	2	0	0	target	0	347	-1000	180223	13.328	12.958	13.692
ProbeTrack11	16	ProbeTrack	11.2	SCS215a	20101027.143827	20101027.150640	8	0.013328	60	10	60-180	60	64	GapExp	0	277	2	1	0	target	0	320	-1000	179223	13.328	13.306	13.347
ProbeTrack11	16	ProbeTrack	11.2	SCS215a	20101027.143827	20101027.150645	8	0.013328	60	0	60-180	60	154	GapExp	0	278	2	1	1	target	1	307	847	180070	13.328	12.888	13.760
ProbeTrack11	16	ProbeTrack	11.2	SCS215a	20101027.143827	20101027.150651	8	0.013328	60	10	60-180	60	170	GapExp	0	279	2	3	1	target	1	360	820	180890	13.328	13.104	13.565
ProbeTrack11	16	ProbeTrack	11.2	SCS215a	20101027.143827	20101027.150658	8	0.013328	60	10	60-180	60	68	GapExp	0	280	2	1	1	target	1	254	873	181763	13.328	13.302	13.352
ProbeTrack11	16	ProbeTrack	11.2	SCS215a	20101027.143827	20101027.150703	8	0.013328	60	0	60-180	60	165	GapExp	0	281	2	0	0	target	0	320	-1000	180763	13.328	12.872	13.779
ProbeTrack11	16	ProbeTrack	11.2	SCS215a	20101027.143827	20101027.150709	8	0.013328	60	10	60-180	60	160	GapExp	0	282	2	45	1	target	1	307	847	181610	13.328	13.096	13.550
ProbeTrack11	16	ProbeTrack	11.2	SCS215a	20101027.143827	20101027.150715	8	0.013328	60	10	60-180	60	138	GapExp	0	283	2	3	1	target	1	267	867	182477	13.328	13.308	13.344
ProbeTrack11	16	ProbeTrack	11.2	SCS215a	20101027.143827	20101027.150721	8	0.013328	60	0	60-180	60	126	GapExp	0	284	2	45	1	target	1	334	833	183310	13.328	12.968	13.695
ProbeTrack11	16	ProbeTrack	11.2	SCS215a	20101027.143827	20101027.150727	8	0.013328	60	10	60-180	60	148	GapExp	0	285	2	3	1	target	1	240	880	184190	13.328	13.002	13.648
ProbeTrack11	16	ProbeTrack	11.2	SCS215a	20101027.143827	20101027.150734	8	0.013328	60	0	60-180	60	94	GapExp	0	286	2	3	0	target	0	374	-1000	183190	13.328	13.309	13.346
ProbeTrack11	16	ProbeTrack	11.2	SCS215a	20101027.143827	20101027.150739	8	0.013328	60	0	60-180	60	109	GapExp	0	287	2	0	1	target	1	360	820	184010	13.328	12.885	13.788
ProbeTrack11	16	ProbeTrack	11.2	SCS215a	20101027.143827	20101027.150744	8	0.013328	60	10	60-180	60	104	GapExp	0	288	2	45	0	distractor	1	440	780	184790	13.328	13.310	13.346
ProbeTrack11	16	ProbeTrack	11.2	SCS215a	20101027.143827	20101027.150750	8	0.013328	60	0	60-180	60	92	GapExp	0	289	2	45	0	target	0	307	-1000	183790	13.328	12.895	13.749
ProbeTrack11	16	ProbeTrack	11.2	SCS215a	20101027.143827	20101027.150756	8	0.013328	60	10	60-180	60	165	GapExp	0	290	2	3	0	target	0	294	-1000	182790	13.328	13.050	13.600
ProbeTrack11	16	ProbeTrack	11.2	SCS215a	20101027.143827	20101027.150803	8	0.013328	60	0	60-180	60	95	GapExp	0	291	2	0	0	distractor	1	440	780	183570	13.328	13.097	13.553
ProbeTrack11	16	ProbeTrack	11.2	SCS215a	20101027.143827	20101027.150808	8	0.013328	60	10	60-180	60	87	GapExp	0	292	2	0	0	target	0	360	-1000	182570	13.328	12.957	13.705
ProbeTrack11	16	ProbeTrack	11.2	SCS215a	20101027.143827	20101027.150813	8	0.013328	60	0	60-180	60	148	GapExp	0	293	2	45	0	distractor	1	440	780	183350	13.328	13.307	13.347
ProbeTrack11	16	ProbeTrack	11.2	SCS215a	20101027.143827	20101027.150820	8	0.013328	60	10	60-180	60	129	GapExp	0	294	2	3	1	distractor	0	427	-1000	182350	13.328	12.925	13.732
ProbeTrack11	16	ProbeTrack	11.2	SCS215a	20101027.143827	20101027.150826	8	0.013328	60	0	60-180	60	146	GapExp	0	295	2	1	0	distractor	1	427	787	183137	13.328	13.055	13.607
ProbeTrack11	16	ProbeTrack	11.2	SCS215a	20101027.143827	20101027.150832	8	0.013328	60	0	60-180	60	169	GapExp	0	296	2	3	0	distractor	1	427	787	183924	13.328	12.876	13.795
ProbeTrack11	16	ProbeTrack	11.2	SCS215a	20101027.143827	20101027.150838	8	0.013328	60	10	60-180	60	165	GapExp	0	297	2	3	0	distractor	1	414	793	184717	13.328	13.114	13.544
ProbeTrack11	16	ProbeTrack	11.2	SCS215a	20101027.143827	20101027.150844	8	0.013328	60	0	60-180	60	131	GapExp	0	298	2	45	0	distractor	1	440	780	185497	13.328	12.929	13.721
ProbeTrack11	16	ProbeTrack	11.2	SCS215a	20101027.143827	20101027.150851	8	0.013328	60	10	60-180	60	73	GapExp	0	299	2	45	0	target	0	414	-1000	184497	13.328	13.162	13.481
ProbeTrack11	16	ProbeTrack	11.2	SCS215a	20101027.143827	20101027.150856	8	0.013328	60	10	60-180	60	135	GapExp	0	300	2	45	1	target	1	320	840	185337	13.328	13.294	13.356
ProbeTrack11	16	ProbeTrack	11.2	SCS215a	20101027.143827	20101027.150903	8	0.013328	60	0	60-180	60	139	GapExp	0	301	2	1	1	target	1	534	733	186070	13.328	12.861	13.809
ProbeTrack11	16	ProbeTrack	11.2	SCS215a	20101027.143827	20101027.150909	8	0.013328	60	0	60-180	60	128	GapExp	0	302	2	3	0	distractor	1	387	807	186877	13.328	13.308	13.348
ProbeTrack11	16	ProbeTrack	11.2	SCS215a	20101027.143827	20101027.150915	8	0.013328	60	0	60-180	60	134	GapExp	0	303	2	3	1	target	1	294	853	187730	13.328	13.089	13.573
ProbeTrack11	16	ProbeTrack	11.2	SCS215a	20101027.143827	20101027.150920	8	0.013328	60	0	60-180	60	124	GapExp	0	304	2	0	0	distractor	1	440	780	188510	13.328	13.087	13.554
ProbeTrack11	16	ProbeTrack	11.2	SCS215a	20101027.143827	20101027.150926	8	0.013328	60	0	60-180	60	122	GapExp	0	305	2	45	0	distractor	1	400	800	189310	13.328	12.928	13.723
ProbeTrack11	16	ProbeTrack	11.2	SCS215a	20101027.143827	20101027.150932	8	0.013328	60	10	60-180	60	130	GapExp	0	306	2	45	1	target	1	267	867	190177	13.328	12.936	13.718
ProbeTrack11	16	ProbeTrack	11.2	SCS215a	20101027.143827	20101027.150939	8	0.013328	60	0	60-180	60	99	GapExp	0	307	2	1	1	target	1	320	840	191017	13.328	12.915	13.747
ProbeTrack11	16	ProbeTrack	11.2	SCS215a	20101027.143827	20101027.150944	8	0.013328	60	10	60-180	60	131	GapExp	0	308	2	3	0	distractor	1	440	780	191797	13.328	13.179	13.474
ProbeTrack11	16	ProbeTrack	11.2	SCS215a	20101027.143827	20101027.150950	8	0.013328	60	0	60-180	60	163	GapExp	0	309	2	1	0	distractor	1	480	760	192557	13.328	12.846	13.805
ProbeTrack11	16	ProbeTrack	11.2	SCS215a	20101027.143827	20101027.150956	8	0.013328	60	0	60-180	60	141	GapExp	0	310	2	0	0	distractor	1	440	780	193337	13.328	13.112	13.552
ProbeTrack11	16	ProbeTrack	11.2	SCS215a	20101027.143827	20101027.151002	8	0.013328	60	10	60-180	60	160	GapExp	0	311	2	45	0	distractor	1	454	773	194110	13.328	13.094	13.555
ProbeTrack11	16	ProbeTrack	11.2	SCS215a	20101027.143827	20101027.151009	8	0.013328	60	0	60-180	60	133	GapExp	0	312	2	1	0	target	0	400	-1000	193110	13.328	12.915	13.734
ProbeTrack11	16	ProbeTrack	11.2	SCS215a	20101027.143827	20101027.151015	8	0.013328	60	10	60-180	60	149	GapExp	0	313	2	1	0	distractor	1	320	840	193950	13.328	13.118	13.544
ProbeTrack11	16	ProbeTrack	11.2	SCS215a	20101027.143827	20101027.151021	8	0.013328	60	0	60-180	60	123	GapExp	0	314	2	3	0	distractor	1	440	780	194730	13.328	13.303	13.363
ProbeTrack11	16	ProbeTrack	11.2	SCS215a	20101027.143827	20101027.151027	8	0.013328	60	0	60-180	60	93	GapExp	0	315	2	3	1	target	1	414	793	195523	13.328	13.262	13.378
ProbeTrack11	16	ProbeTrack	11.2	SCS215a	20101027.143827	20101027.151032	8	0.013328	60	10	60-180	60	78	GapExp	0	316	2	45	1	target	1	347	827	196350	13.328	13.154	13.496
ProbeTrack11	16	ProbeTrack	11.2	SCS215a	20101027.143827	20101027.151038	8	0.013328	60	0	60-180	60	78	GapExp	0	317	2	1	0	distractor	1	427	787	197137	13.328	13.008	13.652
ProbeTrack11	16	ProbeTrack	11.2	SCS215a	20101027.143827	20101027.151043	8	0.013328	60	0	60-180	60	169	GapExp	0	318	2	1	0	distractor	1	480	760	197897	13.328	12.834	13.813
ProbeTrack11	16	ProbeTrack	11.2	SCS215a	20101027.143827	20101027.151049	8	0.013328	60	0	60-180	60	126	GapExp	0	319	2	3	0	target	0	307	-1000	196897	13.328	12.882	13.774
ProbeTrack11	16	ProbeTrack	11.2	SCS215a	20101027.143827	20101027.151055	8	0.013328	60	10	60-180	60	149	GapExp	0	320	2	45	1	target	1	294	853	197750	13.328	13.053	13.598
ProbeTrack11	16	ProbeTrack	11.2	SCS215a	20101027.143827	20101027.151102	8	0.013328	60	0	60-180	60	150	GapExp	0	321	2	45	1	target	1	294	853	198603	13.328	13.294	13.372
ProbeTrack11	16	ProbeTrack	11.2	SCS215a	20101027.143827	20101027.151108	8	0.013328	60	0	60-180	60	61	GapExp	0	322	2	3	1	target	1	480	760	199363	13.328	12.948	13.715
ProbeTrack11	16	ProbeTrack	11.2	SCS215a	20101027.143827	20101027.151113	8	0.013328	60	0	60-180	60	170	GapExp	0	323	2	0	0	target	0	320	-1000	198363	13.328	13.029	13.612
ProbeTrack11	16	ProbeTrack	11.2	SCS215a	20101027.143827	20101027.151119	8	0.013328	60	10	60-180	60	135	GapExp	0	324	2	3	1	target	1	267	867	199230	13.328	12.829	13.826
ProbeTrack11	16	ProbeTrack	11.2	SCS215a	20101027.143827	20101027.151125	8	0.013328	60	10	60-180	60	126	GapExp	0	325	2	45	1	distractor	0	414	-1000	198230	13.328	13.106	13.565
ProbeTrack11	16	ProbeTrack	11.2	SCS215a	20101027.143827	20101027.151132	8	0.013328	60	0	60-180	60	70	GapExp	0	326	2	3	0	target	0	334	-1000	197230	13.328	13.309	13.344
ProbeTrack11	16	ProbeTrack	11.2	SCS215a	20101027.143827	20101027.151137	8	0.013328	60	10	60-180	60	96	GapExp	0	327	2	3	0	target	0	334	-1000	196230	13.328	13.310	13.350
ProbeTrack11	16	ProbeTrack	11.2	SCS215a	20101027.143827	20101027.151143	8	0.013328	60	10	60-180	60	152	GapExp	0	328	2	3	1	target	1	387	807	197037	13.328	13.311	13.354
ProbeTrack11	16	ProbeTrack	11.2	SCS215a	20101027.143827	20101027.151149	8	0.013328	60	0	60-180	60	80	GapExp	0	329	2	45	1	target	1	387	807	197844	13.328	12.902	13.740
ProbeTrack11	16	ProbeTrack	11.2	SCS215a	20101027.143827	20101027.151155	8	0.013328	60	0	60-180	60	67	GapExp	0	330	2	0	1	target	1	294	853	198697	13.328	13.090	13.554
ProbeTrack11	16	ProbeTrack	11.2	SCS215a	20101027.143827	20101027.151200	8	0.013328	60	0	60-180	60	138	GapExp	0	331	2	0	0	target	0	320	-1000	197697	13.328	13.021	13.643
ProbeTrack11	16	ProbeTrack	11.2	SCS215a	20101027.143827	20101027.151205	8	0.013328	60	10	60-180	60	64	GapExp	0	332	2	45	0	distractor	1	400	800	198497	13.328	13.312	13.346
ProbeTrack11	16	ProbeTrack	11.2	SCS215a	20101027.143827	20101027.151211	8	0.013328	60	10	60-180	60	76	GapExp	0	333	2	1	1	target	1	254	873	199370	13.328	13.309	13.346
ProbeTrack11	16	ProbeTrack	11.2	SCS215a	20101027.143827	20101027.151216	8	0.013328	60	10	60-180	60	129	GapExp	0	334	2	45	0	distractor	1	374	813	200183	13.328	13.026	13.636
ProbeTrack11	16	ProbeTrack	11.2	SCS215a	20101027.143827	20101027.151222	8	0.013328	60	10	60-180	60	82	GapExp	0	335	2	45	0	target	0	280	-1000	199183	13.328	13.099	13.555
ProbeTrack11	16	ProbeTrack	11.2	SCS215a	20101027.143827	20101027.151228	8	0.013328	60	10	60-180	60	93	GapExp	0	336	2	1	1	target	1	267	867	200050	13.328	12.976	13.690
ProbeTrack11	16	ProbeTrack	11.2	SCS215a	20101027.143827	20101027.151233	8	0.013328	60	10	60-180	60	168	GapExp	0	337	2	1	1	target	1	347	827	200877	13.328	13.308	13.348
ProbeTrack11	16	ProbeTrack	11.2	SCS215a	20101027.143827	20101027.151240	8	0.013328	60	10	60-180	60	118	GapExp	0	338	2	45	0	distractor	1	347	827	201704	13.328	13.305	13.357
ProbeTrack11	16	ProbeTrack	11.2	SCS215a	20101027.143827	20101027.151246	8	0.013328	60	0	60-180	60	98	GapExp	0	339	2	3	1	target	1	360	820	202524	13.328	13.020	13.626
ProbeTrack11	16	ProbeTrack	11.2	SCS215a	20101027.143827	20101027.151251	8	0.013328	60	10	60-180	60	68	GapExp	0	340	2	0	0	target	0	320	-1000	201524	13.328	12.856	13.802
ProbeTrack11	16	ProbeTrack	11.2	SCS215a	20101027.143827	20101027.151256	8	0.013328	60	0	60-180	60	89	GapExp	0	341	2	3	1	target	1	414	793	202317	13.328	13.308	13.349
ProbeTrack11	16	ProbeTrack	11.2	SCS215a	20101027.143827	20101027.151301	8	0.013328	60	10	60-180	60	172	GapExp	0	342	2	0	1	distractor	0	307	-1000	201317	13.328	12.983	13.667
ProbeTrack11	16	ProbeTrack	11.2	SCS215a	20101027.143827	20101027.151308	8	0.013328	60	0	60-180	60	159	GapExp	0	343	2	1	0	distractor	1	467	767	202084	13.328	13.228	13.428
ProbeTrack11	16	ProbeTrack	11.2	SCS215a	20101027.143827	20101027.151314	8	0.013328	60	0	60-180	60	163	GapExp	0	344	2	45	0	target	0	360	-1000	201084	13.328	13.304	13.347
ProbeTrack11	16	ProbeTrack	11.2	SCS215a	20101027.143827	20101027.151321	8	0.013328	60	0	60-180	60	70	GapExp	0	345	2	45	1	target	1	294	853	201937	13.328	13.068	13.600
ProbeTrack11	16	ProbeTrack	11.2	SCS215a	20101027.143827	20101027.151326	8	0.013328	60	0	60-180	60	89	GapExp	0	346	2	0	1	target	1	387	807	202744	13.328	13.149	13.559
ProbeTrack11	16	ProbeTrack	11.2	SCS215a	20101027.143827	20101027.151331	8	0.013328	60	0	60-180	60	63	GapExp	0	347	2	3	1	target	1	320	840	203584	13.328	12.903	13.748
ProbeTrack11	16	ProbeTrack	11.2	SCS215a	20101027.143827	20101027.151336	8	0.013328	60	10	60-180	60	123	GapExp	0	348	2	1	0	target	0	334	-1000	202584	13.328	13.308	13.346
ProbeTrack11	16	ProbeTrack	11.2	SCS215a	20101027.143827	20101027.151342	8	0.013328	60	10	60-180	60	152	GapExp	0	349	2	0	0	target	0	414	-1000	201584	13.328	13.304	13.373
ProbeTrack11	16	ProbeTrack	11.2	SCS215a	20101027.143827	20101027.151348	8	0.013328	60	10	60-180	60	88	GapExp	0	350	2	0	1	target	1	320	840	202424	13.328	12.853	13.785
ProbeTrack11	16	ProbeTrack	11.2	SCS215a	20101027.143827	20101027.151353	8	0.013328	60	10	60-180	60	104	GapExp	0	351	2	3	0	distractor	1	360	820	203244	13.328	12.833	13.819
ProbeTrack11	16	ProbeTrack	11.2	SCS215a	20101027.143827	20101027.151359	8	0.013328	60	10	60-180	60	147	GapExp	0	352	2	3	0	distractor	1	320	840	204084	13.328	13.053	13.591
ProbeTrack11	16	ProbeTrack	11.2	SCS215a	20101027.143827	20101027.151405	8	0.013328	60	0	60-180	60	148	GapExp	0	353	2	3	0	distractor	1	454	773	204857	13.328	12.838	13.817
ProbeTrack11	16	ProbeTrack	11.2	SCS215a	20101027.143827	20101027.151411	8	0.013328	60	10	60-180	60	148	GapExp	0	354	2	3	1	distractor	0	360	-1000	203857	13.328	12.949	13.710
ProbeTrack11	16	ProbeTrack	11.2	SCS215a	20101027.143827	20101027.151417	8	0.013328	60	0	60-180	60	120	GapExp	0	355	2	3	1	target	1	334	833	204690	13.328	13.190	13.477
ProbeTrack11	16	ProbeTrack	11.2	SCS215a	20101027.143827	20101027.151422	8	0.013328	60	10	60-180	60	75	GapExp	0	356	2	45	0	distractor	1	454	773	205463	13.328	13.099	13.545
ProbeTrack11	16	ProbeTrack	11.2	SCS215a	20101027.143827	20101027.151428	8	0.013328	60	10	60-180	60	79	GapExp	0	357	2	45	0	distractor	1	454	773	206236	13.328	13.303	13.356
ProbeTrack11	16	ProbeTrack	11.2	SCS215a	20101027.143827	20101027.151434	8	0.013328	60	10	60-180	60	118	GapExp	0	358	2	1	1	target	1	374	813	207049	13.328	13.095	13.555
ProbeTrack11	16	ProbeTrack	11.2	SCS215a	20101027.143827	20101027.151440	8	0.013328	60	10	60-180	60	179	GapExp	0	359	2	0	0	distractor	1	387	807	207856	13.328	12.830	13.826
ProbeTrack11	16	ProbeTrack	11.2	SCS215a	20101027.143827	20101027.151446	8	0.013328	60	10	60-180	60	109	GapExp	0	360	2	45	1	target	1	334	833	208689	13.328	12.890	13.765
ProbeTrack11	16	ProbeTrack	11.2	SCS215a	20101027.143827	20101027.151453	8	0.013328	60	0	60-180	60	137	GapExp	0	361	2	3	0	distractor	1	454	773	209462	13.328	13.193	13.459
ProbeTrack11	16	ProbeTrack	11.2	SCS215a	20101027.143827	20101027.151459	8	0.013328	60	10	60-180	60	152	GapExp	0	362	2	3	1	target	1	347	827	210289	13.328	12.873	13.794
ProbeTrack11	16	ProbeTrack	11.2	SCS215a	20101027.143827	20101027.151505	8	0.013328	60	10	60-180	60	176	GapExp	0	363	2	3	1	target	1	320	840	211129	13.328	12.874	13.784
ProbeTrack11	16	ProbeTrack	11.2	SCS215a	20101027.143827	20101027.151512	8	0.013328	60	0	60-180	60	79	GapExp	0	364	2	0	1	target	1	320	840	211969	13.328	12.887	13.764
ProbeTrack11	16	ProbeTrack	11.2	SCS215a	20101027.143827	20101027.151517	8	0.013328	60	10	60-180	60	152	GapExp	0	365	2	1	0	target	0	320	-1000	210969	13.328	13.023	13.621
ProbeTrack11	16	ProbeTrack	11.2	SCS215a	20101027.143827	20101027.151523	8	0.013328	60	0	60-180	60	77	GapExp	0	366	2	1	0	target	0	320	-1000	209969	13.328	13.303	13.356
ProbeTrack11	16	ProbeTrack	11.2	SCS215a	20101027.143827	20101027.151528	8	0.013328	60	0	60-180	60	75	GapExp	0	367	2	0	1	target	1	334	833	210802	13.328	12.964	13.693
ProbeTrack11	16	ProbeTrack	11.2	SCS215a	20101027.143827	20101027.151533	8	0.013328	60	10	60-180	60	108	GapExp	0	368	2	45	1	target	1	374	813	211615	13.328	12.932	13.737
ProbeTrack11	16	ProbeTrack	11.2	SCS215a	20101027.143827	20101027.151539	8	0.013328	60	0	60-180	60	150	GapExp	0	369	2	45	0	distractor	1	547	727	212342	13.328	12.917	13.737
ProbeTrack11	16	ProbeTrack	11.2	SCS215a	20101027.143827	20101027.151546	8	0.013328	60	0	60-180	60	103	GapExp	0	370	2	45	0	distractor	1	520	740	213082	13.328	13.111	13.543
ProbeTrack11	16	ProbeTrack	11.2	SCS215a	20101027.143827	20101027.151552	8	0.013328	60	0	60-180	60	124	GapExp	0	371	2	3	0	distractor	1	387	807	213889	13.328	12.859	13.797
ProbeTrack11	16	ProbeTrack	11.2	SCS215a	20101027.143827	20101027.151558	8	0.013328	60	0	60-180	60	80	GapExp	0	372	2	0	1	target	1	414	793	214682	13.328	13.308	13.345
ProbeTrack11	16	ProbeTrack	11.2	SCS215a	20101027.143827	20101027.151603	8	0.013328	60	0	60-180	60	74	GapExp	0	373	2	1	1	target	1	347	827	215509	13.328	13.309	13.348
ProbeTrack11	16	ProbeTrack	11.2	SCS215a	20101027.143827	20101027.151608	8	0.013328	60	0	60-180	60	131	GapExp	0	374	2	45	1	target	1	294	853	216362	13.328	12.910	13.741
ProbeTrack11	16	ProbeTrack	11.2	SCS215a	20101027.143827	20101027.151614	8	0.013328	60	10	60-180	60	133	GapExp	0	375	2	3	0	target	0	280	-1000	215362	13.328	13.091	13.570
ProbeTrack11	16	ProbeTrack	11.2	SCS215a	20101027.143827	20101027.151620	8	0.013328	60	0	60-180	60	102	GapExp	0	376	2	1	1	target	1	334	833	216195	13.328	13.043	13.600
ProbeTrack11	16	ProbeTrack	11.2	SCS215a	20101027.143827	20101027.151625	8	0.013328	60	0	60-180	60	103	GapExp	0	377	2	0	0	distractor	1	387	807	217002	13.328	13.066	13.590
ProbeTrack11	16	ProbeTrack	11.2	SCS215a	20101027.143827	20101027.151630	8	0.013328	60	0	60-180	60	129	GapExp	0	378	2	3	0	target	0	347	-1000	216002	13.328	12.896	13.769
ProbeTrack11	16	ProbeTrack	11.2	SCS215a	20101027.143827	20101027.151640	8	0.013328	60	10	60-180	60	141	GapExp	0	379	2	45	1	target	1	414	793	216795	13.328	12.924	13.733
ProbeTrack11	16	ProbeTrack	11.2	SCS215a	20101027.143827	20101027.151646	8	0.013328	60	10	60-180	60	72	GapExp	0	380	2	45	1	target	1	307	847	217642	13.328	13.298	13.347
ProbeTrack11	16	ProbeTrack	11.2	SCS215a	20101027.143827	20101027.151652	8	0.013328	60	0	60-180	60	125	GapExp	0	381	2	45	1	target	1	440	780	218422	13.328	12.863	13.782
ProbeTrack11	16	ProbeTrack	11.2	SCS215a	20101027.143827	20101027.151658	8	0.013328	60	0	60-180	60	92	GapExp	0	382	2	3	1	target	1	320	840	219262	13.328	13.309	13.347
ProbeTrack11	16	ProbeTrack	11.2	SCS215a	20101027.143827	20101027.151703	8	0.013328	60	0	60-180	60	144	GapExp	0	383	2	45	0	distractor	1	427	787	220049	13.328	13.106	13.564
ProbeTrack11	16	ProbeTrack	11.2	SCS215a	20101027.143827	20101027.151710	8	0.013328	60	0	60-180	60	107	GapExp	0	384	2	3	0	distractor	1	534	733	220782	13.328	12.852	13.810
ProbeTrack11	16	ProbeTrack	11.2	SCS215a	20101027.143827	20101027.151716	8	0.013328	60	10	60-180	60	114	GapExp	0	385	2	0	1	target	1	334	833	221615	13.328	12.945	13.698
ProbeTrack11	16	ProbeTrack	11.2	SCS215a	20101027.143827	20101027.151721	8	0.013328	60	0	60-180	60	119	GapExp	0	386	2	45	0	distractor	1	400	800	222415	13.328	13.230	13.432
ProbeTrack11	16	ProbeTrack	11.2	SCS215a	20101027.143827	20101027.151727	8	0.013328	60	10	60-180	60	170	GapExp	0	387	2	3	1	target	1	280	860	223275	13.328	12.900	13.763
ProbeTrack11	16	ProbeTrack	11.2	SCS215a	20101027.143827	20101027.151734	8	0.013328	60	10	60-180	60	123	GapExp	0	388	2	1	0	distractor	1	400	800	224075	13.328	12.788	13.869
ProbeTrack11	16	ProbeTrack	11.2	SCS215a	20101027.143827	20101027.151740	8	0.013328	60	0	60-180	60	106	GapExp	0	389	2	45	0	distractor	1	480	760	224835	13.328	12.997	13.664
ProbeTrack11	16	ProbeTrack	11.2	SCS215a	20101027.143827	20101027.151746	8	0.013328	60	0	60-180	60	85	GapExp	0	390	2	3	0	distractor	1	440	780	225615	13.328	13.012	13.645
ProbeTrack11	16	ProbeTrack	11.2	SCS215a	20101027.143827	20101027.151751	8	0.013328	60	10	60-180	60	115	GapExp	0	391	2	3	0	distractor	1	400	800	226415	13.328	12.939	13.732
ProbeTrack11	16	ProbeTrack	11.2	SCS215a	20101027.143827	20101027.151757	8	0.013328	60	0	60-180	60	68	GapExp	0	392	2	45	0	distractor	1	427	787	227202	13.328	13.308	13.348
ProbeTrack11	16	ProbeTrack	11.2	SCS215a	20101027.143827	20101027.151802	8	0.013328	60	10	60-180	60	102	GapExp	0	393	2	0	0	distractor	1	387	807	228009	13.328	12.879	13.778
ProbeTrack11	16	ProbeTrack	11.2	SCS215a	20101027.143827	20101027.151808	8	0.013328	60	10	60-180	60	167	GapExp	0	394	2	45	0	distractor	1	480	760	228769	13.328	13.141	13.501
ProbeTrack11	16	ProbeTrack	11.2	SCS215a	20101027.143827	20101027.151815	8	0.013328	60	10	60-180	60	169	GapExp	0	395	2	45	1	target	1	307	847	229616	13.328	13.310	13.349
ProbeTrack11	16	ProbeTrack	11.2	SCS215a	20101027.143827	20101027.151822	8	0.013328	60	10	60-180	60	180	GapExp	0	396	2	1	0	distractor	1	440	780	230396	13.328	12.846	13.814
ProbeTrack11	16	ProbeTrack	11.2	SCS215a	20101027.143827	20101027.151828	8	0.013328	60	0	60-180	60	171	GapExp	0	397	2	3	1	target	1	334	833	231229	13.328	13.309	13.347
ProbeTrack11	16	ProbeTrack	11.2	SCS215a	20101027.143827	20101027.151835	8	0.013328	60	10	60-180	60	84	GapExp	0	398	2	45	1	target	1	360	820	232049	13.328	12.948	13.722
ProbeTrack11	16	ProbeTrack	11.2	SCS215a	20101027.143827	20101027.151840	8	0.013328	60	10	60-180	60	107	GapExp	0	399	2	1	1	target	1	374	813	232862	13.328	12.930	13.727
ProbeTrack11	16	ProbeTrack	11.2	SCS215a	20101027.143827	20101027.151846	8	0.013328	60	0	60-180	60	112	GapExp	0	400	2	0	1	target	1	307	847	233709	13.328	13.100	13.556
ProbeTrack11	16	ProbeTrack	11.2	SCS215a	20101027.143827	20101027.151852	8	0.013328	60	10	60-180	60	133	GapExp	0	401	2	1	1	target	1	294	853	234562	13.328	12.973	13.679
ProbeTrack11	16	ProbeTrack	11.2	SCS215a	20101027.143827	20101027.151857	8	0.013328	60	0	60-180	60	108	GapExp	0	402	2	3	1	target	1	294	853	235415	13.328	13.294	13.350
ProbeTrack11	16	ProbeTrack	11.2	SCS215a	20101027.143827	20101027.151903	8	0.013328	60	0	60-180	60	92	GapExp	0	403	2	3	1	target	1	307	847	236262	13.328	13.107	13.551
ProbeTrack11	16	ProbeTrack	11.2	SCS215a	20101027.143827	20101027.151908	8	0.013328	60	0	60-180	60	94	GapExp	0	404	2	0	0	target	0	307	-1000	235262	13.328	12.868	13.800
ProbeTrack11	16	ProbeTrack	11.2	SCS215a	20101027.143827	20101027.151913	8	0.013328	60	10	60-180	60	89	GapExp	0	405	2	45	0	distractor	1	400	800	236062	13.328	13.276	13.360
ProbeTrack11	16	ProbeTrack	11.2	SCS215a	20101027.143827	20101027.151919	8	0.013328	60	10	60-180	60	152	GapExp	0	406	2	45	1	target	1	374	813	236875	13.328	13.065	13.593
ProbeTrack11	16	ProbeTrack	11.2	SCS215a	20101027.143827	20101027.151926	8	0.013328	60	0	60-180	60	151	GapExp	0	407	2	1	0	distractor	1	427	787	237662	13.328	13.211	13.443
ProbeTrack11	16	ProbeTrack	11.2	SCS215a	20101027.143827	20101027.151932	8	0.013328	60	10	60-180	60	62	GapExp	0	408	2	45	0	distractor	1	400	800	238462	13.328	13.125	13.543
ProbeTrack11	16	ProbeTrack	11.2	SCS215a	20101027.143827	20101027.151938	8	0.013328	60	10	60-180	60	127	GapExp	0	409	2	0	1	target	1	294	853	239315	13.328	13.037	13.627
ProbeTrack11	16	ProbeTrack	11.2	SCS215a	20101027.143827	20101027.151944	8	0.013328	60	10	60-180	60	67	GapExp	0	410	2	0	0	distractor	1	427	787	240102	13.328	12.870	13.801
ProbeTrack11	16	ProbeTrack	11.2	SCS215a	20101027.143827	20101027.151949	8	0.013328	60	0	60-180	60	176	GapExp	0	411	2	45	0	distractor	1	494	753	240855	13.328	12.862	13.793
ProbeTrack11	16	ProbeTrack	11.2	SCS215a	20101027.143827	20101027.151956	8	0.013328	60	0	60-180	60	129	GapExp	0	412	2	1	0	distractor	1	534	733	241588	13.328	12.889	13.767
ProbeTrack11	16	ProbeTrack	11.2	SCS215a	20101027.143827	20101027.152002	8	0.013328	60	10	60-180	60	123	GapExp	0	413	2	0	0	target	0	374	-1000	240588	13.328	12.861	13.789
ProbeTrack11	16	ProbeTrack	11.2	SCS215a	20101027.143827	20101027.152007	8	0.013328	60	10	60-180	60	79	GapExp	0	414	2	3	1	target	1	307	847	241435	13.328	12.921	13.740
ProbeTrack11	16	ProbeTrack	11.2	SCS215a	20101027.143827	20101027.152013	8	0.013328	60	0	60-180	60	106	GapExp	0	415	2	3	0	distractor	1	427	787	242222	13.328	12.858	13.796
ProbeTrack11	16	ProbeTrack	11.2	SCS215a	20101027.143827	20101027.152018	8	0.013328	60	10	60-180	60	110	GapExp	0	416	2	1	0	distractor	1	320	840	243062	13.328	12.861	13.796
ProbeTrack11	16	ProbeTrack	11.2	SCS215a	20101027.143827	20101027.152024	8	0.013328	60	0	60-180	60	97	GapExp	0	417	2	45	1	target	1	387	807	243869	13.328	13.065	13.588
ProbeTrack11	16	ProbeTrack	11.2	SCS215a	20101027.143827	20101027.152030	8	0.013328	60	0	60-180	60	160	GapExp	0	418	2	45	1	target	1	307	847	244716	13.328	12.884	13.773
ProbeTrack11	16	ProbeTrack	11.2	SCS215a	20101027.143827	20101027.152037	8	0.013328	60	0	60-180	60	175	GapExp	0	419	2	3	0	distractor	1	374	813	245529	13.328	13.040	13.617
ProbeTrack11	16	ProbeTrack	11.2	SCS215a	20101027.143827	20101027.152043	8	0.013328	60	10	60-180	60	79	GapExp	0	420	2	3	0	target	0	334	-1000	244529	13.328	13.299	13.350
ProbeTrack11	16	ProbeTrack	11.2	SCS215a	20101027.143827	20101027.152048	8	0.013328	60	10	60-180	60	101	GapExp	0	421	2	45	0	distractor	1	374	813	245342	13.328	12.985	13.648
ProbeTrack11	16	ProbeTrack	11.2	SCS215a	20101027.143827	20101027.152054	8	0.013328	60	10	60-180	60	73	GapExp	0	422	2	1	0	distractor	1	414	793	246135	13.328	12.893	13.760
ProbeTrack11	16	ProbeTrack	11.2	SCS215a	20101027.143827	20101027.152059	8	0.013328	60	10	60-180	60	76	GapExp	0	423	2	3	1	target	1	347	827	246962	13.328	13.101	13.568
ProbeTrack11	16	ProbeTrack	11.2	SCS215a	20101027.143827	20101027.152105	8	0.013328	60	0	60-180	60	123	GapExp	0	424	2	45	0	distractor	1	440	780	247742	13.328	12.842	13.807
ProbeTrack11	16	ProbeTrack	11.2	SCS215a	20101027.143827	20101027.152111	8	0.013328	60	0	60-180	60	143	GapExp	0	425	2	45	1	target	1	320	840	248582	13.328	13.065	13.608
ProbeTrack11	16	ProbeTrack	11.2	SCS215a	20101027.143827	20101027.152117	8	0.013328	60	10	60-180	60	141	GapExp	0	426	2	0	0	distractor	1	440	780	249362	13.328	13.207	13.436
ProbeTrack11	16	ProbeTrack	11.2	SCS215a	20101027.143827	20101027.152123	8	0.013328	60	0	60-180	60	71	GapExp	0	427	2	0	0	distractor	1	587	707	250069	13.328	12.849	13.823
ProbeTrack11	16	ProbeTrack	11.2	SCS215a	20101027.143827	20101027.152129	8	0.013328	60	10	60-180	60	162	GapExp	0	428	2	3	0	distractor	1	334	833	250902	13.328	12.950	13.703
ProbeTrack11	16	ProbeTrack	11.2	SCS215a	20101027.143827	20101027.152135	8	0.013328	60	10	60-180	60	63	GapExp	0	429	2	3	1	target	1	320	840	251742	13.328	13.102	13.554
ProbeTrack11	16	ProbeTrack	11.2	SCS215a	20101027.143827	20101027.152140	8	0.013328	60	0	60-180	60	73	GapExp	0	430	2	45	1	target	1	467	767	252509	13.328	13.070	13.572
ProbeTrack11	16	ProbeTrack	11.2	SCS215a	20101027.143827	20101027.152146	8	0.013328	60	0	60-180	60	64	GapExp	0	431	2	45	1	target	1	334	833	253342	13.328	12.851	13.802
ProbeTrack11	16	ProbeTrack	11.2	SCS215a	20101027.143827	20101027.152151	8	0.013328	60	0	60-180	60	69	GapExp	0	432	2	0	1	target	1	307	847	254189	13.328	13.306	13.350
ProbeTrack11	16	ProbeTrack	11.2	SCS215a	20101027.143827	20101027.152156	8	0.013328	60	0	60-180	60	67	GapExp	0	433	2	0	0	distractor	1	467	767	254956	13.328	13.105	13.549
ProbeTrack11	16	ProbeTrack	11.2	SCS215a	20101027.143827	20101027.152201	8	0.013328	60	10	60-180	60	78	GapExp	0	434	2	1	1	target	1	254	873	255829	13.328	12.888	13.749
ProbeTrack11	16	ProbeTrack	11.2	SCS215a	20101027.143827	20101027.152206	8	0.013328	60	10	60-180	60	84	GapExp	0	435	2	3	1	target	1	307	847	256676	13.328	13.307	13.350
ProbeTrack11	16	ProbeTrack	11.2	SCS215a	20101027.143827	20101027.152211	8	0.013328	60	10	60-180	60	104	GapExp	0	436	2	45	0	distractor	1	294	853	257529	13.328	12.853	13.791
ProbeTrack11	16	ProbeTrack	11.2	SCS215a	20101027.143827	20101027.152218	8	0.013328	60	10	60-180	60	171	GapExp	0	437	2	1	1	target	1	400	800	258329	13.328	12.979	13.683
ProbeTrack11	16	ProbeTrack	11.2	SCS215a	20101027.143827	20101027.152224	8	0.013328	60	0	60-180	60	62	GapExp	0	438	2	45	0	distractor	1	387	807	259136	13.328	12.937	13.732
ProbeTrack11	16	ProbeTrack	11.2	SCS215a	20101027.143827	20101027.152230	8	0.013328	60	10	60-180	60	89	GapExp	0	439	2	45	0	distractor	1	440	780	259916	13.328	13.011	13.645
ProbeTrack11	16	ProbeTrack	11.2	SCS215a	20101027.143827	20101027.152236	8	0.013328	60	10	60-180	60	69	GapExp	0	440	2	0	0	distractor	1	440	780	260696	13.328	12.983	13.666
ProbeTrack11	16	ProbeTrack	11.2	SCS215a	20101027.143827	20101027.152241	8	0.013328	60	10	60-180	60	171	GapExp	0	441	2	1	0	distractor	1	374	813	261509	13.328	13.012	13.646
ProbeTrack11	16	ProbeTrack	11.2	SCS215a	20101027.143827	20101027.152247	8	0.013328	60	0	60-180	60	98	GapExp	0	442	2	0	0	distractor	1	454	773	262282	13.328	12.957	13.695
ProbeTrack11	16	ProbeTrack	11.2	SCS215a	20101027.143827	20101027.152252	8	0.013328	60	10	60-180	60	145	GapExp	0	443	2	1	1	target	1	387	807	263089	13.328	13.093	13.547
ProbeTrack11	16	ProbeTrack	11.2	SCS215a	20101027.143827	20101027.152259	8	0.013328	60	0	60-180	60	164	GapExp	0	444	2	0	0	distractor	1	360	820	263909	13.427	13.106	26.652
ProbeTrack11	16	ProbeTrack	11.2	SCS215a	20101027.143827	20101027.152305	8	0.013328	60	0	60-180	60	99	GapExp	0	445	2	0	0	distractor	1	387	807	264716	13.328	12.902	13.748
ProbeTrack11	16	ProbeTrack	11.2	SCS215a	20101027.143827	20101027.152311	8	0.013328	60	0	60-180	60	111	GapExp	0	446	2	1	1	target	1	307	847	265563	13.328	13.310	13.347
ProbeTrack11	16	ProbeTrack	11.2	SCS215a	20101027.143827	20101027.152316	8	0.013328	60	0	60-180	60	91	GapExp	0	447	2	45	0	distractor	1	440	780	266343	13.328	13.265	13.404
ProbeTrack11	16	ProbeTrack	11.2	SCS215a	20101027.143827	20101027.152322	8	0.013328	60	10	60-180	60	81	GapExp	0	448	2	0	1	target	1	307	847	267190	13.328	13.307	13.349
ProbeTrack11	16	ProbeTrack	11.2	SCS215a	20101027.143827	20101027.152327	8	0.013328	60	10	60-180	60	122	GapExp	0	449	2	0	0	target	0	347	-1000	266190	13.328	13.104	13.545
ProbeTrack11	16	ProbeTrack	11.2	SCS215a	20101027.143827	20101027.152333	8	0.013328	60	0	60-180	60	101	GapExp	0	450	2	1	1	target	1	427	787	266977	13.326	13.062	13.559
