exp	sub	code	rev	comp	runtime	trialtime	nstim	refreshdur	cuedur	gapdur	gapOnsetRange	durPostProbe	gapOnsetTime	blocktype	prac	trial	ntargets	soa	probeTarget	resp	acc	rt	pts	tpts	meanFrameDur	minFrameDur	maxFrameDur
ProbeTrack11	17	ProbeTrack	11.2	SCS215a	20101108.143035	20101108.143113	8	0.013328	60	0	60-180	60	179	NoGap	1	1	2	3	0	target	0	7437	-1000	-1000	13.328	13.189	13.501
ProbeTrack11	17	ProbeTrack	11.2	SCS215a	20101108.143035	20101108.143141	8	0.013328	60	0	60-180	60	124	NoGap	1	2	2	0	1	distractor	0	6491	-1000	-2000	13.328	13.049	13.639
ProbeTrack11	17	ProbeTrack	11.2	SCS215a	20101108.143035	20101108.143158	8	0.013328	60	0	60-180	60	65	NoGap	1	3	2	45	0	distractor	1	2493	0	-2000	13.328	13.277	13.411
ProbeTrack11	17	ProbeTrack	11.2	SCS215a	20101108.143035	20101108.143229	8	0.013328	60	0	60-180	60	91	NoGap	1	4	2	3	1	target	1	2986	0	-2000	13.328	13.089	13.537
ProbeTrack11	17	ProbeTrack	11.2	SCS215a	20101108.143035	20101108.143238	8	0.013328	60	0	60-180	60	107	NoGap	1	5	2	45	1	target	1	3652	0	-2000	13.328	13.030	13.659
ProbeTrack11	17	ProbeTrack	11.2	SCS215a	20101108.143035	20101108.143251	8	0.013328	60	0	60-180	60	84	NoGap	1	6	2	0	0	distractor	1	2706	0	-2000	13.328	13.234	13.455
ProbeTrack11	17	ProbeTrack	11.2	SCS215a	20101108.143035	20101108.143300	8	0.013328	60	0	60-180	60	163	NoGap	1	7	2	0	0	distractor	1	1720	140	-1860	13.373	13.292	26.626
ProbeTrack11	17	ProbeTrack	11.2	SCS215a	20101108.143035	20101108.143315	8	0.013328	60	0	60-180	60	139	NoGap	1	8	2	0	0	distractor	1	1653	174	-1686	13.328	13.292	13.363
ProbeTrack11	17	ProbeTrack	11.2	SCS215a	20101108.143035	20101108.143323	8	0.013328	60	0	60-180	60	158	NoGap	1	9	2	0	1	target	1	1253	374	-1312	13.328	13.274	13.363
ProbeTrack11	17	ProbeTrack	11.2	SCS215a	20101108.143035	20101108.143330	8	0.013328	60	0	60-180	60	65	NoGap	1	10	2	3	0	distractor	1	1240	380	-932	13.328	13.293	13.363
ProbeTrack11	17	ProbeTrack	11.2	SCS215a	20101108.143035	20101108.143336	8	0.013328	60	0	60-180	60	103	NoGap	1	11	2	3	1	target	1	1120	440	-492	13.328	13.293	13.363
ProbeTrack11	17	ProbeTrack	11.2	SCS215a	20101108.143035	20101108.143343	8	0.013328	60	0	60-180	60	148	NoGap	1	12	2	45	0	distractor	1	2079	0	-492	13.328	13.289	13.366
ProbeTrack11	17	ProbeTrack	11.2	SCS215a	20101108.143035	20101108.143352	8	0.013328	60	0	60-180	60	152	NoGap	1	13	2	1	1	target	1	1666	167	-325	13.328	13.293	13.363
ProbeTrack11	17	ProbeTrack	11.2	SCS215a	20101108.143035	20101108.143400	8	0.013328	60	0	60-180	60	86	NoGap	1	14	2	45	0	distractor	1	1147	427	102	13.328	13.293	13.363
ProbeTrack11	17	ProbeTrack	11.2	SCS215a	20101108.143035	20101108.143409	8	0.013328	60	0	60-180	60	132	NoGap	1	15	2	0	0	distractor	1	1360	320	422	13.328	13.290	13.365
ProbeTrack11	17	ProbeTrack	11.2	SCS215a	20101108.143035	20101108.143416	8	0.013328	60	0	60-180	60	136	NoGap	1	16	2	45	0	distractor	1	1360	320	742	13.328	13.293	13.363
ProbeTrack11	17	ProbeTrack	11.2	SCS215a	20101108.143035	20101108.143425	8	0.013328	60	0	60-180	60	121	NoGap	1	17	2	1	1	target	1	1133	434	1176	13.328	13.293	13.363
ProbeTrack11	17	ProbeTrack	11.2	SCS215a	20101108.143035	20101108.143432	8	0.013328	60	0	60-180	60	91	NoGap	1	18	2	3	0	distractor	1	1240	380	1556	13.328	13.293	13.363
ProbeTrack11	17	ProbeTrack	11.2	SCS215a	20101108.143035	20101108.143438	8	0.013328	60	0	60-180	60	170	NoGap	1	19	2	45	1	target	1	1173	414	1970	13.328	13.257	13.366
ProbeTrack11	17	ProbeTrack	11.2	SCS215a	20101108.143035	20101108.143447	8	0.013328	60	0	60-180	60	162	NoGap	1	20	2	1	0	target	0	1160	-1000	970	13.328	12.940	13.748
ProbeTrack11	17	ProbeTrack	11.2	SCS215a	20101108.143035	20101108.143455	8	0.013328	60	0	60-180	60	177	NoGap	1	21	2	3	0	distractor	1	1600	200	1170	13.328	13.259	13.366
ProbeTrack11	17	ProbeTrack	11.2	SCS215a	20101108.143035	20101108.143505	8	0.013328	60	0	60-180	60	74	NoGap	1	22	2	1	0	distractor	1	1426	287	1457	13.328	13.293	13.363
ProbeTrack11	17	ProbeTrack	11.2	SCS215a	20101108.143035	20101108.143512	8	0.013328	60	0	60-180	60	168	NoGap	1	23	2	0	1	target	1	1120	440	1897	13.328	13.052	13.570
ProbeTrack11	17	ProbeTrack	11.2	SCS215a	20101108.143035	20101108.143523	8	0.013328	60	0	60-180	60	72	NoGap	1	24	2	3	1	target	1	893	554	2451	13.328	13.293	13.363
ProbeTrack11	17	ProbeTrack	11.2	SCS215a	20101108.143035	20101108.143529	8	0.013328	60	0	60-180	60	143	NoGap	1	25	2	3	1	target	1	1333	334	2785	13.328	13.293	13.363
ProbeTrack11	17	ProbeTrack	11.2	SCS215a	20101108.143035	20101108.143537	8	0.013328	60	0	60-180	60	61	NoGap	1	26	2	0	1	target	1	1546	227	3012	13.328	13.293	13.363
ProbeTrack11	17	ProbeTrack	11.2	SCS215a	20101108.143035	20101108.143543	8	0.013328	60	0	60-180	60	144	NoGap	1	27	2	1	1	target	1	1053	474	3486	13.328	13.293	13.363
ProbeTrack11	17	ProbeTrack	11.2	SCS215a	20101108.143035	20101108.143551	8	0.013328	60	0	60-180	60	93	NoGap	1	28	2	45	1	target	1	1107	447	3933	13.328	13.293	13.363
ProbeTrack11	17	ProbeTrack	11.2	SCS215a	20101108.143035	20101108.143559	8	0.013328	60	0	60-180	60	94	NoGap	1	29	2	0	1	target	1	1613	194	4127	13.328	13.293	13.363
ProbeTrack11	17	ProbeTrack	11.2	SCS215a	20101108.143035	20101108.143606	8	0.013328	60	0	60-180	60	74	NoGap	1	30	2	3	0	distractor	1	1307	347	4474	13.328	13.109	13.546
ProbeTrack11	17	ProbeTrack	11.2	SCS215a	20101108.143035	20101108.143612	8	0.013328	60	0	60-180	60	112	NoGap	1	31	2	1	0	target	0	1653	-1000	3474	13.328	13.293	13.363
ProbeTrack11	17	ProbeTrack	11.2	SCS215a	20101108.143035	20101108.143623	8	0.013328	60	0	60-180	60	121	NoGap	1	32	2	1	1	target	1	827	587	4061	13.328	13.293	13.363
ProbeTrack11	17	ProbeTrack	11.2	SCS215a	20101108.143035	20101108.143630	8	0.013328	60	0	60-180	60	139	NoGap	1	33	2	3	1	target	1	1027	487	4548	13.328	13.285	13.369
ProbeTrack11	17	ProbeTrack	11.2	SCS215a	20101108.143035	20101108.143637	8	0.013328	60	0	60-180	60	107	NoGap	1	34	2	0	0	distractor	1	1067	467	5015	13.328	13.293	13.363
ProbeTrack11	17	ProbeTrack	11.2	SCS215a	20101108.143035	20101108.143644	8	0.013328	60	0	60-180	60	162	NoGap	1	35	2	1	1	target	1	907	547	5562	13.328	13.208	13.448
ProbeTrack11	17	ProbeTrack	11.2	SCS215a	20101108.143035	20101108.143651	8	0.013328	60	0	60-180	60	154	NoGap	1	36	2	1	0	distractor	1	1067	467	6029	13.328	13.290	13.368
ProbeTrack11	17	ProbeTrack	11.2	SCS215a	20101108.143035	20101108.143658	8	0.013328	60	0	60-180	60	111	NoGap	1	37	2	45	0	distractor	1	893	554	6583	13.328	13.293	13.363
ProbeTrack11	17	ProbeTrack	11.2	SCS215a	20101108.143035	20101108.143705	8	0.013328	60	0	60-180	60	125	NoGap	1	38	2	45	1	target	1	1267	367	6950	13.328	13.077	13.544
ProbeTrack11	17	ProbeTrack	11.2	SCS215a	20101108.143035	20101108.143713	8	0.013328	60	0	60-180	60	131	NoGap	1	39	2	1	0	distractor	1	1093	454	7404	13.328	13.293	13.367
ProbeTrack11	17	ProbeTrack	11.2	SCS215a	20101108.143035	20101108.143720	8	0.013328	60	0	60-180	60	117	NoGap	1	40	2	45	1	target	1	1120	440	7844	13.328	13.293	13.363
ProbeTrack11	17	ProbeTrack	11.2	SCS215a	20101108.143801	20101108.143818	8	0.013328	60	10	60-180	60	82	GapPrac	1	1	2	0	0	distractor	1	1706	147	7991	13.328	13.308	13.350
ProbeTrack11	17	ProbeTrack	11.2	SCS215a	20101108.143801	20101108.143827	8	0.013328	60	0	60-180	60	137	GapPrac	1	2	2	3	0	distractor	1	1760	120	8111	13.328	13.281	13.374
ProbeTrack11	17	ProbeTrack	11.2	SCS215a	20101108.143801	20101108.143839	8	0.013328	60	0	60-180	60	121	GapPrac	1	3	2	1	0	distractor	1	1053	474	8585	13.328	13.308	13.347
ProbeTrack11	17	ProbeTrack	11.2	SCS215a	20101108.143801	20101108.143846	8	0.013328	60	0	60-180	60	109	GapPrac	1	4	2	0	1	target	1	1240	380	8965	13.328	13.308	13.357
ProbeTrack11	17	ProbeTrack	11.2	SCS215a	20101108.143801	20101108.143853	8	0.013328	60	0	60-180	60	95	GapPrac	1	5	2	3	1	target	1	1693	154	9119	13.328	13.304	13.352
ProbeTrack11	17	ProbeTrack	11.2	SCS215a	20101108.143801	20101108.143901	8	0.013328	60	0	60-180	60	96	GapPrac	1	6	2	45	0	distractor	1	1200	400	9519	13.328	13.058	13.592
ProbeTrack11	17	ProbeTrack	11.2	SCS215a	20101108.143801	20101108.143909	8	0.013328	60	10	60-180	60	137	GapPrac	1	7	2	3	0	distractor	1	1506	247	9766	13.328	13.039	13.610
ProbeTrack11	17	ProbeTrack	11.2	SCS215a	20101108.143801	20101108.143917	8	0.013328	60	0	60-180	60	111	GapPrac	1	8	2	1	0	distractor	1	1120	440	10206	13.328	12.955	13.715
ProbeTrack11	17	ProbeTrack	11.2	SCS215a	20101108.143801	20101108.143923	8	0.013328	60	10	60-180	60	87	GapPrac	1	9	2	0	1	target	1	1440	280	10486	13.328	13.303	13.350
ProbeTrack11	17	ProbeTrack	11.2	SCS215a	20101108.143801	20101108.143930	8	0.013328	60	10	60-180	60	75	GapPrac	1	10	2	45	1	target	1	1440	280	10766	13.328	13.093	13.544
ProbeTrack11	17	ProbeTrack	11.2	SCS215a	20101108.143801	20101108.143937	8	0.013328	60	0	60-180	60	156	GapPrac	1	11	2	0	0	distractor	1	1333	334	11100	13.328	13.112	13.557
ProbeTrack11	17	ProbeTrack	11.2	SCS215a	20101108.143801	20101108.143946	8	0.013328	60	10	60-180	60	179	GapPrac	1	12	2	1	1	target	1	1520	240	11340	13.328	12.937	13.715
ProbeTrack11	17	ProbeTrack	11.2	SCS215a	20101108.143801	20101108.143954	8	0.013328	60	10	60-180	60	68	GapPrac	1	13	2	3	1	target	1	1373	314	11654	13.328	13.309	13.345
ProbeTrack11	17	ProbeTrack	11.2	SCS215a	20101108.143801	20101108.144001	8	0.013328	60	0	60-180	60	68	GapPrac	1	14	2	45	1	target	1	1173	414	12068	13.328	12.915	13.737
ProbeTrack11	17	ProbeTrack	11.2	SCS215a	20101108.143801	20101108.144007	8	0.013328	60	10	60-180	60	80	GapPrac	1	15	2	0	0	distractor	1	1306	347	12415	13.328	13.061	13.584
ProbeTrack11	17	ProbeTrack	11.2	SCS215a	20101108.143801	20101108.144013	8	0.013328	60	10	60-180	60	129	GapPrac	1	16	2	1	0	distractor	1	1280	360	12775	13.328	13.105	13.544
ProbeTrack11	17	ProbeTrack	11.2	SCS215a	20101108.143801	20101108.144021	8	0.013328	60	0	60-180	60	112	GapPrac	1	17	2	0	1	target	1	1493	254	13029	13.328	13.099	13.556
ProbeTrack11	17	ProbeTrack	11.2	SCS215a	20101108.143801	20101108.144028	8	0.013328	60	0	60-180	60	128	GapPrac	1	18	2	1	1	target	1	987	507	13536	13.328	12.859	13.802
ProbeTrack11	17	ProbeTrack	11.2	SCS215a	20101108.143801	20101108.144034	8	0.013328	60	0	60-180	60	82	GapPrac	1	19	2	3	0	distractor	1	1093	454	13990	13.328	13.309	13.347
ProbeTrack11	17	ProbeTrack	11.2	SCS215a	20101108.143801	20101108.144041	8	0.013328	60	10	60-180	60	138	GapPrac	1	20	2	45	0	distractor	1	1080	460	14450	13.328	13.093	13.551
ProbeTrack11	17	ProbeTrack	11.2	SCS215a	20101108.144134	20101108.144138	8	0.013328	60	10	60-180	60	138	GapPrac	1	1	2	3	0	target	0	1240	-1000	13450	13.327	13.001	13.346
ProbeTrack11	17	ProbeTrack	11.2	SCS215a	20101108.144134	20101108.144149	8	0.013328	60	0	60-180	60	118	GapPrac	1	2	2	3	1	target	1	1133	434	13884	13.328	12.988	13.672
ProbeTrack11	17	ProbeTrack	11.2	SCS215a	20101108.144134	20101108.144156	8	0.013328	60	10	60-180	60	106	GapPrac	1	3	2	0	1	target	1	1107	447	14331	13.328	13.310	13.348
ProbeTrack11	17	ProbeTrack	11.2	SCS215a	20101108.144134	20101108.144203	8	0.013328	60	10	60-180	60	154	GapPrac	1	4	2	1	1	target	1	1133	434	14765	13.328	13.308	13.351
ProbeTrack11	17	ProbeTrack	11.2	SCS215a	20101108.144134	20101108.144210	8	0.013328	60	10	60-180	60	128	GapPrac	1	5	2	45	0	distractor	1	893	554	15319	13.328	13.308	13.349
ProbeTrack11	17	ProbeTrack	11.2	SCS215a	20101108.144134	20101108.144217	8	0.013328	60	0	60-180	60	82	GapPrac	1	6	2	45	1	target	1	907	547	15866	13.328	13.099	13.550
ProbeTrack11	17	ProbeTrack	11.2	SCS215a	20101108.144134	20101108.144224	8	0.013328	60	0	60-180	60	70	GapPrac	1	7	2	0	0	distractor	1	1120	440	16306	13.328	13.307	13.348
ProbeTrack11	17	ProbeTrack	11.2	SCS215a	20101108.144134	20101108.144230	8	0.013328	60	10	60-180	60	98	GapPrac	1	8	2	45	1	target	1	2026	0	16306	13.328	13.308	13.349
ProbeTrack11	17	ProbeTrack	11.2	SCS215a	20101108.144134	20101108.144238	8	0.013328	60	0	60-180	60	176	GapPrac	1	9	2	1	0	distractor	1	1133	434	16740	13.328	13.098	13.560
ProbeTrack11	17	ProbeTrack	11.2	SCS215a	20101108.144134	20101108.144246	8	0.013328	60	10	60-180	60	168	GapPrac	1	10	2	0	1	target	1	1160	420	17160	13.328	13.077	13.569
ProbeTrack11	17	ProbeTrack	11.2	SCS215a	20101108.144134	20101108.144253	8	0.013328	60	0	60-180	60	75	GapPrac	1	11	2	3	1	target	1	1160	420	17580	13.328	13.106	13.549
ProbeTrack11	17	ProbeTrack	11.2	SCS215a	20101108.144134	20101108.144259	8	0.013328	60	10	60-180	60	112	GapPrac	1	12	2	1	1	target	1	1306	347	17927	13.328	13.105	13.536
ProbeTrack11	17	ProbeTrack	11.2	SCS215a	20101108.144134	20101108.144306	8	0.013328	60	0	60-180	60	97	GapPrac	1	13	2	45	0	distractor	1	1147	427	18354	13.328	13.036	13.621
ProbeTrack11	17	ProbeTrack	11.2	SCS215a	20101108.144134	20101108.144313	8	0.013328	60	10	60-180	60	93	GapPrac	1	14	2	3	0	target	0	1520	-1000	17354	13.328	13.308	13.346
ProbeTrack11	17	ProbeTrack	11.2	SCS215a	20101108.144134	20101108.144320	8	0.013328	60	10	60-180	60	94	GapPrac	1	15	2	0	0	distractor	1	1306	347	17701	13.328	12.953	13.699
ProbeTrack11	17	ProbeTrack	11.2	SCS215a	20101108.144134	20101108.144327	8	0.013328	60	0	60-180	60	68	GapPrac	1	16	2	0	1	target	1	1360	320	18021	13.328	13.307	13.349
ProbeTrack11	17	ProbeTrack	11.2	SCS215a	20101108.144134	20101108.144333	8	0.013328	60	10	60-180	60	98	GapPrac	1	17	2	1	0	distractor	1	1520	240	18261	13.328	13.309	13.344
ProbeTrack11	17	ProbeTrack	11.2	SCS215a	20101108.144134	20101108.144340	8	0.013328	60	10	60-180	60	109	GapPrac	1	18	2	3	1	target	1	1093	454	18715	13.328	13.308	13.348
ProbeTrack11	17	ProbeTrack	11.2	SCS215a	20101108.144134	20101108.144347	8	0.013328	60	0	60-180	60	170	GapPrac	1	19	2	3	0	distractor	1	893	554	19269	13.328	13.308	13.345
ProbeTrack11	17	ProbeTrack	11.2	SCS215a	20101108.144134	20101108.144354	8	0.013328	60	0	60-180	60	177	GapPrac	1	20	2	1	1	target	1	813	594	19863	13.328	13.099	13.563
ProbeTrack11	17	ProbeTrack	11.2	SCS215a	20101108.144444	20101108.144453	8	0.013328	60	0	60-180	60	65	GapExp	1	1	2	1	0	distractor	1	1080	460	20323	13.328	12.921	13.729
ProbeTrack11	17	ProbeTrack	11.2	SCS215a	20101108.144444	20101108.144533	8	0.013328	60	0	60-180	60	162	GapExp	1	2	2	45	1	target	1	800	600	20923	13.405	12.874	39.614
ProbeTrack11	17	ProbeTrack	11.2	SCS215a	20101108.144444	20101108.144541	8	0.013328	60	0	60-180	60	108	GapExp	0	3	2	1	0	distractor	1	640	680	21603	13.385	12.999	26.655
ProbeTrack11	17	ProbeTrack	11.2	SCS215a	20101108.144444	20101108.144547	8	0.013328	60	0	60-180	60	62	GapExp	0	4	2	0	1	distractor	0	760	-1000	20603	13.328	13.296	13.354
ProbeTrack11	17	ProbeTrack	11.2	SCS215a	20101108.144444	20101108.144553	8	0.013328	60	10	60-180	60	100	GapExp	0	5	2	3	0	distractor	1	893	554	21157	13.328	13.310	13.349
ProbeTrack11	17	ProbeTrack	11.2	SCS215a	20101108.144444	20101108.144600	8	0.013328	60	0	60-180	60	135	GapExp	0	6	2	0	0	distractor	1	867	567	21724	13.328	12.832	13.811
ProbeTrack11	17	ProbeTrack	11.2	SCS215a	20101108.144444	20101108.144607	8	0.013328	60	10	60-180	60	67	GapExp	0	7	2	45	1	target	1	734	633	22357	13.328	13.260	13.396
ProbeTrack11	17	ProbeTrack	11.2	SCS215a	20101108.144444	20101108.144614	8	0.013328	60	10	60-180	60	62	GapExp	0	8	2	1	0	distractor	1	1133	434	22791	13.328	13.310	13.349
ProbeTrack11	17	ProbeTrack	11.2	SCS215a	20101108.144444	20101108.144619	8	0.013328	60	10	60-180	60	123	GapExp	0	9	2	3	1	target	1	893	554	23345	13.328	13.307	13.346
ProbeTrack11	17	ProbeTrack	11.2	SCS215a	20101108.144444	20101108.144626	8	0.013328	60	0	60-180	60	93	GapExp	0	10	2	45	0	distractor	1	720	640	23985	13.328	13.290	13.365
ProbeTrack11	17	ProbeTrack	11.2	SCS215a	20101108.144444	20101108.144633	8	0.013328	60	10	60-180	60	122	GapExp	0	11	2	1	0	distractor	1	720	640	24625	13.328	12.876	13.789
ProbeTrack11	17	ProbeTrack	11.2	SCS215a	20101108.144444	20101108.144639	8	0.013328	60	10	60-180	60	126	GapExp	0	12	2	1	0	distractor	1	720	640	25265	13.328	13.015	13.633
ProbeTrack11	17	ProbeTrack	11.2	SCS215a	20101108.144444	20101108.144646	8	0.013328	60	0	60-180	60	146	GapExp	0	13	2	3	1	target	1	800	600	25865	13.328	12.976	13.696
ProbeTrack11	17	ProbeTrack	11.2	SCS215a	20101108.144444	20101108.144653	8	0.013328	60	10	60-180	60	94	GapExp	0	14	2	45	1	target	1	653	674	26539	13.328	13.095	13.560
ProbeTrack11	17	ProbeTrack	11.2	SCS215a	20101108.144444	20101108.144700	8	0.013328	60	10	60-180	60	139	GapExp	0	15	2	1	1	target	1	907	547	27086	13.328	13.105	13.545
ProbeTrack11	17	ProbeTrack	11.2	SCS215a	20101108.144444	20101108.144706	8	0.013328	60	10	60-180	60	69	GapExp	0	16	2	1	1	target	1	933	534	27620	13.328	13.098	13.558
ProbeTrack11	17	ProbeTrack	11.2	SCS215a	20101108.144444	20101108.144712	8	0.013328	60	10	60-180	60	68	GapExp	0	17	2	1	1	target	1	907	547	28167	13.328	13.310	13.347
ProbeTrack11	17	ProbeTrack	11.2	SCS215a	20101108.144444	20101108.144718	8	0.013328	60	10	60-180	60	142	GapExp	0	18	2	3	1	target	1	787	607	28774	13.328	13.105	13.542
ProbeTrack11	17	ProbeTrack	11.2	SCS215a	20101108.144444	20101108.144725	8	0.013328	60	0	60-180	60	138	GapExp	0	19	2	3	0	target	0	1320	-1000	27774	13.328	13.305	13.348
ProbeTrack11	17	ProbeTrack	11.2	SCS215a	20101108.144444	20101108.144732	8	0.013328	60	0	60-180	60	96	GapExp	0	20	2	3	0	target	0	1373	-1000	26774	13.328	12.993	13.676
ProbeTrack11	17	ProbeTrack	11.2	SCS215a	20101108.144444	20101108.144738	8	0.013328	60	10	60-180	60	110	GapExp	0	21	2	3	1	target	1	1186	407	27181	13.328	13.310	13.345
ProbeTrack11	17	ProbeTrack	11.2	SCS215a	20101108.144444	20101108.144745	8	0.013328	60	10	60-180	60	124	GapExp	0	22	2	0	0	target	0	1040	-1000	26181	13.328	13.046	13.605
ProbeTrack11	17	ProbeTrack	11.2	SCS215a	20101108.144444	20101108.144752	8	0.013328	60	0	60-180	60	87	GapExp	0	23	2	1	0	target	0	1640	-1000	25181	13.328	12.882	13.777
ProbeTrack11	17	ProbeTrack	11.2	SCS215a	20101108.144444	20101108.144759	8	0.013328	60	0	60-180	60	81	GapExp	0	24	2	1	1	target	1	867	567	25748	13.328	12.870	13.791
ProbeTrack11	17	ProbeTrack	11.2	SCS215a	20101108.144444	20101108.144804	8	0.013328	60	10	60-180	60	113	GapExp	0	25	2	45	1	target	1	827	587	26335	13.328	12.874	13.791
ProbeTrack11	17	ProbeTrack	11.2	SCS215a	20101108.144444	20101108.144811	8	0.013328	60	0	60-180	60	92	GapExp	0	26	2	0	0	distractor	1	1080	460	26795	13.328	13.307	13.347
ProbeTrack11	17	ProbeTrack	11.2	SCS215a	20101108.144444	20101108.144818	8	0.013328	60	10	60-180	60	147	GapExp	0	27	2	45	1	target	1	640	680	27475	13.328	12.934	13.735
ProbeTrack11	17	ProbeTrack	11.2	SCS215a	20101108.144444	20101108.144825	8	0.013328	60	10	60-180	60	149	GapExp	0	28	2	1	0	distractor	1	907	547	28022	13.328	13.307	13.346
ProbeTrack11	17	ProbeTrack	11.2	SCS215a	20101108.144444	20101108.144832	8	0.013328	60	0	60-180	60	136	GapExp	0	29	2	1	1	target	1	800	600	28622	13.328	12.879	13.781
ProbeTrack11	17	ProbeTrack	11.2	SCS215a	20101108.144444	20101108.144838	8	0.013328	60	10	60-180	60	138	GapExp	0	30	2	3	0	distractor	1	787	607	29229	13.328	12.915	13.546
ProbeTrack11	17	ProbeTrack	11.2	SCS215a	20101108.144444	20101108.144845	8	0.013328	60	0	60-180	60	167	GapExp	0	31	2	1	0	distractor	1	867	567	29796	13.328	12.881	13.796
ProbeTrack11	17	ProbeTrack	11.2	SCS215a	20101108.144444	20101108.144852	8	0.013328	60	10	60-180	60	103	GapExp	0	32	2	45	0	distractor	1	893	554	30350	13.328	13.308	13.348
ProbeTrack11	17	ProbeTrack	11.2	SCS215a	20101108.144444	20101108.144900	8	0.013328	60	10	60-180	60	121	GapExp	0	33	2	0	1	target	1	720	640	30990	13.328	12.929	13.736
ProbeTrack11	17	ProbeTrack	11.2	SCS215a	20101108.144444	20101108.144907	8	0.013328	60	10	60-180	60	155	GapExp	0	34	2	3	0	distractor	1	1440	280	31270	13.328	12.905	13.751
ProbeTrack11	17	ProbeTrack	11.2	SCS215a	20101108.144444	20101108.144915	8	0.013328	60	10	60-180	60	176	GapExp	0	35	2	3	0	distractor	1	893	554	31824	13.328	13.129	13.541
ProbeTrack11	17	ProbeTrack	11.2	SCS215a	20101108.144444	20101108.144922	8	0.013328	60	10	60-180	60	77	GapExp	0	36	2	45	1	target	1	867	567	32391	13.328	13.242	13.408
ProbeTrack11	17	ProbeTrack	11.2	SCS215a	20101108.144444	20101108.144929	8	0.013328	60	10	60-180	60	97	GapExp	0	37	2	45	1	target	1	653	674	33065	13.328	13.309	13.346
ProbeTrack11	17	ProbeTrack	11.2	SCS215a	20101108.144444	20101108.144936	8	0.013328	60	0	60-180	60	84	GapExp	0	38	2	3	1	target	1	667	667	33732	13.328	12.878	13.774
ProbeTrack11	17	ProbeTrack	11.2	SCS215a	20101108.144444	20101108.144942	8	0.013328	60	0	60-180	60	75	GapExp	0	39	2	0	0	distractor	1	907	547	34279	13.328	13.122	13.532
ProbeTrack11	17	ProbeTrack	11.2	SCS215a	20101108.144444	20101108.144947	8	0.013328	60	0	60-180	60	75	GapExp	0	40	2	45	1	target	1	587	707	34986	13.328	13.108	13.556
ProbeTrack11	17	ProbeTrack	11.2	SCS215a	20101108.144444	20101108.144954	8	0.013328	60	0	60-180	60	128	GapExp	0	41	2	45	1	target	1	707	647	35633	13.328	13.010	13.655
ProbeTrack11	17	ProbeTrack	11.2	SCS215a	20101108.144444	20101108.145001	8	0.013328	60	0	60-180	60	77	GapExp	0	42	2	45	0	distractor	1	880	560	36193	13.328	12.991	13.664
ProbeTrack11	17	ProbeTrack	11.2	SCS215a	20101108.144444	20101108.145007	8	0.013328	60	0	60-180	60	179	GapExp	0	43	2	45	1	target	1	800	600	36793	13.328	12.895	13.769
ProbeTrack11	17	ProbeTrack	11.2	SCS215a	20101108.144444	20101108.145015	8	0.013328	60	0	60-180	60	141	GapExp	0	44	2	1	1	target	1	507	747	37540	13.328	13.046	13.621
ProbeTrack11	17	ProbeTrack	11.2	SCS215a	20101108.144444	20101108.145021	8	0.013328	60	10	60-180	60	162	GapExp	0	45	2	45	0	distractor	1	747	627	38167	13.328	12.977	13.679
ProbeTrack11	17	ProbeTrack	11.2	SCS215a	20101108.144444	20101108.145029	8	0.013328	60	0	60-180	60	79	GapExp	0	46	2	3	1	target	1	707	647	38814	13.328	13.084	13.565
ProbeTrack11	17	ProbeTrack	11.2	SCS215a	20101108.144444	20101108.145035	8	0.013328	60	0	60-180	60	103	GapExp	0	47	2	1	0	target	0	920	-1000	37814	13.328	13.202	13.454
ProbeTrack11	17	ProbeTrack	11.2	SCS215a	20101108.144444	20101108.145041	8	0.013328	60	0	60-180	60	175	GapExp	0	48	2	1	1	target	1	933	534	38348	13.328	13.106	13.550
ProbeTrack11	17	ProbeTrack	11.2	SCS215a	20101108.144444	20101108.145049	8	0.013328	60	0	60-180	60	102	GapExp	0	49	2	3	1	target	1	1266	367	38715	13.328	13.107	13.557
ProbeTrack11	17	ProbeTrack	11.2	SCS215a	20101108.144444	20101108.145056	8	0.013328	60	0	60-180	60	120	GapExp	0	50	2	3	1	target	1	574	713	39428	13.328	12.961	13.713
ProbeTrack11	17	ProbeTrack	11.2	SCS215a	20101108.144444	20101108.145102	8	0.013328	60	10	60-180	60	106	GapExp	0	51	2	1	0	distractor	1	720	640	40068	13.328	13.307	13.349
ProbeTrack11	17	ProbeTrack	11.2	SCS215a	20101108.144444	20101108.145108	8	0.013328	60	10	60-180	60	145	GapExp	0	52	2	0	0	distractor	1	1093	454	40522	13.328	12.913	13.750
ProbeTrack11	17	ProbeTrack	11.2	SCS215a	20101108.144444	20101108.145115	8	0.013328	60	0	60-180	60	161	GapExp	0	53	2	45	0	distractor	1	800	600	41122	13.328	12.876	13.784
ProbeTrack11	17	ProbeTrack	11.2	SCS215a	20101108.144444	20101108.145123	8	0.013328	60	0	60-180	60	109	GapExp	0	54	2	45	0	distractor	1	973	514	41636	13.328	13.016	13.652
ProbeTrack11	17	ProbeTrack	11.2	SCS215a	20101108.144444	20101108.145130	8	0.013328	60	0	60-180	60	94	GapExp	0	55	2	3	0	distractor	1	1107	447	42083	13.326	12.965	13.555
ProbeTrack11	17	ProbeTrack	11.2	SCS215a	20101108.144444	20101108.145137	8	0.013328	60	10	60-180	60	73	GapExp	0	56	2	1	0	distractor	1	853	574	42657	13.328	13.310	13.347
ProbeTrack11	17	ProbeTrack	11.2	SCS215a	20101108.144444	20101108.145143	8	0.013328	60	10	60-180	60	137	GapExp	0	57	2	0	1	target	1	1266	367	43024	13.328	12.907	13.758
ProbeTrack11	17	ProbeTrack	11.2	SCS215a	20101108.144444	20101108.145150	8	0.013328	60	0	60-180	60	114	GapExp	0	58	2	0	0	distractor	1	1067	467	43491	13.328	12.908	13.739
ProbeTrack11	17	ProbeTrack	11.2	SCS215a	20101108.144444	20101108.145157	8	0.013328	60	0	60-180	60	168	GapExp	0	59	2	0	0	distractor	1	707	647	44138	13.328	13.308	13.344
ProbeTrack11	17	ProbeTrack	11.2	SCS215a	20101108.144444	20101108.145204	8	0.013328	60	10	60-180	60	174	GapExp	0	60	2	45	1	distractor	0	694	-1000	43138	13.328	13.114	13.549
ProbeTrack11	17	ProbeTrack	11.2	SCS215a	20101108.144444	20101108.145212	8	0.013328	60	10	60-180	60	167	GapExp	0	61	2	3	1	target	1	1000	500	43638	13.328	13.307	13.347
ProbeTrack11	17	ProbeTrack	11.2	SCS215a	20101108.144444	20101108.145219	8	0.013328	60	0	60-180	60	129	GapExp	0	62	2	3	1	distractor	0	840	-1000	42638	13.328	13.091	13.565
ProbeTrack11	17	ProbeTrack	11.2	SCS215a	20101108.144444	20101108.145226	8	0.013328	60	0	60-180	60	170	GapExp	0	63	2	3	0	distractor	1	747	627	43265	13.328	13.107	13.548
ProbeTrack11	17	ProbeTrack	11.2	SCS215a	20101108.144444	20101108.145233	8	0.013328	60	10	60-180	60	83	GapExp	0	64	2	3	1	target	1	1293	354	43619	13.328	13.309	13.346
ProbeTrack11	17	ProbeTrack	11.2	SCS215a	20101108.144444	20101108.145239	8	0.013328	60	0	60-180	60	65	GapExp	0	65	2	3	0	distractor	1	1266	367	43986	13.328	13.310	13.346
ProbeTrack11	17	ProbeTrack	11.2	SCS215a	20101108.144444	20101108.145245	8	0.013328	60	10	60-180	60	77	GapExp	0	66	2	1	1	target	1	1120	440	44426	13.328	13.030	13.626
ProbeTrack11	17	ProbeTrack	11.2	SCS215a	20101108.144444	20101108.145252	8	0.013328	60	10	60-180	60	72	GapExp	0	67	2	45	0	distractor	1	760	620	45046	13.328	13.309	13.347
ProbeTrack11	17	ProbeTrack	11.2	SCS215a	20101108.144444	20101108.145258	8	0.013328	60	10	60-180	60	178	GapExp	0	68	2	0	1	target	1	880	560	45606	13.328	13.312	13.352
ProbeTrack11	17	ProbeTrack	11.2	SCS215a	20101108.144444	20101108.145305	8	0.013328	60	10	60-180	60	177	GapExp	0	69	2	0	0	distractor	1	720	640	46246	13.328	13.308	13.347
ProbeTrack11	17	ProbeTrack	11.2	SCS215a	20101108.144444	20101108.145312	8	0.013328	60	0	60-180	60	173	GapExp	0	70	2	1	0	distractor	1	1000	500	46746	13.328	12.882	13.774
ProbeTrack11	17	ProbeTrack	11.2	SCS215a	20101108.144444	20101108.145320	8	0.013328	60	10	60-180	60	176	GapExp	0	71	2	1	0	distractor	1	693	654	47400	13.328	13.309	13.345
ProbeTrack11	17	ProbeTrack	11.2	SCS215a	20101108.144444	20101108.145327	8	0.013328	60	10	60-180	60	85	GapExp	0	72	2	45	0	distractor	1	773	614	48014	13.328	13.308	13.348
ProbeTrack11	17	ProbeTrack	11.2	SCS215a	20101108.144444	20101108.145334	8	0.013328	60	10	60-180	60	151	GapExp	0	73	2	3	0	distractor	1	707	647	48661	13.328	13.307	13.345
ProbeTrack11	17	ProbeTrack	11.2	SCS215a	20101108.144444	20101108.145341	8	0.013328	60	10	60-180	60	106	GapExp	0	74	2	0	1	target	1	947	527	49188	13.328	13.310	13.348
ProbeTrack11	17	ProbeTrack	11.2	SCS215a	20101108.144444	20101108.145347	8	0.013328	60	0	60-180	60	163	GapExp	0	75	2	1	1	target	1	600	700	49888	13.328	12.999	13.658
ProbeTrack11	17	ProbeTrack	11.2	SCS215a	20101108.144444	20101108.145354	8	0.013328	60	10	60-180	60	119	GapExp	0	76	2	3	0	distractor	1	987	507	50395	13.328	13.311	13.346
ProbeTrack11	17	ProbeTrack	11.2	SCS215a	20101108.144444	20101108.145401	8	0.013328	60	0	60-180	60	158	GapExp	0	77	2	0	1	target	1	1107	447	50842	13.328	13.308	13.347
ProbeTrack11	17	ProbeTrack	11.2	SCS215a	20101108.144444	20101108.145408	8	0.013328	60	10	60-180	60	167	GapExp	0	78	2	0	0	distractor	1	720	640	51482	13.328	12.939	13.711
ProbeTrack11	17	ProbeTrack	11.2	SCS215a	20101108.144444	20101108.145415	8	0.013328	60	10	60-180	60	114	GapExp	0	79	2	0	1	target	1	1293	354	51836	13.328	13.270	13.372
ProbeTrack11	17	ProbeTrack	11.2	SCS215a	20101108.144444	20101108.145423	8	0.013328	60	0	60-180	60	120	GapExp	0	80	2	1	1	target	1	680	660	52496	13.328	13.306	13.352
ProbeTrack11	17	ProbeTrack	11.2	SCS215a	20101108.144444	20101108.145429	8	0.013328	60	0	60-180	60	175	GapExp	0	81	2	45	0	distractor	1	880	560	53056	13.328	13.308	13.345
ProbeTrack11	17	ProbeTrack	11.2	SCS215a	20101108.144444	20101108.145437	8	0.013328	60	10	60-180	60	122	GapExp	0	82	2	1	0	target	0	707	-1000	52056	13.328	13.200	13.449
ProbeTrack11	17	ProbeTrack	11.2	SCS215a	20101108.144444	20101108.145443	8	0.013328	60	10	60-180	60	180	GapExp	0	83	2	1	0	distractor	1	800	600	52656	13.328	12.847	13.811
ProbeTrack11	17	ProbeTrack	11.2	SCS215a	20101108.144444	20101108.145451	8	0.013328	60	10	60-180	60	75	GapExp	0	84	2	45	1	target	1	1107	447	53103	13.328	12.935	13.721
ProbeTrack11	17	ProbeTrack	11.2	SCS215a	20101108.144444	20101108.145459	8	0.013328	60	10	60-180	60	154	GapExp	0	85	2	45	1	target	1	587	707	53810	13.328	13.016	13.635
ProbeTrack11	17	ProbeTrack	11.2	SCS215a	20101108.144444	20101108.145507	8	0.013328	60	0	60-180	60	73	GapExp	0	86	2	0	1	target	1	680	660	54470	13.328	13.308	13.348
ProbeTrack11	17	ProbeTrack	11.2	SCS215a	20101108.144444	20101108.145512	8	0.013328	60	0	60-180	60	126	GapExp	0	87	2	45	0	distractor	1	773	614	55084	13.328	12.993	13.670
ProbeTrack11	17	ProbeTrack	11.2	SCS215a	20101108.144444	20101108.145520	8	0.013328	60	0	60-180	60	139	GapExp	0	88	2	45	0	distractor	1	920	540	55624	13.328	13.266	13.389
ProbeTrack11	17	ProbeTrack	11.2	SCS215a	20101108.144444	20101108.145527	8	0.013328	60	10	60-180	60	175	GapExp	0	89	2	0	0	distractor	1	773	614	56238	13.328	12.901	13.754
ProbeTrack11	17	ProbeTrack	11.2	SCS215a	20101108.144444	20101108.145534	8	0.013328	60	10	60-180	60	93	GapExp	0	90	2	45	0	distractor	1	1240	380	56618	13.328	13.309	13.346
ProbeTrack11	17	ProbeTrack	11.2	SCS215a	20101108.144444	20101108.145542	8	0.013328	60	10	60-180	60	141	GapExp	0	91	2	45	1	target	1	720	640	57258	13.328	13.105	13.540
ProbeTrack11	17	ProbeTrack	11.2	SCS215a	20101108.144444	20101108.145549	8	0.013328	60	10	60-180	60	158	GapExp	0	92	2	0	0	distractor	1	2119	0	57258	13.328	13.100	13.558
ProbeTrack11	17	ProbeTrack	11.2	SCS215a	20101108.144444	20101108.145557	8	0.013328	60	10	60-180	60	73	GapExp	0	93	2	45	1	target	1	454	773	58031	13.328	13.087	13.575
ProbeTrack11	17	ProbeTrack	11.2	SCS215a	20101108.144444	20101108.145604	8	0.013328	60	10	60-180	60	121	GapExp	0	94	2	0	0	distractor	1	987	507	58538	13.328	13.306	13.348
ProbeTrack11	17	ProbeTrack	11.2	SCS215a	20101108.144444	20101108.145610	8	0.013328	60	10	60-180	60	107	GapExp	0	95	2	45	1	distractor	0	893	-1000	57538	13.328	13.099	13.551
ProbeTrack11	17	ProbeTrack	11.2	SCS215a	20101108.144444	20101108.145617	8	0.013328	60	0	60-180	60	133	GapExp	0	96	2	45	1	target	1	1213	394	57932	13.328	13.091	13.558
ProbeTrack11	17	ProbeTrack	11.2	SCS215a	20101108.144444	20101108.145625	8	0.013328	60	0	60-180	60	120	GapExp	0	97	2	1	1	target	1	960	520	58452	13.328	12.906	13.749
ProbeTrack11	17	ProbeTrack	11.2	SCS215a	20101108.144444	20101108.145632	8	0.013328	60	0	60-180	60	117	GapExp	0	98	2	45	0	target	0	1032	-1000	57452	13.328	12.993	13.670
ProbeTrack11	17	ProbeTrack	11.2	SCS215a	20101108.144444	20101108.145639	8	0.013328	60	10	60-180	60	151	GapExp	0	99	2	1	1	target	1	880	560	58012	13.328	13.020	13.636
ProbeTrack11	17	ProbeTrack	11.2	SCS215a	20101108.144444	20101108.145646	8	0.013328	60	0	60-180	60	173	GapExp	0	100	2	3	0	distractor	1	853	574	58586	13.328	12.857	13.802
ProbeTrack11	17	ProbeTrack	11.2	SCS215a	20101108.144444	20101108.145654	8	0.013328	60	0	60-180	60	142	GapExp	0	101	2	45	0	target	0	920	-1000	57586	13.328	12.913	13.732
ProbeTrack11	17	ProbeTrack	11.2	SCS215a	20101108.144444	20101108.145701	8	0.013328	60	0	60-180	60	113	GapExp	0	102	2	1	0	distractor	1	747	627	58213	13.328	13.134	13.543
ProbeTrack11	17	ProbeTrack	11.2	SCS215a	20101108.144444	20101108.145707	8	0.013328	60	10	60-180	60	178	GapExp	0	103	2	0	0	distractor	1	813	594	58807	13.328	12.830	13.816
ProbeTrack11	17	ProbeTrack	11.2	SCS215a	20101108.144444	20101108.145715	8	0.013328	60	10	60-180	60	164	GapExp	0	104	2	0	0	distractor	1	827	587	59394	13.328	13.310	13.346
ProbeTrack11	17	ProbeTrack	11.2	SCS215a	20101108.144444	20101108.145722	8	0.013328	60	10	60-180	60	94	GapExp	0	105	2	1	0	distractor	1	787	607	60001	13.328	12.856	13.808
ProbeTrack11	17	ProbeTrack	11.2	SCS215a	20101108.144444	20101108.145728	8	0.013328	60	0	60-180	60	65	GapExp	0	106	2	45	0	distractor	1	747	627	60628	13.328	13.091	13.554
ProbeTrack11	17	ProbeTrack	11.2	SCS215a	20101108.144444	20101108.145734	8	0.013328	60	10	60-180	60	179	GapExp	0	107	2	0	1	target	1	1000	500	61128	13.328	12.956	13.688
ProbeTrack11	17	ProbeTrack	11.2	SCS215a	20101108.144444	20101108.145741	8	0.013328	60	10	60-180	60	143	GapExp	0	108	2	0	0	target	0	1213	-1000	60128	13.328	12.989	13.670
ProbeTrack11	17	ProbeTrack	11.2	SCS215a	20101108.144444	20101108.145749	8	0.013328	60	10	60-180	60	65	GapExp	0	109	2	3	1	target	1	893	554	60682	13.328	12.981	13.689
ProbeTrack11	17	ProbeTrack	11.2	SCS215a	20101108.144444	20101108.145755	8	0.013328	60	0	60-180	60	136	GapExp	0	110	2	3	0	distractor	1	653	674	61356	13.328	13.308	13.346
ProbeTrack11	17	ProbeTrack	11.2	SCS215a	20101108.144444	20101108.145801	8	0.013328	60	0	60-180	60	101	GapExp	0	111	2	45	1	target	1	640	680	62036	13.328	13.304	13.356
ProbeTrack11	17	ProbeTrack	11.2	SCS215a	20101108.144444	20101108.145808	8	0.013328	60	0	60-180	60	128	GapExp	0	112	2	0	1	target	1	653	674	62710	13.328	12.856	13.804
ProbeTrack11	17	ProbeTrack	11.2	SCS215a	20101108.144444	20101108.145814	8	0.013328	60	10	60-180	60	104	GapExp	0	113	2	3	1	target	1	587	707	63417	13.328	12.937	13.709
ProbeTrack11	17	ProbeTrack	11.2	SCS215a	20101108.144444	20101108.145820	8	0.013328	60	10	60-180	60	61	GapExp	0	114	2	1	1	target	1	653	674	64091	13.328	12.909	13.731
ProbeTrack11	17	ProbeTrack	11.2	SCS215a	20101108.144444	20101108.145826	8	0.013328	60	0	60-180	60	163	GapExp	0	115	2	0	0	distractor	1	973	514	64605	13.328	13.081	13.574
ProbeTrack11	17	ProbeTrack	11.2	SCS215a	20101108.144444	20101108.145833	8	0.013328	60	0	60-180	60	143	GapExp	0	116	2	3	0	distractor	1	1173	414	65019	13.328	12.996	13.664
ProbeTrack11	17	ProbeTrack	11.2	SCS215a	20101108.144444	20101108.145840	8	0.013328	60	0	60-180	60	71	GapExp	0	117	2	1	0	distractor	1	827	587	65606	13.328	13.098	13.552
ProbeTrack11	17	ProbeTrack	11.2	SCS215a	20101108.144444	20101108.145846	8	0.013328	60	0	60-180	60	76	GapExp	0	118	2	0	1	distractor	0	2159	-1000	64606	13.328	13.098	13.570
ProbeTrack11	17	ProbeTrack	11.2	SCS215a	20101108.144444	20101108.145853	8	0.013328	60	0	60-180	60	171	GapExp	0	119	2	0	0	distractor	1	800	600	65206	13.328	13.307	13.347
ProbeTrack11	17	ProbeTrack	11.2	SCS215a	20101108.144444	20101108.145900	8	0.013328	60	10	60-180	60	141	GapExp	0	120	2	0	0	distractor	1	1133	434	65640	13.328	12.963	13.688
ProbeTrack11	17	ProbeTrack	11.2	SCS215a	20101108.144444	20101108.145907	8	0.013328	60	0	60-180	60	123	GapExp	0	121	2	0	1	target	1	853	574	66214	13.328	12.967	13.689
ProbeTrack11	17	ProbeTrack	11.2	SCS215a	20101108.144444	20101108.145914	8	0.013328	60	10	60-180	60	98	GapExp	0	122	2	1	1	target	1	2186	0	66214	13.328	12.858	13.804
ProbeTrack11	17	ProbeTrack	11.2	SCS215a	20101108.144444	20101108.145922	8	0.013328	60	0	60-180	60	97	GapExp	0	123	2	45	1	target	1	720	640	66854	13.328	13.060	13.598
ProbeTrack11	17	ProbeTrack	11.2	SCS215a	20101108.144444	20101108.145928	8	0.013328	60	10	60-180	60	76	GapExp	0	124	2	3	1	target	1	947	527	67381	13.328	12.947	13.714
ProbeTrack11	17	ProbeTrack	11.2	SCS215a	20101108.144444	20101108.145934	8	0.013328	60	0	60-180	60	102	GapExp	0	125	2	0	1	target	1	587	707	68088	13.328	13.118	13.558
ProbeTrack11	17	ProbeTrack	11.2	SCS215a	20101108.144444	20101108.145940	8	0.013328	60	10	60-180	60	179	GapExp	0	126	2	3	1	target	1	840	580	68668	13.328	13.022	13.630
ProbeTrack11	17	ProbeTrack	11.2	SCS215a	20101108.144444	20101108.145947	8	0.013328	60	0	60-180	60	163	GapExp	0	127	2	0	0	distractor	1	1040	480	69148	13.328	12.914	13.761
ProbeTrack11	17	ProbeTrack	11.2	SCS215a	20101108.144444	20101108.145954	8	0.013328	60	0	60-180	60	85	GapExp	0	128	2	1	0	distractor	1	867	567	69715	13.328	12.861	13.804
ProbeTrack11	17	ProbeTrack	11.2	SCS215a	20101108.144444	20101108.150000	8	0.013328	60	10	60-180	60	67	GapExp	0	129	2	0	1	target	1	710	645	70360	13.328	12.970	13.670
ProbeTrack11	17	ProbeTrack	11.2	SCS215a	20101108.144444	20101108.150006	8	0.013328	60	0	60-180	60	62	GapExp	0	130	2	1	1	target	1	1160	420	70780	13.328	12.835	13.807
ProbeTrack11	17	ProbeTrack	11.2	SCS215a	20101108.144444	20101108.150012	8	0.013328	60	0	60-180	60	107	GapExp	0	131	2	3	1	target	1	573	714	71494	13.328	13.116	13.557
ProbeTrack11	17	ProbeTrack	11.2	SCS215a	20101108.144444	20101108.150018	8	0.013328	60	10	60-180	60	78	GapExp	0	132	2	45	1	target	1	920	540	72034	13.328	12.927	13.726
ProbeTrack11	17	ProbeTrack	11.2	SCS215a	20101108.144444	20101108.150025	8	0.013328	60	10	60-180	60	174	GapExp	0	133	2	0	1	target	1	787	607	72641	13.328	13.090	13.570
ProbeTrack11	17	ProbeTrack	11.2	SCS215a	20101108.144444	20101108.150032	8	0.013328	60	10	60-180	60	174	GapExp	0	134	2	3	0	distractor	1	733	634	73275	13.328	12.940	13.705
ProbeTrack11	17	ProbeTrack	11.2	SCS215a	20101108.144444	20101108.150039	8	0.013328	60	0	60-180	60	82	GapExp	0	135	2	0	1	target	1	853	574	73849	13.328	12.908	13.773
ProbeTrack11	17	ProbeTrack	11.2	SCS215a	20101108.144444	20101108.150045	8	0.013328	60	10	60-180	60	90	GapExp	0	136	2	3	0	distractor	1	760	620	74469	13.328	12.871	13.794
ProbeTrack11	17	ProbeTrack	11.2	SCS215a	20101108.144444	20101108.150051	8	0.013328	60	0	60-180	60	88	GapExp	0	137	2	45	1	target	1	680	660	75129	13.328	12.853	13.804
ProbeTrack11	17	ProbeTrack	11.2	SCS215a	20101108.144444	20101108.150058	8	0.013328	60	10	60-180	60	133	GapExp	0	138	2	0	1	target	1	1333	334	75463	13.328	13.100	13.556
ProbeTrack11	17	ProbeTrack	11.2	SCS215a	20101108.144444	20101108.150105	8	0.013328	60	10	60-180	60	115	GapExp	0	139	2	45	0	target	0	67	-1000	74463	13.328	13.308	13.344
ProbeTrack11	17	ProbeTrack	11.2	SCS215a	20101108.144444	20101108.150112	8	0.013328	60	0	60-180	60	117	GapExp	0	140	2	0	0	distractor	1	800	600	75063	13.328	13.101	13.569
ProbeTrack11	17	ProbeTrack	11.2	SCS215a	20101108.144444	20101108.150118	8	0.013328	60	0	60-180	60	153	GapExp	0	141	2	0	0	distractor	1	987	507	75570	13.328	12.931	13.725
ProbeTrack11	17	ProbeTrack	11.2	SCS215a	20101108.144444	20101108.150126	8	0.013328	60	10	60-180	60	136	GapExp	0	142	2	0	1	target	1	880	560	76130	13.375	13.099	26.715
ProbeTrack11	17	ProbeTrack	11.2	SCS215a	20101108.144444	20101108.150133	8	0.013328	60	10	60-180	60	170	GapExp	0	143	2	1	1	target	1	813	594	76724	13.328	13.020	13.664
ProbeTrack11	17	ProbeTrack	11.2	SCS215a	20101108.144444	20101108.150140	8	0.013328	60	0	60-180	60	165	GapExp	0	144	2	45	0	distractor	1	773	614	77338	13.328	13.056	13.605
ProbeTrack11	17	ProbeTrack	11.2	SCS215a	20101108.144444	20101108.150147	8	0.013328	60	0	60-180	60	87	GapExp	0	145	2	3	0	distractor	1	654	673	78011	13.328	13.086	13.569
ProbeTrack11	17	ProbeTrack	11.2	SCS215a	20101108.144444	20101108.150153	8	0.013328	60	10	60-180	60	79	GapExp	0	146	2	3	1	target	1	587	707	78718	13.328	13.312	13.348
ProbeTrack11	17	ProbeTrack	11.2	SCS215a	20101108.144444	20101108.150159	8	0.013328	60	10	60-180	60	142	GapExp	0	147	2	0	0	distractor	1	907	547	79265	13.374	13.309	26.648
ProbeTrack11	17	ProbeTrack	11.2	SCS215a	20101108.144444	20101108.150206	8	0.013328	60	10	60-180	60	102	GapExp	0	148	2	45	0	distractor	1	680	660	79925	13.328	13.269	13.393
ProbeTrack11	17	ProbeTrack	11.2	SCS215a	20101108.144444	20101108.150213	8	0.013328	60	0	60-180	60	176	GapExp	0	149	2	0	1	target	1	747	627	80552	13.328	13.307	13.349
ProbeTrack11	17	ProbeTrack	11.2	SCS215a	20101108.144444	20101108.150220	8	0.013328	60	0	60-180	60	126	GapExp	0	150	2	45	0	distractor	1	787	607	81159	13.328	13.310	13.348
ProbeTrack11	17	ProbeTrack	11.2	SCS215a	20101108.144444	20101108.150227	8	0.013328	60	0	60-180	60	83	GapExp	0	151	2	45	1	target	1	654	673	81832	13.328	13.307	13.349
ProbeTrack11	17	ProbeTrack	11.2	SCS215a	20101108.144444	20101108.150233	8	0.013328	60	10	60-180	60	175	GapExp	0	152	2	3	0	distractor	1	1466	267	82099	13.328	12.869	13.788
ProbeTrack11	17	ProbeTrack	11.2	SCS215a	20101108.144444	20101108.150242	8	0.013328	60	0	60-180	60	61	GapExp	0	153	2	0	1	target	1	920	540	82639	13.328	13.310	13.348
ProbeTrack11	17	ProbeTrack	11.2	SCS215a	20101108.144444	20101108.150248	8	0.013328	60	10	60-180	60	97	GapExp	0	154	2	3	0	target	0	1213	-1000	81639	13.328	13.297	13.347
ProbeTrack11	17	ProbeTrack	11.2	SCS215a	20101108.144444	20101108.150254	8	0.013328	60	0	60-180	60	104	GapExp	0	155	2	3	1	target	1	2053	0	81639	13.328	12.984	13.676
ProbeTrack11	17	ProbeTrack	11.2	SCS215a	20101108.144444	20101108.150302	8	0.013328	60	10	60-180	60	124	GapExp	0	156	2	1	0	distractor	1	667	667	82306	13.328	13.074	13.588
ProbeTrack11	17	ProbeTrack	11.2	SCS215a	20101108.144444	20101108.150308	8	0.013328	60	10	60-180	60	136	GapExp	0	157	2	0	1	target	1	1306	347	82653	13.328	13.309	13.348
ProbeTrack11	17	ProbeTrack	11.2	SCS215a	20101108.144444	20101108.150315	8	0.013328	60	10	60-180	60	67	GapExp	0	158	2	0	0	target	0	1626	-1000	81653	13.328	13.310	13.345
ProbeTrack11	17	ProbeTrack	11.2	SCS215a	20101108.144444	20101108.150322	8	0.013328	60	10	60-180	60	148	GapExp	0	159	2	1	1	target	1	547	727	82380	13.328	13.308	13.347
ProbeTrack11	17	ProbeTrack	11.2	SCS215a	20101108.144444	20101108.150329	8	0.013328	60	10	60-180	60	85	GapExp	0	160	2	3	1	target	1	733	634	83014	13.328	13.051	13.616
ProbeTrack11	17	ProbeTrack	11.2	SCS215a	20101108.144444	20101108.150335	8	0.013328	60	0	60-180	60	145	GapExp	0	161	2	3	1	target	1	720	640	83654	13.328	13.136	13.536
ProbeTrack11	17	ProbeTrack	11.2	SCS215a	20101108.144444	20101108.150341	8	0.013328	60	0	60-180	60	78	GapExp	0	162	2	1	0	distractor	1	987	507	84161	13.328	13.309	13.347
ProbeTrack11	17	ProbeTrack	11.2	SCS215a	20101108.144444	20101108.150348	8	0.013328	60	0	60-180	60	137	GapExp	0	163	2	3	0	distractor	1	787	607	84768	13.328	13.107	13.541
ProbeTrack11	17	ProbeTrack	11.2	SCS215a	20101108.144444	20101108.150354	8	0.013328	60	0	60-180	60	68	GapExp	0	164	2	45	1	target	1	640	680	85448	13.328	13.308	13.348
ProbeTrack11	17	ProbeTrack	11.2	SCS215a	20101108.144444	20101108.150401	8	0.013328	60	10	60-180	60	75	GapExp	0	165	2	0	0	distractor	1	760	620	86068	13.328	12.918	13.736
ProbeTrack11	17	ProbeTrack	11.2	SCS215a	20101108.144444	20101108.150407	8	0.013328	60	0	60-180	60	141	GapExp	0	166	2	45	1	target	1	720	640	86708	13.328	13.087	13.557
ProbeTrack11	17	ProbeTrack	11.2	SCS215a	20101108.144444	20101108.150414	8	0.013328	60	10	60-180	60	66	GapExp	0	167	2	45	1	target	1	467	767	87475	13.328	12.995	13.666
ProbeTrack11	17	ProbeTrack	11.2	SCS215a	20101108.144444	20101108.150420	8	0.013328	60	0	60-180	60	177	GapExp	0	168	2	1	0	target	0	507	-1000	86475	13.328	13.101	13.563
ProbeTrack11	17	ProbeTrack	11.2	SCS215a	20101108.144444	20101108.150428	8	0.013328	60	0	60-180	60	131	GapExp	0	169	2	1	1	target	1	853	574	87049	13.328	13.311	13.343
ProbeTrack11	17	ProbeTrack	11.2	SCS215a	20101108.144444	20101108.150434	8	0.013328	60	10	60-180	60	156	GapExp	0	170	2	3	0	distractor	1	853	574	87623	13.415	12.852	26.667
ProbeTrack11	17	ProbeTrack	11.2	SCS215a	20101108.144444	20101108.150441	8	0.013328	60	10	60-180	60	76	GapExp	0	171	2	3	1	target	1	1147	427	88050	13.328	13.303	13.354
ProbeTrack11	17	ProbeTrack	11.2	SCS215a	20101108.144444	20101108.150448	8	0.013328	60	0	60-180	60	180	GapExp	0	172	2	45	0	distractor	1	747	627	88677	13.328	12.880	13.779
ProbeTrack11	17	ProbeTrack	11.2	SCS215a	20101108.144444	20101108.150455	8	0.013328	60	0	60-180	60	119	GapExp	0	173	2	0	0	distractor	1	760	620	89297	13.328	13.107	13.557
ProbeTrack11	17	ProbeTrack	11.2	SCS215a	20101108.144444	20101108.150502	8	0.013328	60	10	60-180	60	133	GapExp	0	174	2	45	1	target	1	627	687	89984	13.328	13.108	13.556
ProbeTrack11	17	ProbeTrack	11.2	SCS215a	20101108.144444	20101108.150510	8	0.013328	60	10	60-180	60	156	GapExp	0	175	2	3	1	target	1	827	587	90571	13.328	13.086	13.561
ProbeTrack11	17	ProbeTrack	11.2	SCS215a	20101108.144444	20101108.150517	8	0.013328	60	0	60-180	60	150	GapExp	0	176	2	3	1	target	1	694	653	91224	13.328	13.105	13.538
ProbeTrack11	17	ProbeTrack	11.2	SCS215a	20101108.144444	20101108.150524	8	0.013328	60	0	60-180	60	157	GapExp	0	177	2	1	0	distractor	1	707	647	91871	13.328	13.100	13.553
ProbeTrack11	17	ProbeTrack	11.2	SCS215a	20101108.144444	20101108.150530	8	0.013328	60	10	60-180	60	76	GapExp	0	178	2	1	0	target	0	1653	-1000	90871	13.328	13.309	13.344
ProbeTrack11	17	ProbeTrack	11.2	SCS215a	20101108.144444	20101108.150537	8	0.013328	60	0	60-180	60	168	GapExp	0	179	2	45	0	distractor	1	600	700	91571	13.328	13.103	13.554
ProbeTrack11	17	ProbeTrack	11.2	SCS215a	20101108.144444	20101108.150545	8	0.013328	60	10	60-180	60	86	GapExp	0	180	2	1	0	distractor	1	640	680	92251	13.328	13.090	13.552
ProbeTrack11	17	ProbeTrack	11.2	SCS215a	20101108.144444	20101108.150551	8	0.013328	60	0	60-180	60	142	GapExp	0	181	2	0	0	distractor	1	867	567	92818	13.328	12.976	13.672
ProbeTrack11	17	ProbeTrack	11.2	SCS215a	20101108.144444	20101108.150558	8	0.013328	60	0	60-180	60	149	GapExp	0	182	2	1	0	distractor	1	747	627	93445	13.328	12.880	13.781
ProbeTrack11	17	ProbeTrack	11.2	SCS215a	20101108.144444	20101108.150605	8	0.013328	60	10	60-180	60	124	GapExp	0	183	2	1	1	target	1	1120	440	93885	13.328	13.309	13.348
ProbeTrack11	17	ProbeTrack	11.2	SCS215a	20101108.144444	20101108.150612	8	0.013328	60	10	60-180	60	67	GapExp	0	184	2	0	0	distractor	1	574	713	94598	13.328	13.312	13.345
ProbeTrack11	17	ProbeTrack	11.2	SCS215a	20101108.144444	20101108.150617	8	0.013328	60	10	60-180	60	86	GapExp	0	185	2	1	1	target	1	667	667	95265	13.328	13.305	13.348
ProbeTrack11	17	ProbeTrack	11.2	SCS215a	20101108.144444	20101108.150623	8	0.013328	60	0	60-180	60	117	GapExp	0	186	2	45	1	target	1	680	660	95925	13.328	13.307	13.350
ProbeTrack11	17	ProbeTrack	11.2	SCS215a	20101108.144444	20101108.150630	8	0.013328	60	10	60-180	60	168	GapExp	0	187	2	0	0	distractor	1	640	680	96605	13.328	13.310	13.348
ProbeTrack11	17	ProbeTrack	11.2	SCS215a	20101108.144444	20101108.150637	8	0.013328	60	10	60-180	60	78	GapExp	0	188	2	45	0	target	0	747	-1000	95605	13.328	13.309	13.346
ProbeTrack11	17	ProbeTrack	11.2	SCS215a	20101108.144444	20101108.150644	8	0.013328	60	0	60-180	60	152	GapExp	0	189	2	0	1	target	1	667	667	96272	13.328	13.308	13.347
ProbeTrack11	17	ProbeTrack	11.2	SCS215a	20101108.144444	20101108.150650	8	0.013328	60	0	60-180	60	138	GapExp	0	190	2	1	0	target	0	1133	-1000	95272	13.328	13.105	13.560
ProbeTrack11	17	ProbeTrack	11.2	SCS215a	20101108.144444	20101108.150657	8	0.013328	60	10	60-180	60	151	GapExp	0	191	2	45	1	target	1	667	667	95939	13.328	12.845	13.810
ProbeTrack11	17	ProbeTrack	11.2	SCS215a	20101108.144444	20101108.150704	8	0.013328	60	0	60-180	60	161	GapExp	0	192	2	45	0	distractor	1	800	600	96539	13.328	13.039	13.617
ProbeTrack11	17	ProbeTrack	11.2	SCS215a	20101108.144444	20101108.150712	8	0.013328	60	10	60-180	60	169	GapExp	0	193	2	3	0	distractor	1	933	534	97073	13.328	13.044	13.597
ProbeTrack11	17	ProbeTrack	11.2	SCS215a	20101108.144444	20101108.150719	8	0.013328	60	0	60-180	60	169	GapExp	0	194	2	1	0	distractor	1	680	660	97733	13.328	13.310	13.347
ProbeTrack11	17	ProbeTrack	11.2	SCS215a	20101108.144444	20101108.150726	8	0.013328	60	10	60-180	60	128	GapExp	0	195	2	45	0	distractor	1	653	674	98407	13.328	13.205	13.458
ProbeTrack11	17	ProbeTrack	11.2	SCS215a	20101108.144444	20101108.150734	8	0.013328	60	10	60-180	60	160	GapExp	0	196	2	1	1	target	1	947	527	98934	13.328	13.309	13.346
ProbeTrack11	17	ProbeTrack	11.2	SCS215a	20101108.144444	20101108.150741	8	0.013328	60	0	60-180	60	178	GapExp	0	197	2	1	1	target	1	547	727	99661	13.328	13.304	13.353
ProbeTrack11	17	ProbeTrack	11.2	SCS215a	20101108.144444	20101108.150748	8	0.013328	60	0	60-180	60	103	GapExp	0	198	2	0	0	target	0	893	-1000	98661	13.328	12.962	13.692
ProbeTrack11	17	ProbeTrack	11.2	SCS215a	20101108.144444	20101108.150754	8	0.013328	60	10	60-180	60	114	GapExp	0	199	2	0	0	distractor	1	1067	467	99128	13.328	13.299	13.363
ProbeTrack11	17	ProbeTrack	11.2	SCS215a	20101108.144444	20101108.150801	8	0.013328	60	10	60-180	60	144	GapExp	0	200	2	3	1	target	1	613	694	99822	13.328	13.309	13.349
ProbeTrack11	17	ProbeTrack	11.2	SCS215a	20101108.144444	20101108.150807	8	0.013328	60	10	60-180	60	126	GapExp	0	201	2	1	0	distractor	1	867	567	100389	13.328	12.887	13.771
ProbeTrack11	17	ProbeTrack	11.2	SCS215a	20101108.144444	20101108.150814	8	0.013328	60	0	60-180	60	138	GapExp	0	202	2	45	0	distractor	1	667	667	101056	13.329	12.893	13.755
ProbeTrack11	17	ProbeTrack	11.2	SCS215a	20101108.144444	20101108.150821	8	0.013328	60	10	60-180	60	127	GapExp	0	203	2	1	1	target	1	614	693	101749	13.328	13.291	13.349
ProbeTrack11	17	ProbeTrack	11.2	SCS215a	20101108.144444	20101108.150829	8	0.013328	60	10	60-180	60	125	GapExp	0	204	2	45	1	target	1	627	687	102436	13.328	12.895	13.749
ProbeTrack11	17	ProbeTrack	11.2	SCS215a	20101108.144444	20101108.150836	8	0.013328	60	0	60-180	60	91	GapExp	0	205	2	45	1	target	1	587	707	103143	13.328	13.063	13.593
ProbeTrack11	17	ProbeTrack	11.2	SCS215a	20101108.144444	20101108.150842	8	0.013328	60	10	60-180	60	97	GapExp	0	206	2	45	0	distractor	1	813	594	103737	13.328	13.098	13.551
ProbeTrack11	17	ProbeTrack	11.2	SCS215a	20101108.144444	20101108.150849	8	0.013328	60	10	60-180	60	105	GapExp	0	207	2	45	0	distractor	1	1160	420	104157	13.328	12.848	13.813
ProbeTrack11	17	ProbeTrack	11.2	SCS215a	20101108.144444	20101108.150857	8	0.013328	60	0	60-180	60	150	GapExp	0	208	2	3	0	distractor	1	853	574	104731	13.328	13.307	13.345
ProbeTrack11	17	ProbeTrack	11.2	SCS215a	20101108.144444	20101108.150904	8	0.013328	60	10	60-180	60	145	GapExp	0	209	2	1	0	distractor	1	1226	387	105118	13.328	13.298	13.350
ProbeTrack11	17	ProbeTrack	11.2	SCS215a	20101108.144444	20101108.150911	8	0.013328	60	0	60-180	60	101	GapExp	0	210	2	3	1	target	1	627	687	105805	13.328	12.913	13.741
ProbeTrack11	17	ProbeTrack	11.2	SCS215a	20101108.144444	20101108.150917	8	0.013328	60	10	60-180	60	106	GapExp	0	211	2	45	1	target	1	507	747	106552	13.328	13.104	13.544
ProbeTrack11	17	ProbeTrack	11.2	SCS215a	20101108.144444	20101108.150924	8	0.013328	60	0	60-180	60	68	GapExp	0	212	2	0	0	distractor	1	733	634	107186	13.328	13.107	13.542
ProbeTrack11	17	ProbeTrack	11.2	SCS215a	20101108.144444	20101108.150929	8	0.013328	60	10	60-180	60	154	GapExp	0	213	2	45	1	target	1	560	720	107906	13.328	12.861	13.802
ProbeTrack11	17	ProbeTrack	11.2	SCS215a	20101108.144444	20101108.150937	8	0.013328	60	0	60-180	60	140	GapExp	0	214	2	45	0	distractor	1	960	520	108426	13.328	13.093	13.564
ProbeTrack11	17	ProbeTrack	11.2	SCS215a	20101108.144444	20101108.150944	8	0.013328	60	10	60-180	60	149	GapExp	0	215	2	3	1	target	1	747	627	109053	13.328	13.091	13.552
ProbeTrack11	17	ProbeTrack	11.2	SCS215a	20101108.144444	20101108.150951	8	0.013328	60	0	60-180	60	156	GapExp	0	216	2	45	1	target	1	547	727	109780	13.328	13.095	13.546
ProbeTrack11	17	ProbeTrack	11.2	SCS215a	20101108.144444	20101108.150958	8	0.013328	60	10	60-180	60	105	GapExp	0	217	2	1	0	distractor	1	853	574	110354	13.328	13.040	13.619
ProbeTrack11	17	ProbeTrack	11.2	SCS215a	20101108.144444	20101108.151004	8	0.013328	60	0	60-180	60	110	GapExp	0	218	2	1	1	target	1	693	654	111008	13.328	13.091	13.559
ProbeTrack11	17	ProbeTrack	11.2	SCS215a	20101108.144444	20101108.151011	8	0.013328	60	0	60-180	60	107	GapExp	0	219	2	45	0	distractor	1	733	634	111642	13.328	13.027	13.641
ProbeTrack11	17	ProbeTrack	11.2	SCS215a	20101108.144444	20101108.151018	8	0.013328	60	10	60-180	60	104	GapExp	0	220	2	45	1	target	1	667	667	112309	13.328	13.049	13.609
ProbeTrack11	17	ProbeTrack	11.2	SCS215a	20101108.144444	20101108.151025	8	0.013328	60	0	60-180	60	96	GapExp	0	221	2	45	0	distractor	1	787	607	112916	13.328	13.102	13.557
ProbeTrack11	17	ProbeTrack	11.2	SCS215a	20101108.144444	20101108.151031	8	0.013328	60	0	60-180	60	105	GapExp	0	222	2	1	0	distractor	1	827	587	113503	13.328	13.309	13.351
ProbeTrack11	17	ProbeTrack	11.2	SCS215a	20101108.144444	20101108.151038	8	0.013328	60	0	60-180	60	146	GapExp	0	223	2	1	1	target	1	494	753	114256	13.328	13.102	13.546
ProbeTrack11	17	ProbeTrack	11.2	SCS215a	20101108.144444	20101108.151045	8	0.013328	60	0	60-180	60	131	GapExp	0	224	2	1	1	target	1	613	694	114950	13.328	12.928	13.736
ProbeTrack11	17	ProbeTrack	11.2	SCS215a	20101108.144444	20101108.151051	8	0.013328	60	0	60-180	60	135	GapExp	0	225	2	3	0	distractor	1	853	574	115524	13.328	13.097	13.562
ProbeTrack11	17	ProbeTrack	11.2	SCS215a	20101108.144444	20101108.151058	8	0.013328	60	10	60-180	60	155	GapExp	0	226	2	45	0	distractor	1	587	707	116231	13.328	13.098	13.557
ProbeTrack11	17	ProbeTrack	11.2	SCS215a	20101108.144444	20101108.151106	8	0.013328	60	10	60-180	60	67	GapExp	0	227	2	0	1	target	1	1653	174	116405	13.328	12.935	13.728
ProbeTrack11	17	ProbeTrack	11.2	SCS215a	20101108.144444	20101108.151112	8	0.013328	60	10	60-180	60	73	GapExp	0	228	2	3	0	distractor	1	653	674	117079	13.328	13.313	13.347
ProbeTrack11	17	ProbeTrack	11.2	SCS215a	20101108.144444	20101108.151118	8	0.013328	60	10	60-180	60	87	GapExp	0	229	2	45	0	distractor	1	534	733	117812	13.328	13.008	13.653
ProbeTrack11	17	ProbeTrack	11.2	SCS215a	20101108.144444	20101108.151125	8	0.013328	60	0	60-180	60	64	GapExp	0	230	2	45	1	target	1	640	680	118492	13.328	13.309	13.346
ProbeTrack11	17	ProbeTrack	11.2	SCS215a	20101108.144444	20101108.151131	8	0.013328	60	10	60-180	60	66	GapExp	0	231	2	45	0	distractor	1	653	674	119166	13.328	13.304	13.358
ProbeTrack11	17	ProbeTrack	11.2	SCS215a	20101108.144444	20101108.151137	8	0.013328	60	0	60-180	60	79	GapExp	0	232	2	3	1	target	1	747	627	119793	13.328	13.092	13.552
ProbeTrack11	17	ProbeTrack	11.2	SCS215a	20101108.144444	20101108.151143	8	0.013328	60	10	60-180	60	155	GapExp	0	233	2	3	0	distractor	1	747	627	120420	13.328	13.279	13.380
ProbeTrack11	17	ProbeTrack	11.2	SCS215a	20101108.144444	20101108.151149	8	0.013328	60	0	60-180	60	104	GapExp	0	234	2	3	0	distractor	1	627	687	121107	13.328	13.107	13.565
ProbeTrack11	17	ProbeTrack	11.2	SCS215a	20101108.144444	20101108.151155	8	0.013328	60	10	60-180	60	149	GapExp	0	235	2	0	0	target	0	720	-1000	120107	13.328	12.870	13.799
ProbeTrack11	17	ProbeTrack	11.2	SCS215a	20101108.144444	20101108.151202	8	0.013328	60	0	60-180	60	92	GapExp	0	236	2	0	0	distractor	1	813	594	120701	13.328	13.309	13.346
ProbeTrack11	17	ProbeTrack	11.2	SCS215a	20101108.144444	20101108.151208	8	0.013328	60	10	60-180	60	132	GapExp	0	237	2	3	1	target	1	560	720	121421	13.328	13.079	13.586
ProbeTrack11	17	ProbeTrack	11.2	SCS215a	20101108.144444	20101108.151215	8	0.013328	60	10	60-180	60	71	GapExp	0	238	2	3	0	distractor	1	587	707	122128	13.328	13.310	13.345
ProbeTrack11	17	ProbeTrack	11.2	SCS215a	20101108.144444	20101108.151221	8	0.013328	60	10	60-180	60	103	GapExp	0	239	2	1	1	target	1	600	700	122828	13.328	13.305	13.351
ProbeTrack11	17	ProbeTrack	11.2	SCS215a	20101108.144444	20101108.151227	8	0.013328	60	10	60-180	60	127	GapExp	0	240	2	45	1	target	1	587	707	123535	13.328	13.307	13.346
ProbeTrack11	17	ProbeTrack	11.2	SCS215a	20101108.144444	20101108.151234	8	0.013328	60	10	60-180	60	130	GapExp	0	241	2	0	1	target	1	507	747	124282	13.328	12.934	13.737
ProbeTrack11	17	ProbeTrack	11.2	SCS215a	20101108.144444	20101108.151240	8	0.013328	60	0	60-180	60	143	GapExp	0	242	2	45	1	target	1	507	747	125029	13.328	13.060	13.585
ProbeTrack11	17	ProbeTrack	11.2	SCS215a	20101108.144444	20101108.151248	8	0.013328	60	0	60-180	60	118	GapExp	0	243	2	0	1	target	1	693	654	125683	13.328	13.306	13.357
ProbeTrack11	17	ProbeTrack	11.2	SCS215a	20101108.144444	20101108.151254	8	0.013328	60	0	60-180	60	77	GapExp	0	244	2	3	0	distractor	1	800	600	126283	13.328	13.099	13.540
ProbeTrack11	17	ProbeTrack	11.2	SCS215a	20101108.144444	20101108.151300	8	0.013328	60	0	60-180	60	147	GapExp	0	245	2	45	1	target	1	667	667	126950	13.328	13.026	13.624
ProbeTrack11	17	ProbeTrack	11.2	SCS215a	20101108.144444	20101108.151307	8	0.013328	60	10	60-180	60	153	GapExp	0	246	2	1	0	target	0	800	-1000	125950	13.328	13.110	13.553
ProbeTrack11	17	ProbeTrack	11.2	SCS215a	20101108.144444	20101108.151315	8	0.013328	60	0	60-180	60	141	GapExp	0	247	2	3	0	distractor	1	693	654	126604	13.328	12.911	13.745
ProbeTrack11	17	ProbeTrack	11.2	SCS215a	20101108.144444	20101108.151322	8	0.013328	60	0	60-180	60	131	GapExp	0	248	2	1	1	target	1	787	607	127211	13.328	12.960	13.704
ProbeTrack11	17	ProbeTrack	11.2	SCS215a	20101108.144444	20101108.151328	8	0.013328	60	10	60-180	60	94	GapExp	0	249	2	1	1	target	1	640	680	127891	13.328	13.108	13.553
ProbeTrack11	17	ProbeTrack	11.2	SCS215a	20101108.144444	20101108.151334	8	0.013328	60	0	60-180	60	91	GapExp	0	250	2	45	0	distractor	1	680	660	128551	13.328	13.106	13.552
ProbeTrack11	17	ProbeTrack	11.2	SCS215a	20101108.144444	20101108.151340	8	0.013328	60	10	60-180	60	86	GapExp	0	251	2	0	0	distractor	1	1280	360	128911	13.328	13.308	13.347
ProbeTrack11	17	ProbeTrack	11.2	SCS215a	20101108.144444	20101108.151346	8	0.013328	60	0	60-180	60	153	GapExp	0	252	2	1	0	distractor	1	667	667	129578	13.328	13.307	13.347
ProbeTrack11	17	ProbeTrack	11.2	SCS215a	20101108.144444	20101108.151353	8	0.013328	60	0	60-180	60	68	GapExp	0	253	2	3	1	target	1	693	654	130232	13.328	13.164	13.477
ProbeTrack11	17	ProbeTrack	11.2	SCS215a	20101108.144444	20101108.151359	8	0.013328	60	0	60-180	60	180	GapExp	0	254	2	1	1	target	1	467	767	130999	13.328	12.867	13.795
ProbeTrack11	17	ProbeTrack	11.2	SCS215a	20101108.144444	20101108.151406	8	0.013328	60	10	60-180	60	115	GapExp	0	255	2	0	0	target	0	653	-1000	129999	13.328	13.307	13.347
ProbeTrack11	17	ProbeTrack	11.2	SCS215a	20101108.144444	20101108.151412	8	0.013328	60	10	60-180	60	120	GapExp	0	256	2	3	1	target	1	494	753	130752	13.328	13.111	13.551
ProbeTrack11	17	ProbeTrack	11.2	SCS215a	20101108.144444	20101108.151422	8	0.013328	60	0	60-180	60	153	GapExp	0	257	2	45	1	target	1	800	600	131352	13.328	12.853	13.812
ProbeTrack11	17	ProbeTrack	11.2	SCS215a	20101108.144444	20101108.151429	8	0.013328	60	10	60-180	60	132	GapExp	0	258	2	45	0	target	0	667	-1000	130352	13.328	13.098	13.559
ProbeTrack11	17	ProbeTrack	11.2	SCS215a	20101108.144444	20101108.151437	8	0.013328	60	0	60-180	60	111	GapExp	0	259	2	0	0	distractor	1	720	640	130992	13.328	13.099	13.572
ProbeTrack11	17	ProbeTrack	11.2	SCS215a	20101108.144444	20101108.151443	8	0.013328	60	10	60-180	60	170	GapExp	0	260	2	3	0	target	0	600	-1000	129992	13.328	13.109	13.551
ProbeTrack11	17	ProbeTrack	11.2	SCS215a	20101108.144444	20101108.151450	8	0.013328	60	0	60-180	60	161	GapExp	0	261	2	45	1	target	1	587	707	130699	13.328	13.109	13.554
ProbeTrack11	17	ProbeTrack	11.2	SCS215a	20101108.144444	20101108.151457	8	0.013328	60	10	60-180	60	164	GapExp	0	262	2	1	1	target	1	680	660	131359	13.328	13.123	13.533
ProbeTrack11	17	ProbeTrack	11.2	SCS215a	20101108.144444	20101108.151504	8	0.013328	60	0	60-180	60	105	GapExp	0	263	2	45	1	target	1	587	707	132066	13.328	13.091	13.565
ProbeTrack11	17	ProbeTrack	11.2	SCS215a	20101108.144444	20101108.151511	8	0.013328	60	0	60-180	60	108	GapExp	0	264	2	3	0	distractor	1	773	614	132680	13.328	13.307	13.347
ProbeTrack11	17	ProbeTrack	11.2	SCS215a	20101108.144444	20101108.151517	8	0.013328	60	0	60-180	60	62	GapExp	0	265	2	0	1	target	1	840	580	133260	13.328	13.308	13.345
ProbeTrack11	17	ProbeTrack	11.2	SCS215a	20101108.144444	20101108.151523	8	0.013328	60	10	60-180	60	88	GapExp	0	266	2	0	0	distractor	1	973	514	133774	13.328	12.969	13.680
ProbeTrack11	17	ProbeTrack	11.2	SCS215a	20101108.144444	20101108.151529	8	0.013328	60	10	60-180	60	132	GapExp	0	267	2	0	0	distractor	1	667	667	134441	13.328	13.299	13.360
ProbeTrack11	17	ProbeTrack	11.2	SCS215a	20101108.144444	20101108.151535	8	0.013328	60	0	60-180	60	62	GapExp	0	268	2	0	1	target	1	1147	427	134868	13.328	13.310	13.348
ProbeTrack11	17	ProbeTrack	11.2	SCS215a	20101108.144444	20101108.151541	8	0.013328	60	0	60-180	60	129	GapExp	0	269	2	45	1	target	1	747	627	135495	13.328	13.093	13.564
ProbeTrack11	17	ProbeTrack	11.2	SCS215a	20101108.144444	20101108.151548	8	0.013328	60	10	60-180	60	157	GapExp	0	270	2	45	0	distractor	1	680	660	136155	13.328	12.949	13.691
ProbeTrack11	17	ProbeTrack	11.2	SCS215a	20101108.144444	20101108.151556	8	0.013328	60	10	60-180	60	111	GapExp	0	271	2	3	0	distractor	1	747	627	136782	13.328	13.106	13.550
ProbeTrack11	17	ProbeTrack	11.2	SCS215a	20101108.144444	20101108.151602	8	0.013328	60	0	60-180	60	83	GapExp	0	272	2	0	1	target	1	1186	407	137189	13.328	13.104	13.551
ProbeTrack11	17	ProbeTrack	11.2	SCS215a	20101108.144444	20101108.151608	8	0.013328	60	10	60-180	60	139	GapExp	0	273	2	0	1	target	1	320	840	138029	13.328	13.080	13.585
ProbeTrack11	17	ProbeTrack	11.2	SCS215a	20101108.144444	20101108.151615	8	0.013328	60	0	60-180	60	135	GapExp	0	274	2	1	0	distractor	1	707	647	138676	13.328	12.998	13.667
ProbeTrack11	17	ProbeTrack	11.2	SCS215a	20101108.144444	20101108.151621	8	0.013328	60	0	60-180	60	155	GapExp	0	275	2	45	0	distractor	1	747	627	139303	13.328	13.104	13.562
ProbeTrack11	17	ProbeTrack	11.2	SCS215a	20101108.144444	20101108.151630	8	0.013328	60	0	60-180	60	100	GapExp	0	276	2	45	1	target	1	600	700	140003	13.328	13.090	13.554
ProbeTrack11	17	ProbeTrack	11.2	SCS215a	20101108.144444	20101108.151636	8	0.013328	60	10	60-180	60	101	GapExp	0	277	2	3	0	target	0	707	-1000	139003	13.546	12.903	40.332
ProbeTrack11	17	ProbeTrack	11.2	SCS215a	20101108.144444	20101108.151643	8	0.013328	60	0	60-180	60	115	GapExp	0	278	2	3	1	target	1	733	634	139637	13.381	13.272	26.723
ProbeTrack11	17	ProbeTrack	11.2	SCS215a	20101108.144444	20101108.151649	8	0.013328	60	0	60-180	60	82	GapExp	0	279	2	1	1	target	1	720	640	140277	13.328	12.887	13.773
ProbeTrack11	17	ProbeTrack	11.2	SCS215a	20101108.144444	20101108.151655	8	0.013328	60	10	60-180	60	170	GapExp	0	280	2	0	0	target	0	680	-1000	139277	13.328	13.101	13.544
ProbeTrack11	17	ProbeTrack	11.2	SCS215a	20101108.144444	20101108.151704	8	0.013328	60	10	60-180	60	153	GapExp	0	281	2	3	0	distractor	1	787	607	139884	13.328	13.050	13.620
ProbeTrack11	17	ProbeTrack	11.2	SCS215a	20101108.144444	20101108.151711	8	0.013328	60	0	60-180	60	172	GapExp	0	282	2	3	1	target	1	720	640	140524	13.328	13.000	13.659
ProbeTrack11	17	ProbeTrack	11.2	SCS215a	20101108.144444	20101108.151718	8	0.013328	60	0	60-180	60	77	GapExp	0	283	2	0	1	target	1	733	634	141158	13.328	13.099	13.558
ProbeTrack11	17	ProbeTrack	11.2	SCS215a	20101108.144444	20101108.151724	8	0.013328	60	10	60-180	60	66	GapExp	0	284	2	3	1	target	1	574	713	141871	13.328	13.310	13.346
ProbeTrack11	17	ProbeTrack	11.2	SCS215a	20101108.144444	20101108.151730	8	0.013328	60	10	60-180	60	149	GapExp	0	285	2	0	0	distractor	1	800	600	142471	13.328	12.860	13.811
ProbeTrack11	17	ProbeTrack	11.2	SCS215a	20101108.144444	20101108.151736	8	0.013328	60	0	60-180	60	85	GapExp	0	286	2	45	0	distractor	1	813	594	143065	13.328	13.104	13.569
ProbeTrack11	17	ProbeTrack	11.2	SCS215a	20101108.144444	20101108.151743	8	0.013328	60	10	60-180	60	152	GapExp	0	287	2	3	1	target	1	480	760	143825	13.328	13.174	13.468
ProbeTrack11	17	ProbeTrack	11.2	SCS215a	20101108.144444	20101108.151750	8	0.013328	60	0	60-180	60	104	GapExp	0	288	2	0	1	target	1	747	627	144452	13.328	13.156	13.518
ProbeTrack11	17	ProbeTrack	11.2	SCS215a	20101108.144444	20101108.151756	8	0.013328	60	10	60-180	60	116	GapExp	0	289	2	45	1	target	1	707	647	145099	13.328	12.910	13.761
ProbeTrack11	17	ProbeTrack	11.2	SCS215a	20101108.144444	20101108.151803	8	0.013328	60	10	60-180	60	119	GapExp	0	290	2	0	1	target	1	667	667	145766	13.328	13.310	13.346
ProbeTrack11	17	ProbeTrack	11.2	SCS215a	20101108.144444	20101108.151809	8	0.013328	60	0	60-180	60	122	GapExp	0	291	2	1	0	distractor	1	813	594	146360	13.328	12.894	13.745
ProbeTrack11	17	ProbeTrack	11.2	SCS215a	20101108.144444	20101108.151816	8	0.013328	60	10	60-180	60	127	GapExp	0	292	2	1	0	distractor	1	640	680	147040	13.328	12.964	13.697
ProbeTrack11	17	ProbeTrack	11.2	SCS215a	20101108.144444	20101108.151822	8	0.013328	60	0	60-180	60	107	GapExp	0	293	2	1	1	target	1	813	594	147634	13.328	13.042	13.614
ProbeTrack11	17	ProbeTrack	11.2	SCS215a	20101108.144444	20101108.151829	8	0.013328	60	10	60-180	60	90	GapExp	0	294	2	3	0	distractor	1	667	667	148301	13.328	13.105	13.545
ProbeTrack11	17	ProbeTrack	11.2	SCS215a	20101108.144444	20101108.151835	8	0.013328	60	10	60-180	60	113	GapExp	0	295	2	0	0	distractor	1	853	574	148875	13.328	12.869	13.781
ProbeTrack11	17	ProbeTrack	11.2	SCS215a	20101108.144444	20101108.151841	8	0.013328	60	0	60-180	60	84	GapExp	0	296	2	3	1	target	1	680	660	149535	13.328	12.953	13.711
ProbeTrack11	17	ProbeTrack	11.2	SCS215a	20101108.144444	20101108.151847	8	0.013328	60	10	60-180	60	109	GapExp	0	297	2	3	1	target	1	400	800	150335	13.328	12.856	13.803
ProbeTrack11	17	ProbeTrack	11.2	SCS215a	20101108.144444	20101108.151853	8	0.013328	60	0	60-180	60	167	GapExp	0	298	2	1	0	distractor	1	627	687	151022	13.328	12.933	13.731
ProbeTrack11	17	ProbeTrack	11.2	SCS215a	20101108.144444	20101108.151901	8	0.013328	60	0	60-180	60	88	GapExp	0	299	2	3	0	distractor	1	907	547	151569	13.328	13.061	13.612
ProbeTrack11	17	ProbeTrack	11.2	SCS215a	20101108.144444	20101108.151907	8	0.013328	60	0	60-180	60	123	GapExp	0	300	2	1	0	distractor	1	627	687	152256	13.328	13.027	13.634
ProbeTrack11	17	ProbeTrack	11.2	SCS215a	20101108.144444	20101108.151914	8	0.013328	60	10	60-180	60	157	GapExp	0	301	2	3	1	distractor	0	667	-1000	151256	13.328	13.308	13.347
ProbeTrack11	17	ProbeTrack	11.2	SCS215a	20101108.144444	20101108.151920	8	0.013328	60	0	60-180	60	153	GapExp	0	302	2	1	1	target	1	494	753	152009	13.328	13.306	13.348
ProbeTrack11	17	ProbeTrack	11.2	SCS215a	20101108.144444	20101108.151927	8	0.013328	60	10	60-180	60	139	GapExp	0	303	2	1	0	distractor	1	773	614	152623	13.328	12.867	13.781
ProbeTrack11	17	ProbeTrack	11.2	SCS215a	20101108.144444	20101108.151933	8	0.013328	60	0	60-180	60	119	GapExp	0	304	2	1	1	target	1	600	700	153323	13.328	12.931	13.722
ProbeTrack11	17	ProbeTrack	11.2	SCS215a	20101108.144444	20101108.151939	8	0.013328	60	10	60-180	60	151	GapExp	0	305	2	45	0	distractor	1	667	667	153990	13.328	12.900	13.742
ProbeTrack11	17	ProbeTrack	11.2	SCS215a	20101108.144444	20101108.151947	8	0.013328	60	0	60-180	60	137	GapExp	0	306	2	3	0	distractor	1	560	720	154710	13.328	13.085	13.562
ProbeTrack11	17	ProbeTrack	11.2	SCS215a	20101108.144444	20101108.151953	8	0.013328	60	0	60-180	60	97	GapExp	0	307	2	1	1	distractor	0	467	-1000	153710	13.328	13.098	13.565
ProbeTrack11	17	ProbeTrack	11.2	SCS215a	20101108.144444	20101108.152000	8	0.013328	60	10	60-180	60	93	GapExp	0	308	2	45	1	target	1	587	707	154417	13.328	13.167	13.485
ProbeTrack11	17	ProbeTrack	11.2	SCS215a	20101108.144444	20101108.152006	8	0.013328	60	0	60-180	60	140	GapExp	0	309	2	45	0	distractor	1	653	674	155091	13.328	12.887	13.779
ProbeTrack11	17	ProbeTrack	11.2	SCS215a	20101108.144444	20101108.152014	8	0.013328	60	0	60-180	60	88	GapExp	0	310	2	3	0	distractor	1	747	627	155718	13.328	12.845	13.799
ProbeTrack11	17	ProbeTrack	11.2	SCS215a	20101108.144444	20101108.152020	8	0.013328	60	10	60-180	60	131	GapExp	0	311	2	45	1	target	1	587	707	156425	13.328	12.949	13.686
ProbeTrack11	17	ProbeTrack	11.2	SCS215a	20101108.144444	20101108.152027	8	0.013328	60	0	60-180	60	73	GapExp	0	312	2	1	0	distractor	1	773	614	157039	13.328	13.100	13.555
ProbeTrack11	17	ProbeTrack	11.2	SCS215a	20101108.144444	20101108.152035	8	0.013328	60	10	60-180	60	82	GapExp	0	313	2	0	1	target	1	534	733	157772	13.328	12.870	13.777
ProbeTrack11	17	ProbeTrack	11.2	SCS215a	20101108.144444	20101108.152040	8	0.013328	60	0	60-180	60	65	GapExp	0	314	2	0	0	distractor	1	720	640	158412	13.328	13.211	13.450
ProbeTrack11	17	ProbeTrack	11.2	SCS215a	20101108.144444	20101108.152046	8	0.013328	60	0	60-180	60	139	GapExp	0	315	2	1	1	target	1	694	653	159065	13.328	13.062	13.592
ProbeTrack11	17	ProbeTrack	11.2	SCS215a	20101108.144444	20101108.152053	8	0.013328	60	10	60-180	60	164	GapExp	0	316	2	3	0	distractor	1	827	587	159652	13.328	13.309	13.344
ProbeTrack11	17	ProbeTrack	11.2	SCS215a	20101108.144444	20101108.152100	8	0.013328	60	0	60-180	60	176	GapExp	0	317	2	0	0	distractor	1	813	594	160246	13.328	13.307	13.345
ProbeTrack11	17	ProbeTrack	11.2	SCS215a	20101108.144444	20101108.152107	8	0.013328	60	10	60-180	60	151	GapExp	0	318	2	45	0	target	0	520	-1000	159246	13.328	12.932	13.720
ProbeTrack11	17	ProbeTrack	11.2	SCS215a	20101108.144444	20101108.152114	8	0.013328	60	0	60-180	60	99	GapExp	0	319	2	3	1	target	1	600	700	159946	13.328	13.308	13.348
ProbeTrack11	17	ProbeTrack	11.2	SCS215a	20101108.144444	20101108.152120	8	0.013328	60	0	60-180	60	85	GapExp	0	320	2	1	1	target	1	720	640	160586	13.328	12.875	13.767
ProbeTrack11	17	ProbeTrack	11.2	SCS215a	20101108.144444	20101108.152126	8	0.013328	60	10	60-180	60	94	GapExp	0	321	2	3	1	target	1	747	627	161213	13.328	13.082	13.563
ProbeTrack11	17	ProbeTrack	11.2	SCS215a	20101108.144444	20101108.152132	8	0.013328	60	10	60-180	60	94	GapExp	0	322	2	1	0	distractor	1	733	634	161847	13.328	13.091	13.557
ProbeTrack11	17	ProbeTrack	11.2	SCS215a	20101108.144444	20101108.152138	8	0.013328	60	0	60-180	60	169	GapExp	0	323	2	3	0	distractor	1	653	674	162521	13.328	12.908	13.748
ProbeTrack11	17	ProbeTrack	11.2	SCS215a	20101108.144444	20101108.152145	8	0.013328	60	10	60-180	60	147	GapExp	0	324	2	45	0	distractor	1	560	720	163241	13.328	13.076	13.583
ProbeTrack11	17	ProbeTrack	11.2	SCS215a	20101108.144444	20101108.152152	8	0.013328	60	0	60-180	60	161	GapExp	0	325	2	0	0	distractor	1	1013	494	163735	13.328	13.012	13.645
ProbeTrack11	17	ProbeTrack	11.2	SCS215a	20101108.144444	20101108.152159	8	0.013328	60	10	60-180	60	62	GapExp	0	326	2	0	1	target	1	573	714	164449	13.328	13.108	13.559
ProbeTrack11	17	ProbeTrack	11.2	SCS215a	20101108.144444	20101108.152204	8	0.013328	60	0	60-180	60	131	GapExp	0	327	2	45	0	distractor	1	760	620	165069	13.328	13.105	13.539
ProbeTrack11	17	ProbeTrack	11.2	SCS215a	20101108.144444	20101108.152211	8	0.013328	60	0	60-180	60	145	GapExp	0	328	2	45	0	distractor	1	720	640	165709	13.328	12.905	13.753
ProbeTrack11	17	ProbeTrack	11.2	SCS215a	20101108.144444	20101108.152218	8	0.013328	60	0	60-180	60	150	GapExp	0	329	2	0	1	target	1	720	640	166349	13.328	12.864	13.793
ProbeTrack11	17	ProbeTrack	11.2	SCS215a	20101108.144444	20101108.152225	8	0.013328	60	0	60-180	60	179	GapExp	0	330	2	1	0	distractor	1	1320	340	166689	13.328	13.106	13.557
ProbeTrack11	17	ProbeTrack	11.2	SCS215a	20101108.144444	20101108.152233	8	0.013328	60	0	60-180	60	71	GapExp	0	331	2	45	1	target	1	800	600	167289	13.328	13.076	13.598
ProbeTrack11	17	ProbeTrack	11.2	SCS215a	20101108.144444	20101108.152239	8	0.013328	60	0	60-180	60	142	GapExp	0	332	2	0	0	distractor	1	600	700	167989	13.328	13.106	13.548
ProbeTrack11	17	ProbeTrack	11.2	SCS215a	20101108.144444	20101108.152246	8	0.013328	60	0	60-180	60	87	GapExp	0	333	2	3	1	distractor	0	640	-1000	166989	13.328	13.106	13.543
ProbeTrack11	17	ProbeTrack	11.2	SCS215a	20101108.144444	20101108.152251	8	0.013328	60	10	60-180	60	179	GapExp	0	334	2	3	0	distractor	1	973	514	167503	13.328	12.880	13.785
ProbeTrack11	17	ProbeTrack	11.2	SCS215a	20101108.144444	20101108.152259	8	0.013328	60	0	60-180	60	73	GapExp	0	335	2	3	1	target	1	667	667	168170	13.328	13.312	13.346
ProbeTrack11	17	ProbeTrack	11.2	SCS215a	20101108.144444	20101108.152304	8	0.013328	60	10	60-180	60	138	GapExp	0	336	2	3	1	target	1	707	647	168817	13.328	12.936	13.707
ProbeTrack11	17	ProbeTrack	11.2	SCS215a	20101108.144444	20101108.152311	8	0.013328	60	0	60-180	60	118	GapExp	0	337	2	3	1	target	1	1520	240	169057	13.328	13.305	13.349
ProbeTrack11	17	ProbeTrack	11.2	SCS215a	20101108.144444	20101108.152318	8	0.013328	60	10	60-180	60	169	GapExp	0	338	2	1	1	target	1	707	647	169704	13.328	12.862	13.785
ProbeTrack11	17	ProbeTrack	11.2	SCS215a	20101108.144444	20101108.152326	8	0.013328	60	10	60-180	60	145	GapExp	0	339	2	1	1	target	1	627	687	170391	13.328	12.848	13.804
ProbeTrack11	17	ProbeTrack	11.2	SCS215a	20101108.144444	20101108.152334	8	0.013328	60	0	60-180	60	167	GapExp	0	340	2	1	0	distractor	1	733	634	171025	13.328	13.309	13.346
ProbeTrack11	17	ProbeTrack	11.2	SCS215a	20101108.144444	20101108.152341	8	0.013328	60	0	60-180	60	165	GapExp	0	341	2	1	1	target	1	547	727	171752	13.328	13.308	13.349
ProbeTrack11	17	ProbeTrack	11.2	SCS215a	20101108.144444	20101108.152348	8	0.013328	60	10	60-180	60	160	GapExp	0	342	2	3	1	target	1	760	620	172372	13.328	13.308	13.348
ProbeTrack11	17	ProbeTrack	11.2	SCS215a	20101108.144444	20101108.152355	8	0.013328	60	0	60-180	60	134	GapExp	0	343	2	3	1	target	1	640	680	173052	13.328	13.308	13.347
ProbeTrack11	17	ProbeTrack	11.2	SCS215a	20101108.144444	20101108.152401	8	0.013328	60	10	60-180	60	91	GapExp	0	344	2	45	0	distractor	1	707	647	173699	13.328	13.308	13.346
ProbeTrack11	17	ProbeTrack	11.2	SCS215a	20101108.144444	20101108.152408	8	0.013328	60	10	60-180	60	83	GapExp	0	345	2	45	0	distractor	1	680	660	174359	13.328	13.270	13.377
ProbeTrack11	17	ProbeTrack	11.2	SCS215a	20101108.144444	20101108.152414	8	0.013328	60	10	60-180	60	111	GapExp	0	346	2	1	1	target	1	1040	480	174839	13.328	12.999	13.665
ProbeTrack11	17	ProbeTrack	11.2	SCS215a	20101108.144444	20101108.152421	8	0.013328	60	0	60-180	60	168	GapExp	0	347	2	3	1	target	1	507	747	175586	13.328	13.308	13.347
ProbeTrack11	17	ProbeTrack	11.2	SCS215a	20101108.144444	20101108.152428	8	0.013328	60	0	60-180	60	173	GapExp	0	348	2	0	1	target	1	574	713	176299	13.328	13.309	13.346
ProbeTrack11	17	ProbeTrack	11.2	SCS215a	20101108.144444	20101108.152436	8	0.013328	60	10	60-180	60	113	GapExp	0	349	2	45	1	target	1	520	740	177039	13.328	13.309	13.347
ProbeTrack11	17	ProbeTrack	11.2	SCS215a	20101108.144444	20101108.152443	8	0.013328	60	10	60-180	60	160	GapExp	0	350	2	3	0	target	0	907	-1000	176039	13.328	12.859	13.797
ProbeTrack11	17	ProbeTrack	11.2	SCS215a	20101108.144444	20101108.152450	8	0.013328	60	10	60-180	60	174	GapExp	0	351	2	0	1	target	1	534	733	176772	13.328	12.900	13.755
ProbeTrack11	17	ProbeTrack	11.2	SCS215a	20101108.144444	20101108.152457	8	0.013328	60	10	60-180	60	166	GapExp	0	352	2	3	1	target	1	1093	454	177226	13.328	13.288	13.354
ProbeTrack11	17	ProbeTrack	11.2	SCS215a	20101108.144444	20101108.152504	8	0.013328	60	10	60-180	60	165	GapExp	0	353	2	0	1	distractor	0	1186	-1000	176226	13.328	13.310	13.347
ProbeTrack11	17	ProbeTrack	11.2	SCS215a	20101108.144444	20101108.152513	8	0.013328	60	10	60-180	60	180	GapExp	0	354	2	0	1	target	1	654	673	176899	13.328	13.105	13.552
ProbeTrack11	17	ProbeTrack	11.2	SCS215a	20101108.144444	20101108.152520	8	0.013328	60	0	60-180	60	78	GapExp	0	355	2	3	0	distractor	1	1173	414	177313	13.328	13.053	13.605
ProbeTrack11	17	ProbeTrack	11.2	SCS215a	20101108.144444	20101108.152526	8	0.013328	60	10	60-180	60	81	GapExp	0	356	2	3	0	target	0	613	-1000	176313	13.328	13.301	13.347
ProbeTrack11	17	ProbeTrack	11.2	SCS215a	20101108.144444	20101108.152532	8	0.013328	60	0	60-180	60	82	GapExp	0	357	2	0	0	distractor	1	653	674	176987	13.328	13.004	13.637
ProbeTrack11	17	ProbeTrack	11.2	SCS215a	20101108.144444	20101108.152537	8	0.013328	60	0	60-180	60	141	GapExp	0	358	2	3	1	target	1	667	667	177654	13.328	13.172	13.472
ProbeTrack11	17	ProbeTrack	11.2	SCS215a	20101108.144444	20101108.152544	8	0.013328	60	0	60-180	60	107	GapExp	0	359	2	0	1	distractor	0	627	-1000	176654	13.328	13.087	13.571
ProbeTrack11	17	ProbeTrack	11.2	SCS215a	20101108.144444	20101108.152550	8	0.013328	60	0	60-180	60	168	GapExp	0	360	2	0	0	distractor	1	653	674	177328	13.328	13.111	13.548
ProbeTrack11	17	ProbeTrack	11.2	SCS215a	20101108.144444	20101108.152557	8	0.013328	60	10	60-180	60	103	GapExp	0	361	2	45	0	distractor	1	613	694	178022	13.328	13.000	13.664
ProbeTrack11	17	ProbeTrack	11.2	SCS215a	20101108.144444	20101108.152603	8	0.013328	60	0	60-180	60	103	GapExp	0	362	2	0	1	target	1	613	694	178716	13.328	12.913	13.742
ProbeTrack11	17	ProbeTrack	11.2	SCS215a	20101108.144444	20101108.152609	8	0.013328	60	0	60-180	60	66	GapExp	0	363	2	1	1	target	1	693	654	179370	13.328	13.304	13.354
ProbeTrack11	17	ProbeTrack	11.2	SCS215a	20101108.144444	20101108.152614	8	0.013328	60	0	60-180	60	170	GapExp	0	364	2	3	1	target	1	573	714	180084	13.328	13.259	13.396
ProbeTrack11	17	ProbeTrack	11.2	SCS215a	20101108.144444	20101108.152621	8	0.013328	60	10	60-180	60	158	GapExp	0	365	2	1	0	distractor	1	667	667	180751	13.328	12.854	13.796
ProbeTrack11	17	ProbeTrack	11.2	SCS215a	20101108.144444	20101108.152628	8	0.013328	60	0	60-180	60	133	GapExp	0	366	2	3	0	distractor	1	613	694	181445	13.328	13.300	13.349
ProbeTrack11	17	ProbeTrack	11.2	SCS215a	20101108.144444	20101108.152634	8	0.013328	60	0	60-180	60	91	GapExp	0	367	2	45	1	target	1	653	674	182119	13.328	13.309	13.345
ProbeTrack11	17	ProbeTrack	11.2	SCS215a	20101108.144444	20101108.152640	8	0.013328	60	0	60-180	60	105	GapExp	0	368	2	0	0	distractor	1	747	627	182746	13.329	12.966	13.693
ProbeTrack11	17	ProbeTrack	11.2	SCS215a	20101108.144444	20101108.152647	8	0.013328	60	0	60-180	60	89	GapExp	0	369	2	3	0	distractor	1	640	680	183426	13.328	13.085	13.565
ProbeTrack11	17	ProbeTrack	11.2	SCS215a	20101108.144444	20101108.152653	8	0.013328	60	10	60-180	60	143	GapExp	0	370	2	0	0	distractor	1	640	680	184106	13.328	13.097	13.548
ProbeTrack11	17	ProbeTrack	11.2	SCS215a	20101108.144444	20101108.152700	8	0.013328	60	10	60-180	60	172	GapExp	0	371	2	1	1	target	1	640	680	184786	13.328	13.084	13.559
ProbeTrack11	17	ProbeTrack	11.2	SCS215a	20101108.144444	20101108.152706	8	0.013328	60	0	60-180	60	114	GapExp	0	372	2	0	1	target	1	827	587	185373	13.328	13.085	13.571
ProbeTrack11	17	ProbeTrack	11.2	SCS215a	20101108.144444	20101108.152713	8	0.013328	60	10	60-180	60	109	GapExp	0	373	2	45	0	distractor	1	587	707	186080	13.328	13.306	13.350
ProbeTrack11	17	ProbeTrack	11.2	SCS215a	20101108.144444	20101108.152720	8	0.013328	60	0	60-180	60	80	GapExp	0	374	2	0	1	target	1	573	714	186794	13.328	13.310	13.345
ProbeTrack11	17	ProbeTrack	11.2	SCS215a	20101108.144444	20101108.152725	8	0.013328	60	10	60-180	60	94	GapExp	0	375	2	1	0	distractor	1	627	687	187481	13.328	13.092	13.559
ProbeTrack11	17	ProbeTrack	11.2	SCS215a	20101108.144444	20101108.152731	8	0.013328	60	10	60-180	60	127	GapExp	0	376	2	1	1	target	1	640	680	188161	13.328	13.308	13.349
ProbeTrack11	17	ProbeTrack	11.2	SCS215a	20101108.144444	20101108.152738	8	0.013328	60	0	60-180	60	147	GapExp	0	377	2	3	1	target	1	467	767	188928	13.328	13.287	13.369
ProbeTrack11	17	ProbeTrack	11.2	SCS215a	20101108.144444	20101108.152744	8	0.013328	60	10	60-180	60	163	GapExp	0	378	2	1	0	distractor	1	707	647	189575	13.328	12.918	13.751
ProbeTrack11	17	ProbeTrack	11.2	SCS215a	20101108.144444	20101108.152752	8	0.013328	60	10	60-180	60	152	GapExp	0	379	2	1	0	distractor	1	693	654	190229	13.328	13.308	13.348
ProbeTrack11	17	ProbeTrack	11.2	SCS215a	20101108.144444	20101108.152759	8	0.013328	60	0	60-180	60	175	GapExp	0	380	2	1	0	distractor	1	627	687	190916	13.328	13.303	13.347
ProbeTrack11	17	ProbeTrack	11.2	SCS215a	20101108.144444	20101108.152806	8	0.013328	60	10	60-180	60	162	GapExp	0	381	2	1	0	distractor	1	773	614	191530	13.328	13.307	13.347
ProbeTrack11	17	ProbeTrack	11.2	SCS215a	20101108.144444	20101108.152813	8	0.013328	60	0	60-180	60	152	GapExp	0	382	2	1	0	distractor	1	800	600	192130	13.328	12.987	13.669
ProbeTrack11	17	ProbeTrack	11.2	SCS215a	20101108.144444	20101108.152820	8	0.013328	60	0	60-180	60	153	GapExp	0	383	2	3	0	distractor	1	560	720	192850	13.328	13.011	13.645
ProbeTrack11	17	ProbeTrack	11.2	SCS215a	20101108.144444	20101108.152826	8	0.013328	60	10	60-180	60	138	GapExp	0	384	2	45	0	distractor	1	653	674	193524	13.328	13.121	13.528
ProbeTrack11	17	ProbeTrack	11.2	SCS215a	20101108.144444	20101108.152833	8	0.013328	60	0	60-180	60	152	GapExp	0	385	2	0	1	distractor	0	680	-1000	192524	13.328	13.308	13.351
ProbeTrack11	17	ProbeTrack	11.2	SCS215a	20101108.144444	20101108.152840	8	0.013328	60	10	60-180	60	145	GapExp	0	386	2	0	1	distractor	0	1266	-1000	191524	13.328	12.843	13.808
ProbeTrack11	17	ProbeTrack	11.2	SCS215a	20101108.144444	20101108.152847	8	0.013328	60	0	60-180	60	108	GapExp	0	387	2	1	0	distractor	1	667	667	192191	13.328	12.881	13.775
ProbeTrack11	17	ProbeTrack	11.2	SCS215a	20101108.144444	20101108.152853	8	0.013328	60	10	60-180	60	83	GapExp	0	388	2	0	0	target	0	1173	-1000	191191	13.328	12.941	13.717
ProbeTrack11	17	ProbeTrack	11.2	SCS215a	20101108.144444	20101108.152859	8	0.013328	60	10	60-180	60	103	GapExp	0	389	2	45	0	target	0	1147	-1000	190191	13.328	13.109	13.549
ProbeTrack11	17	ProbeTrack	11.2	SCS215a	20101108.144444	20101108.152906	8	0.013328	60	0	60-180	60	112	GapExp	0	390	2	3	0	distractor	1	707	647	190838	13.328	12.900	13.770
ProbeTrack11	17	ProbeTrack	11.2	SCS215a	20101108.144444	20101108.152912	8	0.013328	60	10	60-180	60	143	GapExp	0	391	2	1	1	target	1	787	607	191445	13.328	12.938	13.732
ProbeTrack11	17	ProbeTrack	11.2	SCS215a	20101108.144444	20101108.152919	8	0.013328	60	0	60-180	60	177	GapExp	0	392	2	45	1	target	1	507	747	192192	13.328	13.100	13.557
ProbeTrack11	17	ProbeTrack	11.2	SCS215a	20101108.144444	20101108.152927	8	0.013328	60	10	60-180	60	148	GapExp	0	393	2	3	0	distractor	1	707	647	192839	13.328	13.306	13.350
ProbeTrack11	17	ProbeTrack	11.2	SCS215a	20101108.144444	20101108.152934	8	0.013328	60	0	60-180	60	129	GapExp	0	394	2	0	1	target	1	587	707	193546	13.328	12.891	13.759
ProbeTrack11	17	ProbeTrack	11.2	SCS215a	20101108.144444	20101108.152940	8	0.013328	60	10	60-180	60	163	GapExp	0	395	2	0	0	distractor	1	880	560	194106	13.328	13.016	13.640
ProbeTrack11	17	ProbeTrack	11.2	SCS215a	20101108.144444	20101108.152947	8	0.013328	60	10	60-180	60	73	GapExp	0	396	2	1	0	distractor	1	734	633	194739	13.328	13.000	13.674
ProbeTrack11	17	ProbeTrack	11.2	SCS215a	20101108.144444	20101108.152953	8	0.013328	60	10	60-180	60	82	GapExp	0	397	2	1	1	target	1	613	694	195433	13.328	13.281	13.377
ProbeTrack11	17	ProbeTrack	11.2	SCS215a	20101108.144444	20101108.152958	8	0.013328	60	0	60-180	60	77	GapExp	0	398	2	0	0	distractor	1	707	647	196080	13.328	12.918	13.749
ProbeTrack11	17	ProbeTrack	11.2	SCS215a	20101108.144444	20101108.153004	8	0.013328	60	10	60-180	60	71	GapExp	0	399	2	3	0	distractor	1	867	567	196647	13.328	13.309	13.346
ProbeTrack11	17	ProbeTrack	11.2	SCS215a	20101108.144444	20101108.153010	8	0.013328	60	0	60-180	60	128	GapExp	0	400	2	3	1	target	1	640	680	197327	13.328	12.970	13.683
ProbeTrack11	17	ProbeTrack	11.2	SCS215a	20101108.144444	20101108.153016	8	0.013328	60	0	60-180	60	76	GapExp	0	401	2	0	0	distractor	1	640	680	198007	13.328	13.099	13.551
ProbeTrack11	17	ProbeTrack	11.2	SCS215a	20101108.144444	20101108.153023	8	0.013328	60	10	60-180	60	118	GapExp	0	402	2	1	1	target	1	773	614	198621	13.328	13.098	13.557
ProbeTrack11	17	ProbeTrack	11.2	SCS215a	20101108.144444	20101108.153029	8	0.013328	60	0	60-180	60	119	GapExp	0	403	2	3	0	distractor	1	640	680	199301	13.328	13.107	13.565
ProbeTrack11	17	ProbeTrack	11.2	SCS215a	20101108.144444	20101108.153036	8	0.013328	60	10	60-180	60	160	GapExp	0	404	2	3	1	target	1	560	720	200021	13.328	13.304	13.343
ProbeTrack11	17	ProbeTrack	11.2	SCS215a	20101108.144444	20101108.153042	8	0.013328	60	0	60-180	60	155	GapExp	0	405	2	0	0	distractor	1	680	660	200681	13.328	13.309	13.349
ProbeTrack11	17	ProbeTrack	11.2	SCS215a	20101108.144444	20101108.153049	8	0.013328	60	0	60-180	60	174	GapExp	0	406	2	1	1	target	1	507	747	201428	13.328	12.889	13.780
ProbeTrack11	17	ProbeTrack	11.2	SCS215a	20101108.144444	20101108.153056	8	0.013328	60	0	60-180	60	159	GapExp	0	407	2	0	1	target	1	613	694	202122	13.328	12.976	13.673
ProbeTrack11	17	ProbeTrack	11.2	SCS215a	20101108.144444	20101108.153102	8	0.013328	60	10	60-180	60	156	GapExp	0	408	2	45	1	target	1	454	773	202895	13.328	13.001	13.662
ProbeTrack11	17	ProbeTrack	11.2	SCS215a	20101108.144444	20101108.153109	8	0.013328	60	10	60-180	60	98	GapExp	0	409	2	0	1	target	1	614	693	203588	13.386	12.905	27.123
ProbeTrack11	17	ProbeTrack	11.2	SCS215a	20101108.144444	20101108.153116	8	0.013328	60	0	60-180	60	93	GapExp	0	410	2	1	1	target	1	587	707	204295	13.328	12.857	13.809
ProbeTrack11	17	ProbeTrack	11.2	SCS215a	20101108.144444	20101108.153121	8	0.013328	60	10	60-180	60	103	GapExp	0	411	2	45	1	target	1	507	747	205042	13.328	12.869	13.794
ProbeTrack11	17	ProbeTrack	11.2	SCS215a	20101108.144444	20101108.153128	8	0.013328	60	0	60-180	60	81	GapExp	0	412	2	45	1	target	1	507	747	205789	13.328	13.097	13.565
ProbeTrack11	17	ProbeTrack	11.2	SCS215a	20101108.144444	20101108.153134	8	0.013328	60	10	60-180	60	128	GapExp	0	413	2	45	0	distractor	1	640	680	206469	13.328	13.097	13.544
ProbeTrack11	17	ProbeTrack	11.2	SCS215a	20101108.144444	20101108.153141	8	0.013328	60	0	60-180	60	163	GapExp	0	414	2	0	1	target	1	707	647	207116	13.328	13.309	13.347
ProbeTrack11	17	ProbeTrack	11.2	SCS215a	20101108.144444	20101108.153148	8	0.013328	60	10	60-180	60	161	GapExp	0	415	2	45	0	distractor	1	627	687	207803	13.328	13.106	13.559
ProbeTrack11	17	ProbeTrack	11.2	SCS215a	20101108.144444	20101108.153155	8	0.013328	60	0	60-180	60	123	GapExp	0	416	2	1	0	distractor	1	707	647	208450	13.328	13.097	13.552
ProbeTrack11	17	ProbeTrack	11.2	SCS215a	20101108.144444	20101108.153202	8	0.013328	60	0	60-180	60	80	GapExp	0	417	2	45	0	distractor	1	933	534	208984	13.328	12.865	13.798
ProbeTrack11	17	ProbeTrack	11.2	SCS215a	20101108.144444	20101108.153208	8	0.013328	60	10	60-180	60	132	GapExp	0	418	2	45	0	distractor	1	627	687	209671	13.328	13.024	13.633
ProbeTrack11	17	ProbeTrack	11.2	SCS215a	20101108.144444	20101108.153216	8	0.013328	60	10	60-180	60	64	GapExp	0	419	2	0	1	target	1	933	534	210205	13.328	12.883	13.778
ProbeTrack11	17	ProbeTrack	11.2	SCS215a	20101108.144444	20101108.153221	8	0.013328	60	10	60-180	60	89	GapExp	0	420	2	0	1	target	1	600	700	210905	13.328	13.310	13.346
ProbeTrack11	17	ProbeTrack	11.2	SCS215a	20101108.144444	20101108.153227	8	0.013328	60	10	60-180	60	162	GapExp	0	421	2	3	1	target	1	560	720	211625	13.328	13.305	13.347
ProbeTrack11	17	ProbeTrack	11.2	SCS215a	20101108.144444	20101108.153234	8	0.013328	60	0	60-180	60	159	GapExp	0	422	2	45	0	distractor	1	1520	240	211865	13.328	13.295	13.352
ProbeTrack11	17	ProbeTrack	11.2	SCS215a	20101108.144444	20101108.153242	8	0.013328	60	10	60-180	60	117	GapExp	0	423	2	1	0	target	0	800	-1000	210865	13.328	13.308	13.348
ProbeTrack11	17	ProbeTrack	11.2	SCS215a	20101108.144444	20101108.153248	8	0.013328	60	0	60-180	60	70	GapExp	0	424	2	3	1	target	1	653	674	211539	13.328	13.305	13.350
ProbeTrack11	17	ProbeTrack	11.2	SCS215a	20101108.144444	20101108.153254	8	0.013328	60	0	60-180	60	121	GapExp	0	425	2	45	1	target	1	627	687	212226	13.328	13.309	13.346
ProbeTrack11	17	ProbeTrack	11.2	SCS215a	20101108.144444	20101108.153301	8	0.013328	60	10	60-180	60	69	GapExp	0	426	2	3	0	distractor	1	773	614	212840	13.328	13.095	13.573
ProbeTrack11	17	ProbeTrack	11.2	SCS215a	20101108.144444	20101108.153307	8	0.013328	60	10	60-180	60	85	GapExp	0	427	2	1	1	target	1	560	720	213560	13.328	13.310	13.346
ProbeTrack11	17	ProbeTrack	11.2	SCS215a	20101108.144444	20101108.153312	8	0.013328	60	10	60-180	60	158	GapExp	0	428	2	0	1	target	1	1040	480	214040	13.328	13.100	13.551
ProbeTrack11	17	ProbeTrack	11.2	SCS215a	20101108.144444	20101108.153320	8	0.013328	60	0	60-180	60	174	GapExp	0	429	2	1	0	distractor	1	760	620	214660	13.328	12.997	13.665
ProbeTrack11	17	ProbeTrack	11.2	SCS215a	20101108.144444	20101108.153327	8	0.013328	60	0	60-180	60	125	GapExp	0	430	2	0	1	target	1	613	694	215354	13.328	12.913	13.752
ProbeTrack11	17	ProbeTrack	11.2	SCS215a	20101108.144444	20101108.153333	8	0.013328	60	0	60-180	60	84	GapExp	0	431	2	45	1	target	1	574	713	216067	13.328	13.091	13.556
ProbeTrack11	17	ProbeTrack	11.2	SCS215a	20101108.144444	20101108.153340	8	0.013328	60	10	60-180	60	160	GapExp	0	432	2	1	1	target	1	707	647	216714	13.328	13.113	13.550
ProbeTrack11	17	ProbeTrack	11.2	SCS215a	20101108.144444	20101108.153347	8	0.013328	60	10	60-180	60	110	GapExp	0	433	2	1	1	target	1	827	587	217301	13.328	13.114	13.538
ProbeTrack11	17	ProbeTrack	11.2	SCS215a	20101108.144444	20101108.153353	8	0.013328	60	10	60-180	60	104	GapExp	0	434	2	0	1	target	1	773	614	217915	13.328	12.865	13.790
ProbeTrack11	17	ProbeTrack	11.2	SCS215a	20101108.144444	20101108.153359	8	0.013328	60	0	60-180	60	140	GapExp	0	435	2	45	0	distractor	1	627	687	218602	13.328	12.902	13.759
ProbeTrack11	17	ProbeTrack	11.2	SCS215a	20101108.144444	20101108.153406	8	0.013328	60	0	60-180	60	162	GapExp	0	436	2	0	0	distractor	1	653	674	219276	13.328	13.106	13.551
ProbeTrack11	17	ProbeTrack	11.2	SCS215a	20101108.144444	20101108.153413	8	0.013328	60	10	60-180	60	177	GapExp	0	437	2	0	1	target	1	587	707	219983	13.328	13.105	13.544
ProbeTrack11	17	ProbeTrack	11.2	SCS215a	20101108.144444	20101108.153422	8	0.013328	60	0	60-180	60	171	GapExp	0	438	2	45	1	target	1	534	733	220716	13.328	13.084	13.565
ProbeTrack11	17	ProbeTrack	11.2	SCS215a	20101108.144444	20101108.153429	8	0.013328	60	0	60-180	60	164	GapExp	0	439	2	0	0	distractor	1	693	654	221370	13.328	13.003	13.651
ProbeTrack11	17	ProbeTrack	11.2	SCS215a	20101108.144444	20101108.153436	8	0.013328	60	10	60-180	60	172	GapExp	0	440	2	3	0	distractor	1	547	727	222097	13.328	12.906	13.743
ProbeTrack11	17	ProbeTrack	11.2	SCS215a	20101108.144444	20101108.153443	8	0.013328	60	0	60-180	60	85	GapExp	0	441	2	3	0	distractor	1	1306	347	222444	13.328	13.108	13.556
ProbeTrack11	17	ProbeTrack	11.2	SCS215a	20101108.144444	20101108.153450	8	0.013328	60	0	60-180	60	153	GapExp	0	442	2	1	1	target	1	547	727	223171	13.328	13.098	13.556
ProbeTrack11	17	ProbeTrack	11.2	SCS215a	20101108.144444	20101108.153456	8	0.013328	60	10	60-180	60	76	GapExp	0	443	2	3	1	target	1	560	720	223891	13.328	13.100	13.541
ProbeTrack11	17	ProbeTrack	11.2	SCS215a	20101108.144444	20101108.153502	8	0.013328	60	10	60-180	60	103	GapExp	0	444	2	1	0	distractor	1	600	700	224591	13.328	13.067	13.609
ProbeTrack11	17	ProbeTrack	11.2	SCS215a	20101108.144444	20101108.153508	8	0.013328	60	10	60-180	60	146	GapExp	0	445	2	1	1	target	1	747	627	225218	13.328	13.032	13.625
ProbeTrack11	17	ProbeTrack	11.2	SCS215a	20101108.144444	20101108.153515	8	0.013328	60	0	60-180	60	159	GapExp	0	446	2	1	1	target	1	587	707	225925	13.328	13.311	13.345
ProbeTrack11	17	ProbeTrack	11.2	SCS215a	20101108.144444	20101108.153521	8	0.013328	60	0	60-180	60	133	GapExp	0	447	2	3	0	distractor	1	600	700	226625	13.328	13.298	13.351
ProbeTrack11	17	ProbeTrack	11.2	SCS215a	20101108.144444	20101108.153528	8	0.013328	60	0	60-180	60	106	GapExp	0	448	2	3	1	target	1	574	713	227338	13.328	13.186	13.471
ProbeTrack11	17	ProbeTrack	11.2	SCS215a	20101108.144444	20101108.153534	8	0.013328	60	10	60-180	60	176	GapExp	0	449	2	45	1	target	1	547	727	228065	13.366	13.099	26.667
ProbeTrack11	17	ProbeTrack	11.2	SCS215a	20101108.144444	20101108.153541	8	0.013328	60	10	60-180	60	142	GapExp	0	450	2	0	1	target	1	520	740	228805	13.328	13.308	13.347
