exp	sub	code	rev	comp	runtime	trialtime	nstim	refreshdur	cuedur	gapdur	gapOnsetRange	durPostProbe	gapOnsetTime	blocktype	prac	trial	ntargets	soa	probeTarget	resp	acc	rt	pts	tpts	meanFrameDur	minFrameDur	maxFrameDur
ProbeTrack11	20	ProbeTrack	11.2	SCS215a	20101115.130105	20101115.130127	8	0.013315	60	0	60-180	60	168	NoGap	1	1	2	1	0	distractor	1	534	733	733	13.328	13.293	13.363
ProbeTrack11	20	ProbeTrack	11.2	SCS215a	20101115.130105	20101115.130137	8	0.013315	60	0	60-180	60	110	NoGap	1	2	2	45	0	distractor	1	440	780	1513	13.328	13.248	13.442
ProbeTrack11	20	ProbeTrack	11.2	SCS215a	20101115.130105	20101115.130147	8	0.013315	60	0	60-180	60	87	NoGap	1	3	2	3	1	target	1	334	833	2346	13.328	13.293	13.363
ProbeTrack11	20	ProbeTrack	11.2	SCS215a	20101115.130105	20101115.130153	8	0.013315	60	0	60-180	60	139	NoGap	1	4	2	45	1	target	1	467	767	3113	13.328	13.285	13.397
ProbeTrack11	20	ProbeTrack	11.2	SCS215a	20101115.130105	20101115.130200	8	0.013315	60	0	60-180	60	123	NoGap	1	5	2	45	1	target	1	387	807	3920	13.328	13.222	13.411
ProbeTrack11	20	ProbeTrack	11.2	SCS215a	20101115.130105	20101115.130209	8	0.013315	60	0	60-180	60	144	NoGap	1	6	2	45	0	distractor	1	374	813	4733	13.328	13.292	13.363
ProbeTrack11	20	ProbeTrack	11.2	SCS215a	20101115.130105	20101115.130216	8	0.013315	60	0	60-180	60	171	NoGap	1	7	2	0	0	distractor	1	414	793	5526	13.328	13.293	13.363
ProbeTrack11	20	ProbeTrack	11.2	SCS215a	20101115.130105	20101115.130223	8	0.013315	60	0	60-180	60	98	NoGap	1	8	2	1	1	target	1	400	800	6326	13.328	13.293	13.364
ProbeTrack11	20	ProbeTrack	11.2	SCS215a	20101115.130105	20101115.130230	8	0.013315	60	0	60-180	60	75	NoGap	1	9	2	0	1	target	1	400	800	7126	13.328	13.293	13.363
ProbeTrack11	20	ProbeTrack	11.2	SCS215a	20101115.130105	20101115.130235	8	0.013315	60	0	60-180	60	140	NoGap	1	10	2	45	0	distractor	1	387	807	7933	13.328	13.289	13.364
ProbeTrack11	20	ProbeTrack	11.2	SCS215a	20101115.130105	20101115.130242	8	0.013315	60	0	60-180	60	160	NoGap	1	11	2	45	1	target	1	414	793	8726	13.328	13.290	13.366
ProbeTrack11	20	ProbeTrack	11.2	SCS215a	20101115.130105	20101115.130251	8	0.013315	60	0	60-180	60	141	NoGap	1	12	2	0	0	distractor	1	400	800	9526	13.382	13.048	26.656
ProbeTrack11	20	ProbeTrack	11.2	SCS215a	20101115.130105	20101115.130257	8	0.013315	60	0	60-180	60	73	NoGap	1	13	2	3	0	distractor	1	440	780	10306	13.328	13.226	13.397
ProbeTrack11	20	ProbeTrack	11.2	SCS215a	20101115.130105	20101115.130302	8	0.013315	60	0	60-180	60	176	NoGap	1	14	2	1	1	target	1	307	847	11153	13.328	13.170	13.518
ProbeTrack11	20	ProbeTrack	11.2	SCS215a	20101115.130105	20101115.130309	8	0.013315	60	0	60-180	60	66	NoGap	1	15	2	0	0	distractor	1	347	827	11980	13.328	13.293	13.363
ProbeTrack11	20	ProbeTrack	11.2	SCS215a	20101115.130105	20101115.130314	8	0.013315	60	0	60-180	60	72	NoGap	1	16	2	3	0	distractor	1	400	800	12780	13.328	12.981	13.677
ProbeTrack11	20	ProbeTrack	11.2	SCS215a	20101115.130105	20101115.130319	8	0.013315	60	0	60-180	60	107	NoGap	1	17	2	3	0	distractor	1	480	760	13540	13.328	13.293	13.363
ProbeTrack11	20	ProbeTrack	11.2	SCS215a	20101115.130105	20101115.130325	8	0.013315	60	0	60-180	60	71	NoGap	1	18	2	0	1	target	1	374	813	14353	13.328	13.241	13.382
ProbeTrack11	20	ProbeTrack	11.2	SCS215a	20101115.130105	20101115.130330	8	0.013315	60	0	60-180	60	149	NoGap	1	19	2	3	1	target	1	347	827	15180	13.328	13.292	13.364
ProbeTrack11	20	ProbeTrack	11.2	SCS215a	20101115.130105	20101115.130337	8	0.013315	60	0	60-180	60	124	NoGap	1	20	2	1	1	target	1	360	820	16000	13.328	13.227	13.394
ProbeTrack11	20	ProbeTrack	11.2	SCS215a	20101115.130105	20101115.130343	8	0.013315	60	0	60-180	60	119	NoGap	1	21	2	0	0	distractor	1	414	793	16793	13.328	13.293	13.365
ProbeTrack11	20	ProbeTrack	11.2	SCS215a	20101115.130105	20101115.130349	8	0.013315	60	0	60-180	60	88	NoGap	1	22	2	45	1	target	1	374	813	17606	13.328	13.293	13.363
ProbeTrack11	20	ProbeTrack	11.2	SCS215a	20101115.130105	20101115.130355	8	0.013315	60	0	60-180	60	69	NoGap	1	23	2	45	0	distractor	1	400	800	18406	13.328	13.293	13.363
ProbeTrack11	20	ProbeTrack	11.2	SCS215a	20101115.130105	20101115.130401	8	0.013315	60	0	60-180	60	156	NoGap	1	24	2	1	0	distractor	1	440	780	19186	13.328	13.158	13.473
ProbeTrack11	20	ProbeTrack	11.2	SCS215a	20101115.130105	20101115.130409	8	0.013315	60	0	60-180	60	128	NoGap	1	25	2	1	1	target	1	440	780	19966	13.328	13.293	13.364
ProbeTrack11	20	ProbeTrack	11.2	SCS215a	20101115.130105	20101115.130415	8	0.013315	60	0	60-180	60	121	NoGap	1	26	2	3	1	target	1	374	813	20779	13.328	13.120	13.535
ProbeTrack11	20	ProbeTrack	11.2	SCS215a	20101115.130105	20101115.130421	8	0.013315	60	0	60-180	60	121	NoGap	1	27	2	0	1	target	1	307	847	21626	13.328	13.293	13.363
ProbeTrack11	20	ProbeTrack	11.2	SCS215a	20101115.130105	20101115.130427	8	0.013315	60	0	60-180	60	74	NoGap	1	28	2	0	1	target	1	334	833	22459	13.328	13.293	13.363
ProbeTrack11	20	ProbeTrack	11.2	SCS215a	20101115.130105	20101115.130432	8	0.013315	60	0	60-180	60	176	NoGap	1	29	2	0	1	target	1	374	813	23272	13.328	13.293	13.363
ProbeTrack11	20	ProbeTrack	11.2	SCS215a	20101115.130105	20101115.130439	8	0.013315	60	0	60-180	60	162	NoGap	1	30	2	1	1	target	1	334	833	24105	13.328	13.293	13.363
ProbeTrack11	20	ProbeTrack	11.2	SCS215a	20101115.130105	20101115.130445	8	0.013315	60	0	60-180	60	176	NoGap	1	31	2	0	0	distractor	1	574	713	24818	13.328	13.121	13.570
ProbeTrack11	20	ProbeTrack	11.2	SCS215a	20101115.130105	20101115.130452	8	0.013315	60	0	60-180	60	120	NoGap	1	32	2	3	1	target	1	374	813	25631	13.328	13.293	13.363
ProbeTrack11	20	ProbeTrack	11.2	SCS215a	20101115.130105	20101115.130500	8	0.013315	60	0	60-180	60	101	NoGap	1	33	2	45	1	target	1	467	767	26398	13.328	13.249	13.441
ProbeTrack11	20	ProbeTrack	11.2	SCS215a	20101115.130105	20101115.130507	8	0.013315	60	0	60-180	60	102	NoGap	1	34	2	3	0	distractor	1	440	780	27178	13.328	13.290	13.367
ProbeTrack11	20	ProbeTrack	11.2	SCS215a	20101115.130105	20101115.130513	8	0.013315	60	0	60-180	60	180	NoGap	1	35	2	3	1	target	1	414	793	27971	13.328	13.293	13.363
ProbeTrack11	20	ProbeTrack	11.2	SCS215a	20101115.130105	20101115.130522	8	0.013315	60	0	60-180	60	62	NoGap	1	36	2	3	0	distractor	1	440	780	28751	13.327	13.187	13.363
ProbeTrack11	20	ProbeTrack	11.2	SCS215a	20101115.130105	20101115.130527	8	0.013315	60	0	60-180	60	64	NoGap	1	37	2	1	0	distractor	1	387	807	29558	13.328	13.290	13.365
ProbeTrack11	20	ProbeTrack	11.2	SCS215a	20101115.130105	20101115.130532	8	0.013315	60	0	60-180	60	90	NoGap	1	38	2	1	0	distractor	1	374	813	30371	13.328	13.055	13.602
ProbeTrack11	20	ProbeTrack	11.2	SCS215a	20101115.130105	20101115.130537	8	0.013315	60	0	60-180	60	156	NoGap	1	39	2	45	0	distractor	1	360	820	31191	13.328	13.289	13.363
ProbeTrack11	20	ProbeTrack	11.2	SCS215a	20101115.130105	20101115.130544	8	0.013315	60	0	60-180	60	67	NoGap	1	40	2	1	0	distractor	1	427	787	31978	13.328	13.294	13.363
ProbeTrack11	20	ProbeTrack	11.2	SCS215a	20101115.130636	20101115.130704	8	0.013327	60	10	60-180	60	145	GapPrac	1	1	2	1	1	target	1	600	700	32678	13.328	13.082	13.571
ProbeTrack11	20	ProbeTrack	11.2	SCS215a	20101115.130636	20101115.130712	8	0.013327	60	0	60-180	60	123	GapPrac	1	2	2	3	1	target	1	507	747	33425	13.328	13.303	13.346
ProbeTrack11	20	ProbeTrack	11.2	SCS215a	20101115.130636	20101115.130718	8	0.013327	60	0	60-180	60	82	GapPrac	1	3	2	0	0	distractor	1	334	833	34258	13.328	13.308	13.346
ProbeTrack11	20	ProbeTrack	11.2	SCS215a	20101115.130636	20101115.130724	8	0.013327	60	10	60-180	60	164	GapPrac	1	4	2	0	0	distractor	1	347	827	35085	13.328	12.969	13.702
ProbeTrack11	20	ProbeTrack	11.2	SCS215a	20101115.130636	20101115.130730	8	0.013327	60	0	60-180	60	122	GapPrac	1	5	2	1	1	target	1	320	840	35925	13.328	12.848	13.803
ProbeTrack11	20	ProbeTrack	11.2	SCS215a	20101115.130636	20101115.130736	8	0.013327	60	10	60-180	60	136	GapPrac	1	6	2	3	1	target	1	520	740	36665	13.328	13.098	13.563
ProbeTrack11	20	ProbeTrack	11.2	SCS215a	20101115.130636	20101115.130742	8	0.013327	60	0	60-180	60	177	GapPrac	1	7	2	45	0	distractor	1	467	767	37432	13.328	13.097	13.560
ProbeTrack11	20	ProbeTrack	11.2	SCS215a	20101115.130636	20101115.130749	8	0.013327	60	10	60-180	60	142	GapPrac	1	8	2	1	0	distractor	1	347	827	38259	13.484	12.934	39.999
ProbeTrack11	20	ProbeTrack	11.2	SCS215a	20101115.130636	20101115.130756	8	0.013327	60	0	60-180	60	79	GapPrac	1	9	2	0	0	distractor	1	467	767	39026	13.328	13.295	13.361
ProbeTrack11	20	ProbeTrack	11.2	SCS215a	20101115.130636	20101115.130801	8	0.013327	60	10	60-180	60	160	GapPrac	1	10	2	1	1	target	1	347	827	39853	13.328	13.310	13.346
ProbeTrack11	20	ProbeTrack	11.2	SCS215a	20101115.130636	20101115.130807	8	0.013327	60	10	60-180	60	174	GapPrac	1	11	2	0	1	target	1	467	767	40620	13.328	13.293	13.378
ProbeTrack11	20	ProbeTrack	11.2	SCS215a	20101115.130636	20101115.130814	8	0.013327	60	10	60-180	60	86	GapPrac	1	12	2	45	1	target	1	360	820	41440	13.328	13.310	13.346
ProbeTrack11	20	ProbeTrack	11.2	SCS215a	20101115.130636	20101115.130820	8	0.013327	60	0	60-180	60	129	GapPrac	1	13	2	3	1	target	1	414	793	42233	13.328	12.964	13.693
ProbeTrack11	20	ProbeTrack	11.2	SCS215a	20101115.130636	20101115.130826	8	0.013327	60	10	60-180	60	62	GapPrac	1	14	2	45	0	distractor	1	454	773	43006	13.328	13.093	13.560
ProbeTrack11	20	ProbeTrack	11.2	SCS215a	20101115.130636	20101115.130832	8	0.013327	60	0	60-180	60	148	GapPrac	1	15	2	1	0	distractor	1	480	760	43766	13.328	12.941	13.699
ProbeTrack11	20	ProbeTrack	11.2	SCS215a	20101115.130636	20101115.130838	8	0.013327	60	10	60-180	60	92	GapPrac	1	16	2	0	0	distractor	1	427	787	44553	13.328	13.165	13.355
ProbeTrack11	20	ProbeTrack	11.2	SCS215a	20101115.130636	20101115.130843	8	0.013327	60	0	60-180	60	64	GapPrac	1	17	2	3	0	distractor	1	467	767	45320	13.328	12.841	13.820
ProbeTrack11	20	ProbeTrack	11.2	SCS215a	20101115.130636	20101115.130849	8	0.013327	60	0	60-180	60	105	GapPrac	1	18	2	45	1	target	1	387	807	46127	13.328	13.108	13.554
ProbeTrack11	20	ProbeTrack	11.2	SCS215a	20101115.130636	20101115.130855	8	0.013327	60	10	60-180	60	153	GapPrac	1	19	2	3	0	distractor	1	360	820	46947	13.328	13.269	13.367
ProbeTrack11	20	ProbeTrack	11.2	SCS215a	20101115.130636	20101115.130901	8	0.013327	60	0	60-180	60	159	GapPrac	1	20	2	0	1	target	1	387	807	47754	13.328	13.143	13.549
ProbeTrack11	20	ProbeTrack	11.2	SCS215a	20101115.130948	20101115.131010	8	0.013328	60	10	60-180	60	63	GapExp	1	1	2	45	1	target	1	294	853	48607	13.328	12.987	13.676
ProbeTrack11	20	ProbeTrack	11.2	SCS215a	20101115.130948	20101115.131029	8	0.013328	60	0	60-180	60	76	GapExp	1	2	2	45	1	target	1	360	820	49427	13.328	13.010	13.666
ProbeTrack11	20	ProbeTrack	11.2	SCS215a	20101115.130948	20101115.131035	8	0.013328	60	0	60-180	60	139	GapExp	0	3	2	1	1	target	1	400	800	50227	13.328	13.221	13.424
ProbeTrack11	20	ProbeTrack	11.2	SCS215a	20101115.130948	20101115.131041	8	0.013328	60	10	60-180	60	76	GapExp	0	4	2	45	0	distractor	1	360	820	51047	13.328	13.112	13.558
ProbeTrack11	20	ProbeTrack	11.2	SCS215a	20101115.130948	20101115.131047	8	0.013328	60	0	60-180	60	167	GapExp	0	5	2	0	0	distractor	1	440	780	51827	13.328	13.095	13.566
ProbeTrack11	20	ProbeTrack	11.2	SCS215a	20101115.130948	20101115.131054	8	0.013328	60	10	60-180	60	74	GapExp	0	6	2	0	1	target	1	320	840	52667	13.400	13.104	26.638
ProbeTrack11	20	ProbeTrack	11.2	SCS215a	20101115.130948	20101115.131059	8	0.013328	60	0	60-180	60	154	GapExp	0	7	2	3	0	distractor	1	427	787	53454	13.328	13.095	13.544
ProbeTrack11	20	ProbeTrack	11.2	SCS215a	20101115.130948	20101115.131106	8	0.013328	60	0	60-180	60	67	GapExp	0	8	2	0	0	distractor	1	400	800	54254	13.328	13.106	13.549
ProbeTrack11	20	ProbeTrack	11.2	SCS215a	20101115.130948	20101115.131111	8	0.013328	60	10	60-180	60	104	GapExp	0	9	2	1	1	target	1	360	820	55074	13.328	13.310	13.355
ProbeTrack11	20	ProbeTrack	11.2	SCS215a	20101115.130948	20101115.131116	8	0.013328	60	10	60-180	60	164	GapExp	0	10	2	1	0	distractor	1	347	827	55901	13.328	13.309	13.349
ProbeTrack11	20	ProbeTrack	11.2	SCS215a	20101115.130948	20101115.131124	8	0.013328	60	10	60-180	60	154	GapExp	0	11	2	3	0	distractor	1	427	787	56688	13.328	13.107	13.538
ProbeTrack11	20	ProbeTrack	11.2	SCS215a	20101115.130948	20101115.131130	8	0.013328	60	0	60-180	60	143	GapExp	0	12	2	0	1	target	1	400	800	57488	13.328	13.117	13.553
ProbeTrack11	20	ProbeTrack	11.2	SCS215a	20101115.130948	20101115.131136	8	0.013328	60	10	60-180	60	102	GapExp	0	13	2	3	0	distractor	1	480	760	58248	13.328	13.094	13.565
ProbeTrack11	20	ProbeTrack	11.2	SCS215a	20101115.130948	20101115.131141	8	0.013328	60	0	60-180	60	103	GapExp	0	14	2	0	1	target	1	347	827	59075	13.328	12.842	13.818
ProbeTrack11	20	ProbeTrack	11.2	SCS215a	20101115.130948	20101115.131147	8	0.013328	60	10	60-180	60	70	GapExp	0	15	2	1	1	target	1	347	827	59902	13.328	13.089	13.569
ProbeTrack11	20	ProbeTrack	11.2	SCS215a	20101115.130948	20101115.131152	8	0.013328	60	10	60-180	60	79	GapExp	0	16	2	1	1	target	1	374	813	60715	13.328	13.107	13.552
ProbeTrack11	20	ProbeTrack	11.2	SCS215a	20101115.130948	20101115.131157	8	0.013328	60	10	60-180	60	70	GapExp	0	17	2	3	0	distractor	1	347	827	61542	13.399	13.097	26.743
ProbeTrack11	20	ProbeTrack	11.2	SCS215a	20101115.130948	20101115.131202	8	0.013328	60	10	60-180	60	171	GapExp	0	18	2	3	1	target	1	427	787	62329	13.328	12.906	13.762
ProbeTrack11	20	ProbeTrack	11.2	SCS215a	20101115.130948	20101115.131208	8	0.013328	60	0	60-180	60	69	GapExp	0	19	2	0	0	distractor	1	534	733	63062	13.328	12.849	13.810
ProbeTrack11	20	ProbeTrack	11.2	SCS215a	20101115.130948	20101115.131213	8	0.013328	60	10	60-180	60	152	GapExp	0	20	2	1	0	distractor	1	427	787	63849	13.328	13.305	13.353
ProbeTrack11	20	ProbeTrack	11.2	SCS215a	20101115.130948	20101115.131219	8	0.013328	60	0	60-180	60	76	GapExp	0	21	2	0	1	target	1	360	820	64669	13.328	13.310	13.347
ProbeTrack11	20	ProbeTrack	11.2	SCS215a	20101115.130948	20101115.131228	8	0.013328	60	0	60-180	60	87	GapExp	0	22	2	45	0	distractor	1	427	787	65456	13.328	12.867	13.784
ProbeTrack11	20	ProbeTrack	11.2	SCS215a	20101115.130948	20101115.131233	8	0.013328	60	10	60-180	60	87	GapExp	0	23	2	0	1	distractor	0	387	-1000	64456	13.328	13.114	13.539
ProbeTrack11	20	ProbeTrack	11.2	SCS215a	20101115.130948	20101115.131239	8	0.013328	60	0	60-180	60	180	GapExp	0	24	2	45	1	target	1	360	820	65276	13.328	12.977	13.687
ProbeTrack11	20	ProbeTrack	11.2	SCS215a	20101115.130948	20101115.131246	8	0.013328	60	0	60-180	60	159	GapExp	0	25	2	0	1	target	1	334	833	66109	13.328	12.887	13.783
ProbeTrack11	20	ProbeTrack	11.2	SCS215a	20101115.130948	20101115.131252	8	0.013328	60	0	60-180	60	130	GapExp	0	26	2	1	1	target	1	320	840	66949	13.328	13.089	13.555
ProbeTrack11	20	ProbeTrack	11.2	SCS215a	20101115.130948	20101115.131258	8	0.013328	60	10	60-180	60	157	GapExp	0	27	2	1	1	target	1	347	827	67776	13.328	13.097	13.541
ProbeTrack11	20	ProbeTrack	11.2	SCS215a	20101115.130948	20101115.131304	8	0.013328	60	10	60-180	60	84	GapExp	0	28	2	0	0	target	0	427	-1000	66776	13.328	13.022	13.642
ProbeTrack11	20	ProbeTrack	11.2	SCS215a	20101115.130948	20101115.131311	8	0.013328	60	0	60-180	60	152	GapExp	0	29	2	45	1	target	1	427	787	67563	13.328	13.307	13.347
ProbeTrack11	20	ProbeTrack	11.2	SCS215a	20101115.130948	20101115.131318	8	0.013328	60	0	60-180	60	160	GapExp	0	30	2	45	1	target	1	360	820	68383	13.371	12.863	26.676
ProbeTrack11	20	ProbeTrack	11.2	SCS215a	20101115.130948	20101115.131324	8	0.013328	60	0	60-180	60	123	GapExp	0	31	2	45	1	target	1	400	800	69183	13.328	13.310	13.347
ProbeTrack11	20	ProbeTrack	11.2	SCS215a	20101115.130948	20101115.131331	8	0.013328	60	0	60-180	60	61	GapExp	0	32	2	3	1	target	1	347	827	70010	13.328	13.310	13.350
ProbeTrack11	20	ProbeTrack	11.2	SCS215a	20101115.130948	20101115.131336	8	0.013328	60	10	60-180	60	150	GapExp	0	33	2	1	1	target	1	374	813	70823	13.328	13.099	13.544
ProbeTrack11	20	ProbeTrack	11.2	SCS215a	20101115.130948	20101115.131342	8	0.013328	60	0	60-180	60	82	GapExp	0	34	2	0	1	target	1	360	820	71643	13.328	13.114	13.543
ProbeTrack11	20	ProbeTrack	11.2	SCS215a	20101115.130948	20101115.131347	8	0.013328	60	10	60-180	60	160	GapExp	0	35	2	1	0	distractor	1	427	787	72430	13.328	13.308	13.347
ProbeTrack11	20	ProbeTrack	11.2	SCS215a	20101115.130948	20101115.131353	8	0.013328	60	0	60-180	60	153	GapExp	0	36	2	3	0	distractor	1	507	747	73177	13.328	13.051	13.618
ProbeTrack11	20	ProbeTrack	11.2	SCS215a	20101115.130948	20101115.131359	8	0.013328	60	0	60-180	60	121	GapExp	0	37	2	0	0	distractor	1	454	773	73950	13.328	13.035	13.614
ProbeTrack11	20	ProbeTrack	11.2	SCS215a	20101115.130948	20101115.131405	8	0.013328	60	10	60-180	60	76	GapExp	0	38	2	1	1	target	1	334	833	74783	13.328	13.272	13.377
ProbeTrack11	20	ProbeTrack	11.2	SCS215a	20101115.130948	20101115.131410	8	0.013328	60	0	60-180	60	76	GapExp	0	39	2	3	1	target	1	400	800	75583	13.328	13.003	13.645
ProbeTrack11	20	ProbeTrack	11.2	SCS215a	20101115.130948	20101115.131416	8	0.013328	60	0	60-180	60	82	GapExp	0	40	2	1	1	target	1	320	840	76423	13.328	13.308	13.349
ProbeTrack11	20	ProbeTrack	11.2	SCS215a	20101115.130948	20101115.131421	8	0.013328	60	10	60-180	60	130	GapExp	0	41	2	3	0	distractor	1	360	820	77243	13.328	13.309	13.347
ProbeTrack11	20	ProbeTrack	11.2	SCS215a	20101115.130948	20101115.131427	8	0.013328	60	10	60-180	60	135	GapExp	0	42	2	3	1	target	1	360	820	78063	13.328	12.903	13.753
ProbeTrack11	20	ProbeTrack	11.2	SCS215a	20101115.130948	20101115.131433	8	0.013328	60	0	60-180	60	111	GapExp	0	43	2	0	0	distractor	1	520	740	78803	13.328	13.133	13.521
ProbeTrack11	20	ProbeTrack	11.2	SCS215a	20101115.130948	20101115.131438	8	0.013328	60	10	60-180	60	67	GapExp	0	44	2	45	1	target	1	374	813	79616	13.328	13.036	13.616
ProbeTrack11	20	ProbeTrack	11.2	SCS215a	20101115.130948	20101115.131444	8	0.013328	60	10	60-180	60	122	GapExp	0	45	2	0	0	distractor	1	454	773	80389	13.328	13.097	13.552
ProbeTrack11	20	ProbeTrack	11.2	SCS215a	20101115.130948	20101115.131450	8	0.013328	60	10	60-180	60	139	GapExp	0	46	2	1	1	target	1	360	820	81209	13.800	13.307	133.278
ProbeTrack11	20	ProbeTrack	11.2	SCS215a	20101115.130948	20101115.131456	8	0.013328	60	10	60-180	60	97	GapExp	0	47	2	0	1	target	1	440	780	81989	13.328	13.309	13.348
ProbeTrack11	20	ProbeTrack	11.2	SCS215a	20101115.130948	20101115.131502	8	0.013328	60	10	60-180	60	89	GapExp	0	48	2	3	1	target	1	347	827	82816	13.328	13.305	13.347
ProbeTrack11	20	ProbeTrack	11.2	SCS215a	20101115.130948	20101115.131507	8	0.013328	60	10	60-180	60	72	GapExp	0	49	2	0	1	target	1	400	800	83616	13.328	13.119	13.555
ProbeTrack11	20	ProbeTrack	11.2	SCS215a	20101115.130948	20101115.131512	8	0.013328	60	10	60-180	60	95	GapExp	0	50	2	3	0	distractor	1	440	780	84396	13.328	13.108	13.541
ProbeTrack11	20	ProbeTrack	11.2	SCS215a	20101115.130948	20101115.131518	8	0.013328	60	0	60-180	60	160	GapExp	0	51	2	1	1	target	1	467	767	85163	13.328	12.888	13.757
ProbeTrack11	20	ProbeTrack	11.2	SCS215a	20101115.130948	20101115.131524	8	0.013328	60	0	60-180	60	161	GapExp	0	52	2	45	1	target	1	574	713	85876	13.328	13.306	13.351
ProbeTrack11	20	ProbeTrack	11.2	SCS215a	20101115.130948	20101115.131531	8	0.013328	60	10	60-180	60	126	GapExp	0	53	2	0	0	distractor	1	507	747	86623	13.328	12.875	13.784
ProbeTrack11	20	ProbeTrack	11.2	SCS215a	20101115.130948	20101115.131537	8	0.013328	60	0	60-180	60	168	GapExp	0	54	2	3	0	distractor	1	467	767	87390	13.328	13.305	13.351
ProbeTrack11	20	ProbeTrack	11.2	SCS215a	20101115.130948	20101115.131544	8	0.013328	60	10	60-180	60	63	GapExp	0	55	2	3	1	target	1	440	780	88170	13.328	13.071	13.582
ProbeTrack11	20	ProbeTrack	11.2	SCS215a	20101115.130948	20101115.131549	8	0.013328	60	10	60-180	60	122	GapExp	0	56	2	45	0	distractor	1	520	740	88910	13.328	13.109	13.542
ProbeTrack11	20	ProbeTrack	11.2	SCS215a	20101115.130948	20101115.131555	8	0.013328	60	10	60-180	60	142	GapExp	0	57	2	3	1	target	1	400	800	89710	13.328	13.112	13.550
ProbeTrack11	20	ProbeTrack	11.2	SCS215a	20101115.130948	20101115.131602	8	0.013328	60	0	60-180	60	152	GapExp	0	58	2	1	0	distractor	1	467	767	90477	13.328	13.101	13.569
ProbeTrack11	20	ProbeTrack	11.2	SCS215a	20101115.130948	20101115.131608	8	0.013328	60	10	60-180	60	105	GapExp	0	59	2	0	0	distractor	1	467	767	91244	13.328	13.310	13.344
ProbeTrack11	20	ProbeTrack	11.2	SCS215a	20101115.130948	20101115.131613	8	0.013328	60	10	60-180	60	142	GapExp	0	60	2	0	1	target	1	507	747	91991	13.328	13.305	13.352
ProbeTrack11	20	ProbeTrack	11.2	SCS215a	20101115.130948	20101115.131620	8	0.013328	60	0	60-180	60	177	GapExp	0	61	2	0	1	target	1	454	773	92764	13.328	12.881	13.783
ProbeTrack11	20	ProbeTrack	11.2	SCS215a	20101115.130948	20101115.131626	8	0.013328	60	10	60-180	60	134	GapExp	0	62	2	0	1	target	1	307	847	93611	13.328	12.869	13.772
ProbeTrack11	20	ProbeTrack	11.2	SCS215a	20101115.130948	20101115.131632	8	0.013328	60	10	60-180	60	114	GapExp	0	63	2	3	1	target	1	334	833	94444	13.328	13.309	13.347
ProbeTrack11	20	ProbeTrack	11.2	SCS215a	20101115.130948	20101115.131638	8	0.013328	60	0	60-180	60	158	GapExp	0	64	2	3	1	target	1	414	793	95237	13.328	13.094	13.569
ProbeTrack11	20	ProbeTrack	11.2	SCS215a	20101115.130948	20101115.131645	8	0.013328	60	10	60-180	60	122	GapExp	0	65	2	1	1	target	1	334	833	96070	13.328	13.309	13.348
ProbeTrack11	20	ProbeTrack	11.2	SCS215a	20101115.130948	20101115.131651	8	0.013328	60	10	60-180	60	62	GapExp	0	66	2	0	0	distractor	1	440	780	96850	13.328	12.937	13.717
ProbeTrack11	20	ProbeTrack	11.2	SCS215a	20101115.130948	20101115.131656	8	0.013328	60	0	60-180	60	165	GapExp	0	67	2	45	0	distractor	1	427	787	97637	13.328	13.092	13.562
ProbeTrack11	20	ProbeTrack	11.2	SCS215a	20101115.130948	20101115.131703	8	0.013328	60	0	60-180	60	106	GapExp	0	68	2	45	0	distractor	1	467	767	98404	13.328	13.089	13.556
ProbeTrack11	20	ProbeTrack	11.2	SCS215a	20101115.130948	20101115.131709	8	0.013328	60	10	60-180	60	115	GapExp	0	69	2	0	0	distractor	1	507	747	99151	13.328	13.308	13.348
ProbeTrack11	20	ProbeTrack	11.2	SCS215a	20101115.130948	20101115.131715	8	0.013328	60	0	60-180	60	108	GapExp	0	70	2	3	0	distractor	1	480	760	99911	13.328	13.302	13.346
ProbeTrack11	20	ProbeTrack	11.2	SCS215a	20101115.130948	20101115.131720	8	0.013328	60	10	60-180	60	129	GapExp	0	71	2	0	1	target	1	400	800	100711	13.328	13.109	13.550
ProbeTrack11	20	ProbeTrack	11.2	SCS215a	20101115.130948	20101115.131727	8	0.013328	60	10	60-180	60	132	GapExp	0	72	2	1	1	target	1	427	787	101498	13.328	13.098	13.572
ProbeTrack11	20	ProbeTrack	11.2	SCS215a	20101115.130948	20101115.131733	8	0.013328	60	10	60-180	60	139	GapExp	0	73	2	45	0	distractor	1	387	807	102305	13.328	13.117	13.539
ProbeTrack11	20	ProbeTrack	11.2	SCS215a	20101115.130948	20101115.131739	8	0.013328	60	0	60-180	60	139	GapExp	0	74	2	45	0	distractor	1	467	767	103072	13.328	12.967	13.705
ProbeTrack11	20	ProbeTrack	11.2	SCS215a	20101115.130948	20101115.131746	8	0.013328	60	10	60-180	60	72	GapExp	0	75	2	0	0	target	0	374	-1000	102072	13.328	12.901	13.769
ProbeTrack11	20	ProbeTrack	11.2	SCS215a	20101115.130948	20101115.131751	8	0.013328	60	0	60-180	60	154	GapExp	0	76	2	0	0	distractor	1	480	760	102832	13.328	13.309	13.346
ProbeTrack11	20	ProbeTrack	11.2	SCS215a	20101115.130948	20101115.131757	8	0.013328	60	0	60-180	60	140	GapExp	0	77	2	3	1	target	1	520	740	103572	13.328	13.308	13.347
ProbeTrack11	20	ProbeTrack	11.2	SCS215a	20101115.130948	20101115.131803	8	0.013328	60	0	60-180	60	116	GapExp	0	78	2	45	0	distractor	1	454	773	104345	13.328	13.308	13.349
ProbeTrack11	20	ProbeTrack	11.2	SCS215a	20101115.130948	20101115.131810	8	0.013328	60	0	60-180	60	169	GapExp	0	79	2	0	0	distractor	1	360	820	105165	13.328	13.298	13.351
ProbeTrack11	20	ProbeTrack	11.2	SCS215a	20101115.130948	20101115.131819	8	0.013328	60	0	60-180	60	125	GapExp	0	80	2	1	1	target	1	374	813	105978	13.328	13.300	13.355
ProbeTrack11	20	ProbeTrack	11.2	SCS215a	20101115.130948	20101115.131824	8	0.013328	60	10	60-180	60	179	GapExp	0	81	2	1	0	distractor	1	387	807	106785	13.328	12.860	13.801
ProbeTrack11	20	ProbeTrack	11.2	SCS215a	20101115.130948	20101115.131831	8	0.013328	60	10	60-180	60	173	GapExp	0	82	2	0	1	target	1	414	793	107578	13.328	12.901	13.756
ProbeTrack11	20	ProbeTrack	11.2	SCS215a	20101115.130948	20101115.131837	8	0.013328	60	0	60-180	60	99	GapExp	0	83	2	0	1	target	1	374	813	108391	13.328	13.302	13.347
ProbeTrack11	20	ProbeTrack	11.2	SCS215a	20101115.130948	20101115.131843	8	0.013328	60	10	60-180	60	110	GapExp	0	84	2	3	0	distractor	1	427	787	109178	13.328	13.107	13.553
ProbeTrack11	20	ProbeTrack	11.2	SCS215a	20101115.130948	20101115.131849	8	0.013328	60	0	60-180	60	176	GapExp	0	85	2	3	1	target	1	360	820	109998	13.328	13.110	13.559
ProbeTrack11	20	ProbeTrack	11.2	SCS215a	20101115.130948	20101115.131855	8	0.013328	60	10	60-180	60	180	GapExp	0	86	2	1	0	distractor	1	494	753	110751	13.328	12.864	13.794
ProbeTrack11	20	ProbeTrack	11.2	SCS215a	20101115.130948	20101115.131902	8	0.013328	60	10	60-180	60	133	GapExp	0	87	2	45	0	distractor	1	560	720	111471	13.328	12.905	13.752
ProbeTrack11	20	ProbeTrack	11.2	SCS215a	20101115.130948	20101115.131909	8	0.013328	60	10	60-180	60	127	GapExp	0	88	2	45	1	target	1	334	833	112304	13.328	13.309	13.348
ProbeTrack11	20	ProbeTrack	11.2	SCS215a	20101115.130948	20101115.131915	8	0.013328	60	0	60-180	60	136	GapExp	0	89	2	0	0	distractor	1	414	793	113097	13.328	13.308	13.348
ProbeTrack11	20	ProbeTrack	11.2	SCS215a	20101115.130948	20101115.131921	8	0.013328	60	0	60-180	60	74	GapExp	0	90	2	0	1	target	1	334	833	113930	13.328	13.309	13.348
ProbeTrack11	20	ProbeTrack	11.2	SCS215a	20101115.130948	20101115.131926	8	0.013328	60	0	60-180	60	127	GapExp	0	91	2	1	1	target	1	387	807	114737	13.328	13.308	13.346
ProbeTrack11	20	ProbeTrack	11.2	SCS215a	20101115.130948	20101115.131940	8	0.013328	60	0	60-180	60	110	GapExp	0	92	2	3	0	distractor	1	454	773	115510	13.328	12.830	13.832
ProbeTrack11	20	ProbeTrack	11.2	SCS215a	20101115.130948	20101115.131946	8	0.013328	60	0	60-180	60	173	GapExp	0	93	2	0	0	distractor	1	400	800	116310	13.328	13.109	13.555
ProbeTrack11	20	ProbeTrack	11.2	SCS215a	20101115.130948	20101115.131952	8	0.013328	60	10	60-180	60	138	GapExp	0	94	2	1	1	distractor	0	379	-1000	115310	13.328	12.984	13.660
ProbeTrack11	20	ProbeTrack	11.2	SCS215a	20101115.130948	20101115.131959	8	0.013328	60	0	60-180	60	82	GapExp	0	95	2	3	1	target	1	440	780	116090	13.328	13.303	13.348
ProbeTrack11	20	ProbeTrack	11.2	SCS215a	20101115.130948	20101115.132004	8	0.013328	60	0	60-180	60	134	GapExp	0	96	2	45	0	distractor	1	427	787	116877	13.328	13.027	13.632
ProbeTrack11	20	ProbeTrack	11.2	SCS215a	20101115.130948	20101115.132011	8	0.013328	60	0	60-180	60	165	GapExp	0	97	2	1	0	distractor	1	400	800	117677	13.328	12.854	13.788
ProbeTrack11	20	ProbeTrack	11.2	SCS215a	20101115.130948	20101115.132018	8	0.013328	60	10	60-180	60	138	GapExp	0	98	2	45	1	target	1	374	813	118490	13.328	13.308	13.347
ProbeTrack11	20	ProbeTrack	11.2	SCS215a	20101115.130948	20101115.132024	8	0.013328	60	10	60-180	60	68	GapExp	0	99	2	3	0	distractor	1	507	747	119237	13.464	13.303	39.979
ProbeTrack11	20	ProbeTrack	11.2	SCS215a	20101115.130948	20101115.132029	8	0.013328	60	0	60-180	60	144	GapExp	0	100	2	45	1	target	1	387	807	120044	13.373	13.097	26.636
ProbeTrack11	20	ProbeTrack	11.2	SCS215a	20101115.130948	20101115.132036	8	0.013328	60	10	60-180	60	96	GapExp	0	101	2	0	1	target	1	347	827	120871	13.328	13.065	13.586
ProbeTrack11	20	ProbeTrack	11.2	SCS215a	20101115.130948	20101115.132042	8	0.013328	60	10	60-180	60	79	GapExp	0	102	2	45	0	distractor	1	427	787	121658	13.328	12.926	13.733
ProbeTrack11	20	ProbeTrack	11.2	SCS215a	20101115.130948	20101115.132048	8	0.013328	60	10	60-180	60	128	GapExp	0	103	2	1	0	distractor	1	454	773	122431	13.328	13.100	13.553
ProbeTrack11	20	ProbeTrack	11.2	SCS215a	20101115.130948	20101115.132054	8	0.013328	60	0	60-180	60	137	GapExp	0	104	2	3	0	distractor	1	467	767	123198	13.328	13.307	13.351
ProbeTrack11	20	ProbeTrack	11.2	SCS215a	20101115.130948	20101115.132059	8	0.013328	60	10	60-180	60	115	GapExp	0	105	2	45	0	distractor	1	387	807	124005	13.328	12.842	13.814
ProbeTrack11	20	ProbeTrack	11.2	SCS215a	20101115.130948	20101115.132106	8	0.013328	60	0	60-180	60	149	GapExp	0	106	2	3	1	target	1	400	800	124805	13.328	13.310	13.347
ProbeTrack11	20	ProbeTrack	11.2	SCS215a	20101115.130948	20101115.132112	8	0.013328	60	0	60-180	60	126	GapExp	0	107	2	0	0	distractor	1	440	780	125585	13.328	13.307	13.348
ProbeTrack11	20	ProbeTrack	11.2	SCS215a	20101115.130948	20101115.132118	8	0.013328	60	10	60-180	60	81	GapExp	0	108	2	0	0	distractor	1	494	753	126338	13.328	13.106	13.561
ProbeTrack11	20	ProbeTrack	11.2	SCS215a	20101115.130948	20101115.132123	8	0.013328	60	0	60-180	60	168	GapExp	0	109	2	1	0	distractor	1	440	780	127118	13.328	13.094	13.545
ProbeTrack11	20	ProbeTrack	11.2	SCS215a	20101115.130948	20101115.132129	8	0.013328	60	10	60-180	60	84	GapExp	0	110	2	0	1	target	1	400	800	127918	13.328	13.308	13.361
ProbeTrack11	20	ProbeTrack	11.2	SCS215a	20101115.130948	20101115.132135	8	0.013328	60	10	60-180	60	104	GapExp	0	111	2	3	1	target	1	387	807	128725	13.328	13.303	13.350
ProbeTrack11	20	ProbeTrack	11.2	SCS215a	20101115.130948	20101115.132140	8	0.013328	60	10	60-180	60	63	GapExp	0	112	2	0	0	distractor	1	427	787	129512	13.328	12.854	13.792
ProbeTrack11	20	ProbeTrack	11.2	SCS215a	20101115.130948	20101115.132145	8	0.013328	60	0	60-180	60	143	GapExp	0	113	2	3	0	distractor	1	454	773	130285	13.328	13.092	13.566
ProbeTrack11	20	ProbeTrack	11.2	SCS215a	20101115.130948	20101115.132151	8	0.013328	60	0	60-180	60	121	GapExp	0	114	2	3	1	target	1	445	778	131063	13.499	12.862	27.033
ProbeTrack11	20	ProbeTrack	11.2	SCS215a	20101115.130948	20101115.132157	8	0.013328	60	0	60-180	60	163	GapExp	0	115	2	45	1	target	1	387	807	131870	13.413	12.868	27.107
ProbeTrack11	20	ProbeTrack	11.2	SCS215a	20101115.130948	20101115.132204	8	0.013328	60	10	60-180	60	99	GapExp	0	116	2	45	1	target	1	360	820	132690	13.328	12.485	14.200
ProbeTrack11	20	ProbeTrack	11.2	SCS215a	20101115.130948	20101115.132211	8	0.013328	60	0	60-180	60	107	GapExp	0	117	2	3	1	target	1	414	793	133483	13.328	13.066	13.550
ProbeTrack11	20	ProbeTrack	11.2	SCS215a	20101115.130948	20101115.132216	8	0.013328	60	0	60-180	60	99	GapExp	0	118	2	45	0	distractor	1	494	753	134236	13.328	13.308	13.348
ProbeTrack11	20	ProbeTrack	11.2	SCS215a	20101115.130948	20101115.132223	8	0.013328	60	10	60-180	60	108	GapExp	0	119	2	45	0	distractor	1	427	787	135023	13.328	12.867	13.790
ProbeTrack11	20	ProbeTrack	11.2	SCS215a	20101115.130948	20101115.132229	8	0.013328	60	0	60-180	60	176	GapExp	0	120	2	1	0	distractor	1	600	700	135723	13.328	12.897	13.761
ProbeTrack11	20	ProbeTrack	11.2	SCS215a	20101115.130948	20101115.132236	8	0.013328	60	0	60-180	60	65	GapExp	0	121	2	1	1	target	1	454	773	136496	13.328	13.116	13.540
ProbeTrack11	20	ProbeTrack	11.2	SCS215a	20101115.130948	20101115.132240	8	0.013328	60	0	60-180	60	168	GapExp	0	122	2	45	0	distractor	1	387	807	137303	13.328	13.106	13.568
ProbeTrack11	20	ProbeTrack	11.2	SCS215a	20101115.130948	20101115.132247	8	0.013328	60	0	60-180	60	132	GapExp	0	123	2	1	0	distractor	1	360	820	138123	13.328	12.867	13.799
ProbeTrack11	20	ProbeTrack	11.2	SCS215a	20101115.130948	20101115.132253	8	0.013328	60	10	60-180	60	65	GapExp	0	124	2	3	1	target	1	374	813	138936	13.328	13.310	13.347
ProbeTrack11	20	ProbeTrack	11.2	SCS215a	20101115.130948	20101115.132259	8	0.013328	60	0	60-180	60	161	GapExp	0	125	2	0	0	distractor	1	374	813	139749	13.328	13.054	13.610
ProbeTrack11	20	ProbeTrack	11.2	SCS215a	20101115.130948	20101115.132305	8	0.013328	60	0	60-180	60	109	GapExp	0	126	2	45	1	target	1	534	733	140482	13.328	12.927	13.723
ProbeTrack11	20	ProbeTrack	11.2	SCS215a	20101115.130948	20101115.132311	8	0.013328	60	10	60-180	60	106	GapExp	0	127	2	3	1	target	1	427	787	141269	13.328	13.132	13.532
ProbeTrack11	20	ProbeTrack	11.2	SCS215a	20101115.130948	20101115.132317	8	0.013328	60	0	60-180	60	69	GapExp	0	128	2	45	1	target	1	347	827	142096	13.328	13.038	13.612
ProbeTrack11	20	ProbeTrack	11.2	SCS215a	20101115.130948	20101115.132322	8	0.013328	60	0	60-180	60	173	GapExp	0	129	2	3	1	target	1	334	833	142929	13.328	12.959	13.710
ProbeTrack11	20	ProbeTrack	11.2	SCS215a	20101115.130948	20101115.132329	8	0.013328	60	10	60-180	60	71	GapExp	0	130	2	45	0	distractor	1	360	820	143749	13.328	12.882	13.769
ProbeTrack11	20	ProbeTrack	11.2	SCS215a	20101115.130948	20101115.132334	8	0.013328	60	0	60-180	60	91	GapExp	0	131	2	3	1	target	1	360	820	144569	13.328	12.863	13.807
ProbeTrack11	20	ProbeTrack	11.2	SCS215a	20101115.130948	20101115.132339	8	0.013328	60	0	60-180	60	148	GapExp	0	132	2	1	0	distractor	1	440	780	145349	13.328	12.948	13.722
ProbeTrack11	20	ProbeTrack	11.2	SCS215a	20101115.130948	20101115.132346	8	0.013328	60	10	60-180	60	80	GapExp	0	133	2	0	1	target	1	374	813	146162	13.328	13.011	13.628
ProbeTrack11	20	ProbeTrack	11.2	SCS215a	20101115.130948	20101115.132351	8	0.013328	60	10	60-180	60	109	GapExp	0	134	2	3	1	target	1	454	773	146935	13.328	13.071	13.577
ProbeTrack11	20	ProbeTrack	11.2	SCS215a	20101115.130948	20101115.132357	8	0.013328	60	0	60-180	60	127	GapExp	0	135	2	1	1	target	1	334	833	147768	13.328	13.101	13.571
ProbeTrack11	20	ProbeTrack	11.2	SCS215a	20101115.130948	20101115.132403	8	0.013328	60	0	60-180	60	178	GapExp	0	136	2	3	0	distractor	1	440	780	148548	13.328	13.214	13.434
ProbeTrack11	20	ProbeTrack	11.2	SCS215a	20101115.130948	20101115.132409	8	0.013328	60	0	60-180	60	87	GapExp	0	137	2	3	0	distractor	1	440	780	149328	13.328	12.890	13.781
ProbeTrack11	20	ProbeTrack	11.2	SCS215a	20101115.130948	20101115.132416	8	0.013328	60	10	60-180	60	105	GapExp	0	138	2	45	1	target	1	334	833	150161	13.328	12.874	13.783
ProbeTrack11	20	ProbeTrack	11.2	SCS215a	20101115.130948	20101115.132422	8	0.013328	60	10	60-180	60	129	GapExp	0	139	2	0	0	distractor	1	387	807	150968	13.328	13.064	13.598
ProbeTrack11	20	ProbeTrack	11.2	SCS215a	20101115.130948	20101115.132428	8	0.013328	60	0	60-180	60	122	GapExp	0	140	2	1	0	distractor	1	454	773	151741	13.328	12.873	13.786
ProbeTrack11	20	ProbeTrack	11.2	SCS215a	20101115.130948	20101115.132434	8	0.013328	60	0	60-180	60	107	GapExp	0	141	2	1	0	distractor	1	387	807	152548	13.328	12.853	13.804
ProbeTrack11	20	ProbeTrack	11.2	SCS215a	20101115.130948	20101115.132440	8	0.013328	60	0	60-180	60	170	GapExp	0	142	2	0	0	distractor	1	427	787	153335	13.328	12.999	13.651
ProbeTrack11	20	ProbeTrack	11.2	SCS215a	20101115.130948	20101115.132446	8	0.013328	60	10	60-180	60	63	GapExp	0	143	2	45	1	target	1	334	833	154168	13.328	13.115	13.541
ProbeTrack11	20	ProbeTrack	11.2	SCS215a	20101115.130948	20101115.132452	8	0.013328	60	10	60-180	60	156	GapExp	0	144	2	0	0	distractor	1	400	800	154968	13.328	13.114	13.556
ProbeTrack11	20	ProbeTrack	11.2	SCS215a	20101115.130948	20101115.132459	8	0.013328	60	10	60-180	60	88	GapExp	0	145	2	3	0	distractor	1	374	813	155781	13.328	13.291	13.366
ProbeTrack11	20	ProbeTrack	11.2	SCS215a	20101115.130948	20101115.132505	8	0.013328	60	0	60-180	60	66	GapExp	0	146	2	45	0	distractor	1	440	780	156561	13.328	12.867	13.794
ProbeTrack11	20	ProbeTrack	11.2	SCS215a	20101115.130948	20101115.132510	8	0.013328	60	10	60-180	60	103	GapExp	0	147	2	45	1	distractor	0	374	-1000	155561	13.328	13.308	13.348
ProbeTrack11	20	ProbeTrack	11.2	SCS215a	20101115.130948	20101115.132517	8	0.013328	60	0	60-180	60	149	GapExp	0	148	2	0	1	target	1	454	773	156334	13.328	13.309	13.346
ProbeTrack11	20	ProbeTrack	11.2	SCS215a	20101115.130948	20101115.132523	8	0.013328	60	10	60-180	60	128	GapExp	0	149	2	3	1	distractor	0	334	-1000	155334	13.328	13.119	13.548
ProbeTrack11	20	ProbeTrack	11.2	SCS215a	20101115.130948	20101115.132529	8	0.013328	60	10	60-180	60	69	GapExp	0	150	2	3	1	target	1	400	800	156134	13.328	12.859	13.805
ProbeTrack11	20	ProbeTrack	11.2	SCS215a	20101115.130948	20101115.132534	8	0.013328	60	10	60-180	60	174	GapExp	0	151	2	3	0	distractor	1	414	793	156927	13.328	12.905	13.748
ProbeTrack11	20	ProbeTrack	11.2	SCS215a	20101115.130948	20101115.132541	8	0.013328	60	10	60-180	60	112	GapExp	0	152	2	3	1	target	1	414	793	157720	13.328	12.890	13.768
ProbeTrack11	20	ProbeTrack	11.2	SCS215a	20101115.130948	20101115.132547	8	0.013328	60	10	60-180	60	139	GapExp	0	153	2	0	1	target	1	440	780	158500	13.329	12.885	13.786
ProbeTrack11	20	ProbeTrack	11.2	SCS215a	20101115.130948	20101115.132553	8	0.013328	60	0	60-180	60	86	GapExp	0	154	2	45	1	target	1	454	773	159273	13.328	12.892	13.757
ProbeTrack11	20	ProbeTrack	11.2	SCS215a	20101115.130948	20101115.132559	8	0.013328	60	10	60-180	60	164	GapExp	0	155	2	45	1	target	1	400	800	160073	13.328	12.968	13.551
ProbeTrack11	20	ProbeTrack	11.2	SCS215a	20101115.130948	20101115.132606	8	0.013328	60	10	60-180	60	68	GapExp	0	156	2	45	1	target	1	334	833	160906	13.328	13.060	13.586
ProbeTrack11	20	ProbeTrack	11.2	SCS215a	20101115.130948	20101115.132611	8	0.013328	60	10	60-180	60	147	GapExp	0	157	2	3	0	distractor	1	494	753	161659	13.328	12.918	13.733
ProbeTrack11	20	ProbeTrack	11.2	SCS215a	20101115.130948	20101115.132617	8	0.013328	60	0	60-180	60	120	GapExp	0	158	2	3	1	target	1	374	813	162472	13.328	12.879	13.775
ProbeTrack11	20	ProbeTrack	11.2	SCS215a	20101115.130948	20101115.132623	8	0.013328	60	0	60-180	60	112	GapExp	0	159	2	45	0	distractor	1	470	765	163237	13.328	12.866	13.796
ProbeTrack11	20	ProbeTrack	11.2	SCS215a	20101115.130948	20101115.132629	8	0.013328	60	0	60-180	60	130	GapExp	0	160	2	0	1	target	1	374	813	164050	13.328	13.311	13.347
ProbeTrack11	20	ProbeTrack	11.2	SCS215a	20101115.130948	20101115.132635	8	0.013328	60	0	60-180	60	156	GapExp	0	161	2	45	1	target	1	347	827	164877	13.328	12.972	13.674
ProbeTrack11	20	ProbeTrack	11.2	SCS215a	20101115.130948	20101115.132642	8	0.013328	60	10	60-180	60	154	GapExp	0	162	2	45	1	target	1	334	833	165710	13.328	12.923	13.726
ProbeTrack11	20	ProbeTrack	11.2	SCS215a	20101115.130948	20101115.132649	8	0.013328	60	0	60-180	60	130	GapExp	0	163	2	0	1	target	1	360	820	166530	13.328	12.856	13.802
ProbeTrack11	20	ProbeTrack	11.2	SCS215a	20101115.130948	20101115.132655	8	0.013328	60	10	60-180	60	162	GapExp	0	164	2	45	1	target	1	334	833	167363	13.328	13.015	13.634
ProbeTrack11	20	ProbeTrack	11.2	SCS215a	20101115.130948	20101115.132702	8	0.013328	60	10	60-180	60	122	GapExp	0	165	2	3	0	distractor	1	400	800	168163	13.330	12.868	13.802
ProbeTrack11	20	ProbeTrack	11.2	SCS215a	20101115.130948	20101115.132708	8	0.013328	60	10	60-180	60	72	GapExp	0	166	2	0	0	distractor	1	494	753	168916	13.328	13.107	13.549
ProbeTrack11	20	ProbeTrack	11.2	SCS215a	20101115.130948	20101115.132713	8	0.013328	60	0	60-180	60	160	GapExp	0	167	2	3	1	target	1	427	787	169703	13.329	12.862	13.811
ProbeTrack11	20	ProbeTrack	11.2	SCS215a	20101115.130948	20101115.132719	8	0.013328	60	10	60-180	60	156	GapExp	0	168	2	1	0	distractor	1	454	773	170476	13.328	12.917	13.754
ProbeTrack11	20	ProbeTrack	11.2	SCS215a	20101115.130948	20101115.132725	8	0.013328	60	0	60-180	60	73	GapExp	0	169	2	1	0	distractor	1	440	780	171256	13.328	13.097	13.566
ProbeTrack11	20	ProbeTrack	11.2	SCS215a	20101115.130948	20101115.132741	8	0.013328	60	10	60-180	60	80	GapExp	0	170	2	1	0	distractor	1	347	827	172083	13.328	12.927	13.731
ProbeTrack11	20	ProbeTrack	11.2	SCS215a	20101115.130948	20101115.132747	8	0.013328	60	0	60-180	60	77	GapExp	0	171	2	0	1	target	1	360	820	172903	13.328	12.886	13.783
ProbeTrack11	20	ProbeTrack	11.2	SCS215a	20101115.130948	20101115.132752	8	0.013328	60	0	60-180	60	126	GapExp	0	172	2	1	0	target	0	374	-1000	171903	13.328	13.101	13.556
ProbeTrack11	20	ProbeTrack	11.2	SCS215a	20101115.130948	20101115.132758	8	0.013328	60	10	60-180	60	153	GapExp	0	173	2	1	0	distractor	1	400	800	172703	13.328	13.308	13.346
ProbeTrack11	20	ProbeTrack	11.2	SCS215a	20101115.130948	20101115.132806	8	0.013328	60	0	60-180	60	136	GapExp	0	174	2	45	1	target	1	480	760	173463	13.328	13.300	13.348
ProbeTrack11	20	ProbeTrack	11.2	SCS215a	20101115.130948	20101115.132812	8	0.013328	60	0	60-180	60	92	GapExp	0	175	2	45	1	target	1	360	820	174283	13.330	12.914	13.798
ProbeTrack11	20	ProbeTrack	11.2	SCS215a	20101115.130948	20101115.132818	8	0.013328	60	0	60-180	60	74	GapExp	0	176	2	1	0	distractor	1	414	793	175076	13.328	13.046	13.616
ProbeTrack11	20	ProbeTrack	11.2	SCS215a	20101115.130948	20101115.132824	8	0.013328	60	10	60-180	60	152	GapExp	0	177	2	3	0	distractor	1	440	780	175856	13.328	13.100	13.536
ProbeTrack11	20	ProbeTrack	11.2	SCS215a	20101115.130948	20101115.132830	8	0.013328	60	10	60-180	60	87	GapExp	0	178	2	45	0	target	0	427	-1000	174856	13.328	12.944	13.716
ProbeTrack11	20	ProbeTrack	11.2	SCS215a	20101115.130948	20101115.132836	8	0.013328	60	10	60-180	60	81	GapExp	0	179	2	0	1	target	1	400	800	175656	13.328	13.308	13.346
ProbeTrack11	20	ProbeTrack	11.2	SCS215a	20101115.130948	20101115.132841	8	0.013328	60	0	60-180	60	120	GapExp	0	180	2	0	0	distractor	1	440	780	176436	13.328	12.914	13.733
ProbeTrack11	20	ProbeTrack	11.2	SCS215a	20101115.130948	20101115.132847	8	0.013328	60	0	60-180	60	163	GapExp	0	181	2	1	0	distractor	1	440	780	177216	13.328	12.911	13.755
ProbeTrack11	20	ProbeTrack	11.2	SCS215a	20101115.130948	20101115.132854	8	0.013328	60	10	60-180	60	176	GapExp	0	182	2	1	0	distractor	1	360	820	178036	13.328	13.016	13.651
ProbeTrack11	20	ProbeTrack	11.2	SCS215a	20101115.130948	20101115.132900	8	0.013328	60	10	60-180	60	157	GapExp	0	183	2	45	1	target	1	320	840	178876	13.328	12.944	13.711
ProbeTrack11	20	ProbeTrack	11.2	SCS215a	20101115.130948	20101115.132908	8	0.013328	60	10	60-180	60	100	GapExp	0	184	2	45	0	distractor	1	427	787	179663	13.328	13.094	13.547
ProbeTrack11	20	ProbeTrack	11.2	SCS215a	20101115.130948	20101115.132914	8	0.013328	60	0	60-180	60	121	GapExp	0	185	2	1	1	target	1	360	820	180483	13.328	12.875	13.788
ProbeTrack11	20	ProbeTrack	11.2	SCS215a	20101115.130948	20101115.132919	8	0.013328	60	10	60-180	60	136	GapExp	0	186	2	0	0	distractor	1	414	793	181276	13.328	12.911	13.737
ProbeTrack11	20	ProbeTrack	11.2	SCS215a	20101115.130948	20101115.132925	8	0.013328	60	10	60-180	60	74	GapExp	0	187	2	3	0	target	0	414	-1000	180276	13.328	13.235	13.407
ProbeTrack11	20	ProbeTrack	11.2	SCS215a	20101115.130948	20101115.132931	8	0.013328	60	10	60-180	60	164	GapExp	0	188	2	0	1	target	1	494	753	181029	13.328	12.941	13.717
ProbeTrack11	20	ProbeTrack	11.2	SCS215a	20101115.130948	20101115.132937	8	0.013328	60	10	60-180	60	83	GapExp	0	189	2	0	1	target	1	454	773	181802	13.328	13.063	13.595
ProbeTrack11	20	ProbeTrack	11.2	SCS215a	20101115.130948	20101115.132943	8	0.013328	60	10	60-180	60	83	GapExp	0	190	2	45	0	distractor	1	387	807	182609	13.328	12.876	13.795
ProbeTrack11	20	ProbeTrack	11.2	SCS215a	20101115.130948	20101115.132949	8	0.013328	60	10	60-180	60	126	GapExp	0	191	2	0	0	distractor	1	427	787	183396	13.328	12.963	13.695
ProbeTrack11	20	ProbeTrack	11.2	SCS215a	20101115.130948	20101115.132955	8	0.013328	60	0	60-180	60	102	GapExp	0	192	2	45	1	target	1	387	807	184203	13.328	13.009	13.638
ProbeTrack11	20	ProbeTrack	11.2	SCS215a	20101115.130948	20101115.133001	8	0.013328	60	0	60-180	60	124	GapExp	0	193	2	0	1	target	1	374	813	185016	13.328	13.308	13.348
ProbeTrack11	20	ProbeTrack	11.2	SCS215a	20101115.130948	20101115.133007	8	0.013328	60	0	60-180	60	148	GapExp	0	194	2	1	0	distractor	1	467	767	185783	13.328	13.308	13.346
ProbeTrack11	20	ProbeTrack	11.2	SCS215a	20101115.130948	20101115.133013	8	0.013328	60	10	60-180	60	80	GapExp	0	195	2	3	1	target	1	334	833	186616	13.328	13.309	13.350
ProbeTrack11	20	ProbeTrack	11.2	SCS215a	20101115.130948	20101115.133019	8	0.013328	60	0	60-180	60	122	GapExp	0	196	2	3	0	distractor	1	387	807	187423	13.328	13.309	13.345
ProbeTrack11	20	ProbeTrack	11.2	SCS215a	20101115.130948	20101115.133025	8	0.013328	60	0	60-180	60	61	GapExp	0	197	2	45	0	distractor	1	387	807	188230	13.328	13.310	13.346
ProbeTrack11	20	ProbeTrack	11.2	SCS215a	20101115.130948	20101115.133032	8	0.013328	60	0	60-180	60	90	GapExp	0	198	2	0	1	target	1	334	833	189063	13.328	12.988	13.681
ProbeTrack11	20	ProbeTrack	11.2	SCS215a	20101115.130948	20101115.133037	8	0.013328	60	0	60-180	60	172	GapExp	0	199	2	3	1	target	1	347	827	189890	13.328	13.111	13.552
ProbeTrack11	20	ProbeTrack	11.2	SCS215a	20101115.130948	20101115.133044	8	0.013328	60	10	60-180	60	100	GapExp	0	200	2	45	1	target	1	347	827	190717	13.328	13.111	13.543
ProbeTrack11	20	ProbeTrack	11.2	SCS215a	20101115.130948	20101115.133050	8	0.013328	60	10	60-180	60	105	GapExp	0	201	2	45	1	target	1	320	840	191557	13.328	13.103	13.558
ProbeTrack11	20	ProbeTrack	11.2	SCS215a	20101115.130948	20101115.133056	8	0.013328	60	10	60-180	60	133	GapExp	0	202	2	1	1	target	1	427	787	192344	13.328	12.845	13.816
ProbeTrack11	20	ProbeTrack	11.2	SCS215a	20101115.130948	20101115.133102	8	0.013328	60	10	60-180	60	159	GapExp	0	203	2	45	1	target	1	307	847	193191	13.328	13.013	13.636
ProbeTrack11	20	ProbeTrack	11.2	SCS215a	20101115.130948	20101115.133109	8	0.013328	60	0	60-180	60	134	GapExp	0	204	2	45	0	distractor	1	427	787	193978	13.328	13.106	13.559
ProbeTrack11	20	ProbeTrack	11.2	SCS215a	20101115.130948	20101115.133126	8	0.013328	60	10	60-180	60	114	GapExp	0	205	2	45	0	distractor	1	387	807	194785	13.328	13.079	13.613
ProbeTrack11	20	ProbeTrack	11.2	SCS215a	20101115.130948	20101115.133133	8	0.013328	60	10	60-180	60	171	GapExp	0	206	2	1	0	distractor	1	414	793	195578	13.328	12.896	13.982
ProbeTrack11	20	ProbeTrack	11.2	SCS215a	20101115.130948	20101115.133139	8	0.013328	60	10	60-180	60	109	GapExp	0	207	2	45	0	distractor	1	387	807	196385	13.328	13.053	13.594
ProbeTrack11	20	ProbeTrack	11.2	SCS215a	20101115.130948	20101115.133146	8	0.013328	60	0	60-180	60	132	GapExp	0	208	2	0	1	target	1	387	807	197192	13.328	13.181	13.464
ProbeTrack11	20	ProbeTrack	11.2	SCS215a	20101115.130948	20101115.133151	8	0.013328	60	10	60-180	60	151	GapExp	0	209	2	3	0	distractor	1	360	820	198012	13.328	13.302	13.349
ProbeTrack11	20	ProbeTrack	11.2	SCS215a	20101115.130948	20101115.133158	8	0.013328	60	10	60-180	60	92	GapExp	0	210	2	1	0	distractor	1	400	800	198812	13.328	13.184	13.474
ProbeTrack11	20	ProbeTrack	11.2	SCS215a	20101115.130948	20101115.133204	8	0.013328	60	0	60-180	60	112	GapExp	0	211	2	1	1	target	1	360	820	199632	13.328	12.866	13.783
ProbeTrack11	20	ProbeTrack	11.2	SCS215a	20101115.130948	20101115.133209	8	0.013328	60	10	60-180	60	71	GapExp	0	212	2	0	0	distractor	1	467	767	200399	13.328	12.887	13.784
ProbeTrack11	20	ProbeTrack	11.2	SCS215a	20101115.130948	20101115.133215	8	0.013328	60	10	60-180	60	174	GapExp	0	213	2	0	1	target	1	387	807	201206	13.328	13.307	13.347
ProbeTrack11	20	ProbeTrack	11.2	SCS215a	20101115.130948	20101115.133221	8	0.013328	60	10	60-180	60	125	GapExp	0	214	2	3	0	distractor	1	374	813	202019	13.328	13.099	13.554
ProbeTrack11	20	ProbeTrack	11.2	SCS215a	20101115.130948	20101115.133227	8	0.013328	60	10	60-180	60	154	GapExp	0	215	2	3	1	target	1	400	800	202819	13.328	12.993	13.678
ProbeTrack11	20	ProbeTrack	11.2	SCS215a	20101115.130948	20101115.133233	8	0.013328	60	10	60-180	60	128	GapExp	0	216	2	1	0	distractor	1	414	793	203612	13.328	13.182	13.482
ProbeTrack11	20	ProbeTrack	11.2	SCS215a	20101115.130948	20101115.133239	8	0.013328	60	0	60-180	60	156	GapExp	0	217	2	1	1	target	1	360	820	204432	13.328	13.082	13.577
ProbeTrack11	20	ProbeTrack	11.2	SCS215a	20101115.130948	20101115.133245	8	0.013328	60	0	60-180	60	103	GapExp	0	218	2	0	0	distractor	1	427	787	205219	13.328	13.310	13.347
ProbeTrack11	20	ProbeTrack	11.2	SCS215a	20101115.130948	20101115.133251	8	0.013328	60	10	60-180	60	64	GapExp	0	219	2	0	1	target	1	427	787	206006	13.328	12.921	13.725
ProbeTrack11	20	ProbeTrack	11.2	SCS215a	20101115.130948	20101115.133257	8	0.013328	60	10	60-180	60	68	GapExp	0	220	2	3	0	distractor	1	400	800	206806	13.328	12.889	13.770
ProbeTrack11	20	ProbeTrack	11.2	SCS215a	20101115.130948	20101115.133302	8	0.013328	60	10	60-180	60	68	GapExp	0	221	2	3	1	distractor	0	374	-1000	205806	13.328	13.079	13.584
ProbeTrack11	20	ProbeTrack	11.2	SCS215a	20101115.130948	20101115.133307	8	0.013328	60	10	60-180	60	144	GapExp	0	222	2	3	0	distractor	1	374	813	206619	13.328	12.546	14.145
ProbeTrack11	20	ProbeTrack	11.2	SCS215a	20101115.130948	20101115.133313	8	0.013328	60	0	60-180	60	149	GapExp	0	223	2	1	1	target	1	334	833	207452	13.328	12.904	13.736
ProbeTrack11	20	ProbeTrack	11.2	SCS215a	20101115.130948	20101115.133319	8	0.013328	60	10	60-180	60	117	GapExp	0	224	2	45	0	distractor	1	454	773	208225	13.328	12.855	13.794
ProbeTrack11	20	ProbeTrack	11.2	SCS215a	20101115.130948	20101115.133327	8	0.013328	60	10	60-180	60	105	GapExp	0	225	2	45	0	distractor	1	347	827	209052	13.328	12.865	13.784
ProbeTrack11	20	ProbeTrack	11.2	SCS215a	20101115.130948	20101115.133333	8	0.013328	60	0	60-180	60	82	GapExp	0	226	2	0	0	distractor	1	387	807	209859	13.328	12.990	13.664
ProbeTrack11	20	ProbeTrack	11.2	SCS215a	20101115.130948	20101115.133338	8	0.013328	60	10	60-180	60	92	GapExp	0	227	2	3	1	target	1	467	767	210626	13.328	13.093	13.565
ProbeTrack11	20	ProbeTrack	11.2	SCS215a	20101115.130948	20101115.133344	8	0.013328	60	0	60-180	60	152	GapExp	0	228	2	45	0	distractor	1	387	807	211433	13.328	12.906	13.764
ProbeTrack11	20	ProbeTrack	11.2	SCS215a	20101115.130948	20101115.133350	8	0.013328	60	10	60-180	60	126	GapExp	0	229	2	45	0	target	0	334	-1000	210433	13.328	13.309	13.347
ProbeTrack11	20	ProbeTrack	11.2	SCS215a	20101115.130948	20101115.133357	8	0.013328	60	10	60-180	60	75	GapExp	0	230	2	1	1	target	1	387	807	211240	13.328	13.303	13.345
ProbeTrack11	20	ProbeTrack	11.2	SCS215a	20101115.130948	20101115.133402	8	0.013328	60	10	60-180	60	135	GapExp	0	231	2	0	0	distractor	1	454	773	212013	13.328	13.308	13.348
ProbeTrack11	20	ProbeTrack	11.2	SCS215a	20101115.130948	20101115.133409	8	0.013328	60	0	60-180	60	134	GapExp	0	232	2	1	1	target	1	387	807	212820	13.328	12.855	13.802
ProbeTrack11	20	ProbeTrack	11.2	SCS215a	20101115.130948	20101115.133415	8	0.013328	60	0	60-180	60	150	GapExp	0	233	2	1	0	distractor	1	454	773	213593	13.328	12.842	13.816
ProbeTrack11	20	ProbeTrack	11.2	SCS215a	20101115.130948	20101115.133421	8	0.013328	60	0	60-180	60	75	GapExp	0	234	2	45	1	target	1	334	833	214426	13.328	12.990	13.679
ProbeTrack11	20	ProbeTrack	11.2	SCS215a	20101115.130948	20101115.133426	8	0.013328	60	10	60-180	60	155	GapExp	0	235	2	3	0	target	0	414	-1000	213426	13.328	13.306	13.346
ProbeTrack11	20	ProbeTrack	11.2	SCS215a	20101115.130948	20101115.133435	8	0.013328	60	10	60-180	60	105	GapExp	0	236	2	1	1	target	1	387	807	214233	13.328	13.092	13.557
ProbeTrack11	20	ProbeTrack	11.2	SCS215a	20101115.130948	20101115.133440	8	0.013328	60	10	60-180	60	142	GapExp	0	237	2	45	1	distractor	0	415	-1000	213233	13.372	9.983	27.141
ProbeTrack11	20	ProbeTrack	11.2	SCS215a	20101115.130948	20101115.133447	8	0.013328	60	0	60-180	60	124	GapExp	0	238	2	1	0	distractor	1	560	720	213953	13.330	13.308	13.802
ProbeTrack11	20	ProbeTrack	11.2	SCS215a	20101115.130948	20101115.133453	8	0.013328	60	0	60-180	60	64	GapExp	0	239	2	0	0	distractor	1	467	767	214720	13.328	12.949	13.697
ProbeTrack11	20	ProbeTrack	11.2	SCS215a	20101115.130948	20101115.133458	8	0.013328	60	10	60-180	60	119	GapExp	0	240	2	3	1	distractor	0	414	-1000	213720	13.328	13.307	13.347
ProbeTrack11	20	ProbeTrack	11.2	SCS215a	20101115.130948	20101115.133504	8	0.013328	60	10	60-180	60	100	GapExp	0	241	2	3	1	target	1	387	807	214527	13.328	13.100	13.566
ProbeTrack11	20	ProbeTrack	11.2	SCS215a	20101115.130948	20101115.133510	8	0.013328	60	0	60-180	60	141	GapExp	0	242	2	3	0	distractor	1	440	780	215307	13.328	13.030	13.644
ProbeTrack11	20	ProbeTrack	11.2	SCS215a	20101115.130948	20101115.133516	8	0.013328	60	10	60-180	60	177	GapExp	0	243	2	45	0	distractor	1	454	773	216080	13.328	13.088	13.553
ProbeTrack11	20	ProbeTrack	11.2	SCS215a	20101115.130948	20101115.133524	8	0.013328	60	0	60-180	60	86	GapExp	0	244	2	45	1	target	1	347	827	216907	13.328	13.014	13.660
ProbeTrack11	20	ProbeTrack	11.2	SCS215a	20101115.130948	20101115.133530	8	0.013328	60	0	60-180	60	171	GapExp	0	245	2	45	1	target	1	334	833	217740	13.328	12.883	13.771
ProbeTrack11	20	ProbeTrack	11.2	SCS215a	20101115.130948	20101115.133537	8	0.013328	60	0	60-180	60	170	GapExp	0	246	2	1	0	distractor	1	454	773	218513	13.328	13.107	13.554
ProbeTrack11	20	ProbeTrack	11.2	SCS215a	20101115.130948	20101115.133543	8	0.013328	60	10	60-180	60	125	GapExp	0	247	2	3	1	target	1	360	820	219333	13.328	12.935	13.724
ProbeTrack11	20	ProbeTrack	11.2	SCS215a	20101115.130948	20101115.133549	8	0.013328	60	10	60-180	60	70	GapExp	0	248	2	0	0	distractor	1	400	800	220133	13.328	12.929	13.737
ProbeTrack11	20	ProbeTrack	11.2	SCS215a	20101115.130948	20101115.133554	8	0.013328	60	0	60-180	60	118	GapExp	0	249	2	0	0	distractor	1	414	793	220926	13.328	13.306	13.349
ProbeTrack11	20	ProbeTrack	11.2	SCS215a	20101115.130948	20101115.133600	8	0.013328	60	10	60-180	60	98	GapExp	0	250	2	3	1	target	1	427	787	221713	13.328	13.088	13.550
ProbeTrack11	20	ProbeTrack	11.2	SCS215a	20101115.130948	20101115.133606	8	0.013328	60	10	60-180	60	149	GapExp	0	251	2	3	0	distractor	1	507	747	222460	13.328	13.292	13.350
ProbeTrack11	20	ProbeTrack	11.2	SCS215a	20101115.130948	20101115.133613	8	0.013328	60	10	60-180	60	98	GapExp	0	252	2	3	0	distractor	1	467	767	223227	13.388	13.109	26.823
ProbeTrack11	20	ProbeTrack	11.2	SCS215a	20101115.130948	20101115.133619	8	0.013328	60	0	60-180	60	63	GapExp	0	253	2	0	0	distractor	1	480	760	223987	13.328	13.307	13.346
ProbeTrack11	20	ProbeTrack	11.2	SCS215a	20101115.130948	20101115.133624	8	0.013328	60	10	60-180	60	134	GapExp	0	254	2	0	1	target	1	507	747	224734	13.641	12.987	66.616
ProbeTrack11	20	ProbeTrack	11.2	SCS215a	20101115.130948	20101115.133631	8	0.013328	60	0	60-180	60	74	GapExp	0	255	2	3	0	distractor	1	520	740	225474	13.751	13.186	66.630
ProbeTrack11	20	ProbeTrack	11.2	SCS215a	20101115.130948	20101115.133636	8	0.013328	60	0	60-180	60	177	GapExp	0	256	2	0	1	target	1	320	840	226314	13.328	12.860	13.806
ProbeTrack11	20	ProbeTrack	11.2	SCS215a	20101115.130948	20101115.133643	8	0.013328	60	0	60-180	60	83	GapExp	0	257	2	45	0	distractor	1	360	820	227134	13.328	13.216	13.452
ProbeTrack11	20	ProbeTrack	11.2	SCS215a	20101115.130948	20101115.133657	8	0.013328	60	0	60-180	60	77	GapExp	0	258	2	45	1	target	1	347	827	227961	13.446	12.859	40.241
ProbeTrack11	20	ProbeTrack	11.2	SCS215a	20101115.130948	20101115.133702	8	0.013328	60	10	60-180	60	63	GapExp	0	259	2	1	1	target	1	374	813	228774	13.328	12.919	13.758
ProbeTrack11	20	ProbeTrack	11.2	SCS215a	20101115.130948	20101115.133707	8	0.013328	60	10	60-180	60	100	GapExp	0	260	2	1	0	distractor	1	400	800	229574	13.328	13.172	13.481
ProbeTrack11	20	ProbeTrack	11.2	SCS215a	20101115.130948	20101115.133713	8	0.013328	60	0	60-180	60	101	GapExp	0	261	2	45	0	distractor	1	414	793	230367	13.328	13.304	13.354
ProbeTrack11	20	ProbeTrack	11.2	SCS215a	20101115.130948	20101115.133719	8	0.013328	60	10	60-180	60	124	GapExp	0	262	2	3	0	distractor	1	480	760	231127	13.328	12.926	13.750
ProbeTrack11	20	ProbeTrack	11.2	SCS215a	20101115.130948	20101115.133725	8	0.013328	60	0	60-180	60	94	GapExp	0	263	2	0	1	target	1	374	813	231940	13.328	13.018	13.640
ProbeTrack11	20	ProbeTrack	11.2	SCS215a	20101115.130948	20101115.133730	8	0.013328	60	0	60-180	60	140	GapExp	0	264	2	45	1	target	1	360	820	232760	13.328	12.687	13.960
ProbeTrack11	20	ProbeTrack	11.2	SCS215a	20101115.130948	20101115.133737	8	0.013328	60	0	60-180	60	157	GapExp	0	265	2	3	0	distractor	1	387	807	233567	13.328	13.101	13.561
ProbeTrack11	20	ProbeTrack	11.2	SCS215a	20101115.130948	20101115.133743	8	0.013328	60	0	60-180	60	164	GapExp	0	266	2	1	0	distractor	1	387	807	234374	13.328	12.858	13.796
ProbeTrack11	20	ProbeTrack	11.2	SCS215a	20101115.130948	20101115.133750	8	0.013328	60	10	60-180	60	65	GapExp	0	267	2	45	1	target	1	320	840	235214	13.328	13.092	13.547
ProbeTrack11	20	ProbeTrack	11.2	SCS215a	20101115.130948	20101115.133756	8	0.013328	60	0	60-180	60	94	GapExp	0	268	2	1	1	target	1	347	827	236041	13.328	13.309	13.347
ProbeTrack11	20	ProbeTrack	11.2	SCS215a	20101115.130948	20101115.133807	8	0.013328	60	0	60-180	60	72	GapExp	0	269	2	0	0	distractor	1	414	793	236834	13.328	13.310	13.347
ProbeTrack11	20	ProbeTrack	11.2	SCS215a	20101115.130948	20101115.133813	8	0.013328	60	0	60-180	60	74	GapExp	0	270	2	1	0	distractor	1	454	773	237607	13.328	13.107	13.550
ProbeTrack11	20	ProbeTrack	11.2	SCS215a	20101115.130948	20101115.133818	8	0.013328	60	0	60-180	60	107	GapExp	0	271	2	1	0	distractor	1	400	800	238407	13.328	13.309	13.345
ProbeTrack11	20	ProbeTrack	11.2	SCS215a	20101115.130948	20101115.133823	8	0.013328	60	10	60-180	60	64	GapExp	0	272	2	45	1	target	1	320	840	239247	13.328	13.127	13.520
ProbeTrack11	20	ProbeTrack	11.2	SCS215a	20101115.130948	20101115.133829	8	0.013328	60	0	60-180	60	135	GapExp	0	273	2	0	0	distractor	1	400	800	240047	13.328	13.310	13.346
ProbeTrack11	20	ProbeTrack	11.2	SCS215a	20101115.130948	20101115.133841	8	0.013328	60	0	60-180	60	63	GapExp	0	274	2	0	1	target	1	427	787	240834	13.328	13.310	13.348
ProbeTrack11	20	ProbeTrack	11.2	SCS215a	20101115.130948	20101115.133848	8	0.013328	60	0	60-180	60	147	GapExp	0	275	2	45	0	distractor	1	347	827	241661	13.328	13.099	13.561
ProbeTrack11	20	ProbeTrack	11.2	SCS215a	20101115.130948	20101115.133855	8	0.013328	60	10	60-180	60	73	GapExp	0	276	2	45	0	distractor	1	454	773	242434	13.328	12.845	13.811
ProbeTrack11	20	ProbeTrack	11.2	SCS215a	20101115.130948	20101115.133901	8	0.013328	60	10	60-180	60	133	GapExp	0	277	2	45	0	distractor	1	347	827	243261	13.328	13.092	13.555
ProbeTrack11	20	ProbeTrack	11.2	SCS215a	20101115.130948	20101115.133907	8	0.013328	60	10	60-180	60	78	GapExp	0	278	2	45	1	distractor	0	347	-1000	242261	13.328	13.087	13.560
ProbeTrack11	20	ProbeTrack	11.2	SCS215a	20101115.130948	20101115.133913	8	0.013328	60	0	60-180	60	158	GapExp	0	279	2	0	0	distractor	1	414	793	243054	13.328	12.950	13.706
ProbeTrack11	20	ProbeTrack	11.2	SCS215a	20101115.130948	20101115.133920	8	0.013328	60	0	60-180	60	110	GapExp	0	280	2	3	0	distractor	1	467	767	243821	13.328	13.080	13.552
ProbeTrack11	20	ProbeTrack	11.2	SCS215a	20101115.130948	20101115.133926	8	0.013328	60	0	60-180	60	109	GapExp	0	281	2	3	1	target	1	414	793	244614	13.328	12.889	13.769
ProbeTrack11	20	ProbeTrack	11.2	SCS215a	20101115.130948	20101115.133932	8	0.013328	60	0	60-180	60	112	GapExp	0	282	2	1	1	target	1	360	820	245434	13.328	13.309	13.346
ProbeTrack11	20	ProbeTrack	11.2	SCS215a	20101115.130948	20101115.133937	8	0.013328	60	0	60-180	60	157	GapExp	0	283	2	3	0	distractor	1	427	787	246221	13.328	12.913	13.750
ProbeTrack11	20	ProbeTrack	11.2	SCS215a	20101115.130948	20101115.133945	8	0.013328	60	10	60-180	60	102	GapExp	0	284	2	45	0	distractor	1	427	787	247008	13.328	13.307	13.354
ProbeTrack11	20	ProbeTrack	11.2	SCS215a	20101115.130948	20101115.133951	8	0.013328	60	0	60-180	60	139	GapExp	0	285	2	1	1	target	1	427	787	247795	13.328	12.943	13.711
ProbeTrack11	20	ProbeTrack	11.2	SCS215a	20101115.130948	20101115.133958	8	0.013328	60	10	60-180	60	137	GapExp	0	286	2	0	1	target	1	414	793	248588	13.328	12.886	13.775
ProbeTrack11	20	ProbeTrack	11.2	SCS215a	20101115.130948	20101115.134004	8	0.013328	60	10	60-180	60	137	GapExp	0	287	2	1	1	target	1	387	807	249395	13.328	13.099	13.556
ProbeTrack11	20	ProbeTrack	11.2	SCS215a	20101115.130948	20101115.134010	8	0.013328	60	0	60-180	60	112	GapExp	0	288	2	1	1	target	1	374	813	250208	13.389	13.107	26.680
ProbeTrack11	20	ProbeTrack	11.2	SCS215a	20101115.130948	20101115.134015	8	0.013328	60	0	60-180	60	159	GapExp	0	289	2	1	1	target	1	347	827	251035	13.328	13.141	13.516
ProbeTrack11	20	ProbeTrack	11.2	SCS215a	20101115.130948	20101115.134027	8	0.013328	60	0	60-180	60	73	GapExp	0	290	2	45	0	distractor	1	400	800	251835	13.328	13.310	13.346
ProbeTrack11	20	ProbeTrack	11.2	SCS215a	20101115.130948	20101115.134034	8	0.013328	60	10	60-180	60	119	GapExp	0	291	2	0	0	distractor	1	467	767	252602	13.328	12.975	13.692
ProbeTrack11	20	ProbeTrack	11.2	SCS215a	20101115.130948	20101115.134040	8	0.013328	60	0	60-180	60	109	GapExp	0	292	2	0	1	target	1	387	807	253409	13.328	13.099	13.560
ProbeTrack11	20	ProbeTrack	11.2	SCS215a	20101115.130948	20101115.134046	8	0.013328	60	0	60-180	60	155	GapExp	0	293	2	0	0	distractor	1	414	793	254202	13.328	13.025	13.562
ProbeTrack11	20	ProbeTrack	11.2	SCS215a	20101115.130948	20101115.134052	8	0.013328	60	10	60-180	60	148	GapExp	0	294	2	3	1	target	1	387	807	255009	13.378	12.889	26.644
ProbeTrack11	20	ProbeTrack	11.2	SCS215a	20101115.130948	20101115.134059	8	0.013328	60	0	60-180	60	72	GapExp	0	295	2	45	0	distractor	1	507	747	255756	13.328	12.899	13.739
ProbeTrack11	20	ProbeTrack	11.2	SCS215a	20101115.130948	20101115.134105	8	0.013328	60	10	60-180	60	81	GapExp	0	296	2	1	1	target	1	480	760	256516	13.328	13.304	13.344
ProbeTrack11	20	ProbeTrack	11.2	SCS215a	20101115.130948	20101115.134111	8	0.013328	60	10	60-180	60	88	GapExp	0	297	2	1	1	target	1	414	793	257309	13.328	13.308	13.349
ProbeTrack11	20	ProbeTrack	11.2	SCS215a	20101115.130948	20101115.134116	8	0.013328	60	10	60-180	60	129	GapExp	0	298	2	1	1	target	1	454	773	258082	13.328	13.010	13.656
ProbeTrack11	20	ProbeTrack	11.2	SCS215a	20101115.130948	20101115.134123	8	0.013328	60	0	60-180	60	109	GapExp	0	299	2	3	1	target	1	374	813	258895	13.328	13.309	13.346
ProbeTrack11	20	ProbeTrack	11.2	SCS215a	20101115.130948	20101115.134129	8	0.013328	60	0	60-180	60	145	GapExp	0	300	2	3	1	target	1	360	820	259715	13.328	13.136	13.532
ProbeTrack11	20	ProbeTrack	11.2	SCS215a	20101115.130948	20101115.134139	8	0.013328	60	10	60-180	60	108	GapExp	0	301	2	3	0	target	0	387	-1000	258715	13.328	13.087	13.557
ProbeTrack11	20	ProbeTrack	11.2	SCS215a	20101115.130948	20101115.134244	8	0.013328	60	10	60-180	60	151	GapExp	0	302	2	0	1	target	1	347	827	259542	13.328	12.929	13.732
ProbeTrack11	20	ProbeTrack	11.2	SCS215a	20101115.130948	20101115.134251	8	0.013328	60	10	60-180	60	112	GapExp	0	303	2	1	0	distractor	1	387	807	260349	13.328	13.076	13.573
ProbeTrack11	20	ProbeTrack	11.2	SCS215a	20101115.130948	20101115.134257	8	0.013328	60	10	60-180	60	138	GapExp	0	304	2	1	0	distractor	1	387	807	261156	13.432	12.881	40.221
ProbeTrack11	20	ProbeTrack	11.2	SCS215a	20101115.130948	20101115.134303	8	0.013328	60	10	60-180	60	142	GapExp	0	305	2	0	0	distractor	1	414	793	261949	13.327	12.903	13.759
ProbeTrack11	20	ProbeTrack	11.2	SCS215a	20101115.130948	20101115.134309	8	0.013328	60	10	60-180	60	166	GapExp	0	306	2	45	0	distractor	1	613	694	262643	13.328	13.109	13.358
ProbeTrack11	20	ProbeTrack	11.2	SCS215a	20101115.130948	20101115.134322	8	0.013328	60	0	60-180	60	120	GapExp	0	307	2	1	1	target	1	347	827	263470	13.328	12.888	13.784
ProbeTrack11	20	ProbeTrack	11.2	SCS215a	20101115.130948	20101115.134328	8	0.013328	60	0	60-180	60	99	GapExp	0	308	2	3	1	target	1	387	807	264277	13.328	13.089	13.557
ProbeTrack11	20	ProbeTrack	11.2	SCS215a	20101115.130948	20101115.134333	8	0.013328	60	10	60-180	60	74	GapExp	0	309	2	3	0	distractor	1	414	793	265070	13.328	13.099	13.544
ProbeTrack11	20	ProbeTrack	11.2	SCS215a	20101115.130948	20101115.134339	8	0.013328	60	0	60-180	60	80	GapExp	0	310	2	3	0	distractor	1	427	787	265857	13.328	13.309	13.348
ProbeTrack11	20	ProbeTrack	11.2	SCS215a	20101115.130948	20101115.134344	8	0.013328	60	10	60-180	60	111	GapExp	0	311	2	45	1	target	1	334	833	266690	13.328	12.865	13.784
ProbeTrack11	20	ProbeTrack	11.2	SCS215a	20101115.130948	20101115.134351	8	0.013328	60	10	60-180	60	82	GapExp	0	312	2	0	1	target	1	400	800	267490	13.328	13.067	13.583
ProbeTrack11	20	ProbeTrack	11.2	SCS215a	20101115.130948	20101115.134357	8	0.013328	60	0	60-180	60	111	GapExp	0	313	2	45	1	target	1	400	800	268290	13.328	13.309	13.345
ProbeTrack11	20	ProbeTrack	11.2	SCS215a	20101115.130948	20101115.134403	8	0.013328	60	0	60-180	60	123	GapExp	0	314	2	1	0	distractor	1	494	753	269043	13.328	13.093	13.551
ProbeTrack11	20	ProbeTrack	11.2	SCS215a	20101115.130948	20101115.134409	8	0.013328	60	10	60-180	60	120	GapExp	0	315	2	45	1	target	1	320	840	269883	13.328	13.049	13.615
ProbeTrack11	20	ProbeTrack	11.2	SCS215a	20101115.130948	20101115.134416	8	0.013328	60	0	60-180	60	135	GapExp	0	316	2	3	0	distractor	1	480	760	270643	13.328	13.307	13.347
ProbeTrack11	20	ProbeTrack	11.2	SCS215a	20101115.130948	20101115.134429	8	0.013328	60	10	60-180	60	73	GapExp	0	317	2	1	0	target	0	400	-1000	269643	13.328	13.091	13.566
ProbeTrack11	20	ProbeTrack	11.2	SCS215a	20101115.130948	20101115.134435	8	0.013328	60	0	60-180	60	137	GapExp	0	318	2	45	0	distractor	1	374	813	270456	13.328	12.863	13.793
ProbeTrack11	20	ProbeTrack	11.2	SCS215a	20101115.130948	20101115.134442	8	0.013328	60	10	60-180	60	106	GapExp	0	319	2	45	1	target	1	440	780	271236	13.328	13.100	13.568
ProbeTrack11	20	ProbeTrack	11.2	SCS215a	20101115.130948	20101115.134449	8	0.013328	60	0	60-180	60	121	GapExp	0	320	2	3	0	distractor	1	414	793	272029	13.328	13.307	13.353
ProbeTrack11	20	ProbeTrack	11.2	SCS215a	20101115.130948	20101115.134454	8	0.013328	60	10	60-180	60	75	GapExp	0	321	2	3	1	target	1	427	787	272816	13.328	13.307	13.346
ProbeTrack11	20	ProbeTrack	11.2	SCS215a	20101115.130948	20101115.134500	8	0.013328	60	0	60-180	60	169	GapExp	0	322	2	3	0	distractor	1	400	800	273616	13.328	13.308	13.347
ProbeTrack11	20	ProbeTrack	11.2	SCS215a	20101115.130948	20101115.134507	8	0.013328	60	10	60-180	60	101	GapExp	0	323	2	3	0	distractor	1	387	807	274423	13.328	12.953	13.704
ProbeTrack11	20	ProbeTrack	11.2	SCS215a	20101115.130948	20101115.134512	8	0.013328	60	0	60-180	60	89	GapExp	0	324	2	0	1	target	1	427	787	275210	13.328	13.103	13.542
ProbeTrack11	20	ProbeTrack	11.2	SCS215a	20101115.130948	20101115.134518	8	0.013328	60	10	60-180	60	62	GapExp	0	325	2	1	0	distractor	1	494	753	275963	13.328	12.891	13.770
ProbeTrack11	20	ProbeTrack	11.2	SCS215a	20101115.130948	20101115.134523	8	0.013328	60	10	60-180	60	134	GapExp	0	326	2	1	0	distractor	1	414	793	276756	13.328	13.091	13.577
ProbeTrack11	20	ProbeTrack	11.2	SCS215a	20101115.130948	20101115.134531	8	0.013328	60	10	60-180	60	74	GapExp	0	327	2	45	0	target	0	374	-1000	275756	13.328	13.308	13.347
ProbeTrack11	20	ProbeTrack	11.2	SCS215a	20101115.130948	20101115.134537	8	0.013328	60	10	60-180	60	117	GapExp	0	328	2	1	0	distractor	1	414	793	276549	13.328	13.310	13.345
ProbeTrack11	20	ProbeTrack	11.2	SCS215a	20101115.130948	20101115.134543	8	0.013328	60	0	60-180	60	64	GapExp	0	329	2	1	1	distractor	0	414	-1000	275549	13.328	13.295	13.348
ProbeTrack11	20	ProbeTrack	11.2	SCS215a	20101115.130948	20101115.134551	8	0.013328	60	10	60-180	60	124	GapExp	0	330	2	0	0	distractor	1	587	707	276256	13.328	13.308	13.346
ProbeTrack11	20	ProbeTrack	11.2	SCS215a	20101115.130948	20101115.134557	8	0.013328	60	0	60-180	60	128	GapExp	0	331	2	3	0	distractor	1	454	773	277029	13.328	13.030	13.628
ProbeTrack11	20	ProbeTrack	11.2	SCS215a	20101115.130948	20101115.134603	8	0.013328	60	10	60-180	60	111	GapExp	0	332	2	3	1	target	1	440	780	277809	13.328	13.125	13.524
ProbeTrack11	20	ProbeTrack	11.2	SCS215a	20101115.130948	20101115.134609	8	0.013328	60	10	60-180	60	87	GapExp	0	333	2	1	1	target	1	360	820	278629	13.328	13.108	13.549
ProbeTrack11	20	ProbeTrack	11.2	SCS215a	20101115.130948	20101115.134614	8	0.013328	60	10	60-180	60	172	GapExp	0	334	2	1	1	target	1	360	820	279449	13.328	13.085	13.562
ProbeTrack11	20	ProbeTrack	11.2	SCS215a	20101115.130948	20101115.134622	8	0.013328	60	10	60-180	60	85	GapExp	0	335	2	0	0	distractor	1	480	760	280209	13.328	13.089	13.562
ProbeTrack11	20	ProbeTrack	11.2	SCS215a	20101115.130948	20101115.134627	8	0.013328	60	10	60-180	60	75	GapExp	0	336	2	1	0	distractor	1	454	773	280982	13.328	12.963	13.682
ProbeTrack11	20	ProbeTrack	11.2	SCS215a	20101115.130948	20101115.134632	8	0.013328	60	10	60-180	60	161	GapExp	0	337	2	1	1	target	1	400	800	281782	13.328	13.307	13.349
ProbeTrack11	20	ProbeTrack	11.2	SCS215a	20101115.130948	20101115.134639	8	0.013328	60	10	60-180	60	124	GapExp	0	338	2	0	0	distractor	1	440	780	282562	13.328	13.305	13.360
ProbeTrack11	20	ProbeTrack	11.2	SCS215a	20101115.130948	20101115.134645	8	0.013328	60	0	60-180	60	140	GapExp	0	339	2	1	1	target	1	414	793	283355	13.328	12.879	13.770
ProbeTrack11	20	ProbeTrack	11.2	SCS215a	20101115.130948	20101115.134652	8	0.013328	60	0	60-180	60	146	GapExp	0	340	2	0	1	target	1	414	793	284148	13.328	13.305	13.346
ProbeTrack11	20	ProbeTrack	11.2	SCS215a	20101115.130948	20101115.134658	8	0.013328	60	10	60-180	60	88	GapExp	0	341	2	0	0	distractor	1	467	767	284915	13.328	13.308	13.349
ProbeTrack11	20	ProbeTrack	11.2	SCS215a	20101115.130948	20101115.134704	8	0.013328	60	10	60-180	60	177	GapExp	0	342	2	45	1	target	1	320	840	285755	13.328	12.969	13.712
ProbeTrack11	20	ProbeTrack	11.2	SCS215a	20101115.130948	20101115.134712	8	0.013328	60	10	60-180	60	145	GapExp	0	343	2	3	0	distractor	1	400	800	286555	13.328	12.854	13.807
ProbeTrack11	20	ProbeTrack	11.2	SCS215a	20101115.130948	20101115.134725	8	0.013328	60	0	60-180	60	122	GapExp	0	344	2	0	1	target	1	454	773	287328	13.328	13.083	13.574
ProbeTrack11	20	ProbeTrack	11.2	SCS215a	20101115.130948	20101115.134730	8	0.013328	60	0	60-180	60	67	GapExp	0	345	2	45	1	target	1	360	820	288148	13.328	12.919	13.732
ProbeTrack11	20	ProbeTrack	11.2	SCS215a	20101115.130948	20101115.134736	8	0.013328	60	10	60-180	60	143	GapExp	0	346	2	0	1	target	1	360	820	288968	13.328	13.309	13.347
ProbeTrack11	20	ProbeTrack	11.2	SCS215a	20101115.130948	20101115.134742	8	0.013328	60	0	60-180	60	122	GapExp	0	347	2	3	0	distractor	1	467	767	289735	13.328	13.309	13.346
ProbeTrack11	20	ProbeTrack	11.2	SCS215a	20101115.130948	20101115.134748	8	0.013328	60	0	60-180	60	174	GapExp	0	348	2	3	0	distractor	1	454	773	290508	13.328	13.308	13.349
ProbeTrack11	20	ProbeTrack	11.2	SCS215a	20101115.130948	20101115.134754	8	0.013328	60	0	60-180	60	115	GapExp	0	349	2	0	0	distractor	1	440	780	291288	13.328	13.105	13.540
ProbeTrack11	20	ProbeTrack	11.2	SCS215a	20101115.130948	20101115.134800	8	0.013328	60	0	60-180	60	84	GapExp	0	350	2	0	0	distractor	1	427	787	292075	13.326	13.007	13.568
ProbeTrack11	20	ProbeTrack	11.2	SCS215a	20101115.130948	20101115.134805	8	0.013328	60	0	60-180	60	101	GapExp	0	351	2	45	1	target	1	427	787	292862	13.328	13.093	13.557
ProbeTrack11	20	ProbeTrack	11.2	SCS215a	20101115.130948	20101115.135049	8	0.013328	60	0	60-180	60	61	GapExp	0	352	2	3	1	target	1	360	820	293682	13.328	13.101	13.552
ProbeTrack11	20	ProbeTrack	11.2	SCS215a	20101115.130948	20101115.135054	8	0.013328	60	10	60-180	60	180	GapExp	0	353	2	0	1	target	1	387	807	294489	13.328	13.056	13.591
ProbeTrack11	20	ProbeTrack	11.2	SCS215a	20101115.130948	20101115.135103	8	0.013328	60	10	60-180	60	172	GapExp	0	354	2	45	0	distractor	1	334	833	295322	13.328	13.279	13.386
ProbeTrack11	20	ProbeTrack	11.2	SCS215a	20101115.130948	20101115.135111	8	0.013328	60	10	60-180	60	160	GapExp	0	355	2	3	1	target	1	347	827	296149	13.328	12.992	13.656
ProbeTrack11	20	ProbeTrack	11.2	SCS215a	20101115.130948	20101115.135117	8	0.013328	60	0	60-180	60	143	GapExp	0	356	2	3	1	target	1	347	827	296976	13.328	13.092	13.561
ProbeTrack11	20	ProbeTrack	11.2	SCS215a	20101115.130948	20101115.135123	8	0.013328	60	0	60-180	60	91	GapExp	0	357	2	1	1	target	1	387	807	297783	13.328	13.096	13.553
ProbeTrack11	20	ProbeTrack	11.2	SCS215a	20101115.130948	20101115.135128	8	0.013328	60	0	60-180	60	85	GapExp	0	358	2	45	1	target	1	374	813	298596	13.328	13.306	13.351
ProbeTrack11	20	ProbeTrack	11.2	SCS215a	20101115.130948	20101115.135134	8	0.013328	60	0	60-180	60	76	GapExp	0	359	2	1	1	target	1	374	813	299409	13.328	12.910	13.747
ProbeTrack11	20	ProbeTrack	11.2	SCS215a	20101115.130948	20101115.135140	8	0.013328	60	10	60-180	60	93	GapExp	0	360	2	0	0	target	0	307	-1000	298409	13.328	13.009	13.660
ProbeTrack11	20	ProbeTrack	11.2	SCS215a	20101115.130948	20101115.135145	8	0.013328	60	0	60-180	60	108	GapExp	0	361	2	3	1	target	1	400	800	299209	13.328	13.101	13.562
ProbeTrack11	20	ProbeTrack	11.2	SCS215a	20101115.130948	20101115.135151	8	0.013328	60	0	60-180	60	99	GapExp	0	362	2	1	1	target	1	414	793	300002	13.328	13.090	13.556
ProbeTrack11	20	ProbeTrack	11.2	SCS215a	20101115.130948	20101115.135157	8	0.013328	60	10	60-180	60	72	GapExp	0	363	2	1	0	distractor	1	427	787	300789	13.328	13.306	13.353
ProbeTrack11	20	ProbeTrack	11.2	SCS215a	20101115.130948	20101115.135213	8	0.013328	60	10	60-180	60	70	GapExp	0	364	2	1	1	target	1	440	780	301569	13.328	12.931	13.567
ProbeTrack11	20	ProbeTrack	11.2	SCS215a	20101115.130948	20101115.135218	8	0.013328	60	10	60-180	60	88	GapExp	0	365	2	0	0	distractor	1	414	793	302362	13.523	13.100	39.548
ProbeTrack11	20	ProbeTrack	11.2	SCS215a	20101115.130948	20101115.135224	8	0.013328	60	0	60-180	60	115	GapExp	0	366	2	3	0	distractor	1	454	773	303135	13.328	13.135	13.518
ProbeTrack11	20	ProbeTrack	11.2	SCS215a	20101115.130948	20101115.135229	8	0.013328	60	10	60-180	60	143	GapExp	0	367	2	1	1	target	1	334	833	303968	13.328	13.096	13.581
ProbeTrack11	20	ProbeTrack	11.2	SCS215a	20101115.130948	20101115.135236	8	0.013328	60	0	60-180	60	92	GapExp	0	368	2	0	0	distractor	1	440	780	304748	13.328	13.307	13.347
ProbeTrack11	20	ProbeTrack	11.2	SCS215a	20101115.130948	20101115.135241	8	0.013328	60	10	60-180	60	110	GapExp	0	369	2	1	0	distractor	1	360	820	305568	13.328	13.255	13.407
ProbeTrack11	20	ProbeTrack	11.2	SCS215a	20101115.130948	20101115.135247	8	0.013328	60	10	60-180	60	155	GapExp	0	370	2	45	1	target	1	320	840	306408	13.328	12.932	13.719
ProbeTrack11	20	ProbeTrack	11.2	SCS215a	20101115.130948	20101115.135254	8	0.013328	60	10	60-180	60	113	GapExp	0	371	2	1	0	distractor	1	387	807	307215	13.328	13.096	13.557
ProbeTrack11	20	ProbeTrack	11.2	SCS215a	20101115.130948	20101115.135306	8	0.013328	60	0	60-180	60	126	GapExp	0	372	2	45	0	distractor	1	440	780	307995	13.328	13.123	13.524
ProbeTrack11	20	ProbeTrack	11.2	SCS215a	20101115.130948	20101115.135312	8	0.013328	60	0	60-180	60	150	GapExp	0	373	2	1	0	distractor	1	414	793	308788	13.328	13.308	13.348
ProbeTrack11	20	ProbeTrack	11.2	SCS215a	20101115.130948	20101115.135318	8	0.013328	60	0	60-180	60	141	GapExp	0	374	2	45	0	distractor	1	400	800	309588	13.328	12.919	13.735
ProbeTrack11	20	ProbeTrack	11.2	SCS215a	20101115.130948	20101115.135325	8	0.013328	60	10	60-180	60	153	GapExp	0	375	2	1	1	distractor	0	400	-1000	308588	13.328	13.310	13.347
ProbeTrack11	20	ProbeTrack	11.2	SCS215a	20101115.130948	20101115.135331	8	0.013328	60	0	60-180	60	129	GapExp	0	376	2	3	0	distractor	1	387	807	309395	13.328	13.308	13.348
ProbeTrack11	20	ProbeTrack	11.2	SCS215a	20101115.130948	20101115.135337	8	0.013328	60	0	60-180	60	163	GapExp	0	377	2	0	1	target	1	414	793	310188	13.328	13.090	13.550
ProbeTrack11	20	ProbeTrack	11.2	SCS215a	20101115.130948	20101115.135343	8	0.013328	60	0	60-180	60	74	GapExp	0	378	2	3	1	target	1	374	813	311001	13.328	12.931	13.719
ProbeTrack11	20	ProbeTrack	11.2	SCS215a	20101115.130948	20101115.135348	8	0.013328	60	10	60-180	60	109	GapExp	0	379	2	1	0	target	0	667	-1000	310001	13.328	13.305	13.351
ProbeTrack11	20	ProbeTrack	11.2	SCS215a	20101115.130948	20101115.135355	8	0.013328	60	10	60-180	60	73	GapExp	0	380	2	45	1	target	1	307	847	310848	13.328	13.097	13.570
ProbeTrack11	20	ProbeTrack	11.2	SCS215a	20101115.130948	20101115.135400	8	0.013328	60	0	60-180	60	179	GapExp	0	381	2	0	1	target	1	334	833	311681	13.328	13.067	13.582
ProbeTrack11	20	ProbeTrack	11.2	SCS215a	20101115.130948	20101115.135408	8	0.013328	60	0	60-180	60	143	GapExp	0	382	2	45	0	distractor	1	414	793	312474	13.328	13.302	13.346
ProbeTrack11	20	ProbeTrack	11.2	SCS215a	20101115.130948	20101115.135415	8	0.013328	60	0	60-180	60	71	GapExp	0	383	2	45	1	target	1	360	820	313294	13.328	12.862	13.799
ProbeTrack11	20	ProbeTrack	11.2	SCS215a	20101115.130948	20101115.135420	8	0.013328	60	10	60-180	60	135	GapExp	0	384	2	45	0	target	0	334	-1000	312294	13.328	12.916	13.741
ProbeTrack11	20	ProbeTrack	11.2	SCS215a	20101115.130948	20101115.135427	8	0.013328	60	10	60-180	60	154	GapExp	0	385	2	0	1	distractor	0	520	-1000	311294	13.328	12.922	13.738
ProbeTrack11	20	ProbeTrack	11.2	SCS215a	20101115.130948	20101115.135434	8	0.013328	60	10	60-180	60	148	GapExp	0	386	2	45	0	distractor	1	507	747	312041	13.328	12.909	13.750
ProbeTrack11	20	ProbeTrack	11.2	SCS215a	20101115.130948	20101115.135441	8	0.013328	60	0	60-180	60	88	GapExp	0	387	2	3	0	distractor	1	454	773	312814	13.328	12.903	13.747
ProbeTrack11	20	ProbeTrack	11.2	SCS215a	20101115.130948	20101115.135447	8	0.013328	60	0	60-180	60	81	GapExp	0	388	2	1	0	distractor	1	560	720	313534	13.328	12.979	13.682
ProbeTrack11	20	ProbeTrack	11.2	SCS215a	20101115.130948	20101115.135452	8	0.013328	60	10	60-180	60	106	GapExp	0	389	2	1	0	distractor	1	414	793	314327	13.328	13.308	13.359
ProbeTrack11	20	ProbeTrack	11.2	SCS215a	20101115.130948	20101115.135458	8	0.013328	60	10	60-180	60	66	GapExp	0	390	2	0	1	target	1	414	793	315120	13.328	13.308	13.344
ProbeTrack11	20	ProbeTrack	11.2	SCS215a	20101115.130948	20101115.135507	8	0.013328	60	10	60-180	60	100	GapExp	0	391	2	0	0	distractor	1	440	780	315900	13.328	13.085	13.565
ProbeTrack11	20	ProbeTrack	11.2	SCS215a	20101115.130948	20101115.135512	8	0.013328	60	10	60-180	60	82	GapExp	0	392	2	1	1	target	1	400	800	316700	13.328	13.309	13.346
ProbeTrack11	20	ProbeTrack	11.2	SCS215a	20101115.130948	20101115.135518	8	0.013328	60	0	60-180	60	178	GapExp	0	393	2	0	1	target	1	347	827	317527	13.328	13.309	13.348
ProbeTrack11	20	ProbeTrack	11.2	SCS215a	20101115.130948	20101115.135524	8	0.013328	60	10	60-180	60	136	GapExp	0	394	2	45	1	target	1	320	840	318367	13.328	13.309	13.348
ProbeTrack11	20	ProbeTrack	11.2	SCS215a	20101115.130948	20101115.135531	8	0.013328	60	0	60-180	60	81	GapExp	0	395	2	0	1	target	1	374	813	319180	13.328	12.978	13.691
ProbeTrack11	20	ProbeTrack	11.2	SCS215a	20101115.130948	20101115.135542	8	0.013328	60	0	60-180	60	135	GapExp	0	396	2	1	0	distractor	1	480	760	319940	13.328	12.876	13.761
ProbeTrack11	20	ProbeTrack	11.2	SCS215a	20101115.130948	20101115.135548	8	0.013328	60	0	60-180	60	137	GapExp	0	397	2	0	0	distractor	1	454	773	320713	13.328	12.991	13.672
ProbeTrack11	20	ProbeTrack	11.2	SCS215a	20101115.130948	20101115.135554	8	0.013328	60	10	60-180	60	71	GapExp	0	398	2	0	0	distractor	1	400	800	321513	13.328	13.308	13.347
ProbeTrack11	20	ProbeTrack	11.2	SCS215a	20101115.130948	20101115.135559	8	0.013328	60	0	60-180	60	109	GapExp	0	399	2	45	0	distractor	1	467	767	322280	13.327	13.015	13.346
ProbeTrack11	20	ProbeTrack	11.2	SCS215a	20101115.130948	20101115.135606	8	0.013328	60	10	60-180	60	131	GapExp	0	400	2	1	0	distractor	1	400	800	323080	13.328	13.307	13.345
ProbeTrack11	20	ProbeTrack	11.2	SCS215a	20101115.130948	20101115.135614	8	0.013328	60	0	60-180	60	82	GapExp	0	401	2	1	0	distractor	1	467	767	323847	13.328	12.969	13.681
ProbeTrack11	20	ProbeTrack	11.2	SCS215a	20101115.130948	20101115.135619	8	0.013328	60	0	60-180	60	76	GapExp	0	402	2	45	0	distractor	1	360	820	324667	13.328	12.891	13.773
ProbeTrack11	20	ProbeTrack	11.2	SCS215a	20101115.130948	20101115.135625	8	0.013328	60	10	60-180	60	172	GapExp	0	403	2	45	0	distractor	1	374	813	325480	13.328	13.109	13.552
ProbeTrack11	20	ProbeTrack	11.2	SCS215a	20101115.130948	20101115.135632	8	0.013328	60	10	60-180	60	156	GapExp	0	404	2	3	0	distractor	1	414	793	326273	13.328	12.927	13.737
ProbeTrack11	20	ProbeTrack	11.2	SCS215a	20101115.130948	20101115.135638	8	0.013328	60	0	60-180	60	135	GapExp	0	405	2	3	1	target	1	360	820	327093	13.328	12.892	13.771
ProbeTrack11	20	ProbeTrack	11.2	SCS215a	20101115.130948	20101115.135644	8	0.013328	60	0	60-180	60	128	GapExp	0	406	2	45	0	distractor	1	387	807	327900	13.328	12.881	13.768
ProbeTrack11	20	ProbeTrack	11.2	SCS215a	20101115.130948	20101115.135651	8	0.013328	60	0	60-180	60	95	GapExp	0	407	2	1	0	distractor	1	387	807	328707	13.328	13.308	13.347
ProbeTrack11	20	ProbeTrack	11.2	SCS215a	20101115.130948	20101115.135656	8	0.013328	60	10	60-180	60	111	GapExp	0	408	2	3	1	target	1	427	787	329494	13.328	13.303	13.347
ProbeTrack11	20	ProbeTrack	11.2	SCS215a	20101115.130948	20101115.135702	8	0.013328	60	0	60-180	60	172	GapExp	0	409	2	1	0	distractor	1	374	813	330307	13.328	12.851	13.803
ProbeTrack11	20	ProbeTrack	11.2	SCS215a	20101115.130948	20101115.135708	8	0.013328	60	10	60-180	60	71	GapExp	0	410	2	3	1	target	1	374	813	331120	13.327	12.677	13.989
ProbeTrack11	20	ProbeTrack	11.2	SCS215a	20101115.130948	20101115.135713	8	0.013328	60	0	60-180	60	178	GapExp	0	411	2	1	1	target	1	347	827	331947	13.328	13.024	13.647
ProbeTrack11	20	ProbeTrack	11.2	SCS215a	20101115.130948	20101115.135720	8	0.013328	60	10	60-180	60	88	GapExp	0	412	2	0	1	target	1	387	807	332754	13.328	13.107	13.550
ProbeTrack11	20	ProbeTrack	11.2	SCS215a	20101115.130948	20101115.135725	8	0.013328	60	10	60-180	60	153	GapExp	0	413	2	45	0	distractor	1	387	807	333561	13.328	13.113	13.546
ProbeTrack11	20	ProbeTrack	11.2	SCS215a	20101115.130948	20101115.135732	8	0.013328	60	0	60-180	60	135	GapExp	0	414	2	1	1	target	1	387	807	334368	13.328	12.862	13.778
ProbeTrack11	20	ProbeTrack	11.2	SCS215a	20101115.130948	20101115.135738	8	0.013328	60	0	60-180	60	69	GapExp	0	415	2	3	1	target	1	362	819	335187	13.328	12.880	13.783
ProbeTrack11	20	ProbeTrack	11.2	SCS215a	20101115.130948	20101115.135743	8	0.013328	60	10	60-180	60	159	GapExp	0	416	2	3	0	distractor	1	387	807	335994	13.328	12.916	13.723
ProbeTrack11	20	ProbeTrack	11.2	SCS215a	20101115.130948	20101115.135750	8	0.013328	60	0	60-180	60	133	GapExp	0	417	2	3	1	target	1	360	820	336814	13.328	13.089	13.563
ProbeTrack11	20	ProbeTrack	11.2	SCS215a	20101115.130948	20101115.135756	8	0.013328	60	0	60-180	60	172	GapExp	0	418	2	45	1	target	1	334	833	337647	13.328	12.987	13.673
ProbeTrack11	20	ProbeTrack	11.2	SCS215a	20101115.130948	20101115.135803	8	0.013328	60	0	60-180	60	171	GapExp	0	419	2	1	1	target	1	320	840	338487	13.328	13.106	13.546
ProbeTrack11	20	ProbeTrack	11.2	SCS215a	20101115.130948	20101115.135809	8	0.013328	60	10	60-180	60	157	GapExp	0	420	2	3	0	distractor	1	427	787	339274	13.328	12.919	13.731
ProbeTrack11	20	ProbeTrack	11.2	SCS215a	20101115.130948	20101115.135825	8	0.013328	60	10	60-180	60	163	GapExp	0	421	2	0	1	target	1	440	780	340054	13.328	13.003	13.654
ProbeTrack11	20	ProbeTrack	11.2	SCS215a	20101115.130948	20101115.135831	8	0.013328	60	0	60-180	60	68	GapExp	0	422	2	3	1	target	1	374	813	340867	13.328	12.993	13.658
ProbeTrack11	20	ProbeTrack	11.2	SCS215a	20101115.130948	20101115.135836	8	0.013328	60	10	60-180	60	172	GapExp	0	423	2	45	0	distractor	1	320	840	341707	13.328	12.886	13.770
ProbeTrack11	20	ProbeTrack	11.2	SCS215a	20101115.130948	20101115.135843	8	0.013328	60	0	60-180	60	98	GapExp	0	424	2	1	0	distractor	1	494	753	342460	13.328	13.009	13.637
ProbeTrack11	20	ProbeTrack	11.2	SCS215a	20101115.130948	20101115.135857	8	0.013328	60	0	60-180	60	106	GapExp	0	425	2	3	0	distractor	1	467	767	343227	13.328	13.051	13.623
ProbeTrack11	20	ProbeTrack	11.2	SCS215a	20101115.130948	20101115.135903	8	0.013328	60	0	60-180	60	125	GapExp	0	426	2	1	1	target	1	387	807	344034	13.328	12.850	13.809
ProbeTrack11	20	ProbeTrack	11.2	SCS215a	20101115.130948	20101115.135909	8	0.013328	60	0	60-180	60	179	GapExp	0	427	2	3	0	distractor	1	387	807	344841	13.328	12.979	13.348
ProbeTrack11	20	ProbeTrack	11.2	SCS215a	20101115.130948	20101115.135916	8	0.013328	60	0	60-180	60	145	GapExp	0	428	2	0	1	target	1	374	813	345654	13.328	13.042	13.601
ProbeTrack11	20	ProbeTrack	11.2	SCS215a	20101115.130948	20101115.135922	8	0.013328	60	10	60-180	60	135	GapExp	0	429	2	1	1	distractor	0	347	-1000	344654	13.328	13.022	13.624
ProbeTrack11	20	ProbeTrack	11.2	SCS215a	20101115.130948	20101115.135928	8	0.013328	60	0	60-180	60	156	GapExp	0	430	2	0	0	distractor	1	400	800	345454	13.328	13.308	13.346
ProbeTrack11	20	ProbeTrack	11.2	SCS215a	20101115.130948	20101115.135935	8	0.013328	60	0	60-180	60	145	GapExp	0	431	2	0	1	target	1	454	773	346227	13.328	13.092	13.558
ProbeTrack11	20	ProbeTrack	11.2	SCS215a	20101115.130948	20101115.135941	8	0.013328	60	0	60-180	60	133	GapExp	0	432	2	45	1	target	1	334	833	347060	13.328	13.100	13.559
ProbeTrack11	20	ProbeTrack	11.2	SCS215a	20101115.130948	20101115.135947	8	0.013328	60	10	60-180	60	107	GapExp	0	433	2	1	1	target	1	360	820	347880	13.328	12.918	13.748
ProbeTrack11	20	ProbeTrack	11.2	SCS215a	20101115.130948	20101115.135953	8	0.013328	60	0	60-180	60	117	GapExp	0	434	2	3	1	target	1	374	813	348693	13.328	12.886	13.771
ProbeTrack11	20	ProbeTrack	11.2	SCS215a	20101115.130948	20101115.135959	8	0.013328	60	10	60-180	60	168	GapExp	0	435	2	45	1	distractor	0	360	-1000	347693	13.328	13.102	13.541
ProbeTrack11	20	ProbeTrack	11.2	SCS215a	20101115.130948	20101115.140006	8	0.013328	60	10	60-180	60	133	GapExp	0	436	2	3	1	target	1	427	787	348480	13.329	13.308	13.496
ProbeTrack11	20	ProbeTrack	11.2	SCS215a	20101115.130948	20101115.140012	8	0.013328	60	10	60-180	60	139	GapExp	0	437	2	1	0	distractor	1	427	787	349267	13.328	12.850	13.793
ProbeTrack11	20	ProbeTrack	11.2	SCS215a	20101115.130948	20101115.140019	8	0.013328	60	10	60-180	60	101	GapExp	0	438	2	0	1	target	1	427	787	350054	13.328	13.309	13.345
ProbeTrack11	20	ProbeTrack	11.2	SCS215a	20101115.130948	20101115.140025	8	0.013328	60	0	60-180	60	145	GapExp	0	439	2	3	1	target	1	347	827	350881	13.328	13.070	13.572
ProbeTrack11	20	ProbeTrack	11.2	SCS215a	20101115.130948	20101115.140033	8	0.013328	60	0	60-180	60	156	GapExp	0	440	2	45	0	distractor	1	427	787	351668	13.328	13.309	13.347
ProbeTrack11	20	ProbeTrack	11.2	SCS215a	20101115.130948	20101115.140040	8	0.013328	60	10	60-180	60	158	GapExp	0	441	2	45	1	target	1	400	800	352468	13.328	13.309	13.347
ProbeTrack11	20	ProbeTrack	11.2	SCS215a	20101115.130948	20101115.140047	8	0.013328	60	0	60-180	60	87	GapExp	0	442	2	45	0	distractor	1	440	780	353248	13.328	13.096	13.573
ProbeTrack11	20	ProbeTrack	11.2	SCS215a	20101115.130948	20101115.140057	8	0.013328	60	0	60-180	60	130	GapExp	0	443	2	45	1	target	1	454	773	354021	13.328	13.092	13.552
ProbeTrack11	20	ProbeTrack	11.2	SCS215a	20101115.130948	20101115.140105	8	0.013328	60	0	60-180	60	154	GapExp	0	444	2	1	0	distractor	1	427	787	354808	13.328	13.098	13.543
ProbeTrack11	20	ProbeTrack	11.2	SCS215a	20101115.130948	20101115.140111	8	0.013328	60	0	60-180	60	99	GapExp	0	445	2	45	1	target	1	374	813	355621	13.328	12.967	13.704
ProbeTrack11	20	ProbeTrack	11.2	SCS215a	20101115.130948	20101115.140117	8	0.013328	60	0	60-180	60	133	GapExp	0	446	2	0	0	distractor	1	347	827	356448	13.328	13.098	13.553
ProbeTrack11	20	ProbeTrack	11.2	SCS215a	20101115.130948	20101115.140123	8	0.013328	60	0	60-180	60	108	GapExp	0	447	2	45	0	distractor	1	414	793	357241	13.328	12.936	13.717
ProbeTrack11	20	ProbeTrack	11.2	SCS215a	20101115.130948	20101115.140129	8	0.013328	60	10	60-180	60	128	GapExp	0	448	2	0	0	distractor	1	507	747	357988	13.328	12.930	13.731
ProbeTrack11	20	ProbeTrack	11.2	SCS215a	20101115.130948	20101115.140136	8	0.013328	60	10	60-180	60	172	GapExp	0	449	2	1	1	target	1	414	793	358781	13.328	13.084	13.556
ProbeTrack11	20	ProbeTrack	11.2	SCS215a	20101115.130948	20101115.140144	8	0.013328	60	0	60-180	60	94	GapExp	0	450	2	3	0	distractor	1	440	780	359561	13.328	12.881	13.775
