exp	sub	code	rev	comp	runtime	trialtime	nstim	refreshdur	cuedur	gapdur	gapOnsetRange	durPostProbe	gapOnsetTime	blocktype	prac	trial	ntargets	soa	probeTarget	resp	acc	rt	pts	tpts	meanFrameDur	minFrameDur	maxFrameDur
ProbeTrack11	15	ProbeTrack	11.2	SCS215a	20101027.130133	20101027.130209	8	0.013333	60	0	60-180	60	180	NoGap	1	1	2	45	1	target	1	1000	500	500	13.365	13.011	26.644
ProbeTrack11	15	ProbeTrack	11.2	SCS215a	20101027.130133	20101027.130224	8	0.013333	60	0	60-180	60	167	NoGap	1	2	2	3	0	distractor	1	920	540	1040	13.328	13.095	13.556
ProbeTrack11	15	ProbeTrack	11.2	SCS215a	20101027.130133	20101027.130236	8	0.013333	60	0	60-180	60	115	NoGap	1	3	2	45	0	distractor	1	800	600	1640	13.690	13.034	26.659
ProbeTrack11	15	ProbeTrack	11.2	SCS215a	20101027.130133	20101027.130249	8	0.013333	60	0	60-180	60	92	NoGap	1	4	2	1	1	target	1	920	540	2180	13.328	13.026	13.614
ProbeTrack11	15	ProbeTrack	11.2	SCS215a	20101027.130133	20101027.130256	8	0.013333	60	0	60-180	60	151	NoGap	1	5	2	3	0	distractor	1	813	594	2774	13.374	13.038	26.879
ProbeTrack11	15	ProbeTrack	11.2	SCS215a	20101027.130133	20101027.130303	8	0.013333	60	0	60-180	60	74	NoGap	1	6	2	0	1	target	1	747	627	3401	13.328	12.886	13.772
ProbeTrack11	15	ProbeTrack	11.2	SCS215a	20101027.130133	20101027.130309	8	0.013333	60	0	60-180	60	128	NoGap	1	7	2	1	0	distractor	1	720	640	4041	13.328	13.311	13.348
ProbeTrack11	15	ProbeTrack	11.2	SCS215a	20101027.130133	20101027.130316	8	0.013333	60	0	60-180	60	126	NoGap	1	8	2	3	0	32	-3	840	-1000	3041	13.328	12.863	13.775
ProbeTrack11	15	ProbeTrack	11.2	SCS215a	20101027.130133	20101027.130324	8	0.013333	60	0	60-180	60	68	NoGap	1	9	2	45	1	target	1	1000	500	3541	13.328	13.184	13.460
ProbeTrack11	15	ProbeTrack	11.2	SCS215a	20101027.130133	20101027.130331	8	0.013333	60	0	60-180	60	102	NoGap	1	10	2	45	0	distractor	1	1000	500	4041	13.328	13.085	13.563
ProbeTrack11	15	ProbeTrack	11.2	SCS215a	20101027.130133	20101027.130340	8	0.013333	60	0	60-180	60	163	NoGap	1	11	2	3	1	target	1	827	587	4628	13.328	13.101	13.561
ProbeTrack11	15	ProbeTrack	11.2	SCS215a	20101027.130133	20101027.130348	8	0.013333	60	0	60-180	60	156	NoGap	1	12	2	1	1	target	1	733	634	5262	13.328	13.309	13.353
ProbeTrack11	15	ProbeTrack	11.2	SCS215a	20101027.130133	20101027.130358	8	0.013333	60	0	60-180	60	153	NoGap	1	13	2	45	1	target	1	720	640	5902	13.328	12.928	13.725
ProbeTrack11	15	ProbeTrack	11.2	SCS215a	20101027.130133	20101027.130406	8	0.013333	60	0	60-180	60	148	NoGap	1	14	2	3	1	target	1	653	674	6576	13.520	12.858	26.656
ProbeTrack11	15	ProbeTrack	11.2	SCS215a	20101027.130133	20101027.130414	8	0.013333	60	0	60-180	60	67	NoGap	1	15	2	45	0	distractor	1	707	647	7223	13.997	12.881	39.969
ProbeTrack11	15	ProbeTrack	11.2	SCS215a	20101027.130133	20101027.130422	8	0.013333	60	0	60-180	60	118	NoGap	1	16	2	1	0	distractor	1	840	580	7803	13.328	13.101	13.568
ProbeTrack11	15	ProbeTrack	11.2	SCS215a	20101027.130133	20101027.130429	8	0.013333	60	0	60-180	60	154	NoGap	1	17	2	0	0	distractor	1	813	594	8397	13.328	13.283	13.366
ProbeTrack11	15	ProbeTrack	11.2	SCS215a	20101027.130133	20101027.130437	8	0.013333	60	0	60-180	60	70	NoGap	1	18	2	45	1	target	1	760	620	9017	13.328	12.850	13.809
ProbeTrack11	15	ProbeTrack	11.2	SCS215a	20101027.130133	20101027.130444	8	0.013333	60	0	60-180	60	174	NoGap	1	19	2	0	0	distractor	1	827	587	9604	13.328	13.106	13.555
ProbeTrack11	15	ProbeTrack	11.2	SCS215a	20101027.130133	20101027.130452	8	0.013333	60	0	60-180	60	137	NoGap	1	20	2	0	0	distractor	1	720	640	10244	13.328	12.877	13.768
ProbeTrack11	15	ProbeTrack	11.2	SCS215a	20101027.130133	20101027.130459	8	0.013333	60	0	60-180	60	129	NoGap	1	21	2	0	1	target	1	734	633	10877	13.328	13.271	13.385
ProbeTrack11	15	ProbeTrack	11.2	SCS215a	20101027.130133	20101027.130506	8	0.013333	60	0	60-180	60	113	NoGap	1	22	2	3	0	distractor	1	1000	500	11377	13.328	13.256	13.405
ProbeTrack11	15	ProbeTrack	11.2	SCS215a	20101027.130133	20101027.130516	8	0.013333	60	0	60-180	60	83	NoGap	1	23	2	3	1	target	1	667	667	12044	13.328	13.296	13.353
ProbeTrack11	15	ProbeTrack	11.2	SCS215a	20101027.130133	20101027.130523	8	0.013333	60	0	60-180	60	119	NoGap	1	24	2	0	0	distractor	1	787	607	12651	13.328	13.107	13.549
ProbeTrack11	15	ProbeTrack	11.2	SCS215a	20101027.130133	20101027.130531	8	0.013333	60	0	60-180	60	134	NoGap	1	25	2	1	0	distractor	1	867	567	13218	13.328	13.095	13.550
ProbeTrack11	15	ProbeTrack	11.2	SCS215a	20101027.130133	20101027.130539	8	0.013333	60	0	60-180	60	131	NoGap	1	26	2	45	0	distractor	1	907	547	13765	13.328	12.962	13.698
ProbeTrack11	15	ProbeTrack	11.2	SCS215a	20101027.130133	20101027.130547	8	0.013333	60	0	60-180	60	124	NoGap	1	27	2	1	1	target	1	693	654	14419	13.328	13.083	13.571
ProbeTrack11	15	ProbeTrack	11.2	SCS215a	20101027.130133	20101027.130554	8	0.013333	60	0	60-180	60	106	NoGap	1	28	2	45	1	target	1	654	673	15092	13.328	13.099	13.559
ProbeTrack11	15	ProbeTrack	11.2	SCS215a	20101027.130133	20101027.130602	8	0.013333	60	0	60-180	60	97	NoGap	1	29	2	1	1	target	1	840	580	15672	13.328	13.126	13.537
ProbeTrack11	15	ProbeTrack	11.2	SCS215a	20101027.130133	20101027.130610	8	0.013333	60	0	60-180	60	161	NoGap	1	30	2	1	0	distractor	1	667	667	16339	13.328	12.873	13.793
ProbeTrack11	15	ProbeTrack	11.2	SCS215a	20101027.130133	20101027.130617	8	0.013333	60	0	60-180	60	88	NoGap	1	31	2	0	1	distractor	0	774	-1000	15339	13.328	13.308	13.347
ProbeTrack11	15	ProbeTrack	11.2	SCS215a	20101027.130133	20101027.130624	8	0.013333	60	0	60-180	60	71	NoGap	1	32	2	3	1	target	1	933	534	15873	13.328	13.099	13.550
ProbeTrack11	15	ProbeTrack	11.2	SCS215a	20101027.130133	20101027.130634	8	0.013333	60	0	60-180	60	93	NoGap	1	33	2	3	1	target	1	667	667	16540	13.328	13.096	13.547
ProbeTrack11	15	ProbeTrack	11.2	SCS215a	20101027.130133	20101027.130641	8	0.013333	60	0	60-180	60	119	NoGap	1	34	2	45	0	distractor	1	640	680	17220	13.328	12.899	13.771
ProbeTrack11	15	ProbeTrack	11.2	SCS215a	20101027.130133	20101027.130649	8	0.013333	60	0	60-180	60	111	NoGap	1	35	2	1	1	target	1	840	580	17800	13.328	13.097	13.556
ProbeTrack11	15	ProbeTrack	11.2	SCS215a	20101027.130133	20101027.130656	8	0.013333	60	0	60-180	60	88	NoGap	1	36	2	0	0	distractor	1	720	640	18440	13.328	12.950	13.707
ProbeTrack11	15	ProbeTrack	11.2	SCS215a	20101027.130133	20101027.130704	8	0.013333	60	0	60-180	60	74	NoGap	1	37	2	0	1	target	1	613	694	19134	13.328	13.091	13.565
ProbeTrack11	15	ProbeTrack	11.2	SCS215a	20101027.130133	20101027.130711	8	0.013333	60	0	60-180	60	99	NoGap	1	38	2	3	0	distractor	1	547	727	19861	13.328	13.307	13.352
ProbeTrack11	15	ProbeTrack	11.2	SCS215a	20101027.130133	20101027.130719	8	0.013333	60	0	60-180	60	96	NoGap	1	39	2	1	0	distractor	1	693	654	20515	13.328	12.966	13.688
ProbeTrack11	15	ProbeTrack	11.2	SCS215a	20101027.130133	20101027.130725	8	0.013333	60	0	60-180	60	75	NoGap	1	40	2	0	1	target	1	667	667	21182	13.328	13.098	13.563
ProbeTrack11	15	ProbeTrack	11.2	SCS215a	20101027.130805	20101027.130821	8	0.013328	60	0	60-180	60	65	GapPrac	1	1	2	45	0	distractor	1	747	627	21809	13.328	13.047	13.612
ProbeTrack11	15	ProbeTrack	11.2	SCS215a	20101027.130805	20101027.130828	8	0.013328	60	10	60-180	60	104	GapPrac	1	2	2	45	0	distractor	1	3679	0	21809	13.328	12.856	13.801
ProbeTrack11	15	ProbeTrack	11.2	SCS215a	20101027.130805	20101027.130838	8	0.013328	60	0	60-180	60	77	GapPrac	1	3	2	0	1	target	1	937	532	22341	13.328	12.873	13.776
ProbeTrack11	15	ProbeTrack	11.2	SCS215a	20101027.130805	20101027.130857	8	0.013328	60	10	60-180	60	146	GapPrac	1	4	2	45	1	target	1	667	667	23008	13.328	12.970	13.686
ProbeTrack11	15	ProbeTrack	11.2	SCS215a	20101027.130805	20101027.130916	8	0.013328	60	10	60-180	60	139	GapPrac	1	5	2	0	0	distractor	1	893	554	23562	13.328	12.902	13.737
ProbeTrack11	15	ProbeTrack	11.2	SCS215a	20101027.130805	20101027.130923	8	0.013328	60	10	60-180	60	98	GapPrac	1	6	2	3	1	target	1	733	634	24196	13.328	13.096	13.550
ProbeTrack11	15	ProbeTrack	11.2	SCS215a	20101027.130805	20101027.130931	8	0.013328	60	0	60-180	60	87	GapPrac	1	7	2	45	1	target	1	733	634	24830	13.328	13.309	13.346
ProbeTrack11	15	ProbeTrack	11.2	SCS215a	20101027.130805	20101027.130939	8	0.013328	60	0	60-180	60	83	GapPrac	1	8	2	3	0	distractor	1	960	520	25350	13.328	13.072	13.573
ProbeTrack11	15	ProbeTrack	11.2	SCS215a	20101027.130805	20101027.130946	8	0.013328	60	0	60-180	60	128	GapPrac	1	9	2	0	0	distractor	1	707	647	25997	13.328	12.854	13.801
ProbeTrack11	15	ProbeTrack	11.2	SCS215a	20101027.130805	20101027.130953	8	0.013328	60	10	60-180	60	176	GapPrac	1	10	2	45	0	target	0	627	-1000	24997	13.328	13.100	13.564
ProbeTrack11	15	ProbeTrack	11.2	SCS215a	20101027.130805	20101027.131001	8	0.013328	60	0	60-180	60	146	GapPrac	1	11	2	3	1	target	1	707	647	25644	13.328	12.238	14.463
ProbeTrack11	15	ProbeTrack	11.2	SCS215a	20101027.130805	20101027.131012	8	0.013328	60	0	60-180	60	64	GapPrac	1	12	2	0	1	target	1	547	727	26371	13.328	13.092	13.572
ProbeTrack11	15	ProbeTrack	11.2	SCS215a	20101027.130805	20101027.131019	8	0.013328	60	10	60-180	60	95	GapPrac	1	13	2	1	0	distractor	1	800	600	26971	13.328	13.098	13.545
ProbeTrack11	15	ProbeTrack	11.2	SCS215a	20101027.130805	20101027.131027	8	0.013328	60	0	60-180	60	127	GapPrac	1	14	2	1	0	distractor	1	1306	347	27318	13.328	13.104	13.557
ProbeTrack11	15	ProbeTrack	11.2	SCS215a	20101027.130805	20101027.131035	8	0.013328	60	10	60-180	60	160	GapPrac	1	15	2	45	1	target	1	613	694	28012	13.328	12.852	13.799
ProbeTrack11	15	ProbeTrack	11.2	SCS215a	20101027.130805	20101027.131043	8	0.013328	60	0	60-180	60	138	GapPrac	1	16	2	45	0	distractor	1	733	634	28646	13.328	13.307	13.350
ProbeTrack11	15	ProbeTrack	11.2	SCS215a	20101027.130805	20101027.131051	8	0.013328	60	10	60-180	60	154	GapPrac	1	17	2	3	0	distractor	1	667	667	29313	13.328	13.307	13.347
ProbeTrack11	15	ProbeTrack	11.2	SCS215a	20101027.130805	20101027.131059	8	0.013328	60	10	60-180	60	159	GapPrac	1	18	2	1	1	target	1	680	660	29973	13.328	12.989	13.660
ProbeTrack11	15	ProbeTrack	11.2	SCS215a	20101027.130805	20101027.131108	8	0.013328	60	0	60-180	60	110	GapPrac	1	19	2	1	1	target	1	653	674	30647	13.328	12.975	13.690
ProbeTrack11	15	ProbeTrack	11.2	SCS215a	20101027.130805	20101027.131114	8	0.013328	60	10	60-180	60	68	GapPrac	1	20	2	0	1	target	1	627	687	31334	13.328	13.105	13.545
ProbeTrack11	15	ProbeTrack	11.2	SCS215a	20101027.131236	20101027.131312	8	0.013328	60	0	60-180	60	178	GapExp	1	1	2	1	1	target	1	747	627	31961	13.328	13.099	13.556
ProbeTrack11	15	ProbeTrack	11.2	SCS215a	20101027.131236	20101027.131321	8	0.013328	60	10	60-180	60	129	GapExp	1	2	2	3	0	distractor	1	600	700	32661	13.328	13.308	13.345
ProbeTrack11	15	ProbeTrack	11.2	SCS215a	20101027.131236	20101027.131329	8	0.013328	60	0	60-180	60	94	GapExp	0	3	2	45	0	distractor	1	907	547	33208	13.328	13.123	13.518
ProbeTrack11	15	ProbeTrack	11.2	SCS215a	20101027.131236	20101027.131338	8	0.013328	60	0	60-180	60	97	GapExp	0	4	2	0	0	distractor	1	747	627	33835	13.328	13.309	13.349
ProbeTrack11	15	ProbeTrack	11.2	SCS215a	20101027.131236	20101027.131346	8	0.013328	60	10	60-180	60	142	GapExp	0	5	2	1	0	distractor	1	707	647	34482	13.328	13.307	13.352
ProbeTrack11	15	ProbeTrack	11.2	SCS215a	20101027.131236	20101027.131353	8	0.013328	60	10	60-180	60	176	GapExp	0	6	2	45	0	distractor	1	693	654	35136	13.328	13.308	13.349
ProbeTrack11	15	ProbeTrack	11.2	SCS215a	20101027.131236	20101027.131401	8	0.013328	60	0	60-180	60	144	GapExp	0	7	2	3	0	distractor	1	680	660	35796	13.328	13.122	13.551
ProbeTrack11	15	ProbeTrack	11.2	SCS215a	20101027.131236	20101027.131412	8	0.013328	60	10	60-180	60	132	GapExp	0	8	2	0	0	target	0	1720	-1000	34796	13.328	13.308	13.348
ProbeTrack11	15	ProbeTrack	11.2	SCS215a	20101027.131236	20101027.131423	8	0.013328	60	10	60-180	60	63	GapExp	0	9	2	3	1	target	1	760	620	35416	13.328	13.306	13.350
ProbeTrack11	15	ProbeTrack	11.2	SCS215a	20101027.131236	20101027.131429	8	0.013328	60	0	60-180	60	161	GapExp	0	10	2	1	1	target	1	693	654	36070	13.328	13.202	13.461
ProbeTrack11	15	ProbeTrack	11.2	SCS215a	20101027.131236	20101027.131437	8	0.013328	60	10	60-180	60	74	GapExp	0	11	2	1	0	distractor	1	947	527	36597	13.328	13.310	13.349
ProbeTrack11	15	ProbeTrack	11.2	SCS215a	20101027.131236	20101027.131443	8	0.013328	60	10	60-180	60	147	GapExp	0	12	2	3	1	target	1	1160	420	37017	13.328	13.104	13.544
ProbeTrack11	15	ProbeTrack	11.2	SCS215a	20101027.131236	20101027.131453	8	0.013328	60	10	60-180	60	133	GapExp	0	13	2	1	1	target	1	1360	320	37337	13.328	13.303	13.349
ProbeTrack11	15	ProbeTrack	11.2	SCS215a	20101027.131236	20101027.131503	8	0.013328	60	0	60-180	60	147	GapExp	0	14	2	0	1	target	1	653	674	38011	13.328	13.307	13.350
ProbeTrack11	15	ProbeTrack	11.2	SCS215a	20101027.131236	20101027.131516	8	0.013328	60	0	60-180	60	126	GapExp	0	15	2	45	1	target	1	880	560	38571	13.371	13.308	26.664
ProbeTrack11	15	ProbeTrack	11.2	SCS215a	20101027.131236	20101027.131524	8	0.013328	60	10	60-180	60	160	GapExp	0	16	2	0	0	distractor	1	1080	460	39031	13.328	13.271	13.373
ProbeTrack11	15	ProbeTrack	11.2	SCS215a	20101027.131236	20101027.131532	8	0.013328	60	10	60-180	60	80	GapExp	0	17	2	3	0	distractor	1	813	594	39625	13.328	12.940	13.707
ProbeTrack11	15	ProbeTrack	11.2	SCS215a	20101027.131236	20101027.131538	8	0.013328	60	0	60-180	60	98	GapExp	0	18	2	1	0	distractor	1	760	620	40245	13.328	12.838	13.820
ProbeTrack11	15	ProbeTrack	11.2	SCS215a	20101027.131236	20101027.131545	8	0.013328	60	0	60-180	60	85	GapExp	0	19	2	0	0	distractor	1	827	587	40832	13.328	13.310	13.348
ProbeTrack11	15	ProbeTrack	11.2	SCS215a	20101027.131236	20101027.131551	8	0.013328	60	0	60-180	60	133	GapExp	0	20	2	1	0	distractor	1	720	640	41472	13.328	12.940	13.718
ProbeTrack11	15	ProbeTrack	11.2	SCS215a	20101027.131236	20101027.131601	8	0.013328	60	10	60-180	60	99	GapExp	0	21	2	0	1	target	1	2213	0	41472	13.328	13.017	13.640
ProbeTrack11	15	ProbeTrack	11.2	SCS215a	20101027.131236	20101027.131609	8	0.013328	60	10	60-180	60	169	GapExp	0	22	2	45	1	target	1	1120	440	41912	13.328	13.307	13.352
ProbeTrack11	15	ProbeTrack	11.2	SCS215a	20101027.131236	20101027.131617	8	0.013328	60	0	60-180	60	166	GapExp	0	23	2	1	0	distractor	1	694	653	42565	13.328	12.851	13.813
ProbeTrack11	15	ProbeTrack	11.2	SCS215a	20101027.131236	20101027.131629	8	0.013328	60	10	60-180	60	80	GapExp	0	24	2	1	0	distractor	1	880	560	43125	13.329	12.845	13.818
ProbeTrack11	15	ProbeTrack	11.2	SCS215a	20101027.131236	20101027.131636	8	0.013328	60	10	60-180	60	137	GapExp	0	25	2	3	1	target	1	1480	260	43385	13.328	12.862	13.784
ProbeTrack11	15	ProbeTrack	11.2	SCS215a	20101027.131236	20101027.131643	8	0.013328	60	0	60-180	60	141	GapExp	0	26	2	0	1	target	1	880	560	43945	13.328	13.304	13.350
ProbeTrack11	15	ProbeTrack	11.2	SCS215a	20101027.131236	20101027.131650	8	0.013328	60	10	60-180	60	125	GapExp	0	27	2	0	0	distractor	1	1080	460	44405	13.328	13.106	13.550
ProbeTrack11	15	ProbeTrack	11.2	SCS215a	20101027.131236	20101027.131657	8	0.013328	60	10	60-180	60	108	GapExp	0	28	2	1	0	distractor	1	667	667	45072	13.328	13.098	13.564
ProbeTrack11	15	ProbeTrack	11.2	SCS215a	20101027.131236	20101027.131704	8	0.013328	60	0	60-180	60	134	GapExp	0	29	2	1	1	target	1	680	660	45732	13.328	13.272	13.387
ProbeTrack11	15	ProbeTrack	11.2	SCS215a	20101027.131236	20101027.131710	8	0.013328	60	0	60-180	60	142	GapExp	0	30	2	1	0	distractor	1	627	687	46419	13.328	12.891	13.768
ProbeTrack11	15	ProbeTrack	11.2	SCS215a	20101027.131236	20101027.131717	8	0.013328	60	0	60-180	60	84	GapExp	0	31	2	45	1	target	1	747	627	47046	13.328	13.309	13.348
ProbeTrack11	15	ProbeTrack	11.2	SCS215a	20101027.131236	20101027.131724	8	0.013328	60	10	60-180	60	158	GapExp	0	32	2	1	0	distractor	1	840	580	47626	13.547	12.870	53.235
ProbeTrack11	15	ProbeTrack	11.2	SCS215a	20101027.131236	20101027.131732	8	0.013328	60	10	60-180	60	163	GapExp	0	33	2	45	0	distractor	1	707	647	48273	13.328	13.114	13.543
ProbeTrack11	15	ProbeTrack	11.2	SCS215a	20101027.131236	20101027.131746	8	0.013328	60	10	60-180	60	144	GapExp	0	34	2	1	1	target	1	773	614	48887	13.328	13.088	13.556
ProbeTrack11	15	ProbeTrack	11.2	SCS215a	20101027.131236	20101027.131754	8	0.013328	60	0	60-180	60	118	GapExp	0	35	2	3	1	target	1	747	627	49514	13.328	12.843	13.814
ProbeTrack11	15	ProbeTrack	11.2	SCS215a	20101027.131236	20101027.131801	8	0.013328	60	10	60-180	60	106	GapExp	0	36	2	0	1	target	1	1240	380	49894	13.328	13.107	13.550
ProbeTrack11	15	ProbeTrack	11.2	SCS215a	20101027.131236	20101027.131808	8	0.013328	60	0	60-180	60	104	GapExp	0	37	2	3	0	distractor	1	813	594	50488	13.328	12.913	13.752
ProbeTrack11	15	ProbeTrack	11.2	SCS215a	20101027.131236	20101027.131815	8	0.013328	60	10	60-180	60	178	GapExp	0	38	2	45	1	target	1	667	667	51155	13.328	13.309	13.350
ProbeTrack11	15	ProbeTrack	11.2	SCS215a	20101027.131236	20101027.131825	8	0.013328	60	0	60-180	60	65	GapExp	0	39	2	1	1	target	1	680	660	51815	13.328	13.311	13.348
ProbeTrack11	15	ProbeTrack	11.2	SCS215a	20101027.131236	20101027.131832	8	0.013328	60	0	60-180	60	105	GapExp	0	40	2	3	0	distractor	1	773	614	52429	13.328	13.307	13.347
ProbeTrack11	15	ProbeTrack	11.2	SCS215a	20101027.131236	20101027.131838	8	0.013328	60	10	60-180	60	169	GapExp	0	41	2	3	0	distractor	1	880	560	52989	13.328	12.917	13.734
ProbeTrack11	15	ProbeTrack	11.2	SCS215a	20101027.131236	20101027.131846	8	0.013328	60	10	60-180	60	138	GapExp	0	42	2	3	1	target	1	1107	447	53436	13.328	12.956	13.707
ProbeTrack11	15	ProbeTrack	11.2	SCS215a	20101027.131236	20101027.131853	8	0.013328	60	10	60-180	60	136	GapExp	0	43	2	1	0	distractor	1	1093	454	53890	13.328	12.983	13.697
ProbeTrack11	15	ProbeTrack	11.2	SCS215a	20101027.131236	20101027.131901	8	0.013328	60	10	60-180	60	80	GapExp	0	44	2	3	0	distractor	1	773	614	54504	13.328	13.302	13.350
ProbeTrack11	15	ProbeTrack	11.2	SCS215a	20101027.131236	20101027.131907	8	0.013328	60	0	60-180	60	130	GapExp	0	45	2	45	0	distractor	1	760	620	55124	13.328	13.309	13.347
ProbeTrack11	15	ProbeTrack	11.2	SCS215a	20101027.131236	20101027.131914	8	0.013328	60	10	60-180	60	139	GapExp	0	46	2	45	0	distractor	1	1133	434	55558	13.328	13.308	13.348
ProbeTrack11	15	ProbeTrack	11.2	SCS215a	20101027.131236	20101027.131923	8	0.013328	60	10	60-180	60	107	GapExp	0	47	2	1	1	target	1	747	627	56185	13.328	13.106	13.551
ProbeTrack11	15	ProbeTrack	11.2	SCS215a	20101027.131236	20101027.131931	8	0.013328	60	10	60-180	60	141	GapExp	0	48	2	3	0	distractor	1	1920	40	56225	13.328	12.948	13.692
ProbeTrack11	15	ProbeTrack	11.2	SCS215a	20101027.131236	20101027.131940	8	0.013328	60	0	60-180	60	153	GapExp	0	49	2	0	1	distractor	0	787	-1000	55225	13.328	12.929	13.705
ProbeTrack11	15	ProbeTrack	11.2	SCS215a	20101027.131236	20101027.131948	8	0.013328	60	10	60-180	60	100	GapExp	0	50	2	3	0	distractor	1	760	620	55845	13.328	13.307	13.346
ProbeTrack11	15	ProbeTrack	11.2	SCS215a	20101027.131236	20101027.131956	8	0.013328	60	10	60-180	60	72	GapExp	0	51	2	1	0	distractor	1	827	587	56432	13.328	12.973	13.686
ProbeTrack11	15	ProbeTrack	11.2	SCS215a	20101027.131236	20101027.132010	8	0.013328	60	0	60-180	60	66	GapExp	0	52	2	0	0	distractor	1	760	620	57052	13.328	13.244	13.420
ProbeTrack11	15	ProbeTrack	11.2	SCS215a	20101027.131236	20101027.132016	8	0.013328	60	10	60-180	60	129	GapExp	0	53	2	3	0	distractor	1	853	574	57626	13.328	13.046	13.625
ProbeTrack11	15	ProbeTrack	11.2	SCS215a	20101027.131236	20101027.132022	8	0.013328	60	10	60-180	60	168	GapExp	0	54	2	45	1	target	1	747	627	58253	13.515	12.865	53.314
ProbeTrack11	15	ProbeTrack	11.2	SCS215a	20101027.131236	20101027.132031	8	0.013328	60	0	60-180	60	84	GapExp	0	55	2	0	0	distractor	1	773	614	58867	13.328	13.304	13.348
ProbeTrack11	15	ProbeTrack	11.2	SCS215a	20101027.131236	20101027.132038	8	0.013328	60	10	60-180	60	159	GapExp	0	56	2	1	1	target	1	1227	387	59254	13.328	13.311	13.348
ProbeTrack11	15	ProbeTrack	11.2	SCS215a	20101027.131236	20101027.132045	8	0.013328	60	0	60-180	60	120	GapExp	0	57	2	3	1	target	1	574	713	59967	13.328	13.309	13.344
ProbeTrack11	15	ProbeTrack	11.2	SCS215a	20101027.131236	20101027.132053	8	0.013328	60	0	60-180	60	74	GapExp	0	58	2	45	1	target	1	614	693	60660	13.328	13.308	13.347
ProbeTrack11	15	ProbeTrack	11.2	SCS215a	20101027.131236	20101027.132101	8	0.013328	60	10	60-180	60	157	GapExp	0	59	2	45	0	distractor	1	640	680	61340	13.328	13.067	13.576
ProbeTrack11	15	ProbeTrack	11.2	SCS215a	20101027.131236	20101027.132108	8	0.013328	60	10	60-180	60	125	GapExp	0	60	2	45	1	target	1	627	687	62027	13.328	13.309	13.348
ProbeTrack11	15	ProbeTrack	11.2	SCS215a	20101027.131236	20101027.132116	8	0.013328	60	0	60-180	60	91	GapExp	0	61	2	0	1	target	1	1173	414	62441	13.328	13.097	13.550
ProbeTrack11	15	ProbeTrack	11.2	SCS215a	20101027.131236	20101027.132122	8	0.013328	60	0	60-180	60	131	GapExp	0	62	2	45	0	distractor	1	1053	474	62915	13.328	12.846	13.816
ProbeTrack11	15	ProbeTrack	11.2	SCS215a	20101027.131236	20101027.132130	8	0.013328	60	0	60-180	60	162	GapExp	0	63	2	1	1	target	1	1266	367	63282	13.328	13.103	13.552
ProbeTrack11	15	ProbeTrack	11.2	SCS215a	20101027.131236	20101027.132137	8	0.013328	60	0	60-180	60	178	GapExp	0	64	2	45	0	distractor	1	853	574	63856	13.328	12.870	13.788
ProbeTrack11	15	ProbeTrack	11.2	SCS215a	20101027.131236	20101027.132146	8	0.013328	60	0	60-180	60	127	GapExp	0	65	2	1	0	distractor	1	1133	434	64290	13.328	13.306	13.347
ProbeTrack11	15	ProbeTrack	11.2	SCS215a	20101027.131236	20101027.132153	8	0.013328	60	0	60-180	60	118	GapExp	0	66	2	3	0	distractor	1	562	719	65009	13.328	12.918	13.739
ProbeTrack11	15	ProbeTrack	11.2	SCS215a	20101027.131236	20101027.132159	8	0.013328	60	0	60-180	60	70	GapExp	0	67	2	0	1	target	1	693	654	65663	13.328	13.064	13.595
ProbeTrack11	15	ProbeTrack	11.2	SCS215a	20101027.131236	20101027.132205	8	0.013328	60	0	60-180	60	73	GapExp	0	68	2	45	0	distractor	1	640	680	66343	13.328	13.312	13.344
ProbeTrack11	15	ProbeTrack	11.2	SCS215a	20101027.131236	20101027.132211	8	0.013328	60	10	60-180	60	90	GapExp	0	69	2	0	0	target	0	667	-1000	65343	13.328	13.309	13.346
ProbeTrack11	15	ProbeTrack	11.2	SCS215a	20101027.131236	20101027.132217	8	0.013328	60	0	60-180	60	102	GapExp	0	70	2	1	0	distractor	1	787	607	65950	13.328	13.310	13.350
ProbeTrack11	15	ProbeTrack	11.2	SCS215a	20101027.131236	20101027.132223	8	0.013328	60	10	60-180	60	62	GapExp	0	71	2	3	0	distractor	1	693	654	66604	13.328	13.312	13.347
ProbeTrack11	15	ProbeTrack	11.2	SCS215a	20101027.131236	20101027.132229	8	0.013328	60	10	60-180	60	93	GapExp	0	72	2	1	0	distractor	1	587	707	67311	13.328	12.878	13.564
ProbeTrack11	15	ProbeTrack	11.2	SCS215a	20101027.131236	20101027.132235	8	0.013328	60	0	60-180	60	160	GapExp	0	73	2	45	0	distractor	1	787	607	67918	13.328	12.873	13.781
ProbeTrack11	15	ProbeTrack	11.2	SCS215a	20101027.131236	20101027.132246	8	0.013328	60	10	60-180	60	113	GapExp	0	74	2	0	0	distractor	1	1213	394	68312	13.328	13.307	13.347
ProbeTrack11	15	ProbeTrack	11.2	SCS215a	20101027.131236	20101027.132253	8	0.013328	60	0	60-180	60	116	GapExp	0	75	2	1	0	distractor	1	653	674	68986	13.328	13.285	13.368
ProbeTrack11	15	ProbeTrack	11.2	SCS215a	20101027.131236	20101027.132259	8	0.013328	60	10	60-180	60	90	GapExp	0	76	2	45	1	target	1	667	667	69653	13.328	13.296	13.348
ProbeTrack11	15	ProbeTrack	11.2	SCS215a	20101027.131236	20101027.132306	8	0.013328	60	10	60-180	60	133	GapExp	0	77	2	3	1	target	1	587	707	70360	13.328	12.902	13.741
ProbeTrack11	15	ProbeTrack	11.2	SCS215a	20101027.131236	20101027.132312	8	0.013328	60	0	60-180	60	93	GapExp	0	78	2	0	0	distractor	1	1253	374	70734	13.328	12.952	13.709
ProbeTrack11	15	ProbeTrack	11.2	SCS215a	20101027.131236	20101027.132319	8	0.013328	60	0	60-180	60	174	GapExp	0	79	2	0	1	target	1	547	727	71461	13.739	12.972	133.630
ProbeTrack11	15	ProbeTrack	11.2	SCS215a	20101027.131236	20101027.132328	8	0.013328	60	0	60-180	60	95	GapExp	0	80	2	45	0	distractor	1	733	634	72095	13.328	13.309	13.344
ProbeTrack11	15	ProbeTrack	11.2	SCS215a	20101027.131236	20101027.132335	8	0.013328	60	0	60-180	60	124	GapExp	0	81	2	0	0	distractor	1	614	693	72788	13.328	13.307	13.348
ProbeTrack11	15	ProbeTrack	11.2	SCS215a	20101027.131236	20101027.132341	8	0.013328	60	0	60-180	60	147	GapExp	0	82	2	1	0	distractor	1	667	667	73455	13.328	13.296	13.349
ProbeTrack11	15	ProbeTrack	11.2	SCS215a	20101027.131236	20101027.132348	8	0.013328	60	0	60-180	60	122	GapExp	0	83	2	0	1	target	1	574	713	74168	13.328	12.883	13.784
ProbeTrack11	15	ProbeTrack	11.2	SCS215a	20101027.131236	20101027.132354	8	0.013328	60	0	60-180	60	169	GapExp	0	84	2	45	1	target	1	454	773	74941	13.328	13.299	13.348
ProbeTrack11	15	ProbeTrack	11.2	SCS215a	20101027.131236	20101027.132402	8	0.013328	60	10	60-180	60	71	GapExp	0	85	2	0	1	target	1	827	587	75528	13.328	13.309	13.344
ProbeTrack11	15	ProbeTrack	11.2	SCS215a	20101027.131236	20101027.132409	8	0.013328	60	0	60-180	60	150	GapExp	0	86	2	45	0	distractor	1	600	700	76228	13.328	12.863	13.793
ProbeTrack11	15	ProbeTrack	11.2	SCS215a	20101027.131236	20101027.132416	8	0.013328	60	0	60-180	60	158	GapExp	0	87	2	3	0	distractor	1	627	687	76915	13.328	12.978	13.659
ProbeTrack11	15	ProbeTrack	11.2	SCS215a	20101027.131236	20101027.132423	8	0.013328	60	0	60-180	60	108	GapExp	0	88	2	45	0	distractor	1	640	680	77595	13.328	13.294	13.364
ProbeTrack11	15	ProbeTrack	11.2	SCS215a	20101027.131236	20101027.132430	8	0.013328	60	0	60-180	60	124	GapExp	0	89	2	1	1	target	1	1293	354	77949	13.328	13.293	13.350
ProbeTrack11	15	ProbeTrack	11.2	SCS215a	20101027.131236	20101027.132437	8	0.013328	60	0	60-180	60	82	GapExp	0	90	2	3	1	target	1	707	647	78596	13.328	13.308	13.345
ProbeTrack11	15	ProbeTrack	11.2	SCS215a	20101027.131236	20101027.132443	8	0.013328	60	10	60-180	60	118	GapExp	0	91	2	1	1	target	1	574	713	79309	13.328	13.102	13.344
ProbeTrack11	15	ProbeTrack	11.2	SCS215a	20101027.131236	20101027.132805	8	0.013328	60	10	60-180	60	118	GapExp	0	92	2	45	1	target	1	454	773	80082	13.328	13.308	13.345
ProbeTrack11	15	ProbeTrack	11.2	SCS215a	20101027.131236	20101027.132814	8	0.013328	60	0	60-180	60	82	GapExp	0	93	2	1	0	distractor	1	920	540	80622	13.328	13.312	13.345
ProbeTrack11	15	ProbeTrack	11.2	SCS215a	20101027.131236	20101027.132822	8	0.013328	60	0	60-180	60	174	GapExp	0	94	2	0	0	distractor	1	792	604	81226	13.329	13.305	13.626
ProbeTrack11	15	ProbeTrack	11.2	SCS215a	20101027.131236	20101027.132833	8	0.013328	60	0	60-180	60	132	GapExp	0	95	2	45	1	target	1	907	547	81773	13.328	13.097	13.564
ProbeTrack11	15	ProbeTrack	11.2	SCS215a	20101027.131236	20101027.132841	8	0.013328	60	10	60-180	60	113	GapExp	0	96	2	45	1	target	1	534	733	82506	13.328	13.307	13.345
ProbeTrack11	15	ProbeTrack	11.2	SCS215a	20101027.131236	20101027.132847	8	0.013328	60	10	60-180	60	113	GapExp	0	97	2	1	1	target	1	640	680	83186	13.328	13.083	13.575
ProbeTrack11	15	ProbeTrack	11.2	SCS215a	20101027.131236	20101027.132854	8	0.013328	60	10	60-180	60	180	GapExp	0	98	2	0	1	target	1	547	727	83913	13.371	12.895	26.647
ProbeTrack11	15	ProbeTrack	11.2	SCS215a	20101027.131236	20101027.132901	8	0.013328	60	10	60-180	60	146	GapExp	0	99	2	1	0	distractor	1	547	727	84640	13.328	13.007	13.648
ProbeTrack11	15	ProbeTrack	11.2	SCS215a	20101027.131236	20101027.132908	8	0.013328	60	0	60-180	60	166	GapExp	0	100	2	3	0	target	0	560	-1000	83640	13.328	13.101	13.565
ProbeTrack11	15	ProbeTrack	11.2	SCS215a	20101027.131236	20101027.132915	8	0.013328	60	0	60-180	60	126	GapExp	0	101	2	1	0	distractor	1	1720	140	83780	13.328	13.288	13.355
ProbeTrack11	15	ProbeTrack	11.2	SCS215a	20101027.131236	20101027.132924	8	0.013328	60	0	60-180	60	99	GapExp	0	102	2	3	1	target	1	3026	0	83780	13.328	12.909	13.746
ProbeTrack11	15	ProbeTrack	11.2	SCS215a	20101027.131236	20101027.132933	8	0.013328	60	0	60-180	60	81	GapExp	0	103	2	45	1	target	1	520	740	84520	13.328	12.888	13.759
ProbeTrack11	15	ProbeTrack	11.2	SCS215a	20101027.131236	20101027.132941	8	0.013328	60	0	60-180	60	121	GapExp	0	104	2	1	1	target	1	667	667	85187	13.328	13.047	13.608
ProbeTrack11	15	ProbeTrack	11.2	SCS215a	20101027.131236	20101027.132947	8	0.013328	60	10	60-180	60	123	GapExp	0	105	2	1	0	distractor	1	813	594	85781	13.328	12.867	13.781
ProbeTrack11	15	ProbeTrack	11.2	SCS215a	20101027.131236	20101027.132955	8	0.013328	60	10	60-180	60	150	GapExp	0	106	2	1	0	distractor	1	1693	154	85935	13.328	13.104	13.561
ProbeTrack11	15	ProbeTrack	11.2	SCS215a	20101027.131236	20101027.133004	8	0.013328	60	10	60-180	60	147	GapExp	0	107	2	3	0	distractor	1	587	707	86642	13.423	12.678	26.704
ProbeTrack11	15	ProbeTrack	11.2	SCS215a	20101027.131236	20101027.133010	8	0.013328	60	0	60-180	60	96	GapExp	0	108	2	1	1	target	1	534	733	87375	13.515	13.100	39.999
ProbeTrack11	15	ProbeTrack	11.2	SCS215a	20101027.131236	20101027.133016	8	0.013328	60	10	60-180	60	122	GapExp	0	109	2	0	0	distractor	1	987	507	87882	13.328	13.106	13.558
ProbeTrack11	15	ProbeTrack	11.2	SCS215a	20101027.131236	20101027.133023	8	0.013328	60	10	60-180	60	83	GapExp	0	110	2	45	0	distractor	1	534	733	88615	13.328	13.104	13.545
ProbeTrack11	15	ProbeTrack	11.2	SCS215a	20101027.131236	20101027.133030	8	0.013328	60	10	60-180	60	164	GapExp	0	111	2	0	0	distractor	1	707	647	89262	13.328	12.901	13.742
ProbeTrack11	15	ProbeTrack	11.2	SCS215a	20101027.131236	20101027.133037	8	0.013328	60	0	60-180	60	102	GapExp	0	112	2	3	1	target	1	867	567	89829	13.328	13.305	13.348
ProbeTrack11	15	ProbeTrack	11.2	SCS215a	20101027.131236	20101027.133043	8	0.013328	60	10	60-180	60	121	GapExp	0	113	2	1	0	distractor	1	960	520	90349	13.328	12.862	13.801
ProbeTrack11	15	ProbeTrack	11.2	SCS215a	20101027.131236	20101027.133050	8	0.013328	60	10	60-180	60	94	GapExp	0	114	2	3	1	target	1	640	680	91029	13.328	12.891	13.770
ProbeTrack11	15	ProbeTrack	11.2	SCS215a	20101027.131236	20101027.133056	8	0.013328	60	0	60-180	60	114	GapExp	0	115	2	3	1	target	1	480	760	91789	13.328	13.308	13.346
ProbeTrack11	15	ProbeTrack	11.2	SCS215a	20101027.131236	20101027.133102	8	0.013328	60	10	60-180	60	67	GapExp	0	116	2	0	1	target	1	534	733	92522	13.328	13.307	13.348
ProbeTrack11	15	ProbeTrack	11.2	SCS215a	20101027.131236	20101027.133108	8	0.013328	60	10	60-180	60	179	GapExp	0	117	2	3	1	target	1	560	720	93242	13.328	13.308	13.355
ProbeTrack11	15	ProbeTrack	11.2	SCS215a	20101027.131236	20101027.133115	8	0.013328	60	10	60-180	60	77	GapExp	0	118	2	0	0	distractor	1	680	660	93902	13.328	13.100	13.557
ProbeTrack11	15	ProbeTrack	11.2	SCS215a	20101027.131236	20101027.133127	8	0.013328	60	10	60-180	60	173	GapExp	0	119	2	3	0	distractor	1	720	640	94542	13.328	13.099	13.552
ProbeTrack11	15	ProbeTrack	11.2	SCS215a	20101027.131236	20101027.133134	8	0.013328	60	10	60-180	60	68	GapExp	0	120	2	1	1	target	1	520	740	95282	13.328	13.106	13.550
ProbeTrack11	15	ProbeTrack	11.2	SCS215a	20101027.131236	20101027.133140	8	0.013328	60	0	60-180	60	173	GapExp	0	121	2	0	1	target	1	1107	447	95729	13.328	13.098	13.566
ProbeTrack11	15	ProbeTrack	11.2	SCS215a	20101027.131236	20101027.133148	8	0.013328	60	10	60-180	60	115	GapExp	0	122	2	45	1	target	1	470	765	96494	13.328	12.945	13.716
ProbeTrack11	15	ProbeTrack	11.2	SCS215a	20101027.131236	20101027.133155	8	0.013328	60	10	60-180	60	113	GapExp	0	123	2	45	1	target	1	680	660	97154	13.328	13.105	13.558
ProbeTrack11	15	ProbeTrack	11.2	SCS215a	20101027.131236	20101027.133202	8	0.013328	60	0	60-180	60	171	GapExp	0	124	2	1	1	target	1	480	760	97914	13.328	12.963	13.705
ProbeTrack11	15	ProbeTrack	11.2	SCS215a	20101027.131236	20101027.133208	8	0.013328	60	10	60-180	60	68	GapExp	0	125	2	1	1	target	1	880	560	98474	13.328	13.011	13.652
ProbeTrack11	15	ProbeTrack	11.2	SCS215a	20101027.131236	20101027.133214	8	0.013328	60	0	60-180	60	154	GapExp	0	126	2	45	1	target	1	534	733	99207	13.328	12.883	13.774
ProbeTrack11	15	ProbeTrack	11.2	SCS215a	20101027.131236	20101027.133221	8	0.013328	60	0	60-180	60	73	GapExp	0	127	2	0	1	target	1	627	687	99894	13.328	12.944	13.704
ProbeTrack11	15	ProbeTrack	11.2	SCS215a	20101027.131236	20101027.133227	8	0.013328	60	10	60-180	60	121	GapExp	0	128	2	45	0	distractor	1	813	594	100488	13.328	12.969	13.677
ProbeTrack11	15	ProbeTrack	11.2	SCS215a	20101027.131236	20101027.133234	8	0.013328	60	10	60-180	60	65	GapExp	0	129	2	0	1	target	1	560	720	101208	13.328	13.308	13.348
ProbeTrack11	15	ProbeTrack	11.2	SCS215a	20101027.131236	20101027.133240	8	0.013328	60	0	60-180	60	112	GapExp	0	130	2	3	1	target	1	440	780	101988	13.328	13.308	13.344
ProbeTrack11	15	ProbeTrack	11.2	SCS215a	20101027.131236	20101027.133246	8	0.013328	60	10	60-180	60	93	GapExp	0	131	2	45	0	distractor	1	574	713	102701	13.328	13.305	13.348
ProbeTrack11	15	ProbeTrack	11.2	SCS215a	20101027.131236	20101027.133255	8	0.013328	60	0	60-180	60	84	GapExp	0	132	2	0	1	target	1	640	680	103381	13.328	13.310	13.346
ProbeTrack11	15	ProbeTrack	11.2	SCS215a	20101027.131236	20101027.133301	8	0.013328	60	0	60-180	60	89	GapExp	0	133	2	45	1	target	1	640	680	104061	13.327	13.099	13.344
ProbeTrack11	15	ProbeTrack	11.2	SCS215a	20101027.131236	20101027.133307	8	0.013328	60	0	60-180	60	129	GapExp	0	134	2	0	1	target	1	627	687	104748	13.328	13.308	13.346
ProbeTrack11	15	ProbeTrack	11.2	SCS215a	20101027.131236	20101027.133314	8	0.013328	60	0	60-180	60	66	GapExp	0	135	2	0	1	target	1	574	713	105461	13.328	13.118	13.533
ProbeTrack11	15	ProbeTrack	11.2	SCS215a	20101027.131236	20101027.133320	8	0.013328	60	0	60-180	60	80	GapExp	0	136	2	45	0	distractor	1	840	580	106041	13.328	13.120	13.551
ProbeTrack11	15	ProbeTrack	11.2	SCS215a	20101027.131236	20101027.133326	8	0.013328	60	0	60-180	60	142	GapExp	0	137	2	1	0	distractor	1	653	674	106715	13.328	13.003	13.648
ProbeTrack11	15	ProbeTrack	11.2	SCS215a	20101027.131236	20101027.133333	8	0.013328	60	0	60-180	60	139	GapExp	0	138	2	3	0	distractor	1	733	634	107349	13.328	12.846	13.811
ProbeTrack11	15	ProbeTrack	11.2	SCS215a	20101027.131236	20101027.133340	8	0.013328	60	10	60-180	60	131	GapExp	0	139	2	45	0	distractor	1	667	667	108016	13.328	13.009	13.648
ProbeTrack11	15	ProbeTrack	11.2	SCS215a	20101027.131236	20101027.133347	8	0.013328	60	0	60-180	60	166	GapExp	0	140	2	1	1	target	1	427	787	108803	13.328	13.094	13.560
ProbeTrack11	15	ProbeTrack	11.2	SCS215a	20101027.131236	20101027.133354	8	0.013328	60	10	60-180	60	110	GapExp	0	141	2	0	0	distractor	1	1080	460	109263	13.328	13.096	13.553
ProbeTrack11	15	ProbeTrack	11.2	SCS215a	20101027.131236	20101027.133401	8	0.013328	60	10	60-180	60	175	GapExp	0	142	2	3	1	target	1	707	647	109910	13.328	12.844	13.806
ProbeTrack11	15	ProbeTrack	11.2	SCS215a	20101027.131236	20101027.133409	8	0.013328	60	0	60-180	60	168	GapExp	0	143	2	45	1	target	1	534	733	110643	13.328	13.089	13.563
ProbeTrack11	15	ProbeTrack	11.2	SCS215a	20101027.131236	20101027.133420	8	0.013328	60	0	60-180	60	115	GapExp	0	144	2	45	0	distractor	1	773	614	111257	13.328	13.086	13.572
ProbeTrack11	15	ProbeTrack	11.2	SCS215a	20101027.131236	20101027.133427	8	0.013328	60	10	60-180	60	116	GapExp	0	145	2	3	0	distractor	1	1293	354	111611	13.328	12.882	13.775
ProbeTrack11	15	ProbeTrack	11.2	SCS215a	20101027.131236	20101027.133434	8	0.013328	60	0	60-180	60	132	GapExp	0	146	2	0	1	target	1	813	594	112205	13.328	13.094	13.557
ProbeTrack11	15	ProbeTrack	11.2	SCS215a	20101027.131236	20101027.133441	8	0.013328	60	0	60-180	60	111	GapExp	0	147	2	1	1	target	1	2706	0	112205	13.328	13.102	13.550
ProbeTrack11	15	ProbeTrack	11.2	SCS215a	20101027.131236	20101027.133450	8	0.013328	60	0	60-180	60	153	GapExp	0	148	2	0	1	target	1	614	693	112898	13.328	12.949	13.691
ProbeTrack11	15	ProbeTrack	11.2	SCS215a	20101027.131236	20101027.133501	8	0.013328	60	10	60-180	60	132	GapExp	0	149	2	1	0	target	0	613	-1000	111898	13.328	13.139	13.520
ProbeTrack11	15	ProbeTrack	11.2	SCS215a	20101027.131236	20101027.133508	8	0.013328	60	10	60-180	60	103	GapExp	0	150	2	0	0	distractor	1	693	654	112552	13.328	12.924	13.724
ProbeTrack11	15	ProbeTrack	11.2	SCS215a	20101027.131236	20101027.133514	8	0.013328	60	0	60-180	60	127	GapExp	0	151	2	3	0	distractor	1	1133	434	112986	13.328	13.043	13.601
ProbeTrack11	15	ProbeTrack	11.2	SCS215a	20101027.131236	20101027.133521	8	0.013328	60	0	60-180	60	90	GapExp	0	152	2	45	0	distractor	1	614	693	113679	13.328	13.309	13.346
ProbeTrack11	15	ProbeTrack	11.2	SCS215a	20101027.131236	20101027.133527	8	0.013328	60	10	60-180	60	171	GapExp	0	153	2	45	1	target	1	1173	414	114093	13.328	12.978	13.666
ProbeTrack11	15	ProbeTrack	11.2	SCS215a	20101027.131236	20101027.133536	8	0.013328	60	10	60-180	60	155	GapExp	0	154	2	0	1	distractor	0	1800	-1000	113093	13.328	12.945	13.713
ProbeTrack11	15	ProbeTrack	11.2	SCS215a	20101027.131236	20101027.133550	8	0.013328	60	10	60-180	60	139	GapExp	0	155	2	45	1	target	1	680	660	113753	13.328	12.908	13.740
ProbeTrack11	15	ProbeTrack	11.2	SCS215a	20101027.131236	20101027.133558	8	0.013328	60	0	60-180	60	103	GapExp	0	156	2	3	0	distractor	1	1080	460	114213	13.328	12.948	13.711
ProbeTrack11	15	ProbeTrack	11.2	SCS215a	20101027.131236	20101027.133604	8	0.013328	60	0	60-180	60	105	GapExp	0	157	2	45	0	distractor	1	600	700	114913	13.328	13.106	13.550
ProbeTrack11	15	ProbeTrack	11.2	SCS215a	20101027.131236	20101027.133612	8	0.013328	60	0	60-180	60	81	GapExp	0	158	2	3	1	target	1	680	660	115573	13.328	12.877	13.761
ProbeTrack11	15	ProbeTrack	11.2	SCS215a	20101027.131236	20101027.133617	8	0.013328	60	0	60-180	60	134	GapExp	0	159	2	0	0	distractor	1	760	620	116193	13.328	12.851	13.806
ProbeTrack11	15	ProbeTrack	11.2	SCS215a	20101027.131236	20101027.133624	8	0.013328	60	0	60-180	60	112	GapExp	0	160	2	0	1	target	1	574	713	116906	13.328	12.977	13.676
ProbeTrack11	15	ProbeTrack	11.2	SCS215a	20101027.131236	20101027.133630	8	0.013328	60	10	60-180	60	112	GapExp	0	161	2	3	1	target	1	534	733	117639	13.328	13.153	13.499
ProbeTrack11	15	ProbeTrack	11.2	SCS215a	20101027.131236	20101027.133636	8	0.013328	60	0	60-180	60	67	GapExp	0	162	2	0	0	distractor	1	1306	347	117986	13.328	13.091	13.560
ProbeTrack11	15	ProbeTrack	11.2	SCS215a	20101027.131236	20101027.133642	8	0.013328	60	0	60-180	60	98	GapExp	0	163	2	3	1	target	1	653	674	118660	13.328	12.906	13.756
ProbeTrack11	15	ProbeTrack	11.2	SCS215a	20101027.131236	20101027.133648	8	0.013328	60	10	60-180	60	81	GapExp	0	164	2	0	0	distractor	1	960	520	119180	13.328	12.880	13.781
ProbeTrack11	15	ProbeTrack	11.2	SCS215a	20101027.131236	20101027.133700	8	0.013328	60	0	60-180	60	106	GapExp	0	165	2	3	1	target	1	520	740	119920	13.328	13.171	13.492
ProbeTrack11	15	ProbeTrack	11.2	SCS215a	20101027.131236	20101027.133706	8	0.013328	60	10	60-180	60	179	GapExp	0	166	2	0	0	distractor	1	693	654	120574	13.328	12.868	13.791
ProbeTrack11	15	ProbeTrack	11.2	SCS215a	20101027.131236	20101027.133736	8	0.013328	60	0	60-180	60	141	GapExp	0	167	2	0	0	distractor	1	654	673	121247	13.328	12.893	13.755
ProbeTrack11	15	ProbeTrack	11.2	SCS215a	20101027.131236	20101027.133742	8	0.013328	60	0	60-180	60	177	GapExp	0	168	2	0	1	target	1	787	607	121854	13.328	12.907	13.759
ProbeTrack11	15	ProbeTrack	11.2	SCS215a	20101027.131236	20101027.133749	8	0.013328	60	0	60-180	60	126	GapExp	0	169	2	45	0	distractor	1	733	634	122488	13.328	13.077	13.579
ProbeTrack11	15	ProbeTrack	11.2	SCS215a	20101027.131236	20101027.133756	8	0.013328	60	0	60-180	60	178	GapExp	0	170	2	1	1	target	1	734	633	123121	13.328	12.861	13.791
ProbeTrack11	15	ProbeTrack	11.2	SCS215a	20101027.131236	20101027.133804	8	0.013328	60	10	60-180	60	80	GapExp	0	171	2	0	0	distractor	1	494	753	123874	13.328	12.857	13.792
ProbeTrack11	15	ProbeTrack	11.2	SCS215a	20101027.131236	20101027.133809	8	0.013328	60	10	60-180	60	79	GapExp	0	172	2	0	1	target	1	547	727	124601	13.328	12.883	13.765
ProbeTrack11	15	ProbeTrack	11.2	SCS215a	20101027.131236	20101027.133815	8	0.013328	60	0	60-180	60	101	GapExp	0	173	2	1	1	target	1	440	780	125381	13.328	13.304	13.351
ProbeTrack11	15	ProbeTrack	11.2	SCS215a	20101027.131236	20101027.133821	8	0.013328	60	0	60-180	60	161	GapExp	0	174	2	3	1	target	1	574	713	126094	13.328	12.928	13.724
ProbeTrack11	15	ProbeTrack	11.2	SCS215a	20101027.131236	20101027.133828	8	0.013328	60	0	60-180	60	167	GapExp	0	175	2	3	1	target	1	440	780	126874	13.328	12.935	13.728
ProbeTrack11	15	ProbeTrack	11.2	SCS215a	20101027.131236	20101027.133835	8	0.013328	60	0	60-180	60	102	GapExp	0	176	2	0	1	target	1	494	753	127627	13.328	13.106	13.559
ProbeTrack11	15	ProbeTrack	11.2	SCS215a	20101027.131236	20101027.133841	8	0.013328	60	0	60-180	60	173	GapExp	0	177	2	3	1	target	1	560	720	128347	13.328	12.891	13.758
ProbeTrack11	15	ProbeTrack	11.2	SCS215a	20101027.131236	20101027.133847	8	0.013328	60	10	60-180	60	85	GapExp	0	178	2	0	0	distractor	1	693	654	129001	13.328	12.933	13.730
ProbeTrack11	15	ProbeTrack	11.2	SCS215a	20101027.131236	20101027.133854	8	0.013328	60	0	60-180	60	91	GapExp	0	179	2	45	1	target	1	614	693	129694	13.328	12.935	13.721
ProbeTrack11	15	ProbeTrack	11.2	SCS215a	20101027.131236	20101027.133900	8	0.013328	60	10	60-180	60	87	GapExp	0	180	2	0	1	target	1	574	713	130407	13.328	12.933	13.744
ProbeTrack11	15	ProbeTrack	11.2	SCS215a	20101027.131236	20101027.133907	8	0.013328	60	10	60-180	60	171	GapExp	0	181	2	0	0	distractor	1	547	727	131134	13.328	13.102	13.557
ProbeTrack11	15	ProbeTrack	11.2	SCS215a	20101027.131236	20101027.133916	8	0.013328	60	0	60-180	60	169	GapExp	0	182	2	45	1	target	1	600	700	131834	13.329	12.917	13.737
ProbeTrack11	15	ProbeTrack	11.2	SCS215a	20101027.131236	20101027.133929	8	0.013328	60	0	60-180	60	159	GapExp	0	183	2	0	1	target	1	547	727	132561	13.328	12.907	13.735
ProbeTrack11	15	ProbeTrack	11.2	SCS215a	20101027.131236	20101027.133938	8	0.013328	60	0	60-180	60	175	GapExp	0	184	2	0	0	distractor	1	547	727	133288	13.328	13.105	13.565
ProbeTrack11	15	ProbeTrack	11.2	SCS215a	20101027.131236	20101027.133949	8	0.013328	60	10	60-180	60	156	GapExp	0	185	2	45	1	target	1	560	720	134008	13.328	13.103	13.542
ProbeTrack11	15	ProbeTrack	11.2	SCS215a	20101027.131236	20101027.133957	8	0.013328	60	0	60-180	60	158	GapExp	0	186	2	1	0	distractor	1	1187	407	134415	13.328	13.242	13.415
ProbeTrack11	15	ProbeTrack	11.2	SCS215a	20101027.131236	20101027.134030	8	0.013328	60	10	60-180	60	171	GapExp	0	187	2	45	0	distractor	1	733	634	135049	13.328	13.106	13.543
ProbeTrack11	15	ProbeTrack	11.2	SCS215a	20101027.131236	20101027.134038	8	0.013328	60	10	60-180	60	162	GapExp	0	188	2	45	1	target	1	494	753	135802	13.328	12.875	13.789
ProbeTrack11	15	ProbeTrack	11.2	SCS215a	20101027.131236	20101027.134046	8	0.013328	60	0	60-180	60	141	GapExp	0	189	2	3	0	distractor	1	760	620	136422	13.328	13.114	13.538
ProbeTrack11	15	ProbeTrack	11.2	SCS215a	20101027.131236	20101027.134053	8	0.013328	60	10	60-180	60	77	GapExp	0	190	2	45	0	distractor	1	667	667	137089	13.328	12.845	13.819
ProbeTrack11	15	ProbeTrack	11.2	SCS215a	20101027.131236	20101027.134100	8	0.013328	60	10	60-180	60	71	GapExp	0	191	2	0	0	distractor	1	653	674	137763	13.328	13.105	13.564
ProbeTrack11	15	ProbeTrack	11.2	SCS215a	20101027.131236	20101027.134106	8	0.013328	60	0	60-180	60	169	GapExp	0	192	2	0	0	distractor	1	534	733	138496	13.328	13.073	13.570
ProbeTrack11	15	ProbeTrack	11.2	SCS215a	20101027.131236	20101027.134115	8	0.013328	60	10	60-180	60	130	GapExp	0	193	2	0	0	distractor	1	933	534	139030	13.328	13.102	13.556
ProbeTrack11	15	ProbeTrack	11.2	SCS215a	20101027.131236	20101027.134122	8	0.013328	60	0	60-180	60	123	GapExp	0	194	2	1	1	target	1	1147	427	139457	13.328	13.098	13.551
ProbeTrack11	15	ProbeTrack	11.2	SCS215a	20101027.131236	20101027.134129	8	0.013328	60	0	60-180	60	107	GapExp	0	195	2	1	1	target	1	960	520	139977	13.328	13.106	13.551
ProbeTrack11	15	ProbeTrack	11.2	SCS215a	20101027.131236	20101027.134136	8	0.013328	60	0	60-180	60	68	GapExp	0	196	2	1	1	target	1	747	627	140604	13.328	13.107	13.563
ProbeTrack11	15	ProbeTrack	11.2	SCS215a	20101027.131236	20101027.134142	8	0.013328	60	0	60-180	60	130	GapExp	0	197	2	0	0	32	-3	613	-1000	139604	13.328	13.193	13.476
ProbeTrack11	15	ProbeTrack	11.2	SCS215a	20101027.131236	20101027.134148	8	0.013328	60	10	60-180	60	142	GapExp	0	198	2	0	1	target	1	547	727	140331	13.328	12.914	13.747
ProbeTrack11	15	ProbeTrack	11.2	SCS215a	20101027.131236	20101027.134157	8	0.013328	60	0	60-180	60	163	GapExp	0	199	2	0	1	target	1	826	587	140918	13.328	13.092	13.563
ProbeTrack11	15	ProbeTrack	11.2	SCS215a	20101027.131236	20101027.134204	8	0.013328	60	0	60-180	60	112	GapExp	0	200	2	1	1	target	1	933	534	141452	13.328	12.935	13.734
ProbeTrack11	15	ProbeTrack	11.2	SCS215a	20101027.131236	20101027.134211	8	0.013328	60	10	60-180	60	160	GapExp	0	201	2	0	1	target	1	600	700	142152	13.328	13.100	13.554
ProbeTrack11	15	ProbeTrack	11.2	SCS215a	20101027.131236	20101027.134218	8	0.013328	60	0	60-180	60	180	GapExp	0	202	2	3	1	target	1	707	647	142799	13.328	13.309	13.347
ProbeTrack11	15	ProbeTrack	11.2	SCS215a	20101027.131236	20101027.134225	8	0.013328	60	0	60-180	60	87	GapExp	0	203	2	0	0	distractor	1	680	660	143459	13.328	12.919	13.731
ProbeTrack11	15	ProbeTrack	11.2	SCS215a	20101027.131236	20101027.134243	8	0.013328	60	10	60-180	60	161	GapExp	0	204	2	1	1	target	1	587	707	144166	13.328	12.862	13.802
ProbeTrack11	15	ProbeTrack	11.2	SCS215a	20101027.131236	20101027.134252	8	0.013328	60	10	60-180	60	76	GapExp	0	205	2	3	0	distractor	1	1546	227	144393	13.328	13.038	13.624
ProbeTrack11	15	ProbeTrack	11.2	SCS215a	20101027.131236	20101027.134259	8	0.013328	60	10	60-180	60	79	GapExp	0	206	2	0	0	distractor	1	973	514	144907	13.328	12.911	13.745
ProbeTrack11	15	ProbeTrack	11.2	SCS215a	20101027.131236	20101027.134306	8	0.013328	60	10	60-180	60	80	GapExp	0	207	2	1	0	distractor	1	1720	140	145047	13.329	13.275	13.632
ProbeTrack11	15	ProbeTrack	11.2	SCS215a	20101027.131236	20101027.134315	8	0.013328	60	10	60-180	60	79	GapExp	0	208	2	1	0	distractor	1	667	667	145714	13.328	13.308	13.346
ProbeTrack11	15	ProbeTrack	11.2	SCS215a	20101027.131236	20101027.134321	8	0.013328	60	0	60-180	60	105	GapExp	0	209	2	3	0	distractor	1	640	680	146394	13.385	13.089	26.657
ProbeTrack11	15	ProbeTrack	11.2	SCS215a	20101027.131236	20101027.134328	8	0.013328	60	0	60-180	60	94	GapExp	0	210	2	1	0	distractor	1	627	687	147081	13.328	13.031	13.637
ProbeTrack11	15	ProbeTrack	11.2	SCS215a	20101027.131236	20101027.134333	8	0.013328	60	10	60-180	60	77	GapExp	0	211	2	1	0	distractor	1	520	740	147821	13.328	12.839	13.811
ProbeTrack11	15	ProbeTrack	11.2	SCS215a	20101027.131236	20101027.134339	8	0.013328	60	10	60-180	60	129	GapExp	0	212	2	1	0	distractor	1	667	667	148488	13.328	13.105	13.551
ProbeTrack11	15	ProbeTrack	11.2	SCS215a	20101027.131236	20101027.134347	8	0.013328	60	10	60-180	60	106	GapExp	0	213	2	3	0	distractor	1	1320	340	148828	13.328	13.309	13.345
ProbeTrack11	15	ProbeTrack	11.2	SCS215a	20101027.131236	20101027.134354	8	0.013328	60	10	60-180	60	135	GapExp	0	214	2	1	1	target	1	640	680	149508	13.328	13.208	13.448
ProbeTrack11	15	ProbeTrack	11.2	SCS215a	20101027.131236	20101027.134400	8	0.013328	60	0	60-180	60	99	GapExp	0	215	2	0	0	distractor	1	587	707	150215	13.388	12.861	27.124
ProbeTrack11	15	ProbeTrack	11.2	SCS215a	20101027.131236	20101027.134406	8	0.013328	60	0	60-180	60	176	GapExp	0	216	2	45	0	distractor	1	680	660	150875	13.366	12.953	27.024
ProbeTrack11	15	ProbeTrack	11.2	SCS215a	20101027.131236	20101027.134414	8	0.013328	60	0	60-180	60	155	GapExp	0	217	2	45	1	target	1	667	667	151542	13.328	13.171	13.486
ProbeTrack11	15	ProbeTrack	11.2	SCS215a	20101027.131236	20101027.134421	8	0.013328	60	10	60-180	60	99	GapExp	0	218	2	0	0	distractor	1	1067	467	152009	13.328	12.965	13.705
ProbeTrack11	15	ProbeTrack	11.2	SCS215a	20101027.131236	20101027.134428	8	0.013328	60	0	60-180	60	178	GapExp	0	219	2	3	1	target	1	720	640	152649	13.328	13.308	13.348
ProbeTrack11	15	ProbeTrack	11.2	SCS215a	20101027.131236	20101027.134435	8	0.013328	60	10	60-180	60	139	GapExp	0	220	2	45	0	target	0	654	-1000	151649	13.328	13.076	13.576
ProbeTrack11	15	ProbeTrack	11.2	SCS215a	20101027.131236	20101027.134442	8	0.013328	60	10	60-180	60	130	GapExp	0	221	2	45	1	target	1	454	773	152422	13.328	12.849	13.809
ProbeTrack11	15	ProbeTrack	11.2	SCS215a	20101027.131236	20101027.134449	8	0.013328	60	10	60-180	60	117	GapExp	0	222	2	1	0	target	0	760	-1000	151422	13.326	12.937	13.684
ProbeTrack11	15	ProbeTrack	11.2	SCS215a	20101027.131236	20101027.134456	8	0.013328	60	0	60-180	60	89	GapExp	0	223	2	3	1	target	1	933	534	151956	13.328	13.307	13.352
ProbeTrack11	15	ProbeTrack	11.2	SCS215a	20101027.131236	20101027.134502	8	0.013328	60	0	60-180	60	116	GapExp	0	224	2	45	1	target	1	640	680	152636	13.328	13.306	13.359
ProbeTrack11	15	ProbeTrack	11.2	SCS215a	20101027.131236	20101027.134509	8	0.013328	60	0	60-180	60	150	GapExp	0	225	2	1	1	target	1	720	640	153276	13.328	12.885	13.759
ProbeTrack11	15	ProbeTrack	11.2	SCS215a	20101027.131236	20101027.134516	8	0.013328	60	0	60-180	60	129	GapExp	0	226	2	45	0	distractor	1	733	634	153910	13.328	12.886	13.773
ProbeTrack11	15	ProbeTrack	11.2	SCS215a	20101027.131236	20101027.134523	8	0.013328	60	0	60-180	60	148	GapExp	0	227	2	45	1	target	1	1133	434	154344	13.328	13.309	13.346
ProbeTrack11	15	ProbeTrack	11.2	SCS215a	20101027.131236	20101027.134531	8	0.013328	60	0	60-180	60	98	GapExp	0	228	2	3	0	distractor	1	1040	480	154824	13.328	13.309	13.348
ProbeTrack11	15	ProbeTrack	11.2	SCS215a	20101027.131236	20101027.134537	8	0.013328	60	10	60-180	60	74	GapExp	0	229	2	45	0	distractor	1	587	707	155531	13.328	13.308	13.346
ProbeTrack11	15	ProbeTrack	11.2	SCS215a	20101027.131236	20101027.134544	8	0.013328	60	10	60-180	60	154	GapExp	0	230	2	0	1	target	1	867	567	156098	13.328	13.308	13.344
ProbeTrack11	15	ProbeTrack	11.2	SCS215a	20101027.131236	20101027.134551	8	0.013328	60	0	60-180	60	86	GapExp	0	231	2	1	1	target	1	627	687	156785	13.326	12.903	13.349
ProbeTrack11	15	ProbeTrack	11.2	SCS215a	20101027.131236	20101027.134557	8	0.013328	60	10	60-180	60	121	GapExp	0	232	2	1	0	distractor	1	1426	287	157072	13.328	13.175	13.487
ProbeTrack11	15	ProbeTrack	11.2	SCS215a	20101027.131236	20101027.134604	8	0.013328	60	10	60-180	60	147	GapExp	0	233	2	3	0	distractor	1	1680	160	157232	13.328	12.868	13.794
ProbeTrack11	15	ProbeTrack	11.2	SCS215a	20101027.131236	20101027.134612	8	0.013328	60	0	60-180	60	177	GapExp	0	234	2	1	0	distractor	1	920	540	157772	13.328	12.921	13.734
ProbeTrack11	15	ProbeTrack	11.2	SCS215a	20101027.131236	20101027.134620	8	0.013328	60	0	60-180	60	88	GapExp	0	235	2	1	0	distractor	1	853	574	158346	13.328	12.869	13.779
ProbeTrack11	15	ProbeTrack	11.2	SCS215a	20101027.131236	20101027.134626	8	0.013328	60	10	60-180	60	174	GapExp	0	236	2	1	1	target	1	800	600	158946	13.328	13.100	13.559
ProbeTrack11	15	ProbeTrack	11.2	SCS215a	20101027.131236	20101027.134637	8	0.013328	60	10	60-180	60	160	GapExp	0	237	2	45	1	target	1	733	634	159580	13.328	13.107	13.551
ProbeTrack11	15	ProbeTrack	11.2	SCS215a	20101027.131236	20101027.134645	8	0.013328	60	0	60-180	60	68	GapExp	0	238	2	0	1	target	1	960	520	160100	13.328	13.303	13.347
ProbeTrack11	15	ProbeTrack	11.2	SCS215a	20101027.131236	20101027.134651	8	0.013328	60	10	60-180	60	87	GapExp	0	239	2	0	1	target	1	600	700	160800	13.328	13.101	13.543
ProbeTrack11	15	ProbeTrack	11.2	SCS215a	20101027.131236	20101027.134657	8	0.013328	60	10	60-180	60	88	GapExp	0	240	2	45	0	distractor	1	1346	327	161127	13.328	13.101	13.557
ProbeTrack11	15	ProbeTrack	11.2	SCS215a	20101027.131236	20101027.134705	8	0.013328	60	0	60-180	60	61	GapExp	0	241	2	0	0	distractor	1	1226	387	161514	13.328	12.944	13.712
ProbeTrack11	15	ProbeTrack	11.2	SCS215a	20101027.131236	20101027.134711	8	0.013328	60	0	60-180	60	172	GapExp	0	242	2	45	1	target	1	587	707	162221	13.328	13.098	13.765
ProbeTrack11	15	ProbeTrack	11.2	SCS215a	20101027.131236	20101027.134719	8	0.013328	60	0	60-180	60	66	GapExp	0	243	2	3	0	distractor	1	747	627	162848	13.328	13.008	13.648
ProbeTrack11	15	ProbeTrack	11.2	SCS215a	20101027.131236	20101027.134743	8	0.013328	60	0	60-180	60	135	GapExp	0	244	2	0	0	distractor	1	574	713	163561	13.328	12.844	13.800
ProbeTrack11	15	ProbeTrack	11.2	SCS215a	20101027.131236	20101027.134749	8	0.013328	60	0	60-180	60	109	GapExp	0	245	2	45	0	distractor	1	733	634	164195	13.374	13.177	26.808
ProbeTrack11	15	ProbeTrack	11.2	SCS215a	20101027.131236	20101027.134756	8	0.013328	60	10	60-180	60	121	GapExp	0	246	2	45	1	target	1	600	700	164895	13.328	12.883	13.766
ProbeTrack11	15	ProbeTrack	11.2	SCS215a	20101027.131236	20101027.134803	8	0.013328	60	10	60-180	60	122	GapExp	0	247	2	45	1	target	1	520	740	165635	13.328	13.307	13.355
ProbeTrack11	15	ProbeTrack	11.2	SCS215a	20101027.131236	20101027.134810	8	0.013328	60	0	60-180	60	113	GapExp	0	248	2	45	0	distractor	1	707	647	166282	13.326	12.849	13.809
ProbeTrack11	15	ProbeTrack	11.2	SCS215a	20101027.131236	20101027.134817	8	0.013328	60	0	60-180	60	145	GapExp	0	249	2	45	1	distractor	0	574	-1000	165282	13.328	12.896	13.768
ProbeTrack11	15	ProbeTrack	11.2	SCS215a	20101027.131236	20101027.134824	8	0.013328	60	10	60-180	60	105	GapExp	0	250	2	3	0	distractor	1	1253	374	165656	13.328	13.105	13.557
ProbeTrack11	15	ProbeTrack	11.2	SCS215a	20101027.131236	20101027.134834	8	0.013328	60	0	60-180	60	123	GapExp	0	251	2	0	0	distractor	1	653	674	166330	13.328	13.019	13.638
ProbeTrack11	15	ProbeTrack	11.2	SCS215a	20101027.131236	20101027.134841	8	0.013328	60	10	60-180	60	160	GapExp	0	252	2	0	0	distractor	1	987	507	166837	13.328	13.094	13.566
ProbeTrack11	15	ProbeTrack	11.2	SCS215a	20101027.131236	20101027.134848	8	0.013328	60	0	60-180	60	67	GapExp	0	253	2	1	1	target	1	920	540	167377	13.328	13.309	13.352
ProbeTrack11	15	ProbeTrack	11.2	SCS215a	20101027.131236	20101027.134854	8	0.013328	60	10	60-180	60	80	GapExp	0	254	2	45	0	distractor	1	707	647	168024	13.328	13.313	13.347
ProbeTrack11	15	ProbeTrack	11.2	SCS215a	20101027.131236	20101027.134900	8	0.013328	60	0	60-180	60	133	GapExp	0	255	2	1	1	target	1	587	707	168731	13.328	13.304	13.346
ProbeTrack11	15	ProbeTrack	11.2	SCS215a	20101027.131236	20101027.134907	8	0.013328	60	10	60-180	60	122	GapExp	0	256	2	3	0	distractor	1	773	614	169345	13.328	13.150	13.500
ProbeTrack11	15	ProbeTrack	11.2	SCS215a	20101027.131236	20101027.134921	8	0.013328	60	10	60-180	60	138	GapExp	0	257	2	0	1	target	1	494	753	170098	13.328	13.309	13.348
ProbeTrack11	15	ProbeTrack	11.2	SCS215a	20101027.131236	20101027.134928	8	0.013328	60	0	60-180	60	130	GapExp	0	258	2	3	0	distractor	1	720	640	170738	13.328	13.308	13.348
ProbeTrack11	15	ProbeTrack	11.2	SCS215a	20101027.131236	20101027.134934	8	0.013328	60	10	60-180	60	89	GapExp	0	259	2	1	1	target	1	547	727	171465	13.328	13.309	13.347
ProbeTrack11	15	ProbeTrack	11.2	SCS215a	20101027.131236	20101027.134940	8	0.013328	60	0	60-180	60	171	GapExp	0	260	2	3	0	distractor	1	1640	180	171645	13.328	12.843	13.803
ProbeTrack11	15	ProbeTrack	11.2	SCS215a	20101027.131236	20101027.134950	8	0.013328	60	10	60-180	60	159	GapExp	0	261	2	3	1	target	1	667	667	172312	13.328	13.107	13.549
ProbeTrack11	15	ProbeTrack	11.2	SCS215a	20101027.131236	20101027.134959	8	0.013328	60	0	60-180	60	115	GapExp	0	262	2	1	0	distractor	1	1013	494	172806	13.328	13.101	13.556
ProbeTrack11	15	ProbeTrack	11.2	SCS215a	20101027.131236	20101027.135006	8	0.013328	60	10	60-180	60	123	GapExp	0	263	2	1	0	distractor	1	840	580	173386	13.328	13.108	13.542
ProbeTrack11	15	ProbeTrack	11.2	SCS215a	20101027.131236	20101027.135012	8	0.013328	60	0	60-180	60	128	GapExp	0	264	2	45	0	distractor	1	920	540	173926	13.328	13.106	13.564
ProbeTrack11	15	ProbeTrack	11.2	SCS215a	20101027.131236	20101027.135020	8	0.013328	60	10	60-180	60	152	GapExp	0	265	2	3	1	target	1	907	547	174473	13.328	13.093	13.563
ProbeTrack11	15	ProbeTrack	11.2	SCS215a	20101027.131236	20101027.135033	8	0.013328	60	0	60-180	60	122	GapExp	0	266	2	45	0	distractor	1	707	647	175120	13.328	12.866	13.798
ProbeTrack11	15	ProbeTrack	11.2	SCS215a	20101027.131236	20101027.135040	8	0.013328	60	10	60-180	60	166	GapExp	0	267	2	3	1	target	1	800	600	175720	13.328	13.096	13.555
ProbeTrack11	15	ProbeTrack	11.2	SCS215a	20101027.131236	20101027.135048	8	0.013328	60	0	60-180	60	96	GapExp	0	268	2	3	1	target	1	973	514	176234	13.328	13.308	13.351
ProbeTrack11	15	ProbeTrack	11.2	SCS215a	20101027.131236	20101027.135117	8	0.013328	60	10	60-180	60	131	GapExp	0	269	2	45	1	target	1	488	756	176990	13.328	13.102	13.543
ProbeTrack11	15	ProbeTrack	11.2	SCS215a	20101027.131236	20101027.135124	8	0.013328	60	0	60-180	60	126	GapExp	0	270	2	0	0	32	-3	1040	-1000	175990	13.328	13.088	13.571
ProbeTrack11	15	ProbeTrack	11.2	SCS215a	20101027.131236	20101027.135131	8	0.013328	60	10	60-180	60	86	GapExp	0	271	2	3	0	target	0	2106	-1000	174990	13.328	13.103	13.554
ProbeTrack11	15	ProbeTrack	11.2	SCS215a	20101027.131236	20101027.135139	8	0.013328	60	10	60-180	60	94	GapExp	0	272	2	0	1	target	1	693	654	175644	13.328	13.113	13.550
ProbeTrack11	15	ProbeTrack	11.2	SCS215a	20101027.131236	20101027.135145	8	0.013328	60	10	60-180	60	159	GapExp	0	273	2	45	0	distractor	1	560	720	176364	13.328	13.308	13.350
ProbeTrack11	15	ProbeTrack	11.2	SCS215a	20101027.131236	20101027.135152	8	0.013328	60	10	60-180	60	176	GapExp	0	274	2	0	0	target	0	1760	-1000	175364	13.328	13.101	13.557
ProbeTrack11	15	ProbeTrack	11.2	SCS215a	20101027.131236	20101027.135201	8	0.013328	60	0	60-180	60	117	GapExp	0	275	2	0	1	target	1	653	674	176038	13.328	13.308	13.350
ProbeTrack11	15	ProbeTrack	11.2	SCS215a	20101027.131236	20101027.135207	8	0.013328	60	10	60-180	60	159	GapExp	0	276	2	45	1	target	1	1386	307	176345	13.328	12.906	13.745
ProbeTrack11	15	ProbeTrack	11.2	SCS215a	20101027.131236	20101027.135215	8	0.013328	60	10	60-180	60	117	GapExp	0	277	2	0	0	target	0	1040	-1000	175345	13.328	13.306	13.351
ProbeTrack11	15	ProbeTrack	11.2	SCS215a	20101027.131236	20101027.135227	8	0.013328	60	0	60-180	60	87	GapExp	0	278	2	0	0	distractor	1	627	687	176032	13.328	13.308	13.348
ProbeTrack11	15	ProbeTrack	11.2	SCS215a	20101027.131236	20101027.135250	8	0.013328	60	0	60-180	60	117	GapExp	0	279	2	45	1	target	1	560	720	176752	13.328	13.308	13.346
ProbeTrack11	15	ProbeTrack	11.2	SCS215a	20101027.131236	20101027.135257	8	0.013328	60	0	60-180	60	121	GapExp	0	280	2	3	1	target	1	480	760	177512	13.328	12.964	13.697
ProbeTrack11	15	ProbeTrack	11.2	SCS215a	20101027.131236	20101027.135303	8	0.013328	60	10	60-180	60	127	GapExp	0	281	2	1	1	target	1	347	827	178339	13.328	13.101	13.558
ProbeTrack11	15	ProbeTrack	11.2	SCS215a	20101027.131236	20101027.135309	8	0.013328	60	10	60-180	60	113	GapExp	0	282	2	0	1	target	1	467	767	179106	13.328	13.105	13.559
ProbeTrack11	15	ProbeTrack	11.2	SCS215a	20101027.131236	20101027.135315	8	0.013328	60	10	60-180	60	155	GapExp	0	283	2	1	1	target	1	414	793	179899	13.328	13.100	13.543
ProbeTrack11	15	ProbeTrack	11.2	SCS215a	20101027.131236	20101027.135322	8	0.013328	60	10	60-180	60	131	GapExp	0	284	2	45	0	target	0	853	-1000	178899	13.328	13.310	13.346
ProbeTrack11	15	ProbeTrack	11.2	SCS215a	20101027.131236	20101027.135329	8	0.013328	60	10	60-180	60	148	GapExp	0	285	2	0	1	target	1	507	747	179646	13.328	12.916	13.754
ProbeTrack11	15	ProbeTrack	11.2	SCS215a	20101027.131236	20101027.135336	8	0.013328	60	0	60-180	60	151	GapExp	0	286	2	0	0	distractor	1	960	520	180166	13.328	12.875	13.787
ProbeTrack11	15	ProbeTrack	11.2	SCS215a	20101027.131236	20101027.135343	8	0.013328	60	0	60-180	60	65	GapExp	0	287	2	3	1	target	1	707	647	180813	13.328	13.310	13.348
ProbeTrack11	15	ProbeTrack	11.2	SCS215a	20101027.131236	20101027.135348	8	0.013328	60	0	60-180	60	140	GapExp	0	288	2	45	1	target	1	547	727	181540	13.328	13.308	13.348
ProbeTrack11	15	ProbeTrack	11.2	SCS215a	20101027.131236	20101027.135355	8	0.013328	60	10	60-180	60	128	GapExp	0	289	2	0	1	target	1	1693	154	181694	13.328	12.883	13.783
ProbeTrack11	15	ProbeTrack	11.2	SCS215a	20101027.131236	20101027.135402	8	0.013328	60	0	60-180	60	130	GapExp	0	290	2	1	0	distractor	1	600	700	182394	13.328	13.134	13.531
ProbeTrack11	15	ProbeTrack	11.2	SCS215a	20101027.131236	20101027.135409	8	0.013328	60	0	60-180	60	118	GapExp	0	291	2	0	0	distractor	1	707	647	183041	13.328	13.308	13.347
ProbeTrack11	15	ProbeTrack	11.2	SCS215a	20101027.131236	20101027.135415	8	0.013328	60	10	60-180	60	171	GapExp	0	292	2	1	0	target	0	2293	-1000	182041	13.328	13.308	13.347
ProbeTrack11	15	ProbeTrack	11.2	SCS215a	20101027.131236	20101027.135424	8	0.013328	60	10	60-180	60	101	GapExp	0	293	2	1	1	target	1	1680	160	182201	13.328	13.116	13.547
ProbeTrack11	15	ProbeTrack	11.2	SCS215a	20101027.131236	20101027.135431	8	0.013328	60	10	60-180	60	111	GapExp	0	294	2	45	0	distractor	1	520	740	182941	13.328	12.873	13.799
ProbeTrack11	15	ProbeTrack	11.2	SCS215a	20101027.131236	20101027.135438	8	0.013328	60	0	60-180	60	177	GapExp	0	295	2	1	0	distractor	1	1373	314	183255	13.328	13.105	13.552
ProbeTrack11	15	ProbeTrack	11.2	SCS215a	20101027.131236	20101027.135446	8	0.013328	60	0	60-180	60	169	GapExp	0	296	2	1	1	target	1	614	693	183948	13.328	12.933	13.719
ProbeTrack11	15	ProbeTrack	11.2	SCS215a	20101027.131236	20101027.135454	8	0.013328	60	10	60-180	60	79	GapExp	0	297	2	45	0	distractor	1	1160	420	184368	13.328	13.033	13.547
ProbeTrack11	15	ProbeTrack	11.2	SCS215a	20101027.131236	20101027.135501	8	0.013328	60	0	60-180	60	159	GapExp	0	298	2	45	0	distractor	1	547	727	185095	13.328	12.936	13.726
ProbeTrack11	15	ProbeTrack	11.2	SCS215a	20101027.131236	20101027.135508	8	0.013328	60	10	60-180	60	79	GapExp	0	299	2	1	0	distractor	1	973	514	185609	13.328	13.113	13.544
ProbeTrack11	15	ProbeTrack	11.2	SCS215a	20101027.131236	20101027.135515	8	0.013328	60	10	60-180	60	77	GapExp	0	300	2	1	1	target	1	1306	347	185956	13.328	12.854	13.788
ProbeTrack11	15	ProbeTrack	11.2	SCS215a	20101027.131236	20101027.135521	8	0.013328	60	0	60-180	60	155	GapExp	0	301	2	1	0	distractor	1	507	747	186703	13.328	13.107	13.543
ProbeTrack11	15	ProbeTrack	11.2	SCS215a	20101027.131236	20101027.135527	8	0.013328	60	10	60-180	60	83	GapExp	0	302	2	3	1	target	1	920	540	187243	13.328	12.982	13.698
ProbeTrack11	15	ProbeTrack	11.2	SCS215a	20101027.131236	20101027.135534	8	0.013328	60	0	60-180	60	71	GapExp	0	303	2	3	0	distractor	1	627	687	187930	13.328	13.308	13.347
ProbeTrack11	15	ProbeTrack	11.2	SCS215a	20101027.131236	20101027.135539	8	0.013328	60	0	60-180	60	128	GapExp	0	304	2	3	1	target	1	574	713	188643	13.328	13.308	13.345
ProbeTrack11	15	ProbeTrack	11.2	SCS215a	20101027.131236	20101027.135546	8	0.013328	60	0	60-180	60	130	GapExp	0	305	2	45	1	target	1	627	687	189330	13.328	13.308	13.346
ProbeTrack11	15	ProbeTrack	11.2	SCS215a	20101027.131236	20101027.135553	8	0.013328	60	0	60-180	60	91	GapExp	0	306	2	1	1	target	1	600	700	190030	13.328	13.307	13.348
ProbeTrack11	15	ProbeTrack	11.2	SCS215a	20101027.131236	20101027.135558	8	0.013328	60	10	60-180	60	133	GapExp	0	307	2	0	0	distractor	1	613	694	190724	13.328	12.913	13.738
ProbeTrack11	15	ProbeTrack	11.2	SCS215a	20101027.131236	20101027.135605	8	0.013328	60	0	60-180	60	68	GapExp	0	308	2	1	0	distractor	1	1093	454	191178	13.328	13.108	13.546
ProbeTrack11	15	ProbeTrack	11.2	SCS215a	20101027.131236	20101027.135611	8	0.013328	60	10	60-180	60	153	GapExp	0	309	2	0	1	target	1	800	600	191778	13.328	12.845	13.796
ProbeTrack11	15	ProbeTrack	11.2	SCS215a	20101027.131236	20101027.135618	8	0.013328	60	10	60-180	60	107	GapExp	0	310	2	45	0	distractor	1	494	753	192531	13.328	13.104	13.551
ProbeTrack11	15	ProbeTrack	11.2	SCS215a	20101027.131236	20101027.135625	8	0.013328	60	0	60-180	60	138	GapExp	0	311	2	3	1	target	1	640	680	193211	13.328	13.214	13.546
ProbeTrack11	15	ProbeTrack	11.2	SCS215a	20101027.131236	20101027.135631	8	0.013328	60	10	60-180	60	81	GapExp	0	312	2	3	0	distractor	1	587	707	193918	13.328	13.093	13.566
ProbeTrack11	15	ProbeTrack	11.2	SCS215a	20101027.131236	20101027.135637	8	0.013328	60	10	60-180	60	101	GapExp	0	313	2	1	0	distractor	1	534	733	194651	13.328	13.307	13.349
ProbeTrack11	15	ProbeTrack	11.2	SCS215a	20101027.131236	20101027.135643	8	0.013328	60	0	60-180	60	88	GapExp	0	314	2	0	0	distractor	1	547	727	195378	13.328	12.961	13.699
ProbeTrack11	15	ProbeTrack	11.2	SCS215a	20101027.131236	20101027.135649	8	0.013328	60	0	60-180	60	96	GapExp	0	315	2	45	0	distractor	1	1213	394	195772	13.328	13.047	13.621
ProbeTrack11	15	ProbeTrack	11.2	SCS215a	20101027.131236	20101027.135656	8	0.013328	60	0	60-180	60	98	GapExp	0	316	2	0	1	target	1	1226	387	196159	13.328	13.284	13.359
ProbeTrack11	15	ProbeTrack	11.2	SCS215a	20101027.131236	20101027.135703	8	0.013328	60	10	60-180	60	127	GapExp	0	317	2	3	0	distractor	1	627	687	196846	13.326	12.901	13.754
ProbeTrack11	15	ProbeTrack	11.2	SCS215a	20101027.131236	20101027.135710	8	0.013328	60	10	60-180	60	98	GapExp	0	318	2	3	1	target	1	507	747	197593	13.326	12.873	13.344
ProbeTrack11	15	ProbeTrack	11.2	SCS215a	20101027.131236	20101027.135715	8	0.013328	60	10	60-180	60	154	GapExp	0	319	2	1	1	target	1	867	567	198160	13.328	13.019	13.630
ProbeTrack11	15	ProbeTrack	11.2	SCS215a	20101027.131236	20101027.135722	8	0.013328	60	0	60-180	60	148	GapExp	0	320	2	3	0	distractor	1	867	567	198727	13.328	13.305	13.348
ProbeTrack11	15	ProbeTrack	11.2	SCS215a	20101027.131236	20101027.135730	8	0.013328	60	10	60-180	60	111	GapExp	0	321	2	45	1	target	1	440	780	199507	13.328	13.309	13.350
ProbeTrack11	15	ProbeTrack	11.2	SCS215a	20101027.131236	20101027.135736	8	0.013328	60	10	60-180	60	102	GapExp	0	322	2	0	1	target	1	534	733	200240	13.328	13.309	13.346
ProbeTrack11	15	ProbeTrack	11.2	SCS215a	20101027.131236	20101027.135745	8	0.013328	60	0	60-180	60	125	GapExp	0	323	2	1	0	target	0	747	-1000	199240	13.328	13.308	13.348
ProbeTrack11	15	ProbeTrack	11.2	SCS215a	20101027.131236	20101027.135756	8	0.013328	60	0	60-180	60	102	GapExp	0	324	2	3	0	distractor	1	640	680	199920	13.328	13.094	13.563
ProbeTrack11	15	ProbeTrack	11.2	SCS215a	20101027.131236	20101027.135802	8	0.013328	60	0	60-180	60	100	GapExp	0	325	2	1	0	distractor	1	1093	454	200374	13.328	13.114	13.546
ProbeTrack11	15	ProbeTrack	11.2	SCS215a	20101027.131236	20101027.135809	8	0.013328	60	10	60-180	60	61	GapExp	0	326	2	3	1	target	1	693	654	201028	13.328	12.846	13.804
ProbeTrack11	15	ProbeTrack	11.2	SCS215a	20101027.131236	20101027.135815	8	0.013328	60	10	60-180	60	118	GapExp	0	327	2	45	0	distractor	1	494	753	201781	13.329	12.862	13.794
ProbeTrack11	15	ProbeTrack	11.2	SCS215a	20101027.131236	20101027.135821	8	0.013328	60	10	60-180	60	61	GapExp	0	328	2	0	1	target	1	640	680	202461	13.328	13.285	13.370
ProbeTrack11	15	ProbeTrack	11.2	SCS215a	20101027.131236	20101027.135827	8	0.013328	60	0	60-180	60	80	GapExp	0	329	2	45	0	distractor	1	787	607	203068	13.328	13.307	13.348
ProbeTrack11	15	ProbeTrack	11.2	SCS215a	20101027.131236	20101027.135833	8	0.013328	60	10	60-180	60	139	GapExp	0	330	2	3	1	target	1	622	689	203757	13.328	13.157	13.499
ProbeTrack11	15	ProbeTrack	11.2	SCS215a	20101027.131236	20101027.135840	8	0.013328	60	0	60-180	60	145	GapExp	0	331	2	0	0	distractor	1	747	627	204384	13.328	12.998	13.666
ProbeTrack11	15	ProbeTrack	11.2	SCS215a	20101027.131236	20101027.135846	8	0.013328	60	10	60-180	60	113	GapExp	0	332	2	3	1	target	1	960	520	204904	13.328	13.307	13.353
ProbeTrack11	15	ProbeTrack	11.2	SCS215a	20101027.131236	20101027.135853	8	0.013328	60	10	60-180	60	175	GapExp	0	333	2	3	1	target	1	480	760	205664	13.328	13.046	13.610
ProbeTrack11	15	ProbeTrack	11.2	SCS215a	20101027.131236	20101027.135900	8	0.013328	60	0	60-180	60	131	GapExp	0	334	2	3	0	distractor	1	587	707	206371	13.328	13.142	13.522
ProbeTrack11	15	ProbeTrack	11.2	SCS215a	20101027.131236	20101027.135906	8	0.013328	60	0	60-180	60	162	GapExp	0	335	2	3	0	distractor	1	827	587	206958	13.328	12.865	13.786
ProbeTrack11	15	ProbeTrack	11.2	SCS215a	20101027.131236	20101027.135913	8	0.013328	60	10	60-180	60	108	GapExp	0	336	2	1	1	target	1	680	660	207618	13.328	12.881	13.767
ProbeTrack11	15	ProbeTrack	11.2	SCS215a	20101027.131236	20101027.135919	8	0.013328	60	0	60-180	60	106	GapExp	0	337	2	1	0	distractor	1	720	640	208258	13.328	13.094	13.569
ProbeTrack11	15	ProbeTrack	11.2	SCS215a	20101027.131236	20101027.135925	8	0.013328	60	0	60-180	60	104	GapExp	0	338	2	0	0	distractor	1	813	594	208852	13.328	13.308	13.348
ProbeTrack11	15	ProbeTrack	11.2	SCS215a	20101027.131236	20101027.135931	8	0.013328	60	10	60-180	60	62	GapExp	0	339	2	3	1	target	1	534	733	209585	13.328	12.952	13.717
ProbeTrack11	15	ProbeTrack	11.2	SCS215a	20101027.131236	20101027.135937	8	0.013328	60	10	60-180	60	96	GapExp	0	340	2	45	0	distractor	1	534	733	210318	13.377	12.855	26.935
ProbeTrack11	15	ProbeTrack	11.2	SCS215a	20101027.131236	20101027.135944	8	0.013328	60	10	60-180	60	74	GapExp	0	341	2	1	0	distractor	1	614	693	211011	13.392	13.100	26.877
ProbeTrack11	15	ProbeTrack	11.2	SCS215a	20101027.131236	20101027.135950	8	0.013328	60	10	60-180	60	127	GapExp	0	342	2	0	0	distractor	1	1600	200	211211	13.328	13.031	13.642
ProbeTrack11	15	ProbeTrack	11.2	SCS215a	20101027.131236	20101027.135958	8	0.013328	60	10	60-180	60	153	GapExp	0	343	2	45	1	target	1	574	713	211924	13.328	13.248	13.428
ProbeTrack11	15	ProbeTrack	11.2	SCS215a	20101027.131236	20101027.140005	8	0.013328	60	10	60-180	60	152	GapExp	0	344	2	45	1	target	1	680	660	212584	13.328	12.995	13.670
ProbeTrack11	15	ProbeTrack	11.2	SCS215a	20101027.131236	20101027.140012	8	0.013328	60	0	60-180	60	114	GapExp	0	345	2	3	0	distractor	1	2493	0	212584	13.328	13.309	13.351
ProbeTrack11	15	ProbeTrack	11.2	SCS215a	20101027.131236	20101027.140020	8	0.013328	60	10	60-180	60	91	GapExp	0	346	2	3	0	distractor	1	560	720	213304	13.328	13.159	13.501
ProbeTrack11	15	ProbeTrack	11.2	SCS215a	20101027.131236	20101027.140027	8	0.013328	60	10	60-180	60	62	GapExp	0	347	2	1	1	target	1	800	600	213904	13.328	13.099	13.550
ProbeTrack11	15	ProbeTrack	11.2	SCS215a	20101027.131236	20101027.140036	8	0.013328	60	0	60-180	60	176	GapExp	0	348	2	45	0	distractor	1	653	674	214578	13.328	12.870	13.786
ProbeTrack11	15	ProbeTrack	11.2	SCS215a	20101027.131236	20101027.140043	8	0.013328	60	10	60-180	60	153	GapExp	0	349	2	0	1	target	1	507	747	215325	13.328	12.894	13.775
ProbeTrack11	15	ProbeTrack	11.2	SCS215a	20101027.131236	20101027.140050	8	0.013328	60	10	60-180	60	147	GapExp	0	350	2	3	0	distractor	1	787	607	215932	13.328	12.864	13.786
ProbeTrack11	15	ProbeTrack	11.2	SCS215a	20101027.131236	20101027.140057	8	0.013328	60	10	60-180	60	179	GapExp	0	351	2	3	0	distractor	1	587	707	216639	13.328	13.100	13.543
ProbeTrack11	15	ProbeTrack	11.2	SCS215a	20101027.131236	20101027.140104	8	0.013328	60	0	60-180	60	111	GapExp	0	352	2	45	1	target	1	547	727	217366	13.328	13.101	13.568
ProbeTrack11	15	ProbeTrack	11.2	SCS215a	20101027.131236	20101027.140112	8	0.013328	60	0	60-180	60	160	GapExp	0	353	2	1	1	target	1	560	720	218086	13.328	12.926	13.737
ProbeTrack11	15	ProbeTrack	11.2	SCS215a	20101027.131236	20101027.140118	8	0.013328	60	10	60-180	60	125	GapExp	0	354	2	3	0	distractor	1	613	694	218780	13.328	13.028	13.630
ProbeTrack11	15	ProbeTrack	11.2	SCS215a	20101027.131236	20101027.140124	8	0.013328	60	10	60-180	60	103	GapExp	0	355	2	1	0	distractor	1	467	767	219547	13.328	13.032	13.627
ProbeTrack11	15	ProbeTrack	11.2	SCS215a	20101027.131236	20101027.140131	8	0.013328	60	0	60-180	60	69	GapExp	0	356	2	3	1	target	1	747	627	220174	13.328	12.858	13.799
ProbeTrack11	15	ProbeTrack	11.2	SCS215a	20101027.131236	20101027.140136	8	0.013328	60	0	60-180	60	167	GapExp	0	357	2	1	0	distractor	1	587	707	220881	13.328	13.007	13.661
ProbeTrack11	15	ProbeTrack	11.2	SCS215a	20101027.131236	20101027.140143	8	0.013328	60	10	60-180	60	105	GapExp	0	358	2	1	0	distractor	1	1373	314	221195	13.328	13.309	13.344
ProbeTrack11	15	ProbeTrack	11.2	SCS215a	20101027.131236	20101027.140150	8	0.013328	60	10	60-180	60	110	GapExp	0	359	2	3	1	target	1	1000	500	221695	13.328	13.004	13.646
ProbeTrack11	15	ProbeTrack	11.2	SCS215a	20101027.131236	20101027.140156	8	0.013328	60	0	60-180	60	64	GapExp	0	360	2	0	1	target	1	907	547	222242	13.328	12.960	13.683
ProbeTrack11	15	ProbeTrack	11.2	SCS215a	20101027.131236	20101027.140202	8	0.013328	60	10	60-180	60	148	GapExp	0	361	2	45	1	target	1	534	733	222975	13.328	12.900	13.750
ProbeTrack11	15	ProbeTrack	11.2	SCS215a	20101027.131236	20101027.140209	8	0.013328	60	10	60-180	60	66	GapExp	0	362	2	45	0	distractor	1	494	753	223728	13.328	12.870	13.782
ProbeTrack11	15	ProbeTrack	11.2	SCS215a	20101027.131236	20101027.140216	8	0.013328	60	10	60-180	60	155	GapExp	0	363	2	3	1	target	1	693	654	224382	13.328	13.305	13.345
ProbeTrack11	15	ProbeTrack	11.2	SCS215a	20101027.131236	20101027.140223	8	0.013328	60	0	60-180	60	150	GapExp	0	364	2	1	0	distractor	1	653	674	225056	13.328	13.113	13.544
ProbeTrack11	15	ProbeTrack	11.2	SCS215a	20101027.131236	20101027.140229	8	0.013328	60	0	60-180	60	126	GapExp	0	365	2	45	1	target	1	1853	74	225130	13.328	13.043	13.615
ProbeTrack11	15	ProbeTrack	11.2	SCS215a	20101027.131236	20101027.140237	8	0.013328	60	10	60-180	60	80	GapExp	0	366	2	3	0	distractor	1	667	667	225797	13.328	13.309	13.346
ProbeTrack11	15	ProbeTrack	11.2	SCS215a	20101027.131236	20101027.140244	8	0.013328	60	10	60-180	60	91	GapExp	0	367	2	1	1	distractor	0	1080	-1000	224797	13.328	13.089	13.776
ProbeTrack11	15	ProbeTrack	11.2	SCS215a	20101027.131236	20101027.140251	8	0.013328	60	0	60-180	60	165	GapExp	0	368	2	3	0	distractor	1	520	740	225537	13.328	12.837	13.810
ProbeTrack11	15	ProbeTrack	11.2	SCS215a	20101027.131236	20101027.140258	8	0.013328	60	0	60-180	60	180	GapExp	0	369	2	45	1	distractor	0	1266	-1000	224537	13.328	13.106	13.551
ProbeTrack11	15	ProbeTrack	11.2	SCS215a	20101027.131236	20101027.140307	8	0.013328	60	10	60-180	60	163	GapExp	0	370	2	1	0	distractor	1	507	747	225284	13.328	13.277	13.374
ProbeTrack11	15	ProbeTrack	11.2	SCS215a	20101027.131236	20101027.140314	8	0.013328	60	10	60-180	60	84	GapExp	0	371	2	0	0	distractor	1	507	747	226031	13.328	12.889	13.773
ProbeTrack11	15	ProbeTrack	11.2	SCS215a	20101027.131236	20101027.140319	8	0.013328	60	0	60-180	60	161	GapExp	0	372	2	1	1	target	1	480	760	226791	13.328	12.873	13.782
ProbeTrack11	15	ProbeTrack	11.2	SCS215a	20101027.131236	20101027.140325	8	0.013328	60	10	60-180	60	133	GapExp	0	373	2	0	1	target	1	587	707	227498	13.328	13.272	13.380
ProbeTrack11	15	ProbeTrack	11.2	SCS215a	20101027.131236	20101027.140332	8	0.013328	60	0	60-180	60	161	GapExp	0	374	2	45	1	target	1	813	594	228092	13.328	12.909	13.739
ProbeTrack11	15	ProbeTrack	11.2	SCS215a	20101027.131236	20101027.140339	8	0.013328	60	10	60-180	60	138	GapExp	0	375	2	3	0	distractor	1	960	520	228612	13.328	13.110	13.554
ProbeTrack11	15	ProbeTrack	11.2	SCS215a	20101027.131236	20101027.140346	8	0.013328	60	0	60-180	60	162	GapExp	0	376	2	1	0	distractor	1	653	674	229286	13.328	12.935	13.706
ProbeTrack11	15	ProbeTrack	11.2	SCS215a	20101027.131236	20101027.140352	8	0.013328	60	10	60-180	60	126	GapExp	0	377	2	45	0	distractor	1	547	727	230013	13.328	13.033	13.609
ProbeTrack11	15	ProbeTrack	11.2	SCS215a	20101027.131236	20101027.140359	8	0.013328	60	10	60-180	60	180	GapExp	0	378	2	3	0	target	0	1186	-1000	229013	13.328	13.103	13.539
ProbeTrack11	15	ProbeTrack	11.2	SCS215a	20101027.131236	20101027.140407	8	0.013328	60	10	60-180	60	113	GapExp	0	379	2	3	1	target	1	747	627	229640	13.328	13.107	13.537
ProbeTrack11	15	ProbeTrack	11.2	SCS215a	20101027.131236	20101027.140414	8	0.013328	60	10	60-180	60	102	GapExp	0	380	2	1	1	target	1	1107	447	230087	13.328	12.882	13.760
ProbeTrack11	15	ProbeTrack	11.2	SCS215a	20101027.131236	20101027.140421	8	0.013328	60	10	60-180	60	105	GapExp	0	381	2	3	1	target	1	574	713	230800	13.328	13.093	13.572
ProbeTrack11	15	ProbeTrack	11.2	SCS215a	20101027.131236	20101027.140427	8	0.013328	60	0	60-180	60	107	GapExp	0	382	2	3	0	distractor	1	547	727	231527	13.328	13.308	13.346
ProbeTrack11	15	ProbeTrack	11.2	SCS215a	20101027.131236	20101027.140433	8	0.013328	60	0	60-180	60	145	GapExp	0	383	2	0	1	target	1	507	747	232274	13.328	12.983	13.687
ProbeTrack11	15	ProbeTrack	11.2	SCS215a	20101027.131236	20101027.140442	8	0.013328	60	10	60-180	60	66	GapExp	0	384	2	3	0	target	0	1786	-1000	231274	13.328	12.858	13.800
ProbeTrack11	15	ProbeTrack	11.2	SCS215a	20101027.131236	20101027.140448	8	0.013328	60	10	60-180	60	140	GapExp	0	385	2	3	0	target	0	973	-1000	230274	13.328	13.099	13.544
ProbeTrack11	15	ProbeTrack	11.2	SCS215a	20101027.131236	20101027.140455	8	0.013328	60	10	60-180	60	66	GapExp	0	386	2	3	1	target	1	603	699	230973	13.328	12.939	13.716
ProbeTrack11	15	ProbeTrack	11.2	SCS215a	20101027.131236	20101027.140501	8	0.013328	60	10	60-180	60	134	GapExp	0	387	2	45	0	distractor	1	547	727	231700	13.328	13.309	13.348
ProbeTrack11	15	ProbeTrack	11.2	SCS215a	20101027.131236	20101027.140510	8	0.013328	60	0	60-180	60	169	GapExp	0	388	2	45	1	target	1	587	707	232407	13.328	13.112	13.552
ProbeTrack11	15	ProbeTrack	11.2	SCS215a	20101027.131236	20101027.140518	8	0.013328	60	10	60-180	60	74	GapExp	0	389	2	3	1	target	1	534	733	233140	13.328	13.008	13.655
ProbeTrack11	15	ProbeTrack	11.2	SCS215a	20101027.131236	20101027.140523	8	0.013328	60	0	60-180	60	98	GapExp	0	390	2	45	1	target	1	1000	500	233640	13.328	13.082	13.817
ProbeTrack11	15	ProbeTrack	11.2	SCS215a	20101027.131236	20101027.140530	8	0.013328	60	10	60-180	60	106	GapExp	0	391	2	3	0	distractor	1	733	634	234274	13.328	12.838	13.800
ProbeTrack11	15	ProbeTrack	11.2	SCS215a	20101027.131236	20101027.140536	8	0.013328	60	0	60-180	60	127	GapExp	0	392	2	45	0	distractor	1	614	693	234967	13.328	13.308	13.346
ProbeTrack11	15	ProbeTrack	11.2	SCS215a	20101027.131236	20101027.140543	8	0.013328	60	10	60-180	60	105	GapExp	0	393	2	45	0	distractor	1	480	760	235727	13.328	12.932	13.730
ProbeTrack11	15	ProbeTrack	11.2	SCS215a	20101027.131236	20101027.140550	8	0.013328	60	0	60-180	60	152	GapExp	0	394	2	3	1	target	1	680	660	236387	13.328	12.863	13.799
ProbeTrack11	15	ProbeTrack	11.2	SCS215a	20101027.131236	20101027.140557	8	0.013328	60	0	60-180	60	92	GapExp	0	395	2	0	0	distractor	1	787	607	236994	13.328	12.860	13.786
ProbeTrack11	15	ProbeTrack	11.2	SCS215a	20101027.131236	20101027.140603	8	0.013328	60	0	60-180	60	115	GapExp	0	396	2	45	1	target	1	454	773	237767	13.328	13.310	13.346
ProbeTrack11	15	ProbeTrack	11.2	SCS215a	20101027.131236	20101027.140610	8	0.013328	60	0	60-180	60	76	GapExp	0	397	2	45	0	distractor	1	600	700	238467	13.328	13.305	13.348
ProbeTrack11	15	ProbeTrack	11.2	SCS215a	20101027.131236	20101027.140616	8	0.013328	60	10	60-180	60	95	GapExp	0	398	2	0	1	target	1	467	767	239234	13.328	13.105	13.546
ProbeTrack11	15	ProbeTrack	11.2	SCS215a	20101027.131236	20101027.140621	8	0.013328	60	10	60-180	60	171	GapExp	0	399	2	0	1	target	1	507	747	239981	13.328	13.001	13.643
ProbeTrack11	15	ProbeTrack	11.2	SCS215a	20101027.131236	20101027.140628	8	0.013328	60	10	60-180	60	162	GapExp	0	400	2	3	1	target	1	494	753	240734	13.328	13.307	13.347
ProbeTrack11	15	ProbeTrack	11.2	SCS215a	20101027.131236	20101027.140635	8	0.013328	60	10	60-180	60	107	GapExp	0	401	2	45	1	target	1	520	740	241474	13.328	12.849	13.811
ProbeTrack11	15	ProbeTrack	11.2	SCS215a	20101027.131236	20101027.140642	8	0.013328	60	10	60-180	60	106	GapExp	0	402	2	1	1	target	1	440	780	242254	13.328	13.308	13.346
ProbeTrack11	15	ProbeTrack	11.2	SCS215a	20101027.131236	20101027.140648	8	0.013328	60	0	60-180	60	155	GapExp	0	403	2	0	1	target	1	534	733	242987	13.328	13.030	13.615
ProbeTrack11	15	ProbeTrack	11.2	SCS215a	20101027.131236	20101027.140655	8	0.013328	60	10	60-180	60	89	GapExp	0	404	2	1	0	target	0	507	-1000	241987	13.328	12.946	13.709
ProbeTrack11	15	ProbeTrack	11.2	SCS215a	20101027.131236	20101027.140700	8	0.013328	60	10	60-180	60	84	GapExp	0	405	2	1	1	target	1	507	747	242734	13.328	13.309	13.348
ProbeTrack11	15	ProbeTrack	11.2	SCS215a	20101027.131236	20101027.140706	8	0.013328	60	0	60-180	60	135	GapExp	0	406	2	45	0	distractor	1	667	667	243401	13.328	13.131	13.547
ProbeTrack11	15	ProbeTrack	11.2	SCS215a	20101027.131236	20101027.140713	8	0.013328	60	0	60-180	60	178	GapExp	0	407	2	3	1	target	1	400	800	244201	13.328	13.309	13.346
ProbeTrack11	15	ProbeTrack	11.2	SCS215a	20101027.131236	20101027.140720	8	0.013328	60	0	60-180	60	61	GapExp	0	408	2	45	1	target	1	587	707	244908	13.328	12.867	13.792
ProbeTrack11	15	ProbeTrack	11.2	SCS215a	20101027.131236	20101027.140726	8	0.013328	60	10	60-180	60	162	GapExp	0	409	2	45	1	distractor	0	440	-1000	243908	13.328	13.099	13.563
ProbeTrack11	15	ProbeTrack	11.2	SCS215a	20101027.131236	20101027.140735	8	0.013328	60	10	60-180	60	110	GapExp	0	410	2	0	1	target	1	440	780	244688	13.328	13.308	13.345
ProbeTrack11	15	ProbeTrack	11.2	SCS215a	20101027.131236	20101027.140741	8	0.013328	60	0	60-180	60	169	GapExp	0	411	2	1	1	target	1	560	720	245408	13.328	13.308	13.346
ProbeTrack11	15	ProbeTrack	11.2	SCS215a	20101027.131236	20101027.140747	8	0.013328	60	0	60-180	60	148	GapExp	0	412	2	45	1	target	1	440	780	246188	13.328	13.095	13.575
ProbeTrack11	15	ProbeTrack	11.2	SCS215a	20101027.131236	20101027.140754	8	0.013328	60	10	60-180	60	70	GapExp	0	413	2	1	1	target	1	427	787	246975	13.328	13.308	13.346
ProbeTrack11	15	ProbeTrack	11.2	SCS215a	20101027.131236	20101027.140800	8	0.013328	60	10	60-180	60	135	GapExp	0	414	2	45	0	distractor	1	600	700	247675	13.328	13.110	13.542
ProbeTrack11	15	ProbeTrack	11.2	SCS215a	20101027.131236	20101027.140806	8	0.013328	60	10	60-180	60	153	GapExp	0	415	2	45	1	target	1	454	773	248448	13.328	13.112	13.546
ProbeTrack11	15	ProbeTrack	11.2	SCS215a	20101027.131236	20101027.140813	8	0.013328	60	0	60-180	60	126	GapExp	0	416	2	3	0	target	0	880	-1000	247448	13.328	13.106	13.564
ProbeTrack11	15	ProbeTrack	11.2	SCS215a	20101027.131236	20101027.140820	8	0.013328	60	0	60-180	60	180	GapExp	0	417	2	3	1	distractor	0	494	-1000	246448	13.328	13.014	13.641
ProbeTrack11	15	ProbeTrack	11.2	SCS215a	20101027.131236	20101027.140827	8	0.013328	60	0	60-180	60	91	GapExp	0	418	2	3	0	distractor	1	587	707	247155	13.328	12.958	13.695
ProbeTrack11	15	ProbeTrack	11.2	SCS215a	20101027.131236	20101027.140833	8	0.013328	60	10	60-180	60	136	GapExp	0	419	2	3	1	target	1	507	747	247902	13.328	13.307	13.348
ProbeTrack11	15	ProbeTrack	11.2	SCS215a	20101027.131236	20101027.140840	8	0.013328	60	10	60-180	60	61	GapExp	0	420	2	1	1	target	1	587	707	248609	13.328	13.106	13.554
ProbeTrack11	15	ProbeTrack	11.2	SCS215a	20101027.131236	20101027.140847	8	0.013328	60	10	60-180	60	97	GapExp	0	421	2	45	1	target	1	414	793	249402	13.328	13.106	13.551
ProbeTrack11	15	ProbeTrack	11.2	SCS215a	20101027.131236	20101027.140853	8	0.013328	60	0	60-180	60	113	GapExp	0	422	2	0	0	distractor	1	627	687	250089	13.328	13.000	13.650
ProbeTrack11	15	ProbeTrack	11.2	SCS215a	20101027.131236	20101027.140859	8	0.013328	60	10	60-180	60	150	GapExp	0	423	2	1	1	target	1	853	574	250663	13.328	13.105	13.558
ProbeTrack11	15	ProbeTrack	11.2	SCS215a	20101027.131236	20101027.140906	8	0.013328	60	10	60-180	60	79	GapExp	0	424	2	0	0	distractor	1	947	527	251190	13.328	13.294	13.363
ProbeTrack11	15	ProbeTrack	11.2	SCS215a	20101027.131236	20101027.140912	8	0.013328	60	10	60-180	60	67	GapExp	0	425	2	3	1	target	1	707	647	251837	13.328	13.060	13.588
ProbeTrack11	15	ProbeTrack	11.2	SCS215a	20101027.131236	20101027.140918	8	0.013328	60	0	60-180	60	120	GapExp	0	426	2	45	0	distractor	1	720	640	252477	13.328	13.301	13.347
ProbeTrack11	15	ProbeTrack	11.2	SCS215a	20101027.131236	20101027.140925	8	0.013328	60	0	60-180	60	100	GapExp	0	427	2	1	0	distractor	1	2626	0	252477	13.328	13.306	13.345
ProbeTrack11	15	ProbeTrack	11.2	SCS215a	20101027.131236	20101027.140933	8	0.013328	60	0	60-180	60	112	GapExp	0	428	2	0	1	target	1	560	720	253197	13.328	13.308	13.349
ProbeTrack11	15	ProbeTrack	11.2	SCS215a	20101027.131236	20101027.140939	8	0.013328	60	0	60-180	60	152	GapExp	0	429	2	1	0	distractor	1	640	680	253877	13.328	12.883	13.776
ProbeTrack11	15	ProbeTrack	11.2	SCS215a	20101027.131236	20101027.140945	8	0.013328	60	0	60-180	60	141	GapExp	0	430	2	3	1	target	1	454	773	254650	13.328	13.310	13.345
ProbeTrack11	15	ProbeTrack	11.2	SCS215a	20101027.131236	20101027.140951	8	0.013328	60	0	60-180	60	132	GapExp	0	431	2	3	1	target	1	1013	494	255144	13.328	13.307	13.349
ProbeTrack11	15	ProbeTrack	11.2	SCS215a	20101027.131236	20101027.141020	8	0.013328	60	10	60-180	60	88	GapExp	0	432	2	0	1	target	1	520	740	255884	13.328	13.311	13.355
ProbeTrack11	15	ProbeTrack	11.2	SCS215a	20101027.131236	20101027.141026	8	0.013328	60	0	60-180	60	175	GapExp	0	433	2	0	0	distractor	1	440	780	256664	13.328	13.111	13.536
ProbeTrack11	15	ProbeTrack	11.2	SCS215a	20101027.131236	20101027.141032	8	0.013328	60	10	60-180	60	152	GapExp	0	434	2	45	1	target	1	534	733	257397	13.328	13.092	13.557
ProbeTrack11	15	ProbeTrack	11.2	SCS215a	20101027.131236	20101027.141039	8	0.013328	60	10	60-180	60	105	GapExp	0	435	2	0	0	distractor	1	560	720	258117	13.328	12.860	13.811
ProbeTrack11	15	ProbeTrack	11.2	SCS215a	20101027.131236	20101027.141045	8	0.013328	60	0	60-180	60	64	GapExp	0	436	2	0	1	target	1	760	620	258737	13.328	13.218	13.427
ProbeTrack11	15	ProbeTrack	11.2	SCS215a	20101027.131236	20101027.141050	8	0.013328	60	0	60-180	60	178	GapExp	0	437	2	0	1	target	1	454	773	259510	13.328	12.854	13.816
ProbeTrack11	15	ProbeTrack	11.2	SCS215a	20101027.131236	20101027.141058	8	0.013328	60	0	60-180	60	132	GapExp	0	438	2	1	1	target	1	467	767	260277	13.328	13.305	13.351
ProbeTrack11	15	ProbeTrack	11.2	SCS215a	20101027.131236	20101027.141104	8	0.013328	60	10	60-180	60	78	GapExp	0	439	2	0	0	distractor	1	534	733	261010	13.328	13.309	13.348
ProbeTrack11	15	ProbeTrack	11.2	SCS215a	20101027.131236	20101027.141110	8	0.013328	60	0	60-180	60	62	GapExp	0	440	2	3	0	distractor	1	480	760	261770	13.328	12.987	13.666
ProbeTrack11	15	ProbeTrack	11.2	SCS215a	20101027.131236	20101027.141115	8	0.013328	60	10	60-180	60	168	GapExp	0	441	2	1	1	target	1	587	707	262477	13.328	13.098	13.553
ProbeTrack11	15	ProbeTrack	11.2	SCS215a	20101027.131236	20101027.141122	8	0.013328	60	10	60-180	60	137	GapExp	0	442	2	1	1	target	1	587	707	263184	13.328	13.090	13.634
ProbeTrack11	15	ProbeTrack	11.2	SCS215a	20101027.131236	20101027.141128	8	0.013328	60	0	60-180	60	116	GapExp	0	443	2	1	1	target	1	427	787	263971	13.328	13.041	13.614
ProbeTrack11	15	ProbeTrack	11.2	SCS215a	20101027.131236	20101027.141134	8	0.013328	60	10	60-180	60	106	GapExp	0	444	2	0	1	target	1	467	767	264738	13.328	13.069	13.597
ProbeTrack11	15	ProbeTrack	11.2	SCS215a	20101027.131236	20101027.141139	8	0.013328	60	0	60-180	60	124	GapExp	0	445	2	1	1	target	1	467	767	265505	13.328	13.189	13.464
ProbeTrack11	15	ProbeTrack	11.2	SCS215a	20101027.131236	20101027.141145	8	0.013328	60	0	60-180	60	67	GapExp	0	446	2	3	0	distractor	1	773	614	266119	13.328	13.308	13.350
ProbeTrack11	15	ProbeTrack	11.2	SCS215a	20101027.131236	20101027.141151	8	0.013328	60	0	60-180	60	146	GapExp	0	447	2	3	1	target	1	467	767	266886	13.328	13.099	13.569
ProbeTrack11	15	ProbeTrack	11.2	SCS215a	20101027.131236	20101027.141158	8	0.013328	60	0	60-180	60	128	GapExp	0	448	2	3	0	distractor	1	587	707	267593	13.328	13.308	13.346
ProbeTrack11	15	ProbeTrack	11.2	SCS215a	20101027.131236	20101027.141205	8	0.013328	60	10	60-180	60	128	GapExp	0	449	2	45	0	distractor	1	560	720	268313	13.328	13.308	13.347
ProbeTrack11	15	ProbeTrack	11.2	SCS215a	20101027.131236	20101027.141212	8	0.013328	60	10	60-180	60	66	GapExp	0	450	2	45	0	distractor	1	720	640	268953	13.328	13.019	13.644
