exp	sub	code	rev	comp	runtime	trialtime	nstim	refreshdur	cuedur	gapdur	gapOnsetRange	durPostProbe	gapOnsetTime	blocktype	prac	trial	ntargets	soa	probeTarget	resp	acc	rt	pts	tpts	meanFrameDur	minFrameDur	maxFrameDur
ProbeTrack11	2	ProbeTrack	11.1	SCS215a	20100811.101227	20100811.101236	8	0.013343	60	0	60-180	60	94	NoGap	1	1	2	0	1	target	1	960	520	520	13.328	13.300	13.350
ProbeTrack11	2	ProbeTrack	11.1	SCS215a	20100811.101227	20100811.101303	8	0.013343	60	0	60-180	60	107	NoGap	1	2	2	1	0	target	0	347	-1000	-480	13.328	13.086	13.571
ProbeTrack11	2	ProbeTrack	11.1	SCS215a	20100811.101227	20100811.101353	8	0.013343	60	0	60-180	60	177	NoGap	1	3	2	45	1	target	1	400	800	320	13.328	12.936	13.708
ProbeTrack11	2	ProbeTrack	11.1	SCS215a	20100811.101227	20100811.101401	8	0.013343	60	0	60-180	60	97	NoGap	1	4	2	45	1	target	1	427	787	1107	13.328	13.028	13.634
ProbeTrack11	2	ProbeTrack	11.1	SCS215a	20100811.101227	20100811.101408	8	0.013343	60	0	60-180	60	109	NoGap	1	5	2	45	1	target	1	547	727	1834	13.328	13.305	13.350
ProbeTrack11	2	ProbeTrack	11.1	SCS215a	20100811.101227	20100811.101417	8	0.013343	60	0	60-180	60	138	NoGap	1	6	2	45	0	distractor	1	747	627	2461	13.328	13.302	13.355
ProbeTrack11	2	ProbeTrack	11.1	SCS215a	20100811.101227	20100811.101425	8	0.013343	60	0	60-180	60	159	NoGap	1	7	2	3	0	distractor	1	614	693	3154	13.328	13.299	13.346
ProbeTrack11	2	ProbeTrack	11.1	SCS215a	20100811.101227	20100811.101432	8	0.013343	60	0	60-180	60	174	NoGap	1	8	2	0	0	distractor	1	480	760	3914	13.328	13.300	13.353
ProbeTrack11	2	ProbeTrack	11.1	SCS215a	20100811.101227	20100811.101439	8	0.013343	60	0	60-180	60	74	NoGap	1	9	2	0	0	target	0	667	-1000	2914	13.328	13.102	13.558
ProbeTrack11	2	ProbeTrack	11.1	SCS215a	20100811.101227	20100811.101445	8	0.013343	60	0	60-180	60	97	NoGap	1	10	2	1	1	target	1	494	753	3667	13.328	13.095	13.555
ProbeTrack11	2	ProbeTrack	11.1	SCS215a	20100811.101227	20100811.101451	8	0.013343	60	0	60-180	60	71	NoGap	1	11	2	0	1	target	1	640	680	4347	13.328	13.124	13.522
ProbeTrack11	2	ProbeTrack	11.1	SCS215a	20100811.101227	20100811.101458	8	0.013343	60	0	60-180	60	115	NoGap	1	12	2	3	0	distractor	1	520	740	5087	13.328	13.308	13.351
ProbeTrack11	2	ProbeTrack	11.1	SCS215a	20100811.101227	20100811.101505	8	0.013343	60	0	60-180	60	113	NoGap	1	13	2	1	0	distractor	1	640	680	5767	13.328	13.104	13.554
ProbeTrack11	2	ProbeTrack	11.1	SCS215a	20100811.101227	20100811.101511	8	0.013343	60	0	60-180	60	109	NoGap	1	14	2	0	1	target	1	507	747	6514	13.328	13.097	13.550
ProbeTrack11	2	ProbeTrack	11.1	SCS215a	20100811.101227	20100811.101518	8	0.013343	60	0	60-180	60	169	NoGap	1	15	2	3	1	target	1	480	760	7274	13.328	13.100	13.561
ProbeTrack11	2	ProbeTrack	11.1	SCS215a	20100811.101227	20100811.101524	8	0.013343	60	0	60-180	60	116	NoGap	1	16	2	45	0	distractor	1	627	687	7961	13.328	13.111	13.540
ProbeTrack11	2	ProbeTrack	11.1	SCS215a	20100811.101227	20100811.101531	8	0.013343	60	0	60-180	60	110	NoGap	1	17	2	3	1	target	1	600	700	8661	13.328	13.303	13.346
ProbeTrack11	2	ProbeTrack	11.1	SCS215a	20100811.101227	20100811.101538	8	0.013343	60	0	60-180	60	84	NoGap	1	18	2	3	0	distractor	1	627	687	9348	13.328	13.309	13.343
ProbeTrack11	2	ProbeTrack	11.1	SCS215a	20100811.101227	20100811.101544	8	0.013343	60	0	60-180	60	134	NoGap	1	19	2	45	0	distractor	1	520	740	10088	13.328	13.101	13.553
ProbeTrack11	2	ProbeTrack	11.1	SCS215a	20100811.101227	20100811.101552	8	0.013343	60	0	60-180	60	146	NoGap	1	20	2	3	1	target	1	467	767	10855	13.328	13.045	13.730
ProbeTrack11	2	ProbeTrack	11.1	SCS215a	20100811.101227	20100811.101559	8	0.013343	60	0	60-180	60	134	NoGap	1	21	2	0	1	target	1	494	753	11608	13.328	12.958	13.713
ProbeTrack11	2	ProbeTrack	11.1	SCS215a	20100811.101227	20100811.101606	8	0.013343	60	0	60-180	60	139	NoGap	1	22	2	45	1	target	1	480	760	12368	13.328	13.153	13.507
ProbeTrack11	2	ProbeTrack	11.1	SCS215a	20100811.101227	20100811.101613	8	0.013343	60	0	60-180	60	160	NoGap	1	23	2	0	0	distractor	1	627	687	13055	13.328	13.098	13.552
ProbeTrack11	2	ProbeTrack	11.1	SCS215a	20100811.101227	20100811.101620	8	0.013343	60	0	60-180	60	85	NoGap	1	24	2	1	0	distractor	1	614	693	13748	13.328	13.307	13.357
ProbeTrack11	2	ProbeTrack	11.1	SCS215a	20100811.101227	20100811.101626	8	0.013343	60	0	60-180	60	142	NoGap	1	25	2	45	0	distractor	1	574	713	14461	13.328	13.106	13.552
ProbeTrack11	2	ProbeTrack	11.1	SCS215a	20100811.101227	20100811.101634	8	0.013343	60	0	60-180	60	176	NoGap	1	26	2	0	1	target	1	547	727	15188	13.328	13.047	13.611
ProbeTrack11	2	ProbeTrack	11.1	SCS215a	20100811.101227	20100811.101642	8	0.013343	60	0	60-180	60	120	NoGap	1	27	2	3	0	distractor	1	574	713	15901	13.328	12.930	13.730
ProbeTrack11	2	ProbeTrack	11.1	SCS215a	20100811.101227	20100811.101648	8	0.013343	60	0	60-180	60	103	NoGap	1	28	2	0	0	target	0	773	-1000	14901	13.384	12.866	27.119
ProbeTrack11	2	ProbeTrack	11.1	SCS215a	20100811.101227	20100811.101655	8	0.013343	60	0	60-180	60	134	NoGap	1	29	2	1	1	target	1	440	780	15681	13.382	12.851	26.637
ProbeTrack11	2	ProbeTrack	11.1	SCS215a	20100811.101227	20100811.101701	8	0.013343	60	0	60-180	60	145	NoGap	1	30	2	0	0	distractor	1	600	700	16381	13.328	13.309	13.354
ProbeTrack11	2	ProbeTrack	11.1	SCS215a	20100811.101227	20100811.101708	8	0.013343	60	0	60-180	60	156	NoGap	1	31	2	45	1	target	1	560	720	17101	13.328	13.290	13.374
ProbeTrack11	2	ProbeTrack	11.1	SCS215a	20100811.101227	20100811.101716	8	0.013343	60	0	60-180	60	109	NoGap	1	32	2	1	1	target	1	507	747	17848	13.328	13.280	13.388
ProbeTrack11	2	ProbeTrack	11.1	SCS215a	20100811.101227	20100811.101722	8	0.013343	60	0	60-180	60	88	NoGap	1	33	2	1	1	target	1	627	687	18535	13.328	12.865	13.799
ProbeTrack11	2	ProbeTrack	11.1	SCS215a	20100811.101227	20100811.101728	8	0.013343	60	0	60-180	60	66	NoGap	1	34	2	3	1	target	1	614	693	19228	13.328	13.243	13.404
ProbeTrack11	2	ProbeTrack	11.1	SCS215a	20100811.101227	20100811.101734	8	0.013343	60	0	60-180	60	110	NoGap	1	35	2	1	0	distractor	1	787	607	19835	13.328	13.162	13.476
ProbeTrack11	2	ProbeTrack	11.1	SCS215a	20100811.101227	20100811.101743	8	0.013343	60	0	60-180	60	129	NoGap	1	36	2	3	0	distractor	1	667	667	20502	13.328	13.304	13.348
ProbeTrack11	2	ProbeTrack	11.1	SCS215a	20100811.101227	20100811.101750	8	0.013343	60	0	60-180	60	162	NoGap	1	37	2	3	1	target	1	494	753	21255	13.328	13.308	13.343
ProbeTrack11	2	ProbeTrack	11.1	SCS215a	20100811.101227	20100811.101757	8	0.013343	60	0	60-180	60	153	NoGap	1	38	2	1	1	target	1	587	707	21962	13.328	13.302	13.355
ProbeTrack11	2	ProbeTrack	11.1	SCS215a	20100811.101227	20100811.101804	8	0.013343	60	0	60-180	60	109	NoGap	1	39	2	1	0	distractor	1	640	680	22642	13.895	12.889	40.019
ProbeTrack11	2	ProbeTrack	11.1	SCS215a	20100811.101227	20100811.101810	8	0.013343	60	0	60-180	60	94	NoGap	1	40	2	45	0	distractor	1	853	574	23216	13.376	12.832	27.062
ProbeTrack11	2	ProbeTrack	11.1	SCS215a	20100811.101928	20100811.101942	8	0.013328	60	10	60-180	60	117	GapPrac	1	1	2	3	0	32	-3	600	-1000	22216	13.328	13.293	13.370
ProbeTrack11	2	ProbeTrack	11.1	SCS215a	20100811.101928	20100811.101949	8	0.013328	60	10	60-180	60	171	GapPrac	1	2	2	0	1	target	1	747	627	22843	13.328	13.309	13.346
ProbeTrack11	2	ProbeTrack	11.1	SCS215a	20100811.101928	20100811.101956	8	0.013328	60	10	60-180	60	147	GapPrac	1	3	2	45	0	distractor	1	653	674	23517	13.328	12.949	13.702
ProbeTrack11	2	ProbeTrack	11.1	SCS215a	20100811.101928	20100811.102004	8	0.013328	60	0	60-180	60	68	GapPrac	1	4	2	0	1	target	1	707	647	24164	13.328	12.990	13.661
ProbeTrack11	2	ProbeTrack	11.1	SCS215a	20100811.101928	20100811.102010	8	0.013328	60	10	60-180	60	110	GapPrac	1	5	2	0	1	target	1	693	654	24818	13.328	13.161	13.528
ProbeTrack11	2	ProbeTrack	11.1	SCS215a	20100811.101928	20100811.102017	8	0.013328	60	10	60-180	60	135	GapPrac	1	6	2	1	1	target	1	507	747	25565	13.328	13.307	13.346
ProbeTrack11	2	ProbeTrack	11.1	SCS215a	20100811.101928	20100811.102023	8	0.013328	60	0	60-180	60	86	GapPrac	1	7	2	1	1	target	1	574	713	26278	13.328	13.307	13.347
ProbeTrack11	2	ProbeTrack	11.1	SCS215a	20100811.101928	20100811.102029	8	0.013328	60	0	60-180	60	138	GapPrac	1	8	2	45	1	target	1	600	700	26978	13.371	12.901	26.700
ProbeTrack11	2	ProbeTrack	11.1	SCS215a	20100811.101928	20100811.102036	8	0.013328	60	0	60-180	60	141	GapPrac	1	9	2	3	0	distractor	1	827	587	27565	13.328	12.860	13.789
ProbeTrack11	2	ProbeTrack	11.1	SCS215a	20100811.101928	20100811.102043	8	0.013328	60	0	60-180	60	160	GapPrac	1	10	2	45	0	distractor	1	587	707	28272	13.328	13.025	13.635
ProbeTrack11	2	ProbeTrack	11.1	SCS215a	20100811.101928	20100811.102051	8	0.013328	60	0	60-180	60	154	GapPrac	1	11	2	1	0	distractor	1	733	634	28906	13.328	13.309	13.344
ProbeTrack11	2	ProbeTrack	11.1	SCS215a	20100811.101928	20100811.102058	8	0.013328	60	0	60-180	60	161	GapPrac	1	12	2	0	0	distractor	1	627	687	29593	13.328	13.078	13.652
ProbeTrack11	2	ProbeTrack	11.1	SCS215a	20100811.101928	20100811.102105	8	0.013328	60	10	60-180	60	129	GapPrac	1	13	2	1	0	distractor	1	867	567	30160	13.328	12.920	13.746
ProbeTrack11	2	ProbeTrack	11.1	SCS215a	20100811.101928	20100811.102112	8	0.013328	60	0	60-180	60	153	GapPrac	1	14	2	3	1	target	1	667	667	30827	13.328	12.841	13.795
ProbeTrack11	2	ProbeTrack	11.1	SCS215a	20100811.101928	20100811.102118	8	0.013328	60	0	60-180	60	154	GapPrac	1	15	2	0	1	target	1	574	713	31540	13.328	12.945	13.705
ProbeTrack11	2	ProbeTrack	11.1	SCS215a	20100811.101928	20100811.102125	8	0.013328	60	10	60-180	60	138	GapPrac	1	16	2	0	0	distractor	1	773	614	32154	13.328	12.963	13.677
ProbeTrack11	2	ProbeTrack	11.1	SCS215a	20100811.101928	20100811.102132	8	0.013328	60	10	60-180	60	143	GapPrac	1	17	2	3	1	target	1	560	720	32874	13.328	13.157	13.506
ProbeTrack11	2	ProbeTrack	11.1	SCS215a	20100811.101928	20100811.102139	8	0.013328	60	10	60-180	60	101	GapPrac	1	18	2	3	0	distractor	1	640	680	33554	13.328	13.063	13.584
ProbeTrack11	2	ProbeTrack	11.1	SCS215a	20100811.101928	20100811.102145	8	0.013328	60	10	60-180	60	87	GapPrac	1	19	2	45	0	distractor	1	720	640	34194	13.328	12.940	13.713
ProbeTrack11	2	ProbeTrack	11.1	SCS215a	20100811.101928	20100811.102152	8	0.013328	60	10	60-180	60	81	GapPrac	1	20	2	45	1	target	1	440	780	34974	13.328	13.052	13.571
ProbeTrack11	2	ProbeTrack	11.1	SCS215a	20100811.102255	20100811.102313	8	0.013328	60	0	60-180	60	88	GapExp	1	1	2	45	1	target	1	560	720	35694	13.328	12.920	13.739
ProbeTrack11	2	ProbeTrack	11.1	SCS215a	20100811.102255	20100811.102323	8	0.013328	60	0	60-180	60	119	GapExp	1	2	2	45	0	distractor	1	587	707	36401	13.328	12.911	13.748
ProbeTrack11	2	ProbeTrack	11.1	SCS215a	20100811.102255	20100811.102330	8	0.013328	60	0	60-180	60	156	GapExp	1	3	2	0	1	target	1	520	740	37141	13.328	12.905	13.732
ProbeTrack11	2	ProbeTrack	11.1	SCS215a	20100811.102255	20100811.102336	8	0.013328	60	10	60-180	60	174	GapExp	1	4	2	3	1	target	1	480	760	37901	13.328	13.039	13.560
ProbeTrack11	2	ProbeTrack	11.1	SCS215a	20100811.102255	20100811.102344	8	0.013328	60	10	60-180	60	73	GapExp	1	5	2	0	1	target	1	600	700	38601	13.328	13.103	13.565
ProbeTrack11	2	ProbeTrack	11.1	SCS215a	20100811.102255	20100811.102349	8	0.013328	60	10	60-180	60	97	GapExp	0	6	2	1	0	distractor	1	614	693	39294	13.328	13.098	13.550
ProbeTrack11	2	ProbeTrack	11.1	SCS215a	20100811.102255	20100811.102356	8	0.013328	60	0	60-180	60	79	GapExp	0	7	2	45	0	distractor	1	614	693	39987	13.328	12.879	13.804
ProbeTrack11	2	ProbeTrack	11.1	SCS215a	20100811.102255	20100811.102402	8	0.013328	60	0	60-180	60	147	GapExp	0	8	2	1	0	distractor	1	520	740	40727	13.328	13.078	13.721
ProbeTrack11	2	ProbeTrack	11.1	SCS215a	20100811.102255	20100811.102410	8	0.013328	60	10	60-180	60	109	GapExp	0	9	2	0	1	target	1	547	727	41454	13.328	13.097	13.554
ProbeTrack11	2	ProbeTrack	11.1	SCS215a	20100811.102255	20100811.102416	8	0.013328	60	0	60-180	60	173	GapExp	0	10	2	3	1	target	1	560	720	42174	13.328	13.044	13.583
ProbeTrack11	2	ProbeTrack	11.1	SCS215a	20100811.102255	20100811.102423	8	0.013328	60	10	60-180	60	69	GapExp	0	11	2	1	0	distractor	1	733	634	42808	13.328	12.850	13.805
ProbeTrack11	2	ProbeTrack	11.1	SCS215a	20100811.102255	20100811.102429	8	0.013328	60	0	60-180	60	139	GapExp	0	12	2	1	1	target	1	547	727	43535	13.328	13.308	13.349
ProbeTrack11	2	ProbeTrack	11.1	SCS215a	20100811.102255	20100811.102436	8	0.013328	60	0	60-180	60	129	GapExp	0	13	2	3	0	distractor	1	693	654	44189	13.328	13.052	13.589
ProbeTrack11	2	ProbeTrack	11.1	SCS215a	20100811.102255	20100811.102442	8	0.013328	60	0	60-180	60	100	GapExp	0	14	2	3	1	target	1	853	574	44763	13.328	13.307	13.347
ProbeTrack11	2	ProbeTrack	11.1	SCS215a	20100811.102255	20100811.102449	8	0.013328	60	0	60-180	60	146	GapExp	0	15	2	1	0	distractor	1	627	687	45450	13.328	12.878	13.790
ProbeTrack11	2	ProbeTrack	11.1	SCS215a	20100811.102255	20100811.102456	8	0.013328	60	0	60-180	60	126	GapExp	0	16	2	45	0	distractor	1	600	700	46150	13.328	13.308	13.347
ProbeTrack11	2	ProbeTrack	11.1	SCS215a	20100811.102255	20100811.102503	8	0.013328	60	0	60-180	60	121	GapExp	0	17	2	3	0	distractor	1	587	707	46857	13.328	13.308	13.348
ProbeTrack11	2	ProbeTrack	11.1	SCS215a	20100811.102255	20100811.102510	8	0.013328	60	10	60-180	60	167	GapExp	0	18	2	45	0	distractor	1	547	727	47584	13.328	13.194	13.356
ProbeTrack11	2	ProbeTrack	11.1	SCS215a	20100811.102255	20100811.102518	8	0.013328	60	0	60-180	60	159	GapExp	0	19	2	1	1	target	1	627	687	48271	13.328	13.120	13.552
ProbeTrack11	2	ProbeTrack	11.1	SCS215a	20100811.102255	20100811.102530	8	0.013328	60	0	60-180	60	146	GapExp	0	20	2	0	0	target	0	733	-1000	47271	13.328	13.303	13.351
ProbeTrack11	2	ProbeTrack	11.1	SCS215a	20100811.102255	20100811.102538	8	0.013328	60	10	60-180	60	148	GapExp	0	21	2	1	1	target	1	813	594	47865	13.328	13.015	13.704
ProbeTrack11	2	ProbeTrack	11.1	SCS215a	20100811.102255	20100811.102545	8	0.013328	60	10	60-180	60	96	GapExp	0	22	2	3	0	distractor	1	787	607	48472	13.328	13.016	13.626
ProbeTrack11	2	ProbeTrack	11.1	SCS215a	20100811.102255	20100811.102552	8	0.013328	60	10	60-180	60	73	GapExp	0	23	2	3	1	target	1	574	713	49185	13.328	13.000	13.662
ProbeTrack11	2	ProbeTrack	11.1	SCS215a	20100811.102255	20100811.102558	8	0.013328	60	0	60-180	60	180	GapExp	0	24	2	3	1	target	1	520	740	49925	13.328	12.904	13.761
ProbeTrack11	2	ProbeTrack	11.1	SCS215a	20100811.102255	20100811.102605	8	0.013328	60	0	60-180	60	162	GapExp	0	25	2	3	0	distractor	1	813	594	50519	13.328	13.297	13.352
ProbeTrack11	2	ProbeTrack	11.1	SCS215a	20100811.102255	20100811.102612	8	0.013328	60	10	60-180	60	176	GapExp	0	26	2	1	1	distractor	0	613	-1000	49519	13.328	13.306	13.353
ProbeTrack11	2	ProbeTrack	11.1	SCS215a	20100811.102255	20100811.102619	8	0.013328	60	0	60-180	60	115	GapExp	0	27	2	0	1	target	1	574	713	50232	13.328	13.059	13.589
ProbeTrack11	2	ProbeTrack	11.1	SCS215a	20100811.102255	20100811.102626	8	0.013328	60	10	60-180	60	105	GapExp	0	28	2	3	0	distractor	1	627	687	50919	13.438	12.987	26.785
ProbeTrack11	2	ProbeTrack	11.1	SCS215a	20100811.102255	20100811.102632	8	0.013328	60	10	60-180	60	176	GapExp	0	29	2	1	0	distractor	1	547	727	51646	13.328	13.098	13.548
ProbeTrack11	2	ProbeTrack	11.1	SCS215a	20100811.102255	20100811.102639	8	0.013328	60	0	60-180	60	101	GapExp	0	30	2	1	1	target	1	693	654	52300	13.444	12.866	26.688
ProbeTrack11	2	ProbeTrack	11.1	SCS215a	20100811.102255	20100811.102645	8	0.013328	60	10	60-180	60	173	GapExp	0	31	2	0	0	distractor	1	520	740	53040	13.328	12.910	13.794
ProbeTrack11	2	ProbeTrack	11.1	SCS215a	20100811.102255	20100811.102653	8	0.013328	60	0	60-180	60	100	GapExp	0	32	2	1	1	target	1	467	767	53807	13.328	12.985	13.673
ProbeTrack11	2	ProbeTrack	11.1	SCS215a	20100811.102255	20100811.102659	8	0.013328	60	10	60-180	60	102	GapExp	0	33	2	1	1	target	1	534	733	54540	13.328	13.007	13.653
ProbeTrack11	2	ProbeTrack	11.1	SCS215a	20100811.102255	20100811.102706	8	0.013328	60	0	60-180	60	170	GapExp	0	34	2	1	1	target	1	480	760	55300	13.328	12.981	13.663
ProbeTrack11	2	ProbeTrack	11.1	SCS215a	20100811.102255	20100811.102713	8	0.013328	60	10	60-180	60	144	GapExp	0	35	2	3	1	target	1	480	760	56060	13.328	13.093	13.774
ProbeTrack11	2	ProbeTrack	11.1	SCS215a	20100811.102255	20100811.102720	8	0.013328	60	10	60-180	60	71	GapExp	0	36	2	0	0	distractor	1	600	700	56760	13.328	12.889	13.785
ProbeTrack11	2	ProbeTrack	11.1	SCS215a	20100811.102255	20100811.102725	8	0.013328	60	10	60-180	60	158	GapExp	0	37	2	3	0	distractor	1	507	747	57507	13.328	12.999	13.563
ProbeTrack11	2	ProbeTrack	11.1	SCS215a	20100811.102255	20100811.102732	8	0.013328	60	10	60-180	60	176	GapExp	0	38	2	3	1	target	1	560	720	58227	13.328	13.102	13.556
ProbeTrack11	2	ProbeTrack	11.1	SCS215a	20100811.102255	20100811.102740	8	0.013328	60	0	60-180	60	174	GapExp	0	39	2	3	1	target	1	547	727	58954	13.328	13.107	13.549
ProbeTrack11	2	ProbeTrack	11.1	SCS215a	20100811.102255	20100811.102747	8	0.013328	60	0	60-180	60	127	GapExp	0	40	2	45	1	target	1	440	780	59734	13.328	13.305	13.346
ProbeTrack11	2	ProbeTrack	11.1	SCS215a	20100811.102255	20100811.102753	8	0.013328	60	0	60-180	60	70	GapExp	0	41	2	3	1	target	1	760	620	60354	13.328	13.306	13.347
ProbeTrack11	2	ProbeTrack	11.1	SCS215a	20100811.102255	20100811.102759	8	0.013328	60	0	60-180	60	145	GapExp	0	42	2	1	1	target	1	587	707	61061	13.328	12.623	14.143
ProbeTrack11	2	ProbeTrack	11.1	SCS215a	20100811.102255	20100811.102806	8	0.013328	60	10	60-180	60	87	GapExp	0	43	2	1	0	distractor	1	587	707	61768	13.328	12.870	13.802
ProbeTrack11	2	ProbeTrack	11.1	SCS215a	20100811.102255	20100811.102812	8	0.013328	60	10	60-180	60	67	GapExp	0	44	2	1	0	distractor	1	1040	480	62248	13.328	13.309	13.346
ProbeTrack11	2	ProbeTrack	11.1	SCS215a	20100811.102255	20100811.102818	8	0.013328	60	0	60-180	60	100	GapExp	0	45	2	45	0	distractor	1	574	713	62961	13.328	13.284	13.374
ProbeTrack11	2	ProbeTrack	11.1	SCS215a	20100811.102255	20100811.102825	8	0.013328	60	10	60-180	60	122	GapExp	0	46	2	1	1	target	1	534	733	63694	13.328	12.910	13.738
ProbeTrack11	2	ProbeTrack	11.1	SCS215a	20100811.102255	20100811.102831	8	0.013328	60	10	60-180	60	85	GapExp	0	47	2	1	0	distractor	1	520	740	64434	13.328	13.308	13.343
ProbeTrack11	2	ProbeTrack	11.1	SCS215a	20100811.102255	20100811.102838	8	0.013328	60	0	60-180	60	138	GapExp	0	48	2	1	1	target	1	707	647	65081	13.328	13.100	13.542
ProbeTrack11	2	ProbeTrack	11.1	SCS215a	20100811.102255	20100811.102844	8	0.013328	60	10	60-180	60	86	GapExp	0	49	2	3	0	distractor	1	547	727	65808	13.328	13.086	13.572
ProbeTrack11	2	ProbeTrack	11.1	SCS215a	20100811.102255	20100811.102850	8	0.013328	60	0	60-180	60	108	GapExp	0	50	2	3	0	distractor	1	600	700	66508	13.328	13.101	13.553
ProbeTrack11	2	ProbeTrack	11.1	SCS215a	20100811.102255	20100811.102857	8	0.013328	60	10	60-180	60	176	GapExp	0	51	2	0	0	distractor	1	520	740	67248	13.328	13.083	13.640
ProbeTrack11	2	ProbeTrack	11.1	SCS215a	20100811.102255	20100811.102904	8	0.013328	60	10	60-180	60	140	GapExp	0	52	2	3	0	distractor	1	534	733	67981	13.328	12.941	13.727
ProbeTrack11	2	ProbeTrack	11.1	SCS215a	20100811.102255	20100811.102911	8	0.013328	60	10	60-180	60	88	GapExp	0	53	2	0	0	distractor	1	653	674	68655	13.328	13.093	13.553
ProbeTrack11	2	ProbeTrack	11.1	SCS215a	20100811.102255	20100811.102917	8	0.013328	60	10	60-180	60	62	GapExp	0	54	2	45	1	target	1	747	627	69282	13.328	13.085	13.557
ProbeTrack11	2	ProbeTrack	11.1	SCS215a	20100811.102255	20100811.102924	8	0.013328	60	10	60-180	60	85	GapExp	0	55	2	0	1	target	1	507	747	70029	13.328	13.309	13.346
ProbeTrack11	2	ProbeTrack	11.1	SCS215a	20100811.102255	20100811.102930	8	0.013328	60	10	60-180	60	176	GapExp	0	56	2	0	0	distractor	1	574	713	70742	13.328	12.906	13.736
ProbeTrack11	2	ProbeTrack	11.1	SCS215a	20100811.102255	20100811.102937	8	0.013328	60	0	60-180	60	174	GapExp	0	57	2	3	1	target	1	534	733	71475	13.328	13.308	13.350
ProbeTrack11	2	ProbeTrack	11.1	SCS215a	20100811.102255	20100811.102944	8	0.013328	60	0	60-180	60	104	GapExp	0	58	2	0	0	32	-3	773	-1000	70475	13.328	13.056	13.602
ProbeTrack11	2	ProbeTrack	11.1	SCS215a	20100811.102255	20100811.102950	8	0.013328	60	10	60-180	60	70	GapExp	0	59	2	3	1	target	1	720	640	71115	13.328	13.030	13.627
ProbeTrack11	2	ProbeTrack	11.1	SCS215a	20100811.102255	20100811.102957	8	0.013328	60	10	60-180	60	87	GapExp	0	60	2	45	0	target	0	800	-1000	70115	13.328	13.309	13.347
ProbeTrack11	2	ProbeTrack	11.1	SCS215a	20100811.102255	20100811.103004	8	0.013328	60	0	60-180	60	122	GapExp	0	61	2	1	0	distractor	1	614	693	70808	13.328	13.308	13.359
ProbeTrack11	2	ProbeTrack	11.1	SCS215a	20100811.102255	20100811.103010	8	0.013328	60	0	60-180	60	119	GapExp	0	62	2	0	1	target	1	720	640	71448	13.328	12.987	13.698
ProbeTrack11	2	ProbeTrack	11.1	SCS215a	20100811.102255	20100811.103017	8	0.013328	60	0	60-180	60	164	GapExp	0	63	2	45	0	distractor	1	694	653	72101	13.328	13.053	13.608
ProbeTrack11	2	ProbeTrack	11.1	SCS215a	20100811.102255	20100811.103025	8	0.013328	60	0	60-180	60	150	GapExp	0	64	2	1	0	distractor	1	707	647	72748	13.328	13.308	13.346
ProbeTrack11	2	ProbeTrack	11.1	SCS215a	20100811.102255	20100811.103032	8	0.013328	60	10	60-180	60	168	GapExp	0	65	2	0	0	distractor	1	587	707	73455	13.328	13.307	13.353
ProbeTrack11	2	ProbeTrack	11.1	SCS215a	20100811.102255	20100811.103039	8	0.013328	60	0	60-180	60	77	GapExp	0	66	2	1	0	distractor	1	627	687	74142	13.328	12.918	13.732
ProbeTrack11	2	ProbeTrack	11.1	SCS215a	20100811.102255	20100811.103045	8	0.013328	60	10	60-180	60	64	GapExp	0	67	2	1	0	distractor	1	693	654	74796	13.328	12.893	13.766
ProbeTrack11	2	ProbeTrack	11.1	SCS215a	20100811.102255	20100811.103051	8	0.013328	60	10	60-180	60	166	GapExp	0	68	2	1	1	target	1	494	753	75549	13.328	12.861	13.789
ProbeTrack11	2	ProbeTrack	11.1	SCS215a	20100811.102255	20100811.103058	8	0.013328	60	10	60-180	60	174	GapExp	0	69	2	1	1	target	1	560	720	76269	13.328	13.095	13.561
ProbeTrack11	2	ProbeTrack	11.1	SCS215a	20100811.102255	20100811.103105	8	0.013328	60	0	60-180	60	116	GapExp	0	70	2	45	1	target	1	654	673	76942	13.328	12.919	13.745
ProbeTrack11	2	ProbeTrack	11.1	SCS215a	20100811.102255	20100811.103115	8	0.013328	60	0	60-180	60	106	GapExp	0	71	2	3	0	target	0	467	-1000	75942	13.328	13.309	13.349
ProbeTrack11	2	ProbeTrack	11.1	SCS215a	20100811.102255	20100811.103211	8	0.013328	60	0	60-180	60	112	GapExp	0	72	2	0	1	target	1	787	607	76549	13.328	13.309	13.347
ProbeTrack11	2	ProbeTrack	11.1	SCS215a	20100811.102255	20100811.103218	8	0.013328	60	10	60-180	60	76	GapExp	0	73	2	0	1	target	1	480	760	77309	13.328	13.280	13.383
ProbeTrack11	2	ProbeTrack	11.1	SCS215a	20100811.102255	20100811.103224	8	0.013328	60	0	60-180	60	119	GapExp	0	74	2	45	1	target	1	467	767	78076	13.328	13.241	13.406
ProbeTrack11	2	ProbeTrack	11.1	SCS215a	20100811.102255	20100811.103314	8	0.013328	60	0	60-180	60	120	GapExp	0	75	2	0	0	distractor	1	653	674	78750	13.382	13.131	26.847
ProbeTrack11	2	ProbeTrack	11.1	SCS215a	20100811.102255	20100811.103320	8	0.013328	60	10	60-180	60	142	GapExp	0	76	2	45	1	target	1	520	740	79490	13.328	12.911	13.749
ProbeTrack11	2	ProbeTrack	11.1	SCS215a	20100811.102255	20100811.103328	8	0.013328	60	10	60-180	60	78	GapExp	0	77	2	45	0	distractor	1	573	714	80204	13.328	13.022	13.637
ProbeTrack11	2	ProbeTrack	11.1	SCS215a	20100811.102255	20100811.103343	8	0.013328	60	10	60-180	60	130	GapExp	0	78	2	1	1	target	1	507	747	80951	13.328	13.096	13.546
ProbeTrack11	2	ProbeTrack	11.1	SCS215a	20100811.102255	20100811.103352	8	0.013328	60	0	60-180	60	111	GapExp	0	79	2	1	1	target	1	627	687	81638	13.328	13.102	13.544
ProbeTrack11	2	ProbeTrack	11.1	SCS215a	20100811.102255	20100811.103359	8	0.013328	60	0	60-180	60	100	GapExp	0	80	2	3	1	target	1	494	753	82391	13.328	13.309	13.346
ProbeTrack11	2	ProbeTrack	11.1	SCS215a	20100811.102255	20100811.103405	8	0.013328	60	0	60-180	60	68	GapExp	0	81	2	45	0	distractor	1	733	634	83025	13.328	13.089	13.570
ProbeTrack11	2	ProbeTrack	11.1	SCS215a	20100811.102255	20100811.103411	8	0.013328	60	10	60-180	60	126	GapExp	0	82	2	1	1	target	1	520	740	83765	13.328	13.086	13.575
ProbeTrack11	2	ProbeTrack	11.1	SCS215a	20100811.102255	20100811.103418	8	0.013328	60	10	60-180	60	127	GapExp	0	83	2	0	1	target	1	507	747	84512	13.328	13.307	13.345
ProbeTrack11	2	ProbeTrack	11.1	SCS215a	20100811.102255	20100811.103424	8	0.013328	60	10	60-180	60	81	GapExp	0	84	2	0	1	target	1	613	694	85206	13.328	13.309	13.348
ProbeTrack11	2	ProbeTrack	11.1	SCS215a	20100811.102255	20100811.103430	8	0.013328	60	10	60-180	60	75	GapExp	0	85	2	0	1	target	1	614	693	85899	13.328	12.988	13.656
ProbeTrack11	2	ProbeTrack	11.1	SCS215a	20100811.102255	20100811.103436	8	0.013328	60	0	60-180	60	86	GapExp	0	86	2	1	0	distractor	1	587	707	86606	13.328	13.307	13.346
ProbeTrack11	2	ProbeTrack	11.1	SCS215a	20100811.102255	20100811.103442	8	0.013328	60	10	60-180	60	131	GapExp	0	87	2	45	1	target	1	667	667	87273	13.328	13.032	13.621
ProbeTrack11	2	ProbeTrack	11.1	SCS215a	20100811.102255	20100811.103449	8	0.013328	60	10	60-180	60	153	GapExp	0	88	2	3	1	target	1	480	760	88033	13.328	12.875	13.558
ProbeTrack11	2	ProbeTrack	11.1	SCS215a	20100811.102255	20100811.103456	8	0.013328	60	0	60-180	60	134	GapExp	0	89	2	0	1	target	1	560	720	88753	13.328	13.092	13.544
ProbeTrack11	2	ProbeTrack	11.1	SCS215a	20100811.102255	20100811.103503	8	0.013328	60	10	60-180	60	131	GapExp	0	90	2	3	0	distractor	1	600	700	89453	13.328	13.062	13.587
ProbeTrack11	2	ProbeTrack	11.1	SCS215a	20100811.102255	20100811.103510	8	0.013328	60	10	60-180	60	161	GapExp	0	91	2	3	1	target	1	560	720	90173	13.328	13.308	13.351
ProbeTrack11	2	ProbeTrack	11.1	SCS215a	20100811.102255	20100811.103518	8	0.013328	60	10	60-180	60	120	GapExp	0	92	2	45	1	target	1	627	687	90860	13.328	13.147	13.504
ProbeTrack11	2	ProbeTrack	11.1	SCS215a	20100811.102255	20100811.103526	8	0.013328	60	0	60-180	60	81	GapExp	0	93	2	0	0	distractor	1	667	667	91527	13.328	13.310	13.346
ProbeTrack11	2	ProbeTrack	11.1	SCS215a	20100811.102255	20100811.103532	8	0.013328	60	10	60-180	60	108	GapExp	0	94	2	1	0	distractor	1	574	713	92240	13.495	13.014	40.110
ProbeTrack11	2	ProbeTrack	11.1	SCS215a	20100811.102255	20100811.103538	8	0.013328	60	0	60-180	60	116	GapExp	0	95	2	45	0	distractor	1	667	667	92907	13.328	12.901	13.764
ProbeTrack11	2	ProbeTrack	11.1	SCS215a	20100811.102255	20100811.103546	8	0.013328	60	10	60-180	60	66	GapExp	0	96	2	3	0	distractor	1	494	753	93660	13.328	13.054	13.604
ProbeTrack11	2	ProbeTrack	11.1	SCS215a	20100811.102255	20100811.103551	8	0.013328	60	10	60-180	60	74	GapExp	0	97	2	1	1	target	1	507	747	94407	13.328	13.098	13.561
ProbeTrack11	2	ProbeTrack	11.1	SCS215a	20100811.102255	20100811.103557	8	0.013328	60	0	60-180	60	88	GapExp	0	98	2	0	1	target	1	547	727	95134	13.328	12.867	13.790
ProbeTrack11	2	ProbeTrack	11.1	SCS215a	20100811.102255	20100811.103603	8	0.013328	60	0	60-180	60	119	GapExp	0	99	2	1	1	target	1	600	700	95834	13.328	13.250	13.427
ProbeTrack11	2	ProbeTrack	11.1	SCS215a	20100811.102255	20100811.103609	8	0.013328	60	0	60-180	60	117	GapExp	0	100	2	3	0	distractor	1	667	667	96501	13.328	13.225	13.438
ProbeTrack11	2	ProbeTrack	11.1	SCS215a	20100811.102255	20100811.103615	8	0.013328	60	10	60-180	60	122	GapExp	0	101	2	1	1	target	1	520	740	97241	13.328	13.002	13.644
ProbeTrack11	2	ProbeTrack	11.1	SCS215a	20100811.102255	20100811.103623	8	0.013328	60	10	60-180	60	109	GapExp	0	102	2	3	1	target	1	534	733	97974	13.328	13.308	13.346
ProbeTrack11	2	ProbeTrack	11.1	SCS215a	20100811.102255	20100811.103630	8	0.013328	60	0	60-180	60	130	GapExp	0	103	2	1	1	target	1	534	733	98707	13.328	13.099	13.547
ProbeTrack11	2	ProbeTrack	11.1	SCS215a	20100811.102255	20100811.103718	8	0.013328	60	0	60-180	60	99	GapExp	0	104	2	1	1	target	1	560	720	99427	13.328	13.308	13.347
ProbeTrack11	2	ProbeTrack	11.1	SCS215a	20100811.102255	20100811.103724	8	0.013328	60	0	60-180	60	159	GapExp	0	105	2	3	1	target	1	515	743	100170	13.474	12.873	26.856
ProbeTrack11	2	ProbeTrack	11.1	SCS215a	20100811.102255	20100811.103731	8	0.013328	60	10	60-180	60	144	GapExp	0	106	2	1	1	target	1	400	800	100970	13.328	13.308	13.346
ProbeTrack11	2	ProbeTrack	11.1	SCS215a	20100811.102255	20100811.103737	8	0.013328	60	0	60-180	60	144	GapExp	0	107	2	3	1	target	1	534	733	101703	13.328	13.052	13.607
ProbeTrack11	2	ProbeTrack	11.1	SCS215a	20100811.102255	20100811.103744	8	0.013328	60	10	60-180	60	112	GapExp	0	108	2	3	0	distractor	1	547	727	102430	13.328	13.308	13.347
ProbeTrack11	2	ProbeTrack	11.1	SCS215a	20100811.102255	20100811.103751	8	0.013328	60	0	60-180	60	111	GapExp	0	109	2	1	0	distractor	1	747	627	103057	13.328	13.308	13.348
ProbeTrack11	2	ProbeTrack	11.1	SCS215a	20100811.102255	20100811.103757	8	0.013328	60	10	60-180	60	163	GapExp	0	110	2	3	1	target	1	414	793	103850	13.375	13.107	26.854
ProbeTrack11	2	ProbeTrack	11.1	SCS215a	20100811.102255	20100811.103921	8	0.013328	60	0	60-180	60	90	GapExp	0	111	2	0	1	target	1	400	800	104650	13.328	13.061	13.602
ProbeTrack11	2	ProbeTrack	11.1	SCS215a	20100811.102255	20100811.103927	8	0.013328	60	0	60-180	60	120	GapExp	0	112	2	0	0	distractor	1	587	707	105357	13.328	12.849	13.797
ProbeTrack11	2	ProbeTrack	11.1	SCS215a	20100811.102255	20100811.103933	8	0.013328	60	0	60-180	60	160	GapExp	0	113	2	0	1	target	1	520	740	106097	13.328	13.272	13.363
ProbeTrack11	2	ProbeTrack	11.1	SCS215a	20100811.102255	20100811.103940	8	0.013328	60	10	60-180	60	147	GapExp	0	114	2	3	1	target	1	480	760	106857	13.328	13.309	13.348
ProbeTrack11	2	ProbeTrack	11.1	SCS215a	20100811.102255	20100811.103947	8	0.013328	60	10	60-180	60	84	GapExp	0	115	2	0	1	186	-3	520	-1000	105857	13.328	13.302	13.346
ProbeTrack11	2	ProbeTrack	11.1	SCS215a	20100811.102255	20100811.104007	8	0.013328	60	10	60-180	60	159	GapExp	0	116	2	1	0	distractor	1	760	620	106477	13.328	13.096	13.564
ProbeTrack11	2	ProbeTrack	11.1	SCS215a	20100811.102255	20100811.104017	8	0.013328	60	10	60-180	60	143	GapExp	0	117	2	45	1	target	1	520	740	107217	13.328	12.949	13.717
ProbeTrack11	2	ProbeTrack	11.1	SCS215a	20100811.102255	20100811.104024	8	0.013328	60	10	60-180	60	115	GapExp	0	118	2	1	1	target	1	507	747	107964	13.328	13.116	13.541
ProbeTrack11	2	ProbeTrack	11.1	SCS215a	20100811.102255	20100811.104032	8	0.013328	60	10	60-180	60	125	GapExp	0	119	2	45	1	target	1	640	680	108644	13.372	12.853	27.125
ProbeTrack11	2	ProbeTrack	11.1	SCS215a	20100811.102255	20100811.104039	8	0.013328	60	0	60-180	60	135	GapExp	0	120	2	3	0	distractor	1	587	707	109351	13.328	13.306	13.351
ProbeTrack11	2	ProbeTrack	11.1	SCS215a	20100811.102255	20100811.104046	8	0.013328	60	0	60-180	60	167	GapExp	0	121	2	45	0	distractor	1	534	733	110084	13.328	12.875	13.791
ProbeTrack11	2	ProbeTrack	11.1	SCS215a	20100811.102255	20100811.104053	8	0.013328	60	10	60-180	60	173	GapExp	0	122	2	0	0	distractor	1	454	773	110857	13.328	13.027	13.633
ProbeTrack11	2	ProbeTrack	11.1	SCS215a	20100811.102255	20100811.104100	8	0.013328	60	0	60-180	60	80	GapExp	0	123	2	45	1	target	1	414	793	111650	13.328	13.098	13.551
ProbeTrack11	2	ProbeTrack	11.1	SCS215a	20100811.102255	20100811.104106	8	0.013328	60	0	60-180	60	99	GapExp	0	124	2	45	1	target	1	427	787	112437	13.328	13.095	13.549
ProbeTrack11	2	ProbeTrack	11.1	SCS215a	20100811.102255	20100811.104113	8	0.013328	60	10	60-180	60	122	GapExp	0	125	2	45	0	distractor	1	520	740	113177	13.328	13.307	13.345
ProbeTrack11	2	ProbeTrack	11.1	SCS215a	20100811.102255	20100811.104121	8	0.013328	60	10	60-180	60	111	GapExp	0	126	2	3	1	distractor	0	693	-1000	112177	13.328	13.095	13.563
ProbeTrack11	2	ProbeTrack	11.1	SCS215a	20100811.102255	20100811.104127	8	0.013328	60	10	60-180	60	131	GapExp	0	127	2	1	1	target	1	374	813	112990	13.328	13.017	13.628
ProbeTrack11	2	ProbeTrack	11.1	SCS215a	20100811.102255	20100811.104133	8	0.013328	60	0	60-180	60	123	GapExp	0	128	2	45	1	target	1	467	767	113757	13.328	12.947	13.712
ProbeTrack11	2	ProbeTrack	11.1	SCS215a	20100811.102255	20100811.104139	8	0.013328	60	10	60-180	60	99	GapExp	0	129	2	3	0	distractor	1	547	727	114484	13.328	13.309	13.347
ProbeTrack11	2	ProbeTrack	11.1	SCS215a	20100811.102255	20100811.104145	8	0.013328	60	10	60-180	60	78	GapExp	0	130	2	3	0	distractor	1	467	767	115251	13.328	13.308	13.345
ProbeTrack11	2	ProbeTrack	11.1	SCS215a	20100811.102255	20100811.104151	8	0.013328	60	0	60-180	60	131	GapExp	0	131	2	1	1	target	1	467	767	116018	13.328	13.305	13.344
ProbeTrack11	2	ProbeTrack	11.1	SCS215a	20100811.102255	20100811.104158	8	0.013328	60	0	60-180	60	154	GapExp	0	132	2	45	1	target	1	467	767	116785	13.328	13.237	13.413
ProbeTrack11	2	ProbeTrack	11.1	SCS215a	20100811.102255	20100811.104206	8	0.013328	60	10	60-180	60	77	GapExp	0	133	2	45	0	distractor	1	440	780	117565	13.328	13.086	13.572
ProbeTrack11	2	ProbeTrack	11.1	SCS215a	20100811.102255	20100811.104212	8	0.013328	60	10	60-180	60	128	GapExp	0	134	2	3	1	distractor	0	507	-1000	116565	13.328	13.309	13.347
ProbeTrack11	2	ProbeTrack	11.1	SCS215a	20100811.102255	20100811.104219	8	0.013328	60	10	60-180	60	123	GapExp	0	135	2	45	0	distractor	1	560	720	117285	13.328	13.125	13.533
ProbeTrack11	2	ProbeTrack	11.1	SCS215a	20100811.102255	20100811.104226	8	0.013328	60	10	60-180	60	143	GapExp	0	136	2	0	1	target	1	480	760	118045	13.328	13.308	13.346
ProbeTrack11	2	ProbeTrack	11.1	SCS215a	20100811.102255	20100811.104233	8	0.013328	60	0	60-180	60	104	GapExp	0	137	2	45	1	target	1	507	747	118792	13.328	13.092	13.586
ProbeTrack11	2	ProbeTrack	11.1	SCS215a	20100811.102255	20100811.104240	8	0.013328	60	0	60-180	60	88	GapExp	0	138	2	0	0	distractor	1	574	713	119505	13.392	13.304	26.654
ProbeTrack11	2	ProbeTrack	11.1	SCS215a	20100811.102255	20100811.104246	8	0.013328	60	10	60-180	60	93	GapExp	0	139	2	45	1	target	1	400	800	120305	13.328	12.954	13.646
ProbeTrack11	2	ProbeTrack	11.1	SCS215a	20100811.102255	20100811.104252	8	0.013328	60	10	60-180	60	141	GapExp	0	140	2	0	0	distractor	1	387	807	121112	13.328	13.303	13.352
ProbeTrack11	2	ProbeTrack	11.1	SCS215a	20100811.102255	20100811.104300	8	0.013328	60	0	60-180	60	161	GapExp	0	141	2	0	0	distractor	1	480	760	121872	13.328	12.857	13.795
ProbeTrack11	2	ProbeTrack	11.1	SCS215a	20100811.102255	20100811.104306	8	0.013328	60	0	60-180	60	171	GapExp	0	142	2	45	1	target	1	494	753	122625	13.328	12.842	13.825
ProbeTrack11	2	ProbeTrack	11.1	SCS215a	20100811.102255	20100811.104314	8	0.013328	60	0	60-180	60	149	GapExp	0	143	2	3	1	distractor	0	507	-1000	121625	13.328	12.905	13.750
ProbeTrack11	2	ProbeTrack	11.1	SCS215a	20100811.102255	20100811.104321	8	0.013328	60	10	60-180	60	99	GapExp	0	144	2	45	0	distractor	1	560	720	122345	13.328	12.894	13.770
ProbeTrack11	2	ProbeTrack	11.1	SCS215a	20100811.102255	20100811.104327	8	0.013328	60	0	60-180	60	69	GapExp	0	145	2	3	0	distractor	1	733	634	122979	13.328	12.948	13.693
ProbeTrack11	2	ProbeTrack	11.1	SCS215a	20100811.102255	20100811.104333	8	0.013328	60	10	60-180	60	88	GapExp	0	146	2	3	0	distractor	1	440	780	123759	13.328	13.108	13.560
ProbeTrack11	2	ProbeTrack	11.1	SCS215a	20100811.102255	20100811.104339	8	0.013328	60	0	60-180	60	65	GapExp	0	147	2	1	0	distractor	1	640	680	124439	13.328	12.997	13.659
ProbeTrack11	2	ProbeTrack	11.1	SCS215a	20100811.102255	20100811.104345	8	0.013328	60	10	60-180	60	103	GapExp	0	148	2	0	1	target	1	400	800	125239	13.509	12.835	27.037
ProbeTrack11	2	ProbeTrack	11.1	SCS215a	20100811.102255	20100811.104351	8	0.013328	60	10	60-180	60	95	GapExp	0	149	2	45	1	target	1	374	813	126052	13.328	13.026	13.700
ProbeTrack11	2	ProbeTrack	11.1	SCS215a	20100811.102255	20100811.104357	8	0.013328	60	10	60-180	60	127	GapExp	0	150	2	45	0	distractor	1	600	700	126752	13.415	12.908	40.147
ProbeTrack11	2	ProbeTrack	11.1	SCS215a	20100811.102255	20100811.104404	8	0.013328	60	10	60-180	60	120	GapExp	0	151	2	45	1	target	1	427	787	127539	13.328	13.275	13.373
ProbeTrack11	2	ProbeTrack	11.1	SCS215a	20100811.102255	20100811.104411	8	0.013328	60	10	60-180	60	75	GapExp	0	152	2	45	0	distractor	1	574	713	128252	13.328	12.916	13.750
ProbeTrack11	2	ProbeTrack	11.1	SCS215a	20100811.102255	20100811.104418	8	0.013328	60	10	60-180	60	145	GapExp	0	153	2	1	1	target	1	387	807	129059	13.328	13.197	13.455
ProbeTrack11	2	ProbeTrack	11.1	SCS215a	20100811.102255	20100811.104425	8	0.013328	60	0	60-180	60	78	GapExp	0	154	2	0	1	target	1	773	614	129673	13.328	13.098	13.562
ProbeTrack11	2	ProbeTrack	11.1	SCS215a	20100811.102255	20100811.104430	8	0.013328	60	10	60-180	60	94	GapExp	0	155	2	3	1	target	1	587	707	130380	13.328	12.827	13.820
ProbeTrack11	2	ProbeTrack	11.1	SCS215a	20100811.102255	20100811.104437	8	0.013328	60	10	60-180	60	91	GapExp	0	156	2	45	1	target	1	427	787	131167	13.328	12.876	13.775
ProbeTrack11	2	ProbeTrack	11.1	SCS215a	20100811.102255	20100811.104444	8	0.013328	60	0	60-180	60	115	GapExp	0	157	2	0	1	target	1	400	800	131967	13.328	13.098	13.554
ProbeTrack11	2	ProbeTrack	11.1	SCS215a	20100811.102255	20100811.104538	8	0.013328	60	0	60-180	60	62	GapExp	0	158	2	1	0	83	-3	547	-1000	130967	13.328	13.149	13.501
ProbeTrack11	2	ProbeTrack	11.1	SCS215a	20100811.102255	20100811.104543	8	0.013328	60	10	60-180	60	179	GapExp	0	159	2	3	1	target	1	360	820	131787	13.328	13.125	13.518
ProbeTrack11	2	ProbeTrack	11.1	SCS215a	20100811.102255	20100811.104551	8	0.013328	60	0	60-180	60	127	GapExp	0	160	2	1	1	target	1	454	773	132560	13.328	13.309	13.346
ProbeTrack11	2	ProbeTrack	11.1	SCS215a	20100811.102255	20100811.104557	8	0.013328	60	10	60-180	60	99	GapExp	0	161	2	45	1	target	1	440	780	133340	13.328	13.306	13.352
ProbeTrack11	2	ProbeTrack	11.1	SCS215a	20100811.102255	20100811.104604	8	0.013328	60	0	60-180	60	168	GapExp	0	162	2	45	0	distractor	1	414	793	134133	13.328	13.019	13.630
ProbeTrack11	2	ProbeTrack	11.1	SCS215a	20100811.102255	20100811.104612	8	0.013328	60	0	60-180	60	67	GapExp	0	163	2	45	1	target	1	414	793	134926	13.328	12.938	13.722
ProbeTrack11	2	ProbeTrack	11.1	SCS215a	20100811.102255	20100811.104619	8	0.013328	60	0	60-180	60	124	GapExp	0	164	2	45	0	distractor	1	534	733	135659	13.328	13.291	13.368
ProbeTrack11	2	ProbeTrack	11.1	SCS215a	20100811.102255	20100811.104626	8	0.013328	60	0	60-180	60	180	GapExp	0	165	2	3	1	target	1	374	813	136472	13.328	13.307	13.350
ProbeTrack11	2	ProbeTrack	11.1	SCS215a	20100811.102255	20100811.104633	8	0.013328	60	0	60-180	60	127	GapExp	0	166	2	3	0	distractor	1	494	753	137225	13.328	13.308	13.348
ProbeTrack11	2	ProbeTrack	11.1	SCS215a	20100811.102255	20100811.104640	8	0.013328	60	0	60-180	60	93	GapExp	0	167	2	45	0	distractor	1	520	740	137965	13.328	13.307	13.349
ProbeTrack11	2	ProbeTrack	11.1	SCS215a	20100811.102255	20100811.104646	8	0.013328	60	10	60-180	60	123	GapExp	0	168	2	3	1	target	1	374	813	138778	13.328	13.298	13.348
ProbeTrack11	2	ProbeTrack	11.1	SCS215a	20100811.102255	20100811.104653	8	0.013328	60	0	60-180	60	142	GapExp	0	169	2	3	0	distractor	1	574	713	139491	13.328	13.309	13.348
ProbeTrack11	2	ProbeTrack	11.1	SCS215a	20100811.102255	20100811.104708	8	0.013328	60	10	60-180	60	154	GapExp	0	170	2	45	0	distractor	1	480	760	140251	13.328	13.307	13.345
ProbeTrack11	2	ProbeTrack	11.1	SCS215a	20100811.102255	20100811.104721	8	0.013328	60	0	60-180	60	146	GapExp	0	171	2	3	0	distractor	1	480	760	141011	13.328	13.305	13.347
ProbeTrack11	2	ProbeTrack	11.1	SCS215a	20100811.102255	20100811.104727	8	0.013328	60	0	60-180	60	174	GapExp	0	172	2	45	1	distractor	0	693	-1000	140011	13.328	12.917	13.741
ProbeTrack11	2	ProbeTrack	11.1	SCS215a	20100811.102255	20100811.104735	8	0.013328	60	10	60-180	60	152	GapExp	0	173	2	0	1	target	1	360	820	140831	13.328	12.866	13.781
ProbeTrack11	2	ProbeTrack	11.1	SCS215a	20100811.102255	20100811.104742	8	0.013328	60	10	60-180	60	71	GapExp	0	174	2	0	1	target	1	534	733	141564	13.328	13.311	13.346
ProbeTrack11	2	ProbeTrack	11.1	SCS215a	20100811.102255	20100811.104749	8	0.013328	60	0	60-180	60	61	GapExp	0	175	2	3	0	distractor	1	560	720	142284	13.328	13.307	13.350
ProbeTrack11	2	ProbeTrack	11.1	SCS215a	20100811.102255	20100811.104755	8	0.013328	60	10	60-180	60	70	GapExp	0	176	2	45	1	target	1	467	767	143051	13.328	12.876	13.777
ProbeTrack11	2	ProbeTrack	11.1	SCS215a	20100811.102255	20100811.104801	8	0.013328	60	0	60-180	60	177	GapExp	0	177	2	0	1	target	1	520	740	143791	13.328	12.943	13.717
ProbeTrack11	2	ProbeTrack	11.1	SCS215a	20100811.102255	20100811.104808	8	0.013328	60	0	60-180	60	178	GapExp	0	178	2	45	1	target	1	520	740	144531	13.328	12.887	13.770
ProbeTrack11	2	ProbeTrack	11.1	SCS215a	20100811.102255	20100811.104816	8	0.013328	60	10	60-180	60	64	GapExp	0	179	2	45	1	distractor	0	614	-1000	143531	13.328	13.302	13.353
ProbeTrack11	2	ProbeTrack	11.1	SCS215a	20100811.102255	20100811.104822	8	0.013328	60	0	60-180	60	130	GapExp	0	180	2	45	0	distractor	1	534	733	144264	13.328	13.099	13.568
ProbeTrack11	2	ProbeTrack	11.1	SCS215a	20100811.102255	20100811.104829	8	0.013328	60	10	60-180	60	69	GapExp	0	181	2	1	0	distractor	1	614	693	144957	13.328	13.309	13.346
ProbeTrack11	2	ProbeTrack	11.1	SCS215a	20100811.102255	20100811.104835	8	0.013328	60	10	60-180	60	112	GapExp	0	182	2	1	0	distractor	1	547	727	145684	13.328	13.087	13.563
ProbeTrack11	2	ProbeTrack	11.1	SCS215a	20100811.102255	20100811.104841	8	0.013328	60	10	60-180	60	103	GapExp	0	183	2	1	0	distractor	1	520	740	146424	13.328	13.112	13.541
ProbeTrack11	2	ProbeTrack	11.1	SCS215a	20100811.102255	20100811.104847	8	0.013328	60	10	60-180	60	75	GapExp	0	184	2	3	1	target	1	627	687	147111	13.328	13.311	13.348
ProbeTrack11	2	ProbeTrack	11.1	SCS215a	20100811.102255	20100811.104853	8	0.013328	60	10	60-180	60	177	GapExp	0	185	2	45	1	target	1	574	713	147824	13.328	12.964	13.695
ProbeTrack11	2	ProbeTrack	11.1	SCS215a	20100811.102255	20100811.104901	8	0.013328	60	0	60-180	60	87	GapExp	0	186	2	45	0	distractor	1	507	747	148571	13.328	12.850	13.798
ProbeTrack11	2	ProbeTrack	11.1	SCS215a	20100811.102255	20100811.104907	8	0.013328	60	10	60-180	60	155	GapExp	0	187	2	0	1	target	1	467	767	149338	13.328	13.229	13.433
ProbeTrack11	2	ProbeTrack	11.1	SCS215a	20100811.102255	20100811.104913	8	0.013328	60	10	60-180	60	88	GapExp	0	188	2	3	0	distractor	1	507	747	150085	13.328	13.152	13.507
ProbeTrack11	2	ProbeTrack	11.1	SCS215a	20100811.102255	20100811.104919	8	0.013328	60	10	60-180	60	154	GapExp	0	189	2	3	0	distractor	1	454	773	150858	13.328	12.988	13.672
ProbeTrack11	2	ProbeTrack	11.1	SCS215a	20100811.102255	20100811.104926	8	0.013328	60	10	60-180	60	139	GapExp	0	190	2	0	0	distractor	1	480	760	151618	13.328	13.305	13.350
ProbeTrack11	2	ProbeTrack	11.1	SCS215a	20100811.102255	20100811.104932	8	0.013328	60	0	60-180	60	149	GapExp	0	191	2	45	1	target	1	400	800	152418	13.328	13.094	13.560
ProbeTrack11	2	ProbeTrack	11.1	SCS215a	20100811.102255	20100811.104940	8	0.013328	60	0	60-180	60	170	GapExp	0	192	2	0	0	distractor	1	507	747	153165	13.328	12.987	13.672
ProbeTrack11	2	ProbeTrack	11.1	SCS215a	20100811.102255	20100811.104946	8	0.013328	60	0	60-180	60	108	GapExp	0	193	2	1	0	distractor	1	520	740	153905	13.328	13.307	13.346
ProbeTrack11	2	ProbeTrack	11.1	SCS215a	20100811.102255	20100811.105007	8	0.013328	60	10	60-180	60	93	GapExp	0	194	2	1	0	target	0	280	-1000	152905	13.328	13.306	13.350
ProbeTrack11	2	ProbeTrack	11.1	SCS215a	20100811.102255	20100811.105013	8	0.013328	60	10	60-180	60	166	GapExp	0	195	2	0	0	distractor	1	827	587	153492	13.328	13.115	13.552
ProbeTrack11	2	ProbeTrack	11.1	SCS215a	20100811.102255	20100811.105020	8	0.013328	60	0	60-180	60	92	GapExp	0	196	2	0	1	target	1	494	753	154245	13.328	13.107	13.543
ProbeTrack11	2	ProbeTrack	11.1	SCS215a	20100811.102255	20100811.105026	8	0.013328	60	0	60-180	60	177	GapExp	0	197	2	0	0	distractor	1	507	747	154992	13.328	12.970	13.677
ProbeTrack11	2	ProbeTrack	11.1	SCS215a	20100811.102255	20100811.105033	8	0.013328	60	10	60-180	60	66	GapExp	0	198	2	0	0	distractor	1	507	747	155739	13.328	13.101	13.546
ProbeTrack11	2	ProbeTrack	11.1	SCS215a	20100811.102255	20100811.105039	8	0.013328	60	10	60-180	60	86	GapExp	0	199	2	3	0	distractor	1	507	747	156486	13.328	13.308	13.347
ProbeTrack11	2	ProbeTrack	11.1	SCS215a	20100811.102255	20100811.105045	8	0.013328	60	10	60-180	60	101	GapExp	0	200	2	3	0	distractor	1	520	740	157226	13.328	13.303	13.344
ProbeTrack11	2	ProbeTrack	11.1	SCS215a	20100811.102255	20100811.105051	8	0.013328	60	0	60-180	60	63	GapExp	0	201	2	45	0	distractor	1	547	727	157953	13.328	12.872	13.791
ProbeTrack11	2	ProbeTrack	11.1	SCS215a	20100811.102255	20100811.105057	8	0.013328	60	0	60-180	60	140	GapExp	0	202	2	1	0	distractor	1	600	700	158653	13.328	13.288	13.362
ProbeTrack11	2	ProbeTrack	11.1	SCS215a	20100811.102255	20100811.105104	8	0.013328	60	0	60-180	60	128	GapExp	0	203	2	3	1	target	1	414	793	159446	13.328	13.274	13.373
ProbeTrack11	2	ProbeTrack	11.1	SCS215a	20100811.102255	20100811.105110	8	0.013328	60	10	60-180	60	129	GapExp	0	204	2	1	1	target	1	494	753	160199	13.328	13.095	13.563
ProbeTrack11	2	ProbeTrack	11.1	SCS215a	20100811.102255	20100811.105117	8	0.013328	60	10	60-180	60	69	GapExp	0	205	2	3	1	target	1	534	733	160932	13.328	13.308	13.348
ProbeTrack11	2	ProbeTrack	11.1	SCS215a	20100811.102255	20100811.105122	8	0.013328	60	10	60-180	60	158	GapExp	0	206	2	0	1	target	1	320	840	161772	13.328	12.880	13.800
ProbeTrack11	2	ProbeTrack	11.1	SCS215a	20100811.102255	20100811.105129	8	0.013328	60	10	60-180	60	143	GapExp	0	207	2	45	0	target	0	494	-1000	160772	13.328	13.097	13.551
ProbeTrack11	2	ProbeTrack	11.1	SCS215a	20100811.102255	20100811.105137	8	0.013328	60	10	60-180	60	166	GapExp	0	208	2	45	1	target	1	480	760	161532	13.328	13.103	13.553
ProbeTrack11	2	ProbeTrack	11.1	SCS215a	20100811.102255	20100811.105144	8	0.013328	60	0	60-180	60	78	GapExp	0	209	2	3	0	distractor	1	920	540	162072	13.328	13.041	13.616
ProbeTrack11	2	ProbeTrack	11.1	SCS215a	20100811.102255	20100811.105151	8	0.013328	60	10	60-180	60	68	GapExp	0	210	2	0	0	distractor	1	640	680	162752	13.328	13.308	13.345
ProbeTrack11	2	ProbeTrack	11.1	SCS215a	20100811.102255	20100811.105156	8	0.013328	60	10	60-180	60	126	GapExp	0	211	2	45	0	distractor	1	534	733	163485	13.328	13.098	13.552
ProbeTrack11	2	ProbeTrack	11.1	SCS215a	20100811.102255	20100811.105211	8	0.013328	60	10	60-180	60	110	GapExp	0	212	2	1	1	target	1	427	787	164272	13.328	13.112	13.538
ProbeTrack11	2	ProbeTrack	11.1	SCS215a	20100811.102255	20100811.105218	8	0.013328	60	10	60-180	60	130	GapExp	0	213	2	45	0	distractor	1	480	760	165032	13.328	13.263	13.390
ProbeTrack11	2	ProbeTrack	11.1	SCS215a	20100811.102255	20100811.105230	8	0.013328	60	0	60-180	60	91	GapExp	0	214	2	3	0	distractor	1	574	713	165745	13.328	13.074	13.569
ProbeTrack11	2	ProbeTrack	11.1	SCS215a	20100811.102255	20100811.105237	8	0.013328	60	10	60-180	60	98	GapExp	0	215	2	1	1	target	1	494	753	166498	13.328	13.017	13.627
ProbeTrack11	2	ProbeTrack	11.1	SCS215a	20100811.102255	20100811.105243	8	0.013328	60	0	60-180	60	132	GapExp	0	216	2	3	0	distractor	1	547	727	167225	13.328	13.108	13.552
ProbeTrack11	2	ProbeTrack	11.1	SCS215a	20100811.102255	20100811.105307	8	0.013328	60	10	60-180	60	151	GapExp	0	217	2	45	1	target	1	494	753	167978	13.328	13.109	13.553
ProbeTrack11	2	ProbeTrack	11.1	SCS215a	20100811.102255	20100811.105315	8	0.013328	60	0	60-180	60	167	GapExp	0	218	2	3	0	distractor	1	534	733	168711	13.328	13.093	13.565
ProbeTrack11	2	ProbeTrack	11.1	SCS215a	20100811.102255	20100811.105322	8	0.013328	60	10	60-180	60	84	GapExp	0	219	2	0	0	distractor	1	613	694	169405	13.328	13.085	13.560
ProbeTrack11	2	ProbeTrack	11.1	SCS215a	20100811.102255	20100811.105327	8	0.013328	60	10	60-180	60	62	GapExp	0	220	2	0	0	distractor	1	480	760	170165	13.328	13.003	13.652
ProbeTrack11	2	ProbeTrack	11.1	SCS215a	20100811.102255	20100811.105333	8	0.013328	60	0	60-180	60	178	GapExp	0	221	2	3	1	target	1	534	733	170898	13.328	13.087	13.571
ProbeTrack11	2	ProbeTrack	11.1	SCS215a	20100811.102255	20100811.105341	8	0.013328	60	10	60-180	60	99	GapExp	0	222	2	45	1	target	1	440	780	171678	13.328	13.108	13.554
ProbeTrack11	2	ProbeTrack	11.1	SCS215a	20100811.102255	20100811.105348	8	0.013328	60	10	60-180	60	117	GapExp	0	223	2	3	1	target	1	294	853	172531	13.328	13.178	13.478
ProbeTrack11	2	ProbeTrack	11.1	SCS215a	20100811.102255	20100811.105354	8	0.013328	60	0	60-180	60	109	GapExp	0	224	2	0	1	target	1	427	787	173318	13.328	13.308	13.348
ProbeTrack11	2	ProbeTrack	11.1	SCS215a	20100811.102255	20100811.105400	8	0.013328	60	0	60-180	60	163	GapExp	0	225	2	0	0	distractor	1	494	753	174071	13.520	13.016	66.616
ProbeTrack11	2	ProbeTrack	11.1	SCS215a	20100811.102255	20100811.105407	8	0.013328	60	0	60-180	60	87	GapExp	0	226	2	0	1	target	1	454	773	174844	13.328	13.012	13.633
ProbeTrack11	2	ProbeTrack	11.1	SCS215a	20100811.102255	20100811.105420	8	0.013328	60	0	60-180	60	91	GapExp	0	227	2	45	1	target	1	374	813	175657	13.328	13.304	13.346
ProbeTrack11	2	ProbeTrack	11.1	SCS215a	20100811.102255	20100811.105426	8	0.013328	60	0	60-180	60	140	GapExp	0	228	2	0	0	distractor	1	480	760	176417	13.328	12.879	13.761
ProbeTrack11	2	ProbeTrack	11.1	SCS215a	20100811.102255	20100811.105433	8	0.013328	60	10	60-180	60	137	GapExp	0	229	2	45	0	distractor	1	627	687	177104	13.328	13.306	13.345
ProbeTrack11	2	ProbeTrack	11.1	SCS215a	20100811.102255	20100811.105443	8	0.013328	60	0	60-180	60	71	GapExp	0	230	2	45	0	target	0	587	-1000	176104	13.328	13.291	13.359
ProbeTrack11	2	ProbeTrack	11.1	SCS215a	20100811.102255	20100811.105449	8	0.013328	60	0	60-180	60	138	GapExp	0	231	2	45	1	target	1	507	747	176851	13.328	13.304	13.349
ProbeTrack11	2	ProbeTrack	11.1	SCS215a	20100811.102255	20100811.105457	8	0.013328	60	0	60-180	60	93	GapExp	0	232	2	45	0	distractor	1	454	773	177624	13.328	13.309	13.347
ProbeTrack11	2	ProbeTrack	11.1	SCS215a	20100811.102255	20100811.105503	8	0.013328	60	10	60-180	60	112	GapExp	0	233	2	45	0	distractor	1	547	727	178351	13.328	13.228	13.433
ProbeTrack11	2	ProbeTrack	11.1	SCS215a	20100811.102255	20100811.105510	8	0.013328	60	0	60-180	60	68	GapExp	0	234	2	0	0	distractor	1	547	727	179078	13.328	13.307	13.348
ProbeTrack11	2	ProbeTrack	11.1	SCS215a	20100811.102255	20100811.105515	8	0.013328	60	0	60-180	60	143	GapExp	0	235	2	45	0	distractor	1	560	720	179798	13.328	13.137	13.521
ProbeTrack11	2	ProbeTrack	11.1	SCS215a	20100811.102255	20100811.105523	8	0.013328	60	0	60-180	60	108	GapExp	0	236	2	1	1	target	1	507	747	180545	13.328	13.073	13.614
ProbeTrack11	2	ProbeTrack	11.1	SCS215a	20100811.102255	20100811.105529	8	0.013328	60	0	60-180	60	80	GapExp	0	237	2	3	1	target	1	427	787	181332	13.328	13.097	13.548
ProbeTrack11	2	ProbeTrack	11.1	SCS215a	20100811.102255	20100811.105534	8	0.013328	60	0	60-180	60	128	GapExp	0	238	2	1	0	distractor	1	574	713	182045	13.328	13.084	13.575
ProbeTrack11	2	ProbeTrack	11.1	SCS215a	20100811.102255	20100811.105541	8	0.013328	60	0	60-180	60	84	GapExp	0	239	2	1	1	target	1	547	727	182772	13.328	13.308	13.345
ProbeTrack11	2	ProbeTrack	11.1	SCS215a	20100811.102255	20100811.105546	8	0.013328	60	10	60-180	60	171	GapExp	0	240	2	3	1	target	1	454	773	183545	13.328	13.308	13.346
ProbeTrack11	2	ProbeTrack	11.1	SCS215a	20100811.102255	20100811.105553	8	0.013328	60	10	60-180	60	93	GapExp	0	241	2	1	0	distractor	1	587	707	184252	13.328	13.306	13.348
ProbeTrack11	2	ProbeTrack	11.1	SCS215a	20100811.102255	20100811.105600	8	0.013328	60	10	60-180	60	141	GapExp	0	242	2	45	0	distractor	1	467	767	185019	13.328	12.998	13.650
ProbeTrack11	2	ProbeTrack	11.1	SCS215a	20100811.102255	20100811.105607	8	0.013328	60	0	60-180	60	119	GapExp	0	243	2	1	0	distractor	1	813	594	185613	13.328	13.308	13.344
ProbeTrack11	2	ProbeTrack	11.1	SCS215a	20100811.102255	20100811.105614	8	0.013328	60	0	60-180	60	112	GapExp	0	244	2	1	1	target	1	547	727	186340	13.328	13.309	13.342
ProbeTrack11	2	ProbeTrack	11.1	SCS215a	20100811.102255	20100811.105620	8	0.013328	60	0	60-180	60	176	GapExp	0	245	2	0	1	target	1	587	707	187047	13.328	13.306	13.346
ProbeTrack11	2	ProbeTrack	11.1	SCS215a	20100811.102255	20100811.105627	8	0.013328	60	0	60-180	60	105	GapExp	0	246	2	3	0	distractor	1	507	747	187794	13.328	12.982	13.679
ProbeTrack11	2	ProbeTrack	11.1	SCS215a	20100811.102255	20100811.105633	8	0.013328	60	0	60-180	60	83	GapExp	0	247	2	3	1	target	1	360	820	188614	13.328	13.310	13.347
ProbeTrack11	2	ProbeTrack	11.1	SCS215a	20100811.102255	20100811.105639	8	0.013328	60	0	60-180	60	112	GapExp	0	248	2	3	0	distractor	1	427	787	189401	13.328	13.108	13.562
ProbeTrack11	2	ProbeTrack	11.1	SCS215a	20100811.102255	20100811.105645	8	0.013328	60	0	60-180	60	170	GapExp	0	249	2	1	1	target	1	347	827	190228	13.328	13.102	13.564
ProbeTrack11	2	ProbeTrack	11.1	SCS215a	20100811.102255	20100811.105652	8	0.013328	60	0	60-180	60	121	GapExp	0	250	2	0	1	target	1	440	780	191008	13.328	13.305	13.347
ProbeTrack11	2	ProbeTrack	11.1	SCS215a	20100811.102255	20100811.105658	8	0.013328	60	0	60-180	60	90	GapExp	0	251	2	3	0	distractor	1	494	753	191761	13.328	13.090	13.556
ProbeTrack11	2	ProbeTrack	11.1	SCS215a	20100811.102255	20100811.105706	8	0.013328	60	10	60-180	60	96	GapExp	0	252	2	45	1	target	1	467	767	192528	13.328	13.095	13.555
ProbeTrack11	2	ProbeTrack	11.1	SCS215a	20100811.102255	20100811.105713	8	0.013328	60	0	60-180	60	113	GapExp	0	253	2	1	0	distractor	1	494	753	193281	13.386	12.888	27.090
ProbeTrack11	2	ProbeTrack	11.1	SCS215a	20100811.102255	20100811.105719	8	0.013328	60	0	60-180	60	173	GapExp	0	254	2	3	1	target	1	454	773	194054	13.328	12.937	13.738
ProbeTrack11	2	ProbeTrack	11.1	SCS215a	20100811.102255	20100811.105726	8	0.013328	60	10	60-180	60	144	GapExp	0	255	2	3	1	target	1	537	732	194786	13.328	12.982	13.684
ProbeTrack11	2	ProbeTrack	11.1	SCS215a	20100811.102255	20100811.105732	8	0.013328	60	10	60-180	60	128	GapExp	0	256	2	0	1	target	1	414	793	195579	13.328	13.019	13.642
ProbeTrack11	2	ProbeTrack	11.1	SCS215a	20100811.102255	20100811.105738	8	0.013328	60	10	60-180	60	85	GapExp	0	257	2	45	0	distractor	1	467	767	196346	13.328	12.875	13.698
ProbeTrack11	2	ProbeTrack	11.1	SCS215a	20100811.102255	20100811.105745	8	0.013328	60	10	60-180	60	125	GapExp	0	258	2	1	1	target	1	467	767	197113	13.328	13.306	13.351
ProbeTrack11	2	ProbeTrack	11.1	SCS215a	20100811.102255	20100811.105751	8	0.013328	60	10	60-180	60	114	GapExp	0	259	2	1	0	distractor	1	454	773	197886	13.328	12.948	13.712
ProbeTrack11	2	ProbeTrack	11.1	SCS215a	20100811.102255	20100811.105757	8	0.013328	60	0	60-180	60	107	GapExp	0	260	2	0	0	distractor	1	587	707	198593	13.854	12.846	40.343
ProbeTrack11	2	ProbeTrack	11.1	SCS215a	20100811.102255	20100811.105804	8	0.013328	60	10	60-180	60	70	GapExp	0	261	2	0	0	distractor	1	520	740	199333	13.328	13.301	13.347
ProbeTrack11	2	ProbeTrack	11.1	SCS215a	20100811.102255	20100811.105810	8	0.013328	60	0	60-180	60	119	GapExp	0	262	2	3	1	target	1	587	707	200040	13.328	12.869	13.779
ProbeTrack11	2	ProbeTrack	11.1	SCS215a	20100811.102255	20100811.105816	8	0.013328	60	0	60-180	60	121	GapExp	0	263	2	1	0	distractor	1	574	713	200753	13.328	12.836	13.819
ProbeTrack11	2	ProbeTrack	11.1	SCS215a	20100811.102255	20100811.105822	8	0.013328	60	0	60-180	60	82	GapExp	0	264	2	3	0	distractor	1	467	767	201520	13.328	12.874	13.756
ProbeTrack11	2	ProbeTrack	11.1	SCS215a	20100811.102255	20100811.105829	8	0.013328	60	0	60-180	60	119	GapExp	0	265	2	3	1	target	1	454	773	202293	13.385	12.954	27.055
ProbeTrack11	2	ProbeTrack	11.1	SCS215a	20100811.102255	20100811.105835	8	0.013328	60	0	60-180	60	96	GapExp	0	266	2	0	0	distractor	1	427	787	203080	13.328	13.099	13.562
ProbeTrack11	2	ProbeTrack	11.1	SCS215a	20100811.102255	20100811.105843	8	0.013328	60	0	60-180	60	157	GapExp	0	267	2	0	1	target	1	427	787	203867	13.328	12.840	13.812
ProbeTrack11	2	ProbeTrack	11.1	SCS215a	20100811.102255	20100811.105850	8	0.013328	60	10	60-180	60	153	GapExp	0	268	2	0	0	distractor	1	414	793	204660	13.328	12.986	13.690
ProbeTrack11	2	ProbeTrack	11.1	SCS215a	20100811.102255	20100811.105857	8	0.013328	60	0	60-180	60	180	GapExp	0	269	2	3	1	target	1	547	727	205387	13.328	13.109	13.536
ProbeTrack11	2	ProbeTrack	11.1	SCS215a	20100811.102255	20100811.105904	8	0.013328	60	10	60-180	60	68	GapExp	0	270	2	1	0	distractor	1	494	753	206140	13.673	12.845	26.902
ProbeTrack11	2	ProbeTrack	11.1	SCS215a	20100811.102255	20100811.105910	8	0.013328	60	0	60-180	60	117	GapExp	0	271	2	0	0	distractor	1	454	773	206913	13.329	13.308	13.553
ProbeTrack11	2	ProbeTrack	11.1	SCS215a	20100811.102255	20100811.105917	8	0.013328	60	0	60-180	60	91	GapExp	0	272	2	0	0	distractor	1	507	747	207660	13.328	12.854	13.789
ProbeTrack11	2	ProbeTrack	11.1	SCS215a	20100811.102255	20100811.105922	8	0.013328	60	10	60-180	60	131	GapExp	0	273	2	0	1	target	1	360	820	208480	13.494	12.868	40.441
ProbeTrack11	2	ProbeTrack	11.1	SCS215a	20100811.102255	20100811.105929	8	0.013328	60	0	60-180	60	118	GapExp	0	274	2	0	0	distractor	1	520	740	209220	13.328	12.847	13.819
ProbeTrack11	2	ProbeTrack	11.1	SCS215a	20100811.102255	20100811.105935	8	0.013328	60	0	60-180	60	130	GapExp	0	275	2	45	0	distractor	1	494	753	209973	13.328	12.974	13.703
ProbeTrack11	2	ProbeTrack	11.1	SCS215a	20100811.102255	20100811.105942	8	0.013328	60	0	60-180	60	128	GapExp	0	276	2	1	0	distractor	1	587	707	210680	13.328	12.997	13.644
ProbeTrack11	2	ProbeTrack	11.1	SCS215a	20100811.102255	20100811.105948	8	0.013328	60	10	60-180	60	90	GapExp	0	277	2	0	1	distractor	0	733	-1000	209680	13.328	12.889	13.770
ProbeTrack11	2	ProbeTrack	11.1	SCS215a	20100811.102255	20100811.105954	8	0.013328	60	0	60-180	60	133	GapExp	0	278	2	45	0	distractor	1	574	713	210393	13.328	12.870	13.785
ProbeTrack11	2	ProbeTrack	11.1	SCS215a	20100811.102255	20100811.110002	8	0.013328	60	0	60-180	60	78	GapExp	0	279	2	45	0	distractor	1	720	640	211033	13.328	12.879	13.772
ProbeTrack11	2	ProbeTrack	11.1	SCS215a	20100811.102255	20100811.110009	8	0.013328	60	0	60-180	60	118	GapExp	0	280	2	45	1	target	1	520	740	211773	13.328	13.021	13.637
ProbeTrack11	2	ProbeTrack	11.1	SCS215a	20100811.102255	20100811.110016	8	0.013328	60	0	60-180	60	160	GapExp	0	281	2	45	0	target	0	627	-1000	210773	13.328	12.905	13.758
ProbeTrack11	2	ProbeTrack	11.1	SCS215a	20100811.102255	20100811.110023	8	0.013328	60	0	60-180	60	85	GapExp	0	282	2	1	1	target	1	574	713	211486	13.328	12.997	13.666
ProbeTrack11	2	ProbeTrack	11.1	SCS215a	20100811.102255	20100811.110029	8	0.013328	60	10	60-180	60	106	GapExp	0	283	2	1	1	target	1	454	773	212259	13.328	13.308	13.347
ProbeTrack11	2	ProbeTrack	11.1	SCS215a	20100811.102255	20100811.110038	8	0.013328	60	10	60-180	60	129	GapExp	0	284	2	3	0	target	0	427	-1000	211259	13.328	13.026	13.629
ProbeTrack11	2	ProbeTrack	11.1	SCS215a	20100811.102255	20100811.110044	8	0.013328	60	10	60-180	60	149	GapExp	0	285	2	0	1	target	1	467	767	212026	13.328	13.310	13.348
ProbeTrack11	2	ProbeTrack	11.1	SCS215a	20100811.102255	20100811.110051	8	0.013328	60	10	60-180	60	141	GapExp	0	286	2	0	1	target	1	880	560	212586	13.328	13.000	13.627
ProbeTrack11	2	ProbeTrack	11.1	SCS215a	20100811.102255	20100811.110059	8	0.013328	60	10	60-180	60	129	GapExp	0	287	2	3	1	target	1	494	753	213339	13.327	12.838	13.831
ProbeTrack11	2	ProbeTrack	11.1	SCS215a	20100811.102255	20100811.110105	8	0.013328	60	10	60-180	60	93	GapExp	0	288	2	45	0	target	0	334	-1000	212339	13.328	12.915	13.754
ProbeTrack11	2	ProbeTrack	11.1	SCS215a	20100811.102255	20100811.110111	8	0.013328	60	0	60-180	60	107	GapExp	0	289	2	3	1	target	1	614	693	213032	13.328	13.103	13.554
ProbeTrack11	2	ProbeTrack	11.1	SCS215a	20100811.102255	20100811.110117	8	0.013328	60	10	60-180	60	127	GapExp	0	290	2	0	1	target	1	693	654	213686	13.326	12.938	13.351
ProbeTrack11	2	ProbeTrack	11.1	SCS215a	20100811.102255	20100811.110124	8	0.013328	60	0	60-180	60	130	GapExp	0	291	2	1	1	target	1	400	800	214486	13.328	12.888	13.778
ProbeTrack11	2	ProbeTrack	11.1	SCS215a	20100811.102255	20100811.110143	8	0.013328	60	0	60-180	60	101	GapExp	0	292	2	1	0	distractor	1	627	687	215173	13.328	12.884	13.775
ProbeTrack11	2	ProbeTrack	11.1	SCS215a	20100811.102255	20100811.110149	8	0.013328	60	10	60-180	60	158	GapExp	0	293	2	0	1	target	1	507	747	215920	13.328	12.942	13.731
ProbeTrack11	2	ProbeTrack	11.1	SCS215a	20100811.102255	20100811.110156	8	0.013328	60	10	60-180	60	162	GapExp	0	294	2	1	0	distractor	1	574	713	216633	13.328	13.303	13.352
ProbeTrack11	2	ProbeTrack	11.1	SCS215a	20100811.102255	20100811.110203	8	0.013328	60	10	60-180	60	114	GapExp	0	295	2	45	0	target	0	560	-1000	215633	13.326	12.925	13.346
ProbeTrack11	2	ProbeTrack	11.1	SCS215a	20100811.102255	20100811.110209	8	0.013328	60	10	60-180	60	86	GapExp	0	296	2	45	0	distractor	1	507	747	216380	13.328	13.067	13.595
ProbeTrack11	2	ProbeTrack	11.1	SCS215a	20100811.102255	20100811.110216	8	0.013328	60	10	60-180	60	177	GapExp	0	297	2	0	0	distractor	1	494	753	217133	13.328	13.021	13.627
ProbeTrack11	2	ProbeTrack	11.1	SCS215a	20100811.102255	20100811.110223	8	0.013328	60	10	60-180	60	172	GapExp	0	298	2	45	1	target	1	494	753	217886	13.328	13.308	13.349
ProbeTrack11	2	ProbeTrack	11.1	SCS215a	20100811.102255	20100811.110231	8	0.013328	60	0	60-180	60	151	GapExp	0	299	2	0	1	target	1	680	660	218546	13.328	13.308	13.344
ProbeTrack11	2	ProbeTrack	11.1	SCS215a	20100811.102255	20100811.110237	8	0.013328	60	0	60-180	60	69	GapExp	0	300	2	0	0	distractor	1	654	673	219219	13.328	13.022	13.630
ProbeTrack11	2	ProbeTrack	11.1	SCS215a	20100811.102255	20100811.110243	8	0.013328	60	0	60-180	60	129	GapExp	0	301	2	0	0	distractor	1	520	740	219959	13.328	13.114	13.545
ProbeTrack11	2	ProbeTrack	11.1	SCS215a	20100811.102255	20100811.110249	8	0.013328	60	10	60-180	60	78	GapExp	0	302	2	3	0	distractor	1	707	647	220606	13.328	12.991	13.666
ProbeTrack11	2	ProbeTrack	11.1	SCS215a	20100811.102255	20100811.110255	8	0.013328	60	0	60-180	60	133	GapExp	0	303	2	45	1	target	1	587	707	221313	13.328	12.951	13.696
ProbeTrack11	2	ProbeTrack	11.1	SCS215a	20100811.102255	20100811.110302	8	0.013328	60	0	60-180	60	171	GapExp	0	304	2	45	1	target	1	587	707	222020	13.328	13.108	13.538
ProbeTrack11	2	ProbeTrack	11.1	SCS215a	20100811.102255	20100811.110310	8	0.013328	60	10	60-180	60	158	GapExp	0	305	2	45	1	target	1	627	687	222707	13.328	12.955	13.708
ProbeTrack11	2	ProbeTrack	11.1	SCS215a	20100811.102255	20100811.110317	8	0.013328	60	0	60-180	60	168	GapExp	0	306	2	0	0	distractor	1	547	727	223434	13.328	13.031	13.631
ProbeTrack11	2	ProbeTrack	11.1	SCS215a	20100811.102255	20100811.110324	8	0.013328	60	0	60-180	60	64	GapExp	0	307	2	0	1	target	1	574	713	224147	13.328	12.947	13.713
ProbeTrack11	2	ProbeTrack	11.1	SCS215a	20100811.102255	20100811.110330	8	0.013328	60	0	60-180	60	89	GapExp	0	308	2	45	1	target	1	427	787	224934	13.328	12.871	13.789
ProbeTrack11	2	ProbeTrack	11.1	SCS215a	20100811.102255	20100811.110336	8	0.013328	60	0	60-180	60	91	GapExp	0	309	2	1	0	distractor	1	614	693	225627	13.328	12.908	13.754
ProbeTrack11	2	ProbeTrack	11.1	SCS215a	20100811.102255	20100811.110342	8	0.013328	60	10	60-180	60	103	GapExp	0	310	2	1	0	distractor	1	494	753	226380	13.328	12.961	13.681
ProbeTrack11	2	ProbeTrack	11.1	SCS215a	20100811.102255	20100811.110348	8	0.013328	60	0	60-180	60	68	GapExp	0	311	2	1	0	distractor	1	640	680	227060	13.328	13.308	13.347
ProbeTrack11	2	ProbeTrack	11.1	SCS215a	20100811.102255	20100811.110354	8	0.013328	60	10	60-180	60	156	GapExp	0	312	2	0	0	distractor	1	574	713	227773	13.328	13.308	13.346
ProbeTrack11	2	ProbeTrack	11.1	SCS215a	20100811.102255	20100811.110401	8	0.013328	60	10	60-180	60	110	GapExp	0	313	2	3	0	distractor	1	494	753	228526	13.328	13.309	13.346
ProbeTrack11	2	ProbeTrack	11.1	SCS215a	20100811.102255	20100811.110408	8	0.013328	60	10	60-180	60	95	GapExp	0	314	2	0	0	distractor	1	547	727	229253	13.328	13.130	13.538
ProbeTrack11	2	ProbeTrack	11.1	SCS215a	20100811.102255	20100811.110416	8	0.013328	60	0	60-180	60	101	GapExp	0	315	2	0	1	target	1	480	760	230013	13.328	13.309	13.346
ProbeTrack11	2	ProbeTrack	11.1	SCS215a	20100811.102255	20100811.110422	8	0.013328	60	0	60-180	60	105	GapExp	0	316	2	1	1	target	1	480	760	230773	13.328	13.295	13.345
ProbeTrack11	2	ProbeTrack	11.1	SCS215a	20100811.102255	20100811.110428	8	0.013328	60	10	60-180	60	167	GapExp	0	317	2	3	0	distractor	1	494	753	231526	13.328	13.308	13.348
ProbeTrack11	2	ProbeTrack	11.1	SCS215a	20100811.102255	20100811.110506	8	0.013328	60	10	60-180	60	175	GapExp	0	318	2	1	1	target	1	440	780	232306	13.328	12.893	13.765
ProbeTrack11	2	ProbeTrack	11.1	SCS215a	20100811.102255	20100811.110513	8	0.013328	60	10	60-180	60	150	GapExp	0	319	2	0	0	distractor	1	547	727	233033	13.328	13.126	13.524
ProbeTrack11	2	ProbeTrack	11.1	SCS215a	20100811.102255	20100811.110520	8	0.013328	60	0	60-180	60	173	GapExp	0	320	2	0	1	target	1	360	820	233853	13.328	13.056	13.612
ProbeTrack11	2	ProbeTrack	11.1	SCS215a	20100811.102255	20100811.110527	8	0.013328	60	10	60-180	60	80	GapExp	0	321	2	3	0	distractor	1	507	747	234600	13.328	12.907	13.741
ProbeTrack11	2	ProbeTrack	11.1	SCS215a	20100811.102255	20100811.110550	8	0.013328	60	0	60-180	60	146	GapExp	0	322	2	45	1	target	1	400	800	235400	13.328	12.921	13.747
ProbeTrack11	2	ProbeTrack	11.1	SCS215a	20100811.102255	20100811.110558	8	0.013328	60	0	60-180	60	128	GapExp	0	323	2	1	0	distractor	1	534	733	236133	13.328	13.086	13.571
ProbeTrack11	2	ProbeTrack	11.1	SCS215a	20100811.102255	20100811.110604	8	0.013328	60	10	60-180	60	103	GapExp	0	324	2	1	0	distractor	1	414	793	236926	13.328	13.098	13.551
ProbeTrack11	2	ProbeTrack	11.1	SCS215a	20100811.102255	20100811.110611	8	0.013328	60	10	60-180	60	95	GapExp	0	325	2	1	0	distractor	1	454	773	237699	13.328	13.096	13.553
