exp	sub	code	rev	comp	runtime	trialtime	nstim	refreshdur	cuedur	gapdur	gapOnsetRange	durPostProbe	gapOnsetTime	blocktype	prac	trial	ntargets	soa	probeTarget	resp	acc	rt	pts	tpts	meanFrameDur	minFrameDur	maxFrameDur
ProbeTrack11	5	ProbeTrack	11.2	SCS215a	20100818.100204	20100818.100214	8	0.013343	60	0	60-180	60	100	NoGap	1	1	2	1	0	target	0	2679	-1000	-1000	13.328	13.308	13.345
ProbeTrack11	5	ProbeTrack	11.2	SCS215a	20100818.100204	20100818.100245	8	0.013343	60	0	60-180	60	126	NoGap	1	2	2	0	0	distractor	1	1053	474	-526	13.328	13.098	13.551
ProbeTrack11	5	ProbeTrack	11.2	SCS215a	20100818.100204	20100818.100306	8	0.013343	60	0	60-180	60	179	NoGap	1	3	2	45	0	distractor	1	960	520	-6	13.328	13.088	13.562
ProbeTrack11	5	ProbeTrack	11.2	SCS215a	20100818.100204	20100818.100321	8	0.013343	60	0	60-180	60	126	NoGap	1	4	2	45	1	target	1	2026	0	-6	13.328	13.307	13.354
ProbeTrack11	5	ProbeTrack	11.2	SCS215a	20100818.100204	20100818.100332	8	0.013343	60	0	60-180	60	153	NoGap	1	5	2	3	0	distractor	1	747	627	621	13.328	13.098	13.553
ProbeTrack11	5	ProbeTrack	11.2	SCS215a	20100818.100204	20100818.100341	8	0.013343	60	0	60-180	60	93	NoGap	1	6	2	3	1	target	1	2026	0	621	13.328	13.110	13.550
ProbeTrack11	5	ProbeTrack	11.2	SCS215a	20100818.100204	20100818.100350	8	0.013343	60	0	60-180	60	180	NoGap	1	7	2	3	0	distractor	1	827	587	1208	13.328	13.112	13.560
ProbeTrack11	5	ProbeTrack	11.2	SCS215a	20100818.100204	20100818.100359	8	0.013343	60	0	60-180	60	113	NoGap	1	8	2	3	0	distractor	1	707	647	1855	13.328	13.206	13.449
ProbeTrack11	5	ProbeTrack	11.2	SCS215a	20100818.100204	20100818.100406	8	0.013343	60	0	60-180	60	116	NoGap	1	9	2	0	1	distractor	0	827	-1000	855	13.328	13.299	13.357
ProbeTrack11	5	ProbeTrack	11.2	SCS215a	20100818.100204	20100818.100413	8	0.013343	60	0	60-180	60	179	NoGap	1	10	2	3	0	distractor	1	707	647	1502	13.328	13.105	13.563
ProbeTrack11	5	ProbeTrack	11.2	SCS215a	20100818.100204	20100818.100423	8	0.013343	60	0	60-180	60	157	NoGap	1	11	2	0	0	distractor	1	853	574	2076	13.328	13.099	13.552
ProbeTrack11	5	ProbeTrack	11.2	SCS215a	20100818.100204	20100818.100431	8	0.013343	60	0	60-180	60	107	NoGap	1	12	2	0	1	target	1	973	514	2590	13.328	13.106	13.551
ProbeTrack11	5	ProbeTrack	11.2	SCS215a	20100818.100204	20100818.100438	8	0.013343	60	0	60-180	60	103	NoGap	1	13	2	1	0	distractor	1	800	600	3190	13.328	13.312	13.345
ProbeTrack11	5	ProbeTrack	11.2	SCS215a	20100818.100204	20100818.100444	8	0.013343	60	0	60-180	60	179	NoGap	1	14	2	1	1	target	1	1013	494	3684	13.328	13.091	13.560
ProbeTrack11	5	ProbeTrack	11.2	SCS215a	20100818.100204	20100818.100453	8	0.013343	60	0	60-180	60	156	NoGap	1	15	2	45	1	target	1	840	580	4264	13.328	13.107	13.542
ProbeTrack11	5	ProbeTrack	11.2	SCS215a	20100818.100204	20100818.100501	8	0.013343	60	0	60-180	60	179	NoGap	1	16	2	1	1	target	1	973	514	4778	13.328	13.126	13.523
ProbeTrack11	5	ProbeTrack	11.2	SCS215a	20100818.100204	20100818.100509	8	0.013343	60	0	60-180	60	95	NoGap	1	17	2	1	0	distractor	1	1133	434	5212	13.328	13.096	13.552
ProbeTrack11	5	ProbeTrack	11.2	SCS215a	20100818.100204	20100818.100519	8	0.013343	60	0	60-180	60	98	NoGap	1	18	2	45	0	target	0	1706	-1000	4212	13.328	13.308	13.347
ProbeTrack11	5	ProbeTrack	11.2	SCS215a	20100818.100204	20100818.100531	8	0.013343	60	0	60-180	60	131	NoGap	1	19	2	45	0	distractor	1	933	534	4746	13.328	13.307	13.347
ProbeTrack11	5	ProbeTrack	11.2	SCS215a	20100818.100204	20100818.100539	8	0.013343	60	0	60-180	60	171	NoGap	1	20	2	0	1	target	1	960	520	5266	13.328	13.298	13.345
ProbeTrack11	5	ProbeTrack	11.2	SCS215a	20100818.100204	20100818.100547	8	0.013343	60	0	60-180	60	75	NoGap	1	21	2	45	0	distractor	1	1120	440	5706	13.328	13.119	13.537
ProbeTrack11	5	ProbeTrack	11.2	SCS215a	20100818.100204	20100818.100555	8	0.013343	60	0	60-180	60	155	NoGap	1	22	2	45	0	distractor	1	840	580	6286	13.328	13.090	13.562
ProbeTrack11	5	ProbeTrack	11.2	SCS215a	20100818.100204	20100818.100604	8	0.013343	60	0	60-180	60	62	NoGap	1	23	2	1	0	distractor	1	907	547	6833	13.328	13.093	13.563
ProbeTrack11	5	ProbeTrack	11.2	SCS215a	20100818.100204	20100818.100610	8	0.013343	60	0	60-180	60	112	NoGap	1	24	2	0	1	target	1	1573	214	7047	13.328	13.097	13.551
ProbeTrack11	5	ProbeTrack	11.2	SCS215a	20100818.100204	20100818.100618	8	0.013343	60	0	60-180	60	121	NoGap	1	25	2	45	1	target	1	813	594	7641	13.328	13.294	13.363
ProbeTrack11	5	ProbeTrack	11.2	SCS215a	20100818.100204	20100818.100627	8	0.013343	60	0	60-180	60	62	NoGap	1	26	2	1	0	distractor	1	853	574	8215	13.328	13.294	13.352
ProbeTrack11	5	ProbeTrack	11.2	SCS215a	20100818.100204	20100818.100633	8	0.013343	60	0	60-180	60	133	NoGap	1	27	2	3	0	distractor	1	1387	307	8522	13.328	13.298	13.360
ProbeTrack11	5	ProbeTrack	11.2	SCS215a	20100818.100204	20100818.100642	8	0.013343	60	0	60-180	60	130	NoGap	1	28	2	1	1	target	1	1626	187	8709	13.328	13.114	13.545
ProbeTrack11	5	ProbeTrack	11.2	SCS215a	20100818.100204	20100818.100651	8	0.013343	60	0	60-180	60	122	NoGap	1	29	2	3	1	target	1	813	594	9303	13.328	13.223	13.448
ProbeTrack11	5	ProbeTrack	11.2	SCS215a	20100818.100204	20100818.100658	8	0.013343	60	0	60-180	60	91	NoGap	1	30	2	1	1	target	1	813	594	9897	13.328	13.100	13.550
ProbeTrack11	5	ProbeTrack	11.2	SCS215a	20100818.100204	20100818.100705	8	0.013343	60	0	60-180	60	169	NoGap	1	31	2	3	1	target	1	1600	200	10097	13.328	13.014	13.644
ProbeTrack11	5	ProbeTrack	11.2	SCS215a	20100818.100204	20100818.100714	8	0.013343	60	0	60-180	60	174	NoGap	1	32	2	1	1	distractor	0	1600	-1000	9097	13.328	12.898	13.737
ProbeTrack11	5	ProbeTrack	11.2	SCS215a	20100818.100204	20100818.100722	8	0.013343	60	0	60-180	60	156	NoGap	1	33	2	45	1	target	1	667	667	9764	13.328	13.039	13.625
ProbeTrack11	5	ProbeTrack	11.2	SCS215a	20100818.100204	20100818.100731	8	0.013343	60	0	60-180	60	97	NoGap	1	34	2	3	1	target	1	667	667	10431	13.328	13.309	13.352
ProbeTrack11	5	ProbeTrack	11.2	SCS215a	20100818.100204	20100818.100738	8	0.013343	60	0	60-180	60	74	NoGap	1	35	2	45	1	target	1	667	667	11098	13.328	13.308	13.348
ProbeTrack11	5	ProbeTrack	11.2	SCS215a	20100818.100204	20100818.100745	8	0.013343	60	0	60-180	60	96	NoGap	1	36	2	0	1	target	1	747	627	11725	13.328	13.308	13.357
ProbeTrack11	5	ProbeTrack	11.2	SCS215a	20100818.100204	20100818.100752	8	0.013343	60	0	60-180	60	151	NoGap	1	37	2	3	1	target	1	640	680	12405	13.326	12.862	13.671
ProbeTrack11	5	ProbeTrack	11.2	SCS215a	20100818.100204	20100818.100800	8	0.013343	60	0	60-180	60	145	NoGap	1	38	2	0	0	distractor	1	1973	14	12419	13.328	13.103	13.550
ProbeTrack11	5	ProbeTrack	11.2	SCS215a	20100818.100204	20100818.100809	8	0.013343	60	0	60-180	60	103	NoGap	1	39	2	0	0	distractor	1	1666	167	12586	13.328	13.097	13.552
ProbeTrack11	5	ProbeTrack	11.2	SCS215a	20100818.100204	20100818.100817	8	0.013343	60	0	60-180	60	168	NoGap	1	40	2	0	0	distractor	1	1533	234	12820	13.328	13.095	13.558
ProbeTrack11	5	ProbeTrack	11.2	SCS215a	20100818.100917	20100818.100921	8	0.013328	60	10	60-180	60	79	GapPrac	1	1	2	0	0	distractor	1	11236	0	12820	13.328	12.880	13.785
ProbeTrack11	5	ProbeTrack	11.2	SCS215a	20100818.100917	20100818.100941	8	0.013328	60	0	60-180	60	178	GapPrac	1	2	2	45	0	target	0	1920	-1000	11820	13.328	12.866	13.773
ProbeTrack11	5	ProbeTrack	11.2	SCS215a	20100818.100917	20100818.100958	8	0.013328	60	0	60-180	60	114	GapPrac	1	3	2	1	0	distractor	1	1346	327	12147	13.328	13.100	13.558
ProbeTrack11	5	ProbeTrack	11.2	SCS215a	20100818.100917	20100818.101007	8	0.013328	60	10	60-180	60	123	GapPrac	1	4	2	3	1	target	1	2666	0	12147	13.328	12.916	13.771
ProbeTrack11	5	ProbeTrack	11.2	SCS215a	20100818.100917	20100818.101016	8	0.013328	60	10	60-180	60	179	GapPrac	1	5	2	1	1	target	1	1386	307	12454	13.328	13.156	13.500
ProbeTrack11	5	ProbeTrack	11.2	SCS215a	20100818.100917	20100818.101027	8	0.013328	60	10	60-180	60	97	GapPrac	1	6	2	45	1	target	1	1000	500	12954	13.328	12.847	13.803
ProbeTrack11	5	ProbeTrack	11.2	SCS215a	20100818.100917	20100818.101035	8	0.013328	60	0	60-180	60	70	GapPrac	1	7	2	3	1	target	1	4572	0	12954	13.328	13.086	13.561
ProbeTrack11	5	ProbeTrack	11.2	SCS215a	20100818.100917	20100818.101045	8	0.013328	60	0	60-180	60	145	GapPrac	1	8	2	45	0	distractor	1	1306	347	13301	13.328	12.917	13.765
ProbeTrack11	5	ProbeTrack	11.2	SCS215a	20100818.100917	20100818.101054	8	0.013328	60	10	60-180	60	152	GapPrac	1	9	2	3	1	target	1	1746	127	13428	13.328	13.106	13.564
ProbeTrack11	5	ProbeTrack	11.2	SCS215a	20100818.100917	20100818.101103	8	0.013328	60	10	60-180	60	112	GapPrac	1	10	2	0	0	target	0	1546	-1000	12428	13.328	12.953	13.708
ProbeTrack11	5	ProbeTrack	11.2	SCS215a	20100818.100917	20100818.101112	8	0.013328	60	0	60-180	60	76	GapPrac	1	11	2	1	1	target	1	1680	160	12588	13.328	12.852	13.787
ProbeTrack11	5	ProbeTrack	11.2	SCS215a	20100818.100917	20100818.101119	8	0.013328	60	0	60-180	60	116	GapPrac	1	12	2	0	0	distractor	1	1200	400	12988	13.328	12.895	13.753
ProbeTrack11	5	ProbeTrack	11.2	SCS215a	20100818.100917	20100818.101127	8	0.013328	60	0	60-180	60	76	GapPrac	1	13	2	3	0	distractor	1	2119	0	12988	13.328	13.310	13.344
ProbeTrack11	5	ProbeTrack	11.2	SCS215a	20100818.100917	20100818.101136	8	0.013328	60	10	60-180	60	69	GapPrac	1	14	2	0	1	distractor	0	1466	-1000	11988	13.328	13.303	13.353
ProbeTrack11	5	ProbeTrack	11.2	SCS215a	20100818.100917	20100818.101144	8	0.013328	60	10	60-180	60	84	GapPrac	1	15	2	1	0	target	0	1120	-1000	10988	13.328	13.293	13.368
ProbeTrack11	5	ProbeTrack	11.2	SCS215a	20100818.100917	20100818.101150	8	0.013328	60	0	60-180	60	141	GapPrac	1	16	2	45	1	target	1	1000	500	11488	13.328	13.308	13.345
ProbeTrack11	5	ProbeTrack	11.2	SCS215a	20100818.100917	20100818.101158	8	0.013328	60	0	60-180	60	64	GapPrac	1	17	2	1	0	distractor	1	1120	440	11928	13.328	13.097	13.552
ProbeTrack11	5	ProbeTrack	11.2	SCS215a	20100818.100917	20100818.101205	8	0.013328	60	10	60-180	60	74	GapPrac	1	18	2	3	0	distractor	1	1773	114	12042	13.328	13.093	13.556
ProbeTrack11	5	ProbeTrack	11.2	SCS215a	20100818.100917	20100818.101213	8	0.013328	60	0	60-180	60	127	GapPrac	1	19	2	0	1	distractor	0	920	-1000	11042	13.328	13.106	13.566
ProbeTrack11	5	ProbeTrack	11.2	SCS215a	20100818.100917	20100818.101220	8	0.013328	60	10	60-180	60	122	GapPrac	1	20	2	45	0	target	0	1480	-1000	10042	13.328	13.104	13.570
ProbeTrack11	5	ProbeTrack	11.2	SCS215a	20100818.101337	20100818.101341	8	0.013328	60	10	60-180	60	72	GapExp	1	1	2	3	0	distractor	1	1320	340	10382	13.328	13.110	13.552
ProbeTrack11	5	ProbeTrack	11.2	SCS215a	20100818.101337	20100818.101351	8	0.013328	60	10	60-180	60	175	GapExp	1	2	2	1	0	target	0	2279	-1000	9382	13.328	13.092	13.551
ProbeTrack11	5	ProbeTrack	11.2	SCS215a	20100818.101337	20100818.101401	8	0.013328	60	0	60-180	60	136	GapExp	0	3	2	3	1	target	1	1107	447	9829	13.328	13.308	13.346
ProbeTrack11	5	ProbeTrack	11.2	SCS215a	20100818.101337	20100818.101408	8	0.013328	60	0	60-180	60	158	GapExp	0	4	2	1	1	target	1	1880	60	9889	13.328	13.309	13.348
ProbeTrack11	5	ProbeTrack	11.2	SCS215a	20100818.101337	20100818.101439	8	0.013328	60	10	60-180	60	115	GapExp	0	5	2	1	0	target	0	1373	-1000	8889	13.328	13.281	13.374
ProbeTrack11	5	ProbeTrack	11.2	SCS215a	20100818.101337	20100818.101448	8	0.013328	60	0	60-180	60	121	GapExp	0	6	2	1	0	distractor	1	2066	0	8889	13.328	13.088	13.561
ProbeTrack11	5	ProbeTrack	11.2	SCS215a	20100818.101337	20100818.101456	8	0.013328	60	10	60-180	60	154	GapExp	0	7	2	0	0	distractor	1	1586	207	9096	13.328	13.307	13.350
ProbeTrack11	5	ProbeTrack	11.2	SCS215a	20100818.101337	20100818.101504	8	0.013328	60	10	60-180	60	152	GapExp	0	8	2	0	1	distractor	0	1586	-1000	8096	13.328	13.307	13.347
ProbeTrack11	5	ProbeTrack	11.2	SCS215a	20100818.101337	20100818.101514	8	0.013328	60	10	60-180	60	78	GapExp	0	9	2	3	0	distractor	1	1760	120	8216	13.328	13.115	13.534
ProbeTrack11	5	ProbeTrack	11.2	SCS215a	20100818.101337	20100818.101521	8	0.013328	60	10	60-180	60	89	GapExp	0	10	2	1	0	distractor	1	1533	234	8450	13.328	12.885	13.757
ProbeTrack11	5	ProbeTrack	11.2	SCS215a	20100818.101337	20100818.101529	8	0.013328	60	10	60-180	60	174	GapExp	0	11	2	1	1	target	1	2693	0	8450	13.328	12.931	13.732
ProbeTrack11	5	ProbeTrack	11.2	SCS215a	20100818.101337	20100818.101539	8	0.013328	60	0	60-180	60	88	GapExp	0	12	2	3	0	distractor	1	2506	0	8450	13.328	13.305	13.350
ProbeTrack11	5	ProbeTrack	11.2	SCS215a	20100818.101337	20100818.101548	8	0.013328	60	0	60-180	60	93	GapExp	0	13	2	3	1	target	1	2546	0	8450	13.328	13.100	13.557
ProbeTrack11	5	ProbeTrack	11.2	SCS215a	20100818.101337	20100818.101558	8	0.013328	60	0	60-180	60	72	GapExp	0	14	2	3	1	target	1	1280	360	8810	13.328	13.099	13.561
ProbeTrack11	5	ProbeTrack	11.2	SCS215a	20100818.101337	20100818.101605	8	0.013328	60	10	60-180	60	175	GapExp	0	15	2	45	1	target	1	2186	0	8810	13.328	13.277	13.380
ProbeTrack11	5	ProbeTrack	11.2	SCS215a	20100818.101337	20100818.101616	8	0.013328	60	10	60-180	60	81	GapExp	0	16	2	0	1	target	1	1600	200	9010	13.328	13.072	13.497
ProbeTrack11	5	ProbeTrack	11.2	SCS215a	20100818.101337	20100818.101624	8	0.013328	60	10	60-180	60	161	GapExp	0	17	2	3	0	distractor	1	2293	0	9010	13.328	13.105	13.549
ProbeTrack11	5	ProbeTrack	11.2	SCS215a	20100818.101337	20100818.101634	8	0.013328	60	10	60-180	60	130	GapExp	0	18	2	0	1	target	1	1626	187	9197	13.328	13.296	13.359
ProbeTrack11	5	ProbeTrack	11.2	SCS215a	20100818.101337	20100818.101643	8	0.013328	60	0	60-180	60	167	GapExp	0	19	2	3	0	distractor	1	2147	0	9197	13.328	12.951	13.709
ProbeTrack11	5	ProbeTrack	11.2	SCS215a	20100818.101337	20100818.101652	8	0.013328	60	10	60-180	60	122	GapExp	0	20	2	1	0	distractor	1	2119	0	9197	13.328	13.038	13.636
ProbeTrack11	5	ProbeTrack	11.2	SCS215a	20100818.101337	20100818.101702	8	0.013328	60	0	60-180	60	125	GapExp	0	21	2	0	0	distractor	1	1600	200	9397	13.328	13.306	13.346
ProbeTrack11	5	ProbeTrack	11.2	SCS215a	20100818.101337	20100818.101712	8	0.013328	60	10	60-180	60	64	GapExp	0	22	2	3	0	distractor	1	1733	134	9531	13.328	13.110	13.542
ProbeTrack11	5	ProbeTrack	11.2	SCS215a	20100818.101337	20100818.101721	8	0.013328	60	10	60-180	60	136	GapExp	0	23	2	0	0	distractor	1	1386	307	9838	13.328	13.097	13.541
ProbeTrack11	5	ProbeTrack	11.2	SCS215a	20100818.101337	20100818.101729	8	0.013328	60	0	60-180	60	154	GapExp	0	24	2	1	1	target	1	1720	140	9978	13.328	13.212	13.458
ProbeTrack11	5	ProbeTrack	11.2	SCS215a	20100818.101337	20100818.101738	8	0.013328	60	0	60-180	60	76	GapExp	0	25	2	0	1	target	1	1600	200	10178	13.328	12.962	13.694
ProbeTrack11	5	ProbeTrack	11.2	SCS215a	20100818.101337	20100818.101748	8	0.013328	60	0	60-180	60	164	GapExp	0	26	2	45	1	target	1	1293	354	10532	13.328	12.969	13.674
ProbeTrack11	5	ProbeTrack	11.2	SCS215a	20100818.101337	20100818.101758	8	0.013328	60	0	60-180	60	127	GapExp	0	27	2	1	0	distractor	1	1253	374	10906	13.328	13.308	13.351
ProbeTrack11	5	ProbeTrack	11.2	SCS215a	20100818.101337	20100818.101806	8	0.013328	60	0	60-180	60	81	GapExp	0	28	2	1	0	distractor	1	1053	474	11380	13.328	13.307	13.353
ProbeTrack11	5	ProbeTrack	11.2	SCS215a	20100818.101337	20100818.101813	8	0.013328	60	10	60-180	60	78	GapExp	0	29	2	0	1	target	1	1466	267	11647	13.328	13.301	13.350
ProbeTrack11	5	ProbeTrack	11.2	SCS215a	20100818.101337	20100818.101820	8	0.013328	60	10	60-180	60	119	GapExp	0	30	2	1	0	target	0	2053	-1000	10647	13.328	13.198	13.454
ProbeTrack11	5	ProbeTrack	11.2	SCS215a	20100818.101337	20100818.101828	8	0.013328	60	10	60-180	60	80	GapExp	0	31	2	45	0	distractor	1	1000	500	11147	13.328	13.294	13.358
ProbeTrack11	5	ProbeTrack	11.2	SCS215a	20100818.101337	20100818.101836	8	0.013328	60	0	60-180	60	75	GapExp	0	32	2	0	1	target	1	1573	214	11361	13.328	13.084	13.567
ProbeTrack11	5	ProbeTrack	11.2	SCS215a	20100818.101337	20100818.101846	8	0.013328	60	10	60-180	60	159	GapExp	0	33	2	1	1	target	1	1306	347	11708	13.328	13.118	13.539
ProbeTrack11	5	ProbeTrack	11.2	SCS215a	20100818.101337	20100818.101853	8	0.013328	60	10	60-180	60	68	GapExp	0	34	2	45	1	target	1	1053	474	12182	13.328	13.306	13.348
ProbeTrack11	5	ProbeTrack	11.2	SCS215a	20100818.101337	20100818.101901	8	0.013328	60	0	60-180	60	157	GapExp	0	35	2	45	0	target	0	1227	-1000	11182	13.328	13.308	13.347
ProbeTrack11	5	ProbeTrack	11.2	SCS215a	20100818.101337	20100818.101910	8	0.013328	60	0	60-180	60	178	GapExp	0	36	2	0	0	distractor	1	1147	427	11609	13.328	13.102	13.551
ProbeTrack11	5	ProbeTrack	11.2	SCS215a	20100818.101337	20100818.101920	8	0.013328	60	0	60-180	60	163	GapExp	0	37	2	0	0	distractor	1	1147	427	12036	13.328	13.092	13.563
ProbeTrack11	5	ProbeTrack	11.2	SCS215a	20100818.101337	20100818.101928	8	0.013328	60	10	60-180	60	124	GapExp	0	38	2	0	0	target	0	2093	-1000	11036	13.476	12.867	26.661
ProbeTrack11	5	ProbeTrack	11.2	SCS215a	20100818.101337	20100818.101938	8	0.013328	60	0	60-180	60	94	GapExp	0	39	2	3	1	target	1	1160	420	11456	13.328	13.309	13.347
ProbeTrack11	5	ProbeTrack	11.2	SCS215a	20100818.101337	20100818.101949	8	0.013328	60	10	60-180	60	115	GapExp	0	40	2	1	1	target	1	1840	80	11536	13.328	13.309	13.347
ProbeTrack11	5	ProbeTrack	11.2	SCS215a	20100818.101337	20100818.101959	8	0.013328	60	0	60-180	60	114	GapExp	0	41	2	1	0	distractor	1	1213	394	11930	13.328	13.307	13.348
ProbeTrack11	5	ProbeTrack	11.2	SCS215a	20100818.101337	20100818.102007	8	0.013328	60	0	60-180	60	180	GapExp	0	42	2	45	1	target	1	1386	307	12237	13.328	12.888	13.765
ProbeTrack11	5	ProbeTrack	11.2	SCS215a	20100818.101337	20100818.102018	8	0.013328	60	0	60-180	60	103	GapExp	0	43	2	0	0	distractor	1	1280	360	12597	13.328	12.993	13.672
ProbeTrack11	5	ProbeTrack	11.2	SCS215a	20100818.101337	20100818.102027	8	0.013328	60	10	60-180	60	72	GapExp	0	44	2	3	0	distractor	1	1906	47	12644	13.328	12.852	13.803
ProbeTrack11	5	ProbeTrack	11.2	SCS215a	20100818.101337	20100818.102035	8	0.013328	60	0	60-180	60	108	GapExp	0	45	2	3	1	target	1	1413	294	12938	13.328	13.021	13.632
ProbeTrack11	5	ProbeTrack	11.2	SCS215a	20100818.101337	20100818.102043	8	0.013328	60	0	60-180	60	107	GapExp	0	46	2	45	1	target	1	1253	374	13312	13.328	12.972	13.712
ProbeTrack11	5	ProbeTrack	11.2	SCS215a	20100818.101337	20100818.102051	8	0.013328	60	0	60-180	60	119	GapExp	0	47	2	45	1	target	1	1053	474	13786	13.328	13.103	13.552
ProbeTrack11	5	ProbeTrack	11.2	SCS215a	20100818.101337	20100818.102100	8	0.013328	60	0	60-180	60	80	GapExp	0	48	2	3	0	distractor	1	1253	374	14160	13.328	12.870	13.788
ProbeTrack11	5	ProbeTrack	11.2	SCS215a	20100818.101337	20100818.102108	8	0.013328	60	0	60-180	60	124	GapExp	0	49	2	0	0	distractor	1	1067	467	14627	13.379	12.864	26.654
ProbeTrack11	5	ProbeTrack	11.2	SCS215a	20100818.101337	20100818.102117	8	0.013328	60	10	60-180	60	138	GapExp	0	50	2	45	0	distractor	1	1280	360	14987	13.328	13.142	13.502
ProbeTrack11	5	ProbeTrack	11.2	SCS215a	20100818.101337	20100818.102126	8	0.013328	60	10	60-180	60	139	GapExp	0	51	2	3	0	target	0	1413	-1000	13987	13.328	13.105	13.549
ProbeTrack11	5	ProbeTrack	11.2	SCS215a	20100818.101337	20100818.102135	8	0.013328	60	0	60-180	60	93	GapExp	0	52	2	45	1	target	1	1373	314	14301	13.328	13.079	13.588
ProbeTrack11	5	ProbeTrack	11.2	SCS215a	20100818.101337	20100818.102152	8	0.013328	60	0	60-180	60	161	GapExp	0	53	2	1	0	distractor	1	2226	0	14301	13.328	13.307	13.350
ProbeTrack11	5	ProbeTrack	11.2	SCS215a	20100818.101337	20100818.102202	8	0.013328	60	0	60-180	60	126	GapExp	0	54	2	3	0	target	0	1107	-1000	13301	13.328	12.922	13.732
ProbeTrack11	5	ProbeTrack	11.2	SCS215a	20100818.101337	20100818.102210	8	0.013328	60	0	60-180	60	122	GapExp	0	55	2	45	1	target	1	1080	460	13761	13.328	13.092	13.551
ProbeTrack11	5	ProbeTrack	11.2	SCS215a	20100818.101337	20100818.102221	8	0.013328	60	10	60-180	60	172	GapExp	0	56	2	45	1	target	1	1000	500	14261	13.328	12.927	13.735
ProbeTrack11	5	ProbeTrack	11.2	SCS215a	20100818.101337	20100818.102230	8	0.013328	60	0	60-180	60	111	GapExp	0	57	2	0	0	distractor	1	1160	420	14681	13.328	12.912	13.745
ProbeTrack11	5	ProbeTrack	11.2	SCS215a	20100818.101337	20100818.102237	8	0.013328	60	0	60-180	60	174	GapExp	0	58	2	3	0	distractor	1	1480	260	14941	13.328	13.083	13.561
ProbeTrack11	5	ProbeTrack	11.2	SCS215a	20100818.101337	20100818.102246	8	0.013328	60	0	60-180	60	98	GapExp	0	59	2	3	0	distractor	1	1227	387	15328	13.328	13.299	13.354
ProbeTrack11	5	ProbeTrack	11.2	SCS215a	20100818.101337	20100818.102253	8	0.013328	60	10	60-180	60	77	GapExp	0	60	2	0	1	target	1	1173	414	15742	13.328	13.287	13.366
ProbeTrack11	5	ProbeTrack	11.2	SCS215a	20100818.101337	20100818.102301	8	0.013328	60	0	60-180	60	126	GapExp	0	61	2	1	0	distractor	1	1147	427	16169	13.328	13.308	13.347
ProbeTrack11	5	ProbeTrack	11.2	SCS215a	20100818.101337	20100818.102308	8	0.013328	60	0	60-180	60	95	GapExp	0	62	2	1	1	target	1	1400	300	16469	13.328	13.294	13.353
ProbeTrack11	5	ProbeTrack	11.2	SCS215a	20100818.101337	20100818.102315	8	0.013328	60	10	60-180	60	114	GapExp	0	63	2	45	1	target	1	893	554	17023	13.328	13.304	13.348
ProbeTrack11	5	ProbeTrack	11.2	SCS215a	20100818.101337	20100818.102323	8	0.013328	60	0	60-180	60	143	GapExp	0	64	2	45	1	target	1	920	540	17563	13.328	13.093	13.555
ProbeTrack11	5	ProbeTrack	11.2	SCS215a	20100818.101337	20100818.102332	8	0.013328	60	10	60-180	60	86	GapExp	0	65	2	45	1	distractor	0	1293	-1000	16563	13.328	13.260	13.384
ProbeTrack11	5	ProbeTrack	11.2	SCS215a	20100818.101337	20100818.102340	8	0.013328	60	10	60-180	60	116	GapExp	0	66	2	1	1	target	1	1613	194	16757	13.328	13.309	13.346
ProbeTrack11	5	ProbeTrack	11.2	SCS215a	20100818.101337	20100818.102351	8	0.013328	60	0	60-180	60	172	GapExp	0	67	2	0	1	target	1	1653	174	16931	13.328	12.870	13.810
ProbeTrack11	5	ProbeTrack	11.2	SCS215a	20100818.101337	20100818.102359	8	0.013328	60	10	60-180	60	76	GapExp	0	68	2	0	0	target	0	2093	-1000	15931	13.328	13.109	13.558
ProbeTrack11	5	ProbeTrack	11.2	SCS215a	20100818.101337	20100818.102407	8	0.013328	60	0	60-180	60	147	GapExp	0	69	2	3	1	target	1	1027	487	16418	13.328	13.299	13.349
ProbeTrack11	5	ProbeTrack	11.2	SCS215a	20100818.101337	20100818.102415	8	0.013328	60	10	60-180	60	129	GapExp	0	70	2	0	1	target	1	1480	260	16678	13.425	12.866	26.641
ProbeTrack11	5	ProbeTrack	11.2	SCS215a	20100818.101337	20100818.102425	8	0.013328	60	0	60-180	60	134	GapExp	0	71	2	45	1	target	1	960	520	17198	13.328	13.309	13.347
ProbeTrack11	5	ProbeTrack	11.2	SCS215a	20100818.101337	20100818.102434	8	0.013328	60	10	60-180	60	169	GapExp	0	72	2	3	1	target	1	893	554	17752	13.328	13.308	13.355
ProbeTrack11	5	ProbeTrack	11.2	SCS215a	20100818.101337	20100818.102454	8	0.013328	60	10	60-180	60	168	GapExp	0	73	2	1	0	target	0	1653	-1000	16752	13.328	13.098	13.572
ProbeTrack11	5	ProbeTrack	11.2	SCS215a	20100818.101337	20100818.102503	8	0.013328	60	0	60-180	60	110	GapExp	0	74	2	1	0	distractor	1	1573	214	16966	13.328	13.104	13.559
ProbeTrack11	5	ProbeTrack	11.2	SCS215a	20100818.101337	20100818.102512	8	0.013328	60	0	60-180	60	87	GapExp	0	75	2	0	1	target	1	1160	420	17386	13.328	12.990	13.667
ProbeTrack11	5	ProbeTrack	11.2	SCS215a	20100818.101337	20100818.102520	8	0.013328	60	0	60-180	60	77	GapExp	0	76	2	45	0	target	0	1280	-1000	16386	13.328	13.199	13.455
ProbeTrack11	5	ProbeTrack	11.2	SCS215a	20100818.101337	20100818.102529	8	0.013328	60	0	60-180	60	121	GapExp	0	77	2	45	0	distractor	1	1160	420	16806	13.328	13.090	13.559
ProbeTrack11	5	ProbeTrack	11.2	SCS215a	20100818.101337	20100818.102538	8	0.013328	60	10	60-180	60	174	GapExp	0	78	2	0	0	distractor	1	2439	0	16806	13.328	13.107	13.562
ProbeTrack11	5	ProbeTrack	11.2	SCS215a	20100818.101337	20100818.102548	8	0.013328	60	0	60-180	60	147	GapExp	0	79	2	3	0	distractor	1	2000	0	16806	13.328	13.255	13.395
ProbeTrack11	5	ProbeTrack	11.2	SCS215a	20100818.101337	20100818.102556	8	0.013328	60	0	60-180	60	161	GapExp	0	80	2	1	1	target	1	1053	474	17280	13.328	13.298	13.361
ProbeTrack11	5	ProbeTrack	11.2	SCS215a	20100818.101337	20100818.102604	8	0.013328	60	10	60-180	60	89	GapExp	0	81	2	0	1	target	1	1880	60	17340	13.328	13.296	13.353
ProbeTrack11	5	ProbeTrack	11.2	SCS215a	20100818.101337	20100818.102612	8	0.013328	60	10	60-180	60	115	GapExp	0	82	2	3	1	target	1	1200	400	17740	13.328	13.308	13.350
ProbeTrack11	5	ProbeTrack	11.2	SCS215a	20100818.101337	20100818.102619	8	0.013328	60	0	60-180	60	70	GapExp	0	83	2	45	0	distractor	1	1133	434	18174	13.328	13.298	13.364
ProbeTrack11	5	ProbeTrack	11.2	SCS215a	20100818.101337	20100818.102626	8	0.013328	60	0	60-180	60	178	GapExp	0	84	2	1	0	distractor	1	987	507	18681	13.328	13.100	13.545
ProbeTrack11	5	ProbeTrack	11.2	SCS215a	20100818.101337	20100818.102634	8	0.013328	60	10	60-180	60	150	GapExp	0	85	2	0	1	target	1	1080	460	19141	13.328	13.105	13.551
ProbeTrack11	5	ProbeTrack	11.2	SCS215a	20100818.101337	20100818.102641	8	0.013328	60	10	60-180	60	151	GapExp	0	86	2	1	1	target	1	867	567	19708	13.328	12.999	13.650
ProbeTrack11	5	ProbeTrack	11.2	SCS215a	20100818.101337	20100818.102649	8	0.013328	60	0	60-180	60	96	GapExp	0	87	2	45	0	distractor	1	733	634	20342	13.328	13.000	13.651
ProbeTrack11	5	ProbeTrack	11.2	SCS215a	20100818.101337	20100818.102656	8	0.013328	60	0	60-180	60	154	GapExp	0	88	2	3	1	target	1	760	620	20962	13.328	13.298	13.346
ProbeTrack11	5	ProbeTrack	11.2	SCS215a	20100818.101337	20100818.102706	8	0.013328	60	10	60-180	60	160	GapExp	0	89	2	1	1	target	1	693	654	21616	13.328	13.069	13.591
ProbeTrack11	5	ProbeTrack	11.2	SCS215a	20100818.101337	20100818.102713	8	0.013328	60	0	60-180	60	92	GapExp	0	90	2	1	0	distractor	1	787	607	22223	13.328	13.310	13.348
ProbeTrack11	5	ProbeTrack	11.2	SCS215a	20100818.101337	20100818.102720	8	0.013328	60	0	60-180	60	67	GapExp	0	91	2	0	1	target	1	773	614	22837	13.328	12.633	14.031
ProbeTrack11	5	ProbeTrack	11.2	SCS215a	20100818.101337	20100818.102727	8	0.013328	60	0	60-180	60	153	GapExp	0	92	2	0	0	distractor	1	480	760	23597	13.328	13.307	13.346
ProbeTrack11	5	ProbeTrack	11.2	SCS215a	20100818.101337	20100818.102735	8	0.013328	60	10	60-180	60	147	GapExp	0	93	2	0	0	distractor	1	1413	294	23891	13.328	13.105	13.552
ProbeTrack11	5	ProbeTrack	11.2	SCS215a	20100818.101337	20100818.102743	8	0.013328	60	0	60-180	60	128	GapExp	0	94	2	45	0	distractor	1	693	654	24545	13.328	13.104	13.551
ProbeTrack11	5	ProbeTrack	11.2	SCS215a	20100818.101337	20100818.102752	8	0.013328	60	10	60-180	60	70	GapExp	0	95	2	0	0	target	0	1240	-1000	23545	13.328	12.856	13.785
ProbeTrack11	5	ProbeTrack	11.2	SCS215a	20100818.101337	20100818.102759	8	0.013328	60	10	60-180	60	130	GapExp	0	96	2	0	0	distractor	1	760	620	24165	13.328	12.970	13.695
ProbeTrack11	5	ProbeTrack	11.2	SCS215a	20100818.101337	20100818.102806	8	0.013328	60	0	60-180	60	72	GapExp	0	97	2	45	1	target	1	707	647	24812	13.328	13.107	13.552
ProbeTrack11	5	ProbeTrack	11.2	SCS215a	20100818.101337	20100818.102813	8	0.013328	60	10	60-180	60	125	GapExp	0	98	2	1	1	target	1	707	647	25459	13.328	13.103	13.539
ProbeTrack11	5	ProbeTrack	11.2	SCS215a	20100818.101337	20100818.102821	8	0.013328	60	0	60-180	60	98	GapExp	0	99	2	1	1	target	1	627	687	26146	13.328	13.104	13.548
ProbeTrack11	5	ProbeTrack	11.2	SCS215a	20100818.101337	20100818.102827	8	0.013328	60	0	60-180	60	168	GapExp	0	100	2	0	0	distractor	1	773	614	26760	13.328	12.889	13.781
ProbeTrack11	5	ProbeTrack	11.2	SCS215a	20100818.101337	20100818.102836	8	0.013328	60	10	60-180	60	96	GapExp	0	101	2	45	0	distractor	1	694	653	27413	13.328	13.215	13.442
ProbeTrack11	5	ProbeTrack	11.2	SCS215a	20100818.101337	20100818.102843	8	0.013328	60	10	60-180	60	89	GapExp	0	102	2	1	0	distractor	1	667	667	28080	13.328	13.106	13.557
ProbeTrack11	5	ProbeTrack	11.2	SCS215a	20100818.101337	20100818.102900	8	0.013328	60	10	60-180	60	178	GapExp	0	103	2	0	0	distractor	1	747	627	28707	13.328	13.097	13.561
ProbeTrack11	5	ProbeTrack	11.2	SCS215a	20100818.101337	20100818.102908	8	0.013328	60	0	60-180	60	139	GapExp	0	104	2	45	0	distractor	1	680	660	29367	13.328	13.085	13.567
ProbeTrack11	5	ProbeTrack	11.2	SCS215a	20100818.101337	20100818.102916	8	0.013328	60	0	60-180	60	89	GapExp	0	105	2	3	0	distractor	1	747	627	29994	13.328	13.111	13.545
ProbeTrack11	5	ProbeTrack	11.2	SCS215a	20100818.101337	20100818.102922	8	0.013328	60	0	60-180	60	169	GapExp	0	106	2	3	1	target	1	1800	100	30094	13.328	13.104	13.552
ProbeTrack11	5	ProbeTrack	11.2	SCS215a	20100818.101337	20100818.102931	8	0.013328	60	10	60-180	60	87	GapExp	0	107	2	3	1	target	1	760	620	30714	13.328	13.106	13.536
ProbeTrack11	5	ProbeTrack	11.2	SCS215a	20100818.101337	20100818.103039	8	0.013328	60	0	60-180	60	175	GapExp	0	108	2	0	0	distractor	1	587	707	31421	13.328	13.085	13.563
ProbeTrack11	5	ProbeTrack	11.2	SCS215a	20100818.101337	20100818.103047	8	0.013328	60	10	60-180	60	160	GapExp	0	109	2	0	1	target	1	733	634	32055	13.328	13.286	13.369
ProbeTrack11	5	ProbeTrack	11.2	SCS215a	20100818.101337	20100818.103055	8	0.013328	60	0	60-180	60	114	GapExp	0	110	2	3	1	target	1	667	667	32722	13.328	12.943	13.716
ProbeTrack11	5	ProbeTrack	11.2	SCS215a	20100818.101337	20100818.103103	8	0.013328	60	10	60-180	60	121	GapExp	0	111	2	0	1	target	1	720	640	33362	13.328	13.019	13.643
ProbeTrack11	5	ProbeTrack	11.2	SCS215a	20100818.101337	20100818.103111	8	0.013328	60	10	60-180	60	65	GapExp	0	112	2	0	1	target	1	560	720	34082	13.328	13.311	13.345
ProbeTrack11	5	ProbeTrack	11.2	SCS215a	20100818.101337	20100818.103117	8	0.013328	60	0	60-180	60	158	GapExp	0	113	2	1	0	distractor	1	720	640	34722	13.328	13.310	13.348
ProbeTrack11	5	ProbeTrack	11.2	SCS215a	20100818.101337	20100818.103124	8	0.013328	60	0	60-180	60	86	GapExp	0	114	2	45	1	target	1	693	654	35376	13.328	13.311	13.348
ProbeTrack11	5	ProbeTrack	11.2	SCS215a	20100818.101337	20100818.103139	8	0.013328	60	10	60-180	60	105	GapExp	0	115	2	1	0	distractor	1	720	640	36016	13.328	13.310	13.347
ProbeTrack11	5	ProbeTrack	11.2	SCS215a	20100818.101337	20100818.103146	8	0.013328	60	10	60-180	60	142	GapExp	0	116	2	1	1	target	1	613	694	36710	13.328	13.309	13.346
ProbeTrack11	5	ProbeTrack	11.2	SCS215a	20100818.101337	20100818.103153	8	0.013328	60	10	60-180	60	144	GapExp	0	117	2	0	1	target	1	1520	240	36950	13.328	13.278	13.379
ProbeTrack11	5	ProbeTrack	11.2	SCS215a	20100818.101337	20100818.103201	8	0.013328	60	10	60-180	60	146	GapExp	0	118	2	1	0	target	0	653	-1000	35950	13.328	13.309	13.351
ProbeTrack11	5	ProbeTrack	11.2	SCS215a	20100818.101337	20100818.103208	8	0.013328	60	0	60-180	60	149	GapExp	0	119	2	3	1	target	1	920	540	36490	13.328	13.308	13.348
ProbeTrack11	5	ProbeTrack	11.2	SCS215a	20100818.101337	20100818.103215	8	0.013328	60	10	60-180	60	82	GapExp	0	120	2	45	1	target	1	640	680	37170	13.328	13.308	13.348
ProbeTrack11	5	ProbeTrack	11.2	SCS215a	20100818.101337	20100818.103222	8	0.013328	60	0	60-180	60	148	GapExp	0	121	2	3	1	target	1	653	674	37844	13.328	13.075	13.583
ProbeTrack11	5	ProbeTrack	11.2	SCS215a	20100818.101337	20100818.103230	8	0.013328	60	0	60-180	60	104	GapExp	0	122	2	1	1	target	1	627	687	38531	13.328	12.862	13.818
ProbeTrack11	5	ProbeTrack	11.2	SCS215a	20100818.101337	20100818.103237	8	0.013328	60	10	60-180	60	171	GapExp	0	123	2	1	1	target	1	560	720	39251	13.328	12.997	13.652
ProbeTrack11	5	ProbeTrack	11.2	SCS215a	20100818.101337	20100818.103244	8	0.013328	60	0	60-180	60	61	GapExp	0	124	2	3	0	distractor	1	813	594	39845	13.328	13.307	13.346
ProbeTrack11	5	ProbeTrack	11.2	SCS215a	20100818.101337	20100818.103250	8	0.013328	60	10	60-180	60	171	GapExp	0	125	2	45	1	distractor	0	920	-1000	38845	13.328	13.308	13.348
ProbeTrack11	5	ProbeTrack	11.2	SCS215a	20100818.101337	20100818.103258	8	0.013328	60	0	60-180	60	106	GapExp	0	126	2	3	0	distractor	1	853	574	39419	13.328	13.126	13.518
ProbeTrack11	5	ProbeTrack	11.2	SCS215a	20100818.101337	20100818.103304	8	0.013328	60	0	60-180	60	79	GapExp	0	127	2	0	1	target	1	654	673	40092	13.328	13.308	13.352
ProbeTrack11	5	ProbeTrack	11.2	SCS215a	20100818.101337	20100818.103310	8	0.013328	60	10	60-180	60	77	GapExp	0	128	2	1	0	target	0	1067	-1000	39092	13.328	13.300	13.350
ProbeTrack11	5	ProbeTrack	11.2	SCS215a	20100818.101337	20100818.103316	8	0.013328	60	10	60-180	60	131	GapExp	0	129	2	0	1	target	1	880	560	39652	13.328	12.901	13.744
ProbeTrack11	5	ProbeTrack	11.2	SCS215a	20100818.101337	20100818.103323	8	0.013328	60	10	60-180	60	79	GapExp	0	130	2	3	0	distractor	1	733	634	40286	13.328	13.287	13.358
ProbeTrack11	5	ProbeTrack	11.2	SCS215a	20100818.101337	20100818.103330	8	0.013328	60	0	60-180	60	67	GapExp	0	131	2	45	0	distractor	1	747	627	40913	13.328	13.105	13.543
ProbeTrack11	5	ProbeTrack	11.2	SCS215a	20100818.101337	20100818.103336	8	0.013328	60	10	60-180	60	171	GapExp	0	132	2	1	1	target	1	1520	240	41153	13.328	13.151	13.511
ProbeTrack11	5	ProbeTrack	11.2	SCS215a	20100818.101337	20100818.103344	8	0.013328	60	0	60-180	60	85	GapExp	0	133	2	1	1	target	1	613	694	41847	13.328	13.184	13.486
ProbeTrack11	5	ProbeTrack	11.2	SCS215a	20100818.101337	20100818.103351	8	0.013328	60	0	60-180	60	80	GapExp	0	134	2	3	0	distractor	1	773	614	42461	13.328	13.308	13.346
ProbeTrack11	5	ProbeTrack	11.2	SCS215a	20100818.101337	20100818.103358	8	0.013328	60	10	60-180	60	62	GapExp	0	135	2	1	0	distractor	1	1560	220	42681	13.328	13.097	13.558
ProbeTrack11	5	ProbeTrack	11.2	SCS215a	20100818.101337	20100818.103404	8	0.013328	60	10	60-180	60	156	GapExp	0	136	2	45	1	target	1	947	527	43208	13.328	12.913	13.755
ProbeTrack11	5	ProbeTrack	11.2	SCS215a	20100818.101337	20100818.103412	8	0.013328	60	10	60-180	60	154	GapExp	0	137	2	3	1	target	1	760	620	43828	13.328	12.951	13.710
ProbeTrack11	5	ProbeTrack	11.2	SCS215a	20100818.101337	20100818.103419	8	0.013328	60	10	60-180	60	93	GapExp	0	138	2	3	1	target	1	907	547	44375	13.328	13.100	13.551
ProbeTrack11	5	ProbeTrack	11.2	SCS215a	20100818.101337	20100818.103425	8	0.013328	60	0	60-180	60	173	GapExp	0	139	2	3	1	target	1	654	673	45048	13.328	12.861	13.785
ProbeTrack11	5	ProbeTrack	11.2	SCS215a	20100818.101337	20100818.103432	8	0.013328	60	10	60-180	60	73	GapExp	0	140	2	3	0	target	0	600	-1000	44048	13.328	13.104	13.550
ProbeTrack11	5	ProbeTrack	11.2	SCS215a	20100818.101337	20100818.103439	8	0.013328	60	10	60-180	60	179	GapExp	0	141	2	45	0	distractor	1	827	587	44635	13.328	13.008	13.647
ProbeTrack11	5	ProbeTrack	11.2	SCS215a	20100818.101337	20100818.103449	8	0.013328	60	10	60-180	60	164	GapExp	0	142	2	3	1	target	1	800	600	45235	13.328	12.885	13.771
ProbeTrack11	5	ProbeTrack	11.2	SCS215a	20100818.101337	20100818.103457	8	0.013328	60	10	60-180	60	168	GapExp	0	143	2	45	0	distractor	1	1626	187	45422	13.328	12.964	13.709
ProbeTrack11	5	ProbeTrack	11.2	SCS215a	20100818.101337	20100818.103507	8	0.013328	60	0	60-180	60	158	GapExp	0	144	2	0	1	target	1	560	720	46142	13.328	13.098	13.545
ProbeTrack11	5	ProbeTrack	11.2	SCS215a	20100818.101337	20100818.103514	8	0.013328	60	10	60-180	60	85	GapExp	0	145	2	0	1	target	1	547	727	46869	13.328	12.886	13.778
ProbeTrack11	5	ProbeTrack	11.2	SCS215a	20100818.101337	20100818.103523	8	0.013328	60	0	60-180	60	152	GapExp	0	146	2	3	0	distractor	1	693	654	47523	13.328	12.839	13.814
ProbeTrack11	5	ProbeTrack	11.2	SCS215a	20100818.101337	20100818.103530	8	0.013328	60	0	60-180	60	163	GapExp	0	147	2	0	0	distractor	1	760	620	48143	13.328	13.309	13.347
ProbeTrack11	5	ProbeTrack	11.2	SCS215a	20100818.101337	20100818.103537	8	0.013328	60	0	60-180	60	113	GapExp	0	148	2	45	1	target	1	747	627	48770	13.328	13.308	13.350
ProbeTrack11	5	ProbeTrack	11.2	SCS215a	20100818.101337	20100818.103544	8	0.013328	60	0	60-180	60	106	GapExp	0	149	2	1	1	target	1	733	634	49404	13.328	13.113	13.543
ProbeTrack11	5	ProbeTrack	11.2	SCS215a	20100818.101337	20100818.103550	8	0.013328	60	0	60-180	60	136	GapExp	0	150	2	0	1	target	1	680	660	50064	13.379	12.867	26.660
ProbeTrack11	5	ProbeTrack	11.2	SCS215a	20100818.101337	20100818.103557	8	0.013328	60	10	60-180	60	128	GapExp	0	151	2	45	0	distractor	1	760	620	50684	13.328	13.298	13.361
ProbeTrack11	5	ProbeTrack	11.2	SCS215a	20100818.101337	20100818.103606	8	0.013328	60	0	60-180	60	89	GapExp	0	152	2	1	0	distractor	1	800	600	51284	13.387	13.308	26.652
ProbeTrack11	5	ProbeTrack	11.2	SCS215a	20100818.101337	20100818.103613	8	0.013328	60	0	60-180	60	147	GapExp	0	153	2	45	0	distractor	1	640	680	51964	13.370	12.880	26.664
ProbeTrack11	5	ProbeTrack	11.2	SCS215a	20100818.101337	20100818.103620	8	0.013328	60	0	60-180	60	122	GapExp	0	154	2	45	0	distractor	1	587	707	52671	13.328	13.295	13.355
ProbeTrack11	5	ProbeTrack	11.2	SCS215a	20100818.101337	20100818.103628	8	0.013328	60	0	60-180	60	82	GapExp	0	155	2	45	1	target	1	627	687	53358	13.328	12.897	13.765
ProbeTrack11	5	ProbeTrack	11.2	SCS215a	20100818.101337	20100818.103635	8	0.013328	60	0	60-180	60	75	GapExp	0	156	2	0	0	distractor	1	760	620	53978	13.328	13.264	13.386
ProbeTrack11	5	ProbeTrack	11.2	SCS215a	20100818.101337	20100818.103641	8	0.013328	60	0	60-180	60	120	GapExp	0	157	2	45	1	target	1	720	640	54618	13.328	12.941	13.725
ProbeTrack11	5	ProbeTrack	11.2	SCS215a	20100818.101337	20100818.103649	8	0.013328	60	10	60-180	60	176	GapExp	0	158	2	0	0	distractor	1	1067	467	55085	13.328	12.854	13.812
ProbeTrack11	5	ProbeTrack	11.2	SCS215a	20100818.101337	20100818.103657	8	0.013328	60	0	60-180	60	88	GapExp	0	159	2	3	0	distractor	1	827	587	55672	13.328	12.864	13.789
ProbeTrack11	5	ProbeTrack	11.2	SCS215a	20100818.101337	20100818.103704	8	0.013328	60	10	60-180	60	95	GapExp	0	160	2	45	1	target	1	600	700	56372	13.328	13.164	13.497
ProbeTrack11	5	ProbeTrack	11.2	SCS215a	20100818.101337	20100818.103710	8	0.013328	60	10	60-180	60	166	GapExp	0	161	2	1	0	distractor	1	707	647	57019	13.328	13.105	13.546
ProbeTrack11	5	ProbeTrack	11.2	SCS215a	20100818.101337	20100818.103718	8	0.013328	60	0	60-180	60	168	GapExp	0	162	2	0	0	distractor	1	733	634	57653	13.328	13.100	13.566
ProbeTrack11	5	ProbeTrack	11.2	SCS215a	20100818.101337	20100818.103725	8	0.013328	60	0	60-180	60	127	GapExp	0	163	2	45	0	distractor	1	747	627	58280	13.328	12.874	13.747
ProbeTrack11	5	ProbeTrack	11.2	SCS215a	20100818.101337	20100818.103733	8	0.013328	60	0	60-180	60	99	GapExp	0	164	2	1	0	distractor	1	747	627	58907	13.328	13.044	13.603
ProbeTrack11	5	ProbeTrack	11.2	SCS215a	20100818.101337	20100818.103739	8	0.013328	60	0	60-180	60	82	GapExp	0	165	2	3	1	target	1	1453	274	59181	13.328	13.077	13.591
ProbeTrack11	5	ProbeTrack	11.2	SCS215a	20100818.101337	20100818.103747	8	0.013328	60	0	60-180	60	137	GapExp	0	166	2	3	1	target	1	627	687	59868	13.328	12.914	13.727
ProbeTrack11	5	ProbeTrack	11.2	SCS215a	20100818.101337	20100818.103754	8	0.013328	60	10	60-180	60	94	GapExp	0	167	2	3	1	target	1	560	720	60588	13.623	12.891	52.840
ProbeTrack11	5	ProbeTrack	11.2	SCS215a	20100818.101337	20100818.103802	8	0.013328	60	10	60-180	60	135	GapExp	0	168	2	3	1	target	1	694	653	61241	13.328	12.981	13.661
ProbeTrack11	5	ProbeTrack	11.2	SCS215a	20100818.101337	20100818.103809	8	0.013328	60	10	60-180	60	139	GapExp	0	169	2	1	0	target	0	600	-1000	60241	13.328	12.925	13.725
ProbeTrack11	5	ProbeTrack	11.2	SCS215a	20100818.101337	20100818.103816	8	0.013328	60	10	60-180	60	101	GapExp	0	170	2	3	1	target	1	1173	414	60655	13.328	12.913	13.751
ProbeTrack11	5	ProbeTrack	11.2	SCS215a	20100818.101337	20100818.103823	8	0.013328	60	10	60-180	60	86	GapExp	0	171	2	3	0	target	0	653	-1000	59655	13.328	13.032	13.629
ProbeTrack11	5	ProbeTrack	11.2	SCS215a	20100818.101337	20100818.103830	8	0.013328	60	0	60-180	60	133	GapExp	0	172	2	1	0	distractor	1	947	527	60182	13.328	13.093	13.550
ProbeTrack11	5	ProbeTrack	11.2	SCS215a	20100818.101337	20100818.103838	8	0.013328	60	0	60-180	60	118	GapExp	0	173	2	3	1	target	1	587	707	60889	13.383	12.989	26.782
ProbeTrack11	5	ProbeTrack	11.2	SCS215a	20100818.101337	20100818.103916	8	0.013328	60	0	60-180	60	93	GapExp	0	174	2	1	1	target	1	560	720	61609	13.328	12.883	13.768
ProbeTrack11	5	ProbeTrack	11.2	SCS215a	20100818.101337	20100818.103923	8	0.013328	60	10	60-180	60	132	GapExp	0	175	2	0	1	target	1	507	747	62356	13.328	12.946	13.725
ProbeTrack11	5	ProbeTrack	11.2	SCS215a	20100818.101337	20100818.103929	8	0.013328	60	10	60-180	60	71	GapExp	0	176	2	3	0	distractor	1	1666	167	62523	13.328	13.303	13.346
ProbeTrack11	5	ProbeTrack	11.2	SCS215a	20100818.101337	20100818.103937	8	0.013328	60	10	60-180	60	137	GapExp	0	177	2	3	0	target	0	747	-1000	61523	13.328	12.894	13.769
ProbeTrack11	5	ProbeTrack	11.2	SCS215a	20100818.101337	20100818.103945	8	0.013328	60	10	60-180	60	113	GapExp	0	178	2	1	0	distractor	1	1093	454	61977	13.328	12.988	13.685
ProbeTrack11	5	ProbeTrack	11.2	SCS215a	20100818.101337	20100818.103954	8	0.013328	60	0	60-180	60	72	GapExp	0	179	2	3	1	target	1	720	640	62617	13.328	12.863	13.775
ProbeTrack11	5	ProbeTrack	11.2	SCS215a	20100818.101337	20100818.104001	8	0.013328	60	10	60-180	60	117	GapExp	0	180	2	0	1	target	1	520	740	63357	13.328	12.900	13.769
ProbeTrack11	5	ProbeTrack	11.2	SCS215a	20100818.101337	20100818.104007	8	0.013328	60	0	60-180	60	152	GapExp	0	181	2	45	0	distractor	1	627	687	64044	13.328	12.943	13.725
ProbeTrack11	5	ProbeTrack	11.2	SCS215a	20100818.101337	20100818.104014	8	0.013328	60	0	60-180	60	94	GapExp	0	182	2	0	0	distractor	1	867	567	64611	13.328	13.309	13.345
ProbeTrack11	5	ProbeTrack	11.2	SCS215a	20100818.101337	20100818.104021	8	0.013328	60	0	60-180	60	84	GapExp	0	183	2	0	0	distractor	1	680	660	65271	13.328	12.874	13.745
ProbeTrack11	5	ProbeTrack	11.2	SCS215a	20100818.101337	20100818.104026	8	0.013328	60	0	60-180	60	118	GapExp	0	184	2	45	0	target	0	1280	-1000	64271	13.328	12.936	13.735
ProbeTrack11	5	ProbeTrack	11.2	SCS215a	20100818.101337	20100818.104034	8	0.013328	60	10	60-180	60	179	GapExp	0	185	2	1	1	target	1	893	554	64825	13.328	13.066	13.600
ProbeTrack11	5	ProbeTrack	11.2	SCS215a	20100818.101337	20100818.104041	8	0.013328	60	0	60-180	60	92	GapExp	0	186	2	3	1	target	1	640	680	65505	13.689	13.119	53.371
ProbeTrack11	5	ProbeTrack	11.2	SCS215a	20100818.101337	20100818.104048	8	0.013328	60	10	60-180	60	102	GapExp	0	187	2	3	1	target	1	640	680	66185	13.328	12.859	13.814
ProbeTrack11	5	ProbeTrack	11.2	SCS215a	20100818.101337	20100818.104054	8	0.013328	60	10	60-180	60	118	GapExp	0	188	2	3	1	target	1	467	767	66952	13.328	13.310	13.345
ProbeTrack11	5	ProbeTrack	11.2	SCS215a	20100818.101337	20100818.104100	8	0.013328	60	0	60-180	60	160	GapExp	0	189	2	0	1	target	1	440	780	67732	13.328	13.308	13.345
ProbeTrack11	5	ProbeTrack	11.2	SCS215a	20100818.101337	20100818.104106	8	0.013328	60	10	60-180	60	100	GapExp	0	190	2	1	0	target	0	787	-1000	66732	13.328	12.911	13.742
ProbeTrack11	5	ProbeTrack	11.2	SCS215a	20100818.101337	20100818.104114	8	0.013328	60	10	60-180	60	149	GapExp	0	191	2	3	0	target	0	680	-1000	65732	13.328	12.966	13.683
ProbeTrack11	5	ProbeTrack	11.2	SCS215a	20100818.101337	20100818.104121	8	0.013328	60	10	60-180	60	80	GapExp	0	192	2	0	0	distractor	1	1093	454	66186	13.328	13.308	13.353
ProbeTrack11	5	ProbeTrack	11.2	SCS215a	20100818.101337	20100818.104127	8	0.013328	60	0	60-180	60	77	GapExp	0	193	2	45	0	distractor	1	667	667	66853	13.328	13.291	13.357
ProbeTrack11	5	ProbeTrack	11.2	SCS215a	20100818.101337	20100818.104133	8	0.013328	60	10	60-180	60	175	GapExp	0	194	2	45	0	distractor	1	653	674	67527	13.328	13.159	13.497
ProbeTrack11	5	ProbeTrack	11.2	SCS215a	20100818.101337	20100818.104142	8	0.013328	60	10	60-180	60	131	GapExp	0	195	2	1	0	distractor	1	1067	467	67994	13.328	13.302	13.348
ProbeTrack11	5	ProbeTrack	11.2	SCS215a	20100818.101337	20100818.104149	8	0.013328	60	10	60-180	60	159	GapExp	0	196	2	45	0	distractor	1	827	587	68581	13.328	13.087	13.564
ProbeTrack11	5	ProbeTrack	11.2	SCS215a	20100818.101337	20100818.104158	8	0.013328	60	10	60-180	60	155	GapExp	0	197	2	3	0	distractor	1	1160	420	69001	13.328	13.243	13.401
ProbeTrack11	5	ProbeTrack	11.2	SCS215a	20100818.101337	20100818.104417	8	0.013328	60	0	60-180	60	137	GapExp	0	198	2	3	0	distractor	1	654	673	69674	13.328	12.965	13.690
ProbeTrack11	5	ProbeTrack	11.2	SCS215a	20100818.101337	20100818.104520	8	0.013328	60	10	60-180	60	91	GapExp	0	199	2	0	1	target	1	907	547	70221	13.328	13.107	13.559
ProbeTrack11	5	ProbeTrack	11.2	SCS215a	20100818.101337	20100818.104528	8	0.013328	60	10	60-180	60	62	GapExp	0	200	2	0	1	target	1	707	647	70868	13.461	13.106	26.724
ProbeTrack11	5	ProbeTrack	11.2	SCS215a	20100818.101337	20100818.104536	8	0.013328	60	10	60-180	60	111	GapExp	0	201	2	45	0	distractor	1	693	654	71522	13.328	13.068	13.589
ProbeTrack11	5	ProbeTrack	11.2	SCS215a	20100818.101337	20100818.104621	8	0.013328	60	10	60-180	60	144	GapExp	0	202	2	1	0	distractor	1	1000	500	72022	13.328	13.308	13.347
ProbeTrack11	5	ProbeTrack	11.2	SCS215a	20100818.101337	20100818.104631	8	0.013328	60	10	60-180	60	116	GapExp	0	203	2	0	0	distractor	1	787	607	72629	13.328	13.085	13.565
ProbeTrack11	5	ProbeTrack	11.2	SCS215a	20100818.101337	20100818.104639	8	0.013328	60	0	60-180	60	112	GapExp	0	204	2	1	1	target	1	733	634	73263	13.328	13.097	13.551
ProbeTrack11	5	ProbeTrack	11.2	SCS215a	20100818.101337	20100818.104645	8	0.013328	60	10	60-180	60	129	GapExp	0	205	2	45	0	distractor	1	987	507	73770	13.328	13.308	13.356
ProbeTrack11	5	ProbeTrack	11.2	SCS215a	20100818.101337	20100818.104800	8	0.013328	60	0	60-180	60	73	GapExp	0	206	2	0	0	distractor	1	853	574	74344	13.328	13.302	13.352
ProbeTrack11	5	ProbeTrack	11.2	SCS215a	20100818.101337	20100818.104936	8	0.013328	60	10	60-180	60	65	GapExp	0	207	2	45	1	target	1	653	674	75018	13.328	13.099	13.571
ProbeTrack11	5	ProbeTrack	11.2	SCS215a	20100818.101337	20100818.104942	8	0.013328	60	0	60-180	60	99	GapExp	0	208	2	0	0	distractor	1	733	634	75652	13.328	13.116	13.555
ProbeTrack11	5	ProbeTrack	11.2	SCS215a	20100818.101337	20100818.105050	8	0.013328	60	0	60-180	60	75	GapExp	0	209	2	45	0	distractor	1	747	627	76279	13.328	13.272	13.391
ProbeTrack11	5	ProbeTrack	11.2	SCS215a	20100818.101337	20100818.105056	8	0.013328	60	10	60-180	60	111	GapExp	0	210	2	45	0	distractor	1	893	554	76833	13.328	13.301	13.350
ProbeTrack11	5	ProbeTrack	11.2	SCS215a	20100818.101337	20100818.105103	8	0.013328	60	10	60-180	60	153	GapExp	0	211	2	3	0	distractor	1	840	580	77413	13.328	13.101	13.557
ProbeTrack11	5	ProbeTrack	11.2	SCS215a	20100818.101337	20100818.105111	8	0.013328	60	10	60-180	60	171	GapExp	0	212	2	1	1	distractor	0	907	-1000	76413	13.328	13.095	13.541
ProbeTrack11	5	ProbeTrack	11.2	SCS215a	20100818.101337	20100818.105118	8	0.013328	60	10	60-180	60	87	GapExp	0	213	2	45	0	distractor	1	773	614	77027	13.568	13.100	80.021
ProbeTrack11	5	ProbeTrack	11.2	SCS215a	20100818.101337	20100818.105125	8	0.013328	60	0	60-180	60	66	GapExp	0	214	2	45	1	target	1	920	540	77567	13.328	12.936	13.709
ProbeTrack11	5	ProbeTrack	11.2	SCS215a	20100818.101337	20100818.105131	8	0.013328	60	0	60-180	60	163	GapExp	0	215	2	45	1	target	1	680	660	78227	13.328	13.013	13.630
ProbeTrack11	5	ProbeTrack	11.2	SCS215a	20100818.101337	20100818.105139	8	0.013328	60	10	60-180	60	73	GapExp	0	216	2	45	1	target	1	587	707	78934	13.328	13.034	13.575
ProbeTrack11	5	ProbeTrack	11.2	SCS215a	20100818.101337	20100818.105145	8	0.013328	60	10	60-180	60	145	GapExp	0	217	2	1	1	target	1	614	693	79627	13.328	13.027	13.633
ProbeTrack11	5	ProbeTrack	11.2	SCS215a	20100818.101337	20100818.105152	8	0.013328	60	0	60-180	60	97	GapExp	0	218	2	45	0	distractor	1	1173	414	80041	13.328	13.119	13.532
ProbeTrack11	5	ProbeTrack	11.2	SCS215a	20100818.101337	20100818.105159	8	0.013328	60	0	60-180	60	75	GapExp	0	219	2	0	1	target	1	933	534	80575	13.328	13.309	13.347
ProbeTrack11	5	ProbeTrack	11.2	SCS215a	20100818.101337	20100818.105205	8	0.013328	60	0	60-180	60	111	GapExp	0	220	2	1	1	target	1	600	700	81275	13.328	13.076	13.583
ProbeTrack11	5	ProbeTrack	11.2	SCS215a	20100818.101337	20100818.105211	8	0.013328	60	10	60-180	60	150	GapExp	0	221	2	45	1	target	1	574	713	81988	13.328	12.852	13.800
ProbeTrack11	5	ProbeTrack	11.2	SCS215a	20100818.101337	20100818.105220	8	0.013328	60	10	60-180	60	115	GapExp	0	222	2	1	1	target	1	654	673	82661	13.328	13.309	13.349
ProbeTrack11	5	ProbeTrack	11.2	SCS215a	20100818.101337	20100818.105227	8	0.013328	60	10	60-180	60	121	GapExp	0	223	2	3	1	target	1	947	527	83188	13.328	13.307	13.349
ProbeTrack11	5	ProbeTrack	11.2	SCS215a	20100818.101337	20100818.105233	8	0.013328	60	0	60-180	60	64	GapExp	0	224	2	45	1	target	1	693	654	83842	13.328	12.901	13.751
ProbeTrack11	5	ProbeTrack	11.2	SCS215a	20100818.101337	20100818.105241	8	0.013328	60	0	60-180	60	153	GapExp	0	225	2	0	1	target	1	534	733	84575	13.328	13.139	13.517
ProbeTrack11	5	ProbeTrack	11.2	SCS215a	20100818.101337	20100818.105248	8	0.013328	60	10	60-180	60	148	GapExp	0	226	2	45	1	target	1	494	753	85328	13.328	13.308	13.348
ProbeTrack11	5	ProbeTrack	11.2	SCS215a	20100818.101337	20100818.105255	8	0.013328	60	0	60-180	60	143	GapExp	0	227	2	0	1	target	1	627	687	86015	13.328	13.096	13.550
ProbeTrack11	5	ProbeTrack	11.2	SCS215a	20100818.101337	20100818.105303	8	0.013328	60	0	60-180	60	96	GapExp	0	228	2	1	1	target	1	547	727	86742	13.328	13.309	13.348
ProbeTrack11	5	ProbeTrack	11.2	SCS215a	20100818.101337	20100818.105310	8	0.013328	60	0	60-180	60	164	GapExp	0	229	2	1	1	target	1	547	727	87469	13.328	13.098	13.565
ProbeTrack11	5	ProbeTrack	11.2	SCS215a	20100818.101337	20100818.105318	8	0.013328	60	0	60-180	60	154	GapExp	0	230	2	3	1	distractor	0	600	-1000	86469	13.328	13.086	13.552
ProbeTrack11	5	ProbeTrack	11.2	SCS215a	20100818.101337	20100818.105327	8	0.013328	60	0	60-180	60	139	GapExp	0	231	2	0	0	distractor	1	773	614	87083	13.328	12.927	13.735
ProbeTrack11	5	ProbeTrack	11.2	SCS215a	20100818.101337	20100818.105335	8	0.013328	60	10	60-180	60	61	GapExp	0	232	2	1	0	distractor	1	1680	160	87243	13.328	12.857	13.784
ProbeTrack11	5	ProbeTrack	11.2	SCS215a	20100818.101337	20100818.105343	8	0.013328	60	0	60-180	60	83	GapExp	0	233	2	1	0	distractor	1	614	693	87936	13.328	13.025	13.624
ProbeTrack11	5	ProbeTrack	11.2	SCS215a	20100818.101337	20100818.105348	8	0.013328	60	10	60-180	60	136	GapExp	0	234	2	0	0	distractor	1	907	547	88483	13.328	12.955	13.686
ProbeTrack11	5	ProbeTrack	11.2	SCS215a	20100818.101337	20100818.105355	8	0.013328	60	10	60-180	60	79	GapExp	0	235	2	3	1	target	1	600	700	89183	13.328	12.961	13.706
ProbeTrack11	5	ProbeTrack	11.2	SCS215a	20100818.101337	20100818.105402	8	0.013328	60	0	60-180	60	161	GapExp	0	236	2	45	0	distractor	1	1160	420	89603	13.328	12.899	13.765
ProbeTrack11	5	ProbeTrack	11.2	SCS215a	20100818.101337	20100818.105412	8	0.013328	60	0	60-180	60	142	GapExp	0	237	2	0	1	target	1	733	634	90237	13.328	12.862	13.793
ProbeTrack11	5	ProbeTrack	11.2	SCS215a	20100818.101337	20100818.105418	8	0.013328	60	10	60-180	60	174	GapExp	0	238	2	45	1	target	1	694	653	90890	13.328	13.304	13.346
ProbeTrack11	5	ProbeTrack	11.2	SCS215a	20100818.101337	20100818.105426	8	0.013328	60	0	60-180	60	116	GapExp	0	239	2	3	1	target	1	587	707	91597	13.383	13.307	26.666
ProbeTrack11	5	ProbeTrack	11.2	SCS215a	20100818.101337	20100818.105433	8	0.013328	60	10	60-180	60	100	GapExp	0	240	2	1	0	distractor	1	787	607	92204	13.328	13.308	13.347
ProbeTrack11	5	ProbeTrack	11.2	SCS215a	20100818.101337	20100818.105439	8	0.013328	60	10	60-180	60	121	GapExp	0	241	2	0	0	target	0	613	-1000	91204	13.328	13.307	13.347
ProbeTrack11	5	ProbeTrack	11.2	SCS215a	20100818.101337	20100818.105446	8	0.013328	60	0	60-180	60	71	GapExp	0	242	2	1	0	distractor	1	813	594	91798	13.328	13.307	13.351
ProbeTrack11	5	ProbeTrack	11.2	SCS215a	20100818.101337	20100818.105603	8	0.013328	60	0	60-180	60	79	GapExp	0	243	2	3	0	distractor	1	747	627	92425	13.328	13.234	13.412
ProbeTrack11	5	ProbeTrack	11.2	SCS215a	20100818.101337	20100818.105609	8	0.013328	60	0	60-180	60	172	GapExp	0	244	2	45	1	target	1	734	633	93058	13.328	13.289	13.362
ProbeTrack11	5	ProbeTrack	11.2	SCS215a	20100818.101337	20100818.105616	8	0.013328	60	0	60-180	60	170	GapExp	0	245	2	1	1	target	1	574	713	93771	13.328	13.260	13.376
ProbeTrack11	5	ProbeTrack	11.2	SCS215a	20100818.101337	20100818.105623	8	0.013328	60	10	60-180	60	97	GapExp	0	246	2	3	1	target	1	547	727	94498	13.328	12.847	13.800
ProbeTrack11	5	ProbeTrack	11.2	SCS215a	20100818.101337	20100818.105631	8	0.013328	60	10	60-180	60	155	GapExp	0	247	2	0	0	distractor	1	1067	467	94965	13.328	13.302	13.349
ProbeTrack11	5	ProbeTrack	11.2	SCS215a	20100818.101337	20100818.105638	8	0.013328	60	0	60-180	60	76	GapExp	0	248	2	3	0	distractor	1	733	634	95599	13.328	13.297	13.353
ProbeTrack11	5	ProbeTrack	11.2	SCS215a	20100818.101337	20100818.105644	8	0.013328	60	10	60-180	60	80	GapExp	0	249	2	45	1	distractor	0	853	-1000	94599	13.328	12.847	13.808
ProbeTrack11	5	ProbeTrack	11.2	SCS215a	20100818.101337	20100818.105651	8	0.013328	60	10	60-180	60	103	GapExp	0	250	2	45	0	distractor	1	627	687	95286	13.328	12.952	13.697
ProbeTrack11	5	ProbeTrack	11.2	SCS215a	20100818.101337	20100818.105657	8	0.013328	60	0	60-180	60	77	GapExp	0	251	2	3	1	target	1	507	747	96033	13.328	13.115	13.541
ProbeTrack11	5	ProbeTrack	11.2	SCS215a	20100818.101337	20100818.105703	8	0.013328	60	10	60-180	60	108	GapExp	0	252	2	1	0	target	0	547	-1000	95033	13.328	13.104	13.558
ProbeTrack11	5	ProbeTrack	11.2	SCS215a	20100818.101337	20100818.105710	8	0.013328	60	0	60-180	60	143	GapExp	0	253	2	1	1	target	1	454	773	95806	13.328	13.100	13.563
ProbeTrack11	5	ProbeTrack	11.2	SCS215a	20100818.101337	20100818.105717	8	0.013328	60	10	60-180	60	149	GapExp	0	254	2	45	1	target	1	574	713	96519	13.328	12.882	13.781
ProbeTrack11	5	ProbeTrack	11.2	SCS215a	20100818.101337	20100818.105725	8	0.013328	60	10	60-180	60	66	GapExp	0	255	2	0	0	distractor	1	1000	500	97019	13.328	12.880	13.781
ProbeTrack11	5	ProbeTrack	11.2	SCS215a	20100818.101337	20100818.105730	8	0.013328	60	0	60-180	60	179	GapExp	0	256	2	1	0	distractor	1	733	634	97653	13.328	13.311	13.348
ProbeTrack11	5	ProbeTrack	11.2	SCS215a	20100818.101337	20100818.105739	8	0.013328	60	0	60-180	60	141	GapExp	0	257	2	1	1	target	1	1187	407	98060	13.328	13.184	13.474
ProbeTrack11	5	ProbeTrack	11.2	SCS215a	20100818.101337	20100818.105748	8	0.013328	60	10	60-180	60	78	GapExp	0	258	2	45	1	target	1	494	753	98813	13.328	13.081	13.574
ProbeTrack11	5	ProbeTrack	11.2	SCS215a	20100818.101337	20100818.105754	8	0.013328	60	0	60-180	60	100	GapExp	0	259	2	3	1	target	1	467	767	99580	13.328	13.303	13.346
ProbeTrack11	5	ProbeTrack	11.2	SCS215a	20100818.101337	20100818.105800	8	0.013328	60	0	60-180	60	178	GapExp	0	260	2	0	0	distractor	1	640	680	100260	13.328	13.310	13.348
ProbeTrack11	5	ProbeTrack	11.2	SCS215a	20100818.101337	20100818.105808	8	0.013328	60	10	60-180	60	146	GapExp	0	261	2	1	1	target	1	587	707	100967	13.328	12.911	13.732
ProbeTrack11	5	ProbeTrack	11.2	SCS215a	20100818.101337	20100818.105816	8	0.013328	60	0	60-180	60	68	GapExp	0	262	2	3	0	distractor	1	693	654	101621	13.328	13.304	13.348
ProbeTrack11	5	ProbeTrack	11.2	SCS215a	20100818.101337	20100818.105822	8	0.013328	60	0	60-180	60	112	GapExp	0	263	2	1	1	target	1	640	680	102301	13.328	12.974	13.784
ProbeTrack11	5	ProbeTrack	11.2	SCS215a	20100818.101337	20100818.105828	8	0.013328	60	10	60-180	60	117	GapExp	0	264	2	45	0	distractor	1	547	727	103028	13.328	13.307	13.345
ProbeTrack11	5	ProbeTrack	11.2	SCS215a	20100818.101337	20100818.105836	8	0.013328	60	10	60-180	60	123	GapExp	0	265	2	45	1	target	1	547	727	103755	13.328	13.015	13.650
ProbeTrack11	5	ProbeTrack	11.2	SCS215a	20100818.101337	20100818.105843	8	0.013328	60	0	60-180	60	98	GapExp	0	266	2	1	1	target	1	533	734	104489	13.328	13.308	13.348
ProbeTrack11	5	ProbeTrack	11.2	SCS215a	20100818.101337	20100818.105850	8	0.013328	60	10	60-180	60	95	GapExp	0	267	2	45	1	target	1	587	707	105196	13.328	12.941	13.706
ProbeTrack11	5	ProbeTrack	11.2	SCS215a	20100818.101337	20100818.105859	8	0.013328	60	10	60-180	60	132	GapExp	0	268	2	1	1	target	1	507	747	105943	13.328	13.099	13.550
ProbeTrack11	5	ProbeTrack	11.2	SCS215a	20100818.101337	20100818.105908	8	0.013328	60	10	60-180	60	171	GapExp	0	269	2	3	1	target	1	507	747	106690	13.328	13.085	13.581
ProbeTrack11	5	ProbeTrack	11.2	SCS215a	20100818.101337	20100818.105916	8	0.013328	60	10	60-180	60	130	GapExp	0	270	2	1	0	target	0	427	-1000	105690	13.328	12.845	13.811
ProbeTrack11	5	ProbeTrack	11.2	SCS215a	20100818.101337	20100818.105924	8	0.013328	60	10	60-180	60	138	GapExp	0	271	2	0	1	target	1	587	707	106397	13.328	13.103	13.541
ProbeTrack11	5	ProbeTrack	11.2	SCS215a	20100818.101337	20100818.105930	8	0.013328	60	10	60-180	60	157	GapExp	0	272	2	1	1	target	1	600	700	107097	13.328	13.091	13.553
ProbeTrack11	5	ProbeTrack	11.2	SCS215a	20100818.101337	20100818.105937	8	0.013328	60	10	60-180	60	76	GapExp	0	273	2	45	1	target	1	493	754	107851	13.492	13.103	26.843
ProbeTrack11	5	ProbeTrack	11.2	SCS215a	20100818.101337	20100818.105944	8	0.013328	60	0	60-180	60	117	GapExp	0	274	2	3	0	distractor	1	614	693	108544	13.328	12.871	13.797
ProbeTrack11	5	ProbeTrack	11.2	SCS215a	20100818.101337	20100818.110002	8	0.013328	60	10	60-180	60	93	GapExp	0	275	2	1	1	target	1	627	687	109231	13.328	13.305	13.347
ProbeTrack11	5	ProbeTrack	11.2	SCS215a	20100818.101337	20100818.110008	8	0.013328	60	0	60-180	60	109	GapExp	0	276	2	0	0	distractor	1	707	647	109878	13.328	13.309	13.347
ProbeTrack11	5	ProbeTrack	11.2	SCS215a	20100818.101337	20100818.110014	8	0.013328	60	0	60-180	60	65	GapExp	0	277	2	45	0	distractor	1	667	667	110545	13.328	13.049	13.603
ProbeTrack11	5	ProbeTrack	11.2	SCS215a	20100818.101337	20100818.110020	8	0.013328	60	0	60-180	60	136	GapExp	0	278	2	1	0	distractor	1	733	634	111179	13.328	12.998	13.660
ProbeTrack11	5	ProbeTrack	11.2	SCS215a	20100818.101337	20100818.110027	8	0.013328	60	0	60-180	60	161	GapExp	0	279	2	45	1	target	1	1094	453	111632	13.328	13.308	13.346
ProbeTrack11	5	ProbeTrack	11.2	SCS215a	20100818.101337	20100818.110036	8	0.013328	60	10	60-180	60	147	GapExp	0	280	2	45	0	target	0	547	-1000	110632	13.328	12.909	13.742
ProbeTrack11	5	ProbeTrack	11.2	SCS215a	20100818.101337	20100818.110045	8	0.013328	60	0	60-180	60	172	GapExp	0	281	2	3	0	distractor	1	907	547	111179	13.328	13.309	13.346
ProbeTrack11	5	ProbeTrack	11.2	SCS215a	20100818.101337	20100818.110317	8	0.013328	60	0	60-180	60	157	GapExp	0	282	2	45	0	distractor	1	707	647	111826	13.328	12.922	13.740
ProbeTrack11	5	ProbeTrack	11.2	SCS215a	20100818.101337	20100818.110333	8	0.013328	60	10	60-180	60	100	GapExp	0	283	2	3	0	distractor	1	720	640	112466	13.328	13.111	13.548
ProbeTrack11	5	ProbeTrack	11.2	SCS215a	20100818.101337	20100818.110342	8	0.013328	60	0	60-180	60	96	GapExp	0	284	2	0	0	distractor	1	760	620	113086	13.328	12.949	13.692
ProbeTrack11	5	ProbeTrack	11.2	SCS215a	20100818.101337	20100818.110348	8	0.013328	60	10	60-180	60	123	GapExp	0	285	2	0	0	distractor	1	720	640	113726	13.328	12.847	13.812
ProbeTrack11	5	ProbeTrack	11.2	SCS215a	20100818.101337	20100818.110356	8	0.013328	60	10	60-180	60	68	GapExp	0	286	2	45	0	distractor	1	693	654	114380	13.328	12.870	13.790
ProbeTrack11	5	ProbeTrack	11.2	SCS215a	20100818.101337	20100818.110402	8	0.013328	60	10	60-180	60	133	GapExp	0	287	2	1	0	distractor	1	1093	454	114834	13.328	12.877	13.793
ProbeTrack11	5	ProbeTrack	11.2	SCS215a	20100818.101337	20100818.110410	8	0.013328	60	0	60-180	60	88	GapExp	0	288	2	3	1	target	1	1346	327	115161	13.328	13.091	13.565
ProbeTrack11	5	ProbeTrack	11.2	SCS215a	20100818.101337	20100818.110418	8	0.013328	60	0	60-180	60	156	GapExp	0	289	2	45	0	distractor	1	1027	487	115648	13.328	12.844	13.807
ProbeTrack11	5	ProbeTrack	11.2	SCS215a	20100818.101337	20100818.110428	8	0.013328	60	0	60-180	60	171	GapExp	0	290	2	0	1	target	1	680	660	116308	13.328	13.096	13.550
ProbeTrack11	5	ProbeTrack	11.2	SCS215a	20100818.101337	20100818.110437	8	0.013328	60	10	60-180	60	95	GapExp	0	291	2	3	0	distractor	1	987	507	116815	13.328	13.190	13.465
ProbeTrack11	5	ProbeTrack	11.2	SCS215a	20100818.101337	20100818.110529	8	0.013328	60	10	60-180	60	163	GapExp	0	292	2	45	0	distractor	1	947	527	117342	13.328	13.309	13.348
ProbeTrack11	5	ProbeTrack	11.2	SCS215a	20100818.101337	20100818.110538	8	0.013328	60	10	60-180	60	149	GapExp	0	293	2	0	1	target	1	813	594	117936	13.328	12.865	13.775
ProbeTrack11	5	ProbeTrack	11.2	SCS215a	20100818.101337	20100818.110547	8	0.013328	60	10	60-180	60	134	GapExp	0	294	2	0	0	target	0	1120	-1000	116936	13.328	13.014	13.653
ProbeTrack11	5	ProbeTrack	11.2	SCS215a	20100818.101337	20100818.110556	8	0.013328	60	0	60-180	60	94	GapExp	0	295	2	3	1	target	1	667	667	117603	13.328	13.035	13.608
ProbeTrack11	5	ProbeTrack	11.2	SCS215a	20100818.101337	20100818.110606	8	0.013328	60	0	60-180	60	118	GapExp	0	296	2	1	1	target	1	547	727	118330	13.328	12.923	13.730
ProbeTrack11	5	ProbeTrack	11.2	SCS215a	20100818.101337	20100818.110618	8	0.013328	60	10	60-180	60	86	GapExp	0	297	2	3	1	target	1	507	747	119077	13.328	13.306	13.345
ProbeTrack11	5	ProbeTrack	11.2	SCS215a	20100818.101337	20100818.110627	8	0.013328	60	10	60-180	60	137	GapExp	0	298	2	1	0	target	0	840	-1000	118077	13.328	13.275	13.372
ProbeTrack11	5	ProbeTrack	11.2	SCS215a	20100818.101337	20100818.110637	8	0.013328	60	0	60-180	60	94	GapExp	0	299	2	3	1	target	1	587	707	118784	13.328	13.305	13.356
ProbeTrack11	5	ProbeTrack	11.2	SCS215a	20100818.101337	20100818.110730	8	0.013328	60	0	60-180	60	151	GapExp	0	300	2	0	0	distractor	1	520	740	119524	13.328	13.293	13.362
ProbeTrack11	5	ProbeTrack	11.2	SCS215a	20100818.101337	20100818.110738	8	0.013328	60	0	60-180	60	155	GapExp	0	301	2	1	0	distractor	1	520	740	120264	13.328	12.883	13.763
ProbeTrack11	5	ProbeTrack	11.2	SCS215a	20100818.101337	20100818.110745	8	0.013328	60	10	60-180	60	89	GapExp	0	302	2	0	1	target	1	667	667	120931	13.328	13.309	13.347
ProbeTrack11	5	ProbeTrack	11.2	SCS215a	20100818.101337	20100818.110751	8	0.013328	60	0	60-180	60	156	GapExp	0	303	2	1	1	target	1	400	800	121731	13.328	13.309	13.349
ProbeTrack11	5	ProbeTrack	11.2	SCS215a	20100818.101337	20100818.110758	8	0.013328	60	0	60-180	60	153	GapExp	0	304	2	1	0	distractor	1	773	614	122345	13.328	13.307	13.346
ProbeTrack11	5	ProbeTrack	11.2	SCS215a	20100818.101337	20100818.110805	8	0.013328	60	10	60-180	60	77	GapExp	0	305	2	0	1	target	1	574	713	123058	13.456	12.872	40.339
ProbeTrack11	5	ProbeTrack	11.2	SCS215a	20100818.101337	20100818.110811	8	0.013328	60	0	60-180	60	93	GapExp	0	306	2	1	0	distractor	1	680	660	123718	13.328	12.886	13.750
ProbeTrack11	5	ProbeTrack	11.2	SCS215a	20100818.101337	20100818.110817	8	0.013328	60	10	60-180	60	107	GapExp	0	307	2	3	1	target	1	494	753	124471	13.385	13.174	26.817
ProbeTrack11	5	ProbeTrack	11.2	SCS215a	20100818.101337	20100818.110824	8	0.013328	60	10	60-180	60	160	GapExp	0	308	2	0	1	target	1	787	607	125078	13.328	12.924	13.732
ProbeTrack11	5	ProbeTrack	11.2	SCS215a	20100818.101337	20100818.110833	8	0.013328	60	10	60-180	60	157	GapExp	0	309	2	1	1	target	1	653	674	125752	13.328	12.888	13.769
ProbeTrack11	5	ProbeTrack	11.2	SCS215a	20100818.101337	20100818.110840	8	0.013328	60	10	60-180	60	99	GapExp	0	310	2	0	1	target	1	547	727	126479	13.328	12.894	13.800
ProbeTrack11	5	ProbeTrack	11.2	SCS215a	20100818.101337	20100818.110847	8	0.013328	60	0	60-180	60	140	GapExp	0	311	2	1	1	target	1	547	727	127206	13.328	13.127	13.516
ProbeTrack11	5	ProbeTrack	11.2	SCS215a	20100818.101337	20100818.110853	8	0.013328	60	10	60-180	60	144	GapExp	0	312	2	0	0	distractor	1	773	614	127820	13.805	12.866	53.540
ProbeTrack11	5	ProbeTrack	11.2	SCS215a	20100818.101337	20100818.110900	8	0.013328	60	10	60-180	60	114	GapExp	0	313	2	3	1	target	1	587	707	128527	13.328	13.302	13.353
ProbeTrack11	5	ProbeTrack	11.2	SCS215a	20100818.101337	20100818.110907	8	0.013328	60	0	60-180	60	163	GapExp	0	314	2	3	1	target	1	480	760	129287	13.328	13.308	13.356
ProbeTrack11	5	ProbeTrack	11.2	SCS215a	20100818.101337	20100818.110913	8	0.013328	60	0	60-180	60	96	GapExp	0	315	2	3	0	distractor	1	747	627	129914	13.328	13.250	13.393
ProbeTrack11	5	ProbeTrack	11.2	SCS215a	20100818.101337	20100818.110919	8	0.013328	60	0	60-180	60	72	GapExp	0	316	2	0	1	target	1	520	740	130654	13.328	12.852	13.791
ProbeTrack11	5	ProbeTrack	11.2	SCS215a	20100818.101337	20100818.110925	8	0.013328	60	0	60-180	60	77	GapExp	0	317	2	0	1	target	1	520	740	131394	13.328	13.116	13.541
ProbeTrack11	5	ProbeTrack	11.2	SCS215a	20100818.101337	20100818.110931	8	0.013328	60	0	60-180	60	101	GapExp	0	318	2	0	1	target	1	427	787	132181	13.518	12.916	26.752
ProbeTrack11	5	ProbeTrack	11.2	SCS215a	20100818.101337	20100818.110937	8	0.013328	60	0	60-180	60	63	GapExp	0	319	2	0	1	target	1	534	733	132914	13.328	12.994	13.663
ProbeTrack11	5	ProbeTrack	11.2	SCS215a	20100818.101337	20100818.110942	8	0.013328	60	10	60-180	60	119	GapExp	0	320	2	45	0	distractor	1	560	720	133634	13.328	13.241	13.406
ProbeTrack11	5	ProbeTrack	11.2	SCS215a	20100818.101337	20100818.110949	8	0.013328	60	10	60-180	60	175	GapExp	0	321	2	3	0	distractor	1	427	787	134421	13.328	12.929	13.732
ProbeTrack11	5	ProbeTrack	11.2	SCS215a	20100818.101337	20100818.110956	8	0.013328	60	0	60-180	60	145	GapExp	0	322	2	3	0	distractor	1	587	707	135128	13.378	12.893	26.792
ProbeTrack11	5	ProbeTrack	11.2	SCS215a	20100818.101337	20100818.111002	8	0.013328	60	10	60-180	60	144	GapExp	0	323	2	1	0	target	0	693	-1000	134128	13.328	13.309	13.349
ProbeTrack11	5	ProbeTrack	11.2	SCS215a	20100818.101337	20100818.111009	8	0.013328	60	0	60-180	60	170	GapExp	0	324	2	45	1	target	1	667	667	134795	13.328	12.873	13.789
ProbeTrack11	5	ProbeTrack	11.2	SCS215a	20100818.101337	20100818.111047	8	0.013328	60	10	60-180	60	156	GapExp	0	325	2	0	1	target	1	534	733	135528	13.328	12.909	13.606
ProbeTrack11	5	ProbeTrack	11.2	SCS215a	20100818.101337	20100818.111054	8	0.013328	60	0	60-180	60	149	GapExp	0	326	2	3	0	distractor	1	560	720	136248	13.328	13.307	13.347
ProbeTrack11	5	ProbeTrack	11.2	SCS215a	20100818.101337	20100818.111101	8	0.013328	60	0	60-180	60	104	GapExp	0	327	2	45	1	target	1	587	707	136955	13.328	13.085	13.566
ProbeTrack11	5	ProbeTrack	11.2	SCS215a	20100818.101337	20100818.111108	8	0.013328	60	10	60-180	60	95	GapExp	0	328	2	45	1	target	1	467	767	137722	13.328	12.832	13.813
ProbeTrack11	5	ProbeTrack	11.2	SCS215a	20100818.101337	20100818.111114	8	0.013328	60	10	60-180	60	78	GapExp	0	329	2	3	0	target	0	720	-1000	136722	13.328	12.888	13.774
ProbeTrack11	5	ProbeTrack	11.2	SCS215a	20100818.101337	20100818.111121	8	0.013328	60	0	60-180	60	90	GapExp	0	330	2	1	1	target	1	534	733	137455	13.328	13.102	13.555
ProbeTrack11	5	ProbeTrack	11.2	SCS215a	20100818.101337	20100818.111127	8	0.013328	60	0	60-180	60	113	GapExp	0	331	2	45	1	target	1	613	694	138149	13.328	12.883	13.787
ProbeTrack11	5	ProbeTrack	11.2	SCS215a	20100818.101337	20100818.111134	8	0.013328	60	0	60-180	60	69	GapExp	0	332	2	1	0	distractor	1	587	707	138856	13.328	13.275	13.362
ProbeTrack11	5	ProbeTrack	11.2	SCS215a	20100818.101337	20100818.111139	8	0.013328	60	10	60-180	60	77	GapExp	0	333	2	1	0	distractor	1	1640	180	139036	13.328	12.982	13.670
ProbeTrack11	5	ProbeTrack	11.2	SCS215a	20100818.101337	20100818.111146	8	0.013328	60	10	60-180	60	112	GapExp	0	334	2	3	0	target	0	574	-1000	138036	13.328	13.013	13.637
ProbeTrack11	5	ProbeTrack	11.2	SCS215a	20100818.101337	20100818.111152	8	0.013328	60	10	60-180	60	96	GapExp	0	335	2	45	0	distractor	1	640	680	138716	13.328	12.911	13.755
ProbeTrack11	5	ProbeTrack	11.2	SCS215a	20100818.101337	20100818.111159	8	0.013328	60	10	60-180	60	109	GapExp	0	336	2	0	0	distractor	1	680	660	139376	13.328	12.855	13.802
ProbeTrack11	5	ProbeTrack	11.2	SCS215a	20100818.101337	20100818.111205	8	0.013328	60	10	60-180	60	168	GapExp	0	337	2	45	1	distractor	0	587	-1000	138376	13.328	12.847	13.806
ProbeTrack11	5	ProbeTrack	11.2	SCS215a	20100818.101337	20100818.111213	8	0.013328	60	0	60-180	60	116	GapExp	0	338	2	3	0	distractor	1	693	654	139030	13.328	12.938	13.720
ProbeTrack11	5	ProbeTrack	11.2	SCS215a	20100818.101337	20100818.111333	8	0.013328	60	0	60-180	60	145	GapExp	0	339	2	45	0	distractor	1	613	694	139724	13.328	13.309	13.350
ProbeTrack11	5	ProbeTrack	11.2	SCS215a	20100818.101337	20100818.111349	8	0.013328	60	10	60-180	60	86	GapExp	0	340	2	1	0	distractor	1	560	720	140444	13.328	13.148	13.508
ProbeTrack11	5	ProbeTrack	11.2	SCS215a	20100818.101337	20100818.111355	8	0.013328	60	0	60-180	60	92	GapExp	0	341	2	0	1	target	1	653	674	141118	13.328	13.308	13.346
ProbeTrack11	5	ProbeTrack	11.2	SCS215a	20100818.101337	20100818.111401	8	0.013328	60	0	60-180	60	180	GapExp	0	342	2	0	1	target	1	454	773	141891	13.328	12.904	13.758
ProbeTrack11	5	ProbeTrack	11.2	SCS215a	20100818.101337	20100818.111409	8	0.013328	60	0	60-180	60	123	GapExp	0	343	2	45	1	target	1	573	714	142605	13.328	13.308	13.347
ProbeTrack11	5	ProbeTrack	11.2	SCS215a	20100818.101337	20100818.111436	8	0.013328	60	0	60-180	60	135	GapExp	0	344	2	45	1	target	1	573	714	143319	13.328	12.800	13.838
ProbeTrack11	5	ProbeTrack	11.2	SCS215a	20100818.101337	20100818.111443	8	0.013328	60	0	60-180	60	119	GapExp	0	345	2	1	0	distractor	1	760	620	143939	13.328	13.308	13.346
ProbeTrack11	5	ProbeTrack	11.2	SCS215a	20100818.101337	20100818.111450	8	0.013328	60	0	60-180	60	103	GapExp	0	346	2	0	1	target	1	640	680	144619	13.328	13.021	13.624
ProbeTrack11	5	ProbeTrack	11.2	SCS215a	20100818.101337	20100818.111457	8	0.013328	60	10	60-180	60	133	GapExp	0	347	2	1	1	target	1	853	574	145193	13.328	13.087	13.575
ProbeTrack11	5	ProbeTrack	11.2	SCS215a	20100818.101337	20100818.111503	8	0.013328	60	10	60-180	60	72	GapExp	0	348	2	0	1	target	1	480	760	145953	13.328	13.216	13.449
ProbeTrack11	5	ProbeTrack	11.2	SCS215a	20100818.101337	20100818.111509	8	0.013328	60	0	60-180	60	161	GapExp	0	349	2	1	0	distractor	1	574	713	146666	13.328	13.106	13.558
ProbeTrack11	5	ProbeTrack	11.2	SCS215a	20100818.101337	20100818.111516	8	0.013328	60	0	60-180	60	129	GapExp	0	350	2	0	1	target	1	427	787	147453	13.328	13.096	13.554
ProbeTrack11	5	ProbeTrack	11.2	SCS215a	20100818.101337	20100818.111522	8	0.013328	60	10	60-180	60	78	GapExp	0	351	2	3	0	target	0	414	-1000	146453	13.328	13.309	13.347
ProbeTrack11	5	ProbeTrack	11.2	SCS215a	20100818.101337	20100818.111528	8	0.013328	60	0	60-180	60	166	GapExp	0	352	2	0	0	distractor	1	680	660	147113	13.328	12.855	13.794
ProbeTrack11	5	ProbeTrack	11.2	SCS215a	20100818.101337	20100818.111535	8	0.013328	60	0	60-180	60	65	GapExp	0	353	2	1	0	distractor	1	840	580	147693	13.328	13.097	13.564
ProbeTrack11	5	ProbeTrack	11.2	SCS215a	20100818.101337	20100818.111541	8	0.013328	60	0	60-180	60	103	GapExp	0	354	2	0	0	distractor	1	587	707	148400	13.328	12.945	13.717
ProbeTrack11	5	ProbeTrack	11.2	SCS215a	20100818.101337	20100818.111547	8	0.013328	60	0	60-180	60	73	GapExp	0	355	2	1	1	target	1	627	687	149087	13.328	13.282	13.382
ProbeTrack11	5	ProbeTrack	11.2	SCS215a	20100818.101337	20100818.111552	8	0.013328	60	10	60-180	60	162	GapExp	0	356	2	3	1	target	1	680	660	149747	13.328	13.304	13.348
ProbeTrack11	5	ProbeTrack	11.2	SCS215a	20100818.101337	20100818.111559	8	0.013328	60	10	60-180	60	103	GapExp	0	357	2	3	1	target	1	574	713	150460	13.328	13.305	13.347
ProbeTrack11	5	ProbeTrack	11.2	SCS215a	20100818.101337	20100818.111605	8	0.013328	60	10	60-180	60	107	GapExp	0	358	2	3	0	distractor	1	1146	427	150887	13.328	13.107	13.543
ProbeTrack11	5	ProbeTrack	11.2	SCS215a	20100818.101337	20100818.111612	8	0.013328	60	0	60-180	60	150	GapExp	0	359	2	3	0	distractor	1	1400	300	151187	13.328	13.089	13.565
ProbeTrack11	5	ProbeTrack	11.2	SCS215a	20100818.101337	20100818.111651	8	0.013328	60	10	60-180	60	72	GapExp	0	360	2	45	0	distractor	1	573	714	151901	13.328	13.309	13.347
ProbeTrack11	5	ProbeTrack	11.2	SCS215a	20100818.101337	20100818.111709	8	0.013328	60	0	60-180	60	69	GapExp	0	361	2	0	1	target	1	1186	407	152308	13.328	13.306	13.350
ProbeTrack11	5	ProbeTrack	11.2	SCS215a	20100818.101337	20100818.111716	8	0.013328	60	10	60-180	60	137	GapExp	0	362	2	3	1	target	1	893	554	152862	13.328	12.859	13.784
ProbeTrack11	5	ProbeTrack	11.2	SCS215a	20100818.101337	20100818.111723	8	0.013328	60	0	60-180	60	173	GapExp	0	363	2	0	0	distractor	1	587	707	153569	13.328	13.308	13.347
ProbeTrack11	5	ProbeTrack	11.2	SCS215a	20100818.101337	20100818.111737	8	0.013328	60	10	60-180	60	109	GapExp	0	364	2	1	0	distractor	1	1173	414	153983	13.328	13.305	13.347
ProbeTrack11	5	ProbeTrack	11.2	SCS215a	20100818.101337	20100818.111744	8	0.013328	60	0	60-180	60	93	GapExp	0	365	2	45	1	target	1	587	707	154690	13.328	12.931	13.724
ProbeTrack11	5	ProbeTrack	11.2	SCS215a	20100818.101337	20100818.111751	8	0.013328	60	10	60-180	60	112	GapExp	0	366	2	3	0	target	0	1080	-1000	153690	13.328	13.307	13.347
ProbeTrack11	5	ProbeTrack	11.2	SCS215a	20100818.101337	20100818.111757	8	0.013328	60	10	60-180	60	144	GapExp	0	367	2	1	0	target	0	733	-1000	152690	13.328	13.248	13.422
ProbeTrack11	5	ProbeTrack	11.2	SCS215a	20100818.101337	20100818.111841	8	0.013328	60	0	60-180	60	168	GapExp	0	368	2	3	0	distractor	1	560	720	153410	13.328	13.053	13.597
ProbeTrack11	5	ProbeTrack	11.2	SCS215a	20100818.101337	20100818.111848	8	0.013328	60	0	60-180	60	143	GapExp	0	369	2	45	0	distractor	1	653	674	154084	13.328	13.097	13.560
ProbeTrack11	5	ProbeTrack	11.2	SCS215a	20100818.101337	20100818.111932	8	0.013328	60	0	60-180	60	162	GapExp	0	370	2	0	0	distractor	1	773	614	154698	13.328	13.098	13.570
ProbeTrack11	5	ProbeTrack	11.2	SCS215a	20100818.101337	20100818.111947	8	0.013328	60	10	60-180	60	105	GapExp	0	371	2	45	0	distractor	1	520	740	155438	13.328	12.881	13.790
ProbeTrack11	5	ProbeTrack	11.2	SCS215a	20100818.101337	20100818.111958	8	0.013328	60	0	60-180	60	178	GapExp	0	372	2	0	1	distractor	0	773	-1000	154438	13.328	13.299	13.361
ProbeTrack11	5	ProbeTrack	11.2	SCS215a	20100818.101337	20100818.112006	8	0.013328	60	0	60-180	60	139	GapExp	0	373	2	3	0	distractor	1	707	647	155085	13.328	13.304	13.347
ProbeTrack11	5	ProbeTrack	11.2	SCS215a	20100818.101337	20100818.112013	8	0.013328	60	0	60-180	60	178	GapExp	0	374	2	45	1	target	1	1093	454	155539	13.328	12.899	13.770
ProbeTrack11	5	ProbeTrack	11.2	SCS215a	20100818.101337	20100818.112022	8	0.013328	60	10	60-180	60	174	GapExp	0	375	2	3	1	target	1	640	680	156219	13.328	13.309	13.345
ProbeTrack11	5	ProbeTrack	11.2	SCS215a	20100818.101337	20100818.112030	8	0.013328	60	10	60-180	60	136	GapExp	0	376	2	45	0	distractor	1	613	694	156913	13.328	12.877	13.767
ProbeTrack11	5	ProbeTrack	11.2	SCS215a	20100818.101337	20100818.112230	8	0.013328	60	10	60-180	60	95	GapExp	0	377	2	3	0	target	0	1093	-1000	155913	13.328	12.978	13.677
ProbeTrack11	5	ProbeTrack	11.2	SCS215a	20100818.101337	20100818.112237	8	0.013328	60	10	60-180	60	108	GapExp	0	378	2	0	1	distractor	0	694	-1000	154913	13.328	12.978	13.481
ProbeTrack11	5	ProbeTrack	11.2	SCS215a	20100818.101337	20100818.112244	8	0.013328	60	0	60-180	60	118	GapExp	0	379	2	1	0	distractor	1	947	527	155440	13.328	13.105	13.545
ProbeTrack11	5	ProbeTrack	11.2	SCS215a	20100818.101337	20100818.112250	8	0.013328	60	0	60-180	60	171	GapExp	0	380	2	3	0	distractor	1	547	727	156167	13.328	13.108	13.550
ProbeTrack11	5	ProbeTrack	11.2	SCS215a	20100818.101337	20100818.112257	8	0.013328	60	0	60-180	60	162	GapExp	0	381	2	1	1	target	1	933	534	156701	13.328	13.098	13.549
ProbeTrack11	5	ProbeTrack	11.2	SCS215a	20100818.101337	20100818.112304	8	0.013328	60	10	60-180	60	99	GapExp	0	382	2	0	0	target	0	733	-1000	155701	13.328	12.877	13.773
ProbeTrack11	5	ProbeTrack	11.2	SCS215a	20100818.101337	20100818.112328	8	0.013328	60	0	60-180	60	121	GapExp	0	383	2	1	0	distractor	1	1733	134	155835	13.328	12.851	13.800
ProbeTrack11	5	ProbeTrack	11.2	SCS215a	20100818.101337	20100818.112335	8	0.013328	60	10	60-180	60	82	GapExp	0	384	2	45	1	target	1	640	680	156515	13.379	12.916	26.654
ProbeTrack11	5	ProbeTrack	11.2	SCS215a	20100818.101337	20100818.112342	8	0.013328	60	10	60-180	60	126	GapExp	0	385	2	45	1	distractor	0	627	-1000	155515	13.414	12.896	26.796
ProbeTrack11	5	ProbeTrack	11.2	SCS215a	20100818.101337	20100818.112349	8	0.013328	60	10	60-180	60	107	GapExp	0	386	2	0	0	distractor	1	853	574	156089	13.328	12.868	13.788
ProbeTrack11	5	ProbeTrack	11.2	SCS215a	20100818.101337	20100818.112356	8	0.013328	60	10	60-180	60	123	GapExp	0	387	2	1	1	target	1	1013	494	156583	13.327	12.890	13.767
ProbeTrack11	5	ProbeTrack	11.2	SCS215a	20100818.101337	20100818.112403	8	0.013328	60	10	60-180	60	177	GapExp	0	388	2	3	0	distractor	1	600	700	157283	13.370	12.832	27.091
ProbeTrack11	5	ProbeTrack	11.2	SCS215a	20100818.101337	20100818.112411	8	0.013328	60	10	60-180	60	107	GapExp	0	389	2	3	1	target	1	693	654	157937	13.328	12.912	13.758
ProbeTrack11	5	ProbeTrack	11.2	SCS215a	20100818.101337	20100818.112417	8	0.013328	60	0	60-180	60	154	GapExp	0	390	2	0	1	target	1	653	674	158611	13.328	13.311	13.347
ProbeTrack11	5	ProbeTrack	11.2	SCS215a	20100818.101337	20100818.112424	8	0.013328	60	0	60-180	60	78	GapExp	0	391	2	0	0	distractor	1	693	654	159265	13.328	13.304	13.352
ProbeTrack11	5	ProbeTrack	11.2	SCS215a	20100818.101337	20100818.112521	8	0.013328	60	10	60-180	60	90	GapExp	0	392	2	45	0	distractor	1	574	713	159978	13.328	13.082	13.602
ProbeTrack11	5	ProbeTrack	11.2	SCS215a	20100818.101337	20100818.112528	8	0.013328	60	10	60-180	60	121	GapExp	0	393	2	0	0	target	0	813	-1000	158978	13.328	13.106	13.565
ProbeTrack11	5	ProbeTrack	11.2	SCS215a	20100818.101337	20100818.112537	8	0.013328	60	10	60-180	60	123	GapExp	0	394	2	45	1	target	1	547	727	159705	13.328	13.108	13.546
ProbeTrack11	5	ProbeTrack	11.2	SCS215a	20100818.101337	20100818.112543	8	0.013328	60	0	60-180	60	135	GapExp	0	395	2	45	1	target	1	560	720	160425	13.328	13.107	13.553
ProbeTrack11	5	ProbeTrack	11.2	SCS215a	20100818.101337	20100818.112550	8	0.013328	60	10	60-180	60	66	GapExp	0	396	2	0	0	target	0	773	-1000	159425	13.328	13.304	13.346
ProbeTrack11	5	ProbeTrack	11.2	SCS215a	20100818.101337	20100818.112556	8	0.013328	60	10	60-180	60	149	GapExp	0	397	2	3	0	distractor	1	787	607	160032	13.328	13.020	13.655
ProbeTrack11	5	ProbeTrack	11.2	SCS215a	20100818.101337	20100818.112811	8	0.013328	60	0	60-180	60	67	GapExp	0	398	2	45	1	target	1	613	694	160726	13.328	13.304	13.347
ProbeTrack11	5	ProbeTrack	11.2	SCS215a	20100818.101337	20100818.112818	8	0.013328	60	0	60-180	60	178	GapExp	0	399	2	1	1	target	1	547	727	161453	13.328	13.027	13.642
ProbeTrack11	5	ProbeTrack	11.2	SCS215a	20100818.101337	20100818.112825	8	0.013328	60	10	60-180	60	88	GapExp	0	400	2	45	1	target	1	534	733	162186	13.328	13.097	13.552
ProbeTrack11	5	ProbeTrack	11.2	SCS215a	20100818.101337	20100818.112831	8	0.013328	60	10	60-180	60	155	GapExp	0	401	2	45	0	distractor	1	600	700	162886	13.328	13.035	13.623
ProbeTrack11	5	ProbeTrack	11.2	SCS215a	20100818.101337	20100818.112839	8	0.013328	60	10	60-180	60	151	GapExp	0	402	2	45	1	target	1	547	727	163613	13.328	12.853	13.817
ProbeTrack11	5	ProbeTrack	11.2	SCS215a	20100818.101337	20100818.112850	8	0.013328	60	0	60-180	60	61	GapExp	0	403	2	3	1	target	1	587	707	164320	13.328	13.307	13.347
ProbeTrack11	5	ProbeTrack	11.2	SCS215a	20100818.101337	20100818.112855	8	0.013328	60	0	60-180	60	172	GapExp	0	404	2	45	0	distractor	1	600	700	165020	13.328	12.850	13.798
ProbeTrack11	5	ProbeTrack	11.2	SCS215a	20100818.101337	20100818.112903	8	0.013328	60	10	60-180	60	151	GapExp	0	405	2	3	1	target	1	480	760	165780	13.328	13.312	13.353
ProbeTrack11	5	ProbeTrack	11.2	SCS215a	20100818.101337	20100818.112910	8	0.013328	60	0	60-180	60	125	GapExp	0	406	2	1	1	target	1	547	727	166507	13.328	12.858	13.797
ProbeTrack11	5	ProbeTrack	11.2	SCS215a	20100818.101337	20100818.112917	8	0.013328	60	0	60-180	60	80	GapExp	0	407	2	1	0	distractor	1	694	653	167160	13.328	13.076	13.586
ProbeTrack11	5	ProbeTrack	11.2	SCS215a	20100818.101337	20100818.112925	8	0.013328	60	0	60-180	60	113	GapExp	0	408	2	45	0	distractor	1	627	687	167847	13.328	12.876	13.794
ProbeTrack11	5	ProbeTrack	11.2	SCS215a	20100818.101337	20100818.112932	8	0.013328	60	0	60-180	60	169	GapExp	0	409	2	3	1	target	1	640	680	168527	13.328	13.258	13.408
ProbeTrack11	5	ProbeTrack	11.2	SCS215a	20100818.101337	20100818.112938	8	0.013328	60	10	60-180	60	180	GapExp	0	410	2	45	0	distractor	1	1253	374	168901	13.400	12.871	26.998
ProbeTrack11	5	ProbeTrack	11.2	SCS215a	20100818.101337	20100818.113025	8	0.013328	60	10	60-180	60	128	GapExp	0	411	2	3	1	target	1	760	620	169521	13.328	12.865	13.782
ProbeTrack11	5	ProbeTrack	11.2	SCS215a	20100818.101337	20100818.113055	8	0.013328	60	10	60-180	60	137	GapExp	0	412	2	1	1	target	1	640	680	170201	13.328	13.081	13.576
ProbeTrack11	5	ProbeTrack	11.2	SCS215a	20100818.101337	20100818.113103	8	0.013328	60	0	60-180	60	103	GapExp	0	413	2	0	1	target	1	507	747	170948	13.328	13.308	13.349
ProbeTrack11	5	ProbeTrack	11.2	SCS215a	20100818.101337	20100818.113109	8	0.013328	60	0	60-180	60	125	GapExp	0	414	2	0	1	target	1	480	760	171708	13.328	13.138	13.522
ProbeTrack11	5	ProbeTrack	11.2	SCS215a	20100818.101337	20100818.113115	8	0.013328	60	10	60-180	60	165	GapExp	0	415	2	0	0	distractor	1	560	720	172428	13.328	13.100	13.572
ProbeTrack11	5	ProbeTrack	11.2	SCS215a	20100818.101337	20100818.113122	8	0.013328	60	0	60-180	60	84	GapExp	0	416	2	45	0	distractor	1	600	700	173128	13.328	12.920	13.731
ProbeTrack11	5	ProbeTrack	11.2	SCS215a	20100818.101337	20100818.113129	8	0.013328	60	0	60-180	60	162	GapExp	0	417	2	3	1	distractor	0	627	-1000	172128	13.328	12.851	13.798
ProbeTrack11	5	ProbeTrack	11.2	SCS215a	20100818.101337	20100818.113135	8	0.013328	60	10	60-180	60	63	GapExp	0	418	2	1	1	target	1	907	547	172675	13.328	12.976	13.686
ProbeTrack11	5	ProbeTrack	11.2	SCS215a	20100818.101337	20100818.113141	8	0.013328	60	0	60-180	60	100	GapExp	0	419	2	1	0	distractor	1	680	660	173335	13.328	13.069	13.656
ProbeTrack11	5	ProbeTrack	11.2	SCS215a	20100818.101337	20100818.113147	8	0.013328	60	10	60-180	60	63	GapExp	0	420	2	1	1	target	1	733	634	173969	13.328	13.105	13.545
ProbeTrack11	5	ProbeTrack	11.2	SCS215a	20100818.101337	20100818.113152	8	0.013328	60	10	60-180	60	170	GapExp	0	421	2	1	1	target	1	547	727	174696	13.328	12.895	13.779
ProbeTrack11	5	ProbeTrack	11.2	SCS215a	20100818.101337	20100818.113159	8	0.013328	60	10	60-180	60	134	GapExp	0	422	2	3	1	target	1	494	753	175449	13.328	13.032	13.628
ProbeTrack11	5	ProbeTrack	11.2	SCS215a	20100818.101337	20100818.113206	8	0.013328	60	0	60-180	60	103	GapExp	0	423	2	0	0	distractor	1	680	660	176109	13.386	12.884	26.918
ProbeTrack11	5	ProbeTrack	11.2	SCS215a	20100818.101337	20100818.113212	8	0.013328	60	10	60-180	60	82	GapExp	0	424	2	0	1	target	1	534	733	176842	13.328	13.311	13.349
ProbeTrack11	5	ProbeTrack	11.2	SCS215a	20100818.101337	20100818.113217	8	0.013328	60	10	60-180	60	101	GapExp	0	425	2	0	0	distractor	1	613	694	177536	13.328	13.308	13.349
ProbeTrack11	5	ProbeTrack	11.2	SCS215a	20100818.101337	20100818.113225	8	0.013328	60	10	60-180	60	123	GapExp	0	426	2	45	0	distractor	1	569	716	178252	13.374	12.980	26.957
ProbeTrack11	5	ProbeTrack	11.2	SCS215a	20100818.101337	20100818.113232	8	0.013328	60	0	60-180	60	170	GapExp	0	427	2	3	0	distractor	1	920	540	178792	13.328	13.273	13.397
ProbeTrack11	5	ProbeTrack	11.2	SCS215a	20100818.101337	20100818.113243	8	0.013328	60	10	60-180	60	135	GapExp	0	428	2	3	0	distractor	1	653	674	179466	13.571	12.883	40.366
ProbeTrack11	5	ProbeTrack	11.2	SCS215a	20100818.101337	20100818.113250	8	0.013328	60	10	60-180	60	161	GapExp	0	429	2	3	0	distractor	1	693	654	180120	13.328	12.902	13.778
ProbeTrack11	5	ProbeTrack	11.2	SCS215a	20100818.101337	20100818.113257	8	0.013328	60	0	60-180	60	146	GapExp	0	430	2	45	0	distractor	1	627	687	180807	13.328	12.876	13.774
ProbeTrack11	5	ProbeTrack	11.2	SCS215a	20100818.101337	20100818.113304	8	0.013328	60	10	60-180	60	174	GapExp	0	431	2	45	0	distractor	1	614	693	181500	13.328	13.114	13.548
ProbeTrack11	5	ProbeTrack	11.2	SCS215a	20100818.101337	20100818.113311	8	0.013328	60	0	60-180	60	100	GapExp	0	432	2	45	0	distractor	1	574	713	182213	13.327	12.858	13.807
ProbeTrack11	5	ProbeTrack	11.2	SCS215a	20100818.101337	20100818.113318	8	0.013328	60	10	60-180	60	88	GapExp	0	433	2	3	0	target	0	520	-1000	181213	13.328	12.882	13.799
ProbeTrack11	5	ProbeTrack	11.2	SCS215a	20100818.101337	20100818.113324	8	0.013328	60	0	60-180	60	100	GapExp	0	434	2	0	1	distractor	0	480	-1000	180213	13.328	12.841	13.810
ProbeTrack11	5	ProbeTrack	11.2	SCS215a	20100818.101337	20100818.113329	8	0.013328	60	10	60-180	60	168	GapExp	0	435	2	0	0	distractor	1	440	780	180993	13.328	12.926	13.737
ProbeTrack11	5	ProbeTrack	11.2	SCS215a	20100818.101337	20100818.113336	8	0.013328	60	0	60-180	60	92	GapExp	0	436	2	0	0	target	0	787	-1000	179993	13.328	13.290	13.366
ProbeTrack11	5	ProbeTrack	11.2	SCS215a	20100818.101337	20100818.113342	8	0.013328	60	10	60-180	60	143	GapExp	0	437	2	45	1	target	1	600	700	180693	13.328	13.106	13.558
ProbeTrack11	5	ProbeTrack	11.2	SCS215a	20100818.101337	20100818.113445	8	0.013328	60	0	60-180	60	80	GapExp	0	438	2	45	0	distractor	1	747	627	181320	13.328	12.983	13.682
ProbeTrack11	5	ProbeTrack	11.2	SCS215a	20100818.101337	20100818.113453	8	0.013328	60	10	60-180	60	171	GapExp	0	439	2	1	0	target	0	987	-1000	180320	13.328	12.953	13.709
ProbeTrack11	5	ProbeTrack	11.2	SCS215a	20100818.101337	20100818.113500	8	0.013328	60	10	60-180	60	105	GapExp	0	440	2	1	1	target	1	627	687	181007	13.328	13.299	13.347
ProbeTrack11	5	ProbeTrack	11.2	SCS215a	20100818.101337	20100818.113506	8	0.013328	60	0	60-180	60	153	GapExp	0	441	2	1	1	target	1	414	793	181800	13.328	12.850	13.802
ProbeTrack11	5	ProbeTrack	11.2	SCS215a	20100818.101337	20100818.113513	8	0.013328	60	10	60-180	60	71	GapExp	0	442	2	1	1	target	1	640	680	182480	13.328	12.923	13.727
ProbeTrack11	5	ProbeTrack	11.2	SCS215a	20100818.101337	20100818.113519	8	0.013328	60	10	60-180	60	135	GapExp	0	443	2	45	0	distractor	1	547	727	183207	13.328	12.861	13.791
ProbeTrack11	5	ProbeTrack	11.2	SCS215a	20100818.101337	20100818.113538	8	0.013328	60	10	60-180	60	171	GapExp	0	444	2	3	1	target	1	773	614	183821	13.328	12.946	13.714
ProbeTrack11	5	ProbeTrack	11.2	SCS215a	20100818.101337	20100818.113545	8	0.013328	60	10	60-180	60	106	GapExp	0	445	2	3	1	target	1	614	693	184514	13.328	13.308	13.348
ProbeTrack11	5	ProbeTrack	11.2	SCS215a	20100818.101337	20100818.113551	8	0.013328	60	10	60-180	60	61	GapExp	0	446	2	0	0	distractor	1	640	680	185194	13.328	13.072	13.580
ProbeTrack11	5	ProbeTrack	11.2	SCS215a	20100818.101337	20100818.113707	8	0.013328	60	0	60-180	60	91	GapExp	0	447	2	1	1	target	1	720	640	185834	13.328	13.303	13.351
ProbeTrack11	5	ProbeTrack	11.2	SCS215a	20100818.101337	20100818.113742	8	0.013328	60	10	60-180	60	122	GapExp	0	448	2	1	1	target	1	400	800	186634	13.328	13.307	13.348
ProbeTrack11	5	ProbeTrack	11.2	SCS215a	20100818.101337	20100818.113748	8	0.013328	60	10	60-180	60	107	GapExp	0	449	2	3	0	distractor	1	614	693	187327	13.328	12.985	13.659
ProbeTrack11	5	ProbeTrack	11.2	SCS215a	20100818.101337	20100818.113754	8	0.013328	60	0	60-180	60	80	GapExp	0	450	2	45	1	target	1	520	740	188067	13.328	13.115	13.543
