exp	sub	code	rev	comp	runtime	trialtime	nstim	refreshdur	cuedur	gapdur	gapOnsetRange	durPostProbe	gapOnsetTime	blocktype	prac	trial	ntargets	soa	probeTarget	resp	acc	rt	pts	tpts	meanFrameDur	minFrameDur	maxFrameDur
ProbeTrack11	14	ProbeTrack	11.2	SCS215a	20101025.143701	20101025.143732	8	0.013328	60	0	60-180	60	72	NoGap	1	1	2	0	0	distractor	1	387	807	807	13.328	13.308	13.345
ProbeTrack11	14	ProbeTrack	11.2	SCS215a	20101025.143701	20101025.143742	8	0.013328	60	0	60-180	60	135	NoGap	1	2	2	3	1	distractor	0	587	-1000	-193	13.328	13.024	13.628
ProbeTrack11	14	ProbeTrack	11.2	SCS215a	20101025.143701	20101025.143806	8	0.013328	60	0	60-180	60	99	NoGap	1	3	2	45	1	target	1	534	733	540	13.328	13.110	13.549
ProbeTrack11	14	ProbeTrack	11.2	SCS215a	20101025.143701	20101025.143837	8	0.013328	60	0	60-180	60	131	NoGap	1	4	2	3	0	target	0	627	-1000	-460	13.328	13.101	13.571
ProbeTrack11	14	ProbeTrack	11.2	SCS215a	20101025.143701	20101025.143844	8	0.013328	60	0	60-180	60	119	NoGap	1	5	2	1	1	target	1	653	674	214	13.436	12.887	27.088
ProbeTrack11	14	ProbeTrack	11.2	SCS215a	20101025.143701	20101025.143853	8	0.013328	60	0	60-180	60	106	NoGap	1	6	2	3	1	target	1	534	733	947	13.328	13.271	13.412
ProbeTrack11	14	ProbeTrack	11.2	SCS215a	20101025.143701	20101025.143900	8	0.013328	60	0	60-180	60	123	NoGap	1	7	2	3	1	target	1	480	760	1707	13.328	12.963	13.700
ProbeTrack11	14	ProbeTrack	11.2	SCS215a	20101025.143701	20101025.143906	8	0.013328	60	0	60-180	60	67	NoGap	1	8	2	3	1	target	1	560	720	2427	13.328	12.913	13.735
ProbeTrack11	14	ProbeTrack	11.2	SCS215a	20101025.143701	20101025.143912	8	0.013328	60	0	60-180	60	172	NoGap	1	9	2	0	1	target	1	520	740	3167	13.328	13.099	13.547
ProbeTrack11	14	ProbeTrack	11.2	SCS215a	20101025.143701	20101025.143919	8	0.013328	60	0	60-180	60	68	NoGap	1	10	2	45	0	distractor	1	933	534	3701	13.328	13.071	13.597
ProbeTrack11	14	ProbeTrack	11.2	SCS215a	20101025.143701	20101025.143926	8	0.013328	60	0	60-180	60	95	NoGap	1	11	2	0	0	distractor	1	1053	474	4175	13.328	13.109	13.554
ProbeTrack11	14	ProbeTrack	11.2	SCS215a	20101025.143701	20101025.143933	8	0.013328	60	0	60-180	60	68	NoGap	1	12	2	1	1	target	1	547	727	4902	13.328	12.939	13.725
ProbeTrack11	14	ProbeTrack	11.2	SCS215a	20101025.143701	20101025.143939	8	0.013328	60	0	60-180	60	123	NoGap	1	13	2	45	1	target	1	467	767	5669	13.328	12.840	13.815
ProbeTrack11	14	ProbeTrack	11.2	SCS215a	20101025.143701	20101025.143946	8	0.013328	60	0	60-180	60	87	NoGap	1	14	2	0	0	distractor	1	813	594	6263	13.328	13.101	13.556
ProbeTrack11	14	ProbeTrack	11.2	SCS215a	20101025.143701	20101025.143953	8	0.013328	60	0	60-180	60	82	NoGap	1	15	2	3	0	distractor	1	720	640	6903	13.328	13.268	13.376
ProbeTrack11	14	ProbeTrack	11.2	SCS215a	20101025.143701	20101025.144000	8	0.013328	60	0	60-180	60	69	NoGap	1	16	2	45	1	target	1	427	787	7690	13.328	13.297	13.361
ProbeTrack11	14	ProbeTrack	11.2	SCS215a	20101025.143701	20101025.144006	8	0.013328	60	0	60-180	60	90	NoGap	1	17	2	1	1	target	1	454	773	8463	13.328	13.051	13.602
ProbeTrack11	14	ProbeTrack	11.2	SCS215a	20101025.143701	20101025.144012	8	0.013328	60	0	60-180	60	117	NoGap	1	18	2	45	0	distractor	1	600	700	9163	13.328	13.308	13.347
ProbeTrack11	14	ProbeTrack	11.2	SCS215a	20101025.143701	20101025.144019	8	0.013328	60	0	60-180	60	153	NoGap	1	19	2	1	0	target	0	467	-1000	8163	13.328	13.259	13.392
ProbeTrack11	14	ProbeTrack	11.2	SCS215a	20101025.143701	20101025.144026	8	0.013328	60	0	60-180	60	86	NoGap	1	20	2	0	1	distractor	0	520	-1000	7163	13.328	13.309	13.346
ProbeTrack11	14	ProbeTrack	11.2	SCS215a	20101025.143701	20101025.144031	8	0.013328	60	0	60-180	60	91	NoGap	1	21	2	0	1	target	1	427	787	7950	13.328	13.297	13.360
ProbeTrack11	14	ProbeTrack	11.2	SCS215a	20101025.143701	20101025.144037	8	0.013328	60	0	60-180	60	132	NoGap	1	22	2	3	1	distractor	0	467	-1000	6950	13.328	13.304	13.346
ProbeTrack11	14	ProbeTrack	11.2	SCS215a	20101025.143701	20101025.144048	8	0.013328	60	0	60-180	60	111	NoGap	1	23	2	1	0	distractor	1	693	654	7604	13.328	13.310	13.345
ProbeTrack11	14	ProbeTrack	11.2	SCS215a	20101025.143701	20101025.144055	8	0.013328	60	0	60-180	60	173	NoGap	1	24	2	0	0	distractor	1	534	733	8337	13.328	13.308	13.347
ProbeTrack11	14	ProbeTrack	11.2	SCS215a	20101025.143701	20101025.144102	8	0.013328	60	0	60-180	60	61	NoGap	1	25	2	0	1	target	1	427	787	9124	13.328	13.271	13.393
ProbeTrack11	14	ProbeTrack	11.2	SCS215a	20101025.143701	20101025.144107	8	0.013328	60	0	60-180	60	132	NoGap	1	26	2	1	0	distractor	1	600	700	9824	13.328	12.862	13.805
ProbeTrack11	14	ProbeTrack	11.2	SCS215a	20101025.143701	20101025.144114	8	0.013328	60	0	60-180	60	128	NoGap	1	27	2	1	1	distractor	0	414	-1000	8824	13.328	13.137	13.520
ProbeTrack11	14	ProbeTrack	11.2	SCS215a	20101025.143701	20101025.144120	8	0.013328	60	0	60-180	60	133	NoGap	1	28	2	45	0	target	0	680	-1000	7824	13.328	13.306	13.352
ProbeTrack11	14	ProbeTrack	11.2	SCS215a	20101025.143701	20101025.144128	8	0.013328	60	0	60-180	60	62	NoGap	1	29	2	45	1	target	1	427	787	8611	13.328	13.200	13.453
ProbeTrack11	14	ProbeTrack	11.2	SCS215a	20101025.143701	20101025.144134	8	0.013328	60	0	60-180	60	100	NoGap	1	30	2	0	0	distractor	1	667	667	9278	13.328	13.115	13.540
ProbeTrack11	14	ProbeTrack	11.2	SCS215a	20101025.143701	20101025.144201	8	0.013328	60	0	60-180	60	138	NoGap	1	31	2	45	0	distractor	1	600	700	9978	13.328	13.106	13.551
ProbeTrack11	14	ProbeTrack	11.2	SCS215a	20101025.143701	20101025.144230	8	0.013328	60	0	60-180	60	156	NoGap	1	32	2	45	0	distractor	1	653	674	10652	13.328	13.308	13.347
ProbeTrack11	14	ProbeTrack	11.2	SCS215a	20101025.143701	20101025.144239	8	0.013328	60	0	60-180	60	108	NoGap	1	33	2	3	0	distractor	1	680	660	11312	13.328	13.097	13.542
ProbeTrack11	14	ProbeTrack	11.2	SCS215a	20101025.143701	20101025.144245	8	0.013328	60	0	60-180	60	112	NoGap	1	34	2	1	0	distractor	1	614	693	12005	13.328	12.892	13.763
ProbeTrack11	14	ProbeTrack	11.2	SCS215a	20101025.143701	20101025.144253	8	0.013328	60	0	60-180	60	65	NoGap	1	35	2	3	0	distractor	1	547	727	12732	13.328	13.310	13.348
ProbeTrack11	14	ProbeTrack	11.2	SCS215a	20101025.143701	20101025.144324	8	0.013328	60	0	60-180	60	122	NoGap	1	36	2	45	1	distractor	0	587	-1000	11732	13.328	12.884	13.771
ProbeTrack11	14	ProbeTrack	11.2	SCS215a	20101025.143701	20101025.144331	8	0.013328	60	0	60-180	60	117	NoGap	1	37	2	1	0	target	0	707	-1000	10732	13.328	13.309	13.348
ProbeTrack11	14	ProbeTrack	11.2	SCS215a	20101025.143701	20101025.144343	8	0.013328	60	0	60-180	60	122	NoGap	1	38	2	3	0	distractor	1	667	667	11399	13.328	13.107	13.547
ProbeTrack11	14	ProbeTrack	11.2	SCS215a	20101025.143701	20101025.144351	8	0.013328	60	0	60-180	60	110	NoGap	1	39	2	1	1	target	1	627	687	12086	13.328	13.309	13.346
ProbeTrack11	14	ProbeTrack	11.2	SCS215a	20101025.143701	20101025.144357	8	0.013328	60	0	60-180	60	153	NoGap	1	40	2	0	1	target	1	573	714	12800	13.328	13.100	13.551
ProbeTrack11	14	ProbeTrack	11.2	SCS215a	20101025.144439	20101025.144447	8	0.013328	60	10	60-180	60	64	GapPrac	1	1	2	1	1	target	1	520	740	13540	13.328	13.105	13.550
ProbeTrack11	14	ProbeTrack	11.2	SCS215a	20101025.144439	20101025.144454	8	0.013328	60	0	60-180	60	162	GapPrac	1	2	2	0	0	distractor	1	733	634	14174	13.328	12.904	13.748
ProbeTrack11	14	ProbeTrack	11.2	SCS215a	20101025.144439	20101025.144508	8	0.013328	60	10	60-180	60	95	GapPrac	1	3	2	1	0	target	0	627	-1000	13174	13.328	13.098	13.554
ProbeTrack11	14	ProbeTrack	11.2	SCS215a	20101025.144439	20101025.144514	8	0.013328	60	10	60-180	60	109	GapPrac	1	4	2	0	1	target	1	733	634	13808	13.328	12.857	13.790
ProbeTrack11	14	ProbeTrack	11.2	SCS215a	20101025.144439	20101025.144522	8	0.013328	60	0	60-180	60	138	GapPrac	1	5	2	3	1	target	1	494	753	14561	13.328	12.884	13.779
ProbeTrack11	14	ProbeTrack	11.2	SCS215a	20101025.144439	20101025.144529	8	0.013328	60	0	60-180	60	112	GapPrac	1	6	2	0	1	target	1	494	753	15314	13.328	13.269	13.391
ProbeTrack11	14	ProbeTrack	11.2	SCS215a	20101025.144439	20101025.144535	8	0.013328	60	10	60-180	60	102	GapPrac	1	7	2	0	0	distractor	1	773	614	15928	13.328	13.310	13.348
ProbeTrack11	14	ProbeTrack	11.2	SCS215a	20101025.144439	20101025.144542	8	0.013328	60	10	60-180	60	104	GapPrac	1	8	2	3	0	target	0	574	-1000	14928	13.328	12.914	13.750
ProbeTrack11	14	ProbeTrack	11.2	SCS215a	20101025.144439	20101025.144548	8	0.013328	60	0	60-180	60	125	GapPrac	1	9	2	45	0	distractor	1	600	700	15628	13.328	12.883	13.779
ProbeTrack11	14	ProbeTrack	11.2	SCS215a	20101025.144439	20101025.144556	8	0.013328	60	10	60-180	60	95	GapPrac	1	10	2	1	0	distractor	1	667	667	16295	13.328	13.307	13.345
ProbeTrack11	14	ProbeTrack	11.2	SCS215a	20101025.144439	20101025.144602	8	0.013328	60	10	60-180	60	121	GapPrac	1	11	2	45	1	target	1	467	767	17062	13.328	13.310	13.346
ProbeTrack11	14	ProbeTrack	11.2	SCS215a	20101025.144439	20101025.144609	8	0.013328	60	0	60-180	60	160	GapPrac	1	12	2	0	0	distractor	1	587	707	17769	13.328	13.308	13.346
ProbeTrack11	14	ProbeTrack	11.2	SCS215a	20101025.144439	20101025.144616	8	0.013328	60	0	60-180	60	120	GapPrac	1	13	2	1	1	target	1	613	694	18463	13.328	12.985	13.667
ProbeTrack11	14	ProbeTrack	11.2	SCS215a	20101025.144439	20101025.144630	8	0.013328	60	0	60-180	60	107	GapPrac	1	14	2	45	1	target	1	454	773	19236	13.328	13.308	13.348
ProbeTrack11	14	ProbeTrack	11.2	SCS215a	20101025.144439	20101025.144637	8	0.013328	60	10	60-180	60	171	GapPrac	1	15	2	45	0	distractor	1	707	647	19883	13.328	12.909	13.748
ProbeTrack11	14	ProbeTrack	11.2	SCS215a	20101025.144439	20101025.144650	8	0.013328	60	10	60-180	60	75	GapPrac	1	16	2	3	1	target	1	494	753	20636	13.328	13.311	13.346
ProbeTrack11	14	ProbeTrack	11.2	SCS215a	20101025.144439	20101025.144655	8	0.013328	60	0	60-180	60	140	GapPrac	1	17	2	3	0	distractor	1	600	700	21336	13.479	13.106	40.209
ProbeTrack11	14	ProbeTrack	11.2	SCS215a	20101025.144439	20101025.144704	8	0.013328	60	0	60-180	60	98	GapPrac	1	18	2	1	0	distractor	1	720	640	21976	13.328	13.283	13.377
ProbeTrack11	14	ProbeTrack	11.2	SCS215a	20101025.144439	20101025.144713	8	0.013328	60	10	60-180	60	90	GapPrac	1	19	2	0	1	target	1	773	614	22590	13.328	13.307	13.350
ProbeTrack11	14	ProbeTrack	11.2	SCS215a	20101025.144439	20101025.144720	8	0.013328	60	10	60-180	60	178	GapPrac	1	20	2	1	1	distractor	0	534	-1000	21590	13.328	13.024	13.623
ProbeTrack11	14	ProbeTrack	11.2	SCS215a	20101025.144757	20101025.144834	8	0.013328	60	10	60-180	60	118	GapExp	1	1	2	1	1	target	1	400	800	22390	13.328	13.310	13.346
ProbeTrack11	14	ProbeTrack	11.2	SCS215a	20101025.144757	20101025.144843	8	0.013328	60	0	60-180	60	128	GapExp	1	2	2	0	1	target	1	427	787	23177	13.328	12.933	13.724
ProbeTrack11	14	ProbeTrack	11.2	SCS215a	20101025.144757	20101025.144851	8	0.013328	60	0	60-180	60	72	GapExp	0	3	2	1	1	target	1	494	753	23930	13.328	13.010	13.638
ProbeTrack11	14	ProbeTrack	11.2	SCS215a	20101025.144757	20101025.144856	8	0.013328	60	0	60-180	60	98	GapExp	0	4	2	1	0	target	0	560	-1000	22930	13.328	13.310	13.347
ProbeTrack11	14	ProbeTrack	11.2	SCS215a	20101025.144757	20101025.144902	8	0.013328	60	0	60-180	60	160	GapExp	0	5	2	0	1	target	1	360	820	23750	13.328	13.092	13.557
ProbeTrack11	14	ProbeTrack	11.2	SCS215a	20101025.144757	20101025.144909	8	0.013328	60	10	60-180	60	127	GapExp	0	6	2	0	1	target	1	480	760	24510	13.328	13.093	13.567
ProbeTrack11	14	ProbeTrack	11.2	SCS215a	20101025.144757	20101025.144920	8	0.013328	60	0	60-180	60	66	GapExp	0	7	2	45	1	target	1	520	740	25250	13.328	12.874	13.787
ProbeTrack11	14	ProbeTrack	11.2	SCS215a	20101025.144757	20101025.144928	8	0.013328	60	0	60-180	60	91	GapExp	0	8	2	3	0	distractor	1	827	587	25837	13.328	13.096	13.561
ProbeTrack11	14	ProbeTrack	11.2	SCS215a	20101025.144757	20101025.144935	8	0.013328	60	10	60-180	60	163	GapExp	0	9	2	45	1	target	1	427	787	26624	13.328	13.036	13.614
ProbeTrack11	14	ProbeTrack	11.2	SCS215a	20101025.144757	20101025.144942	8	0.013328	60	10	60-180	60	136	GapExp	0	10	2	3	0	target	0	587	-1000	25624	13.328	12.863	13.806
ProbeTrack11	14	ProbeTrack	11.2	SCS215a	20101025.144757	20101025.144951	8	0.013328	60	10	60-180	60	156	GapExp	0	11	2	3	0	distractor	1	774	613	26237	13.328	12.910	13.753
ProbeTrack11	14	ProbeTrack	11.2	SCS215a	20101025.144757	20101025.144958	8	0.013328	60	0	60-180	60	178	GapExp	0	12	2	45	1	target	1	400	800	27037	13.328	12.913	13.746
ProbeTrack11	14	ProbeTrack	11.2	SCS215a	20101025.144757	20101025.145006	8	0.013328	60	10	60-180	60	152	GapExp	0	13	2	1	1	target	1	440	780	27817	13.328	13.116	13.556
ProbeTrack11	14	ProbeTrack	11.2	SCS215a	20101025.144757	20101025.145030	8	0.013328	60	10	60-180	60	180	GapExp	0	14	2	3	1	target	1	347	827	28644	13.328	12.906	13.730
ProbeTrack11	14	ProbeTrack	11.2	SCS215a	20101025.144757	20101025.145037	8	0.013328	60	10	60-180	60	64	GapExp	0	15	2	1	1	target	1	414	793	29437	13.328	13.280	13.373
ProbeTrack11	14	ProbeTrack	11.2	SCS215a	20101025.144757	20101025.145043	8	0.013328	60	0	60-180	60	70	GapExp	0	16	2	3	1	target	1	467	767	30204	13.328	13.103	13.546
ProbeTrack11	14	ProbeTrack	11.2	SCS215a	20101025.144757	20101025.145052	8	0.013328	60	10	60-180	60	100	GapExp	0	17	2	1	0	distractor	1	733	634	30838	13.438	12.852	26.641
ProbeTrack11	14	ProbeTrack	11.2	SCS215a	20101025.144757	20101025.145058	8	0.013328	60	10	60-180	60	131	GapExp	0	18	2	45	0	distractor	1	587	707	31545	13.328	13.109	13.549
ProbeTrack11	14	ProbeTrack	11.2	SCS215a	20101025.144757	20101025.145105	8	0.013328	60	10	60-180	60	119	GapExp	0	19	2	45	1	target	1	454	773	32318	13.328	13.060	13.593
ProbeTrack11	14	ProbeTrack	11.2	SCS215a	20101025.144757	20101025.145112	8	0.013328	60	10	60-180	60	63	GapExp	0	20	2	3	1	target	1	387	807	33125	13.328	12.890	13.763
ProbeTrack11	14	ProbeTrack	11.2	SCS215a	20101025.144757	20101025.145119	8	0.013328	60	0	60-180	60	68	GapExp	0	21	2	3	0	distractor	1	760	620	33745	13.328	13.031	13.619
ProbeTrack11	14	ProbeTrack	11.2	SCS215a	20101025.144757	20101025.145127	8	0.013328	60	0	60-180	60	94	GapExp	0	22	2	1	1	target	1	454	773	34518	13.329	13.309	13.540
ProbeTrack11	14	ProbeTrack	11.2	SCS215a	20101025.144757	20101025.145132	8	0.013328	60	0	60-180	60	73	GapExp	0	23	2	45	1	target	1	427	787	35305	13.328	13.143	13.518
ProbeTrack11	14	ProbeTrack	11.2	SCS215a	20101025.144757	20101025.145139	8	0.013328	60	10	60-180	60	66	GapExp	0	24	2	3	0	target	0	440	-1000	34305	13.328	13.309	13.346
ProbeTrack11	14	ProbeTrack	11.2	SCS215a	20101025.144757	20101025.145144	8	0.013328	60	0	60-180	60	122	GapExp	0	25	2	0	0	distractor	1	600	700	35005	13.328	12.934	13.715
ProbeTrack11	14	ProbeTrack	11.2	SCS215a	20101025.144757	20101025.145151	8	0.013328	60	0	60-180	60	154	GapExp	0	26	2	0	1	target	1	440	780	35785	13.328	12.882	13.771
ProbeTrack11	14	ProbeTrack	11.2	SCS215a	20101025.144757	20101025.145158	8	0.013328	60	10	60-180	60	71	GapExp	0	27	2	3	0	distractor	1	560	720	36505	13.328	13.308	13.347
ProbeTrack11	14	ProbeTrack	11.2	SCS215a	20101025.144757	20101025.145204	8	0.013328	60	10	60-180	60	81	GapExp	0	28	2	0	1	target	1	720	640	37145	13.328	12.913	13.739
ProbeTrack11	14	ProbeTrack	11.2	SCS215a	20101025.144757	20101025.145210	8	0.013328	60	10	60-180	60	68	GapExp	0	29	2	1	1	target	1	480	760	37905	13.328	13.309	13.346
ProbeTrack11	14	ProbeTrack	11.2	SCS215a	20101025.144757	20101025.145217	8	0.013328	60	0	60-180	60	75	GapExp	0	30	2	1	1	target	1	467	767	38672	13.328	12.945	13.715
ProbeTrack11	14	ProbeTrack	11.2	SCS215a	20101025.144757	20101025.145224	8	0.013328	60	0	60-180	60	63	GapExp	0	31	2	45	0	distractor	1	613	694	39366	13.328	12.875	13.776
ProbeTrack11	14	ProbeTrack	11.2	SCS215a	20101025.144757	20101025.145241	8	0.013328	60	10	60-180	60	66	GapExp	0	32	2	1	0	target	0	494	-1000	38366	13.328	13.309	13.347
ProbeTrack11	14	ProbeTrack	11.2	SCS215a	20101025.144757	20101025.145248	8	0.013328	60	0	60-180	60	72	GapExp	0	33	2	45	0	target	0	534	-1000	37366	13.328	13.109	13.548
ProbeTrack11	14	ProbeTrack	11.2	SCS215a	20101025.144757	20101025.145257	8	0.013328	60	10	60-180	60	161	GapExp	0	34	2	0	0	distractor	1	693	654	38020	13.328	13.085	13.566
ProbeTrack11	14	ProbeTrack	11.2	SCS215a	20101025.144757	20101025.145304	8	0.013328	60	0	60-180	60	88	GapExp	0	35	2	0	0	distractor	1	627	687	38707	13.328	13.305	13.348
ProbeTrack11	14	ProbeTrack	11.2	SCS215a	20101025.144757	20101025.145310	8	0.013328	60	0	60-180	60	155	GapExp	0	36	2	3	0	distractor	1	667	667	39374	13.328	12.875	13.795
ProbeTrack11	14	ProbeTrack	11.2	SCS215a	20101025.144757	20101025.145319	8	0.013328	60	10	60-180	60	113	GapExp	0	37	2	0	0	distractor	1	574	713	40087	13.328	13.310	13.345
ProbeTrack11	14	ProbeTrack	11.2	SCS215a	20101025.144757	20101025.145325	8	0.013328	60	0	60-180	60	96	GapExp	0	38	2	45	0	distractor	1	627	687	40774	13.328	13.105	13.548
ProbeTrack11	14	ProbeTrack	11.2	SCS215a	20101025.144757	20101025.145331	8	0.013328	60	0	60-180	60	106	GapExp	0	39	2	1	1	target	1	693	654	41428	13.328	13.308	13.348
ProbeTrack11	14	ProbeTrack	11.2	SCS215a	20101025.144757	20101025.145338	8	0.013328	60	0	60-180	60	82	GapExp	0	40	2	45	1	target	1	494	753	42181	13.328	13.307	13.349
ProbeTrack11	14	ProbeTrack	11.2	SCS215a	20101025.144757	20101025.145344	8	0.013328	60	10	60-180	60	61	GapExp	0	41	2	45	1	target	1	534	733	42914	13.328	13.019	13.648
ProbeTrack11	14	ProbeTrack	11.2	SCS215a	20101025.144757	20101025.145353	8	0.013328	60	10	60-180	60	144	GapExp	0	42	2	45	1	target	1	507	747	43661	13.328	12.880	13.785
ProbeTrack11	14	ProbeTrack	11.2	SCS215a	20101025.144757	20101025.145400	8	0.013328	60	10	60-180	60	131	GapExp	0	43	2	1	1	target	1	427	787	44448	13.328	13.099	13.569
ProbeTrack11	14	ProbeTrack	11.2	SCS215a	20101025.144757	20101025.145408	8	0.013328	60	0	60-180	60	63	GapExp	0	44	2	3	0	distractor	1	800	600	45048	13.328	13.087	13.563
ProbeTrack11	14	ProbeTrack	11.2	SCS215a	20101025.144757	20101025.145414	8	0.013328	60	0	60-180	60	115	GapExp	0	45	2	3	0	distractor	1	920	540	45588	13.328	13.114	13.555
ProbeTrack11	14	ProbeTrack	11.2	SCS215a	20101025.144757	20101025.145421	8	0.013328	60	10	60-180	60	112	GapExp	0	46	2	3	0	distractor	1	747	627	46215	13.328	13.248	13.414
ProbeTrack11	14	ProbeTrack	11.2	SCS215a	20101025.144757	20101025.145428	8	0.013328	60	10	60-180	60	129	GapExp	0	47	2	0	1	target	1	454	773	46988	13.328	13.270	13.371
ProbeTrack11	14	ProbeTrack	11.2	SCS215a	20101025.144757	20101025.145439	8	0.013328	60	0	60-180	60	180	GapExp	0	48	2	1	1	target	1	507	747	47735	13.328	13.288	13.374
ProbeTrack11	14	ProbeTrack	11.2	SCS215a	20101025.144757	20101025.145447	8	0.013328	60	0	60-180	60	120	GapExp	0	49	2	3	0	distractor	1	654	673	48408	13.328	12.923	13.744
ProbeTrack11	14	ProbeTrack	11.2	SCS215a	20101025.144757	20101025.145502	8	0.013328	60	10	60-180	60	148	GapExp	0	50	2	3	1	target	1	400	800	49208	13.328	12.855	13.803
ProbeTrack11	14	ProbeTrack	11.2	SCS215a	20101025.144757	20101025.145510	8	0.013328	60	0	60-180	60	95	GapExp	0	51	2	3	0	distractor	1	613	694	49902	13.328	12.919	13.713
ProbeTrack11	14	ProbeTrack	11.2	SCS215a	20101025.144757	20101025.145516	8	0.013328	60	10	60-180	60	108	GapExp	0	52	2	1	0	target	0	520	-1000	48902	13.328	13.306	13.350
ProbeTrack11	14	ProbeTrack	11.2	SCS215a	20101025.144757	20101025.145522	8	0.013328	60	10	60-180	60	178	GapExp	0	53	2	0	0	distractor	1	560	720	49622	13.328	13.097	13.555
ProbeTrack11	14	ProbeTrack	11.2	SCS215a	20101025.144757	20101025.145533	8	0.013328	60	0	60-180	60	99	GapExp	0	54	2	3	1	target	1	494	753	50375	13.328	13.064	13.584
ProbeTrack11	14	ProbeTrack	11.2	SCS215a	20101025.144757	20101025.145538	8	0.013328	60	10	60-180	60	139	GapExp	0	55	2	1	1	target	1	480	760	51135	13.328	13.080	13.562
ProbeTrack11	14	ProbeTrack	11.2	SCS215a	20101025.144757	20101025.145545	8	0.013328	60	10	60-180	60	81	GapExp	0	56	2	1	0	distractor	1	627	687	51822	13.328	12.942	13.709
ProbeTrack11	14	ProbeTrack	11.2	SCS215a	20101025.144757	20101025.145551	8	0.013328	60	10	60-180	60	177	GapExp	0	57	2	0	1	target	1	360	820	52642	13.328	13.203	13.443
ProbeTrack11	14	ProbeTrack	11.2	SCS215a	20101025.144757	20101025.145558	8	0.013328	60	10	60-180	60	117	GapExp	0	58	2	1	0	target	0	1000	-1000	51642	13.328	13.308	13.347
ProbeTrack11	14	ProbeTrack	11.2	SCS215a	20101025.144757	20101025.145605	8	0.013328	60	10	60-180	60	91	GapExp	0	59	2	45	1	target	1	600	700	52342	13.328	13.304	13.347
ProbeTrack11	14	ProbeTrack	11.2	SCS215a	20101025.144757	20101025.145617	8	0.013328	60	10	60-180	60	159	GapExp	0	60	2	1	1	target	1	454	773	53115	13.328	13.308	13.348
ProbeTrack11	14	ProbeTrack	11.2	SCS215a	20101025.144757	20101025.145624	8	0.013328	60	10	60-180	60	144	GapExp	0	61	2	45	1	target	1	427	787	53902	13.328	12.979	13.670
ProbeTrack11	14	ProbeTrack	11.2	SCS215a	20101025.144757	20101025.145631	8	0.013328	60	10	60-180	60	153	GapExp	0	62	2	3	0	target	0	400	-1000	52902	13.328	13.006	13.659
ProbeTrack11	14	ProbeTrack	11.2	SCS215a	20101025.144757	20101025.145640	8	0.013328	60	10	60-180	60	178	GapExp	0	63	2	0	0	distractor	1	667	667	53569	13.328	12.923	13.736
ProbeTrack11	14	ProbeTrack	11.2	SCS215a	20101025.144757	20101025.145714	8	0.013328	60	10	60-180	60	135	GapExp	0	64	2	0	1	target	1	440	780	54349	13.328	13.309	13.347
ProbeTrack11	14	ProbeTrack	11.2	SCS215a	20101025.144757	20101025.145720	8	0.013328	60	10	60-180	60	153	GapExp	0	65	2	45	1	target	1	627	687	55036	13.328	13.305	13.349
ProbeTrack11	14	ProbeTrack	11.2	SCS215a	20101025.144757	20101025.145729	8	0.013328	60	0	60-180	60	135	GapExp	0	66	2	45	0	target	0	534	-1000	54036	13.328	13.098	13.562
ProbeTrack11	14	ProbeTrack	11.2	SCS215a	20101025.144757	20101025.145737	8	0.013328	60	0	60-180	60	94	GapExp	0	67	2	1	1	target	1	534	733	54769	13.328	13.312	13.350
ProbeTrack11	14	ProbeTrack	11.2	SCS215a	20101025.144757	20101025.145743	8	0.013328	60	0	60-180	60	177	GapExp	0	68	2	0	0	distractor	1	680	660	55429	13.328	13.308	13.352
ProbeTrack11	14	ProbeTrack	11.2	SCS215a	20101025.144757	20101025.145753	8	0.013328	60	10	60-180	60	157	GapExp	0	69	2	3	1	target	1	414	793	56222	13.328	13.096	13.552
ProbeTrack11	14	ProbeTrack	11.2	SCS215a	20101025.144757	20101025.145800	8	0.013328	60	10	60-180	60	179	GapExp	0	70	2	45	1	target	1	494	753	56975	13.328	13.301	13.545
ProbeTrack11	14	ProbeTrack	11.2	SCS215a	20101025.144757	20101025.145811	8	0.013328	60	10	60-180	60	143	GapExp	0	71	2	45	1	target	1	414	793	57768	13.328	12.860	13.799
ProbeTrack11	14	ProbeTrack	11.2	SCS215a	20101025.144757	20101025.145819	8	0.013328	60	0	60-180	60	80	GapExp	0	72	2	0	1	target	1	480	760	58528	13.328	13.096	13.556
ProbeTrack11	14	ProbeTrack	11.2	SCS215a	20101025.144757	20101025.145827	8	0.013328	60	0	60-180	60	96	GapExp	0	73	2	0	1	target	1	440	780	59308	13.328	12.876	13.782
ProbeTrack11	14	ProbeTrack	11.2	SCS215a	20101025.144757	20101025.145833	8	0.013328	60	0	60-180	60	177	GapExp	0	74	2	1	0	distractor	1	574	713	60021	13.328	13.307	13.353
ProbeTrack11	14	ProbeTrack	11.2	SCS215a	20101025.144757	20101025.145839	8	0.013328	60	0	60-180	60	150	GapExp	0	75	2	0	0	distractor	1	573	714	60735	13.328	13.092	13.564
ProbeTrack11	14	ProbeTrack	11.2	SCS215a	20101025.144757	20101025.145846	8	0.013328	60	0	60-180	60	90	GapExp	0	76	2	0	0	distractor	1	547	727	61462	13.328	13.309	13.347
ProbeTrack11	14	ProbeTrack	11.2	SCS215a	20101025.144757	20101025.145855	8	0.013328	60	0	60-180	60	100	GapExp	0	77	2	0	1	target	1	587	707	62169	13.328	13.105	13.562
ProbeTrack11	14	ProbeTrack	11.2	SCS215a	20101025.144757	20101025.145903	8	0.013328	60	0	60-180	60	112	GapExp	0	78	2	1	0	distractor	1	587	707	62876	13.328	13.108	13.552
ProbeTrack11	14	ProbeTrack	11.2	SCS215a	20101025.144757	20101025.145910	8	0.013328	60	0	60-180	60	135	GapExp	0	79	2	0	1	target	1	534	733	63609	13.328	13.100	13.552
ProbeTrack11	14	ProbeTrack	11.2	SCS215a	20101025.144757	20101025.145916	8	0.013328	60	0	60-180	60	132	GapExp	0	80	2	45	0	distractor	1	627	687	64296	13.328	13.112	13.559
ProbeTrack11	14	ProbeTrack	11.2	SCS215a	20101025.144757	20101025.145923	8	0.013328	60	0	60-180	60	124	GapExp	0	81	2	0	1	target	1	534	733	65029	13.328	13.307	13.346
ProbeTrack11	14	ProbeTrack	11.2	SCS215a	20101025.144757	20101025.145929	8	0.013328	60	10	60-180	60	167	GapExp	0	82	2	0	1	target	1	347	827	65856	13.328	13.090	13.563
ProbeTrack11	14	ProbeTrack	11.2	SCS215a	20101025.144757	20101025.145936	8	0.013328	60	0	60-180	60	120	GapExp	0	83	2	45	1	target	1	400	800	66656	13.328	13.307	13.345
ProbeTrack11	14	ProbeTrack	11.2	SCS215a	20101025.144757	20101025.145942	8	0.013328	60	10	60-180	60	171	GapExp	0	84	2	1	1	target	1	440	780	67436	13.328	13.096	13.553
ProbeTrack11	14	ProbeTrack	11.2	SCS215a	20101025.144757	20101025.145951	8	0.013328	60	0	60-180	60	90	GapExp	0	85	2	0	1	target	1	454	773	68209	13.328	13.119	13.541
ProbeTrack11	14	ProbeTrack	11.2	SCS215a	20101025.144757	20101025.145956	8	0.013328	60	10	60-180	60	135	GapExp	0	86	2	45	1	target	1	440	780	68989	13.328	13.298	13.369
ProbeTrack11	14	ProbeTrack	11.2	SCS215a	20101025.144757	20101025.150005	8	0.013328	60	10	60-180	60	162	GapExp	0	87	2	3	1	target	1	414	793	69782	13.328	13.099	13.567
ProbeTrack11	14	ProbeTrack	11.2	SCS215a	20101025.144757	20101025.150012	8	0.013328	60	10	60-180	60	130	GapExp	0	88	2	3	0	target	0	654	-1000	68782	13.328	13.098	13.562
ProbeTrack11	14	ProbeTrack	11.2	SCS215a	20101025.144757	20101025.150019	8	0.013328	60	10	60-180	60	159	GapExp	0	89	2	1	1	target	1	454	773	69555	13.328	13.100	13.564
ProbeTrack11	14	ProbeTrack	11.2	SCS215a	20101025.144757	20101025.150026	8	0.013328	60	10	60-180	60	163	GapExp	0	90	2	0	0	distractor	1	680	660	70215	13.328	13.034	13.625
ProbeTrack11	14	ProbeTrack	11.2	SCS215a	20101025.144757	20101025.150035	8	0.013328	60	10	60-180	60	158	GapExp	0	91	2	3	0	target	0	454	-1000	69215	13.328	12.978	13.667
ProbeTrack11	14	ProbeTrack	11.2	SCS215a	20101025.144757	20101025.150041	8	0.013328	60	10	60-180	60	159	GapExp	0	92	2	3	0	distractor	1	587	707	69922	13.328	12.886	13.766
ProbeTrack11	14	ProbeTrack	11.2	SCS215a	20101025.144757	20101025.150050	8	0.013328	60	10	60-180	60	120	GapExp	0	93	2	1	0	target	0	707	-1000	68922	13.328	13.308	13.348
ProbeTrack11	14	ProbeTrack	11.2	SCS215a	20101025.144757	20101025.150058	8	0.013328	60	10	60-180	60	96	GapExp	0	94	2	0	1	target	1	480	760	69682	13.328	13.044	13.621
ProbeTrack11	14	ProbeTrack	11.2	SCS215a	20101025.144757	20101025.150103	8	0.013328	60	10	60-180	60	99	GapExp	0	95	2	3	1	target	1	400	800	70482	13.328	13.255	13.382
ProbeTrack11	14	ProbeTrack	11.2	SCS215a	20101025.144757	20101025.150109	8	0.013328	60	0	60-180	60	172	GapExp	0	96	2	45	1	target	1	467	767	71249	13.328	12.850	13.793
ProbeTrack11	14	ProbeTrack	11.2	SCS215a	20101025.144757	20101025.150117	8	0.013328	60	10	60-180	60	141	GapExp	0	97	2	3	1	target	1	307	847	72096	13.328	13.266	13.399
ProbeTrack11	14	ProbeTrack	11.2	SCS215a	20101025.144757	20101025.150124	8	0.013328	60	10	60-180	60	171	GapExp	0	98	2	0	1	target	1	334	833	72929	13.328	13.092	13.556
ProbeTrack11	14	ProbeTrack	11.2	SCS215a	20101025.144757	20101025.150131	8	0.013328	60	10	60-180	60	77	GapExp	0	99	2	3	1	target	1	360	820	73749	13.328	12.873	13.790
ProbeTrack11	14	ProbeTrack	11.2	SCS215a	20101025.144757	20101025.150136	8	0.013328	60	0	60-180	60	94	GapExp	0	100	2	45	0	distractor	1	680	660	74409	13.328	12.948	13.705
ProbeTrack11	14	ProbeTrack	11.2	SCS215a	20101025.144757	20101025.150143	8	0.013328	60	0	60-180	60	118	GapExp	0	101	2	3	1	target	1	400	800	75209	13.328	12.951	13.731
ProbeTrack11	14	ProbeTrack	11.2	SCS215a	20101025.144757	20101025.150151	8	0.013328	60	0	60-180	60	128	GapExp	0	102	2	3	1	target	1	587	707	75916	13.328	13.309	13.346
ProbeTrack11	14	ProbeTrack	11.2	SCS215a	20101025.144757	20101025.150159	8	0.013328	60	10	60-180	60	126	GapExp	0	103	2	1	0	distractor	1	600	700	76616	13.328	12.861	13.801
ProbeTrack11	14	ProbeTrack	11.2	SCS215a	20101025.144757	20101025.150206	8	0.013328	60	10	60-180	60	129	GapExp	0	104	2	0	0	target	0	773	-1000	75616	13.328	13.111	13.561
ProbeTrack11	14	ProbeTrack	11.2	SCS215a	20101025.144757	20101025.150212	8	0.013328	60	10	60-180	60	160	GapExp	0	105	2	45	0	distractor	1	627	687	76303	13.328	13.309	13.347
ProbeTrack11	14	ProbeTrack	11.2	SCS215a	20101025.144757	20101025.150220	8	0.013328	60	0	60-180	60	175	GapExp	0	106	2	1	0	target	0	907	-1000	75303	13.328	13.025	13.635
ProbeTrack11	14	ProbeTrack	11.2	SCS215a	20101025.144757	20101025.150227	8	0.013328	60	0	60-180	60	102	GapExp	0	107	2	45	0	target	0	920	-1000	74303	13.328	13.025	13.632
ProbeTrack11	14	ProbeTrack	11.2	SCS215a	20101025.144757	20101025.150235	8	0.013328	60	10	60-180	60	167	GapExp	0	108	2	3	1	distractor	0	827	-1000	73303	13.328	13.292	13.362
ProbeTrack11	14	ProbeTrack	11.2	SCS215a	20101025.144757	20101025.150243	8	0.013328	60	0	60-180	60	179	GapExp	0	109	2	1	1	target	1	400	800	74103	13.328	13.282	13.378
ProbeTrack11	14	ProbeTrack	11.2	SCS215a	20101025.144757	20101025.150249	8	0.013328	60	10	60-180	60	83	GapExp	0	110	2	1	1	target	1	294	853	74956	13.328	13.238	13.419
ProbeTrack11	14	ProbeTrack	11.2	SCS215a	20101025.144757	20101025.150256	8	0.013328	60	10	60-180	60	93	GapExp	0	111	2	1	1	target	1	307	847	75803	13.328	13.302	13.348
ProbeTrack11	14	ProbeTrack	11.2	SCS215a	20101025.144757	20101025.150302	8	0.013328	60	10	60-180	60	117	GapExp	0	112	2	1	1	target	1	347	827	76630	13.328	13.101	13.552
ProbeTrack11	14	ProbeTrack	11.2	SCS215a	20101025.144757	20101025.150308	8	0.013328	60	10	60-180	60	136	GapExp	0	113	2	0	0	target	0	707	-1000	75630	13.328	12.966	13.674
ProbeTrack11	14	ProbeTrack	11.2	SCS215a	20101025.144757	20101025.150315	8	0.013328	60	10	60-180	60	144	GapExp	0	114	2	1	0	target	0	667	-1000	74630	13.328	12.988	13.660
ProbeTrack11	14	ProbeTrack	11.2	SCS215a	20101025.144757	20101025.150322	8	0.013328	60	10	60-180	60	157	GapExp	0	115	2	0	1	target	1	747	627	75257	13.328	13.118	13.541
ProbeTrack11	14	ProbeTrack	11.2	SCS215a	20101025.144757	20101025.150329	8	0.013328	60	0	60-180	60	64	GapExp	0	116	2	3	1	target	1	693	654	75911	13.328	13.087	13.552
ProbeTrack11	14	ProbeTrack	11.2	SCS215a	20101025.144757	20101025.150334	8	0.013328	60	0	60-180	60	155	GapExp	0	117	2	0	0	distractor	1	707	647	76558	13.328	13.108	13.553
ProbeTrack11	14	ProbeTrack	11.2	SCS215a	20101025.144757	20101025.150342	8	0.013328	60	10	60-180	60	61	GapExp	0	118	2	0	1	target	1	494	753	77311	13.328	13.306	13.347
ProbeTrack11	14	ProbeTrack	11.2	SCS215a	20101025.144757	20101025.150347	8	0.013328	60	10	60-180	60	162	GapExp	0	119	2	45	0	distractor	1	653	674	77985	13.328	12.480	14.176
ProbeTrack11	14	ProbeTrack	11.2	SCS215a	20101025.144757	20101025.150355	8	0.013328	60	0	60-180	60	77	GapExp	0	120	2	3	1	target	1	454	773	78758	13.328	13.310	13.347
ProbeTrack11	14	ProbeTrack	11.2	SCS215a	20101025.144757	20101025.150401	8	0.013328	60	10	60-180	60	78	GapExp	0	121	2	1	0	target	0	387	-1000	77758	13.328	13.308	13.347
ProbeTrack11	14	ProbeTrack	11.2	SCS215a	20101025.144757	20101025.150406	8	0.013328	60	10	60-180	60	106	GapExp	0	122	2	3	0	target	0	560	-1000	76758	13.328	13.107	13.539
ProbeTrack11	14	ProbeTrack	11.2	SCS215a	20101025.144757	20101025.150418	8	0.013328	60	10	60-180	60	87	GapExp	0	123	2	0	0	target	0	440	-1000	75758	13.328	13.298	13.365
ProbeTrack11	14	ProbeTrack	11.2	SCS215a	20101025.144757	20101025.150428	8	0.013328	60	0	60-180	60	75	GapExp	0	124	2	1	1	target	1	587	707	76465	13.328	12.973	13.689
ProbeTrack11	14	ProbeTrack	11.2	SCS215a	20101025.144757	20101025.150434	8	0.013328	60	10	60-180	60	79	GapExp	0	125	2	1	0	target	0	534	-1000	75465	13.328	12.935	13.705
ProbeTrack11	14	ProbeTrack	11.2	SCS215a	20101025.144757	20101025.150440	8	0.013328	60	0	60-180	60	171	GapExp	0	126	2	3	0	distractor	1	440	780	76245	13.328	12.859	13.783
ProbeTrack11	14	ProbeTrack	11.2	SCS215a	20101025.144757	20101025.150447	8	0.013328	60	0	60-180	60	93	GapExp	0	127	2	45	1	target	1	480	760	77005	13.328	13.308	13.347
ProbeTrack11	14	ProbeTrack	11.2	SCS215a	20101025.144757	20101025.150454	8	0.013328	60	0	60-180	60	171	GapExp	0	128	2	0	0	distractor	1	653	674	77679	13.328	12.880	13.779
ProbeTrack11	14	ProbeTrack	11.2	SCS215a	20101025.144757	20101025.150502	8	0.013328	60	0	60-180	60	103	GapExp	0	129	2	1	0	distractor	1	693	654	78333	13.328	12.934	13.728
ProbeTrack11	14	ProbeTrack	11.2	SCS215a	20101025.144757	20101025.150508	8	0.013328	60	10	60-180	60	144	GapExp	0	130	2	0	0	distractor	1	613	694	79027	13.328	12.941	13.729
ProbeTrack11	14	ProbeTrack	11.2	SCS215a	20101025.144757	20101025.150515	8	0.013328	60	0	60-180	60	116	GapExp	0	131	2	3	0	distractor	1	680	660	79687	13.328	12.979	13.688
ProbeTrack11	14	ProbeTrack	11.2	SCS215a	20101025.144757	20101025.150539	8	0.013328	60	10	60-180	60	129	GapExp	0	132	2	1	0	distractor	1	560	720	80407	13.328	12.851	13.807
ProbeTrack11	14	ProbeTrack	11.2	SCS215a	20101025.144757	20101025.150547	8	0.013328	60	10	60-180	60	127	GapExp	0	133	2	1	1	target	1	454	773	81180	13.328	13.308	13.348
ProbeTrack11	14	ProbeTrack	11.2	SCS215a	20101025.144757	20101025.150553	8	0.013328	60	10	60-180	60	123	GapExp	0	134	2	0	0	target	0	494	-1000	80180	13.436	13.302	39.998
ProbeTrack11	14	ProbeTrack	11.2	SCS215a	20101025.144757	20101025.150600	8	0.013328	60	0	60-180	60	98	GapExp	0	135	2	1	1	target	1	627	687	80867	13.328	13.081	13.566
ProbeTrack11	14	ProbeTrack	11.2	SCS215a	20101025.144757	20101025.150607	8	0.013328	60	0	60-180	60	118	GapExp	0	136	2	1	1	target	1	560	720	81587	13.328	13.102	13.558
ProbeTrack11	14	ProbeTrack	11.2	SCS215a	20101025.144757	20101025.150715	8	0.013328	60	0	60-180	60	97	GapExp	0	137	2	0	0	distractor	1	600	700	82287	13.328	13.308	13.346
ProbeTrack11	14	ProbeTrack	11.2	SCS215a	20101025.144757	20101025.150737	8	0.013328	60	0	60-180	60	151	GapExp	0	138	2	3	1	target	1	494	753	83040	13.328	13.309	13.348
ProbeTrack11	14	ProbeTrack	11.2	SCS215a	20101025.144757	20101025.150744	8	0.013328	60	0	60-180	60	67	GapExp	0	139	2	0	1	target	1	480	760	83800	13.328	13.309	13.348
ProbeTrack11	14	ProbeTrack	11.2	SCS215a	20101025.144757	20101025.150750	8	0.013328	60	10	60-180	60	139	GapExp	0	140	2	45	0	distractor	1	600	700	84500	13.328	12.856	13.800
ProbeTrack11	14	ProbeTrack	11.2	SCS215a	20101025.144757	20101025.150757	8	0.013328	60	10	60-180	60	130	GapExp	0	141	2	3	1	target	1	347	827	85327	13.328	12.887	13.788
ProbeTrack11	14	ProbeTrack	11.2	SCS215a	20101025.144757	20101025.150803	8	0.013328	60	0	60-180	60	82	GapExp	0	142	2	0	1	target	1	467	767	86094	13.328	13.115	13.550
ProbeTrack11	14	ProbeTrack	11.2	SCS215a	20101025.144757	20101025.150809	8	0.013328	60	10	60-180	60	80	GapExp	0	143	2	3	1	target	1	360	820	86914	13.328	13.107	13.553
ProbeTrack11	14	ProbeTrack	11.2	SCS215a	20101025.144757	20101025.150814	8	0.013328	60	10	60-180	60	150	GapExp	0	144	2	3	0	distractor	1	560	720	87634	13.328	13.307	13.345
ProbeTrack11	14	ProbeTrack	11.2	SCS215a	20101025.144757	20101025.150823	8	0.013328	60	0	60-180	60	153	GapExp	0	145	2	0	0	distractor	1	614	693	88327	13.328	13.038	13.638
ProbeTrack11	14	ProbeTrack	11.2	SCS215a	20101025.144757	20101025.150830	8	0.013328	60	0	60-180	60	164	GapExp	0	146	2	0	0	distractor	1	574	713	89040	13.328	12.942	13.718
ProbeTrack11	14	ProbeTrack	11.2	SCS215a	20101025.144757	20101025.150856	8	0.013328	60	10	60-180	60	138	GapExp	0	147	2	1	1	target	1	494	753	89793	13.328	13.071	13.583
ProbeTrack11	14	ProbeTrack	11.2	SCS215a	20101025.144757	20101025.150903	8	0.013328	60	0	60-180	60	113	GapExp	0	148	2	1	1	target	1	454	773	90566	13.328	13.306	13.345
ProbeTrack11	14	ProbeTrack	11.2	SCS215a	20101025.144757	20101025.150915	8	0.013328	60	0	60-180	60	120	GapExp	0	149	2	3	1	target	1	480	760	91326	13.328	13.306	13.346
ProbeTrack11	14	ProbeTrack	11.2	SCS215a	20101025.144757	20101025.150921	8	0.013328	60	0	60-180	60	170	GapExp	0	150	2	45	0	distractor	1	600	700	92026	13.328	12.717	14.218
ProbeTrack11	14	ProbeTrack	11.2	SCS215a	20101025.144757	20101025.150929	8	0.013328	60	10	60-180	60	67	GapExp	0	151	2	3	1	target	1	400	800	92826	13.328	13.277	13.378
ProbeTrack11	14	ProbeTrack	11.2	SCS215a	20101025.144757	20101025.150934	8	0.013328	60	0	60-180	60	73	GapExp	0	152	2	45	0	distractor	1	587	707	93533	13.328	12.892	13.768
ProbeTrack11	14	ProbeTrack	11.2	SCS215a	20101025.144757	20101025.150940	8	0.013328	60	0	60-180	60	84	GapExp	0	153	2	3	0	distractor	1	640	680	94213	13.328	13.086	13.571
ProbeTrack11	14	ProbeTrack	11.2	SCS215a	20101025.144757	20101025.150946	8	0.013328	60	0	60-180	60	112	GapExp	0	154	2	0	1	target	1	454	773	94986	13.328	13.120	13.539
ProbeTrack11	14	ProbeTrack	11.2	SCS215a	20101025.144757	20101025.150952	8	0.013328	60	0	60-180	60	107	GapExp	0	155	2	0	1	target	1	454	773	95759	13.328	13.310	13.347
ProbeTrack11	14	ProbeTrack	11.2	SCS215a	20101025.144757	20101025.150958	8	0.013328	60	10	60-180	60	95	GapExp	0	156	2	0	1	target	1	400	800	96559	13.328	13.308	13.347
ProbeTrack11	14	ProbeTrack	11.2	SCS215a	20101025.144757	20101025.151004	8	0.013328	60	10	60-180	60	63	GapExp	0	157	2	0	0	distractor	1	653	674	97233	13.328	13.309	13.346
ProbeTrack11	14	ProbeTrack	11.2	SCS215a	20101025.144757	20101025.151010	8	0.013328	60	10	60-180	60	134	GapExp	0	158	2	45	1	target	1	400	800	98033	13.328	12.851	13.821
ProbeTrack11	14	ProbeTrack	11.2	SCS215a	20101025.144757	20101025.151017	8	0.013328	60	0	60-180	60	90	GapExp	0	159	2	1	0	distractor	1	587	707	98740	13.328	13.278	13.380
ProbeTrack11	14	ProbeTrack	11.2	SCS215a	20101025.144757	20101025.151023	8	0.013328	60	10	60-180	60	150	GapExp	0	160	2	1	1	target	1	467	767	99507	13.328	13.100	13.566
ProbeTrack11	14	ProbeTrack	11.2	SCS215a	20101025.144757	20101025.151030	8	0.013328	60	10	60-180	60	107	GapExp	0	161	2	45	0	distractor	1	667	667	100174	13.328	12.937	13.730
ProbeTrack11	14	ProbeTrack	11.2	SCS215a	20101025.144757	20101025.151044	8	0.013328	60	10	60-180	60	153	GapExp	0	162	2	3	1	target	1	454	773	100947	13.328	13.103	13.566
ProbeTrack11	14	ProbeTrack	11.2	SCS215a	20101025.144757	20101025.151050	8	0.013328	60	0	60-180	60	93	GapExp	0	163	2	1	0	distractor	1	1107	447	101394	13.328	12.922	13.744
ProbeTrack11	14	ProbeTrack	11.2	SCS215a	20101025.144757	20101025.151102	8	0.013328	60	0	60-180	60	70	GapExp	0	164	2	0	1	target	1	427	787	102181	13.328	12.984	13.677
ProbeTrack11	14	ProbeTrack	11.2	SCS215a	20101025.144757	20101025.151109	8	0.013328	60	10	60-180	60	119	GapExp	0	165	2	45	0	distractor	1	587	707	102888	13.328	12.989	13.670
ProbeTrack11	14	ProbeTrack	11.2	SCS215a	20101025.144757	20101025.151118	8	0.013328	60	0	60-180	60	123	GapExp	0	166	2	1	0	distractor	1	587	707	103595	13.328	12.958	13.703
ProbeTrack11	14	ProbeTrack	11.2	SCS215a	20101025.144757	20101025.151124	8	0.013328	60	0	60-180	60	120	GapExp	0	167	2	0	1	target	1	494	753	104348	13.328	13.089	13.563
ProbeTrack11	14	ProbeTrack	11.2	SCS215a	20101025.144757	20101025.151130	8	0.013328	60	0	60-180	60	103	GapExp	0	168	2	3	0	distractor	1	534	733	105081	13.328	13.308	13.346
ProbeTrack11	14	ProbeTrack	11.2	SCS215a	20101025.144757	20101025.151136	8	0.013328	60	10	60-180	60	108	GapExp	0	169	2	45	0	distractor	1	827	587	105668	13.328	13.309	13.347
ProbeTrack11	14	ProbeTrack	11.2	SCS215a	20101025.144757	20101025.151143	8	0.013328	60	10	60-180	60	144	GapExp	0	170	2	45	0	distractor	1	547	727	106395	13.328	13.300	13.351
ProbeTrack11	14	ProbeTrack	11.2	SCS215a	20101025.144757	20101025.151221	8	0.013328	60	0	60-180	60	148	GapExp	0	171	2	1	0	distractor	1	547	727	107122	13.328	13.003	13.670
ProbeTrack11	14	ProbeTrack	11.2	SCS215a	20101025.144757	20101025.151230	8	0.013328	60	10	60-180	60	155	GapExp	0	172	2	3	1	target	1	454	773	107895	13.328	12.915	13.724
ProbeTrack11	14	ProbeTrack	11.2	SCS215a	20101025.144757	20101025.151236	8	0.013328	60	10	60-180	60	65	GapExp	0	173	2	3	1	target	1	374	813	108708	13.328	13.109	13.540
ProbeTrack11	14	ProbeTrack	11.2	SCS215a	20101025.144757	20101025.151242	8	0.013328	60	0	60-180	60	101	GapExp	0	174	2	1	0	distractor	1	507	747	109455	13.328	12.930	13.709
ProbeTrack11	14	ProbeTrack	11.2	SCS215a	20101025.144757	20101025.151248	8	0.013328	60	0	60-180	60	133	GapExp	0	175	2	45	1	target	1	374	813	110268	13.328	12.855	13.804
ProbeTrack11	14	ProbeTrack	11.2	SCS215a	20101025.144757	20101025.151254	8	0.013328	60	0	60-180	60	123	GapExp	0	176	2	3	1	target	1	494	753	111021	13.328	13.308	13.346
ProbeTrack11	14	ProbeTrack	11.2	SCS215a	20101025.144757	20101025.151300	8	0.013328	60	10	60-180	60	165	GapExp	0	177	2	0	1	target	1	467	767	111788	13.328	13.117	13.545
ProbeTrack11	14	ProbeTrack	11.2	SCS215a	20101025.144757	20101025.151331	8	0.013328	60	10	60-180	60	176	GapExp	0	178	2	45	0	distractor	1	600	700	112488	13.328	13.103	13.571
ProbeTrack11	14	ProbeTrack	11.2	SCS215a	20101025.144757	20101025.151339	8	0.013328	60	0	60-180	60	139	GapExp	0	179	2	1	0	distractor	1	574	713	113201	13.328	13.104	13.547
ProbeTrack11	14	ProbeTrack	11.2	SCS215a	20101025.144757	20101025.151345	8	0.013328	60	10	60-180	60	107	GapExp	0	180	2	1	1	target	1	494	753	113954	13.328	13.109	13.547
ProbeTrack11	14	ProbeTrack	11.2	SCS215a	20101025.144757	20101025.151351	8	0.013328	60	0	60-180	60	80	GapExp	0	181	2	45	1	target	1	467	767	114721	13.328	13.297	13.364
ProbeTrack11	14	ProbeTrack	11.2	SCS215a	20101025.144757	20101025.151357	8	0.013328	60	10	60-180	60	106	GapExp	0	182	2	3	0	distractor	1	653	674	115395	13.328	13.307	13.346
ProbeTrack11	14	ProbeTrack	11.2	SCS215a	20101025.144757	20101025.151417	8	0.013328	60	0	60-180	60	159	GapExp	0	183	2	45	1	target	1	507	747	116142	13.328	13.104	13.550
ProbeTrack11	14	ProbeTrack	11.2	SCS215a	20101025.144757	20101025.151424	8	0.013328	60	0	60-180	60	134	GapExp	0	184	2	1	0	distractor	1	600	700	116842	13.328	13.022	13.629
ProbeTrack11	14	ProbeTrack	11.2	SCS215a	20101025.144757	20101025.151430	8	0.013328	60	10	60-180	60	168	GapExp	0	185	2	45	0	distractor	1	520	740	117582	13.328	13.309	13.346
ProbeTrack11	14	ProbeTrack	11.2	SCS215a	20101025.144757	20101025.151438	8	0.013328	60	10	60-180	60	167	GapExp	0	186	2	1	0	distractor	1	480	760	118342	13.328	12.922	13.734
ProbeTrack11	14	ProbeTrack	11.2	SCS215a	20101025.144757	20101025.151446	8	0.013328	60	0	60-180	60	136	GapExp	0	187	2	3	1	target	1	547	727	119069	13.328	12.912	13.744
ProbeTrack11	14	ProbeTrack	11.2	SCS215a	20101025.144757	20101025.151514	8	0.013328	60	0	60-180	60	108	GapExp	0	188	2	45	1	target	1	400	800	119869	13.328	13.100	13.540
ProbeTrack11	14	ProbeTrack	11.2	SCS215a	20101025.144757	20101025.151521	8	0.013328	60	10	60-180	60	120	GapExp	0	189	2	45	1	target	1	454	773	120642	13.328	13.094	13.561
ProbeTrack11	14	ProbeTrack	11.2	SCS215a	20101025.144757	20101025.151528	8	0.013328	60	10	60-180	60	102	GapExp	0	190	2	1	0	distractor	1	600	700	121342	13.328	13.308	13.351
ProbeTrack11	14	ProbeTrack	11.2	SCS215a	20101025.144757	20101025.151534	8	0.013328	60	10	60-180	60	107	GapExp	0	191	2	45	1	target	1	414	793	122135	13.328	12.993	13.675
ProbeTrack11	14	ProbeTrack	11.2	SCS215a	20101025.144757	20101025.151602	8	0.013328	60	10	60-180	60	156	GapExp	0	192	2	0	1	target	1	427	787	122922	13.328	13.198	13.462
ProbeTrack11	14	ProbeTrack	11.2	SCS215a	20101025.144757	20101025.151609	8	0.013328	60	0	60-180	60	126	GapExp	0	193	2	3	1	target	1	400	800	123722	13.328	12.905	13.750
ProbeTrack11	14	ProbeTrack	11.2	SCS215a	20101025.144757	20101025.151615	8	0.013328	60	0	60-180	60	80	GapExp	0	194	2	0	0	target	0	494	-1000	122722	13.328	13.307	13.353
ProbeTrack11	14	ProbeTrack	11.2	SCS215a	20101025.144757	20101025.151623	8	0.013328	60	0	60-180	60	121	GapExp	0	195	2	1	1	target	1	467	767	123489	13.328	13.067	13.573
ProbeTrack11	14	ProbeTrack	11.2	SCS215a	20101025.144757	20101025.151629	8	0.013328	60	0	60-180	60	120	GapExp	0	196	2	1	1	target	1	467	767	124256	13.328	13.310	13.346
ProbeTrack11	14	ProbeTrack	11.2	SCS215a	20101025.144757	20101025.151636	8	0.013328	60	0	60-180	60	79	GapExp	0	197	2	1	1	target	1	667	667	124923	13.328	13.137	13.518
ProbeTrack11	14	ProbeTrack	11.2	SCS215a	20101025.144757	20101025.151712	8	0.013328	60	0	60-180	60	95	GapExp	0	198	2	3	1	target	1	480	760	125683	13.328	12.899	13.747
ProbeTrack11	14	ProbeTrack	11.2	SCS215a	20101025.144757	20101025.151717	8	0.013328	60	0	60-180	60	97	GapExp	0	199	2	0	0	distractor	1	533	734	126417	13.328	13.093	13.563
ProbeTrack11	14	ProbeTrack	11.2	SCS215a	20101025.144757	20101025.151723	8	0.013328	60	10	60-180	60	130	GapExp	0	200	2	3	0	distractor	1	454	773	127190	13.328	12.862	13.797
ProbeTrack11	14	ProbeTrack	11.2	SCS215a	20101025.144757	20101025.151730	8	0.013328	60	0	60-180	60	132	GapExp	0	201	2	0	1	target	1	667	667	127857	13.328	13.097	13.552
ProbeTrack11	14	ProbeTrack	11.2	SCS215a	20101025.144757	20101025.151736	8	0.013328	60	10	60-180	60	125	GapExp	0	202	2	0	0	distractor	1	507	747	128604	13.328	12.866	13.785
ProbeTrack11	14	ProbeTrack	11.2	SCS215a	20101025.144757	20101025.151742	8	0.013328	60	0	60-180	60	162	GapExp	0	203	2	45	1	target	1	374	813	129417	13.328	13.306	13.347
ProbeTrack11	14	ProbeTrack	11.2	SCS215a	20101025.144757	20101025.151750	8	0.013328	60	0	60-180	60	160	GapExp	0	204	2	3	0	distractor	1	707	647	130064	13.328	12.876	13.780
ProbeTrack11	14	ProbeTrack	11.2	SCS215a	20101025.144757	20101025.151818	8	0.013328	60	0	60-180	60	112	GapExp	0	205	2	3	1	target	1	440	780	130844	13.328	13.307	13.345
ProbeTrack11	14	ProbeTrack	11.2	SCS215a	20101025.144757	20101025.151828	8	0.013328	60	0	60-180	60	98	GapExp	0	206	2	45	0	distractor	1	494	753	131597	13.328	13.306	13.347
ProbeTrack11	14	ProbeTrack	11.2	SCS215a	20101025.144757	20101025.151834	8	0.013328	60	0	60-180	60	82	GapExp	0	207	2	1	0	distractor	1	600	700	132297	13.328	13.308	13.346
ProbeTrack11	14	ProbeTrack	11.2	SCS215a	20101025.144757	20101025.151840	8	0.013328	60	10	60-180	60	67	GapExp	0	208	2	45	0	distractor	1	520	740	133037	13.328	13.308	13.347
ProbeTrack11	14	ProbeTrack	11.2	SCS215a	20101025.144757	20101025.151847	8	0.013328	60	0	60-180	60	155	GapExp	0	209	2	45	1	target	1	480	760	133797	13.328	13.108	13.551
ProbeTrack11	14	ProbeTrack	11.2	SCS215a	20101025.144757	20101025.151854	8	0.013328	60	0	60-180	60	109	GapExp	0	210	2	3	1	target	1	507	747	134544	13.328	13.308	13.344
ProbeTrack11	14	ProbeTrack	11.2	SCS215a	20101025.144757	20101025.151901	8	0.013328	60	10	60-180	60	172	GapExp	0	211	2	3	1	target	1	400	800	135344	13.328	13.091	13.550
ProbeTrack11	14	ProbeTrack	11.2	SCS215a	20101025.144757	20101025.151908	8	0.013328	60	0	60-180	60	75	GapExp	0	212	2	45	1	target	1	534	733	136077	13.328	13.106	13.562
ProbeTrack11	14	ProbeTrack	11.2	SCS215a	20101025.144757	20101025.151914	8	0.013328	60	0	60-180	60	63	GapExp	0	213	2	3	1	target	1	454	773	136850	13.328	13.088	13.553
ProbeTrack11	14	ProbeTrack	11.2	SCS215a	20101025.144757	20101025.151920	8	0.013328	60	0	60-180	60	108	GapExp	0	214	2	45	0	distractor	1	587	707	137557	13.328	13.099	13.558
ProbeTrack11	14	ProbeTrack	11.2	SCS215a	20101025.144757	20101025.151926	8	0.013328	60	0	60-180	60	169	GapExp	0	215	2	45	1	target	1	427	787	138344	13.328	13.080	13.568
ProbeTrack11	14	ProbeTrack	11.2	SCS215a	20101025.144757	20101025.151934	8	0.013328	60	0	60-180	60	69	GapExp	0	216	2	0	1	target	1	520	740	139084	13.328	13.308	13.347
ProbeTrack11	14	ProbeTrack	11.2	SCS215a	20101025.144757	20101025.151939	8	0.013328	60	0	60-180	60	90	GapExp	0	217	2	45	1	distractor	0	907	-1000	138084	13.328	13.104	13.548
ProbeTrack11	14	ProbeTrack	11.2	SCS215a	20101025.144757	20101025.152023	8	0.013328	60	0	60-180	60	165	GapExp	0	218	2	0	1	target	1	360	820	138904	13.328	13.105	13.547
ProbeTrack11	14	ProbeTrack	11.2	SCS215a	20101025.144757	20101025.152030	8	0.013328	60	0	60-180	60	80	GapExp	0	219	2	45	1	target	1	414	793	139697	13.328	13.308	13.349
ProbeTrack11	14	ProbeTrack	11.2	SCS215a	20101025.144757	20101025.152038	8	0.013328	60	10	60-180	60	63	GapExp	0	220	2	1	1	target	1	374	813	140510	13.328	13.104	13.544
ProbeTrack11	14	ProbeTrack	11.2	SCS215a	20101025.144757	20101025.152044	8	0.013328	60	10	60-180	60	111	GapExp	0	221	2	1	0	distractor	1	427	787	141297	13.328	13.310	13.345
ProbeTrack11	14	ProbeTrack	11.2	SCS215a	20101025.144757	20101025.152050	8	0.013328	60	0	60-180	60	86	GapExp	0	222	2	3	1	target	1	467	767	142064	13.328	12.931	13.716
ProbeTrack11	14	ProbeTrack	11.2	SCS215a	20101025.144757	20101025.152055	8	0.013328	60	10	60-180	60	63	GapExp	0	223	2	45	1	distractor	0	454	-1000	141064	13.328	13.306	13.347
ProbeTrack11	14	ProbeTrack	11.2	SCS215a	20101025.144757	20101025.152101	8	0.013328	60	10	60-180	60	63	GapExp	0	224	2	45	0	target	0	813	-1000	140064	13.328	13.104	13.553
ProbeTrack11	14	ProbeTrack	11.2	SCS215a	20101025.144757	20101025.152108	8	0.013328	60	10	60-180	60	135	GapExp	0	225	2	0	1	target	1	653	674	140738	13.328	13.302	13.354
ProbeTrack11	14	ProbeTrack	11.2	SCS215a	20101025.144757	20101025.152116	8	0.013328	60	10	60-180	60	150	GapExp	0	226	2	0	1	target	1	440	780	141518	13.328	13.309	13.347
ProbeTrack11	14	ProbeTrack	11.2	SCS215a	20101025.144757	20101025.152125	8	0.013328	60	10	60-180	60	103	GapExp	0	227	2	1	0	target	0	400	-1000	140518	13.328	13.095	13.568
ProbeTrack11	14	ProbeTrack	11.2	SCS215a	20101025.144757	20101025.152147	8	0.013328	60	0	60-180	60	109	GapExp	0	228	2	0	0	distractor	1	574	713	141231	13.328	13.309	13.344
ProbeTrack11	14	ProbeTrack	11.2	SCS215a	20101025.144757	20101025.152153	8	0.013328	60	10	60-180	60	98	GapExp	0	229	2	3	0	distractor	1	480	760	141991	13.328	13.308	13.347
ProbeTrack11	14	ProbeTrack	11.2	SCS215a	20101025.144757	20101025.152159	8	0.013328	60	10	60-180	60	159	GapExp	0	230	2	3	0	distractor	1	494	753	142744	13.328	13.109	13.558
ProbeTrack11	14	ProbeTrack	11.2	SCS215a	20101025.144757	20101025.152207	8	0.013328	60	0	60-180	60	102	GapExp	0	231	2	1	0	distractor	1	574	713	143457	13.328	13.310	13.347
ProbeTrack11	14	ProbeTrack	11.2	SCS215a	20101025.144757	20101025.152214	8	0.013328	60	10	60-180	60	172	GapExp	0	232	2	3	1	target	1	494	753	144210	13.328	13.108	13.552
ProbeTrack11	14	ProbeTrack	11.2	SCS215a	20101025.144757	20101025.152222	8	0.013328	60	0	60-180	60	152	GapExp	0	233	2	45	0	distractor	1	613	694	144904	13.328	13.025	13.636
ProbeTrack11	14	ProbeTrack	11.2	SCS215a	20101025.144757	20101025.152231	8	0.013328	60	10	60-180	60	88	GapExp	0	234	2	45	0	distractor	1	560	720	145624	13.328	13.291	13.354
ProbeTrack11	14	ProbeTrack	11.2	SCS215a	20101025.144757	20101025.152254	8	0.013328	60	0	60-180	60	79	GapExp	0	235	2	0	1	target	1	640	680	146304	13.328	13.309	13.346
ProbeTrack11	14	ProbeTrack	11.2	SCS215a	20101025.144757	20101025.152300	8	0.013328	60	0	60-180	60	160	GapExp	0	236	2	45	0	distractor	1	747	627	146931	13.328	13.096	13.563
ProbeTrack11	14	ProbeTrack	11.2	SCS215a	20101025.144757	20101025.152314	8	0.013328	60	0	60-180	60	108	GapExp	0	237	2	1	1	target	1	480	760	147691	13.449	12.850	27.071
ProbeTrack11	14	ProbeTrack	11.2	SCS215a	20101025.144757	20101025.152322	8	0.013328	60	10	60-180	60	122	GapExp	0	238	2	0	0	distractor	1	614	693	148384	13.328	13.309	13.346
ProbeTrack11	14	ProbeTrack	11.2	SCS215a	20101025.144757	20101025.152343	8	0.013328	60	0	60-180	60	137	GapExp	0	239	2	45	1	target	1	467	767	149151	13.328	13.306	13.348
ProbeTrack11	14	ProbeTrack	11.2	SCS215a	20101025.144757	20101025.152358	8	0.013328	60	0	60-180	60	92	GapExp	0	240	2	0	0	distractor	1	653	674	149825	13.389	13.041	26.939
ProbeTrack11	14	ProbeTrack	11.2	SCS215a	20101025.144757	20101025.152407	8	0.013328	60	0	60-180	60	130	GapExp	0	241	2	0	0	distractor	1	547	727	150552	13.328	12.988	13.689
ProbeTrack11	14	ProbeTrack	11.2	SCS215a	20101025.144757	20101025.152415	8	0.013328	60	0	60-180	60	167	GapExp	0	242	2	1	0	distractor	1	627	687	151239	13.328	13.310	13.347
ProbeTrack11	14	ProbeTrack	11.2	SCS215a	20101025.144757	20101025.152426	8	0.013328	60	10	60-180	60	77	GapExp	0	243	2	0	1	target	1	1200	400	151639	13.328	13.130	13.541
ProbeTrack11	14	ProbeTrack	11.2	SCS215a	20101025.144757	20101025.152434	8	0.013328	60	10	60-180	60	172	GapExp	0	244	2	0	1	target	1	387	807	152446	13.328	12.884	13.787
ProbeTrack11	14	ProbeTrack	11.2	SCS215a	20101025.144757	20101025.152444	8	0.013328	60	10	60-180	60	139	GapExp	0	245	2	0	1	target	1	347	827	153273	13.328	13.306	13.347
ProbeTrack11	14	ProbeTrack	11.2	SCS215a	20101025.144757	20101025.152454	8	0.013328	60	10	60-180	60	107	GapExp	0	246	2	45	0	target	0	414	-1000	152273	13.328	13.311	13.346
ProbeTrack11	14	ProbeTrack	11.2	SCS215a	20101025.144757	20101025.152501	8	0.013328	60	10	60-180	60	63	GapExp	0	247	2	1	0	target	0	507	-1000	151273	13.328	12.880	13.783
ProbeTrack11	14	ProbeTrack	11.2	SCS215a	20101025.144757	20101025.152506	8	0.013328	60	10	60-180	60	121	GapExp	0	248	2	45	1	target	1	653	674	151947	13.328	12.893	13.778
ProbeTrack11	14	ProbeTrack	11.2	SCS215a	20101025.144757	20101025.152513	8	0.013328	60	0	60-180	60	149	GapExp	0	249	2	1	1	target	1	427	787	152734	13.328	13.272	13.371
ProbeTrack11	14	ProbeTrack	11.2	SCS215a	20101025.144757	20101025.152522	8	0.013328	60	0	60-180	60	143	GapExp	0	250	2	45	0	distractor	1	587	707	153441	13.328	12.871	13.789
ProbeTrack11	14	ProbeTrack	11.2	SCS215a	20101025.144757	20101025.152603	8	0.013328	60	10	60-180	60	62	GapExp	0	251	2	0	1	target	1	560	720	154161	13.328	12.901	13.764
ProbeTrack11	14	ProbeTrack	11.2	SCS215a	20101025.144757	20101025.152634	8	0.013328	60	0	60-180	60	175	GapExp	0	252	2	0	1	target	1	387	807	154968	13.328	12.988	13.673
ProbeTrack11	14	ProbeTrack	11.2	SCS215a	20101025.144757	20101025.152640	8	0.013328	60	10	60-180	60	90	GapExp	0	253	2	0	0	target	0	360	-1000	153968	13.328	13.307	13.348
ProbeTrack11	14	ProbeTrack	11.2	SCS215a	20101025.144757	20101025.152646	8	0.013328	60	10	60-180	60	84	GapExp	0	254	2	0	0	distractor	1	680	660	154628	13.328	13.071	13.576
ProbeTrack11	14	ProbeTrack	11.2	SCS215a	20101025.144757	20101025.152652	8	0.013328	60	10	60-180	60	98	GapExp	0	255	2	1	0	distractor	1	587	707	155335	13.328	13.308	13.342
ProbeTrack11	14	ProbeTrack	11.2	SCS215a	20101025.144757	20101025.152658	8	0.013328	60	10	60-180	60	129	GapExp	0	256	2	45	0	target	0	427	-1000	154335	13.328	13.104	13.552
ProbeTrack11	14	ProbeTrack	11.2	SCS215a	20101025.144757	20101025.152705	8	0.013328	60	10	60-180	60	173	GapExp	0	257	2	1	1	target	1	400	800	155135	13.328	13.309	13.347
ProbeTrack11	14	ProbeTrack	11.2	SCS215a	20101025.144757	20101025.152713	8	0.013328	60	10	60-180	60	131	GapExp	0	258	2	1	0	distractor	1	547	727	155862	13.328	13.304	13.347
ProbeTrack11	14	ProbeTrack	11.2	SCS215a	20101025.144757	20101025.152720	8	0.013328	60	0	60-180	60	169	GapExp	0	259	2	3	1	target	1	414	793	156655	13.328	13.115	13.538
ProbeTrack11	14	ProbeTrack	11.2	SCS215a	20101025.144757	20101025.152732	8	0.013328	60	10	60-180	60	153	GapExp	0	260	2	1	1	target	1	427	787	157442	13.328	13.045	13.621
ProbeTrack11	14	ProbeTrack	11.2	SCS215a	20101025.144757	20101025.152740	8	0.013328	60	10	60-180	60	160	GapExp	0	261	2	0	1	target	1	427	787	158229	13.328	13.308	13.345
ProbeTrack11	14	ProbeTrack	11.2	SCS215a	20101025.144757	20101025.152811	8	0.013328	60	10	60-180	60	111	GapExp	0	262	2	3	1	target	1	360	820	159049	13.328	13.073	13.577
ProbeTrack11	14	ProbeTrack	11.2	SCS215a	20101025.144757	20101025.152818	8	0.013328	60	0	60-180	60	123	GapExp	0	263	2	3	1	target	1	454	773	159822	13.328	13.309	13.345
ProbeTrack11	14	ProbeTrack	11.2	SCS215a	20101025.144757	20101025.152824	8	0.013328	60	10	60-180	60	149	GapExp	0	264	2	0	0	distractor	1	520	740	160562	13.328	12.889	13.768
ProbeTrack11	14	ProbeTrack	11.2	SCS215a	20101025.144757	20101025.152830	8	0.013328	60	10	60-180	60	111	GapExp	0	265	2	45	0	distractor	1	467	767	161329	13.328	13.072	13.585
ProbeTrack11	14	ProbeTrack	11.2	SCS215a	20101025.144757	20101025.152837	8	0.013328	60	0	60-180	60	162	GapExp	0	266	2	1	0	distractor	1	587	707	162036	13.328	13.105	13.550
ProbeTrack11	14	ProbeTrack	11.2	SCS215a	20101025.144757	20101025.152843	8	0.013328	60	10	60-180	60	135	GapExp	0	267	2	0	1	target	1	494	753	162789	13.328	12.987	13.672
ProbeTrack11	14	ProbeTrack	11.2	SCS215a	20101025.144757	20101025.152850	8	0.013328	60	10	60-180	60	161	GapExp	0	268	2	45	1	distractor	0	534	-1000	161789	13.328	13.069	13.589
ProbeTrack11	14	ProbeTrack	11.2	SCS215a	20101025.144757	20101025.152858	8	0.013328	60	0	60-180	60	122	GapExp	0	269	2	1	0	distractor	1	720	640	162429	13.328	13.048	13.593
ProbeTrack11	14	ProbeTrack	11.2	SCS215a	20101025.144757	20101025.152904	8	0.013328	60	10	60-180	60	69	GapExp	0	270	2	45	1	distractor	0	653	-1000	161429	13.328	12.967	13.687
ProbeTrack11	14	ProbeTrack	11.2	SCS215a	20101025.144757	20101025.152911	8	0.013328	60	0	60-180	60	70	GapExp	0	271	2	1	1	target	1	467	767	162196	13.328	12.932	13.713
ProbeTrack11	14	ProbeTrack	11.2	SCS215a	20101025.144757	20101025.152916	8	0.013328	60	0	60-180	60	154	GapExp	0	272	2	45	0	distractor	1	693	654	162850	13.328	12.934	13.724
ProbeTrack11	14	ProbeTrack	11.2	SCS215a	20101025.144757	20101025.152924	8	0.013328	60	10	60-180	60	134	GapExp	0	273	2	3	1	target	1	334	833	163683	13.328	13.109	13.548
ProbeTrack11	14	ProbeTrack	11.2	SCS215a	20101025.144757	20101025.153027	8	0.013328	60	0	60-180	60	149	GapExp	0	274	2	1	0	distractor	1	560	720	164403	13.328	12.856	13.805
ProbeTrack11	14	ProbeTrack	11.2	SCS215a	20101025.144757	20101025.153035	8	0.013328	60	10	60-180	60	159	GapExp	0	275	2	3	0	distractor	1	480	760	165163	13.328	13.296	13.368
ProbeTrack11	14	ProbeTrack	11.2	SCS215a	20101025.144757	20101025.153042	8	0.013328	60	0	60-180	60	62	GapExp	0	276	2	3	0	distractor	1	613	694	165857	13.328	13.121	13.533
ProbeTrack11	14	ProbeTrack	11.2	SCS215a	20101025.144757	20101025.153049	8	0.013328	60	0	60-180	60	100	GapExp	0	277	2	3	0	distractor	1	574	713	166570	13.328	13.306	13.352
ProbeTrack11	14	ProbeTrack	11.2	SCS215a	20101025.144757	20101025.153056	8	0.013328	60	10	60-180	60	158	GapExp	0	278	2	1	0	distractor	1	494	753	167323	13.328	13.119	13.556
ProbeTrack11	14	ProbeTrack	11.2	SCS215a	20101025.144757	20101025.153130	8	0.013328	60	10	60-180	60	173	GapExp	0	279	2	0	1	distractor	0	534	-1000	166323	13.328	13.107	13.545
ProbeTrack11	14	ProbeTrack	11.2	SCS215a	20101025.144757	20101025.153137	8	0.013328	60	10	60-180	60	146	GapExp	0	280	2	0	0	target	0	534	-1000	165323	13.328	13.266	13.400
ProbeTrack11	14	ProbeTrack	11.2	SCS215a	20101025.144757	20101025.153144	8	0.013328	60	10	60-180	60	119	GapExp	0	281	2	3	0	target	0	520	-1000	164323	13.328	13.310	13.346
ProbeTrack11	14	ProbeTrack	11.2	SCS215a	20101025.144757	20101025.153153	8	0.013328	60	10	60-180	60	88	GapExp	0	282	2	3	1	distractor	0	400	-1000	163323	13.327	13.066	13.560
ProbeTrack11	14	ProbeTrack	11.2	SCS215a	20101025.144757	20101025.153158	8	0.013328	60	0	60-180	60	130	GapExp	0	283	2	3	0	distractor	1	560	720	164043	13.328	13.113	13.539
ProbeTrack11	14	ProbeTrack	11.2	SCS215a	20101025.144757	20101025.153205	8	0.013328	60	0	60-180	60	109	GapExp	0	284	2	3	1	target	1	534	733	164776	13.328	12.870	13.787
ProbeTrack11	14	ProbeTrack	11.2	SCS215a	20101025.144757	20101025.153212	8	0.013328	60	0	60-180	60	157	GapExp	0	285	2	1	0	distractor	1	507	747	165523	13.328	13.309	13.347
ProbeTrack11	14	ProbeTrack	11.2	SCS215a	20101025.144757	20101025.153220	8	0.013328	60	0	60-180	60	84	GapExp	0	286	2	0	0	distractor	1	613	694	166217	13.328	13.310	13.347
ProbeTrack11	14	ProbeTrack	11.2	SCS215a	20101025.144757	20101025.153229	8	0.013328	60	0	60-180	60	95	GapExp	0	287	2	3	0	distractor	1	600	700	166917	13.328	13.310	13.346
ProbeTrack11	14	ProbeTrack	11.2	SCS215a	20101025.144757	20101025.153236	8	0.013328	60	10	60-180	60	81	GapExp	0	288	2	1	1	target	1	574	713	167630	13.328	13.302	13.350
ProbeTrack11	14	ProbeTrack	11.2	SCS215a	20101025.144757	20101025.153244	8	0.013328	60	10	60-180	60	86	GapExp	0	289	2	3	0	target	0	494	-1000	166630	13.328	13.309	13.347
ProbeTrack11	14	ProbeTrack	11.2	SCS215a	20101025.144757	20101025.153250	8	0.013328	60	10	60-180	60	128	GapExp	0	290	2	0	1	target	1	400	800	167430	13.328	13.310	13.346
ProbeTrack11	14	ProbeTrack	11.2	SCS215a	20101025.144757	20101025.153256	8	0.013328	60	0	60-180	60	99	GapExp	0	291	2	45	0	target	0	600	-1000	166430	13.328	12.946	13.718
ProbeTrack11	14	ProbeTrack	11.2	SCS215a	20101025.144757	20101025.153302	8	0.013328	60	10	60-180	60	68	GapExp	0	292	2	0	1	target	1	414	793	167223	13.328	13.116	13.550
ProbeTrack11	14	ProbeTrack	11.2	SCS215a	20101025.144757	20101025.153308	8	0.013328	60	0	60-180	60	176	GapExp	0	293	2	45	0	distractor	1	640	680	167903	13.328	13.094	13.562
ProbeTrack11	14	ProbeTrack	11.2	SCS215a	20101025.144757	20101025.153315	8	0.013328	60	0	60-180	60	73	GapExp	0	294	2	0	0	distractor	1	653	674	168577	13.328	13.107	13.552
ProbeTrack11	14	ProbeTrack	11.2	SCS215a	20101025.144757	20101025.153321	8	0.013328	60	10	60-180	60	62	GapExp	0	295	2	3	0	target	0	1067	-1000	167577	13.328	12.941	13.718
ProbeTrack11	14	ProbeTrack	11.2	SCS215a	20101025.144757	20101025.153335	8	0.013328	60	10	60-180	60	159	GapExp	0	296	2	0	0	distractor	1	440	780	168357	13.328	12.938	13.729
ProbeTrack11	14	ProbeTrack	11.2	SCS215a	20101025.144757	20101025.153342	8	0.013328	60	0	60-180	60	133	GapExp	0	297	2	3	0	distractor	1	467	767	169124	13.328	13.103	13.564
ProbeTrack11	14	ProbeTrack	11.2	SCS215a	20101025.144757	20101025.153350	8	0.013328	60	10	60-180	60	138	GapExp	0	298	2	3	0	distractor	1	387	807	169931	13.328	12.922	13.743
ProbeTrack11	14	ProbeTrack	11.2	SCS215a	20101025.144757	20101025.153356	8	0.013328	60	0	60-180	60	116	GapExp	0	299	2	0	1	target	1	813	594	170525	13.328	13.103	13.545
ProbeTrack11	14	ProbeTrack	11.2	SCS215a	20101025.144757	20101025.153404	8	0.013328	60	0	60-180	60	133	GapExp	0	300	2	0	0	distractor	1	840	580	171105	13.328	12.988	13.658
ProbeTrack11	14	ProbeTrack	11.2	SCS215a	20101025.144757	20101025.153410	8	0.013328	60	0	60-180	60	117	GapExp	0	301	2	0	0	distractor	1	667	667	171772	13.328	13.098	13.571
ProbeTrack11	14	ProbeTrack	11.2	SCS215a	20101025.144757	20101025.153418	8	0.013328	60	0	60-180	60	117	GapExp	0	302	2	3	1	target	1	800	600	172372	13.328	13.102	13.557
ProbeTrack11	14	ProbeTrack	11.2	SCS215a	20101025.144757	20101025.153425	8	0.013328	60	0	60-180	60	105	GapExp	0	303	2	3	0	distractor	1	574	713	173085	13.328	13.309	13.344
ProbeTrack11	14	ProbeTrack	11.2	SCS215a	20101025.144757	20101025.153431	8	0.013328	60	10	60-180	60	141	GapExp	0	304	2	0	1	target	1	507	747	173832	13.328	13.101	13.552
ProbeTrack11	14	ProbeTrack	11.2	SCS215a	20101025.144757	20101025.153437	8	0.013328	60	10	60-180	60	112	GapExp	0	305	2	3	0	distractor	1	507	747	174579	13.328	12.869	13.786
ProbeTrack11	14	ProbeTrack	11.2	SCS215a	20101025.144757	20101025.153444	8	0.013328	60	0	60-180	60	163	GapExp	0	306	2	0	1	target	1	467	767	175346	13.376	12.820	27.007
ProbeTrack11	14	ProbeTrack	11.2	SCS215a	20101025.144757	20101025.153501	8	0.013328	60	0	60-180	60	85	GapExp	0	307	2	3	0	distractor	1	494	753	176099	13.328	13.306	13.347
ProbeTrack11	14	ProbeTrack	11.2	SCS215a	20101025.144757	20101025.153509	8	0.013328	60	0	60-180	60	112	GapExp	0	308	2	1	0	distractor	1	494	753	176852	13.328	13.306	13.344
ProbeTrack11	14	ProbeTrack	11.2	SCS215a	20101025.144757	20101025.153515	8	0.013328	60	0	60-180	60	93	GapExp	0	309	2	45	0	distractor	1	467	767	177619	13.328	12.856	13.804
ProbeTrack11	14	ProbeTrack	11.2	SCS215a	20101025.144757	20101025.153522	8	0.013328	60	0	60-180	60	95	GapExp	0	310	2	1	0	distractor	1	640	680	178299	13.328	13.306	13.350
ProbeTrack11	14	ProbeTrack	11.2	SCS215a	20101025.144757	20101025.153529	8	0.013328	60	0	60-180	60	161	GapExp	0	311	2	0	0	distractor	1	427	787	179086	13.328	13.090	13.553
ProbeTrack11	14	ProbeTrack	11.2	SCS215a	20101025.144757	20101025.153535	8	0.013328	60	10	60-180	60	149	GapExp	0	312	2	3	1	target	1	454	773	179859	13.328	13.302	13.345
ProbeTrack11	14	ProbeTrack	11.2	SCS215a	20101025.144757	20101025.153544	8	0.013328	60	0	60-180	60	63	GapExp	0	313	2	3	0	target	0	427	-1000	178859	13.328	12.983	13.669
ProbeTrack11	14	ProbeTrack	11.2	SCS215a	20101025.144757	20101025.153550	8	0.013328	60	10	60-180	60	87	GapExp	0	314	2	45	1	target	1	454	773	179632	13.328	13.169	13.489
ProbeTrack11	14	ProbeTrack	11.2	SCS215a	20101025.144757	20101025.153557	8	0.013328	60	0	60-180	60	145	GapExp	0	315	2	1	1	target	1	494	753	180385	13.328	13.308	13.347
ProbeTrack11	14	ProbeTrack	11.2	SCS215a	20101025.144757	20101025.153607	8	0.013328	60	10	60-180	60	139	GapExp	0	316	2	3	1	target	1	320	840	181225	13.328	12.887	13.772
ProbeTrack11	14	ProbeTrack	11.2	SCS215a	20101025.144757	20101025.153614	8	0.013328	60	0	60-180	60	160	GapExp	0	317	2	45	1	target	1	387	807	182032	13.328	13.310	13.348
ProbeTrack11	14	ProbeTrack	11.2	SCS215a	20101025.144757	20101025.153621	8	0.013328	60	0	60-180	60	89	GapExp	0	318	2	1	1	target	1	414	793	182825	13.328	13.297	13.365
ProbeTrack11	14	ProbeTrack	11.2	SCS215a	20101025.144757	20101025.153642	8	0.013328	60	10	60-180	60	82	GapExp	0	319	2	1	0	target	0	400	-1000	181825	13.328	13.308	13.347
ProbeTrack11	14	ProbeTrack	11.2	SCS215a	20101025.144757	20101025.153647	8	0.013328	60	10	60-180	60	121	GapExp	0	320	2	0	0	distractor	1	653	674	182499	13.328	12.911	13.764
ProbeTrack11	14	ProbeTrack	11.2	SCS215a	20101025.144757	20101025.153654	8	0.013328	60	0	60-180	60	130	GapExp	0	321	2	1	1	target	1	454	773	183272	13.328	13.308	13.348
ProbeTrack11	14	ProbeTrack	11.2	SCS215a	20101025.144757	20101025.153701	8	0.013328	60	0	60-180	60	118	GapExp	0	322	2	1	1	target	1	374	813	184085	13.328	13.123	13.541
ProbeTrack11	14	ProbeTrack	11.2	SCS215a	20101025.144757	20101025.153708	8	0.013328	60	0	60-180	60	114	GapExp	0	323	2	0	0	distractor	1	600	700	184785	13.328	13.129	13.536
ProbeTrack11	14	ProbeTrack	11.2	SCS215a	20101025.144757	20101025.153715	8	0.013328	60	10	60-180	60	120	GapExp	0	324	2	0	1	target	1	374	813	185598	13.328	13.309	13.347
ProbeTrack11	14	ProbeTrack	11.2	SCS215a	20101025.144757	20101025.153721	8	0.013328	60	0	60-180	60	107	GapExp	0	325	2	3	1	target	1	560	720	186318	13.328	13.034	13.623
ProbeTrack11	14	ProbeTrack	11.2	SCS215a	20101025.144757	20101025.153727	8	0.013328	60	10	60-180	60	137	GapExp	0	326	2	3	0	distractor	1	494	753	187071	13.328	13.279	13.378
ProbeTrack11	14	ProbeTrack	11.2	SCS215a	20101025.144757	20101025.153736	8	0.013328	60	10	60-180	60	77	GapExp	0	327	2	0	0	target	0	507	-1000	186071	13.328	13.309	13.347
ProbeTrack11	14	ProbeTrack	11.2	SCS215a	20101025.144757	20101025.153742	8	0.013328	60	0	60-180	60	122	GapExp	0	328	2	3	1	target	1	560	720	186791	13.328	12.946	13.713
ProbeTrack11	14	ProbeTrack	11.2	SCS215a	20101025.144757	20101025.153749	8	0.013328	60	10	60-180	60	75	GapExp	0	329	2	45	1	target	1	347	827	187618	13.328	12.924	13.731
ProbeTrack11	14	ProbeTrack	11.2	SCS215a	20101025.144757	20101025.153756	8	0.013328	60	10	60-180	60	113	GapExp	0	330	2	3	0	distractor	1	680	660	188278	13.328	13.054	13.605
ProbeTrack11	14	ProbeTrack	11.2	SCS215a	20101025.144757	20101025.153802	8	0.013328	60	0	60-180	60	120	GapExp	0	331	2	1	1	target	1	520	740	189018	13.328	13.098	13.570
ProbeTrack11	14	ProbeTrack	11.2	SCS215a	20101025.144757	20101025.153816	8	0.013328	60	10	60-180	60	102	GapExp	0	332	2	1	0	target	0	667	-1000	188018	13.383	13.299	26.660
ProbeTrack11	14	ProbeTrack	11.2	SCS215a	20101025.144757	20101025.153822	8	0.013328	60	0	60-180	60	97	GapExp	0	333	2	0	1	target	1	693	654	188672	13.328	12.846	13.819
ProbeTrack11	14	ProbeTrack	11.2	SCS215a	20101025.144757	20101025.153831	8	0.013328	60	0	60-180	60	157	GapExp	0	334	2	0	0	distractor	1	813	594	189266	13.328	12.860	13.806
ProbeTrack11	14	ProbeTrack	11.2	SCS215a	20101025.144757	20101025.153839	8	0.013328	60	0	60-180	60	121	GapExp	0	335	2	3	0	target	0	547	-1000	188266	13.327	13.104	13.347
ProbeTrack11	14	ProbeTrack	11.2	SCS215a	20101025.144757	20101025.153845	8	0.013328	60	0	60-180	60	151	GapExp	0	336	2	45	1	distractor	0	360	-1000	187266	13.328	13.043	13.602
ProbeTrack11	14	ProbeTrack	11.2	SCS215a	20101025.144757	20101025.153852	8	0.013328	60	0	60-180	60	91	GapExp	0	337	2	3	1	target	1	427	787	188053	13.328	13.304	13.349
ProbeTrack11	14	ProbeTrack	11.2	SCS215a	20101025.144757	20101025.153858	8	0.013328	60	0	60-180	60	80	GapExp	0	338	2	1	0	distractor	1	653	674	188727	13.328	12.904	13.735
ProbeTrack11	14	ProbeTrack	11.2	SCS215a	20101025.144757	20101025.153903	8	0.013328	60	0	60-180	60	96	GapExp	0	339	2	1	1	target	1	813	594	189321	13.328	12.854	13.804
ProbeTrack11	14	ProbeTrack	11.2	SCS215a	20101025.144757	20101025.153910	8	0.013328	60	0	60-180	60	83	GapExp	0	340	2	45	1	target	1	427	787	190108	13.328	12.989	13.684
ProbeTrack11	14	ProbeTrack	11.2	SCS215a	20101025.144757	20101025.153916	8	0.013328	60	10	60-180	60	107	GapExp	0	341	2	1	1	target	1	627	687	190795	13.328	13.309	13.347
ProbeTrack11	14	ProbeTrack	11.2	SCS215a	20101025.144757	20101025.153922	8	0.013328	60	10	60-180	60	112	GapExp	0	342	2	45	1	target	1	414	793	191588	13.328	13.308	13.346
ProbeTrack11	14	ProbeTrack	11.2	SCS215a	20101025.144757	20101025.153929	8	0.013328	60	0	60-180	60	85	GapExp	0	343	2	45	0	distractor	1	547	727	192315	13.328	13.308	13.344
ProbeTrack11	14	ProbeTrack	11.2	SCS215a	20101025.144757	20101025.153936	8	0.013328	60	0	60-180	60	152	GapExp	0	344	2	1	0	distractor	1	627	687	193002	13.328	13.308	13.351
ProbeTrack11	14	ProbeTrack	11.2	SCS215a	20101025.144757	20101025.153944	8	0.013328	60	0	60-180	60	141	GapExp	0	345	2	3	0	distractor	1	454	773	193775	13.328	13.308	13.346
ProbeTrack11	14	ProbeTrack	11.2	SCS215a	20101025.144757	20101025.153950	8	0.013328	60	10	60-180	60	92	GapExp	0	346	2	0	0	distractor	1	454	773	194548	13.328	12.842	13.819
ProbeTrack11	14	ProbeTrack	11.2	SCS215a	20101025.144757	20101025.153957	8	0.013328	60	0	60-180	60	130	GapExp	0	347	2	1	1	target	1	480	760	195308	13.328	13.304	13.347
ProbeTrack11	14	ProbeTrack	11.2	SCS215a	20101025.144757	20101025.154004	8	0.013328	60	10	60-180	60	63	GapExp	0	348	2	1	1	target	1	400	800	196108	13.328	13.304	13.354
ProbeTrack11	14	ProbeTrack	11.2	SCS215a	20101025.144757	20101025.154010	8	0.013328	60	10	60-180	60	130	GapExp	0	349	2	45	0	target	0	827	-1000	195108	13.328	13.309	13.347
ProbeTrack11	14	ProbeTrack	11.2	SCS215a	20101025.144757	20101025.154017	8	0.013328	60	10	60-180	60	110	GapExp	0	350	2	1	0	distractor	1	494	753	195861	13.328	13.306	13.346
ProbeTrack11	14	ProbeTrack	11.2	SCS215a	20101025.144757	20101025.154024	8	0.013328	60	0	60-180	60	80	GapExp	0	351	2	45	1	target	1	587	707	196568	13.328	13.309	13.345
ProbeTrack11	14	ProbeTrack	11.2	SCS215a	20101025.144757	20101025.154030	8	0.013328	60	10	60-180	60	97	GapExp	0	352	2	3	1	target	1	454	773	197341	13.328	13.006	13.653
ProbeTrack11	14	ProbeTrack	11.2	SCS215a	20101025.144757	20101025.154036	8	0.013328	60	10	60-180	60	82	GapExp	0	353	2	45	1	target	1	374	813	198154	13.328	13.109	13.541
ProbeTrack11	14	ProbeTrack	11.2	SCS215a	20101025.144757	20101025.154042	8	0.013328	60	10	60-180	60	155	GapExp	0	354	2	3	1	target	1	427	787	198941	13.328	13.305	13.350
ProbeTrack11	14	ProbeTrack	11.2	SCS215a	20101025.144757	20101025.154052	8	0.013328	60	10	60-180	60	112	GapExp	0	355	2	1	1	target	1	387	807	199748	13.444	13.110	39.983
ProbeTrack11	14	ProbeTrack	11.2	SCS215a	20101025.144757	20101025.154132	8	0.013328	60	0	60-180	60	98	GapExp	0	356	2	3	1	target	1	534	733	200481	13.328	12.944	13.740
ProbeTrack11	14	ProbeTrack	11.2	SCS215a	20101025.144757	20101025.154138	8	0.013328	60	10	60-180	60	66	GapExp	0	357	2	0	0	target	0	440	-1000	199481	13.328	12.980	13.709
ProbeTrack11	14	ProbeTrack	11.2	SCS215a	20101025.144757	20101025.154152	8	0.013328	60	10	60-180	60	111	GapExp	0	358	2	3	0	distractor	1	494	753	200234	13.328	12.918	13.743
ProbeTrack11	14	ProbeTrack	11.2	SCS215a	20101025.144757	20101025.154159	8	0.013328	60	0	60-180	60	149	GapExp	0	359	2	45	1	target	1	494	753	200987	13.328	13.277	13.371
ProbeTrack11	14	ProbeTrack	11.2	SCS215a	20101025.144757	20101025.154222	8	0.013328	60	10	60-180	60	83	GapExp	0	360	2	45	0	target	0	600	-1000	199987	13.328	12.874	13.778
ProbeTrack11	14	ProbeTrack	11.2	SCS215a	20101025.144757	20101025.154229	8	0.013328	60	0	60-180	60	100	GapExp	0	361	2	45	1	target	1	507	747	200734	13.328	13.093	13.566
ProbeTrack11	14	ProbeTrack	11.2	SCS215a	20101025.144757	20101025.154235	8	0.013328	60	10	60-180	60	142	GapExp	0	362	2	1	0	distractor	1	600	700	201434	13.328	12.936	13.713
ProbeTrack11	14	ProbeTrack	11.2	SCS215a	20101025.144757	20101025.154242	8	0.013328	60	0	60-180	60	114	GapExp	0	363	2	1	1	target	1	480	760	202194	13.328	13.112	13.547
ProbeTrack11	14	ProbeTrack	11.2	SCS215a	20101025.144757	20101025.154248	8	0.013328	60	0	60-180	60	101	GapExp	0	364	2	0	0	distractor	1	587	707	202901	13.328	13.105	13.554
ProbeTrack11	14	ProbeTrack	11.2	SCS215a	20101025.144757	20101025.154254	8	0.013328	60	10	60-180	60	178	GapExp	0	365	2	45	0	distractor	1	693	654	203555	13.328	12.908	13.731
ProbeTrack11	14	ProbeTrack	11.2	SCS215a	20101025.144757	20101025.154302	8	0.013328	60	10	60-180	60	101	GapExp	0	366	2	0	0	distractor	1	507	747	204302	13.328	13.102	13.563
ProbeTrack11	14	ProbeTrack	11.2	SCS215a	20101025.144757	20101025.154308	8	0.013328	60	10	60-180	60	158	GapExp	0	367	2	45	0	distractor	1	534	733	205035	13.328	13.098	13.549
ProbeTrack11	14	ProbeTrack	11.2	SCS215a	20101025.144757	20101025.154315	8	0.013328	60	0	60-180	60	82	GapExp	0	368	2	45	1	target	1	440	780	205815	13.328	13.308	13.358
ProbeTrack11	14	ProbeTrack	11.2	SCS215a	20101025.144757	20101025.154321	8	0.013328	60	10	60-180	60	136	GapExp	0	369	2	3	0	distractor	1	587	707	206522	13.328	13.099	13.543
ProbeTrack11	14	ProbeTrack	11.2	SCS215a	20101025.144757	20101025.154331	8	0.013328	60	0	60-180	60	81	GapExp	0	370	2	0	0	target	0	614	-1000	205522	13.328	13.110	13.538
ProbeTrack11	14	ProbeTrack	11.2	SCS215a	20101025.144757	20101025.154337	8	0.013328	60	0	60-180	60	177	GapExp	0	371	2	1	1	distractor	0	507	-1000	204522	13.328	13.118	13.553
ProbeTrack11	14	ProbeTrack	11.2	SCS215a	20101025.144757	20101025.154345	8	0.013328	60	10	60-180	60	126	GapExp	0	372	2	0	1	target	1	440	780	205302	13.328	13.111	13.561
ProbeTrack11	14	ProbeTrack	11.2	SCS215a	20101025.144757	20101025.154351	8	0.013328	60	10	60-180	60	115	GapExp	0	373	2	1	0	distractor	1	547	727	206029	13.328	13.104	13.556
ProbeTrack11	14	ProbeTrack	11.2	SCS215a	20101025.144757	20101025.154357	8	0.013328	60	0	60-180	60	98	GapExp	0	374	2	0	0	distractor	1	534	733	206762	13.328	13.293	13.347
ProbeTrack11	14	ProbeTrack	11.2	SCS215a	20101025.144757	20101025.154403	8	0.013328	60	0	60-180	60	64	GapExp	0	375	2	45	0	distractor	1	480	760	207522	13.328	13.307	13.346
ProbeTrack11	14	ProbeTrack	11.2	SCS215a	20101025.144757	20101025.154409	8	0.013328	60	0	60-180	60	166	GapExp	0	376	2	3	1	distractor	0	454	-1000	206522	13.328	13.308	13.347
ProbeTrack11	14	ProbeTrack	11.2	SCS215a	20101025.144757	20101025.154415	8	0.013328	60	10	60-180	60	85	GapExp	0	377	2	3	1	target	1	467	767	207289	13.328	13.308	13.349
ProbeTrack11	14	ProbeTrack	11.2	SCS215a	20101025.144757	20101025.154421	8	0.013328	60	0	60-180	60	166	GapExp	0	378	2	45	1	target	1	614	693	207982	13.328	12.893	13.758
ProbeTrack11	14	ProbeTrack	11.2	SCS215a	20101025.144757	20101025.154428	8	0.013328	60	10	60-180	60	79	GapExp	0	379	2	45	1	target	1	400	800	208782	13.328	13.308	13.346
ProbeTrack11	14	ProbeTrack	11.2	SCS215a	20101025.144757	20101025.154435	8	0.013328	60	10	60-180	60	125	GapExp	0	380	2	0	0	distractor	1	720	640	209422	13.328	12.959	13.695
ProbeTrack11	14	ProbeTrack	11.2	SCS215a	20101025.144757	20101025.154441	8	0.013328	60	0	60-180	60	164	GapExp	0	381	2	3	1	target	1	494	753	210175	13.328	13.097	13.569
ProbeTrack11	14	ProbeTrack	11.2	SCS215a	20101025.144757	20101025.154448	8	0.013328	60	0	60-180	60	95	GapExp	0	382	2	0	1	target	1	387	807	210982	13.328	12.915	13.753
ProbeTrack11	14	ProbeTrack	11.2	SCS215a	20101025.144757	20101025.154453	8	0.013328	60	0	60-180	60	65	GapExp	0	383	2	45	0	target	0	414	-1000	209982	13.328	13.307	13.347
ProbeTrack11	14	ProbeTrack	11.2	SCS215a	20101025.144757	20101025.154459	8	0.013328	60	10	60-180	60	66	GapExp	0	384	2	45	0	target	0	640	-1000	208982	13.326	12.931	13.366
ProbeTrack11	14	ProbeTrack	11.2	SCS215a	20101025.144757	20101025.154505	8	0.013328	60	10	60-180	60	99	GapExp	0	385	2	0	0	target	0	507	-1000	207982	13.328	13.291	13.368
ProbeTrack11	14	ProbeTrack	11.2	SCS215a	20101025.144757	20101025.154511	8	0.013328	60	0	60-180	60	102	GapExp	0	386	2	0	1	target	1	507	747	208729	13.328	13.309	13.346
ProbeTrack11	14	ProbeTrack	11.2	SCS215a	20101025.144757	20101025.154517	8	0.013328	60	10	60-180	60	138	GapExp	0	387	2	45	1	target	1	480	760	209489	13.328	13.096	13.548
ProbeTrack11	14	ProbeTrack	11.2	SCS215a	20101025.144757	20101025.154523	8	0.013328	60	0	60-180	60	149	GapExp	0	388	2	1	1	target	1	445	778	210267	13.431	12.975	26.999
ProbeTrack11	14	ProbeTrack	11.2	SCS215a	20101025.144757	20101025.154531	8	0.013328	60	0	60-180	60	134	GapExp	0	389	2	1	0	target	0	520	-1000	209267	13.328	12.841	13.807
ProbeTrack11	14	ProbeTrack	11.2	SCS215a	20101025.144757	20101025.154537	8	0.013328	60	10	60-180	60	146	GapExp	0	390	2	45	1	target	1	440	780	210047	13.328	12.851	13.817
ProbeTrack11	14	ProbeTrack	11.2	SCS215a	20101025.144757	20101025.154544	8	0.013328	60	0	60-180	60	129	GapExp	0	391	2	0	0	distractor	1	667	667	210714	13.328	13.308	13.346
ProbeTrack11	14	ProbeTrack	11.2	SCS215a	20101025.144757	20101025.154553	8	0.013328	60	0	60-180	60	147	GapExp	0	392	2	1	0	distractor	1	586	707	211421	13.328	12.933	13.710
ProbeTrack11	14	ProbeTrack	11.2	SCS215a	20101025.144757	20101025.154600	8	0.013328	60	10	60-180	60	150	GapExp	0	393	2	1	0	distractor	1	534	733	212154	13.328	13.290	13.362
ProbeTrack11	14	ProbeTrack	11.2	SCS215a	20101025.144757	20101025.154607	8	0.013328	60	0	60-180	60	99	GapExp	0	394	2	1	0	distractor	1	573	714	212868	13.328	13.111	13.540
ProbeTrack11	14	ProbeTrack	11.2	SCS215a	20101025.144757	20101025.154618	8	0.013328	60	0	60-180	60	175	GapExp	0	395	2	45	0	target	0	720	-1000	211868	13.328	12.903	13.748
ProbeTrack11	14	ProbeTrack	11.2	SCS215a	20101025.144757	20101025.154626	8	0.013328	60	10	60-180	60	136	GapExp	0	396	2	3	1	target	1	587	707	212575	13.328	13.110	13.552
ProbeTrack11	14	ProbeTrack	11.2	SCS215a	20101025.144757	20101025.154633	8	0.013328	60	10	60-180	60	94	GapExp	0	397	2	1	1	target	1	600	700	213275	13.328	12.940	13.710
ProbeTrack11	14	ProbeTrack	11.2	SCS215a	20101025.144757	20101025.154638	8	0.013328	60	10	60-180	60	81	GapExp	0	398	2	45	0	distractor	1	560	720	213995	13.328	13.306	13.348
ProbeTrack11	14	ProbeTrack	11.2	SCS215a	20101025.144757	20101025.154645	8	0.013328	60	10	60-180	60	155	GapExp	0	399	2	0	0	target	0	667	-1000	212995	13.328	13.111	13.550
ProbeTrack11	14	ProbeTrack	11.2	SCS215a	20101025.144757	20101025.154651	8	0.013328	60	0	60-180	60	113	GapExp	0	400	2	45	1	target	1	440	780	213775	13.328	13.154	13.497
ProbeTrack11	14	ProbeTrack	11.2	SCS215a	20101025.144757	20101025.154658	8	0.013328	60	0	60-180	60	64	GapExp	0	401	2	1	0	distractor	1	707	647	214422	13.328	13.309	13.348
ProbeTrack11	14	ProbeTrack	11.2	SCS215a	20101025.144757	20101025.154704	8	0.013328	60	0	60-180	60	63	GapExp	0	402	2	45	0	distractor	1	587	707	215129	13.328	13.308	13.347
ProbeTrack11	14	ProbeTrack	11.2	SCS215a	20101025.144757	20101025.154710	8	0.013328	60	10	60-180	60	128	GapExp	0	403	2	1	1	target	1	480	760	215889	13.328	13.309	13.349
ProbeTrack11	14	ProbeTrack	11.2	SCS215a	20101025.144757	20101025.154717	8	0.013328	60	10	60-180	60	118	GapExp	0	404	2	45	1	target	1	427	787	216676	13.328	13.309	13.348
ProbeTrack11	14	ProbeTrack	11.2	SCS215a	20101025.144757	20101025.154723	8	0.013328	60	0	60-180	60	115	GapExp	0	405	2	3	0	distractor	1	760	620	217296	13.328	13.099	13.554
ProbeTrack11	14	ProbeTrack	11.2	SCS215a	20101025.144757	20101025.154730	8	0.013328	60	0	60-180	60	150	GapExp	0	406	2	45	0	distractor	1	547	727	218023	13.328	13.106	13.544
ProbeTrack11	14	ProbeTrack	11.2	SCS215a	20101025.144757	20101025.154736	8	0.013328	60	0	60-180	60	96	GapExp	0	407	2	0	1	target	1	454	773	218796	13.328	13.101	13.567
ProbeTrack11	14	ProbeTrack	11.2	SCS215a	20101025.144757	20101025.154742	8	0.013328	60	0	60-180	60	67	GapExp	0	408	2	45	0	distractor	1	814	593	219389	13.328	12.990	13.653
ProbeTrack11	14	ProbeTrack	11.2	SCS215a	20101025.144757	20101025.154749	8	0.013328	60	10	60-180	60	141	GapExp	0	409	2	45	1	target	1	587	707	220096	13.328	13.104	13.552
ProbeTrack11	14	ProbeTrack	11.2	SCS215a	20101025.144757	20101025.154756	8	0.013328	60	10	60-180	60	133	GapExp	0	410	2	1	0	target	0	720	-1000	219096	13.328	13.096	13.545
ProbeTrack11	14	ProbeTrack	11.2	SCS215a	20101025.144757	20101025.154803	8	0.013328	60	10	60-180	60	156	GapExp	0	411	2	45	0	target	0	400	-1000	218096	13.328	13.092	13.559
ProbeTrack11	14	ProbeTrack	11.2	SCS215a	20101025.144757	20101025.154810	8	0.013328	60	10	60-180	60	83	GapExp	0	412	2	3	1	target	1	507	747	218843	13.328	12.905	13.747
ProbeTrack11	14	ProbeTrack	11.2	SCS215a	20101025.144757	20101025.154816	8	0.013328	60	0	60-180	60	161	GapExp	0	413	2	3	1	target	1	427	787	219630	13.328	13.291	13.367
ProbeTrack11	14	ProbeTrack	11.2	SCS215a	20101025.144757	20101025.154822	8	0.013328	60	0	60-180	60	116	GapExp	0	414	2	0	0	distractor	1	653	674	220304	13.328	13.309	13.347
ProbeTrack11	14	ProbeTrack	11.2	SCS215a	20101025.144757	20101025.154829	8	0.013328	60	10	60-180	60	92	GapExp	0	415	2	0	0	distractor	1	680	660	220964	13.328	13.307	13.345
ProbeTrack11	14	ProbeTrack	11.2	SCS215a	20101025.144757	20101025.154835	8	0.013328	60	10	60-180	60	103	GapExp	0	416	2	45	0	distractor	1	547	727	221691	13.328	13.045	13.606
ProbeTrack11	14	ProbeTrack	11.2	SCS215a	20101025.144757	20101025.154841	8	0.013328	60	10	60-180	60	176	GapExp	0	417	2	45	0	distractor	1	520	740	222431	13.328	12.959	13.648
ProbeTrack11	14	ProbeTrack	11.2	SCS215a	20101025.144757	20101025.154849	8	0.013328	60	10	60-180	60	151	GapExp	0	418	2	3	0	distractor	1	480	760	223191	13.328	13.309	13.347
ProbeTrack11	14	ProbeTrack	11.2	SCS215a	20101025.144757	20101025.154855	8	0.013328	60	10	60-180	60	79	GapExp	0	419	2	1	1	target	1	533	734	223925	13.328	13.299	13.359
ProbeTrack11	14	ProbeTrack	11.2	SCS215a	20101025.144757	20101025.154901	8	0.013328	60	10	60-180	60	136	GapExp	0	420	2	0	1	target	1	520	740	224665	13.328	13.108	13.560
ProbeTrack11	14	ProbeTrack	11.2	SCS215a	20101025.144757	20101025.154907	8	0.013328	60	10	60-180	60	89	GapExp	0	421	2	1	0	distractor	1	840	580	225245	13.328	13.066	13.594
ProbeTrack11	14	ProbeTrack	11.2	SCS215a	20101025.144757	20101025.154919	8	0.013328	60	10	60-180	60	103	GapExp	0	422	2	3	0	target	0	680	-1000	224245	13.328	13.309	13.347
ProbeTrack11	14	ProbeTrack	11.2	SCS215a	20101025.144757	20101025.154925	8	0.013328	60	0	60-180	60	114	GapExp	0	423	2	3	0	target	0	440	-1000	223245	13.328	13.073	13.575
ProbeTrack11	14	ProbeTrack	11.2	SCS215a	20101025.144757	20101025.154932	8	0.013328	60	10	60-180	60	105	GapExp	0	424	2	1	1	distractor	0	414	-1000	222245	13.328	13.309	13.347
ProbeTrack11	14	ProbeTrack	11.2	SCS215a	20101025.144757	20101025.154938	8	0.013328	60	0	60-180	60	124	GapExp	0	425	2	3	0	target	0	534	-1000	221245	13.328	13.308	13.347
ProbeTrack11	14	ProbeTrack	11.2	SCS215a	20101025.144757	20101025.154944	8	0.013328	60	10	60-180	60	81	GapExp	0	426	2	45	1	target	1	853	574	221819	13.328	13.309	13.347
ProbeTrack11	14	ProbeTrack	11.2	SCS215a	20101025.144757	20101025.154951	8	0.013328	60	0	60-180	60	115	GapExp	0	427	2	3	1	target	1	414	793	222612	13.328	13.307	13.348
ProbeTrack11	14	ProbeTrack	11.2	SCS215a	20101025.144757	20101025.154957	8	0.013328	60	0	60-180	60	169	GapExp	0	428	2	0	1	target	1	360	820	223432	13.328	13.185	13.474
ProbeTrack11	14	ProbeTrack	11.2	SCS215a	20101025.144757	20101025.155003	8	0.013328	60	10	60-180	60	66	GapExp	0	429	2	45	0	distractor	1	534	733	224165	13.328	13.094	13.566
ProbeTrack11	14	ProbeTrack	11.2	SCS215a	20101025.144757	20101025.155010	8	0.013328	60	0	60-180	60	93	GapExp	0	430	2	3	0	distractor	1	600	700	224865	13.328	13.108	13.557
ProbeTrack11	14	ProbeTrack	11.2	SCS215a	20101025.144757	20101025.155015	8	0.013328	60	0	60-180	60	62	GapExp	0	431	2	0	0	distractor	1	547	727	225592	13.328	13.308	13.347
ProbeTrack11	14	ProbeTrack	11.2	SCS215a	20101025.144757	20101025.155021	8	0.013328	60	10	60-180	60	72	GapExp	0	432	2	1	0	target	0	400	-1000	224592	13.328	12.862	13.799
ProbeTrack11	14	ProbeTrack	11.2	SCS215a	20101025.144757	20101025.155026	8	0.013328	60	0	60-180	60	90	GapExp	0	433	2	45	1	target	1	693	654	225246	13.328	13.309	13.348
ProbeTrack11	14	ProbeTrack	11.2	SCS215a	20101025.144757	20101025.155033	8	0.013328	60	0	60-180	60	82	GapExp	0	434	2	3	0	distractor	1	560	720	225966	13.328	12.946	13.706
ProbeTrack11	14	ProbeTrack	11.2	SCS215a	20101025.144757	20101025.155039	8	0.013328	60	0	60-180	60	63	GapExp	0	435	2	1	1	target	1	507	747	226713	13.328	13.103	13.556
ProbeTrack11	14	ProbeTrack	11.2	SCS215a	20101025.144757	20101025.155045	8	0.013328	60	10	60-180	60	142	GapExp	0	436	2	45	1	target	1	467	767	227480	13.328	13.086	13.553
ProbeTrack11	14	ProbeTrack	11.2	SCS215a	20101025.144757	20101025.155052	8	0.013328	60	0	60-180	60	160	GapExp	0	437	2	45	0	distractor	1	534	733	228213	13.328	13.100	13.568
ProbeTrack11	14	ProbeTrack	11.2	SCS215a	20101025.144757	20101025.155059	8	0.013328	60	10	60-180	60	110	GapExp	0	438	2	1	1	target	1	440	780	228993	13.328	13.108	13.563
ProbeTrack11	14	ProbeTrack	11.2	SCS215a	20101025.144757	20101025.155106	8	0.013328	60	0	60-180	60	174	GapExp	0	439	2	45	0	distractor	1	534	733	229726	13.328	13.309	13.347
ProbeTrack11	14	ProbeTrack	11.2	SCS215a	20101025.144757	20101025.155113	8	0.013328	60	10	60-180	60	157	GapExp	0	440	2	45	0	target	0	587	-1000	228726	13.328	12.849	13.810
ProbeTrack11	14	ProbeTrack	11.2	SCS215a	20101025.144757	20101025.155121	8	0.013328	60	0	60-180	60	114	GapExp	0	441	2	0	1	target	1	760	620	229346	13.328	13.292	13.365
ProbeTrack11	14	ProbeTrack	11.2	SCS215a	20101025.144757	20101025.155137	8	0.013328	60	10	60-180	60	146	GapExp	0	442	2	1	1	target	1	627	687	230033	13.328	13.283	13.382
ProbeTrack11	14	ProbeTrack	11.2	SCS215a	20101025.144757	20101025.155143	8	0.013328	60	10	60-180	60	146	GapExp	0	443	2	3	1	target	1	627	687	230720	13.328	13.289	13.369
ProbeTrack11	14	ProbeTrack	11.2	SCS215a	20101025.144757	20101025.155150	8	0.013328	60	0	60-180	60	82	GapExp	0	444	2	0	1	target	1	494	753	231473	13.328	13.309	13.347
ProbeTrack11	14	ProbeTrack	11.2	SCS215a	20101025.144757	20101025.155156	8	0.013328	60	0	60-180	60	166	GapExp	0	445	2	3	0	distractor	1	587	707	232180	13.328	12.904	13.746
ProbeTrack11	14	ProbeTrack	11.2	SCS215a	20101025.144757	20101025.155203	8	0.013328	60	0	60-180	60	110	GapExp	0	446	2	45	0	distractor	1	600	700	232880	13.328	13.308	13.350
ProbeTrack11	14	ProbeTrack	11.2	SCS215a	20101025.144757	20101025.155213	8	0.013328	60	10	60-180	60	174	GapExp	0	447	2	3	0	distractor	1	627	687	233567	13.328	13.100	13.572
ProbeTrack11	14	ProbeTrack	11.2	SCS215a	20101025.144757	20101025.155224	8	0.013328	60	0	60-180	60	115	GapExp	0	448	2	1	0	distractor	1	587	707	234274	13.328	13.102	13.572
ProbeTrack11	14	ProbeTrack	11.2	SCS215a	20101025.144757	20101025.155235	8	0.013328	60	10	60-180	60	99	GapExp	0	449	2	45	0	target	0	480	-1000	233274	13.328	13.298	13.347
ProbeTrack11	14	ProbeTrack	11.2	SCS215a	20101025.144757	20101025.155241	8	0.013328	60	10	60-180	60	98	GapExp	0	450	2	0	0	distractor	1	547	727	234001	13.328	12.875	13.773
