exp	sub	code	rev	comp	runtime	trialtime	nstim	refreshdur	cuedur	gapdur	gapOnsetRange	durPostProbe	gapOnsetTime	blocktype	prac	trial	ntargets	soa	probeTarget	resp	acc	rt	pts	tpts	meanFrameDur	minFrameDur	maxFrameDur
ProbeTrack11	4	ProbeTrack	11.1	SCS215a	20100812.114220	20100812.120308	8	0.013328	60	0	60-180	60	147	NoGap	1	1	2	3	0	distractor	1	507	747	747	13.328	13.293	13.363
ProbeTrack11	4	ProbeTrack	11.1	SCS215a	20100812.114220	20100812.120341	8	0.013328	60	0	60-180	60	154	NoGap	1	2	2	0	1	target	1	640	680	1427	13.328	13.167	13.490
ProbeTrack11	4	ProbeTrack	11.1	SCS215a	20100812.114220	20100812.120351	8	0.013328	60	0	60-180	60	145	NoGap	1	3	2	1	1	target	1	800	600	2027	13.375	13.293	26.657
ProbeTrack11	4	ProbeTrack	11.1	SCS215a	20100812.114220	20100812.120359	8	0.013328	60	0	60-180	60	175	NoGap	1	4	2	45	1	target	1	600	700	2727	13.328	13.293	13.363
ProbeTrack11	4	ProbeTrack	11.1	SCS215a	20100812.114220	20100812.120407	8	0.013328	60	0	60-180	60	86	NoGap	1	5	2	3	1	target	1	494	753	3480	13.328	13.288	13.369
ProbeTrack11	4	ProbeTrack	11.1	SCS215a	20100812.114220	20100812.120413	8	0.013328	60	0	60-180	60	117	NoGap	1	6	2	1	0	distractor	1	960	520	4000	13.328	13.213	13.442
ProbeTrack11	4	ProbeTrack	11.1	SCS215a	20100812.114220	20100812.120420	8	0.013328	60	0	60-180	60	125	NoGap	1	7	2	45	0	distractor	1	494	753	4753	13.375	13.142	26.686
ProbeTrack11	4	ProbeTrack	11.1	SCS215a	20100812.114220	20100812.120427	8	0.013328	60	0	60-180	60	89	NoGap	1	8	2	3	1	target	1	680	660	5413	13.328	13.290	13.366
ProbeTrack11	4	ProbeTrack	11.1	SCS215a	20100812.114220	20100812.120433	8	0.013328	60	0	60-180	60	133	NoGap	1	9	2	45	0	distractor	1	494	753	6166	13.328	13.293	13.363
ProbeTrack11	4	ProbeTrack	11.1	SCS215a	20100812.114220	20100812.120440	8	0.013328	60	0	60-180	60	97	NoGap	1	10	2	1	0	target	0	614	-1000	5166	13.328	13.293	13.363
ProbeTrack11	4	ProbeTrack	11.1	SCS215a	20100812.114220	20100812.120446	8	0.013328	60	0	60-180	60	170	NoGap	1	11	2	0	1	target	1	720	640	5806	13.328	13.293	13.363
ProbeTrack11	4	ProbeTrack	11.1	SCS215a	20100812.114220	20100812.120454	8	0.013328	60	0	60-180	60	112	NoGap	1	12	2	45	1	target	1	480	760	6566	13.328	13.293	13.363
ProbeTrack11	4	ProbeTrack	11.1	SCS215a	20100812.114220	20100812.120500	8	0.013328	60	0	60-180	60	86	NoGap	1	13	2	0	1	target	1	480	760	7326	13.328	13.227	13.493
ProbeTrack11	4	ProbeTrack	11.1	SCS215a	20100812.114220	20100812.120506	8	0.013328	60	0	60-180	60	68	NoGap	1	14	2	3	1	target	1	560	720	8046	13.328	13.293	13.363
ProbeTrack11	4	ProbeTrack	11.1	SCS215a	20100812.114220	20100812.120511	8	0.013328	60	0	60-180	60	65	NoGap	1	15	2	3	0	distractor	1	587	707	8753	13.328	13.273	13.383
ProbeTrack11	4	ProbeTrack	11.1	SCS215a	20100812.114220	20100812.120517	8	0.013328	60	0	60-180	60	114	NoGap	1	16	2	45	0	distractor	1	574	713	9466	13.328	13.031	13.624
ProbeTrack11	4	ProbeTrack	11.1	SCS215a	20100812.114220	20100812.120524	8	0.013328	60	0	60-180	60	99	NoGap	1	17	2	0	0	distractor	1	907	547	10013	13.328	13.293	13.363
ProbeTrack11	4	ProbeTrack	11.1	SCS215a	20100812.114220	20100812.120531	8	0.013328	60	0	60-180	60	158	NoGap	1	18	2	45	0	distractor	1	614	693	10706	13.328	13.293	13.374
ProbeTrack11	4	ProbeTrack	11.1	SCS215a	20100812.114220	20100812.120538	8	0.013328	60	0	60-180	60	84	NoGap	1	19	2	1	0	target	0	654	-1000	9706	13.328	13.293	13.363
ProbeTrack11	4	ProbeTrack	11.1	SCS215a	20100812.114220	20100812.120544	8	0.013328	60	0	60-180	60	113	NoGap	1	20	2	3	0	target	0	627	-1000	8706	13.328	13.293	13.363
ProbeTrack11	4	ProbeTrack	11.1	SCS215a	20100812.114220	20100812.120550	8	0.013328	60	0	60-180	60	178	NoGap	1	21	2	0	1	target	1	414	793	9499	13.328	13.293	13.363
ProbeTrack11	4	ProbeTrack	11.1	SCS215a	20100812.114220	20100812.120556	8	0.013328	60	0	60-180	60	124	NoGap	1	22	2	3	0	32	-3	574	-1000	8499	13.328	13.293	13.363
ProbeTrack11	4	ProbeTrack	11.1	SCS215a	20100812.114220	20100812.120603	8	0.013328	60	0	60-180	60	114	NoGap	1	23	2	0	0	target	0	600	-1000	7499	13.328	13.293	13.363
ProbeTrack11	4	ProbeTrack	11.1	SCS215a	20100812.114220	20100812.120609	8	0.013328	60	0	60-180	60	158	NoGap	1	24	2	45	1	target	1	587	707	8206	13.328	13.293	13.363
ProbeTrack11	4	ProbeTrack	11.1	SCS215a	20100812.114220	20100812.120617	8	0.013328	60	0	60-180	60	132	NoGap	1	25	2	1	1	target	1	534	733	8939	13.328	13.293	13.363
ProbeTrack11	4	ProbeTrack	11.1	SCS215a	20100812.114220	20100812.120623	8	0.013328	60	0	60-180	60	124	NoGap	1	26	2	45	1	distractor	0	520	-1000	7939	13.328	13.199	13.490
ProbeTrack11	4	ProbeTrack	11.1	SCS215a	20100812.114220	20100812.120630	8	0.013328	60	0	60-180	60	137	NoGap	1	27	2	0	1	target	1	480	760	8699	13.328	13.293	13.363
ProbeTrack11	4	ProbeTrack	11.1	SCS215a	20100812.114220	20100812.120637	8	0.013328	60	0	60-180	60	64	NoGap	1	28	2	1	0	distractor	1	707	647	9346	13.328	13.293	13.363
ProbeTrack11	4	ProbeTrack	11.1	SCS215a	20100812.114220	20100812.120642	8	0.013328	60	0	60-180	60	117	NoGap	1	29	2	45	1	target	1	587	707	10053	13.328	13.231	13.459
ProbeTrack11	4	ProbeTrack	11.1	SCS215a	20100812.114220	20100812.120649	8	0.013328	60	0	60-180	60	133	NoGap	1	30	2	3	0	distractor	1	667	667	10720	13.328	13.293	13.363
ProbeTrack11	4	ProbeTrack	11.1	SCS215a	20100812.114220	20100812.120655	8	0.013328	60	0	60-180	60	63	NoGap	1	31	2	1	0	distractor	1	773	614	11334	13.328	13.293	13.363
ProbeTrack11	4	ProbeTrack	11.1	SCS215a	20100812.114220	20100812.120701	8	0.013328	60	0	60-180	60	76	NoGap	1	32	2	0	0	distractor	1	937	532	11866	13.328	13.293	13.363
ProbeTrack11	4	ProbeTrack	11.1	SCS215a	20100812.114220	20100812.120707	8	0.013328	60	0	60-180	60	179	NoGap	1	33	2	45	0	distractor	1	627	687	12553	13.328	13.293	13.363
ProbeTrack11	4	ProbeTrack	11.1	SCS215a	20100812.114220	20100812.120715	8	0.013328	60	0	60-180	60	100	NoGap	1	34	2	0	0	distractor	1	760	620	13173	13.328	13.288	13.363
ProbeTrack11	4	ProbeTrack	11.1	SCS215a	20100812.114220	20100812.120721	8	0.013328	60	0	60-180	60	144	NoGap	1	35	2	1	1	distractor	0	374	-1000	12173	13.328	13.289	13.363
ProbeTrack11	4	ProbeTrack	11.1	SCS215a	20100812.114220	20100812.120727	8	0.013328	60	0	60-180	60	174	NoGap	1	36	2	1	1	distractor	0	494	-1000	11173	13.328	13.293	13.363
ProbeTrack11	4	ProbeTrack	11.1	SCS215a	20100812.114220	20100812.120734	8	0.013328	60	0	60-180	60	149	NoGap	1	37	2	1	1	target	1	560	720	11893	13.328	13.293	13.364
ProbeTrack11	4	ProbeTrack	11.1	SCS215a	20100812.114220	20100812.120741	8	0.013328	60	0	60-180	60	89	NoGap	1	38	2	3	1	target	1	707	647	12540	13.328	13.230	13.392
ProbeTrack11	4	ProbeTrack	11.1	SCS215a	20100812.114220	20100812.120747	8	0.013328	60	0	60-180	60	165	NoGap	1	39	2	3	1	target	1	480	760	13300	13.328	13.293	13.363
ProbeTrack11	4	ProbeTrack	11.1	SCS215a	20100812.114220	20100812.120754	8	0.013328	60	0	60-180	60	74	NoGap	1	40	2	0	0	distractor	1	574	713	14013	13.327	13.050	13.605
ProbeTrack11	4	ProbeTrack	11.1	SCS215a	20100812.120856	20100812.120914	8	0.013328	60	10	60-180	60	132	GapPrac	1	1	2	0	0	distractor	1	893	554	14567	13.328	12.845	13.806
ProbeTrack11	4	ProbeTrack	11.1	SCS215a	20100812.120856	20100812.120922	8	0.013328	60	0	60-180	60	116	GapPrac	1	2	2	1	1	target	1	680	660	15227	13.328	13.302	13.355
ProbeTrack11	4	ProbeTrack	11.1	SCS215a	20100812.120856	20100812.120934	8	0.013328	60	10	60-180	60	113	GapPrac	1	3	2	0	1	distractor	0	733	-1000	14227	13.328	12.886	13.789
ProbeTrack11	4	ProbeTrack	11.1	SCS215a	20100812.120856	20100812.120940	8	0.013328	60	0	60-180	60	111	GapPrac	1	4	2	3	1	target	1	667	667	14894	13.328	12.927	13.726
ProbeTrack11	4	ProbeTrack	11.1	SCS215a	20100812.120856	20100812.120946	8	0.013328	60	10	60-180	60	167	GapPrac	1	5	2	1	0	distractor	1	787	607	15501	13.328	13.308	13.347
ProbeTrack11	4	ProbeTrack	11.1	SCS215a	20100812.120856	20100812.120953	8	0.013328	60	0	60-180	60	176	GapPrac	1	6	2	1	1	target	1	654	673	16174	13.328	13.123	13.537
ProbeTrack11	4	ProbeTrack	11.1	SCS215a	20100812.120856	20100812.121000	8	0.013328	60	0	60-180	60	159	GapPrac	1	7	2	3	0	distractor	1	667	667	16841	13.328	13.033	13.607
ProbeTrack11	4	ProbeTrack	11.1	SCS215a	20100812.120856	20100812.121007	8	0.013328	60	0	60-180	60	155	GapPrac	1	8	2	45	1	distractor	0	787	-1000	15841	13.328	13.308	13.347
ProbeTrack11	4	ProbeTrack	11.1	SCS215a	20100812.120856	20100812.121015	8	0.013328	60	10	60-180	60	95	GapPrac	1	9	2	45	1	target	1	600	700	16541	13.328	12.840	13.814
ProbeTrack11	4	ProbeTrack	11.1	SCS215a	20100812.120856	20100812.121021	8	0.013328	60	0	60-180	60	167	GapPrac	1	10	2	1	0	distractor	1	693	654	17195	13.328	12.970	13.687
ProbeTrack11	4	ProbeTrack	11.1	SCS215a	20100812.120856	20100812.121028	8	0.013328	60	10	60-180	60	64	GapPrac	1	11	2	3	1	target	1	880	560	17755	13.328	12.859	13.791
ProbeTrack11	4	ProbeTrack	11.1	SCS215a	20100812.120856	20100812.121034	8	0.013328	60	0	60-180	60	157	GapPrac	1	12	2	0	0	distractor	1	680	660	18415	13.328	13.104	13.550
ProbeTrack11	4	ProbeTrack	11.1	SCS215a	20100812.120856	20100812.121041	8	0.013328	60	10	60-180	60	148	GapPrac	1	13	2	1	1	distractor	0	733	-1000	17415	13.328	12.873	13.778
ProbeTrack11	4	ProbeTrack	11.1	SCS215a	20100812.120856	20100812.121048	8	0.013328	60	0	60-180	60	82	GapPrac	1	14	2	45	0	target	0	827	-1000	16415	13.328	13.112	13.649
ProbeTrack11	4	ProbeTrack	11.1	SCS215a	20100812.120856	20100812.121055	8	0.013328	60	10	60-180	60	75	GapPrac	1	15	2	3	0	distractor	1	680	660	17075	13.328	13.302	13.350
ProbeTrack11	4	ProbeTrack	11.1	SCS215a	20100812.120856	20100812.121100	8	0.013328	60	10	60-180	60	171	GapPrac	1	16	2	0	1	target	1	627	687	17762	13.328	13.095	13.565
ProbeTrack11	4	ProbeTrack	11.1	SCS215a	20100812.120856	20100812.121107	8	0.013328	60	0	60-180	60	123	GapPrac	1	17	2	3	1	target	1	760	620	18382	13.328	12.893	13.761
ProbeTrack11	4	ProbeTrack	11.1	SCS215a	20100812.120856	20100812.121114	8	0.013328	60	0	60-180	60	95	GapPrac	1	18	2	0	1	target	1	387	807	19189	13.328	13.000	13.660
ProbeTrack11	4	ProbeTrack	11.1	SCS215a	20100812.120856	20100812.121119	8	0.013328	60	10	60-180	60	103	GapPrac	1	19	2	45	0	distractor	1	627	687	19876	13.328	12.853	13.810
ProbeTrack11	4	ProbeTrack	11.1	SCS215a	20100812.120856	20100812.121126	8	0.013328	60	10	60-180	60	76	GapPrac	1	20	2	0	0	distractor	1	680	660	20536	13.328	13.154	13.495
ProbeTrack11	4	ProbeTrack	11.1	SCS215a	20100812.121227	20100812.121245	8	0.013328	60	0	60-180	60	144	GapExp	1	1	2	3	1	distractor	0	560	-1000	19536	13.328	13.075	13.587
ProbeTrack11	4	ProbeTrack	11.1	SCS215a	20100812.121227	20100812.121252	8	0.013328	60	10	60-180	60	106	GapExp	1	2	2	1	0	distractor	1	734	633	20169	13.328	13.098	13.560
ProbeTrack11	4	ProbeTrack	11.1	SCS215a	20100812.121227	20100812.121258	8	0.013328	60	0	60-180	60	125	GapExp	1	3	2	45	0	distractor	1	574	713	20882	13.328	12.878	13.769
ProbeTrack11	4	ProbeTrack	11.1	SCS215a	20100812.121227	20100812.121305	8	0.013328	60	0	60-180	60	157	GapExp	1	4	2	1	0	distractor	1	574	713	21595	13.376	12.859	26.641
ProbeTrack11	4	ProbeTrack	11.1	SCS215a	20100812.121227	20100812.121311	8	0.013328	60	10	60-180	60	120	GapExp	1	5	2	3	1	target	1	440	780	22375	13.328	12.879	13.789
ProbeTrack11	4	ProbeTrack	11.1	SCS215a	20100812.121227	20100812.121317	8	0.013328	60	0	60-180	60	139	GapExp	0	6	2	1	0	distractor	1	560	720	23095	13.328	13.116	13.521
ProbeTrack11	4	ProbeTrack	11.1	SCS215a	20100812.121227	20100812.121324	8	0.013328	60	0	60-180	60	118	GapExp	0	7	2	0	1	target	1	1720	140	23235	13.328	12.869	13.790
ProbeTrack11	4	ProbeTrack	11.1	SCS215a	20100812.121227	20100812.121331	8	0.013328	60	0	60-180	60	109	GapExp	0	8	2	0	0	target	0	774	-1000	22235	13.328	13.309	13.346
ProbeTrack11	4	ProbeTrack	11.1	SCS215a	20100812.121227	20100812.121337	8	0.013328	60	0	60-180	60	149	GapExp	0	9	2	1	1	target	1	587	707	22942	13.328	12.945	13.702
ProbeTrack11	4	ProbeTrack	11.1	SCS215a	20100812.121227	20100812.121344	8	0.013328	60	10	60-180	60	125	GapExp	0	10	2	0	1	target	1	680	660	23602	13.328	12.839	13.818
ProbeTrack11	4	ProbeTrack	11.1	SCS215a	20100812.121227	20100812.121350	8	0.013328	60	10	60-180	60	73	GapExp	0	11	2	45	1	target	1	600	700	24302	13.328	13.095	13.560
ProbeTrack11	4	ProbeTrack	11.1	SCS215a	20100812.121227	20100812.121356	8	0.013328	60	10	60-180	60	157	GapExp	0	12	2	0	1	target	1	454	773	25075	13.328	12.916	13.741
ProbeTrack11	4	ProbeTrack	11.1	SCS215a	20100812.121227	20100812.121403	8	0.013328	60	10	60-180	60	167	GapExp	0	13	2	1	1	target	1	494	753	25828	13.328	12.885	13.755
ProbeTrack11	4	ProbeTrack	11.1	SCS215a	20100812.121227	20100812.121410	8	0.013328	60	10	60-180	60	163	GapExp	0	14	2	0	0	distractor	1	907	547	26375	13.328	12.978	13.681
ProbeTrack11	4	ProbeTrack	11.1	SCS215a	20100812.121227	20100812.121417	8	0.013328	60	0	60-180	60	96	GapExp	0	15	2	0	0	distractor	1	827	587	26962	13.328	13.303	13.346
ProbeTrack11	4	ProbeTrack	11.1	SCS215a	20100812.121227	20100812.121423	8	0.013328	60	10	60-180	60	159	GapExp	0	16	2	3	0	distractor	1	733	634	27596	13.328	12.895	13.768
ProbeTrack11	4	ProbeTrack	11.1	SCS215a	20100812.121227	20100812.121430	8	0.013328	60	10	60-180	60	81	GapExp	0	17	2	3	1	target	1	853	574	28170	13.326	12.863	13.736
ProbeTrack11	4	ProbeTrack	11.1	SCS215a	20100812.121227	20100812.121436	8	0.013328	60	10	60-180	60	136	GapExp	0	18	2	45	1	target	1	574	713	28883	13.328	13.023	13.614
ProbeTrack11	4	ProbeTrack	11.1	SCS215a	20100812.121227	20100812.121443	8	0.013328	60	0	60-180	60	100	GapExp	0	19	2	0	0	target	0	760	-1000	27883	13.328	12.923	13.726
ProbeTrack11	4	ProbeTrack	11.1	SCS215a	20100812.121227	20100812.121449	8	0.013328	60	10	60-180	60	148	GapExp	0	20	2	0	1	target	1	587	707	28590	13.328	13.066	13.601
ProbeTrack11	4	ProbeTrack	11.1	SCS215a	20100812.121227	20100812.121455	8	0.013328	60	10	60-180	60	131	GapExp	0	21	2	3	1	target	1	547	727	29317	13.328	12.858	13.802
ProbeTrack11	4	ProbeTrack	11.1	SCS215a	20100812.121227	20100812.121502	8	0.013328	60	0	60-180	60	67	GapExp	0	22	2	3	1	target	1	627	687	30004	13.328	13.010	13.634
ProbeTrack11	4	ProbeTrack	11.1	SCS215a	20100812.121227	20100812.121508	8	0.013328	60	0	60-180	60	123	GapExp	0	23	2	1	1	target	1	613	694	30698	13.328	13.092	13.559
ProbeTrack11	4	ProbeTrack	11.1	SCS215a	20100812.121227	20100812.121514	8	0.013328	60	10	60-180	60	118	GapExp	0	24	2	3	0	distractor	1	774	613	31311	13.328	12.858	13.801
ProbeTrack11	4	ProbeTrack	11.1	SCS215a	20100812.121227	20100812.121520	8	0.013328	60	10	60-180	60	70	GapExp	0	25	2	1	1	target	1	747	627	31938	13.328	12.941	13.709
ProbeTrack11	4	ProbeTrack	11.1	SCS215a	20100812.121227	20100812.121526	8	0.013328	60	0	60-180	60	64	GapExp	0	26	2	1	1	target	1	547	727	32665	13.328	12.919	13.749
ProbeTrack11	4	ProbeTrack	11.1	SCS215a	20100812.121227	20100812.121531	8	0.013328	60	0	60-180	60	140	GapExp	0	27	2	1	1	target	1	574	713	33378	13.328	13.203	13.442
ProbeTrack11	4	ProbeTrack	11.1	SCS215a	20100812.121227	20100812.121537	8	0.013328	60	0	60-180	60	107	GapExp	0	28	2	3	0	distractor	1	560	720	34098	13.328	12.902	13.756
ProbeTrack11	4	ProbeTrack	11.1	SCS215a	20100812.121227	20100812.121543	8	0.013328	60	0	60-180	60	72	GapExp	0	29	2	1	0	distractor	1	680	660	34758	13.328	13.113	13.537
ProbeTrack11	4	ProbeTrack	11.1	SCS215a	20100812.121227	20100812.121548	8	0.013328	60	0	60-180	60	156	GapExp	0	30	2	3	0	distractor	1	534	733	35491	13.328	13.088	13.558
ProbeTrack11	4	ProbeTrack	11.1	SCS215a	20100812.121227	20100812.121555	8	0.013328	60	0	60-180	60	77	GapExp	0	31	2	0	1	target	1	520	740	36231	13.328	12.963	13.698
ProbeTrack11	4	ProbeTrack	11.1	SCS215a	20100812.121227	20100812.121600	8	0.013328	60	10	60-180	60	72	GapExp	0	32	2	0	1	target	1	627	687	36918	13.328	13.307	13.344
ProbeTrack11	4	ProbeTrack	11.1	SCS215a	20100812.121227	20100812.121606	8	0.013328	60	10	60-180	60	160	GapExp	0	33	2	45	1	target	1	520	740	37658	13.328	12.944	13.704
ProbeTrack11	4	ProbeTrack	11.1	SCS215a	20100812.121227	20100812.121613	8	0.013328	60	0	60-180	60	118	GapExp	0	34	2	1	1	target	1	600	700	38358	13.328	13.304	13.346
ProbeTrack11	4	ProbeTrack	11.1	SCS215a	20100812.121227	20100812.121619	8	0.013328	60	0	60-180	60	106	GapExp	0	35	2	3	1	target	1	494	753	39111	13.328	13.161	13.511
ProbeTrack11	4	ProbeTrack	11.1	SCS215a	20100812.121227	20100812.121625	8	0.013328	60	10	60-180	60	145	GapExp	0	36	2	0	1	target	1	534	733	39844	13.328	13.001	13.666
ProbeTrack11	4	ProbeTrack	11.1	SCS215a	20100812.121227	20100812.121632	8	0.013328	60	10	60-180	60	112	GapExp	0	37	2	0	0	target	0	640	-1000	38844	13.328	12.956	13.716
ProbeTrack11	4	ProbeTrack	11.1	SCS215a	20100812.121227	20100812.121638	8	0.013328	60	10	60-180	60	80	GapExp	0	38	2	1	1	target	1	560	720	39564	13.328	12.864	13.787
ProbeTrack11	4	ProbeTrack	11.1	SCS215a	20100812.121227	20100812.121644	8	0.013328	60	10	60-180	60	135	GapExp	0	39	2	1	1	target	1	600	700	40264	13.328	13.309	13.359
ProbeTrack11	4	ProbeTrack	11.1	SCS215a	20100812.121227	20100812.121655	8	0.013328	60	10	60-180	60	169	GapExp	0	40	2	1	0	distractor	1	1266	367	40631	13.328	13.303	13.345
ProbeTrack11	4	ProbeTrack	11.1	SCS215a	20100812.121227	20100812.121703	8	0.013328	60	10	60-180	60	176	GapExp	0	41	2	45	1	target	1	987	507	41138	13.328	13.114	13.526
ProbeTrack11	4	ProbeTrack	11.1	SCS215a	20100812.121227	20100812.121711	8	0.013328	60	10	60-180	60	170	GapExp	0	42	2	45	1	distractor	0	973	-1000	40138	13.328	13.095	13.553
ProbeTrack11	4	ProbeTrack	11.1	SCS215a	20100812.121227	20100812.121719	8	0.013328	60	0	60-180	60	91	GapExp	0	43	2	1	1	target	1	1200	400	40538	13.328	13.091	13.568
ProbeTrack11	4	ProbeTrack	11.1	SCS215a	20100812.121227	20100812.121725	8	0.013328	60	10	60-180	60	140	GapExp	0	44	2	1	0	distractor	1	1147	427	40965	13.328	13.092	13.552
ProbeTrack11	4	ProbeTrack	11.1	SCS215a	20100812.121227	20100812.121733	8	0.013328	60	0	60-180	60	82	GapExp	0	45	2	0	1	target	1	1320	340	41305	13.328	13.114	13.558
ProbeTrack11	4	ProbeTrack	11.1	SCS215a	20100812.121227	20100812.121740	8	0.013328	60	0	60-180	60	175	GapExp	0	46	2	45	1	target	1	1053	474	41779	13.328	13.104	13.553
ProbeTrack11	4	ProbeTrack	11.1	SCS215a	20100812.121227	20100812.121748	8	0.013328	60	0	60-180	60	140	GapExp	0	47	2	0	1	target	1	1320	340	42119	13.328	13.148	13.519
ProbeTrack11	4	ProbeTrack	11.1	SCS215a	20100812.121227	20100812.121756	8	0.013328	60	0	60-180	60	127	GapExp	0	48	2	3	1	target	1	1400	300	42419	13.328	13.308	13.345
ProbeTrack11	4	ProbeTrack	11.1	SCS215a	20100812.121227	20100812.121803	8	0.013328	60	10	60-180	60	137	GapExp	0	49	2	3	0	distractor	1	1160	420	42839	13.328	12.873	13.790
ProbeTrack11	4	ProbeTrack	11.1	SCS215a	20100812.121227	20100812.121811	8	0.013328	60	10	60-180	60	148	GapExp	0	50	2	45	1	target	1	1293	354	43193	13.328	12.952	13.708
ProbeTrack11	4	ProbeTrack	11.1	SCS215a	20100812.121227	20100812.121820	8	0.013328	60	10	60-180	60	144	GapExp	0	51	2	0	1	target	1	1120	440	43633	13.328	12.891	13.757
ProbeTrack11	4	ProbeTrack	11.1	SCS215a	20100812.121227	20100812.121828	8	0.013328	60	10	60-180	60	92	GapExp	0	52	2	1	1	target	1	1013	494	44127	13.328	13.101	13.549
ProbeTrack11	4	ProbeTrack	11.1	SCS215a	20100812.121227	20100812.121835	8	0.013328	60	0	60-180	60	73	GapExp	0	53	2	45	1	target	1	1067	467	44594	13.328	13.110	13.541
ProbeTrack11	4	ProbeTrack	11.1	SCS215a	20100812.121227	20100812.121842	8	0.013328	60	10	60-180	60	160	GapExp	0	54	2	0	1	target	1	973	514	45108	13.328	13.308	13.345
ProbeTrack11	4	ProbeTrack	11.1	SCS215a	20100812.121227	20100812.121850	8	0.013328	60	0	60-180	60	70	GapExp	0	55	2	45	0	distractor	1	1160	420	45528	13.328	12.943	13.715
ProbeTrack11	4	ProbeTrack	11.1	SCS215a	20100812.121227	20100812.121857	8	0.013328	60	10	60-180	60	80	GapExp	0	56	2	0	1	distractor	0	1680	-1000	44528	13.328	12.905	13.758
ProbeTrack11	4	ProbeTrack	11.1	SCS215a	20100812.121227	20100812.121904	8	0.013328	60	10	60-180	60	67	GapExp	0	57	2	3	1	target	1	1320	340	44868	13.328	13.098	13.550
ProbeTrack11	4	ProbeTrack	11.1	SCS215a	20100812.121227	20100812.121910	8	0.013328	60	10	60-180	60	146	GapExp	0	58	2	1	0	distractor	1	1253	374	45242	13.328	13.113	13.548
ProbeTrack11	4	ProbeTrack	11.1	SCS215a	20100812.121227	20100812.121918	8	0.013328	60	0	60-180	60	84	GapExp	0	59	2	1	1	target	1	1280	360	45602	13.328	13.308	13.346
ProbeTrack11	4	ProbeTrack	11.1	SCS215a	20100812.121227	20100812.121925	8	0.013328	60	0	60-180	60	86	GapExp	0	60	2	45	0	distractor	1	1293	354	45956	13.328	13.097	13.555
ProbeTrack11	4	ProbeTrack	11.1	SCS215a	20100812.121227	20100812.121932	8	0.013328	60	10	60-180	60	75	GapExp	0	61	2	45	0	distractor	1	1080	460	46416	13.328	13.108	13.548
ProbeTrack11	4	ProbeTrack	11.1	SCS215a	20100812.121227	20100812.121939	8	0.013328	60	0	60-180	60	68	GapExp	0	62	2	3	1	target	1	1480	260	46676	13.328	12.974	13.681
ProbeTrack11	4	ProbeTrack	11.1	SCS215a	20100812.121227	20100812.121945	8	0.013328	60	0	60-180	60	108	GapExp	0	63	2	45	0	distractor	1	1386	307	46983	13.328	13.092	13.567
ProbeTrack11	4	ProbeTrack	11.1	SCS215a	20100812.121227	20100812.121953	8	0.013328	60	0	60-180	60	79	GapExp	0	64	2	0	0	distractor	1	1346	327	47310	13.328	13.096	13.546
ProbeTrack11	4	ProbeTrack	11.1	SCS215a	20100812.121227	20100812.121959	8	0.013328	60	0	60-180	60	135	GapExp	0	65	2	1	1	target	1	1240	380	47690	13.328	12.861	13.798
ProbeTrack11	4	ProbeTrack	11.1	SCS215a	20100812.121227	20100812.122006	8	0.013328	60	0	60-180	60	109	GapExp	0	66	2	1	1	target	1	1320	340	48030	13.328	13.105	13.540
ProbeTrack11	4	ProbeTrack	11.1	SCS215a	20100812.121227	20100812.122013	8	0.013328	60	10	60-180	60	90	GapExp	0	67	2	3	1	target	1	1227	387	48417	13.328	12.925	13.745
ProbeTrack11	4	ProbeTrack	11.1	SCS215a	20100812.121227	20100812.122019	8	0.013328	60	10	60-180	60	88	GapExp	0	68	2	1	1	target	1	1040	480	48897	13.326	12.949	13.348
ProbeTrack11	4	ProbeTrack	11.1	SCS215a	20100812.121227	20100812.122025	8	0.013328	60	0	60-180	60	157	GapExp	0	69	2	3	0	distractor	1	1107	447	49344	13.328	13.016	13.641
ProbeTrack11	4	ProbeTrack	11.1	SCS215a	20100812.121227	20100812.122032	8	0.013328	60	10	60-180	60	92	GapExp	0	70	2	0	1	target	1	1173	414	49758	13.328	13.156	13.492
ProbeTrack11	4	ProbeTrack	11.1	SCS215a	20100812.121227	20100812.122040	8	0.013328	60	0	60-180	60	177	GapExp	0	71	2	3	0	distractor	1	1466	267	50025	13.327	12.924	13.565
ProbeTrack11	4	ProbeTrack	11.1	SCS215a	20100812.121227	20100812.122047	8	0.013328	60	0	60-180	60	133	GapExp	0	72	2	0	1	target	1	1853	74	50099	13.328	13.087	13.560
ProbeTrack11	4	ProbeTrack	11.1	SCS215a	20100812.121227	20100812.122055	8	0.013328	60	0	60-180	60	145	GapExp	0	73	2	45	1	distractor	0	1360	-1000	49099	13.328	12.966	13.720
ProbeTrack11	4	ProbeTrack	11.1	SCS215a	20100812.121227	20100812.122103	8	0.013328	60	0	60-180	60	87	GapExp	0	74	2	0	0	distractor	1	1440	280	49379	13.328	13.086	13.560
ProbeTrack11	4	ProbeTrack	11.1	SCS215a	20100812.121227	20100812.122110	8	0.013328	60	0	60-180	60	88	GapExp	0	75	2	45	1	target	1	893	554	49933	13.328	13.099	13.550
ProbeTrack11	4	ProbeTrack	11.1	SCS215a	20100812.121227	20100812.122117	8	0.013328	60	0	60-180	60	172	GapExp	0	76	2	0	1	target	1	1187	407	50340	13.328	13.116	13.541
ProbeTrack11	4	ProbeTrack	11.1	SCS215a	20100812.121227	20100812.122125	8	0.013328	60	0	60-180	60	81	GapExp	0	77	2	3	1	target	1	1333	334	50674	13.328	13.308	13.346
ProbeTrack11	4	ProbeTrack	11.1	SCS215a	20100812.121227	20100812.122132	8	0.013328	60	0	60-180	60	87	GapExp	0	78	2	1	0	distractor	1	1213	394	51068	13.328	13.310	13.345
ProbeTrack11	4	ProbeTrack	11.1	SCS215a	20100812.121227	20100812.122140	8	0.013328	60	10	60-180	60	168	GapExp	0	79	2	0	1	target	1	1733	134	51202	13.328	13.102	13.548
ProbeTrack11	4	ProbeTrack	11.1	SCS215a	20100812.121227	20100812.122147	8	0.013328	60	10	60-180	60	151	GapExp	0	80	2	3	1	target	1	1413	294	51496	13.328	13.184	13.479
ProbeTrack11	4	ProbeTrack	11.1	SCS215a	20100812.121227	20100812.122155	8	0.013328	60	0	60-180	60	65	GapExp	0	81	2	45	1	target	1	1227	387	51883	13.328	13.311	13.347
ProbeTrack11	4	ProbeTrack	11.1	SCS215a	20100812.121227	20100812.122202	8	0.013328	60	10	60-180	60	69	GapExp	0	82	2	1	1	target	1	1053	474	52357	13.328	13.048	13.609
ProbeTrack11	4	ProbeTrack	11.1	SCS215a	20100812.121227	20100812.122208	8	0.013328	60	0	60-180	60	75	GapExp	0	83	2	0	0	distractor	1	1306	347	52704	13.328	13.304	13.346
ProbeTrack11	4	ProbeTrack	11.1	SCS215a	20100812.121227	20100812.122215	8	0.013328	60	0	60-180	60	146	GapExp	0	84	2	0	0	distractor	1	1386	307	53011	13.328	13.300	13.347
ProbeTrack11	4	ProbeTrack	11.1	SCS215a	20100812.121227	20100812.122222	8	0.013328	60	0	60-180	60	180	GapExp	0	85	2	1	0	distractor	1	1386	307	53318	13.328	13.307	13.348
ProbeTrack11	4	ProbeTrack	11.1	SCS215a	20100812.121227	20100812.122229	8	0.013328	60	10	60-180	60	114	GapExp	0	86	2	45	0	distractor	1	1426	287	53605	13.328	13.030	13.608
ProbeTrack11	4	ProbeTrack	11.1	SCS215a	20100812.121227	20100812.122237	8	0.013328	60	0	60-180	60	173	GapExp	0	87	2	1	0	distractor	1	1466	267	53872	13.328	13.007	13.662
ProbeTrack11	4	ProbeTrack	11.1	SCS215a	20100812.121227	20100812.122244	8	0.013328	60	0	60-180	60	175	GapExp	0	88	2	3	0	distractor	1	1320	340	54212	13.328	13.298	13.358
ProbeTrack11	4	ProbeTrack	11.1	SCS215a	20100812.121227	20100812.122251	8	0.013328	60	10	60-180	60	81	GapExp	0	89	2	45	0	distractor	1	1266	367	54579	13.328	13.307	13.347
ProbeTrack11	4	ProbeTrack	11.1	SCS215a	20100812.121227	20100812.122258	8	0.013328	60	0	60-180	60	175	GapExp	0	90	2	0	1	target	1	1293	354	54933	13.328	13.003	13.646
ProbeTrack11	4	ProbeTrack	11.1	SCS215a	20100812.121227	20100812.122306	8	0.013328	60	10	60-180	60	135	GapExp	0	91	2	45	0	distractor	1	1706	147	55080	13.328	13.215	13.434
ProbeTrack11	4	ProbeTrack	11.1	SCS215a	20100812.121227	20100812.122314	8	0.013328	60	0	60-180	60	76	GapExp	0	92	2	0	1	distractor	0	1733	-1000	54080	13.328	13.308	13.346
ProbeTrack11	4	ProbeTrack	11.1	SCS215a	20100812.121227	20100812.122321	8	0.013328	60	0	60-180	60	153	GapExp	0	93	2	45	0	distractor	1	1373	314	54394	13.328	13.104	13.544
ProbeTrack11	4	ProbeTrack	11.1	SCS215a	20100812.121227	20100812.122329	8	0.013328	60	10	60-180	60	71	GapExp	0	94	2	45	0	distractor	1	1227	387	54781	13.328	13.105	13.542
ProbeTrack11	4	ProbeTrack	11.1	SCS215a	20100812.121227	20100812.122336	8	0.013328	60	10	60-180	60	100	GapExp	0	95	2	45	0	distractor	1	1506	247	55028	13.328	12.850	13.801
ProbeTrack11	4	ProbeTrack	11.1	SCS215a	20100812.121227	20100812.122344	8	0.013328	60	10	60-180	60	118	GapExp	0	96	2	45	0	distractor	1	1391	305	55333	13.328	13.307	13.360
ProbeTrack11	4	ProbeTrack	11.1	SCS215a	20100812.121227	20100812.122352	8	0.013328	60	0	60-180	60	173	GapExp	0	97	2	1	0	target	0	1053	-1000	54333	13.328	13.106	13.541
ProbeTrack11	4	ProbeTrack	11.1	SCS215a	20100812.121227	20100812.122359	8	0.013328	60	10	60-180	60	84	GapExp	0	98	2	0	1	target	1	1920	40	54373	13.328	12.873	13.796
ProbeTrack11	4	ProbeTrack	11.1	SCS215a	20100812.121227	20100812.122406	8	0.013328	60	10	60-180	60	69	GapExp	0	99	2	1	0	distractor	1	1346	327	54700	13.328	13.112	13.541
ProbeTrack11	4	ProbeTrack	11.1	SCS215a	20100812.121227	20100812.122413	8	0.013328	60	0	60-180	60	157	GapExp	0	100	2	0	1	target	1	1147	427	55127	13.328	13.108	13.547
ProbeTrack11	4	ProbeTrack	11.1	SCS215a	20100812.121227	20100812.122420	8	0.013328	60	10	60-180	60	163	GapExp	0	101	2	45	1	target	1	933	534	55661	13.328	12.852	13.803
ProbeTrack11	4	ProbeTrack	11.1	SCS215a	20100812.121227	20100812.122428	8	0.013328	60	0	60-180	60	173	GapExp	0	102	2	45	1	target	1	1133	434	56095	13.328	12.889	13.798
ProbeTrack11	4	ProbeTrack	11.1	SCS215a	20100812.121227	20100812.122436	8	0.013328	60	0	60-180	60	110	GapExp	0	103	2	3	1	target	1	1093	454	56549	13.328	13.001	13.668
ProbeTrack11	4	ProbeTrack	11.1	SCS215a	20100812.121227	20100812.122442	8	0.013328	60	0	60-180	60	72	GapExp	0	104	2	3	1	target	1	973	514	57063	13.328	12.944	13.723
ProbeTrack11	4	ProbeTrack	11.1	SCS215a	20100812.121227	20100812.122448	8	0.013328	60	10	60-180	60	73	GapExp	0	105	2	3	0	distractor	1	1013	494	57557	13.328	13.050	13.595
ProbeTrack11	4	ProbeTrack	11.1	SCS215a	20100812.121227	20100812.122453	8	0.013328	60	0	60-180	60	157	GapExp	0	106	2	0	0	distractor	1	1053	474	58031	13.328	13.089	13.567
ProbeTrack11	4	ProbeTrack	11.1	SCS215a	20100812.121227	20100812.122500	8	0.013328	60	10	60-180	60	99	GapExp	0	107	2	45	0	distractor	1	1120	440	58471	13.328	12.893	13.742
ProbeTrack11	4	ProbeTrack	11.1	SCS215a	20100812.121227	20100812.122507	8	0.013328	60	10	60-180	60	108	GapExp	0	108	2	1	0	distractor	1	1147	427	58898	13.328	12.885	13.764
ProbeTrack11	4	ProbeTrack	11.1	SCS215a	20100812.121227	20100812.122513	8	0.013328	60	10	60-180	60	89	GapExp	0	109	2	45	0	target	0	933	-1000	57898	13.326	12.886	13.542
ProbeTrack11	4	ProbeTrack	11.1	SCS215a	20100812.121227	20100812.122520	8	0.013328	60	0	60-180	60	117	GapExp	0	110	2	45	0	distractor	1	1227	387	58285	13.328	12.912	13.746
ProbeTrack11	4	ProbeTrack	11.1	SCS215a	20100812.121227	20100812.122527	8	0.013328	60	0	60-180	60	124	GapExp	0	111	2	0	0	distractor	1	1480	260	58545	13.328	12.932	13.710
ProbeTrack11	4	ProbeTrack	11.1	SCS215a	20100812.121227	20100812.122534	8	0.013328	60	0	60-180	60	102	GapExp	0	112	2	1	1	target	1	1320	340	58885	13.328	13.307	13.347
ProbeTrack11	4	ProbeTrack	11.1	SCS215a	20100812.121227	20100812.122541	8	0.013328	60	10	60-180	60	89	GapExp	0	113	2	45	0	distractor	1	1080	460	59345	13.328	12.987	13.667
ProbeTrack11	4	ProbeTrack	11.1	SCS215a	20100812.121227	20100812.122548	8	0.013328	60	10	60-180	60	113	GapExp	0	114	2	45	1	target	1	1013	494	59839	13.328	13.099	13.551
ProbeTrack11	4	ProbeTrack	11.1	SCS215a	20100812.121227	20100812.122556	8	0.013328	60	0	60-180	60	180	GapExp	0	115	2	3	1	target	1	1853	74	59913	13.328	13.235	13.427
ProbeTrack11	4	ProbeTrack	11.1	SCS215a	20100812.121227	20100812.122604	8	0.013328	60	10	60-180	60	159	GapExp	0	116	2	1	1	target	1	1013	494	60407	13.328	12.946	13.718
ProbeTrack11	4	ProbeTrack	11.1	SCS215a	20100812.121227	20100812.122612	8	0.013328	60	10	60-180	60	152	GapExp	0	117	2	1	1	target	1	893	554	60961	13.328	13.024	13.619
ProbeTrack11	4	ProbeTrack	11.1	SCS215a	20100812.121227	20100812.122619	8	0.013328	60	0	60-180	60	136	GapExp	0	118	2	45	0	distractor	1	1187	407	61368	13.328	13.100	13.552
ProbeTrack11	4	ProbeTrack	11.1	SCS215a	20100812.121227	20100812.122626	8	0.013328	60	10	60-180	60	161	GapExp	0	119	2	1	0	distractor	1	1280	360	61728	13.328	12.882	13.764
ProbeTrack11	4	ProbeTrack	11.1	SCS215a	20100812.121227	20100812.122634	8	0.013328	60	10	60-180	60	91	GapExp	0	120	2	1	0	distractor	1	1360	320	62048	13.384	12.873	27.048
ProbeTrack11	4	ProbeTrack	11.1	SCS215a	20100812.121227	20100812.122640	8	0.013328	60	10	60-180	60	96	GapExp	0	121	2	3	1	target	1	960	520	62568	13.328	13.103	13.556
ProbeTrack11	4	ProbeTrack	11.1	SCS215a	20100812.121227	20100812.122647	8	0.013328	60	10	60-180	60	115	GapExp	0	122	2	1	0	distractor	1	1373	314	62882	13.328	12.941	13.718
ProbeTrack11	4	ProbeTrack	11.1	SCS215a	20100812.121227	20100812.122654	8	0.013328	60	10	60-180	60	93	GapExp	0	123	2	45	0	distractor	1	1120	440	63322	13.328	12.897	13.773
ProbeTrack11	4	ProbeTrack	11.1	SCS215a	20100812.121227	20100812.122701	8	0.013328	60	10	60-180	60	164	GapExp	0	124	2	45	0	distractor	1	1413	294	63616	13.328	12.937	13.706
ProbeTrack11	4	ProbeTrack	11.1	SCS215a	20100812.121227	20100812.122709	8	0.013328	60	10	60-180	60	166	GapExp	0	125	2	3	1	target	1	1013	494	64110	13.328	12.891	13.629
ProbeTrack11	4	ProbeTrack	11.1	SCS215a	20100812.121227	20100812.122716	8	0.013328	60	0	60-180	60	107	GapExp	0	126	2	0	0	multi	-2	1467	-1000	63110	13.328	13.309	13.348
ProbeTrack11	4	ProbeTrack	11.1	SCS215a	20100812.121227	20100812.122723	8	0.013328	60	10	60-180	60	62	GapExp	0	127	2	45	1	target	1	1053	474	63584	13.328	13.308	13.348
ProbeTrack11	4	ProbeTrack	11.1	SCS215a	20100812.121227	20100812.122730	8	0.013328	60	10	60-180	60	140	GapExp	0	128	2	1	0	distractor	1	1240	380	63964	13.328	13.264	13.374
ProbeTrack11	4	ProbeTrack	11.1	SCS215a	20100812.121227	20100812.122738	8	0.013328	60	0	60-180	60	168	GapExp	0	129	2	3	0	distractor	1	1266	367	64331	13.328	12.863	13.775
ProbeTrack11	4	ProbeTrack	11.1	SCS215a	20100812.121227	20100812.122745	8	0.013328	60	10	60-180	60	108	GapExp	0	130	2	3	1	target	1	1306	347	64678	13.328	12.966	13.710
ProbeTrack11	4	ProbeTrack	11.1	SCS215a	20100812.121227	20100812.122752	8	0.013328	60	10	60-180	60	102	GapExp	0	131	2	45	1	target	1	2359	0	64678	13.328	12.907	13.732
ProbeTrack11	4	ProbeTrack	11.1	SCS215a	20100812.121227	20100812.122800	8	0.013328	60	10	60-180	60	68	GapExp	0	132	2	1	0	distractor	1	1293	354	65032	13.328	13.091	13.559
ProbeTrack11	4	ProbeTrack	11.1	SCS215a	20100812.121227	20100812.122808	8	0.013328	60	0	60-180	60	128	GapExp	0	133	2	0	1	target	1	1027	487	65519	13.378	12.791	26.966
ProbeTrack11	4	ProbeTrack	11.1	SCS215a	20100812.121227	20100812.122816	8	0.013328	60	10	60-180	60	74	GapExp	0	134	2	1	0	distractor	1	2066	0	65519	13.328	12.850	13.626
ProbeTrack11	4	ProbeTrack	11.1	SCS215a	20100812.121227	20100812.122823	8	0.013328	60	10	60-180	60	137	GapExp	0	135	2	3	1	target	1	1040	480	65999	13.328	13.100	13.563
ProbeTrack11	4	ProbeTrack	11.1	SCS215a	20100812.121227	20100812.122830	8	0.013328	60	10	60-180	60	113	GapExp	0	136	2	0	0	distractor	1	1187	407	66406	13.328	13.108	13.561
ProbeTrack11	4	ProbeTrack	11.1	SCS215a	20100812.121227	20100812.122837	8	0.013328	60	10	60-180	60	124	GapExp	0	137	2	1	1	target	1	414	793	67199	13.328	13.081	13.588
ProbeTrack11	4	ProbeTrack	11.1	SCS215a	20100812.121227	20100812.122843	8	0.013328	60	10	60-180	60	79	GapExp	0	138	2	0	0	distractor	1	1280	360	67559	13.328	12.927	13.731
ProbeTrack11	4	ProbeTrack	11.1	SCS215a	20100812.121227	20100812.122849	8	0.013328	60	10	60-180	60	115	GapExp	0	139	2	1	0	186	-3	880	-1000	66559	13.328	12.962	13.693
ProbeTrack11	4	ProbeTrack	11.1	SCS215a	20100812.121227	20100812.122855	8	0.013328	60	10	60-180	60	149	GapExp	0	140	2	1	0	target	0	853	-1000	65559	13.328	13.253	13.412
ProbeTrack11	4	ProbeTrack	11.1	SCS215a	20100812.121227	20100812.122902	8	0.013328	60	10	60-180	60	65	GapExp	0	141	2	45	1	target	1	947	527	66086	13.328	13.308	13.345
ProbeTrack11	4	ProbeTrack	11.1	SCS215a	20100812.121227	20100812.122909	8	0.013328	60	10	60-180	60	167	GapExp	0	142	2	45	1	multi	-2	973	-1000	65086	13.328	12.994	13.679
ProbeTrack11	4	ProbeTrack	11.1	SCS215a	20100812.121227	20100812.122916	8	0.013328	60	10	60-180	60	137	GapExp	0	143	2	1	1	target	1	933	534	65620	13.328	12.970	13.671
ProbeTrack11	4	ProbeTrack	11.1	SCS215a	20100812.121227	20100812.122924	8	0.013328	60	10	60-180	60	126	GapExp	0	144	2	45	1	target	1	1040	480	66100	13.370	12.921	26.694
ProbeTrack11	4	ProbeTrack	11.1	SCS215a	20100812.121227	20100812.122931	8	0.013328	60	0	60-180	60	68	GapExp	0	145	2	0	0	distractor	1	1240	380	66480	13.328	13.303	13.356
ProbeTrack11	4	ProbeTrack	11.1	SCS215a	20100812.121227	20100812.122936	8	0.013328	60	0	60-180	60	84	GapExp	0	146	2	0	1	target	1	1240	380	66860	13.328	13.150	13.491
ProbeTrack11	4	ProbeTrack	11.1	SCS215a	20100812.121227	20100812.122944	8	0.013328	60	10	60-180	60	148	GapExp	0	147	2	3	0	distractor	1	1120	440	67300	13.328	13.308	13.347
ProbeTrack11	4	ProbeTrack	11.1	SCS215a	20100812.121227	20100812.122951	8	0.013328	60	10	60-180	60	87	GapExp	0	148	2	0	0	distractor	1	2279	0	67300	13.328	12.926	13.731
ProbeTrack11	4	ProbeTrack	11.1	SCS215a	20100812.121227	20100812.122958	8	0.013328	60	10	60-180	60	99	GapExp	0	149	2	0	1	target	1	920	540	67840	13.382	12.847	26.658
ProbeTrack11	4	ProbeTrack	11.1	SCS215a	20100812.121227	20100812.123004	8	0.013328	60	10	60-180	60	81	GapExp	0	150	2	45	1	target	1	787	607	68447	13.328	13.281	13.369
ProbeTrack11	4	ProbeTrack	11.1	SCS215a	20100812.121227	20100812.123010	8	0.013328	60	10	60-180	60	100	GapExp	0	151	2	0	0	distractor	1	1013	494	68941	13.328	13.099	13.540
ProbeTrack11	4	ProbeTrack	11.1	SCS215a	20100812.121227	20100812.123016	8	0.013328	60	0	60-180	60	83	GapExp	0	152	2	3	1	target	1	480	760	69701	13.328	13.112	13.553
ProbeTrack11	4	ProbeTrack	11.1	SCS215a	20100812.121227	20100812.123022	8	0.013328	60	10	60-180	60	104	GapExp	0	153	2	1	1	target	1	560	720	70421	13.328	13.303	13.348
ProbeTrack11	4	ProbeTrack	11.1	SCS215a	20100812.121227	20100812.123029	8	0.013328	60	10	60-180	60	108	GapExp	0	154	2	1	1	target	1	440	780	71201	13.328	12.883	13.788
ProbeTrack11	4	ProbeTrack	11.1	SCS215a	20100812.121227	20100812.123034	8	0.013328	60	0	60-180	60	145	GapExp	0	155	2	1	1	target	1	627	687	71888	13.328	13.294	13.354
ProbeTrack11	4	ProbeTrack	11.1	SCS215a	20100812.121227	20100812.123041	8	0.013328	60	10	60-180	60	177	GapExp	0	156	2	1	1	target	1	534	733	72621	13.371	12.854	26.468
ProbeTrack11	4	ProbeTrack	11.1	SCS215a	20100812.121227	20100812.123047	8	0.013328	60	10	60-180	60	125	GapExp	0	157	2	3	0	distractor	1	693	654	73275	13.328	12.901	13.777
ProbeTrack11	4	ProbeTrack	11.1	SCS215a	20100812.121227	20100812.123054	8	0.013328	60	10	60-180	60	180	GapExp	0	158	2	0	1	target	1	494	753	74028	13.328	13.039	13.623
ProbeTrack11	4	ProbeTrack	11.1	SCS215a	20100812.121227	20100812.123101	8	0.013328	60	0	60-180	60	94	GapExp	0	159	2	45	1	target	1	480	760	74788	13.328	13.020	13.638
ProbeTrack11	4	ProbeTrack	11.1	SCS215a	20100812.121227	20100812.123107	8	0.013328	60	10	60-180	60	114	GapExp	0	160	2	3	0	distractor	1	627	687	75475	13.328	12.972	13.682
ProbeTrack11	4	ProbeTrack	11.1	SCS215a	20100812.121227	20100812.123113	8	0.013328	60	0	60-180	60	111	GapExp	0	161	2	3	0	distractor	1	614	693	76168	13.328	13.034	13.636
ProbeTrack11	4	ProbeTrack	11.1	SCS215a	20100812.121227	20100812.123119	8	0.013328	60	0	60-180	60	163	GapExp	0	162	2	1	0	distractor	1	614	693	76861	13.328	12.947	13.712
ProbeTrack11	4	ProbeTrack	11.1	SCS215a	20100812.121227	20100812.123126	8	0.013328	60	10	60-180	60	179	GapExp	0	163	2	3	1	target	1	547	727	77588	13.766	12.858	40.427
ProbeTrack11	4	ProbeTrack	11.1	SCS215a	20100812.121227	20100812.123132	8	0.013328	60	10	60-180	60	86	GapExp	0	164	2	3	0	target	0	574	-1000	76588	13.328	13.308	13.346
ProbeTrack11	4	ProbeTrack	11.1	SCS215a	20100812.121227	20100812.123138	8	0.013328	60	0	60-180	60	100	GapExp	0	165	2	0	1	target	1	640	680	77268	13.328	12.844	13.807
ProbeTrack11	4	ProbeTrack	11.1	SCS215a	20100812.121227	20100812.123144	8	0.013328	60	0	60-180	60	158	GapExp	0	166	2	3	1	target	1	547	727	77995	13.328	13.308	13.347
ProbeTrack11	4	ProbeTrack	11.1	SCS215a	20100812.121227	20100812.123150	8	0.013328	60	0	60-180	60	139	GapExp	0	167	2	45	1	target	1	467	767	78762	13.373	13.278	26.636
ProbeTrack11	4	ProbeTrack	11.1	SCS215a	20100812.121227	20100812.123157	8	0.013328	60	0	60-180	60	148	GapExp	0	168	2	3	1	target	1	560	720	79482	13.328	12.922	13.739
ProbeTrack11	4	ProbeTrack	11.1	SCS215a	20100812.121227	20100812.123204	8	0.013328	60	0	60-180	60	174	GapExp	0	169	2	0	1	target	1	400	800	80282	13.328	13.308	13.346
ProbeTrack11	4	ProbeTrack	11.1	SCS215a	20100812.121227	20100812.123210	8	0.013328	60	0	60-180	60	67	GapExp	0	170	2	3	0	distractor	1	733	634	80916	13.328	13.047	13.620
ProbeTrack11	4	ProbeTrack	11.1	SCS215a	20100812.121227	20100812.123216	8	0.013328	60	10	60-180	60	121	GapExp	0	171	2	3	0	distractor	1	547	727	81643	13.328	13.085	13.563
ProbeTrack11	4	ProbeTrack	11.1	SCS215a	20100812.121227	20100812.123222	8	0.013328	60	0	60-180	60	86	GapExp	0	172	2	0	0	distractor	1	813	594	82237	13.328	13.017	13.653
ProbeTrack11	4	ProbeTrack	11.1	SCS215a	20100812.121227	20100812.123228	8	0.013328	60	10	60-180	60	178	GapExp	0	173	2	3	0	target	0	600	-1000	81237	13.328	12.886	13.768
ProbeTrack11	4	ProbeTrack	11.1	SCS215a	20100812.121227	20100812.123235	8	0.013328	60	10	60-180	60	161	GapExp	0	174	2	3	0	distractor	1	520	740	81977	13.328	13.307	13.355
ProbeTrack11	4	ProbeTrack	11.1	SCS215a	20100812.121227	20100812.123241	8	0.013328	60	10	60-180	60	76	GapExp	0	175	2	45	0	distractor	1	694	653	82630	13.328	13.098	13.563
ProbeTrack11	4	ProbeTrack	11.1	SCS215a	20100812.121227	20100812.123248	8	0.013328	60	0	60-180	60	83	GapExp	0	176	2	1	0	distractor	1	640	680	83310	13.328	12.925	13.744
ProbeTrack11	4	ProbeTrack	11.1	SCS215a	20100812.121227	20100812.123253	8	0.013328	60	10	60-180	60	165	GapExp	0	177	2	3	1	target	1	480	760	84070	13.328	12.940	13.700
ProbeTrack11	4	ProbeTrack	11.1	SCS215a	20100812.121227	20100812.123259	8	0.013328	60	0	60-180	60	78	GapExp	0	178	2	45	0	distractor	1	813	594	84664	13.328	12.975	13.686
ProbeTrack11	4	ProbeTrack	11.1	SCS215a	20100812.121227	20100812.123305	8	0.013328	60	0	60-180	60	176	GapExp	0	179	2	45	1	target	1	667	667	85331	13.328	12.906	13.787
ProbeTrack11	4	ProbeTrack	11.1	SCS215a	20100812.121227	20100812.123313	8	0.013328	60	0	60-180	60	161	GapExp	0	180	2	3	1	target	1	560	720	86051	13.328	13.006	13.661
ProbeTrack11	4	ProbeTrack	11.1	SCS215a	20100812.121227	20100812.123319	8	0.013328	60	0	60-180	60	100	GapExp	0	181	2	1	1	target	1	520	740	86791	13.328	12.890	13.776
ProbeTrack11	4	ProbeTrack	11.1	SCS215a	20100812.121227	20100812.123325	8	0.013328	60	0	60-180	60	138	GapExp	0	182	2	0	0	target	0	560	-1000	85791	13.328	13.110	13.549
ProbeTrack11	4	ProbeTrack	11.1	SCS215a	20100812.121227	20100812.123331	8	0.013328	60	0	60-180	60	74	GapExp	0	183	2	45	1	target	1	534	733	86524	13.328	12.905	13.753
ProbeTrack11	4	ProbeTrack	11.1	SCS215a	20100812.121227	20100812.123337	8	0.013328	60	10	60-180	60	102	GapExp	0	184	2	3	0	target	0	614	-1000	85524	13.328	12.910	13.748
ProbeTrack11	4	ProbeTrack	11.1	SCS215a	20100812.121227	20100812.123342	8	0.013328	60	10	60-180	60	129	GapExp	0	185	2	0	1	target	1	494	753	86277	13.328	13.306	13.354
ProbeTrack11	4	ProbeTrack	11.1	SCS215a	20100812.121227	20100812.123348	8	0.013328	60	10	60-180	60	71	GapExp	0	186	2	1	0	multi	-2	912	-1000	85277	13.328	13.300	13.345
ProbeTrack11	4	ProbeTrack	11.1	SCS215a	20100812.121227	20100812.123354	8	0.013328	60	0	60-180	60	149	GapExp	0	187	2	1	0	distractor	1	880	560	85837	13.328	13.015	13.629
ProbeTrack11	4	ProbeTrack	11.1	SCS215a	20100812.121227	20100812.123400	8	0.013328	60	10	60-180	60	104	GapExp	0	188	2	45	1	target	1	827	587	86424	13.328	13.098	13.561
ProbeTrack11	4	ProbeTrack	11.1	SCS215a	20100812.121227	20100812.123407	8	0.013328	60	10	60-180	60	110	GapExp	0	189	2	0	1	distractor	0	1347	-1000	85424	13.328	13.118	13.551
ProbeTrack11	4	ProbeTrack	11.1	SCS215a	20100812.121227	20100812.123414	8	0.013328	60	10	60-180	60	74	GapExp	0	190	2	3	0	distractor	1	853	574	85998	13.328	13.107	13.563
ProbeTrack11	4	ProbeTrack	11.1	SCS215a	20100812.121227	20100812.123419	8	0.013328	60	10	60-180	60	112	GapExp	0	191	2	1	1	target	1	933	534	86532	13.328	12.916	13.734
ProbeTrack11	4	ProbeTrack	11.1	SCS215a	20100812.121227	20100812.123426	8	0.013328	60	10	60-180	60	151	GapExp	0	192	2	45	0	distractor	1	920	540	87072	13.328	12.887	13.773
ProbeTrack11	4	ProbeTrack	11.1	SCS215a	20100812.121227	20100812.123433	8	0.013328	60	10	60-180	60	61	GapExp	0	193	2	0	0	distractor	1	880	560	87632	13.328	12.939	13.711
ProbeTrack11	4	ProbeTrack	11.1	SCS215a	20100812.121227	20100812.123438	8	0.013328	60	0	60-180	60	156	GapExp	0	194	2	0	0	distractor	1	973	514	88146	13.328	12.938	13.732
ProbeTrack11	4	ProbeTrack	11.1	SCS215a	20100812.121227	20100812.123445	8	0.013328	60	0	60-180	60	135	GapExp	0	195	2	1	0	target	0	1240	-1000	87146	13.328	12.867	13.795
ProbeTrack11	4	ProbeTrack	11.1	SCS215a	20100812.121227	20100812.123452	8	0.013328	60	10	60-180	60	178	GapExp	0	196	2	0	1	target	1	1200	400	87546	13.328	12.997	13.663
ProbeTrack11	4	ProbeTrack	11.1	SCS215a	20100812.121227	20100812.123501	8	0.013328	60	0	60-180	60	147	GapExp	0	197	2	1	0	distractor	1	840	580	88126	13.375	12.966	26.638
ProbeTrack11	4	ProbeTrack	11.1	SCS215a	20100812.121227	20100812.123508	8	0.013328	60	0	60-180	60	101	GapExp	0	198	2	3	0	distractor	1	893	554	88680	13.328	13.308	13.345
ProbeTrack11	4	ProbeTrack	11.1	SCS215a	20100812.121227	20100812.123514	8	0.013328	60	0	60-180	60	161	GapExp	0	199	2	3	0	distractor	1	853	574	89254	13.328	13.308	13.345
ProbeTrack11	4	ProbeTrack	11.1	SCS215a	20100812.121227	20100812.123521	8	0.013328	60	10	60-180	60	62	GapExp	0	200	2	3	0	distractor	1	800	600	89854	13.328	13.299	13.358
ProbeTrack11	4	ProbeTrack	11.1	SCS215a	20100812.121227	20100812.123526	8	0.013328	60	0	60-180	60	72	GapExp	0	201	2	45	0	distractor	1	853	574	90428	13.328	13.307	13.350
ProbeTrack11	4	ProbeTrack	11.1	SCS215a	20100812.121227	20100812.123532	8	0.013328	60	10	60-180	60	153	GapExp	0	202	2	0	0	target	0	1000	-1000	89428	13.328	12.915	13.747
ProbeTrack11	4	ProbeTrack	11.1	SCS215a	20100812.121227	20100812.123539	8	0.013328	60	10	60-180	60	126	GapExp	0	203	2	45	0	distractor	1	920	540	89968	13.328	12.735	13.940
ProbeTrack11	4	ProbeTrack	11.1	SCS215a	20100812.121227	20100812.123546	8	0.013328	60	0	60-180	60	110	GapExp	0	204	2	0	0	target	0	1253	-1000	88968	13.328	13.101	13.552
ProbeTrack11	4	ProbeTrack	11.1	SCS215a	20100812.121227	20100812.123553	8	0.013328	60	10	60-180	60	153	GapExp	0	205	2	45	1	target	1	787	607	89575	13.328	13.110	13.561
ProbeTrack11	4	ProbeTrack	11.1	SCS215a	20100812.121227	20100812.123600	8	0.013328	60	10	60-180	60	123	GapExp	0	206	2	0	1	target	1	813	594	90169	13.328	12.996	13.669
ProbeTrack11	4	ProbeTrack	11.1	SCS215a	20100812.121227	20100812.123607	8	0.013328	60	10	60-180	60	112	GapExp	0	207	2	1	0	distractor	1	974	513	90682	13.379	12.952	27.029
ProbeTrack11	4	ProbeTrack	11.1	SCS215a	20100812.121227	20100812.123613	8	0.013328	60	0	60-180	60	99	GapExp	0	208	2	45	0	distractor	1	920	540	91222	13.328	12.964	13.706
ProbeTrack11	4	ProbeTrack	11.1	SCS215a	20100812.121227	20100812.123620	8	0.013328	60	0	60-180	60	169	GapExp	0	209	2	3	0	multi	-2	1373	-1000	90222	13.328	13.109	13.551
ProbeTrack11	4	ProbeTrack	11.1	SCS215a	20100812.121227	20100812.123627	8	0.013328	60	0	60-180	60	102	GapExp	0	210	2	3	0	distractor	1	907	547	90769	13.328	13.100	13.561
ProbeTrack11	4	ProbeTrack	11.1	SCS215a	20100812.121227	20100812.123633	8	0.013328	60	0	60-180	60	66	GapExp	0	211	2	45	0	distractor	1	1093	454	91223	13.328	13.090	13.558
ProbeTrack11	4	ProbeTrack	11.1	SCS215a	20100812.121227	20100812.123640	8	0.013328	60	0	60-180	60	92	GapExp	0	212	2	45	0	distractor	1	893	554	91777	13.328	12.932	13.726
ProbeTrack11	4	ProbeTrack	11.1	SCS215a	20100812.121227	20100812.123646	8	0.013328	60	0	60-180	60	144	GapExp	0	213	2	0	1	target	1	933	534	92311	13.328	13.096	13.562
ProbeTrack11	4	ProbeTrack	11.1	SCS215a	20100812.121227	20100812.123653	8	0.013328	60	0	60-180	60	87	GapExp	0	214	2	1	0	distractor	1	880	560	92871	13.328	12.849	13.801
ProbeTrack11	4	ProbeTrack	11.1	SCS215a	20100812.121227	20100812.123700	8	0.013328	60	0	60-180	60	144	GapExp	0	215	2	3	0	distractor	1	880	560	93431	13.328	12.878	13.780
ProbeTrack11	4	ProbeTrack	11.1	SCS215a	20100812.121227	20100812.123706	8	0.013328	60	0	60-180	60	116	GapExp	0	216	2	1	0	distractor	1	907	547	93978	13.328	13.307	13.352
ProbeTrack11	4	ProbeTrack	11.1	SCS215a	20100812.121227	20100812.123712	8	0.013328	60	0	60-180	60	110	GapExp	0	217	2	45	0	distractor	1	867	567	94545	13.328	13.302	13.354
ProbeTrack11	4	ProbeTrack	11.1	SCS215a	20100812.121227	20100812.123719	8	0.013328	60	10	60-180	60	117	GapExp	0	218	2	0	0	distractor	1	867	567	95112	13.328	13.306	13.345
ProbeTrack11	4	ProbeTrack	11.1	SCS215a	20100812.121227	20100812.123725	8	0.013328	60	0	60-180	60	85	GapExp	0	219	2	45	1	target	1	1227	387	95499	13.328	13.308	13.347
ProbeTrack11	4	ProbeTrack	11.1	SCS215a	20100812.121227	20100812.123732	8	0.013328	60	10	60-180	60	124	GapExp	0	220	2	3	0	distractor	1	867	567	96066	13.328	13.148	13.511
ProbeTrack11	4	ProbeTrack	11.1	SCS215a	20100812.121227	20100812.123739	8	0.013328	60	10	60-180	60	100	GapExp	0	221	2	0	0	target	0	987	-1000	95066	13.328	12.990	13.674
ProbeTrack11	4	ProbeTrack	11.1	SCS215a	20100812.121227	20100812.123745	8	0.013328	60	10	60-180	60	143	GapExp	0	222	2	1	0	distractor	1	880	560	95626	13.328	13.096	13.563
ProbeTrack11	4	ProbeTrack	11.1	SCS215a	20100812.121227	20100812.123752	8	0.013328	60	0	60-180	60	87	GapExp	0	223	2	1	0	distractor	1	1147	427	96053	13.328	13.088	13.553
ProbeTrack11	4	ProbeTrack	11.1	SCS215a	20100812.121227	20100812.123758	8	0.013328	60	10	60-180	60	86	GapExp	0	224	2	3	1	target	1	947	527	96580	13.328	13.303	13.349
ProbeTrack11	4	ProbeTrack	11.1	SCS215a	20100812.121227	20100812.123817	8	0.013328	60	0	60-180	60	73	GapExp	0	225	2	3	1	target	1	813	594	97174	13.328	12.854	13.347
ProbeTrack11	4	ProbeTrack	11.1	SCS215a	20100812.121227	20100812.123823	8	0.013328	60	10	60-180	60	123	GapExp	0	226	2	3	1	distractor	0	813	-1000	96174	13.328	12.921	13.743
ProbeTrack11	4	ProbeTrack	11.1	SCS215a	20100812.121227	20100812.123830	8	0.013328	60	10	60-180	60	65	GapExp	0	227	2	3	0	target	0	773	-1000	95174	13.328	12.870	13.783
ProbeTrack11	4	ProbeTrack	11.1	SCS215a	20100812.121227	20100812.123835	8	0.013328	60	0	60-180	60	61	GapExp	0	228	2	1	0	distractor	1	933	534	95708	13.328	12.882	13.791
ProbeTrack11	4	ProbeTrack	11.1	SCS215a	20100812.121227	20100812.123841	8	0.013328	60	10	60-180	60	140	GapExp	0	229	2	3	1	target	1	867	567	96275	13.374	13.100	26.652
ProbeTrack11	4	ProbeTrack	11.1	SCS215a	20100812.121227	20100812.123848	8	0.013328	60	0	60-180	60	78	GapExp	0	230	2	45	0	distractor	1	867	567	96842	13.328	13.088	13.556
ProbeTrack11	4	ProbeTrack	11.1	SCS215a	20100812.121227	20100812.123854	8	0.013328	60	10	60-180	60	120	GapExp	0	231	2	1	1	target	1	773	614	97456	13.328	12.955	13.702
ProbeTrack11	4	ProbeTrack	11.1	SCS215a	20100812.121227	20100812.123900	8	0.013328	60	0	60-180	60	134	GapExp	0	232	2	45	0	distractor	1	960	520	97976	13.328	13.107	13.549
ProbeTrack11	4	ProbeTrack	11.1	SCS215a	20100812.121227	20100812.123916	8	0.013328	60	10	60-180	60	127	GapExp	0	233	2	45	1	target	1	853	574	98550	13.328	13.057	13.606
ProbeTrack11	4	ProbeTrack	11.1	SCS215a	20100812.121227	20100812.123923	8	0.013328	60	0	60-180	60	102	GapExp	0	234	2	1	1	target	1	827	587	99137	13.328	13.088	13.562
ProbeTrack11	4	ProbeTrack	11.1	SCS215a	20100812.121227	20100812.123929	8	0.013328	60	0	60-180	60	154	GapExp	0	235	2	3	0	distractor	1	933	534	99671	13.328	13.101	13.566
ProbeTrack11	4	ProbeTrack	11.1	SCS215a	20100812.121227	20100812.123936	8	0.013328	60	0	60-180	60	135	GapExp	0	236	2	45	1	target	1	840	580	100251	13.328	12.907	13.755
ProbeTrack11	4	ProbeTrack	11.1	SCS215a	20100812.121227	20100812.123943	8	0.013328	60	10	60-180	60	155	GapExp	0	237	2	0	0	distractor	1	787	607	100858	13.328	13.099	13.541
ProbeTrack11	4	ProbeTrack	11.1	SCS215a	20100812.121227	20100812.123950	8	0.013328	60	0	60-180	60	141	GapExp	0	238	2	45	0	distractor	1	907	547	101405	13.328	13.308	13.347
ProbeTrack11	4	ProbeTrack	11.1	SCS215a	20100812.121227	20100812.123958	8	0.013328	60	10	60-180	60	179	GapExp	0	239	2	3	0	target	0	800	-1000	100405	13.328	13.091	13.564
ProbeTrack11	4	ProbeTrack	11.1	SCS215a	20100812.121227	20100812.124005	8	0.013328	60	10	60-180	60	104	GapExp	0	240	2	0	0	distractor	1	853	574	100979	13.328	12.884	13.775
ProbeTrack11	4	ProbeTrack	11.1	SCS215a	20100812.121227	20100812.124011	8	0.013328	60	0	60-180	60	140	GapExp	0	241	2	0	0	distractor	1	840	580	101559	13.328	12.888	13.756
ProbeTrack11	4	ProbeTrack	11.1	SCS215a	20100812.121227	20100812.124017	8	0.013328	60	10	60-180	60	73	GapExp	0	242	2	3	1	target	1	773	614	102173	13.328	13.096	13.571
ProbeTrack11	4	ProbeTrack	11.1	SCS215a	20100812.121227	20100812.124023	8	0.013328	60	10	60-180	60	152	GapExp	0	243	2	0	1	target	1	800	600	102773	13.328	13.308	13.347
ProbeTrack11	4	ProbeTrack	11.1	SCS215a	20100812.121227	20100812.124030	8	0.013328	60	0	60-180	60	160	GapExp	0	244	2	0	0	target	0	960	-1000	101773	13.328	13.089	13.556
ProbeTrack11	4	ProbeTrack	11.1	SCS215a	20100812.121227	20100812.124039	8	0.013328	60	0	60-180	60	92	GapExp	0	245	2	45	1	distractor	0	1067	-1000	100773	13.328	13.101	13.568
ProbeTrack11	4	ProbeTrack	11.1	SCS215a	20100812.121227	20100812.124046	8	0.013328	60	10	60-180	60	178	GapExp	0	246	2	0	0	distractor	1	1040	480	101253	13.328	13.032	13.624
ProbeTrack11	4	ProbeTrack	11.1	SCS215a	20100812.121227	20100812.124053	8	0.013328	60	0	60-180	60	138	GapExp	0	247	2	0	1	target	1	1160	420	101673	13.328	12.953	13.688
ProbeTrack11	4	ProbeTrack	11.1	SCS215a	20100812.121227	20100812.124100	8	0.013328	60	10	60-180	60	66	GapExp	0	248	2	0	0	distractor	1	813	594	102267	13.328	12.863	13.798
ProbeTrack11	4	ProbeTrack	11.1	SCS215a	20100812.121227	20100812.124106	8	0.013328	60	10	60-180	60	112	GapExp	0	249	2	1	0	distractor	1	773	614	102881	13.328	13.103	13.565
ProbeTrack11	4	ProbeTrack	11.1	SCS215a	20100812.121227	20100812.124112	8	0.013328	60	0	60-180	60	84	GapExp	0	250	2	45	0	distractor	1	813	594	103475	13.328	12.923	13.746
ProbeTrack11	4	ProbeTrack	11.1	SCS215a	20100812.121227	20100812.124118	8	0.013328	60	0	60-180	60	131	GapExp	0	251	2	1	1	target	1	1147	427	103902	13.328	13.302	13.357
ProbeTrack11	4	ProbeTrack	11.1	SCS215a	20100812.121227	20100812.124125	8	0.013328	60	0	60-180	60	76	GapExp	0	252	2	3	0	distractor	1	1466	267	104169	13.328	13.308	13.346
ProbeTrack11	4	ProbeTrack	11.1	SCS215a	20100812.121227	20100812.124131	8	0.013328	60	0	60-180	60	101	GapExp	0	253	2	3	0	distractor	1	973	514	104683	13.328	13.305	13.349
ProbeTrack11	4	ProbeTrack	11.1	SCS215a	20100812.121227	20100812.124137	8	0.013328	60	0	60-180	60	123	GapExp	0	254	2	3	0	distractor	1	1000	500	105183	13.328	13.083	13.565
ProbeTrack11	4	ProbeTrack	11.1	SCS215a	20100812.121227	20100812.124144	8	0.013328	60	0	60-180	60	152	GapExp	0	255	2	3	1	target	1	907	547	105730	13.328	12.942	13.553
ProbeTrack11	4	ProbeTrack	11.1	SCS215a	20100812.121227	20100812.124150	8	0.013328	60	10	60-180	60	133	GapExp	0	256	2	3	0	distractor	1	747	627	106357	13.328	12.909	13.747
ProbeTrack11	4	ProbeTrack	11.1	SCS215a	20100812.121227	20100812.124157	8	0.013328	60	10	60-180	60	148	GapExp	0	257	2	0	1	target	1	1027	487	106844	13.328	13.055	13.588
ProbeTrack11	4	ProbeTrack	11.1	SCS215a	20100812.121227	20100812.124205	8	0.013328	60	0	60-180	60	107	GapExp	0	258	2	1	0	distractor	1	920	540	107384	13.328	13.274	13.371
ProbeTrack11	4	ProbeTrack	11.1	SCS215a	20100812.121227	20100812.124211	8	0.013328	60	10	60-180	60	144	GapExp	0	259	2	45	0	distractor	1	987	507	107891	13.328	13.096	13.570
ProbeTrack11	4	ProbeTrack	11.1	SCS215a	20100812.121227	20100812.124218	8	0.013328	60	0	60-180	60	151	GapExp	0	260	2	0	0	distractor	1	840	580	108471	13.328	12.880	13.775
ProbeTrack11	4	ProbeTrack	11.1	SCS215a	20100812.121227	20100812.124225	8	0.013328	60	10	60-180	60	154	GapExp	0	261	2	0	0	target	0	840	-1000	107471	13.328	12.904	13.757
ProbeTrack11	4	ProbeTrack	11.1	SCS215a	20100812.121227	20100812.124232	8	0.013328	60	0	60-180	60	75	GapExp	0	262	2	0	0	distractor	1	1640	180	107651	13.455	13.017	26.884
ProbeTrack11	4	ProbeTrack	11.1	SCS215a	20100812.121227	20100812.124238	8	0.013328	60	0	60-180	60	160	GapExp	0	263	2	45	1	target	1	800	600	108251	13.328	13.010	13.629
ProbeTrack11	4	ProbeTrack	11.1	SCS215a	20100812.121227	20100812.124245	8	0.013328	60	10	60-180	60	163	GapExp	0	264	2	1	0	distractor	1	893	554	108805	13.327	13.008	13.562
ProbeTrack11	4	ProbeTrack	11.1	SCS215a	20100812.121227	20100812.124252	8	0.013328	60	10	60-180	60	90	GapExp	0	265	2	1	0	distractor	1	907	547	109352	13.328	13.101	13.542
ProbeTrack11	4	ProbeTrack	11.1	SCS215a	20100812.121227	20100812.124258	8	0.013328	60	0	60-180	60	96	GapExp	0	266	2	3	1	target	1	947	527	109879	13.328	13.089	13.561
ProbeTrack11	4	ProbeTrack	11.1	SCS215a	20100812.121227	20100812.124304	8	0.013328	60	10	60-180	60	133	GapExp	0	267	2	0	0	distractor	1	853	574	110453	13.328	12.964	13.553
ProbeTrack11	4	ProbeTrack	11.1	SCS215a	20100812.121227	20100812.124311	8	0.013328	60	10	60-180	60	145	GapExp	0	268	2	1	1	target	1	1147	427	110880	13.328	13.286	13.367
ProbeTrack11	4	ProbeTrack	11.1	SCS215a	20100812.121227	20100812.124318	8	0.013328	60	10	60-180	60	118	GapExp	0	269	2	0	0	distractor	1	840	580	111460	13.328	12.993	13.666
ProbeTrack11	4	ProbeTrack	11.1	SCS215a	20100812.121227	20100812.124324	8	0.013328	60	10	60-180	60	124	GapExp	0	270	2	3	1	target	1	947	527	111987	13.328	12.967	13.691
ProbeTrack11	4	ProbeTrack	11.1	SCS215a	20100812.121227	20100812.124337	8	0.013328	60	0	60-180	60	64	GapExp	0	271	2	1	0	distractor	1	947	527	112514	13.328	12.918	13.752
ProbeTrack11	4	ProbeTrack	11.1	SCS215a	20100812.121227	20100812.124407	8	0.013328	60	0	60-180	60	158	GapExp	0	272	2	45	0	distractor	1	587	707	113221	13.328	13.104	13.549
ProbeTrack11	4	ProbeTrack	11.1	SCS215a	20100812.121227	20100812.124414	8	0.013328	60	0	60-180	60	136	GapExp	0	273	2	45	1	target	1	440	780	114001	13.328	13.276	13.376
ProbeTrack11	4	ProbeTrack	11.1	SCS215a	20100812.121227	20100812.124421	8	0.013328	60	0	60-180	60	84	GapExp	0	274	2	3	1	target	1	387	807	114808	13.328	12.897	13.763
ProbeTrack11	4	ProbeTrack	11.1	SCS215a	20100812.121227	20100812.124427	8	0.013328	60	10	60-180	60	68	GapExp	0	275	2	45	1	target	1	334	833	115641	13.328	13.126	13.545
ProbeTrack11	4	ProbeTrack	11.1	SCS215a	20100812.121227	20100812.124432	8	0.013328	60	10	60-180	60	137	GapExp	0	276	2	3	1	target	1	360	820	116461	13.328	13.308	13.349
ProbeTrack11	4	ProbeTrack	11.1	SCS215a	20100812.121227	20100812.124438	8	0.013328	60	0	60-180	60	141	GapExp	0	277	2	0	0	distractor	1	494	753	117214	13.328	12.929	13.736
ProbeTrack11	4	ProbeTrack	11.1	SCS215a	20100812.121227	20100812.124444	8	0.013328	60	10	60-180	60	115	GapExp	0	278	2	45	0	distractor	1	467	767	117981	13.422	12.918	39.706
ProbeTrack11	4	ProbeTrack	11.1	SCS215a	20100812.121227	20100812.124509	8	0.013328	60	10	60-180	60	122	GapExp	0	279	2	45	0	distractor	1	720	640	118621	13.328	12.978	13.679
ProbeTrack11	4	ProbeTrack	11.1	SCS215a	20100812.121227	20100812.124516	8	0.013328	60	0	60-180	60	143	GapExp	0	280	2	45	0	distractor	1	760	620	119241	13.328	13.232	13.415
ProbeTrack11	4	ProbeTrack	11.1	SCS215a	20100812.121227	20100812.124523	8	0.013328	60	10	60-180	60	110	GapExp	0	281	2	3	1	target	1	387	807	120048	13.386	12.867	27.122
ProbeTrack11	4	ProbeTrack	11.1	SCS215a	20100812.121227	20100812.124528	8	0.013328	60	10	60-180	60	118	GapExp	0	282	2	0	0	distractor	1	520	740	120788	13.328	13.308	13.347
ProbeTrack11	4	ProbeTrack	11.1	SCS215a	20100812.121227	20100812.124535	8	0.013328	60	10	60-180	60	94	GapExp	0	283	2	0	0	distractor	1	653	674	121462	13.328	13.004	13.646
ProbeTrack11	4	ProbeTrack	11.1	SCS215a	20100812.121227	20100812.124541	8	0.013328	60	10	60-180	60	64	GapExp	0	284	2	3	1	target	1	653	674	122136	13.328	13.114	13.547
ProbeTrack11	4	ProbeTrack	11.1	SCS215a	20100812.121227	20100812.124558	8	0.013328	60	10	60-180	60	172	GapExp	0	285	2	1	1	target	1	574	713	122849	13.328	12.921	13.744
ProbeTrack11	4	ProbeTrack	11.1	SCS215a	20100812.121227	20100812.124605	8	0.013328	60	10	60-180	60	155	GapExp	0	286	2	3	0	distractor	1	813	594	123443	13.328	12.989	13.684
ProbeTrack11	4	ProbeTrack	11.1	SCS215a	20100812.121227	20100812.124621	8	0.013328	60	0	60-180	60	131	GapExp	0	287	2	1	0	distractor	1	547	727	124170	13.328	12.979	13.666
ProbeTrack11	4	ProbeTrack	11.1	SCS215a	20100812.121227	20100812.124627	8	0.013328	60	0	60-180	60	122	GapExp	0	288	2	3	1	target	1	667	667	124837	13.328	12.881	13.779
ProbeTrack11	4	ProbeTrack	11.1	SCS215a	20100812.121227	20100812.124633	8	0.013328	60	10	60-180	60	144	GapExp	0	289	2	3	1	target	1	374	813	125650	13.328	13.215	13.454
ProbeTrack11	4	ProbeTrack	11.1	SCS215a	20100812.121227	20100812.124639	8	0.013328	60	0	60-180	60	109	GapExp	0	290	2	3	1	target	1	387	807	126457	13.328	13.253	13.395
ProbeTrack11	4	ProbeTrack	11.1	SCS215a	20100812.121227	20100812.124645	8	0.013328	60	0	60-180	60	98	GapExp	0	291	2	1	1	target	1	480	760	127217	13.328	13.092	13.551
ProbeTrack11	4	ProbeTrack	11.1	SCS215a	20100812.121227	20100812.124650	8	0.013328	60	10	60-180	60	95	GapExp	0	292	2	0	1	target	1	587	707	127924	13.328	13.305	13.354
ProbeTrack11	4	ProbeTrack	11.1	SCS215a	20100812.121227	20100812.124659	8	0.013328	60	0	60-180	60	174	GapExp	0	293	2	0	1	target	1	387	807	128731	13.328	12.876	13.790
ProbeTrack11	4	ProbeTrack	11.1	SCS215a	20100812.121227	20100812.124705	8	0.013328	60	0	60-180	60	179	GapExp	0	294	2	45	1	distractor	0	547	-1000	127731	13.328	13.305	13.348
ProbeTrack11	4	ProbeTrack	11.1	SCS215a	20100812.121227	20100812.124712	8	0.013328	60	0	60-180	60	92	GapExp	0	295	2	3	0	distractor	1	720	640	128371	13.328	13.047	13.602
ProbeTrack11	4	ProbeTrack	11.1	SCS215a	20100812.121227	20100812.124718	8	0.013328	60	0	60-180	60	87	GapExp	0	296	2	45	1	target	1	627	687	129058	13.328	13.095	13.561
ProbeTrack11	4	ProbeTrack	11.1	SCS215a	20100812.121227	20100812.124724	8	0.013328	60	0	60-180	60	99	GapExp	0	297	2	3	1	target	1	520	740	129798	13.328	12.923	13.736
ProbeTrack11	4	ProbeTrack	11.1	SCS215a	20100812.121227	20100812.124730	8	0.013328	60	10	60-180	60	100	GapExp	0	298	2	1	0	distractor	1	600	700	130498	13.328	12.858	13.792
ProbeTrack11	4	ProbeTrack	11.1	SCS215a	20100812.121227	20100812.124735	8	0.013328	60	0	60-180	60	105	GapExp	0	299	2	1	0	distractor	1	534	733	131231	13.328	12.947	13.701
ProbeTrack11	4	ProbeTrack	11.1	SCS215a	20100812.121227	20100812.124741	8	0.013328	60	0	60-180	60	75	GapExp	0	300	2	1	0	distractor	1	613	694	131925	13.328	13.013	13.648
ProbeTrack11	4	ProbeTrack	11.1	SCS215a	20100812.121227	20100812.124747	8	0.013328	60	0	60-180	60	159	GapExp	0	301	2	1	1	target	1	494	753	132678	13.328	12.859	13.809
ProbeTrack11	4	ProbeTrack	11.1	SCS215a	20100812.121227	20100812.124753	8	0.013328	60	0	60-180	60	105	GapExp	0	302	2	1	1	target	1	534	733	133411	13.328	13.060	13.605
ProbeTrack11	4	ProbeTrack	11.1	SCS215a	20100812.121227	20100812.124759	8	0.013328	60	0	60-180	60	113	GapExp	0	303	2	0	1	target	1	360	820	134231	13.328	13.084	13.576
ProbeTrack11	4	ProbeTrack	11.1	SCS215a	20100812.121227	20100812.124805	8	0.013328	60	0	60-180	60	117	GapExp	0	304	2	45	1	target	1	347	827	135058	13.328	13.301	13.357
ProbeTrack11	4	ProbeTrack	11.1	SCS215a	20100812.121227	20100812.124811	8	0.013328	60	10	60-180	60	161	GapExp	0	305	2	0	0	distractor	1	694	653	135711	13.328	13.214	13.445
ProbeTrack11	4	ProbeTrack	11.1	SCS215a	20100812.121227	20100812.124818	8	0.013328	60	10	60-180	60	149	GapExp	0	306	2	45	1	distractor	0	600	-1000	134711	13.328	12.848	13.812
ProbeTrack11	4	ProbeTrack	11.1	SCS215a	20100812.121227	20100812.124825	8	0.013328	60	10	60-180	60	73	GapExp	0	307	2	45	1	target	1	427	787	135498	13.328	13.287	13.360
ProbeTrack11	4	ProbeTrack	11.1	SCS215a	20100812.121227	20100812.124832	8	0.013328	60	0	60-180	60	143	GapExp	0	308	2	45	0	distractor	1	614	693	136191	13.328	13.308	13.347
ProbeTrack11	4	ProbeTrack	11.1	SCS215a	20100812.121227	20100812.124839	8	0.013328	60	0	60-180	60	158	GapExp	0	309	2	0	1	target	1	534	733	136924	13.328	13.226	13.418
ProbeTrack11	4	ProbeTrack	11.1	SCS215a	20100812.121227	20100812.124846	8	0.013328	60	0	60-180	60	117	GapExp	0	310	2	3	0	target	0	614	-1000	135924	13.328	13.308	13.348
ProbeTrack11	4	ProbeTrack	11.1	SCS215a	20100812.121227	20100812.124853	8	0.013328	60	0	60-180	60	146	GapExp	0	311	2	1	1	target	1	613	694	136618	13.328	12.998	13.660
ProbeTrack11	4	ProbeTrack	11.1	SCS215a	20100812.121227	20100812.124905	8	0.013328	60	0	60-180	60	178	GapExp	0	312	2	0	1	target	1	454	773	137391	13.328	13.310	13.346
ProbeTrack11	4	ProbeTrack	11.1	SCS215a	20100812.121227	20100812.124912	8	0.013328	60	0	60-180	60	157	GapExp	0	313	2	0	1	target	1	520	740	138131	13.328	12.994	13.664
ProbeTrack11	4	ProbeTrack	11.1	SCS215a	20100812.121227	20100812.124919	8	0.013328	60	0	60-180	60	161	GapExp	0	314	2	1	1	target	1	400	800	138931	13.328	13.307	13.346
ProbeTrack11	4	ProbeTrack	11.1	SCS215a	20100812.121227	20100812.124925	8	0.013328	60	0	60-180	60	135	GapExp	0	315	2	45	1	target	1	454	773	139704	13.328	13.093	13.566
ProbeTrack11	4	ProbeTrack	11.1	SCS215a	20100812.121227	20100812.124931	8	0.013328	60	10	60-180	60	173	GapExp	0	316	2	45	0	distractor	1	920	540	140244	13.328	13.042	13.617
ProbeTrack11	4	ProbeTrack	11.1	SCS215a	20100812.121227	20100812.124939	8	0.013328	60	0	60-180	60	123	GapExp	0	317	2	1	1	target	1	574	713	140957	13.328	13.093	13.571
ProbeTrack11	4	ProbeTrack	11.1	SCS215a	20100812.121227	20100812.124945	8	0.013328	60	0	60-180	60	84	GapExp	0	318	2	45	1	target	1	360	820	141777	13.328	13.105	13.560
ProbeTrack11	4	ProbeTrack	11.1	SCS215a	20100812.121227	20100812.124951	8	0.013328	60	0	60-180	60	110	GapExp	0	319	2	3	1	distractor	0	880	-1000	140777	13.328	13.308	13.350
ProbeTrack11	4	ProbeTrack	11.1	SCS215a	20100812.121227	20100812.124957	8	0.013328	60	10	60-180	60	61	GapExp	0	320	2	1	1	target	1	480	760	141537	13.328	13.305	13.346
ProbeTrack11	4	ProbeTrack	11.1	SCS215a	20100812.121227	20100812.125002	8	0.013328	60	10	60-180	60	115	GapExp	0	321	2	1	1	target	1	414	793	142330	13.328	12.986	13.664
ProbeTrack11	4	ProbeTrack	11.1	SCS215a	20100812.121227	20100812.125008	8	0.013328	60	10	60-180	60	169	GapExp	0	322	2	45	0	distractor	1	574	713	143043	13.328	13.298	13.347
ProbeTrack11	4	ProbeTrack	11.1	SCS215a	20100812.121227	20100812.125015	8	0.013328	60	0	60-180	60	145	GapExp	0	323	2	45	0	distractor	1	640	680	143723	13.328	13.089	13.554
ProbeTrack11	4	ProbeTrack	11.1	SCS215a	20100812.121227	20100812.125022	8	0.013328	60	0	60-180	60	150	GapExp	0	324	2	3	0	distractor	1	587	707	144430	13.328	12.964	13.708
ProbeTrack11	4	ProbeTrack	11.1	SCS215a	20100812.121227	20100812.125029	8	0.013328	60	10	60-180	60	173	GapExp	0	325	2	3	0	distractor	1	600	700	145130	13.328	13.308	13.351
