exp	sub	code	rev	comp	runtime	trialtime	nstim	refreshdur	cuedur	gapdur	gapOnsetRange	durPostProbe	gapOnsetTime	blocktype	prac	trial	ntargets	soa	probeTarget	resp	acc	rt	pts	tpts	meanFrameDur	minFrameDur	maxFrameDur
ProbeTrack11	10	ProbeTrack	11.2	SCS215a	20101013.150250	20101013.150339	8	0.013332	60	0	60-180	60	107	NoGap	1	1	2	1	1	target	1	587	707	707	13.328	13.095	13.561
ProbeTrack11	10	ProbeTrack	11.2	SCS215a	20101013.150250	20101013.150356	8	0.013332	60	0	60-180	60	131	NoGap	1	2	2	45	0	distractor	1	480	760	1467	13.466	13.082	26.660
ProbeTrack11	10	ProbeTrack	11.2	SCS215a	20101013.150250	20101013.150414	8	0.013332	60	0	60-180	60	138	NoGap	1	3	2	1	0	distractor	1	587	707	2174	13.328	13.097	13.546
ProbeTrack11	10	ProbeTrack	11.2	SCS215a	20101013.150250	20101013.150421	8	0.013332	60	0	60-180	60	100	NoGap	1	4	2	3	0	distractor	1	427	787	2961	13.328	13.076	13.644
ProbeTrack11	10	ProbeTrack	11.2	SCS215a	20101013.150250	20101013.150428	8	0.013332	60	0	60-180	60	84	NoGap	1	5	2	1	0	distractor	1	640	680	3641	13.328	13.173	13.476
ProbeTrack11	10	ProbeTrack	11.2	SCS215a	20101013.150250	20101013.150434	8	0.013332	60	0	60-180	60	63	NoGap	1	6	2	0	0	distractor	1	374	813	4454	13.328	13.295	13.347
ProbeTrack11	10	ProbeTrack	11.2	SCS215a	20101013.150250	20101013.150440	8	0.013332	60	0	60-180	60	92	NoGap	1	7	2	0	1	target	1	600	700	5154	13.328	13.310	13.345
ProbeTrack11	10	ProbeTrack	11.2	SCS215a	20101013.150250	20101013.150447	8	0.013332	60	0	60-180	60	63	NoGap	1	8	2	45	0	distractor	1	520	740	5894	13.328	13.308	13.348
ProbeTrack11	10	ProbeTrack	11.2	SCS215a	20101013.150250	20101013.150454	8	0.013332	60	0	60-180	60	130	NoGap	1	9	2	1	0	distractor	1	400	800	6694	13.328	13.309	13.357
ProbeTrack11	10	ProbeTrack	11.2	SCS215a	20101013.150250	20101013.150500	8	0.013332	60	0	60-180	60	95	NoGap	1	10	2	0	1	distractor	0	467	-1000	5694	13.328	12.933	13.742
ProbeTrack11	10	ProbeTrack	11.2	SCS215a	20101013.150250	20101013.150506	8	0.013332	60	0	60-180	60	123	NoGap	1	11	2	0	0	distractor	1	694	653	6347	13.328	12.845	13.801
ProbeTrack11	10	ProbeTrack	11.2	SCS215a	20101013.150250	20101013.150514	8	0.013332	60	0	60-180	60	176	NoGap	1	12	2	0	1	target	1	400	800	7147	13.328	13.307	13.348
ProbeTrack11	10	ProbeTrack	11.2	SCS215a	20101013.150250	20101013.150521	8	0.013332	60	0	60-180	60	91	NoGap	1	13	2	0	0	distractor	1	560	720	7867	13.328	13.308	13.347
ProbeTrack11	10	ProbeTrack	11.2	SCS215a	20101013.150250	20101013.150527	8	0.013332	60	0	60-180	60	74	NoGap	1	14	2	3	1	distractor	0	374	-1000	6867	13.328	12.836	13.821
ProbeTrack11	10	ProbeTrack	11.2	SCS215a	20101013.150250	20101013.150533	8	0.013332	60	0	60-180	60	69	NoGap	1	15	2	3	0	distractor	1	627	687	7554	13.328	12.894	13.764
ProbeTrack11	10	ProbeTrack	11.2	SCS215a	20101013.150250	20101013.150539	8	0.013332	60	0	60-180	60	67	NoGap	1	16	2	1	1	target	1	387	807	8361	13.328	13.310	13.347
ProbeTrack11	10	ProbeTrack	11.2	SCS215a	20101013.150250	20101013.150544	8	0.013332	60	0	60-180	60	156	NoGap	1	17	2	45	0	distractor	1	494	753	9114	13.328	13.110	13.550
ProbeTrack11	10	ProbeTrack	11.2	SCS215a	20101013.150250	20101013.150552	8	0.013332	60	0	60-180	60	177	NoGap	1	18	2	45	0	distractor	1	467	767	9881	13.328	13.088	13.558
ProbeTrack11	10	ProbeTrack	11.2	SCS215a	20101013.150250	20101013.150559	8	0.013332	60	0	60-180	60	98	NoGap	1	19	2	45	1	target	1	414	793	10674	13.328	13.308	13.346
ProbeTrack11	10	ProbeTrack	11.2	SCS215a	20101013.150250	20101013.150605	8	0.013332	60	0	60-180	60	74	NoGap	1	20	2	45	1	target	1	454	773	11447	13.328	13.302	13.361
ProbeTrack11	10	ProbeTrack	11.2	SCS215a	20101013.150250	20101013.150611	8	0.013332	60	0	60-180	60	118	NoGap	1	21	2	3	1	distractor	0	467	-1000	10447	13.328	13.297	13.348
ProbeTrack11	10	ProbeTrack	11.2	SCS215a	20101013.150250	20101013.150618	8	0.013332	60	0	60-180	60	118	NoGap	1	22	2	0	0	distractor	1	693	654	11101	13.328	13.307	13.349
ProbeTrack11	10	ProbeTrack	11.2	SCS215a	20101013.150250	20101013.150624	8	0.013332	60	0	60-180	60	167	NoGap	1	23	2	3	0	distractor	1	507	747	11848	13.328	13.306	13.348
ProbeTrack11	10	ProbeTrack	11.2	SCS215a	20101013.150250	20101013.150631	8	0.013332	60	0	60-180	60	128	NoGap	1	24	2	1	0	distractor	1	494	753	12601	13.383	12.897	26.673
ProbeTrack11	10	ProbeTrack	11.2	SCS215a	20101013.150250	20101013.150637	8	0.013332	60	0	60-180	60	164	NoGap	1	25	2	1	1	target	1	587	707	13308	13.328	13.097	13.550
ProbeTrack11	10	ProbeTrack	11.2	SCS215a	20101013.150250	20101013.150644	8	0.013332	60	0	60-180	60	173	NoGap	1	26	2	1	1	target	1	547	727	14035	13.328	13.116	13.550
ProbeTrack11	10	ProbeTrack	11.2	SCS215a	20101013.150250	20101013.150651	8	0.013332	60	0	60-180	60	179	NoGap	1	27	2	45	1	target	1	534	733	14768	13.328	13.299	13.355
ProbeTrack11	10	ProbeTrack	11.2	SCS215a	20101013.150250	20101013.150658	8	0.013332	60	0	60-180	60	125	NoGap	1	28	2	45	0	distractor	1	534	733	15501	13.328	13.108	13.557
ProbeTrack11	10	ProbeTrack	11.2	SCS215a	20101013.150250	20101013.150705	8	0.013332	60	0	60-180	60	162	NoGap	1	29	2	45	1	target	1	534	733	16234	13.328	13.110	13.550
ProbeTrack11	10	ProbeTrack	11.2	SCS215a	20101013.150250	20101013.150712	8	0.013332	60	0	60-180	60	75	NoGap	1	30	2	0	1	target	1	494	753	16987	13.328	13.086	13.565
ProbeTrack11	10	ProbeTrack	11.2	SCS215a	20101013.150250	20101013.150718	8	0.013332	60	0	60-180	60	118	NoGap	1	31	2	1	1	target	1	520	740	17727	13.328	13.084	13.570
ProbeTrack11	10	ProbeTrack	11.2	SCS215a	20101013.150250	20101013.150724	8	0.013332	60	0	60-180	60	74	NoGap	1	32	2	3	0	distractor	1	560	720	18447	13.328	13.306	13.347
ProbeTrack11	10	ProbeTrack	11.2	SCS215a	20101013.150250	20101013.150730	8	0.013332	60	0	60-180	60	79	NoGap	1	33	2	0	0	distractor	1	587	707	19154	13.328	13.306	13.347
ProbeTrack11	10	ProbeTrack	11.2	SCS215a	20101013.150250	20101013.150735	8	0.013332	60	0	60-180	60	135	NoGap	1	34	2	3	1	target	1	480	760	19914	13.328	12.874	13.808
ProbeTrack11	10	ProbeTrack	11.2	SCS215a	20101013.150250	20101013.150742	8	0.013332	60	0	60-180	60	134	NoGap	1	35	2	1	0	distractor	1	587	707	20621	13.955	12.930	27.058
ProbeTrack11	10	ProbeTrack	11.2	SCS215a	20101013.150250	20101013.150749	8	0.013332	60	0	60-180	60	84	NoGap	1	36	2	45	1	target	1	400	800	21421	13.328	12.867	13.789
ProbeTrack11	10	ProbeTrack	11.2	SCS215a	20101013.150250	20101013.150755	8	0.013332	60	0	60-180	60	105	NoGap	1	37	2	3	0	distractor	1	480	760	22181	13.328	13.293	13.381
ProbeTrack11	10	ProbeTrack	11.2	SCS215a	20101013.150250	20101013.150801	8	0.013332	60	0	60-180	60	147	NoGap	1	38	2	3	1	target	1	560	720	22901	13.328	13.115	13.556
ProbeTrack11	10	ProbeTrack	11.2	SCS215a	20101013.150250	20101013.150808	8	0.013332	60	0	60-180	60	155	NoGap	1	39	2	0	1	target	1	467	767	23668	13.328	13.305	13.349
ProbeTrack11	10	ProbeTrack	11.2	SCS215a	20101013.150250	20101013.150815	8	0.013332	60	0	60-180	60	86	NoGap	1	40	2	3	1	target	1	547	727	24395	13.328	13.096	13.563
ProbeTrack11	10	ProbeTrack	11.2	SCS215a	20101013.150851	20101013.150907	8	0.013328	60	0	60-180	60	66	GapPrac	1	1	2	3	1	target	1	680	660	25055	13.328	13.304	13.344
ProbeTrack11	10	ProbeTrack	11.2	SCS215a	20101013.150851	20101013.150914	8	0.013328	60	10	60-180	60	99	GapPrac	1	2	2	3	0	target	0	600	-1000	24055	13.328	13.308	13.351
ProbeTrack11	10	ProbeTrack	11.2	SCS215a	20101013.150851	20101013.150920	8	0.013328	60	0	60-180	60	101	GapPrac	1	3	2	45	0	distractor	1	720	640	24695	13.328	13.308	13.347
ProbeTrack11	10	ProbeTrack	11.2	SCS215a	20101013.150851	20101013.150935	8	0.013328	60	0	60-180	60	108	GapPrac	1	4	2	1	0	distractor	1	614	693	25388	13.328	13.221	13.436
ProbeTrack11	10	ProbeTrack	11.2	SCS215a	20101013.150851	20101013.150941	8	0.013328	60	10	60-180	60	137	GapPrac	1	5	2	1	0	target	0	787	-1000	24388	13.328	13.307	13.346
ProbeTrack11	10	ProbeTrack	11.2	SCS215a	20101013.150851	20101013.150948	8	0.013328	60	10	60-180	60	127	GapPrac	1	6	2	3	1	distractor	0	640	-1000	23388	13.328	13.022	13.637
ProbeTrack11	10	ProbeTrack	11.2	SCS215a	20101013.150851	20101013.150955	8	0.013328	60	0	60-180	60	153	GapPrac	1	7	2	0	1	target	1	680	660	24048	13.328	13.138	13.529
ProbeTrack11	10	ProbeTrack	11.2	SCS215a	20101013.150851	20101013.151002	8	0.013328	60	10	60-180	60	132	GapPrac	1	8	2	3	0	distractor	1	720	640	24688	13.328	13.309	13.355
ProbeTrack11	10	ProbeTrack	11.2	SCS215a	20101013.150851	20101013.151009	8	0.013328	60	10	60-180	60	94	GapPrac	1	9	2	1	1	target	1	813	594	25282	13.328	13.309	13.344
ProbeTrack11	10	ProbeTrack	11.2	SCS215a	20101013.150851	20101013.151015	8	0.013328	60	0	60-180	60	81	GapPrac	1	10	2	45	1	target	1	587	707	25989	13.328	12.989	13.668
ProbeTrack11	10	ProbeTrack	11.2	SCS215a	20101013.150851	20101013.151022	8	0.013328	60	0	60-180	60	146	GapPrac	1	11	2	1	1	target	1	733	634	26623	13.328	13.303	13.357
ProbeTrack11	10	ProbeTrack	11.2	SCS215a	20101013.150851	20101013.151028	8	0.013328	60	10	60-180	60	157	GapPrac	1	12	2	0	1	target	1	520	740	27363	13.328	13.093	13.560
ProbeTrack11	10	ProbeTrack	11.2	SCS215a	20101013.150851	20101013.151035	8	0.013328	60	10	60-180	60	109	GapPrac	1	13	2	0	0	target	0	600	-1000	26363	13.328	13.117	13.550
ProbeTrack11	10	ProbeTrack	11.2	SCS215a	20101013.150851	20101013.151041	8	0.013328	60	0	60-180	60	145	GapPrac	1	14	2	1	0	distractor	1	773	614	26977	13.328	13.293	13.349
ProbeTrack11	10	ProbeTrack	11.2	SCS215a	20101013.150851	20101013.151047	8	0.013328	60	0	60-180	60	114	GapPrac	1	15	2	45	0	distractor	1	760	620	27597	13.328	13.098	13.541
ProbeTrack11	10	ProbeTrack	11.2	SCS215a	20101013.150851	20101013.151054	8	0.013328	60	10	60-180	60	142	GapPrac	1	16	2	45	0	distractor	1	693	654	28251	13.328	12.843	13.808
ProbeTrack11	10	ProbeTrack	11.2	SCS215a	20101013.150851	20101013.151102	8	0.013328	60	0	60-180	60	179	GapPrac	1	17	2	3	0	distractor	1	614	693	28944	13.328	13.107	13.554
ProbeTrack11	10	ProbeTrack	11.2	SCS215a	20101013.150851	20101013.151109	8	0.013328	60	0	60-180	60	160	GapPrac	1	18	2	3	1	target	1	640	680	29624	13.328	13.100	13.550
ProbeTrack11	10	ProbeTrack	11.2	SCS215a	20101013.150851	20101013.151116	8	0.013328	60	0	60-180	60	147	GapPrac	1	19	2	0	0	distractor	1	694	653	30277	13.328	13.112	13.542
ProbeTrack11	10	ProbeTrack	11.2	SCS215a	20101013.150851	20101013.151122	8	0.013328	60	10	60-180	60	142	GapPrac	1	20	2	45	1	target	1	454	773	31050	13.328	12.913	13.743
ProbeTrack11	10	ProbeTrack	11.2	SCS215a	20101013.151152	20101013.151250	8	0.013328	60	0	60-180	60	81	GapExp	1	1	2	3	0	distractor	1	520	740	31790	13.328	13.031	13.617
ProbeTrack11	10	ProbeTrack	11.2	SCS215a	20101013.151152	20101013.151257	8	0.013328	60	0	60-180	60	134	GapExp	1	2	2	0	0	target	0	640	-1000	30790	13.328	12.441	13.953
ProbeTrack11	10	ProbeTrack	11.2	SCS215a	20101013.151152	20101013.151304	8	0.013328	60	0	60-180	60	160	GapExp	0	3	2	45	0	distractor	1	494	753	31543	13.328	12.999	13.659
ProbeTrack11	10	ProbeTrack	11.2	SCS215a	20101013.151152	20101013.151311	8	0.013328	60	0	60-180	60	81	GapExp	0	4	2	3	1	target	1	587	707	32250	13.328	13.255	13.391
ProbeTrack11	10	ProbeTrack	11.2	SCS215a	20101013.151152	20101013.151317	8	0.013328	60	10	60-180	60	80	GapExp	0	5	2	45	0	distractor	1	587	707	32957	13.328	13.156	13.493
ProbeTrack11	10	ProbeTrack	11.2	SCS215a	20101013.151152	20101013.151323	8	0.013328	60	10	60-180	60	166	GapExp	0	6	2	3	1	target	1	613	694	33651	13.328	13.102	13.567
ProbeTrack11	10	ProbeTrack	11.2	SCS215a	20101013.151152	20101013.151330	8	0.013328	60	10	60-180	60	62	GapExp	0	7	2	3	1	target	1	480	760	34411	13.328	12.991	13.669
ProbeTrack11	10	ProbeTrack	11.2	SCS215a	20101013.151152	20101013.151335	8	0.013328	60	10	60-180	60	108	GapExp	0	8	2	0	1	target	1	494	753	35164	13.328	13.100	13.576
ProbeTrack11	10	ProbeTrack	11.2	SCS215a	20101013.151152	20101013.151341	8	0.013328	60	10	60-180	60	76	GapExp	0	9	2	0	0	distractor	1	560	720	35884	13.328	13.305	13.349
ProbeTrack11	10	ProbeTrack	11.2	SCS215a	20101013.151152	20101013.151346	8	0.013328	60	0	60-180	60	140	GapExp	0	10	2	3	1	target	1	494	753	36637	13.328	13.206	13.431
ProbeTrack11	10	ProbeTrack	11.2	SCS215a	20101013.151152	20101013.151354	8	0.013328	60	0	60-180	60	100	GapExp	0	11	2	1	0	distractor	1	467	767	37404	13.328	13.154	13.493
ProbeTrack11	10	ProbeTrack	11.2	SCS215a	20101013.151152	20101013.151400	8	0.013328	60	10	60-180	60	146	GapExp	0	12	2	0	1	target	1	374	813	38217	13.328	12.964	13.686
ProbeTrack11	10	ProbeTrack	11.2	SCS215a	20101013.151152	20101013.151407	8	0.013328	60	10	60-180	60	119	GapExp	0	13	2	3	1	target	1	414	793	39010	14.276	12.970	120.310
ProbeTrack11	10	ProbeTrack	11.2	SCS215a	20101013.151152	20101013.151413	8	0.013328	60	10	60-180	60	151	GapExp	0	14	2	3	0	distractor	1	480	760	39770	13.328	12.990	13.662
ProbeTrack11	10	ProbeTrack	11.2	SCS215a	20101013.151152	20101013.151420	8	0.013328	60	0	60-180	60	145	GapExp	0	15	2	1	1	target	1	480	760	40530	13.328	13.138	13.518
ProbeTrack11	10	ProbeTrack	11.2	SCS215a	20101013.151152	20101013.151426	8	0.013328	60	0	60-180	60	111	GapExp	0	16	2	3	0	distractor	1	560	720	41250	13.328	13.102	13.559
ProbeTrack11	10	ProbeTrack	11.2	SCS215a	20101013.151152	20101013.151432	8	0.013328	60	10	60-180	60	156	GapExp	0	17	2	45	0	distractor	1	587	707	41957	13.328	12.995	13.606
ProbeTrack11	10	ProbeTrack	11.2	SCS215a	20101013.151152	20101013.151439	8	0.013328	60	10	60-180	60	148	GapExp	0	18	2	45	1	target	1	534	733	42690	13.328	12.856	13.806
ProbeTrack11	10	ProbeTrack	11.2	SCS215a	20101013.151152	20101013.151446	8	0.013328	60	10	60-180	60	90	GapExp	0	19	2	45	0	target	0	467	-1000	41690	13.328	13.106	13.553
ProbeTrack11	10	ProbeTrack	11.2	SCS215a	20101013.151152	20101013.151453	8	0.013328	60	0	60-180	60	85	GapExp	0	20	2	0	1	target	1	520	740	42430	13.328	13.088	13.559
ProbeTrack11	10	ProbeTrack	11.2	SCS215a	20101013.151152	20101013.151458	8	0.013328	60	0	60-180	60	160	GapExp	0	21	2	3	0	distractor	1	653	674	43104	13.328	12.859	13.788
ProbeTrack11	10	ProbeTrack	11.2	SCS215a	20101013.151152	20101013.151505	8	0.013328	60	10	60-180	60	157	GapExp	0	22	2	45	0	distractor	1	494	753	43857	13.328	12.886	13.774
ProbeTrack11	10	ProbeTrack	11.2	SCS215a	20101013.151152	20101013.151512	8	0.013328	60	10	60-180	60	72	GapExp	0	23	2	1	1	target	1	440	780	44637	13.328	12.909	13.610
ProbeTrack11	10	ProbeTrack	11.2	SCS215a	20101013.151152	20101013.151517	8	0.013328	60	10	60-180	60	132	GapExp	0	24	2	3	0	distractor	1	547	727	45364	13.328	12.887	13.753
ProbeTrack11	10	ProbeTrack	11.2	SCS215a	20101013.151152	20101013.151524	8	0.013328	60	10	60-180	60	153	GapExp	0	25	2	45	1	target	1	307	847	46211	13.328	12.900	13.659
ProbeTrack11	10	ProbeTrack	11.2	SCS215a	20101013.151152	20101013.151531	8	0.013328	60	10	60-180	60	104	GapExp	0	26	2	0	0	target	0	653	-1000	45211	13.328	13.270	13.382
ProbeTrack11	10	ProbeTrack	11.2	SCS215a	20101013.151152	20101013.151537	8	0.013328	60	10	60-180	60	99	GapExp	0	27	2	45	0	distractor	1	454	773	45984	13.328	13.098	13.558
ProbeTrack11	10	ProbeTrack	11.2	SCS215a	20101013.151152	20101013.151543	8	0.013328	60	10	60-180	60	176	GapExp	0	28	2	3	1	target	1	693	654	46638	13.328	13.304	13.347
ProbeTrack11	10	ProbeTrack	11.2	SCS215a	20101013.151152	20101013.151550	8	0.013328	60	0	60-180	60	111	GapExp	0	29	2	0	1	target	1	507	747	47385	13.328	12.943	13.728
ProbeTrack11	10	ProbeTrack	11.2	SCS215a	20101013.151152	20101013.151555	8	0.013328	60	10	60-180	60	155	GapExp	0	30	2	45	1	target	1	480	760	48145	13.328	13.055	13.609
ProbeTrack11	10	ProbeTrack	11.2	SCS215a	20101013.151152	20101013.151603	8	0.013328	60	10	60-180	60	127	GapExp	0	31	2	0	1	target	1	387	807	48952	13.328	12.891	13.773
ProbeTrack11	10	ProbeTrack	11.2	SCS215a	20101013.151152	20101013.151610	8	0.013328	60	10	60-180	60	114	GapExp	0	32	2	45	1	target	1	307	847	49799	13.328	13.114	13.545
ProbeTrack11	10	ProbeTrack	11.2	SCS215a	20101013.151152	20101013.151616	8	0.013328	60	0	60-180	60	149	GapExp	0	33	2	0	0	distractor	1	587	707	50506	13.328	12.893	13.762
ProbeTrack11	10	ProbeTrack	11.2	SCS215a	20101013.151152	20101013.151623	8	0.013328	60	10	60-180	60	139	GapExp	0	34	2	1	0	distractor	1	560	720	51226	13.328	12.862	13.795
ProbeTrack11	10	ProbeTrack	11.2	SCS215a	20101013.151152	20101013.151629	8	0.013328	60	10	60-180	60	166	GapExp	0	35	2	45	1	distractor	0	374	-1000	50226	13.328	13.097	13.558
ProbeTrack11	10	ProbeTrack	11.2	SCS215a	20101013.151152	20101013.151636	8	0.013328	60	10	60-180	60	80	GapExp	0	36	2	3	0	target	0	454	-1000	49226	13.328	13.304	13.354
ProbeTrack11	10	ProbeTrack	11.2	SCS215a	20101013.151152	20101013.151642	8	0.013328	60	0	60-180	60	148	GapExp	0	37	2	3	1	target	1	494	753	49979	13.328	13.309	13.347
ProbeTrack11	10	ProbeTrack	11.2	SCS215a	20101013.151152	20101013.151648	8	0.013328	60	10	60-180	60	155	GapExp	0	38	2	1	0	distractor	1	720	640	50619	13.328	13.308	13.347
ProbeTrack11	10	ProbeTrack	11.2	SCS215a	20101013.151152	20101013.151655	8	0.013328	60	0	60-180	60	174	GapExp	0	39	2	3	0	distractor	1	560	720	51339	13.328	12.901	13.758
ProbeTrack11	10	ProbeTrack	11.2	SCS215a	20101013.151152	20101013.151703	8	0.013328	60	0	60-180	60	124	GapExp	0	40	2	45	0	target	0	507	-1000	50339	13.328	13.309	13.347
ProbeTrack11	10	ProbeTrack	11.2	SCS215a	20101013.151152	20101013.151710	8	0.013328	60	0	60-180	60	97	GapExp	0	41	2	3	1	target	1	547	727	51066	13.328	13.303	13.351
ProbeTrack11	10	ProbeTrack	11.2	SCS215a	20101013.151152	20101013.151715	8	0.013328	60	10	60-180	60	178	GapExp	0	42	2	0	0	distractor	1	560	720	51786	13.328	13.301	13.349
ProbeTrack11	10	ProbeTrack	11.2	SCS215a	20101013.151152	20101013.151722	8	0.013328	60	0	60-180	60	117	GapExp	0	43	2	1	0	distractor	1	813	594	52380	13.328	12.883	13.773
ProbeTrack11	10	ProbeTrack	11.2	SCS215a	20101013.151152	20101013.151729	8	0.013328	60	0	60-180	60	148	GapExp	0	44	2	1	0	distractor	1	587	707	53087	13.328	13.310	13.347
ProbeTrack11	10	ProbeTrack	11.2	SCS215a	20101013.151152	20101013.151735	8	0.013328	60	10	60-180	60	142	GapExp	0	45	2	45	0	distractor	1	587	707	53794	13.328	12.897	13.777
ProbeTrack11	10	ProbeTrack	11.2	SCS215a	20101013.151152	20101013.151742	8	0.013328	60	0	60-180	60	67	GapExp	0	46	2	3	1	target	1	547	727	54521	13.328	13.086	13.571
ProbeTrack11	10	ProbeTrack	11.2	SCS215a	20101013.151152	20101013.151748	8	0.013328	60	0	60-180	60	87	GapExp	0	47	2	3	0	distractor	1	480	760	55281	13.328	12.998	13.652
ProbeTrack11	10	ProbeTrack	11.2	SCS215a	20101013.151152	20101013.151754	8	0.013328	60	10	60-180	60	130	GapExp	0	48	2	45	0	distractor	1	374	813	56094	13.328	12.920	13.724
ProbeTrack11	10	ProbeTrack	11.2	SCS215a	20101013.151152	20101013.151800	8	0.013328	60	0	60-180	60	151	GapExp	0	49	2	45	0	distractor	1	454	773	56867	13.328	13.086	13.555
ProbeTrack11	10	ProbeTrack	11.2	SCS215a	20101013.151152	20101013.151808	8	0.013328	60	10	60-180	60	85	GapExp	0	50	2	1	1	distractor	0	467	-1000	55867	13.328	13.047	13.613
ProbeTrack11	10	ProbeTrack	11.2	SCS215a	20101013.151152	20101013.151813	8	0.013328	60	10	60-180	60	78	GapExp	0	51	2	45	1	distractor	0	467	-1000	54867	13.328	12.930	13.727
ProbeTrack11	10	ProbeTrack	11.2	SCS215a	20101013.151152	20101013.151820	8	0.013328	60	0	60-180	60	158	GapExp	0	52	2	1	0	distractor	1	600	700	55567	13.328	13.099	13.569
ProbeTrack11	10	ProbeTrack	11.2	SCS215a	20101013.151152	20101013.151826	8	0.013328	60	0	60-180	60	85	GapExp	0	53	2	45	1	target	1	560	720	56287	13.328	12.997	13.654
ProbeTrack11	10	ProbeTrack	11.2	SCS215a	20101013.151152	20101013.151832	8	0.013328	60	0	60-180	60	116	GapExp	0	54	2	3	0	distractor	1	494	753	57040	13.328	13.307	13.348
ProbeTrack11	10	ProbeTrack	11.2	SCS215a	20101013.151152	20101013.151838	8	0.013328	60	10	60-180	60	164	GapExp	0	55	2	45	1	target	1	467	767	57807	13.328	13.002	13.642
ProbeTrack11	10	ProbeTrack	11.2	SCS215a	20101013.151152	20101013.151845	8	0.013328	60	10	60-180	60	150	GapExp	0	56	2	1	0	distractor	1	800	600	58407	13.328	12.912	13.737
ProbeTrack11	10	ProbeTrack	11.2	SCS215a	20101013.151152	20101013.151852	8	0.013328	60	0	60-180	60	67	GapExp	0	57	2	45	1	target	1	480	760	59167	13.328	13.093	13.559
ProbeTrack11	10	ProbeTrack	11.2	SCS215a	20101013.151152	20101013.151858	8	0.013328	60	0	60-180	60	153	GapExp	0	58	2	0	0	distractor	1	574	713	59880	13.328	12.857	13.816
ProbeTrack11	10	ProbeTrack	11.2	SCS215a	20101013.151152	20101013.151905	8	0.013328	60	0	60-180	60	144	GapExp	0	59	2	3	0	distractor	1	667	667	60547	13.328	13.092	13.572
ProbeTrack11	10	ProbeTrack	11.2	SCS215a	20101013.151152	20101013.151912	8	0.013328	60	0	60-180	60	71	GapExp	0	60	2	0	0	distractor	1	534	733	61280	13.328	13.106	13.549
ProbeTrack11	10	ProbeTrack	11.2	SCS215a	20101013.151152	20101013.151918	8	0.013328	60	10	60-180	60	81	GapExp	0	61	2	0	1	distractor	0	480	-1000	60280	13.329	13.008	13.657
ProbeTrack11	10	ProbeTrack	11.2	SCS215a	20101013.151152	20101013.151923	8	0.013328	60	10	60-180	60	162	GapExp	0	62	2	1	0	distractor	1	773	614	60894	13.328	13.301	13.346
ProbeTrack11	10	ProbeTrack	11.2	SCS215a	20101013.151152	20101013.151930	8	0.013328	60	10	60-180	60	142	GapExp	0	63	2	1	1	target	1	334	833	61727	13.328	13.166	13.486
ProbeTrack11	10	ProbeTrack	11.2	SCS215a	20101013.151152	20101013.151936	8	0.013328	60	10	60-180	60	66	GapExp	0	64	2	3	1	target	1	360	820	62547	13.328	13.305	13.350
ProbeTrack11	10	ProbeTrack	11.2	SCS215a	20101013.151152	20101013.151941	8	0.013328	60	0	60-180	60	101	GapExp	0	65	2	1	0	distractor	1	440	780	63327	13.328	13.086	13.555
ProbeTrack11	10	ProbeTrack	11.2	SCS215a	20101013.151152	20101013.151947	8	0.013328	60	0	60-180	60	150	GapExp	0	66	2	0	0	distractor	1	454	773	64100	13.328	13.108	13.690
ProbeTrack11	10	ProbeTrack	11.2	SCS215a	20101013.151152	20101013.151953	8	0.013328	60	0	60-180	60	113	GapExp	0	67	2	1	0	distractor	1	520	740	64840	13.328	13.069	13.801
ProbeTrack11	10	ProbeTrack	11.2	SCS215a	20101013.151152	20101013.151959	8	0.013328	60	0	60-180	60	99	GapExp	0	68	2	45	0	distractor	1	680	660	65500	13.328	13.067	13.600
ProbeTrack11	10	ProbeTrack	11.2	SCS215a	20101013.151152	20101013.152005	8	0.013328	60	0	60-180	60	74	GapExp	0	69	2	45	1	target	1	480	760	66260	13.328	13.308	13.348
ProbeTrack11	10	ProbeTrack	11.2	SCS215a	20101013.151152	20101013.152011	8	0.013328	60	10	60-180	60	176	GapExp	0	70	2	3	1	target	1	454	773	67033	13.328	13.310	13.347
ProbeTrack11	10	ProbeTrack	11.2	SCS215a	20101013.151152	20101013.152018	8	0.013328	60	10	60-180	60	68	GapExp	0	71	2	0	1	distractor	0	414	-1000	66033	13.328	13.255	13.408
ProbeTrack11	10	ProbeTrack	11.2	SCS215a	20101013.151152	20101013.152023	8	0.013328	60	10	60-180	60	87	GapExp	0	72	2	1	0	target	0	414	-1000	65033	13.328	13.048	13.614
ProbeTrack11	10	ProbeTrack	11.2	SCS215a	20101013.151152	20101013.152028	8	0.013328	60	0	60-180	60	135	GapExp	0	73	2	1	0	distractor	1	467	767	65800	13.328	13.114	13.554
ProbeTrack11	10	ProbeTrack	11.2	SCS215a	20101013.151152	20101013.152034	8	0.013328	60	10	60-180	60	86	GapExp	0	74	2	1	1	target	1	387	807	66607	13.328	12.985	13.664
ProbeTrack11	10	ProbeTrack	11.2	SCS215a	20101013.151152	20101013.152040	8	0.013328	60	10	60-180	60	175	GapExp	0	75	2	45	0	distractor	1	440	780	67387	13.328	13.291	13.367
ProbeTrack11	10	ProbeTrack	11.2	SCS215a	20101013.151152	20101013.152047	8	0.013328	60	0	60-180	60	164	GapExp	0	76	2	3	1	target	1	534	733	68120	13.328	13.261	13.385
ProbeTrack11	10	ProbeTrack	11.2	SCS215a	20101013.151152	20101013.152054	8	0.013328	60	0	60-180	60	144	GapExp	0	77	2	0	0	distractor	1	547	727	68847	13.328	13.308	13.348
ProbeTrack11	10	ProbeTrack	11.2	SCS215a	20101013.151152	20101013.152101	8	0.013328	60	0	60-180	60	167	GapExp	0	78	2	3	0	distractor	1	560	720	69567	13.328	13.183	13.456
ProbeTrack11	10	ProbeTrack	11.2	SCS215a	20101013.151152	20101013.152108	8	0.013328	60	0	60-180	60	125	GapExp	0	79	2	0	1	target	1	600	700	70267	13.328	13.307	13.351
ProbeTrack11	10	ProbeTrack	11.2	SCS215a	20101013.151152	20101013.152114	8	0.013328	60	0	60-180	60	133	GapExp	0	80	2	1	0	distractor	1	694	653	70920	13.328	13.203	13.455
ProbeTrack11	10	ProbeTrack	11.2	SCS215a	20101013.151152	20101013.152120	8	0.013328	60	10	60-180	60	92	GapExp	0	81	2	45	1	target	1	360	820	71740	13.328	13.224	13.435
ProbeTrack11	10	ProbeTrack	11.2	SCS215a	20101013.151152	20101013.152126	8	0.013328	60	10	60-180	60	82	GapExp	0	82	2	1	0	distractor	1	627	687	72427	13.451	12.856	26.706
ProbeTrack11	10	ProbeTrack	11.2	SCS215a	20101013.151152	20101013.152132	8	0.013328	60	0	60-180	60	101	GapExp	0	83	2	3	0	distractor	1	587	707	73134	13.328	13.113	13.562
ProbeTrack11	10	ProbeTrack	11.2	SCS215a	20101013.151152	20101013.152137	8	0.013328	60	0	60-180	60	130	GapExp	0	84	2	1	1	target	1	547	727	73861	13.328	12.861	13.795
ProbeTrack11	10	ProbeTrack	11.2	SCS215a	20101013.151152	20101013.152143	8	0.013328	60	0	60-180	60	153	GapExp	0	85	2	3	0	distractor	1	494	753	74614	13.328	12.909	13.750
ProbeTrack11	10	ProbeTrack	11.2	SCS215a	20101013.151152	20101013.152150	8	0.013328	60	0	60-180	60	150	GapExp	0	86	2	45	0	target	0	534	-1000	73614	13.329	12.855	13.785
ProbeTrack11	10	ProbeTrack	11.2	SCS215a	20101013.151152	20101013.152157	8	0.013328	60	0	60-180	60	148	GapExp	0	87	2	1	1	target	1	587	707	74321	13.328	12.997	13.663
ProbeTrack11	10	ProbeTrack	11.2	SCS215a	20101013.151152	20101013.152203	8	0.013328	60	10	60-180	60	106	GapExp	0	88	2	3	0	distractor	1	534	733	75054	13.328	13.305	13.352
ProbeTrack11	10	ProbeTrack	11.2	SCS215a	20101013.151152	20101013.152209	8	0.013328	60	10	60-180	60	105	GapExp	0	89	2	3	1	target	1	440	780	75834	13.328	13.307	13.348
ProbeTrack11	10	ProbeTrack	11.2	SCS215a	20101013.151152	20101013.152215	8	0.013328	60	0	60-180	60	108	GapExp	0	90	2	45	0	distractor	1	534	733	76567	13.328	13.101	13.549
ProbeTrack11	10	ProbeTrack	11.2	SCS215a	20101013.151152	20101013.152221	8	0.013328	60	10	60-180	60	170	GapExp	0	91	2	3	1	target	1	534	733	77300	13.328	12.941	13.718
ProbeTrack11	10	ProbeTrack	11.2	SCS215a	20101013.151152	20101013.152228	8	0.013328	60	10	60-180	60	66	GapExp	0	92	2	3	0	target	0	600	-1000	76300	13.328	13.095	13.565
ProbeTrack11	10	ProbeTrack	11.2	SCS215a	20101013.151152	20101013.152234	8	0.013328	60	10	60-180	60	67	GapExp	0	93	2	0	0	target	0	587	-1000	75300	13.328	12.859	13.787
ProbeTrack11	10	ProbeTrack	11.2	SCS215a	20101013.151152	20101013.152239	8	0.013328	60	10	60-180	60	76	GapExp	0	94	2	45	1	target	1	400	800	76100	13.328	13.309	13.347
ProbeTrack11	10	ProbeTrack	11.2	SCS215a	20101013.151152	20101013.152245	8	0.013328	60	0	60-180	60	96	GapExp	0	95	2	1	1	target	1	507	747	76847	13.328	13.113	13.549
ProbeTrack11	10	ProbeTrack	11.2	SCS215a	20101013.151152	20101013.152251	8	0.013328	60	0	60-180	60	100	GapExp	0	96	2	0	0	distractor	1	467	767	77614	13.328	13.307	13.348
ProbeTrack11	10	ProbeTrack	11.2	SCS215a	20101013.151152	20101013.152256	8	0.013328	60	10	60-180	60	173	GapExp	0	97	2	1	0	distractor	1	454	773	78387	13.328	13.306	13.356
ProbeTrack11	10	ProbeTrack	11.2	SCS215a	20101013.151152	20101013.152303	8	0.013328	60	0	60-180	60	157	GapExp	0	98	2	3	1	target	1	387	807	79194	13.328	13.091	13.560
ProbeTrack11	10	ProbeTrack	11.2	SCS215a	20101013.151152	20101013.152309	8	0.013328	60	0	60-180	60	126	GapExp	0	99	2	3	0	distractor	1	547	727	79921	13.328	12.840	13.799
ProbeTrack11	10	ProbeTrack	11.2	SCS215a	20101013.151152	20101013.152316	8	0.013328	60	0	60-180	60	141	GapExp	0	100	2	45	1	target	1	427	787	80708	13.328	13.087	13.565
ProbeTrack11	10	ProbeTrack	11.2	SCS215a	20101013.151152	20101013.152323	8	0.013328	60	0	60-180	60	89	GapExp	0	101	2	3	1	target	1	494	753	81461	13.328	13.307	13.345
ProbeTrack11	10	ProbeTrack	11.2	SCS215a	20101013.151152	20101013.152442	8	0.013328	60	0	60-180	60	118	GapExp	0	102	2	45	0	distractor	1	400	800	82261	13.328	13.100	13.561
ProbeTrack11	10	ProbeTrack	11.2	SCS215a	20101013.151152	20101013.152448	8	0.013328	60	10	60-180	60	71	GapExp	0	103	2	0	1	target	1	480	760	83021	13.328	12.978	13.674
ProbeTrack11	10	ProbeTrack	11.2	SCS215a	20101013.151152	20101013.152455	8	0.013328	60	10	60-180	60	137	GapExp	0	104	2	1	1	target	1	350	825	83846	13.328	12.962	13.685
ProbeTrack11	10	ProbeTrack	11.2	SCS215a	20101013.151152	20101013.152502	8	0.013328	60	0	60-180	60	118	GapExp	0	105	2	0	0	distractor	1	667	667	84513	13.328	13.098	13.560
ProbeTrack11	10	ProbeTrack	11.2	SCS215a	20101013.151152	20101013.152507	8	0.013328	60	10	60-180	60	62	GapExp	0	106	2	3	0	target	0	534	-1000	83513	13.328	13.146	13.500
ProbeTrack11	10	ProbeTrack	11.2	SCS215a	20101013.151152	20101013.152513	8	0.013328	60	0	60-180	60	137	GapExp	0	107	2	1	0	distractor	1	587	707	84220	13.328	13.070	13.680
ProbeTrack11	10	ProbeTrack	11.2	SCS215a	20101013.151152	20101013.152519	8	0.013328	60	0	60-180	60	66	GapExp	0	108	2	45	0	distractor	1	427	787	85007	13.328	13.308	13.347
ProbeTrack11	10	ProbeTrack	11.2	SCS215a	20101013.151152	20101013.152525	8	0.013328	60	0	60-180	60	90	GapExp	0	109	2	45	1	target	1	347	827	85834	13.328	13.108	13.554
ProbeTrack11	10	ProbeTrack	11.2	SCS215a	20101013.151152	20101013.152531	8	0.013328	60	0	60-180	60	168	GapExp	0	110	2	45	0	distractor	1	480	760	86594	13.328	13.307	13.352
ProbeTrack11	10	ProbeTrack	11.2	SCS215a	20101013.151152	20101013.152539	8	0.013328	60	10	60-180	60	172	GapExp	0	111	2	1	1	target	1	347	827	87421	13.328	13.302	13.362
ProbeTrack11	10	ProbeTrack	11.2	SCS215a	20101013.151152	20101013.152546	8	0.013328	60	0	60-180	60	144	GapExp	0	112	2	45	1	target	1	547	727	88148	13.328	13.084	13.556
ProbeTrack11	10	ProbeTrack	11.2	SCS215a	20101013.151152	20101013.152553	8	0.013328	60	10	60-180	60	137	GapExp	0	113	2	3	0	distractor	1	427	787	88935	13.328	13.096	13.559
ProbeTrack11	10	ProbeTrack	11.2	SCS215a	20101013.151152	20101013.152559	8	0.013328	60	10	60-180	60	72	GapExp	0	114	2	45	0	distractor	1	440	780	89715	13.328	12.869	13.795
ProbeTrack11	10	ProbeTrack	11.2	SCS215a	20101013.151152	20101013.152608	8	0.013328	60	10	60-180	60	79	GapExp	0	115	2	0	0	distractor	1	720	640	90355	13.328	13.309	13.349
ProbeTrack11	10	ProbeTrack	11.2	SCS215a	20101013.151152	20101013.152614	8	0.013328	60	10	60-180	60	139	GapExp	0	116	2	1	1	target	1	414	793	91148	13.328	13.271	13.380
ProbeTrack11	10	ProbeTrack	11.2	SCS215a	20101013.151152	20101013.152621	8	0.013328	60	0	60-180	60	178	GapExp	0	117	2	0	1	distractor	0	467	-1000	90148	13.328	13.110	13.543
ProbeTrack11	10	ProbeTrack	11.2	SCS215a	20101013.151152	20101013.152628	8	0.013328	60	10	60-180	60	160	GapExp	0	118	2	45	0	distractor	1	454	773	90921	13.328	13.309	13.347
ProbeTrack11	10	ProbeTrack	11.2	SCS215a	20101013.151152	20101013.152636	8	0.013328	60	10	60-180	60	70	GapExp	0	119	2	3	0	target	0	613	-1000	89921	13.328	13.294	13.363
ProbeTrack11	10	ProbeTrack	11.2	SCS215a	20101013.151152	20101013.152641	8	0.013328	60	10	60-180	60	138	GapExp	0	120	2	1	1	target	1	427	787	90708	13.328	12.968	13.692
ProbeTrack11	10	ProbeTrack	11.2	SCS215a	20101013.151152	20101013.152648	8	0.013328	60	0	60-180	60	141	GapExp	0	121	2	45	0	distractor	1	600	700	91408	13.328	13.005	13.654
ProbeTrack11	10	ProbeTrack	11.2	SCS215a	20101013.151152	20101013.152655	8	0.013328	60	0	60-180	60	84	GapExp	0	122	2	45	1	target	1	520	740	92148	13.328	13.042	13.614
ProbeTrack11	10	ProbeTrack	11.2	SCS215a	20101013.151152	20101013.152701	8	0.013328	60	10	60-180	60	128	GapExp	0	123	2	0	0	distractor	1	627	687	92835	13.328	12.991	13.560
ProbeTrack11	10	ProbeTrack	11.2	SCS215a	20101013.151152	20101013.152708	8	0.013328	60	10	60-180	60	125	GapExp	0	124	2	1	0	distractor	1	480	760	93595	13.328	12.939	13.713
ProbeTrack11	10	ProbeTrack	11.2	SCS215a	20101013.151152	20101013.152714	8	0.013328	60	10	60-180	60	79	GapExp	0	125	2	0	1	target	1	374	813	94408	13.328	12.854	13.807
ProbeTrack11	10	ProbeTrack	11.2	SCS215a	20101013.151152	20101013.152719	8	0.013328	60	10	60-180	60	165	GapExp	0	126	2	45	1	target	1	360	820	95228	13.328	12.917	13.731
ProbeTrack11	10	ProbeTrack	11.2	SCS215a	20101013.151152	20101013.152727	8	0.013328	60	10	60-180	60	119	GapExp	0	127	2	45	0	distractor	1	507	747	95975	13.328	12.937	13.723
ProbeTrack11	10	ProbeTrack	11.2	SCS215a	20101013.151152	20101013.152734	8	0.013328	60	10	60-180	60	152	GapExp	0	128	2	45	1	target	1	387	807	96782	13.328	12.849	13.816
ProbeTrack11	10	ProbeTrack	11.2	SCS215a	20101013.151152	20101013.152741	8	0.013328	60	0	60-180	60	80	GapExp	0	129	2	0	1	target	1	574	713	97495	13.328	12.956	13.700
ProbeTrack11	10	ProbeTrack	11.2	SCS215a	20101013.151152	20101013.152746	8	0.013328	60	0	60-180	60	156	GapExp	0	130	2	0	0	distractor	1	667	667	98162	13.328	13.043	13.618
ProbeTrack11	10	ProbeTrack	11.2	SCS215a	20101013.151152	20101013.152754	8	0.013328	60	0	60-180	60	171	GapExp	0	131	2	3	0	distractor	1	614	693	98855	13.328	12.885	13.762
ProbeTrack11	10	ProbeTrack	11.2	SCS215a	20101013.151152	20101013.152809	8	0.013328	60	10	60-180	60	103	GapExp	0	132	2	0	0	distractor	1	707	647	99502	13.328	13.099	13.554
ProbeTrack11	10	ProbeTrack	11.2	SCS215a	20101013.151152	20101013.152819	8	0.013328	60	10	60-180	60	150	GapExp	0	133	2	3	0	distractor	1	374	813	100315	13.328	13.080	13.570
ProbeTrack11	10	ProbeTrack	11.2	SCS215a	20101013.151152	20101013.152826	8	0.013328	60	0	60-180	60	106	GapExp	0	134	2	45	0	distractor	1	547	727	101042	13.328	12.956	13.701
ProbeTrack11	10	ProbeTrack	11.2	SCS215a	20101013.151152	20101013.152832	8	0.013328	60	10	60-180	60	121	GapExp	0	135	2	3	1	target	1	480	760	101802	13.328	12.859	13.755
ProbeTrack11	10	ProbeTrack	11.2	SCS215a	20101013.151152	20101013.152838	8	0.013328	60	10	60-180	60	141	GapExp	0	136	2	0	1	target	1	480	760	102562	13.328	13.108	13.538
ProbeTrack11	10	ProbeTrack	11.2	SCS215a	20101013.151152	20101013.152845	8	0.013328	60	0	60-180	60	159	GapExp	0	137	2	45	0	distractor	1	560	720	103282	13.328	13.039	13.609
ProbeTrack11	10	ProbeTrack	11.2	SCS215a	20101013.151152	20101013.152852	8	0.013328	60	10	60-180	60	164	GapExp	0	138	2	0	0	distractor	1	667	667	103949	13.328	12.957	13.702
ProbeTrack11	10	ProbeTrack	11.2	SCS215a	20101013.151152	20101013.152900	8	0.013328	60	0	60-180	60	165	GapExp	0	139	2	3	1	target	1	600	700	104649	13.328	12.946	13.720
ProbeTrack11	10	ProbeTrack	11.2	SCS215a	20101013.151152	20101013.152906	8	0.013328	60	10	60-180	60	123	GapExp	0	140	2	3	1	target	1	494	753	105402	13.328	13.103	13.565
ProbeTrack11	10	ProbeTrack	11.2	SCS215a	20101013.151152	20101013.152913	8	0.013328	60	0	60-180	60	143	GapExp	0	141	2	0	1	target	1	400	800	106202	13.328	13.242	13.427
ProbeTrack11	10	ProbeTrack	11.2	SCS215a	20101013.151152	20101013.152919	8	0.013328	60	10	60-180	60	81	GapExp	0	142	2	3	0	target	0	360	-1000	105202	13.328	12.945	13.727
ProbeTrack11	10	ProbeTrack	11.2	SCS215a	20101013.151152	20101013.152925	8	0.013328	60	0	60-180	60	165	GapExp	0	143	2	3	1	target	1	467	767	105969	13.328	13.283	13.359
ProbeTrack11	10	ProbeTrack	11.2	SCS215a	20101013.151152	20101013.152931	8	0.013328	60	10	60-180	60	98	GapExp	0	144	2	1	1	target	1	387	807	106776	13.328	13.097	13.565
ProbeTrack11	10	ProbeTrack	11.2	SCS215a	20101013.151152	20101013.152948	8	0.013328	60	10	60-180	60	105	GapExp	0	145	2	45	0	target	0	427	-1000	105776	13.328	12.876	13.779
ProbeTrack11	10	ProbeTrack	11.2	SCS215a	20101013.151152	20101013.152955	8	0.013328	60	0	60-180	60	169	GapExp	0	146	2	1	1	target	1	480	760	106536	13.328	13.103	13.552
ProbeTrack11	10	ProbeTrack	11.2	SCS215a	20101013.151152	20101013.153002	8	0.013328	60	0	60-180	60	91	GapExp	0	147	2	1	0	distractor	1	600	700	107236	13.328	13.094	13.564
ProbeTrack11	10	ProbeTrack	11.2	SCS215a	20101013.151152	20101013.153008	8	0.013328	60	0	60-180	60	71	GapExp	0	148	2	0	0	distractor	1	614	693	107929	13.328	13.309	13.345
ProbeTrack11	10	ProbeTrack	11.2	SCS215a	20101013.151152	20101013.153014	8	0.013328	60	10	60-180	60	141	GapExp	0	149	2	1	1	target	1	427	787	108716	13.328	12.873	13.792
ProbeTrack11	10	ProbeTrack	11.2	SCS215a	20101013.151152	20101013.153021	8	0.013328	60	10	60-180	60	110	GapExp	0	150	2	1	0	distractor	1	507	747	109463	13.328	13.216	13.425
ProbeTrack11	10	ProbeTrack	11.2	SCS215a	20101013.151152	20101013.153026	8	0.013328	60	10	60-180	60	63	GapExp	0	151	2	1	1	distractor	0	400	-1000	108463	13.328	13.095	13.553
ProbeTrack11	10	ProbeTrack	11.2	SCS215a	20101013.151152	20101013.153032	8	0.013328	60	10	60-180	60	113	GapExp	0	152	2	0	0	distractor	1	560	720	109183	13.328	13.110	13.556
ProbeTrack11	10	ProbeTrack	11.2	SCS215a	20101013.151152	20101013.153038	8	0.013328	60	0	60-180	60	177	GapExp	0	153	2	0	1	target	1	414	793	109976	13.328	13.310	13.348
ProbeTrack11	10	ProbeTrack	11.2	SCS215a	20101013.151152	20101013.153045	8	0.013328	60	10	60-180	60	160	GapExp	0	154	2	0	0	distractor	1	587	707	110683	13.328	13.093	13.578
ProbeTrack11	10	ProbeTrack	11.2	SCS215a	20101013.151152	20101013.153051	8	0.013328	60	10	60-180	60	169	GapExp	0	155	2	0	1	target	1	507	747	111430	13.328	12.982	13.664
ProbeTrack11	10	ProbeTrack	11.2	SCS215a	20101013.151152	20101013.153156	8	0.013328	60	0	60-180	60	67	GapExp	0	156	2	3	1	target	1	574	713	112143	13.328	13.085	13.563
ProbeTrack11	10	ProbeTrack	11.2	SCS215a	20101013.151152	20101013.153201	8	0.013328	60	10	60-180	60	84	GapExp	0	157	2	1	1	target	1	467	767	112910	13.328	13.302	13.350
ProbeTrack11	10	ProbeTrack	11.2	SCS215a	20101013.151152	20101013.153207	8	0.013328	60	0	60-180	60	72	GapExp	0	158	2	0	1	target	1	574	713	113623	13.328	13.212	13.429
ProbeTrack11	10	ProbeTrack	11.2	SCS215a	20101013.151152	20101013.153212	8	0.013328	60	0	60-180	60	132	GapExp	0	159	2	45	1	target	1	560	720	114343	13.328	12.855	13.807
ProbeTrack11	10	ProbeTrack	11.2	SCS215a	20101013.151152	20101013.153218	8	0.013328	60	0	60-180	60	110	GapExp	0	160	2	1	1	target	1	427	787	115130	13.328	13.306	13.347
ProbeTrack11	10	ProbeTrack	11.2	SCS215a	20101013.151152	20101013.153224	8	0.013328	60	10	60-180	60	62	GapExp	0	161	2	0	0	distractor	1	600	700	115830	13.328	13.086	13.572
ProbeTrack11	10	ProbeTrack	11.2	SCS215a	20101013.151152	20101013.153229	8	0.013328	60	10	60-180	60	128	GapExp	0	162	2	45	1	target	1	467	767	116597	13.328	13.095	13.556
ProbeTrack11	10	ProbeTrack	11.2	SCS215a	20101013.151152	20101013.153236	8	0.013328	60	10	60-180	60	135	GapExp	0	163	2	3	1	target	1	520	740	117337	13.328	13.300	13.361
ProbeTrack11	10	ProbeTrack	11.2	SCS215a	20101013.151152	20101013.153242	8	0.013328	60	10	60-180	60	82	GapExp	0	164	2	0	0	distractor	1	427	787	118124	13.328	12.436	14.230
ProbeTrack11	10	ProbeTrack	11.2	SCS215a	20101013.151152	20101013.153247	8	0.013328	60	0	60-180	60	127	GapExp	0	165	2	45	0	distractor	1	414	793	118917	13.328	12.949	13.687
ProbeTrack11	10	ProbeTrack	11.2	SCS215a	20101013.151152	20101013.153254	8	0.013328	60	0	60-180	60	74	GapExp	0	166	2	45	1	target	1	454	773	119690	13.328	13.309	13.353
ProbeTrack11	10	ProbeTrack	11.2	SCS215a	20101013.151152	20101013.153259	8	0.013328	60	0	60-180	60	115	GapExp	0	167	2	1	1	target	1	427	787	120477	13.328	13.118	13.539
ProbeTrack11	10	ProbeTrack	11.2	SCS215a	20101013.151152	20101013.153305	8	0.013328	60	10	60-180	60	101	GapExp	0	168	2	1	0	distractor	1	400	800	121277	13.328	12.904	13.751
ProbeTrack11	10	ProbeTrack	11.2	SCS215a	20101013.151152	20101013.153312	8	0.013328	60	0	60-180	60	115	GapExp	0	169	2	3	0	distractor	1	547	727	122004	13.328	12.561	14.094
ProbeTrack11	10	ProbeTrack	11.2	SCS215a	20101013.151152	20101013.153318	8	0.013328	60	10	60-180	60	130	GapExp	0	170	2	3	1	distractor	0	480	-1000	121004	13.328	13.297	13.350
ProbeTrack11	10	ProbeTrack	11.2	SCS215a	20101013.151152	20101013.153323	8	0.013328	60	0	60-180	60	103	GapExp	0	171	2	1	1	target	1	507	747	121751	13.328	13.309	13.347
ProbeTrack11	10	ProbeTrack	11.2	SCS215a	20101013.151152	20101013.153329	8	0.013328	60	10	60-180	60	68	GapExp	0	172	2	1	1	target	1	347	827	122578	13.328	13.303	13.348
ProbeTrack11	10	ProbeTrack	11.2	SCS215a	20101013.151152	20101013.153334	8	0.013328	60	10	60-180	60	172	GapExp	0	173	2	1	0	distractor	1	494	753	123331	13.328	13.309	13.352
ProbeTrack11	10	ProbeTrack	11.2	SCS215a	20101013.151152	20101013.153345	8	0.013328	60	10	60-180	60	161	GapExp	0	174	2	0	0	target	0	400	-1000	122331	13.328	12.865	13.789
ProbeTrack11	10	ProbeTrack	11.2	SCS215a	20101013.151152	20101013.153351	8	0.013328	60	10	60-180	60	151	GapExp	0	175	2	1	0	distractor	1	454	773	123104	13.328	13.309	13.347
ProbeTrack11	10	ProbeTrack	11.2	SCS215a	20101013.151152	20101013.153400	8	0.013328	60	10	60-180	60	140	GapExp	0	176	2	0	1	target	1	400	800	123904	13.328	12.952	13.704
ProbeTrack11	10	ProbeTrack	11.2	SCS215a	20101013.151152	20101013.153406	8	0.013328	60	10	60-180	60	178	GapExp	0	177	2	1	1	target	1	627	687	124591	13.328	12.866	13.781
ProbeTrack11	10	ProbeTrack	11.2	SCS215a	20101013.151152	20101013.153413	8	0.013328	60	10	60-180	60	155	GapExp	0	178	2	45	0	distractor	1	520	740	125331	13.328	12.879	13.802
ProbeTrack11	10	ProbeTrack	11.2	SCS215a	20101013.151152	20101013.153420	8	0.013328	60	10	60-180	60	91	GapExp	0	179	2	45	0	distractor	1	494	753	126084	13.328	13.303	13.348
ProbeTrack11	10	ProbeTrack	11.2	SCS215a	20101013.151152	20101013.153427	8	0.013328	60	0	60-180	60	78	GapExp	0	180	2	3	1	target	1	520	740	126824	13.328	12.850	13.809
ProbeTrack11	10	ProbeTrack	11.2	SCS215a	20101013.151152	20101013.153432	8	0.013328	60	0	60-180	60	94	GapExp	0	181	2	1	0	target	0	640	-1000	125824	13.328	12.958	13.705
ProbeTrack11	10	ProbeTrack	11.2	SCS215a	20101013.151152	20101013.153438	8	0.013328	60	0	60-180	60	87	GapExp	0	182	2	45	0	distractor	1	427	787	126611	13.328	12.923	13.728
ProbeTrack11	10	ProbeTrack	11.2	SCS215a	20101013.151152	20101013.153444	8	0.013328	60	0	60-180	60	65	GapExp	0	183	2	1	0	distractor	1	454	773	127384	13.930	13.098	119.956
ProbeTrack11	10	ProbeTrack	11.2	SCS215a	20101013.151152	20101013.153449	8	0.013328	60	10	60-180	60	152	GapExp	0	184	2	0	0	distractor	1	467	767	128151	13.328	13.107	13.558
ProbeTrack11	10	ProbeTrack	11.2	SCS215a	20101013.151152	20101013.153456	8	0.013328	60	10	60-180	60	98	GapExp	0	185	2	1	1	target	1	360	820	128971	13.390	12.938	26.932
ProbeTrack11	10	ProbeTrack	11.2	SCS215a	20101013.151152	20101013.153502	8	0.013328	60	10	60-180	60	73	GapExp	0	186	2	3	0	distractor	1	507	747	129718	13.328	13.303	13.360
ProbeTrack11	10	ProbeTrack	11.2	SCS215a	20101013.151152	20101013.153507	8	0.013328	60	0	60-180	60	164	GapExp	0	187	2	0	0	distractor	1	547	727	130445	13.328	13.241	13.415
ProbeTrack11	10	ProbeTrack	11.2	SCS215a	20101013.151152	20101013.153513	8	0.013328	60	0	60-180	60	63	GapExp	0	188	2	1	0	distractor	1	693	654	131099	13.328	13.045	13.608
ProbeTrack11	10	ProbeTrack	11.2	SCS215a	20101013.151152	20101013.153519	8	0.013328	60	0	60-180	60	122	GapExp	0	189	2	1	0	distractor	1	574	713	131812	13.328	13.103	13.553
ProbeTrack11	10	ProbeTrack	11.2	SCS215a	20101013.151152	20101013.153525	8	0.013328	60	0	60-180	60	157	GapExp	0	190	2	45	0	distractor	1	454	773	132585	13.328	13.102	13.546
ProbeTrack11	10	ProbeTrack	11.2	SCS215a	20101013.151152	20101013.153532	8	0.013328	60	10	60-180	60	178	GapExp	0	191	2	1	0	distractor	1	440	780	133365	13.328	13.089	13.576
ProbeTrack11	10	ProbeTrack	11.2	SCS215a	20101013.151152	20101013.153538	8	0.013328	60	0	60-180	60	155	GapExp	0	192	2	0	0	distractor	1	827	587	133952	13.328	13.105	13.541
ProbeTrack11	10	ProbeTrack	11.2	SCS215a	20101013.151152	20101013.153545	8	0.013328	60	0	60-180	60	154	GapExp	0	193	2	1	0	distractor	1	494	753	134705	13.328	13.304	13.348
ProbeTrack11	10	ProbeTrack	11.2	SCS215a	20101013.151152	20101013.153551	8	0.013328	60	0	60-180	60	93	GapExp	0	194	2	1	1	target	1	574	713	135418	13.328	13.307	13.349
ProbeTrack11	10	ProbeTrack	11.2	SCS215a	20101013.151152	20101013.153557	8	0.013328	60	10	60-180	60	128	GapExp	0	195	2	45	1	target	1	427	787	136205	13.328	12.935	13.724
ProbeTrack11	10	ProbeTrack	11.2	SCS215a	20101013.151152	20101013.153603	8	0.013328	60	0	60-180	60	144	GapExp	0	196	2	45	1	target	1	414	793	136998	13.328	12.859	13.793
ProbeTrack11	10	ProbeTrack	11.2	SCS215a	20101013.151152	20101013.153610	8	0.013328	60	0	60-180	60	168	GapExp	0	197	2	45	0	distractor	1	653	674	137672	13.328	13.071	13.605
ProbeTrack11	10	ProbeTrack	11.2	SCS215a	20101013.151152	20101013.153618	8	0.013328	60	0	60-180	60	154	GapExp	0	198	2	45	1	target	1	347	827	138499	13.328	13.171	13.481
ProbeTrack11	10	ProbeTrack	11.2	SCS215a	20101013.151152	20101013.153625	8	0.013328	60	10	60-180	60	61	GapExp	0	199	2	1	0	distractor	1	547	727	139226	13.328	13.309	13.348
ProbeTrack11	10	ProbeTrack	11.2	SCS215a	20101013.151152	20101013.153630	8	0.013328	60	10	60-180	60	176	GapExp	0	200	2	3	1	target	1	494	753	139979	13.328	12.923	13.749
ProbeTrack11	10	ProbeTrack	11.2	SCS215a	20101013.151152	20101013.153637	8	0.013328	60	10	60-180	60	75	GapExp	0	201	2	45	1	target	1	480	760	140739	13.328	12.999	13.659
ProbeTrack11	10	ProbeTrack	11.2	SCS215a	20101013.151152	20101013.153643	8	0.013328	60	0	60-180	60	156	GapExp	0	202	2	45	1	target	1	627	687	141426	13.328	13.306	13.347
ProbeTrack11	10	ProbeTrack	11.2	SCS215a	20101013.151152	20101013.153650	8	0.013328	60	10	60-180	60	114	GapExp	0	203	2	1	1	target	1	440	780	142206	13.328	13.100	13.558
ProbeTrack11	10	ProbeTrack	11.2	SCS215a	20101013.151152	20101013.153656	8	0.013328	60	10	60-180	60	109	GapExp	0	204	2	1	0	target	0	440	-1000	141206	13.328	13.060	13.599
ProbeTrack11	10	ProbeTrack	11.2	SCS215a	20101013.151152	20101013.153702	8	0.013328	60	10	60-180	60	167	GapExp	0	205	2	0	0	distractor	1	534	733	141939	13.328	13.092	13.570
ProbeTrack11	10	ProbeTrack	11.2	SCS215a	20101013.151152	20101013.153709	8	0.013328	60	10	60-180	60	116	GapExp	0	206	2	3	1	target	1	360	820	142759	13.328	12.898	13.770
ProbeTrack11	10	ProbeTrack	11.2	SCS215a	20101013.151152	20101013.153715	8	0.013328	60	0	60-180	60	146	GapExp	0	207	2	1	0	distractor	1	480	760	143519	13.327	12.882	13.778
ProbeTrack11	10	ProbeTrack	11.2	SCS215a	20101013.151152	20101013.153721	8	0.013328	60	0	60-180	60	81	GapExp	0	208	2	3	1	target	1	547	727	144246	13.328	13.281	13.369
ProbeTrack11	10	ProbeTrack	11.2	SCS215a	20101013.151152	20101013.153726	8	0.013328	60	0	60-180	60	90	GapExp	0	209	2	1	1	target	1	520	740	144986	13.328	13.112	13.558
ProbeTrack11	10	ProbeTrack	11.2	SCS215a	20101013.151152	20101013.153732	8	0.013328	60	0	60-180	60	104	GapExp	0	210	2	1	1	target	1	400	800	145786	13.328	13.105	13.559
ProbeTrack11	10	ProbeTrack	11.2	SCS215a	20101013.151152	20101013.153737	8	0.013328	60	0	60-180	60	178	GapExp	0	211	2	45	0	distractor	1	547	727	146513	13.328	13.030	13.610
ProbeTrack11	10	ProbeTrack	11.2	SCS215a	20101013.151152	20101013.153744	8	0.013328	60	0	60-180	60	145	GapExp	0	212	2	3	0	distractor	1	387	807	147320	13.328	13.021	13.645
ProbeTrack11	10	ProbeTrack	11.2	SCS215a	20101013.151152	20101013.153920	8	0.013328	60	10	60-180	60	158	GapExp	0	213	2	1	0	distractor	1	520	740	148060	13.328	13.091	13.567
ProbeTrack11	10	ProbeTrack	11.2	SCS215a	20101013.151152	20101013.153927	8	0.013328	60	10	60-180	60	145	GapExp	0	214	2	0	0	distractor	1	480	760	148820	13.328	13.310	13.345
ProbeTrack11	10	ProbeTrack	11.2	SCS215a	20101013.151152	20101013.153933	8	0.013328	60	0	60-180	60	138	GapExp	0	215	2	45	1	target	1	427	787	149607	13.328	12.954	13.803
ProbeTrack11	10	ProbeTrack	11.2	SCS215a	20101013.151152	20101013.153940	8	0.013328	60	10	60-180	60	124	GapExp	0	216	2	3	0	distractor	1	387	807	150414	13.328	13.101	13.536
ProbeTrack11	10	ProbeTrack	11.2	SCS215a	20101013.151152	20101013.153945	8	0.013328	60	0	60-180	60	139	GapExp	0	217	2	1	1	target	1	387	807	151221	13.328	13.113	13.544
ProbeTrack11	10	ProbeTrack	11.2	SCS215a	20101013.151152	20101013.153951	8	0.013328	60	0	60-180	60	164	GapExp	0	218	2	1	1	target	1	480	760	151981	13.328	13.098	13.557
ProbeTrack11	10	ProbeTrack	11.2	SCS215a	20101013.151152	20101013.153957	8	0.013328	60	0	60-180	60	86	GapExp	0	219	2	45	0	distractor	1	414	793	152774	13.328	12.914	13.735
ProbeTrack11	10	ProbeTrack	11.2	SCS215a	20101013.151152	20101013.154003	8	0.013328	60	10	60-180	60	144	GapExp	0	220	2	3	0	distractor	1	427	787	153561	13.328	13.309	13.347
ProbeTrack11	10	ProbeTrack	11.2	SCS215a	20101013.151152	20101013.154009	8	0.013328	60	0	60-180	60	70	GapExp	0	221	2	45	0	distractor	1	467	767	154328	13.328	13.138	13.517
ProbeTrack11	10	ProbeTrack	11.2	SCS215a	20101013.151152	20101013.154015	8	0.013328	60	10	60-180	60	118	GapExp	0	222	2	1	1	target	1	520	740	155068	13.328	12.861	13.812
ProbeTrack11	10	ProbeTrack	11.2	SCS215a	20101013.151152	20101013.154024	8	0.013328	60	10	60-180	60	85	GapExp	0	223	2	3	0	distractor	1	454	773	155841	13.328	12.885	13.772
ProbeTrack11	10	ProbeTrack	11.2	SCS215a	20101013.151152	20101013.154030	8	0.013328	60	0	60-180	60	90	GapExp	0	224	2	0	1	target	1	467	767	156608	13.328	12.921	13.727
ProbeTrack11	10	ProbeTrack	11.2	SCS215a	20101013.151152	20101013.154035	8	0.013328	60	10	60-180	60	115	GapExp	0	225	2	3	0	distractor	1	507	747	157355	13.328	12.842	13.796
ProbeTrack11	10	ProbeTrack	11.2	SCS215a	20101013.151152	20101013.154041	8	0.013328	60	10	60-180	60	99	GapExp	0	226	2	0	1	target	1	347	827	158182	13.328	12.941	13.717
ProbeTrack11	10	ProbeTrack	11.2	SCS215a	20101013.151152	20101013.154046	8	0.013328	60	0	60-180	60	98	GapExp	0	227	2	45	0	distractor	1	613	694	158876	13.328	12.878	13.763
ProbeTrack11	10	ProbeTrack	11.2	SCS215a	20101013.151152	20101013.154053	8	0.013328	60	0	60-180	60	67	GapExp	0	228	2	3	0	distractor	1	720	640	159516	13.328	12.891	13.764
ProbeTrack11	10	ProbeTrack	11.2	SCS215a	20101013.151152	20101013.154058	8	0.013328	60	10	60-180	60	90	GapExp	0	229	2	45	1	target	1	374	813	160329	13.328	13.079	13.568
ProbeTrack11	10	ProbeTrack	11.2	SCS215a	20101013.151152	20101013.154105	8	0.013328	60	0	60-180	60	161	GapExp	0	230	2	0	0	distractor	1	427	787	161116	13.328	12.875	13.787
ProbeTrack11	10	ProbeTrack	11.2	SCS215a	20101013.151152	20101013.154111	8	0.013328	60	0	60-180	60	80	GapExp	0	231	2	45	1	target	1	414	793	161909	13.328	12.843	13.814
ProbeTrack11	10	ProbeTrack	11.2	SCS215a	20101013.151152	20101013.154117	8	0.013328	60	10	60-180	60	133	GapExp	0	232	2	0	0	distractor	1	440	780	162689	13.328	13.099	13.550
ProbeTrack11	10	ProbeTrack	11.2	SCS215a	20101013.151152	20101013.154123	8	0.013328	60	0	60-180	60	91	GapExp	0	233	2	45	1	target	1	360	820	163509	13.328	12.890	13.771
ProbeTrack11	10	ProbeTrack	11.2	SCS215a	20101013.151152	20101013.154128	8	0.013328	60	0	60-180	60	130	GapExp	0	234	2	1	0	distractor	1	680	660	164169	13.328	12.909	13.749
ProbeTrack11	10	ProbeTrack	11.2	SCS215a	20101013.151152	20101013.154135	8	0.013328	60	0	60-180	60	84	GapExp	0	235	2	3	1	target	1	600	700	164869	13.328	12.864	13.814
ProbeTrack11	10	ProbeTrack	11.2	SCS215a	20101013.151152	20101013.154140	8	0.013328	60	10	60-180	60	81	GapExp	0	236	2	0	1	target	1	400	800	165669	13.328	13.270	13.394
ProbeTrack11	10	ProbeTrack	11.2	SCS215a	20101013.151152	20101013.154145	8	0.013328	60	0	60-180	60	63	GapExp	0	237	2	0	0	distractor	1	574	713	166382	13.328	13.310	13.347
ProbeTrack11	10	ProbeTrack	11.2	SCS215a	20101013.151152	20101013.154150	8	0.013328	60	0	60-180	60	158	GapExp	0	238	2	0	1	target	1	374	813	167195	13.328	12.840	13.812
ProbeTrack11	10	ProbeTrack	11.2	SCS215a	20101013.151152	20101013.154156	8	0.013328	60	10	60-180	60	172	GapExp	0	239	2	0	0	target	0	494	-1000	166195	13.328	13.098	13.556
ProbeTrack11	10	ProbeTrack	11.2	SCS215a	20101013.151152	20101013.154203	8	0.013328	60	0	60-180	60	117	GapExp	0	240	2	3	1	target	1	494	753	166948	13.328	12.874	13.785
ProbeTrack11	10	ProbeTrack	11.2	SCS215a	20101013.151152	20101013.154209	8	0.013328	60	0	60-180	60	91	GapExp	0	241	2	45	0	distractor	1	494	753	167701	13.328	12.828	13.809
ProbeTrack11	10	ProbeTrack	11.2	SCS215a	20101013.151152	20101013.154215	8	0.013328	60	10	60-180	60	173	GapExp	0	242	2	0	1	target	1	374	813	168514	13.328	13.308	13.345
ProbeTrack11	10	ProbeTrack	11.2	SCS215a	20101013.151152	20101013.154222	8	0.013328	60	10	60-180	60	91	GapExp	0	243	2	3	0	distractor	1	480	760	169274	13.328	12.875	13.790
ProbeTrack11	10	ProbeTrack	11.2	SCS215a	20101013.151152	20101013.154228	8	0.013328	60	0	60-180	60	66	GapExp	0	244	2	45	1	target	1	440	780	170054	13.328	12.880	13.776
ProbeTrack11	10	ProbeTrack	11.2	SCS215a	20101013.151152	20101013.154233	8	0.013328	60	10	60-180	60	167	GapExp	0	245	2	1	1	target	1	387	807	170861	13.328	13.093	13.556
ProbeTrack11	10	ProbeTrack	11.2	SCS215a	20101013.151152	20101013.154240	8	0.013328	60	10	60-180	60	138	GapExp	0	246	2	45	0	distractor	1	494	753	171614	13.328	12.867	13.772
ProbeTrack11	10	ProbeTrack	11.2	SCS215a	20101013.151152	20101013.154246	8	0.013328	60	0	60-180	60	130	GapExp	0	247	2	0	1	target	1	440	780	172394	13.328	13.308	13.347
ProbeTrack11	10	ProbeTrack	11.2	SCS215a	20101013.151152	20101013.154252	8	0.013328	60	0	60-180	60	116	GapExp	0	248	2	45	1	target	1	400	800	173194	13.328	12.881	13.770
ProbeTrack11	10	ProbeTrack	11.2	SCS215a	20101013.151152	20101013.154258	8	0.013328	60	10	60-180	60	145	GapExp	0	249	2	45	0	distractor	1	494	753	173947	13.667	12.860	119.929
ProbeTrack11	10	ProbeTrack	11.2	SCS215a	20101013.151152	20101013.154305	8	0.013328	60	0	60-180	60	149	GapExp	0	250	2	3	0	distractor	1	507	747	174694	13.328	12.898	13.758
ProbeTrack11	10	ProbeTrack	11.2	SCS215a	20101013.151152	20101013.154311	8	0.013328	60	0	60-180	60	152	GapExp	0	251	2	3	0	distractor	1	627	687	175381	13.328	13.310	13.347
ProbeTrack11	10	ProbeTrack	11.2	SCS215a	20101013.151152	20101013.154317	8	0.013328	60	10	60-180	60	110	GapExp	0	252	2	0	0	distractor	1	667	667	176048	13.328	13.092	13.569
ProbeTrack11	10	ProbeTrack	11.2	SCS215a	20101013.151152	20101013.154323	8	0.013328	60	10	60-180	60	104	GapExp	0	253	2	45	1	target	1	454	773	176821	13.328	12.868	13.781
ProbeTrack11	10	ProbeTrack	11.2	SCS215a	20101013.151152	20101013.154409	8	0.013328	60	10	60-180	60	159	GapExp	0	254	2	1	1	target	1	427	787	177608	13.328	12.876	13.782
ProbeTrack11	10	ProbeTrack	11.2	SCS215a	20101013.151152	20101013.154415	8	0.013328	60	0	60-180	60	170	GapExp	0	255	2	3	1	target	1	347	827	178435	13.328	13.301	13.347
ProbeTrack11	10	ProbeTrack	11.2	SCS215a	20101013.151152	20101013.154422	8	0.013328	60	10	60-180	60	130	GapExp	0	256	2	1	0	distractor	1	374	813	179248	13.328	13.307	13.349
ProbeTrack11	10	ProbeTrack	11.2	SCS215a	20101013.151152	20101013.154427	8	0.013328	60	10	60-180	60	64	GapExp	0	257	2	0	1	target	1	387	807	180055	13.328	13.305	13.347
ProbeTrack11	10	ProbeTrack	11.2	SCS215a	20101013.151152	20101013.154432	8	0.013328	60	0	60-180	60	90	GapExp	0	258	2	0	0	distractor	1	440	780	180835	13.328	13.098	13.552
ProbeTrack11	10	ProbeTrack	11.2	SCS215a	20101013.151152	20101013.154438	8	0.013328	60	0	60-180	60	108	GapExp	0	259	2	3	1	target	1	400	800	181635	13.328	12.908	13.762
ProbeTrack11	10	ProbeTrack	11.2	SCS215a	20101013.151152	20101013.154443	8	0.013328	60	0	60-180	60	133	GapExp	0	260	2	3	0	distractor	1	440	780	182415	13.328	13.304	13.352
ProbeTrack11	10	ProbeTrack	11.2	SCS215a	20101013.151152	20101013.154449	8	0.013328	60	0	60-180	60	69	GapExp	0	261	2	3	1	target	1	414	793	183208	13.328	13.240	13.422
ProbeTrack11	10	ProbeTrack	11.2	SCS215a	20101013.151152	20101013.154454	8	0.013328	60	10	60-180	60	116	GapExp	0	262	2	0	1	target	1	374	813	184021	13.328	13.106	13.547
ProbeTrack11	10	ProbeTrack	11.2	SCS215a	20101013.151152	20101013.154500	8	0.013328	60	10	60-180	60	141	GapExp	0	263	2	45	1	target	1	320	840	184861	13.328	12.958	13.699
ProbeTrack11	10	ProbeTrack	11.2	SCS215a	20101013.151152	20101013.154507	8	0.013328	60	0	60-180	60	180	GapExp	0	264	2	0	0	distractor	1	520	740	185601	13.328	13.098	13.561
ProbeTrack11	10	ProbeTrack	11.2	SCS215a	20101013.151152	20101013.154514	8	0.013328	60	0	60-180	60	62	GapExp	0	265	2	1	1	target	1	454	773	186374	13.328	13.074	13.579
ProbeTrack11	10	ProbeTrack	11.2	SCS215a	20101013.151152	20101013.154519	8	0.013328	60	0	60-180	60	113	GapExp	0	266	2	3	0	distractor	1	454	773	187147	13.328	12.881	13.787
ProbeTrack11	10	ProbeTrack	11.2	SCS215a	20101013.151152	20101013.154524	8	0.013328	60	0	60-180	60	165	GapExp	0	267	2	0	1	target	1	560	720	187867	13.328	13.309	13.347
ProbeTrack11	10	ProbeTrack	11.2	SCS215a	20101013.151152	20101013.154532	8	0.013328	60	0	60-180	60	164	GapExp	0	268	2	0	1	target	1	534	733	188600	13.328	12.994	13.659
ProbeTrack11	10	ProbeTrack	11.2	SCS215a	20101013.151152	20101013.154538	8	0.013328	60	0	60-180	60	111	GapExp	0	269	2	3	0	distractor	1	440	780	189380	13.328	12.876	13.786
ProbeTrack11	10	ProbeTrack	11.2	SCS215a	20101013.151152	20101013.154544	8	0.013328	60	10	60-180	60	140	GapExp	0	270	2	3	1	target	1	414	793	190173	13.328	12.880	13.788
ProbeTrack11	10	ProbeTrack	11.2	SCS215a	20101013.151152	20101013.154550	8	0.013328	60	10	60-180	60	118	GapExp	0	271	2	45	1	target	1	374	813	190986	13.328	13.018	13.631
ProbeTrack11	10	ProbeTrack	11.2	SCS215a	20101013.151152	20101013.154556	8	0.013328	60	0	60-180	60	64	GapExp	0	272	2	0	0	distractor	1	534	733	191719	13.328	12.911	13.732
ProbeTrack11	10	ProbeTrack	11.2	SCS215a	20101013.151152	20101013.154601	8	0.013328	60	10	60-180	60	156	GapExp	0	273	2	3	0	distractor	1	534	733	192452	13.328	12.918	13.744
ProbeTrack11	10	ProbeTrack	11.2	SCS215a	20101013.151152	20101013.154607	8	0.013328	60	10	60-180	60	138	GapExp	0	274	2	45	0	distractor	1	454	773	193225	13.328	13.309	13.348
ProbeTrack11	10	ProbeTrack	11.2	SCS215a	20101013.151152	20101013.154614	8	0.013328	60	10	60-180	60	119	GapExp	0	275	2	1	0	distractor	1	480	760	193985	13.328	13.016	13.631
ProbeTrack11	10	ProbeTrack	11.2	SCS215a	20101013.151152	20101013.154620	8	0.013328	60	10	60-180	60	170	GapExp	0	276	2	3	0	distractor	1	454	773	194758	13.328	12.973	13.679
ProbeTrack11	10	ProbeTrack	11.2	SCS215a	20101013.151152	20101013.154626	8	0.013328	60	0	60-180	60	80	GapExp	0	277	2	45	0	distractor	1	467	767	195525	13.328	13.310	13.345
ProbeTrack11	10	ProbeTrack	11.2	SCS215a	20101013.151152	20101013.154632	8	0.013328	60	10	60-180	60	163	GapExp	0	278	2	0	1	target	1	467	767	196292	13.328	12.851	13.809
ProbeTrack11	10	ProbeTrack	11.2	SCS215a	20101013.151152	20101013.154638	8	0.013328	60	0	60-180	60	161	GapExp	0	279	2	45	1	target	1	574	713	197005	13.328	13.066	13.589
ProbeTrack11	10	ProbeTrack	11.2	SCS215a	20101013.151152	20101013.154645	8	0.013328	60	0	60-180	60	65	GapExp	0	280	2	0	0	distractor	1	467	767	197772	13.328	13.087	13.559
ProbeTrack11	10	ProbeTrack	11.2	SCS215a	20101013.151152	20101013.154651	8	0.013328	60	0	60-180	60	76	GapExp	0	281	2	0	1	target	1	454	773	198545	13.328	13.130	13.522
ProbeTrack11	10	ProbeTrack	11.2	SCS215a	20101013.151152	20101013.154656	8	0.013328	60	10	60-180	60	116	GapExp	0	282	2	1	1	target	1	334	833	199378	13.328	13.308	13.348
ProbeTrack11	10	ProbeTrack	11.2	SCS215a	20101013.151152	20101013.154702	8	0.013328	60	10	60-180	60	139	GapExp	0	283	2	45	0	distractor	1	387	807	200185	13.328	13.122	13.535
ProbeTrack11	10	ProbeTrack	11.2	SCS215a	20101013.151152	20101013.154709	8	0.013328	60	0	60-180	60	64	GapExp	0	284	2	0	0	distractor	1	560	720	200905	13.328	13.018	13.622
ProbeTrack11	10	ProbeTrack	11.2	SCS215a	20101013.151152	20101013.154715	8	0.013328	60	0	60-180	60	94	GapExp	0	285	2	3	0	distractor	1	440	780	201685	13.328	13.309	13.345
ProbeTrack11	10	ProbeTrack	11.2	SCS215a	20101013.151152	20101013.154721	8	0.013328	60	10	60-180	60	163	GapExp	0	286	2	3	0	distractor	1	400	800	202485	13.328	12.904	13.726
ProbeTrack11	10	ProbeTrack	11.2	SCS215a	20101013.151152	20101013.154727	8	0.013328	60	0	60-180	60	146	GapExp	0	287	2	3	0	distractor	1	467	767	203252	13.328	12.907	13.748
ProbeTrack11	10	ProbeTrack	11.2	SCS215a	20101013.151152	20101013.154733	8	0.013328	60	10	60-180	60	121	GapExp	0	288	2	3	0	distractor	1	494	753	204005	13.328	13.108	13.540
ProbeTrack11	10	ProbeTrack	11.2	SCS215a	20101013.151152	20101013.154739	8	0.013328	60	0	60-180	60	74	GapExp	0	289	2	45	1	target	1	440	780	204785	13.328	12.972	13.672
ProbeTrack11	10	ProbeTrack	11.2	SCS215a	20101013.151152	20101013.154745	8	0.013328	60	0	60-180	60	173	GapExp	0	290	2	0	0	distractor	1	427	787	205572	13.328	12.888	13.773
ProbeTrack11	10	ProbeTrack	11.2	SCS215a	20101013.151152	20101013.154751	8	0.013328	60	10	60-180	60	129	GapExp	0	291	2	45	1	target	1	400	800	206372	13.328	12.845	13.814
ProbeTrack11	10	ProbeTrack	11.2	SCS215a	20101013.151152	20101013.154758	8	0.013328	60	10	60-180	60	134	GapExp	0	292	2	45	1	distractor	0	374	-1000	205372	13.328	12.838	13.847
ProbeTrack11	10	ProbeTrack	11.2	SCS215a	20101013.151152	20101013.154806	8	0.013328	60	0	60-180	60	162	GapExp	0	293	2	1	1	target	1	374	813	206185	13.328	13.310	13.348
ProbeTrack11	10	ProbeTrack	11.2	SCS215a	20101013.151152	20101013.154813	8	0.013328	60	10	60-180	60	61	GapExp	0	294	2	0	1	target	1	667	667	206852	13.328	13.002	13.652
ProbeTrack11	10	ProbeTrack	11.2	SCS215a	20101013.151152	20101013.154818	8	0.013328	60	0	60-180	60	73	GapExp	0	295	2	1	1	target	1	440	780	207632	13.328	13.101	13.347
ProbeTrack11	10	ProbeTrack	11.2	SCS215a	20101013.151152	20101013.154823	8	0.013328	60	0	60-180	60	89	GapExp	0	296	2	1	1	target	1	360	820	208452	13.328	13.309	13.358
ProbeTrack11	10	ProbeTrack	11.2	SCS215a	20101013.151152	20101013.154828	8	0.013328	60	0	60-180	60	132	GapExp	0	297	2	0	1	target	1	347	827	209279	13.328	13.126	13.539
ProbeTrack11	10	ProbeTrack	11.2	SCS215a	20101013.151152	20101013.154834	8	0.013328	60	0	60-180	60	62	GapExp	0	298	2	45	0	distractor	1	507	747	210026	13.328	13.208	13.451
ProbeTrack11	10	ProbeTrack	11.2	SCS215a	20101013.151152	20101013.154840	8	0.013328	60	10	60-180	60	82	GapExp	0	299	2	45	1	target	1	294	853	210879	13.384	13.041	26.691
ProbeTrack11	10	ProbeTrack	11.2	SCS215a	20101013.151152	20101013.154845	8	0.013328	60	0	60-180	60	79	GapExp	0	300	2	0	0	distractor	1	587	707	211586	13.328	13.105	13.558
ProbeTrack11	10	ProbeTrack	11.2	SCS215a	20101013.151152	20101013.154851	8	0.013328	60	0	60-180	60	96	GapExp	0	301	2	1	1	target	1	400	800	212386	13.328	13.103	13.555
ProbeTrack11	10	ProbeTrack	11.2	SCS215a	20101013.151152	20101013.154938	8	0.013328	60	0	60-180	60	153	GapExp	0	302	2	45	1	target	1	360	820	213206	13.328	12.878	13.783
ProbeTrack11	10	ProbeTrack	11.2	SCS215a	20101013.151152	20101013.154945	8	0.013328	60	0	60-180	60	172	GapExp	0	303	2	0	1	target	1	440	780	213986	13.328	13.135	13.516
ProbeTrack11	10	ProbeTrack	11.2	SCS215a	20101013.151152	20101013.154951	8	0.013328	60	0	60-180	60	87	GapExp	0	304	2	45	1	target	1	374	813	214799	13.328	13.277	13.371
ProbeTrack11	10	ProbeTrack	11.2	SCS215a	20101013.151152	20101013.154957	8	0.013328	60	0	60-180	60	155	GapExp	0	305	2	0	1	target	1	467	767	215566	13.328	13.007	13.650
ProbeTrack11	10	ProbeTrack	11.2	SCS215a	20101013.151152	20101013.155003	8	0.013328	60	10	60-180	60	99	GapExp	0	306	2	45	0	distractor	1	454	773	216339	13.328	12.931	13.720
ProbeTrack11	10	ProbeTrack	11.2	SCS215a	20101013.151152	20101013.155009	8	0.013328	60	10	60-180	60	180	GapExp	0	307	2	3	0	distractor	1	347	827	217166	13.328	12.860	13.801
ProbeTrack11	10	ProbeTrack	11.2	SCS215a	20101013.151152	20101013.155016	8	0.013328	60	0	60-180	60	107	GapExp	0	308	2	45	1	target	1	547	727	217893	13.328	12.856	13.788
ProbeTrack11	10	ProbeTrack	11.2	SCS215a	20101013.151152	20101013.155022	8	0.013328	60	0	60-180	60	144	GapExp	0	309	2	0	1	target	1	440	780	218673	13.328	13.082	13.556
ProbeTrack11	10	ProbeTrack	11.2	SCS215a	20101013.151152	20101013.155028	8	0.013328	60	0	60-180	60	96	GapExp	0	310	2	3	1	target	1	494	753	219426	13.328	13.132	13.533
ProbeTrack11	10	ProbeTrack	11.2	SCS215a	20101013.151152	20101013.155033	8	0.013328	60	10	60-180	60	68	GapExp	0	311	2	45	0	target	0	374	-1000	218426	13.328	13.309	13.348
ProbeTrack11	10	ProbeTrack	11.2	SCS215a	20101013.151152	20101013.155039	8	0.013328	60	10	60-180	60	148	GapExp	0	312	2	3	1	target	1	534	733	219159	13.328	13.014	13.643
ProbeTrack11	10	ProbeTrack	11.2	SCS215a	20101013.151152	20101013.155045	8	0.013328	60	10	60-180	60	103	GapExp	0	313	2	1	0	distractor	1	480	760	219919	13.328	13.307	13.350
ProbeTrack11	10	ProbeTrack	11.2	SCS215a	20101013.151152	20101013.155051	8	0.013328	60	10	60-180	60	158	GapExp	0	314	2	3	1	target	1	400	800	220719	13.328	13.310	13.346
ProbeTrack11	10	ProbeTrack	11.2	SCS215a	20101013.151152	20101013.155059	8	0.013328	60	0	60-180	60	92	GapExp	0	315	2	1	1	target	1	454	773	221492	13.328	13.102	13.551
ProbeTrack11	10	ProbeTrack	11.2	SCS215a	20101013.151152	20101013.155104	8	0.013328	60	0	60-180	60	92	GapExp	0	316	2	1	1	target	1	440	780	222272	13.328	12.892	13.775
ProbeTrack11	10	ProbeTrack	11.2	SCS215a	20101013.151152	20101013.155109	8	0.013328	60	0	60-180	60	62	GapExp	0	317	2	0	1	target	1	400	800	223072	13.328	13.307	13.347
ProbeTrack11	10	ProbeTrack	11.2	SCS215a	20101013.151152	20101013.155115	8	0.013328	60	0	60-180	60	125	GapExp	0	318	2	45	0	distractor	1	480	760	223832	13.328	13.085	13.571
ProbeTrack11	10	ProbeTrack	11.2	SCS215a	20101013.151152	20101013.155121	8	0.013328	60	10	60-180	60	82	GapExp	0	319	2	0	1	target	1	467	767	224599	13.328	12.878	13.775
ProbeTrack11	10	ProbeTrack	11.2	SCS215a	20101013.151152	20101013.155126	8	0.013328	60	10	60-180	60	88	GapExp	0	320	2	0	1	distractor	0	507	-1000	223599	13.328	13.087	13.559
ProbeTrack11	10	ProbeTrack	11.2	SCS215a	20101013.151152	20101013.155132	8	0.013328	60	0	60-180	60	114	GapExp	0	321	2	3	1	target	1	467	767	224366	13.328	12.986	13.656
ProbeTrack11	10	ProbeTrack	11.2	SCS215a	20101013.151152	20101013.155137	8	0.013328	60	0	60-180	60	151	GapExp	0	322	2	0	0	distractor	1	534	733	225099	13.328	12.947	13.713
ProbeTrack11	10	ProbeTrack	11.2	SCS215a	20101013.151152	20101013.155144	8	0.013328	60	10	60-180	60	128	GapExp	0	323	2	3	0	distractor	1	427	787	225886	13.328	13.225	13.440
ProbeTrack11	10	ProbeTrack	11.2	SCS215a	20101013.151152	20101013.155150	8	0.013328	60	0	60-180	60	161	GapExp	0	324	2	1	0	distractor	1	414	793	226679	13.328	12.883	13.769
ProbeTrack11	10	ProbeTrack	11.2	SCS215a	20101013.151152	20101013.155157	8	0.013328	60	10	60-180	60	171	GapExp	0	325	2	45	0	distractor	1	587	707	227386	13.328	12.931	13.733
ProbeTrack11	10	ProbeTrack	11.2	SCS215a	20101013.151152	20101013.155204	8	0.013328	60	0	60-180	60	149	GapExp	0	326	2	0	0	distractor	1	520	740	228126	13.328	13.091	13.551
ProbeTrack11	10	ProbeTrack	11.2	SCS215a	20101013.151152	20101013.155210	8	0.013328	60	0	60-180	60	119	GapExp	0	327	2	0	0	distractor	1	600	700	228826	13.328	12.978	13.679
ProbeTrack11	10	ProbeTrack	11.2	SCS215a	20101013.151152	20101013.155216	8	0.013328	60	10	60-180	60	141	GapExp	0	328	2	45	1	target	1	374	813	229639	13.328	13.308	13.344
ProbeTrack11	10	ProbeTrack	11.2	SCS215a	20101013.151152	20101013.155225	8	0.013328	60	10	60-180	60	77	GapExp	0	329	2	1	0	distractor	1	547	727	230366	13.328	12.927	13.734
ProbeTrack11	10	ProbeTrack	11.2	SCS215a	20101013.151152	20101013.155230	8	0.013328	60	10	60-180	60	132	GapExp	0	330	2	3	0	distractor	1	414	793	231159	13.328	12.865	13.795
ProbeTrack11	10	ProbeTrack	11.2	SCS215a	20101013.151152	20101013.155236	8	0.013328	60	10	60-180	60	164	GapExp	0	331	2	1	1	target	1	454	773	231932	13.328	12.867	13.788
ProbeTrack11	10	ProbeTrack	11.2	SCS215a	20101013.151152	20101013.155304	8	0.013328	60	10	60-180	60	170	GapExp	0	332	2	0	0	distractor	1	400	800	232732	13.328	12.896	13.753
ProbeTrack11	10	ProbeTrack	11.2	SCS215a	20101013.151152	20101013.155311	8	0.013328	60	10	60-180	60	171	GapExp	0	333	2	45	1	distractor	0	480	-1000	231732	13.328	13.109	13.550
ProbeTrack11	10	ProbeTrack	11.2	SCS215a	20101013.151152	20101013.155318	8	0.013328	60	10	60-180	60	89	GapExp	0	334	2	1	1	target	1	427	787	232519	13.328	13.307	13.350
ProbeTrack11	10	ProbeTrack	11.2	SCS215a	20101013.151152	20101013.155323	8	0.013328	60	10	60-180	60	69	GapExp	0	335	2	0	1	target	1	334	833	233352	14.506	13.064	119.955
ProbeTrack11	10	ProbeTrack	11.2	SCS215a	20101013.151152	20101013.155328	8	0.013328	60	0	60-180	60	94	GapExp	0	336	2	3	0	distractor	1	454	773	234125	13.328	12.465	14.210
ProbeTrack11	10	ProbeTrack	11.2	SCS215a	20101013.151152	20101013.155334	8	0.013328	60	0	60-180	60	159	GapExp	0	337	2	3	1	target	1	400	800	234925	13.328	13.044	13.621
ProbeTrack11	10	ProbeTrack	11.2	SCS215a	20101013.151152	20101013.155340	8	0.013328	60	0	60-180	60	68	GapExp	0	338	2	45	1	target	1	347	827	235752	13.328	13.024	13.621
ProbeTrack11	10	ProbeTrack	11.2	SCS215a	20101013.151152	20101013.155345	8	0.013328	60	0	60-180	60	94	GapExp	0	339	2	0	1	target	1	347	827	236579	13.328	12.892	13.751
ProbeTrack11	10	ProbeTrack	11.2	SCS215a	20101013.151152	20101013.155350	8	0.013328	60	0	60-180	60	111	GapExp	0	340	2	0	1	target	1	374	813	237392	13.328	13.132	13.521
ProbeTrack11	10	ProbeTrack	11.2	SCS215a	20101013.151152	20101013.155356	8	0.013328	60	10	60-180	60	132	GapExp	0	341	2	3	1	target	1	387	807	238199	13.328	13.309	13.348
ProbeTrack11	10	ProbeTrack	11.2	SCS215a	20101013.151152	20101013.155402	8	0.013328	60	0	60-180	60	63	GapExp	0	342	2	45	1	target	1	467	767	238966	13.328	13.000	13.659
ProbeTrack11	10	ProbeTrack	11.2	SCS215a	20101013.151152	20101013.155407	8	0.013328	60	10	60-180	60	64	GapExp	0	343	2	3	1	target	1	347	827	239793	13.328	13.113	13.555
ProbeTrack11	10	ProbeTrack	11.2	SCS215a	20101013.151152	20101013.155412	8	0.013328	60	10	60-180	60	101	GapExp	0	344	2	1	1	distractor	0	400	-1000	238793	13.328	13.043	13.611
ProbeTrack11	10	ProbeTrack	11.2	SCS215a	20101013.151152	20101013.155418	8	0.013328	60	10	60-180	60	179	GapExp	0	345	2	0	1	target	1	347	827	239620	13.328	12.875	13.762
ProbeTrack11	10	ProbeTrack	11.2	SCS215a	20101013.151152	20101013.155424	8	0.013328	60	0	60-180	60	146	GapExp	0	346	2	45	1	target	1	427	787	240407	13.328	12.849	13.791
ProbeTrack11	10	ProbeTrack	11.2	SCS215a	20101013.151152	20101013.155431	8	0.013328	60	10	60-180	60	158	GapExp	0	347	2	3	1	target	1	360	820	241227	13.328	13.308	13.347
ProbeTrack11	10	ProbeTrack	11.2	SCS215a	20101013.151152	20101013.155438	8	0.013328	60	0	60-180	60	165	GapExp	0	348	2	1	1	target	1	520	740	241967	13.328	12.981	13.679
ProbeTrack11	10	ProbeTrack	11.2	SCS215a	20101013.151152	20101013.155444	8	0.013328	60	0	60-180	60	71	GapExp	0	349	2	45	0	distractor	1	613	694	242661	13.328	12.911	13.748
ProbeTrack11	10	ProbeTrack	11.2	SCS215a	20101013.151152	20101013.155450	8	0.013328	60	10	60-180	60	123	GapExp	0	350	2	0	1	target	1	374	813	243474	13.328	13.106	13.551
ProbeTrack11	10	ProbeTrack	11.2	SCS215a	20101013.151152	20101013.155455	8	0.013328	60	10	60-180	60	70	GapExp	0	351	2	0	0	distractor	1	494	753	244227	13.328	12.870	13.791
ProbeTrack11	10	ProbeTrack	11.2	SCS215a	20101013.151152	20101013.155513	8	0.013328	60	0	60-180	60	93	GapExp	0	352	2	3	1	target	1	440	780	245007	13.910	13.198	133.273
ProbeTrack11	10	ProbeTrack	11.2	SCS215a	20101013.151152	20101013.155518	8	0.013328	60	10	60-180	60	159	GapExp	0	353	2	3	1	target	1	454	773	245780	13.328	13.136	13.531
ProbeTrack11	10	ProbeTrack	11.2	SCS215a	20101013.151152	20101013.155525	8	0.013328	60	0	60-180	60	160	GapExp	0	354	2	1	0	distractor	1	520	740	246520	13.328	13.067	13.585
ProbeTrack11	10	ProbeTrack	11.2	SCS215a	20101013.151152	20101013.155531	8	0.013328	60	10	60-180	60	124	GapExp	0	355	2	3	1	target	1	467	767	247287	13.328	13.112	13.551
ProbeTrack11	10	ProbeTrack	11.2	SCS215a	20101013.151152	20101013.155537	8	0.013328	60	0	60-180	60	99	GapExp	0	356	2	1	1	target	1	374	813	248100	13.328	13.083	13.561
ProbeTrack11	10	ProbeTrack	11.2	SCS215a	20101013.151152	20101013.155542	8	0.013328	60	0	60-180	60	149	GapExp	0	357	2	45	1	target	1	454	773	248873	13.328	12.905	13.754
ProbeTrack11	10	ProbeTrack	11.2	SCS215a	20101013.151152	20101013.155549	8	0.013328	60	0	60-180	60	168	GapExp	0	358	2	45	1	target	1	387	807	249680	13.328	13.103	13.551
ProbeTrack11	10	ProbeTrack	11.2	SCS215a	20101013.151152	20101013.155556	8	0.013328	60	0	60-180	60	127	GapExp	0	359	2	45	0	distractor	1	853	574	250254	13.328	13.091	13.566
ProbeTrack11	10	ProbeTrack	11.2	SCS215a	20101013.151152	20101013.155603	8	0.013328	60	0	60-180	60	101	GapExp	0	360	2	0	0	distractor	1	707	647	250901	13.328	12.974	13.695
ProbeTrack11	10	ProbeTrack	11.2	SCS215a	20101013.151152	20101013.155608	8	0.013328	60	10	60-180	60	137	GapExp	0	361	2	45	1	distractor	0	522	-1000	249901	13.328	12.909	13.741
ProbeTrack11	10	ProbeTrack	11.2	SCS215a	20101013.151152	20101013.155616	8	0.013328	60	10	60-180	60	80	GapExp	0	362	2	45	1	target	1	414	793	250694	13.328	13.164	13.491
ProbeTrack11	10	ProbeTrack	11.2	SCS215a	20101013.151152	20101013.155622	8	0.013328	60	0	60-180	60	81	GapExp	0	363	2	3	1	target	1	374	813	251507	13.328	13.279	13.381
ProbeTrack11	10	ProbeTrack	11.2	SCS215a	20101013.151152	20101013.155627	8	0.013328	60	0	60-180	60	136	GapExp	0	364	2	3	1	target	1	387	807	252314	13.328	12.938	13.719
ProbeTrack11	10	ProbeTrack	11.2	SCS215a	20101013.151152	20101013.155633	8	0.013328	60	10	60-180	60	144	GapExp	0	365	2	1	0	distractor	1	467	767	253081	13.328	12.949	13.706
ProbeTrack11	10	ProbeTrack	11.2	SCS215a	20101013.151152	20101013.155639	8	0.013328	60	10	60-180	60	93	GapExp	0	366	2	3	1	target	1	520	740	253821	13.328	13.255	13.405
ProbeTrack11	10	ProbeTrack	11.2	SCS215a	20101013.151152	20101013.155645	8	0.013328	60	10	60-180	60	81	GapExp	0	367	2	45	0	distractor	1	454	773	254594	13.328	12.907	13.743
ProbeTrack11	10	ProbeTrack	11.2	SCS215a	20101013.151152	20101013.155651	8	0.013328	60	10	60-180	60	164	GapExp	0	368	2	45	1	distractor	0	400	-1000	253594	13.328	13.093	13.566
ProbeTrack11	10	ProbeTrack	11.2	SCS215a	20101013.151152	20101013.155659	8	0.013328	60	0	60-180	60	67	GapExp	0	369	2	1	0	distractor	1	640	680	254274	13.328	13.298	13.360
ProbeTrack11	10	ProbeTrack	11.2	SCS215a	20101013.151152	20101013.155704	8	0.013328	60	0	60-180	60	172	GapExp	0	370	2	0	0	distractor	1	467	767	255041	13.328	12.922	13.757
ProbeTrack11	10	ProbeTrack	11.2	SCS215a	20101013.151152	20101013.155711	8	0.013328	60	10	60-180	60	126	GapExp	0	371	2	1	0	target	0	360	-1000	254041	13.328	13.307	13.346
ProbeTrack11	10	ProbeTrack	11.2	SCS215a	20101013.151152	20101013.155717	8	0.013328	60	0	60-180	60	124	GapExp	0	372	2	3	0	distractor	1	467	767	254808	13.328	13.303	13.347
ProbeTrack11	10	ProbeTrack	11.2	SCS215a	20101013.151152	20101013.155724	8	0.013328	60	0	60-180	60	61	GapExp	0	373	2	1	1	target	1	427	787	255595	13.328	13.015	13.653
ProbeTrack11	10	ProbeTrack	11.2	SCS215a	20101013.151152	20101013.155729	8	0.013328	60	0	60-180	60	64	GapExp	0	374	2	1	1	target	1	454	773	256368	13.328	13.301	13.346
ProbeTrack11	10	ProbeTrack	11.2	SCS215a	20101013.151152	20101013.155733	8	0.013328	60	10	60-180	60	153	GapExp	0	375	2	3	1	target	1	560	720	257088	13.328	13.303	13.349
ProbeTrack11	10	ProbeTrack	11.2	SCS215a	20101013.151152	20101013.155740	8	0.013328	60	10	60-180	60	88	GapExp	0	376	2	1	0	distractor	1	440	780	257868	13.328	12.861	13.784
ProbeTrack11	10	ProbeTrack	11.2	SCS215a	20101013.151152	20101013.155745	8	0.013328	60	0	60-180	60	175	GapExp	0	377	2	1	0	distractor	1	520	740	258608	13.328	13.280	13.358
ProbeTrack11	10	ProbeTrack	11.2	SCS215a	20101013.151152	20101013.155752	8	0.013328	60	10	60-180	60	154	GapExp	0	378	2	3	0	distractor	1	867	567	259175	13.328	13.033	13.607
ProbeTrack11	10	ProbeTrack	11.2	SCS215a	20101013.151152	20101013.155759	8	0.013328	60	0	60-180	60	163	GapExp	0	379	2	3	0	distractor	1	440	780	259955	13.327	12.977	13.680
ProbeTrack11	10	ProbeTrack	11.2	SCS215a	20101013.151152	20101013.155805	8	0.013328	60	0	60-180	60	137	GapExp	0	380	2	45	0	distractor	1	374	813	260768	13.328	13.103	13.547
ProbeTrack11	10	ProbeTrack	11.2	SCS215a	20101013.151152	20101013.155812	8	0.013328	60	0	60-180	60	97	GapExp	0	381	2	3	0	distractor	1	800	600	261368	13.328	12.939	13.736
ProbeTrack11	10	ProbeTrack	11.2	SCS215a	20101013.151152	20101013.155818	8	0.013328	60	10	60-180	60	177	GapExp	0	382	2	45	0	distractor	1	427	787	262155	13.328	12.905	13.744
ProbeTrack11	10	ProbeTrack	11.2	SCS215a	20101013.151152	20101013.155825	8	0.013328	60	10	60-180	60	172	GapExp	0	383	2	1	1	target	1	467	767	262922	13.328	13.099	13.551
ProbeTrack11	10	ProbeTrack	11.2	SCS215a	20101013.151152	20101013.155832	8	0.013328	60	10	60-180	60	120	GapExp	0	384	2	0	0	distractor	1	440	780	263702	13.328	13.099	13.560
ProbeTrack11	10	ProbeTrack	11.2	SCS215a	20101013.151152	20101013.155837	8	0.013328	60	10	60-180	60	87	GapExp	0	385	2	0	1	target	1	427	787	264489	13.328	13.307	13.347
ProbeTrack11	10	ProbeTrack	11.2	SCS215a	20101013.151152	20101013.155843	8	0.013328	60	0	60-180	60	120	GapExp	0	386	2	1	0	distractor	1	507	747	265236	13.328	12.839	13.806
ProbeTrack11	10	ProbeTrack	11.2	SCS215a	20101013.151152	20101013.155849	8	0.013328	60	10	60-180	60	144	GapExp	0	387	2	0	0	distractor	1	374	813	266049	13.328	13.309	13.345
ProbeTrack11	10	ProbeTrack	11.2	SCS215a	20101013.151152	20101013.155855	8	0.013328	60	10	60-180	60	82	GapExp	0	388	2	1	0	distractor	1	387	807	266856	13.328	12.925	13.722
ProbeTrack11	10	ProbeTrack	11.2	SCS215a	20101013.151152	20101013.155900	8	0.013328	60	0	60-180	60	133	GapExp	0	389	2	1	0	distractor	1	347	827	267683	13.328	13.104	13.543
ProbeTrack11	10	ProbeTrack	11.2	SCS215a	20101013.151152	20101013.155907	8	0.013328	60	0	60-180	60	144	GapExp	0	390	2	0	1	target	1	427	787	268470	13.328	13.303	13.346
ProbeTrack11	10	ProbeTrack	11.2	SCS215a	20101013.151152	20101013.155931	8	0.013328	60	0	60-180	60	84	GapExp	0	391	2	1	0	distractor	1	427	787	269257	13.328	13.307	13.345
ProbeTrack11	10	ProbeTrack	11.2	SCS215a	20101013.151152	20101013.155936	8	0.013328	60	0	60-180	60	127	GapExp	0	392	2	0	1	target	1	427	787	270044	13.328	13.060	13.589
ProbeTrack11	10	ProbeTrack	11.2	SCS215a	20101013.151152	20101013.155942	8	0.013328	60	0	60-180	60	106	GapExp	0	393	2	0	1	target	1	387	807	270851	13.328	13.104	13.558
ProbeTrack11	10	ProbeTrack	11.2	SCS215a	20101013.151152	20101013.155947	8	0.013328	60	10	60-180	60	64	GapExp	0	394	2	0	0	distractor	1	360	820	271671	13.328	12.893	13.766
ProbeTrack11	10	ProbeTrack	11.2	SCS215a	20101013.151152	20101013.155952	8	0.013328	60	10	60-180	60	153	GapExp	0	395	2	3	0	distractor	1	360	820	272491	13.328	13.216	13.436
ProbeTrack11	10	ProbeTrack	11.2	SCS215a	20101013.151152	20101013.155959	8	0.013328	60	0	60-180	60	177	GapExp	0	396	2	45	1	target	1	440	780	273271	13.328	12.986	13.676
ProbeTrack11	10	ProbeTrack	11.2	SCS215a	20101013.151152	20101013.160006	8	0.013328	60	10	60-180	60	116	GapExp	0	397	2	1	0	distractor	1	320	840	274111	13.328	13.236	13.435
ProbeTrack11	10	ProbeTrack	11.2	SCS215a	20101013.151152	20101013.160011	8	0.013328	60	0	60-180	60	151	GapExp	0	398	2	1	0	distractor	1	547	727	274838	13.328	12.918	13.749
ProbeTrack11	10	ProbeTrack	11.2	SCS215a	20101013.151152	20101013.160018	8	0.013328	60	0	60-180	60	150	GapExp	0	399	2	3	0	distractor	1	374	813	275651	13.328	13.114	13.547
ProbeTrack11	10	ProbeTrack	11.2	SCS215a	20101013.151152	20101013.160024	8	0.013328	60	10	60-180	60	164	GapExp	0	400	2	1	1	target	1	374	813	276464	13.328	12.873	13.769
ProbeTrack11	10	ProbeTrack	11.2	SCS215a	20101013.151152	20101013.160030	8	0.013328	60	0	60-180	60	88	GapExp	0	401	2	1	1	target	1	387	807	277271	13.328	13.015	13.647
ProbeTrack11	10	ProbeTrack	11.2	SCS215a	20101013.151152	20101013.160035	8	0.013328	60	10	60-180	60	65	GapExp	0	402	2	0	0	distractor	1	360	820	278091	13.328	13.056	13.590
ProbeTrack11	10	ProbeTrack	11.2	SCS215a	20101013.151152	20101013.160040	8	0.013328	60	10	60-180	60	158	GapExp	0	403	2	45	0	target	0	387	-1000	277091	13.328	12.946	13.725
ProbeTrack11	10	ProbeTrack	11.2	SCS215a	20101013.151152	20101013.160047	8	0.013328	60	0	60-180	60	121	GapExp	0	404	2	45	0	distractor	1	480	760	277851	13.328	12.933	13.714
ProbeTrack11	10	ProbeTrack	11.2	SCS215a	20101013.151152	20101013.160053	8	0.013328	60	10	60-180	60	90	GapExp	0	405	2	1	0	distractor	1	494	753	278604	13.328	13.109	13.553
ProbeTrack11	10	ProbeTrack	11.2	SCS215a	20101013.151152	20101013.160059	8	0.013328	60	0	60-180	60	105	GapExp	0	406	2	3	1	target	1	387	807	279411	13.328	13.097	13.554
ProbeTrack11	10	ProbeTrack	11.2	SCS215a	20101013.151152	20101013.160104	8	0.013328	60	10	60-180	60	141	GapExp	0	407	2	45	0	target	0	360	-1000	278411	13.328	12.950	13.713
ProbeTrack11	10	ProbeTrack	11.2	SCS215a	20101013.151152	20101013.160111	8	0.013328	60	0	60-180	60	115	GapExp	0	408	2	0	0	distractor	1	613	694	279105	13.328	12.913	13.750
ProbeTrack11	10	ProbeTrack	11.2	SCS215a	20101013.151152	20101013.160117	8	0.013328	60	0	60-180	60	178	GapExp	0	409	2	0	1	target	1	400	800	279905	13.328	12.863	13.787
ProbeTrack11	10	ProbeTrack	11.2	SCS215a	20101013.151152	20101013.160123	8	0.013328	60	10	60-180	60	123	GapExp	0	410	2	1	0	distractor	1	440	780	280685	13.328	12.840	13.801
ProbeTrack11	10	ProbeTrack	11.2	SCS215a	20101013.151152	20101013.160129	8	0.013328	60	0	60-180	60	67	GapExp	0	411	2	0	1	target	1	440	780	281465	13.328	12.972	13.681
ProbeTrack11	10	ProbeTrack	11.2	SCS215a	20101013.151152	20101013.160134	8	0.013328	60	0	60-180	60	93	GapExp	0	412	2	1	0	distractor	1	574	713	282178	13.390	12.956	26.427
ProbeTrack11	10	ProbeTrack	11.2	SCS215a	20101013.151152	20101013.160139	8	0.013328	60	10	60-180	60	103	GapExp	0	413	2	3	0	distractor	1	400	800	282978	13.387	13.305	26.439
ProbeTrack11	10	ProbeTrack	11.2	SCS215a	20101013.151152	20101013.160145	8	0.013328	60	10	60-180	60	147	GapExp	0	414	2	0	0	distractor	1	534	733	283711	13.328	12.859	13.791
ProbeTrack11	10	ProbeTrack	11.2	SCS215a	20101013.151152	20101013.160152	8	0.013328	60	10	60-180	60	119	GapExp	0	415	2	3	0	distractor	1	387	807	284518	13.328	13.301	13.350
ProbeTrack11	10	ProbeTrack	11.2	SCS215a	20101013.151152	20101013.160157	8	0.013328	60	10	60-180	60	171	GapExp	0	416	2	45	0	distractor	1	387	807	285325	13.328	13.297	13.347
ProbeTrack11	10	ProbeTrack	11.2	SCS215a	20101013.151152	20101013.160206	8	0.013328	60	0	60-180	60	166	GapExp	0	417	2	1	1	distractor	0	480	-1000	284325	13.328	12.858	13.795
ProbeTrack11	10	ProbeTrack	11.2	SCS215a	20101013.151152	20101013.160212	8	0.013328	60	0	60-180	60	110	GapExp	0	418	2	1	1	target	1	440	780	285105	13.328	12.891	13.769
ProbeTrack11	10	ProbeTrack	11.2	SCS215a	20101013.151152	20101013.160218	8	0.013328	60	0	60-180	60	155	GapExp	0	419	2	1	1	target	1	427	787	285892	13.328	12.978	13.679
ProbeTrack11	10	ProbeTrack	11.2	SCS215a	20101013.151152	20101013.160224	8	0.013328	60	10	60-180	60	84	GapExp	0	420	2	3	1	target	1	454	773	286665	13.328	13.112	13.556
ProbeTrack11	10	ProbeTrack	11.2	SCS215a	20101013.151152	20101013.160229	8	0.013328	60	0	60-180	60	147	GapExp	0	421	2	1	0	distractor	1	534	733	287398	13.328	13.097	13.571
ProbeTrack11	10	ProbeTrack	11.2	SCS215a	20101013.151152	20101013.160236	8	0.013328	60	10	60-180	60	167	GapExp	0	422	2	3	1	target	1	574	713	288111	13.328	13.108	13.547
ProbeTrack11	10	ProbeTrack	11.2	SCS215a	20101013.151152	20101013.160242	8	0.013328	60	0	60-180	60	90	GapExp	0	423	2	3	0	distractor	1	467	767	288878	13.328	12.844	13.807
ProbeTrack11	10	ProbeTrack	11.2	SCS215a	20101013.151152	20101013.160248	8	0.013328	60	10	60-180	60	95	GapExp	0	424	2	0	1	distractor	0	520	-1000	287878	13.328	13.263	13.393
ProbeTrack11	10	ProbeTrack	11.2	SCS215a	20101013.151152	20101013.160253	8	0.013328	60	10	60-180	60	87	GapExp	0	425	2	1	0	distractor	1	414	793	288671	13.325	12.877	13.345
ProbeTrack11	10	ProbeTrack	11.2	SCS215a	20101013.151152	20101013.160259	8	0.013328	60	10	60-180	60	135	GapExp	0	426	2	0	0	distractor	1	387	807	289478	13.328	13.104	13.554
ProbeTrack11	10	ProbeTrack	11.2	SCS215a	20101013.151152	20101013.160305	8	0.013328	60	10	60-180	60	156	GapExp	0	427	2	45	1	target	1	320	840	290318	13.328	13.097	13.544
ProbeTrack11	10	ProbeTrack	11.2	SCS215a	20101013.151152	20101013.160312	8	0.013328	60	0	60-180	60	164	GapExp	0	428	2	1	0	distractor	1	587	707	291025	13.328	12.872	13.778
ProbeTrack11	10	ProbeTrack	11.2	SCS215a	20101013.151152	20101013.160319	8	0.013328	60	10	60-180	60	141	GapExp	0	429	2	0	1	target	1	360	820	291845	13.328	12.978	13.694
ProbeTrack11	10	ProbeTrack	11.2	SCS215a	20101013.151152	20101013.160325	8	0.013328	60	0	60-180	60	61	GapExp	0	430	2	3	1	target	1	443	779	292624	13.328	12.883	13.778
ProbeTrack11	10	ProbeTrack	11.2	SCS215a	20101013.151152	20101013.160330	8	0.013328	60	0	60-180	60	149	GapExp	0	431	2	3	1	target	1	347	827	293451	13.328	12.913	13.739
ProbeTrack11	10	ProbeTrack	11.2	SCS215a	20101013.151152	20101013.160336	8	0.013328	60	10	60-180	60	150	GapExp	0	432	2	0	1	target	1	320	840	294291	13.328	12.900	13.747
ProbeTrack11	10	ProbeTrack	11.2	SCS215a	20101013.151152	20101013.160342	8	0.013328	60	10	60-180	60	163	GapExp	0	433	2	3	1	target	1	547	727	295018	13.328	13.101	13.553
ProbeTrack11	10	ProbeTrack	11.2	SCS215a	20101013.151152	20101013.160348	8	0.013328	60	10	60-180	60	150	GapExp	0	434	2	0	0	distractor	1	480	760	295778	13.328	12.875	13.783
ProbeTrack11	10	ProbeTrack	11.2	SCS215a	20101013.151152	20101013.160354	8	0.013328	60	0	60-180	60	73	GapExp	0	435	2	0	1	target	1	520	740	296518	13.328	12.902	13.756
ProbeTrack11	10	ProbeTrack	11.2	SCS215a	20101013.151152	20101013.160400	8	0.013328	60	10	60-180	60	131	GapExp	0	436	2	45	0	distractor	1	480	760	297278	13.328	12.866	13.791
ProbeTrack11	10	ProbeTrack	11.2	SCS215a	20101013.151152	20101013.160407	8	0.013328	60	10	60-180	60	171	GapExp	0	437	2	1	1	target	1	400	800	298078	13.328	13.120	13.534
ProbeTrack11	10	ProbeTrack	11.2	SCS215a	20101013.151152	20101013.160413	8	0.013328	60	10	60-180	60	149	GapExp	0	438	2	3	0	distractor	1	360	820	298898	13.328	12.976	13.675
ProbeTrack11	10	ProbeTrack	11.2	SCS215a	20101013.151152	20101013.160420	8	0.013328	60	10	60-180	60	104	GapExp	0	439	2	45	0	distractor	1	494	753	299651	13.328	12.932	13.718
ProbeTrack11	10	ProbeTrack	11.2	SCS215a	20101013.151152	20101013.160426	8	0.013328	60	10	60-180	60	118	GapExp	0	440	2	1	1	target	1	347	827	300478	13.328	12.958	13.352
ProbeTrack11	10	ProbeTrack	11.2	SCS215a	20101013.151152	20101013.160432	8	0.013328	60	0	60-180	60	69	GapExp	0	441	2	3	1	target	1	360	820	301298	13.328	12.882	13.767
ProbeTrack11	10	ProbeTrack	11.2	SCS215a	20101013.151152	20101013.160437	8	0.013328	60	10	60-180	60	142	GapExp	0	442	2	0	1	target	1	334	833	302131	13.328	12.939	13.718
ProbeTrack11	10	ProbeTrack	11.2	SCS215a	20101013.151152	20101013.160443	8	0.013328	60	0	60-180	60	166	GapExp	0	443	2	0	1	target	1	400	800	302931	13.328	12.897	13.762
ProbeTrack11	10	ProbeTrack	11.2	SCS215a	20101013.151152	20101013.160449	8	0.013328	60	10	60-180	60	98	GapExp	0	444	2	3	1	target	1	307	847	303778	13.328	13.310	13.352
ProbeTrack11	10	ProbeTrack	11.2	SCS215a	20101013.151152	20101013.160454	8	0.013328	60	10	60-180	60	119	GapExp	0	445	2	45	1	target	1	374	813	304591	13.328	12.968	13.672
ProbeTrack11	10	ProbeTrack	11.2	SCS215a	20101013.151152	20101013.160501	8	0.013328	60	0	60-180	60	148	GapExp	0	446	2	3	0	distractor	1	467	767	305358	13.328	12.874	13.793
ProbeTrack11	10	ProbeTrack	11.2	SCS215a	20101013.151152	20101013.160507	8	0.013328	60	10	60-180	60	101	GapExp	0	447	2	0	1	target	1	360	820	306178	13.328	12.850	13.816
ProbeTrack11	10	ProbeTrack	11.2	SCS215a	20101013.151152	20101013.160512	8	0.013328	60	0	60-180	60	98	GapExp	0	448	2	0	0	distractor	1	480	760	306938	13.328	13.094	13.554
ProbeTrack11	10	ProbeTrack	11.2	SCS215a	20101013.151152	20101013.160518	8	0.013328	60	0	60-180	60	73	GapExp	0	449	2	0	0	distractor	1	640	680	307618	13.328	12.898	13.749
ProbeTrack11	10	ProbeTrack	11.2	SCS215a	20101013.151152	20101013.160523	8	0.013328	60	10	60-180	60	73	GapExp	0	450	2	1	1	target	1	427	787	308405	13.328	12.857	13.797
