exp	sub	code	rev	comp	runtime	trialtime	nstim	refreshdur	cuedur	gapdur	gapOnsetRange	durPostProbe	gapOnsetTime	blocktype	prac	trial	ntargets	soa	probeTarget	resp	acc	rt	pts	tpts	meanFrameDur	minFrameDur	maxFrameDur
ProbeTrack11	13	ProbeTrack	11.2	SCS215a	20101025.125708	20101025.125745	8	0.013328	60	0	60-180	60	116	NoGap	1	1	2	45	0	distractor	1	8104	0	0	13.328	13.156	13.465
ProbeTrack11	13	ProbeTrack	11.2	SCS215a	20101025.125708	20101025.125807	8	0.013328	60	0	60-180	60	160	NoGap	1	2	2	3	0	distractor	1	1826	87	87	13.328	13.293	13.366
ProbeTrack11	13	ProbeTrack	11.2	SCS215a	20101025.125708	20101025.125817	8	0.013328	60	0	60-180	60	66	NoGap	1	3	2	3	1	target	1	1093	454	541	13.393	13.293	26.654
ProbeTrack11	13	ProbeTrack	11.2	SCS215a	20101025.125708	20101025.125831	8	0.013328	60	0	60-180	60	99	NoGap	1	4	2	0	0	distractor	1	827	587	1128	13.328	13.038	13.585
ProbeTrack11	13	ProbeTrack	11.2	SCS215a	20101025.125708	20101025.125838	8	0.013328	60	0	60-180	60	101	NoGap	1	5	2	1	1	target	1	640	680	1808	13.328	13.293	13.363
ProbeTrack11	13	ProbeTrack	11.2	SCS215a	20101025.125708	20101025.125844	8	0.013328	60	0	60-180	60	66	NoGap	1	6	2	1	1	distractor	0	507	-1000	808	13.328	13.292	13.362
ProbeTrack11	13	ProbeTrack	11.2	SCS215a	20101025.125708	20101025.125850	8	0.013328	60	0	60-180	60	153	NoGap	1	7	2	1	1	target	1	680	660	1468	13.328	13.293	13.374
ProbeTrack11	13	ProbeTrack	11.2	SCS215a	20101025.125708	20101025.125857	8	0.013328	60	0	60-180	60	119	NoGap	1	8	2	1	0	target	0	960	-1000	468	13.328	13.289	13.366
ProbeTrack11	13	ProbeTrack	11.2	SCS215a	20101025.125708	20101025.125903	8	0.013328	60	0	60-180	60	64	NoGap	1	9	2	1	1	distractor	0	1320	-1000	-532	13.328	13.293	13.367
ProbeTrack11	13	ProbeTrack	11.2	SCS215a	20101025.125708	20101025.125910	8	0.013328	60	0	60-180	60	82	NoGap	1	10	2	3	0	distractor	1	1147	427	-105	13.328	13.293	13.363
ProbeTrack11	13	ProbeTrack	11.2	SCS215a	20101025.125708	20101025.125916	8	0.013328	60	0	60-180	60	102	NoGap	1	11	2	1	0	distractor	1	1200	400	295	13.328	13.292	13.363
ProbeTrack11	13	ProbeTrack	11.2	SCS215a	20101025.125708	20101025.125923	8	0.013328	60	0	60-180	60	122	NoGap	1	12	2	0	0	distractor	1	560	720	1015	13.328	13.293	13.363
ProbeTrack11	13	ProbeTrack	11.2	SCS215a	20101025.125708	20101025.125930	8	0.013328	60	0	60-180	60	97	NoGap	1	13	2	3	1	distractor	0	1013	-1000	15	13.498	13.068	26.651
ProbeTrack11	13	ProbeTrack	11.2	SCS215a	20101025.125708	20101025.125936	8	0.013328	60	0	60-180	60	68	NoGap	1	14	2	0	0	distractor	1	747	627	642	13.328	13.293	13.363
ProbeTrack11	13	ProbeTrack	11.2	SCS215a	20101025.125708	20101025.125942	8	0.013328	60	0	60-180	60	114	NoGap	1	15	2	3	1	target	1	587	707	1349	13.328	13.288	13.363
ProbeTrack11	13	ProbeTrack	11.2	SCS215a	20101025.125708	20101025.125948	8	0.013328	60	0	60-180	60	93	NoGap	1	16	2	0	1	target	1	907	547	1896	13.328	13.293	13.363
ProbeTrack11	13	ProbeTrack	11.2	SCS215a	20101025.125708	20101025.125954	8	0.013328	60	0	60-180	60	157	NoGap	1	17	2	0	1	target	1	933	534	2430	13.328	13.292	13.363
ProbeTrack11	13	ProbeTrack	11.2	SCS215a	20101025.125708	20101025.130001	8	0.013328	60	0	60-180	60	78	NoGap	1	18	2	3	0	distractor	1	880	560	2990	13.328	13.293	13.363
ProbeTrack11	13	ProbeTrack	11.2	SCS215a	20101025.125708	20101025.130007	8	0.013328	60	0	60-180	60	130	NoGap	1	19	2	45	1	distractor	0	880	-1000	1990	13.500	12.952	26.690
ProbeTrack11	13	ProbeTrack	11.2	SCS215a	20101025.125708	20101025.130014	8	0.013328	60	0	60-180	60	111	NoGap	1	20	2	3	0	distractor	1	680	660	2650	13.328	13.293	13.363
ProbeTrack11	13	ProbeTrack	11.2	SCS215a	20101025.125708	20101025.130020	8	0.013328	60	0	60-180	60	86	NoGap	1	21	2	45	1	target	1	627	687	3337	13.328	13.293	13.364
ProbeTrack11	13	ProbeTrack	11.2	SCS215a	20101025.125708	20101025.130026	8	0.013328	60	0	60-180	60	111	NoGap	1	22	2	1	0	distractor	1	680	660	3997	13.328	13.292	13.363
ProbeTrack11	13	ProbeTrack	11.2	SCS215a	20101025.125708	20101025.130032	8	0.013328	60	0	60-180	60	163	NoGap	1	23	2	1	1	target	1	733	634	4631	13.328	13.280	13.366
ProbeTrack11	13	ProbeTrack	11.2	SCS215a	20101025.125708	20101025.130039	8	0.013328	60	0	60-180	60	174	NoGap	1	24	2	0	0	distractor	1	707	647	5278	13.328	13.293	13.363
ProbeTrack11	13	ProbeTrack	11.2	SCS215a	20101025.125708	20101025.130046	8	0.013328	60	0	60-180	60	66	NoGap	1	25	2	1	0	distractor	1	987	507	5785	13.328	13.251	13.371
ProbeTrack11	13	ProbeTrack	11.2	SCS215a	20101025.125708	20101025.130052	8	0.013328	60	0	60-180	60	152	NoGap	1	26	2	3	1	target	1	1173	414	6199	13.328	13.293	13.363
ProbeTrack11	13	ProbeTrack	11.2	SCS215a	20101025.125708	20101025.130100	8	0.013328	60	0	60-180	60	106	NoGap	1	27	2	45	0	distractor	1	720	640	6839	13.328	13.293	13.363
ProbeTrack11	13	ProbeTrack	11.2	SCS215a	20101025.125708	20101025.130106	8	0.013328	60	0	60-180	60	151	NoGap	1	28	2	0	0	distractor	1	600	700	7539	13.328	13.138	13.551
ProbeTrack11	13	ProbeTrack	11.2	SCS215a	20101025.125708	20101025.130113	8	0.013328	60	0	60-180	60	170	NoGap	1	29	2	3	0	distractor	1	614	693	8232	13.373	13.293	26.620
ProbeTrack11	13	ProbeTrack	11.2	SCS215a	20101025.125708	20101025.130120	8	0.013328	60	0	60-180	60	89	NoGap	1	30	2	45	1	distractor	0	3026	-1000	7232	13.328	13.290	13.363
ProbeTrack11	13	ProbeTrack	11.2	SCS215a	20101025.125708	20101025.130129	8	0.013328	60	0	60-180	60	62	NoGap	1	31	2	45	0	distractor	1	654	673	7905	13.328	13.239	13.449
ProbeTrack11	13	ProbeTrack	11.2	SCS215a	20101025.125708	20101025.130135	8	0.013328	60	0	60-180	60	120	NoGap	1	32	2	0	1	target	1	454	773	8678	13.328	13.293	13.363
ProbeTrack11	13	ProbeTrack	11.2	SCS215a	20101025.125708	20101025.130141	8	0.013328	60	0	60-180	60	178	NoGap	1	33	2	1	0	target	0	827	-1000	7678	13.328	13.263	13.363
ProbeTrack11	13	ProbeTrack	11.2	SCS215a	20101025.125708	20101025.130149	8	0.013328	60	0	60-180	60	93	NoGap	1	34	2	0	1	distractor	0	507	-1000	6678	13.328	13.293	13.363
ProbeTrack11	13	ProbeTrack	11.2	SCS215a	20101025.125708	20101025.130155	8	0.013328	60	0	60-180	60	128	NoGap	1	35	2	45	1	target	1	813	594	7272	13.371	13.293	26.625
ProbeTrack11	13	ProbeTrack	11.2	SCS215a	20101025.125708	20101025.130202	8	0.013328	60	0	60-180	60	82	NoGap	1	36	2	45	1	target	1	560	720	7992	13.328	13.185	13.437
ProbeTrack11	13	ProbeTrack	11.2	SCS215a	20101025.125708	20101025.130208	8	0.013328	60	0	60-180	60	86	NoGap	1	37	2	0	1	distractor	0	480	-1000	6992	13.328	13.293	13.363
ProbeTrack11	13	ProbeTrack	11.2	SCS215a	20101025.125708	20101025.130214	8	0.013328	60	0	60-180	60	106	NoGap	1	38	2	45	0	distractor	1	720	640	7632	13.328	13.293	13.363
ProbeTrack11	13	ProbeTrack	11.2	SCS215a	20101025.125708	20101025.130220	8	0.013328	60	0	60-180	60	91	NoGap	1	39	2	45	0	distractor	1	574	713	8345	13.328	13.293	13.363
ProbeTrack11	13	ProbeTrack	11.2	SCS215a	20101025.125708	20101025.130227	8	0.013328	60	0	60-180	60	165	NoGap	1	40	2	3	1	target	1	507	747	9092	13.328	13.293	13.363
ProbeTrack11	13	ProbeTrack	11.2	SCS215a	20101025.130302	20101025.130317	8	0.013328	60	0	60-180	60	113	GapPrac	1	1	2	1	0	distractor	1	2279	0	9092	13.328	13.104	13.544
ProbeTrack11	13	ProbeTrack	11.2	SCS215a	20101025.130302	20101025.130326	8	0.013328	60	0	60-180	60	65	GapPrac	1	2	2	0	1	target	1	987	507	9599	13.328	13.306	13.349
ProbeTrack11	13	ProbeTrack	11.2	SCS215a	20101025.130302	20101025.130333	8	0.013328	60	10	60-180	60	159	GapPrac	1	3	2	1	0	distractor	1	2000	0	9599	13.328	13.096	13.554
ProbeTrack11	13	ProbeTrack	11.2	SCS215a	20101025.130302	20101025.130341	8	0.013328	60	10	60-180	60	92	GapPrac	1	4	2	1	1	target	1	1466	267	9866	13.328	12.865	13.792
ProbeTrack11	13	ProbeTrack	11.2	SCS215a	20101025.130302	20101025.130353	8	0.013328	60	10	60-180	60	108	GapPrac	1	5	2	45	0	distractor	1	655	673	10539	13.374	12.870	27.093
ProbeTrack11	13	ProbeTrack	11.2	SCS215a	20101025.130302	20101025.130400	8	0.013328	60	0	60-180	60	102	GapPrac	1	6	2	45	1	target	1	1973	14	10553	13.328	12.836	13.815
ProbeTrack11	13	ProbeTrack	11.2	SCS215a	20101025.130302	20101025.130408	8	0.013328	60	0	60-180	60	159	GapPrac	1	7	2	45	0	distractor	1	574	713	11266	13.328	13.301	13.353
ProbeTrack11	13	ProbeTrack	11.2	SCS215a	20101025.130302	20101025.130416	8	0.013328	60	0	60-180	60	69	GapPrac	1	8	2	0	0	distractor	1	813	594	11860	13.328	12.882	13.804
ProbeTrack11	13	ProbeTrack	11.2	SCS215a	20101025.130302	20101025.130422	8	0.013328	60	10	60-180	60	179	GapPrac	1	9	2	0	0	distractor	1	707	647	12507	13.328	12.841	13.819
ProbeTrack11	13	ProbeTrack	11.2	SCS215a	20101025.130302	20101025.130429	8	0.013328	60	10	60-180	60	140	GapPrac	1	10	2	1	1	target	1	920	540	13047	13.328	12.858	13.819
ProbeTrack11	13	ProbeTrack	11.2	SCS215a	20101025.130302	20101025.130436	8	0.013328	60	10	60-180	60	142	GapPrac	1	11	2	1	0	target	0	654	-1000	12047	13.376	12.884	26.630
ProbeTrack11	13	ProbeTrack	11.2	SCS215a	20101025.130302	20101025.130442	8	0.013328	60	10	60-180	60	170	GapPrac	1	12	2	45	1	distractor	0	1400	-1000	11047	13.328	13.019	13.627
ProbeTrack11	13	ProbeTrack	11.2	SCS215a	20101025.130302	20101025.130451	8	0.013328	60	10	60-180	60	131	GapPrac	1	13	2	0	1	target	1	907	547	11594	13.328	13.308	13.349
ProbeTrack11	13	ProbeTrack	11.2	SCS215a	20101025.130302	20101025.130459	8	0.013328	60	0	60-180	60	163	GapPrac	1	14	2	1	0	distractor	1	680	660	12254	13.328	13.035	13.633
ProbeTrack11	13	ProbeTrack	11.2	SCS215a	20101025.130302	20101025.130506	8	0.013328	60	0	60-180	60	150	GapPrac	1	15	2	1	1	target	1	1373	314	12568	13.328	12.836	13.805
ProbeTrack11	13	ProbeTrack	11.2	SCS215a	20101025.130302	20101025.130514	8	0.013328	60	0	60-180	60	98	GapPrac	1	16	2	3	0	distractor	1	587	707	13275	13.328	12.850	13.800
ProbeTrack11	13	ProbeTrack	11.2	SCS215a	20101025.130302	20101025.130519	8	0.013328	60	10	60-180	60	109	GapPrac	1	17	2	3	1	distractor	0	1360	-1000	12275	13.328	12.879	13.779
ProbeTrack11	13	ProbeTrack	11.2	SCS215a	20101025.130302	20101025.130526	8	0.013328	60	0	60-180	60	124	GapPrac	1	18	2	3	1	target	1	627	687	12962	13.328	12.863	13.780
ProbeTrack11	13	ProbeTrack	11.2	SCS215a	20101025.130302	20101025.130532	8	0.013328	60	10	60-180	60	66	GapPrac	1	19	2	3	0	distractor	1	427	787	13749	13.328	12.934	13.711
ProbeTrack11	13	ProbeTrack	11.2	SCS215a	20101025.130302	20101025.130538	8	0.013328	60	0	60-180	60	163	GapPrac	1	20	2	0	1	target	1	574	713	14462	13.328	12.950	13.715
ProbeTrack11	13	ProbeTrack	11.2	SCS215a	20101025.130615	20101025.130653	8	0.013328	60	10	60-180	60	179	GapExp	1	1	2	3	1	target	1	773	614	15076	13.328	12.832	13.823
ProbeTrack11	13	ProbeTrack	11.2	SCS215a	20101025.130615	20101025.130701	8	0.013328	60	10	60-180	60	95	GapExp	1	2	2	1	1	target	1	613	694	15770	13.328	13.308	13.347
ProbeTrack11	13	ProbeTrack	11.2	SCS215a	20101025.130615	20101025.130707	8	0.013328	60	10	60-180	60	77	GapExp	0	3	2	3	1	target	1	400	800	16570	13.328	13.180	13.459
ProbeTrack11	13	ProbeTrack	11.2	SCS215a	20101025.130615	20101025.130712	8	0.013328	60	10	60-180	60	150	GapExp	0	4	2	0	1	distractor	0	827	-1000	15570	13.328	12.872	13.781
ProbeTrack11	13	ProbeTrack	11.2	SCS215a	20101025.130615	20101025.130719	8	0.013328	60	0	60-180	60	178	GapExp	0	5	2	1	0	distractor	1	787	607	16177	13.328	13.309	13.348
ProbeTrack11	13	ProbeTrack	11.2	SCS215a	20101025.130615	20101025.130726	8	0.013328	60	0	60-180	60	172	GapExp	0	6	2	3	0	distractor	1	547	727	16904	13.328	12.851	13.798
ProbeTrack11	13	ProbeTrack	11.2	SCS215a	20101025.130615	20101025.130733	8	0.013328	60	0	60-180	60	120	GapExp	0	7	2	45	1	target	1	507	747	17651	13.328	13.303	13.348
ProbeTrack11	13	ProbeTrack	11.2	SCS215a	20101025.130615	20101025.130740	8	0.013328	60	10	60-180	60	71	GapExp	0	8	2	3	1	target	1	733	634	18285	13.328	12.998	13.666
ProbeTrack11	13	ProbeTrack	11.2	SCS215a	20101025.130615	20101025.130745	8	0.013328	60	10	60-180	60	179	GapExp	0	9	2	0	0	distractor	1	680	660	18945	13.328	12.907	13.751
ProbeTrack11	13	ProbeTrack	11.2	SCS215a	20101025.130615	20101025.130753	8	0.013328	60	0	60-180	60	74	GapExp	0	10	2	3	1	target	1	867	567	19512	13.328	12.867	13.778
ProbeTrack11	13	ProbeTrack	11.2	SCS215a	20101025.130615	20101025.130758	8	0.013328	60	0	60-180	60	72	GapExp	0	11	2	3	1	distractor	0	467	-1000	18512	13.328	12.963	13.684
ProbeTrack11	13	ProbeTrack	11.2	SCS215a	20101025.130615	20101025.130803	8	0.013328	60	0	60-180	60	141	GapExp	0	12	2	45	0	distractor	1	693	654	19166	13.328	12.890	13.766
ProbeTrack11	13	ProbeTrack	11.2	SCS215a	20101025.130615	20101025.130810	8	0.013328	60	0	60-180	60	153	GapExp	0	13	2	45	0	distractor	1	640	680	19846	13.328	12.879	13.692
ProbeTrack11	13	ProbeTrack	11.2	SCS215a	20101025.130615	20101025.130817	8	0.013328	60	0	60-180	60	96	GapExp	0	14	2	45	0	distractor	1	1320	340	20186	13.328	13.095	13.554
ProbeTrack11	13	ProbeTrack	11.2	SCS215a	20101025.130615	20101025.130824	8	0.013328	60	10	60-180	60	163	GapExp	0	15	2	1	1	target	1	480	760	20946	13.328	13.106	13.553
ProbeTrack11	13	ProbeTrack	11.2	SCS215a	20101025.130615	20101025.130831	8	0.013328	60	10	60-180	60	139	GapExp	0	16	2	45	1	target	1	560	720	21666	13.328	13.087	13.569
ProbeTrack11	13	ProbeTrack	11.2	SCS215a	20101025.130615	20101025.130838	8	0.013328	60	10	60-180	60	165	GapExp	0	17	2	1	0	target	0	614	-1000	20666	13.328	12.865	13.795
ProbeTrack11	13	ProbeTrack	11.2	SCS215a	20101025.130615	20101025.130844	8	0.013328	60	0	60-180	60	107	GapExp	0	18	2	1	1	target	1	547	727	21393	13.387	12.867	26.654
ProbeTrack11	13	ProbeTrack	11.2	SCS215a	20101025.130615	20101025.130850	8	0.013328	60	0	60-180	60	63	GapExp	0	19	2	45	0	distractor	1	747	627	22020	13.328	12.856	13.801
ProbeTrack11	13	ProbeTrack	11.2	SCS215a	20101025.130615	20101025.130856	8	0.013328	60	10	60-180	60	63	GapExp	0	20	2	0	1	distractor	0	760	-1000	21020	13.328	12.880	13.351
ProbeTrack11	13	ProbeTrack	11.2	SCS215a	20101025.130615	20101025.130902	8	0.013328	60	10	60-180	60	69	GapExp	0	21	2	0	1	target	1	400	800	21820	13.328	12.979	13.664
ProbeTrack11	13	ProbeTrack	11.2	SCS215a	20101025.130615	20101025.130907	8	0.013328	60	0	60-180	60	88	GapExp	0	22	2	45	1	target	1	534	733	22553	13.701	13.040	39.978
ProbeTrack11	13	ProbeTrack	11.2	SCS215a	20101025.130615	20101025.130913	8	0.013328	60	0	60-180	60	62	GapExp	0	23	2	0	1	target	1	867	567	23120	13.328	13.214	13.428
ProbeTrack11	13	ProbeTrack	11.2	SCS215a	20101025.130615	20101025.130919	8	0.013328	60	10	60-180	60	165	GapExp	0	24	2	3	0	target	0	294	-1000	22120	13.328	13.056	13.797
ProbeTrack11	13	ProbeTrack	11.2	SCS215a	20101025.130615	20101025.130925	8	0.013328	60	10	60-180	60	109	GapExp	0	25	2	1	0	distractor	1	694	653	22773	13.328	13.002	13.678
ProbeTrack11	13	ProbeTrack	11.2	SCS215a	20101025.130615	20101025.130931	8	0.013328	60	0	60-180	60	81	GapExp	0	26	2	0	0	distractor	1	2039	0	22773	13.328	13.305	13.353
ProbeTrack11	13	ProbeTrack	11.2	SCS215a	20101025.130615	20101025.130938	8	0.013328	60	0	60-180	60	115	GapExp	0	27	2	45	1	target	1	1493	254	23027	13.328	13.065	13.593
ProbeTrack11	13	ProbeTrack	11.2	SCS215a	20101025.130615	20101025.130946	8	0.013328	60	10	60-180	60	161	GapExp	0	28	2	1	1	target	1	774	613	23640	13.415	13.066	26.805
ProbeTrack11	13	ProbeTrack	11.2	SCS215a	20101025.130615	20101025.130954	8	0.013328	60	10	60-180	60	142	GapExp	0	29	2	3	0	target	0	707	-1000	22640	13.328	13.308	13.347
ProbeTrack11	13	ProbeTrack	11.2	SCS215a	20101025.130615	20101025.131001	8	0.013328	60	10	60-180	60	115	GapExp	0	30	2	45	1	distractor	0	507	-1000	21640	13.328	13.308	13.351
ProbeTrack11	13	ProbeTrack	11.2	SCS215a	20101025.130615	20101025.131007	8	0.013328	60	0	60-180	60	99	GapExp	0	31	2	1	1	target	1	613	694	22334	13.328	12.932	13.736
ProbeTrack11	13	ProbeTrack	11.2	SCS215a	20101025.130615	20101025.131013	8	0.013328	60	10	60-180	60	174	GapExp	0	32	2	45	0	distractor	1	760	620	22954	13.328	12.864	13.788
ProbeTrack11	13	ProbeTrack	11.2	SCS215a	20101025.130615	20101025.131021	8	0.013328	60	10	60-180	60	131	GapExp	0	33	2	3	1	target	1	454	773	23727	13.328	13.308	13.344
ProbeTrack11	13	ProbeTrack	11.2	SCS215a	20101025.130615	20101025.131027	8	0.013328	60	10	60-180	60	121	GapExp	0	34	2	45	1	target	1	467	767	24494	13.328	12.911	13.718
ProbeTrack11	13	ProbeTrack	11.2	SCS215a	20101025.130615	20101025.131033	8	0.013328	60	10	60-180	60	140	GapExp	0	35	2	45	1	distractor	0	613	-1000	23494	13.328	13.004	13.651
ProbeTrack11	13	ProbeTrack	11.2	SCS215a	20101025.130615	20101025.131040	8	0.013328	60	0	60-180	60	122	GapExp	0	36	2	1	1	target	1	853	574	24068	13.328	13.029	13.637
ProbeTrack11	13	ProbeTrack	11.2	SCS215a	20101025.130615	20101025.131046	8	0.013328	60	10	60-180	60	79	GapExp	0	37	2	45	1	target	1	334	833	24901	13.328	12.901	13.756
ProbeTrack11	13	ProbeTrack	11.2	SCS215a	20101025.130615	20101025.131059	8	0.013328	60	0	60-180	60	86	GapExp	0	38	2	1	0	target	0	587	-1000	23901	13.328	12.850	13.797
ProbeTrack11	13	ProbeTrack	11.2	SCS215a	20101025.130615	20101025.131104	8	0.013328	60	10	60-180	60	174	GapExp	0	39	2	1	0	distractor	1	560	720	24621	13.328	13.140	13.528
ProbeTrack11	13	ProbeTrack	11.2	SCS215a	20101025.130615	20101025.131111	8	0.013328	60	0	60-180	60	95	GapExp	0	40	2	3	1	target	1	574	713	25334	13.328	12.899	13.758
ProbeTrack11	13	ProbeTrack	11.2	SCS215a	20101025.130615	20101025.131117	8	0.013328	60	10	60-180	60	142	GapExp	0	41	2	45	1	target	1	627	687	26021	13.328	12.974	13.677
ProbeTrack11	13	ProbeTrack	11.2	SCS215a	20101025.130615	20101025.131124	8	0.013328	60	10	60-180	60	112	GapExp	0	42	2	45	0	distractor	1	400	800	26821	13.328	12.919	13.720
ProbeTrack11	13	ProbeTrack	11.2	SCS215a	20101025.130615	20101025.131130	8	0.013328	60	0	60-180	60	82	GapExp	0	43	2	45	0	distractor	1	600	700	27521	13.328	13.184	13.455
ProbeTrack11	13	ProbeTrack	11.2	SCS215a	20101025.130615	20101025.131136	8	0.013328	60	10	60-180	60	177	GapExp	0	44	2	0	0	distractor	1	507	747	28268	13.328	13.094	13.558
ProbeTrack11	13	ProbeTrack	11.2	SCS215a	20101025.130615	20101025.131143	8	0.013328	60	0	60-180	60	105	GapExp	0	45	2	45	1	target	1	640	680	28948	13.328	13.066	13.573
ProbeTrack11	13	ProbeTrack	11.2	SCS215a	20101025.130615	20101025.131149	8	0.013328	60	0	60-180	60	67	GapExp	0	46	2	3	0	distractor	1	653	674	29622	13.328	13.007	13.654
ProbeTrack11	13	ProbeTrack	11.2	SCS215a	20101025.130615	20101025.131155	8	0.013328	60	10	60-180	60	172	GapExp	0	47	2	3	0	distractor	1	760	620	30242	13.328	12.895	13.763
ProbeTrack11	13	ProbeTrack	11.2	SCS215a	20101025.130615	20101025.131202	8	0.013328	60	10	60-180	60	167	GapExp	0	48	2	45	1	target	1	414	793	31035	13.328	12.940	13.726
ProbeTrack11	13	ProbeTrack	11.2	SCS215a	20101025.130615	20101025.131209	8	0.013328	60	0	60-180	60	120	GapExp	0	49	2	45	1	target	1	374	813	31848	13.326	12.905	13.743
ProbeTrack11	13	ProbeTrack	11.2	SCS215a	20101025.130615	20101025.131215	8	0.013328	60	0	60-180	60	132	GapExp	0	50	2	1	0	distractor	1	773	614	32462	13.328	13.106	13.562
ProbeTrack11	13	ProbeTrack	11.2	SCS215a	20101025.130615	20101025.131222	8	0.013328	60	0	60-180	60	101	GapExp	0	51	2	0	1	target	1	440	780	33242	13.328	12.890	13.779
ProbeTrack11	13	ProbeTrack	11.2	SCS215a	20101025.130615	20101025.131227	8	0.013328	60	0	60-180	60	96	GapExp	0	52	2	0	1	distractor	0	427	-1000	32242	13.328	12.854	13.787
ProbeTrack11	13	ProbeTrack	11.2	SCS215a	20101025.130615	20101025.131232	8	0.013328	60	0	60-180	60	107	GapExp	0	53	2	3	0	distractor	1	1493	254	32496	13.328	12.963	13.709
ProbeTrack11	13	ProbeTrack	11.2	SCS215a	20101025.130615	20101025.131239	8	0.013328	60	0	60-180	60	140	GapExp	0	54	2	0	1	target	1	414	793	33289	13.328	13.261	13.381
ProbeTrack11	13	ProbeTrack	11.2	SCS215a	20101025.130615	20101025.131245	8	0.013328	60	10	60-180	60	150	GapExp	0	55	2	0	1	distractor	0	1253	-1000	32289	13.328	12.965	13.691
ProbeTrack11	13	ProbeTrack	11.2	SCS215a	20101025.130615	20101025.131254	8	0.013328	60	0	60-180	60	105	GapExp	0	56	2	3	1	target	1	587	707	32996	13.328	13.152	13.510
ProbeTrack11	13	ProbeTrack	11.2	SCS215a	20101025.130615	20101025.131300	8	0.013328	60	10	60-180	60	165	GapExp	0	57	2	0	0	distractor	1	613	694	33690	13.328	12.860	13.795
ProbeTrack11	13	ProbeTrack	11.2	SCS215a	20101025.130615	20101025.131307	8	0.013328	60	10	60-180	60	152	GapExp	0	58	2	3	1	target	1	374	813	34503	13.328	12.870	13.789
ProbeTrack11	13	ProbeTrack	11.2	SCS215a	20101025.130615	20101025.131314	8	0.013328	60	10	60-180	60	84	GapExp	0	59	2	3	0	distractor	1	627	687	35190	13.328	13.086	13.560
ProbeTrack11	13	ProbeTrack	11.2	SCS215a	20101025.130615	20101025.131320	8	0.013328	60	0	60-180	60	96	GapExp	0	60	2	45	0	distractor	1	724	638	35828	13.328	12.945	13.711
ProbeTrack11	13	ProbeTrack	11.2	SCS215a	20101025.130615	20101025.131326	8	0.013328	60	10	60-180	60	86	GapExp	0	61	2	0	1	target	1	907	547	36375	13.328	13.103	13.552
ProbeTrack11	13	ProbeTrack	11.2	SCS215a	20101025.130615	20101025.131332	8	0.013328	60	10	60-180	60	180	GapExp	0	62	2	1	1	target	1	294	853	37228	13.328	13.096	13.559
ProbeTrack11	13	ProbeTrack	11.2	SCS215a	20101025.130615	20101025.131339	8	0.013328	60	10	60-180	60	166	GapExp	0	63	2	1	0	target	0	613	-1000	36228	13.328	12.856	13.782
ProbeTrack11	13	ProbeTrack	11.2	SCS215a	20101025.130615	20101025.131346	8	0.013328	60	0	60-180	60	82	GapExp	0	64	2	0	1	distractor	0	1306	-1000	35228	13.328	12.869	13.792
ProbeTrack11	13	ProbeTrack	11.2	SCS215a	20101025.130615	20101025.131353	8	0.013328	60	0	60-180	60	130	GapExp	0	65	2	1	1	target	1	960	520	35748	13.328	13.100	13.554
ProbeTrack11	13	ProbeTrack	11.2	SCS215a	20101025.130615	20101025.131400	8	0.013328	60	0	60-180	60	141	GapExp	0	66	2	1	0	distractor	1	640	680	36428	13.328	13.304	13.353
ProbeTrack11	13	ProbeTrack	11.2	SCS215a	20101025.130615	20101025.131406	8	0.013328	60	10	60-180	60	161	GapExp	0	67	2	3	1	target	1	334	833	37261	13.328	13.290	13.359
ProbeTrack11	13	ProbeTrack	11.2	SCS215a	20101025.130615	20101025.131413	8	0.013328	60	0	60-180	60	67	GapExp	0	68	2	0	1	target	1	587	707	37968	13.328	13.310	13.346
ProbeTrack11	13	ProbeTrack	11.2	SCS215a	20101025.130615	20101025.131418	8	0.013328	60	10	60-180	60	173	GapExp	0	69	2	45	0	distractor	1	827	587	38555	13.328	13.308	13.347
ProbeTrack11	13	ProbeTrack	11.2	SCS215a	20101025.130615	20101025.131426	8	0.013328	60	10	60-180	60	94	GapExp	0	70	2	0	1	distractor	0	813	-1000	37555	13.328	13.193	13.469
ProbeTrack11	13	ProbeTrack	11.2	SCS215a	20101025.130615	20101025.131432	8	0.013328	60	0	60-180	60	121	GapExp	0	71	2	3	1	target	1	547	727	38282	13.328	13.307	13.348
ProbeTrack11	13	ProbeTrack	11.2	SCS215a	20101025.130615	20101025.131438	8	0.013328	60	0	60-180	60	91	GapExp	0	72	2	0	1	target	1	600	700	38982	13.328	13.098	13.559
ProbeTrack11	13	ProbeTrack	11.2	SCS215a	20101025.130615	20101025.131444	8	0.013328	60	10	60-180	60	139	GapExp	0	73	2	1	1	target	1	640	680	39662	13.328	12.895	13.755
ProbeTrack11	13	ProbeTrack	11.2	SCS215a	20101025.130615	20101025.131450	8	0.013328	60	10	60-180	60	171	GapExp	0	74	2	45	0	target	0	440	-1000	38662	13.328	12.985	13.683
ProbeTrack11	13	ProbeTrack	11.2	SCS215a	20101025.130615	20101025.131457	8	0.013328	60	10	60-180	60	79	GapExp	0	75	2	3	1	distractor	0	614	-1000	37662	13.328	13.086	13.562
ProbeTrack11	13	ProbeTrack	11.2	SCS215a	20101025.130615	20101025.131503	8	0.013328	60	0	60-180	60	161	GapExp	0	76	2	45	1	distractor	0	387	-1000	36662	13.328	13.107	13.542
ProbeTrack11	13	ProbeTrack	11.2	SCS215a	20101025.130615	20101025.131512	8	0.013328	60	0	60-180	60	156	GapExp	0	77	2	45	0	distractor	1	454	773	37435	13.328	12.900	13.766
ProbeTrack11	13	ProbeTrack	11.2	SCS215a	20101025.130615	20101025.131519	8	0.013328	60	0	60-180	60	174	GapExp	0	78	2	45	0	target	0	587	-1000	36435	13.328	13.047	13.623
ProbeTrack11	13	ProbeTrack	11.2	SCS215a	20101025.130615	20101025.131526	8	0.013328	60	0	60-180	60	118	GapExp	0	79	2	3	1	target	1	840	580	37015	13.328	13.308	13.347
ProbeTrack11	13	ProbeTrack	11.2	SCS215a	20101025.130615	20101025.131533	8	0.013328	60	10	60-180	60	164	GapExp	0	80	2	45	1	target	1	427	787	37802	13.328	13.100	13.551
ProbeTrack11	13	ProbeTrack	11.2	SCS215a	20101025.130615	20101025.131540	8	0.013328	60	0	60-180	60	172	GapExp	0	81	2	1	1	target	1	627	687	38489	13.329	13.108	13.773
ProbeTrack11	13	ProbeTrack	11.2	SCS215a	20101025.130615	20101025.131547	8	0.013328	60	10	60-180	60	88	GapExp	0	82	2	0	1	target	1	574	713	39202	13.328	13.098	13.561
ProbeTrack11	13	ProbeTrack	11.2	SCS215a	20101025.130615	20101025.131552	8	0.013328	60	10	60-180	60	111	GapExp	0	83	2	1	0	target	0	614	-1000	38202	13.328	12.930	13.710
ProbeTrack11	13	ProbeTrack	11.2	SCS215a	20101025.130615	20101025.131559	8	0.013328	60	10	60-180	60	119	GapExp	0	84	2	0	0	target	0	720	-1000	37202	13.379	12.869	26.657
ProbeTrack11	13	ProbeTrack	11.2	SCS215a	20101025.130615	20101025.131605	8	0.013328	60	0	60-180	60	147	GapExp	0	85	2	1	1	target	1	480	760	37962	13.328	12.917	13.739
ProbeTrack11	13	ProbeTrack	11.2	SCS215a	20101025.130615	20101025.131611	8	0.013328	60	0	60-180	60	111	GapExp	0	86	2	1	1	target	1	520	740	38702	13.328	12.857	13.806
ProbeTrack11	13	ProbeTrack	11.2	SCS215a	20101025.130615	20101025.131617	8	0.013328	60	10	60-180	60	93	GapExp	0	87	2	1	0	distractor	1	1053	474	39176	13.328	13.297	13.358
ProbeTrack11	13	ProbeTrack	11.2	SCS215a	20101025.130615	20101025.131623	8	0.013328	60	0	60-180	60	110	GapExp	0	88	2	0	1	target	1	667	667	39843	13.328	13.086	13.566
ProbeTrack11	13	ProbeTrack	11.2	SCS215a	20101025.130615	20101025.131629	8	0.013328	60	10	60-180	60	85	GapExp	0	89	2	1	1	target	1	307	847	40690	13.328	13.305	13.347
ProbeTrack11	13	ProbeTrack	11.2	SCS215a	20101025.130615	20101025.131635	8	0.013328	60	10	60-180	60	81	GapExp	0	90	2	3	0	distractor	1	747	627	41317	13.624	13.090	39.985
ProbeTrack11	13	ProbeTrack	11.2	SCS215a	20101025.130615	20101025.131641	8	0.013328	60	10	60-180	60	140	GapExp	0	91	2	3	0	target	0	774	-1000	40317	14.403	12.851	40.004
ProbeTrack11	13	ProbeTrack	11.2	SCS215a	20101025.130615	20101025.131648	8	0.013328	60	0	60-180	60	159	GapExp	0	92	2	0	0	distractor	1	507	747	41064	13.328	12.872	13.784
ProbeTrack11	13	ProbeTrack	11.2	SCS215a	20101025.130615	20101025.131654	8	0.013328	60	0	60-180	60	66	GapExp	0	93	2	45	1	target	1	640	680	41744	13.328	12.862	13.816
ProbeTrack11	13	ProbeTrack	11.2	SCS215a	20101025.130615	20101025.131700	8	0.013328	60	0	60-180	60	70	GapExp	0	94	2	45	1	target	1	613	694	42438	13.328	13.267	13.387
ProbeTrack11	13	ProbeTrack	11.2	SCS215a	20101025.130615	20101025.131706	8	0.013328	60	0	60-180	60	97	GapExp	0	95	2	45	0	distractor	1	627	687	43125	13.328	12.848	13.817
ProbeTrack11	13	ProbeTrack	11.2	SCS215a	20101025.130615	20101025.131712	8	0.013328	60	10	60-180	60	107	GapExp	0	96	2	45	1	target	1	414	793	43918	13.328	12.858	13.792
ProbeTrack11	13	ProbeTrack	11.2	SCS215a	20101025.130615	20101025.131718	8	0.013328	60	0	60-180	60	68	GapExp	0	97	2	1	0	distractor	1	627	687	44605	13.328	12.845	13.810
ProbeTrack11	13	ProbeTrack	11.2	SCS215a	20101025.130615	20101025.131723	8	0.013328	60	10	60-180	60	138	GapExp	0	98	2	1	0	distractor	1	454	773	45378	13.328	13.117	13.551
ProbeTrack11	13	ProbeTrack	11.2	SCS215a	20101025.130615	20101025.131730	8	0.013328	60	10	60-180	60	164	GapExp	0	99	2	45	0	target	0	614	-1000	44378	13.329	12.880	13.774
ProbeTrack11	13	ProbeTrack	11.2	SCS215a	20101025.130615	20101025.131737	8	0.013328	60	0	60-180	60	61	GapExp	0	100	2	3	0	distractor	1	707	647	45025	13.328	12.883	13.763
ProbeTrack11	13	ProbeTrack	11.2	SCS215a	20101025.130615	20101025.131748	8	0.013328	60	10	60-180	60	104	GapExp	0	101	2	45	1	target	1	427	787	45812	13.328	12.907	13.763
ProbeTrack11	13	ProbeTrack	11.2	SCS215a	20101025.130615	20101025.131755	8	0.013328	60	0	60-180	60	120	GapExp	0	102	2	45	1	target	1	467	767	46579	13.328	12.879	13.773
ProbeTrack11	13	ProbeTrack	11.2	SCS215a	20101025.130615	20101025.131801	8	0.013328	60	10	60-180	60	139	GapExp	0	103	2	3	0	target	0	334	-1000	45579	13.328	13.106	13.549
ProbeTrack11	13	ProbeTrack	11.2	SCS215a	20101025.130615	20101025.131807	8	0.013328	60	0	60-180	60	149	GapExp	0	104	2	1	1	target	1	627	687	46266	13.328	13.089	13.563
ProbeTrack11	13	ProbeTrack	11.2	SCS215a	20101025.130615	20101025.131814	8	0.013328	60	10	60-180	60	129	GapExp	0	105	2	1	0	distractor	1	1200	400	46666	13.328	13.096	13.557
ProbeTrack11	13	ProbeTrack	11.2	SCS215a	20101025.130615	20101025.131821	8	0.013328	60	0	60-180	60	122	GapExp	0	106	2	0	0	target	0	560	-1000	45666	13.328	13.095	13.566
ProbeTrack11	13	ProbeTrack	11.2	SCS215a	20101025.130615	20101025.131827	8	0.013328	60	10	60-180	60	158	GapExp	0	107	2	3	1	target	1	494	753	46419	13.328	13.103	13.550
ProbeTrack11	13	ProbeTrack	11.2	SCS215a	20101025.130615	20101025.131833	8	0.013328	60	10	60-180	60	118	GapExp	0	108	2	0	0	distractor	1	907	547	46966	13.328	13.309	13.347
ProbeTrack11	13	ProbeTrack	11.2	SCS215a	20101025.130615	20101025.131840	8	0.013328	60	10	60-180	60	123	GapExp	0	109	2	1	0	target	0	920	-1000	45966	13.328	12.859	13.814
ProbeTrack11	13	ProbeTrack	11.2	SCS215a	20101025.130615	20101025.131846	8	0.013328	60	10	60-180	60	112	GapExp	0	110	2	3	0	distractor	1	480	760	46726	13.328	13.028	13.638
ProbeTrack11	13	ProbeTrack	11.2	SCS215a	20101025.130615	20101025.131852	8	0.013328	60	10	60-180	60	176	GapExp	0	111	2	0	0	distractor	1	840	580	47306	13.328	13.075	13.579
ProbeTrack11	13	ProbeTrack	11.2	SCS215a	20101025.130615	20101025.131859	8	0.013328	60	10	60-180	60	75	GapExp	0	112	2	1	1	target	1	853	574	47880	13.328	13.162	13.496
ProbeTrack11	13	ProbeTrack	11.2	SCS215a	20101025.130615	20101025.131905	8	0.013328	60	10	60-180	60	123	GapExp	0	113	2	1	0	target	0	1067	-1000	46880	13.328	12.997	13.652
ProbeTrack11	13	ProbeTrack	11.2	SCS215a	20101025.130615	20101025.131911	8	0.013328	60	10	60-180	60	135	GapExp	0	114	2	0	0	distractor	1	494	753	47633	13.328	13.099	13.559
ProbeTrack11	13	ProbeTrack	11.2	SCS215a	20101025.130615	20101025.131918	8	0.013328	60	0	60-180	60	68	GapExp	0	115	2	3	0	target	0	800	-1000	46633	13.328	13.008	13.639
ProbeTrack11	13	ProbeTrack	11.2	SCS215a	20101025.130615	20101025.131923	8	0.013328	60	10	60-180	60	175	GapExp	0	116	2	45	0	distractor	1	1067	467	47100	13.328	12.891	13.757
ProbeTrack11	13	ProbeTrack	11.2	SCS215a	20101025.130615	20101025.131931	8	0.013328	60	0	60-180	60	67	GapExp	0	117	2	3	1	target	1	2466	0	47100	13.328	13.032	13.617
ProbeTrack11	13	ProbeTrack	11.2	SCS215a	20101025.130615	20101025.131938	8	0.013328	60	10	60-180	60	72	GapExp	0	118	2	45	0	target	0	614	-1000	46100	13.328	13.108	13.553
ProbeTrack11	13	ProbeTrack	11.2	SCS215a	20101025.130615	20101025.131944	8	0.013328	60	10	60-180	60	88	GapExp	0	119	2	1	0	distractor	1	787	607	46707	13.328	9.823	16.835
ProbeTrack11	13	ProbeTrack	11.2	SCS215a	20101025.130615	20101025.131951	8	0.013328	60	0	60-180	60	124	GapExp	0	120	2	0	1	target	1	547	727	47434	13.326	12.962	13.348
ProbeTrack11	13	ProbeTrack	11.2	SCS215a	20101025.130615	20101025.131957	8	0.013328	60	0	60-180	60	68	GapExp	0	121	2	45	1	target	1	547	727	48161	13.328	13.304	13.347
ProbeTrack11	13	ProbeTrack	11.2	SCS215a	20101025.130615	20101025.132002	8	0.013328	60	10	60-180	60	79	GapExp	0	122	2	1	1	target	1	1640	180	48341	13.328	13.119	13.541
ProbeTrack11	13	ProbeTrack	11.2	SCS215a	20101025.130615	20101025.132010	8	0.013328	60	10	60-180	60	73	GapExp	0	123	2	3	1	target	1	307	847	49188	13.328	13.310	13.346
ProbeTrack11	13	ProbeTrack	11.2	SCS215a	20101025.130615	20101025.132016	8	0.013328	60	0	60-180	60	91	GapExp	0	124	2	45	0	distractor	1	693	654	49842	13.328	13.307	13.346
ProbeTrack11	13	ProbeTrack	11.2	SCS215a	20101025.130615	20101025.132022	8	0.013328	60	0	60-180	60	152	GapExp	0	125	2	45	0	distractor	1	480	760	50602	13.328	13.024	13.629
ProbeTrack11	13	ProbeTrack	11.2	SCS215a	20101025.130615	20101025.132029	8	0.013328	60	0	60-180	60	140	GapExp	0	126	2	1	1	target	1	694	653	51255	13.328	13.307	13.349
ProbeTrack11	13	ProbeTrack	11.2	SCS215a	20101025.130615	20101025.132035	8	0.013328	60	0	60-180	60	73	GapExp	0	127	2	1	0	distractor	1	773	614	51869	13.328	13.085	13.558
ProbeTrack11	13	ProbeTrack	11.2	SCS215a	20101025.130615	20101025.132041	8	0.013328	60	10	60-180	60	70	GapExp	0	128	2	0	0	distractor	1	640	680	52549	13.328	13.296	13.361
ProbeTrack11	13	ProbeTrack	11.2	SCS215a	20101025.130615	20101025.132048	8	0.013328	60	10	60-180	60	100	GapExp	0	129	2	0	1	target	1	534	733	53282	13.328	13.109	13.554
ProbeTrack11	13	ProbeTrack	11.2	SCS215a	20101025.130615	20101025.132054	8	0.013328	60	10	60-180	60	110	GapExp	0	130	2	45	1	distractor	0	454	-1000	52282	13.328	13.307	13.350
ProbeTrack11	13	ProbeTrack	11.2	SCS215a	20101025.130615	20101025.132100	8	0.013328	60	10	60-180	60	148	GapExp	0	131	2	45	1	target	1	827	587	52869	13.328	13.097	13.562
ProbeTrack11	13	ProbeTrack	11.2	SCS215a	20101025.130615	20101025.132107	8	0.013328	60	0	60-180	60	146	GapExp	0	132	2	0	1	target	1	587	707	53576	13.328	12.885	13.774
ProbeTrack11	13	ProbeTrack	11.2	SCS215a	20101025.130615	20101025.132114	8	0.013328	60	0	60-180	60	143	GapExp	0	133	2	3	0	distractor	1	640	680	54256	13.326	12.950	13.670
ProbeTrack11	13	ProbeTrack	11.2	SCS215a	20101025.130615	20101025.132120	8	0.013328	60	0	60-180	60	63	GapExp	0	134	2	3	1	target	1	507	747	55003	13.328	12.914	13.745
ProbeTrack11	13	ProbeTrack	11.2	SCS215a	20101025.130615	20101025.132125	8	0.013328	60	10	60-180	60	161	GapExp	0	135	2	0	0	distractor	1	640	680	55683	13.328	12.956	13.713
ProbeTrack11	13	ProbeTrack	11.2	SCS215a	20101025.130615	20101025.132132	8	0.013328	60	0	60-180	60	168	GapExp	0	136	2	1	1	target	1	853	574	56257	13.328	12.919	13.736
ProbeTrack11	13	ProbeTrack	11.2	SCS215a	20101025.130615	20101025.132139	8	0.013328	60	10	60-180	60	144	GapExp	0	137	2	1	1	target	1	614	693	56950	13.328	12.902	13.506
ProbeTrack11	13	ProbeTrack	11.2	SCS215a	20101025.130615	20101025.132145	8	0.013328	60	0	60-180	60	96	GapExp	0	138	2	0	1	target	1	520	740	57690	13.328	13.094	13.567
ProbeTrack11	13	ProbeTrack	11.2	SCS215a	20101025.130615	20101025.132151	8	0.013328	60	0	60-180	60	114	GapExp	0	139	2	1	1	target	1	587	707	58397	13.328	12.857	13.807
ProbeTrack11	13	ProbeTrack	11.2	SCS215a	20101025.130615	20101025.132157	8	0.013328	60	0	60-180	60	155	GapExp	0	140	2	3	1	target	1	414	793	59190	13.328	12.934	13.712
ProbeTrack11	13	ProbeTrack	11.2	SCS215a	20101025.130615	20101025.132203	8	0.013328	60	10	60-180	60	115	GapExp	0	141	2	0	0	target	0	374	-1000	58190	13.328	13.309	13.345
ProbeTrack11	13	ProbeTrack	11.2	SCS215a	20101025.130615	20101025.132209	8	0.013328	60	0	60-180	60	160	GapExp	0	142	2	45	1	target	1	494	753	58943	13.328	12.993	13.674
ProbeTrack11	13	ProbeTrack	11.2	SCS215a	20101025.130615	20101025.132216	8	0.013328	60	0	60-180	60	119	GapExp	0	143	2	0	0	distractor	1	720	640	59583	13.328	13.304	13.354
ProbeTrack11	13	ProbeTrack	11.2	SCS215a	20101025.130615	20101025.132222	8	0.013328	60	0	60-180	60	122	GapExp	0	144	2	1	0	distractor	1	693	654	60237	13.328	13.298	13.352
ProbeTrack11	13	ProbeTrack	11.2	SCS215a	20101025.130615	20101025.132228	8	0.013328	60	0	60-180	60	174	GapExp	0	145	2	3	1	target	1	893	554	60791	13.328	12.902	13.748
ProbeTrack11	13	ProbeTrack	11.2	SCS215a	20101025.130615	20101025.132235	8	0.013328	60	0	60-180	60	67	GapExp	0	146	2	1	0	distractor	1	920	540	61331	13.328	13.303	13.349
ProbeTrack11	13	ProbeTrack	11.2	SCS215a	20101025.130615	20101025.132241	8	0.013328	60	0	60-180	60	112	GapExp	0	147	2	0	1	target	1	653	674	62005	13.328	13.309	13.348
ProbeTrack11	13	ProbeTrack	11.2	SCS215a	20101025.130615	20101025.132247	8	0.013328	60	0	60-180	60	170	GapExp	0	148	2	0	0	distractor	1	640	680	62685	13.328	12.958	13.692
ProbeTrack11	13	ProbeTrack	11.2	SCS215a	20101025.130615	20101025.132254	8	0.013328	60	10	60-180	60	108	GapExp	0	149	2	1	1	target	1	307	847	63532	13.328	13.107	13.555
ProbeTrack11	13	ProbeTrack	11.2	SCS215a	20101025.130615	20101025.132259	8	0.013328	60	0	60-180	60	61	GapExp	0	150	2	3	0	distractor	1	747	627	64159	13.328	12.854	13.803
ProbeTrack11	13	ProbeTrack	11.2	SCS215a	20101025.130615	20101025.132304	8	0.013328	60	0	60-180	60	158	GapExp	0	151	2	1	1	distractor	0	1053	-1000	63159	13.328	13.306	13.347
ProbeTrack11	13	ProbeTrack	11.2	SCS215a	20101025.130615	20101025.132311	8	0.013328	60	0	60-180	60	177	GapExp	0	152	2	3	1	target	1	813	594	63753	13.328	13.307	13.347
ProbeTrack11	13	ProbeTrack	11.2	SCS215a	20101025.130615	20101025.132318	8	0.013328	60	10	60-180	60	178	GapExp	0	153	2	1	1	target	1	534	733	64486	13.328	13.308	13.347
ProbeTrack11	13	ProbeTrack	11.2	SCS215a	20101025.130615	20101025.132325	8	0.013328	60	10	60-180	60	173	GapExp	0	154	2	45	0	target	0	667	-1000	63486	13.328	13.115	13.556
ProbeTrack11	13	ProbeTrack	11.2	SCS215a	20101025.130615	20101025.132334	8	0.013328	60	0	60-180	60	74	GapExp	0	155	2	3	0	distractor	1	720	640	64126	13.328	13.007	13.556
ProbeTrack11	13	ProbeTrack	11.2	SCS215a	20101025.130615	20101025.132340	8	0.013328	60	10	60-180	60	140	GapExp	0	156	2	0	1	target	1	653	674	64800	13.328	12.894	13.749
ProbeTrack11	13	ProbeTrack	11.2	SCS215a	20101025.130615	20101025.132346	8	0.013328	60	0	60-180	60	62	GapExp	0	157	2	0	0	distractor	1	560	720	65520	13.328	12.869	13.799
ProbeTrack11	13	ProbeTrack	11.2	SCS215a	20101025.130615	20101025.132351	8	0.013328	60	0	60-180	60	103	GapExp	0	158	2	1	0	distractor	1	2119	0	65520	13.328	13.096	13.553
ProbeTrack11	13	ProbeTrack	11.2	SCS215a	20101025.130615	20101025.132358	8	0.013328	60	10	60-180	60	63	GapExp	0	159	2	0	1	target	1	853	574	66094	13.328	12.903	13.764
ProbeTrack11	13	ProbeTrack	11.2	SCS215a	20101025.130615	20101025.132404	8	0.013328	60	0	60-180	60	91	GapExp	0	160	2	3	0	distractor	1	973	514	66608	13.328	13.006	13.651
ProbeTrack11	13	ProbeTrack	11.2	SCS215a	20101025.130615	20101025.132409	8	0.013328	60	10	60-180	60	179	GapExp	0	161	2	3	0	distractor	1	680	660	67268	13.328	12.859	13.790
ProbeTrack11	13	ProbeTrack	11.2	SCS215a	20101025.130615	20101025.132416	8	0.013328	60	10	60-180	60	111	GapExp	0	162	2	3	1	target	1	414	793	68061	13.328	12.893	13.774
ProbeTrack11	13	ProbeTrack	11.2	SCS215a	20101025.130615	20101025.132422	8	0.013328	60	0	60-180	60	96	GapExp	0	163	2	1	0	distractor	1	880	560	68621	13.328	13.307	13.347
ProbeTrack11	13	ProbeTrack	11.2	SCS215a	20101025.130615	20101025.132428	8	0.013328	60	0	60-180	60	167	GapExp	0	164	2	45	1	target	1	507	747	69368	13.369	12.865	26.354
ProbeTrack11	13	ProbeTrack	11.2	SCS215a	20101025.130615	20101025.132437	8	0.013328	60	0	60-180	60	67	GapExp	0	165	2	1	1	target	1	680	660	70028	13.328	12.875	13.780
ProbeTrack11	13	ProbeTrack	11.2	SCS215a	20101025.130615	20101025.132443	8	0.013328	60	0	60-180	60	132	GapExp	0	166	2	3	1	target	1	520	740	70768	13.328	12.855	13.800
ProbeTrack11	13	ProbeTrack	11.2	SCS215a	20101025.130615	20101025.132449	8	0.013328	60	10	60-180	60	176	GapExp	0	167	2	45	1	distractor	0	667	-1000	69768	13.365	12.860	26.948
ProbeTrack11	13	ProbeTrack	11.2	SCS215a	20101025.130615	20101025.132456	8	0.013328	60	0	60-180	60	86	GapExp	0	168	2	0	0	distractor	1	787	607	70375	13.328	12.928	13.731
ProbeTrack11	13	ProbeTrack	11.2	SCS215a	20101025.130615	20101025.132502	8	0.013328	60	0	60-180	60	156	GapExp	0	169	2	45	1	target	1	494	753	71128	13.328	12.920	13.714
ProbeTrack11	13	ProbeTrack	11.2	SCS215a	20101025.130615	20101025.132509	8	0.013328	60	0	60-180	60	116	GapExp	0	170	2	3	0	distractor	1	827	587	71715	13.328	12.868	13.801
ProbeTrack11	13	ProbeTrack	11.2	SCS215a	20101025.130615	20101025.132516	8	0.013328	60	10	60-180	60	106	GapExp	0	171	2	1	1	target	1	547	727	72442	13.328	12.879	13.778
ProbeTrack11	13	ProbeTrack	11.2	SCS215a	20101025.130615	20101025.132522	8	0.013328	60	10	60-180	60	99	GapExp	0	172	2	1	0	distractor	1	747	627	73069	13.328	12.860	13.787
ProbeTrack11	13	ProbeTrack	11.2	SCS215a	20101025.130615	20101025.132528	8	0.013328	60	10	60-180	60	122	GapExp	0	173	2	45	0	distractor	1	520	740	73809	13.328	12.946	13.692
ProbeTrack11	13	ProbeTrack	11.2	SCS215a	20101025.130615	20101025.132537	8	0.013328	60	0	60-180	60	152	GapExp	0	174	2	1	0	distractor	1	680	660	74469	13.328	13.306	13.349
ProbeTrack11	13	ProbeTrack	11.2	SCS215a	20101025.130615	20101025.132543	8	0.013328	60	0	60-180	60	116	GapExp	0	175	2	45	0	distractor	1	494	753	75222	13.328	13.094	13.562
ProbeTrack11	13	ProbeTrack	11.2	SCS215a	20101025.130615	20101025.132550	8	0.013328	60	0	60-180	60	124	GapExp	0	176	2	1	0	distractor	1	507	747	75969	13.328	13.099	13.567
ProbeTrack11	13	ProbeTrack	11.2	SCS215a	20101025.130615	20101025.132556	8	0.013328	60	0	60-180	60	111	GapExp	0	177	2	0	1	target	1	427	787	76756	13.328	12.995	13.730
ProbeTrack11	13	ProbeTrack	11.2	SCS215a	20101025.130615	20101025.132601	8	0.013328	60	0	60-180	60	83	GapExp	0	178	2	3	1	target	1	507	747	77503	13.328	13.105	13.543
ProbeTrack11	13	ProbeTrack	11.2	SCS215a	20101025.130615	20101025.132607	8	0.013328	60	0	60-180	60	113	GapExp	0	179	2	1	0	distractor	1	454	773	78276	13.328	13.300	13.355
ProbeTrack11	13	ProbeTrack	11.2	SCS215a	20101025.130615	20101025.132613	8	0.013328	60	10	60-180	60	148	GapExp	0	180	2	1	1	target	1	574	713	78989	13.328	13.135	13.527
ProbeTrack11	13	ProbeTrack	11.2	SCS215a	20101025.130615	20101025.132619	8	0.013328	60	10	60-180	60	131	GapExp	0	181	2	1	0	target	0	520	-1000	77989	13.328	12.883	13.760
ProbeTrack11	13	ProbeTrack	11.2	SCS215a	20101025.130615	20101025.132625	8	0.013328	60	0	60-180	60	61	GapExp	0	182	2	45	0	distractor	1	467	767	78756	13.328	13.118	13.541
ProbeTrack11	13	ProbeTrack	11.2	SCS215a	20101025.130615	20101025.132631	8	0.013328	60	0	60-180	60	146	GapExp	0	183	2	0	1	target	1	307	847	79603	13.328	13.294	13.358
ProbeTrack11	13	ProbeTrack	11.2	SCS215a	20101025.130615	20101025.132637	8	0.013328	60	10	60-180	60	121	GapExp	0	184	2	0	1	target	1	787	607	80210	13.328	13.084	13.561
ProbeTrack11	13	ProbeTrack	11.2	SCS215a	20101025.130615	20101025.132643	8	0.013328	60	10	60-180	60	160	GapExp	0	185	2	45	0	distractor	1	693	654	80864	13.328	13.107	13.547
ProbeTrack11	13	ProbeTrack	11.2	SCS215a	20101025.130615	20101025.132651	8	0.013328	60	10	60-180	60	179	GapExp	0	186	2	45	0	distractor	1	520	740	81604	13.328	13.095	13.559
ProbeTrack11	13	ProbeTrack	11.2	SCS215a	20101025.130615	20101025.132658	8	0.013328	60	10	60-180	60	173	GapExp	0	187	2	1	0	distractor	1	627	687	82291	13.328	13.095	13.566
ProbeTrack11	13	ProbeTrack	11.2	SCS215a	20101025.130615	20101025.132705	8	0.013328	60	0	60-180	60	82	GapExp	0	188	2	1	0	distractor	1	680	660	82951	13.328	13.050	13.605
ProbeTrack11	13	ProbeTrack	11.2	SCS215a	20101025.130615	20101025.132710	8	0.013328	60	0	60-180	60	162	GapExp	0	189	2	3	1	target	1	520	740	83691	13.328	12.866	13.805
ProbeTrack11	13	ProbeTrack	11.2	SCS215a	20101025.130615	20101025.132717	8	0.013328	60	10	60-180	60	157	GapExp	0	190	2	0	0	target	0	334	-1000	82691	13.328	13.309	13.350
ProbeTrack11	13	ProbeTrack	11.2	SCS215a	20101025.130615	20101025.132723	8	0.013328	60	10	60-180	60	65	GapExp	0	191	2	45	0	distractor	1	427	787	83478	13.328	13.079	13.583
ProbeTrack11	13	ProbeTrack	11.2	SCS215a	20101025.130615	20101025.132729	8	0.013328	60	0	60-180	60	86	GapExp	0	192	2	1	1	target	1	667	667	84145	13.328	13.097	13.574
ProbeTrack11	13	ProbeTrack	11.2	SCS215a	20101025.130615	20101025.132734	8	0.013328	60	10	60-180	60	174	GapExp	0	193	2	45	0	distractor	1	280	860	85005	13.328	12.885	13.775
ProbeTrack11	13	ProbeTrack	11.2	SCS215a	20101025.130615	20101025.132754	8	0.013328	60	10	60-180	60	94	GapExp	0	194	2	3	0	target	0	520	-1000	84005	13.328	12.937	13.731
ProbeTrack11	13	ProbeTrack	11.2	SCS215a	20101025.130615	20101025.132800	8	0.013328	60	10	60-180	60	67	GapExp	0	195	2	3	0	distractor	1	360	820	84825	13.328	12.939	13.736
ProbeTrack11	13	ProbeTrack	11.2	SCS215a	20101025.130615	20101025.132805	8	0.013328	60	0	60-180	60	89	GapExp	0	196	2	1	1	distractor	0	440	-1000	83825	13.328	13.304	13.348
ProbeTrack11	13	ProbeTrack	11.2	SCS215a	20101025.130615	20101025.132813	8	0.013328	60	10	60-180	60	134	GapExp	0	197	2	3	1	target	1	587	707	84532	13.328	12.888	13.779
ProbeTrack11	13	ProbeTrack	11.2	SCS215a	20101025.130615	20101025.132820	8	0.013328	60	10	60-180	60	129	GapExp	0	198	2	1	0	target	0	613	-1000	83532	13.328	13.309	13.346
ProbeTrack11	13	ProbeTrack	11.2	SCS215a	20101025.130615	20101025.132826	8	0.013328	60	10	60-180	60	101	GapExp	0	199	2	1	1	target	1	560	720	84252	13.328	13.308	13.347
ProbeTrack11	13	ProbeTrack	11.2	SCS215a	20101025.130615	20101025.132832	8	0.013328	60	0	60-180	60	124	GapExp	0	200	2	1	0	distractor	1	667	667	84919	13.328	13.095	13.571
ProbeTrack11	13	ProbeTrack	11.2	SCS215a	20101025.130615	20101025.132838	8	0.013328	60	0	60-180	60	141	GapExp	0	201	2	3	0	target	0	667	-1000	83919	13.326	12.846	13.549
ProbeTrack11	13	ProbeTrack	11.2	SCS215a	20101025.130615	20101025.132845	8	0.013328	60	0	60-180	60	136	GapExp	0	202	2	45	0	distractor	1	760	620	84539	13.328	12.892	13.771
ProbeTrack11	13	ProbeTrack	11.2	SCS215a	20101025.130615	20101025.132900	8	0.013328	60	10	60-180	60	104	GapExp	0	203	2	3	0	distractor	1	707	647	85186	13.328	13.310	13.348
ProbeTrack11	13	ProbeTrack	11.2	SCS215a	20101025.130615	20101025.132906	8	0.013328	60	0	60-180	60	82	GapExp	0	204	2	1	1	target	1	840	580	85766	13.328	13.096	13.571
ProbeTrack11	13	ProbeTrack	11.2	SCS215a	20101025.130615	20101025.132911	8	0.013328	60	10	60-180	60	109	GapExp	0	205	2	45	1	distractor	0	467	-1000	84766	13.328	13.098	13.554
ProbeTrack11	13	ProbeTrack	11.2	SCS215a	20101025.130615	20101025.132918	8	0.013328	60	0	60-180	60	141	GapExp	0	206	2	0	0	target	0	427	-1000	83766	13.328	12.950	13.699
ProbeTrack11	13	ProbeTrack	11.2	SCS215a	20101025.130615	20101025.132924	8	0.013328	60	0	60-180	60	114	GapExp	0	207	2	45	1	distractor	0	454	-1000	82766	13.328	13.305	13.348
ProbeTrack11	13	ProbeTrack	11.2	SCS215a	20101025.130615	20101025.132930	8	0.013328	60	0	60-180	60	136	GapExp	0	208	2	1	1	target	1	613	694	83460	13.328	13.018	13.630
ProbeTrack11	13	ProbeTrack	11.2	SCS215a	20101025.130615	20101025.132936	8	0.013328	60	10	60-180	60	81	GapExp	0	209	2	1	1	target	1	520	740	84200	13.328	13.304	13.352
ProbeTrack11	13	ProbeTrack	11.2	SCS215a	20101025.130615	20101025.132942	8	0.013328	60	10	60-180	60	86	GapExp	0	210	2	3	1	target	1	507	747	84947	13.328	13.098	13.665
ProbeTrack11	13	ProbeTrack	11.2	SCS215a	20101025.130615	20101025.132947	8	0.013328	60	0	60-180	60	125	GapExp	0	211	2	45	1	target	1	534	733	85680	13.374	13.101	26.717
ProbeTrack11	13	ProbeTrack	11.2	SCS215a	20101025.130615	20101025.132954	8	0.013328	60	0	60-180	60	151	GapExp	0	212	2	45	0	distractor	1	654	673	86353	13.328	13.088	13.565
ProbeTrack11	13	ProbeTrack	11.2	SCS215a	20101025.130615	20101025.133001	8	0.013328	60	10	60-180	60	174	GapExp	0	213	2	1	0	distractor	1	653	674	87027	13.371	13.104	26.654
ProbeTrack11	13	ProbeTrack	11.2	SCS215a	20101025.130615	20101025.133008	8	0.013328	60	0	60-180	60	174	GapExp	0	214	2	1	0	distractor	1	680	660	87687	13.460	12.864	39.984
ProbeTrack11	13	ProbeTrack	11.2	SCS215a	20101025.130615	20101025.133015	8	0.013328	60	10	60-180	60	172	GapExp	0	215	2	3	0	distractor	1	733	634	88321	13.328	12.863	13.785
ProbeTrack11	13	ProbeTrack	11.2	SCS215a	20101025.130615	20101025.133023	8	0.013328	60	10	60-180	60	108	GapExp	0	216	2	1	1	target	1	680	660	88981	13.544	12.876	39.978
ProbeTrack11	13	ProbeTrack	11.2	SCS215a	20101025.130615	20101025.133032	8	0.013328	60	10	60-180	60	155	GapExp	0	217	2	45	1	target	1	867	567	89548	13.328	12.859	13.799
ProbeTrack11	13	ProbeTrack	11.2	SCS215a	20101025.130615	20101025.133039	8	0.013328	60	10	60-180	60	117	GapExp	0	218	2	3	0	target	0	1200	-1000	88548	13.328	13.063	13.612
ProbeTrack11	13	ProbeTrack	11.2	SCS215a	20101025.130615	20101025.133046	8	0.013328	60	0	60-180	60	132	GapExp	0	219	2	1	1	target	1	880	560	89108	13.328	13.309	13.352
ProbeTrack11	13	ProbeTrack	11.2	SCS215a	20101025.130615	20101025.133053	8	0.013328	60	10	60-180	60	168	GapExp	0	220	2	45	0	distractor	1	680	660	89768	13.328	13.083	13.559
ProbeTrack11	13	ProbeTrack	11.2	SCS215a	20101025.130615	20101025.133100	8	0.013328	60	10	60-180	60	165	GapExp	0	221	2	1	1	target	1	427	787	90555	13.328	13.085	13.573
ProbeTrack11	13	ProbeTrack	11.2	SCS215a	20101025.130615	20101025.133107	8	0.013328	60	0	60-180	60	123	GapExp	0	222	2	45	0	distractor	1	627	687	91242	13.328	13.046	13.624
ProbeTrack11	13	ProbeTrack	11.2	SCS215a	20101025.130615	20101025.133114	8	0.013328	60	10	60-180	60	75	GapExp	0	223	2	0	1	target	1	773	614	91856	13.328	13.300	13.348
ProbeTrack11	13	ProbeTrack	11.2	SCS215a	20101025.130615	20101025.133119	8	0.013328	60	10	60-180	60	78	GapExp	0	224	2	0	1	target	1	374	813	92669	13.328	13.096	13.552
ProbeTrack11	13	ProbeTrack	11.2	SCS215a	20101025.130615	20101025.133125	8	0.013328	60	10	60-180	60	169	GapExp	0	225	2	45	1	distractor	0	507	-1000	91669	13.328	12.874	13.790
ProbeTrack11	13	ProbeTrack	11.2	SCS215a	20101025.130615	20101025.133132	8	0.013328	60	0	60-180	60	72	GapExp	0	226	2	3	1	target	1	1240	380	92049	13.328	13.156	13.497
ProbeTrack11	13	ProbeTrack	11.2	SCS215a	20101025.130615	20101025.133138	8	0.013328	60	10	60-180	60	65	GapExp	0	227	2	0	1	distractor	0	933	-1000	91049	13.328	13.107	13.561
ProbeTrack11	13	ProbeTrack	11.2	SCS215a	20101025.130615	20101025.133144	8	0.013328	60	10	60-180	60	81	GapExp	0	228	2	45	0	target	0	574	-1000	90049	13.328	12.961	13.709
ProbeTrack11	13	ProbeTrack	11.2	SCS215a	20101025.130615	20101025.133150	8	0.013328	60	0	60-180	60	77	GapExp	0	229	2	45	1	target	1	640	680	90729	13.328	12.852	13.795
ProbeTrack11	13	ProbeTrack	11.2	SCS215a	20101025.130615	20101025.133157	8	0.013328	60	0	60-180	60	67	GapExp	0	230	2	3	1	distractor	0	467	-1000	89729	13.328	13.304	13.348
ProbeTrack11	13	ProbeTrack	11.2	SCS215a	20101025.130615	20101025.133202	8	0.013328	60	0	60-180	60	69	GapExp	0	231	2	0	1	target	1	587	707	90436	13.328	13.306	13.348
ProbeTrack11	13	ProbeTrack	11.2	SCS215a	20101025.130615	20101025.133208	8	0.013328	60	10	60-180	60	82	GapExp	0	232	2	3	1	target	1	427	787	91223	13.328	12.890	13.783
ProbeTrack11	13	ProbeTrack	11.2	SCS215a	20101025.130615	20101025.133213	8	0.013328	60	0	60-180	60	108	GapExp	0	233	2	0	0	distractor	1	640	680	91903	13.328	12.875	13.798
ProbeTrack11	13	ProbeTrack	11.2	SCS215a	20101025.130615	20101025.133220	8	0.013328	60	0	60-180	60	170	GapExp	0	234	2	3	0	distractor	1	800	600	92503	13.328	13.110	13.561
ProbeTrack11	13	ProbeTrack	11.2	SCS215a	20101025.130615	20101025.133227	8	0.013328	60	0	60-180	60	62	GapExp	0	235	2	3	0	distractor	1	680	660	93163	13.328	12.986	13.675
ProbeTrack11	13	ProbeTrack	11.2	SCS215a	20101025.130615	20101025.133232	8	0.013328	60	0	60-180	60	176	GapExp	0	236	2	0	1	target	1	653	674	93837	13.328	12.843	13.814
ProbeTrack11	13	ProbeTrack	11.2	SCS215a	20101025.130615	20101025.133239	8	0.013328	60	10	60-180	60	112	GapExp	0	237	2	1	1	target	1	467	767	94604	13.328	12.968	13.683
ProbeTrack11	13	ProbeTrack	11.2	SCS215a	20101025.130615	20101025.133245	8	0.013328	60	0	60-180	60	137	GapExp	0	238	2	3	0	distractor	1	574	713	95317	13.328	12.886	13.777
ProbeTrack11	13	ProbeTrack	11.2	SCS215a	20101025.130615	20101025.133251	8	0.013328	60	10	60-180	60	159	GapExp	0	239	2	3	1	target	1	693	654	95971	13.328	13.041	13.626
ProbeTrack11	13	ProbeTrack	11.2	SCS215a	20101025.130615	20101025.133259	8	0.013328	60	10	60-180	60	116	GapExp	0	240	2	1	0	distractor	1	840	580	96551	13.582	12.879	66.952
ProbeTrack11	13	ProbeTrack	11.2	SCS215a	20101025.130615	20101025.133313	8	0.013328	60	0	60-180	60	130	GapExp	0	241	2	45	0	distractor	1	827	587	97138	13.328	12.980	13.680
ProbeTrack11	13	ProbeTrack	11.2	SCS215a	20101025.130615	20101025.133320	8	0.013328	60	0	60-180	60	88	GapExp	0	242	2	3	1	target	1	720	640	97778	13.328	13.308	13.347
ProbeTrack11	13	ProbeTrack	11.2	SCS215a	20101025.130615	20101025.133326	8	0.013328	60	10	60-180	60	115	GapExp	0	243	2	3	0	distractor	1	574	713	98491	13.328	13.290	13.358
ProbeTrack11	13	ProbeTrack	11.2	SCS215a	20101025.130615	20101025.133332	8	0.013328	60	10	60-180	60	85	GapExp	0	244	2	0	0	target	0	1173	-1000	97491	13.328	12.931	13.714
ProbeTrack11	13	ProbeTrack	11.2	SCS215a	20101025.130615	20101025.133338	8	0.013328	60	10	60-180	60	104	GapExp	0	245	2	45	0	distractor	1	600	700	98191	13.328	13.099	13.558
ProbeTrack11	13	ProbeTrack	11.2	SCS215a	20101025.130615	20101025.133345	8	0.013328	60	0	60-180	60	95	GapExp	0	246	2	1	0	distractor	1	600	700	98891	13.328	13.060	13.594
ProbeTrack11	13	ProbeTrack	11.2	SCS215a	20101025.130615	20101025.133351	8	0.013328	60	10	60-180	60	127	GapExp	0	247	2	0	1	target	1	414	793	99684	13.328	12.866	13.771
ProbeTrack11	13	ProbeTrack	11.2	SCS215a	20101025.130615	20101025.133357	8	0.013328	60	10	60-180	60	123	GapExp	0	248	2	45	1	target	1	507	747	100431	13.328	13.105	13.550
ProbeTrack11	13	ProbeTrack	11.2	SCS215a	20101025.130615	20101025.133404	8	0.013328	60	10	60-180	60	154	GapExp	0	249	2	0	1	target	1	1080	460	100891	13.328	13.096	13.552
ProbeTrack11	13	ProbeTrack	11.2	SCS215a	20101025.130615	20101025.133411	8	0.013328	60	0	60-180	60	92	GapExp	0	250	2	0	1	target	1	867	567	101458	13.328	13.097	13.558
ProbeTrack11	13	ProbeTrack	11.2	SCS215a	20101025.130615	20101025.133419	8	0.013328	60	10	60-180	60	113	GapExp	0	251	2	45	0	distractor	1	494	753	102211	13.328	13.306	13.347
ProbeTrack11	13	ProbeTrack	11.2	SCS215a	20101025.130615	20101025.133425	8	0.013328	60	10	60-180	60	135	GapExp	0	252	2	3	0	distractor	1	1240	380	102591	13.328	13.100	13.558
ProbeTrack11	13	ProbeTrack	11.2	SCS215a	20101025.130615	20101025.133432	8	0.013328	60	10	60-180	60	70	GapExp	0	253	2	0	1	target	1	827	587	103178	13.328	13.106	13.552
ProbeTrack11	13	ProbeTrack	11.2	SCS215a	20101025.130615	20101025.133440	8	0.013328	60	10	60-180	60	114	GapExp	0	254	2	1	0	distractor	1	560	720	103898	13.328	13.066	13.597
ProbeTrack11	13	ProbeTrack	11.2	SCS215a	20101025.130615	20101025.133446	8	0.013328	60	0	60-180	60	87	GapExp	0	255	2	45	0	distractor	1	547	727	104625	13.328	12.964	13.677
ProbeTrack11	13	ProbeTrack	11.2	SCS215a	20101025.130615	20101025.133452	8	0.013328	60	10	60-180	60	163	GapExp	0	256	2	0	0	distractor	1	587	707	105332	13.328	13.175	13.480
ProbeTrack11	13	ProbeTrack	11.2	SCS215a	20101025.130615	20101025.133458	8	0.013328	60	10	60-180	60	168	GapExp	0	257	2	1	1	target	1	827	587	105919	13.328	12.890	13.761
ProbeTrack11	13	ProbeTrack	11.2	SCS215a	20101025.130615	20101025.133506	8	0.013328	60	0	60-180	60	122	GapExp	0	258	2	0	0	distractor	1	653	674	106593	13.328	13.099	13.558
ProbeTrack11	13	ProbeTrack	11.2	SCS215a	20101025.130615	20101025.133512	8	0.013328	60	0	60-180	60	155	GapExp	0	259	2	45	1	target	1	640	680	107273	13.328	12.869	13.782
ProbeTrack11	13	ProbeTrack	11.2	SCS215a	20101025.130615	20101025.133519	8	0.013328	60	10	60-180	60	92	GapExp	0	260	2	1	1	target	1	614	693	107966	13.328	13.300	13.356
ProbeTrack11	13	ProbeTrack	11.2	SCS215a	20101025.130615	20101025.133526	8	0.013328	60	10	60-180	60	119	GapExp	0	261	2	45	0	distractor	1	1493	254	108220	13.328	13.308	13.347
ProbeTrack11	13	ProbeTrack	11.2	SCS215a	20101025.130615	20101025.133534	8	0.013328	60	10	60-180	60	93	GapExp	0	262	2	45	1	distractor	0	480	-1000	107220	13.328	13.099	13.567
ProbeTrack11	13	ProbeTrack	11.2	SCS215a	20101025.130615	20101025.133543	8	0.013328	60	10	60-180	60	80	GapExp	0	263	2	0	0	distractor	1	1080	460	107680	13.328	13.099	13.561
ProbeTrack11	13	ProbeTrack	11.2	SCS215a	20101025.130615	20101025.133549	8	0.013328	60	0	60-180	60	152	GapExp	0	264	2	3	1	target	1	2679	0	107680	13.328	13.095	13.562
ProbeTrack11	13	ProbeTrack	11.2	SCS215a	20101025.130615	20101025.133559	8	0.013328	60	0	60-180	60	99	GapExp	0	265	2	1	0	distractor	1	707	647	108327	13.328	12.958	13.687
ProbeTrack11	13	ProbeTrack	11.2	SCS215a	20101025.130615	20101025.133606	8	0.013328	60	0	60-180	60	118	GapExp	0	266	2	45	0	distractor	1	733	634	108961	13.328	13.309	13.345
ProbeTrack11	13	ProbeTrack	11.2	SCS215a	20101025.130615	20101025.133614	8	0.013328	60	10	60-180	60	125	GapExp	0	267	2	45	1	target	1	1120	440	109401	13.328	12.923	13.744
ProbeTrack11	13	ProbeTrack	11.2	SCS215a	20101025.130615	20101025.133621	8	0.013328	60	10	60-180	60	104	GapExp	0	268	2	3	1	target	1	920	540	109941	13.328	12.962	13.694
ProbeTrack11	13	ProbeTrack	11.2	SCS215a	20101025.130615	20101025.133629	8	0.013328	60	0	60-180	60	123	GapExp	0	269	2	3	0	distractor	1	627	687	110628	13.328	13.297	13.356
ProbeTrack11	13	ProbeTrack	11.2	SCS215a	20101025.130615	20101025.133635	8	0.013328	60	0	60-180	60	128	GapExp	0	270	2	1	0	distractor	1	574	713	111341	13.328	13.309	13.345
ProbeTrack11	13	ProbeTrack	11.2	SCS215a	20101025.130615	20101025.133641	8	0.013328	60	10	60-180	60	134	GapExp	0	271	2	0	0	distractor	1	667	667	112008	13.328	13.097	13.570
ProbeTrack11	13	ProbeTrack	11.2	SCS215a	20101025.130615	20101025.133648	8	0.013328	60	0	60-180	60	77	GapExp	0	272	2	3	1	target	1	893	554	112562	13.328	13.108	13.550
ProbeTrack11	13	ProbeTrack	11.2	SCS215a	20101025.130615	20101025.133654	8	0.013328	60	0	60-180	60	107	GapExp	0	273	2	3	1	target	1	494	753	113315	13.328	12.870	13.784
ProbeTrack11	13	ProbeTrack	11.2	SCS215a	20101025.130615	20101025.133659	8	0.013328	60	0	60-180	60	82	GapExp	0	274	2	1	0	distractor	1	587	707	114022	13.328	13.156	13.512
ProbeTrack11	13	ProbeTrack	11.2	SCS215a	20101025.130615	20101025.133705	8	0.013328	60	0	60-180	60	152	GapExp	0	275	2	45	0	distractor	1	587	707	114729	13.328	13.308	13.346
ProbeTrack11	13	ProbeTrack	11.2	SCS215a	20101025.130615	20101025.133712	8	0.013328	60	0	60-180	60	76	GapExp	0	276	2	0	0	distractor	1	613	694	115423	13.328	13.306	13.347
ProbeTrack11	13	ProbeTrack	11.2	SCS215a	20101025.130615	20101025.133718	8	0.013328	60	10	60-180	60	178	GapExp	0	277	2	1	0	distractor	1	693	654	116077	13.328	13.277	13.375
ProbeTrack11	13	ProbeTrack	11.2	SCS215a	20101025.130615	20101025.133725	8	0.013328	60	10	60-180	60	80	GapExp	0	278	2	1	1	distractor	0	1133	-1000	115077	13.326	12.860	13.346
ProbeTrack11	13	ProbeTrack	11.2	SCS215a	20101025.130615	20101025.133731	8	0.013328	60	10	60-180	60	167	GapExp	0	279	2	1	1	target	1	827	587	115664	13.327	13.065	13.585
ProbeTrack11	13	ProbeTrack	11.2	SCS215a	20101025.130615	20101025.133738	8	0.013328	60	10	60-180	60	172	GapExp	0	280	2	1	1	distractor	0	1426	-1000	114664	13.537	13.299	53.301
ProbeTrack11	13	ProbeTrack	11.2	SCS215a	20101025.130615	20101025.133745	8	0.013328	60	0	60-180	60	118	GapExp	0	281	2	0	0	distractor	1	707	647	115311	13.328	13.306	13.347
ProbeTrack11	13	ProbeTrack	11.2	SCS215a	20101025.130615	20101025.133759	8	0.013328	60	0	60-180	60	124	GapExp	0	282	2	1	1	target	1	627	687	115998	13.328	13.308	13.346
ProbeTrack11	13	ProbeTrack	11.2	SCS215a	20101025.130615	20101025.133805	8	0.013328	60	10	60-180	60	140	GapExp	0	283	2	45	1	target	1	574	713	116711	13.328	12.945	13.705
ProbeTrack11	13	ProbeTrack	11.2	SCS215a	20101025.130615	20101025.133812	8	0.013328	60	10	60-180	60	94	GapExp	0	284	2	1	1	target	1	613	694	117405	13.328	12.928	13.729
ProbeTrack11	13	ProbeTrack	11.2	SCS215a	20101025.130615	20101025.133818	8	0.013328	60	10	60-180	60	172	GapExp	0	285	2	3	1	distractor	0	387	-1000	116405	13.328	12.951	13.714
ProbeTrack11	13	ProbeTrack	11.2	SCS215a	20101025.130615	20101025.133824	8	0.013328	60	0	60-180	60	107	GapExp	0	286	2	3	0	distractor	1	547	727	117132	13.328	13.088	13.559
ProbeTrack11	13	ProbeTrack	11.2	SCS215a	20101025.130615	20101025.133831	8	0.013328	60	10	60-180	60	169	GapExp	0	287	2	45	1	target	1	427	787	117919	13.328	13.088	13.563
ProbeTrack11	13	ProbeTrack	11.2	SCS215a	20101025.130615	20101025.133838	8	0.013328	60	10	60-180	60	94	GapExp	0	288	2	1	1	target	1	480	760	118679	13.389	13.098	26.635
ProbeTrack11	13	ProbeTrack	11.2	SCS215a	20101025.130615	20101025.133844	8	0.013328	60	0	60-180	60	119	GapExp	0	289	2	3	1	target	1	467	767	119446	13.328	12.990	13.651
ProbeTrack11	13	ProbeTrack	11.2	SCS215a	20101025.130615	20101025.133850	8	0.013328	60	0	60-180	60	64	GapExp	0	290	2	3	0	distractor	1	707	647	120093	13.328	13.310	13.347
ProbeTrack11	13	ProbeTrack	11.2	SCS215a	20101025.130615	20101025.133855	8	0.013328	60	0	60-180	60	121	GapExp	0	291	2	45	0	distractor	1	640	680	120773	13.328	13.041	13.620
ProbeTrack11	13	ProbeTrack	11.2	SCS215a	20101025.130615	20101025.133902	8	0.013328	60	0	60-180	60	134	GapExp	0	292	2	0	1	target	1	520	740	121513	13.328	12.860	13.808
ProbeTrack11	13	ProbeTrack	11.2	SCS215a	20101025.130615	20101025.133908	8	0.013328	60	10	60-180	60	80	GapExp	0	293	2	3	0	target	0	600	-1000	120513	13.328	13.106	13.557
ProbeTrack11	13	ProbeTrack	11.2	SCS215a	20101025.130615	20101025.133913	8	0.013328	60	10	60-180	60	139	GapExp	0	294	2	0	0	target	0	494	-1000	119513	13.328	13.091	13.555
ProbeTrack11	13	ProbeTrack	11.2	SCS215a	20101025.130615	20101025.133920	8	0.013328	60	10	60-180	60	122	GapExp	0	295	2	1	0	distractor	1	2026	0	119513	13.328	13.307	13.348
ProbeTrack11	13	ProbeTrack	11.2	SCS215a	20101025.130615	20101025.133928	8	0.013328	60	10	60-180	60	111	GapExp	0	296	2	3	1	target	1	560	720	120233	13.328	13.297	13.364
ProbeTrack11	13	ProbeTrack	11.2	SCS215a	20101025.130615	20101025.133939	8	0.013328	60	0	60-180	60	92	GapExp	0	297	2	3	0	distractor	1	1160	420	120653	13.328	13.053	13.615
ProbeTrack11	13	ProbeTrack	11.2	SCS215a	20101025.130615	20101025.133946	8	0.013328	60	10	60-180	60	104	GapExp	0	298	2	1	0	distractor	1	653	674	121327	13.328	13.310	13.345
ProbeTrack11	13	ProbeTrack	11.2	SCS215a	20101025.130615	20101025.133952	8	0.013328	60	10	60-180	60	138	GapExp	0	299	2	45	1	distractor	0	587	-1000	120327	13.328	13.188	13.458
ProbeTrack11	13	ProbeTrack	11.2	SCS215a	20101025.130615	20101025.133959	8	0.013328	60	10	60-180	60	119	GapExp	0	300	2	3	0	target	0	707	-1000	119327	13.480	13.050	40.413
ProbeTrack11	13	ProbeTrack	11.2	SCS215a	20101025.130615	20101025.134006	8	0.013328	60	10	60-180	60	142	GapExp	0	301	2	0	0	distractor	1	720	640	119967	13.328	13.306	13.347
ProbeTrack11	13	ProbeTrack	11.2	SCS215a	20101025.130615	20101025.134013	8	0.013328	60	0	60-180	60	168	GapExp	0	302	2	45	1	target	1	947	527	120494	13.328	12.920	13.741
ProbeTrack11	13	ProbeTrack	11.2	SCS215a	20101025.130615	20101025.134021	8	0.013328	60	0	60-180	60	167	GapExp	0	303	2	3	0	distractor	1	613	694	121188	13.328	13.308	13.348
ProbeTrack11	13	ProbeTrack	11.2	SCS215a	20101025.130615	20101025.134027	8	0.013328	60	0	60-180	60	93	GapExp	0	304	2	1	0	distractor	1	1840	80	121268	13.328	13.288	13.369
ProbeTrack11	13	ProbeTrack	11.2	SCS215a	20101025.130615	20101025.134034	8	0.013328	60	0	60-180	60	67	GapExp	0	305	2	45	1	target	1	933	534	121802	13.328	13.306	13.346
ProbeTrack11	13	ProbeTrack	11.2	SCS215a	20101025.130615	20101025.134041	8	0.013328	60	0	60-180	60	114	GapExp	0	306	2	0	0	distractor	1	3799	0	121802	13.328	13.309	13.349
ProbeTrack11	13	ProbeTrack	11.2	SCS215a	20101025.130615	20101025.134050	8	0.013328	60	10	60-180	60	106	GapExp	0	307	2	1	1	target	1	507	747	122549	13.328	12.859	13.780
ProbeTrack11	13	ProbeTrack	11.2	SCS215a	20101025.130615	20101025.134056	8	0.013328	60	0	60-180	60	127	GapExp	0	308	2	45	1	target	1	907	547	123096	13.328	13.216	13.427
ProbeTrack11	13	ProbeTrack	11.2	SCS215a	20101025.130615	20101025.134103	8	0.013328	60	10	60-180	60	175	GapExp	0	309	2	0	0	target	0	400	-1000	122096	13.328	12.871	13.354
ProbeTrack11	13	ProbeTrack	11.2	SCS215a	20101025.130615	20101025.134109	8	0.013328	60	0	60-180	60	112	GapExp	0	310	2	3	0	distractor	1	627	687	122783	13.328	13.309	13.348
ProbeTrack11	13	ProbeTrack	11.2	SCS215a	20101025.130615	20101025.134115	8	0.013328	60	10	60-180	60	121	GapExp	0	311	2	0	1	distractor	0	3532	-1000	121783	13.328	13.290	13.350
ProbeTrack11	13	ProbeTrack	11.2	SCS215a	20101025.130615	20101025.134125	8	0.013328	60	10	60-180	60	106	GapExp	0	312	2	45	0	distractor	1	907	547	122330	13.328	13.023	13.620
ProbeTrack11	13	ProbeTrack	11.2	SCS215a	20101025.130615	20101025.134133	8	0.013328	60	10	60-180	60	153	GapExp	0	313	2	0	1	target	1	1346	327	122657	13.327	12.948	13.632
ProbeTrack11	13	ProbeTrack	11.2	SCS215a	20101025.130615	20101025.134140	8	0.013328	60	0	60-180	60	70	GapExp	0	314	2	0	0	distractor	1	640	680	123337	13.328	13.307	13.350
ProbeTrack11	13	ProbeTrack	11.2	SCS215a	20101025.130615	20101025.134145	8	0.013328	60	10	60-180	60	142	GapExp	0	315	2	3	1	distractor	0	773	-1000	122337	13.328	12.919	13.748
ProbeTrack11	13	ProbeTrack	11.2	SCS215a	20101025.130615	20101025.134152	8	0.013328	60	10	60-180	60	83	GapExp	0	316	2	3	0	distractor	1	507	747	123084	13.328	12.880	13.780
ProbeTrack11	13	ProbeTrack	11.2	SCS215a	20101025.130615	20101025.134157	8	0.013328	60	0	60-180	60	88	GapExp	0	317	2	0	1	target	1	507	747	123831	13.328	12.996	13.661
ProbeTrack11	13	ProbeTrack	11.2	SCS215a	20101025.130615	20101025.134203	8	0.013328	60	10	60-180	60	79	GapExp	0	318	2	45	0	distractor	1	1560	220	124051	13.328	13.092	13.555
ProbeTrack11	13	ProbeTrack	11.2	SCS215a	20101025.130615	20101025.134210	8	0.013328	60	0	60-180	60	88	GapExp	0	319	2	0	0	distractor	1	600	700	124751	13.328	13.109	13.562
ProbeTrack11	13	ProbeTrack	11.2	SCS215a	20101025.130615	20101025.134216	8	0.013328	60	0	60-180	60	176	GapExp	0	320	2	0	0	distractor	1	627	687	125438	13.328	12.962	13.700
ProbeTrack11	13	ProbeTrack	11.2	SCS215a	20101025.130615	20101025.134222	8	0.013328	60	0	60-180	60	134	GapExp	0	321	2	1	1	target	1	427	787	126225	13.328	13.088	13.561
ProbeTrack11	13	ProbeTrack	11.2	SCS215a	20101025.130615	20101025.134228	8	0.013328	60	0	60-180	60	95	GapExp	0	322	2	0	1	target	1	454	773	126998	13.328	13.154	13.503
ProbeTrack11	13	ProbeTrack	11.2	SCS215a	20101025.130615	20101025.134234	8	0.013328	60	0	60-180	60	100	GapExp	0	323	2	1	1	target	1	480	760	127758	13.328	13.276	13.374
ProbeTrack11	13	ProbeTrack	11.2	SCS215a	20101025.130615	20101025.134241	8	0.013328	60	0	60-180	60	146	GapExp	0	324	2	0	1	target	1	494	753	128511	13.328	13.306	13.351
ProbeTrack11	13	ProbeTrack	11.2	SCS215a	20101025.130615	20101025.134247	8	0.013328	60	0	60-180	60	138	GapExp	0	325	2	0	1	distractor	0	427	-1000	127511	13.328	13.098	13.561
ProbeTrack11	13	ProbeTrack	11.2	SCS215a	20101025.130615	20101025.134258	8	0.013328	60	0	60-180	60	80	GapExp	0	326	2	1	1	target	1	480	760	128271	13.328	13.297	13.356
ProbeTrack11	13	ProbeTrack	11.2	SCS215a	20101025.130615	20101025.134305	8	0.013328	60	0	60-180	60	170	GapExp	0	327	2	45	0	distractor	1	520	740	129011	13.328	12.904	13.761
ProbeTrack11	13	ProbeTrack	11.2	SCS215a	20101025.130615	20101025.134312	8	0.013328	60	0	60-180	60	179	GapExp	0	328	2	45	1	target	1	467	767	129778	13.328	12.846	13.811
ProbeTrack11	13	ProbeTrack	11.2	SCS215a	20101025.130615	20101025.134319	8	0.013328	60	10	60-180	60	88	GapExp	0	329	2	3	0	target	0	614	-1000	128778	13.328	12.932	13.720
ProbeTrack11	13	ProbeTrack	11.2	SCS215a	20101025.130615	20101025.134325	8	0.013328	60	0	60-180	60	115	GapExp	0	330	2	1	1	target	1	600	700	129478	13.328	12.987	13.663
ProbeTrack11	13	ProbeTrack	11.2	SCS215a	20101025.130615	20101025.134331	8	0.013328	60	0	60-180	60	103	GapExp	0	331	2	3	0	target	0	613	-1000	128478	13.328	13.302	13.346
ProbeTrack11	13	ProbeTrack	11.2	SCS215a	20101025.130615	20101025.134336	8	0.013328	60	10	60-180	60	164	GapExp	0	332	2	3	1	target	1	813	594	129072	13.328	13.263	13.401
ProbeTrack11	13	ProbeTrack	11.2	SCS215a	20101025.130615	20101025.134344	8	0.013328	60	0	60-180	60	64	GapExp	0	333	2	45	1	target	1	440	780	129852	13.328	13.306	13.356
ProbeTrack11	13	ProbeTrack	11.2	SCS215a	20101025.130615	20101025.134349	8	0.013328	60	0	60-180	60	132	GapExp	0	334	2	3	1	target	1	454	773	130625	13.328	13.308	13.355
ProbeTrack11	13	ProbeTrack	11.2	SCS215a	20101025.130615	20101025.134355	8	0.013328	60	0	60-180	60	69	GapExp	0	335	2	3	1	target	1	400	800	131425	13.328	13.097	13.553
ProbeTrack11	13	ProbeTrack	11.2	SCS215a	20101025.130615	20101025.134400	8	0.013328	60	10	60-180	60	169	GapExp	0	336	2	1	1	target	1	907	547	131972	13.328	13.021	13.645
ProbeTrack11	13	ProbeTrack	11.2	SCS215a	20101025.130615	20101025.134407	8	0.013328	60	0	60-180	60	73	GapExp	0	337	2	0	0	distractor	1	733	634	132606	13.328	12.856	13.799
ProbeTrack11	13	ProbeTrack	11.2	SCS215a	20101025.130615	20101025.134412	8	0.013328	60	10	60-180	60	129	GapExp	0	338	2	0	0	target	0	773	-1000	131606	13.328	12.942	13.772
ProbeTrack11	13	ProbeTrack	11.2	SCS215a	20101025.130615	20101025.134419	8	0.013328	60	0	60-180	60	110	GapExp	0	339	2	0	0	distractor	1	1027	487	132093	13.328	12.900	13.753
ProbeTrack11	13	ProbeTrack	11.2	SCS215a	20101025.130615	20101025.134425	8	0.013328	60	10	60-180	60	105	GapExp	0	340	2	1	0	target	0	787	-1000	131093	13.328	13.280	13.380
ProbeTrack11	13	ProbeTrack	11.2	SCS215a	20101025.130615	20101025.134431	8	0.013328	60	10	60-180	60	122	GapExp	0	341	2	1	0	distractor	1	360	820	131913	13.328	13.310	13.348
ProbeTrack11	13	ProbeTrack	11.2	SCS215a	20101025.130615	20101025.134437	8	0.013328	60	10	60-180	60	137	GapExp	0	342	2	0	1	target	1	440	780	132693	13.328	13.099	13.564
ProbeTrack11	13	ProbeTrack	11.2	SCS215a	20101025.130615	20101025.134444	8	0.013328	60	0	60-180	60	175	GapExp	0	343	2	3	1	target	1	440	780	133473	13.328	12.850	13.805
ProbeTrack11	13	ProbeTrack	11.2	SCS215a	20101025.130615	20101025.134450	8	0.013328	60	10	60-180	60	160	GapExp	0	344	2	0	1	target	1	574	713	134186	13.328	12.889	13.774
ProbeTrack11	13	ProbeTrack	11.2	SCS215a	20101025.130615	20101025.134457	8	0.013328	60	10	60-180	60	155	GapExp	0	345	2	1	0	distractor	1	1093	454	134640	13.328	13.114	13.553
ProbeTrack11	13	ProbeTrack	11.2	SCS215a	20101025.130615	20101025.134505	8	0.013328	60	0	60-180	60	151	GapExp	0	346	2	3	0	distractor	1	720	640	135280	13.328	13.093	13.558
ProbeTrack11	13	ProbeTrack	11.2	SCS215a	20101025.130615	20101025.134511	8	0.013328	60	10	60-180	60	68	GapExp	0	347	2	3	0	target	0	1067	-1000	134280	13.328	13.102	13.559
ProbeTrack11	13	ProbeTrack	11.2	SCS215a	20101025.130615	20101025.134517	8	0.013328	60	0	60-180	60	79	GapExp	0	348	2	0	1	target	1	574	713	134993	13.328	12.862	13.801
ProbeTrack11	13	ProbeTrack	11.2	SCS215a	20101025.130615	20101025.134522	8	0.013328	60	0	60-180	60	109	GapExp	0	349	2	45	1	target	1	560	720	135713	13.328	12.992	13.669
ProbeTrack11	13	ProbeTrack	11.2	SCS215a	20101025.130615	20101025.134529	8	0.013328	60	0	60-180	60	71	GapExp	0	350	2	0	0	distractor	1	627	687	136400	13.328	13.030	13.627
ProbeTrack11	13	ProbeTrack	11.2	SCS215a	20101025.130615	20101025.134534	8	0.013328	60	0	60-180	60	67	GapExp	0	351	2	3	1	target	1	534	733	137133	13.328	13.021	13.637
ProbeTrack11	13	ProbeTrack	11.2	SCS215a	20101025.130615	20101025.134539	8	0.013328	60	10	60-180	60	74	GapExp	0	352	2	45	1	target	1	387	807	137940	13.328	12.962	13.708
ProbeTrack11	13	ProbeTrack	11.2	SCS215a	20101025.130615	20101025.134545	8	0.013328	60	10	60-180	60	125	GapExp	0	353	2	45	0	distractor	1	414	793	138733	13.328	13.107	13.554
ProbeTrack11	13	ProbeTrack	11.2	SCS215a	20101025.130615	20101025.134551	8	0.013328	60	10	60-180	60	76	GapExp	0	354	2	3	0	distractor	1	600	700	139433	13.328	13.163	13.501
ProbeTrack11	13	ProbeTrack	11.2	SCS215a	20101025.130615	20101025.134557	8	0.013328	60	10	60-180	60	98	GapExp	0	355	2	1	0	distractor	1	574	713	140146	13.328	12.862	13.778
ProbeTrack11	13	ProbeTrack	11.2	SCS215a	20101025.130615	20101025.134602	8	0.013328	60	10	60-180	60	61	GapExp	0	356	2	0	1	target	1	933	534	140680	13.328	13.085	13.573
ProbeTrack11	13	ProbeTrack	11.2	SCS215a	20101025.130615	20101025.134613	8	0.013328	60	0	60-180	60	177	GapExp	0	357	2	45	0	distractor	1	480	760	141440	13.328	13.091	13.559
ProbeTrack11	13	ProbeTrack	11.2	SCS215a	20101025.130615	20101025.134620	8	0.013328	60	0	60-180	60	145	GapExp	0	358	2	3	0	distractor	1	480	760	142200	13.328	13.100	13.567
ProbeTrack11	13	ProbeTrack	11.2	SCS215a	20101025.130615	20101025.134626	8	0.013328	60	10	60-180	60	142	GapExp	0	359	2	3	0	distractor	1	374	813	143013	13.328	12.992	13.660
ProbeTrack11	13	ProbeTrack	11.2	SCS215a	20101025.130615	20101025.134632	8	0.013328	60	0	60-180	60	144	GapExp	0	360	2	0	0	distractor	1	653	674	143687	13.328	13.309	13.346
ProbeTrack11	13	ProbeTrack	11.2	SCS215a	20101025.130615	20101025.134639	8	0.013328	60	10	60-180	60	169	GapExp	0	361	2	1	0	distractor	1	573	714	144401	13.328	13.309	13.346
ProbeTrack11	13	ProbeTrack	11.2	SCS215a	20101025.130615	20101025.134646	8	0.013328	60	0	60-180	60	139	GapExp	0	362	2	1	1	target	1	574	713	145114	13.328	12.910	13.746
ProbeTrack11	13	ProbeTrack	11.2	SCS215a	20101025.130615	20101025.134652	8	0.013328	60	10	60-180	60	141	GapExp	0	363	2	0	1	target	1	400	800	145914	13.328	13.078	13.591
ProbeTrack11	13	ProbeTrack	11.2	SCS215a	20101025.130615	20101025.134658	8	0.013328	60	10	60-180	60	93	GapExp	0	364	2	0	1	distractor	0	800	-1000	144914	13.328	13.310	13.347
ProbeTrack11	13	ProbeTrack	11.2	SCS215a	20101025.130615	20101025.134704	8	0.013328	60	0	60-180	60	146	GapExp	0	365	2	0	1	target	1	720	640	145554	13.328	13.006	13.657
ProbeTrack11	13	ProbeTrack	11.2	SCS215a	20101025.130615	20101025.134713	8	0.013328	60	10	60-180	60	116	GapExp	0	366	2	45	0	distractor	1	547	727	146281	13.328	12.887	13.773
ProbeTrack11	13	ProbeTrack	11.2	SCS215a	20101025.130615	20101025.134720	8	0.013328	60	0	60-180	60	179	GapExp	0	367	2	0	1	target	1	1053	474	146755	13.328	12.943	13.707
ProbeTrack11	13	ProbeTrack	11.2	SCS215a	20101025.130615	20101025.134727	8	0.013328	60	10	60-180	60	62	GapExp	0	368	2	45	1	distractor	0	560	-1000	145755	13.328	12.978	13.672
ProbeTrack11	13	ProbeTrack	11.2	SCS215a	20101025.130615	20101025.134735	8	0.013328	60	10	60-180	60	92	GapExp	0	369	2	3	1	target	1	600	700	146455	13.328	13.214	13.423
ProbeTrack11	13	ProbeTrack	11.2	SCS215a	20101025.130615	20101025.134742	8	0.013328	60	0	60-180	60	145	GapExp	0	370	2	1	1	target	1	454	773	147228	13.328	13.308	13.348
ProbeTrack11	13	ProbeTrack	11.2	SCS215a	20101025.130615	20101025.134748	8	0.013328	60	0	60-180	60	99	GapExp	0	371	2	1	0	distractor	1	574	713	147941	13.328	13.308	13.348
ProbeTrack11	13	ProbeTrack	11.2	SCS215a	20101025.130615	20101025.134753	8	0.013328	60	0	60-180	60	113	GapExp	0	372	2	3	0	distractor	1	560	720	148661	13.328	12.860	13.795
ProbeTrack11	13	ProbeTrack	11.2	SCS215a	20101025.130615	20101025.134759	8	0.013328	60	0	60-180	60	129	GapExp	0	373	2	3	1	target	1	747	627	149288	13.328	12.907	13.743
ProbeTrack11	13	ProbeTrack	11.2	SCS215a	20101025.130615	20101025.134805	8	0.013328	60	0	60-180	60	166	GapExp	0	374	2	45	0	distractor	1	494	753	150041	13.328	12.866	13.794
ProbeTrack11	13	ProbeTrack	11.2	SCS215a	20101025.130615	20101025.134812	8	0.013328	60	10	60-180	60	84	GapExp	0	375	2	3	0	distractor	1	520	740	150781	13.328	13.148	13.490
ProbeTrack11	13	ProbeTrack	11.2	SCS215a	20101025.130615	20101025.134818	8	0.013328	60	0	60-180	60	98	GapExp	0	376	2	45	0	distractor	1	454	773	151554	13.328	13.308	13.353
ProbeTrack11	13	ProbeTrack	11.2	SCS215a	20101025.130615	20101025.134824	8	0.013328	60	0	60-180	60	65	GapExp	0	377	2	1	1	target	1	640	680	152234	13.328	12.910	13.738
ProbeTrack11	13	ProbeTrack	11.2	SCS215a	20101025.130615	20101025.134829	8	0.013328	60	0	60-180	60	141	GapExp	0	378	2	0	0	distractor	1	534	733	152967	13.328	13.309	13.348
ProbeTrack11	13	ProbeTrack	11.2	SCS215a	20101025.130615	20101025.134836	8	0.013328	60	10	60-180	60	177	GapExp	0	379	2	45	1	target	1	400	800	153767	13.328	13.069	13.602
ProbeTrack11	13	ProbeTrack	11.2	SCS215a	20101025.130615	20101025.134843	8	0.013328	60	0	60-180	60	67	GapExp	0	380	2	0	0	distractor	1	587	707	154474	13.328	12.864	13.794
ProbeTrack11	13	ProbeTrack	11.2	SCS215a	20101025.130615	20101025.134848	8	0.013328	60	0	60-180	60	133	GapExp	0	381	2	1	0	distractor	1	534	733	155207	13.328	13.306	13.349
ProbeTrack11	13	ProbeTrack	11.2	SCS215a	20101025.130615	20101025.134854	8	0.013328	60	10	60-180	60	160	GapExp	0	382	2	1	0	target	0	1067	-1000	154207	13.328	12.903	13.768
ProbeTrack11	13	ProbeTrack	11.2	SCS215a	20101025.130615	20101025.134901	8	0.013328	60	10	60-180	60	148	GapExp	0	383	2	3	0	target	0	1200	-1000	153207	13.328	12.873	13.798
ProbeTrack11	13	ProbeTrack	11.2	SCS215a	20101025.130615	20101025.134909	8	0.013328	60	0	60-180	60	139	GapExp	0	384	2	0	0	distractor	1	1173	414	153621	13.328	12.946	13.711
ProbeTrack11	13	ProbeTrack	11.2	SCS215a	20101025.130615	20101025.134916	8	0.013328	60	10	60-180	60	163	GapExp	0	385	2	45	0	distractor	1	520	740	154361	13.328	12.969	13.684
ProbeTrack11	13	ProbeTrack	11.2	SCS215a	20101025.130615	20101025.134924	8	0.013328	60	0	60-180	60	179	GapExp	0	386	2	45	0	distractor	1	667	667	155028	13.328	12.869	13.779
ProbeTrack11	13	ProbeTrack	11.2	SCS215a	20101025.130615	20101025.134931	8	0.013328	60	10	60-180	60	168	GapExp	0	387	2	45	0	distractor	1	707	647	155675	13.328	13.100	13.551
ProbeTrack11	13	ProbeTrack	11.2	SCS215a	20101025.130615	20101025.134939	8	0.013328	60	10	60-180	60	108	GapExp	0	388	2	0	0	target	0	2573	-1000	154675	13.328	13.097	13.556
ProbeTrack11	13	ProbeTrack	11.2	SCS215a	20101025.130615	20101025.134947	8	0.013328	60	10	60-180	60	123	GapExp	0	389	2	45	0	distractor	1	640	680	155355	13.328	13.173	13.483
ProbeTrack11	13	ProbeTrack	11.2	SCS215a	20101025.130615	20101025.134953	8	0.013328	60	10	60-180	60	149	GapExp	0	390	2	45	0	distractor	1	440	780	156135	13.328	13.299	13.370
ProbeTrack11	13	ProbeTrack	11.2	SCS215a	20101025.130615	20101025.135000	8	0.013328	60	0	60-180	60	118	GapExp	0	391	2	0	0	distractor	1	600	700	156835	13.328	13.308	13.350
ProbeTrack11	13	ProbeTrack	11.2	SCS215a	20101025.130615	20101025.135008	8	0.013328	60	0	60-180	60	84	GapExp	0	392	2	45	1	target	1	480	760	157595	13.328	13.306	13.351
ProbeTrack11	13	ProbeTrack	11.2	SCS215a	20101025.130615	20101025.135014	8	0.013328	60	0	60-180	60	104	GapExp	0	393	2	0	1	target	1	813	594	158189	13.328	12.906	13.753
ProbeTrack11	13	ProbeTrack	11.2	SCS215a	20101025.130615	20101025.135021	8	0.013328	60	0	60-180	60	118	GapExp	0	394	2	45	1	target	1	494	753	158942	13.328	13.103	13.555
ProbeTrack11	13	ProbeTrack	11.2	SCS215a	20101025.130615	20101025.135027	8	0.013328	60	10	60-180	60	78	GapExp	0	395	2	0	1	target	1	613	694	159636	13.328	12.933	13.727
ProbeTrack11	13	ProbeTrack	11.2	SCS215a	20101025.130615	20101025.135032	8	0.013328	60	10	60-180	60	108	GapExp	0	396	2	45	1	target	1	347	827	160463	13.328	13.025	13.630
ProbeTrack11	13	ProbeTrack	11.2	SCS215a	20101025.130615	20101025.135038	8	0.013328	60	10	60-180	60	115	GapExp	0	397	2	0	0	target	0	600	-1000	159463	13.328	12.936	13.347
ProbeTrack11	13	ProbeTrack	11.2	SCS215a	20101025.130615	20101025.135044	8	0.013328	60	10	60-180	60	79	GapExp	0	398	2	45	1	distractor	0	454	-1000	158463	13.328	13.309	13.346
ProbeTrack11	13	ProbeTrack	11.2	SCS215a	20101025.130615	20101025.135050	8	0.013328	60	0	60-180	60	81	GapExp	0	399	2	3	0	distractor	1	680	660	159123	13.328	13.308	13.354
ProbeTrack11	13	ProbeTrack	11.2	SCS215a	20101025.130615	20101025.135056	8	0.013328	60	10	60-180	60	153	GapExp	0	400	2	3	0	distractor	1	547	727	159850	13.328	12.874	13.793
ProbeTrack11	13	ProbeTrack	11.2	SCS215a	20101025.130615	20101025.135102	8	0.013328	60	0	60-180	60	78	GapExp	0	401	2	45	0	distractor	1	587	707	160557	13.328	13.067	13.579
ProbeTrack11	13	ProbeTrack	11.2	SCS215a	20101025.130615	20101025.135108	8	0.013328	60	10	60-180	60	142	GapExp	0	402	2	1	1	target	1	520	740	161297	13.328	12.949	13.707
ProbeTrack11	13	ProbeTrack	11.2	SCS215a	20101025.130615	20101025.135114	8	0.013328	60	0	60-180	60	176	GapExp	0	403	2	45	1	target	1	547	727	162024	13.328	13.043	13.615
ProbeTrack11	13	ProbeTrack	11.2	SCS215a	20101025.130615	20101025.135121	8	0.013328	60	0	60-180	60	157	GapExp	0	404	2	0	0	distractor	1	587	707	162731	13.328	12.863	13.802
ProbeTrack11	13	ProbeTrack	11.2	SCS215a	20101025.130615	20101025.135128	8	0.013328	60	0	60-180	60	150	GapExp	0	405	2	0	0	distractor	1	640	680	163411	13.328	12.849	13.820
ProbeTrack11	13	ProbeTrack	11.2	SCS215a	20101025.130615	20101025.135134	8	0.013328	60	10	60-180	60	156	GapExp	0	406	2	3	1	target	1	773	614	164025	13.328	12.860	13.805
ProbeTrack11	13	ProbeTrack	11.2	SCS215a	20101025.130615	20101025.135141	8	0.013328	60	0	60-180	60	137	GapExp	0	407	2	0	0	target	0	534	-1000	163025	13.328	12.947	13.715
ProbeTrack11	13	ProbeTrack	11.2	SCS215a	20101025.130615	20101025.135147	8	0.013328	60	10	60-180	60	177	GapExp	0	408	2	3	1	target	1	560	720	163745	13.328	12.900	13.743
ProbeTrack11	13	ProbeTrack	11.2	SCS215a	20101025.130615	20101025.135153	8	0.013328	60	10	60-180	60	153	GapExp	0	409	2	3	1	target	1	440	780	164525	13.328	13.308	13.345
ProbeTrack11	13	ProbeTrack	11.2	SCS215a	20101025.130615	20101025.135200	8	0.013328	60	0	60-180	60	125	GapExp	0	410	2	45	1	target	1	547	727	165252	13.328	12.946	13.705
ProbeTrack11	13	ProbeTrack	11.2	SCS215a	20101025.130615	20101025.135208	8	0.013328	60	10	60-180	60	119	GapExp	0	411	2	3	1	target	1	440	780	166032	13.328	12.889	13.781
ProbeTrack11	13	ProbeTrack	11.2	SCS215a	20101025.130615	20101025.135214	8	0.013328	60	0	60-180	60	84	GapExp	0	412	2	3	0	distractor	1	680	660	166692	13.328	13.310	13.348
ProbeTrack11	13	ProbeTrack	11.2	SCS215a	20101025.130615	20101025.135219	8	0.013328	60	10	60-180	60	163	GapExp	0	413	2	3	0	target	0	574	-1000	165692	13.328	13.103	13.564
ProbeTrack11	13	ProbeTrack	11.2	SCS215a	20101025.130615	20101025.135226	8	0.013328	60	10	60-180	60	122	GapExp	0	414	2	0	1	target	1	560	720	166412	13.328	13.099	13.559
ProbeTrack11	13	ProbeTrack	11.2	SCS215a	20101025.130615	20101025.135232	8	0.013328	60	0	60-180	60	136	GapExp	0	415	2	1	0	distractor	1	574	713	167125	13.328	12.886	13.775
ProbeTrack11	13	ProbeTrack	11.2	SCS215a	20101025.130615	20101025.135238	8	0.013328	60	0	60-180	60	99	GapExp	0	416	2	0	1	target	1	467	767	167892	13.328	13.309	13.346
ProbeTrack11	13	ProbeTrack	11.2	SCS215a	20101025.130615	20101025.135243	8	0.013328	60	10	60-180	60	135	GapExp	0	417	2	0	0	target	0	853	-1000	166892	13.328	12.891	13.348
ProbeTrack11	13	ProbeTrack	11.2	SCS215a	20101025.130615	20101025.135250	8	0.013328	60	10	60-180	60	139	GapExp	0	418	2	3	1	target	1	374	813	167705	13.328	12.866	13.792
ProbeTrack11	13	ProbeTrack	11.2	SCS215a	20101025.130615	20101025.135256	8	0.013328	60	0	60-180	60	131	GapExp	0	419	2	1	0	distractor	1	747	627	168332	13.328	13.305	13.354
ProbeTrack11	13	ProbeTrack	11.2	SCS215a	20101025.130615	20101025.135302	8	0.013328	60	10	60-180	60	133	GapExp	0	420	2	1	1	distractor	0	760	-1000	167332	13.328	12.911	13.748
ProbeTrack11	13	ProbeTrack	11.2	SCS215a	20101025.130615	20101025.135308	8	0.013328	60	0	60-180	60	177	GapExp	0	421	2	45	0	distractor	1	760	620	167952	13.328	12.881	13.768
ProbeTrack11	13	ProbeTrack	11.2	SCS215a	20101025.130615	20101025.135317	8	0.013328	60	10	60-180	60	163	GapExp	0	422	2	45	1	target	1	667	667	168619	13.328	13.008	13.647
ProbeTrack11	13	ProbeTrack	11.2	SCS215a	20101025.130615	20101025.135324	8	0.013328	60	10	60-180	60	168	GapExp	0	423	2	0	1	target	1	547	727	169346	13.328	12.952	13.718
ProbeTrack11	13	ProbeTrack	11.2	SCS215a	20101025.130615	20101025.135331	8	0.013328	60	10	60-180	60	139	GapExp	0	424	2	0	0	distractor	1	773	614	169960	13.328	13.308	13.345
ProbeTrack11	13	ProbeTrack	11.2	SCS215a	20101025.130615	20101025.135338	8	0.013328	60	10	60-180	60	154	GapExp	0	425	2	3	1	target	1	547	727	170687	13.328	12.875	13.768
ProbeTrack11	13	ProbeTrack	11.2	SCS215a	20101025.130615	20101025.135344	8	0.013328	60	10	60-180	60	62	GapExp	0	426	2	3	1	target	1	2026	0	170687	13.328	13.019	13.632
ProbeTrack11	13	ProbeTrack	11.2	SCS215a	20101025.130615	20101025.135351	8	0.013328	60	10	60-180	60	66	GapExp	0	427	2	1	0	distractor	1	707	647	171334	13.328	12.882	13.768
ProbeTrack11	13	ProbeTrack	11.2	SCS215a	20101025.130615	20101025.135356	8	0.013328	60	0	60-180	60	90	GapExp	0	428	2	3	0	distractor	1	720	640	171974	13.328	12.967	13.691
ProbeTrack11	13	ProbeTrack	11.2	SCS215a	20101025.130615	20101025.135402	8	0.013328	60	0	60-180	60	123	GapExp	0	429	2	3	0	target	0	640	-1000	170974	13.328	13.117	13.552
ProbeTrack11	13	ProbeTrack	11.2	SCS215a	20101025.130615	20101025.135408	8	0.013328	60	0	60-180	60	160	GapExp	0	430	2	0	1	target	1	480	760	171734	13.328	12.874	13.779
ProbeTrack11	13	ProbeTrack	11.2	SCS215a	20101025.130615	20101025.135414	8	0.013328	60	10	60-180	60	178	GapExp	0	431	2	45	0	target	0	481	-1000	170734	13.328	12.867	13.792
ProbeTrack11	13	ProbeTrack	11.2	SCS215a	20101025.130615	20101025.135421	8	0.013328	60	10	60-180	60	107	GapExp	0	432	2	0	0	target	0	1240	-1000	169734	13.328	12.883	13.772
ProbeTrack11	13	ProbeTrack	11.2	SCS215a	20101025.130615	20101025.135428	8	0.013328	60	10	60-180	60	149	GapExp	0	433	2	0	0	distractor	1	787	607	170341	13.328	13.035	13.636
ProbeTrack11	13	ProbeTrack	11.2	SCS215a	20101025.130615	20101025.135436	8	0.013328	60	10	60-180	60	160	GapExp	0	434	2	3	0	distractor	1	800	600	170941	13.328	13.018	13.633
ProbeTrack11	13	ProbeTrack	11.2	SCS215a	20101025.130615	20101025.135443	8	0.013328	60	0	60-180	60	84	GapExp	0	435	2	1	1	target	1	454	773	171714	13.328	13.282	13.355
ProbeTrack11	13	ProbeTrack	11.2	SCS215a	20101025.130615	20101025.135448	8	0.013328	60	0	60-180	60	155	GapExp	0	436	2	3	1	target	1	547	727	172441	13.328	13.018	13.641
ProbeTrack11	13	ProbeTrack	11.2	SCS215a	20101025.130615	20101025.135455	8	0.013328	60	10	60-180	60	97	GapExp	0	437	2	45	0	distractor	1	520	740	173181	13.328	13.067	13.587
ProbeTrack11	13	ProbeTrack	11.2	SCS215a	20101025.130615	20101025.135501	8	0.013328	60	10	60-180	60	105	GapExp	0	438	2	3	1	target	1	454	773	173954	13.328	13.009	13.649
ProbeTrack11	13	ProbeTrack	11.2	SCS215a	20101025.130615	20101025.135506	8	0.013328	60	0	60-180	60	134	GapExp	0	439	2	1	0	distractor	1	600	700	174654	13.328	12.852	13.791
ProbeTrack11	13	ProbeTrack	11.2	SCS215a	20101025.130615	20101025.135512	8	0.013328	60	10	60-180	60	80	GapExp	0	440	2	0	0	distractor	1	627	687	175341	13.328	13.000	13.660
ProbeTrack11	13	ProbeTrack	11.2	SCS215a	20101025.130615	20101025.135518	8	0.013328	60	0	60-180	60	157	GapExp	0	441	2	0	0	distractor	1	733	634	175975	13.328	13.172	13.478
ProbeTrack11	13	ProbeTrack	11.2	SCS215a	20101025.130615	20101025.135524	8	0.013328	60	10	60-180	60	152	GapExp	0	442	2	0	0	target	0	467	-1000	174975	13.328	12.929	13.722
ProbeTrack11	13	ProbeTrack	11.2	SCS215a	20101025.130615	20101025.135531	8	0.013328	60	10	60-180	60	63	GapExp	0	443	2	0	1	target	1	920	540	175515	13.328	13.308	13.358
ProbeTrack11	13	ProbeTrack	11.2	SCS215a	20101025.130615	20101025.135536	8	0.013328	60	10	60-180	60	141	GapExp	0	444	2	3	1	distractor	0	600	-1000	174515	13.328	12.872	13.776
ProbeTrack11	13	ProbeTrack	11.2	SCS215a	20101025.130615	20101025.135543	8	0.013328	60	0	60-180	60	96	GapExp	0	445	2	45	1	target	1	1093	454	174969	13.328	12.958	13.702
ProbeTrack11	13	ProbeTrack	11.2	SCS215a	20101025.130615	20101025.135549	8	0.013328	60	0	60-180	60	114	GapExp	0	446	2	3	1	target	1	520	740	175709	13.328	12.952	13.717
ProbeTrack11	13	ProbeTrack	11.2	SCS215a	20101025.130615	20101025.135555	8	0.013328	60	0	60-180	60	168	GapExp	0	447	2	1	1	target	1	467	767	176476	13.328	13.096	13.543
ProbeTrack11	13	ProbeTrack	11.2	SCS215a	20101025.130615	20101025.135602	8	0.013328	60	10	60-180	60	180	GapExp	0	448	2	0	0	target	0	374	-1000	175476	13.328	12.863	13.795
ProbeTrack11	13	ProbeTrack	11.2	SCS215a	20101025.130615	20101025.135608	8	0.013328	60	0	60-180	60	118	GapExp	0	449	2	1	0	target	0	820	-1000	174476	13.328	12.883	13.786
ProbeTrack11	13	ProbeTrack	11.2	SCS215a	20101025.130615	20101025.135614	8	0.013328	60	0	60-180	60	114	GapExp	0	450	2	1	0	distractor	1	640	680	175156	13.328	13.060	13.599
