exp	sub	code	rev	comp	runtime	trialtime	nstim	refreshdur	cuedur	gapdur	gapOnsetRange	durPostProbe	gapOnsetTime	blocktype	prac	trial	ntargets	soa	probeTarget	resp	acc	rt	pts	tpts	meanFrameDur	minFrameDur	maxFrameDur
ProbeTrack11	3	ProbeTrack	11.1	SCS215a	20100812.094541	20100812.094549	8	0.013328	60	0	60-180	60	169	NoGap	1	1	2	3	0	83	-3	600	-1000	-1000	13.328	12.992	13.664
ProbeTrack11	3	ProbeTrack	11.1	SCS215a	20100812.094541	20100812.094556	8	0.013328	60	0	60-180	60	113	NoGap	1	2	2	45	0	distractor	1	760	620	-380	13.328	13.266	13.390
ProbeTrack11	3	ProbeTrack	11.1	SCS215a	20100812.104534	20100812.104538	8	0.013328	60	0	60-180	60	76	NoGap	1	1	2	3	1	target	1	7677	0	-380	13.328	13.294	13.346
ProbeTrack11	3	ProbeTrack	11.1	SCS215a	20100812.104534	20100812.104644	8	0.013328	60	0	60-180	60	64	NoGap	1	2	2	3	1	target	1	2559	0	-380	13.328	13.097	13.558
ProbeTrack11	3	ProbeTrack	11.1	SCS215a	20100812.104534	20100812.104654	8	0.013328	60	0	60-180	60	132	NoGap	1	3	2	45	1	target	1	1373	314	-66	13.328	13.307	13.358
ProbeTrack11	3	ProbeTrack	11.1	SCS215a	20100812.104534	20100812.104735	8	0.013328	60	0	60-180	60	94	NoGap	1	4	2	0	0	distractor	1	1933	34	-32	13.328	13.308	13.347
ProbeTrack11	3	ProbeTrack	11.1	SCS215a	20100812.104534	20100812.104745	8	0.013328	60	0	60-180	60	171	NoGap	1	5	2	3	1	target	1	614	693	661	13.328	13.214	13.438
ProbeTrack11	3	ProbeTrack	11.1	SCS215a	20100812.104534	20100812.104753	8	0.013328	60	0	60-180	60	81	NoGap	1	6	2	0	1	target	1	680	660	1321	13.328	13.308	13.348
ProbeTrack11	3	ProbeTrack	11.1	SCS215a	20100812.104534	20100812.104759	8	0.013328	60	0	60-180	60	104	NoGap	1	7	2	0	1	target	1	534	733	2054	13.328	13.304	13.356
ProbeTrack11	3	ProbeTrack	11.1	SCS215a	20100812.104534	20100812.104806	8	0.013328	60	0	60-180	60	124	NoGap	1	8	2	3	0	distractor	1	1373	314	2368	13.328	13.107	13.548
ProbeTrack11	3	ProbeTrack	11.1	SCS215a	20100812.104534	20100812.104818	8	0.013328	60	0	60-180	60	131	NoGap	1	9	2	3	1	target	1	720	640	3008	13.328	13.107	13.560
ProbeTrack11	3	ProbeTrack	11.1	SCS215a	20100812.104534	20100812.104826	8	0.013328	60	0	60-180	60	162	NoGap	1	10	2	45	1	target	1	1706	147	3155	13.328	12.974	13.691
ProbeTrack11	3	ProbeTrack	11.1	SCS215a	20100812.104534	20100812.104834	8	0.013328	60	0	60-180	60	175	NoGap	1	11	2	3	1	target	1	1706	147	3302	13.328	13.092	13.568
ProbeTrack11	3	ProbeTrack	11.1	SCS215a	20100812.104534	20100812.104855	8	0.013328	60	0	60-180	60	148	NoGap	1	12	2	45	0	distractor	1	1293	354	3656	13.328	13.115	13.538
ProbeTrack11	3	ProbeTrack	11.1	SCS215a	20100812.104534	20100812.104907	8	0.013328	60	0	60-180	60	88	NoGap	1	13	2	0	0	distractor	1	1666	167	3823	13.328	13.308	13.346
ProbeTrack11	3	ProbeTrack	11.1	SCS215a	20100812.104534	20100812.104915	8	0.013328	60	0	60-180	60	90	NoGap	1	14	2	45	1	target	1	1546	227	4050	13.328	13.300	13.352
ProbeTrack11	3	ProbeTrack	11.1	SCS215a	20100812.104534	20100812.104926	8	0.013328	60	0	60-180	60	123	NoGap	1	15	2	45	0	distractor	1	1333	334	4384	13.328	13.080	13.571
ProbeTrack11	3	ProbeTrack	11.1	SCS215a	20100812.104534	20100812.104947	8	0.013328	60	0	60-180	60	96	NoGap	1	16	2	0	1	target	1	1386	307	4691	13.328	13.107	13.557
ProbeTrack11	3	ProbeTrack	11.1	SCS215a	20100812.104534	20100812.105002	8	0.013328	60	0	60-180	60	69	NoGap	1	17	2	45	1	target	1	1133	434	5125	13.328	12.911	13.762
ProbeTrack11	3	ProbeTrack	11.1	SCS215a	20100812.104534	20100812.105011	8	0.013328	60	0	60-180	60	178	NoGap	1	18	2	1	1	target	1	2199	0	5125	13.328	13.099	13.535
ProbeTrack11	3	ProbeTrack	11.1	SCS215a	20100812.104534	20100812.105020	8	0.013328	60	0	60-180	60	150	NoGap	1	19	2	1	0	distractor	1	2932	0	5125	13.328	12.927	13.733
ProbeTrack11	3	ProbeTrack	11.1	SCS215a	20100812.104534	20100812.105032	8	0.013328	60	0	60-180	60	140	NoGap	1	20	2	1	1	target	1	2000	0	5125	13.328	12.869	13.781
ProbeTrack11	3	ProbeTrack	11.1	SCS215a	20100812.104534	20100812.105046	8	0.013328	60	0	60-180	60	157	NoGap	1	21	2	1	0	distractor	1	1800	100	5225	13.328	13.097	13.571
ProbeTrack11	3	ProbeTrack	11.1	SCS215a	20100812.104534	20100812.105059	8	0.013328	60	0	60-180	60	115	NoGap	1	22	2	1	0	distractor	1	1813	94	5319	13.328	13.079	13.560
ProbeTrack11	3	ProbeTrack	11.1	SCS215a	20100812.104534	20100812.105109	8	0.013328	60	0	60-180	60	144	NoGap	1	23	2	3	0	distractor	1	1560	220	5539	13.328	13.308	13.346
ProbeTrack11	3	ProbeTrack	11.1	SCS215a	20100812.104534	20100812.105125	8	0.013328	60	0	60-180	60	96	NoGap	1	24	2	0	1	target	1	1880	60	5599	13.328	13.308	13.346
ProbeTrack11	3	ProbeTrack	11.1	SCS215a	20100812.104534	20100812.105139	8	0.013328	60	0	60-180	60	114	NoGap	1	25	2	0	0	distractor	1	2319	0	5599	13.328	13.087	13.566
ProbeTrack11	3	ProbeTrack	11.1	SCS215a	20100812.104534	20100812.105148	8	0.013328	60	0	60-180	60	155	NoGap	1	26	2	45	0	distractor	1	3692	0	5599	13.328	13.135	13.534
ProbeTrack11	3	ProbeTrack	11.1	SCS215a	20100812.104534	20100812.105201	8	0.013328	60	0	60-180	60	67	NoGap	1	27	2	45	0	distractor	1	2586	0	5599	13.328	13.278	13.382
ProbeTrack11	3	ProbeTrack	11.1	SCS215a	20100812.104534	20100812.105215	8	0.013328	60	0	60-180	60	80	NoGap	1	28	2	3	0	distractor	1	2040	0	5599	13.328	13.310	13.347
ProbeTrack11	3	ProbeTrack	11.1	SCS215a	20100812.104534	20100812.105233	8	0.013328	60	0	60-180	60	70	NoGap	1	29	2	1	1	target	1	2826	0	5599	13.328	13.309	13.345
ProbeTrack11	3	ProbeTrack	11.1	SCS215a	20100812.104534	20100812.105243	8	0.013328	60	0	60-180	60	63	NoGap	1	30	2	0	0	distractor	1	2306	0	5599	13.328	13.269	13.379
ProbeTrack11	3	ProbeTrack	11.1	SCS215a	20100812.104534	20100812.105255	8	0.013328	60	0	60-180	60	154	NoGap	1	31	2	45	1	target	1	1466	267	5866	13.328	13.013	13.628
ProbeTrack11	3	ProbeTrack	11.1	SCS215a	20100812.104534	20100812.105309	8	0.013328	60	0	60-180	60	74	NoGap	1	32	2	1	1	target	1	1666	167	6033	13.328	13.098	13.567
ProbeTrack11	3	ProbeTrack	11.1	SCS215a	20100812.104534	20100812.105318	8	0.013328	60	0	60-180	60	81	NoGap	1	33	2	0	0	distractor	1	1986	7	6040	13.328	12.850	13.796
ProbeTrack11	3	ProbeTrack	11.1	SCS215a	20100812.104534	20100812.105326	8	0.013328	60	0	60-180	60	152	NoGap	1	34	2	1	0	distractor	1	4865	0	6040	13.328	13.107	13.548
ProbeTrack11	3	ProbeTrack	11.1	SCS215a	20100812.104534	20100812.105338	8	0.013328	60	0	60-180	60	102	NoGap	1	35	2	1	1	target	1	1613	194	6234	13.328	13.117	13.542
ProbeTrack11	3	ProbeTrack	11.1	SCS215a	20100812.104534	20100812.105346	8	0.013328	60	0	60-180	60	137	NoGap	1	36	2	3	0	distractor	1	2346	0	6234	13.328	13.098	13.558
ProbeTrack11	3	ProbeTrack	11.1	SCS215a	20100812.104534	20100812.105355	8	0.013328	60	0	60-180	60	73	NoGap	1	37	2	0	1	target	1	840	580	6814	13.328	13.031	13.619
ProbeTrack11	3	ProbeTrack	11.1	SCS215a	20100812.104534	20100812.105403	8	0.013328	60	0	60-180	60	143	NoGap	1	38	2	3	0	distractor	1	1253	374	7188	13.328	13.305	13.347
ProbeTrack11	3	ProbeTrack	11.1	SCS215a	20100812.104534	20100812.105411	8	0.013328	60	0	60-180	60	180	NoGap	1	39	2	1	0	distractor	1	1440	280	7468	13.328	12.952	13.708
ProbeTrack11	3	ProbeTrack	11.1	SCS215a	20100812.104534	20100812.105420	8	0.013328	60	0	60-180	60	142	NoGap	1	40	2	45	0	distractor	1	1320	340	7808	13.328	13.023	13.629
ProbeTrack11	3	ProbeTrack	11.1	SCS215a	20100812.105543	20100812.105554	8	0.013328	60	0	60-180	60	174	GapPrac	1	1	2	1	0	distractor	1	3546	0	7808	13.328	13.302	13.350
ProbeTrack11	3	ProbeTrack	11.1	SCS215a	20100812.105543	20100812.105606	8	0.013328	60	10	60-180	60	62	GapPrac	1	2	2	1	0	distractor	1	2159	0	7808	13.328	13.031	13.620
ProbeTrack11	3	ProbeTrack	11.1	SCS215a	20100812.105543	20100812.105630	8	0.013328	60	10	60-180	60	173	GapPrac	1	3	2	3	1	target	1	2426	0	7808	13.328	12.883	13.776
ProbeTrack11	3	ProbeTrack	11.1	SCS215a	20100812.105543	20100812.105641	8	0.013328	60	0	60-180	60	158	GapPrac	1	4	2	45	0	distractor	1	1067	467	8275	13.328	12.918	13.736
ProbeTrack11	3	ProbeTrack	11.1	SCS215a	20100812.105543	20100812.105650	8	0.013328	60	0	60-180	60	110	GapPrac	1	5	2	3	1	target	1	2373	0	8275	13.328	13.110	13.562
ProbeTrack11	3	ProbeTrack	11.1	SCS215a	20100812.105543	20100812.105658	8	0.013328	60	10	60-180	60	72	GapPrac	1	6	2	1	1	distractor	0	1346	-1000	7275	13.328	12.840	13.825
ProbeTrack11	3	ProbeTrack	11.1	SCS215a	20100812.105543	20100812.105705	8	0.013328	60	0	60-180	60	160	GapPrac	1	7	2	45	0	distractor	1	933	534	7809	13.328	13.098	13.560
ProbeTrack11	3	ProbeTrack	11.1	SCS215a	20100812.105543	20100812.105716	8	0.013328	60	0	60-180	60	77	GapPrac	1	8	2	0	1	target	1	1067	467	8276	13.328	12.989	13.671
ProbeTrack11	3	ProbeTrack	11.1	SCS215a	20100812.105543	20100812.105722	8	0.013328	60	0	60-180	60	69	GapPrac	1	9	2	0	0	distractor	1	1027	487	8763	13.328	12.898	13.762
ProbeTrack11	3	ProbeTrack	11.1	SCS215a	20100812.105543	20100812.105729	8	0.013328	60	0	60-180	60	115	GapPrac	1	10	2	45	1	target	1	1933	34	8797	13.328	12.908	13.753
ProbeTrack11	3	ProbeTrack	11.1	SCS215a	20100812.105543	20100812.105737	8	0.013328	60	10	60-180	60	145	GapPrac	1	11	2	45	1	target	1	1760	120	8917	13.328	12.926	13.730
ProbeTrack11	3	ProbeTrack	11.1	SCS215a	20100812.105543	20100812.105746	8	0.013328	60	0	60-180	60	141	GapPrac	1	12	2	1	1	target	1	1227	387	9304	13.327	13.095	13.351
ProbeTrack11	3	ProbeTrack	11.1	SCS215a	20100812.105543	20100812.105754	8	0.013328	60	10	60-180	60	151	GapPrac	1	13	2	1	0	target	0	1147	-1000	8304	13.328	13.293	13.348
ProbeTrack11	3	ProbeTrack	11.1	SCS215a	20100812.105543	20100812.105801	8	0.013328	60	0	60-180	60	106	GapPrac	1	14	2	1	0	multi	-2	974	-1000	7304	13.328	13.024	13.628
ProbeTrack11	3	ProbeTrack	11.1	SCS215a	20100812.105543	20100812.105817	8	0.013328	60	10	60-180	60	90	GapPrac	1	15	2	0	1	target	1	2413	0	7304	13.328	12.993	13.668
ProbeTrack11	3	ProbeTrack	11.1	SCS215a	20100812.105543	20100812.105829	8	0.013328	60	10	60-180	60	157	GapPrac	1	16	2	3	1	target	1	2239	0	7304	13.328	12.887	13.798
ProbeTrack11	3	ProbeTrack	11.1	SCS215a	20100812.105543	20100812.105838	8	0.013328	60	10	60-180	60	66	GapPrac	1	17	2	0	0	distractor	1	1946	27	7331	13.328	13.309	13.347
ProbeTrack11	3	ProbeTrack	11.1	SCS215a	20100812.105543	20100812.105845	8	0.013328	60	0	60-180	60	153	GapPrac	1	18	2	3	0	distractor	1	880	560	7891	13.328	12.925	13.731
ProbeTrack11	3	ProbeTrack	11.1	SCS215a	20100812.105543	20100812.105852	8	0.013328	60	10	60-180	60	77	GapPrac	1	19	2	3	0	target	0	2253	-1000	6891	13.328	13.309	13.359
ProbeTrack11	3	ProbeTrack	11.1	SCS215a	20100812.105543	20100812.105900	8	0.013328	60	10	60-180	60	100	GapPrac	1	20	2	45	0	distractor	1	1386	307	7198	13.328	13.065	13.605
ProbeTrack11	3	ProbeTrack	11.1	SCS215a	20100812.110009	20100812.110058	8	0.013328	60	10	60-180	60	121	GapExp	1	1	2	3	1	distractor	0	1706	-1000	6198	13.477	12.903	26.980
ProbeTrack11	3	ProbeTrack	11.1	SCS215a	20100812.110009	20100812.110107	8	0.013328	60	0	60-180	60	143	GapExp	1	2	2	45	1	target	1	1200	400	6598	13.328	12.912	13.652
ProbeTrack11	3	ProbeTrack	11.1	SCS215a	20100812.110009	20100812.110116	8	0.013328	60	10	60-180	60	174	GapExp	1	3	2	45	0	distractor	1	2399	0	6598	13.328	12.926	13.718
ProbeTrack11	3	ProbeTrack	11.1	SCS215a	20100812.110009	20100812.110126	8	0.013328	60	0	60-180	60	166	GapExp	1	4	2	3	0	distractor	1	960	520	7118	13.328	12.908	13.752
ProbeTrack11	3	ProbeTrack	11.1	SCS215a	20100812.110009	20100812.110135	8	0.013328	60	0	60-180	60	89	GapExp	1	5	2	0	0	distractor	1	1386	307	7425	13.328	13.098	13.558
ProbeTrack11	3	ProbeTrack	11.1	SCS215a	20100812.110009	20100812.110142	8	0.013328	60	0	60-180	60	150	GapExp	0	6	2	3	1	target	1	867	567	7992	13.328	13.090	13.570
ProbeTrack11	3	ProbeTrack	11.1	SCS215a	20100812.110009	20100812.110149	8	0.013328	60	0	60-180	60	135	GapExp	0	7	2	45	0	distractor	1	1080	460	8452	13.328	13.094	13.556
ProbeTrack11	3	ProbeTrack	11.1	SCS215a	20100812.110009	20100812.110157	8	0.013328	60	10	60-180	60	155	GapExp	0	8	2	1	1	target	1	2333	0	8452	13.328	13.307	13.352
ProbeTrack11	3	ProbeTrack	11.1	SCS215a	20100812.110009	20100812.110207	8	0.013328	60	0	60-180	60	139	GapExp	0	9	2	1	0	distractor	1	2586	0	8452	13.328	13.308	13.348
ProbeTrack11	3	ProbeTrack	11.1	SCS215a	20100812.110009	20100812.110217	8	0.013328	60	0	60-180	60	99	GapExp	0	10	2	3	0	distractor	1	1906	47	8499	13.328	13.106	13.550
ProbeTrack11	3	ProbeTrack	11.1	SCS215a	20100812.110009	20100812.110225	8	0.013328	60	10	60-180	60	147	GapExp	0	11	2	0	0	target	0	2573	-1000	7499	13.328	13.091	13.564
ProbeTrack11	3	ProbeTrack	11.1	SCS215a	20100812.110009	20100812.110234	8	0.013328	60	10	60-180	60	117	GapExp	0	12	2	3	0	distractor	1	2133	0	7499	13.328	13.308	13.347
ProbeTrack11	3	ProbeTrack	11.1	SCS215a	20100812.110009	20100812.110244	8	0.013328	60	10	60-180	60	118	GapExp	0	13	2	0	1	distractor	0	1573	-1000	6499	13.328	12.869	13.786
ProbeTrack11	3	ProbeTrack	11.1	SCS215a	20100812.110009	20100812.110253	8	0.013328	60	10	60-180	60	88	GapExp	0	14	2	45	1	target	1	1786	107	6606	13.328	13.111	13.549
ProbeTrack11	3	ProbeTrack	11.1	SCS215a	20100812.110009	20100812.110301	8	0.013328	60	0	60-180	60	180	GapExp	0	15	2	1	0	distractor	1	813	594	7200	13.328	12.861	13.805
ProbeTrack11	3	ProbeTrack	11.1	SCS215a	20100812.110009	20100812.110309	8	0.013328	60	0	60-180	60	126	GapExp	0	16	2	3	0	distractor	1	1107	447	7647	13.328	13.303	13.361
ProbeTrack11	3	ProbeTrack	11.1	SCS215a	20100812.110009	20100812.110316	8	0.013328	60	0	60-180	60	171	GapExp	0	17	2	3	1	target	1	1866	67	7714	13.328	12.899	13.744
ProbeTrack11	3	ProbeTrack	11.1	SCS215a	20100812.110009	20100812.110327	8	0.013328	60	10	60-180	60	119	GapExp	0	18	2	1	0	target	0	1400	-1000	6714	13.378	12.859	27.134
ProbeTrack11	3	ProbeTrack	11.1	SCS215a	20100812.110009	20100812.110335	8	0.013328	60	0	60-180	60	145	GapExp	0	19	2	3	1	target	1	1706	147	6861	13.328	13.301	13.357
ProbeTrack11	3	ProbeTrack	11.1	SCS215a	20100812.110009	20100812.110342	8	0.013328	60	10	60-180	60	112	GapExp	0	20	2	0	1	distractor	0	1413	-1000	5861	13.380	13.112	26.661
ProbeTrack11	3	ProbeTrack	11.1	SCS215a	20100812.110009	20100812.110349	8	0.013328	60	10	60-180	60	103	GapExp	0	21	2	45	0	target	0	1187	-1000	4861	13.328	12.848	13.797
ProbeTrack11	3	ProbeTrack	11.1	SCS215a	20100812.110009	20100812.110357	8	0.013328	60	10	60-180	60	61	GapExp	0	22	2	45	0	distractor	1	1173	414	5275	13.328	12.999	13.654
ProbeTrack11	3	ProbeTrack	11.1	SCS215a	20100812.110009	20100812.110404	8	0.013328	60	0	60-180	60	80	GapExp	0	23	2	0	1	target	1	1266	367	5642	13.328	13.027	13.641
ProbeTrack11	3	ProbeTrack	11.1	SCS215a	20100812.110009	20100812.110411	8	0.013328	60	0	60-180	60	124	GapExp	0	24	2	45	0	distractor	1	933	534	6176	13.328	12.881	13.767
ProbeTrack11	3	ProbeTrack	11.1	SCS215a	20100812.110009	20100812.110418	8	0.013328	60	10	60-180	60	169	GapExp	0	25	2	0	1	target	1	2479	0	6176	13.328	12.875	13.782
ProbeTrack11	3	ProbeTrack	11.1	SCS215a	20100812.110009	20100812.110428	8	0.013328	60	10	60-180	60	165	GapExp	0	26	2	0	0	distractor	1	1906	47	6223	13.328	13.101	13.560
ProbeTrack11	3	ProbeTrack	11.1	SCS215a	20100812.110009	20100812.110438	8	0.013328	60	0	60-180	60	80	GapExp	0	27	2	45	1	target	1	1040	480	6703	13.328	13.016	13.645
ProbeTrack11	3	ProbeTrack	11.1	SCS215a	20100812.110009	20100812.110445	8	0.013328	60	0	60-180	60	89	GapExp	0	28	2	1	0	distractor	1	800	600	7303	13.328	13.308	13.346
ProbeTrack11	3	ProbeTrack	11.1	SCS215a	20100812.110009	20100812.110451	8	0.013328	60	10	60-180	60	158	GapExp	0	29	2	3	0	distractor	1	747	627	7930	13.328	13.309	13.348
ProbeTrack11	3	ProbeTrack	11.1	SCS215a	20100812.110009	20100812.110502	8	0.013328	60	10	60-180	60	79	GapExp	0	30	2	1	1	distractor	0	933	-1000	6930	13.328	13.304	13.347
ProbeTrack11	3	ProbeTrack	11.1	SCS215a	20100812.110009	20100812.110509	8	0.013328	60	0	60-180	60	117	GapExp	0	31	2	1	1	target	1	800	600	7530	13.328	13.066	13.598
ProbeTrack11	3	ProbeTrack	11.1	SCS215a	20100812.110009	20100812.110519	8	0.013328	60	10	60-180	60	98	GapExp	0	32	2	1	1	distractor	0	1600	-1000	6530	13.328	12.936	13.720
ProbeTrack11	3	ProbeTrack	11.1	SCS215a	20100812.110009	20100812.110526	8	0.013328	60	10	60-180	60	167	GapExp	0	33	2	45	1	distractor	0	1493	-1000	5530	13.328	13.087	13.556
ProbeTrack11	3	ProbeTrack	11.1	SCS215a	20100812.110009	20100812.110535	8	0.013328	60	0	60-180	60	130	GapExp	0	34	2	3	1	target	1	1040	480	6010	13.328	12.897	13.751
ProbeTrack11	3	ProbeTrack	11.1	SCS215a	20100812.110009	20100812.110542	8	0.013328	60	10	60-180	60	121	GapExp	0	35	2	3	1	target	1	1560	220	6230	13.328	13.274	13.383
ProbeTrack11	3	ProbeTrack	11.1	SCS215a	20100812.110009	20100812.110550	8	0.013328	60	10	60-180	60	65	GapExp	0	36	2	1	0	distractor	1	2706	0	6230	13.328	13.180	13.489
ProbeTrack11	3	ProbeTrack	11.1	SCS215a	20100812.110009	20100812.110558	8	0.013328	60	0	60-180	60	136	GapExp	0	37	2	3	1	target	1	800	600	6830	13.328	13.273	13.382
ProbeTrack11	3	ProbeTrack	11.1	SCS215a	20100812.110009	20100812.110606	8	0.013328	60	10	60-180	60	138	GapExp	0	38	2	3	0	target	0	3119	-1000	5830	13.328	13.304	13.347
ProbeTrack11	3	ProbeTrack	11.1	SCS215a	20100812.110009	20100812.110615	8	0.013328	60	0	60-180	60	77	GapExp	0	39	2	3	0	distractor	1	987	507	6337	13.328	13.098	13.564
ProbeTrack11	3	ProbeTrack	11.1	SCS215a	20100812.110009	20100812.110621	8	0.013328	60	0	60-180	60	130	GapExp	0	40	2	3	1	target	1	787	607	6944	13.328	13.308	13.346
ProbeTrack11	3	ProbeTrack	11.1	SCS215a	20100812.110009	20100812.110628	8	0.013328	60	0	60-180	60	63	GapExp	0	41	2	45	0	distractor	1	853	574	7518	13.328	13.112	13.562
ProbeTrack11	3	ProbeTrack	11.1	SCS215a	20100812.110009	20100812.110635	8	0.013328	60	0	60-180	60	105	GapExp	0	42	2	1	1	target	1	1400	300	7818	13.328	13.096	13.545
ProbeTrack11	3	ProbeTrack	11.1	SCS215a	20100812.110009	20100812.110642	8	0.013328	60	10	60-180	60	118	GapExp	0	43	2	0	1	target	1	1746	127	7945	13.328	13.091	13.550
ProbeTrack11	3	ProbeTrack	11.1	SCS215a	20100812.110009	20100812.110650	8	0.013328	60	0	60-180	60	151	GapExp	0	44	2	1	0	distractor	1	2106	0	7945	13.328	12.942	13.729
ProbeTrack11	3	ProbeTrack	11.1	SCS215a	20100812.110009	20100812.110658	8	0.013328	60	0	60-180	60	61	GapExp	0	45	2	0	0	distractor	1	1293	354	8299	13.328	12.978	13.679
ProbeTrack11	3	ProbeTrack	11.1	SCS215a	20100812.110009	20100812.110705	8	0.013328	60	0	60-180	60	82	GapExp	0	46	2	45	0	distractor	1	1586	207	8506	13.328	13.049	13.615
ProbeTrack11	3	ProbeTrack	11.1	SCS215a	20100812.110009	20100812.110713	8	0.013328	60	0	60-180	60	156	GapExp	0	47	2	0	0	distractor	1	987	507	9013	13.328	12.976	13.693
ProbeTrack11	3	ProbeTrack	11.1	SCS215a	20100812.110009	20100812.110721	8	0.013328	60	10	60-180	60	147	GapExp	0	48	2	0	1	distractor	0	1107	-1000	8013	13.374	12.864	26.660
ProbeTrack11	3	ProbeTrack	11.1	SCS215a	20100812.110009	20100812.110729	8	0.013328	60	10	60-180	60	67	GapExp	0	49	2	1	0	distractor	1	1773	114	8127	13.328	13.308	13.343
ProbeTrack11	3	ProbeTrack	11.1	SCS215a	20100812.110009	20100812.110737	8	0.013328	60	10	60-180	60	146	GapExp	0	50	2	0	1	distractor	0	1640	-1000	7127	13.328	13.201	13.465
ProbeTrack11	3	ProbeTrack	11.1	SCS215a	20100812.110009	20100812.110745	8	0.013328	60	0	60-180	60	122	GapExp	0	51	2	3	1	target	1	1547	227	7354	13.328	13.111	13.563
ProbeTrack11	3	ProbeTrack	11.1	SCS215a	20100812.110009	20100812.110752	8	0.013328	60	0	60-180	60	125	GapExp	0	52	2	1	1	target	1	1653	174	7528	13.328	13.115	13.539
ProbeTrack11	3	ProbeTrack	11.1	SCS215a	20100812.110009	20100812.110800	8	0.013328	60	10	60-180	60	141	GapExp	0	53	2	1	1	distractor	0	1067	-1000	6528	13.328	13.270	13.377
ProbeTrack11	3	ProbeTrack	11.1	SCS215a	20100812.110009	20100812.110807	8	0.013328	60	10	60-180	60	121	GapExp	0	54	2	45	1	target	1	1053	474	7002	13.328	13.089	13.566
ProbeTrack11	3	ProbeTrack	11.1	SCS215a	20100812.110009	20100812.110815	8	0.013328	60	10	60-180	60	137	GapExp	0	55	2	0	0	distractor	1	1840	80	7082	13.328	12.881	13.777
ProbeTrack11	3	ProbeTrack	11.1	SCS215a	20100812.110009	20100812.110823	8	0.013328	60	10	60-180	60	179	GapExp	0	56	2	0	0	distractor	1	1373	314	7396	13.328	13.308	13.348
ProbeTrack11	3	ProbeTrack	11.1	SCS215a	20100812.110009	20100812.110832	8	0.013328	60	0	60-180	60	112	GapExp	0	57	2	0	1	target	1	827	587	7983	13.328	13.288	13.350
ProbeTrack11	3	ProbeTrack	11.1	SCS215a	20100812.110009	20100812.110838	8	0.013328	60	10	60-180	60	96	GapExp	0	58	2	3	0	distractor	1	1360	320	8303	13.328	13.004	13.653
ProbeTrack11	3	ProbeTrack	11.1	SCS215a	20100812.110009	20100812.110845	8	0.013328	60	0	60-180	60	162	GapExp	0	59	2	45	0	distractor	1	853	574	8877	13.328	13.299	13.352
ProbeTrack11	3	ProbeTrack	11.1	SCS215a	20100812.110009	20100812.110854	8	0.013328	60	10	60-180	60	159	GapExp	0	60	2	45	1	target	1	787	607	9484	13.328	12.846	13.822
ProbeTrack11	3	ProbeTrack	11.1	SCS215a	20100812.110009	20100812.110902	8	0.013328	60	10	60-180	60	158	GapExp	0	61	2	0	0	distractor	1	1093	454	9938	13.328	13.106	13.544
ProbeTrack11	3	ProbeTrack	11.1	SCS215a	20100812.110009	20100812.110909	8	0.013328	60	0	60-180	60	90	GapExp	0	62	2	3	0	distractor	1	1000	500	10438	13.328	13.307	13.344
ProbeTrack11	3	ProbeTrack	11.1	SCS215a	20100812.110009	20100812.110916	8	0.013328	60	10	60-180	60	175	GapExp	0	63	2	0	1	target	1	1546	227	10665	13.328	13.116	13.551
ProbeTrack11	3	ProbeTrack	11.1	SCS215a	20100812.110009	20100812.110925	8	0.013328	60	10	60-180	60	159	GapExp	0	64	2	1	0	target	0	1680	-1000	9665	13.328	13.109	13.558
ProbeTrack11	3	ProbeTrack	11.1	SCS215a	20100812.110009	20100812.110933	8	0.013328	60	10	60-180	60	62	GapExp	0	65	2	0	0	distractor	1	1813	94	9759	13.328	13.310	13.343
ProbeTrack11	3	ProbeTrack	11.1	SCS215a	20100812.110009	20100812.110940	8	0.013328	60	0	60-180	60	74	GapExp	0	66	2	0	1	target	1	760	620	10379	13.328	12.871	13.788
ProbeTrack11	3	ProbeTrack	11.1	SCS215a	20100812.110009	20100812.110946	8	0.013328	60	0	60-180	60	109	GapExp	0	67	2	0	1	distractor	0	680	-1000	9379	13.328	13.099	13.542
ProbeTrack11	3	ProbeTrack	11.1	SCS215a	20100812.110009	20100812.110953	8	0.013328	60	0	60-180	60	107	GapExp	0	68	2	0	0	distractor	1	960	520	9899	13.328	13.095	13.555
ProbeTrack11	3	ProbeTrack	11.1	SCS215a	20100812.110009	20100812.111000	8	0.013328	60	0	60-180	60	107	GapExp	0	69	2	1	0	distractor	1	907	547	10446	13.328	13.089	13.561
ProbeTrack11	3	ProbeTrack	11.1	SCS215a	20100812.110009	20100812.111006	8	0.013328	60	10	60-180	60	94	GapExp	0	70	2	45	0	target	0	827	-1000	9446	13.328	13.104	13.560
ProbeTrack11	3	ProbeTrack	11.1	SCS215a	20100812.110009	20100812.111015	8	0.013328	60	0	60-180	60	137	GapExp	0	71	2	1	0	distractor	1	893	554	10000	13.328	13.267	13.393
ProbeTrack11	3	ProbeTrack	11.1	SCS215a	20100812.110009	20100812.111021	8	0.013328	60	0	60-180	60	94	GapExp	0	72	2	0	1	target	1	1586	207	10207	13.328	13.109	13.561
ProbeTrack11	3	ProbeTrack	11.1	SCS215a	20100812.110009	20100812.111029	8	0.013328	60	10	60-180	60	93	GapExp	0	73	2	1	0	target	0	1480	-1000	9207	13.328	13.007	13.659
ProbeTrack11	3	ProbeTrack	11.1	SCS215a	20100812.110009	20100812.111038	8	0.013328	60	0	60-180	60	108	GapExp	0	74	2	3	0	target	0	1733	-1000	8207	13.328	13.307	13.344
ProbeTrack11	3	ProbeTrack	11.1	SCS215a	20100812.110009	20100812.111045	8	0.013328	60	0	60-180	60	180	GapExp	0	75	2	45	1	target	1	800	600	8807	13.328	13.302	13.355
ProbeTrack11	3	ProbeTrack	11.1	SCS215a	20100812.110009	20100812.111053	8	0.013328	60	10	60-180	60	166	GapExp	0	76	2	1	1	distractor	0	1813	-1000	7807	13.328	13.308	13.348
ProbeTrack11	3	ProbeTrack	11.1	SCS215a	20100812.110009	20100812.111102	8	0.013328	60	0	60-180	60	123	GapExp	0	77	2	3	1	target	1	933	534	8341	13.328	13.104	13.561
ProbeTrack11	3	ProbeTrack	11.1	SCS215a	20100812.110009	20100812.111109	8	0.013328	60	0	60-180	60	159	GapExp	0	78	2	45	0	distractor	1	800	600	8941	13.328	13.114	13.545
ProbeTrack11	3	ProbeTrack	11.1	SCS215a	20100812.110009	20100812.111117	8	0.013328	60	0	60-180	60	85	GapExp	0	79	2	3	1	target	1	707	647	9588	13.328	13.097	13.549
ProbeTrack11	3	ProbeTrack	11.1	SCS215a	20100812.110009	20100812.111123	8	0.013328	60	10	60-180	60	131	GapExp	0	80	2	3	1	distractor	0	1000	-1000	8588	13.328	12.864	13.799
ProbeTrack11	3	ProbeTrack	11.1	SCS215a	20100812.110009	20100812.111130	8	0.013328	60	10	60-180	60	103	GapExp	0	81	2	45	0	target	0	587	-1000	7588	13.328	12.863	13.788
ProbeTrack11	3	ProbeTrack	11.1	SCS215a	20100812.110009	20100812.111138	8	0.013328	60	10	60-180	60	98	GapExp	0	82	2	0	1	target	1	1826	87	7675	13.328	13.107	13.554
ProbeTrack11	3	ProbeTrack	11.1	SCS215a	20100812.110009	20100812.111145	8	0.013328	60	0	60-180	60	151	GapExp	0	83	2	45	0	distractor	1	1027	487	8162	13.328	13.111	13.541
ProbeTrack11	3	ProbeTrack	11.1	SCS215a	20100812.110009	20100812.111153	8	0.013328	60	0	60-180	60	166	GapExp	0	84	2	1	1	target	1	853	574	8736	13.328	13.305	13.349
ProbeTrack11	3	ProbeTrack	11.1	SCS215a	20100812.110009	20100812.111201	8	0.013328	60	0	60-180	60	109	GapExp	0	85	2	3	0	distractor	1	1120	440	9176	13.328	13.187	13.460
ProbeTrack11	3	ProbeTrack	11.1	SCS215a	20100812.110009	20100812.111208	8	0.013328	60	10	60-180	60	93	GapExp	0	86	2	1	0	distractor	1	907	547	9723	13.328	13.110	13.535
ProbeTrack11	3	ProbeTrack	11.1	SCS215a	20100812.110009	20100812.111215	8	0.013328	60	10	60-180	60	106	GapExp	0	87	2	3	1	target	1	1280	360	10083	13.328	13.116	13.532
ProbeTrack11	3	ProbeTrack	11.1	SCS215a	20100812.110009	20100812.111221	8	0.013328	60	10	60-180	60	66	GapExp	0	88	2	45	0	target	0	987	-1000	9083	13.380	13.308	26.634
ProbeTrack11	3	ProbeTrack	11.1	SCS215a	20100812.110009	20100812.111229	8	0.013328	60	10	60-180	60	120	GapExp	0	89	2	3	0	distractor	1	813	594	9677	13.328	12.940	13.724
ProbeTrack11	3	ProbeTrack	11.1	SCS215a	20100812.110009	20100812.111236	8	0.013328	60	10	60-180	60	74	GapExp	0	90	2	1	0	distractor	1	1920	40	9717	13.328	13.251	13.395
ProbeTrack11	3	ProbeTrack	11.1	SCS215a	20100812.110009	20100812.111243	8	0.013328	60	10	60-180	60	147	GapExp	0	91	2	1	1	distractor	0	2026	-1000	8717	13.328	13.040	13.620
ProbeTrack11	3	ProbeTrack	11.1	SCS215a	20100812.110009	20100812.111252	8	0.013328	60	0	60-180	60	110	GapExp	0	92	2	1	1	target	1	800	600	9317	13.328	13.005	13.658
ProbeTrack11	3	ProbeTrack	11.1	SCS215a	20100812.110009	20100812.111258	8	0.013328	60	0	60-180	60	74	GapExp	0	93	2	45	0	distractor	1	1067	467	9784	13.328	13.306	13.348
ProbeTrack11	3	ProbeTrack	11.1	SCS215a	20100812.110009	20100812.111306	8	0.013328	60	0	60-180	60	134	GapExp	0	94	2	1	1	target	1	760	620	10404	13.328	12.958	13.693
ProbeTrack11	3	ProbeTrack	11.1	SCS215a	20100812.110009	20100812.111313	8	0.013328	60	0	60-180	60	72	GapExp	0	95	2	45	1	distractor	0	840	-1000	9404	13.328	13.281	13.379
ProbeTrack11	3	ProbeTrack	11.1	SCS215a	20100812.110009	20100812.111319	8	0.013328	60	10	60-180	60	117	GapExp	0	96	2	3	1	distractor	0	1253	-1000	8404	13.328	13.307	13.348
ProbeTrack11	3	ProbeTrack	11.1	SCS215a	20100812.110009	20100812.111326	8	0.013328	60	0	60-180	60	131	GapExp	0	97	2	45	1	target	1	720	640	9044	13.328	12.853	13.797
ProbeTrack11	3	ProbeTrack	11.1	SCS215a	20100812.110009	20100812.111334	8	0.013328	60	0	60-180	60	154	GapExp	0	98	2	45	1	target	1	827	587	9631	13.328	12.884	13.775
ProbeTrack11	3	ProbeTrack	11.1	SCS215a	20100812.110009	20100812.111341	8	0.013328	60	10	60-180	60	116	GapExp	0	99	2	3	0	distractor	1	3012	0	9631	13.328	13.017	13.642
ProbeTrack11	3	ProbeTrack	11.1	SCS215a	20100812.110009	20100812.111350	8	0.013328	60	0	60-180	60	166	GapExp	0	100	2	0	1	target	1	720	640	10271	13.328	12.882	13.769
ProbeTrack11	3	ProbeTrack	11.1	SCS215a	20100812.110009	20100812.111357	8	0.013328	60	0	60-180	60	127	GapExp	0	101	2	1	0	distractor	1	1120	440	10711	13.328	12.946	13.715
ProbeTrack11	3	ProbeTrack	11.1	SCS215a	20100812.110009	20100812.111405	8	0.013328	60	0	60-180	60	120	GapExp	0	102	2	3	0	distractor	1	960	520	11231	13.328	13.020	13.639
ProbeTrack11	3	ProbeTrack	11.1	SCS215a	20100812.110009	20100812.111412	8	0.013328	60	10	60-180	60	135	GapExp	0	103	2	0	1	distractor	0	1746	-1000	10231	13.328	13.283	13.384
ProbeTrack11	3	ProbeTrack	11.1	SCS215a	20100812.110009	20100812.111420	8	0.013328	60	10	60-180	60	91	GapExp	0	104	2	0	1	distractor	0	933	-1000	9231	13.328	12.876	13.798
ProbeTrack11	3	ProbeTrack	11.1	SCS215a	20100812.110009	20100812.111427	8	0.013328	60	0	60-180	60	164	GapExp	0	105	2	3	0	distractor	1	893	554	9785	13.328	13.110	13.545
ProbeTrack11	3	ProbeTrack	11.1	SCS215a	20100812.110009	20100812.111434	8	0.013328	60	0	60-180	60	161	GapExp	0	106	2	45	0	distractor	1	827	587	10372	13.328	13.202	13.459
ProbeTrack11	3	ProbeTrack	11.1	SCS215a	20100812.110009	20100812.111442	8	0.013328	60	0	60-180	60	68	GapExp	0	107	2	0	0	distractor	1	933	534	10906	13.328	13.158	13.511
ProbeTrack11	3	ProbeTrack	11.1	SCS215a	20100812.110009	20100812.111449	8	0.013328	60	10	60-180	60	93	GapExp	0	108	2	3	0	distractor	1	1000	500	11406	13.328	13.309	13.346
ProbeTrack11	3	ProbeTrack	11.1	SCS215a	20100812.110009	20100812.111455	8	0.013328	60	0	60-180	60	146	GapExp	0	109	2	0	1	target	1	1053	474	11880	13.328	13.307	13.349
ProbeTrack11	3	ProbeTrack	11.1	SCS215a	20100812.110009	20100812.111503	8	0.013328	60	10	60-180	60	92	GapExp	0	110	2	45	1	target	1	733	634	12514	13.328	13.303	13.357
ProbeTrack11	3	ProbeTrack	11.1	SCS215a	20100812.110009	20100812.111510	8	0.013328	60	10	60-180	60	116	GapExp	0	111	2	0	1	distractor	0	1413	-1000	11514	13.328	13.307	13.347
ProbeTrack11	3	ProbeTrack	11.1	SCS215a	20100812.110009	20100812.111517	8	0.013328	60	0	60-180	60	167	GapExp	0	112	2	3	1	target	1	800	600	12114	13.328	13.308	13.347
ProbeTrack11	3	ProbeTrack	11.1	SCS215a	20100812.110009	20100812.111524	8	0.013328	60	0	60-180	60	124	GapExp	0	113	2	45	1	target	1	787	607	12721	13.328	13.303	13.351
ProbeTrack11	3	ProbeTrack	11.1	SCS215a	20100812.110009	20100812.111531	8	0.013328	60	0	60-180	60	62	GapExp	0	114	2	0	0	distractor	1	880	560	13281	13.395	13.009	27.067
ProbeTrack11	3	ProbeTrack	11.1	SCS215a	20100812.110009	20100812.111537	8	0.013328	60	10	60-180	60	90	GapExp	0	115	2	1	0	distractor	1	1067	467	13748	13.328	13.026	13.629
ProbeTrack11	3	ProbeTrack	11.1	SCS215a	20100812.110009	20100812.111544	8	0.013328	60	0	60-180	60	97	GapExp	0	116	2	1	0	distractor	1	813	594	14342	13.328	12.890	13.764
ProbeTrack11	3	ProbeTrack	11.1	SCS215a	20100812.110009	20100812.111550	8	0.013328	60	10	60-180	60	171	GapExp	0	117	2	3	1	distractor	0	973	-1000	13342	13.328	13.300	13.359
ProbeTrack11	3	ProbeTrack	11.1	SCS215a	20100812.110009	20100812.111558	8	0.013328	60	10	60-180	60	126	GapExp	0	118	2	45	0	distractor	1	1147	427	13769	13.328	13.097	13.544
ProbeTrack11	3	ProbeTrack	11.1	SCS215a	20100812.110009	20100812.111606	8	0.013328	60	0	60-180	60	127	GapExp	0	119	2	45	0	distractor	1	1306	347	14116	13.328	12.950	13.347
ProbeTrack11	3	ProbeTrack	11.1	SCS215a	20100812.110009	20100812.111614	8	0.013328	60	0	60-180	60	167	GapExp	0	120	2	0	0	distractor	1	734	633	14749	13.328	12.933	13.714
ProbeTrack11	3	ProbeTrack	11.1	SCS215a	20100812.110009	20100812.111621	8	0.013328	60	10	60-180	60	179	GapExp	0	121	2	45	1	distractor	0	1027	-1000	13749	13.328	12.949	13.719
ProbeTrack11	3	ProbeTrack	11.1	SCS215a	20100812.110009	20100812.111629	8	0.013328	60	0	60-180	60	74	GapExp	0	122	2	1	0	distractor	1	920	540	14289	13.455	13.307	39.978
ProbeTrack11	3	ProbeTrack	11.1	SCS215a	20100812.110009	20100812.111636	8	0.013328	60	10	60-180	60	99	GapExp	0	123	2	1	0	distractor	1	707	647	14936	13.328	12.883	13.759
ProbeTrack11	3	ProbeTrack	11.1	SCS215a	20100812.110009	20100812.111642	8	0.013328	60	0	60-180	60	124	GapExp	0	124	2	45	1	target	1	707	647	15583	13.328	13.295	13.372
ProbeTrack11	3	ProbeTrack	11.1	SCS215a	20100812.110009	20100812.111648	8	0.013328	60	10	60-180	60	169	GapExp	0	125	2	0	1	distractor	0	1027	-1000	14583	13.328	13.016	13.653
ProbeTrack11	3	ProbeTrack	11.1	SCS215a	20100812.110009	20100812.111656	8	0.013328	60	10	60-180	60	69	GapExp	0	126	2	3	1	target	1	880	560	15143	13.326	12.931	13.703
ProbeTrack11	3	ProbeTrack	11.1	SCS215a	20100812.110009	20100812.111702	8	0.013328	60	0	60-180	60	97	GapExp	0	127	2	45	0	distractor	1	947	527	15670	13.329	13.308	13.746
ProbeTrack11	3	ProbeTrack	11.1	SCS215a	20100812.110009	20100812.111709	8	0.013328	60	10	60-180	60	102	GapExp	0	128	2	45	0	target	0	1386	-1000	14670	13.328	13.275	13.386
ProbeTrack11	3	ProbeTrack	11.1	SCS215a	20100812.110009	20100812.111716	8	0.013328	60	10	60-180	60	137	GapExp	0	129	2	3	0	distractor	1	1080	460	15130	13.328	13.309	13.347
ProbeTrack11	3	ProbeTrack	11.1	SCS215a	20100812.110009	20100812.111723	8	0.013328	60	10	60-180	60	129	GapExp	0	130	2	45	0	target	0	1826	-1000	14130	13.328	12.864	13.806
ProbeTrack11	3	ProbeTrack	11.1	SCS215a	20100812.110009	20100812.111732	8	0.013328	60	10	60-180	60	95	GapExp	0	131	2	1	1	distractor	0	1520	-1000	13130	13.328	13.306	13.347
ProbeTrack11	3	ProbeTrack	11.1	SCS215a	20100812.110009	20100812.111739	8	0.013328	60	10	60-180	60	67	GapExp	0	132	2	45	0	target	0	827	-1000	12130	13.328	13.144	13.514
ProbeTrack11	3	ProbeTrack	11.1	SCS215a	20100812.110009	20100812.111745	8	0.013328	60	10	60-180	60	70	GapExp	0	133	2	0	1	distractor	0	560	-1000	11130	13.328	13.137	13.520
ProbeTrack11	3	ProbeTrack	11.1	SCS215a	20100812.110009	20100812.111751	8	0.013328	60	0	60-180	60	144	GapExp	0	134	2	0	0	distractor	1	773	614	11744	13.328	13.308	13.353
ProbeTrack11	3	ProbeTrack	11.1	SCS215a	20100812.110009	20100812.111758	8	0.013328	60	10	60-180	60	72	GapExp	0	135	2	3	0	distractor	1	813	594	12338	13.328	13.146	13.514
ProbeTrack11	3	ProbeTrack	11.1	SCS215a	20100812.110009	20100812.111804	8	0.013328	60	10	60-180	60	74	GapExp	0	136	2	3	1	distractor	0	667	-1000	11338	13.328	13.303	13.348
ProbeTrack11	3	ProbeTrack	11.1	SCS215a	20100812.110009	20100812.111810	8	0.013328	60	10	60-180	60	151	GapExp	0	137	2	3	0	distractor	1	893	554	11892	13.328	12.933	13.726
ProbeTrack11	3	ProbeTrack	11.1	SCS215a	20100812.110009	20100812.111817	8	0.013328	60	0	60-180	60	119	GapExp	0	138	2	0	1	target	1	827	587	12479	13.328	13.107	13.553
ProbeTrack11	3	ProbeTrack	11.1	SCS215a	20100812.110009	20100812.111823	8	0.013328	60	10	60-180	60	147	GapExp	0	139	2	45	1	target	1	640	680	13159	13.328	13.102	13.561
ProbeTrack11	3	ProbeTrack	11.1	SCS215a	20100812.110009	20100812.111830	8	0.013328	60	10	60-180	60	85	GapExp	0	140	2	0	0	distractor	1	1333	334	13493	13.328	13.095	13.567
ProbeTrack11	3	ProbeTrack	11.1	SCS215a	20100812.110009	20100812.111837	8	0.013328	60	10	60-180	60	70	GapExp	0	141	2	45	1	target	1	547	727	14220	13.328	13.282	13.382
ProbeTrack11	3	ProbeTrack	11.1	SCS215a	20100812.110009	20100812.111843	8	0.013328	60	0	60-180	60	145	GapExp	0	142	2	0	1	target	1	760	620	14840	13.328	13.095	13.546
ProbeTrack11	3	ProbeTrack	11.1	SCS215a	20100812.110009	20100812.111850	8	0.013328	60	0	60-180	60	136	GapExp	0	143	2	0	0	distractor	1	747	627	15467	13.328	12.944	13.727
ProbeTrack11	3	ProbeTrack	11.1	SCS215a	20100812.110009	20100812.111857	8	0.013328	60	10	60-180	60	168	GapExp	0	144	2	45	1	target	1	627	687	16154	13.328	13.083	13.561
ProbeTrack11	3	ProbeTrack	11.1	SCS215a	20100812.110009	20100812.111904	8	0.013328	60	10	60-180	60	148	GapExp	0	145	2	0	0	distractor	1	1000	500	16654	13.328	13.089	13.565
ProbeTrack11	3	ProbeTrack	11.1	SCS215a	20100812.110009	20100812.111911	8	0.013328	60	10	60-180	60	101	GapExp	0	146	2	1	1	target	1	773	614	17268	13.328	12.975	13.682
ProbeTrack11	3	ProbeTrack	11.1	SCS215a	20100812.110009	20100812.111918	8	0.013328	60	0	60-180	60	91	GapExp	0	147	2	0	0	distractor	1	667	667	17935	13.328	13.196	13.461
ProbeTrack11	3	ProbeTrack	11.1	SCS215a	20100812.110009	20100812.111923	8	0.013328	60	0	60-180	60	82	GapExp	0	148	2	45	1	target	1	773	614	18549	13.328	13.299	13.346
ProbeTrack11	3	ProbeTrack	11.1	SCS215a	20100812.110009	20100812.111930	8	0.013328	60	0	60-180	60	174	GapExp	0	149	2	3	0	distractor	1	733	634	19183	13.328	13.089	13.571
ProbeTrack11	3	ProbeTrack	11.1	SCS215a	20100812.110009	20100812.111937	8	0.013328	60	0	60-180	60	125	GapExp	0	150	2	0	0	distractor	1	747	627	19810	13.328	13.262	13.383
ProbeTrack11	3	ProbeTrack	11.1	SCS215a	20100812.110009	20100812.111944	8	0.013328	60	10	60-180	60	143	GapExp	0	151	2	0	1	target	1	880	560	20370	13.328	12.976	13.676
ProbeTrack11	3	ProbeTrack	11.1	SCS215a	20100812.110009	20100812.111951	8	0.013328	60	10	60-180	60	126	GapExp	0	152	2	3	0	distractor	1	1400	300	20670	13.328	13.077	13.577
ProbeTrack11	3	ProbeTrack	11.1	SCS215a	20100812.110009	20100812.111958	8	0.013328	60	10	60-180	60	147	GapExp	0	153	2	1	0	distractor	1	1493	254	20924	13.328	12.879	13.790
ProbeTrack11	3	ProbeTrack	11.1	SCS215a	20100812.110009	20100812.112006	8	0.013328	60	0	60-180	60	107	GapExp	0	154	2	1	1	target	1	720	640	21564	13.328	12.829	13.810
ProbeTrack11	3	ProbeTrack	11.1	SCS215a	20100812.110009	20100812.112012	8	0.013328	60	0	60-180	60	75	GapExp	0	155	2	0	1	target	1	733	634	22198	13.328	13.308	13.347
ProbeTrack11	3	ProbeTrack	11.1	SCS215a	20100812.110009	20100812.112018	8	0.013328	60	0	60-180	60	74	GapExp	0	156	2	0	0	distractor	1	827	587	22785	13.328	13.304	13.346
ProbeTrack11	3	ProbeTrack	11.1	SCS215a	20100812.110009	20100812.112024	8	0.013328	60	10	60-180	60	166	GapExp	0	157	2	1	0	distractor	1	1560	220	23005	13.371	13.041	26.619
ProbeTrack11	3	ProbeTrack	11.1	SCS215a	20100812.110009	20100812.112032	8	0.013328	60	0	60-180	60	177	GapExp	0	158	2	0	1	target	1	574	713	23718	13.328	12.924	13.748
ProbeTrack11	3	ProbeTrack	11.1	SCS215a	20100812.110009	20100812.112039	8	0.013328	60	0	60-180	60	94	GapExp	0	159	2	1	1	target	1	787	607	24325	13.328	12.879	13.772
ProbeTrack11	3	ProbeTrack	11.1	SCS215a	20100812.110009	20100812.112045	8	0.013328	60	10	60-180	60	175	GapExp	0	160	2	1	0	distractor	1	1933	34	24359	13.328	13.104	13.560
ProbeTrack11	3	ProbeTrack	11.1	SCS215a	20100812.110009	20100812.112054	8	0.013328	60	10	60-180	60	149	GapExp	0	161	2	3	1	target	1	1107	447	24806	13.328	12.839	13.814
ProbeTrack11	3	ProbeTrack	11.1	SCS215a	20100812.110009	20100812.112106	8	0.013328	60	0	60-180	60	151	GapExp	0	162	2	45	1	target	1	707	647	25453	13.328	13.112	13.548
ProbeTrack11	3	ProbeTrack	11.1	SCS215a	20100812.110009	20100812.112113	8	0.013328	60	10	60-180	60	148	GapExp	0	163	2	3	0	distractor	1	867	567	26020	13.328	13.112	13.365
ProbeTrack11	3	ProbeTrack	11.1	SCS215a	20100812.110009	20100812.112121	8	0.013328	60	10	60-180	60	179	GapExp	0	164	2	1	1	distractor	0	1373	-1000	25020	13.328	12.886	13.760
ProbeTrack11	3	ProbeTrack	11.1	SCS215a	20100812.110009	20100812.112129	8	0.013328	60	0	60-180	60	94	GapExp	0	165	2	1	1	target	1	733	634	25654	13.328	13.307	13.346
ProbeTrack11	3	ProbeTrack	11.1	SCS215a	20100812.110009	20100812.112135	8	0.013328	60	10	60-180	60	131	GapExp	0	166	2	1	0	distractor	1	747	627	26281	13.328	13.199	13.472
ProbeTrack11	3	ProbeTrack	11.1	SCS215a	20100812.110009	20100812.112142	8	0.013328	60	0	60-180	60	162	GapExp	0	167	2	3	0	distractor	1	720	640	26921	13.328	13.309	13.346
ProbeTrack11	3	ProbeTrack	11.1	SCS215a	20100812.110009	20100812.112149	8	0.013328	60	0	60-180	60	164	GapExp	0	168	2	3	1	target	1	760	620	27541	13.328	12.870	13.791
ProbeTrack11	3	ProbeTrack	11.1	SCS215a	20100812.110009	20100812.112156	8	0.013328	60	10	60-180	60	170	GapExp	0	169	2	0	0	distractor	1	680	660	28201	13.328	12.895	13.773
ProbeTrack11	3	ProbeTrack	11.1	SCS215a	20100812.110009	20100812.112203	8	0.013328	60	10	60-180	60	96	GapExp	0	170	2	0	0	target	0	1067	-1000	27201	13.328	13.307	13.345
ProbeTrack11	3	ProbeTrack	11.1	SCS215a	20100812.110009	20100812.112210	8	0.013328	60	0	60-180	60	99	GapExp	0	171	2	1	0	distractor	1	693	654	27855	13.328	13.310	13.347
ProbeTrack11	3	ProbeTrack	11.1	SCS215a	20100812.110009	20100812.112216	8	0.013328	60	10	60-180	60	88	GapExp	0	172	2	45	1	distractor	0	947	-1000	26855	13.328	12.941	13.728
ProbeTrack11	3	ProbeTrack	11.1	SCS215a	20100812.110009	20100812.112223	8	0.013328	60	10	60-180	60	79	GapExp	0	173	2	1	0	target	0	760	-1000	25855	13.328	12.983	13.653
ProbeTrack11	3	ProbeTrack	11.1	SCS215a	20100812.110009	20100812.112229	8	0.013328	60	10	60-180	60	128	GapExp	0	174	2	3	1	distractor	0	1253	-1000	24855	13.328	13.308	13.345
ProbeTrack11	3	ProbeTrack	11.1	SCS215a	20100812.110009	20100812.112236	8	0.013328	60	10	60-180	60	69	GapExp	0	175	2	3	1	target	1	813	594	25449	13.328	13.088	13.562
ProbeTrack11	3	ProbeTrack	11.1	SCS215a	20100812.110009	20100812.112242	8	0.013328	60	10	60-180	60	135	GapExp	0	176	2	1	0	target	0	2279	-1000	24449	13.328	13.109	13.537
ProbeTrack11	3	ProbeTrack	11.1	SCS215a	20100812.110009	20100812.112250	8	0.013328	60	10	60-180	60	118	GapExp	0	177	2	1	0	distractor	1	760	620	25069	13.328	13.103	13.545
ProbeTrack11	3	ProbeTrack	11.1	SCS215a	20100812.110009	20100812.112257	8	0.013328	60	10	60-180	60	84	GapExp	0	178	2	1	1	distractor	0	2559	-1000	24069	13.328	13.089	13.566
ProbeTrack11	3	ProbeTrack	11.1	SCS215a	20100812.110009	20100812.112305	8	0.013328	60	0	60-180	60	179	GapExp	0	179	2	3	0	distractor	1	867	567	24636	13.328	13.307	13.345
ProbeTrack11	3	ProbeTrack	11.1	SCS215a	20100812.110009	20100812.112312	8	0.013328	60	10	60-180	60	133	GapExp	0	180	2	1	1	target	1	1107	447	25083	13.328	13.101	13.563
ProbeTrack11	3	ProbeTrack	11.1	SCS215a	20100812.110009	20100812.112319	8	0.013328	60	0	60-180	60	105	GapExp	0	181	2	1	1	target	1	1306	347	25430	13.328	12.849	13.802
ProbeTrack11	3	ProbeTrack	11.1	SCS215a	20100812.110009	20100812.112326	8	0.013328	60	10	60-180	60	148	GapExp	0	182	2	0	0	distractor	1	1000	500	25930	13.328	13.104	13.550
ProbeTrack11	3	ProbeTrack	11.1	SCS215a	20100812.110009	20100812.112333	8	0.013328	60	0	60-180	60	68	GapExp	0	183	2	1	0	distractor	1	880	560	26490	13.328	13.093	13.556
ProbeTrack11	3	ProbeTrack	11.1	SCS215a	20100812.110009	20100812.112339	8	0.013328	60	0	60-180	60	63	GapExp	0	184	2	45	1	target	1	1120	440	26930	13.328	13.304	13.345
ProbeTrack11	3	ProbeTrack	11.1	SCS215a	20100812.110009	20100812.112345	8	0.013328	60	0	60-180	60	67	GapExp	0	185	2	1	1	target	1	1040	480	27410	13.328	13.091	13.561
ProbeTrack11	3	ProbeTrack	11.1	SCS215a	20100812.110009	20100812.112351	8	0.013328	60	0	60-180	60	80	GapExp	0	186	2	0	1	target	1	733	634	28044	13.328	13.308	13.348
ProbeTrack11	3	ProbeTrack	11.1	SCS215a	20100812.110009	20100812.112357	8	0.013328	60	10	60-180	60	87	GapExp	0	187	2	45	0	target	0	1160	-1000	27044	13.328	12.859	13.799
ProbeTrack11	3	ProbeTrack	11.1	SCS215a	20100812.110009	20100812.112404	8	0.013328	60	10	60-180	60	171	GapExp	0	188	2	0	0	target	0	1480	-1000	26044	13.328	12.874	13.783
ProbeTrack11	3	ProbeTrack	11.1	SCS215a	20100812.110009	20100812.112412	8	0.013328	60	0	60-180	60	101	GapExp	0	189	2	3	0	distractor	1	1626	187	26231	13.328	13.306	13.350
ProbeTrack11	3	ProbeTrack	11.1	SCS215a	20100812.110009	20100812.112419	8	0.013328	60	0	60-180	60	99	GapExp	0	190	2	1	0	distractor	1	880	560	26791	13.328	13.303	13.361
ProbeTrack11	3	ProbeTrack	11.1	SCS215a	20100812.110009	20100812.112425	8	0.013328	60	0	60-180	60	134	GapExp	0	191	2	1	1	target	1	867	567	27358	13.328	13.308	13.348
ProbeTrack11	3	ProbeTrack	11.1	SCS215a	20100812.110009	20100812.112432	8	0.013328	60	10	60-180	60	95	GapExp	0	192	2	3	1	distractor	0	813	-1000	26358	13.328	12.865	13.802
ProbeTrack11	3	ProbeTrack	11.1	SCS215a	20100812.110009	20100812.112438	8	0.013328	60	0	60-180	60	85	GapExp	0	193	2	1	0	distractor	1	853	574	26932	13.386	12.931	27.066
ProbeTrack11	3	ProbeTrack	11.1	SCS215a	20100812.110009	20100812.112444	8	0.013328	60	0	60-180	60	137	GapExp	0	194	2	0	1	target	1	1053	474	27406	13.328	13.298	13.358
ProbeTrack11	3	ProbeTrack	11.1	SCS215a	20100812.110009	20100812.112451	8	0.013328	60	0	60-180	60	64	GapExp	0	195	2	45	1	target	1	813	594	28000	13.328	12.879	13.781
ProbeTrack11	3	ProbeTrack	11.1	SCS215a	20100812.110009	20100812.112457	8	0.013328	60	10	60-180	60	62	GapExp	0	196	2	1	1	target	1	893	554	28554	13.328	13.107	13.553
ProbeTrack11	3	ProbeTrack	11.1	SCS215a	20100812.110009	20100812.112503	8	0.013328	60	0	60-180	60	102	GapExp	0	197	2	3	0	distractor	1	1999	1	28555	13.328	12.920	13.737
ProbeTrack11	3	ProbeTrack	11.1	SCS215a	20100812.110009	20100812.112510	8	0.013328	60	0	60-180	60	123	GapExp	0	198	2	45	0	target	0	1746	-1000	27555	13.328	12.881	13.789
ProbeTrack11	3	ProbeTrack	11.1	SCS215a	20100812.110009	20100812.112518	8	0.013328	60	0	60-180	60	73	GapExp	0	199	2	45	1	target	1	800	600	28155	13.328	13.309	13.346
ProbeTrack11	3	ProbeTrack	11.1	SCS215a	20100812.110009	20100812.112525	8	0.013328	60	0	60-180	60	66	GapExp	0	200	2	1	0	distractor	1	840	580	28735	13.328	13.109	13.543
ProbeTrack11	3	ProbeTrack	11.1	SCS215a	20100812.110009	20100812.112531	8	0.013328	60	10	60-180	60	117	GapExp	0	201	2	45	0	target	0	827	-1000	27735	13.328	13.099	13.553
ProbeTrack11	3	ProbeTrack	11.1	SCS215a	20100812.110009	20100812.112538	8	0.013328	60	10	60-180	60	84	GapExp	0	202	2	1	1	target	1	1120	440	28175	13.328	13.100	13.560
ProbeTrack11	3	ProbeTrack	11.1	SCS215a	20100812.110009	20100812.112544	8	0.013328	60	0	60-180	60	165	GapExp	0	203	2	3	1	target	1	787	607	28782	13.328	13.108	13.553
ProbeTrack11	3	ProbeTrack	11.1	SCS215a	20100812.110009	20100812.112551	8	0.013328	60	0	60-180	60	113	GapExp	0	204	2	45	0	distractor	1	733	634	29416	13.328	12.871	13.767
ProbeTrack11	3	ProbeTrack	11.1	SCS215a	20100812.110009	20100812.112558	8	0.013328	60	10	60-180	60	132	GapExp	0	205	2	45	0	target	0	800	-1000	28416	13.328	12.997	13.665
ProbeTrack11	3	ProbeTrack	11.1	SCS215a	20100812.110009	20100812.112605	8	0.013328	60	10	60-180	60	115	GapExp	0	206	2	45	1	distractor	0	813	-1000	27416	13.328	12.927	13.729
ProbeTrack11	3	ProbeTrack	11.1	SCS215a	20100812.110009	20100812.112613	8	0.013328	60	0	60-180	60	71	GapExp	0	207	2	45	1	target	1	733	634	28050	13.328	12.979	13.692
ProbeTrack11	3	ProbeTrack	11.1	SCS215a	20100812.110009	20100812.112620	8	0.013328	60	0	60-180	60	70	GapExp	0	208	2	1	1	distractor	0	1080	-1000	27050	13.328	13.048	13.611
ProbeTrack11	3	ProbeTrack	11.1	SCS215a	20100812.110009	20100812.112626	8	0.013328	60	0	60-180	60	100	GapExp	0	209	2	1	1	target	1	773	614	27664	13.328	13.041	13.617
ProbeTrack11	3	ProbeTrack	11.1	SCS215a	20100812.110009	20100812.112632	8	0.013328	60	0	60-180	60	71	GapExp	0	210	2	45	1	target	1	1493	254	27918	13.328	12.908	13.750
ProbeTrack11	3	ProbeTrack	11.1	SCS215a	20100812.110009	20100812.112639	8	0.013328	60	0	60-180	60	140	GapExp	0	211	2	45	1	target	1	587	707	28625	13.328	13.109	13.542
ProbeTrack11	3	ProbeTrack	11.1	SCS215a	20100812.110009	20100812.112646	8	0.013328	60	0	60-180	60	168	GapExp	0	212	2	0	0	distractor	1	667	667	29292	13.328	12.866	13.797
ProbeTrack11	3	ProbeTrack	11.1	SCS215a	20100812.110009	20100812.112653	8	0.013328	60	0	60-180	60	159	GapExp	0	213	2	1	0	distractor	1	654	673	29965	13.328	12.947	13.727
ProbeTrack11	3	ProbeTrack	11.1	SCS215a	20100812.110009	20100812.112700	8	0.013328	60	0	60-180	60	138	GapExp	0	214	2	1	1	distractor	0	560	-1000	28965	13.328	13.076	13.583
ProbeTrack11	3	ProbeTrack	11.1	SCS215a	20100812.110009	20100812.112706	8	0.013328	60	0	60-180	60	147	GapExp	0	215	2	1	1	target	1	787	607	29572	13.328	12.969	13.689
ProbeTrack11	3	ProbeTrack	11.1	SCS215a	20100812.110009	20100812.112713	8	0.013328	60	10	60-180	60	165	GapExp	0	216	2	0	1	target	1	1080	460	30032	13.328	13.083	13.575
ProbeTrack11	3	ProbeTrack	11.1	SCS215a	20100812.110009	20100812.112720	8	0.013328	60	10	60-180	60	75	GapExp	0	217	2	3	0	target	0	1000	-1000	29032	13.328	13.187	13.466
ProbeTrack11	3	ProbeTrack	11.1	SCS215a	20100812.110009	20100812.112726	8	0.013328	60	10	60-180	60	168	GapExp	0	218	2	0	1	target	1	840	580	29612	13.328	13.032	13.639
ProbeTrack11	3	ProbeTrack	11.1	SCS215a	20100812.110009	20100812.112733	8	0.013328	60	10	60-180	60	84	GapExp	0	219	2	45	0	distractor	1	773	614	30226	13.328	13.306	13.344
ProbeTrack11	3	ProbeTrack	11.1	SCS215a	20100812.110009	20100812.112740	8	0.013328	60	0	60-180	60	94	GapExp	0	220	2	1	1	target	1	614	693	30919	13.328	13.249	13.402
ProbeTrack11	3	ProbeTrack	11.1	SCS215a	20100812.110009	20100812.112745	8	0.013328	60	10	60-180	60	99	GapExp	0	221	2	3	1	distractor	0	827	-1000	29919	13.328	13.031	13.626
ProbeTrack11	3	ProbeTrack	11.1	SCS215a	20100812.110009	20100812.112752	8	0.013328	60	0	60-180	60	132	GapExp	0	222	2	45	1	target	1	613	694	30613	13.328	13.100	13.559
ProbeTrack11	3	ProbeTrack	11.1	SCS215a	20100812.110009	20100812.112758	8	0.013328	60	0	60-180	60	128	GapExp	0	223	2	45	1	target	1	707	647	31260	13.328	13.111	13.545
ProbeTrack11	3	ProbeTrack	11.1	SCS215a	20100812.110009	20100812.112805	8	0.013328	60	0	60-180	60	157	GapExp	0	224	2	3	0	distractor	1	933	534	31794	13.328	12.870	13.801
ProbeTrack11	3	ProbeTrack	11.1	SCS215a	20100812.110009	20100812.112812	8	0.013328	60	0	60-180	60	71	GapExp	0	225	2	3	0	distractor	1	973	514	32308	13.328	13.110	13.542
ProbeTrack11	3	ProbeTrack	11.1	SCS215a	20100812.110009	20100812.112818	8	0.013328	60	10	60-180	60	142	GapExp	0	226	2	0	1	target	1	1640	180	32488	13.328	13.111	13.550
ProbeTrack11	3	ProbeTrack	11.1	SCS215a	20100812.110009	20100812.112825	8	0.013328	60	10	60-180	60	82	GapExp	0	227	2	45	1	distractor	0	853	-1000	31488	13.328	12.873	13.765
ProbeTrack11	3	ProbeTrack	11.1	SCS215a	20100812.110009	20100812.112832	8	0.013328	60	10	60-180	60	117	GapExp	0	228	2	1	1	distractor	0	1187	-1000	30488	13.328	12.856	13.802
ProbeTrack11	3	ProbeTrack	11.1	SCS215a	20100812.110009	20100812.112839	8	0.013328	60	0	60-180	60	139	GapExp	0	229	2	3	1	target	1	560	720	31208	13.328	13.273	13.384
ProbeTrack11	3	ProbeTrack	11.1	SCS215a	20100812.110009	20100812.112846	8	0.013328	60	0	60-180	60	175	GapExp	0	230	2	3	1	distractor	0	1000	-1000	30208	13.328	12.965	13.700
ProbeTrack11	3	ProbeTrack	11.1	SCS215a	20100812.110009	20100812.112853	8	0.013328	60	10	60-180	60	114	GapExp	0	231	2	0	0	target	0	1346	-1000	29208	13.328	12.884	13.785
ProbeTrack11	3	ProbeTrack	11.1	SCS215a	20100812.110009	20100812.112900	8	0.013328	60	0	60-180	60	177	GapExp	0	232	2	45	0	distractor	1	680	660	29868	13.328	12.853	13.807
ProbeTrack11	3	ProbeTrack	11.1	SCS215a	20100812.110009	20100812.112907	8	0.013328	60	0	60-180	60	148	GapExp	0	233	2	45	0	distractor	1	787	607	30475	13.328	12.992	13.675
ProbeTrack11	3	ProbeTrack	11.1	SCS215a	20100812.110009	20100812.112915	8	0.013328	60	0	60-180	60	165	GapExp	0	234	2	0	0	distractor	1	680	660	31135	13.328	12.897	13.759
ProbeTrack11	3	ProbeTrack	11.1	SCS215a	20100812.110009	20100812.112922	8	0.013328	60	10	60-180	60	163	GapExp	0	235	2	3	1	distractor	0	653	-1000	30135	13.328	13.102	13.551
ProbeTrack11	3	ProbeTrack	11.1	SCS215a	20100812.110009	20100812.112929	8	0.013328	60	0	60-180	60	142	GapExp	0	236	2	1	0	distractor	1	680	660	30795	13.328	12.979	13.675
ProbeTrack11	3	ProbeTrack	11.1	SCS215a	20100812.110009	20100812.112935	8	0.013328	60	10	60-180	60	104	GapExp	0	237	2	1	1	distractor	0	574	-1000	29795	13.328	13.063	13.604
ProbeTrack11	3	ProbeTrack	11.1	SCS215a	20100812.110009	20100812.112941	8	0.013328	60	0	60-180	60	122	GapExp	0	238	2	0	1	target	1	747	627	30422	13.328	13.174	13.492
ProbeTrack11	3	ProbeTrack	11.1	SCS215a	20100812.110009	20100812.112948	8	0.013328	60	0	60-180	60	61	GapExp	0	239	2	1	1	target	1	733	634	31056	13.328	13.038	13.347
ProbeTrack11	3	ProbeTrack	11.1	SCS215a	20100812.110009	20100812.112953	8	0.013328	60	10	60-180	60	70	GapExp	0	240	2	45	1	distractor	0	787	-1000	30056	13.328	12.901	13.754
ProbeTrack11	3	ProbeTrack	11.1	SCS215a	20100812.110009	20100812.113000	8	0.013328	60	0	60-180	60	62	GapExp	0	241	2	45	0	distractor	1	680	660	30716	13.328	13.307	13.348
ProbeTrack11	3	ProbeTrack	11.1	SCS215a	20100812.110009	20100812.113006	8	0.013328	60	0	60-180	60	70	GapExp	0	242	2	45	1	target	1	680	660	31376	13.327	12.961	13.708
ProbeTrack11	3	ProbeTrack	11.1	SCS215a	20100812.110009	20100812.113012	8	0.013328	60	10	60-180	60	151	GapExp	0	243	2	45	1	distractor	0	827	-1000	30376	13.328	13.108	13.544
ProbeTrack11	3	ProbeTrack	11.1	SCS215a	20100812.110009	20100812.113019	8	0.013328	60	0	60-180	60	158	GapExp	0	244	2	3	0	distractor	1	1480	260	30636	13.328	13.189	13.472
ProbeTrack11	3	ProbeTrack	11.1	SCS215a	20100812.110009	20100812.113027	8	0.013328	60	10	60-180	60	108	GapExp	0	245	2	0	1	target	1	760	620	31256	13.328	13.149	13.490
ProbeTrack11	3	ProbeTrack	11.1	SCS215a	20100812.110009	20100812.113033	8	0.013328	60	10	60-180	60	84	GapExp	0	246	2	0	0	distractor	1	1453	274	31530	13.328	13.103	13.558
ProbeTrack11	3	ProbeTrack	11.1	SCS215a	20100812.110009	20100812.113040	8	0.013328	60	10	60-180	60	97	GapExp	0	247	2	1	0	target	0	920	-1000	30530	13.328	13.099	13.555
ProbeTrack11	3	ProbeTrack	11.1	SCS215a	20100812.110009	20100812.113046	8	0.013328	60	0	60-180	60	111	GapExp	0	248	2	45	0	distractor	1	1560	220	30750	13.328	13.096	13.558
ProbeTrack11	3	ProbeTrack	11.1	SCS215a	20100812.110009	20100812.113054	8	0.013328	60	10	60-180	60	103	GapExp	0	249	2	0	0	distractor	1	1253	374	31124	13.328	13.308	13.349
ProbeTrack11	3	ProbeTrack	11.1	SCS215a	20100812.110009	20100812.113100	8	0.013328	60	0	60-180	60	64	GapExp	0	250	2	1	1	target	1	920	540	31664	13.328	13.067	13.589
ProbeTrack11	3	ProbeTrack	11.1	SCS215a	20100812.110009	20100812.113106	8	0.013328	60	10	60-180	60	85	GapExp	0	251	2	3	0	distractor	1	773	614	32278	13.328	13.097	13.563
ProbeTrack11	3	ProbeTrack	11.1	SCS215a	20100812.110009	20100812.113112	8	0.013328	60	0	60-180	60	167	GapExp	0	252	2	45	0	distractor	1	680	660	32938	13.328	12.940	13.721
ProbeTrack11	3	ProbeTrack	11.1	SCS215a	20100812.110009	20100812.113119	8	0.013328	60	0	60-180	60	86	GapExp	0	253	2	1	0	distractor	1	693	654	33592	13.328	13.270	13.383
ProbeTrack11	3	ProbeTrack	11.1	SCS215a	20100812.110009	20100812.113125	8	0.013328	60	10	60-180	60	161	GapExp	0	254	2	3	1	target	1	1760	120	33712	13.328	13.188	13.455
ProbeTrack11	3	ProbeTrack	11.1	SCS215a	20100812.110009	20100812.113133	8	0.013328	60	0	60-180	60	171	GapExp	0	255	2	3	0	distractor	1	787	607	34319	13.328	13.119	13.553
ProbeTrack11	3	ProbeTrack	11.1	SCS215a	20100812.110009	20100812.113140	8	0.013328	60	0	60-180	60	123	GapExp	0	256	2	45	1	target	1	773	614	34933	13.328	13.103	13.550
ProbeTrack11	3	ProbeTrack	11.1	SCS215a	20100812.110009	20100812.113147	8	0.013328	60	10	60-180	60	132	GapExp	0	257	2	1	0	distractor	1	720	640	35573	13.328	13.096	13.566
ProbeTrack11	3	ProbeTrack	11.1	SCS215a	20100812.110009	20100812.113154	8	0.013328	60	0	60-180	60	97	GapExp	0	258	2	1	0	distractor	1	1533	234	35807	13.328	13.309	13.346
ProbeTrack11	3	ProbeTrack	11.1	SCS215a	20100812.110009	20100812.113200	8	0.013328	60	10	60-180	60	75	GapExp	0	259	2	3	1	distractor	0	907	-1000	34807	13.328	13.308	13.345
ProbeTrack11	3	ProbeTrack	11.1	SCS215a	20100812.110009	20100812.113206	8	0.013328	60	0	60-180	60	176	GapExp	0	260	2	1	0	distractor	1	694	653	35460	13.328	13.161	13.496
ProbeTrack11	3	ProbeTrack	11.1	SCS215a	20100812.110009	20100812.113214	8	0.013328	60	10	60-180	60	74	GapExp	0	261	2	45	0	distractor	1	840	580	36040	13.328	13.307	13.345
ProbeTrack11	3	ProbeTrack	11.1	SCS215a	20100812.110009	20100812.113220	8	0.013328	60	10	60-180	60	95	GapExp	0	262	2	0	0	distractor	1	867	567	36607	13.328	13.307	13.347
ProbeTrack11	3	ProbeTrack	11.1	SCS215a	20100812.110009	20100812.113226	8	0.013328	60	0	60-180	60	137	GapExp	0	263	2	0	0	distractor	1	827	587	37194	13.328	13.308	13.348
ProbeTrack11	3	ProbeTrack	11.1	SCS215a	20100812.110009	20100812.113233	8	0.013328	60	10	60-180	60	130	GapExp	0	264	2	3	1	target	1	1000	500	37694	13.328	13.308	13.344
ProbeTrack11	3	ProbeTrack	11.1	SCS215a	20100812.110009	20100812.113240	8	0.013328	60	10	60-180	60	124	GapExp	0	265	2	3	0	target	0	867	-1000	36694	13.328	13.310	13.344
ProbeTrack11	3	ProbeTrack	11.1	SCS215a	20100812.110009	20100812.113246	8	0.013328	60	10	60-180	60	70	GapExp	0	266	2	3	0	distractor	1	640	680	37374	13.328	12.897	13.754
ProbeTrack11	3	ProbeTrack	11.1	SCS215a	20100812.110009	20100812.113252	8	0.013328	60	0	60-180	60	180	GapExp	0	267	2	0	0	distractor	1	693	654	38028	13.328	13.104	13.563
ProbeTrack11	3	ProbeTrack	11.1	SCS215a	20100812.110009	20100812.113259	8	0.013328	60	10	60-180	60	84	GapExp	0	268	2	1	0	distractor	1	600	700	38728	13.328	13.097	13.569
ProbeTrack11	3	ProbeTrack	11.1	SCS215a	20100812.110009	20100812.113305	8	0.013328	60	0	60-180	60	103	GapExp	0	269	2	3	0	distractor	1	813	594	39322	13.328	13.308	13.346
ProbeTrack11	3	ProbeTrack	11.1	SCS215a	20100812.110009	20100812.113311	8	0.013328	60	10	60-180	60	147	GapExp	0	270	2	0	1	target	1	814	593	39915	13.328	13.119	13.540
ProbeTrack11	3	ProbeTrack	11.1	SCS215a	20100812.110009	20100812.113318	8	0.013328	60	10	60-180	60	83	GapExp	0	271	2	0	0	target	0	760	-1000	38915	13.328	13.308	13.346
ProbeTrack11	3	ProbeTrack	11.1	SCS215a	20100812.110009	20100812.113323	8	0.013328	60	0	60-180	60	169	GapExp	0	272	2	3	0	distractor	1	720	640	39555	13.328	13.303	13.348
ProbeTrack11	3	ProbeTrack	11.1	SCS215a	20100812.110009	20100812.113331	8	0.013328	60	10	60-180	60	180	GapExp	0	273	2	45	0	target	0	1147	-1000	38555	13.328	13.105	13.545
ProbeTrack11	3	ProbeTrack	11.1	SCS215a	20100812.110009	20100812.113339	8	0.013328	60	0	60-180	60	152	GapExp	0	274	2	0	1	target	1	920	540	39095	13.328	13.118	13.545
ProbeTrack11	3	ProbeTrack	11.1	SCS215a	20100812.110009	20100812.113346	8	0.013328	60	0	60-180	60	165	GapExp	0	275	2	1	0	distractor	1	747	627	39722	13.328	13.117	13.540
ProbeTrack11	3	ProbeTrack	11.1	SCS215a	20100812.110009	20100812.113353	8	0.013328	60	0	60-180	60	132	GapExp	0	276	2	0	1	target	1	733	634	40356	13.328	13.294	13.353
ProbeTrack11	3	ProbeTrack	11.1	SCS215a	20100812.110009	20100812.113359	8	0.013328	60	10	60-180	60	162	GapExp	0	277	2	45	1	target	1	560	720	41076	13.328	13.096	13.562
ProbeTrack11	3	ProbeTrack	11.1	SCS215a	20100812.110009	20100812.113406	8	0.013328	60	10	60-180	60	87	GapExp	0	278	2	45	1	target	1	534	733	41809	13.328	13.310	13.350
ProbeTrack11	3	ProbeTrack	11.1	SCS215a	20100812.110009	20100812.113413	8	0.013328	60	10	60-180	60	162	GapExp	0	279	2	45	0	target	0	640	-1000	40809	13.328	13.306	13.349
ProbeTrack11	3	ProbeTrack	11.1	SCS215a	20100812.110009	20100812.113420	8	0.013328	60	0	60-180	60	129	GapExp	0	280	2	3	1	target	1	760	620	41429	13.328	13.308	13.346
ProbeTrack11	3	ProbeTrack	11.1	SCS215a	20100812.110009	20100812.113426	8	0.013328	60	0	60-180	60	131	GapExp	0	281	2	0	0	distractor	1	760	620	42049	13.328	13.033	13.636
ProbeTrack11	3	ProbeTrack	11.1	SCS215a	20100812.110009	20100812.113433	8	0.013328	60	10	60-180	60	80	GapExp	0	282	2	45	1	target	1	640	680	42729	13.328	12.935	13.714
ProbeTrack11	3	ProbeTrack	11.1	SCS215a	20100812.110009	20100812.113439	8	0.013328	60	10	60-180	60	62	GapExp	0	283	2	1	1	distractor	0	1000	-1000	41729	13.328	13.308	13.347
ProbeTrack11	3	ProbeTrack	11.1	SCS215a	20100812.110009	20100812.113445	8	0.013328	60	0	60-180	60	97	GapExp	0	284	2	3	1	target	1	760	620	42349	13.328	13.308	13.345
ProbeTrack11	3	ProbeTrack	11.1	SCS215a	20100812.110009	20100812.113451	8	0.013328	60	0	60-180	60	68	GapExp	0	285	2	0	0	distractor	1	947	527	42876	13.328	13.101	13.540
ProbeTrack11	3	ProbeTrack	11.1	SCS215a	20100812.110009	20100812.113457	8	0.013328	60	10	60-180	60	161	GapExp	0	286	2	45	0	distractor	1	693	654	43530	13.328	13.308	13.348
ProbeTrack11	3	ProbeTrack	11.1	SCS215a	20100812.110009	20100812.113509	8	0.013328	60	10	60-180	60	160	GapExp	0	287	2	1	1	distractor	0	867	-1000	42530	13.328	13.290	13.370
ProbeTrack11	3	ProbeTrack	11.1	SCS215a	20100812.110009	20100812.113516	8	0.013328	60	10	60-180	60	69	GapExp	0	288	2	0	0	distractor	1	1333	334	42864	13.328	13.308	13.347
ProbeTrack11	3	ProbeTrack	11.1	SCS215a	20100812.110009	20100812.113522	8	0.013328	60	0	60-180	60	124	GapExp	0	289	2	3	1	target	1	1160	420	43284	13.328	13.004	13.645
ProbeTrack11	3	ProbeTrack	11.1	SCS215a	20100812.110009	20100812.113529	8	0.013328	60	0	60-180	60	70	GapExp	0	290	2	3	0	target	0	893	-1000	42284	13.328	12.858	13.787
ProbeTrack11	3	ProbeTrack	11.1	SCS215a	20100812.110009	20100812.113535	8	0.013328	60	0	60-180	60	91	GapExp	0	291	2	0	0	distractor	1	1027	487	42771	13.328	13.308	13.345
ProbeTrack11	3	ProbeTrack	11.1	SCS215a	20100812.110009	20100812.113541	8	0.013328	60	0	60-180	60	73	GapExp	0	292	2	1	1	target	1	667	667	43438	13.328	13.101	13.552
ProbeTrack11	3	ProbeTrack	11.1	SCS215a	20100812.110009	20100812.113547	8	0.013328	60	0	60-180	60	148	GapExp	0	293	2	45	0	distractor	1	1266	367	43805	13.328	13.119	13.558
ProbeTrack11	3	ProbeTrack	11.1	SCS215a	20100812.110009	20100812.113554	8	0.013328	60	0	60-180	60	83	GapExp	0	294	2	45	1	target	1	733	634	44439	13.328	13.307	13.346
ProbeTrack11	3	ProbeTrack	11.1	SCS215a	20100812.110009	20100812.113601	8	0.013328	60	10	60-180	60	177	GapExp	0	295	2	1	1	target	1	920	540	44979	13.328	13.106	13.557
ProbeTrack11	3	ProbeTrack	11.1	SCS215a	20100812.110009	20100812.113608	8	0.013328	60	0	60-180	60	116	GapExp	0	296	2	0	0	distractor	1	667	667	45646	13.328	13.051	13.611
ProbeTrack11	3	ProbeTrack	11.1	SCS215a	20100812.110009	20100812.113614	8	0.013328	60	10	60-180	60	113	GapExp	0	297	2	45	1	target	1	507	747	46393	13.328	13.113	13.547
ProbeTrack11	3	ProbeTrack	11.1	SCS215a	20100812.110009	20100812.113621	8	0.013328	60	0	60-180	60	154	GapExp	0	298	2	3	1	target	1	747	627	47020	13.328	12.849	13.821
ProbeTrack11	3	ProbeTrack	11.1	SCS215a	20100812.110009	20100812.113627	8	0.013328	60	0	60-180	60	63	GapExp	0	299	2	3	1	target	1	627	687	47707	13.328	13.309	13.347
ProbeTrack11	3	ProbeTrack	11.1	SCS215a	20100812.110009	20100812.113632	8	0.013328	60	0	60-180	60	101	GapExp	0	300	2	0	1	target	1	973	514	48221	13.328	13.087	13.560
ProbeTrack11	3	ProbeTrack	11.1	SCS215a	20100812.110009	20100812.113641	8	0.013328	60	10	60-180	60	83	GapExp	0	301	2	3	1	target	1	627	687	48908	13.328	13.308	13.345
ProbeTrack11	3	ProbeTrack	11.1	SCS215a	20100812.110009	20100812.113647	8	0.013328	60	10	60-180	60	80	GapExp	0	302	2	0	1	distractor	0	787	-1000	47908	13.328	13.303	13.346
ProbeTrack11	3	ProbeTrack	11.1	SCS215a	20100812.110009	20100812.113653	8	0.013328	60	10	60-180	60	119	GapExp	0	303	2	1	1	distractor	0	733	-1000	46908	13.328	13.309	13.349
ProbeTrack11	3	ProbeTrack	11.1	SCS215a	20100812.110009	20100812.113700	8	0.013328	60	10	60-180	60	166	GapExp	0	304	2	3	0	target	0	653	-1000	45908	13.328	13.309	13.347
ProbeTrack11	3	ProbeTrack	11.1	SCS215a	20100812.110009	20100812.113707	8	0.013328	60	10	60-180	60	164	GapExp	0	305	2	45	1	target	1	360	820	46728	13.328	13.290	13.370
ProbeTrack11	3	ProbeTrack	11.1	SCS215a	20100812.110009	20100812.113714	8	0.013328	60	0	60-180	60	112	GapExp	0	306	2	45	0	distractor	1	787	607	47335	13.328	12.898	13.761
ProbeTrack11	3	ProbeTrack	11.1	SCS215a	20100812.110009	20100812.113721	8	0.013328	60	10	60-180	60	69	GapExp	0	307	2	3	0	target	0	907	-1000	46335	13.328	12.864	13.796
ProbeTrack11	3	ProbeTrack	11.1	SCS215a	20100812.110009	20100812.113727	8	0.013328	60	10	60-180	60	127	GapExp	0	308	2	0	0	distractor	1	680	660	46995	13.328	13.291	13.362
ProbeTrack11	3	ProbeTrack	11.1	SCS215a	20100812.110009	20100812.113734	8	0.013328	60	10	60-180	60	137	GapExp	0	309	2	45	0	distractor	1	893	554	47549	13.328	13.222	13.426
ProbeTrack11	3	ProbeTrack	11.1	SCS215a	20100812.110009	20100812.113742	8	0.013328	60	10	60-180	60	130	GapExp	0	310	2	3	1	distractor	0	853	-1000	46549	13.328	12.907	13.742
ProbeTrack11	3	ProbeTrack	11.1	SCS215a	20100812.110009	20100812.113748	8	0.013328	60	10	60-180	60	75	GapExp	0	311	2	3	1	distractor	0	760	-1000	45549	13.328	13.308	13.347
ProbeTrack11	3	ProbeTrack	11.1	SCS215a	20100812.110009	20100812.113755	8	0.013328	60	10	60-180	60	155	GapExp	0	312	2	45	0	target	0	920	-1000	44549	13.328	12.930	13.772
ProbeTrack11	3	ProbeTrack	11.1	SCS215a	20100812.110009	20100812.113802	8	0.013328	60	0	60-180	60	171	GapExp	0	313	2	0	1	target	1	667	667	45216	13.328	13.286	13.380
ProbeTrack11	3	ProbeTrack	11.1	SCS215a	20100812.110009	20100812.113809	8	0.013328	60	0	60-180	60	115	GapExp	0	314	2	0	1	target	1	534	733	45949	13.328	13.139	13.515
ProbeTrack11	3	ProbeTrack	11.1	SCS215a	20100812.110009	20100812.113815	8	0.013328	60	10	60-180	60	122	GapExp	0	315	2	1	0	distractor	1	693	654	46603	13.328	13.110	13.552
ProbeTrack11	3	ProbeTrack	11.1	SCS215a	20100812.110009	20100812.113822	8	0.013328	60	0	60-180	60	129	GapExp	0	316	2	0	1	target	1	707	647	47250	13.328	13.107	13.552
ProbeTrack11	3	ProbeTrack	11.1	SCS215a	20100812.110009	20100812.113829	8	0.013328	60	0	60-180	60	75	GapExp	0	317	2	0	0	distractor	1	893	554	47804	13.328	13.104	13.552
ProbeTrack11	3	ProbeTrack	11.1	SCS215a	20100812.110009	20100812.113835	8	0.013328	60	10	60-180	60	63	GapExp	0	318	2	1	1	target	1	494	753	48557	13.328	13.092	13.564
ProbeTrack11	3	ProbeTrack	11.1	SCS215a	20100812.110009	20100812.113840	8	0.013328	60	10	60-180	60	172	GapExp	0	319	2	0	0	distractor	1	787	607	49164	13.328	13.093	13.569
ProbeTrack11	3	ProbeTrack	11.1	SCS215a	20100812.110009	20100812.113848	8	0.013328	60	0	60-180	60	142	GapExp	0	320	2	3	1	distractor	0	947	-1000	48164	13.328	13.094	13.561
ProbeTrack11	3	ProbeTrack	11.1	SCS215a	20100812.110009	20100812.113854	8	0.013328	60	10	60-180	60	143	GapExp	0	321	2	3	1	target	1	1053	474	48638	13.328	13.117	13.555
ProbeTrack11	3	ProbeTrack	11.1	SCS215a	20100812.110009	20100812.113903	8	0.013328	60	10	60-180	60	61	GapExp	0	322	2	3	0	target	0	1080	-1000	47638	13.328	12.859	13.796
ProbeTrack11	3	ProbeTrack	11.1	SCS215a	20100812.110009	20100812.113910	8	0.013328	60	10	60-180	60	110	GapExp	0	323	2	45	0	distractor	1	693	654	48292	13.328	13.108	13.532
ProbeTrack11	3	ProbeTrack	11.1	SCS215a	20100812.110009	20100812.113920	8	0.013328	60	10	60-180	60	106	GapExp	0	324	2	45	1	target	1	427	787	49079	13.328	13.301	13.356
ProbeTrack11	3	ProbeTrack	11.1	SCS215a	20100812.110009	20100812.113926	8	0.013328	60	10	60-180	60	117	GapExp	0	325	2	3	0	target	0	467	-1000	48079	13.328	13.049	13.602
