exp	sub	code	rev	comp	runtime	trialtime	nstim	refreshdur	cuedur	gapdur	gapOnsetRange	durPostProbe	gapOnsetTime	blocktype	prac	trial	ntargets	soa	probeTarget	resp	acc	rt	pts	tpts	meanFrameDur	minFrameDur	maxFrameDur
ProbeTrack09	11	ProbeTrack	1470	SCS215a	20090511.124741	20090511.124747	8	0.013328	60	0	60-180	60	111	NoGap	1	1	2	96	1	target	1	813	594	594	13.328	13.293	13.363
ProbeTrack09	11	ProbeTrack	1470	SCS215a	20090511.124741	20090511.124834	8	0.013328	60	0	60-180	60	89	NoGap	1	2	2	0	0	distractor	1	907	547	1141	13.328	13.293	13.363
ProbeTrack09	11	ProbeTrack	1470	SCS215a	20090511.124741	20090511.124843	8	0.013328	60	0	60-180	60	113	NoGap	1	3	2	6	0	distractor	1	587	707	1848	13.328	13.293	13.363
ProbeTrack09	11	ProbeTrack	1470	SCS215a	20090511.124741	20090511.124851	8	0.013328	60	0	60-180	60	125	NoGap	1	4	2	96	0	distractor	1	680	660	2508	13.328	13.293	13.363
ProbeTrack09	11	ProbeTrack	1470	SCS215a	20090511.124741	20090511.124903	8	0.013328	60	0	60-180	60	171	NoGap	1	5	2	3	0	distractor	1	427	787	3295	13.328	13.293	13.363
ProbeTrack09	11	ProbeTrack	1470	SCS215a	20090511.124741	20090511.124910	8	0.013328	60	0	60-180	60	135	NoGap	1	6	2	96	1	target	1	467	767	4062	13.328	13.293	13.364
ProbeTrack09	11	ProbeTrack	1470	SCS215a	20090511.124741	20090511.124918	8	0.013328	60	0	60-180	60	92	NoGap	1	7	2	6	1	target	1	440	780	4842	13.328	13.293	13.363
ProbeTrack09	11	ProbeTrack	1470	SCS215a	20090511.124741	20090511.124924	8	0.013328	60	0	60-180	60	120	NoGap	1	8	2	3	1	target	1	600	700	5542	13.328	13.293	13.363
ProbeTrack09	11	ProbeTrack	1470	SCS215a	20090511.124741	20090511.124930	8	0.013328	60	0	60-180	60	75	NoGap	1	9	2	3	0	distractor	1	520	740	6282	13.328	13.293	13.363
ProbeTrack09	11	ProbeTrack	1470	SCS215a	20090511.124741	20090511.124936	8	0.013328	60	0	60-180	60	101	NoGap	1	10	2	3	1	target	1	360	820	7102	13.328	13.293	13.363
ProbeTrack09	11	ProbeTrack	1470	SCS215a	20090511.124741	20090511.124942	8	0.013328	60	0	60-180	60	72	NoGap	1	11	2	0	1	target	1	400	800	7902	13.328	13.292	13.363
ProbeTrack09	11	ProbeTrack	1470	SCS215a	20090511.124741	20090511.124948	8	0.013328	60	0	60-180	60	177	NoGap	1	12	2	6	0	distractor	1	533	734	8636	13.328	13.292	13.363
ProbeTrack09	11	ProbeTrack	1470	SCS215a	20090511.124741	20090511.124955	8	0.013328	60	0	60-180	60	168	NoGap	1	13	2	96	0	distractor	1	494	753	9389	13.328	13.293	13.363
ProbeTrack09	11	ProbeTrack	1470	SCS215a	20090511.124741	20090511.125003	8	0.013328	60	0	60-180	60	85	NoGap	1	14	2	6	1	distractor	0	454	-1000	8389	13.328	13.293	13.363
ProbeTrack09	11	ProbeTrack	1470	SCS215a	20090511.124741	20090511.125008	8	0.013328	60	0	60-180	60	153	NoGap	1	15	2	96	1	target	1	400	800	9189	13.328	13.293	13.363
ProbeTrack09	11	ProbeTrack	1470	SCS215a	20090511.124741	20090511.125016	8	0.013328	60	0	60-180	60	117	NoGap	1	16	2	96	0	distractor	1	387	807	9996	13.328	13.293	13.366
ProbeTrack09	11	ProbeTrack	1470	SCS215a	20090511.124741	20090511.125024	8	0.013328	60	0	60-180	60	163	NoGap	1	17	2	3	0	distractor	1	547	727	10723	13.328	13.290	13.363
ProbeTrack09	11	ProbeTrack	1470	SCS215a	20090511.124741	20090511.125030	8	0.013328	60	0	60-180	60	120	NoGap	1	18	2	96	1	target	1	507	747	11470	13.328	13.289	13.366
ProbeTrack09	11	ProbeTrack	1470	SCS215a	20090511.124741	20090511.125038	8	0.013328	60	0	60-180	60	123	NoGap	1	19	2	96	1	target	1	400	800	12270	13.328	13.293	13.363
ProbeTrack09	11	ProbeTrack	1470	SCS215a	20090511.124741	20090511.125045	8	0.013328	60	0	60-180	60	67	NoGap	1	20	2	6	0	distractor	1	600	700	12970	13.328	13.293	13.363
ProbeTrack09	11	ProbeTrack	1470	SCS215a	20090511.124741	20090511.125051	8	0.013328	60	0	60-180	60	67	NoGap	1	21	2	6	0	distractor	1	547	727	13697	13.328	13.293	13.363
ProbeTrack09	11	ProbeTrack	1470	SCS215a	20090511.124741	20090511.125057	8	0.013328	60	0	60-180	60	111	NoGap	1	22	2	0	0	distractor	1	547	727	14424	13.328	13.293	13.363
ProbeTrack09	11	ProbeTrack	1470	SCS215a	20090511.124741	20090511.125102	8	0.013328	60	0	60-180	60	66	NoGap	1	23	2	0	0	distractor	1	467	767	15191	13.328	13.293	13.363
ProbeTrack09	11	ProbeTrack	1470	SCS215a	20090511.124741	20090511.125108	8	0.013328	60	0	60-180	60	146	NoGap	1	24	2	6	0	distractor	1	494	753	15944	13.328	13.293	13.363
ProbeTrack09	11	ProbeTrack	1470	SCS215a	20090511.124741	20090511.125114	8	0.013328	60	0	60-180	60	159	NoGap	1	25	2	6	1	target	1	627	687	16631	13.328	13.293	13.363
ProbeTrack09	11	ProbeTrack	1470	SCS215a	20090511.124741	20090511.125121	8	0.013328	60	0	60-180	60	63	NoGap	1	26	2	96	1	target	1	560	720	17351	13.328	13.291	13.364
ProbeTrack09	11	ProbeTrack	1470	SCS215a	20090511.124741	20090511.125128	8	0.013328	60	0	60-180	60	100	NoGap	1	27	2	3	1	target	1	374	813	18164	13.328	13.293	13.364
ProbeTrack09	11	ProbeTrack	1470	SCS215a	20090511.124741	20090511.125133	8	0.013328	60	0	60-180	60	86	NoGap	1	28	2	0	0	distractor	1	534	733	18897	13.328	13.293	13.363
ProbeTrack09	11	ProbeTrack	1470	SCS215a	20090511.124741	20090511.125139	8	0.013328	60	0	60-180	60	153	NoGap	1	29	2	0	0	distractor	1	507	747	19644	13.328	13.293	13.363
ProbeTrack09	11	ProbeTrack	1470	SCS215a	20090511.124741	20090511.125145	8	0.013328	60	0	60-180	60	117	NoGap	1	30	2	0	1	target	1	400	800	20444	13.328	13.293	13.363
ProbeTrack09	11	ProbeTrack	1470	SCS215a	20090511.124741	20090511.125151	8	0.013328	60	0	60-180	60	69	NoGap	1	31	2	0	1	target	1	440	780	21224	13.328	13.293	13.363
ProbeTrack09	11	ProbeTrack	1470	SCS215a	20090511.124741	20090511.125156	8	0.013328	60	0	60-180	60	143	NoGap	1	32	2	96	0	distractor	1	587	707	21931	13.328	13.293	13.363
ProbeTrack09	11	ProbeTrack	1470	SCS215a	20090511.124741	20090511.125204	8	0.013328	60	0	60-180	60	135	NoGap	1	33	2	3	0	distractor	1	560	720	22651	13.328	13.293	13.363
ProbeTrack09	11	ProbeTrack	1470	SCS215a	20090511.124741	20090511.125210	8	0.013328	60	0	60-180	60	84	NoGap	1	34	2	0	1	target	1	480	760	23411	13.328	13.293	13.363
ProbeTrack09	11	ProbeTrack	1470	SCS215a	20090511.124741	20090511.125216	8	0.013328	60	0	60-180	60	123	NoGap	1	35	2	96	0	distractor	1	560	720	24131	13.328	13.293	13.363
ProbeTrack09	11	ProbeTrack	1470	SCS215a	20090511.124741	20090511.125224	8	0.013328	60	0	60-180	60	66	NoGap	1	36	2	3	1	target	1	467	767	24898	13.328	13.293	13.363
ProbeTrack09	11	ProbeTrack	1470	SCS215a	20090511.124741	20090511.125229	8	0.013328	60	0	60-180	60	100	NoGap	1	37	2	3	1	target	1	414	793	25691	13.328	13.292	13.363
ProbeTrack09	11	ProbeTrack	1470	SCS215a	20090511.124741	20090511.125235	8	0.013328	60	0	60-180	60	119	NoGap	1	38	2	6	1	target	1	440	780	26471	13.328	13.293	13.363
ProbeTrack09	11	ProbeTrack	1470	SCS215a	20090511.124741	20090511.125241	8	0.013328	60	0	60-180	60	164	NoGap	1	39	2	3	0	distractor	1	640	680	27151	13.328	13.293	13.363
ProbeTrack09	11	ProbeTrack	1470	SCS215a	20090511.124741	20090511.125248	8	0.013328	60	0	60-180	60	146	NoGap	1	40	2	0	1	target	1	360	820	27971	13.328	13.293	13.363
ProbeTrack09	11	ProbeTrack	1470	SCS215a	20090511.124741	20090511.125254	8	0.013328	60	0	60-180	60	146	NoGap	1	41	2	3	1	target	1	440	780	28751	13.328	13.289	13.363
ProbeTrack09	11	ProbeTrack	1470	SCS215a	20090511.124741	20090511.125300	8	0.013328	60	0	60-180	60	108	NoGap	1	42	2	3	0	distractor	1	520	740	29491	13.328	13.293	13.363
ProbeTrack09	11	ProbeTrack	1470	SCS215a	20090511.124741	20090511.125306	8	0.013328	60	0	60-180	60	96	NoGap	1	43	2	3	1	target	1	440	780	30271	13.328	13.291	13.364
ProbeTrack09	11	ProbeTrack	1470	SCS215a	20090511.124741	20090511.125311	8	0.013328	60	0	60-180	60	164	NoGap	1	44	2	96	0	distractor	1	534	733	31004	13.328	13.293	13.363
ProbeTrack09	11	ProbeTrack	1470	SCS215a	20090511.124741	20090511.125319	8	0.013328	60	0	60-180	60	71	NoGap	1	45	2	3	0	distractor	1	560	720	31724	13.328	13.293	13.363
ProbeTrack09	11	ProbeTrack	1470	SCS215a	20090511.124741	20090511.125327	8	0.013328	60	0	60-180	60	165	NoGap	1	46	2	6	1	target	1	414	793	32517	13.328	13.293	13.363
ProbeTrack09	11	ProbeTrack	1470	SCS215a	20090511.124741	20090511.125334	8	0.013328	60	0	60-180	60	180	NoGap	1	47	2	6	0	distractor	1	600	700	33217	13.328	13.292	13.363
ProbeTrack09	11	ProbeTrack	1470	SCS215a	20090511.124741	20090511.125340	8	0.013328	60	0	60-180	60	173	NoGap	1	48	2	0	0	distractor	1	653	674	33891	13.328	13.293	13.363
ProbeTrack09	11	ProbeTrack	1470	SCS215a	20090511.124741	20090511.125347	8	0.013328	60	0	60-180	60	96	NoGap	1	49	2	96	1	target	1	374	813	34704	13.328	13.293	13.363
ProbeTrack09	11	ProbeTrack	1470	SCS215a	20090511.124741	20090511.125354	8	0.013328	60	0	60-180	60	134	NoGap	1	50	2	6	1	target	1	360	820	35524	13.328	13.293	13.363
ProbeTrack09	11	ProbeTrack	1470	SCS215a	20090511.125732	20090511.125737	8	0.013328	60	10	60-180	60	116	GapExp	1	1	2	0	0	distractor	1	680	660	36184	13.328	13.289	13.367
ProbeTrack09	11	ProbeTrack	1470	SCS215a	20090511.125732	20090511.125759	8	0.013328	60	10	60-180	60	85	GapExp	1	2	2	6	0	distractor	1	520	740	36924	13.328	13.293	13.366
ProbeTrack09	11	ProbeTrack	1470	SCS215a	20090511.125732	20090511.125805	8	0.013328	60	10	60-180	60	87	GapExp	1	3	2	96	1	target	1	440	780	37704	13.328	13.287	13.363
ProbeTrack09	11	ProbeTrack	1470	SCS215a	20090511.125732	20090511.125812	8	0.013328	60	10	60-180	60	75	GapExp	1	4	2	3	1	target	1	507	747	38451	13.328	13.293	13.365
ProbeTrack09	11	ProbeTrack	1470	SCS215a	20090511.125732	20090511.125817	8	0.013328	60	10	60-180	60	75	GapExp	1	5	2	3	0	distractor	1	720	640	39091	13.328	13.293	13.363
ProbeTrack09	11	ProbeTrack	1470	SCS215a	20090511.125732	20090511.125823	8	0.013328	60	10	60-180	60	79	GapExp	1	6	2	0	1	target	1	400	800	39891	13.328	13.293	13.363
ProbeTrack09	11	ProbeTrack	1470	SCS215a	20090511.125732	20090511.125828	8	0.013328	60	10	60-180	60	88	GapExp	1	7	2	96	0	distractor	1	560	720	40611	13.328	13.293	13.363
ProbeTrack09	11	ProbeTrack	1470	SCS215a	20090511.125732	20090511.125835	8	0.013328	60	10	60-180	60	114	GapExp	1	8	2	6	1	target	1	440	780	41391	13.328	13.293	13.363
ProbeTrack09	11	ProbeTrack	1470	SCS215a	20090511.125732	20090511.125841	8	0.013328	60	10	60-180	60	161	GapExp	0	9	2	6	1	target	1	414	793	42184	13.328	13.293	13.363
ProbeTrack09	11	ProbeTrack	1470	SCS215a	20090511.125732	20090511.125848	8	0.013328	60	10	60-180	60	68	GapExp	0	10	2	0	1	target	1	653	674	42858	13.328	13.293	13.363
ProbeTrack09	11	ProbeTrack	1470	SCS215a	20090511.125732	20090511.125853	8	0.013328	60	10	60-180	60	131	GapExp	0	11	2	0	1	target	1	480	760	43618	13.328	13.293	13.363
ProbeTrack09	11	ProbeTrack	1470	SCS215a	20090511.125732	20090511.125859	8	0.013328	60	10	60-180	60	134	GapExp	0	12	2	6	1	target	1	454	773	44391	13.328	13.292	13.363
ProbeTrack09	11	ProbeTrack	1470	SCS215a	20090511.125732	20090511.125906	8	0.013328	60	10	60-180	60	162	GapExp	0	13	2	96	0	distractor	1	560	720	45111	13.328	13.293	13.363
ProbeTrack09	11	ProbeTrack	1470	SCS215a	20090511.125732	20090511.125914	8	0.013328	60	10	60-180	60	145	GapExp	0	14	2	96	0	distractor	1	640	680	45791	13.328	13.293	13.363
ProbeTrack09	11	ProbeTrack	1470	SCS215a	20090511.125732	20090511.125921	8	0.013328	60	10	60-180	60	76	GapExp	0	15	2	3	1	target	1	454	773	46564	13.328	13.293	13.363
ProbeTrack09	11	ProbeTrack	1470	SCS215a	20090511.125732	20090511.125927	8	0.013328	60	10	60-180	60	175	GapExp	0	16	2	3	0	distractor	1	547	727	47291	13.328	13.293	13.363
ProbeTrack09	11	ProbeTrack	1470	SCS215a	20090511.125732	20090511.125934	8	0.013328	60	10	60-180	60	147	GapExp	0	17	2	96	1	target	1	414	793	48084	13.328	13.293	13.363
ProbeTrack09	11	ProbeTrack	1470	SCS215a	20090511.125732	20090511.125941	8	0.013328	60	10	60-180	60	88	GapExp	0	18	2	6	1	target	1	507	747	48831	13.328	13.293	13.363
ProbeTrack09	11	ProbeTrack	1470	SCS215a	20090511.125732	20090511.125947	8	0.013328	60	10	60-180	60	156	GapExp	0	19	2	6	1	target	1	427	787	49618	13.328	13.293	13.363
ProbeTrack09	11	ProbeTrack	1470	SCS215a	20090511.125732	20090511.125954	8	0.013328	60	10	60-180	60	131	GapExp	0	20	2	96	1	target	1	360	820	50438	13.328	13.293	13.363
ProbeTrack09	11	ProbeTrack	1470	SCS215a	20090511.125732	20090511.130001	8	0.013328	60	10	60-180	60	115	GapExp	0	21	2	0	0	distractor	1	600	700	51138	13.328	13.293	13.363
ProbeTrack09	11	ProbeTrack	1470	SCS215a	20090511.125732	20090511.130007	8	0.013328	60	10	60-180	60	115	GapExp	0	22	2	3	1	target	1	747	627	51765	13.328	13.292	13.364
ProbeTrack09	11	ProbeTrack	1470	SCS215a	20090511.125732	20090511.130013	8	0.013328	60	10	60-180	60	162	GapExp	0	23	2	0	0	distractor	1	573	714	52479	13.328	13.293	13.363
ProbeTrack09	11	ProbeTrack	1470	SCS215a	20090511.125732	20090511.130020	8	0.013328	60	10	60-180	60	174	GapExp	0	24	2	3	1	target	1	360	820	53299	13.328	13.293	13.363
ProbeTrack09	11	ProbeTrack	1470	SCS215a	20090511.125732	20090511.130026	8	0.013328	60	10	60-180	60	94	GapExp	0	25	2	3	0	distractor	1	920	540	53839	13.328	13.293	13.363
ProbeTrack09	11	ProbeTrack	1470	SCS215a	20090511.125732	20090511.130033	8	0.013328	60	10	60-180	60	105	GapExp	0	26	2	6	1	target	1	733	634	54473	13.328	13.289	13.366
ProbeTrack09	11	ProbeTrack	1470	SCS215a	20090511.125732	20090511.130039	8	0.013328	60	10	60-180	60	101	GapExp	0	27	2	6	1	target	1	507	747	55220	13.328	13.293	13.363
ProbeTrack09	11	ProbeTrack	1470	SCS215a	20090511.125732	20090511.130046	8	0.013328	60	10	60-180	60	109	GapExp	0	28	2	0	1	target	1	374	813	56033	13.328	13.293	13.363
ProbeTrack09	11	ProbeTrack	1470	SCS215a	20090511.125732	20090511.130051	8	0.013328	60	10	60-180	60	178	GapExp	0	29	2	96	0	distractor	1	707	647	56680	13.328	13.292	13.363
ProbeTrack09	11	ProbeTrack	1470	SCS215a	20090511.125732	20090511.130100	8	0.013328	60	10	60-180	60	169	GapExp	0	30	2	3	0	distractor	1	507	747	57427	13.328	13.293	13.363
ProbeTrack09	11	ProbeTrack	1470	SCS215a	20090511.125732	20090511.130107	8	0.013328	60	10	60-180	60	95	GapExp	0	31	2	96	1	target	1	387	807	58234	13.328	13.293	13.363
ProbeTrack09	11	ProbeTrack	1470	SCS215a	20090511.125732	20090511.130114	8	0.013328	60	10	60-180	60	118	GapExp	0	32	2	96	0	distractor	1	560	720	58954	13.328	13.293	13.363
ProbeTrack09	11	ProbeTrack	1470	SCS215a	20090511.125732	20090511.130121	8	0.013328	60	10	60-180	60	179	GapExp	0	33	2	0	0	distractor	1	534	733	59687	13.328	13.293	13.363
ProbeTrack09	11	ProbeTrack	1470	SCS215a	20090511.125732	20090511.130128	8	0.013328	60	10	60-180	60	145	GapExp	0	34	2	96	1	target	1	400	800	60487	13.328	13.290	13.365
ProbeTrack09	11	ProbeTrack	1470	SCS215a	20090511.125732	20090511.130136	8	0.013328	60	10	60-180	60	73	GapExp	0	35	2	0	1	target	1	414	793	61280	13.328	13.293	13.363
ProbeTrack09	11	ProbeTrack	1470	SCS215a	20090511.125732	20090511.130141	8	0.013328	60	10	60-180	60	108	GapExp	0	36	2	0	0	distractor	1	547	727	62007	13.328	13.293	13.363
ProbeTrack09	11	ProbeTrack	1470	SCS215a	20090511.125732	20090511.130148	8	0.013328	60	10	60-180	60	68	GapExp	0	37	2	3	1	target	1	427	787	62794	13.328	13.293	13.363
ProbeTrack09	11	ProbeTrack	1470	SCS215a	20090511.125732	20090511.130153	8	0.013328	60	10	60-180	60	105	GapExp	0	38	2	96	0	target	0	5118	-1000	61794	13.328	13.292	13.364
ProbeTrack09	11	ProbeTrack	1470	SCS215a	20090511.125732	20090511.130204	8	0.013328	60	10	60-180	60	144	GapExp	0	39	2	3	0	distractor	1	640	680	62474	13.328	13.293	13.363
ProbeTrack09	11	ProbeTrack	1470	SCS215a	20090511.125732	20090511.130222	8	0.013328	60	10	60-180	60	93	GapExp	0	40	2	96	1	target	1	374	813	63287	13.328	13.293	13.363
ProbeTrack09	11	ProbeTrack	1470	SCS215a	20090511.125732	20090511.130229	8	0.013328	60	10	60-180	60	149	GapExp	0	41	2	0	0	distractor	1	547	727	64014	13.328	13.292	13.363
ProbeTrack09	11	ProbeTrack	1470	SCS215a	20090511.125732	20090511.130235	8	0.013328	60	10	60-180	60	95	GapExp	0	42	2	6	0	distractor	1	520	740	64754	13.328	13.289	13.363
ProbeTrack09	11	ProbeTrack	1470	SCS215a	20090511.125732	20090511.130241	8	0.013328	60	10	60-180	60	138	GapExp	0	43	2	96	1	target	1	427	787	65541	13.328	13.293	13.366
ProbeTrack09	11	ProbeTrack	1470	SCS215a	20090511.125732	20090511.130248	8	0.013328	60	10	60-180	60	71	GapExp	0	44	2	0	0	distractor	1	534	733	66274	13.328	13.293	13.363
ProbeTrack09	11	ProbeTrack	1470	SCS215a	20090511.125732	20090511.130254	8	0.013328	60	10	60-180	60	134	GapExp	0	45	2	6	1	distractor	0	573	-1000	65274	13.328	13.293	13.363
ProbeTrack09	11	ProbeTrack	1470	SCS215a	20090511.125732	20090511.130300	8	0.013328	60	10	60-180	60	165	GapExp	0	46	2	0	0	distractor	1	440	780	66054	13.328	13.293	13.363
ProbeTrack09	11	ProbeTrack	1470	SCS215a	20090511.125732	20090511.130306	8	0.013328	60	10	60-180	60	124	GapExp	0	47	2	96	1	target	1	414	793	66847	13.328	13.293	13.363
ProbeTrack09	11	ProbeTrack	1470	SCS215a	20090511.125732	20090511.130314	8	0.013328	60	10	60-180	60	73	GapExp	0	48	2	96	0	distractor	1	600	700	67547	13.328	13.293	13.363
ProbeTrack09	11	ProbeTrack	1470	SCS215a	20090511.125732	20090511.130320	8	0.013328	60	10	60-180	60	108	GapExp	0	49	2	6	0	distractor	1	507	747	68294	13.328	13.293	13.363
ProbeTrack09	11	ProbeTrack	1470	SCS215a	20090511.125732	20090511.130326	8	0.013328	60	10	60-180	60	146	GapExp	0	50	2	96	0	distractor	1	494	753	69047	13.328	13.291	13.363
ProbeTrack09	11	ProbeTrack	1470	SCS215a	20090511.125732	20090511.130334	8	0.013328	60	10	60-180	60	134	GapExp	0	51	2	3	1	distractor	0	387	-1000	68047	13.328	13.293	13.363
ProbeTrack09	11	ProbeTrack	1470	SCS215a	20090511.125732	20090511.130340	8	0.013328	60	10	60-180	60	114	GapExp	0	52	2	96	0	distractor	1	507	747	68794	13.328	13.293	13.363
ProbeTrack09	11	ProbeTrack	1470	SCS215a	20090511.125732	20090511.130347	8	0.013328	60	10	60-180	60	69	GapExp	0	53	2	3	1	target	1	440	780	69574	13.328	13.289	13.363
ProbeTrack09	11	ProbeTrack	1470	SCS215a	20090511.125732	20090511.130352	8	0.013328	60	10	60-180	60	177	GapExp	0	54	2	3	1	target	1	427	787	70361	13.328	13.293	13.363
ProbeTrack09	11	ProbeTrack	1470	SCS215a	20090511.125732	20090511.130359	8	0.013328	60	10	60-180	60	150	GapExp	0	55	2	96	0	distractor	1	573	714	71075	13.328	13.284	13.363
ProbeTrack09	11	ProbeTrack	1470	SCS215a	20090511.125732	20090511.130406	8	0.013328	60	10	60-180	60	102	GapExp	0	56	2	3	1	target	1	573	714	71789	13.328	13.293	13.363
ProbeTrack09	11	ProbeTrack	1470	SCS215a	20090511.125732	20090511.130412	8	0.013328	60	10	60-180	60	88	GapExp	0	57	2	0	1	target	1	480	760	72549	13.328	13.293	13.363
ProbeTrack09	11	ProbeTrack	1470	SCS215a	20090511.125732	20090511.130418	8	0.013328	60	10	60-180	60	81	GapExp	0	58	2	3	0	distractor	1	520	740	73289	13.328	13.293	13.363
ProbeTrack09	11	ProbeTrack	1470	SCS215a	20090511.125732	20090511.130423	8	0.013328	60	10	60-180	60	61	GapExp	0	59	2	3	1	target	1	494	753	74042	13.328	13.293	13.363
ProbeTrack09	11	ProbeTrack	1470	SCS215a	20090511.125732	20090511.130428	8	0.013328	60	10	60-180	60	116	GapExp	0	60	2	3	0	distractor	1	454	773	74815	13.328	13.293	13.363
ProbeTrack09	11	ProbeTrack	1470	SCS215a	20090511.125732	20090511.130434	8	0.013328	60	10	60-180	60	170	GapExp	0	61	2	96	0	distractor	1	494	753	75568	13.328	13.292	13.367
ProbeTrack09	11	ProbeTrack	1470	SCS215a	20090511.125732	20090511.130442	8	0.013328	60	10	60-180	60	125	GapExp	0	62	2	6	1	target	1	480	760	76328	13.328	13.293	13.363
ProbeTrack09	11	ProbeTrack	1470	SCS215a	20090511.125732	20090511.130448	8	0.013328	60	10	60-180	60	105	GapExp	0	63	2	6	1	target	1	414	793	77121	13.328	13.293	13.363
ProbeTrack09	11	ProbeTrack	1470	SCS215a	20090511.125732	20090511.130454	8	0.013328	60	10	60-180	60	62	GapExp	0	64	2	0	0	target	0	547	-1000	76121	13.328	13.293	13.363
ProbeTrack09	11	ProbeTrack	1470	SCS215a	20090511.125732	20090511.130459	8	0.013328	60	10	60-180	60	163	GapExp	0	65	2	0	1	target	1	374	813	76934	13.328	13.293	13.363
ProbeTrack09	11	ProbeTrack	1470	SCS215a	20090511.125732	20090511.130505	8	0.013328	60	10	60-180	60	152	GapExp	0	66	2	0	0	distractor	1	614	693	77627	13.328	13.293	13.363
ProbeTrack09	11	ProbeTrack	1470	SCS215a	20090511.125732	20090511.130512	8	0.013328	60	10	60-180	60	178	GapExp	0	67	2	0	1	target	1	427	787	78414	13.328	13.293	13.363
ProbeTrack09	11	ProbeTrack	1470	SCS215a	20090511.125732	20090511.130518	8	0.013328	60	10	60-180	60	146	GapExp	0	68	2	3	0	distractor	1	707	647	79061	13.328	13.293	13.365
ProbeTrack09	11	ProbeTrack	1470	SCS215a	20090511.125732	20090511.130525	8	0.013328	60	10	60-180	60	89	GapExp	0	69	2	96	1	target	1	467	767	79828	13.328	13.289	13.367
ProbeTrack09	11	ProbeTrack	1470	SCS215a	20090511.125732	20090511.130532	8	0.013328	60	10	60-180	60	168	GapExp	0	70	2	0	1	target	1	400	800	80628	13.328	13.292	13.363
ProbeTrack09	11	ProbeTrack	1470	SCS215a	20090511.125732	20090511.130539	8	0.013328	60	10	60-180	60	72	GapExp	0	71	2	6	0	distractor	1	520	740	81368	13.328	13.293	13.363
ProbeTrack09	11	ProbeTrack	1470	SCS215a	20090511.125732	20090511.130544	8	0.013328	60	10	60-180	60	171	GapExp	0	72	2	96	1	target	1	427	787	82155	13.328	13.293	13.363
ProbeTrack09	11	ProbeTrack	1470	SCS215a	20090511.125732	20090511.130552	8	0.013328	60	10	60-180	60	72	GapExp	0	73	2	3	1	target	1	414	793	82948	13.328	13.293	13.363
ProbeTrack09	11	ProbeTrack	1470	SCS215a	20090511.125732	20090511.130557	8	0.013328	60	10	60-180	60	86	GapExp	0	74	2	96	0	distractor	1	574	713	83661	13.328	13.293	13.363
ProbeTrack09	11	ProbeTrack	1470	SCS215a	20090511.125732	20090511.130604	8	0.013328	60	10	60-180	60	143	GapExp	0	75	2	96	0	distractor	1	467	767	84428	13.328	13.293	13.363
ProbeTrack09	11	ProbeTrack	1470	SCS215a	20090511.125732	20090511.130612	8	0.013328	60	10	60-180	60	143	GapExp	0	76	2	6	1	target	1	614	693	85121	13.328	13.291	13.365
ProbeTrack09	11	ProbeTrack	1470	SCS215a	20090511.125732	20090511.130618	8	0.013328	60	10	60-180	60	153	GapExp	0	77	2	3	1	target	1	360	820	85941	13.328	13.293	13.364
ProbeTrack09	11	ProbeTrack	1470	SCS215a	20090511.125732	20090511.130624	8	0.013328	60	10	60-180	60	116	GapExp	0	78	2	0	0	distractor	1	534	733	86674	13.328	13.293	13.365
ProbeTrack09	11	ProbeTrack	1470	SCS215a	20090511.125732	20090511.130630	8	0.013328	60	10	60-180	60	78	GapExp	0	79	2	6	0	distractor	1	494	753	87427	13.328	13.293	13.363
ProbeTrack09	11	ProbeTrack	1470	SCS215a	20090511.125732	20090511.130636	8	0.013328	60	10	60-180	60	76	GapExp	0	80	2	6	1	target	1	494	753	88180	13.328	13.293	13.363
ProbeTrack09	11	ProbeTrack	1470	SCS215a	20090511.125732	20090511.130641	8	0.013328	60	10	60-180	60	113	GapExp	0	81	2	3	0	distractor	1	494	753	88933	13.328	13.293	13.363
ProbeTrack09	11	ProbeTrack	1470	SCS215a	20090511.125732	20090511.130647	8	0.013328	60	10	60-180	60	129	GapExp	0	82	2	6	0	distractor	1	587	707	89640	13.328	13.293	13.363
ProbeTrack09	11	ProbeTrack	1470	SCS215a	20090511.125732	20090511.130654	8	0.013328	60	10	60-180	60	122	GapExp	0	83	2	6	1	target	1	427	787	90427	13.328	13.293	13.363
ProbeTrack09	11	ProbeTrack	1470	SCS215a	20090511.125732	20090511.130700	8	0.013328	60	10	60-180	60	72	GapExp	0	84	2	96	0	distractor	1	534	733	91160	13.328	13.292	13.364
ProbeTrack09	11	ProbeTrack	1470	SCS215a	20090511.125732	20090511.130706	8	0.013328	60	10	60-180	60	98	GapExp	0	85	2	6	1	target	1	427	787	91947	13.328	13.293	13.363
ProbeTrack09	11	ProbeTrack	1470	SCS215a	20090511.125732	20090511.130712	8	0.013328	60	10	60-180	60	108	GapExp	0	86	2	0	1	target	1	400	800	92747	13.328	13.293	13.363
ProbeTrack09	11	ProbeTrack	1470	SCS215a	20090511.125732	20090511.130717	8	0.013328	60	10	60-180	60	124	GapExp	0	87	2	0	0	target	0	773	-1000	91747	13.328	13.292	13.363
ProbeTrack09	11	ProbeTrack	1470	SCS215a	20090511.125732	20090511.130724	8	0.013328	60	10	60-180	60	173	GapExp	0	88	2	96	1	target	1	360	820	92567	13.328	13.293	13.363
ProbeTrack09	11	ProbeTrack	1470	SCS215a	20090511.125732	20090511.130731	8	0.013328	60	10	60-180	60	135	GapExp	0	89	2	0	0	distractor	1	574	713	93280	13.328	13.292	13.363
ProbeTrack09	11	ProbeTrack	1470	SCS215a	20090511.125732	20090511.130738	8	0.013328	60	10	60-180	60	114	GapExp	0	90	2	96	0	distractor	1	494	753	94033	13.328	13.293	13.363
ProbeTrack09	11	ProbeTrack	1470	SCS215a	20090511.125732	20090511.130745	8	0.013328	60	10	60-180	60	66	GapExp	0	91	2	6	0	distractor	1	547	727	94760	13.328	13.289	13.363
ProbeTrack09	11	ProbeTrack	1470	SCS215a	20090511.125732	20090511.130750	8	0.013328	60	10	60-180	60	114	GapExp	0	92	2	96	1	target	1	440	780	95540	13.328	13.293	13.363
ProbeTrack09	11	ProbeTrack	1470	SCS215a	20090511.125732	20090511.130757	8	0.013328	60	10	60-180	60	78	GapExp	0	93	2	96	1	target	1	480	760	96300	13.328	13.293	13.363
ProbeTrack09	11	ProbeTrack	1470	SCS215a	20090511.125732	20090511.130805	8	0.013328	60	10	60-180	60	100	GapExp	0	94	2	6	1	target	1	400	800	97100	13.328	13.292	13.364
ProbeTrack09	11	ProbeTrack	1470	SCS215a	20090511.125732	20090511.130810	8	0.013328	60	10	60-180	60	61	GapExp	0	95	2	3	1	target	1	414	793	97893	13.328	13.292	13.363
ProbeTrack09	11	ProbeTrack	1470	SCS215a	20090511.125732	20090511.130815	8	0.013328	60	10	60-180	60	169	GapExp	0	96	2	0	0	target	0	733	-1000	96893	13.328	13.293	13.363
ProbeTrack09	11	ProbeTrack	1470	SCS215a	20090511.125732	20090511.130822	8	0.013328	60	10	60-180	60	133	GapExp	0	97	2	96	1	target	1	440	780	97673	13.328	13.293	13.363
ProbeTrack09	11	ProbeTrack	1470	SCS215a	20090511.125732	20090511.130830	8	0.013328	60	10	60-180	60	131	GapExp	0	98	2	6	0	distractor	1	720	640	98313	13.328	13.293	13.364
ProbeTrack09	11	ProbeTrack	1470	SCS215a	20090511.125732	20090511.130836	8	0.013328	60	10	60-180	60	132	GapExp	0	99	2	6	0	distractor	1	534	733	99046	13.328	13.292	13.363
ProbeTrack09	11	ProbeTrack	1470	SCS215a	20090511.125732	20090511.130843	8	0.013328	60	10	60-180	60	93	GapExp	0	100	2	0	1	target	1	840	580	99626	13.328	13.293	13.363
ProbeTrack09	11	ProbeTrack	1470	SCS215a	20090511.125732	20090511.130849	8	0.013328	60	10	60-180	60	161	GapExp	0	101	2	6	0	distractor	1	653	674	100300	13.328	13.293	13.363
ProbeTrack09	11	ProbeTrack	1470	SCS215a	20090511.125732	20090511.130855	8	0.013328	60	10	60-180	60	83	GapExp	0	102	2	3	1	target	1	520	740	101040	13.328	13.293	13.363
ProbeTrack09	11	ProbeTrack	1470	SCS215a	20090511.125732	20090511.130901	8	0.013328	60	10	60-180	60	86	GapExp	0	103	2	0	0	distractor	1	587	707	101747	13.328	13.293	13.363
ProbeTrack09	11	ProbeTrack	1470	SCS215a	20090511.125732	20090511.130906	8	0.013328	60	10	60-180	60	146	GapExp	0	104	2	6	0	distractor	1	480	760	102507	13.328	13.293	13.363
ProbeTrack09	11	ProbeTrack	1470	SCS215a	20090511.125732	20090511.130913	8	0.013328	60	10	60-180	60	107	GapExp	0	105	2	0	0	distractor	1	494	753	103260	13.328	13.293	13.363
ProbeTrack09	11	ProbeTrack	1470	SCS215a	20090511.125732	20090511.130918	8	0.013328	60	10	60-180	60	154	GapExp	0	106	2	3	0	distractor	1	480	760	104020	13.328	13.293	13.363
ProbeTrack09	11	ProbeTrack	1470	SCS215a	20090511.125732	20090511.130925	8	0.013328	60	10	60-180	60	117	GapExp	0	107	2	6	0	distractor	1	560	720	104740	13.328	13.293	13.363
ProbeTrack09	11	ProbeTrack	1470	SCS215a	20090511.125732	20090511.130931	8	0.013328	60	10	60-180	60	71	GapExp	0	108	2	3	1	target	1	613	694	105434	13.328	13.293	13.363
ProbeTrack09	11	ProbeTrack	1470	SCS215a	20090511.125732	20090511.130936	8	0.013328	60	10	60-180	60	140	GapExp	0	109	2	0	1	target	1	747	627	106061	13.328	13.293	13.363
ProbeTrack09	11	ProbeTrack	1470	SCS215a	20090511.125732	20090511.130942	8	0.013328	60	10	60-180	60	179	GapExp	0	110	2	3	1	target	1	467	767	106828	13.328	13.291	13.364
ProbeTrack09	11	ProbeTrack	1470	SCS215a	20090511.125732	20090511.130949	8	0.013328	60	10	60-180	60	86	GapExp	0	111	2	6	1	target	1	467	767	107595	13.328	13.290	13.367
ProbeTrack09	11	ProbeTrack	1470	SCS215a	20090511.125732	20090511.130955	8	0.013328	60	10	60-180	60	113	GapExp	0	112	2	0	0	distractor	1	574	713	108308	13.328	13.290	13.363
ProbeTrack09	11	ProbeTrack	1470	SCS215a	20090511.125732	20090511.131001	8	0.013328	60	10	60-180	60	156	GapExp	0	113	2	6	0	distractor	1	454	773	109081	13.328	13.293	13.364
ProbeTrack09	11	ProbeTrack	1470	SCS215a	20090511.125732	20090511.131007	8	0.013328	60	10	60-180	60	152	GapExp	0	114	2	96	0	distractor	1	480	760	109841	13.328	13.293	13.364
ProbeTrack09	11	ProbeTrack	1470	SCS215a	20090511.125732	20090511.131015	8	0.013328	60	10	60-180	60	146	GapExp	0	115	2	96	0	target	0	893	-1000	108841	13.328	13.293	13.364
ProbeTrack09	11	ProbeTrack	1470	SCS215a	20090511.125732	20090511.131023	8	0.013328	60	10	60-180	60	132	GapExp	0	116	2	3	0	distractor	1	880	560	109401	13.328	13.293	13.363
ProbeTrack09	11	ProbeTrack	1470	SCS215a	20090511.125732	20090511.131030	8	0.013328	60	10	60-180	60	111	GapExp	0	117	2	3	0	distractor	1	560	720	110121	13.328	13.293	13.363
ProbeTrack09	11	ProbeTrack	1470	SCS215a	20090511.125732	20090511.131036	8	0.013328	60	10	60-180	60	118	GapExp	0	118	2	3	0	distractor	1	947	527	110648	13.328	13.293	13.363
ProbeTrack09	11	ProbeTrack	1470	SCS215a	20090511.125732	20090511.131045	8	0.013328	60	10	60-180	60	128	GapExp	0	119	2	6	0	distractor	1	574	713	111361	13.328	13.293	13.363
ProbeTrack09	11	ProbeTrack	1470	SCS215a	20090511.125732	20090511.131051	8	0.013328	60	10	60-180	60	153	GapExp	0	120	2	96	0	distractor	1	800	600	111961	13.328	13.293	13.363
ProbeTrack09	11	ProbeTrack	1470	SCS215a	20090511.125732	20090511.131059	8	0.013328	60	10	60-180	60	73	GapExp	0	121	2	0	1	target	1	613	694	112655	13.328	13.293	13.363
ProbeTrack09	11	ProbeTrack	1470	SCS215a	20090511.125732	20090511.131104	8	0.013328	60	10	60-180	60	89	GapExp	0	122	2	6	1	target	1	440	780	113435	13.328	13.293	13.363
ProbeTrack09	11	ProbeTrack	1470	SCS215a	20090511.125732	20090511.131110	8	0.013328	60	10	60-180	60	117	GapExp	0	123	2	3	0	distractor	1	547	727	114162	13.328	13.293	13.363
ProbeTrack09	11	ProbeTrack	1470	SCS215a	20090511.125732	20090511.131116	8	0.013328	60	10	60-180	60	151	GapExp	0	124	2	3	1	target	1	600	700	114862	13.328	13.293	13.363
ProbeTrack09	11	ProbeTrack	1470	SCS215a	20090511.125732	20090511.131122	8	0.013328	60	10	60-180	60	76	GapExp	0	125	2	6	0	distractor	1	454	773	115635	13.328	13.293	13.363
ProbeTrack09	11	ProbeTrack	1470	SCS215a	20090511.125732	20090511.131128	8	0.013328	60	10	60-180	60	123	GapExp	0	126	2	3	0	distractor	1	480	760	116395	13.328	13.293	13.363
ProbeTrack09	11	ProbeTrack	1470	SCS215a	20090511.125732	20090511.131134	8	0.013328	60	10	60-180	60	70	GapExp	0	127	2	96	1	target	1	400	800	117195	13.328	13.293	13.363
ProbeTrack09	11	ProbeTrack	1470	SCS215a	20090511.125732	20090511.131140	8	0.013328	60	10	60-180	60	180	GapExp	0	128	2	96	1	target	1	400	800	117995	13.328	13.293	13.363
ProbeTrack09	11	ProbeTrack	1470	SCS215a	20090511.125732	20090511.131148	8	0.013328	60	10	60-180	60	84	GapExp	0	129	2	0	1	target	1	427	787	118782	13.328	13.293	13.363
ProbeTrack09	11	ProbeTrack	1470	SCS215a	20090511.125732	20090511.131154	8	0.013328	60	10	60-180	60	63	GapExp	0	130	2	6	1	target	1	334	833	119615	13.328	13.293	13.363
ProbeTrack09	11	ProbeTrack	1470	SCS215a	20090511.125732	20090511.131159	8	0.013328	60	10	60-180	60	127	GapExp	0	131	2	3	0	distractor	1	547	727	120342	13.328	13.293	13.363
ProbeTrack09	11	ProbeTrack	1470	SCS215a	20090511.125732	20090511.131205	8	0.013328	60	10	60-180	60	82	GapExp	0	132	2	6	1	target	1	387	807	121149	13.328	13.293	13.363
ProbeTrack09	11	ProbeTrack	1470	SCS215a	20090511.125732	20090511.131210	8	0.013328	60	10	60-180	60	177	GapExp	0	133	2	96	1	target	1	400	800	121949	13.328	13.293	13.363
ProbeTrack09	11	ProbeTrack	1470	SCS215a	20090511.125732	20090511.131218	8	0.013328	60	10	60-180	60	149	GapExp	0	134	2	0	1	target	1	494	753	122702	13.328	13.293	13.363
ProbeTrack09	11	ProbeTrack	1470	SCS215a	20090511.125732	20090511.131224	8	0.013328	60	10	60-180	60	68	GapExp	0	135	2	96	0	distractor	1	614	693	123395	13.328	13.289	13.366
ProbeTrack09	11	ProbeTrack	1470	SCS215a	20090511.125732	20090511.131231	8	0.013328	60	10	60-180	60	131	GapExp	0	136	2	6	1	target	1	414	793	124188	13.328	13.293	13.363
ProbeTrack09	11	ProbeTrack	1470	SCS215a	20090511.125732	20090511.131237	8	0.013328	60	10	60-180	60	140	GapExp	0	137	2	3	0	distractor	1	494	753	124941	13.328	13.293	13.363
ProbeTrack09	11	ProbeTrack	1470	SCS215a	20090511.125732	20090511.131243	8	0.013328	60	10	60-180	60	64	GapExp	0	138	2	3	0	distractor	1	587	707	125648	13.328	13.292	13.363
ProbeTrack09	11	ProbeTrack	1470	SCS215a	20090511.125732	20090511.131249	8	0.013328	60	10	60-180	60	178	GapExp	0	139	2	6	1	target	1	480	760	126408	13.328	13.293	13.363
ProbeTrack09	11	ProbeTrack	1470	SCS215a	20090511.125732	20090511.131255	8	0.013328	60	10	60-180	60	62	GapExp	0	140	2	0	0	target	0	1013	-1000	125408	13.328	13.290	13.365
ProbeTrack09	11	ProbeTrack	1470	SCS215a	20090511.125732	20090511.131301	8	0.013328	60	10	60-180	60	130	GapExp	0	141	2	6	0	distractor	1	440	780	126188	13.328	13.289	13.363
ProbeTrack09	11	ProbeTrack	1470	SCS215a	20090511.125732	20090511.131308	8	0.013328	60	10	60-180	60	140	GapExp	0	142	2	0	1	target	1	387	807	126995	13.328	13.293	13.363
ProbeTrack09	11	ProbeTrack	1470	SCS215a	20090511.125732	20090511.131314	8	0.013328	60	10	60-180	60	76	GapExp	0	143	2	6	1	target	1	387	807	127802	13.328	13.293	13.364
ProbeTrack09	11	ProbeTrack	1470	SCS215a	20090511.125732	20090511.131319	8	0.013328	60	10	60-180	60	122	GapExp	0	144	2	6	0	distractor	1	600	700	128502	13.328	13.292	13.363
ProbeTrack09	11	ProbeTrack	1470	SCS215a	20090511.125732	20090511.131404	8	0.013328	60	10	60-180	60	96	GapExp	0	145	2	3	0	distractor	1	494	753	129255	13.328	13.293	13.363
ProbeTrack09	11	ProbeTrack	1470	SCS215a	20090511.125732	20090511.131410	8	0.013328	60	10	60-180	60	104	GapExp	0	146	2	0	1	target	1	587	707	129962	13.328	13.293	13.363
ProbeTrack09	11	ProbeTrack	1470	SCS215a	20090511.125732	20090511.131416	8	0.013328	60	10	60-180	60	109	GapExp	0	147	2	3	1	target	1	360	820	130782	13.328	13.293	13.363
ProbeTrack09	11	ProbeTrack	1470	SCS215a	20090511.125732	20090511.131421	8	0.013328	60	10	60-180	60	90	GapExp	0	148	2	3	0	distractor	1	547	727	131509	13.328	13.293	13.363
ProbeTrack09	11	ProbeTrack	1470	SCS215a	20090511.125732	20090511.131427	8	0.013328	60	10	60-180	60	84	GapExp	0	149	2	0	1	target	1	534	733	132242	13.328	13.293	13.363
ProbeTrack09	11	ProbeTrack	1470	SCS215a	20090511.125732	20090511.131432	8	0.013328	60	10	60-180	60	66	GapExp	0	150	2	0	1	target	1	427	787	133029	13.328	13.293	13.363
ProbeTrack09	11	ProbeTrack	1470	SCS215a	20090511.125732	20090511.131438	8	0.013328	60	10	60-180	60	109	GapExp	0	151	2	96	1	target	1	494	753	133782	13.328	13.293	13.363
ProbeTrack09	11	ProbeTrack	1470	SCS215a	20090511.125732	20090511.131445	8	0.013328	60	10	60-180	60	124	GapExp	0	152	2	96	1	target	1	454	773	134555	13.328	13.289	13.363
ProbeTrack09	11	ProbeTrack	1470	SCS215a	20090511.125732	20090511.131452	8	0.013328	60	10	60-180	60	156	GapExp	0	153	2	96	0	distractor	1	640	680	135235	13.328	13.292	13.363
ProbeTrack09	11	ProbeTrack	1470	SCS215a	20090511.125732	20090511.131500	8	0.013328	60	10	60-180	60	131	GapExp	0	154	2	0	1	distractor	0	587	-1000	134235	13.328	13.292	13.363
ProbeTrack09	11	ProbeTrack	1470	SCS215a	20090511.125732	20090511.131506	8	0.013328	60	10	60-180	60	134	GapExp	0	155	2	96	1	target	1	360	820	135055	13.328	13.293	13.363
ProbeTrack09	11	ProbeTrack	1470	SCS215a	20090511.125732	20090511.131513	8	0.013328	60	10	60-180	60	68	GapExp	0	156	2	3	1	target	1	680	660	135715	13.328	13.293	13.363
ProbeTrack09	11	ProbeTrack	1470	SCS215a	20090511.125732	20090511.131518	8	0.013328	60	10	60-180	60	161	GapExp	0	157	2	3	0	distractor	1	787	607	136322	13.328	13.293	13.367
ProbeTrack09	11	ProbeTrack	1470	SCS215a	20090511.125732	20090511.131525	8	0.013328	60	10	60-180	60	101	GapExp	0	158	2	0	0	distractor	1	707	647	136969	13.328	13.293	13.363
ProbeTrack09	11	ProbeTrack	1470	SCS215a	20090511.125732	20090511.131531	8	0.013328	60	10	60-180	60	123	GapExp	0	159	2	96	0	distractor	1	467	767	137736	13.328	13.293	13.363
ProbeTrack09	11	ProbeTrack	1470	SCS215a	20090511.125732	20090511.131538	8	0.013328	60	10	60-180	60	167	GapExp	0	160	2	0	1	target	1	400	800	138536	13.328	13.293	13.363
ProbeTrack09	11	ProbeTrack	1470	SCS215a	20090511.125732	20090511.131544	8	0.013328	60	10	60-180	60	66	GapExp	0	161	2	0	1	target	1	560	720	139256	13.328	13.293	13.363
ProbeTrack09	11	ProbeTrack	1470	SCS215a	20090511.125732	20090511.131550	8	0.013328	60	10	60-180	60	140	GapExp	0	162	2	6	0	distractor	1	640	680	139936	13.328	13.293	13.363
ProbeTrack09	11	ProbeTrack	1470	SCS215a	20090511.125732	20090511.131556	8	0.013328	60	10	60-180	60	166	GapExp	0	163	2	0	0	distractor	1	640	680	140616	13.328	13.293	13.363
ProbeTrack09	11	ProbeTrack	1470	SCS215a	20090511.125732	20090511.131603	8	0.013328	60	10	60-180	60	136	GapExp	0	164	2	6	0	distractor	1	920	540	141156	13.328	13.293	13.363
ProbeTrack09	11	ProbeTrack	1470	SCS215a	20090511.125732	20090511.131610	8	0.013328	60	10	60-180	60	145	GapExp	0	165	2	6	0	distractor	1	547	727	141883	13.328	13.293	13.363
ProbeTrack09	11	ProbeTrack	1470	SCS215a	20090511.125732	20090511.131646	8	0.013328	60	10	60-180	60	165	GapExp	0	166	2	3	1	target	1	627	687	142570	13.328	13.293	13.363
ProbeTrack09	11	ProbeTrack	1470	SCS215a	20090511.125732	20090511.131653	8	0.013328	60	10	60-180	60	155	GapExp	0	167	2	0	0	distractor	1	587	707	143277	13.328	13.293	13.363
ProbeTrack09	11	ProbeTrack	1470	SCS215a	20090511.125732	20090511.131659	8	0.013328	60	10	60-180	60	88	GapExp	0	168	2	6	1	target	1	640	680	143957	13.328	13.291	13.364
ProbeTrack09	11	ProbeTrack	1470	SCS215a	20090511.125732	20090511.131705	8	0.013328	60	10	60-180	60	125	GapExp	0	169	2	6	0	target	0	653	-1000	142957	13.328	13.293	13.363
ProbeTrack09	11	ProbeTrack	1470	SCS215a	20090511.125732	20090511.131712	8	0.013328	60	10	60-180	60	103	GapExp	0	170	2	6	1	target	1	440	780	143737	13.328	13.293	13.363
ProbeTrack09	11	ProbeTrack	1470	SCS215a	20090511.125732	20090511.131717	8	0.013328	60	10	60-180	60	111	GapExp	0	171	2	0	1	target	1	667	667	144404	13.328	13.293	13.363
ProbeTrack09	11	ProbeTrack	1470	SCS215a	20090511.125732	20090511.131723	8	0.013328	60	10	60-180	60	80	GapExp	0	172	2	96	1	target	1	454	773	145177	13.328	13.293	13.363
ProbeTrack09	11	ProbeTrack	1470	SCS215a	20090511.125732	20090511.131730	8	0.013328	60	10	60-180	60	136	GapExp	0	173	2	96	1	distractor	0	587	-1000	144177	13.328	13.288	13.363
ProbeTrack09	11	ProbeTrack	1470	SCS215a	20090511.125732	20090511.131738	8	0.013328	60	10	60-180	60	86	GapExp	0	174	2	0	1	target	1	400	800	144977	13.328	13.293	13.363
ProbeTrack09	11	ProbeTrack	1470	SCS215a	20090511.125732	20090511.131743	8	0.013328	60	10	60-180	60	159	GapExp	0	175	2	6	0	distractor	1	494	753	145730	13.328	13.293	13.363
ProbeTrack09	11	ProbeTrack	1470	SCS215a	20090511.125732	20090511.131750	8	0.013328	60	10	60-180	60	122	GapExp	0	176	2	3	0	distractor	1	507	747	146477	13.328	13.293	13.363
ProbeTrack09	11	ProbeTrack	1470	SCS215a	20090511.125732	20090511.131756	8	0.013328	60	10	60-180	60	136	GapExp	0	177	2	3	0	distractor	1	534	733	147210	13.328	13.292	13.363
ProbeTrack09	11	ProbeTrack	1470	SCS215a	20090511.125732	20090511.131802	8	0.013328	60	10	60-180	60	109	GapExp	0	178	2	96	1	target	1	733	634	147844	13.328	13.293	13.364
ProbeTrack09	11	ProbeTrack	1470	SCS215a	20090511.125732	20090511.131809	8	0.013328	60	10	60-180	60	77	GapExp	0	179	2	3	0	distractor	1	667	667	148511	13.328	13.293	13.363
ProbeTrack09	11	ProbeTrack	1470	SCS215a	20090511.125732	20090511.131815	8	0.013328	60	10	60-180	60	177	GapExp	0	180	2	96	0	distractor	1	707	647	149158	13.328	13.293	13.363
ProbeTrack09	11	ProbeTrack	1470	SCS215a	20090511.125732	20090511.131823	8	0.013328	60	10	60-180	60	71	GapExp	0	181	2	6	0	target	0	693	-1000	148158	13.328	13.293	13.364
ProbeTrack09	11	ProbeTrack	1470	SCS215a	20090511.125732	20090511.131829	8	0.013328	60	10	60-180	60	120	GapExp	0	182	2	96	0	distractor	1	440	780	148938	13.328	13.290	13.365
ProbeTrack09	11	ProbeTrack	1470	SCS215a	20090511.125732	20090511.131836	8	0.013328	60	10	60-180	60	124	GapExp	0	183	2	0	0	distractor	1	813	594	149532	13.328	13.293	13.363
ProbeTrack09	11	ProbeTrack	1470	SCS215a	20090511.125732	20090511.131842	8	0.013328	60	10	60-180	60	168	GapExp	0	184	2	0	0	distractor	1	587	707	150239	13.328	13.293	13.363
ProbeTrack09	11	ProbeTrack	1470	SCS215a	20090511.125732	20090511.131849	8	0.013328	60	10	60-180	60	142	GapExp	0	185	2	3	0	distractor	1	1466	267	150506	13.328	13.293	13.363
ProbeTrack09	11	ProbeTrack	1470	SCS215a	20090511.125732	20090511.131856	8	0.013328	60	10	60-180	60	136	GapExp	0	186	2	3	1	target	1	2586	0	150506	13.328	13.292	13.363
ProbeTrack09	11	ProbeTrack	1470	SCS215a	20090511.125732	20090511.131904	8	0.013328	60	10	60-180	60	83	GapExp	0	187	2	96	1	target	1	534	733	151239	13.328	13.293	13.363
ProbeTrack09	11	ProbeTrack	1470	SCS215a	20090511.125732	20090511.131911	8	0.013328	60	10	60-180	60	121	GapExp	0	188	2	96	1	target	1	494	753	151992	13.328	13.293	13.363
ProbeTrack09	11	ProbeTrack	1470	SCS215a	20090511.125732	20090511.131918	8	0.013328	60	10	60-180	60	149	GapExp	0	189	2	6	0	distractor	1	534	733	152725	13.328	13.293	13.363
ProbeTrack09	11	ProbeTrack	1470	SCS215a	20090511.125732	20090511.131924	8	0.013328	60	10	60-180	60	154	GapExp	0	190	2	3	1	target	1	494	753	153478	13.328	13.293	13.363
ProbeTrack09	11	ProbeTrack	1470	SCS215a	20090511.125732	20090511.131931	8	0.013328	60	10	60-180	60	145	GapExp	0	191	2	96	0	distractor	1	707	647	154125	13.328	13.293	13.366
ProbeTrack09	11	ProbeTrack	1470	SCS215a	20090511.125732	20090511.131938	8	0.013328	60	10	60-180	60	171	GapExp	0	192	2	96	0	distractor	1	613	694	154819	13.328	13.293	13.363
ProbeTrack09	11	ProbeTrack	1470	SCS215a	20090511.125732	20090511.131946	8	0.013328	60	10	60-180	60	173	GapExp	0	193	2	0	0	distractor	1	654	673	155492	13.328	13.292	13.364
ProbeTrack09	11	ProbeTrack	1470	SCS215a	20090511.125732	20090511.131953	8	0.013328	60	10	60-180	60	179	GapExp	0	194	2	6	0	distractor	1	534	733	156225	13.328	13.292	13.363
ProbeTrack09	11	ProbeTrack	1470	SCS215a	20090511.125732	20090511.132000	8	0.013328	60	10	60-180	60	62	GapExp	0	195	2	3	1	target	1	400	800	157025	13.328	13.291	13.366
ProbeTrack09	11	ProbeTrack	1470	SCS215a	20090511.125732	20090511.132005	8	0.013328	60	10	60-180	60	76	GapExp	0	196	2	6	1	target	1	467	767	157792	13.328	13.293	13.363
ProbeTrack09	11	ProbeTrack	1470	SCS215a	20090511.125732	20090511.132011	8	0.013328	60	10	60-180	60	130	GapExp	0	197	2	3	1	target	1	347	827	158619	13.328	13.293	13.363
ProbeTrack09	11	ProbeTrack	1470	SCS215a	20090511.125732	20090511.132016	8	0.013328	60	10	60-180	60	116	GapExp	0	198	2	0	0	distractor	1	613	694	159313	13.328	13.293	13.363
ProbeTrack09	11	ProbeTrack	1470	SCS215a	20090511.125732	20090511.132022	8	0.013328	60	10	60-180	60	81	GapExp	0	199	2	0	1	target	1	374	813	160126	13.328	13.293	13.363
ProbeTrack09	11	ProbeTrack	1470	SCS215a	20090511.125732	20090511.132028	8	0.013328	60	10	60-180	60	111	GapExp	0	200	2	3	1	target	1	387	807	160933	13.328	13.292	13.363
