exp	sub	code	rev	comp	runtime	trialtime	nstim	refreshdur	cuedur	gapdur	gapOnsetRange	durPostProbe	gapOnsetTime	blocktype	prac	trial	ntargets	soa	probeTarget	resp	acc	rt	pts	tpts	meanFrameDur	minFrameDur	maxFrameDur
ProbeTrack09	4	ProbeTrack	1470	SCS215a	20090501.115824	20090501.115831	8	0.013303	60	0	60-180	60	161	NoGap	1	1	2	3	1	distractor	0	440	-1000	-1000	13.328	13.293	13.363
ProbeTrack09	4	ProbeTrack	1470	SCS215a	20090501.115824	20090501.115911	8	0.013303	60	0	60-180	60	139	NoGap	1	2	2	0	1	target	1	627	687	-313	13.328	13.292	13.363
ProbeTrack09	4	ProbeTrack	1470	SCS215a	20090501.115824	20090501.115920	8	0.013303	60	0	60-180	60	74	NoGap	1	3	2	3	0	distractor	1	600	700	387	13.328	13.293	13.363
ProbeTrack09	4	ProbeTrack	1470	SCS215a	20090501.115824	20090501.115936	8	0.013303	60	0	60-180	60	171	NoGap	1	4	2	0	1	target	1	440	780	1167	13.328	13.293	13.363
ProbeTrack09	4	ProbeTrack	1470	SCS215a	20090501.115824	20090501.115943	8	0.013303	60	0	60-180	60	179	NoGap	1	5	2	3	0	distractor	1	574	713	1880	13.328	13.293	13.363
ProbeTrack09	4	ProbeTrack	1470	SCS215a	20090501.115824	20090501.115951	8	0.013303	60	0	60-180	60	90	NoGap	1	6	2	6	0	distractor	1	467	767	2647	13.328	13.293	13.370
ProbeTrack09	4	ProbeTrack	1470	SCS215a	20090501.115824	20090501.115957	8	0.013303	60	0	60-180	60	82	NoGap	1	7	2	96	1	target	1	414	793	3440	13.328	13.292	13.363
ProbeTrack09	4	ProbeTrack	1470	SCS215a	20090501.115824	20090501.120006	8	0.013303	60	0	60-180	60	123	NoGap	1	8	2	0	0	distractor	1	427	787	4227	13.327	13.290	13.365
ProbeTrack09	4	ProbeTrack	1470	SCS215a	20090501.115824	20090501.120013	8	0.013303	60	0	60-180	60	71	NoGap	1	9	2	6	0	distractor	1	520	740	4967	13.328	13.293	13.363
ProbeTrack09	4	ProbeTrack	1470	SCS215a	20090501.115824	20090501.120020	8	0.013303	60	0	60-180	60	141	NoGap	1	10	2	96	0	distractor	1	427	787	5754	13.328	13.293	13.363
ProbeTrack09	4	ProbeTrack	1470	SCS215a	20090501.115824	20090501.120027	8	0.013303	60	0	60-180	60	177	NoGap	1	11	2	3	1	distractor	0	294	-1000	4754	13.328	13.293	13.363
ProbeTrack09	4	ProbeTrack	1470	SCS215a	20090501.115824	20090501.120035	8	0.013303	60	0	60-180	60	118	NoGap	1	12	2	6	0	distractor	1	387	807	5561	13.328	13.293	13.363
ProbeTrack09	4	ProbeTrack	1470	SCS215a	20090501.115824	20090501.120041	8	0.013303	60	0	60-180	60	88	NoGap	1	13	2	3	1	target	1	360	820	6381	13.328	13.293	13.363
ProbeTrack09	4	ProbeTrack	1470	SCS215a	20090501.115824	20090501.120047	8	0.013303	60	0	60-180	60	111	NoGap	1	14	2	0	1	distractor	0	347	-1000	5381	13.328	13.292	13.363
ProbeTrack09	4	ProbeTrack	1470	SCS215a	20090501.115824	20090501.120053	8	0.013303	60	0	60-180	60	80	NoGap	1	15	2	6	0	distractor	1	534	733	6114	13.328	13.292	13.362
ProbeTrack09	4	ProbeTrack	1470	SCS215a	20090501.115824	20090501.120058	8	0.013303	60	0	60-180	60	83	NoGap	1	16	2	96	1	target	1	374	813	6927	13.328	13.285	13.363
ProbeTrack09	4	ProbeTrack	1470	SCS215a	20090501.115824	20090501.120105	8	0.013303	60	0	60-180	60	102	NoGap	1	17	2	6	1	distractor	0	440	-1000	5927	13.327	13.293	13.363
ProbeTrack09	4	ProbeTrack	1470	SCS215a	20090501.115824	20090501.120111	8	0.013303	60	0	60-180	60	114	NoGap	1	18	2	0	0	distractor	1	494	753	6680	13.328	13.293	13.363
ProbeTrack09	4	ProbeTrack	1470	SCS215a	20090501.115824	20090501.120117	8	0.013303	60	0	60-180	60	102	NoGap	1	19	2	0	0	target	0	520	-1000	5680	13.328	13.291	13.363
ProbeTrack09	4	ProbeTrack	1470	SCS215a	20090501.115824	20090501.120124	8	0.013303	60	0	60-180	60	90	NoGap	1	20	2	6	0	distractor	1	534	733	6413	13.328	13.293	13.362
ProbeTrack09	4	ProbeTrack	1470	SCS215a	20090501.115824	20090501.120130	8	0.013303	60	0	60-180	60	135	NoGap	1	21	2	96	0	distractor	1	654	673	7086	13.328	13.293	13.363
ProbeTrack09	4	ProbeTrack	1470	SCS215a	20090501.115824	20090501.120139	8	0.013303	60	0	60-180	60	108	NoGap	1	22	2	96	1	distractor	0	534	-1000	6086	13.328	13.293	13.365
ProbeTrack09	4	ProbeTrack	1470	SCS215a	20090501.115824	20090501.120147	8	0.013303	60	0	60-180	60	146	NoGap	1	23	2	6	1	target	1	440	780	6866	13.328	13.293	13.363
ProbeTrack09	4	ProbeTrack	1470	SCS215a	20090501.115824	20090501.120156	8	0.013303	60	0	60-180	60	78	NoGap	1	24	2	3	0	distractor	1	587	707	7573	13.328	13.293	13.363
ProbeTrack09	4	ProbeTrack	1470	SCS215a	20090501.115824	20090501.120202	8	0.013303	60	0	60-180	60	89	NoGap	1	25	2	96	0	distractor	1	507	747	8320	13.328	13.292	13.363
ProbeTrack09	4	ProbeTrack	1470	SCS215a	20090501.115824	20090501.120209	8	0.013303	60	0	60-180	60	139	NoGap	1	26	2	96	0	distractor	1	387	807	9127	13.328	13.293	13.363
ProbeTrack09	4	ProbeTrack	1470	SCS215a	20090501.115824	20090501.120217	8	0.013303	60	0	60-180	60	146	NoGap	1	27	2	0	1	distractor	0	374	-1000	8127	13.328	13.293	13.363
ProbeTrack09	4	ProbeTrack	1470	SCS215a	20090501.115824	20090501.120223	8	0.013303	60	0	60-180	60	139	NoGap	1	28	2	0	1	target	1	534	733	8860	13.328	13.293	13.363
ProbeTrack09	4	ProbeTrack	1470	SCS215a	20090501.115824	20090501.120230	8	0.013303	60	0	60-180	60	120	NoGap	1	29	2	3	1	target	1	507	747	9607	13.328	13.293	13.363
ProbeTrack09	4	ProbeTrack	1470	SCS215a	20090501.115824	20090501.120236	8	0.013303	60	0	60-180	60	173	NoGap	1	30	2	6	1	distractor	0	360	-1000	8607	13.328	13.290	13.364
ProbeTrack09	4	ProbeTrack	1470	SCS215a	20090501.115824	20090501.120243	8	0.013303	60	0	60-180	60	153	NoGap	1	31	2	3	0	target	0	613	-1000	7607	13.328	13.293	13.363
ProbeTrack09	4	ProbeTrack	1470	SCS215a	20090501.115824	20090501.120250	8	0.013303	60	0	60-180	60	94	NoGap	1	32	2	3	1	target	1	667	667	8274	13.328	13.293	13.366
ProbeTrack09	4	ProbeTrack	1470	SCS215a	20090501.115824	20090501.120256	8	0.013303	60	0	60-180	60	88	NoGap	1	33	2	3	0	distractor	1	520	740	9014	13.328	13.293	13.363
ProbeTrack09	4	ProbeTrack	1470	SCS215a	20090501.115824	20090501.120302	8	0.013303	60	0	60-180	60	128	NoGap	1	34	2	6	0	distractor	1	507	747	9761	13.328	13.293	13.363
ProbeTrack09	4	ProbeTrack	1470	SCS215a	20090501.115824	20090501.120309	8	0.013303	60	0	60-180	60	146	NoGap	1	35	2	0	0	distractor	1	520	740	10501	13.328	13.293	13.363
ProbeTrack09	4	ProbeTrack	1470	SCS215a	20090501.115824	20090501.120316	8	0.013303	60	0	60-180	60	110	NoGap	1	36	2	96	1	distractor	0	534	-1000	9501	13.328	13.293	13.363
ProbeTrack09	4	ProbeTrack	1470	SCS215a	20090501.115824	20090501.120324	8	0.013303	60	0	60-180	60	86	NoGap	1	37	2	0	1	target	1	707	647	10148	13.328	13.293	13.363
ProbeTrack09	4	ProbeTrack	1470	SCS215a	20090501.115824	20090501.120329	8	0.013303	60	0	60-180	60	103	NoGap	1	38	2	6	0	distractor	1	534	733	10881	13.328	13.293	13.363
ProbeTrack09	4	ProbeTrack	1470	SCS215a	20090501.115824	20090501.120335	8	0.013303	60	0	60-180	60	165	NoGap	1	39	2	96	1	target	1	480	760	11641	13.328	13.293	13.363
ProbeTrack09	4	ProbeTrack	1470	SCS215a	20090501.115824	20090501.120343	8	0.013303	60	0	60-180	60	117	NoGap	1	40	2	96	1	target	1	320	840	12481	13.328	13.291	13.363
ProbeTrack09	4	ProbeTrack	1470	SCS215a	20090501.115824	20090501.120350	8	0.013303	60	0	60-180	60	112	NoGap	1	41	2	0	1	target	1	480	760	13241	13.327	13.281	13.374
ProbeTrack09	4	ProbeTrack	1470	SCS215a	20090501.115824	20090501.120356	8	0.013303	60	0	60-180	60	143	NoGap	1	42	2	6	1	distractor	0	467	-1000	12241	13.328	13.293	13.363
ProbeTrack09	4	ProbeTrack	1470	SCS215a	20090501.115824	20090501.120403	8	0.013303	60	0	60-180	60	162	NoGap	1	43	2	0	0	distractor	1	534	733	12974	13.328	13.292	13.363
ProbeTrack09	4	ProbeTrack	1470	SCS215a	20090501.115824	20090501.120410	8	0.013303	60	0	60-180	60	176	NoGap	1	44	2	6	1	target	1	347	827	13801	13.328	13.293	13.363
ProbeTrack09	4	ProbeTrack	1470	SCS215a	20090501.115824	20090501.120417	8	0.013303	60	0	60-180	60	94	NoGap	1	45	2	3	0	distractor	1	627	687	14488	13.328	13.293	13.363
ProbeTrack09	4	ProbeTrack	1470	SCS215a	20090501.115824	20090501.120423	8	0.013303	60	0	60-180	60	140	NoGap	1	46	2	0	0	distractor	1	480	760	15248	13.328	13.293	13.365
ProbeTrack09	4	ProbeTrack	1470	SCS215a	20090501.115824	20090501.120430	8	0.013303	60	0	60-180	60	93	NoGap	1	47	2	96	0	distractor	1	427	787	16035	13.328	13.293	13.363
ProbeTrack09	4	ProbeTrack	1470	SCS215a	20090501.115824	20090501.120438	8	0.013303	60	0	60-180	60	125	NoGap	1	48	2	3	0	distractor	1	507	747	16782	13.328	13.293	13.363
ProbeTrack09	4	ProbeTrack	1470	SCS215a	20090501.115824	20090501.120445	8	0.013303	60	0	60-180	60	63	NoGap	1	49	2	3	1	target	1	480	760	17542	13.328	13.293	13.365
ProbeTrack09	4	ProbeTrack	1470	SCS215a	20090501.115824	20090501.120450	8	0.013303	60	0	60-180	60	165	NoGap	1	50	2	96	0	distractor	1	387	807	18349	13.328	13.293	13.363
ProbeTrack09	4	ProbeTrack	1470	SCS215a	20090501.120555	20090501.120603	8	0.013328	60	10	60-180	60	162	GapPrac	1	1	2	6	0	distractor	1	5824	0	18349	13.328	13.293	13.363
ProbeTrack09	4	ProbeTrack	1470	SCS215a	20090501.120555	20090501.120616	8	0.013328	60	10	60-180	60	176	GapPrac	1	2	2	96	1	target	1	467	767	19116	13.328	13.293	13.363
ProbeTrack09	4	ProbeTrack	1470	SCS215a	20090501.120555	20090501.120625	8	0.013328	60	10	60-180	60	99	GapPrac	1	3	2	0	1	target	1	4558	0	19116	13.328	13.293	13.363
ProbeTrack09	4	ProbeTrack	1470	SCS215a	20090501.120555	20090501.120635	8	0.013328	60	10	60-180	60	143	GapPrac	1	4	2	0	0	distractor	1	707	647	19763	13.328	13.293	13.363
ProbeTrack09	4	ProbeTrack	1470	SCS215a	20090501.120555	20090501.120642	8	0.013328	60	10	60-180	60	155	GapPrac	1	5	2	3	0	target	0	507	-1000	18763	13.328	13.293	13.363
ProbeTrack09	4	ProbeTrack	1470	SCS215a	20090501.120555	20090501.120651	8	0.013328	60	10	60-180	60	150	GapPrac	1	6	2	96	0	distractor	1	574	713	19476	13.328	13.293	13.363
ProbeTrack09	4	ProbeTrack	1470	SCS215a	20090501.120555	20090501.120659	8	0.013328	60	10	60-180	60	65	GapPrac	1	7	2	0	1	distractor	0	653	-1000	18476	13.328	13.289	13.362
ProbeTrack09	4	ProbeTrack	1470	SCS215a	20090501.120555	20090501.120704	8	0.013328	60	10	60-180	60	143	GapPrac	1	8	2	0	0	distractor	1	573	714	19190	13.328	13.293	13.363
ProbeTrack09	4	ProbeTrack	1470	SCS215a	20090501.120555	20090501.120711	8	0.013328	60	10	60-180	60	157	GapPrac	1	9	2	3	1	distractor	0	574	-1000	18190	13.328	13.292	13.363
ProbeTrack09	4	ProbeTrack	1470	SCS215a	20090501.120555	20090501.120718	8	0.013328	60	10	60-180	60	99	GapPrac	1	10	2	0	0	distractor	1	693	654	18844	13.328	13.291	13.363
ProbeTrack09	4	ProbeTrack	1470	SCS215a	20090501.120555	20090501.120724	8	0.013328	60	10	60-180	60	134	GapPrac	1	11	2	96	0	target	0	534	-1000	17844	13.328	13.289	13.363
ProbeTrack09	4	ProbeTrack	1470	SCS215a	20090501.120555	20090501.120731	8	0.013328	60	10	60-180	60	94	GapPrac	1	12	2	6	0	distractor	1	467	767	18611	13.328	13.293	13.363
ProbeTrack09	4	ProbeTrack	1470	SCS215a	20090501.120555	20090501.120738	8	0.013328	60	10	60-180	60	152	GapPrac	1	13	2	96	1	target	1	693	654	19265	13.328	13.292	13.363
ProbeTrack09	4	ProbeTrack	1470	SCS215a	20090501.120555	20090501.120746	8	0.013328	60	10	60-180	60	108	GapPrac	1	14	2	6	0	distractor	1	427	787	20052	13.327	13.293	13.363
ProbeTrack09	4	ProbeTrack	1470	SCS215a	20090501.120555	20090501.120752	8	0.013328	60	10	60-180	60	105	GapPrac	1	15	2	6	1	distractor	0	467	-1000	19052	13.328	13.293	13.365
ProbeTrack09	4	ProbeTrack	1470	SCS215a	20090501.120555	20090501.120758	8	0.013328	60	10	60-180	60	123	GapPrac	1	16	2	0	1	target	1	600	700	19752	13.328	13.292	13.363
ProbeTrack09	4	ProbeTrack	1470	SCS215a	20090501.120555	20090501.120804	8	0.013328	60	10	60-180	60	69	GapPrac	1	17	2	96	1	target	1	414	793	20545	13.328	13.292	13.363
ProbeTrack09	4	ProbeTrack	1470	SCS215a	20090501.120555	20090501.120811	8	0.013328	60	10	60-180	60	157	GapPrac	1	18	2	6	1	target	1	467	767	21312	13.328	13.293	13.364
ProbeTrack09	4	ProbeTrack	1470	SCS215a	20090501.120555	20090501.120818	8	0.013328	60	10	60-180	60	127	GapPrac	1	19	2	3	0	distractor	1	707	647	21959	13.328	13.292	13.386
ProbeTrack09	4	ProbeTrack	1470	SCS215a	20090501.120555	20090501.120824	8	0.013328	60	10	60-180	60	129	GapPrac	1	20	2	3	1	target	1	693	654	22613	13.328	13.293	13.363
ProbeTrack09	4	ProbeTrack	1470	SCS215a	20090501.120958	20090501.121020	8	0.013327	60	10	60-180	60	78	GapExp	1	1	2	6	0	distractor	1	507	747	23360	13.328	13.293	13.363
ProbeTrack09	4	ProbeTrack	1470	SCS215a	20090501.120958	20090501.121027	8	0.013327	60	10	60-180	60	126	GapExp	1	2	2	6	1	target	1	520	740	24100	13.328	13.293	13.363
ProbeTrack09	4	ProbeTrack	1470	SCS215a	20090501.120958	20090501.121033	8	0.013327	60	10	60-180	60	97	GapExp	1	3	2	3	1	target	1	454	773	24873	13.328	13.293	13.363
ProbeTrack09	4	ProbeTrack	1470	SCS215a	20090501.120958	20090501.121040	8	0.013327	60	10	60-180	60	75	GapExp	1	4	2	0	1	target	1	387	807	25680	13.328	13.292	13.363
ProbeTrack09	4	ProbeTrack	1470	SCS215a	20090501.120958	20090501.121045	8	0.013327	60	10	60-180	60	111	GapExp	1	5	2	96	0	distractor	1	480	760	26440	13.328	13.293	13.367
ProbeTrack09	4	ProbeTrack	1470	SCS215a	20090501.120958	20090501.121053	8	0.013327	60	10	60-180	60	166	GapExp	1	6	2	0	0	distractor	1	1067	467	26907	13.328	13.293	13.363
ProbeTrack09	4	ProbeTrack	1470	SCS215a	20090501.120958	20090501.121100	8	0.013327	60	10	60-180	60	128	GapExp	1	7	2	96	1	target	1	547	727	27634	13.328	13.293	13.363
ProbeTrack09	4	ProbeTrack	1470	SCS215a	20090501.120958	20090501.121110	8	0.013327	60	10	60-180	60	66	GapExp	1	8	2	3	0	distractor	1	547	727	28361	13.327	13.292	13.364
ProbeTrack09	4	ProbeTrack	1470	SCS215a	20090501.120958	20090501.121115	8	0.013327	60	10	60-180	60	145	GapExp	0	9	2	6	0	distractor	1	387	807	29168	13.328	13.293	13.363
ProbeTrack09	4	ProbeTrack	1470	SCS215a	20090501.120958	20090501.121122	8	0.013327	60	10	60-180	60	166	GapExp	0	10	2	3	0	distractor	1	427	787	29955	13.328	13.293	13.363
ProbeTrack09	4	ProbeTrack	1470	SCS215a	20090501.120958	20090501.121128	8	0.013327	60	10	60-180	60	91	GapExp	0	11	2	96	0	distractor	1	494	753	30708	13.328	13.293	13.363
ProbeTrack09	4	ProbeTrack	1470	SCS215a	20090501.120958	20090501.121135	8	0.013327	60	10	60-180	60	108	GapExp	0	12	2	3	1	distractor	0	467	-1000	29708	13.328	13.293	13.363
ProbeTrack09	4	ProbeTrack	1470	SCS215a	20090501.120958	20090501.121141	8	0.013327	60	10	60-180	60	84	GapExp	0	13	2	96	1	target	1	574	713	30421	13.328	13.293	13.363
ProbeTrack09	4	ProbeTrack	1470	SCS215a	20090501.120958	20090501.121148	8	0.013327	60	10	60-180	60	171	GapExp	0	14	2	3	0	distractor	1	520	740	31161	13.328	13.289	13.363
ProbeTrack09	4	ProbeTrack	1470	SCS215a	20090501.120958	20090501.121156	8	0.013327	60	10	60-180	60	80	GapExp	0	15	2	6	0	distractor	1	480	760	31921	13.328	13.293	13.363
ProbeTrack09	4	ProbeTrack	1470	SCS215a	20090501.120958	20090501.121217	8	0.013327	60	10	60-180	60	103	GapExp	0	16	2	0	1	target	1	534	733	32654	13.328	13.293	13.363
ProbeTrack09	4	ProbeTrack	1470	SCS215a	20090501.120958	20090501.121223	8	0.013327	60	10	60-180	60	75	GapExp	0	17	2	6	1	target	1	400	800	33454	13.328	13.293	13.363
ProbeTrack09	4	ProbeTrack	1470	SCS215a	20090501.120958	20090501.121229	8	0.013327	60	10	60-180	60	86	GapExp	0	18	2	6	0	distractor	1	440	780	34234	13.328	13.293	13.363
ProbeTrack09	4	ProbeTrack	1470	SCS215a	20090501.120958	20090501.121235	8	0.013327	60	10	60-180	60	86	GapExp	0	19	2	0	0	target	0	560	-1000	33234	13.328	13.124	13.531
ProbeTrack09	4	ProbeTrack	1470	SCS215a	20090501.120958	20090501.121240	8	0.013327	60	10	60-180	60	177	GapExp	0	20	2	96	0	distractor	1	507	747	33981	13.328	13.293	13.363
ProbeTrack09	4	ProbeTrack	1470	SCS215a	20090501.120958	20090501.121249	8	0.013327	60	10	60-180	60	100	GapExp	0	21	2	3	1	target	1	587	707	34688	13.327	13.293	13.363
ProbeTrack09	4	ProbeTrack	1470	SCS215a	20090501.120958	20090501.121255	8	0.013327	60	10	60-180	60	132	GapExp	0	22	2	96	1	target	1	787	607	35295	13.328	13.292	13.364
ProbeTrack09	4	ProbeTrack	1470	SCS215a	20090501.120958	20090501.121302	8	0.013327	60	10	60-180	60	170	GapExp	0	23	2	6	1	target	1	733	634	35929	13.328	13.289	13.363
ProbeTrack09	4	ProbeTrack	1470	SCS215a	20090501.120958	20090501.121309	8	0.013327	60	10	60-180	60	162	GapExp	0	24	2	0	0	distractor	1	560	720	36649	13.328	13.291	13.363
ProbeTrack09	4	ProbeTrack	1470	SCS215a	20090501.120958	20090501.121316	8	0.013327	60	10	60-180	60	68	GapExp	0	25	2	3	0	distractor	1	480	760	37409	13.328	13.289	13.363
ProbeTrack09	4	ProbeTrack	1470	SCS215a	20090501.120958	20090501.121322	8	0.013327	60	10	60-180	60	102	GapExp	0	26	2	0	0	distractor	1	600	700	38109	13.328	13.293	13.363
ProbeTrack09	4	ProbeTrack	1470	SCS215a	20090501.120958	20090501.121327	8	0.013327	60	10	60-180	60	68	GapExp	0	27	2	3	1	distractor	0	574	-1000	37109	13.328	13.293	13.363
ProbeTrack09	4	ProbeTrack	1470	SCS215a	20090501.120958	20090501.121333	8	0.013327	60	10	60-180	60	156	GapExp	0	28	2	96	0	distractor	1	747	627	37736	13.328	13.292	13.364
ProbeTrack09	4	ProbeTrack	1470	SCS215a	20090501.120958	20090501.121342	8	0.013327	60	10	60-180	60	149	GapExp	0	29	2	6	0	distractor	1	627	687	38423	13.328	13.293	13.363
ProbeTrack09	4	ProbeTrack	1470	SCS215a	20090501.120958	20090501.121349	8	0.013327	60	10	60-180	60	111	GapExp	0	30	2	0	0	distractor	1	747	627	39050	13.328	13.293	13.363
ProbeTrack09	4	ProbeTrack	1470	SCS215a	20090501.120958	20090501.121355	8	0.013327	60	10	60-180	60	73	GapExp	0	31	2	0	0	distractor	1	427	787	39837	13.328	13.293	13.362
ProbeTrack09	4	ProbeTrack	1470	SCS215a	20090501.120958	20090501.121400	8	0.013327	60	10	60-180	60	148	GapExp	0	32	2	96	0	distractor	1	374	813	40650	13.328	13.293	13.363
ProbeTrack09	4	ProbeTrack	1470	SCS215a	20090501.120958	20090501.121408	8	0.013327	60	10	60-180	60	162	GapExp	0	33	2	3	0	distractor	1	520	740	41390	13.328	13.293	13.363
ProbeTrack09	4	ProbeTrack	1470	SCS215a	20090501.120958	20090501.121415	8	0.013327	60	10	60-180	60	96	GapExp	0	34	2	96	1	distractor	0	400	-1000	40390	13.328	13.293	13.363
ProbeTrack09	4	ProbeTrack	1470	SCS215a	20090501.120958	20090501.121422	8	0.013327	60	10	60-180	60	83	GapExp	0	35	2	3	1	target	1	587	707	41097	13.327	13.293	13.363
ProbeTrack09	4	ProbeTrack	1470	SCS215a	20090501.120958	20090501.121428	8	0.013327	60	10	60-180	60	169	GapExp	0	36	2	0	1	target	1	693	654	41751	13.328	13.292	13.363
ProbeTrack09	4	ProbeTrack	1470	SCS215a	20090501.120958	20090501.121436	8	0.013327	60	10	60-180	60	176	GapExp	0	37	2	6	1	target	1	120	940	42691	13.328	13.293	13.363
ProbeTrack09	4	ProbeTrack	1470	SCS215a	20090501.120958	20090501.121442	8	0.013327	60	10	60-180	60	117	GapExp	0	38	2	6	1	target	1	280	860	43551	13.328	13.293	13.363
ProbeTrack09	4	ProbeTrack	1470	SCS215a	20090501.120958	20090501.121449	8	0.013327	60	10	60-180	60	122	GapExp	0	39	2	3	0	distractor	1	454	773	44324	13.327	13.293	13.363
ProbeTrack09	4	ProbeTrack	1470	SCS215a	20090501.120958	20090501.121455	8	0.013327	60	10	60-180	60	160	GapExp	0	40	2	96	1	target	1	267	867	45191	13.328	13.289	13.363
ProbeTrack09	4	ProbeTrack	1470	SCS215a	20090501.120958	20090501.121503	8	0.013327	60	10	60-180	60	134	GapExp	0	41	2	3	1	target	1	320	840	46031	13.328	13.293	13.363
ProbeTrack09	4	ProbeTrack	1470	SCS215a	20090501.120958	20090501.121509	8	0.013327	60	10	60-180	60	179	GapExp	0	42	2	6	1	target	1	307	847	46878	13.328	13.291	13.363
ProbeTrack09	4	ProbeTrack	1470	SCS215a	20090501.120958	20090501.121515	8	0.013327	60	10	60-180	60	75	GapExp	0	43	2	96	1	target	1	414	793	47671	13.328	13.293	13.362
ProbeTrack09	4	ProbeTrack	1470	SCS215a	20090501.120958	20090501.121522	8	0.013327	60	10	60-180	60	133	GapExp	0	44	2	96	0	distractor	1	560	720	48391	13.328	13.293	13.363
ProbeTrack09	4	ProbeTrack	1470	SCS215a	20090501.120958	20090501.121530	8	0.013327	60	10	60-180	60	117	GapExp	0	45	2	96	1	distractor	0	440	-1000	47391	13.328	13.292	13.363
ProbeTrack09	4	ProbeTrack	1470	SCS215a	20090501.120958	20090501.121543	8	0.013327	60	10	60-180	60	72	GapExp	0	46	2	3	0	distractor	1	507	747	48138	13.328	13.293	13.363
ProbeTrack09	4	ProbeTrack	1470	SCS215a	20090501.120958	20090501.121549	8	0.013327	60	10	60-180	60	125	GapExp	0	47	2	0	1	distractor	0	454	-1000	47138	13.328	13.289	13.363
ProbeTrack09	4	ProbeTrack	1470	SCS215a	20090501.120958	20090501.121555	8	0.013327	60	10	60-180	60	128	GapExp	0	48	2	3	1	target	1	427	787	47925	13.328	13.292	13.363
ProbeTrack09	4	ProbeTrack	1470	SCS215a	20090501.120958	20090501.121601	8	0.013327	60	10	60-180	60	90	GapExp	0	49	2	3	0	distractor	1	454	773	48698	13.328	13.292	13.363
ProbeTrack09	4	ProbeTrack	1470	SCS215a	20090501.120958	20090501.121607	8	0.013327	60	10	60-180	60	103	GapExp	0	50	2	3	0	distractor	1	467	767	49465	13.328	13.293	13.363
ProbeTrack09	4	ProbeTrack	1470	SCS215a	20090501.120958	20090501.121613	8	0.013327	60	10	60-180	60	90	GapExp	0	51	2	96	0	target	0	787	-1000	48465	13.328	13.292	13.363
ProbeTrack09	4	ProbeTrack	1470	SCS215a	20090501.120958	20090501.121620	8	0.013327	60	10	60-180	60	140	GapExp	0	52	2	6	1	distractor	0	360	-1000	47465	13.328	13.292	13.363
ProbeTrack09	4	ProbeTrack	1470	SCS215a	20090501.120958	20090501.121626	8	0.013327	60	10	60-180	60	105	GapExp	0	53	2	3	1	target	1	600	700	48165	13.328	13.293	13.362
ProbeTrack09	4	ProbeTrack	1470	SCS215a	20090501.120958	20090501.121632	8	0.013327	60	10	60-180	60	62	GapExp	0	54	2	0	0	target	0	467	-1000	47165	13.328	13.293	13.363
ProbeTrack09	4	ProbeTrack	1470	SCS215a	20090501.120958	20090501.121638	8	0.013327	60	10	60-180	60	150	GapExp	0	55	2	6	1	target	1	627	687	47852	13.328	13.293	13.362
ProbeTrack09	4	ProbeTrack	1470	SCS215a	20090501.120958	20090501.121644	8	0.013327	60	10	60-180	60	154	GapExp	0	56	2	6	0	target	0	600	-1000	46852	13.328	13.292	13.363
ProbeTrack09	4	ProbeTrack	1470	SCS215a	20090501.120958	20090501.121653	8	0.013327	60	10	60-180	60	80	GapExp	0	57	2	0	1	target	1	494	753	47605	13.328	13.292	13.363
ProbeTrack09	4	ProbeTrack	1470	SCS215a	20090501.120958	20090501.121659	8	0.013327	60	10	60-180	60	119	GapExp	0	58	2	3	0	distractor	1	707	647	48252	13.328	13.293	13.363
ProbeTrack09	4	ProbeTrack	1470	SCS215a	20090501.120958	20090501.121705	8	0.013327	60	10	60-180	60	91	GapExp	0	59	2	6	1	target	1	547	727	48979	13.328	13.293	13.363
ProbeTrack09	4	ProbeTrack	1470	SCS215a	20090501.120958	20090501.121711	8	0.013327	60	10	60-180	60	157	GapExp	0	60	2	0	1	target	1	374	813	49792	13.328	13.293	13.363
ProbeTrack09	4	ProbeTrack	1470	SCS215a	20090501.120958	20090501.121718	8	0.013327	60	10	60-180	60	97	GapExp	0	61	2	96	1	target	1	427	787	50579	13.328	13.293	13.363
ProbeTrack09	4	ProbeTrack	1470	SCS215a	20090501.120958	20090501.121725	8	0.013327	60	10	60-180	60	85	GapExp	0	62	2	96	1	target	1	440	780	51359	13.328	13.293	13.367
ProbeTrack09	4	ProbeTrack	1470	SCS215a	20090501.120958	20090501.121731	8	0.013327	60	10	60-180	60	83	GapExp	0	63	2	96	0	target	0	560	-1000	50359	13.328	13.292	13.363
ProbeTrack09	4	ProbeTrack	1470	SCS215a	20090501.120958	20090501.121758	8	0.013327	60	10	60-180	60	108	GapExp	0	64	2	3	1	target	1	494	753	51112	13.328	13.292	13.363
ProbeTrack09	4	ProbeTrack	1470	SCS215a	20090501.120958	20090501.121804	8	0.013327	60	10	60-180	60	81	GapExp	0	65	2	3	1	target	1	494	753	51865	13.328	13.293	13.363
ProbeTrack09	4	ProbeTrack	1470	SCS215a	20090501.120958	20090501.121810	8	0.013327	60	10	60-180	60	110	GapExp	0	66	2	96	0	distractor	1	667	667	52532	13.328	13.293	13.363
ProbeTrack09	4	ProbeTrack	1470	SCS215a	20090501.120958	20090501.121818	8	0.013327	60	10	60-180	60	93	GapExp	0	67	2	96	0	distractor	1	653	674	53206	13.328	13.292	13.363
ProbeTrack09	4	ProbeTrack	1470	SCS215a	20090501.120958	20090501.121825	8	0.013327	60	10	60-180	60	62	GapExp	0	68	2	3	0	distractor	1	680	660	53866	13.328	13.293	13.366
ProbeTrack09	4	ProbeTrack	1470	SCS215a	20090501.120958	20090501.121831	8	0.013327	60	10	60-180	60	100	GapExp	0	69	2	6	1	target	1	427	787	54653	13.328	13.290	13.365
ProbeTrack09	4	ProbeTrack	1470	SCS215a	20090501.120958	20090501.121837	8	0.013327	60	10	60-180	60	120	GapExp	0	70	2	96	0	distractor	1	560	720	55373	13.328	13.293	13.363
ProbeTrack09	4	ProbeTrack	1470	SCS215a	20090501.120958	20090501.121844	8	0.013327	60	10	60-180	60	130	GapExp	0	71	2	96	0	distractor	1	547	727	56100	13.328	13.289	13.363
ProbeTrack09	4	ProbeTrack	1470	SCS215a	20090501.120958	20090501.121852	8	0.013327	60	10	60-180	60	67	GapExp	0	72	2	0	0	distractor	1	560	720	56820	13.327	13.292	13.365
ProbeTrack09	4	ProbeTrack	1470	SCS215a	20090501.120958	20090501.121858	8	0.013327	60	10	60-180	60	104	GapExp	0	73	2	0	0	distractor	1	480	760	57580	13.328	13.292	13.363
ProbeTrack09	4	ProbeTrack	1470	SCS215a	20090501.120958	20090501.121904	8	0.013327	60	10	60-180	60	73	GapExp	0	74	2	3	0	distractor	1	427	787	58367	13.328	13.292	13.363
ProbeTrack09	4	ProbeTrack	1470	SCS215a	20090501.120958	20090501.121910	8	0.013327	60	10	60-180	60	111	GapExp	0	75	2	96	0	distractor	1	320	840	59207	13.328	13.293	13.363
ProbeTrack09	4	ProbeTrack	1470	SCS215a	20090501.120958	20090501.121917	8	0.013327	60	10	60-180	60	142	GapExp	0	76	2	3	1	target	1	507	747	59954	13.328	13.293	13.363
ProbeTrack09	4	ProbeTrack	1470	SCS215a	20090501.120958	20090501.121923	8	0.013327	60	10	60-180	60	128	GapExp	0	77	2	96	0	distractor	1	454	773	60727	13.328	13.293	13.365
ProbeTrack09	4	ProbeTrack	1470	SCS215a	20090501.120958	20090501.121931	8	0.013327	60	10	60-180	60	74	GapExp	0	78	2	0	1	target	1	800	600	61327	13.328	13.292	13.365
ProbeTrack09	4	ProbeTrack	1470	SCS215a	20090501.120958	20090501.121936	8	0.013327	60	10	60-180	60	145	GapExp	0	79	2	3	1	target	1	427	787	62114	13.328	13.293	13.366
ProbeTrack09	4	ProbeTrack	1470	SCS215a	20090501.120958	20090501.121943	8	0.013327	60	10	60-180	60	75	GapExp	0	80	2	0	0	distractor	1	547	727	62841	13.328	13.293	13.363
ProbeTrack09	4	ProbeTrack	1470	SCS215a	20090501.120958	20090501.121948	8	0.013327	60	10	60-180	60	127	GapExp	0	81	2	96	1	target	1	440	780	63621	13.328	13.292	13.363
ProbeTrack09	4	ProbeTrack	1470	SCS215a	20090501.120958	20090501.121956	8	0.013327	60	10	60-180	60	148	GapExp	0	82	2	6	0	distractor	1	414	793	64414	13.328	13.292	13.363
ProbeTrack09	4	ProbeTrack	1470	SCS215a	20090501.120958	20090501.122002	8	0.013327	60	10	60-180	60	71	GapExp	0	83	2	3	1	target	1	400	800	65214	13.328	13.293	13.363
ProbeTrack09	4	ProbeTrack	1470	SCS215a	20090501.120958	20090501.122008	8	0.013327	60	10	60-180	60	175	GapExp	0	84	2	3	0	distractor	1	533	734	65948	13.328	13.293	13.363
ProbeTrack09	4	ProbeTrack	1470	SCS215a	20090501.120958	20090501.122015	8	0.013327	60	10	60-180	60	105	GapExp	0	85	2	6	1	target	1	347	827	66775	13.328	13.293	13.363
ProbeTrack09	4	ProbeTrack	1470	SCS215a	20090501.120958	20090501.122020	8	0.013327	60	10	60-180	60	112	GapExp	0	86	2	3	0	distractor	1	613	694	67469	13.328	13.289	13.363
ProbeTrack09	4	ProbeTrack	1470	SCS215a	20090501.120958	20090501.122027	8	0.013327	60	10	60-180	60	102	GapExp	0	87	2	96	1	target	1	707	647	68116	13.328	13.293	13.363
ProbeTrack09	4	ProbeTrack	1470	SCS215a	20090501.120958	20090501.122034	8	0.013327	60	10	60-180	60	105	GapExp	0	88	2	3	0	target	0	520	-1000	67116	13.327	13.292	13.362
ProbeTrack09	4	ProbeTrack	1470	SCS215a	20090501.120958	20090501.122040	8	0.013327	60	10	60-180	60	178	GapExp	0	89	2	3	0	distractor	1	600	700	67816	13.328	13.292	13.363
ProbeTrack09	4	ProbeTrack	1470	SCS215a	20090501.120958	20090501.122047	8	0.013327	60	10	60-180	60	96	GapExp	0	90	2	6	0	distractor	1	480	760	68576	13.328	13.293	13.363
ProbeTrack09	4	ProbeTrack	1470	SCS215a	20090501.120958	20090501.122053	8	0.013327	60	10	60-180	60	157	GapExp	0	91	2	0	0	distractor	1	467	767	69343	13.328	13.293	13.363
ProbeTrack09	4	ProbeTrack	1470	SCS215a	20090501.120958	20090501.122059	8	0.013327	60	10	60-180	60	73	GapExp	0	92	2	6	0	target	0	640	-1000	68343	13.327	13.291	13.363
ProbeTrack09	4	ProbeTrack	1470	SCS215a	20090501.120958	20090501.122105	8	0.013327	60	10	60-180	60	159	GapExp	0	93	2	0	1	distractor	0	534	-1000	67343	13.328	13.293	13.366
ProbeTrack09	4	ProbeTrack	1470	SCS215a	20090501.120958	20090501.122111	8	0.013327	60	10	60-180	60	81	GapExp	0	94	2	96	0	target	0	667	-1000	66343	13.328	13.293	13.363
ProbeTrack09	4	ProbeTrack	1470	SCS215a	20090501.120958	20090501.122119	8	0.013327	60	10	60-180	60	141	GapExp	0	95	2	3	0	target	0	1466	-1000	65343	13.328	13.293	13.363
ProbeTrack09	4	ProbeTrack	1470	SCS215a	20090501.120958	20090501.122127	8	0.013327	60	10	60-180	60	166	GapExp	0	96	2	96	0	distractor	1	627	687	66030	13.328	13.292	13.364
ProbeTrack09	4	ProbeTrack	1470	SCS215a	20090501.120958	20090501.122135	8	0.013327	60	10	60-180	60	141	GapExp	0	97	2	0	1	target	1	533	734	66764	13.328	13.293	13.363
ProbeTrack09	4	ProbeTrack	1470	SCS215a	20090501.120958	20090501.122141	8	0.013327	60	10	60-180	60	174	GapExp	0	98	2	6	0	distractor	1	494	753	67517	13.328	13.293	13.366
ProbeTrack09	4	ProbeTrack	1470	SCS215a	20090501.120958	20090501.122148	8	0.013327	60	10	60-180	60	96	GapExp	0	99	2	0	0	distractor	1	467	767	68284	13.328	13.292	13.363
ProbeTrack09	4	ProbeTrack	1470	SCS215a	20090501.120958	20090501.122154	8	0.013327	60	10	60-180	60	159	GapExp	0	100	2	96	1	target	1	440	780	69064	13.328	13.292	13.363
ProbeTrack09	4	ProbeTrack	1470	SCS215a	20090501.120958	20090501.122202	8	0.013327	60	10	60-180	60	83	GapExp	0	101	2	0	1	target	1	587	707	69771	13.328	13.293	13.366
ProbeTrack09	4	ProbeTrack	1470	SCS215a	20090501.120958	20090501.122208	8	0.013327	60	10	60-180	60	71	GapExp	0	102	2	0	1	target	1	427	787	70558	13.328	13.293	13.363
ProbeTrack09	4	ProbeTrack	1470	SCS215a	20090501.120958	20090501.122214	8	0.013327	60	10	60-180	60	157	GapExp	0	103	2	96	0	distractor	1	520	740	71298	13.328	13.293	13.363
ProbeTrack09	4	ProbeTrack	1470	SCS215a	20090501.120958	20090501.122221	8	0.013327	60	10	60-180	60	118	GapExp	0	104	2	0	1	target	1	587	707	72005	13.327	13.293	13.363
ProbeTrack09	4	ProbeTrack	1470	SCS215a	20090501.120958	20090501.122228	8	0.013327	60	10	60-180	60	174	GapExp	0	105	2	6	1	target	1	733	634	72639	13.328	13.293	13.363
ProbeTrack09	4	ProbeTrack	1470	SCS215a	20090501.120958	20090501.122235	8	0.013327	60	10	60-180	60	74	GapExp	0	106	2	0	0	distractor	1	613	694	73333	13.328	13.293	13.363
ProbeTrack09	4	ProbeTrack	1470	SCS215a	20090501.120958	20090501.122240	8	0.013327	60	10	60-180	60	130	GapExp	0	107	2	0	1	target	1	480	760	74093	13.328	13.293	13.363
ProbeTrack09	4	ProbeTrack	1470	SCS215a	20090501.120958	20090501.122246	8	0.013327	60	10	60-180	60	158	GapExp	0	108	2	0	0	distractor	1	600	700	74793	13.328	13.293	13.363
ProbeTrack09	4	ProbeTrack	1470	SCS215a	20090501.120958	20090501.122253	8	0.013327	60	10	60-180	60	114	GapExp	0	109	2	0	1	target	1	534	733	75526	13.328	13.293	13.363
ProbeTrack09	4	ProbeTrack	1470	SCS215a	20090501.120958	20090501.122259	8	0.013327	60	10	60-180	60	89	GapExp	0	110	2	0	0	distractor	1	467	767	76293	13.327	13.293	13.363
ProbeTrack09	4	ProbeTrack	1470	SCS215a	20090501.120958	20090501.122319	8	0.013327	60	10	60-180	60	64	GapExp	0	111	2	3	1	target	1	653	674	76967	13.328	13.292	13.363
ProbeTrack09	4	ProbeTrack	1470	SCS215a	20090501.120958	20090501.122325	8	0.013327	60	10	60-180	60	135	GapExp	0	112	2	6	1	target	1	560	720	77687	13.328	13.293	13.363
ProbeTrack09	4	ProbeTrack	1470	SCS215a	20090501.120958	20090501.122332	8	0.013327	60	10	60-180	60	69	GapExp	0	113	2	0	0	target	0	507	-1000	76687	13.328	13.293	13.363
ProbeTrack09	4	ProbeTrack	1470	SCS215a	20090501.120958	20090501.122337	8	0.013327	60	10	60-180	60	140	GapExp	0	114	2	0	0	distractor	1	507	747	77434	13.328	13.289	13.363
ProbeTrack09	4	ProbeTrack	1470	SCS215a	20090501.120958	20090501.122344	8	0.013327	60	10	60-180	60	88	GapExp	0	115	2	6	1	target	1	507	747	78181	13.328	13.292	13.363
ProbeTrack09	4	ProbeTrack	1470	SCS215a	20090501.120958	20090501.122349	8	0.013327	60	10	60-180	60	76	GapExp	0	116	2	3	0	distractor	1	480	760	78941	13.327	13.292	13.363
ProbeTrack09	4	ProbeTrack	1470	SCS215a	20090501.120958	20090501.122355	8	0.013327	60	10	60-180	60	114	GapExp	0	117	2	0	1	target	1	454	773	79714	13.327	13.293	13.363
ProbeTrack09	4	ProbeTrack	1470	SCS215a	20090501.120958	20090501.122401	8	0.013327	60	10	60-180	60	117	GapExp	0	118	2	0	1	distractor	0	454	-1000	78714	13.328	13.291	13.365
ProbeTrack09	4	ProbeTrack	1470	SCS215a	20090501.120958	20090501.122418	8	0.013327	60	10	60-180	60	86	GapExp	0	119	2	0	0	target	0	667	-1000	77714	13.328	13.292	13.363
ProbeTrack09	4	ProbeTrack	1470	SCS215a	20090501.120958	20090501.122423	8	0.013327	60	10	60-180	60	99	GapExp	0	120	2	3	0	distractor	1	494	753	78467	13.328	13.293	13.363
ProbeTrack09	4	ProbeTrack	1470	SCS215a	20090501.120958	20090501.122429	8	0.013327	60	10	60-180	60	66	GapExp	0	121	2	96	1	target	1	507	747	79214	13.328	13.292	13.364
ProbeTrack09	4	ProbeTrack	1470	SCS215a	20090501.120958	20090501.122436	8	0.013327	60	10	60-180	60	115	GapExp	0	122	2	3	0	target	0	334	-1000	78214	13.328	13.292	13.363
ProbeTrack09	4	ProbeTrack	1470	SCS215a	20090501.120958	20090501.122441	8	0.013327	60	10	60-180	60	173	GapExp	0	123	2	3	1	target	1	534	733	78947	13.328	13.293	13.363
ProbeTrack09	4	ProbeTrack	1470	SCS215a	20090501.120958	20090501.122450	8	0.013327	60	10	60-180	60	117	GapExp	0	124	2	96	0	distractor	1	614	693	79640	13.328	13.256	13.365
ProbeTrack09	4	ProbeTrack	1470	SCS215a	20090501.120958	20090501.122457	8	0.013327	60	10	60-180	60	106	GapExp	0	125	2	96	0	distractor	1	733	634	80274	13.328	13.293	13.365
ProbeTrack09	4	ProbeTrack	1470	SCS215a	20090501.120958	20090501.122505	8	0.013327	60	10	60-180	60	143	GapExp	0	126	2	6	0	distractor	1	587	707	80981	13.328	13.288	13.368
ProbeTrack09	4	ProbeTrack	1470	SCS215a	20090501.120958	20090501.122511	8	0.013327	60	10	60-180	60	61	GapExp	0	127	2	0	1	target	1	720	640	81621	13.327	13.289	13.363
ProbeTrack09	4	ProbeTrack	1470	SCS215a	20090501.120958	20090501.122517	8	0.013327	60	10	60-180	60	131	GapExp	0	128	2	96	1	distractor	0	480	-1000	80621	13.328	13.293	13.363
ProbeTrack09	4	ProbeTrack	1470	SCS215a	20090501.120958	20090501.122524	8	0.013327	60	10	60-180	60	76	GapExp	0	129	2	96	1	target	1	587	707	81328	13.328	13.293	13.363
ProbeTrack09	4	ProbeTrack	1470	SCS215a	20090501.120958	20090501.122531	8	0.013327	60	10	60-180	60	162	GapExp	0	130	2	96	0	distractor	1	680	660	81988	13.328	13.293	13.366
ProbeTrack09	4	ProbeTrack	1470	SCS215a	20090501.120958	20090501.122539	8	0.013327	60	10	60-180	60	66	GapExp	0	131	2	6	0	distractor	1	14	993	82981	13.328	13.293	13.366
ProbeTrack09	4	ProbeTrack	1470	SCS215a	20090501.120958	20090501.122545	8	0.013327	60	10	60-180	60	178	GapExp	0	132	2	0	1	target	1	160	920	83901	13.328	13.293	13.367
ProbeTrack09	4	ProbeTrack	1470	SCS215a	20090501.120958	20090501.122553	8	0.013327	60	10	60-180	60	74	GapExp	0	133	2	6	0	target	0	294	-1000	82901	13.328	13.293	13.363
ProbeTrack09	4	ProbeTrack	1470	SCS215a	20090501.120958	20090501.122558	8	0.013327	60	10	60-180	60	136	GapExp	0	134	2	0	0	distractor	1	214	893	83794	13.328	13.293	13.363
ProbeTrack09	4	ProbeTrack	1470	SCS215a	20090501.120958	20090501.122604	8	0.013327	60	10	60-180	60	154	GapExp	0	135	2	3	0	target	0	174	-1000	82794	13.328	13.293	13.363
ProbeTrack09	4	ProbeTrack	1470	SCS215a	20090501.120958	20090501.122610	8	0.013327	60	10	60-180	60	115	GapExp	0	136	2	0	1	target	1	627	687	83481	13.328	13.293	13.363
ProbeTrack09	4	ProbeTrack	1470	SCS215a	20090501.120958	20090501.122617	8	0.013327	60	10	60-180	60	131	GapExp	0	137	2	96	0	distractor	1	627	687	84168	13.328	13.292	13.363
ProbeTrack09	4	ProbeTrack	1470	SCS215a	20090501.120958	20090501.122636	8	0.013327	60	10	60-180	60	178	GapExp	0	138	2	0	0	distractor	1	627	687	84855	13.328	13.293	13.363
ProbeTrack09	4	ProbeTrack	1470	SCS215a	20090501.120958	20090501.122645	8	0.013327	60	10	60-180	60	157	GapExp	0	139	2	6	1	target	1	494	753	85608	13.328	13.289	13.363
ProbeTrack09	4	ProbeTrack	1470	SCS215a	20090501.120958	20090501.122652	8	0.013327	60	10	60-180	60	155	GapExp	0	140	2	0	0	distractor	1	627	687	86295	13.328	13.293	13.363
ProbeTrack09	4	ProbeTrack	1470	SCS215a	20090501.120958	20090501.122659	8	0.013327	60	10	60-180	60	159	GapExp	0	141	2	0	0	distractor	1	467	767	87062	13.328	13.293	13.363
ProbeTrack09	4	ProbeTrack	1470	SCS215a	20090501.120958	20090501.122705	8	0.013327	60	10	60-180	60	160	GapExp	0	142	2	6	1	target	1	454	773	87835	13.328	13.289	13.363
ProbeTrack09	4	ProbeTrack	1470	SCS215a	20090501.120958	20090501.122712	8	0.013327	60	10	60-180	60	167	GapExp	0	143	2	6	0	distractor	1	454	773	88608	13.328	13.293	13.363
ProbeTrack09	4	ProbeTrack	1470	SCS215a	20090501.120958	20090501.122719	8	0.013327	60	10	60-180	60	73	GapExp	0	144	2	96	1	target	1	334	833	89441	13.328	13.293	13.363
ProbeTrack09	4	ProbeTrack	1470	SCS215a	20090501.120958	20090501.122725	8	0.013327	60	10	60-180	60	95	GapExp	0	145	2	3	0	distractor	1	440	780	90221	13.327	13.293	13.363
ProbeTrack09	4	ProbeTrack	1470	SCS215a	20090501.120958	20090501.122731	8	0.013327	60	10	60-180	60	149	GapExp	0	146	2	0	1	target	1	414	793	91014	13.328	13.293	13.363
ProbeTrack09	4	ProbeTrack	1470	SCS215a	20090501.120958	20090501.122737	8	0.013327	60	10	60-180	60	174	GapExp	0	147	2	6	1	target	1	773	614	91628	13.328	13.293	13.363
ProbeTrack09	4	ProbeTrack	1470	SCS215a	20090501.120958	20090501.122744	8	0.013327	60	10	60-180	60	107	GapExp	0	148	2	0	1	target	1	680	660	92288	13.328	13.293	13.363
ProbeTrack09	4	ProbeTrack	1470	SCS215a	20090501.120958	20090501.122750	8	0.013327	60	10	60-180	60	91	GapExp	0	149	2	3	1	target	1	534	733	93021	13.327	13.293	13.363
ProbeTrack09	4	ProbeTrack	1470	SCS215a	20090501.120958	20090501.122756	8	0.013327	60	10	60-180	60	101	GapExp	0	150	2	0	1	target	1	533	734	93755	13.328	13.293	13.363
ProbeTrack09	4	ProbeTrack	1470	SCS215a	20090501.120958	20090501.122801	8	0.013327	60	10	60-180	60	175	GapExp	0	151	2	6	0	distractor	1	480	760	94515	13.328	13.292	13.363
ProbeTrack09	4	ProbeTrack	1470	SCS215a	20090501.120958	20090501.122809	8	0.013327	60	10	60-180	60	158	GapExp	0	152	2	3	0	distractor	1	627	687	95202	13.328	13.293	13.363
ProbeTrack09	4	ProbeTrack	1470	SCS215a	20090501.120958	20090501.122816	8	0.013327	60	10	60-180	60	99	GapExp	0	153	2	6	0	distractor	1	440	780	95982	13.328	13.291	13.363
ProbeTrack09	4	ProbeTrack	1470	SCS215a	20090501.120958	20090501.122822	8	0.013327	60	10	60-180	60	104	GapExp	0	154	2	6	1	target	1	427	787	96769	13.328	13.293	13.363
ProbeTrack09	4	ProbeTrack	1470	SCS215a	20090501.120958	20090501.122828	8	0.013327	60	10	60-180	60	159	GapExp	0	155	2	0	1	target	1	480	760	97529	13.328	13.292	13.363
ProbeTrack09	4	ProbeTrack	1470	SCS215a	20090501.120958	20090501.122834	8	0.013327	60	10	60-180	60	157	GapExp	0	156	2	0	1	target	1	547	727	98256	13.328	13.293	13.363
ProbeTrack09	4	ProbeTrack	1470	SCS215a	20090501.120958	20090501.122841	8	0.013327	60	10	60-180	60	137	GapExp	0	157	2	96	1	target	1	507	747	99003	13.328	13.293	13.363
ProbeTrack09	4	ProbeTrack	1470	SCS215a	20090501.120958	20090501.122849	8	0.013327	60	10	60-180	60	150	GapExp	0	158	2	3	1	target	1	347	827	99830	13.328	13.293	13.363
ProbeTrack09	4	ProbeTrack	1470	SCS215a	20090501.120958	20090501.122855	8	0.013327	60	10	60-180	60	120	GapExp	0	159	2	0	1	target	1	667	667	100497	13.328	13.293	13.363
ProbeTrack09	4	ProbeTrack	1470	SCS215a	20090501.120958	20090501.122901	8	0.013327	60	10	60-180	60	154	GapExp	0	160	2	6	0	distractor	1	480	760	101257	13.328	13.293	13.363
ProbeTrack09	4	ProbeTrack	1470	SCS215a	20090501.120958	20090501.122915	8	0.013327	60	10	60-180	60	91	GapExp	0	161	2	6	1	target	1	440	780	102037	13.328	13.293	13.363
ProbeTrack09	4	ProbeTrack	1470	SCS215a	20090501.120958	20090501.122921	8	0.013327	60	10	60-180	60	145	GapExp	0	162	2	3	1	target	1	374	813	102850	13.328	13.292	13.363
ProbeTrack09	4	ProbeTrack	1470	SCS215a	20090501.120958	20090501.122927	8	0.013327	60	10	60-180	60	148	GapExp	0	163	2	96	0	target	0	440	-1000	101850	13.328	13.293	13.367
ProbeTrack09	4	ProbeTrack	1470	SCS215a	20090501.120958	20090501.122935	8	0.013327	60	10	60-180	60	146	GapExp	0	164	2	6	1	target	1	534	733	102583	13.328	13.293	13.363
ProbeTrack09	4	ProbeTrack	1470	SCS215a	20090501.120958	20090501.122942	8	0.013327	60	10	60-180	60	147	GapExp	0	165	2	6	1	target	1	520	740	103323	13.328	13.293	13.363
ProbeTrack09	4	ProbeTrack	1470	SCS215a	20090501.120958	20090501.122949	8	0.013327	60	10	60-180	60	179	GapExp	0	166	2	96	1	target	1	440	780	104103	13.328	13.293	13.363
ProbeTrack09	4	ProbeTrack	1470	SCS215a	20090501.120958	20090501.122957	8	0.013327	60	10	60-180	60	121	GapExp	0	167	2	3	1	target	1	280	860	104963	13.328	13.293	13.363
ProbeTrack09	4	ProbeTrack	1470	SCS215a	20090501.120958	20090501.123003	8	0.013327	60	10	60-180	60	135	GapExp	0	168	2	0	0	distractor	1	827	587	105550	13.328	13.291	13.363
ProbeTrack09	4	ProbeTrack	1470	SCS215a	20090501.120958	20090501.123010	8	0.013327	60	10	60-180	60	87	GapExp	0	169	2	96	1	target	1	307	847	106397	13.328	13.293	13.365
ProbeTrack09	4	ProbeTrack	1470	SCS215a	20090501.120958	20090501.123016	8	0.013327	60	10	60-180	60	127	GapExp	0	170	2	96	1	target	1	534	733	107130	13.328	13.292	13.367
ProbeTrack09	4	ProbeTrack	1470	SCS215a	20090501.120958	20090501.123024	8	0.013327	60	10	60-180	60	70	GapExp	0	171	2	3	1	target	1	427	787	107917	13.327	13.293	13.362
ProbeTrack09	4	ProbeTrack	1470	SCS215a	20090501.120958	20090501.123029	8	0.013327	60	10	60-180	60	97	GapExp	0	172	2	96	1	distractor	0	454	-1000	106917	13.328	13.292	13.363
ProbeTrack09	4	ProbeTrack	1470	SCS215a	20090501.120958	20090501.123036	8	0.013327	60	10	60-180	60	157	GapExp	0	173	2	3	1	target	1	347	827	107744	13.328	13.293	13.363
ProbeTrack09	4	ProbeTrack	1470	SCS215a	20090501.120958	20090501.123043	8	0.013327	60	10	60-180	60	166	GapExp	0	174	2	6	0	distractor	1	467	767	108511	13.328	13.293	13.363
ProbeTrack09	4	ProbeTrack	1470	SCS215a	20090501.120958	20090501.123050	8	0.013327	60	10	60-180	60	122	GapExp	0	175	2	6	1	target	1	454	773	109284	13.327	13.293	13.363
ProbeTrack09	4	ProbeTrack	1470	SCS215a	20090501.120958	20090501.123056	8	0.013327	60	10	60-180	60	86	GapExp	0	176	2	0	0	distractor	1	467	767	110051	13.328	13.293	13.363
ProbeTrack09	4	ProbeTrack	1470	SCS215a	20090501.120958	20090501.123102	8	0.013327	60	10	60-180	60	76	GapExp	0	177	2	6	0	target	0	360	-1000	109051	13.328	13.293	13.363
ProbeTrack09	4	ProbeTrack	1470	SCS215a	20090501.120958	20090501.123107	8	0.013327	60	10	60-180	60	127	GapExp	0	178	2	6	1	target	1	613	694	109745	13.328	13.293	13.366
ProbeTrack09	4	ProbeTrack	1470	SCS215a	20090501.120958	20090501.123113	8	0.013327	60	10	60-180	60	177	GapExp	0	179	2	96	0	distractor	1	520	740	110485	13.328	13.291	13.365
ProbeTrack09	4	ProbeTrack	1470	SCS215a	20090501.120958	20090501.123122	8	0.013327	60	10	60-180	60	79	GapExp	0	180	2	3	1	target	1	414	793	111278	13.328	13.293	13.363
ProbeTrack09	4	ProbeTrack	1470	SCS215a	20090501.120958	20090501.123127	8	0.013327	60	10	60-180	60	144	GapExp	0	181	2	3	1	target	1	440	780	112058	13.328	13.293	13.363
ProbeTrack09	4	ProbeTrack	1470	SCS215a	20090501.120958	20090501.123134	8	0.013327	60	10	60-180	60	180	GapExp	0	182	2	6	0	distractor	1	560	720	112778	13.328	13.292	13.368
ProbeTrack09	4	ProbeTrack	1470	SCS215a	20090501.120958	20090501.123141	8	0.013327	60	10	60-180	60	98	GapExp	0	183	2	3	1	target	1	733	634	113412	13.328	13.293	13.364
ProbeTrack09	4	ProbeTrack	1470	SCS215a	20090501.120958	20090501.123147	8	0.013327	60	10	60-180	60	173	GapExp	0	184	2	96	0	target	0	134	-1000	112412	13.328	13.292	13.363
ProbeTrack09	4	ProbeTrack	1470	SCS215a	20090501.120958	20090501.123155	8	0.013327	60	10	60-180	60	149	GapExp	0	185	2	6	0	distractor	1	254	873	113285	13.328	13.293	13.363
ProbeTrack09	4	ProbeTrack	1470	SCS215a	20090501.120958	20090501.123201	8	0.013327	60	10	60-180	60	123	GapExp	0	186	2	0	0	distractor	1	480	760	114045	13.328	13.289	13.367
ProbeTrack09	4	ProbeTrack	1470	SCS215a	20090501.120958	20090501.123207	8	0.013327	60	10	60-180	60	168	GapExp	0	187	2	96	1	target	1	547	727	114772	13.328	13.293	13.363
ProbeTrack09	4	ProbeTrack	1470	SCS215a	20090501.120958	20090501.123215	8	0.013327	60	10	60-180	60	161	GapExp	0	188	2	96	1	target	1	600	700	115472	13.328	13.293	13.363
ProbeTrack09	4	ProbeTrack	1470	SCS215a	20090501.120958	20090501.123223	8	0.013327	60	10	60-180	60	84	GapExp	0	189	2	96	1	target	1	800	600	116072	13.328	13.293	13.363
ProbeTrack09	4	ProbeTrack	1470	SCS215a	20090501.120958	20090501.123231	8	0.013327	60	10	60-180	60	173	GapExp	0	190	2	3	0	distractor	1	547	727	116799	13.328	13.293	13.363
ProbeTrack09	4	ProbeTrack	1470	SCS215a	20090501.120958	20090501.123238	8	0.013327	60	10	60-180	60	100	GapExp	0	191	2	6	0	distractor	1	427	787	117586	13.328	13.293	13.365
ProbeTrack09	4	ProbeTrack	1470	SCS215a	20090501.120958	20090501.123244	8	0.013327	60	10	60-180	60	140	GapExp	0	192	2	96	1	target	1	627	687	118273	13.328	13.289	13.363
ProbeTrack09	4	ProbeTrack	1470	SCS215a	20090501.120958	20090501.123251	8	0.013327	60	10	60-180	60	116	GapExp	0	193	2	6	0	distractor	1	374	813	119086	13.328	13.293	13.363
ProbeTrack09	4	ProbeTrack	1470	SCS215a	20090501.120958	20090501.123257	8	0.013327	60	10	60-180	60	135	GapExp	0	194	2	96	0	distractor	1	693	654	119740	13.328	13.293	13.363
ProbeTrack09	4	ProbeTrack	1470	SCS215a	20090501.120958	20090501.123305	8	0.013327	60	10	60-180	60	117	GapExp	0	195	2	6	1	target	1	1466	267	120007	13.328	13.293	13.363
ProbeTrack09	4	ProbeTrack	1470	SCS215a	20090501.120958	20090501.123312	8	0.013327	60	10	60-180	60	172	GapExp	0	196	2	6	0	distractor	1	547	727	120734	13.328	13.292	13.365
ProbeTrack09	4	ProbeTrack	1470	SCS215a	20090501.120958	20090501.123320	8	0.013327	60	10	60-180	60	103	GapExp	0	197	2	6	0	distractor	1	467	767	121501	13.328	13.293	13.363
ProbeTrack09	4	ProbeTrack	1470	SCS215a	20090501.120958	20090501.123325	8	0.013327	60	10	60-180	60	74	GapExp	0	198	2	6	1	distractor	0	414	-1000	120501	13.328	13.292	13.363
ProbeTrack09	4	ProbeTrack	1470	SCS215a	20090501.120958	20090501.123331	8	0.013327	60	10	60-180	60	141	GapExp	0	199	2	3	1	target	1	534	733	121234	13.328	13.293	13.363
ProbeTrack09	4	ProbeTrack	1470	SCS215a	20090501.120958	20090501.123338	8	0.013327	60	10	60-180	60	176	GapExp	0	200	2	3	0	target	0	947	-1000	120234	13.328	13.293	13.363
