exp	sub	code	rev	comp	runtime	trialtime	nstim	refreshdur	cuedur	gapdur	gapOnsetRange	durPostProbe	gapOnsetTime	blocktype	prac	trial	ntargets	soa	probeTarget	resp	acc	rt	pts	tpts	meanFrameDur	minFrameDur	maxFrameDur
ProbeTrack09	1	ProbeTrack	1470	SCS215a	20090427.113145	20090427.113155	8	0.013327	60	0	60-180	60	113	NoGap	1	1	2	6	0	distractor	1	853	574	574	13.328	13.292	13.387
ProbeTrack09	1	ProbeTrack	1470	SCS215a	20090427.113145	20090427.113202	8	0.013327	60	0	60-180	60	173	NoGap	1	2	2	3	1	target	1	467	767	1341	13.328	13.293	13.363
ProbeTrack09	1	ProbeTrack	1470	SCS215a	20090427.113145	20090427.113210	8	0.013327	60	0	60-180	60	167	NoGap	1	3	2	96	1	target	1	587	707	2048	13.328	13.289	13.366
ProbeTrack09	1	ProbeTrack	1470	SCS215a	20090427.113145	20090427.113218	8	0.013327	60	0	60-180	60	155	NoGap	1	4	2	6	1	target	1	547	727	2775	13.328	13.292	13.363
ProbeTrack09	1	ProbeTrack	1470	SCS215a	20090427.113145	20090427.113225	8	0.013327	60	0	60-180	60	160	NoGap	1	5	2	0	0	distractor	1	600	700	3475	13.328	13.292	13.363
ProbeTrack09	1	ProbeTrack	1470	SCS215a	20090427.113145	20090427.113231	8	0.013327	60	0	60-180	60	66	NoGap	1	6	2	6	1	target	1	587	707	4182	13.327	13.293	13.363
ProbeTrack09	1	ProbeTrack	1470	SCS215a	20090427.113145	20090427.113236	8	0.013327	60	0	60-180	60	70	NoGap	1	7	2	0	1	target	1	467	767	4949	13.328	13.293	13.363
ProbeTrack09	1	ProbeTrack	1470	SCS215a	20090427.113145	20090427.113242	8	0.013327	60	0	60-180	60	114	NoGap	1	8	2	96	0	distractor	1	614	693	5642	13.328	13.293	13.363
ProbeTrack09	1	ProbeTrack	1470	SCS215a	20090427.113145	20090427.113249	8	0.013327	60	0	60-180	60	95	NoGap	1	9	2	3	0	distractor	1	573	714	6356	13.328	13.293	13.363
ProbeTrack09	1	ProbeTrack	1470	SCS215a	20090427.113145	20090427.113255	8	0.013327	60	0	60-180	60	68	NoGap	1	10	2	3	1	target	1	587	707	7063	13.328	13.293	13.363
ProbeTrack09	1	ProbeTrack	1470	SCS215a	20090427.113145	20090427.113301	8	0.013327	60	0	60-180	60	66	NoGap	1	11	2	6	0	distractor	1	653	674	7737	13.327	13.290	13.366
ProbeTrack09	1	ProbeTrack	1470	SCS215a	20090427.113145	20090427.113313	8	0.013327	60	0	60-180	60	171	NoGap	1	12	2	6	0	distractor	1	560	720	8457	13.328	13.293	13.363
ProbeTrack09	1	ProbeTrack	1470	SCS215a	20090427.113145	20090427.113321	8	0.013327	60	0	60-180	60	82	NoGap	1	13	2	3	0	distractor	1	667	667	9124	13.328	13.293	13.363
ProbeTrack09	1	ProbeTrack	1470	SCS215a	20090427.113145	20090427.113327	8	0.013327	60	0	60-180	60	141	NoGap	1	14	2	96	1	target	1	587	707	9831	13.328	13.263	13.392
ProbeTrack09	1	ProbeTrack	1470	SCS215a	20090427.113145	20090427.113335	8	0.013327	60	0	60-180	60	94	NoGap	1	15	2	6	1	target	1	680	660	10491	13.327	13.293	13.363
ProbeTrack09	1	ProbeTrack	1470	SCS215a	20090427.113145	20090427.113341	8	0.013327	60	0	60-180	60	108	NoGap	1	16	2	96	0	distractor	1	414	793	11284	13.328	13.293	13.363
ProbeTrack09	1	ProbeTrack	1470	SCS215a	20090427.113145	20090427.113348	8	0.013327	60	0	60-180	60	168	NoGap	1	17	2	0	1	target	1	600	700	11984	13.328	13.293	13.363
ProbeTrack09	1	ProbeTrack	1470	SCS215a	20090427.113145	20090427.113355	8	0.013327	60	0	60-180	60	117	NoGap	1	18	2	0	1	target	1	507	747	12731	13.327	13.293	13.363
ProbeTrack09	1	ProbeTrack	1470	SCS215a	20090427.113145	20090427.113401	8	0.013327	60	0	60-180	60	66	NoGap	1	19	2	96	0	distractor	1	574	713	13444	13.328	13.292	13.363
ProbeTrack09	1	ProbeTrack	1470	SCS215a	20090427.113145	20090427.113407	8	0.013327	60	0	60-180	60	138	NoGap	1	20	2	6	1	target	1	507	747	14191	13.328	13.293	13.363
ProbeTrack09	1	ProbeTrack	1470	SCS215a	20090427.113145	20090427.113413	8	0.013327	60	0	60-180	60	136	NoGap	1	21	2	6	0	distractor	1	507	747	14938	13.328	13.293	13.363
ProbeTrack09	1	ProbeTrack	1470	SCS215a	20090427.113145	20090427.113420	8	0.013327	60	0	60-180	60	130	NoGap	1	22	2	0	1	target	1	507	747	15685	13.328	13.293	13.363
ProbeTrack09	1	ProbeTrack	1470	SCS215a	20090427.113145	20090427.113426	8	0.013327	60	0	60-180	60	111	NoGap	1	23	2	0	0	distractor	1	627	687	16372	13.328	13.293	13.363
ProbeTrack09	1	ProbeTrack	1470	SCS215a	20090427.113145	20090427.113432	8	0.013327	60	0	60-180	60	96	NoGap	1	24	2	3	0	distractor	1	747	627	16999	13.328	13.293	13.363
ProbeTrack09	1	ProbeTrack	1470	SCS215a	20090427.113145	20090427.113438	8	0.013327	60	0	60-180	60	154	NoGap	1	25	2	3	1	target	1	627	687	17686	13.328	13.293	13.363
ProbeTrack09	1	ProbeTrack	1470	SCS215a	20090427.113145	20090427.113444	8	0.013327	60	0	60-180	60	146	NoGap	1	26	2	3	0	distractor	1	454	773	18459	13.328	13.293	13.363
ProbeTrack09	1	ProbeTrack	1470	SCS215a	20090427.113145	20090427.113451	8	0.013327	60	0	60-180	60	117	NoGap	1	27	2	6	1	target	1	494	753	19212	13.328	13.293	13.363
ProbeTrack09	1	ProbeTrack	1470	SCS215a	20090427.113145	20090427.113457	8	0.013327	60	0	60-180	60	171	NoGap	1	28	2	96	1	target	1	533	734	19946	13.328	13.290	13.363
ProbeTrack09	1	ProbeTrack	1470	SCS215a	20090427.113145	20090427.113505	8	0.013327	60	0	60-180	60	77	NoGap	1	29	2	3	0	distractor	1	573	714	20660	13.327	13.293	13.363
ProbeTrack09	1	ProbeTrack	1470	SCS215a	20090427.113145	20090427.113511	8	0.013327	60	0	60-180	60	122	NoGap	1	30	2	0	0	distractor	1	480	760	21420	13.328	13.293	13.362
ProbeTrack09	1	ProbeTrack	1470	SCS215a	20090427.113145	20090427.113517	8	0.013327	60	0	60-180	60	176	NoGap	1	31	2	3	0	distractor	1	723	639	22059	13.328	13.203	13.417
ProbeTrack09	1	ProbeTrack	1470	SCS215a	20090427.113145	20090427.113524	8	0.013327	60	0	60-180	60	87	NoGap	1	32	2	96	0	distractor	1	668	666	22725	13.328	13.293	13.363
ProbeTrack09	1	ProbeTrack	1470	SCS215a	20090427.113145	20090427.113531	8	0.013327	60	0	60-180	60	131	NoGap	1	33	2	6	1	target	1	627	687	23412	13.328	13.290	13.363
ProbeTrack09	1	ProbeTrack	1470	SCS215a	20090427.113145	20090427.113537	8	0.013327	60	0	60-180	60	97	NoGap	1	34	2	96	0	distractor	1	693	654	24066	13.328	13.293	13.363
ProbeTrack09	1	ProbeTrack	1470	SCS215a	20090427.113145	20090427.113544	8	0.013327	60	0	60-180	60	96	NoGap	1	35	2	0	0	distractor	1	547	727	24793	13.328	13.293	13.363
ProbeTrack09	1	ProbeTrack	1470	SCS215a	20090427.113145	20090427.113550	8	0.013327	60	0	60-180	60	139	NoGap	1	36	2	96	0	distractor	1	547	727	25520	13.328	13.289	13.363
ProbeTrack09	1	ProbeTrack	1470	SCS215a	20090427.113145	20090427.113739	8	0.013327	60	0	60-180	60	166	NoGap	1	37	2	0	1	186	-3	573	-1000	24520	13.328	13.292	13.364
ProbeTrack09	1	ProbeTrack	1470	SCS215a	20090427.113145	20090427.113745	8	0.013327	60	0	60-180	60	107	NoGap	1	38	2	3	1	target	1	560	720	25240	13.328	13.293	13.363
ProbeTrack09	1	ProbeTrack	1470	SCS215a	20090427.113145	20090427.113752	8	0.013327	60	0	60-180	60	118	NoGap	1	39	2	0	0	distractor	1	640	680	25920	13.328	13.293	13.368
ProbeTrack09	1	ProbeTrack	1470	SCS215a	20090427.113145	20090427.113758	8	0.013327	60	0	60-180	60	128	NoGap	1	40	2	96	1	target	1	494	753	26673	13.328	13.293	13.363
ProbeTrack09	1	ProbeTrack	1470	SCS215a	20090427.113145	20090427.113806	8	0.013327	60	0	60-180	60	179	NoGap	1	41	2	96	1	target	1	480	760	27433	13.328	13.293	13.363
ProbeTrack09	1	ProbeTrack	1470	SCS215a	20090427.113145	20090427.113814	8	0.013327	60	0	60-180	60	142	NoGap	1	42	2	6	1	target	1	547	727	28160	13.328	13.293	13.363
ProbeTrack09	1	ProbeTrack	1470	SCS215a	20090427.113145	20090427.113821	8	0.013327	60	0	60-180	60	150	NoGap	1	43	2	3	1	target	1	507	747	28907	13.328	13.293	13.364
ProbeTrack09	1	ProbeTrack	1470	SCS215a	20090427.113145	20090427.113827	8	0.013327	60	0	60-180	60	123	NoGap	1	44	2	96	1	target	1	427	787	29694	13.328	13.293	13.363
ProbeTrack09	1	ProbeTrack	1470	SCS215a	20090427.113145	20090427.113835	8	0.013327	60	0	60-180	60	67	NoGap	1	45	2	3	1	target	1	707	647	30341	13.328	13.293	13.363
ProbeTrack09	1	ProbeTrack	1470	SCS215a	20090427.113145	20090427.113840	8	0.013327	60	0	60-180	60	99	NoGap	1	46	2	6	0	distractor	1	627	687	31028	13.328	13.293	13.363
ProbeTrack09	1	ProbeTrack	1470	SCS215a	20090427.113145	20090427.113847	8	0.013327	60	0	60-180	60	67	NoGap	1	47	2	0	0	distractor	1	613	694	31722	13.328	13.292	13.363
ProbeTrack09	1	ProbeTrack	1470	SCS215a	20090427.113145	20090427.113852	8	0.013327	60	0	60-180	60	160	NoGap	1	48	2	0	1	target	1	440	780	32502	13.328	13.293	13.363
ProbeTrack09	1	ProbeTrack	1470	SCS215a	20090427.113145	20090427.113859	8	0.013327	60	0	60-180	60	95	NoGap	1	49	2	6	0	distractor	1	560	720	33222	13.328	13.293	13.363
ProbeTrack09	1	ProbeTrack	1470	SCS215a	20090427.113145	20090427.113905	8	0.013327	60	0	60-180	60	110	NoGap	1	50	2	3	1	target	1	507	747	33969	13.327	13.291	13.365
ProbeTrack09	1	ProbeTrack	1470	SCS215a	20090427.113942	20090427.113951	8	0.013327	60	10	60-180	60	99	GapPrac	1	1	2	6	1	target	1	640	680	34649	13.328	13.293	13.363
ProbeTrack09	1	ProbeTrack	1470	SCS215a	20090427.113942	20090427.113958	8	0.013327	60	10	60-180	60	158	GapPrac	1	2	2	3	0	distractor	1	560	720	35369	13.328	13.293	13.363
ProbeTrack09	1	ProbeTrack	1470	SCS215a	20090427.113942	20090427.114005	8	0.013327	60	10	60-180	60	86	GapPrac	1	3	2	0	0	distractor	1	693	654	36023	13.328	13.293	13.363
ProbeTrack09	1	ProbeTrack	1470	SCS215a	20090427.113942	20090427.114011	8	0.013327	60	10	60-180	60	145	GapPrac	1	4	2	0	1	target	1	600	700	36723	13.328	13.293	13.363
ProbeTrack09	1	ProbeTrack	1470	SCS215a	20090427.113942	20090427.114018	8	0.013327	60	10	60-180	60	73	GapPrac	1	5	2	6	0	distractor	1	587	707	37430	13.327	13.293	13.363
ProbeTrack09	1	ProbeTrack	1470	SCS215a	20090427.113942	20090427.114024	8	0.013327	60	10	60-180	60	113	GapPrac	1	6	2	3	0	distractor	1	547	727	38157	13.328	13.293	13.363
ProbeTrack09	1	ProbeTrack	1470	SCS215a	20090427.113942	20090427.114030	8	0.013327	60	10	60-180	60	62	GapPrac	1	7	2	6	1	target	1	507	747	38904	13.328	13.293	13.366
ProbeTrack09	1	ProbeTrack	1470	SCS215a	20090427.113942	20090427.114036	8	0.013327	60	10	60-180	60	175	GapPrac	1	8	2	0	0	target	0	680	-1000	37904	13.328	13.293	13.363
ProbeTrack09	1	ProbeTrack	1470	SCS215a	20090427.113942	20090427.114043	8	0.013327	60	10	60-180	60	119	GapPrac	1	9	2	0	1	target	1	653	674	38578	13.328	13.293	13.363
ProbeTrack09	1	ProbeTrack	1470	SCS215a	20090427.113942	20090427.114050	8	0.013327	60	10	60-180	60	129	GapPrac	1	10	2	3	0	distractor	1	480	760	39338	13.328	13.293	13.363
ProbeTrack09	1	ProbeTrack	1470	SCS215a	20090427.113942	20090427.114056	8	0.013327	60	10	60-180	60	146	GapPrac	1	11	2	6	0	target	0	534	-1000	38338	13.328	13.293	13.363
ProbeTrack09	1	ProbeTrack	1470	SCS215a	20090427.113942	20090427.114103	8	0.013327	60	10	60-180	60	148	GapPrac	1	12	2	96	0	distractor	1	667	667	39005	13.328	13.293	13.365
ProbeTrack09	1	ProbeTrack	1470	SCS215a	20090427.113942	20090427.114110	8	0.013327	60	10	60-180	60	93	GapPrac	1	13	2	3	1	target	1	640	680	39685	13.328	13.293	13.363
ProbeTrack09	1	ProbeTrack	1470	SCS215a	20090427.113942	20090427.114116	8	0.013327	60	10	60-180	60	140	GapPrac	1	14	2	6	1	target	1	640	680	40365	13.328	13.292	13.363
ProbeTrack09	1	ProbeTrack	1470	SCS215a	20090427.113942	20090427.114123	8	0.013327	60	10	60-180	60	71	GapPrac	1	15	2	96	0	distractor	1	467	767	41132	13.328	13.293	13.363
ProbeTrack09	1	ProbeTrack	1470	SCS215a	20090427.113942	20090427.114130	8	0.013327	60	10	60-180	60	124	GapPrac	1	16	2	3	1	target	1	454	773	41905	13.328	13.293	13.363
ProbeTrack09	1	ProbeTrack	1470	SCS215a	20090427.113942	20090427.114137	8	0.013327	60	10	60-180	60	64	GapPrac	1	17	2	0	1	target	1	733	634	42539	13.328	13.292	13.366
ProbeTrack09	1	ProbeTrack	1470	SCS215a	20090427.113942	20090427.114142	8	0.013327	60	10	60-180	60	158	GapPrac	1	18	2	96	1	target	1	467	767	43306	13.328	13.293	13.363
ProbeTrack09	1	ProbeTrack	1470	SCS215a	20090427.113942	20090427.114150	8	0.013327	60	10	60-180	60	141	GapPrac	1	19	2	96	1	target	1	574	713	44019	13.328	13.293	13.363
ProbeTrack09	1	ProbeTrack	1470	SCS215a	20090427.113942	20090427.114158	8	0.013327	60	10	60-180	60	78	GapPrac	1	20	2	0	0	distractor	1	707	647	44666	13.328	13.293	13.363
ProbeTrack09	1	ProbeTrack	1470	SCS215a	20090427.114246	20090427.114254	8	0.013327	60	10	60-180	60	178	GapExp	1	1	2	96	0	distractor	1	773	614	45280	13.328	13.292	13.363
ProbeTrack09	1	ProbeTrack	1470	SCS215a	20090427.114246	20090427.114303	8	0.013327	60	10	60-180	60	151	GapExp	1	2	2	0	1	target	1	613	694	45974	13.328	13.293	13.363
ProbeTrack09	1	ProbeTrack	1470	SCS215a	20090427.114246	20090427.114311	8	0.013327	60	10	60-180	60	141	GapExp	1	3	2	3	0	distractor	1	840	580	46554	13.328	13.292	13.363
ProbeTrack09	1	ProbeTrack	1470	SCS215a	20090427.114246	20090427.114318	8	0.013327	60	10	60-180	60	76	GapExp	1	4	2	6	1	target	1	733	634	47188	13.328	13.293	13.363
ProbeTrack09	1	ProbeTrack	1470	SCS215a	20090427.114246	20090427.114324	8	0.013327	60	10	60-180	60	169	GapExp	1	5	2	3	1	target	1	533	734	47922	13.328	13.293	13.366
ProbeTrack09	1	ProbeTrack	1470	SCS215a	20090427.114246	20090427.114331	8	0.013327	60	10	60-180	60	98	GapExp	1	6	2	6	0	distractor	1	720	640	48562	13.328	13.293	13.363
ProbeTrack09	1	ProbeTrack	1470	SCS215a	20090427.114246	20090427.114338	8	0.013327	60	10	60-180	60	133	GapExp	1	7	2	96	1	target	1	534	733	49295	13.328	13.293	13.363
ProbeTrack09	1	ProbeTrack	1470	SCS215a	20090427.114246	20090427.114346	8	0.013327	60	10	60-180	60	97	GapExp	1	8	2	0	0	distractor	1	747	627	49922	13.328	13.293	13.363
ProbeTrack09	1	ProbeTrack	1470	SCS215a	20090427.114246	20090427.114352	8	0.013327	60	10	60-180	60	166	GapExp	0	9	2	0	0	distractor	1	494	753	50675	13.328	13.293	13.363
ProbeTrack09	1	ProbeTrack	1470	SCS215a	20090427.114246	20090427.114359	8	0.013327	60	10	60-180	60	175	GapExp	0	10	2	96	1	target	1	534	733	51408	13.328	13.291	13.366
ProbeTrack09	1	ProbeTrack	1470	SCS215a	20090427.114246	20090427.114407	8	0.013327	60	10	60-180	60	64	GapExp	0	11	2	96	1	target	1	600	700	52108	13.328	13.293	13.363
ProbeTrack09	1	ProbeTrack	1470	SCS215a	20090427.114246	20090427.114414	8	0.013327	60	10	60-180	60	87	GapExp	0	12	2	6	1	target	1	560	720	52828	13.328	13.293	13.363
ProbeTrack09	1	ProbeTrack	1470	SCS215a	20090427.114246	20090427.114420	8	0.013327	60	10	60-180	60	109	GapExp	0	13	2	0	1	target	1	494	753	53581	13.327	13.293	13.363
ProbeTrack09	1	ProbeTrack	1470	SCS215a	20090427.114246	20090427.114426	8	0.013327	60	10	60-180	60	176	GapExp	0	14	2	0	1	target	1	760	620	54201	13.328	13.292	13.364
ProbeTrack09	1	ProbeTrack	1470	SCS215a	20090427.114246	20090427.114433	8	0.013327	60	10	60-180	60	126	GapExp	0	15	2	6	0	distractor	1	613	694	54895	13.328	13.292	13.363
ProbeTrack09	1	ProbeTrack	1470	SCS215a	20090427.114246	20090427.114439	8	0.013327	60	10	60-180	60	103	GapExp	0	16	2	0	0	distractor	1	733	634	55529	13.328	13.287	13.368
ProbeTrack09	1	ProbeTrack	1470	SCS215a	20090427.114246	20090427.114446	8	0.013327	60	10	60-180	60	148	GapExp	0	17	2	6	0	distractor	1	467	767	56296	13.328	13.289	13.363
ProbeTrack09	1	ProbeTrack	1470	SCS215a	20090427.114246	20090427.114452	8	0.013327	60	10	60-180	60	72	GapExp	0	18	2	6	1	target	1	600	700	56996	13.328	13.293	13.363
ProbeTrack09	1	ProbeTrack	1470	SCS215a	20090427.114246	20090427.114458	8	0.013327	60	10	60-180	60	66	GapExp	0	19	2	96	0	distractor	1	520	740	57736	13.328	13.292	13.363
ProbeTrack09	1	ProbeTrack	1470	SCS215a	20090427.114246	20090427.114505	8	0.013327	60	10	60-180	60	110	GapExp	0	20	2	96	0	distractor	1	533	734	58470	13.328	13.293	13.363
ProbeTrack09	1	ProbeTrack	1470	SCS215a	20090427.114246	20090427.114512	8	0.013327	60	10	60-180	60	70	GapExp	0	21	2	0	0	distractor	1	574	713	59183	13.327	13.293	13.363
ProbeTrack09	1	ProbeTrack	1470	SCS215a	20090427.114246	20090427.114518	8	0.013327	60	10	60-180	60	177	GapExp	0	22	2	6	1	target	1	547	727	59910	13.328	13.293	13.363
ProbeTrack09	1	ProbeTrack	1470	SCS215a	20090427.114246	20090427.114526	8	0.013327	60	10	60-180	60	180	GapExp	0	23	2	6	1	target	1	560	720	60630	13.328	13.292	13.374
ProbeTrack09	1	ProbeTrack	1470	SCS215a	20090427.114246	20090427.114533	8	0.013327	60	10	60-180	60	111	GapExp	0	24	2	96	1	target	1	627	687	61317	13.328	13.292	13.363
ProbeTrack09	1	ProbeTrack	1470	SCS215a	20090427.114246	20090427.114541	8	0.013327	60	10	60-180	60	167	GapExp	0	25	2	3	1	target	1	494	753	62070	13.328	13.293	13.363
ProbeTrack09	1	ProbeTrack	1470	SCS215a	20090427.114246	20090427.114548	8	0.013327	60	10	60-180	60	172	GapExp	0	26	2	3	1	target	1	454	773	62843	13.328	13.293	13.363
ProbeTrack09	1	ProbeTrack	1470	SCS215a	20090427.114246	20090427.114554	8	0.013327	60	10	60-180	60	121	GapExp	0	27	2	6	0	distractor	1	627	687	63530	13.328	13.293	13.363
ProbeTrack09	1	ProbeTrack	1470	SCS215a	20090427.114246	20090427.114601	8	0.013327	60	10	60-180	60	97	GapExp	0	28	2	6	1	target	1	520	740	64270	13.328	13.292	13.363
ProbeTrack09	1	ProbeTrack	1470	SCS215a	20090427.114246	20090427.114607	8	0.013327	60	10	60-180	60	75	GapExp	0	29	2	0	0	target	0	534	-1000	63270	13.327	13.291	13.363
ProbeTrack09	1	ProbeTrack	1470	SCS215a	20090427.114246	20090427.114613	8	0.013327	60	10	60-180	60	120	GapExp	0	30	2	0	1	distractor	0	840	-1000	62270	13.328	13.286	13.363
ProbeTrack09	1	ProbeTrack	1470	SCS215a	20090427.114246	20090427.114619	8	0.013327	60	10	60-180	60	178	GapExp	0	31	2	0	0	target	0	613	-1000	61270	13.328	13.290	13.366
ProbeTrack09	1	ProbeTrack	1470	SCS215a	20090427.114246	20090427.114626	8	0.013327	60	10	60-180	60	142	GapExp	0	32	2	3	0	distractor	1	720	640	61910	13.328	13.293	13.363
ProbeTrack09	1	ProbeTrack	1470	SCS215a	20090427.114246	20090427.114633	8	0.013327	60	10	60-180	60	179	GapExp	0	33	2	96	1	target	1	560	720	62630	13.328	13.291	13.363
ProbeTrack09	1	ProbeTrack	1470	SCS215a	20090427.114246	20090427.114641	8	0.013327	60	10	60-180	60	128	GapExp	0	34	2	96	1	target	1	533	734	63364	13.328	13.293	13.363
ProbeTrack09	1	ProbeTrack	1470	SCS215a	20090427.114246	20090427.114648	8	0.013327	60	10	60-180	60	63	GapExp	0	35	2	3	1	target	1	640	680	64044	13.327	13.293	13.362
ProbeTrack09	1	ProbeTrack	1470	SCS215a	20090427.114246	20090427.114654	8	0.013327	60	10	60-180	60	132	GapExp	0	36	2	3	0	distractor	1	627	687	64731	13.328	13.293	13.363
ProbeTrack09	1	ProbeTrack	1470	SCS215a	20090427.114246	20090427.114700	8	0.013327	60	10	60-180	60	122	GapExp	0	37	2	3	1	target	1	720	640	65371	13.328	13.293	13.363
ProbeTrack09	1	ProbeTrack	1470	SCS215a	20090427.114246	20090427.114707	8	0.013327	60	10	60-180	60	177	GapExp	0	38	2	3	1	target	1	534	733	66104	13.328	13.289	13.367
ProbeTrack09	1	ProbeTrack	1470	SCS215a	20090427.114246	20090427.114714	8	0.013327	60	10	60-180	60	67	GapExp	0	39	2	6	1	target	1	733	634	66738	13.328	13.289	13.363
ProbeTrack09	1	ProbeTrack	1470	SCS215a	20090427.114246	20090427.114719	8	0.013327	60	10	60-180	60	180	GapExp	0	40	2	3	0	distractor	1	853	574	67312	13.328	13.293	13.363
ProbeTrack09	1	ProbeTrack	1470	SCS215a	20090427.114246	20090427.114729	8	0.013327	60	10	60-180	60	105	GapExp	0	41	2	96	0	distractor	1	414	793	68105	13.328	13.293	13.363
ProbeTrack09	1	ProbeTrack	1470	SCS215a	20090427.114246	20090427.114737	8	0.013327	60	10	60-180	60	79	GapExp	0	42	2	6	0	distractor	1	680	660	68765	13.328	13.293	13.363
ProbeTrack09	1	ProbeTrack	1470	SCS215a	20090427.114246	20090427.114743	8	0.013327	60	10	60-180	60	128	GapExp	0	43	2	6	0	distractor	1	680	660	69425	13.328	13.293	13.363
ProbeTrack09	1	ProbeTrack	1470	SCS215a	20090427.114246	20090427.114749	8	0.013327	60	10	60-180	60	80	GapExp	0	44	2	96	1	target	1	747	627	70052	13.328	13.293	13.363
ProbeTrack09	1	ProbeTrack	1470	SCS215a	20090427.114246	20090427.114757	8	0.013327	60	10	60-180	60	100	GapExp	0	45	2	6	1	target	1	573	714	70766	13.328	13.293	13.363
ProbeTrack09	1	ProbeTrack	1470	SCS215a	20090427.114246	20090427.114803	8	0.013327	60	10	60-180	60	88	GapExp	0	46	2	3	0	distractor	1	534	733	71499	13.328	13.292	13.363
ProbeTrack09	1	ProbeTrack	1470	SCS215a	20090427.114246	20090427.114809	8	0.013327	60	10	60-180	60	94	GapExp	0	47	2	0	1	target	1	520	740	72239	13.328	13.293	13.365
ProbeTrack09	1	ProbeTrack	1470	SCS215a	20090427.114246	20090427.114815	8	0.013327	60	10	60-180	60	141	GapExp	0	48	2	3	0	distractor	1	560	720	72959	13.328	13.292	13.363
ProbeTrack09	1	ProbeTrack	1470	SCS215a	20090427.114246	20090427.114821	8	0.013327	60	10	60-180	60	118	GapExp	0	49	2	3	1	target	1	3426	0	72959	13.328	13.293	13.363
ProbeTrack09	1	ProbeTrack	1470	SCS215a	20090427.114246	20090427.114830	8	0.013327	60	10	60-180	60	149	GapExp	0	50	2	0	1	target	1	1240	380	73339	13.328	13.293	13.363
ProbeTrack09	1	ProbeTrack	1470	SCS215a	20090427.114246	20090427.114838	8	0.013327	60	10	60-180	60	127	GapExp	0	51	2	0	1	target	1	507	747	74086	13.328	13.293	13.363
ProbeTrack09	1	ProbeTrack	1470	SCS215a	20090427.114246	20090427.114908	8	0.013327	60	10	60-180	60	96	GapExp	0	52	2	0	0	distractor	1	667	667	74753	13.328	13.293	13.363
ProbeTrack09	1	ProbeTrack	1470	SCS215a	20090427.114246	20090427.114915	8	0.013327	60	10	60-180	60	78	GapExp	0	53	2	3	0	distractor	1	574	713	75466	13.327	13.292	13.363
ProbeTrack09	1	ProbeTrack	1470	SCS215a	20090427.114246	20090427.114921	8	0.013327	60	10	60-180	60	134	GapExp	0	54	2	96	0	distractor	1	454	773	76239	13.328	13.293	13.362
ProbeTrack09	1	ProbeTrack	1470	SCS215a	20090427.114246	20090427.114929	8	0.013327	60	10	60-180	60	138	GapExp	0	55	2	96	0	distractor	1	600	700	76939	13.328	13.293	13.363
ProbeTrack09	1	ProbeTrack	1470	SCS215a	20090427.114246	20090427.114937	8	0.013327	60	10	60-180	60	149	GapExp	0	56	2	96	1	target	1	587	707	77646	13.328	13.293	13.363
ProbeTrack09	1	ProbeTrack	1470	SCS215a	20090427.114246	20090427.114945	8	0.013327	60	10	60-180	60	136	GapExp	0	57	2	6	0	distractor	1	560	720	78366	13.328	13.293	13.363
ProbeTrack09	1	ProbeTrack	1470	SCS215a	20090427.114246	20090427.114951	8	0.013327	60	10	60-180	60	148	GapExp	0	58	2	96	1	target	1	520	740	79106	13.328	13.293	13.363
ProbeTrack09	1	ProbeTrack	1470	SCS215a	20090427.114246	20090427.114959	8	0.013327	60	10	60-180	60	172	GapExp	0	59	2	3	1	target	1	480	760	79866	13.328	13.293	13.362
ProbeTrack09	1	ProbeTrack	1470	SCS215a	20090427.114246	20090427.115006	8	0.013327	60	10	60-180	60	76	GapExp	0	60	2	3	0	distractor	1	720	640	80506	13.328	13.293	13.363
ProbeTrack09	1	ProbeTrack	1470	SCS215a	20090427.114246	20090427.115012	8	0.013327	60	10	60-180	60	120	GapExp	0	61	2	96	1	target	1	480	760	81266	13.328	13.293	13.363
ProbeTrack09	1	ProbeTrack	1470	SCS215a	20090427.114246	20090427.115020	8	0.013327	60	10	60-180	60	108	GapExp	0	62	2	96	0	distractor	1	693	654	81920	13.328	13.293	13.363
ProbeTrack09	1	ProbeTrack	1470	SCS215a	20090427.114246	20090427.115027	8	0.013327	60	10	60-180	60	142	GapExp	0	63	2	96	0	distractor	1	653	674	82594	13.328	13.293	13.365
ProbeTrack09	1	ProbeTrack	1470	SCS215a	20090427.114246	20090427.115035	8	0.013327	60	10	60-180	60	133	GapExp	0	64	2	6	1	target	1	547	727	83321	13.328	13.275	13.363
ProbeTrack09	1	ProbeTrack	1470	SCS215a	20090427.114246	20090427.115041	8	0.013327	60	10	60-180	60	140	GapExp	0	65	2	6	0	distractor	1	547	727	84048	13.328	13.292	13.366
ProbeTrack09	1	ProbeTrack	1470	SCS215a	20090427.114246	20090427.115048	8	0.013327	60	10	60-180	60	113	GapExp	0	66	2	96	1	target	1	480	760	84808	13.328	13.293	13.363
ProbeTrack09	1	ProbeTrack	1470	SCS215a	20090427.114246	20090427.115055	8	0.013327	60	10	60-180	60	142	GapExp	0	67	2	96	0	distractor	1	494	753	85561	13.328	13.293	13.363
ProbeTrack09	1	ProbeTrack	1470	SCS215a	20090427.114246	20090427.115103	8	0.013327	60	10	60-180	60	143	GapExp	0	68	2	3	1	target	1	494	753	86314	13.328	13.293	13.364
ProbeTrack09	1	ProbeTrack	1470	SCS215a	20090427.114246	20090427.115110	8	0.013327	60	10	60-180	60	152	GapExp	0	69	2	0	1	target	1	454	773	87087	13.328	13.293	13.363
ProbeTrack09	1	ProbeTrack	1470	SCS215a	20090427.114246	20090427.115116	8	0.013327	60	10	60-180	60	165	GapExp	0	70	2	0	1	target	1	533	734	87821	13.328	13.293	13.363
ProbeTrack09	1	ProbeTrack	1470	SCS215a	20090427.114246	20090427.115123	8	0.013327	60	10	60-180	60	127	GapExp	0	71	2	96	0	distractor	1	560	720	88541	13.328	13.292	13.363
ProbeTrack09	1	ProbeTrack	1470	SCS215a	20090427.114246	20090427.115131	8	0.013327	60	10	60-180	60	133	GapExp	0	72	2	3	1	target	1	454	773	89314	13.328	13.292	13.363
ProbeTrack09	1	ProbeTrack	1470	SCS215a	20090427.114246	20090427.115137	8	0.013327	60	10	60-180	60	155	GapExp	0	73	2	0	1	target	1	427	787	90101	13.328	13.293	13.363
ProbeTrack09	1	ProbeTrack	1470	SCS215a	20090427.114246	20090427.115144	8	0.013327	60	10	60-180	60	173	GapExp	0	74	2	6	1	target	1	440	780	90881	13.328	13.293	13.363
ProbeTrack09	1	ProbeTrack	1470	SCS215a	20090427.114246	20090427.115151	8	0.013327	60	10	60-180	60	86	GapExp	0	75	2	6	0	target	0	494	-1000	89881	13.328	13.293	13.363
ProbeTrack09	1	ProbeTrack	1470	SCS215a	20090427.114246	20090427.115156	8	0.013327	60	10	60-180	60	74	GapExp	0	76	2	96	0	distractor	1	560	720	90601	13.328	13.293	13.363
ProbeTrack09	1	ProbeTrack	1470	SCS215a	20090427.114246	20090427.115203	8	0.013327	60	10	60-180	60	83	GapExp	0	77	2	0	1	target	1	560	720	91321	13.328	13.293	13.363
ProbeTrack09	1	ProbeTrack	1470	SCS215a	20090427.114246	20090427.115209	8	0.013327	60	10	60-180	60	70	GapExp	0	78	2	6	1	target	1	480	760	92081	13.328	13.293	13.363
ProbeTrack09	1	ProbeTrack	1470	SCS215a	20090427.114246	20090427.115215	8	0.013327	60	10	60-180	60	62	GapExp	0	79	2	3	1	target	1	560	720	92801	13.328	13.293	13.363
ProbeTrack09	1	ProbeTrack	1470	SCS215a	20090427.114246	20090427.115220	8	0.013327	60	10	60-180	60	136	GapExp	0	80	2	3	1	target	1	534	733	93534	13.328	13.288	13.366
ProbeTrack09	1	ProbeTrack	1470	SCS215a	20090427.114246	20090427.115227	8	0.013327	60	10	60-180	60	164	GapExp	0	81	2	96	0	distractor	1	707	647	94181	13.328	13.293	13.365
ProbeTrack09	1	ProbeTrack	1470	SCS215a	20090427.114246	20090427.115235	8	0.013327	60	10	60-180	60	116	GapExp	0	82	2	6	1	target	1	587	707	94888	13.328	13.292	13.363
ProbeTrack09	1	ProbeTrack	1470	SCS215a	20090427.114246	20090427.115241	8	0.013327	60	10	60-180	60	73	GapExp	0	83	2	6	1	target	1	467	767	95655	13.327	13.293	13.363
ProbeTrack09	1	ProbeTrack	1470	SCS215a	20090427.114246	20090427.115247	8	0.013327	60	10	60-180	60	118	GapExp	0	84	2	3	0	distractor	1	787	607	96262	13.328	13.243	13.410
ProbeTrack09	1	ProbeTrack	1470	SCS215a	20090427.114246	20090427.115253	8	0.013327	60	10	60-180	60	113	GapExp	0	85	2	0	0	distractor	1	560	720	96982	13.328	13.293	13.363
ProbeTrack09	1	ProbeTrack	1470	SCS215a	20090427.114246	20090427.115300	8	0.013327	60	10	60-180	60	76	GapExp	0	86	2	3	0	distractor	1	467	767	97749	13.328	13.293	13.363
ProbeTrack09	1	ProbeTrack	1470	SCS215a	20090427.114246	20090427.115305	8	0.013327	60	10	60-180	60	97	GapExp	0	87	2	6	1	distractor	0	507	-1000	96749	13.327	13.293	13.363
ProbeTrack09	1	ProbeTrack	1470	SCS215a	20090427.114246	20090427.115311	8	0.013327	60	10	60-180	60	61	GapExp	0	88	2	6	0	distractor	1	627	687	97436	13.328	13.164	13.491
ProbeTrack09	1	ProbeTrack	1470	SCS215a	20090427.114246	20090427.115317	8	0.013327	60	10	60-180	60	64	GapExp	0	89	2	3	1	target	1	680	660	98096	13.328	13.293	13.362
ProbeTrack09	1	ProbeTrack	1470	SCS215a	20090427.114246	20090427.115322	8	0.013327	60	10	60-180	60	162	GapExp	0	90	2	6	0	distractor	1	467	767	98863	13.328	13.293	13.363
ProbeTrack09	1	ProbeTrack	1470	SCS215a	20090427.114246	20090427.115329	8	0.013327	60	10	60-180	60	96	GapExp	0	91	2	0	1	distractor	0	667	-1000	97863	13.328	13.293	13.363
ProbeTrack09	1	ProbeTrack	1470	SCS215a	20090427.114246	20090427.115335	8	0.013327	60	10	60-180	60	85	GapExp	0	92	2	0	1	target	1	520	740	98603	13.327	13.292	13.363
ProbeTrack09	1	ProbeTrack	1470	SCS215a	20090427.114246	20090427.115341	8	0.013327	60	10	60-180	60	161	GapExp	0	93	2	6	0	distractor	1	480	760	99363	13.328	13.293	13.363
ProbeTrack09	1	ProbeTrack	1470	SCS215a	20090427.114246	20090427.115347	8	0.013327	60	10	60-180	60	72	GapExp	0	94	2	0	0	distractor	1	627	687	100050	13.327	13.293	13.363
ProbeTrack09	1	ProbeTrack	1470	SCS215a	20090427.114246	20090427.115353	8	0.013327	60	10	60-180	60	126	GapExp	0	95	2	96	0	distractor	1	560	720	100770	13.328	13.293	13.363
ProbeTrack09	1	ProbeTrack	1470	SCS215a	20090427.114246	20090427.115401	8	0.013327	60	10	60-180	60	180	GapExp	0	96	2	0	0	distractor	1	520	740	101510	13.328	13.292	13.363
ProbeTrack09	1	ProbeTrack	1470	SCS215a	20090427.114246	20090427.115408	8	0.013327	60	10	60-180	60	91	GapExp	0	97	2	0	1	target	1	534	733	102243	13.328	13.293	13.363
ProbeTrack09	1	ProbeTrack	1470	SCS215a	20090427.114246	20090427.115414	8	0.013327	60	10	60-180	60	62	GapExp	0	98	2	6	0	distractor	1	574	713	102956	13.327	13.293	13.364
ProbeTrack09	1	ProbeTrack	1470	SCS215a	20090427.114246	20090427.115420	8	0.013327	60	10	60-180	60	154	GapExp	0	99	2	96	1	distractor	0	680	-1000	101956	13.328	13.292	13.363
ProbeTrack09	1	ProbeTrack	1470	SCS215a	20090427.114246	20090427.115428	8	0.013327	60	10	60-180	60	90	GapExp	0	100	2	96	0	distractor	1	507	747	102703	13.328	13.290	13.363
ProbeTrack09	1	ProbeTrack	1470	SCS215a	20090427.114246	20090427.115435	8	0.013327	60	10	60-180	60	62	GapExp	0	101	2	96	0	distractor	1	480	760	103463	13.328	13.292	13.363
ProbeTrack09	1	ProbeTrack	1470	SCS215a	20090427.114246	20090427.115513	8	0.013327	60	10	60-180	60	62	GapExp	0	102	2	3	1	target	1	480	760	104223	13.328	13.293	13.363
ProbeTrack09	1	ProbeTrack	1470	SCS215a	20090427.114246	20090427.115518	8	0.013327	60	10	60-180	60	129	GapExp	0	103	2	96	0	distractor	1	480	760	104983	13.328	13.292	13.363
ProbeTrack09	1	ProbeTrack	1470	SCS215a	20090427.114246	20090427.115526	8	0.013327	60	10	60-180	60	100	GapExp	0	104	2	3	1	target	1	480	760	105743	13.328	13.293	13.363
ProbeTrack09	1	ProbeTrack	1470	SCS215a	20090427.114246	20090427.115532	8	0.013327	60	10	60-180	60	81	GapExp	0	105	2	0	0	distractor	1	573	714	106457	13.328	13.293	13.363
ProbeTrack09	1	ProbeTrack	1470	SCS215a	20090427.114246	20090427.115538	8	0.013327	60	10	60-180	60	104	GapExp	0	106	2	3	0	target	0	587	-1000	105457	13.328	13.293	13.363
ProbeTrack09	1	ProbeTrack	1470	SCS215a	20090427.114246	20090427.115544	8	0.013327	60	10	60-180	60	148	GapExp	0	107	2	0	1	target	1	560	720	106177	13.328	13.293	13.363
ProbeTrack09	1	ProbeTrack	1470	SCS215a	20090427.114246	20090427.115551	8	0.013327	60	10	60-180	60	169	GapExp	0	108	2	96	1	target	1	613	694	106871	13.328	13.293	13.364
ProbeTrack09	1	ProbeTrack	1470	SCS215a	20090427.114246	20090427.115600	8	0.013327	60	10	60-180	60	154	GapExp	0	109	2	6	0	target	0	614	-1000	105871	13.328	13.293	13.363
ProbeTrack09	1	ProbeTrack	1470	SCS215a	20090427.114246	20090427.115606	8	0.013327	60	10	60-180	60	91	GapExp	0	110	2	0	0	distractor	1	773	614	106485	13.328	13.293	13.363
ProbeTrack09	1	ProbeTrack	1470	SCS215a	20090427.114246	20090427.115613	8	0.013327	60	10	60-180	60	140	GapExp	0	111	2	6	1	target	1	520	740	107225	13.328	13.293	13.363
ProbeTrack09	1	ProbeTrack	1470	SCS215a	20090427.114246	20090427.115620	8	0.013327	60	10	60-180	60	126	GapExp	0	112	2	0	0	distractor	1	627	687	107912	13.328	13.292	13.364
ProbeTrack09	1	ProbeTrack	1470	SCS215a	20090427.114246	20090427.115626	8	0.013327	60	10	60-180	60	161	GapExp	0	113	2	96	0	distractor	1	547	727	108639	13.328	13.293	13.363
ProbeTrack09	1	ProbeTrack	1470	SCS215a	20090427.114246	20090427.115634	8	0.013327	60	10	60-180	60	111	GapExp	0	114	2	0	1	target	1	520	740	109379	13.328	13.293	13.363
ProbeTrack09	1	ProbeTrack	1470	SCS215a	20090427.114246	20090427.115640	8	0.013327	60	10	60-180	60	131	GapExp	0	115	2	6	1	target	1	467	767	110146	13.328	13.293	13.363
ProbeTrack09	1	ProbeTrack	1470	SCS215a	20090427.114246	20090427.115646	8	0.013327	60	10	60-180	60	77	GapExp	0	116	2	96	1	distractor	0	520	-1000	109146	13.328	13.293	13.363
ProbeTrack09	1	ProbeTrack	1470	SCS215a	20090427.114246	20090427.115653	8	0.013327	60	10	60-180	60	63	GapExp	0	117	2	3	0	distractor	1	560	720	109866	13.328	13.293	13.363
ProbeTrack09	1	ProbeTrack	1470	SCS215a	20090427.114246	20090427.115700	8	0.013327	60	10	60-180	60	145	GapExp	0	118	2	0	0	distractor	1	667	667	110533	13.328	13.293	13.363
ProbeTrack09	1	ProbeTrack	1470	SCS215a	20090427.114246	20090427.115707	8	0.013327	60	10	60-180	60	105	GapExp	0	119	2	3	1	target	1	720	640	111173	13.328	13.293	13.363
ProbeTrack09	1	ProbeTrack	1470	SCS215a	20090427.114246	20090427.115713	8	0.013327	60	10	60-180	60	146	GapExp	0	120	2	96	0	distractor	1	507	747	111920	13.328	13.287	13.369
ProbeTrack09	1	ProbeTrack	1470	SCS215a	20090427.114246	20090427.115721	8	0.013327	60	10	60-180	60	171	GapExp	0	121	2	96	1	distractor	0	693	-1000	110920	13.328	13.252	13.370
ProbeTrack09	1	ProbeTrack	1470	SCS215a	20090427.114246	20090427.115729	8	0.013327	60	10	60-180	60	134	GapExp	0	122	2	6	1	target	1	640	680	111600	13.328	13.288	13.366
ProbeTrack09	1	ProbeTrack	1470	SCS215a	20090427.114246	20090427.115736	8	0.013327	60	10	60-180	60	128	GapExp	0	123	2	3	1	target	1	534	733	112333	13.328	13.290	13.363
ProbeTrack09	1	ProbeTrack	1470	SCS215a	20090427.114246	20090427.115742	8	0.013327	60	10	60-180	60	161	GapExp	0	124	2	0	0	distractor	1	787	607	112940	13.328	13.293	13.363
ProbeTrack09	1	ProbeTrack	1470	SCS215a	20090427.114246	20090427.115749	8	0.013327	60	10	60-180	60	90	GapExp	0	125	2	96	1	target	1	507	747	113687	13.328	13.293	13.365
ProbeTrack09	1	ProbeTrack	1470	SCS215a	20090427.114246	20090427.115757	8	0.013327	60	10	60-180	60	99	GapExp	0	126	2	0	1	distractor	0	547	-1000	112687	13.328	13.293	13.363
ProbeTrack09	1	ProbeTrack	1470	SCS215a	20090427.114246	20090427.115802	8	0.013327	60	10	60-180	60	100	GapExp	0	127	2	6	0	distractor	1	587	707	113394	13.328	13.293	13.363
ProbeTrack09	1	ProbeTrack	1470	SCS215a	20090427.114246	20090427.115808	8	0.013327	60	10	60-180	60	159	GapExp	0	128	2	3	1	target	1	787	607	114001	13.328	13.293	13.363
ProbeTrack09	1	ProbeTrack	1470	SCS215a	20090427.114246	20090427.115815	8	0.013327	60	10	60-180	60	107	GapExp	0	129	2	0	1	target	1	627	687	114688	13.328	13.292	13.363
ProbeTrack09	1	ProbeTrack	1470	SCS215a	20090427.114246	20090427.115821	8	0.013327	60	10	60-180	60	173	GapExp	0	130	2	96	0	distractor	1	560	720	115408	13.328	13.293	13.363
ProbeTrack09	1	ProbeTrack	1470	SCS215a	20090427.114246	20090427.115829	8	0.013327	60	10	60-180	60	144	GapExp	0	131	2	3	1	target	1	534	733	116141	13.328	13.291	13.363
ProbeTrack09	1	ProbeTrack	1470	SCS215a	20090427.114246	20090427.115836	8	0.013327	60	10	60-180	60	148	GapExp	0	132	2	3	1	target	1	573	714	116855	13.328	13.293	13.363
ProbeTrack09	1	ProbeTrack	1470	SCS215a	20090427.114246	20090427.115842	8	0.013327	60	10	60-180	60	180	GapExp	0	133	2	96	1	target	1	613	694	117549	13.328	13.293	13.363
ProbeTrack09	1	ProbeTrack	1470	SCS215a	20090427.114246	20090427.115851	8	0.013327	60	10	60-180	60	128	GapExp	0	134	2	0	0	distractor	1	800	600	118149	13.328	13.292	13.363
ProbeTrack09	1	ProbeTrack	1470	SCS215a	20090427.114246	20090427.115857	8	0.013327	60	10	60-180	60	149	GapExp	0	135	2	96	1	distractor	0	853	-1000	117149	13.328	13.293	13.364
ProbeTrack09	1	ProbeTrack	1470	SCS215a	20090427.114246	20090427.115906	8	0.013327	60	10	60-180	60	157	GapExp	0	136	2	0	0	target	0	827	-1000	116149	13.328	13.291	13.363
ProbeTrack09	1	ProbeTrack	1470	SCS215a	20090427.114246	20090427.115913	8	0.013327	60	10	60-180	60	80	GapExp	0	137	2	96	0	distractor	1	494	753	116902	13.328	13.293	13.363
ProbeTrack09	1	ProbeTrack	1470	SCS215a	20090427.114246	20090427.115920	8	0.013327	60	10	60-180	60	119	GapExp	0	138	2	6	0	distractor	1	573	714	117616	13.328	13.293	13.363
ProbeTrack09	1	ProbeTrack	1470	SCS215a	20090427.114246	20090427.115927	8	0.013327	60	10	60-180	60	68	GapExp	0	139	2	96	0	distractor	1	494	753	118369	13.328	13.291	13.365
ProbeTrack09	1	ProbeTrack	1470	SCS215a	20090427.114246	20090427.115934	8	0.013327	60	10	60-180	60	98	GapExp	0	140	2	3	1	target	1	494	753	119122	13.328	13.293	13.363
ProbeTrack09	1	ProbeTrack	1470	SCS215a	20090427.114246	20090427.115940	8	0.013327	60	10	60-180	60	146	GapExp	0	141	2	3	0	distractor	1	787	607	119729	13.328	13.292	13.363
ProbeTrack09	1	ProbeTrack	1470	SCS215a	20090427.114246	20090427.115947	8	0.013327	60	10	60-180	60	92	GapExp	0	142	2	3	0	distractor	1	560	720	120449	13.328	13.293	13.363
ProbeTrack09	1	ProbeTrack	1470	SCS215a	20090427.114246	20090427.115953	8	0.013327	60	10	60-180	60	146	GapExp	0	143	2	96	1	target	1	440	780	121229	13.328	13.293	13.363
ProbeTrack09	1	ProbeTrack	1470	SCS215a	20090427.114246	20090427.120001	8	0.013327	60	10	60-180	60	78	GapExp	0	144	2	6	1	distractor	0	653	-1000	120229	13.328	13.292	13.363
ProbeTrack09	1	ProbeTrack	1470	SCS215a	20090427.114246	20090427.120007	8	0.013327	60	10	60-180	60	102	GapExp	0	145	2	0	0	distractor	1	853	574	120803	13.328	13.293	13.362
ProbeTrack09	1	ProbeTrack	1470	SCS215a	20090427.114246	20090427.120013	8	0.013327	60	10	60-180	60	67	GapExp	0	146	2	0	1	target	1	587	707	121510	13.328	13.293	13.363
ProbeTrack09	1	ProbeTrack	1470	SCS215a	20090427.114246	20090427.120018	8	0.013327	60	10	60-180	60	175	GapExp	0	147	2	6	1	target	1	480	760	122270	13.328	13.292	13.363
ProbeTrack09	1	ProbeTrack	1470	SCS215a	20090427.114246	20090427.120025	8	0.013327	60	10	60-180	60	103	GapExp	0	148	2	0	0	distractor	1	773	614	122884	13.328	13.293	13.363
ProbeTrack09	1	ProbeTrack	1470	SCS215a	20090427.114246	20090427.120031	8	0.013327	60	10	60-180	60	176	GapExp	0	149	2	3	0	target	0	640	-1000	121884	13.328	13.293	13.363
ProbeTrack09	1	ProbeTrack	1470	SCS215a	20090427.114246	20090427.120038	8	0.013327	60	10	60-180	60	86	GapExp	0	150	2	0	1	target	1	560	720	122604	13.328	13.293	13.363
ProbeTrack09	1	ProbeTrack	1470	SCS215a	20090427.114246	20090427.120044	8	0.013327	60	10	60-180	60	102	GapExp	0	151	2	96	1	target	1	534	733	123337	13.328	13.293	13.364
ProbeTrack09	1	ProbeTrack	1470	SCS215a	20090427.114246	20090427.120107	8	0.013327	60	10	60-180	60	125	GapExp	0	152	2	0	1	target	1	773	614	123951	13.328	13.293	13.363
ProbeTrack09	1	ProbeTrack	1470	SCS215a	20090427.114246	20090427.120115	8	0.013327	60	10	60-180	60	165	GapExp	0	153	2	6	1	target	1	694	653	124604	13.328	13.293	13.363
ProbeTrack09	1	ProbeTrack	1470	SCS215a	20090427.114246	20090427.120122	8	0.013327	60	10	60-180	60	82	GapExp	0	154	2	96	0	distractor	1	534	733	125337	13.328	13.293	13.363
ProbeTrack09	1	ProbeTrack	1470	SCS215a	20090427.114246	20090427.120129	8	0.013327	60	10	60-180	60	99	GapExp	0	155	2	0	0	distractor	1	747	627	125964	13.328	13.292	13.363
ProbeTrack09	1	ProbeTrack	1470	SCS215a	20090427.114246	20090427.120135	8	0.013327	60	10	60-180	60	177	GapExp	0	156	2	3	1	target	1	534	733	126697	13.328	13.292	13.363
ProbeTrack09	1	ProbeTrack	1470	SCS215a	20090427.114246	20090427.120141	8	0.013327	60	10	60-180	60	110	GapExp	0	157	2	6	0	distractor	1	693	654	127351	13.328	13.293	13.363
ProbeTrack09	1	ProbeTrack	1470	SCS215a	20090427.114246	20090427.120148	8	0.013327	60	10	60-180	60	161	GapExp	0	158	2	0	1	target	1	547	727	128078	13.328	13.293	13.363
ProbeTrack09	1	ProbeTrack	1470	SCS215a	20090427.114246	20090427.120155	8	0.013327	60	10	60-180	60	65	GapExp	0	159	2	6	1	target	1	507	747	128825	13.327	13.293	13.362
ProbeTrack09	1	ProbeTrack	1470	SCS215a	20090427.114246	20090427.120200	8	0.013327	60	10	60-180	60	132	GapExp	0	160	2	6	0	distractor	1	680	660	129485	13.328	13.292	13.363
ProbeTrack09	1	ProbeTrack	1470	SCS215a	20090427.114246	20090427.120207	8	0.013327	60	10	60-180	60	126	GapExp	0	161	2	6	1	target	1	427	787	130272	13.328	13.292	13.363
ProbeTrack09	1	ProbeTrack	1470	SCS215a	20090427.114246	20090427.120213	8	0.013327	60	10	60-180	60	159	GapExp	0	162	2	3	0	distractor	1	533	734	131006	13.328	13.293	13.363
ProbeTrack09	1	ProbeTrack	1470	SCS215a	20090427.114246	20090427.120220	8	0.013327	60	10	60-180	60	129	GapExp	0	163	2	6	0	distractor	1	560	720	131726	13.328	13.293	13.363
ProbeTrack09	1	ProbeTrack	1470	SCS215a	20090427.114246	20090427.120227	8	0.013327	60	10	60-180	60	111	GapExp	0	164	2	96	0	distractor	1	653	674	132400	13.328	13.293	13.363
ProbeTrack09	1	ProbeTrack	1470	SCS215a	20090427.114246	20090427.120234	8	0.013327	60	10	60-180	60	127	GapExp	0	165	2	6	1	distractor	0	454	-1000	131400	13.328	13.293	13.363
ProbeTrack09	1	ProbeTrack	1470	SCS215a	20090427.114246	20090427.120241	8	0.013327	60	10	60-180	60	167	GapExp	0	166	2	96	1	target	1	707	647	132047	13.328	13.293	13.363
ProbeTrack09	1	ProbeTrack	1470	SCS215a	20090427.114246	20090427.120249	8	0.013327	60	10	60-180	60	178	GapExp	0	167	2	3	0	distractor	1	520	740	132787	13.328	13.293	13.363
ProbeTrack09	1	ProbeTrack	1470	SCS215a	20090427.114246	20090427.120256	8	0.013327	60	10	60-180	60	87	GapExp	0	168	2	3	1	target	1	507	747	133534	13.328	13.293	13.364
ProbeTrack09	1	ProbeTrack	1470	SCS215a	20090427.114246	20090427.120302	8	0.013327	60	10	60-180	60	155	GapExp	0	169	2	96	0	distractor	1	640	680	134214	13.328	13.292	13.363
ProbeTrack09	1	ProbeTrack	1470	SCS215a	20090427.114246	20090427.120310	8	0.013327	60	10	60-180	60	121	GapExp	0	170	2	0	0	distractor	1	627	687	134901	13.328	13.293	13.363
ProbeTrack09	1	ProbeTrack	1470	SCS215a	20090427.114246	20090427.120316	8	0.013327	60	10	60-180	60	72	GapExp	0	171	2	3	0	distractor	1	547	727	135628	13.327	13.293	13.363
ProbeTrack09	1	ProbeTrack	1470	SCS215a	20090427.114246	20090427.120322	8	0.013327	60	10	60-180	60	167	GapExp	0	172	2	6	0	distractor	1	534	733	136361	13.328	13.293	13.363
ProbeTrack09	1	ProbeTrack	1470	SCS215a	20090427.114246	20090427.120329	8	0.013327	60	10	60-180	60	130	GapExp	0	173	2	3	0	distractor	1	587	707	137068	13.328	13.293	13.363
ProbeTrack09	1	ProbeTrack	1470	SCS215a	20090427.114246	20090427.120336	8	0.013327	60	10	60-180	60	132	GapExp	0	174	2	3	1	target	1	374	813	137881	13.328	13.293	13.363
ProbeTrack09	1	ProbeTrack	1470	SCS215a	20090427.114246	20090427.120342	8	0.013327	60	10	60-180	60	134	GapExp	0	175	2	6	0	target	0	560	-1000	136881	13.328	13.292	13.363
ProbeTrack09	1	ProbeTrack	1470	SCS215a	20090427.114246	20090427.120348	8	0.013327	60	10	60-180	60	116	GapExp	0	176	2	6	0	distractor	1	547	727	137608	13.328	13.293	13.363
ProbeTrack09	1	ProbeTrack	1470	SCS215a	20090427.114246	20090427.120355	8	0.013327	60	10	60-180	60	72	GapExp	0	177	2	96	1	target	1	560	720	138328	13.328	13.293	13.363
ProbeTrack09	1	ProbeTrack	1470	SCS215a	20090427.114246	20090427.120401	8	0.013327	60	10	60-180	60	81	GapExp	0	178	2	3	0	target	0	773	-1000	137328	13.328	13.292	13.363
ProbeTrack09	1	ProbeTrack	1470	SCS215a	20090427.114246	20090427.120407	8	0.013327	60	10	60-180	60	154	GapExp	0	179	2	0	0	distractor	1	707	647	137975	13.328	13.293	13.363
ProbeTrack09	1	ProbeTrack	1470	SCS215a	20090427.114246	20090427.120415	8	0.013327	60	10	60-180	60	79	GapExp	0	180	2	96	0	distractor	1	507	747	138722	13.328	13.293	13.363
ProbeTrack09	1	ProbeTrack	1470	SCS215a	20090427.114246	20090427.120421	8	0.013327	60	10	60-180	60	72	GapExp	0	181	2	96	1	target	1	533	734	139456	13.328	13.293	13.363
ProbeTrack09	1	ProbeTrack	1470	SCS215a	20090427.114246	20090427.120428	8	0.013327	60	10	60-180	60	179	GapExp	0	182	2	0	0	target	0	840	-1000	138456	13.328	13.293	13.363
ProbeTrack09	1	ProbeTrack	1470	SCS215a	20090427.114246	20090427.120436	8	0.013327	60	10	60-180	60	120	GapExp	0	183	2	6	0	distractor	1	547	727	139183	13.328	13.293	13.363
ProbeTrack09	1	ProbeTrack	1470	SCS215a	20090427.114246	20090427.120442	8	0.013327	60	10	60-180	60	67	GapExp	0	184	2	6	0	distractor	1	640	680	139863	13.327	13.293	13.363
ProbeTrack09	1	ProbeTrack	1470	SCS215a	20090427.114246	20090427.120448	8	0.013327	60	10	60-180	60	163	GapExp	0	185	2	96	1	target	1	547	727	140590	13.328	13.293	13.363
ProbeTrack09	1	ProbeTrack	1470	SCS215a	20090427.114246	20090427.120456	8	0.013327	60	10	60-180	60	119	GapExp	0	186	2	6	1	target	1	547	727	141317	13.328	13.293	13.363
ProbeTrack09	1	ProbeTrack	1470	SCS215a	20090427.114246	20090427.120502	8	0.013327	60	10	60-180	60	169	GapExp	0	187	2	0	1	target	1	534	733	142050	13.328	13.292	13.363
ProbeTrack09	1	ProbeTrack	1470	SCS215a	20090427.114246	20090427.120509	8	0.013327	60	10	60-180	60	74	GapExp	0	188	2	0	1	target	1	560	720	142770	13.327	13.293	13.364
ProbeTrack09	1	ProbeTrack	1470	SCS215a	20090427.114246	20090427.120514	8	0.013327	60	10	60-180	60	84	GapExp	0	189	2	3	0	distractor	1	614	693	143463	13.328	13.293	13.364
ProbeTrack09	1	ProbeTrack	1470	SCS215a	20090427.114246	20090427.120520	8	0.013327	60	10	60-180	60	66	GapExp	0	190	2	3	0	target	0	573	-1000	142463	13.328	13.293	13.363
ProbeTrack09	1	ProbeTrack	1470	SCS215a	20090427.114246	20090427.120526	8	0.013327	60	10	60-180	60	122	GapExp	0	191	2	0	0	distractor	1	627	687	143150	13.328	13.293	13.363
ProbeTrack09	1	ProbeTrack	1470	SCS215a	20090427.114246	20090427.120532	8	0.013327	60	10	60-180	60	159	GapExp	0	192	2	3	0	distractor	1	667	667	143817	13.328	13.293	13.363
ProbeTrack09	1	ProbeTrack	1470	SCS215a	20090427.114246	20090427.120539	8	0.013327	60	10	60-180	60	71	GapExp	0	193	2	0	1	target	1	547	727	144544	13.328	13.293	13.363
ProbeTrack09	1	ProbeTrack	1470	SCS215a	20090427.114246	20090427.120544	8	0.013327	60	10	60-180	60	155	GapExp	0	194	2	3	0	distractor	1	454	773	145317	13.328	13.293	13.363
ProbeTrack09	1	ProbeTrack	1470	SCS215a	20090427.114246	20090427.120551	8	0.013327	60	10	60-180	60	136	GapExp	0	195	2	0	0	distractor	1	653	674	145991	13.328	13.293	13.363
ProbeTrack09	1	ProbeTrack	1470	SCS215a	20090427.114246	20090427.120558	8	0.013327	60	10	60-180	60	152	GapExp	0	196	2	96	1	target	1	534	733	146724	13.328	13.293	13.363
ProbeTrack09	1	ProbeTrack	1470	SCS215a	20090427.114246	20090427.120606	8	0.013327	60	10	60-180	60	75	GapExp	0	197	2	3	1	target	1	427	787	147511	13.328	13.293	13.363
ProbeTrack09	1	ProbeTrack	1470	SCS215a	20090427.114246	20090427.120611	8	0.013327	60	10	60-180	60	63	GapExp	0	198	2	6	0	distractor	1	560	720	148231	13.328	13.291	13.363
ProbeTrack09	1	ProbeTrack	1470	SCS215a	20090427.114246	20090427.120617	8	0.013327	60	10	60-180	60	175	GapExp	0	199	2	6	1	target	1	653	674	148905	13.328	13.293	13.362
ProbeTrack09	1	ProbeTrack	1470	SCS215a	20090427.114246	20090427.120624	8	0.013327	60	10	60-180	60	180	GapExp	0	200	2	3	0	distractor	1	613	694	149599	13.328	13.293	13.363
