exp	sub	code	rev	comp	runtime	trialtime	nstim	refreshdur	cuedur	gapdur	gapOnsetRange	durPostProbe	gapOnsetTime	blocktype	prac	trial	ntargets	soa	probeTarget	resp	acc	rt	pts	tpts	meanFrameDur	minFrameDur	maxFrameDur
ProbeTrack09	10	ProbeTrack	1470	SCS215a	20090511.120134	20090511.120139	8	0.013327	60	0	60-180	60	123	NoGap	1	1	2	96	0	distractor	1	1053	474	474	13.328	13.289	13.367
ProbeTrack09	10	ProbeTrack	1470	SCS215a	20090511.120134	20090511.120223	8	0.013327	60	0	60-180	60	155	NoGap	1	2	2	3	1	distractor	0	387	-1000	-526	13.328	13.293	13.363
ProbeTrack09	10	ProbeTrack	1470	SCS215a	20090511.120134	20090511.120235	8	0.013327	60	0	60-180	60	154	NoGap	1	3	2	0	1	distractor	0	360	-1000	-1526	13.328	13.293	13.366
ProbeTrack09	10	ProbeTrack	1470	SCS215a	20090511.120134	20090511.120243	8	0.013327	60	0	60-180	60	95	NoGap	1	4	2	6	0	distractor	1	1280	360	-1166	13.328	13.293	13.363
ProbeTrack09	10	ProbeTrack	1470	SCS215a	20090511.120134	20090511.120251	8	0.013327	60	0	60-180	60	72	NoGap	1	5	2	3	1	target	1	733	634	-532	13.328	13.293	13.363
ProbeTrack09	10	ProbeTrack	1470	SCS215a	20090511.120134	20090511.120300	8	0.013327	60	0	60-180	60	94	NoGap	1	6	2	96	1	target	1	414	793	261	13.328	13.292	13.363
ProbeTrack09	10	ProbeTrack	1470	SCS215a	20090511.120134	20090511.120311	8	0.013327	60	0	60-180	60	134	NoGap	1	7	2	6	1	target	1	427	787	1048	13.328	13.293	13.363
ProbeTrack09	10	ProbeTrack	1470	SCS215a	20090511.120134	20090511.120320	8	0.013327	60	0	60-180	60	103	NoGap	1	8	2	6	1	target	1	347	827	1875	13.328	13.293	13.363
ProbeTrack09	10	ProbeTrack	1470	SCS215a	20090511.120134	20090511.120329	8	0.013327	60	0	60-180	60	160	NoGap	1	9	2	6	0	distractor	1	507	747	2622	13.328	13.293	13.363
ProbeTrack09	10	ProbeTrack	1470	SCS215a	20090511.120134	20090511.120338	8	0.013327	60	0	60-180	60	101	NoGap	1	10	2	0	0	distractor	1	534	733	3355	13.328	13.293	13.363
ProbeTrack09	10	ProbeTrack	1470	SCS215a	20090511.120134	20090511.120344	8	0.013327	60	0	60-180	60	88	NoGap	1	11	2	0	0	distractor	1	507	747	4102	13.328	13.293	13.363
ProbeTrack09	10	ProbeTrack	1470	SCS215a	20090511.120134	20090511.120350	8	0.013327	60	0	60-180	60	150	NoGap	1	12	2	6	1	target	1	334	833	4935	13.328	13.292	13.363
ProbeTrack09	10	ProbeTrack	1470	SCS215a	20090511.120134	20090511.120357	8	0.013327	60	0	60-180	60	108	NoGap	1	13	2	3	1	target	1	400	800	5735	13.328	13.292	13.363
ProbeTrack09	10	ProbeTrack	1470	SCS215a	20090511.120134	20090511.120403	8	0.013327	60	0	60-180	60	71	NoGap	1	14	2	96	0	distractor	1	467	767	6502	13.328	13.289	13.367
ProbeTrack09	10	ProbeTrack	1470	SCS215a	20090511.120134	20090511.120410	8	0.013327	60	0	60-180	60	62	NoGap	1	15	2	3	0	distractor	1	573	714	7216	13.328	13.293	13.363
ProbeTrack09	10	ProbeTrack	1470	SCS215a	20090511.120134	20090511.120418	8	0.013327	60	0	60-180	60	119	NoGap	1	16	2	3	0	distractor	1	507	747	7963	13.328	13.293	13.363
ProbeTrack09	10	ProbeTrack	1470	SCS215a	20090511.120134	20090511.120428	8	0.013327	60	0	60-180	60	137	NoGap	1	17	2	3	1	target	1	374	813	8776	13.328	13.292	13.363
ProbeTrack09	10	ProbeTrack	1470	SCS215a	20090511.120134	20090511.120434	8	0.013327	60	0	60-180	60	70	NoGap	1	18	2	96	1	target	1	307	847	9623	13.328	13.292	13.363
ProbeTrack09	10	ProbeTrack	1470	SCS215a	20090511.120134	20090511.120441	8	0.013327	60	0	60-180	60	67	NoGap	1	19	2	96	1	target	1	347	827	10450	13.328	13.292	13.363
ProbeTrack09	10	ProbeTrack	1470	SCS215a	20090511.120134	20090511.120448	8	0.013327	60	0	60-180	60	74	NoGap	1	20	2	3	0	distractor	1	574	713	11163	13.328	13.292	13.363
ProbeTrack09	10	ProbeTrack	1470	SCS215a	20090511.120134	20090511.120454	8	0.013327	60	0	60-180	60	100	NoGap	1	21	2	3	0	distractor	1	454	773	11936	13.328	13.293	13.363
ProbeTrack09	10	ProbeTrack	1470	SCS215a	20090511.120134	20090511.120505	8	0.013327	60	0	60-180	60	87	NoGap	1	22	2	6	1	target	1	440	780	12716	13.328	13.293	13.363
ProbeTrack09	10	ProbeTrack	1470	SCS215a	20090511.120134	20090511.120511	8	0.013327	60	0	60-180	60	71	NoGap	1	23	2	0	0	distractor	1	414	793	13509	13.328	13.290	13.364
ProbeTrack09	10	ProbeTrack	1470	SCS215a	20090511.120134	20090511.120518	8	0.013327	60	0	60-180	60	97	NoGap	1	24	2	0	1	target	1	400	800	14309	13.328	13.293	13.363
ProbeTrack09	10	ProbeTrack	1470	SCS215a	20090511.120134	20090511.120524	8	0.013327	60	0	60-180	60	173	NoGap	1	25	2	3	1	target	1	374	813	15122	13.328	13.293	13.364
ProbeTrack09	10	ProbeTrack	1470	SCS215a	20090511.120134	20090511.120530	8	0.013327	60	0	60-180	60	68	NoGap	1	26	2	0	0	distractor	1	507	747	15869	13.328	13.293	13.363
ProbeTrack09	10	ProbeTrack	1470	SCS215a	20090511.120134	20090511.120536	8	0.013327	60	0	60-180	60	85	NoGap	1	27	2	0	0	distractor	1	494	753	16622	13.328	13.293	13.363
ProbeTrack09	10	ProbeTrack	1470	SCS215a	20090511.120134	20090511.120542	8	0.013327	60	0	60-180	60	116	NoGap	1	28	2	3	0	distractor	1	427	787	17409	13.328	13.293	13.363
ProbeTrack09	10	ProbeTrack	1470	SCS215a	20090511.120134	20090511.120548	8	0.013327	60	0	60-180	60	96	NoGap	1	29	2	96	0	distractor	1	360	820	18229	13.328	13.293	13.363
ProbeTrack09	10	ProbeTrack	1470	SCS215a	20090511.120134	20090511.120555	8	0.013327	60	0	60-180	60	121	NoGap	1	30	2	96	1	target	1	440	780	19009	13.328	13.291	13.366
ProbeTrack09	10	ProbeTrack	1470	SCS215a	20090511.120134	20090511.120603	8	0.013327	60	0	60-180	60	70	NoGap	1	31	2	96	0	distractor	1	387	807	19816	13.328	13.293	13.363
ProbeTrack09	10	ProbeTrack	1470	SCS215a	20090511.120134	20090511.120611	8	0.013327	60	0	60-180	60	166	NoGap	1	32	2	6	0	distractor	1	467	767	20583	13.328	13.293	13.363
ProbeTrack09	10	ProbeTrack	1470	SCS215a	20090511.120134	20090511.120618	8	0.013327	60	0	60-180	60	131	NoGap	1	33	2	6	1	target	1	320	840	21423	13.328	13.291	13.363
ProbeTrack09	10	ProbeTrack	1470	SCS215a	20090511.120134	20090511.120628	8	0.013327	60	0	60-180	60	93	NoGap	1	34	2	0	0	distractor	1	467	767	22190	13.328	13.292	13.363
ProbeTrack09	10	ProbeTrack	1470	SCS215a	20090511.120134	20090511.120633	8	0.013327	60	0	60-180	60	75	NoGap	1	35	2	6	0	distractor	1	427	787	22977	13.328	13.293	13.363
ProbeTrack09	10	ProbeTrack	1470	SCS215a	20090511.120134	20090511.120639	8	0.013327	60	0	60-180	60	105	NoGap	1	36	2	0	1	target	1	427	787	23764	13.328	13.285	13.363
ProbeTrack09	10	ProbeTrack	1470	SCS215a	20090511.120134	20090511.120645	8	0.013327	60	0	60-180	60	94	NoGap	1	37	2	6	1	target	1	334	833	24597	13.328	13.293	13.363
ProbeTrack09	10	ProbeTrack	1470	SCS215a	20090511.120134	20090511.120657	8	0.013327	60	0	60-180	60	119	NoGap	1	38	2	96	1	target	1	387	807	25404	13.328	13.293	13.363
ProbeTrack09	10	ProbeTrack	1470	SCS215a	20090511.120134	20090511.120704	8	0.013327	60	0	60-180	60	83	NoGap	1	39	2	6	0	distractor	1	680	660	26064	13.328	13.293	13.363
ProbeTrack09	10	ProbeTrack	1470	SCS215a	20090511.120134	20090511.120710	8	0.013327	60	0	60-180	60	148	NoGap	1	40	2	0	1	target	1	280	860	26924	13.328	13.293	13.363
ProbeTrack09	10	ProbeTrack	1470	SCS215a	20090511.120134	20090511.120716	8	0.013327	60	0	60-180	60	78	NoGap	1	41	2	96	0	target	0	294	-1000	25924	13.328	13.293	13.363
ProbeTrack09	10	ProbeTrack	1470	SCS215a	20090511.120134	20090511.120723	8	0.013327	60	0	60-180	60	69	NoGap	1	42	2	3	1	target	1	467	767	26691	13.328	13.293	13.363
ProbeTrack09	10	ProbeTrack	1470	SCS215a	20090511.120134	20090511.120728	8	0.013327	60	0	60-180	60	132	NoGap	1	43	2	96	1	target	1	534	733	27424	13.328	13.293	13.363
ProbeTrack09	10	ProbeTrack	1470	SCS215a	20090511.120134	20090511.120737	8	0.013327	60	0	60-180	60	68	NoGap	1	44	2	6	0	distractor	1	773	614	28038	13.328	13.293	13.363
ProbeTrack09	10	ProbeTrack	1470	SCS215a	20090511.120134	20090511.120742	8	0.013327	60	0	60-180	60	123	NoGap	1	45	2	0	1	target	1	294	853	28891	13.328	13.292	13.364
ProbeTrack09	10	ProbeTrack	1470	SCS215a	20090511.120134	20090511.120748	8	0.013327	60	0	60-180	60	165	NoGap	1	46	2	0	1	target	1	520	740	29631	13.328	13.293	13.363
ProbeTrack09	10	ProbeTrack	1470	SCS215a	20090511.120134	20090511.120755	8	0.013327	60	0	60-180	60	160	NoGap	1	47	2	3	1	target	1	387	807	30438	13.328	13.293	13.363
ProbeTrack09	10	ProbeTrack	1470	SCS215a	20090511.120134	20090511.120805	8	0.013327	60	0	60-180	60	65	NoGap	1	48	2	6	0	distractor	1	640	680	31118	13.328	13.293	13.363
ProbeTrack09	10	ProbeTrack	1470	SCS215a	20090511.120134	20090511.120811	8	0.013327	60	0	60-180	60	121	NoGap	1	49	2	6	1	target	1	507	747	31865	13.328	13.293	13.363
ProbeTrack09	10	ProbeTrack	1470	SCS215a	20090511.120134	20090511.120819	8	0.013327	60	0	60-180	60	122	NoGap	1	50	2	96	0	distractor	1	507	747	32612	13.328	13.293	13.363
ProbeTrack09	10	ProbeTrack	1470	SCS215a	20090511.120916	20090511.120920	8	0.013328	60	10	60-180	60	114	GapPrac	1	1	2	6	0	distractor	1	893	554	33166	13.328	13.293	13.363
ProbeTrack09	10	ProbeTrack	1470	SCS215a	20090511.120916	20090511.120933	8	0.013328	60	10	60-180	60	139	GapPrac	1	2	2	96	0	distractor	1	480	760	33926	13.328	13.293	13.363
ProbeTrack09	10	ProbeTrack	1470	SCS215a	20090511.120916	20090511.120947	8	0.013328	60	10	60-180	60	106	GapPrac	1	3	2	0	0	distractor	1	507	747	34673	13.328	13.293	13.364
ProbeTrack09	10	ProbeTrack	1470	SCS215a	20090511.120916	20090511.120954	8	0.013328	60	10	60-180	60	78	GapPrac	1	4	2	0	1	target	1	573	714	35387	13.328	13.293	13.363
ProbeTrack09	10	ProbeTrack	1470	SCS215a	20090511.120916	20090511.121001	8	0.013328	60	10	60-180	60	71	GapPrac	1	5	2	6	0	distractor	1	454	773	36160	13.328	13.293	13.363
ProbeTrack09	10	ProbeTrack	1470	SCS215a	20090511.120916	20090511.121007	8	0.013328	60	10	60-180	60	145	GapPrac	1	6	2	0	1	target	1	480	760	36920	13.328	13.293	13.363
ProbeTrack09	10	ProbeTrack	1470	SCS215a	20090511.120916	20090511.121014	8	0.013328	60	10	60-180	60	82	GapPrac	1	7	2	3	0	target	0	893	-1000	35920	13.328	13.293	13.363
ProbeTrack09	10	ProbeTrack	1470	SCS215a	20090511.120916	20090511.121021	8	0.013328	60	10	60-180	60	151	GapPrac	1	8	2	0	0	target	0	547	-1000	34920	13.328	13.293	13.363
ProbeTrack09	10	ProbeTrack	1470	SCS215a	20090511.120916	20090511.121037	8	0.013328	60	10	60-180	60	91	GapPrac	1	9	2	0	0	distractor	1	693	654	35574	13.328	13.293	13.363
ProbeTrack09	10	ProbeTrack	1470	SCS215a	20090511.120916	20090511.121043	8	0.013328	60	10	60-180	60	118	GapPrac	1	10	2	96	1	target	1	547	727	36301	13.328	13.293	13.363
ProbeTrack09	10	ProbeTrack	1470	SCS215a	20090511.120916	20090511.121055	8	0.013328	60	10	60-180	60	130	GapPrac	1	11	2	3	0	target	0	987	-1000	35301	13.328	13.293	13.363
ProbeTrack09	10	ProbeTrack	1470	SCS215a	20090511.120916	20090511.121102	8	0.013328	60	10	60-180	60	118	GapPrac	1	12	2	6	0	target	0	520	-1000	34301	13.328	13.293	13.366
ProbeTrack09	10	ProbeTrack	1470	SCS215a	20090511.120916	20090511.121113	8	0.013328	60	10	60-180	60	135	GapPrac	1	13	2	3	1	target	1	294	853	35154	13.328	13.293	13.363
ProbeTrack09	10	ProbeTrack	1470	SCS215a	20090511.120916	20090511.121121	8	0.013328	60	10	60-180	60	98	GapPrac	1	14	2	6	1	target	1	360	820	35974	13.328	13.293	13.364
ProbeTrack09	10	ProbeTrack	1470	SCS215a	20090511.120916	20090511.121128	8	0.013328	60	10	60-180	60	97	GapPrac	1	15	2	96	0	distractor	1	574	713	36687	13.328	13.293	13.363
ProbeTrack09	10	ProbeTrack	1470	SCS215a	20090511.120916	20090511.121135	8	0.013328	60	10	60-180	60	87	GapPrac	1	16	2	96	1	target	1	440	780	37467	13.328	13.289	13.365
ProbeTrack09	10	ProbeTrack	1470	SCS215a	20090511.120916	20090511.121142	8	0.013328	60	10	60-180	60	75	GapPrac	1	17	2	3	1	target	1	414	793	38260	13.328	13.293	13.363
ProbeTrack09	10	ProbeTrack	1470	SCS215a	20090511.120916	20090511.121150	8	0.013328	60	10	60-180	60	77	GapPrac	1	18	2	96	0	target	0	400	-1000	37260	13.328	13.293	13.363
ProbeTrack09	10	ProbeTrack	1470	SCS215a	20090511.120916	20090511.121157	8	0.013328	60	10	60-180	60	171	GapPrac	1	19	2	0	1	target	1	427	787	38047	13.328	13.293	13.363
ProbeTrack09	10	ProbeTrack	1470	SCS215a	20090511.120916	20090511.121203	8	0.013328	60	10	60-180	60	123	GapPrac	1	20	2	6	1	target	1	454	773	38820	13.328	13.293	13.363
ProbeTrack09	10	ProbeTrack	1470	SCS215a	20090511.121252	20090511.121316	8	0.013328	60	10	60-180	60	138	GapExp	1	1	2	3	1	target	1	507	747	39567	13.328	13.293	13.363
ProbeTrack09	10	ProbeTrack	1470	SCS215a	20090511.121252	20090511.121324	8	0.013328	60	10	60-180	60	105	GapExp	1	2	2	3	0	distractor	1	507	747	40314	13.328	13.289	13.367
ProbeTrack09	10	ProbeTrack	1470	SCS215a	20090511.121252	20090511.121334	8	0.013328	60	10	60-180	60	72	GapExp	1	3	2	96	1	target	1	347	827	41141	13.328	13.292	13.364
ProbeTrack09	10	ProbeTrack	1470	SCS215a	20090511.121252	20090511.121341	8	0.013328	60	10	60-180	60	65	GapExp	1	4	2	6	1	target	1	360	820	41961	13.328	13.293	13.363
ProbeTrack09	10	ProbeTrack	1470	SCS215a	20090511.121252	20090511.121347	8	0.013328	60	10	60-180	60	164	GapExp	1	5	2	96	0	distractor	1	573	714	42675	13.328	13.293	13.363
ProbeTrack09	10	ProbeTrack	1470	SCS215a	20090511.121252	20090511.121355	8	0.013328	60	10	60-180	60	92	GapExp	1	6	2	0	0	distractor	1	494	753	43428	13.328	13.293	13.363
ProbeTrack09	10	ProbeTrack	1470	SCS215a	20090511.121252	20090511.121402	8	0.013328	60	10	60-180	60	96	GapExp	1	7	2	6	0	distractor	1	494	753	44181	13.328	13.293	13.363
ProbeTrack09	10	ProbeTrack	1470	SCS215a	20090511.121252	20090511.121413	8	0.013328	60	10	60-180	60	85	GapExp	1	8	2	0	1	target	1	494	753	44934	13.328	13.293	13.363
ProbeTrack09	10	ProbeTrack	1470	SCS215a	20090511.121252	20090511.121421	8	0.013328	60	10	60-180	60	94	GapExp	0	9	2	6	0	distractor	1	507	747	45681	13.328	13.293	13.364
ProbeTrack09	10	ProbeTrack	1470	SCS215a	20090511.121252	20090511.121427	8	0.013328	60	10	60-180	60	175	GapExp	0	10	2	6	1	target	1	587	707	46388	13.328	13.293	13.363
ProbeTrack09	10	ProbeTrack	1470	SCS215a	20090511.121252	20090511.121436	8	0.013328	60	10	60-180	60	69	GapExp	0	11	2	0	0	distractor	1	467	767	47155	13.328	13.293	13.363
ProbeTrack09	10	ProbeTrack	1470	SCS215a	20090511.121252	20090511.121443	8	0.013328	60	10	60-180	60	162	GapExp	0	12	2	96	1	target	1	347	827	47982	13.328	13.293	13.366
ProbeTrack09	10	ProbeTrack	1470	SCS215a	20090511.121252	20090511.121451	8	0.013328	60	10	60-180	60	173	GapExp	0	13	2	3	0	distractor	1	573	714	48696	13.328	13.293	13.364
ProbeTrack09	10	ProbeTrack	1470	SCS215a	20090511.121252	20090511.121503	8	0.013328	60	10	60-180	60	140	GapExp	0	14	2	3	0	distractor	1	507	747	49443	13.328	13.293	13.363
ProbeTrack09	10	ProbeTrack	1470	SCS215a	20090511.121252	20090511.121511	8	0.013328	60	10	60-180	60	163	GapExp	0	15	2	6	1	target	1	534	733	50176	13.328	13.293	13.363
ProbeTrack09	10	ProbeTrack	1470	SCS215a	20090511.121252	20090511.121518	8	0.013328	60	10	60-180	60	94	GapExp	0	16	2	6	1	target	1	414	793	50969	13.328	13.293	13.363
ProbeTrack09	10	ProbeTrack	1470	SCS215a	20090511.121252	20090511.121535	8	0.013328	60	10	60-180	60	158	GapExp	0	17	2	6	0	distractor	1	587	707	51676	13.328	13.293	13.363
ProbeTrack09	10	ProbeTrack	1470	SCS215a	20090511.121252	20090511.121544	8	0.013328	60	10	60-180	60	93	GapExp	0	18	2	6	1	target	1	480	760	52436	13.328	13.293	13.364
ProbeTrack09	10	ProbeTrack	1470	SCS215a	20090511.121252	20090511.121551	8	0.013328	60	10	60-180	60	82	GapExp	0	19	2	0	1	target	1	494	753	53189	13.328	13.293	13.363
ProbeTrack09	10	ProbeTrack	1470	SCS215a	20090511.121252	20090511.121559	8	0.013328	60	10	60-180	60	131	GapExp	0	20	2	96	1	target	1	440	780	53969	13.328	13.290	13.366
ProbeTrack09	10	ProbeTrack	1470	SCS215a	20090511.121252	20090511.121608	8	0.013328	60	10	60-180	60	112	GapExp	0	21	2	96	1	target	1	387	807	54776	13.328	13.293	13.363
ProbeTrack09	10	ProbeTrack	1470	SCS215a	20090511.121252	20090511.121627	8	0.013328	60	10	60-180	60	159	GapExp	0	22	2	0	0	distractor	1	707	647	55423	13.328	13.293	13.363
ProbeTrack09	10	ProbeTrack	1470	SCS215a	20090511.121252	20090511.121636	8	0.013328	60	10	60-180	60	110	GapExp	0	23	2	6	0	distractor	1	454	773	56196	13.328	13.293	13.363
ProbeTrack09	10	ProbeTrack	1470	SCS215a	20090511.121252	20090511.121645	8	0.013328	60	10	60-180	60	106	GapExp	0	24	2	0	1	target	1	560	720	56916	13.328	13.290	13.363
ProbeTrack09	10	ProbeTrack	1470	SCS215a	20090511.121252	20090511.121652	8	0.013328	60	10	60-180	60	70	GapExp	0	25	2	6	0	distractor	1	467	767	57683	13.328	13.293	13.363
ProbeTrack09	10	ProbeTrack	1470	SCS215a	20090511.121252	20090511.121701	8	0.013328	60	10	60-180	60	124	GapExp	0	26	2	3	0	distractor	1	680	660	58343	13.328	13.293	13.363
ProbeTrack09	10	ProbeTrack	1470	SCS215a	20090511.121252	20090511.121709	8	0.013328	60	10	60-180	60	101	GapExp	0	27	2	96	1	target	1	480	760	59103	13.328	13.293	13.363
ProbeTrack09	10	ProbeTrack	1470	SCS215a	20090511.121252	20090511.121728	8	0.013328	60	10	60-180	60	101	GapExp	0	28	2	0	0	distractor	1	520	740	59843	13.328	13.293	13.366
ProbeTrack09	10	ProbeTrack	1470	SCS215a	20090511.121252	20090511.121737	8	0.013328	60	10	60-180	60	146	GapExp	0	29	2	0	0	distractor	1	640	680	60523	13.328	13.292	13.365
ProbeTrack09	10	ProbeTrack	1470	SCS215a	20090511.121252	20090511.121746	8	0.013328	60	10	60-180	60	89	GapExp	0	30	2	3	1	target	1	440	780	61303	13.328	13.292	13.363
ProbeTrack09	10	ProbeTrack	1470	SCS215a	20090511.121252	20090511.121753	8	0.013328	60	10	60-180	60	106	GapExp	0	31	2	6	1	target	1	374	813	62116	13.328	13.293	13.363
ProbeTrack09	10	ProbeTrack	1470	SCS215a	20090511.121252	20090511.121823	8	0.013328	60	10	60-180	60	109	GapExp	0	32	2	96	1	target	1	387	807	62923	13.328	13.293	13.366
ProbeTrack09	10	ProbeTrack	1470	SCS215a	20090511.121252	20090511.121831	8	0.013328	60	10	60-180	60	162	GapExp	0	33	2	6	0	distractor	1	467	767	63690	13.328	13.291	13.363
ProbeTrack09	10	ProbeTrack	1470	SCS215a	20090511.121252	20090511.121841	8	0.013328	60	10	60-180	60	93	GapExp	0	34	2	6	1	target	1	374	813	64503	13.328	13.293	13.364
ProbeTrack09	10	ProbeTrack	1470	SCS215a	20090511.121252	20090511.121849	8	0.013328	60	10	60-180	60	160	GapExp	0	35	2	0	1	target	1	360	820	65323	13.328	13.293	13.363
ProbeTrack09	10	ProbeTrack	1470	SCS215a	20090511.121252	20090511.121857	8	0.013328	60	10	60-180	60	115	GapExp	0	36	2	3	0	distractor	1	494	753	66076	13.328	13.293	13.363
ProbeTrack09	10	ProbeTrack	1470	SCS215a	20090511.121252	20090511.121904	8	0.013328	60	10	60-180	60	112	GapExp	0	37	2	6	1	target	1	360	820	66896	13.328	13.293	13.363
ProbeTrack09	10	ProbeTrack	1470	SCS215a	20090511.121252	20090511.121913	8	0.013328	60	10	60-180	60	64	GapExp	0	38	2	3	0	distractor	1	440	780	67676	13.328	13.293	13.367
ProbeTrack09	10	ProbeTrack	1470	SCS215a	20090511.121252	20090511.121919	8	0.013328	60	10	60-180	60	155	GapExp	0	39	2	3	1	target	1	347	827	68503	13.328	13.293	13.364
ProbeTrack09	10	ProbeTrack	1470	SCS215a	20090511.121252	20090511.121933	8	0.013328	60	10	60-180	60	143	GapExp	0	40	2	96	1	target	1	547	727	69230	13.328	13.293	13.363
ProbeTrack09	10	ProbeTrack	1470	SCS215a	20090511.121252	20090511.121942	8	0.013328	60	10	60-180	60	108	GapExp	0	41	2	96	0	distractor	1	533	734	69964	13.328	13.293	13.363
ProbeTrack09	10	ProbeTrack	1470	SCS215a	20090511.121252	20090511.122002	8	0.013328	60	10	60-180	60	61	GapExp	0	42	2	0	1	target	1	440	780	70744	13.328	13.293	13.363
ProbeTrack09	10	ProbeTrack	1470	SCS215a	20090511.121252	20090511.122008	8	0.013328	60	10	60-180	60	104	GapExp	0	43	2	0	0	distractor	1	440	780	71524	13.328	13.293	13.363
ProbeTrack09	10	ProbeTrack	1470	SCS215a	20090511.121252	20090511.122020	8	0.013328	60	10	60-180	60	88	GapExp	0	44	2	3	0	distractor	1	454	773	72297	13.328	13.291	13.363
ProbeTrack09	10	ProbeTrack	1470	SCS215a	20090511.121252	20090511.122027	8	0.013328	60	10	60-180	60	157	GapExp	0	45	2	0	1	target	1	387	807	73104	13.328	13.293	13.363
ProbeTrack09	10	ProbeTrack	1470	SCS215a	20090511.121252	20090511.122033	8	0.013328	60	10	60-180	60	77	GapExp	0	46	2	96	0	distractor	1	427	787	73891	13.328	13.293	13.363
ProbeTrack09	10	ProbeTrack	1470	SCS215a	20090511.121252	20090511.122041	8	0.013328	60	10	60-180	60	67	GapExp	0	47	2	3	0	distractor	1	640	680	74571	13.328	13.293	13.363
ProbeTrack09	10	ProbeTrack	1470	SCS215a	20090511.121252	20090511.122047	8	0.013328	60	10	60-180	60	163	GapExp	0	48	2	6	0	target	0	587	-1000	73571	13.328	13.293	13.363
ProbeTrack09	10	ProbeTrack	1470	SCS215a	20090511.121252	20090511.122055	8	0.013328	60	10	60-180	60	138	GapExp	0	49	2	96	0	distractor	1	467	767	74338	13.328	13.292	13.363
ProbeTrack09	10	ProbeTrack	1470	SCS215a	20090511.121252	20090511.122114	8	0.013328	60	10	60-180	60	178	GapExp	0	50	2	0	1	target	1	427	787	75125	13.328	13.293	13.367
ProbeTrack09	10	ProbeTrack	1470	SCS215a	20090511.121252	20090511.122125	8	0.013328	60	10	60-180	60	81	GapExp	0	51	2	96	1	target	1	387	807	75932	13.328	13.293	13.363
ProbeTrack09	10	ProbeTrack	1470	SCS215a	20090511.121252	20090511.122147	8	0.013328	60	10	60-180	60	76	GapExp	0	52	2	3	1	target	1	347	827	76759	13.328	13.293	13.363
ProbeTrack09	10	ProbeTrack	1470	SCS215a	20090511.121252	20090511.122154	8	0.013328	60	10	60-180	60	146	GapExp	0	53	2	96	1	target	1	347	827	77586	13.328	13.292	13.364
ProbeTrack09	10	ProbeTrack	1470	SCS215a	20090511.121252	20090511.122202	8	0.013328	60	10	60-180	60	100	GapExp	0	54	2	3	0	distractor	1	467	767	78353	13.328	13.293	13.363
ProbeTrack09	10	ProbeTrack	1470	SCS215a	20090511.121252	20090511.122212	8	0.013328	60	10	60-180	60	138	GapExp	0	55	2	6	1	target	1	334	833	79186	13.328	13.293	13.363
ProbeTrack09	10	ProbeTrack	1470	SCS215a	20090511.121252	20090511.122223	8	0.013328	60	10	60-180	60	79	GapExp	0	56	2	0	1	target	1	387	807	79993	13.328	13.293	13.363
ProbeTrack09	10	ProbeTrack	1470	SCS215a	20090511.121252	20090511.122229	8	0.013328	60	10	60-180	60	93	GapExp	0	57	2	3	0	distractor	1	454	773	80766	13.328	13.293	13.363
ProbeTrack09	10	ProbeTrack	1470	SCS215a	20090511.121252	20090511.122235	8	0.013328	60	10	60-180	60	99	GapExp	0	58	2	3	1	target	1	334	833	81599	13.328	13.293	13.363
ProbeTrack09	10	ProbeTrack	1470	SCS215a	20090511.121252	20090511.122242	8	0.013328	60	10	60-180	60	84	GapExp	0	59	2	3	1	target	1	280	860	82459	13.328	13.292	13.362
ProbeTrack09	10	ProbeTrack	1470	SCS215a	20090511.121252	20090511.122249	8	0.013328	60	10	60-180	60	117	GapExp	0	60	2	6	0	distractor	1	507	747	83206	13.328	13.293	13.363
ProbeTrack09	10	ProbeTrack	1470	SCS215a	20090511.121252	20090511.122303	8	0.013328	60	10	60-180	60	138	GapExp	0	61	2	3	0	target	0	547	-1000	82206	13.328	13.293	13.363
ProbeTrack09	10	ProbeTrack	1470	SCS215a	20090511.121252	20090511.122343	8	0.013328	60	10	60-180	60	66	GapExp	0	62	2	6	0	distractor	1	534	733	82939	13.328	13.293	13.363
ProbeTrack09	10	ProbeTrack	1470	SCS215a	20090511.121252	20090511.122358	8	0.013328	60	10	60-180	60	81	GapExp	0	63	2	96	0	distractor	1	480	760	83699	13.328	13.293	13.363
ProbeTrack09	10	ProbeTrack	1470	SCS215a	20090511.121252	20090511.122405	8	0.013328	60	10	60-180	60	145	GapExp	0	64	2	0	0	distractor	1	640	680	84379	13.328	13.293	13.363
ProbeTrack09	10	ProbeTrack	1470	SCS215a	20090511.121252	20090511.122415	8	0.013328	60	10	60-180	60	107	GapExp	0	65	2	96	1	target	1	334	833	85212	13.328	13.293	13.365
ProbeTrack09	10	ProbeTrack	1470	SCS215a	20090511.121252	20090511.122426	8	0.013328	60	10	60-180	60	99	GapExp	0	66	2	0	0	distractor	1	547	727	85939	13.328	13.293	13.363
ProbeTrack09	10	ProbeTrack	1470	SCS215a	20090511.121252	20090511.122433	8	0.013328	60	10	60-180	60	116	GapExp	0	67	2	96	1	target	1	347	827	86766	13.328	13.293	13.363
ProbeTrack09	10	ProbeTrack	1470	SCS215a	20090511.121252	20090511.122441	8	0.013328	60	10	60-180	60	111	GapExp	0	68	2	0	1	target	1	427	787	87553	13.328	13.293	13.363
ProbeTrack09	10	ProbeTrack	1470	SCS215a	20090511.121252	20090511.122447	8	0.013328	60	10	60-180	60	97	GapExp	0	69	2	0	1	target	1	307	847	88400	13.328	13.293	13.366
ProbeTrack09	10	ProbeTrack	1470	SCS215a	20090511.121252	20090511.122453	8	0.013328	60	10	60-180	60	79	GapExp	0	70	2	0	0	distractor	1	573	714	89114	13.328	13.291	13.367
ProbeTrack09	10	ProbeTrack	1470	SCS215a	20090511.121252	20090511.122459	8	0.013328	60	10	60-180	60	168	GapExp	0	71	2	6	0	distractor	1	454	773	89887	13.328	13.293	13.363
ProbeTrack09	10	ProbeTrack	1470	SCS215a	20090511.121252	20090511.122532	8	0.013328	60	10	60-180	60	94	GapExp	0	72	2	6	1	target	1	374	813	90700	13.328	13.293	13.363
ProbeTrack09	10	ProbeTrack	1470	SCS215a	20090511.121252	20090511.122552	8	0.013328	60	10	60-180	60	173	GapExp	0	73	2	3	1	target	1	347	827	91527	13.328	13.293	13.364
ProbeTrack09	10	ProbeTrack	1470	SCS215a	20090511.121252	20090511.122559	8	0.013328	60	10	60-180	60	136	GapExp	0	74	2	96	1	distractor	0	534	-1000	90527	13.328	13.293	13.363
ProbeTrack09	10	ProbeTrack	1470	SCS215a	20090511.121252	20090511.122613	8	0.013328	60	10	60-180	60	163	GapExp	0	75	2	6	1	target	1	454	773	91300	13.328	13.289	13.366
ProbeTrack09	10	ProbeTrack	1470	SCS215a	20090511.121252	20090511.122622	8	0.013328	60	10	60-180	60	97	GapExp	0	76	2	6	0	distractor	1	560	720	92020	13.328	13.293	13.363
ProbeTrack09	10	ProbeTrack	1470	SCS215a	20090511.121252	20090511.122631	8	0.013328	60	10	60-180	60	127	GapExp	0	77	2	6	0	distractor	1	534	733	92753	13.328	13.293	13.363
ProbeTrack09	10	ProbeTrack	1470	SCS215a	20090511.121252	20090511.122640	8	0.013328	60	10	60-180	60	65	GapExp	0	78	2	6	0	distractor	1	507	747	93500	13.328	13.293	13.363
ProbeTrack09	10	ProbeTrack	1470	SCS215a	20090511.121252	20090511.122648	8	0.013328	60	10	60-180	60	86	GapExp	0	79	2	96	0	distractor	1	773	614	94114	13.328	13.292	13.363
ProbeTrack09	10	ProbeTrack	1470	SCS215a	20090511.121252	20090511.122659	8	0.013328	60	10	60-180	60	89	GapExp	0	80	2	3	0	distractor	1	547	727	94841	13.328	13.293	13.363
ProbeTrack09	10	ProbeTrack	1470	SCS215a	20090511.121252	20090511.122706	8	0.013328	60	10	60-180	60	166	GapExp	0	81	2	6	0	distractor	1	467	767	95608	13.328	13.293	13.363
ProbeTrack09	10	ProbeTrack	1470	SCS215a	20090511.121252	20090511.122714	8	0.013328	60	10	60-180	60	84	GapExp	0	82	2	3	1	target	1	334	833	96441	13.328	13.293	13.363
ProbeTrack09	10	ProbeTrack	1470	SCS215a	20090511.121252	20090511.122730	8	0.013328	60	10	60-180	60	152	GapExp	0	83	2	0	0	distractor	1	547	727	97168	13.328	13.293	13.363
ProbeTrack09	10	ProbeTrack	1470	SCS215a	20090511.121252	20090511.122737	8	0.013328	60	10	60-180	60	152	GapExp	0	84	2	0	1	target	1	387	807	97975	13.328	13.292	13.365
ProbeTrack09	10	ProbeTrack	1470	SCS215a	20090511.121252	20090511.122744	8	0.013328	60	10	60-180	60	79	GapExp	0	85	2	96	1	target	1	374	813	98788	13.328	13.293	13.363
ProbeTrack09	10	ProbeTrack	1470	SCS215a	20090511.121252	20090511.122751	8	0.013328	60	10	60-180	60	75	GapExp	0	86	2	0	1	target	1	374	813	99601	13.328	13.293	13.363
ProbeTrack09	10	ProbeTrack	1470	SCS215a	20090511.121252	20090511.122805	8	0.013328	60	10	60-180	60	108	GapExp	0	87	2	96	1	target	1	454	773	100374	13.328	13.293	13.363
ProbeTrack09	10	ProbeTrack	1470	SCS215a	20090511.121252	20090511.122815	8	0.013328	60	10	60-180	60	79	GapExp	0	88	2	0	0	distractor	1	507	747	101121	13.328	13.293	13.363
ProbeTrack09	10	ProbeTrack	1470	SCS215a	20090511.121252	20090511.122829	8	0.013328	60	10	60-180	60	166	GapExp	0	89	2	0	1	target	1	374	813	101934	13.328	13.293	13.363
ProbeTrack09	10	ProbeTrack	1470	SCS215a	20090511.121252	20090511.122838	8	0.013328	60	10	60-180	60	81	GapExp	0	90	2	0	1	target	1	454	773	102707	13.328	13.293	13.363
ProbeTrack09	10	ProbeTrack	1470	SCS215a	20090511.121252	20090511.122845	8	0.013328	60	10	60-180	60	65	GapExp	0	91	2	3	1	target	1	347	827	103534	13.328	13.293	13.363
ProbeTrack09	10	ProbeTrack	1470	SCS215a	20090511.121252	20090511.122900	8	0.013328	60	10	60-180	60	84	GapExp	0	92	2	96	1	target	1	587	707	104241	13.328	13.293	13.363
ProbeTrack09	10	ProbeTrack	1470	SCS215a	20090511.121252	20090511.122907	8	0.013328	60	10	60-180	60	147	GapExp	0	93	2	3	0	distractor	1	547	727	104968	13.328	13.293	13.363
ProbeTrack09	10	ProbeTrack	1470	SCS215a	20090511.121252	20090511.122918	8	0.013328	60	10	60-180	60	105	GapExp	0	94	2	96	1	target	1	440	780	105748	13.328	13.292	13.364
ProbeTrack09	10	ProbeTrack	1470	SCS215a	20090511.121252	20090511.122937	8	0.013328	60	10	60-180	60	99	GapExp	0	95	2	0	0	target	0	387	-1000	104748	13.328	13.293	13.363
ProbeTrack09	10	ProbeTrack	1470	SCS215a	20090511.121252	20090511.122944	8	0.013328	60	10	60-180	60	128	GapExp	0	96	2	6	1	target	1	414	793	105541	13.328	13.293	13.363
ProbeTrack09	10	ProbeTrack	1470	SCS215a	20090511.121252	20090511.122956	8	0.013328	60	10	60-180	60	95	GapExp	0	97	2	6	0	distractor	1	494	753	106294	13.328	13.293	13.363
ProbeTrack09	10	ProbeTrack	1470	SCS215a	20090511.121252	20090511.123003	8	0.013328	60	10	60-180	60	141	GapExp	0	98	2	96	0	distractor	1	467	767	107061	13.328	13.290	13.363
ProbeTrack09	10	ProbeTrack	1470	SCS215a	20090511.121252	20090511.123015	8	0.013328	60	10	60-180	60	147	GapExp	0	99	2	3	1	target	1	307	847	107908	13.328	13.293	13.365
ProbeTrack09	10	ProbeTrack	1470	SCS215a	20090511.121252	20090511.123022	8	0.013328	60	10	60-180	60	112	GapExp	0	100	2	3	0	target	0	560	-1000	106908	13.328	13.293	13.364
ProbeTrack09	10	ProbeTrack	1470	SCS215a	20090511.121252	20090511.123030	8	0.013328	60	10	60-180	60	79	GapExp	0	101	2	3	1	distractor	0	507	-1000	105908	13.328	13.293	13.363
ProbeTrack09	10	ProbeTrack	1470	SCS215a	20090511.121252	20090511.123119	8	0.013328	60	10	60-180	60	146	GapExp	0	102	2	96	1	target	1	360	820	106728	13.328	13.293	13.363
ProbeTrack09	10	ProbeTrack	1470	SCS215a	20090511.121252	20090511.123130	8	0.013328	60	10	60-180	60	120	GapExp	0	103	2	6	1	target	1	427	787	107515	13.328	13.293	13.363
ProbeTrack09	10	ProbeTrack	1470	SCS215a	20090511.121252	20090511.123140	8	0.013328	60	10	60-180	60	83	GapExp	0	104	2	96	0	distractor	1	480	760	108275	13.328	13.293	13.364
ProbeTrack09	10	ProbeTrack	1470	SCS215a	20090511.121252	20090511.123149	8	0.013328	60	10	60-180	60	151	GapExp	0	105	2	6	1	target	1	414	793	109068	13.328	13.293	13.363
ProbeTrack09	10	ProbeTrack	1470	SCS215a	20090511.121252	20090511.123202	8	0.013328	60	10	60-180	60	134	GapExp	0	106	2	6	0	target	0	360	-1000	108068	13.328	13.292	13.363
ProbeTrack09	10	ProbeTrack	1470	SCS215a	20090511.121252	20090511.123210	8	0.013328	60	10	60-180	60	148	GapExp	0	107	2	0	0	distractor	1	520	740	108808	13.328	13.293	13.363
ProbeTrack09	10	ProbeTrack	1470	SCS215a	20090511.121252	20090511.123222	8	0.013328	60	10	60-180	60	155	GapExp	0	108	2	3	1	target	1	454	773	109581	13.328	13.290	13.366
ProbeTrack09	10	ProbeTrack	1470	SCS215a	20090511.121252	20090511.123230	8	0.013328	60	10	60-180	60	161	GapExp	0	109	2	96	0	distractor	1	534	733	110314	13.328	13.292	13.363
ProbeTrack09	10	ProbeTrack	1470	SCS215a	20090511.121252	20090511.123244	8	0.013328	60	10	60-180	60	176	GapExp	0	110	2	6	1	target	1	440	780	111094	13.328	13.292	13.363
ProbeTrack09	10	ProbeTrack	1470	SCS215a	20090511.121252	20090511.123252	8	0.013328	60	10	60-180	60	134	GapExp	0	111	2	0	0	distractor	1	454	773	111867	13.328	13.293	13.363
ProbeTrack09	10	ProbeTrack	1470	SCS215a	20090511.121252	20090511.123259	8	0.013328	60	10	60-180	60	104	GapExp	0	112	2	3	0	distractor	1	427	787	112654	13.328	13.293	13.363
ProbeTrack09	10	ProbeTrack	1470	SCS215a	20090511.121252	20090511.123310	8	0.013328	60	10	60-180	60	62	GapExp	0	113	2	3	1	target	1	347	827	113481	13.328	13.293	13.363
ProbeTrack09	10	ProbeTrack	1470	SCS215a	20090511.121252	20090511.123316	8	0.013328	60	10	60-180	60	141	GapExp	0	114	2	3	1	target	1	334	833	114314	13.328	13.292	13.363
ProbeTrack09	10	ProbeTrack	1470	SCS215a	20090511.121252	20090511.123322	8	0.013328	60	10	60-180	60	104	GapExp	0	115	2	0	0	distractor	1	467	767	115081	13.328	13.293	13.364
ProbeTrack09	10	ProbeTrack	1470	SCS215a	20090511.121252	20090511.123339	8	0.013328	60	10	60-180	60	109	GapExp	0	116	2	0	1	target	1	360	820	115901	13.328	13.293	13.364
ProbeTrack09	10	ProbeTrack	1470	SCS215a	20090511.121252	20090511.123350	8	0.013328	60	10	60-180	60	150	GapExp	0	117	2	0	1	target	1	334	833	116734	13.328	13.293	13.363
ProbeTrack09	10	ProbeTrack	1470	SCS215a	20090511.121252	20090511.123414	8	0.013328	60	10	60-180	60	68	GapExp	0	118	2	3	0	distractor	1	427	787	117521	13.328	13.293	13.363
ProbeTrack09	10	ProbeTrack	1470	SCS215a	20090511.121252	20090511.123424	8	0.013328	60	10	60-180	60	118	GapExp	0	119	2	96	1	target	1	334	833	118354	13.328	13.293	13.363
ProbeTrack09	10	ProbeTrack	1470	SCS215a	20090511.121252	20090511.123431	8	0.013328	60	10	60-180	60	102	GapExp	0	120	2	96	0	distractor	1	507	747	119101	13.328	13.291	13.397
ProbeTrack09	10	ProbeTrack	1470	SCS215a	20090511.121252	20090511.123445	8	0.013328	60	10	60-180	60	117	GapExp	0	121	2	96	0	distractor	1	494	753	119854	13.328	13.293	13.364
ProbeTrack09	10	ProbeTrack	1470	SCS215a	20090511.121252	20090511.123452	8	0.013328	60	10	60-180	60	176	GapExp	0	122	2	0	0	distractor	1	507	747	120601	13.328	13.293	13.363
ProbeTrack09	10	ProbeTrack	1470	SCS215a	20090511.121252	20090511.123500	8	0.013328	60	10	60-180	60	155	GapExp	0	123	2	96	0	target	0	454	-1000	119601	13.328	13.293	13.363
ProbeTrack09	10	ProbeTrack	1470	SCS215a	20090511.121252	20090511.123508	8	0.013328	60	10	60-180	60	174	GapExp	0	124	2	6	1	target	1	347	827	120428	13.328	13.290	13.366
ProbeTrack09	10	ProbeTrack	1470	SCS215a	20090511.121252	20090511.123521	8	0.013328	60	10	60-180	60	177	GapExp	0	125	2	96	1	target	1	400	800	121228	13.328	13.293	13.367
ProbeTrack09	10	ProbeTrack	1470	SCS215a	20090511.121252	20090511.123530	8	0.013328	60	10	60-180	60	162	GapExp	0	126	2	3	1	distractor	0	560	-1000	120228	13.328	13.291	13.366
ProbeTrack09	10	ProbeTrack	1470	SCS215a	20090511.121252	20090511.123541	8	0.013328	60	10	60-180	60	167	GapExp	0	127	2	96	1	target	1	360	820	121048	13.328	13.293	13.363
ProbeTrack09	10	ProbeTrack	1470	SCS215a	20090511.121252	20090511.123549	8	0.013328	60	10	60-180	60	107	GapExp	0	128	2	0	0	target	0	360	-1000	120048	13.328	13.292	13.363
ProbeTrack09	10	ProbeTrack	1470	SCS215a	20090511.121252	20090511.123554	8	0.013328	60	10	60-180	60	80	GapExp	0	129	2	0	0	distractor	1	534	733	120781	13.328	13.293	13.363
ProbeTrack09	10	ProbeTrack	1470	SCS215a	20090511.121252	20090511.123607	8	0.013328	60	10	60-180	60	171	GapExp	0	130	2	6	1	target	1	440	780	121561	13.328	13.293	13.363
ProbeTrack09	10	ProbeTrack	1470	SCS215a	20090511.121252	20090511.123615	8	0.013328	60	10	60-180	60	98	GapExp	0	131	2	6	1	target	1	360	820	122381	13.328	13.293	13.363
ProbeTrack09	10	ProbeTrack	1470	SCS215a	20090511.121252	20090511.123621	8	0.013328	60	10	60-180	60	170	GapExp	0	132	2	96	0	distractor	1	440	780	123161	13.328	13.293	13.363
ProbeTrack09	10	ProbeTrack	1470	SCS215a	20090511.121252	20090511.123629	8	0.013328	60	10	60-180	60	126	GapExp	0	133	2	6	1	target	1	414	793	123954	13.328	13.293	13.363
ProbeTrack09	10	ProbeTrack	1470	SCS215a	20090511.121252	20090511.123635	8	0.013328	60	10	60-180	60	99	GapExp	0	134	2	96	0	distractor	1	507	747	124701	13.328	13.293	13.363
ProbeTrack09	10	ProbeTrack	1470	SCS215a	20090511.121252	20090511.123646	8	0.013328	60	10	60-180	60	111	GapExp	0	135	2	0	0	distractor	1	587	707	125408	13.328	13.293	13.363
ProbeTrack09	10	ProbeTrack	1470	SCS215a	20090511.121252	20090511.123652	8	0.013328	60	10	60-180	60	63	GapExp	0	136	2	6	0	distractor	1	440	780	126188	13.328	13.293	13.363
ProbeTrack09	10	ProbeTrack	1470	SCS215a	20090511.121252	20090511.123708	8	0.013328	60	10	60-180	60	164	GapExp	0	137	2	6	1	target	1	321	840	127028	13.328	13.292	13.363
ProbeTrack09	10	ProbeTrack	1470	SCS215a	20090511.121252	20090511.123715	8	0.013328	60	10	60-180	60	72	GapExp	0	138	2	3	0	distractor	1	494	753	127781	13.328	13.292	13.363
ProbeTrack09	10	ProbeTrack	1470	SCS215a	20090511.121252	20090511.123720	8	0.013328	60	10	60-180	60	79	GapExp	0	139	2	96	0	distractor	1	467	767	128548	13.328	13.291	13.363
ProbeTrack09	10	ProbeTrack	1470	SCS215a	20090511.121252	20090511.123727	8	0.013328	60	10	60-180	60	129	GapExp	0	140	2	0	1	target	1	414	793	129341	13.328	13.293	13.363
ProbeTrack09	10	ProbeTrack	1470	SCS215a	20090511.121252	20090511.123735	8	0.013328	60	10	60-180	60	103	GapExp	0	141	2	0	1	target	1	400	800	130141	13.328	13.293	13.364
ProbeTrack09	10	ProbeTrack	1470	SCS215a	20090511.121252	20090511.123752	8	0.013328	60	10	60-180	60	162	GapExp	0	142	2	96	0	distractor	1	454	773	130914	13.328	13.293	13.363
ProbeTrack09	10	ProbeTrack	1470	SCS215a	20090511.121252	20090511.123800	8	0.013328	60	10	60-180	60	123	GapExp	0	143	2	6	1	target	1	374	813	131727	13.328	13.293	13.363
ProbeTrack09	10	ProbeTrack	1470	SCS215a	20090511.121252	20090511.123816	8	0.013328	60	10	60-180	60	75	GapExp	0	144	2	96	1	target	1	307	847	132574	13.328	13.293	13.363
ProbeTrack09	10	ProbeTrack	1470	SCS215a	20090511.121252	20090511.123823	8	0.013328	60	10	60-180	60	100	GapExp	0	145	2	6	0	distractor	1	680	660	133234	13.328	13.293	13.363
ProbeTrack09	10	ProbeTrack	1470	SCS215a	20090511.121252	20090511.123830	8	0.013328	60	10	60-180	60	106	GapExp	0	146	2	3	0	distractor	1	400	800	134034	13.328	13.293	13.363
ProbeTrack09	10	ProbeTrack	1470	SCS215a	20090511.121252	20090511.123841	8	0.013328	60	10	60-180	60	100	GapExp	0	147	2	6	0	distractor	1	387	807	134841	13.328	13.293	13.363
ProbeTrack09	10	ProbeTrack	1470	SCS215a	20090511.121252	20090511.123850	8	0.013328	60	10	60-180	60	121	GapExp	0	148	2	3	0	target	0	480	-1000	133841	13.328	13.293	13.363
ProbeTrack09	10	ProbeTrack	1470	SCS215a	20090511.121252	20090511.123857	8	0.013328	60	10	60-180	60	106	GapExp	0	149	2	3	1	target	1	400	800	134641	13.328	13.291	13.364
ProbeTrack09	10	ProbeTrack	1470	SCS215a	20090511.121252	20090511.123910	8	0.013328	60	10	60-180	60	111	GapExp	0	150	2	96	1	target	1	347	827	135468	13.328	13.293	13.363
ProbeTrack09	10	ProbeTrack	1470	SCS215a	20090511.121252	20090511.123918	8	0.013328	60	10	60-180	60	91	GapExp	0	151	2	0	1	target	1	427	787	136255	13.328	13.293	13.363
ProbeTrack09	10	ProbeTrack	1470	SCS215a	20090511.121252	20090511.123933	8	0.013328	60	10	60-180	60	167	GapExp	0	152	2	6	1	target	1	307	847	137102	13.328	13.293	13.363
ProbeTrack09	10	ProbeTrack	1470	SCS215a	20090511.121252	20090511.123941	8	0.013328	60	10	60-180	60	108	GapExp	0	153	2	0	1	target	1	307	847	137949	13.328	13.292	13.363
ProbeTrack09	10	ProbeTrack	1470	SCS215a	20090511.121252	20090511.123946	8	0.013328	60	10	60-180	60	137	GapExp	0	154	2	96	1	target	1	360	820	138769	13.328	13.292	13.364
ProbeTrack09	10	ProbeTrack	1470	SCS215a	20090511.121252	20090511.123955	8	0.013328	60	10	60-180	60	66	GapExp	0	155	2	96	0	distractor	1	334	833	139602	13.328	13.293	13.363
ProbeTrack09	10	ProbeTrack	1470	SCS215a	20090511.121252	20090511.124007	8	0.013328	60	10	60-180	60	115	GapExp	0	156	2	0	1	target	1	454	773	140375	13.328	13.293	13.363
ProbeTrack09	10	ProbeTrack	1470	SCS215a	20090511.121252	20090511.124013	8	0.013328	60	10	60-180	60	101	GapExp	0	157	2	96	0	distractor	1	467	767	141142	13.328	13.293	13.363
ProbeTrack09	10	ProbeTrack	1470	SCS215a	20090511.121252	20090511.124030	8	0.013328	60	10	60-180	60	126	GapExp	0	158	2	96	0	distractor	1	480	760	141902	13.328	13.293	13.363
ProbeTrack09	10	ProbeTrack	1470	SCS215a	20090511.121252	20090511.124044	8	0.013328	60	10	60-180	60	75	GapExp	0	159	2	0	0	distractor	1	547	727	142629	13.328	13.293	13.363
ProbeTrack09	10	ProbeTrack	1470	SCS215a	20090511.121252	20090511.124100	8	0.013328	60	10	60-180	60	170	GapExp	0	160	2	3	0	distractor	1	440	780	143409	13.328	13.293	13.363
ProbeTrack09	10	ProbeTrack	1470	SCS215a	20090511.121252	20090511.124107	8	0.013328	60	10	60-180	60	155	GapExp	0	161	2	0	0	distractor	1	547	727	144136	13.328	13.293	13.363
ProbeTrack09	10	ProbeTrack	1470	SCS215a	20090511.121252	20090511.124123	8	0.013328	60	10	60-180	60	92	GapExp	0	162	2	3	1	target	1	414	793	144929	13.328	13.293	13.363
ProbeTrack09	10	ProbeTrack	1470	SCS215a	20090511.121252	20090511.124129	8	0.013328	60	10	60-180	60	94	GapExp	0	163	2	6	0	distractor	1	414	793	145722	13.328	13.293	13.364
ProbeTrack09	10	ProbeTrack	1470	SCS215a	20090511.121252	20090511.124138	8	0.013328	60	10	60-180	60	119	GapExp	0	164	2	0	0	distractor	1	534	733	146455	13.328	13.293	13.364
ProbeTrack09	10	ProbeTrack	1470	SCS215a	20090511.121252	20090511.124144	8	0.013328	60	10	60-180	60	173	GapExp	0	165	2	96	1	target	1	507	747	147202	13.328	13.293	13.364
ProbeTrack09	10	ProbeTrack	1470	SCS215a	20090511.121252	20090511.124152	8	0.013328	60	10	60-180	60	105	GapExp	0	166	2	3	0	distractor	1	480	760	147962	13.328	13.293	13.363
ProbeTrack09	10	ProbeTrack	1470	SCS215a	20090511.121252	20090511.124201	8	0.013328	60	10	60-180	60	172	GapExp	0	167	2	96	0	distractor	1	414	793	148755	13.328	13.292	13.363
ProbeTrack09	10	ProbeTrack	1470	SCS215a	20090511.121252	20090511.124211	8	0.013328	60	10	60-180	60	151	GapExp	0	168	2	96	0	distractor	1	507	747	149502	13.328	13.293	13.363
ProbeTrack09	10	ProbeTrack	1470	SCS215a	20090511.121252	20090511.124228	8	0.013328	60	10	60-180	60	97	GapExp	0	169	2	0	0	distractor	1	560	720	150222	13.328	13.293	13.363
ProbeTrack09	10	ProbeTrack	1470	SCS215a	20090511.121252	20090511.124235	8	0.013328	60	10	60-180	60	116	GapExp	0	170	2	96	0	distractor	1	467	767	150989	13.328	13.293	13.363
ProbeTrack09	10	ProbeTrack	1470	SCS215a	20090511.121252	20090511.124243	8	0.013328	60	10	60-180	60	138	GapExp	0	171	2	3	1	target	1	374	813	151802	13.328	13.290	13.365
ProbeTrack09	10	ProbeTrack	1470	SCS215a	20090511.121252	20090511.124249	8	0.013328	60	10	60-180	60	90	GapExp	0	172	2	3	0	distractor	1	454	773	152575	13.328	13.293	13.366
ProbeTrack09	10	ProbeTrack	1470	SCS215a	20090511.121252	20090511.124255	8	0.013328	60	10	60-180	60	86	GapExp	0	173	2	3	0	distractor	1	707	647	153222	13.328	13.293	13.363
ProbeTrack09	10	ProbeTrack	1470	SCS215a	20090511.121252	20090511.124302	8	0.013328	60	10	60-180	60	163	GapExp	0	174	2	6	0	distractor	1	427	787	154009	13.328	13.290	13.363
ProbeTrack09	10	ProbeTrack	1470	SCS215a	20090511.121252	20090511.124309	8	0.013328	60	10	60-180	60	127	GapExp	0	175	2	6	1	target	1	414	793	154802	13.328	13.290	13.366
ProbeTrack09	10	ProbeTrack	1470	SCS215a	20090511.121252	20090511.124316	8	0.013328	60	10	60-180	60	152	GapExp	0	176	2	0	1	target	1	400	800	155602	13.328	13.289	13.366
ProbeTrack09	10	ProbeTrack	1470	SCS215a	20090511.121252	20090511.124323	8	0.013328	60	10	60-180	60	175	GapExp	0	177	2	0	0	distractor	1	440	780	156382	13.328	13.293	13.363
ProbeTrack09	10	ProbeTrack	1470	SCS215a	20090511.121252	20090511.124330	8	0.013328	60	10	60-180	60	75	GapExp	0	178	2	96	0	target	0	414	-1000	155382	13.328	13.293	13.363
ProbeTrack09	10	ProbeTrack	1470	SCS215a	20090511.121252	20090511.124338	8	0.013328	60	10	60-180	60	71	GapExp	0	179	2	96	1	target	1	400	800	156182	13.328	13.293	13.363
ProbeTrack09	10	ProbeTrack	1470	SCS215a	20090511.121252	20090511.124345	8	0.013328	60	10	60-180	60	125	GapExp	0	180	2	6	1	target	1	600	700	156882	13.328	13.293	13.363
ProbeTrack09	10	ProbeTrack	1470	SCS215a	20090511.121252	20090511.124352	8	0.013328	60	10	60-180	60	139	GapExp	0	181	2	3	1	target	1	454	773	157655	13.328	13.292	13.363
ProbeTrack09	10	ProbeTrack	1470	SCS215a	20090511.121252	20090511.124358	8	0.013328	60	10	60-180	60	156	GapExp	0	182	2	6	0	distractor	1	454	773	158428	13.328	13.293	13.363
ProbeTrack09	10	ProbeTrack	1470	SCS215a	20090511.121252	20090511.124407	8	0.013328	60	10	60-180	60	79	GapExp	0	183	2	6	0	distractor	1	533	734	159162	13.328	13.293	13.363
ProbeTrack09	10	ProbeTrack	1470	SCS215a	20090511.121252	20090511.124412	8	0.013328	60	10	60-180	60	94	GapExp	0	184	2	0	1	target	1	347	827	159989	13.328	13.293	13.363
ProbeTrack09	10	ProbeTrack	1470	SCS215a	20090511.121252	20090511.124418	8	0.013328	60	10	60-180	60	78	GapExp	0	185	2	3	1	target	1	427	787	160776	13.328	13.293	13.363
ProbeTrack09	10	ProbeTrack	1470	SCS215a	20090511.121252	20090511.124423	8	0.013328	60	10	60-180	60	178	GapExp	0	186	2	3	1	target	1	440	780	161556	13.328	13.293	13.363
ProbeTrack09	10	ProbeTrack	1470	SCS215a	20090511.121252	20090511.124429	8	0.013328	60	10	60-180	60	136	GapExp	0	187	2	3	0	target	0	334	-1000	160556	13.328	13.293	13.363
ProbeTrack09	10	ProbeTrack	1470	SCS215a	20090511.121252	20090511.124438	8	0.013328	60	10	60-180	60	161	GapExp	0	188	2	0	0	distractor	1	454	773	161329	13.328	13.293	13.364
ProbeTrack09	10	ProbeTrack	1470	SCS215a	20090511.121252	20090511.124444	8	0.013328	60	10	60-180	60	107	GapExp	0	189	2	0	1	target	1	347	827	162156	13.328	13.293	13.363
ProbeTrack09	10	ProbeTrack	1470	SCS215a	20090511.121252	20090511.124450	8	0.013328	60	10	60-180	60	125	GapExp	0	190	2	3	1	target	1	334	833	162989	13.328	13.293	13.364
ProbeTrack09	10	ProbeTrack	1470	SCS215a	20090511.121252	20090511.124457	8	0.013328	60	10	60-180	60	128	GapExp	0	191	2	3	1	target	1	334	833	163822	13.328	13.293	13.363
ProbeTrack09	10	ProbeTrack	1470	SCS215a	20090511.121252	20090511.124503	8	0.013328	60	10	60-180	60	176	GapExp	0	192	2	3	1	target	1	387	807	164629	13.328	13.293	13.364
ProbeTrack09	10	ProbeTrack	1470	SCS215a	20090511.121252	20090511.124510	8	0.013328	60	10	60-180	60	89	GapExp	0	193	2	0	1	target	1	387	807	165436	13.328	13.293	13.363
ProbeTrack09	10	ProbeTrack	1470	SCS215a	20090511.121252	20090511.124515	8	0.013328	60	10	60-180	60	149	GapExp	0	194	2	3	1	target	1	427	787	166223	13.328	13.293	13.363
ProbeTrack09	10	ProbeTrack	1470	SCS215a	20090511.121252	20090511.124521	8	0.013328	60	10	60-180	60	117	GapExp	0	195	2	96	0	distractor	1	507	747	166970	13.328	13.293	13.363
ProbeTrack09	10	ProbeTrack	1470	SCS215a	20090511.121252	20090511.124529	8	0.013328	60	10	60-180	60	109	GapExp	0	196	2	96	0	distractor	1	693	654	167624	13.328	13.293	13.363
ProbeTrack09	10	ProbeTrack	1470	SCS215a	20090511.121252	20090511.124536	8	0.013328	60	10	60-180	60	120	GapExp	0	197	2	6	0	distractor	1	480	760	168384	13.328	13.293	13.363
ProbeTrack09	10	ProbeTrack	1470	SCS215a	20090511.121252	20090511.124543	8	0.013328	60	10	60-180	60	138	GapExp	0	198	2	6	0	distractor	1	467	767	169151	13.328	13.293	13.363
ProbeTrack09	10	ProbeTrack	1470	SCS215a	20090511.121252	20090511.124549	8	0.013328	60	10	60-180	60	125	GapExp	0	199	2	6	1	distractor	0	653	-1000	168151	13.328	13.293	13.363
ProbeTrack09	10	ProbeTrack	1470	SCS215a	20090511.121252	20090511.124555	8	0.013328	60	10	60-180	60	68	GapExp	0	200	2	3	0	distractor	1	520	740	168891	13.328	13.293	13.363
ProbeTrack09	10	ProbeTrack	1470	SCS215a	20090511.125429	20090511.125434	8	0.013328	60	10	60-180	60	111	GapPrac	1	1	2	96	0	distractor	1	600	700	169591	13.328	13.289	13.368
ProbeTrack09	10	ProbeTrack	1470	SCS215a	20090511.125429	20090511.125444	8	0.013328	60	10	60-180	60	72	GapPrac	1	2	2	0	0	distractor	1	1053	474	170065	13.328	13.293	13.363
ProbeTrack09	10	ProbeTrack	1470	SCS215a	20090511.125429	20090511.125456	8	0.013328	60	10	60-180	60	168	GapPrac	1	3	2	6	1	target	1	827	587	170652	13.328	13.293	13.363
ProbeTrack09	10	ProbeTrack	1470	SCS215a	20090511.125429	20090511.125504	8	0.013328	60	10	60-180	60	159	GapPrac	1	4	2	0	1	target	1	933	534	171186	13.328	13.293	13.363
ProbeTrack09	10	ProbeTrack	1470	SCS215a	20090511.125429	20090511.125512	8	0.013328	60	10	60-180	60	83	GapPrac	1	5	2	0	1	target	1	374	813	171999	13.328	13.293	13.363
ProbeTrack09	10	ProbeTrack	1470	SCS215a	20090511.125429	20090511.125519	8	0.013328	60	10	60-180	60	97	GapPrac	1	6	2	0	0	distractor	1	640	680	172679	13.328	13.291	13.363
ProbeTrack09	10	ProbeTrack	1470	SCS215a	20090511.125429	20090511.125525	8	0.013328	60	10	60-180	60	108	GapPrac	1	7	2	3	1	target	1	480	760	173439	13.328	13.293	13.364
ProbeTrack09	10	ProbeTrack	1470	SCS215a	20090511.125429	20090511.125531	8	0.013328	60	10	60-180	60	66	GapPrac	1	8	2	96	0	distractor	1	653	674	174113	13.328	13.293	13.363
ProbeTrack09	10	ProbeTrack	1470	SCS215a	20090511.125429	20090511.125538	8	0.013328	60	10	60-180	60	116	GapPrac	1	9	2	0	1	target	1	520	740	174853	13.328	13.293	13.364
ProbeTrack09	10	ProbeTrack	1470	SCS215a	20090511.125429	20090511.125544	8	0.013328	60	10	60-180	60	151	GapPrac	1	10	2	0	0	distractor	1	547	727	175580	13.328	13.293	13.363
ProbeTrack09	10	ProbeTrack	1470	SCS215a	20090511.125429	20090511.125551	8	0.013328	60	10	60-180	60	101	GapPrac	1	11	2	96	1	target	1	440	780	176360	13.328	13.293	13.363
ProbeTrack09	10	ProbeTrack	1470	SCS215a	20090511.125429	20090511.125558	8	0.013328	60	10	60-180	60	73	GapPrac	1	12	2	6	0	distractor	1	560	720	177080	13.328	13.293	13.364
ProbeTrack09	10	ProbeTrack	1470	SCS215a	20090511.125429	20090511.125604	8	0.013328	60	10	60-180	60	162	GapPrac	1	13	2	6	0	distractor	1	547	727	177807	13.328	13.293	13.363
ProbeTrack09	10	ProbeTrack	1470	SCS215a	20090511.125429	20090511.125611	8	0.013328	60	10	60-180	60	70	GapPrac	1	14	2	3	1	target	1	600	700	178507	13.328	13.293	13.363
ProbeTrack09	10	ProbeTrack	1470	SCS215a	20090511.125429	20090511.125616	8	0.013328	60	10	60-180	60	138	GapPrac	1	15	2	96	0	distractor	1	627	687	179194	13.328	13.292	13.363
ProbeTrack09	10	ProbeTrack	1470	SCS215a	20090511.125429	20090511.125624	8	0.013328	60	10	60-180	60	180	GapPrac	1	16	2	6	1	target	1	560	720	179914	13.328	13.290	13.366
ProbeTrack09	10	ProbeTrack	1470	SCS215a	20090511.125429	20090511.125631	8	0.013328	60	10	60-180	60	90	GapPrac	1	17	2	96	1	target	1	427	787	180701	13.328	13.290	13.366
ProbeTrack09	10	ProbeTrack	1470	SCS215a	20090511.125429	20090511.125638	8	0.013328	60	10	60-180	60	168	GapPrac	1	18	2	3	0	distractor	1	667	667	181368	13.328	13.293	13.363
ProbeTrack09	10	ProbeTrack	1470	SCS215a	20090511.125429	20090511.125645	8	0.013328	60	10	60-180	60	173	GapPrac	1	19	2	3	0	target	0	600	-1000	180368	13.328	13.293	13.363
ProbeTrack09	10	ProbeTrack	1470	SCS215a	20090511.125429	20090511.125652	8	0.013328	60	10	60-180	60	172	GapPrac	1	20	2	6	1	distractor	0	520	-1000	179368	13.328	13.293	13.363
