exp	sub	code	rev	comp	runtime	trialtime	nstim	refreshdur	cuedur	gapdur	gapOnsetRange	durPostProbe	gapOnsetTime	blocktype	prac	trial	ntargets	soa	probeTarget	resp	acc	rt	pts	tpts	meanFrameDur	minFrameDur	maxFrameDur
ProbeTrack09	3	ProbeTrack	1470	SCS215a	20090501.103516	20090501.103528	8	0.013328	60	0	60-180	60	92	NoGap	1	1	2	3	0	distractor	1	907	547	547	13.328	13.292	13.363
ProbeTrack09	3	ProbeTrack	1470	SCS215a	20090501.103516	20090501.103556	8	0.013328	60	0	60-180	60	150	NoGap	1	2	2	96	1	target	1	427	787	1334	13.328	13.273	13.363
ProbeTrack09	3	ProbeTrack	1470	SCS215a	20090501.103516	20090501.103616	8	0.013328	60	0	60-180	60	90	NoGap	1	3	2	3	0	distractor	1	374	813	2147	13.327	13.293	13.363
ProbeTrack09	3	ProbeTrack	1470	SCS215a	20090501.103516	20090501.103622	8	0.013328	60	0	60-180	60	69	NoGap	1	4	2	0	1	target	1	374	813	2960	13.328	13.292	13.363
ProbeTrack09	3	ProbeTrack	1470	SCS215a	20090501.103516	20090501.103628	8	0.013328	60	0	60-180	60	114	NoGap	1	5	2	96	0	distractor	1	453	774	3734	13.328	13.293	13.363
ProbeTrack09	3	ProbeTrack	1470	SCS215a	20090501.103516	20090501.103646	8	0.013328	60	0	60-180	60	93	NoGap	1	6	2	6	0	target	0	467	-1000	2734	13.327	13.293	13.363
ProbeTrack09	3	ProbeTrack	1470	SCS215a	20090501.103516	20090501.103652	8	0.013328	60	0	60-180	60	114	NoGap	1	7	2	6	1	target	1	320	840	3574	13.328	13.293	13.363
ProbeTrack09	3	ProbeTrack	1470	SCS215a	20090501.103516	20090501.103658	8	0.013328	60	0	60-180	60	162	NoGap	1	8	2	96	1	target	1	467	767	4341	13.328	13.293	13.363
ProbeTrack09	3	ProbeTrack	1470	SCS215a	20090501.103516	20090501.103706	8	0.013328	60	0	60-180	60	178	NoGap	1	9	2	6	0	distractor	1	400	800	5141	13.328	13.292	13.363
ProbeTrack09	3	ProbeTrack	1470	SCS215a	20090501.103516	20090501.103713	8	0.013328	60	0	60-180	60	84	NoGap	1	10	2	3	1	distractor	0	414	-1000	4141	13.327	13.292	13.366
ProbeTrack09	3	ProbeTrack	1470	SCS215a	20090501.103516	20090501.103719	8	0.013328	60	0	60-180	60	96	NoGap	1	11	2	96	1	target	1	387	807	4948	13.328	13.292	13.363
ProbeTrack09	3	ProbeTrack	1470	SCS215a	20090501.103516	20090501.103726	8	0.013328	60	0	60-180	60	96	NoGap	1	12	2	3	0	distractor	1	400	800	5748	13.328	13.293	13.363
ProbeTrack09	3	ProbeTrack	1470	SCS215a	20090501.103516	20090501.103732	8	0.013328	60	0	60-180	60	68	NoGap	1	13	2	3	1	target	1	347	827	6575	13.327	13.293	13.362
ProbeTrack09	3	ProbeTrack	1470	SCS215a	20090501.103516	20090501.103737	8	0.013328	60	0	60-180	60	106	NoGap	1	14	2	96	0	distractor	1	440	780	7355	13.328	13.293	13.363
ProbeTrack09	3	ProbeTrack	1470	SCS215a	20090501.103516	20090501.103744	8	0.013328	60	0	60-180	60	65	NoGap	1	15	2	3	1	target	1	387	807	8162	13.328	13.293	13.362
ProbeTrack09	3	ProbeTrack	1470	SCS215a	20090501.103516	20090501.103749	8	0.013328	60	0	60-180	60	88	NoGap	1	16	2	3	1	target	1	347	827	8989	13.327	13.292	13.363
ProbeTrack09	3	ProbeTrack	1470	SCS215a	20090501.103516	20090501.103755	8	0.013328	60	0	60-180	60	132	NoGap	1	17	2	96	1	target	1	347	827	9816	13.328	13.293	13.363
ProbeTrack09	3	ProbeTrack	1470	SCS215a	20090501.103516	20090501.103802	8	0.013328	60	0	60-180	60	101	NoGap	1	18	2	3	0	distractor	1	613	694	10510	13.328	13.293	13.363
ProbeTrack09	3	ProbeTrack	1470	SCS215a	20090501.103516	20090501.103808	8	0.013328	60	0	60-180	60	110	NoGap	1	19	2	0	1	target	1	347	827	11337	13.327	13.292	13.363
ProbeTrack09	3	ProbeTrack	1470	SCS215a	20090501.103516	20090501.103814	8	0.013328	60	0	60-180	60	122	NoGap	1	20	2	3	0	distractor	1	374	813	12150	13.328	13.293	13.363
ProbeTrack09	3	ProbeTrack	1470	SCS215a	20090501.103516	20090501.103820	8	0.013328	60	0	60-180	60	170	NoGap	1	21	2	3	1	target	1	494	753	12903	13.328	13.293	13.363
ProbeTrack09	3	ProbeTrack	1470	SCS215a	20090501.103516	20090501.103827	8	0.013328	60	0	60-180	60	129	NoGap	1	22	2	0	1	target	1	387	807	13710	13.327	13.289	13.367
ProbeTrack09	3	ProbeTrack	1470	SCS215a	20090501.103516	20090501.103833	8	0.013328	60	0	60-180	60	104	NoGap	1	23	2	6	1	target	1	427	787	14497	13.328	13.292	13.363
ProbeTrack09	3	ProbeTrack	1470	SCS215a	20090501.103516	20090501.103839	8	0.013328	60	0	60-180	60	136	NoGap	1	24	2	96	1	target	1	347	827	15324	13.328	13.293	13.363
ProbeTrack09	3	ProbeTrack	1470	SCS215a	20090501.103516	20090501.103846	8	0.013328	60	0	60-180	60	102	NoGap	1	25	2	6	0	distractor	1	494	753	16077	13.327	13.293	13.363
ProbeTrack09	3	ProbeTrack	1470	SCS215a	20090501.103516	20090501.103852	8	0.013328	60	0	60-180	60	87	NoGap	1	26	2	6	0	distractor	1	454	773	16850	13.328	13.293	13.363
ProbeTrack09	3	ProbeTrack	1470	SCS215a	20090501.103516	20090501.103858	8	0.013328	60	0	60-180	60	62	NoGap	1	27	2	0	0	distractor	1	387	807	17657	13.328	13.293	13.363
ProbeTrack09	3	ProbeTrack	1470	SCS215a	20090501.103516	20090501.103903	8	0.013328	60	0	60-180	60	144	NoGap	1	28	2	0	0	distractor	1	334	833	18490	13.327	13.293	13.363
ProbeTrack09	3	ProbeTrack	1470	SCS215a	20090501.103516	20090501.103910	8	0.013328	60	0	60-180	60	150	NoGap	1	29	2	6	1	target	1	334	833	19323	13.328	13.293	13.363
ProbeTrack09	3	ProbeTrack	1470	SCS215a	20090501.103516	20090501.103916	8	0.013328	60	0	60-180	60	92	NoGap	1	30	2	6	1	target	1	400	800	20123	13.328	13.293	13.363
ProbeTrack09	3	ProbeTrack	1470	SCS215a	20090501.103516	20090501.103921	8	0.013328	60	0	60-180	60	63	NoGap	1	31	2	96	0	distractor	1	374	813	20936	13.328	13.293	13.363
ProbeTrack09	3	ProbeTrack	1470	SCS215a	20090501.103516	20090501.103928	8	0.013328	60	0	60-180	60	154	NoGap	1	32	2	0	1	target	1	400	800	21736	13.328	13.292	13.363
ProbeTrack09	3	ProbeTrack	1470	SCS215a	20090501.103516	20090501.103935	8	0.013328	60	0	60-180	60	118	NoGap	1	33	2	96	0	distractor	1	494	753	22489	13.328	13.292	13.363
ProbeTrack09	3	ProbeTrack	1470	SCS215a	20090501.103516	20090501.103942	8	0.013328	60	0	60-180	60	82	NoGap	1	34	2	6	0	distractor	1	534	733	23222	13.328	13.293	13.363
ProbeTrack09	3	ProbeTrack	1470	SCS215a	20090501.103516	20090501.104000	8	0.013328	60	0	60-180	60	134	NoGap	1	35	2	6	0	distractor	1	547	727	23949	13.328	13.292	13.363
ProbeTrack09	3	ProbeTrack	1470	SCS215a	20090501.103516	20090501.104007	8	0.013328	60	0	60-180	60	67	NoGap	1	36	2	0	1	distractor	0	400	-1000	22949	13.327	13.293	13.363
ProbeTrack09	3	ProbeTrack	1470	SCS215a	20090501.103516	20090501.104012	8	0.013328	60	0	60-180	60	121	NoGap	1	37	2	96	0	distractor	1	440	780	23729	13.328	13.293	13.363
ProbeTrack09	3	ProbeTrack	1470	SCS215a	20090501.103516	20090501.104019	8	0.013328	60	0	60-180	60	81	NoGap	1	38	2	96	1	target	1	427	787	24516	13.328	13.293	13.363
ProbeTrack09	3	ProbeTrack	1470	SCS215a	20090501.103516	20090501.104026	8	0.013328	60	0	60-180	60	166	NoGap	1	39	2	0	0	distractor	1	374	813	25329	13.328	13.293	13.366
ProbeTrack09	3	ProbeTrack	1470	SCS215a	20090501.103516	20090501.104033	8	0.013328	60	0	60-180	60	73	NoGap	1	40	2	96	0	distractor	1	387	807	26136	13.328	13.292	13.363
ProbeTrack09	3	ProbeTrack	1470	SCS215a	20090501.103516	20090501.104039	8	0.013328	60	0	60-180	60	92	NoGap	1	41	2	3	1	distractor	0	387	-1000	25136	13.328	13.292	13.363
ProbeTrack09	3	ProbeTrack	1470	SCS215a	20090501.103516	20090501.104045	8	0.013328	60	0	60-180	60	129	NoGap	1	42	2	6	0	distractor	1	440	780	25916	13.328	13.291	13.363
ProbeTrack09	3	ProbeTrack	1470	SCS215a	20090501.103516	20090501.104052	8	0.013328	60	0	60-180	60	106	NoGap	1	43	2	0	1	target	1	374	813	26729	13.328	13.293	13.363
ProbeTrack09	3	ProbeTrack	1470	SCS215a	20090501.103516	20090501.104058	8	0.013328	60	0	60-180	60	64	NoGap	1	44	2	0	0	distractor	1	480	760	27489	13.328	13.293	13.363
ProbeTrack09	3	ProbeTrack	1470	SCS215a	20090501.103516	20090501.104104	8	0.013328	60	0	60-180	60	96	NoGap	1	45	2	96	1	target	1	374	813	28302	13.328	13.293	13.363
ProbeTrack09	3	ProbeTrack	1470	SCS215a	20090501.103516	20090501.104110	8	0.013328	60	0	60-180	60	163	NoGap	1	46	2	3	0	distractor	1	427	787	29089	13.328	13.293	13.363
ProbeTrack09	3	ProbeTrack	1470	SCS215a	20090501.103516	20090501.104117	8	0.013328	60	0	60-180	60	147	NoGap	1	47	2	6	1	target	1	440	780	29869	13.328	13.293	13.363
ProbeTrack09	3	ProbeTrack	1470	SCS215a	20090501.103516	20090501.104123	8	0.013328	60	0	60-180	60	98	NoGap	1	48	2	3	0	distractor	1	440	780	30649	13.327	13.292	13.362
ProbeTrack09	3	ProbeTrack	1470	SCS215a	20090501.103516	20090501.104129	8	0.013328	60	0	60-180	60	84	NoGap	1	49	2	6	1	target	1	400	800	31449	13.328	13.293	13.362
ProbeTrack09	3	ProbeTrack	1470	SCS215a	20090501.103516	20090501.104135	8	0.013328	60	0	60-180	60	157	NoGap	1	50	2	0	0	distractor	1	414	793	32242	13.328	13.293	13.363
ProbeTrack09	3	ProbeTrack	1470	SCS215a	20090501.104248	20090501.104302	8	0.013327	60	10	60-180	60	168	GapPrac	1	1	2	6	1	target	1	587	707	32949	13.328	13.293	13.363
ProbeTrack09	3	ProbeTrack	1470	SCS215a	20090501.104248	20090501.104311	8	0.013327	60	10	60-180	60	152	GapPrac	1	2	2	3	1	target	1	440	780	33729	13.328	13.293	13.363
ProbeTrack09	3	ProbeTrack	1470	SCS215a	20090501.104248	20090501.104320	8	0.013327	60	10	60-180	60	139	GapPrac	1	3	2	96	1	target	1	440	780	34509	13.328	13.293	13.363
ProbeTrack09	3	ProbeTrack	1470	SCS215a	20090501.104248	20090501.104328	8	0.013327	60	10	60-180	60	177	GapPrac	1	4	2	0	1	target	1	467	767	35276	13.328	13.293	13.363
ProbeTrack09	3	ProbeTrack	1470	SCS215a	20090501.104248	20090501.104335	8	0.013327	60	10	60-180	60	63	GapPrac	1	5	2	0	0	distractor	1	667	667	35943	13.328	13.291	13.363
ProbeTrack09	3	ProbeTrack	1470	SCS215a	20090501.104248	20090501.104341	8	0.013327	60	10	60-180	60	113	GapPrac	1	6	2	3	1	distractor	0	534	-1000	34943	13.328	13.293	13.363
ProbeTrack09	3	ProbeTrack	1470	SCS215a	20090501.104248	20090501.104347	8	0.013327	60	10	60-180	60	95	GapPrac	1	7	2	0	0	target	0	667	-1000	33943	13.328	13.200	13.456
ProbeTrack09	3	ProbeTrack	1470	SCS215a	20090501.104248	20090501.104353	8	0.013327	60	10	60-180	60	67	GapPrac	1	8	2	6	1	target	1	414	793	34736	13.328	13.293	13.363
ProbeTrack09	3	ProbeTrack	1470	SCS215a	20090501.104248	20090501.104359	8	0.013327	60	10	60-180	60	176	GapPrac	1	9	2	6	1	target	1	414	793	35529	13.328	13.292	13.363
ProbeTrack09	3	ProbeTrack	1470	SCS215a	20090501.104248	20090501.104406	8	0.013327	60	10	60-180	60	165	GapPrac	1	10	2	3	0	distractor	1	733	634	36163	13.328	13.293	13.364
ProbeTrack09	3	ProbeTrack	1470	SCS215a	20090501.104248	20090501.104413	8	0.013327	60	10	60-180	60	99	GapPrac	1	11	2	0	1	target	1	440	780	36943	13.328	13.293	13.363
ProbeTrack09	3	ProbeTrack	1470	SCS215a	20090501.104248	20090501.104419	8	0.013327	60	10	60-180	60	80	GapPrac	1	12	2	3	0	distractor	1	507	747	37690	13.327	13.293	13.364
ProbeTrack09	3	ProbeTrack	1470	SCS215a	20090501.104248	20090501.104424	8	0.013327	60	10	60-180	60	137	GapPrac	1	13	2	6	0	distractor	1	480	760	38450	13.328	13.293	13.366
ProbeTrack09	3	ProbeTrack	1470	SCS215a	20090501.104248	20090501.104431	8	0.013327	60	10	60-180	60	106	GapPrac	1	14	2	96	0	distractor	1	454	773	39223	13.328	13.293	13.363
ProbeTrack09	3	ProbeTrack	1470	SCS215a	20090501.104248	20090501.104438	8	0.013327	60	10	60-180	60	69	GapPrac	1	15	2	6	0	distractor	1	547	727	39950	13.328	13.293	13.363
ProbeTrack09	3	ProbeTrack	1470	SCS215a	20090501.104248	20090501.104444	8	0.013327	60	10	60-180	60	134	GapPrac	1	16	2	3	1	target	1	480	760	40710	13.328	13.291	13.363
ProbeTrack09	3	ProbeTrack	1470	SCS215a	20090501.104248	20090501.104450	8	0.013327	60	10	60-180	60	123	GapPrac	1	17	2	96	1	target	1	440	780	41490	13.328	13.292	13.366
ProbeTrack09	3	ProbeTrack	1470	SCS215a	20090501.104248	20090501.104458	8	0.013327	60	10	60-180	60	173	GapPrac	1	18	2	96	1	distractor	0	440	-1000	40490	13.328	13.293	13.363
ProbeTrack09	3	ProbeTrack	1470	SCS215a	20090501.104248	20090501.104506	8	0.013327	60	10	60-180	60	94	GapPrac	1	19	2	96	0	distractor	1	1000	500	40990	13.328	13.293	13.365
ProbeTrack09	3	ProbeTrack	1470	SCS215a	20090501.104248	20090501.104514	8	0.013327	60	10	60-180	60	120	GapPrac	1	20	2	0	1	distractor	0	467	-1000	39990	13.328	13.293	13.363
ProbeTrack09	3	ProbeTrack	1470	SCS215a	20090501.104624	20090501.104633	8	0.013328	60	10	60-180	60	139	GapExp	1	1	2	0	0	distractor	1	507	747	40737	13.328	13.293	13.363
ProbeTrack09	3	ProbeTrack	1470	SCS215a	20090501.104624	20090501.104639	8	0.013328	60	10	60-180	60	89	GapExp	1	2	2	0	1	target	1	400	800	41537	13.327	13.289	13.363
ProbeTrack09	3	ProbeTrack	1470	SCS215a	20090501.104624	20090501.104645	8	0.013328	60	10	60-180	60	164	GapExp	1	3	2	3	1	target	1	414	793	42330	13.328	13.292	13.363
ProbeTrack09	3	ProbeTrack	1470	SCS215a	20090501.104624	20090501.104652	8	0.013328	60	10	60-180	60	80	GapExp	1	4	2	3	0	distractor	1	347	827	43157	13.328	13.293	13.363
ProbeTrack09	3	ProbeTrack	1470	SCS215a	20090501.104624	20090501.104658	8	0.013328	60	10	60-180	60	129	GapExp	1	5	2	6	1	target	1	440	780	43937	13.328	13.293	13.363
ProbeTrack09	3	ProbeTrack	1470	SCS215a	20090501.104624	20090501.104704	8	0.013328	60	10	60-180	60	108	GapExp	1	6	2	96	0	distractor	1	387	807	44744	13.328	13.293	13.363
ProbeTrack09	3	ProbeTrack	1470	SCS215a	20090501.104624	20090501.104711	8	0.013328	60	10	60-180	60	77	GapExp	1	7	2	6	0	target	0	507	-1000	43744	13.328	13.293	13.363
ProbeTrack09	3	ProbeTrack	1470	SCS215a	20090501.104624	20090501.104716	8	0.013328	60	10	60-180	60	73	GapExp	1	8	2	96	1	target	1	467	767	44511	13.328	13.292	13.363
ProbeTrack09	3	ProbeTrack	1470	SCS215a	20090501.104624	20090501.104723	8	0.013328	60	10	60-180	60	114	GapExp	0	9	2	0	0	target	0	480	-1000	43511	13.328	13.293	13.363
ProbeTrack09	3	ProbeTrack	1470	SCS215a	20090501.104624	20090501.104729	8	0.013328	60	10	60-180	60	124	GapExp	0	10	2	6	0	distractor	1	440	780	44291	13.327	13.293	13.366
ProbeTrack09	3	ProbeTrack	1470	SCS215a	20090501.104624	20090501.104736	8	0.013328	60	10	60-180	60	113	GapExp	0	11	2	96	1	target	1	414	793	45084	13.328	13.293	13.363
ProbeTrack09	3	ProbeTrack	1470	SCS215a	20090501.104624	20090501.104743	8	0.013328	60	10	60-180	60	154	GapExp	0	12	2	96	1	distractor	0	467	-1000	44084	13.328	13.293	13.363
ProbeTrack09	3	ProbeTrack	1470	SCS215a	20090501.104624	20090501.104751	8	0.013328	60	10	60-180	60	87	GapExp	0	13	2	0	1	target	1	427	787	44871	13.328	13.293	13.363
ProbeTrack09	3	ProbeTrack	1470	SCS215a	20090501.104624	20090501.104757	8	0.013328	60	10	60-180	60	160	GapExp	0	14	2	0	1	target	1	347	827	45698	13.328	13.293	13.363
ProbeTrack09	3	ProbeTrack	1470	SCS215a	20090501.104624	20090501.104803	8	0.013328	60	10	60-180	60	153	GapExp	0	15	2	0	0	target	0	427	-1000	44698	13.328	13.293	13.363
ProbeTrack09	3	ProbeTrack	1470	SCS215a	20090501.104624	20090501.104809	8	0.013328	60	10	60-180	60	129	GapExp	0	16	2	0	1	target	1	360	820	45518	13.328	13.292	13.363
ProbeTrack09	3	ProbeTrack	1470	SCS215a	20090501.104624	20090501.104816	8	0.013328	60	10	60-180	60	148	GapExp	0	17	2	96	0	distractor	1	560	720	46238	13.328	13.293	13.366
ProbeTrack09	3	ProbeTrack	1470	SCS215a	20090501.104624	20090501.104824	8	0.013328	60	10	60-180	60	96	GapExp	0	18	2	96	1	target	1	334	833	47071	13.328	13.292	13.363
ProbeTrack09	3	ProbeTrack	1470	SCS215a	20090501.104624	20090501.104831	8	0.013328	60	10	60-180	60	63	GapExp	0	19	2	0	0	target	0	440	-1000	46071	13.328	13.293	13.366
ProbeTrack09	3	ProbeTrack	1470	SCS215a	20090501.104624	20090501.104836	8	0.013328	60	10	60-180	60	137	GapExp	0	20	2	0	0	target	0	587	-1000	45071	13.328	13.293	13.363
ProbeTrack09	3	ProbeTrack	1470	SCS215a	20090501.104624	20090501.104842	8	0.013328	60	10	60-180	60	101	GapExp	0	21	2	3	0	distractor	1	467	767	45838	13.328	13.293	13.365
ProbeTrack09	3	ProbeTrack	1470	SCS215a	20090501.104624	20090501.104848	8	0.013328	60	10	60-180	60	109	GapExp	0	22	2	6	0	distractor	1	507	747	46585	13.328	13.293	13.363
ProbeTrack09	3	ProbeTrack	1470	SCS215a	20090501.104624	20090501.104854	8	0.013328	60	10	60-180	60	85	GapExp	0	23	2	3	0	distractor	1	387	807	47392	13.328	13.293	13.363
ProbeTrack09	3	ProbeTrack	1470	SCS215a	20090501.104624	20090501.104900	8	0.013328	60	10	60-180	60	118	GapExp	0	24	2	0	1	target	1	414	793	48185	13.327	13.291	13.364
ProbeTrack09	3	ProbeTrack	1470	SCS215a	20090501.104624	20090501.104907	8	0.013328	60	10	60-180	60	109	GapExp	0	25	2	6	0	distractor	1	440	780	48965	13.328	13.292	13.363
ProbeTrack09	3	ProbeTrack	1470	SCS215a	20090501.104624	20090501.104913	8	0.013328	60	10	60-180	60	84	GapExp	0	26	2	96	0	distractor	1	454	773	49738	13.328	13.293	13.363
ProbeTrack09	3	ProbeTrack	1470	SCS215a	20090501.104624	20090501.104920	8	0.013328	60	10	60-180	60	127	GapExp	0	27	2	0	0	distractor	1	400	800	50538	13.328	13.292	13.363
ProbeTrack09	3	ProbeTrack	1470	SCS215a	20090501.104624	20090501.104926	8	0.013328	60	10	60-180	60	172	GapExp	0	28	2	0	0	target	0	440	-1000	49538	13.328	13.292	13.365
ProbeTrack09	3	ProbeTrack	1470	SCS215a	20090501.104624	20090501.104933	8	0.013328	60	10	60-180	60	99	GapExp	0	29	2	0	0	distractor	1	427	787	50325	13.327	13.293	13.363
ProbeTrack09	3	ProbeTrack	1470	SCS215a	20090501.104624	20090501.104938	8	0.013328	60	10	60-180	60	175	GapExp	0	30	2	96	1	target	1	427	787	51112	13.328	13.287	13.363
ProbeTrack09	3	ProbeTrack	1470	SCS215a	20090501.104624	20090501.104947	8	0.013328	60	10	60-180	60	112	GapExp	0	31	2	96	1	target	1	387	807	51919	13.328	13.292	13.363
ProbeTrack09	3	ProbeTrack	1470	SCS215a	20090501.104624	20090501.104954	8	0.013328	60	10	60-180	60	113	GapExp	0	32	2	3	0	distractor	1	507	747	52666	13.328	13.293	13.363
ProbeTrack09	3	ProbeTrack	1470	SCS215a	20090501.104624	20090501.105000	8	0.013328	60	10	60-180	60	180	GapExp	0	33	2	3	1	target	1	467	767	53433	13.328	13.293	13.363
ProbeTrack09	3	ProbeTrack	1470	SCS215a	20090501.104624	20090501.105007	8	0.013328	60	10	60-180	60	67	GapExp	0	34	2	3	0	distractor	1	534	733	54166	13.328	13.292	13.363
ProbeTrack09	3	ProbeTrack	1470	SCS215a	20090501.104624	20090501.105012	8	0.013328	60	10	60-180	60	162	GapExp	0	35	2	0	0	distractor	1	494	753	54919	13.328	13.293	13.363
ProbeTrack09	3	ProbeTrack	1470	SCS215a	20090501.104624	20090501.105018	8	0.013328	60	10	60-180	60	70	GapExp	0	36	2	3	1	target	1	427	787	55706	13.328	13.293	13.363
ProbeTrack09	3	ProbeTrack	1470	SCS215a	20090501.104624	20090501.105024	8	0.013328	60	10	60-180	60	173	GapExp	0	37	2	0	0	distractor	1	454	773	56479	13.328	13.292	13.363
ProbeTrack09	3	ProbeTrack	1470	SCS215a	20090501.104624	20090501.105031	8	0.013328	60	10	60-180	60	113	GapExp	0	38	2	6	1	target	1	387	807	57286	13.327	13.293	13.363
ProbeTrack09	3	ProbeTrack	1470	SCS215a	20090501.104624	20090501.105037	8	0.013328	60	10	60-180	60	173	GapExp	0	39	2	0	1	target	1	427	787	58073	13.328	13.293	13.363
ProbeTrack09	3	ProbeTrack	1470	SCS215a	20090501.104624	20090501.105044	8	0.013328	60	10	60-180	60	104	GapExp	0	40	2	96	0	distractor	1	427	787	58860	13.328	13.293	13.363
ProbeTrack09	3	ProbeTrack	1470	SCS215a	20090501.104624	20090501.105051	8	0.013328	60	10	60-180	60	172	GapExp	0	41	2	3	0	distractor	1	547	727	59587	13.328	13.293	13.365
ProbeTrack09	3	ProbeTrack	1470	SCS215a	20090501.104624	20090501.105057	8	0.013328	60	10	60-180	60	145	GapExp	0	42	2	3	0	distractor	1	454	773	60360	13.328	13.293	13.363
ProbeTrack09	3	ProbeTrack	1470	SCS215a	20090501.104624	20090501.105104	8	0.013328	60	10	60-180	60	115	GapExp	0	43	2	0	0	distractor	1	494	753	61113	13.328	13.293	13.363
ProbeTrack09	3	ProbeTrack	1470	SCS215a	20090501.104624	20090501.105110	8	0.013328	60	10	60-180	60	164	GapExp	0	44	2	3	1	target	1	440	780	61893	13.328	13.292	13.363
ProbeTrack09	3	ProbeTrack	1470	SCS215a	20090501.104624	20090501.105116	8	0.013328	60	10	60-180	60	168	GapExp	0	45	2	96	0	distractor	1	387	807	62700	13.328	13.292	13.363
ProbeTrack09	3	ProbeTrack	1470	SCS215a	20090501.104624	20090501.105124	8	0.013328	60	10	60-180	60	68	GapExp	0	46	2	3	1	target	1	400	800	63500	13.328	13.291	13.363
ProbeTrack09	3	ProbeTrack	1470	SCS215a	20090501.104624	20090501.105129	8	0.013328	60	10	60-180	60	104	GapExp	0	47	2	96	1	target	1	387	807	64307	13.328	13.293	13.363
ProbeTrack09	3	ProbeTrack	1470	SCS215a	20090501.104624	20090501.105137	8	0.013328	60	10	60-180	60	151	GapExp	0	48	2	96	0	distractor	1	467	767	65074	13.328	13.292	13.366
ProbeTrack09	3	ProbeTrack	1470	SCS215a	20090501.104624	20090501.105145	8	0.013328	60	10	60-180	60	120	GapExp	0	49	2	3	1	target	1	334	833	65907	13.328	13.293	13.363
ProbeTrack09	3	ProbeTrack	1470	SCS215a	20090501.104624	20090501.105150	8	0.013328	60	10	60-180	60	68	GapExp	0	50	2	0	1	target	1	520	740	66647	13.328	13.293	13.363
ProbeTrack09	3	ProbeTrack	1470	SCS215a	20090501.104624	20090501.105156	8	0.013328	60	10	60-180	60	76	GapExp	0	51	2	6	0	target	0	480	-1000	65647	13.327	13.293	13.363
ProbeTrack09	3	ProbeTrack	1470	SCS215a	20090501.104624	20090501.105232	8	0.013328	60	10	60-180	60	146	GapExp	0	52	2	0	1	target	1	440	780	66427	13.328	13.293	13.363
ProbeTrack09	3	ProbeTrack	1470	SCS215a	20090501.104624	20090501.105239	8	0.013328	60	10	60-180	60	95	GapExp	0	53	2	0	1	target	1	347	827	67254	13.328	13.293	13.363
ProbeTrack09	3	ProbeTrack	1470	SCS215a	20090501.104624	20090501.105244	8	0.013328	60	10	60-180	60	72	GapExp	0	54	2	0	0	target	0	520	-1000	66254	13.328	13.292	13.363
ProbeTrack09	3	ProbeTrack	1470	SCS215a	20090501.104624	20090501.105250	8	0.013328	60	10	60-180	60	125	GapExp	0	55	2	6	1	target	1	414	793	67047	13.328	13.293	13.363
ProbeTrack09	3	ProbeTrack	1470	SCS215a	20090501.104624	20090501.105256	8	0.013328	60	10	60-180	60	132	GapExp	0	56	2	3	1	target	1	414	793	67840	13.328	13.293	13.363
ProbeTrack09	3	ProbeTrack	1470	SCS215a	20090501.104624	20090501.105302	8	0.013328	60	10	60-180	60	153	GapExp	0	57	2	3	1	target	1	387	807	68647	13.328	13.293	13.363
ProbeTrack09	3	ProbeTrack	1470	SCS215a	20090501.104624	20090501.105309	8	0.013328	60	10	60-180	60	164	GapExp	0	58	2	96	0	distractor	1	414	793	69440	13.328	13.293	13.363
ProbeTrack09	3	ProbeTrack	1470	SCS215a	20090501.104624	20090501.105317	8	0.013328	60	10	60-180	60	63	GapExp	0	59	2	3	0	distractor	1	520	740	70180	13.328	13.293	13.363
ProbeTrack09	3	ProbeTrack	1470	SCS215a	20090501.104624	20090501.105322	8	0.013328	60	10	60-180	60	125	GapExp	0	60	2	3	0	distractor	1	400	800	70980	13.327	13.293	13.363
ProbeTrack09	3	ProbeTrack	1470	SCS215a	20090501.104624	20090501.105328	8	0.013328	60	10	60-180	60	118	GapExp	0	61	2	6	1	target	1	467	767	71747	13.328	13.291	13.363
ProbeTrack09	3	ProbeTrack	1470	SCS215a	20090501.104624	20090501.105334	8	0.013328	60	10	60-180	60	87	GapExp	0	62	2	0	1	target	1	334	833	72580	13.328	13.292	13.363
ProbeTrack09	3	ProbeTrack	1470	SCS215a	20090501.104624	20090501.105339	8	0.013328	60	10	60-180	60	151	GapExp	0	63	2	6	1	target	1	374	813	73393	13.328	13.292	13.363
ProbeTrack09	3	ProbeTrack	1470	SCS215a	20090501.104624	20090501.105346	8	0.013328	60	10	60-180	60	114	GapExp	0	64	2	96	0	distractor	1	507	747	74140	13.328	13.291	13.363
ProbeTrack09	3	ProbeTrack	1470	SCS215a	20090501.104624	20090501.105353	8	0.013328	60	10	60-180	60	99	GapExp	0	65	2	3	0	distractor	1	374	813	74953	13.327	13.293	13.363
ProbeTrack09	3	ProbeTrack	1470	SCS215a	20090501.104624	20090501.105359	8	0.013328	60	10	60-180	60	177	GapExp	0	66	2	6	0	distractor	1	507	747	75700	13.328	13.293	13.365
ProbeTrack09	3	ProbeTrack	1470	SCS215a	20090501.104624	20090501.105406	8	0.013328	60	10	60-180	60	110	GapExp	0	67	2	96	0	distractor	1	440	780	76480	13.328	13.290	13.365
ProbeTrack09	3	ProbeTrack	1470	SCS215a	20090501.104624	20090501.105413	8	0.013328	60	10	60-180	60	127	GapExp	0	68	2	6	1	target	1	414	793	77273	13.327	13.293	13.363
ProbeTrack09	3	ProbeTrack	1470	SCS215a	20090501.104624	20090501.105419	8	0.013328	60	10	60-180	60	148	GapExp	0	69	2	3	0	distractor	1	334	833	78106	13.328	13.292	13.363
ProbeTrack09	3	ProbeTrack	1470	SCS215a	20090501.104624	20090501.105425	8	0.013328	60	10	60-180	60	103	GapExp	0	70	2	6	0	target	0	347	-1000	77106	13.328	13.293	13.363
ProbeTrack09	3	ProbeTrack	1470	SCS215a	20090501.104624	20090501.105431	8	0.013328	60	10	60-180	60	177	GapExp	0	71	2	6	0	multi	-2	494	-1000	76106	13.328	13.291	13.363
ProbeTrack09	3	ProbeTrack	1470	SCS215a	20090501.104624	20090501.105438	8	0.013328	60	10	60-180	60	125	GapExp	0	72	2	3	0	target	0	547	-1000	75106	13.328	13.293	13.363
ProbeTrack09	3	ProbeTrack	1470	SCS215a	20090501.104624	20090501.105445	8	0.013328	60	10	60-180	60	171	GapExp	0	73	2	3	0	distractor	1	613	694	75800	13.328	13.293	13.363
ProbeTrack09	3	ProbeTrack	1470	SCS215a	20090501.104624	20090501.105453	8	0.013328	60	10	60-180	60	142	GapExp	0	74	2	3	1	target	1	400	800	76600	13.328	13.293	13.363
ProbeTrack09	3	ProbeTrack	1470	SCS215a	20090501.104624	20090501.105459	8	0.013328	60	10	60-180	60	64	GapExp	0	75	2	3	0	distractor	1	494	753	77353	13.327	13.293	13.362
ProbeTrack09	3	ProbeTrack	1470	SCS215a	20090501.104624	20090501.105504	8	0.013328	60	10	60-180	60	61	GapExp	0	76	2	0	1	target	1	374	813	78166	13.327	13.293	13.362
ProbeTrack09	3	ProbeTrack	1470	SCS215a	20090501.104624	20090501.105510	8	0.013328	60	10	60-180	60	68	GapExp	0	77	2	3	1	target	1	360	820	78986	13.328	13.293	13.363
ProbeTrack09	3	ProbeTrack	1470	SCS215a	20090501.104624	20090501.105515	8	0.013328	60	10	60-180	60	167	GapExp	0	78	2	0	0	target	0	467	-1000	77986	13.328	13.290	13.363
ProbeTrack09	3	ProbeTrack	1470	SCS215a	20090501.104624	20090501.105522	8	0.013328	60	10	60-180	60	138	GapExp	0	79	2	96	0	distractor	1	414	793	78779	13.328	13.293	13.363
ProbeTrack09	3	ProbeTrack	1470	SCS215a	20090501.104624	20090501.105530	8	0.013328	60	10	60-180	60	105	GapExp	0	80	2	0	1	target	1	400	800	79579	13.328	13.293	13.363
ProbeTrack09	3	ProbeTrack	1470	SCS215a	20090501.104624	20090501.105536	8	0.013328	60	10	60-180	60	93	GapExp	0	81	2	3	0	distractor	1	507	747	80326	13.328	13.293	13.363
ProbeTrack09	3	ProbeTrack	1470	SCS215a	20090501.104624	20090501.105542	8	0.013328	60	10	60-180	60	95	GapExp	0	82	2	96	0	distractor	1	547	727	81053	13.328	13.292	13.363
ProbeTrack09	3	ProbeTrack	1470	SCS215a	20090501.104624	20090501.105549	8	0.013328	60	10	60-180	60	125	GapExp	0	83	2	96	0	distractor	1	414	793	81846	13.328	13.293	13.363
ProbeTrack09	3	ProbeTrack	1470	SCS215a	20090501.104624	20090501.105556	8	0.013328	60	10	60-180	60	139	GapExp	0	84	2	0	1	target	1	387	807	82653	13.328	13.293	13.363
ProbeTrack09	3	ProbeTrack	1470	SCS215a	20090501.104624	20090501.105602	8	0.013328	60	10	60-180	60	63	GapExp	0	85	2	3	0	distractor	1	547	727	83380	13.328	13.292	13.363
ProbeTrack09	3	ProbeTrack	1470	SCS215a	20090501.104624	20090501.105607	8	0.013328	60	10	60-180	60	80	GapExp	0	86	2	96	0	distractor	1	400	800	84180	13.328	13.292	13.363
ProbeTrack09	3	ProbeTrack	1470	SCS215a	20090501.104624	20090501.105614	8	0.013328	60	10	60-180	60	106	GapExp	0	87	2	96	0	distractor	1	414	793	84973	13.328	13.289	13.366
ProbeTrack09	3	ProbeTrack	1470	SCS215a	20090501.104624	20090501.105621	8	0.013328	60	10	60-180	60	79	GapExp	0	88	2	6	1	target	1	374	813	85786	13.328	13.292	13.363
ProbeTrack09	3	ProbeTrack	1470	SCS215a	20090501.104624	20090501.105627	8	0.013328	60	10	60-180	60	67	GapExp	0	89	2	3	1	target	1	360	820	86606	13.328	13.288	13.363
ProbeTrack09	3	ProbeTrack	1470	SCS215a	20090501.104624	20090501.105632	8	0.013328	60	10	60-180	60	80	GapExp	0	90	2	6	1	target	1	387	807	87413	13.328	13.293	13.363
ProbeTrack09	3	ProbeTrack	1470	SCS215a	20090501.104624	20090501.105638	8	0.013328	60	10	60-180	60	147	GapExp	0	91	2	6	0	distractor	1	867	567	87980	13.328	13.293	13.363
ProbeTrack09	3	ProbeTrack	1470	SCS215a	20090501.104624	20090501.105644	8	0.013328	60	10	60-180	60	129	GapExp	0	92	2	0	0	distractor	1	680	660	88640	13.328	13.293	13.363
ProbeTrack09	3	ProbeTrack	1470	SCS215a	20090501.104624	20090501.105651	8	0.013328	60	10	60-180	60	119	GapExp	0	93	2	6	0	distractor	1	520	740	89380	13.328	13.293	13.363
ProbeTrack09	3	ProbeTrack	1470	SCS215a	20090501.104624	20090501.105657	8	0.013328	60	10	60-180	60	133	GapExp	0	94	2	0	0	distractor	1	427	787	90167	13.328	13.293	13.363
ProbeTrack09	3	ProbeTrack	1470	SCS215a	20090501.104624	20090501.105704	8	0.013328	60	10	60-180	60	73	GapExp	0	95	2	6	1	distractor	0	427	-1000	89167	13.328	13.293	13.363
ProbeTrack09	3	ProbeTrack	1470	SCS215a	20090501.104624	20090501.105709	8	0.013328	60	10	60-180	60	118	GapExp	0	96	2	3	1	target	1	400	800	89967	13.328	13.293	13.363
ProbeTrack09	3	ProbeTrack	1470	SCS215a	20090501.104624	20090501.105715	8	0.013328	60	10	60-180	60	117	GapExp	0	97	2	3	1	target	1	387	807	90774	13.328	13.293	13.363
ProbeTrack09	3	ProbeTrack	1470	SCS215a	20090501.104624	20090501.105722	8	0.013328	60	10	60-180	60	128	GapExp	0	98	2	3	1	target	1	400	800	91574	13.328	13.289	13.367
ProbeTrack09	3	ProbeTrack	1470	SCS215a	20090501.104624	20090501.105728	8	0.013328	60	10	60-180	60	104	GapExp	0	99	2	0	0	distractor	1	414	793	92367	13.328	13.293	13.363
ProbeTrack09	3	ProbeTrack	1470	SCS215a	20090501.104624	20090501.105734	8	0.013328	60	10	60-180	60	75	GapExp	0	100	2	6	0	distractor	1	534	733	93100	13.328	13.292	13.363
ProbeTrack09	3	ProbeTrack	1470	SCS215a	20090501.104624	20090501.105740	8	0.013328	60	10	60-180	60	127	GapExp	0	101	2	3	0	distractor	1	520	740	93840	13.328	13.289	13.366
ProbeTrack09	3	ProbeTrack	1470	SCS215a	20090501.104624	20090501.105746	8	0.013328	60	10	60-180	60	90	GapExp	0	102	2	6	1	target	1	387	807	94647	13.328	13.293	13.363
ProbeTrack09	3	ProbeTrack	1470	SCS215a	20090501.104624	20090501.105752	8	0.013328	60	10	60-180	60	96	GapExp	0	103	2	96	1	target	1	374	813	95460	13.328	13.293	13.363
ProbeTrack09	3	ProbeTrack	1470	SCS215a	20090501.104624	20090501.105812	8	0.013328	60	10	60-180	60	147	GapExp	0	104	2	96	1	target	1	374	813	96273	13.328	13.293	13.363
ProbeTrack09	3	ProbeTrack	1470	SCS215a	20090501.104624	20090501.105820	8	0.013328	60	10	60-180	60	128	GapExp	0	105	2	0	0	target	0	374	-1000	95273	13.327	13.293	13.363
ProbeTrack09	3	ProbeTrack	1470	SCS215a	20090501.104624	20090501.105826	8	0.013328	60	10	60-180	60	85	GapExp	0	106	2	3	1	distractor	0	374	-1000	94273	13.327	13.293	13.364
ProbeTrack09	3	ProbeTrack	1470	SCS215a	20090501.104624	20090501.105831	8	0.013328	60	10	60-180	60	129	GapExp	0	107	2	0	0	distractor	1	920	540	94813	13.328	13.293	13.363
ProbeTrack09	3	ProbeTrack	1470	SCS215a	20090501.104624	20090501.105838	8	0.013328	60	10	60-180	60	158	GapExp	0	108	2	96	0	distractor	1	520	740	95553	13.328	13.289	13.367
ProbeTrack09	3	ProbeTrack	1470	SCS215a	20090501.104624	20090501.105846	8	0.013328	60	10	60-180	60	154	GapExp	0	109	2	6	0	distractor	1	440	780	96333	13.328	13.293	13.363
ProbeTrack09	3	ProbeTrack	1470	SCS215a	20090501.104624	20090501.105852	8	0.013328	60	10	60-180	60	121	GapExp	0	110	2	0	1	target	1	387	807	97140	13.328	13.292	13.363
ProbeTrack09	3	ProbeTrack	1470	SCS215a	20090501.104624	20090501.105858	8	0.013328	60	10	60-180	60	89	GapExp	0	111	2	6	1	target	1	360	820	97960	13.328	13.292	13.363
ProbeTrack09	3	ProbeTrack	1470	SCS215a	20090501.104624	20090501.105904	8	0.013328	60	10	60-180	60	66	GapExp	0	112	2	0	0	target	0	520	-1000	96960	13.327	13.293	13.363
ProbeTrack09	3	ProbeTrack	1470	SCS215a	20090501.104624	20090501.105909	8	0.013328	60	10	60-180	60	164	GapExp	0	113	2	96	0	distractor	1	520	740	97700	13.328	13.293	13.363
ProbeTrack09	3	ProbeTrack	1470	SCS215a	20090501.104624	20090501.105917	8	0.013328	60	10	60-180	60	145	GapExp	0	114	2	3	1	target	1	360	820	98520	13.328	13.293	13.363
ProbeTrack09	3	ProbeTrack	1470	SCS215a	20090501.104624	20090501.105923	8	0.013328	60	10	60-180	60	85	GapExp	0	115	2	0	1	target	1	427	787	99307	13.327	13.292	13.363
ProbeTrack09	3	ProbeTrack	1470	SCS215a	20090501.104624	20090501.105929	8	0.013328	60	10	60-180	60	165	GapExp	0	116	2	96	1	target	1	374	813	100120	13.328	13.292	13.363
ProbeTrack09	3	ProbeTrack	1470	SCS215a	20090501.104624	20090501.105936	8	0.013328	60	10	60-180	60	139	GapExp	0	117	2	6	0	target	0	347	-1000	99120	13.328	13.293	13.363
ProbeTrack09	3	ProbeTrack	1470	SCS215a	20090501.104624	20090501.105943	8	0.013328	60	10	60-180	60	69	GapExp	0	118	2	3	0	distractor	1	454	773	99893	13.328	13.287	13.363
ProbeTrack09	3	ProbeTrack	1470	SCS215a	20090501.104624	20090501.105948	8	0.013328	60	10	60-180	60	90	GapExp	0	119	2	0	1	target	1	387	807	100700	13.328	13.293	13.363
ProbeTrack09	3	ProbeTrack	1470	SCS215a	20090501.104624	20090501.105953	8	0.013328	60	10	60-180	60	80	GapExp	0	120	2	6	0	distractor	1	454	773	101473	13.328	13.292	13.363
ProbeTrack09	3	ProbeTrack	1470	SCS215a	20090501.104624	20090501.105959	8	0.013328	60	10	60-180	60	142	GapExp	0	121	2	3	1	target	1	347	827	102300	13.328	13.293	13.363
ProbeTrack09	3	ProbeTrack	1470	SCS215a	20090501.104624	20090501.110005	8	0.013328	60	10	60-180	60	169	GapExp	0	122	2	3	0	distractor	1	507	747	103047	13.328	13.293	13.362
ProbeTrack09	3	ProbeTrack	1470	SCS215a	20090501.104624	20090501.110012	8	0.013328	60	10	60-180	60	87	GapExp	0	123	2	96	0	distractor	1	400	800	103847	13.328	13.292	13.363
ProbeTrack09	3	ProbeTrack	1470	SCS215a	20090501.104624	20090501.110019	8	0.013328	60	10	60-180	60	146	GapExp	0	124	2	0	1	target	1	360	820	104667	13.328	13.293	13.363
ProbeTrack09	3	ProbeTrack	1470	SCS215a	20090501.104624	20090501.110025	8	0.013328	60	10	60-180	60	168	GapExp	0	125	2	6	1	target	1	414	793	105460	13.328	13.293	13.363
ProbeTrack09	3	ProbeTrack	1470	SCS215a	20090501.104624	20090501.110031	8	0.013328	60	10	60-180	60	112	GapExp	0	126	2	0	0	distractor	1	427	787	106247	13.327	13.293	13.363
ProbeTrack09	3	ProbeTrack	1470	SCS215a	20090501.104624	20090501.110037	8	0.013328	60	10	60-180	60	148	GapExp	0	127	2	6	1	target	1	334	833	107080	13.328	13.293	13.363
ProbeTrack09	3	ProbeTrack	1470	SCS215a	20090501.104624	20090501.110043	8	0.013328	60	10	60-180	60	115	GapExp	0	128	2	6	1	distractor	0	494	-1000	106080	13.328	13.293	13.363
ProbeTrack09	3	ProbeTrack	1470	SCS215a	20090501.104624	20090501.110049	8	0.013328	60	10	60-180	60	167	GapExp	0	129	2	96	1	target	1	360	820	106900	13.328	13.293	13.363
ProbeTrack09	3	ProbeTrack	1470	SCS215a	20090501.104624	20090501.110057	8	0.013328	60	10	60-180	60	96	GapExp	0	130	2	6	0	distractor	1	480	760	107660	13.327	13.293	13.363
ProbeTrack09	3	ProbeTrack	1470	SCS215a	20090501.104624	20090501.110103	8	0.013328	60	10	60-180	60	170	GapExp	0	131	2	96	1	distractor	0	400	-1000	106660	13.328	13.291	13.363
ProbeTrack09	3	ProbeTrack	1470	SCS215a	20090501.104624	20090501.110111	8	0.013328	60	10	60-180	60	122	GapExp	0	132	2	3	1	target	1	334	833	107493	13.327	13.292	13.363
ProbeTrack09	3	ProbeTrack	1470	SCS215a	20090501.104624	20090501.110117	8	0.013328	60	10	60-180	60	93	GapExp	0	133	2	96	0	distractor	1	467	767	108260	13.328	13.293	13.363
ProbeTrack09	3	ProbeTrack	1470	SCS215a	20090501.104624	20090501.110123	8	0.013328	60	10	60-180	60	152	GapExp	0	134	2	96	0	distractor	1	494	753	109013	13.328	13.289	13.363
ProbeTrack09	3	ProbeTrack	1470	SCS215a	20090501.104624	20090501.110131	8	0.013328	60	10	60-180	60	140	GapExp	0	135	2	0	1	target	1	387	807	109820	13.328	13.291	13.366
ProbeTrack09	3	ProbeTrack	1470	SCS215a	20090501.104624	20090501.110138	8	0.013328	60	10	60-180	60	118	GapExp	0	136	2	6	0	distractor	1	480	760	110580	13.328	13.293	13.363
ProbeTrack09	3	ProbeTrack	1470	SCS215a	20090501.104624	20090501.110144	8	0.013328	60	10	60-180	60	132	GapExp	0	137	2	96	1	target	1	494	753	111333	13.328	13.292	13.363
ProbeTrack09	3	ProbeTrack	1470	SCS215a	20090501.104624	20090501.110151	8	0.013328	60	10	60-180	60	133	GapExp	0	138	2	6	1	target	1	480	760	112093	13.328	13.293	13.363
ProbeTrack09	3	ProbeTrack	1470	SCS215a	20090501.104624	20090501.110157	8	0.013328	60	10	60-180	60	77	GapExp	0	139	2	0	1	target	1	360	820	112913	13.328	13.293	13.363
ProbeTrack09	3	ProbeTrack	1470	SCS215a	20090501.104624	20090501.110203	8	0.013328	60	10	60-180	60	177	GapExp	0	140	2	0	0	distractor	1	547	727	113640	13.328	13.292	13.364
ProbeTrack09	3	ProbeTrack	1470	SCS215a	20090501.104624	20090501.110210	8	0.013328	60	10	60-180	60	167	GapExp	0	141	2	96	1	target	1	400	800	114440	13.328	13.289	13.367
ProbeTrack09	3	ProbeTrack	1470	SCS215a	20090501.104624	20090501.110218	8	0.013328	60	10	60-180	60	161	GapExp	0	142	2	96	0	distractor	1	387	807	115247	13.328	13.293	13.363
ProbeTrack09	3	ProbeTrack	1470	SCS215a	20090501.104624	20090501.110225	8	0.013328	60	10	60-180	60	80	GapExp	0	143	2	3	0	distractor	1	440	780	116027	13.328	13.293	13.363
ProbeTrack09	3	ProbeTrack	1470	SCS215a	20090501.104624	20090501.110231	8	0.013328	60	10	60-180	60	111	GapExp	0	144	2	3	1	target	1	374	813	116840	13.328	13.291	13.363
ProbeTrack09	3	ProbeTrack	1470	SCS215a	20090501.104624	20090501.110237	8	0.013328	60	10	60-180	60	119	GapExp	0	145	2	96	1	target	1	334	833	117673	13.328	13.293	13.363
ProbeTrack09	3	ProbeTrack	1470	SCS215a	20090501.104624	20090501.110244	8	0.013328	60	10	60-180	60	81	GapExp	0	146	2	96	0	distractor	1	400	800	118473	13.328	13.293	13.363
ProbeTrack09	3	ProbeTrack	1470	SCS215a	20090501.104624	20090501.110251	8	0.013328	60	10	60-180	60	160	GapExp	0	147	2	96	1	target	1	400	800	119273	13.328	13.288	13.367
ProbeTrack09	3	ProbeTrack	1470	SCS215a	20090501.104624	20090501.110258	8	0.013328	60	10	60-180	60	77	GapExp	0	148	2	0	1	target	1	387	807	120080	13.328	13.293	13.363
ProbeTrack09	3	ProbeTrack	1470	SCS215a	20090501.104624	20090501.110304	8	0.013328	60	10	60-180	60	155	GapExp	0	149	2	0	1	target	1	334	833	120913	13.328	13.293	13.363
ProbeTrack09	3	ProbeTrack	1470	SCS215a	20090501.104624	20090501.110310	8	0.013328	60	10	60-180	60	91	GapExp	0	150	2	0	1	target	1	374	813	121726	13.328	13.293	13.362
ProbeTrack09	3	ProbeTrack	1470	SCS215a	20090501.104624	20090501.110316	8	0.013328	60	10	60-180	60	148	GapExp	0	151	2	6	1	distractor	0	334	-1000	120726	13.328	13.290	13.366
ProbeTrack09	3	ProbeTrack	1470	SCS215a	20090501.104624	20090501.110334	8	0.013328	60	10	60-180	60	154	GapExp	0	152	2	3	1	target	1	307	847	121573	13.328	13.293	13.363
ProbeTrack09	3	ProbeTrack	1470	SCS215a	20090501.104624	20090501.110341	8	0.013328	60	10	60-180	60	175	GapExp	0	153	2	6	1	target	1	400	800	122373	13.328	13.293	13.365
ProbeTrack09	3	ProbeTrack	1470	SCS215a	20090501.104624	20090501.110354	8	0.013328	60	10	60-180	60	161	GapExp	0	154	2	6	0	distractor	1	467	767	123140	13.328	13.292	13.363
ProbeTrack09	3	ProbeTrack	1470	SCS215a	20090501.104624	20090501.110401	8	0.013328	60	10	60-180	60	165	GapExp	0	155	2	6	1	target	1	374	813	123953	13.328	13.293	13.363
ProbeTrack09	3	ProbeTrack	1470	SCS215a	20090501.104624	20090501.110408	8	0.013328	60	10	60-180	60	164	GapExp	0	156	2	3	0	distractor	1	534	733	124686	13.328	13.293	13.363
ProbeTrack09	3	ProbeTrack	1470	SCS215a	20090501.104624	20090501.110414	8	0.013328	60	10	60-180	60	69	GapExp	0	157	2	3	1	target	1	360	820	125506	13.327	13.293	13.363
ProbeTrack09	3	ProbeTrack	1470	SCS215a	20090501.104624	20090501.110420	8	0.013328	60	10	60-180	60	115	GapExp	0	158	2	3	0	distractor	1	427	787	126293	13.328	13.293	13.363
ProbeTrack09	3	ProbeTrack	1470	SCS215a	20090501.104624	20090501.110426	8	0.013328	60	10	60-180	60	164	GapExp	0	159	2	3	1	target	1	347	827	127120	13.328	13.292	13.363
ProbeTrack09	3	ProbeTrack	1470	SCS215a	20090501.104624	20090501.110432	8	0.013328	60	10	60-180	60	118	GapExp	0	160	2	6	0	distractor	1	480	760	127880	13.328	13.289	13.367
ProbeTrack09	3	ProbeTrack	1470	SCS215a	20090501.104624	20090501.110438	8	0.013328	60	10	60-180	60	101	GapExp	0	161	2	6	1	target	1	400	800	128680	13.328	13.293	13.363
ProbeTrack09	3	ProbeTrack	1470	SCS215a	20090501.104624	20090501.110444	8	0.013328	60	10	60-180	60	115	GapExp	0	162	2	6	0	distractor	1	400	800	129480	13.327	13.293	13.363
ProbeTrack09	3	ProbeTrack	1470	SCS215a	20090501.104624	20090501.110450	8	0.013328	60	10	60-180	60	173	GapExp	0	163	2	6	0	distractor	1	427	787	130267	13.328	13.292	13.363
ProbeTrack09	3	ProbeTrack	1470	SCS215a	20090501.104624	20090501.110457	8	0.013328	60	10	60-180	60	146	GapExp	0	164	2	96	1	target	1	427	787	131054	13.328	13.290	13.363
ProbeTrack09	3	ProbeTrack	1470	SCS215a	20090501.104624	20090501.110505	8	0.013328	60	10	60-180	60	174	GapExp	0	165	2	3	1	target	1	374	813	131867	13.328	13.293	13.363
ProbeTrack09	3	ProbeTrack	1470	SCS215a	20090501.104624	20090501.110511	8	0.013328	60	10	60-180	60	114	GapExp	0	166	2	96	0	distractor	1	374	813	132680	13.328	13.293	13.363
ProbeTrack09	3	ProbeTrack	1470	SCS215a	20090501.104624	20090501.110519	8	0.013328	60	10	60-180	60	129	GapExp	0	167	2	96	0	distractor	1	400	800	133480	13.328	13.292	13.363
ProbeTrack09	3	ProbeTrack	1470	SCS215a	20090501.104624	20090501.110526	8	0.013328	60	10	60-180	60	123	GapExp	0	168	2	3	0	distractor	1	440	780	134260	13.327	13.293	13.363
ProbeTrack09	3	ProbeTrack	1470	SCS215a	20090501.104624	20090501.110532	8	0.013328	60	10	60-180	60	120	GapExp	0	169	2	0	1	target	1	374	813	135073	13.327	13.289	13.367
ProbeTrack09	3	ProbeTrack	1470	SCS215a	20090501.104624	20090501.110538	8	0.013328	60	10	60-180	60	153	GapExp	0	170	2	6	1	target	1	360	820	135893	13.328	13.292	13.363
ProbeTrack09	3	ProbeTrack	1470	SCS215a	20090501.104624	20090501.110544	8	0.013328	60	10	60-180	60	130	GapExp	0	171	2	3	1	target	1	387	807	136700	13.328	13.293	13.363
ProbeTrack09	3	ProbeTrack	1470	SCS215a	20090501.104624	20090501.110550	8	0.013328	60	10	60-180	60	81	GapExp	0	172	2	96	1	target	1	320	840	137540	13.328	13.293	13.363
ProbeTrack09	3	ProbeTrack	1470	SCS215a	20090501.104624	20090501.110557	8	0.013328	60	10	60-180	60	61	GapExp	0	173	2	6	1	target	1	334	833	138373	13.328	13.293	13.363
ProbeTrack09	3	ProbeTrack	1470	SCS215a	20090501.104624	20090501.110602	8	0.013328	60	10	60-180	60	139	GapExp	0	174	2	0	0	distractor	1	547	727	139100	13.328	13.293	13.363
ProbeTrack09	3	ProbeTrack	1470	SCS215a	20090501.104624	20090501.110608	8	0.013328	60	10	60-180	60	64	GapExp	0	175	2	0	0	target	0	360	-1000	138100	13.328	13.293	13.363
ProbeTrack09	3	ProbeTrack	1470	SCS215a	20090501.104624	20090501.110613	8	0.013328	60	10	60-180	60	139	GapExp	0	176	2	96	1	target	1	387	807	138907	13.328	13.293	13.363
ProbeTrack09	3	ProbeTrack	1470	SCS215a	20090501.104624	20090501.110620	8	0.013328	60	10	60-180	60	142	GapExp	0	177	2	96	1	target	1	427	787	139694	13.328	13.293	13.364
ProbeTrack09	3	ProbeTrack	1470	SCS215a	20090501.104624	20090501.110628	8	0.013328	60	10	60-180	60	106	GapExp	0	178	2	6	0	distractor	1	507	747	140441	13.328	13.293	13.363
ProbeTrack09	3	ProbeTrack	1470	SCS215a	20090501.104624	20090501.110634	8	0.013328	60	10	60-180	60	77	GapExp	0	179	2	96	1	target	1	360	820	141261	13.328	13.293	13.363
ProbeTrack09	3	ProbeTrack	1470	SCS215a	20090501.104624	20090501.110641	8	0.013328	60	10	60-180	60	61	GapExp	0	180	2	3	1	distractor	0	414	-1000	140261	13.328	13.293	13.363
ProbeTrack09	3	ProbeTrack	1470	SCS215a	20090501.104624	20090501.110646	8	0.013328	60	10	60-180	60	106	GapExp	0	181	2	6	0	distractor	1	627	687	140948	13.328	13.293	13.363
ProbeTrack09	3	ProbeTrack	1470	SCS215a	20090501.104624	20090501.110652	8	0.013328	60	10	60-180	60	119	GapExp	0	182	2	96	0	distractor	1	440	780	141728	13.328	13.293	13.362
ProbeTrack09	3	ProbeTrack	1470	SCS215a	20090501.104624	20090501.110659	8	0.013328	60	10	60-180	60	160	GapExp	0	183	2	96	0	distractor	1	414	793	142521	13.328	13.292	13.363
ProbeTrack09	3	ProbeTrack	1470	SCS215a	20090501.104624	20090501.110707	8	0.013328	60	10	60-180	60	166	GapExp	0	184	2	3	0	distractor	1	387	807	143328	13.328	13.290	13.363
ProbeTrack09	3	ProbeTrack	1470	SCS215a	20090501.104624	20090501.110714	8	0.013328	60	10	60-180	60	78	GapExp	0	185	2	6	1	target	1	387	807	144135	13.327	13.293	13.363
ProbeTrack09	3	ProbeTrack	1470	SCS215a	20090501.104624	20090501.110720	8	0.013328	60	10	60-180	60	87	GapExp	0	186	2	0	0	distractor	1	440	780	144915	13.328	13.292	13.363
ProbeTrack09	3	ProbeTrack	1470	SCS215a	20090501.104624	20090501.110725	8	0.013328	60	10	60-180	60	125	GapExp	0	187	2	0	0	distractor	1	440	780	145695	13.328	13.292	13.363
ProbeTrack09	3	ProbeTrack	1470	SCS215a	20090501.104624	20090501.110731	8	0.013328	60	10	60-180	60	93	GapExp	0	188	2	6	1	target	1	374	813	146508	13.328	13.293	13.363
ProbeTrack09	3	ProbeTrack	1470	SCS215a	20090501.104624	20090501.110737	8	0.013328	60	10	60-180	60	93	GapExp	0	189	2	6	0	distractor	1	494	753	147261	13.327	13.293	13.363
ProbeTrack09	3	ProbeTrack	1470	SCS215a	20090501.104624	20090501.110742	8	0.013328	60	10	60-180	60	176	GapExp	0	190	2	6	1	target	1	360	820	148081	13.328	13.293	13.363
ProbeTrack09	3	ProbeTrack	1470	SCS215a	20090501.104624	20090501.110749	8	0.013328	60	10	60-180	60	74	GapExp	0	191	2	6	0	distractor	1	400	800	148881	13.328	13.293	13.363
ProbeTrack09	3	ProbeTrack	1470	SCS215a	20090501.104624	20090501.110755	8	0.013328	60	10	60-180	60	95	GapExp	0	192	2	96	1	target	1	387	807	149688	13.328	13.293	13.363
ProbeTrack09	3	ProbeTrack	1470	SCS215a	20090501.104624	20090501.110801	8	0.013328	60	10	60-180	60	105	GapExp	0	193	2	0	1	target	1	374	813	150501	13.327	13.291	13.363
ProbeTrack09	3	ProbeTrack	1470	SCS215a	20090501.104624	20090501.110807	8	0.013328	60	10	60-180	60	117	GapExp	0	194	2	6	1	target	1	360	820	151321	13.328	13.293	13.363
ProbeTrack09	3	ProbeTrack	1470	SCS215a	20090501.104624	20090501.110813	8	0.013328	60	10	60-180	60	90	GapExp	0	195	2	96	1	distractor	0	467	-1000	150321	13.328	13.293	13.363
ProbeTrack09	3	ProbeTrack	1470	SCS215a	20090501.104624	20090501.110820	8	0.013328	60	10	60-180	60	72	GapExp	0	196	2	96	1	target	1	294	853	151174	13.328	13.293	13.363
ProbeTrack09	3	ProbeTrack	1470	SCS215a	20090501.104624	20090501.110827	8	0.013328	60	10	60-180	60	178	GapExp	0	197	2	3	0	distractor	1	520	740	151914	13.328	13.293	13.363
ProbeTrack09	3	ProbeTrack	1470	SCS215a	20090501.104624	20090501.110833	8	0.013328	60	10	60-180	60	89	GapExp	0	198	2	0	1	target	1	427	787	152701	13.327	13.293	13.365
ProbeTrack09	3	ProbeTrack	1470	SCS215a	20090501.104624	20090501.110839	8	0.013328	60	10	60-180	60	66	GapExp	0	199	2	6	0	distractor	1	414	793	153494	13.328	13.291	13.363
ProbeTrack09	3	ProbeTrack	1470	SCS215a	20090501.104624	20090501.110844	8	0.013328	60	10	60-180	60	96	GapExp	0	200	2	96	1	target	1	360	820	154314	13.328	13.293	13.363
