exp	sub	code	rev	comp	runtime	trialtime	nstim	refreshdur	cuedur	gapdur	gapOnsetRange	durPostProbe	gapOnsetTime	blocktype	prac	trial	ntargets	soa	probeTarget	resp	acc	rt	pts	tpts	meanFrameDur	minFrameDur	maxFrameDur
ProbeTrack09	2	ProbeTrack	1470	SCS215a	20090429.104100	20090429.104120	8	0.013327	60	0	60-180	60	67	NoGap	1	1	2	96	1	distractor	0	1133	-1000	-1000	13.328	13.289	13.366
ProbeTrack09	2	ProbeTrack	1470	SCS215a	20090429.104100	20090429.104148	8	0.013327	60	0	60-180	60	134	NoGap	1	2	2	3	0	distractor	1	3799	0	-1000	13.328	13.293	13.363
ProbeTrack09	2	ProbeTrack	1470	SCS215a	20090429.104100	20090429.104210	8	0.013327	60	0	60-180	60	100	NoGap	1	3	2	0	0	target	0	880	-1000	-2000	13.328	13.293	13.363
ProbeTrack09	2	ProbeTrack	1470	SCS215a	20090429.104100	20090429.104245	8	0.013327	60	0	60-180	60	161	NoGap	1	4	2	6	0	distractor	1	840	580	-1420	13.328	13.292	13.363
ProbeTrack09	2	ProbeTrack	1470	SCS215a	20090429.104100	20090429.104254	8	0.013327	60	0	60-180	60	147	NoGap	1	5	2	0	0	distractor	1	973	514	-906	13.328	13.293	13.363
ProbeTrack09	2	ProbeTrack	1470	SCS215a	20090429.104100	20090429.104304	8	0.013327	60	0	60-180	60	151	NoGap	1	6	2	6	1	target	1	493	754	-152	13.328	13.293	13.363
ProbeTrack09	2	ProbeTrack	1470	SCS215a	20090429.104100	20090429.104312	8	0.013327	60	0	60-180	60	98	NoGap	1	7	2	3	1	distractor	0	440	-1000	-1152	13.327	13.293	13.363
ProbeTrack09	2	ProbeTrack	1470	SCS215a	20090429.104100	20090429.104318	8	0.013327	60	0	60-180	60	104	NoGap	1	8	2	6	0	target	0	960	-1000	-2152	13.328	13.293	13.363
ProbeTrack09	2	ProbeTrack	1470	SCS215a	20090429.104100	20090429.104327	8	0.013327	60	0	60-180	60	109	NoGap	1	9	2	96	1	target	1	454	773	-1379	13.328	13.293	13.363
ProbeTrack09	2	ProbeTrack	1470	SCS215a	20090429.104100	20090429.104335	8	0.013327	60	0	60-180	60	118	NoGap	1	10	2	0	1	target	1	374	813	-566	13.327	13.293	13.363
ProbeTrack09	2	ProbeTrack	1470	SCS215a	20090429.104100	20090429.104341	8	0.013327	60	0	60-180	60	84	NoGap	1	11	2	96	1	target	1	374	813	247	13.328	13.293	13.363
ProbeTrack09	2	ProbeTrack	1470	SCS215a	20090429.104100	20090429.104349	8	0.013327	60	0	60-180	60	160	NoGap	1	12	2	0	0	distractor	1	534	733	980	13.328	13.293	13.363
ProbeTrack09	2	ProbeTrack	1470	SCS215a	20090429.104100	20090429.104356	8	0.013327	60	0	60-180	60	176	NoGap	1	13	2	96	1	target	1	427	787	1767	13.328	13.293	13.363
ProbeTrack09	2	ProbeTrack	1470	SCS215a	20090429.104100	20090429.104404	8	0.013327	60	0	60-180	60	130	NoGap	1	14	2	96	0	target	0	467	-1000	767	13.328	13.292	13.363
ProbeTrack09	2	ProbeTrack	1470	SCS215a	20090429.104100	20090429.104420	8	0.013327	60	0	60-180	60	95	NoGap	1	15	2	96	1	target	1	414	793	1560	13.328	13.293	13.363
ProbeTrack09	2	ProbeTrack	1470	SCS215a	20090429.104100	20090429.104428	8	0.013327	60	0	60-180	60	106	NoGap	1	16	2	6	0	target	0	707	-1000	560	13.328	13.292	13.363
ProbeTrack09	2	ProbeTrack	1470	SCS215a	20090429.104100	20090429.104435	8	0.013327	60	0	60-180	60	130	NoGap	1	17	2	6	1	target	1	613	694	1254	13.328	13.293	13.363
ProbeTrack09	2	ProbeTrack	1470	SCS215a	20090429.104100	20090429.104445	8	0.013327	60	0	60-180	60	143	NoGap	1	18	2	6	0	83	-3	627	-1000	254	13.328	13.293	13.363
ProbeTrack09	2	ProbeTrack	1470	SCS215a	20090429.104100	20090429.104454	8	0.013327	60	0	60-180	60	142	NoGap	1	19	2	3	0	distractor	1	573	714	968	13.328	13.293	13.363
ProbeTrack09	2	ProbeTrack	1470	SCS215a	20090429.104100	20090429.104501	8	0.013327	60	0	60-180	60	173	NoGap	1	20	2	6	0	distractor	1	507	747	1715	13.328	13.293	13.363
ProbeTrack09	2	ProbeTrack	1470	SCS215a	20090429.104100	20090429.104508	8	0.013327	60	0	60-180	60	150	NoGap	1	21	2	0	0	distractor	1	400	800	2515	13.328	13.293	13.363
ProbeTrack09	2	ProbeTrack	1470	SCS215a	20090429.104100	20090429.104514	8	0.013327	60	0	60-180	60	118	NoGap	1	22	2	3	0	distractor	1	494	753	3268	13.328	13.292	13.363
ProbeTrack09	2	ProbeTrack	1470	SCS215a	20090429.104100	20090429.104522	8	0.013327	60	0	60-180	60	89	NoGap	1	23	2	0	1	target	1	587	707	3975	13.328	13.293	13.363
ProbeTrack09	2	ProbeTrack	1470	SCS215a	20090429.104100	20090429.104530	8	0.013327	60	0	60-180	60	111	NoGap	1	24	2	0	1	target	1	467	767	4742	13.328	13.293	13.363
ProbeTrack09	2	ProbeTrack	1470	SCS215a	20090429.104100	20090429.104537	8	0.013327	60	0	60-180	60	126	NoGap	1	25	2	3	0	distractor	1	534	733	5475	13.328	13.293	13.363
ProbeTrack09	2	ProbeTrack	1470	SCS215a	20090429.104100	20090429.104544	8	0.013327	60	0	60-180	60	65	NoGap	1	26	2	96	0	distractor	1	560	720	6195	13.328	13.293	13.367
ProbeTrack09	2	ProbeTrack	1470	SCS215a	20090429.104100	20090429.104551	8	0.013327	60	0	60-180	60	126	NoGap	1	27	2	6	1	target	1	467	767	6962	13.328	13.293	13.363
ProbeTrack09	2	ProbeTrack	1470	SCS215a	20090429.104100	20090429.104557	8	0.013327	60	0	60-180	60	120	NoGap	1	28	2	96	1	target	1	667	667	7629	13.328	13.292	13.363
ProbeTrack09	2	ProbeTrack	1470	SCS215a	20090429.104100	20090429.104605	8	0.013327	60	0	60-180	60	138	NoGap	1	29	2	96	0	distractor	1	587	707	8336	13.328	13.293	13.363
ProbeTrack09	2	ProbeTrack	1470	SCS215a	20090429.104100	20090429.104613	8	0.013327	60	0	60-180	60	146	NoGap	1	30	2	6	1	target	1	640	680	9016	13.328	13.293	13.363
ProbeTrack09	2	ProbeTrack	1470	SCS215a	20090429.104100	20090429.104619	8	0.013327	60	0	60-180	60	104	NoGap	1	31	2	96	0	distractor	1	520	740	9756	13.328	13.293	13.363
ProbeTrack09	2	ProbeTrack	1470	SCS215a	20090429.104100	20090429.104627	8	0.013327	60	0	60-180	60	174	NoGap	1	32	2	6	0	distractor	1	627	687	10443	13.328	13.292	13.363
ProbeTrack09	2	ProbeTrack	1470	SCS215a	20090429.104100	20090429.104634	8	0.013327	60	0	60-180	60	151	NoGap	1	33	2	3	0	distractor	1	667	667	11110	13.328	13.290	13.366
ProbeTrack09	2	ProbeTrack	1470	SCS215a	20090429.104100	20090429.104642	8	0.013327	60	0	60-180	60	116	NoGap	1	34	2	0	0	distractor	1	520	740	11850	13.328	13.293	13.363
ProbeTrack09	2	ProbeTrack	1470	SCS215a	20090429.104100	20090429.104648	8	0.013327	60	0	60-180	60	112	NoGap	1	35	2	3	1	target	1	733	634	12484	13.328	13.293	13.363
ProbeTrack09	2	ProbeTrack	1470	SCS215a	20090429.104100	20090429.104654	8	0.013327	60	0	60-180	60	90	NoGap	1	36	2	96	0	distractor	1	947	527	13011	13.328	13.293	13.363
ProbeTrack09	2	ProbeTrack	1470	SCS215a	20090429.104100	20090429.104711	8	0.013327	60	0	60-180	60	161	NoGap	1	37	2	3	1	target	1	467	767	13778	13.328	13.292	13.363
ProbeTrack09	2	ProbeTrack	1470	SCS215a	20090429.104100	20090429.104746	8	0.013327	60	0	60-180	60	177	NoGap	1	38	2	0	1	target	1	587	707	14485	13.328	13.293	13.363
ProbeTrack09	2	ProbeTrack	1470	SCS215a	20090429.104100	20090429.104753	8	0.013327	60	0	60-180	60	115	NoGap	1	39	2	3	1	target	1	600	700	15185	13.328	13.293	13.363
ProbeTrack09	2	ProbeTrack	1470	SCS215a	20090429.104100	20090429.104802	8	0.013327	60	0	60-180	60	113	NoGap	1	40	2	0	1	target	1	547	727	15912	13.328	13.293	13.363
ProbeTrack09	2	ProbeTrack	1470	SCS215a	20090429.104100	20090429.104808	8	0.013327	60	0	60-180	60	130	NoGap	1	41	2	0	0	distractor	1	480	760	16672	13.328	13.293	13.363
ProbeTrack09	2	ProbeTrack	1470	SCS215a	20090429.104100	20090429.104815	8	0.013327	60	0	60-180	60	138	NoGap	1	42	2	3	0	target	0	520	-1000	15672	13.328	13.293	13.363
ProbeTrack09	2	ProbeTrack	1470	SCS215a	20090429.104100	20090429.104822	8	0.013327	60	0	60-180	60	106	NoGap	1	43	2	6	1	target	1	653	674	16346	13.327	13.288	13.366
ProbeTrack09	2	ProbeTrack	1470	SCS215a	20090429.104100	20090429.104857	8	0.013327	60	0	60-180	60	177	NoGap	1	44	2	3	1	target	1	400	800	17146	13.328	13.293	13.363
ProbeTrack09	2	ProbeTrack	1470	SCS215a	20090429.104100	20090429.104904	8	0.013327	60	0	60-180	60	152	NoGap	1	45	2	0	1	distractor	0	440	-1000	16146	13.328	13.293	13.363
ProbeTrack09	2	ProbeTrack	1470	SCS215a	20090429.104100	20090429.104911	8	0.013327	60	0	60-180	60	180	NoGap	1	46	2	6	1	target	1	520	740	16886	13.328	13.293	13.366
ProbeTrack09	2	ProbeTrack	1470	SCS215a	20090429.104100	20090429.104919	8	0.013327	60	0	60-180	60	79	NoGap	1	47	2	96	1	target	1	733	634	17520	13.328	13.293	13.363
ProbeTrack09	2	ProbeTrack	1470	SCS215a	20090429.104100	20090429.104926	8	0.013327	60	0	60-180	60	64	NoGap	1	48	2	3	1	target	1	547	727	18247	13.328	13.293	13.363
ProbeTrack09	2	ProbeTrack	1470	SCS215a	20090429.104100	20090429.104938	8	0.013327	60	0	60-180	60	139	NoGap	1	49	2	6	0	distractor	1	987	507	18754	13.328	13.292	13.363
ProbeTrack09	2	ProbeTrack	1470	SCS215a	20090429.104100	20090429.104945	8	0.013327	60	0	60-180	60	118	NoGap	1	50	2	0	0	distractor	1	733	634	19388	13.328	13.292	13.363
ProbeTrack09	2	ProbeTrack	1470	SCS215a	20090429.105110	20090429.105125	8	0.013328	60	10	60-180	60	109	GapPrac	1	1	2	6	0	target	0	5251	-1000	18388	13.328	13.292	13.363
ProbeTrack09	2	ProbeTrack	1470	SCS215a	20090429.105110	20090429.105138	8	0.013328	60	10	60-180	60	110	GapPrac	1	2	2	3	1	distractor	0	533	-1000	17388	13.328	13.293	13.363
ProbeTrack09	2	ProbeTrack	1470	SCS215a	20090429.105110	20090429.105147	8	0.013328	60	10	60-180	60	115	GapPrac	1	3	2	6	1	186	-3	587	-1000	16388	13.328	13.293	13.363
ProbeTrack09	2	ProbeTrack	1470	SCS215a	20090429.105110	20090429.105154	8	0.013328	60	10	60-180	60	104	GapPrac	1	4	2	0	1	target	1	574	713	17101	13.328	13.293	13.363
ProbeTrack09	2	ProbeTrack	1470	SCS215a	20090429.105110	20090429.105202	8	0.013328	60	10	60-180	60	100	GapPrac	1	5	2	0	1	target	1	334	833	17934	13.327	13.293	13.363
ProbeTrack09	2	ProbeTrack	1470	SCS215a	20090429.105110	20090429.105208	8	0.013328	60	10	60-180	60	88	GapPrac	1	6	2	0	1	distractor	0	480	-1000	16934	13.328	13.293	13.363
ProbeTrack09	2	ProbeTrack	1470	SCS215a	20090429.105110	20090429.105215	8	0.013328	60	10	60-180	60	127	GapPrac	1	7	2	96	1	target	1	1133	434	17368	13.328	13.293	13.363
ProbeTrack09	2	ProbeTrack	1470	SCS215a	20090429.105110	20090429.105228	8	0.013328	60	10	60-180	60	175	GapPrac	1	8	2	0	0	distractor	1	880	560	17928	13.328	13.293	13.364
ProbeTrack09	2	ProbeTrack	1470	SCS215a	20090429.105110	20090429.105236	8	0.013328	60	10	60-180	60	175	GapPrac	1	9	2	3	0	distractor	1	547	727	18655	13.328	13.293	13.363
ProbeTrack09	2	ProbeTrack	1470	SCS215a	20090429.105110	20090429.105244	8	0.013328	60	10	60-180	60	103	GapPrac	1	10	2	6	1	distractor	0	494	-1000	17655	13.328	13.293	13.363
ProbeTrack09	2	ProbeTrack	1470	SCS215a	20090429.105110	20090429.105250	8	0.013328	60	10	60-180	60	97	GapPrac	1	11	2	3	1	target	1	374	813	18468	13.328	13.293	13.363
ProbeTrack09	2	ProbeTrack	1470	SCS215a	20090429.105110	20090429.105257	8	0.013328	60	10	60-180	60	128	GapPrac	1	12	2	3	1	target	1	787	607	19075	13.328	13.293	13.363
ProbeTrack09	2	ProbeTrack	1470	SCS215a	20090429.105110	20090429.105304	8	0.013328	60	10	60-180	60	150	GapPrac	1	13	2	6	1	target	1	414	793	19868	13.328	13.293	13.364
ProbeTrack09	2	ProbeTrack	1470	SCS215a	20090429.105110	20090429.105310	8	0.013328	60	10	60-180	60	71	GapPrac	1	14	2	96	1	target	1	573	714	20582	13.328	13.291	13.365
ProbeTrack09	2	ProbeTrack	1470	SCS215a	20090429.105110	20090429.105317	8	0.013328	60	10	60-180	60	128	GapPrac	1	15	2	6	0	distractor	1	720	640	21222	13.328	13.293	13.363
ProbeTrack09	2	ProbeTrack	1470	SCS215a	20090429.105110	20090429.105333	8	0.013328	60	10	60-180	60	167	GapPrac	1	16	2	6	0	distractor	1	613	694	21916	13.328	13.292	13.363
ProbeTrack09	2	ProbeTrack	1470	SCS215a	20090429.105110	20090429.105340	8	0.013328	60	10	60-180	60	150	GapPrac	1	17	2	96	0	distractor	1	867	567	22483	13.328	13.293	13.363
ProbeTrack09	2	ProbeTrack	1470	SCS215a	20090429.105110	20090429.105349	8	0.013328	60	10	60-180	60	128	GapPrac	1	18	2	0	0	distractor	1	707	647	23130	13.328	13.293	13.363
ProbeTrack09	2	ProbeTrack	1470	SCS215a	20090429.105110	20090429.105356	8	0.013328	60	10	60-180	60	101	GapPrac	1	19	2	96	0	distractor	1	760	620	23750	13.328	13.293	13.363
ProbeTrack09	2	ProbeTrack	1470	SCS215a	20090429.105110	20090429.105403	8	0.013328	60	10	60-180	60	77	GapPrac	1	20	2	3	0	target	0	987	-1000	22750	13.328	13.293	13.363
ProbeTrack09	2	ProbeTrack	1470	SCS215a	20090429.105925	20090429.110023	8	0.013327	60	10	60-180	60	157	GapExp	1	1	2	3	1	target	1	813	594	23344	13.328	13.293	13.363
ProbeTrack09	2	ProbeTrack	1470	SCS215a	20090429.105925	20090429.110031	8	0.013327	60	10	60-180	60	115	GapExp	1	2	2	6	0	target	0	627	-1000	22344	13.328	13.293	13.363
ProbeTrack09	2	ProbeTrack	1470	SCS215a	20090429.105925	20090429.110037	8	0.013327	60	10	60-180	60	91	GapExp	1	3	2	6	1	target	1	520	740	23084	13.328	13.293	13.363
ProbeTrack09	2	ProbeTrack	1470	SCS215a	20090429.105925	20090429.110044	8	0.013327	60	10	60-180	60	178	GapExp	1	4	2	0	1	target	1	667	667	23751	13.328	13.293	13.363
ProbeTrack09	2	ProbeTrack	1470	SCS215a	20090429.105925	20090429.110118	8	0.013327	60	10	60-180	60	167	GapExp	1	5	2	96	1	target	1	560	720	24471	13.328	13.293	13.363
ProbeTrack09	2	ProbeTrack	1470	SCS215a	20090429.105925	20090429.110127	8	0.013327	60	10	60-180	60	174	GapExp	1	6	2	96	0	target	0	573	-1000	23471	13.328	13.293	13.363
ProbeTrack09	2	ProbeTrack	1470	SCS215a	20090429.105925	20090429.110135	8	0.013327	60	10	60-180	60	89	GapExp	1	7	2	3	0	distractor	1	1027	487	23958	13.328	13.292	13.363
ProbeTrack09	2	ProbeTrack	1470	SCS215a	20090429.105925	20090429.110157	8	0.013327	60	10	60-180	60	156	GapExp	1	8	2	0	0	target	0	920	-1000	22958	13.328	13.293	13.363
ProbeTrack09	2	ProbeTrack	1470	SCS215a	20090429.105925	20090429.110204	8	0.013327	60	10	60-180	60	81	GapExp	0	9	2	96	1	13	-3	720	-1000	21958	13.328	13.293	13.363
ProbeTrack09	2	ProbeTrack	1470	SCS215a	20090429.105925	20090429.110212	8	0.013327	60	10	60-180	60	176	GapExp	0	10	2	6	1	target	1	680	660	22618	13.328	13.292	13.363
ProbeTrack09	2	ProbeTrack	1470	SCS215a	20090429.105925	20090429.110219	8	0.013327	60	10	60-180	60	66	GapExp	0	11	2	3	1	target	1	1333	334	22952	13.327	13.293	13.363
ProbeTrack09	2	ProbeTrack	1470	SCS215a	20090429.105925	20090429.110226	8	0.013327	60	10	60-180	60	161	GapExp	0	12	2	3	1	target	1	693	654	23606	13.328	13.292	13.363
ProbeTrack09	2	ProbeTrack	1470	SCS215a	20090429.105925	20090429.110233	8	0.013327	60	10	60-180	60	86	GapExp	0	13	2	96	1	target	1	573	714	24320	13.328	13.293	13.363
ProbeTrack09	2	ProbeTrack	1470	SCS215a	20090429.105925	20090429.110240	8	0.013327	60	10	60-180	60	81	GapExp	0	14	2	6	1	target	1	827	587	24907	13.328	13.293	13.363
ProbeTrack09	2	ProbeTrack	1470	SCS215a	20090429.105925	20090429.110254	8	0.013327	60	10	60-180	60	119	GapExp	0	15	2	3	0	distractor	1	813	594	25501	13.328	13.293	13.363
ProbeTrack09	2	ProbeTrack	1470	SCS215a	20090429.105925	20090429.110300	8	0.013327	60	10	60-180	60	179	GapExp	0	16	2	0	0	target	0	693	-1000	24501	13.328	13.293	13.363
ProbeTrack09	2	ProbeTrack	1470	SCS215a	20090429.105925	20090429.110307	8	0.013327	60	10	60-180	60	162	GapExp	0	17	2	0	0	distractor	1	880	560	25061	13.328	13.289	13.363
ProbeTrack09	2	ProbeTrack	1470	SCS215a	20090429.105925	20090429.110315	8	0.013327	60	10	60-180	60	154	GapExp	0	18	2	6	1	target	1	640	680	25741	13.328	13.293	13.363
ProbeTrack09	2	ProbeTrack	1470	SCS215a	20090429.105925	20090429.110322	8	0.013327	60	10	60-180	60	137	GapExp	0	19	2	3	1	target	1	547	727	26468	13.328	13.293	13.363
ProbeTrack09	2	ProbeTrack	1470	SCS215a	20090429.105925	20090429.110343	8	0.013327	60	10	60-180	60	155	GapExp	0	20	2	6	1	target	1	507	747	27215	13.328	13.292	13.365
ProbeTrack09	2	ProbeTrack	1470	SCS215a	20090429.105925	20090429.110352	8	0.013327	60	10	60-180	60	162	GapExp	0	21	2	0	1	target	1	427	787	28002	13.328	13.291	13.364
ProbeTrack09	2	ProbeTrack	1470	SCS215a	20090429.105925	20090429.110358	8	0.013327	60	10	60-180	60	87	GapExp	0	22	2	3	0	distractor	1	827	587	28589	13.327	13.293	13.363
ProbeTrack09	2	ProbeTrack	1470	SCS215a	20090429.105925	20090429.110416	8	0.013327	60	10	60-180	60	135	GapExp	0	23	2	96	1	target	1	680	660	29249	13.328	13.289	13.363
ProbeTrack09	2	ProbeTrack	1470	SCS215a	20090429.105925	20090429.110427	8	0.013327	60	10	60-180	60	101	GapExp	0	24	2	0	1	distractor	0	707	-1000	28249	13.327	13.293	13.363
ProbeTrack09	2	ProbeTrack	1470	SCS215a	20090429.105925	20090429.110433	8	0.013327	60	10	60-180	60	94	GapExp	0	25	2	3	1	target	1	440	780	29029	13.328	13.293	13.364
ProbeTrack09	2	ProbeTrack	1470	SCS215a	20090429.105925	20090429.110439	8	0.013327	60	10	60-180	60	83	GapExp	0	26	2	0	0	distractor	1	827	587	29616	13.327	13.293	13.363
ProbeTrack09	2	ProbeTrack	1470	SCS215a	20090429.105925	20090429.110445	8	0.013327	60	10	60-180	60	139	GapExp	0	27	2	96	1	target	1	747	627	30243	13.328	13.292	13.363
ProbeTrack09	2	ProbeTrack	1470	SCS215a	20090429.105925	20090429.110455	8	0.013327	60	10	60-180	60	106	GapExp	0	28	2	0	1	distractor	0	1000	-1000	29243	13.328	13.293	13.363
ProbeTrack09	2	ProbeTrack	1470	SCS215a	20090429.105925	20090429.110502	8	0.013327	60	10	60-180	60	148	GapExp	0	29	2	0	0	distractor	1	787	607	29850	13.328	13.293	13.363
ProbeTrack09	2	ProbeTrack	1470	SCS215a	20090429.105925	20090429.110511	8	0.013327	60	10	60-180	60	122	GapExp	0	30	2	6	1	target	1	533	734	30584	13.328	13.292	13.363
ProbeTrack09	2	ProbeTrack	1470	SCS215a	20090429.105925	20090429.110517	8	0.013327	60	10	60-180	60	153	GapExp	0	31	2	3	0	target	0	893	-1000	29584	13.328	13.293	13.363
ProbeTrack09	2	ProbeTrack	1470	SCS215a	20090429.105925	20090429.110524	8	0.013327	60	10	60-180	60	102	GapExp	0	32	2	0	0	target	0	880	-1000	28584	13.328	13.293	13.363
ProbeTrack09	2	ProbeTrack	1470	SCS215a	20090429.105925	20090429.110542	8	0.013327	60	10	60-180	60	159	GapExp	0	33	2	3	0	target	0	560	-1000	27584	13.328	13.292	13.363
ProbeTrack09	2	ProbeTrack	1470	SCS215a	20090429.105925	20090429.110615	8	0.013327	60	10	60-180	60	79	GapExp	0	34	2	3	0	target	0	773	-1000	26584	13.328	13.293	13.364
ProbeTrack09	2	ProbeTrack	1470	SCS215a	20090429.105925	20090429.110621	8	0.013327	60	10	60-180	60	75	GapExp	0	35	2	6	1	target	1	813	594	27178	13.327	13.293	13.363
ProbeTrack09	2	ProbeTrack	1470	SCS215a	20090429.105925	20090429.110627	8	0.013327	60	10	60-180	60	94	GapExp	0	36	2	3	1	target	1	640	680	27858	13.328	13.293	13.363
ProbeTrack09	2	ProbeTrack	1470	SCS215a	20090429.105925	20090429.110650	8	0.013327	60	10	60-180	60	64	GapExp	0	37	2	96	0	target	0	560	-1000	26858	13.328	13.293	13.363
ProbeTrack09	2	ProbeTrack	1470	SCS215a	20090429.105925	20090429.110705	8	0.013327	60	10	60-180	60	122	GapExp	0	38	2	0	1	target	1	627	687	27545	13.328	13.292	13.363
ProbeTrack09	2	ProbeTrack	1470	SCS215a	20090429.105925	20090429.110710	8	0.013327	60	10	60-180	60	173	GapExp	0	39	2	96	0	distractor	1	707	647	28192	13.328	13.293	13.366
ProbeTrack09	2	ProbeTrack	1470	SCS215a	20090429.105925	20090429.110719	8	0.013327	60	10	60-180	60	113	GapExp	0	40	2	6	0	distractor	1	787	607	28799	13.328	13.293	13.363
ProbeTrack09	2	ProbeTrack	1470	SCS215a	20090429.105925	20090429.110726	8	0.013327	60	10	60-180	60	119	GapExp	0	41	2	0	1	target	1	840	580	29379	13.328	13.293	13.363
ProbeTrack09	2	ProbeTrack	1470	SCS215a	20090429.105925	20090429.110732	8	0.013327	60	10	60-180	60	158	GapExp	0	42	2	96	0	target	0	547	-1000	28379	13.328	13.292	13.363
ProbeTrack09	2	ProbeTrack	1470	SCS215a	20090429.105925	20090429.110744	8	0.013327	60	10	60-180	60	90	GapExp	0	43	2	0	1	target	1	667	667	29046	13.328	13.293	13.363
ProbeTrack09	2	ProbeTrack	1470	SCS215a	20090429.105925	20090429.110750	8	0.013327	60	10	60-180	60	157	GapExp	0	44	2	6	1	distractor	0	907	-1000	28046	13.328	13.292	13.364
ProbeTrack09	2	ProbeTrack	1470	SCS215a	20090429.105925	20090429.110757	8	0.013327	60	10	60-180	60	166	GapExp	0	45	2	0	0	target	0	613	-1000	27046	13.328	13.292	13.365
ProbeTrack09	2	ProbeTrack	1470	SCS215a	20090429.105925	20090429.110804	8	0.013327	60	10	60-180	60	154	GapExp	0	46	2	3	0	distractor	1	680	660	27706	13.328	13.289	13.365
ProbeTrack09	2	ProbeTrack	1470	SCS215a	20090429.105925	20090429.110811	8	0.013327	60	10	60-180	60	69	GapExp	0	47	2	3	0	distractor	1	800	600	28306	13.328	13.293	13.363
ProbeTrack09	2	ProbeTrack	1470	SCS215a	20090429.105925	20090429.110817	8	0.013327	60	10	60-180	60	66	GapExp	0	48	2	96	1	target	1	547	727	29033	13.328	13.293	13.363
ProbeTrack09	2	ProbeTrack	1470	SCS215a	20090429.105925	20090429.110824	8	0.013327	60	10	60-180	60	76	GapExp	0	49	2	96	0	distractor	1	680	660	29693	13.328	13.293	13.363
ProbeTrack09	2	ProbeTrack	1470	SCS215a	20090429.105925	20090429.110834	8	0.013327	60	10	60-180	60	84	GapExp	0	50	2	0	1	target	1	613	694	30387	13.328	13.293	13.363
ProbeTrack09	2	ProbeTrack	1470	SCS215a	20090429.105925	20090429.110839	8	0.013327	60	10	60-180	60	180	GapExp	0	51	2	0	1	target	1	573	714	31101	13.328	13.293	13.363
ProbeTrack09	2	ProbeTrack	1470	SCS215a	20090429.105925	20090429.110846	8	0.013327	60	10	60-180	60	116	GapExp	0	52	2	0	1	target	1	600	700	31801	13.328	13.293	13.363
ProbeTrack09	2	ProbeTrack	1470	SCS215a	20090429.105925	20090429.110913	8	0.013327	60	10	60-180	60	100	GapExp	0	53	2	6	0	target	0	467	-1000	30801	13.328	13.293	13.363
ProbeTrack09	2	ProbeTrack	1470	SCS215a	20090429.105925	20090429.110919	8	0.013327	60	10	60-180	60	155	GapExp	0	54	2	96	1	target	1	454	773	31574	13.328	13.293	13.363
ProbeTrack09	2	ProbeTrack	1470	SCS215a	20090429.105925	20090429.110927	8	0.013327	60	10	60-180	60	110	GapExp	0	55	2	6	0	distractor	1	787	607	32181	13.328	13.293	13.363
ProbeTrack09	2	ProbeTrack	1470	SCS215a	20090429.105925	20090429.110934	8	0.013327	60	10	60-180	60	101	GapExp	0	56	2	96	1	target	1	454	773	32954	13.328	13.292	13.363
ProbeTrack09	2	ProbeTrack	1470	SCS215a	20090429.105925	20090429.110941	8	0.013327	60	10	60-180	60	116	GapExp	0	57	2	6	1	target	1	480	760	33714	13.328	13.293	13.364
ProbeTrack09	2	ProbeTrack	1470	SCS215a	20090429.105925	20090429.110948	8	0.013327	60	10	60-180	60	145	GapExp	0	58	2	96	0	distractor	1	773	614	34328	13.328	13.293	13.363
ProbeTrack09	2	ProbeTrack	1470	SCS215a	20090429.105925	20090429.110958	8	0.013327	60	10	60-180	60	147	GapExp	0	59	2	6	1	target	1	494	753	35081	13.328	13.292	13.363
ProbeTrack09	2	ProbeTrack	1470	SCS215a	20090429.105925	20090429.111006	8	0.013327	60	10	60-180	60	97	GapExp	0	60	2	3	1	target	1	573	714	35795	13.328	13.292	13.363
ProbeTrack09	2	ProbeTrack	1470	SCS215a	20090429.105925	20090429.111012	8	0.013327	60	10	60-180	60	69	GapExp	0	61	2	96	1	target	1	600	700	36495	13.328	13.293	13.363
ProbeTrack09	2	ProbeTrack	1470	SCS215a	20090429.105925	20090429.111018	8	0.013327	60	10	60-180	60	128	GapExp	0	62	2	0	0	target	0	520	-1000	35495	13.328	13.291	13.363
ProbeTrack09	2	ProbeTrack	1470	SCS215a	20090429.105925	20090429.111025	8	0.013327	60	10	60-180	60	179	GapExp	0	63	2	3	0	distractor	1	693	654	36149	13.328	13.292	13.363
ProbeTrack09	2	ProbeTrack	1470	SCS215a	20090429.105925	20090429.111033	8	0.013327	60	10	60-180	60	134	GapExp	0	64	2	96	1	target	1	454	773	36922	13.328	13.293	13.363
ProbeTrack09	2	ProbeTrack	1470	SCS215a	20090429.105925	20090429.111040	8	0.013327	60	10	60-180	60	153	GapExp	0	65	2	6	1	target	1	520	740	37662	13.328	13.292	13.363
ProbeTrack09	2	ProbeTrack	1470	SCS215a	20090429.105925	20090429.111047	8	0.013327	60	10	60-180	60	128	GapExp	0	66	2	96	0	distractor	1	654	673	38335	13.328	13.293	13.363
ProbeTrack09	2	ProbeTrack	1470	SCS215a	20090429.105925	20090429.111055	8	0.013327	60	10	60-180	60	70	GapExp	0	67	2	0	1	target	1	467	767	39102	13.328	13.292	13.363
ProbeTrack09	2	ProbeTrack	1470	SCS215a	20090429.105925	20090429.111114	8	0.013327	60	10	60-180	60	117	GapExp	0	68	2	6	0	target	0	26509	-1000	38102	13.328	13.292	13.363
ProbeTrack09	2	ProbeTrack	1470	SCS215a	20090429.105925	20090429.111151	8	0.013327	60	10	60-180	60	106	GapExp	0	69	2	0	0	target	0	587	-1000	37102	13.328	13.292	13.363
ProbeTrack09	2	ProbeTrack	1470	SCS215a	20090429.105925	20090429.111203	8	0.013327	60	10	60-180	60	94	GapExp	0	70	2	96	1	target	1	467	767	37869	13.328	13.292	13.363
ProbeTrack09	2	ProbeTrack	1470	SCS215a	20090429.105925	20090429.111210	8	0.013327	60	10	60-180	60	97	GapExp	0	71	2	6	0	target	0	573	-1000	36869	13.328	13.293	13.363
ProbeTrack09	2	ProbeTrack	1470	SCS215a	20090429.105925	20090429.111216	8	0.013327	60	10	60-180	60	96	GapExp	0	72	2	96	0	distractor	1	760	620	37489	13.328	13.292	13.363
ProbeTrack09	2	ProbeTrack	1470	SCS215a	20090429.105925	20090429.111223	8	0.013327	60	10	60-180	60	83	GapExp	0	73	2	96	1	target	1	360	820	38309	13.328	13.291	13.363
ProbeTrack09	2	ProbeTrack	1470	SCS215a	20090429.105925	20090429.111230	8	0.013327	60	10	60-180	60	174	GapExp	0	74	2	6	0	target	0	1440	-1000	37309	13.328	13.293	13.363
ProbeTrack09	2	ProbeTrack	1470	SCS215a	20090429.105925	20090429.111237	8	0.013327	60	10	60-180	60	150	GapExp	0	75	2	96	1	target	1	1027	487	37796	13.328	13.293	13.363
ProbeTrack09	2	ProbeTrack	1470	SCS215a	20090429.105925	20090429.111246	8	0.013327	60	10	60-180	60	104	GapExp	0	76	2	96	0	target	0	773	-1000	36796	13.328	13.292	13.363
ProbeTrack09	2	ProbeTrack	1470	SCS215a	20090429.105925	20090429.111254	8	0.013327	60	10	60-180	60	69	GapExp	0	77	2	3	1	target	1	640	680	37476	13.327	13.293	13.364
ProbeTrack09	2	ProbeTrack	1470	SCS215a	20090429.105925	20090429.111300	8	0.013327	60	10	60-180	60	135	GapExp	0	78	2	3	0	distractor	1	747	627	38103	13.328	13.292	13.363
ProbeTrack09	2	ProbeTrack	1470	SCS215a	20090429.105925	20090429.111306	8	0.013327	60	10	60-180	60	170	GapExp	0	79	2	0	0	distractor	1	827	587	38690	13.328	13.293	13.364
ProbeTrack09	2	ProbeTrack	1470	SCS215a	20090429.105925	20090429.111313	8	0.013327	60	10	60-180	60	170	GapExp	0	80	2	0	1	target	1	707	647	39337	13.328	13.293	13.363
ProbeTrack09	2	ProbeTrack	1470	SCS215a	20090429.105925	20090429.111320	8	0.013327	60	10	60-180	60	107	GapExp	0	81	2	0	0	target	0	614	-1000	38337	13.328	13.292	13.363
ProbeTrack09	2	ProbeTrack	1470	SCS215a	20090429.105925	20090429.111326	8	0.013327	60	10	60-180	60	71	GapExp	0	82	2	6	0	distractor	1	800	600	38937	13.327	13.293	13.363
ProbeTrack09	2	ProbeTrack	1470	SCS215a	20090429.105925	20090429.111332	8	0.013327	60	10	60-180	60	152	GapExp	0	83	2	0	0	target	0	574	-1000	37937	13.328	13.293	13.363
ProbeTrack09	2	ProbeTrack	1470	SCS215a	20090429.105925	20090429.111339	8	0.013327	60	10	60-180	60	105	GapExp	0	84	2	0	0	target	0	880	-1000	36937	13.328	13.292	13.363
ProbeTrack09	2	ProbeTrack	1470	SCS215a	20090429.105925	20090429.111346	8	0.013327	60	10	60-180	60	172	GapExp	0	85	2	96	0	distractor	1	720	640	37577	13.328	13.292	13.364
ProbeTrack09	2	ProbeTrack	1470	SCS215a	20090429.105925	20090429.111355	8	0.013327	60	10	60-180	60	81	GapExp	0	86	2	0	1	target	1	747	627	38204	13.327	13.293	13.363
ProbeTrack09	2	ProbeTrack	1470	SCS215a	20090429.105925	20090429.111401	8	0.013327	60	10	60-180	60	148	GapExp	0	87	2	3	0	distractor	1	680	660	38864	13.328	13.292	13.363
ProbeTrack09	2	ProbeTrack	1470	SCS215a	20090429.105925	20090429.111407	8	0.013327	60	10	60-180	60	62	GapExp	0	88	2	6	1	target	1	520	740	39604	13.328	13.292	13.363
ProbeTrack09	2	ProbeTrack	1470	SCS215a	20090429.105925	20090429.111413	8	0.013327	60	10	60-180	60	125	GapExp	0	89	2	0	0	target	0	573	-1000	38604	13.328	13.293	13.363
ProbeTrack09	2	ProbeTrack	1470	SCS215a	20090429.105925	20090429.111419	8	0.013327	60	10	60-180	60	100	GapExp	0	90	2	6	1	target	1	560	720	39324	13.328	13.293	13.363
ProbeTrack09	2	ProbeTrack	1470	SCS215a	20090429.105925	20090429.111425	8	0.013327	60	10	60-180	60	133	GapExp	0	91	2	6	1	target	1	547	727	40051	13.328	13.293	13.363
ProbeTrack09	2	ProbeTrack	1470	SCS215a	20090429.105925	20090429.111432	8	0.013327	60	10	60-180	60	137	GapExp	0	92	2	0	1	target	1	520	740	40791	13.328	13.293	13.363
ProbeTrack09	2	ProbeTrack	1470	SCS215a	20090429.105925	20090429.111438	8	0.013327	60	10	60-180	60	148	GapExp	0	93	2	6	1	target	1	467	767	41558	13.328	13.292	13.363
ProbeTrack09	2	ProbeTrack	1470	SCS215a	20090429.105925	20090429.111445	8	0.013327	60	10	60-180	60	125	GapExp	0	94	2	96	0	distractor	1	693	654	42212	13.328	13.290	13.366
ProbeTrack09	2	ProbeTrack	1470	SCS215a	20090429.105925	20090429.111513	8	0.013327	60	10	60-180	60	109	GapExp	0	95	2	96	0	distractor	1	560	720	42932	13.328	13.289	13.363
ProbeTrack09	2	ProbeTrack	1470	SCS215a	20090429.105925	20090429.111521	8	0.013327	60	10	60-180	60	83	GapExp	0	96	2	6	1	target	1	520	740	43672	13.328	13.293	13.363
ProbeTrack09	2	ProbeTrack	1470	SCS215a	20090429.105925	20090429.111526	8	0.013327	60	10	60-180	60	89	GapExp	0	97	2	3	0	distractor	1	813	594	44266	13.328	13.293	13.363
ProbeTrack09	2	ProbeTrack	1470	SCS215a	20090429.105925	20090429.111539	8	0.013327	60	10	60-180	60	66	GapExp	0	98	2	0	0	distractor	1	733	634	44900	13.328	13.293	13.363
ProbeTrack09	2	ProbeTrack	1470	SCS215a	20090429.105925	20090429.111547	8	0.013327	60	10	60-180	60	70	GapExp	0	99	2	3	0	distractor	1	667	667	45567	13.328	13.293	13.363
ProbeTrack09	2	ProbeTrack	1470	SCS215a	20090429.105925	20090429.111553	8	0.013327	60	10	60-180	60	143	GapExp	0	100	2	3	0	target	0	920	-1000	44567	13.328	13.293	13.363
ProbeTrack09	2	ProbeTrack	1470	SCS215a	20090429.105925	20090429.111600	8	0.013327	60	10	60-180	60	154	GapExp	0	101	2	6	0	distractor	1	667	667	45234	13.328	13.292	13.363
ProbeTrack09	2	ProbeTrack	1470	SCS215a	20090429.105925	20090429.111653	8	0.013327	60	10	60-180	60	148	GapExp	0	102	2	0	0	distractor	1	853	574	45808	13.328	13.293	13.363
ProbeTrack09	2	ProbeTrack	1470	SCS215a	20090429.105925	20090429.111702	8	0.013327	60	10	60-180	60	115	GapExp	0	103	2	96	1	target	1	627	687	46495	13.328	13.293	13.363
ProbeTrack09	2	ProbeTrack	1470	SCS215a	20090429.105925	20090429.111709	8	0.013327	60	10	60-180	60	76	GapExp	0	104	2	0	1	target	1	707	647	47142	13.327	13.293	13.363
ProbeTrack09	2	ProbeTrack	1470	SCS215a	20090429.105925	20090429.111726	8	0.013327	60	10	60-180	60	111	GapExp	0	105	2	3	1	target	1	547	727	47869	13.328	13.293	13.363
ProbeTrack09	2	ProbeTrack	1470	SCS215a	20090429.105925	20090429.111732	8	0.013327	60	10	60-180	60	167	GapExp	0	106	2	0	0	distractor	1	680	660	48529	13.328	13.293	13.363
ProbeTrack09	2	ProbeTrack	1470	SCS215a	20090429.105925	20090429.111739	8	0.013327	60	10	60-180	60	107	GapExp	0	107	2	6	0	distractor	1	680	660	49189	13.328	13.293	13.363
ProbeTrack09	2	ProbeTrack	1470	SCS215a	20090429.105925	20090429.111745	8	0.013327	60	10	60-180	60	146	GapExp	0	108	2	0	0	distractor	1	640	680	49869	13.328	13.289	13.364
ProbeTrack09	2	ProbeTrack	1470	SCS215a	20090429.105925	20090429.111752	8	0.013327	60	10	60-180	60	148	GapExp	0	109	2	6	0	distractor	1	733	634	50503	13.328	13.288	13.366
ProbeTrack09	2	ProbeTrack	1470	SCS215a	20090429.105925	20090429.111759	8	0.013327	60	10	60-180	60	72	GapExp	0	110	2	96	1	distractor	0	480	-1000	49503	13.328	13.289	13.363
ProbeTrack09	2	ProbeTrack	1470	SCS215a	20090429.105925	20090429.111805	8	0.013327	60	10	60-180	60	156	GapExp	0	111	2	0	0	distractor	1	773	614	50117	13.328	13.290	13.363
ProbeTrack09	2	ProbeTrack	1470	SCS215a	20090429.105925	20090429.111812	8	0.013327	60	10	60-180	60	131	GapExp	0	112	2	96	1	target	1	840	580	50697	13.328	13.293	13.363
ProbeTrack09	2	ProbeTrack	1470	SCS215a	20090429.105925	20090429.111822	8	0.013327	60	10	60-180	60	103	GapExp	0	113	2	3	0	distractor	1	613	694	51391	13.328	13.293	13.363
ProbeTrack09	2	ProbeTrack	1470	SCS215a	20090429.105925	20090429.111828	8	0.013327	60	10	60-180	60	101	GapExp	0	114	2	96	1	target	1	707	647	52038	13.328	13.293	13.363
ProbeTrack09	2	ProbeTrack	1470	SCS215a	20090429.105925	20090429.111835	8	0.013327	60	10	60-180	60	157	GapExp	0	115	2	6	1	target	1	733	634	52672	13.328	13.293	13.363
ProbeTrack09	2	ProbeTrack	1470	SCS215a	20090429.105925	20090429.111847	8	0.013327	60	10	60-180	60	180	GapExp	0	116	2	6	0	distractor	1	667	667	53339	13.328	13.293	13.363
ProbeTrack09	2	ProbeTrack	1470	SCS215a	20090429.105925	20090429.111854	8	0.013327	60	10	60-180	60	159	GapExp	0	117	2	3	1	target	1	707	647	53986	13.328	13.293	13.363
ProbeTrack09	2	ProbeTrack	1470	SCS215a	20090429.105925	20090429.111902	8	0.013327	60	10	60-180	60	121	GapExp	0	118	2	6	0	distractor	1	494	753	54739	13.328	13.293	13.363
ProbeTrack09	2	ProbeTrack	1470	SCS215a	20090429.105925	20090429.111908	8	0.013327	60	10	60-180	60	127	GapExp	0	119	2	3	1	target	1	827	587	55326	13.328	13.292	13.363
ProbeTrack09	2	ProbeTrack	1470	SCS215a	20090429.105925	20090429.111915	8	0.013327	60	10	60-180	60	176	GapExp	0	120	2	6	1	target	1	773	614	55940	13.328	13.291	13.364
ProbeTrack09	2	ProbeTrack	1470	SCS215a	20090429.105925	20090429.111922	8	0.013327	60	10	60-180	60	162	GapExp	0	121	2	0	1	target	1	733	634	56574	13.328	13.293	13.364
ProbeTrack09	2	ProbeTrack	1470	SCS215a	20090429.105925	20090429.111929	8	0.013327	60	10	60-180	60	147	GapExp	0	122	2	96	0	distractor	1	707	647	57221	13.328	13.293	13.363
ProbeTrack09	2	ProbeTrack	1470	SCS215a	20090429.105925	20090429.111941	8	0.013327	60	10	60-180	60	82	GapExp	0	123	2	6	0	target	0	787	-1000	56221	13.328	13.293	13.363
ProbeTrack09	2	ProbeTrack	1470	SCS215a	20090429.105925	20090429.111947	8	0.013327	60	10	60-180	60	110	GapExp	0	124	2	96	1	target	1	653	674	56895	13.328	13.293	13.363
ProbeTrack09	2	ProbeTrack	1470	SCS215a	20090429.105925	20090429.111955	8	0.013327	60	10	60-180	60	159	GapExp	0	125	2	0	1	target	1	680	660	57555	13.328	13.292	13.363
ProbeTrack09	2	ProbeTrack	1470	SCS215a	20090429.105925	20090429.112002	8	0.013327	60	10	60-180	60	157	GapExp	0	126	2	3	1	target	1	467	767	58322	13.328	13.293	13.363
ProbeTrack09	2	ProbeTrack	1470	SCS215a	20090429.105925	20090429.112008	8	0.013327	60	10	60-180	60	85	GapExp	0	127	2	96	0	distractor	1	600	700	59022	13.328	13.293	13.363
ProbeTrack09	2	ProbeTrack	1470	SCS215a	20090429.105925	20090429.112015	8	0.013327	60	10	60-180	60	108	GapExp	0	128	2	0	0	distractor	1	733	634	59656	13.328	13.291	13.363
ProbeTrack09	2	ProbeTrack	1470	SCS215a	20090429.105925	20090429.112022	8	0.013327	60	10	60-180	60	135	GapExp	0	129	2	6	1	target	1	747	627	60283	13.328	13.293	13.363
ProbeTrack09	2	ProbeTrack	1470	SCS215a	20090429.105925	20090429.112028	8	0.013327	60	10	60-180	60	108	GapExp	0	130	2	3	0	target	0	667	-1000	59283	13.328	13.293	13.363
ProbeTrack09	2	ProbeTrack	1470	SCS215a	20090429.105925	20090429.112038	8	0.013327	60	10	60-180	60	91	GapExp	0	131	2	96	0	distractor	1	614	693	59976	13.328	13.293	13.363
ProbeTrack09	2	ProbeTrack	1470	SCS215a	20090429.105925	20090429.112045	8	0.013327	60	10	60-180	60	82	GapExp	0	132	2	3	1	target	1	3146	0	59976	13.327	13.293	13.363
ProbeTrack09	2	ProbeTrack	1470	SCS215a	20090429.105925	20090429.112054	8	0.013327	60	10	60-180	60	90	GapExp	0	133	2	6	0	target	0	693	-1000	58976	13.327	13.291	13.365
ProbeTrack09	2	ProbeTrack	1470	SCS215a	20090429.105925	20090429.112100	8	0.013327	60	10	60-180	60	64	GapExp	0	134	2	96	1	distractor	0	534	-1000	57976	13.328	13.293	13.363
ProbeTrack09	2	ProbeTrack	1470	SCS215a	20090429.105925	20090429.112107	8	0.013327	60	10	60-180	60	155	GapExp	0	135	2	96	0	distractor	1	760	620	58596	13.328	13.292	13.363
ProbeTrack09	2	ProbeTrack	1470	SCS215a	20090429.105925	20090429.112116	8	0.013327	60	10	60-180	60	139	GapExp	0	136	2	3	1	target	1	600	700	59296	13.328	13.293	13.363
ProbeTrack09	2	ProbeTrack	1470	SCS215a	20090429.105925	20090429.112122	8	0.013327	60	10	60-180	60	134	GapExp	0	137	2	0	1	target	1	653	674	59970	13.328	13.293	13.363
ProbeTrack09	2	ProbeTrack	1470	SCS215a	20090429.105925	20090429.112129	8	0.013327	60	10	60-180	60	149	GapExp	0	138	2	3	1	target	1	427	787	60757	13.328	13.293	13.364
ProbeTrack09	2	ProbeTrack	1470	SCS215a	20090429.105925	20090429.112136	8	0.013327	60	10	60-180	60	171	GapExp	0	139	2	6	0	distractor	1	627	687	61444	13.328	13.293	13.363
ProbeTrack09	2	ProbeTrack	1470	SCS215a	20090429.105925	20090429.112143	8	0.013327	60	10	60-180	60	69	GapExp	0	140	2	3	0	distractor	1	707	647	62091	13.328	13.293	13.363
ProbeTrack09	2	ProbeTrack	1470	SCS215a	20090429.105925	20090429.112149	8	0.013327	60	10	60-180	60	83	GapExp	0	141	2	3	1	target	1	773	614	62705	13.328	13.293	13.363
ProbeTrack09	2	ProbeTrack	1470	SCS215a	20090429.105925	20090429.112155	8	0.013327	60	10	60-180	60	164	GapExp	0	142	2	3	1	target	1	574	713	63418	13.328	13.293	13.363
ProbeTrack09	2	ProbeTrack	1470	SCS215a	20090429.105925	20090429.112201	8	0.013327	60	10	60-180	60	111	GapExp	0	143	2	3	1	target	1	720	640	64058	13.328	13.293	13.363
ProbeTrack09	2	ProbeTrack	1470	SCS215a	20090429.105925	20090429.112207	8	0.013327	60	10	60-180	60	137	GapExp	0	144	2	96	1	target	1	613	694	64752	13.328	13.293	13.363
ProbeTrack09	2	ProbeTrack	1470	SCS215a	20090429.105925	20090429.112215	8	0.013327	60	10	60-180	60	98	GapExp	0	145	2	96	1	target	1	573	714	65466	13.328	13.293	13.363
ProbeTrack09	2	ProbeTrack	1470	SCS215a	20090429.105925	20090429.112222	8	0.013327	60	10	60-180	60	158	GapExp	0	146	2	0	1	target	1	533	734	66200	13.328	13.293	13.363
ProbeTrack09	2	ProbeTrack	1470	SCS215a	20090429.105925	20090429.112229	8	0.013327	60	10	60-180	60	171	GapExp	0	147	2	0	1	target	1	560	720	66920	13.328	13.293	13.363
ProbeTrack09	2	ProbeTrack	1470	SCS215a	20090429.105925	20090429.112239	8	0.013327	60	10	60-180	60	72	GapExp	0	148	2	6	1	target	1	467	767	67687	13.328	13.291	13.363
ProbeTrack09	2	ProbeTrack	1470	SCS215a	20090429.105925	20090429.112245	8	0.013327	60	10	60-180	60	148	GapExp	0	149	2	96	0	distractor	1	667	667	68354	13.328	13.293	13.363
ProbeTrack09	2	ProbeTrack	1470	SCS215a	20090429.105925	20090429.112253	8	0.013327	60	10	60-180	60	65	GapExp	0	150	2	0	0	target	0	947	-1000	67354	13.328	13.293	13.363
ProbeTrack09	2	ProbeTrack	1470	SCS215a	20090429.105925	20090429.112259	8	0.013327	60	10	60-180	60	65	GapExp	0	151	2	6	0	target	0	813	-1000	66354	13.328	13.293	13.363
ProbeTrack09	2	ProbeTrack	1470	SCS215a	20090429.105925	20090429.112330	8	0.013327	60	10	60-180	60	71	GapExp	0	152	2	96	0	distractor	1	587	707	67061	13.328	13.293	13.363
ProbeTrack09	2	ProbeTrack	1470	SCS215a	20090429.105925	20090429.112337	8	0.013327	60	10	60-180	60	179	GapExp	0	153	2	6	0	distractor	1	640	680	67741	13.328	13.293	13.363
ProbeTrack09	2	ProbeTrack	1470	SCS215a	20090429.105925	20090429.112344	8	0.013327	60	10	60-180	60	106	GapExp	0	154	2	96	1	target	1	614	693	68434	13.328	13.293	13.363
ProbeTrack09	2	ProbeTrack	1470	SCS215a	20090429.105925	20090429.112352	8	0.013327	60	10	60-180	60	105	GapExp	0	155	2	3	0	distractor	1	600	700	69134	13.327	13.292	13.363
ProbeTrack09	2	ProbeTrack	1470	SCS215a	20090429.105925	20090429.112359	8	0.013327	60	10	60-180	60	170	GapExp	0	156	2	0	0	distractor	1	733	634	69768	13.328	13.292	13.363
ProbeTrack09	2	ProbeTrack	1470	SCS215a	20090429.105925	20090429.112406	8	0.013327	60	10	60-180	60	97	GapExp	0	157	2	96	0	distractor	1	560	720	70488	13.328	13.293	13.363
ProbeTrack09	2	ProbeTrack	1470	SCS215a	20090429.105925	20090429.112414	8	0.013327	60	10	60-180	60	103	GapExp	0	158	2	0	0	target	0	760	-1000	69488	13.328	13.292	13.363
ProbeTrack09	2	ProbeTrack	1470	SCS215a	20090429.105925	20090429.112420	8	0.013327	60	10	60-180	60	169	GapExp	0	159	2	3	1	target	1	733	634	70122	13.328	13.293	13.363
ProbeTrack09	2	ProbeTrack	1470	SCS215a	20090429.105925	20090429.112427	8	0.013327	60	10	60-180	60	70	GapExp	0	160	2	3	0	distractor	1	840	580	70702	13.328	13.293	13.363
ProbeTrack09	2	ProbeTrack	1470	SCS215a	20090429.105925	20090429.112433	8	0.013327	60	10	60-180	60	150	GapExp	0	161	2	0	1	target	1	454	773	71475	13.328	13.293	13.363
ProbeTrack09	2	ProbeTrack	1470	SCS215a	20090429.105925	20090429.112440	8	0.013327	60	10	60-180	60	114	GapExp	0	162	2	3	1	distractor	0	853	-1000	70475	13.328	13.292	13.364
ProbeTrack09	2	ProbeTrack	1470	SCS215a	20090429.105925	20090429.112446	8	0.013327	60	10	60-180	60	93	GapExp	0	163	2	3	0	target	0	494	-1000	69475	13.328	13.293	13.363
ProbeTrack09	2	ProbeTrack	1470	SCS215a	20090429.105925	20090429.112452	8	0.013327	60	10	60-180	60	71	GapExp	0	164	2	96	1	target	1	680	660	70135	13.328	13.292	13.363
ProbeTrack09	2	ProbeTrack	1470	SCS215a	20090429.105925	20090429.112459	8	0.013327	60	10	60-180	60	170	GapExp	0	165	2	6	1	target	1	587	707	70842	13.328	13.293	13.363
ProbeTrack09	2	ProbeTrack	1470	SCS215a	20090429.105925	20090429.112506	8	0.013327	60	10	60-180	60	132	GapExp	0	166	2	96	0	distractor	1	520	740	71582	13.328	13.293	13.362
ProbeTrack09	2	ProbeTrack	1470	SCS215a	20090429.105925	20090429.112513	8	0.013327	60	10	60-180	60	169	GapExp	0	167	2	3	0	distractor	1	640	680	72262	13.328	13.293	13.363
ProbeTrack09	2	ProbeTrack	1470	SCS215a	20090429.105925	20090429.112520	8	0.013327	60	10	60-180	60	146	GapExp	0	168	2	96	0	distractor	1	600	700	72962	13.328	13.113	13.509
ProbeTrack09	2	ProbeTrack	1470	SCS215a	20090429.105925	20090429.112528	8	0.013327	60	10	60-180	60	141	GapExp	0	169	2	96	0	distractor	1	720	640	73602	13.328	13.292	13.363
ProbeTrack09	2	ProbeTrack	1470	SCS215a	20090429.105925	20090429.112536	8	0.013327	60	10	60-180	60	98	GapExp	0	170	2	3	1	target	1	667	667	74269	13.328	13.293	13.363
ProbeTrack09	2	ProbeTrack	1470	SCS215a	20090429.105925	20090429.112543	8	0.013327	60	10	60-180	60	106	GapExp	0	171	2	6	1	target	1	520	740	75009	13.328	13.293	13.363
ProbeTrack09	2	ProbeTrack	1470	SCS215a	20090429.105925	20090429.112554	8	0.013327	60	10	60-180	60	149	GapExp	0	172	2	3	1	target	1	600	700	75709	13.328	13.293	13.363
ProbeTrack09	2	ProbeTrack	1470	SCS215a	20090429.105925	20090429.112615	8	0.013327	60	10	60-180	60	72	GapExp	0	173	2	6	0	distractor	1	653	674	76383	13.328	13.293	13.363
ProbeTrack09	2	ProbeTrack	1470	SCS215a	20090429.105925	20090429.112620	8	0.013327	60	10	60-180	60	160	GapExp	0	174	2	96	1	target	1	587	707	77090	13.328	13.289	13.366
ProbeTrack09	2	ProbeTrack	1470	SCS215a	20090429.105925	20090429.112629	8	0.013327	60	10	60-180	60	160	GapExp	0	175	2	0	0	distractor	1	933	534	77624	13.328	13.289	13.366
ProbeTrack09	2	ProbeTrack	1470	SCS215a	20090429.105925	20090429.112637	8	0.013327	60	10	60-180	60	149	GapExp	0	176	2	3	0	distractor	1	1533	234	77858	13.328	13.293	13.363
ProbeTrack09	2	ProbeTrack	1470	SCS215a	20090429.105925	20090429.112645	8	0.013327	60	10	60-180	60	84	GapExp	0	177	2	3	1	target	1	520	740	78598	13.328	13.293	13.366
ProbeTrack09	2	ProbeTrack	1470	SCS215a	20090429.105925	20090429.112651	8	0.013327	60	10	60-180	60	157	GapExp	0	178	2	6	1	target	1	573	714	79312	13.328	13.290	13.366
ProbeTrack09	2	ProbeTrack	1470	SCS215a	20090429.105925	20090429.112657	8	0.013327	60	10	60-180	60	77	GapExp	0	179	2	6	0	distractor	1	560	720	80032	13.327	13.293	13.363
ProbeTrack09	2	ProbeTrack	1470	SCS215a	20090429.105925	20090429.112703	8	0.013327	60	10	60-180	60	108	GapExp	0	180	2	0	1	target	1	640	680	80712	13.328	13.293	13.363
ProbeTrack09	2	ProbeTrack	1470	SCS215a	20090429.105925	20090429.112709	8	0.013327	60	10	60-180	60	98	GapExp	0	181	2	96	0	distractor	1	747	627	81339	13.328	13.293	13.363
ProbeTrack09	2	ProbeTrack	1470	SCS215a	20090429.105925	20090429.112717	8	0.013327	60	10	60-180	60	168	GapExp	0	182	2	0	1	target	1	773	614	81953	13.328	13.293	13.363
ProbeTrack09	2	ProbeTrack	1470	SCS215a	20090429.105925	20090429.112728	8	0.013327	60	10	60-180	60	79	GapExp	0	183	2	96	0	distractor	1	947	527	82480	13.328	13.293	13.363
ProbeTrack09	2	ProbeTrack	1470	SCS215a	20090429.105925	20090429.112735	8	0.013327	60	10	60-180	60	118	GapExp	0	184	2	3	1	target	1	893	554	83034	13.328	13.291	13.363
ProbeTrack09	2	ProbeTrack	1470	SCS215a	20090429.105925	20090429.112741	8	0.013327	60	10	60-180	60	76	GapExp	0	185	2	3	0	distractor	1	613	694	83728	13.328	13.293	13.363
ProbeTrack09	2	ProbeTrack	1470	SCS215a	20090429.105925	20090429.112747	8	0.013327	60	10	60-180	60	155	GapExp	0	186	2	6	0	distractor	1	600	700	84428	13.328	13.292	13.363
ProbeTrack09	2	ProbeTrack	1470	SCS215a	20090429.105925	20090429.112754	8	0.013327	60	10	60-180	60	165	GapExp	0	187	2	3	0	distractor	1	600	700	85128	13.328	13.292	13.363
ProbeTrack09	2	ProbeTrack	1470	SCS215a	20090429.105925	20090429.112802	8	0.013327	60	10	60-180	60	108	GapExp	0	188	2	96	1	target	1	640	680	85808	13.328	13.293	13.363
ProbeTrack09	2	ProbeTrack	1470	SCS215a	20090429.105925	20090429.112810	8	0.013327	60	10	60-180	60	173	GapExp	0	189	2	3	1	target	1	480	760	86568	13.328	13.293	13.363
ProbeTrack09	2	ProbeTrack	1470	SCS215a	20090429.105925	20090429.112817	8	0.013327	60	10	60-180	60	160	GapExp	0	190	2	0	1	target	1	627	687	87255	13.328	13.293	13.363
ProbeTrack09	2	ProbeTrack	1470	SCS215a	20090429.105925	20090429.112825	8	0.013327	60	10	60-180	60	161	GapExp	0	191	2	0	0	distractor	1	613	694	87949	13.328	13.142	13.513
ProbeTrack09	2	ProbeTrack	1470	SCS215a	20090429.105925	20090429.112833	8	0.013327	60	10	60-180	60	118	GapExp	0	192	2	6	1	target	1	560	720	88669	13.328	13.291	13.363
ProbeTrack09	2	ProbeTrack	1470	SCS215a	20090429.105925	20090429.112839	8	0.013327	60	10	60-180	60	138	GapExp	0	193	2	6	0	distractor	1	667	667	89336	13.328	13.293	13.363
ProbeTrack09	2	ProbeTrack	1470	SCS215a	20090429.105925	20090429.112846	8	0.013327	60	10	60-180	60	148	GapExp	0	194	2	3	0	distractor	1	840	580	89916	13.328	13.293	13.363
ProbeTrack09	2	ProbeTrack	1470	SCS215a	20090429.105925	20090429.112853	8	0.013327	60	10	60-180	60	119	GapExp	0	195	2	96	0	distractor	1	494	753	90669	13.328	13.293	13.363
ProbeTrack09	2	ProbeTrack	1470	SCS215a	20090429.105925	20090429.112901	8	0.013327	60	10	60-180	60	119	GapExp	0	196	2	6	1	target	1	747	627	91296	13.328	13.293	13.363
ProbeTrack09	2	ProbeTrack	1470	SCS215a	20090429.105925	20090429.112907	8	0.013327	60	10	60-180	60	159	GapExp	0	197	2	6	0	distractor	1	653	674	91970	13.328	13.292	13.364
ProbeTrack09	2	ProbeTrack	1470	SCS215a	20090429.105925	20090429.112914	8	0.013327	60	10	60-180	60	137	GapExp	0	198	2	6	0	distractor	1	573	714	92684	13.328	13.293	13.363
ProbeTrack09	2	ProbeTrack	1470	SCS215a	20090429.105925	20090429.112921	8	0.013327	60	10	60-180	60	122	GapExp	0	199	2	6	0	distractor	1	947	527	93211	13.328	13.293	13.363
ProbeTrack09	2	ProbeTrack	1470	SCS215a	20090429.105925	20090429.112929	8	0.013327	60	10	60-180	60	77	GapExp	0	200	2	0	1	target	1	574	713	93924	13.328	13.293	13.362
