exp	sub	code	rev	comp	runtime	trialtime	nstim	refreshdur	cuedur	gapdur	gapOnsetRange	durPostProbe	gapOnsetTime	blocktype	prac	trial	ntargets	soa	probeTarget	resp	acc	rt	pts	tpts	meanFrameDur	minFrameDur	maxFrameDur
ProbeTrack09	6	ProbeTrack	1470	SCS215a	20090504.102806	20090504.102817	8	0.013328	60	0	60-180	60	168	NoGap	1	1	2	6	1	distractor	0	387	-1000	-1000	13.328	13.293	13.363
ProbeTrack09	6	ProbeTrack	1470	SCS215a	20090504.102806	20090504.102848	8	0.013328	60	0	60-180	60	123	NoGap	1	2	2	0	1	distractor	0	400	-1000	-2000	13.328	13.293	13.363
ProbeTrack09	6	ProbeTrack	1470	SCS215a	20090504.102806	20090504.102858	8	0.013328	60	0	60-180	60	94	NoGap	1	3	2	3	0	distractor	1	640	680	-1320	13.328	13.293	13.363
ProbeTrack09	6	ProbeTrack	1470	SCS215a	20090504.102806	20090504.102908	8	0.013328	60	0	60-180	60	91	NoGap	1	4	2	6	1	target	1	414	793	-527	13.328	13.289	13.363
ProbeTrack09	6	ProbeTrack	1470	SCS215a	20090504.102806	20090504.102918	8	0.013328	60	0	60-180	60	99	NoGap	1	5	2	96	1	target	1	387	807	280	13.328	13.293	13.364
ProbeTrack09	6	ProbeTrack	1470	SCS215a	20090504.102806	20090504.102925	8	0.013328	60	0	60-180	60	139	NoGap	1	6	2	6	0	distractor	1	400	800	1080	13.328	13.293	13.364
ProbeTrack09	6	ProbeTrack	1470	SCS215a	20090504.102806	20090504.102933	8	0.013328	60	0	60-180	60	156	NoGap	1	7	2	3	1	distractor	0	360	-1000	80	13.328	13.293	13.363
ProbeTrack09	6	ProbeTrack	1470	SCS215a	20090504.102806	20090504.102939	8	0.013328	60	0	60-180	60	142	NoGap	1	8	2	3	1	target	1	467	767	847	13.328	13.293	13.363
ProbeTrack09	6	ProbeTrack	1470	SCS215a	20090504.102806	20090504.102946	8	0.013328	60	0	60-180	60	141	NoGap	1	9	2	96	0	distractor	1	494	753	1600	13.328	13.292	13.366
ProbeTrack09	6	ProbeTrack	1470	SCS215a	20090504.102806	20090504.102955	8	0.013328	60	0	60-180	60	87	NoGap	1	10	2	0	0	distractor	1	614	693	2293	13.328	13.293	13.363
ProbeTrack09	6	ProbeTrack	1470	SCS215a	20090504.102806	20090504.103001	8	0.013328	60	0	60-180	60	99	NoGap	1	11	2	3	0	distractor	1	547	727	3020	13.328	13.293	13.363
ProbeTrack09	6	ProbeTrack	1470	SCS215a	20090504.102806	20090504.103007	8	0.013328	60	0	60-180	60	145	NoGap	1	12	2	96	0	distractor	1	360	820	3840	13.328	13.293	13.367
ProbeTrack09	6	ProbeTrack	1470	SCS215a	20090504.102806	20090504.103015	8	0.013328	60	0	60-180	60	175	NoGap	1	13	2	96	1	target	1	387	807	4647	13.328	13.293	13.363
ProbeTrack09	6	ProbeTrack	1470	SCS215a	20090504.102806	20090504.103025	8	0.013328	60	0	60-180	60	164	NoGap	1	14	2	96	0	distractor	1	374	813	5460	13.328	13.289	13.363
ProbeTrack09	6	ProbeTrack	1470	SCS215a	20090504.102806	20090504.103033	8	0.013328	60	0	60-180	60	147	NoGap	1	15	2	3	1	target	1	507	747	6207	13.328	13.293	13.363
ProbeTrack09	6	ProbeTrack	1470	SCS215a	20090504.102806	20090504.103039	8	0.013328	60	0	60-180	60	103	NoGap	1	16	2	6	1	distractor	0	374	-1000	5207	13.328	13.292	13.363
ProbeTrack09	6	ProbeTrack	1470	SCS215a	20090504.102806	20090504.103046	8	0.013328	60	0	60-180	60	163	NoGap	1	17	2	6	0	distractor	1	440	780	5987	13.328	13.293	13.363
ProbeTrack09	6	ProbeTrack	1470	SCS215a	20090504.102806	20090504.103053	8	0.013328	60	0	60-180	60	113	NoGap	1	18	2	6	0	distractor	1	520	740	6727	13.328	13.293	13.363
ProbeTrack09	6	ProbeTrack	1470	SCS215a	20090504.102806	20090504.103100	8	0.013328	60	0	60-180	60	132	NoGap	1	19	2	0	0	distractor	1	507	747	7474	13.328	13.293	13.364
ProbeTrack09	6	ProbeTrack	1470	SCS215a	20090504.102806	20090504.103106	8	0.013328	60	0	60-180	60	79	NoGap	1	20	2	3	0	distractor	1	414	793	8267	13.328	13.293	13.363
ProbeTrack09	6	ProbeTrack	1470	SCS215a	20090504.102806	20090504.103112	8	0.013328	60	0	60-180	60	155	NoGap	1	21	2	3	0	distractor	1	360	820	9087	13.328	13.293	13.368
ProbeTrack09	6	ProbeTrack	1470	SCS215a	20090504.102806	20090504.103119	8	0.013328	60	0	60-180	60	170	NoGap	1	22	2	6	0	distractor	1	400	800	9887	13.328	13.293	13.363
ProbeTrack09	6	ProbeTrack	1470	SCS215a	20090504.102806	20090504.103128	8	0.013328	60	0	60-180	60	107	NoGap	1	23	2	96	1	target	1	494	753	10640	13.328	13.293	13.363
ProbeTrack09	6	ProbeTrack	1470	SCS215a	20090504.102806	20090504.103135	8	0.013328	60	0	60-180	60	84	NoGap	1	24	2	0	0	distractor	1	427	787	11427	13.328	13.293	13.363
ProbeTrack09	6	ProbeTrack	1470	SCS215a	20090504.102806	20090504.103142	8	0.013328	60	0	60-180	60	158	NoGap	1	25	2	96	1	target	1	387	807	12234	13.328	13.293	13.363
ProbeTrack09	6	ProbeTrack	1470	SCS215a	20090504.102806	20090504.103150	8	0.013328	60	0	60-180	60	137	NoGap	1	26	2	3	1	target	1	374	813	13047	13.328	13.293	13.363
ProbeTrack09	6	ProbeTrack	1470	SCS215a	20090504.102806	20090504.103156	8	0.013328	60	0	60-180	60	170	NoGap	1	27	2	96	0	distractor	1	414	793	13840	13.328	13.293	13.363
ProbeTrack09	6	ProbeTrack	1470	SCS215a	20090504.102806	20090504.103204	8	0.013328	60	0	60-180	60	174	NoGap	1	28	2	96	0	distractor	1	467	767	14607	13.328	13.293	13.363
ProbeTrack09	6	ProbeTrack	1470	SCS215a	20090504.102806	20090504.103213	8	0.013328	60	0	60-180	60	81	NoGap	1	29	2	0	1	target	1	454	773	15380	13.328	13.293	13.363
ProbeTrack09	6	ProbeTrack	1470	SCS215a	20090504.102806	20090504.103219	8	0.013328	60	0	60-180	60	164	NoGap	1	30	2	6	0	distractor	1	374	813	16193	13.328	13.293	13.363
ProbeTrack09	6	ProbeTrack	1470	SCS215a	20090504.102806	20090504.103226	8	0.013328	60	0	60-180	60	146	NoGap	1	31	2	3	1	target	1	334	833	17026	13.328	13.293	13.363
ProbeTrack09	6	ProbeTrack	1470	SCS215a	20090504.102806	20090504.103233	8	0.013328	60	0	60-180	60	143	NoGap	1	32	2	3	0	distractor	1	494	753	17779	13.328	13.293	13.363
ProbeTrack09	6	ProbeTrack	1470	SCS215a	20090504.102806	20090504.103240	8	0.013328	60	0	60-180	60	70	NoGap	1	33	2	96	0	distractor	1	440	780	18559	13.328	13.293	13.363
ProbeTrack09	6	ProbeTrack	1470	SCS215a	20090504.102806	20090504.103247	8	0.013328	60	0	60-180	60	68	NoGap	1	34	2	6	0	distractor	1	440	780	19339	13.328	13.293	13.363
ProbeTrack09	6	ProbeTrack	1470	SCS215a	20090504.102806	20090504.103253	8	0.013328	60	0	60-180	60	97	NoGap	1	35	2	3	1	target	1	254	873	20212	13.328	13.293	13.363
ProbeTrack09	6	ProbeTrack	1470	SCS215a	20090504.102806	20090504.103258	8	0.013328	60	0	60-180	60	145	NoGap	1	36	2	6	1	target	1	347	827	21039	13.328	13.293	13.363
ProbeTrack09	6	ProbeTrack	1470	SCS215a	20090504.102806	20090504.103305	8	0.013328	60	0	60-180	60	78	NoGap	1	37	2	3	0	distractor	1	414	793	21832	13.328	13.293	13.363
ProbeTrack09	6	ProbeTrack	1470	SCS215a	20090504.102806	20090504.103311	8	0.013328	60	0	60-180	60	129	NoGap	1	38	2	0	1	distractor	0	334	-1000	20832	13.328	13.293	13.362
ProbeTrack09	6	ProbeTrack	1470	SCS215a	20090504.102806	20090504.103317	8	0.013328	60	0	60-180	60	109	NoGap	1	39	2	0	0	distractor	1	494	753	21585	13.328	13.293	13.363
ProbeTrack09	6	ProbeTrack	1470	SCS215a	20090504.102806	20090504.103323	8	0.013328	60	0	60-180	60	155	NoGap	1	40	2	0	0	target	0	440	-1000	20585	13.328	13.288	13.367
ProbeTrack09	6	ProbeTrack	1470	SCS215a	20090504.102806	20090504.103330	8	0.013328	60	0	60-180	60	93	NoGap	1	41	2	0	1	target	1	520	740	21325	13.328	13.293	13.363
ProbeTrack09	6	ProbeTrack	1470	SCS215a	20090504.102806	20090504.103336	8	0.013328	60	0	60-180	60	144	NoGap	1	42	2	96	1	distractor	0	307	-1000	20325	13.328	13.293	13.363
ProbeTrack09	6	ProbeTrack	1470	SCS215a	20090504.102806	20090504.103345	8	0.013328	60	0	60-180	60	176	NoGap	1	43	2	0	0	distractor	1	547	727	21052	13.328	13.293	13.363
ProbeTrack09	6	ProbeTrack	1470	SCS215a	20090504.102806	20090504.103352	8	0.013328	60	0	60-180	60	143	NoGap	1	44	2	6	1	target	1	374	813	21865	13.328	13.293	13.364
ProbeTrack09	6	ProbeTrack	1470	SCS215a	20090504.102806	20090504.103358	8	0.013328	60	0	60-180	60	78	NoGap	1	45	2	6	1	target	1	480	760	22625	13.328	13.293	13.365
ProbeTrack09	6	ProbeTrack	1470	SCS215a	20090504.102806	20090504.103404	8	0.013328	60	0	60-180	60	68	NoGap	1	46	2	6	1	target	1	374	813	23438	13.328	13.293	13.363
ProbeTrack09	6	ProbeTrack	1470	SCS215a	20090504.102806	20090504.103410	8	0.013328	60	0	60-180	60	106	NoGap	1	47	2	96	1	target	1	267	867	24305	13.328	13.293	13.363
ProbeTrack09	6	ProbeTrack	1470	SCS215a	20090504.102806	20090504.103419	8	0.013328	60	0	60-180	60	153	NoGap	1	48	2	3	1	distractor	0	267	-1000	23305	13.328	13.290	13.367
ProbeTrack09	6	ProbeTrack	1470	SCS215a	20090504.102806	20090504.103426	8	0.013328	60	0	60-180	60	160	NoGap	1	49	2	0	1	target	1	334	833	24138	13.328	13.293	13.363
ProbeTrack09	6	ProbeTrack	1470	SCS215a	20090504.102806	20090504.103433	8	0.013328	60	0	60-180	60	108	NoGap	1	50	2	0	1	target	1	400	800	24938	13.328	13.293	13.363
ProbeTrack09	6	ProbeTrack	1470	SCS215a	20090504.103551	20090504.103604	8	0.013327	60	10	60-180	60	165	GapPrac	1	1	2	6	1	target	1	520	740	25678	13.328	13.293	13.363
ProbeTrack09	6	ProbeTrack	1470	SCS215a	20090504.103551	20090504.103612	8	0.013327	60	10	60-180	60	174	GapPrac	1	2	2	3	0	target	0	427	-1000	24678	13.328	13.293	13.363
ProbeTrack09	6	ProbeTrack	1470	SCS215a	20090504.103551	20090504.103622	8	0.013327	60	10	60-180	60	147	GapPrac	1	3	2	96	1	distractor	0	547	-1000	23678	13.328	13.292	13.363
ProbeTrack09	6	ProbeTrack	1470	SCS215a	20090504.103551	20090504.103631	8	0.013327	60	10	60-180	60	178	GapPrac	1	4	2	3	1	target	1	440	780	24458	13.328	13.292	13.364
ProbeTrack09	6	ProbeTrack	1470	SCS215a	20090504.103551	20090504.103638	8	0.013327	60	10	60-180	60	166	GapPrac	1	5	2	6	1	distractor	0	414	-1000	23458	13.328	13.293	13.363
ProbeTrack09	6	ProbeTrack	1470	SCS215a	20090504.103551	20090504.103645	8	0.013327	60	10	60-180	60	79	GapPrac	1	6	2	96	0	target	0	280	-1000	22458	13.328	13.293	13.363
ProbeTrack09	6	ProbeTrack	1470	SCS215a	20090504.103551	20090504.103652	8	0.013327	60	10	60-180	60	126	GapPrac	1	7	2	3	1	target	1	387	807	23265	13.328	13.293	13.363
ProbeTrack09	6	ProbeTrack	1470	SCS215a	20090504.103551	20090504.103659	8	0.013327	60	10	60-180	60	170	GapPrac	1	8	2	6	1	distractor	0	334	-1000	22265	13.328	13.293	13.363
ProbeTrack09	6	ProbeTrack	1470	SCS215a	20090504.103551	20090504.103706	8	0.013327	60	10	60-180	60	143	GapPrac	1	9	2	96	1	target	1	400	800	23065	13.328	13.293	13.363
ProbeTrack09	6	ProbeTrack	1470	SCS215a	20090504.103551	20090504.103714	8	0.013327	60	10	60-180	60	66	GapPrac	1	10	2	6	0	target	0	520	-1000	22065	13.328	13.293	13.362
ProbeTrack09	6	ProbeTrack	1470	SCS215a	20090504.103551	20090504.103720	8	0.013327	60	10	60-180	60	130	GapPrac	1	11	2	0	1	target	1	454	773	22838	13.328	13.293	13.363
ProbeTrack09	6	ProbeTrack	1470	SCS215a	20090504.103551	20090504.103726	8	0.013327	60	10	60-180	60	163	GapPrac	1	12	2	0	1	target	1	454	773	23611	13.328	13.293	13.363
ProbeTrack09	6	ProbeTrack	1470	SCS215a	20090504.103551	20090504.103733	8	0.013327	60	10	60-180	60	91	GapPrac	1	13	2	96	0	distractor	1	374	813	24424	13.328	13.293	13.363
ProbeTrack09	6	ProbeTrack	1470	SCS215a	20090504.103551	20090504.103741	8	0.013327	60	10	60-180	60	110	GapPrac	1	14	2	6	0	distractor	1	480	760	25184	13.328	13.293	13.363
ProbeTrack09	6	ProbeTrack	1470	SCS215a	20090504.103551	20090504.103747	8	0.013327	60	10	60-180	60	172	GapPrac	1	15	2	0	0	distractor	1	440	780	25964	13.328	13.293	13.363
ProbeTrack09	6	ProbeTrack	1470	SCS215a	20090504.103551	20090504.103754	8	0.013327	60	10	60-180	60	79	GapPrac	1	16	2	3	0	distractor	1	360	820	26784	13.328	13.292	13.363
ProbeTrack09	6	ProbeTrack	1470	SCS215a	20090504.103551	20090504.103800	8	0.013327	60	10	60-180	60	147	GapPrac	1	17	2	96	1	target	1	440	780	27564	13.328	13.293	13.363
ProbeTrack09	6	ProbeTrack	1470	SCS215a	20090504.103551	20090504.103808	8	0.013327	60	10	60-180	60	82	GapPrac	1	18	2	3	0	distractor	1	534	733	28297	13.328	13.293	13.363
ProbeTrack09	6	ProbeTrack	1470	SCS215a	20090504.103551	20090504.103814	8	0.013327	60	10	60-180	60	131	GapPrac	1	19	2	3	1	distractor	0	347	-1000	27297	13.328	13.293	13.364
ProbeTrack09	6	ProbeTrack	1470	SCS215a	20090504.103551	20090504.103820	8	0.013327	60	10	60-180	60	159	GapPrac	1	20	2	0	0	target	0	494	-1000	26297	13.328	13.293	13.363
ProbeTrack09	6	ProbeTrack	1470	SCS215a	20090504.103935	20090504.103942	8	0.013328	60	10	60-180	60	109	GapExp	1	1	2	0	0	distractor	1	400	800	27097	13.328	13.293	13.363
ProbeTrack09	6	ProbeTrack	1470	SCS215a	20090504.103935	20090504.103950	8	0.013328	60	10	60-180	60	90	GapExp	1	2	2	96	1	target	1	334	833	27930	13.328	13.293	13.364
ProbeTrack09	6	ProbeTrack	1470	SCS215a	20090504.103935	20090504.104009	8	0.013328	60	10	60-180	60	118	GapExp	1	3	2	96	0	distractor	1	414	793	28723	13.328	13.289	13.367
ProbeTrack09	6	ProbeTrack	1470	SCS215a	20090504.103935	20090504.104017	8	0.013328	60	10	60-180	60	174	GapExp	1	4	2	3	0	distractor	1	534	733	29456	13.328	13.293	13.363
ProbeTrack09	6	ProbeTrack	1470	SCS215a	20090504.103935	20090504.104029	8	0.013328	60	10	60-180	60	97	GapExp	1	5	2	6	0	distractor	1	454	773	30229	13.328	13.292	13.363
ProbeTrack09	6	ProbeTrack	1470	SCS215a	20090504.103935	20090504.104035	8	0.013328	60	10	60-180	60	87	GapExp	1	6	2	0	1	target	1	507	747	30976	13.328	13.293	13.363
ProbeTrack09	6	ProbeTrack	1470	SCS215a	20090504.103935	20090504.104044	8	0.013328	60	10	60-180	60	102	GapExp	1	7	2	6	1	target	1	360	820	31796	13.328	13.293	13.364
ProbeTrack09	6	ProbeTrack	1470	SCS215a	20090504.103935	20090504.104050	8	0.013328	60	10	60-180	60	131	GapExp	1	8	2	3	1	target	1	480	760	32556	13.328	13.291	13.363
ProbeTrack09	6	ProbeTrack	1470	SCS215a	20090504.103935	20090504.104057	8	0.013328	60	10	60-180	60	72	GapExp	0	9	2	3	0	distractor	1	374	813	33369	13.328	13.292	13.363
ProbeTrack09	6	ProbeTrack	1470	SCS215a	20090504.103935	20090504.104102	8	0.013328	60	10	60-180	60	152	GapExp	0	10	2	3	0	distractor	1	414	793	34162	13.328	13.293	13.363
ProbeTrack09	6	ProbeTrack	1470	SCS215a	20090504.103935	20090504.104109	8	0.013328	60	10	60-180	60	103	GapExp	0	11	2	6	1	distractor	0	374	-1000	33162	13.328	13.289	13.366
ProbeTrack09	6	ProbeTrack	1470	SCS215a	20090504.103935	20090504.104115	8	0.013328	60	10	60-180	60	123	GapExp	0	12	2	6	0	target	0	387	-1000	32162	13.328	13.293	13.363
ProbeTrack09	6	ProbeTrack	1470	SCS215a	20090504.103935	20090504.104123	8	0.013328	60	10	60-180	60	142	GapExp	0	13	2	3	0	distractor	1	600	700	32862	13.328	13.293	13.363
ProbeTrack09	6	ProbeTrack	1470	SCS215a	20090504.103935	20090504.104130	8	0.013328	60	10	60-180	60	145	GapExp	0	14	2	6	1	target	1	387	807	33669	13.328	13.293	13.363
ProbeTrack09	6	ProbeTrack	1470	SCS215a	20090504.103935	20090504.104136	8	0.013328	60	10	60-180	60	146	GapExp	0	15	2	6	0	target	0	494	-1000	32669	13.328	13.293	13.363
ProbeTrack09	6	ProbeTrack	1470	SCS215a	20090504.103935	20090504.104143	8	0.013328	60	10	60-180	60	164	GapExp	0	16	2	6	1	distractor	0	400	-1000	31669	13.328	13.293	13.363
ProbeTrack09	6	ProbeTrack	1470	SCS215a	20090504.103935	20090504.104150	8	0.013328	60	10	60-180	60	180	GapExp	0	17	2	3	1	target	1	520	740	32409	13.328	13.293	13.364
ProbeTrack09	6	ProbeTrack	1470	SCS215a	20090504.103935	20090504.104158	8	0.013328	60	10	60-180	60	134	GapExp	0	18	2	6	0	distractor	1	547	727	33136	13.328	13.293	13.363
ProbeTrack09	6	ProbeTrack	1470	SCS215a	20090504.103935	20090504.104205	8	0.013328	60	10	60-180	60	111	GapExp	0	19	2	0	1	distractor	0	507	-1000	32136	13.328	13.292	13.364
ProbeTrack09	6	ProbeTrack	1470	SCS215a	20090504.103935	20090504.104218	8	0.013328	60	10	60-180	60	178	GapExp	0	20	2	0	0	target	0	507	-1000	31136	13.328	13.293	13.363
ProbeTrack09	6	ProbeTrack	1470	SCS215a	20090504.103935	20090504.104225	8	0.013328	60	10	60-180	60	92	GapExp	0	21	2	96	0	distractor	1	560	720	31856	13.328	13.293	13.363
ProbeTrack09	6	ProbeTrack	1470	SCS215a	20090504.103935	20090504.104232	8	0.013328	60	10	60-180	60	71	GapExp	0	22	2	6	0	target	0	494	-1000	30856	13.328	13.293	13.363
ProbeTrack09	6	ProbeTrack	1470	SCS215a	20090504.103935	20090504.104238	8	0.013328	60	10	60-180	60	101	GapExp	0	23	2	6	0	distractor	1	480	760	31616	13.328	13.289	13.363
ProbeTrack09	6	ProbeTrack	1470	SCS215a	20090504.103935	20090504.104244	8	0.013328	60	10	60-180	60	72	GapExp	0	24	2	3	0	distractor	1	534	733	32349	13.328	13.293	13.363
ProbeTrack09	6	ProbeTrack	1470	SCS215a	20090504.103935	20090504.104250	8	0.013328	60	10	60-180	60	81	GapExp	0	25	2	96	0	distractor	1	480	760	33109	13.328	13.293	13.363
ProbeTrack09	6	ProbeTrack	1470	SCS215a	20090504.103935	20090504.104257	8	0.013328	60	10	60-180	60	120	GapExp	0	26	2	6	0	distractor	1	440	780	33889	13.328	13.293	13.363
ProbeTrack09	6	ProbeTrack	1470	SCS215a	20090504.103935	20090504.104303	8	0.013328	60	10	60-180	60	150	GapExp	0	27	2	3	0	distractor	1	494	753	34642	13.328	13.293	13.363
ProbeTrack09	6	ProbeTrack	1470	SCS215a	20090504.103935	20090504.104310	8	0.013328	60	10	60-180	60	162	GapExp	0	28	2	3	0	distractor	1	534	733	35375	13.328	13.292	13.364
ProbeTrack09	6	ProbeTrack	1470	SCS215a	20090504.103935	20090504.104317	8	0.013328	60	10	60-180	60	147	GapExp	0	29	2	6	0	distractor	1	494	753	36128	13.328	13.293	13.363
ProbeTrack09	6	ProbeTrack	1470	SCS215a	20090504.103935	20090504.104323	8	0.013328	60	10	60-180	60	61	GapExp	0	30	2	96	1	target	1	627	687	36815	13.328	13.293	13.363
ProbeTrack09	6	ProbeTrack	1470	SCS215a	20090504.103935	20090504.104329	8	0.013328	60	10	60-180	60	98	GapExp	0	31	2	6	0	distractor	1	534	733	37548	13.328	13.293	13.363
ProbeTrack09	6	ProbeTrack	1470	SCS215a	20090504.103935	20090504.104336	8	0.013328	60	10	60-180	60	98	GapExp	0	32	2	96	0	distractor	1	294	853	38401	13.328	13.293	13.363
ProbeTrack09	6	ProbeTrack	1470	SCS215a	20090504.103935	20090504.104344	8	0.013328	60	10	60-180	60	61	GapExp	0	33	2	96	0	distractor	1	334	833	39234	13.328	13.293	13.363
ProbeTrack09	6	ProbeTrack	1470	SCS215a	20090504.103935	20090504.104351	8	0.013328	60	10	60-180	60	76	GapExp	0	34	2	0	0	target	0	467	-1000	38234	13.328	13.293	13.366
ProbeTrack09	6	ProbeTrack	1470	SCS215a	20090504.103935	20090504.104359	8	0.013328	60	10	60-180	60	152	GapExp	0	35	2	0	0	distractor	1	574	713	38947	13.328	13.293	13.363
ProbeTrack09	6	ProbeTrack	1470	SCS215a	20090504.103935	20090504.104408	8	0.013328	60	10	60-180	60	115	GapExp	0	36	2	96	1	target	1	480	760	39707	13.328	13.293	13.363
ProbeTrack09	6	ProbeTrack	1470	SCS215a	20090504.103935	20090504.104416	8	0.013328	60	10	60-180	60	152	GapExp	0	37	2	96	0	distractor	1	347	827	40534	13.328	13.293	13.363
ProbeTrack09	6	ProbeTrack	1470	SCS215a	20090504.103935	20090504.104424	8	0.013328	60	10	60-180	60	87	GapExp	0	38	2	6	1	distractor	0	467	-1000	39534	13.328	13.293	13.365
ProbeTrack09	6	ProbeTrack	1470	SCS215a	20090504.103935	20090504.104430	8	0.013328	60	10	60-180	60	162	GapExp	0	39	2	3	1	target	1	640	680	40214	13.328	13.293	13.363
ProbeTrack09	6	ProbeTrack	1470	SCS215a	20090504.103935	20090504.104438	8	0.013328	60	10	60-180	60	64	GapExp	0	40	2	3	1	target	1	427	787	41001	13.328	13.293	13.363
ProbeTrack09	6	ProbeTrack	1470	SCS215a	20090504.103935	20090504.104443	8	0.013328	60	10	60-180	60	61	GapExp	0	41	2	6	1	target	1	347	827	41828	13.328	13.293	13.363
ProbeTrack09	6	ProbeTrack	1470	SCS215a	20090504.103935	20090504.104449	8	0.013328	60	10	60-180	60	177	GapExp	0	42	2	6	0	distractor	1	427	787	42615	13.328	13.293	13.363
ProbeTrack09	6	ProbeTrack	1470	SCS215a	20090504.103935	20090504.104456	8	0.013328	60	10	60-180	60	157	GapExp	0	43	2	3	0	target	0	440	-1000	41615	13.328	13.289	13.367
ProbeTrack09	6	ProbeTrack	1470	SCS215a	20090504.103935	20090504.104502	8	0.013328	60	10	60-180	60	109	GapExp	0	44	2	6	1	distractor	0	547	-1000	40615	13.328	13.293	13.363
ProbeTrack09	6	ProbeTrack	1470	SCS215a	20090504.103935	20090504.104508	8	0.013328	60	10	60-180	60	175	GapExp	0	45	2	6	1	target	1	414	793	41408	13.328	13.293	13.363
ProbeTrack09	6	ProbeTrack	1470	SCS215a	20090504.103935	20090504.104515	8	0.013328	60	10	60-180	60	117	GapExp	0	46	2	0	1	target	1	467	767	42175	13.328	13.293	13.363
ProbeTrack09	6	ProbeTrack	1470	SCS215a	20090504.103935	20090504.104522	8	0.013328	60	10	60-180	60	87	GapExp	0	47	2	6	1	target	1	547	727	42902	13.328	13.289	13.366
ProbeTrack09	6	ProbeTrack	1470	SCS215a	20090504.103935	20090504.104533	8	0.013328	60	10	60-180	60	167	GapExp	0	48	2	0	1	distractor	0	720	-1000	41902	13.328	13.293	13.363
ProbeTrack09	6	ProbeTrack	1470	SCS215a	20090504.103935	20090504.104540	8	0.013328	60	10	60-180	60	146	GapExp	0	49	2	96	0	distractor	1	280	860	42762	13.328	13.293	13.363
ProbeTrack09	6	ProbeTrack	1470	SCS215a	20090504.103935	20090504.104548	8	0.013328	60	10	60-180	60	82	GapExp	0	50	2	3	1	target	1	494	753	43515	13.328	13.293	13.363
ProbeTrack09	6	ProbeTrack	1470	SCS215a	20090504.103935	20090504.104554	8	0.013328	60	10	60-180	60	170	GapExp	0	51	2	3	1	target	1	520	740	44255	13.328	13.293	13.364
ProbeTrack09	6	ProbeTrack	1470	SCS215a	20090504.103935	20090504.104603	8	0.013328	60	10	60-180	60	79	GapExp	0	52	2	0	0	distractor	1	494	753	45008	13.328	13.293	13.363
ProbeTrack09	6	ProbeTrack	1470	SCS215a	20090504.103935	20090504.104608	8	0.013328	60	10	60-180	60	80	GapExp	0	53	2	3	1	target	1	494	753	45761	13.328	13.293	13.363
ProbeTrack09	6	ProbeTrack	1470	SCS215a	20090504.103935	20090504.104614	8	0.013328	60	10	60-180	60	126	GapExp	0	54	2	3	1	distractor	0	494	-1000	44761	13.328	13.293	13.363
ProbeTrack09	6	ProbeTrack	1470	SCS215a	20090504.103935	20090504.104620	8	0.013328	60	10	60-180	60	145	GapExp	0	55	2	3	0	distractor	1	494	753	45514	13.328	13.293	13.363
ProbeTrack09	6	ProbeTrack	1470	SCS215a	20090504.103935	20090504.104627	8	0.013328	60	10	60-180	60	125	GapExp	0	56	2	3	1	target	1	733	634	46148	13.328	13.293	13.363
ProbeTrack09	6	ProbeTrack	1470	SCS215a	20090504.103935	20090504.104634	8	0.013328	60	10	60-180	60	176	GapExp	0	57	2	0	0	distractor	1	494	753	46901	13.328	13.292	13.363
ProbeTrack09	6	ProbeTrack	1470	SCS215a	20090504.103935	20090504.104646	8	0.013328	60	10	60-180	60	160	GapExp	0	58	2	96	0	distractor	1	400	800	47701	13.328	13.293	13.363
ProbeTrack09	6	ProbeTrack	1470	SCS215a	20090504.103935	20090504.104654	8	0.013328	60	10	60-180	60	171	GapExp	0	59	2	0	0	target	0	387	-1000	46701	13.328	13.293	13.363
ProbeTrack09	6	ProbeTrack	1470	SCS215a	20090504.103935	20090504.104702	8	0.013328	60	10	60-180	60	87	GapExp	0	60	2	6	1	distractor	0	427	-1000	45701	13.328	13.293	13.363
ProbeTrack09	6	ProbeTrack	1470	SCS215a	20090504.103935	20090504.104708	8	0.013328	60	10	60-180	60	103	GapExp	0	61	2	6	1	distractor	0	454	-1000	44701	13.328	13.293	13.363
ProbeTrack09	6	ProbeTrack	1470	SCS215a	20090504.103935	20090504.104714	8	0.013328	60	10	60-180	60	143	GapExp	0	62	2	6	0	distractor	1	480	760	45461	13.328	13.289	13.366
ProbeTrack09	6	ProbeTrack	1470	SCS215a	20090504.103935	20090504.104721	8	0.013328	60	10	60-180	60	93	GapExp	0	63	2	6	0	target	0	427	-1000	44461	13.328	13.293	13.362
ProbeTrack09	6	ProbeTrack	1470	SCS215a	20090504.103935	20090504.104727	8	0.013328	60	10	60-180	60	129	GapExp	0	64	2	96	0	distractor	1	547	727	45188	13.328	13.293	13.363
ProbeTrack09	6	ProbeTrack	1470	SCS215a	20090504.103935	20090504.104737	8	0.013328	60	10	60-180	60	140	GapExp	0	65	2	0	0	target	0	600	-1000	44188	13.328	13.289	13.366
ProbeTrack09	6	ProbeTrack	1470	SCS215a	20090504.103935	20090504.104744	8	0.013328	60	10	60-180	60	140	GapExp	0	66	2	0	0	distractor	1	520	740	44928	13.328	13.293	13.363
ProbeTrack09	6	ProbeTrack	1470	SCS215a	20090504.103935	20090504.104751	8	0.013328	60	10	60-180	60	158	GapExp	0	67	2	3	1	distractor	0	347	-1000	43928	13.328	13.292	13.363
ProbeTrack09	6	ProbeTrack	1470	SCS215a	20090504.103935	20090504.104758	8	0.013328	60	10	60-180	60	148	GapExp	0	68	2	6	0	distractor	1	467	767	44695	13.328	13.291	13.363
ProbeTrack09	6	ProbeTrack	1470	SCS215a	20090504.103935	20090504.104804	8	0.013328	60	10	60-180	60	64	GapExp	0	69	2	3	1	target	1	573	714	45409	13.328	13.293	13.365
ProbeTrack09	6	ProbeTrack	1470	SCS215a	20090504.103935	20090504.104810	8	0.013328	60	10	60-180	60	104	GapExp	0	70	2	6	0	distractor	1	427	787	46196	13.328	13.293	13.363
ProbeTrack09	6	ProbeTrack	1470	SCS215a	20090504.103935	20090504.104817	8	0.013328	60	10	60-180	60	162	GapExp	0	71	2	6	0	distractor	1	547	727	46923	13.328	13.291	13.363
ProbeTrack09	6	ProbeTrack	1470	SCS215a	20090504.103935	20090504.104823	8	0.013328	60	10	60-180	60	79	GapExp	0	72	2	6	0	target	0	520	-1000	45923	13.328	13.293	13.363
ProbeTrack09	6	ProbeTrack	1470	SCS215a	20090504.103935	20090504.104829	8	0.013328	60	10	60-180	60	178	GapExp	0	73	2	0	0	distractor	1	547	727	46650	13.328	13.293	13.366
ProbeTrack09	6	ProbeTrack	1470	SCS215a	20090504.103935	20090504.104836	8	0.013328	60	10	60-180	60	82	GapExp	0	74	2	0	1	target	1	547	727	47377	13.328	13.293	13.363
ProbeTrack09	6	ProbeTrack	1470	SCS215a	20090504.103935	20090504.104841	8	0.013328	60	10	60-180	60	152	GapExp	0	75	2	96	0	distractor	1	320	840	48217	13.328	13.293	13.363
ProbeTrack09	6	ProbeTrack	1470	SCS215a	20090504.103935	20090504.104849	8	0.013328	60	10	60-180	60	61	GapExp	0	76	2	3	0	distractor	1	507	747	48964	13.328	13.293	13.363
ProbeTrack09	6	ProbeTrack	1470	SCS215a	20090504.103935	20090504.104855	8	0.013328	60	10	60-180	60	142	GapExp	0	77	2	96	0	distractor	1	600	700	49664	13.328	13.292	13.363
ProbeTrack09	6	ProbeTrack	1470	SCS215a	20090504.103935	20090504.104903	8	0.013328	60	10	60-180	60	161	GapExp	0	78	2	3	1	distractor	0	534	-1000	48664	13.328	13.293	13.363
ProbeTrack09	6	ProbeTrack	1470	SCS215a	20090504.103935	20090504.104910	8	0.013328	60	10	60-180	60	74	GapExp	0	79	2	96	1	target	1	494	753	49417	13.328	13.293	13.363
ProbeTrack09	6	ProbeTrack	1470	SCS215a	20090504.103935	20090504.104917	8	0.013328	60	10	60-180	60	158	GapExp	0	80	2	0	1	target	1	454	773	50190	13.328	13.293	13.363
ProbeTrack09	6	ProbeTrack	1470	SCS215a	20090504.103935	20090504.104924	8	0.013328	60	10	60-180	60	88	GapExp	0	81	2	96	1	target	1	387	807	50997	13.328	13.293	13.363
ProbeTrack09	6	ProbeTrack	1470	SCS215a	20090504.103935	20090504.104931	8	0.013328	60	10	60-180	60	112	GapExp	0	82	2	3	1	target	1	467	767	51764	13.328	13.293	13.366
ProbeTrack09	6	ProbeTrack	1470	SCS215a	20090504.103935	20090504.104945	8	0.013328	60	10	60-180	60	76	GapExp	0	83	2	0	1	distractor	0	467	-1000	50764	13.328	13.293	13.363
ProbeTrack09	6	ProbeTrack	1470	SCS215a	20090504.103935	20090504.104950	8	0.013328	60	10	60-180	60	155	GapExp	0	84	2	0	1	target	1	387	807	51571	13.328	13.293	13.363
ProbeTrack09	6	ProbeTrack	1470	SCS215a	20090504.103935	20090504.104957	8	0.013328	60	10	60-180	60	162	GapExp	0	85	2	0	1	target	1	467	767	52338	13.328	13.293	13.363
ProbeTrack09	6	ProbeTrack	1470	SCS215a	20090504.103935	20090504.105003	8	0.013328	60	10	60-180	60	168	GapExp	0	86	2	96	1	target	1	507	747	53085	13.328	13.291	13.363
ProbeTrack09	6	ProbeTrack	1470	SCS215a	20090504.103935	20090504.105011	8	0.013328	60	10	60-180	60	133	GapExp	0	87	2	3	0	distractor	1	440	780	53865	13.328	13.293	13.363
ProbeTrack09	6	ProbeTrack	1470	SCS215a	20090504.103935	20090504.105018	8	0.013328	60	10	60-180	60	171	GapExp	0	88	2	96	1	distractor	0	414	-1000	52865	13.328	13.292	13.363
ProbeTrack09	6	ProbeTrack	1470	SCS215a	20090504.103935	20090504.105026	8	0.013328	60	10	60-180	60	143	GapExp	0	89	2	0	1	target	1	640	680	53545	13.328	13.289	13.363
ProbeTrack09	6	ProbeTrack	1470	SCS215a	20090504.103935	20090504.105033	8	0.013328	60	10	60-180	60	108	GapExp	0	90	2	96	1	target	1	400	800	54345	13.328	13.292	13.363
ProbeTrack09	6	ProbeTrack	1470	SCS215a	20090504.103935	20090504.105041	8	0.013328	60	10	60-180	60	149	GapExp	0	91	2	3	1	target	1	454	773	55118	13.328	13.293	13.363
ProbeTrack09	6	ProbeTrack	1470	SCS215a	20090504.103935	20090504.105048	8	0.013328	60	10	60-180	60	149	GapExp	0	92	2	96	0	distractor	1	334	833	55951	13.328	13.293	13.363
ProbeTrack09	6	ProbeTrack	1470	SCS215a	20090504.103935	20090504.105056	8	0.013328	60	10	60-180	60	141	GapExp	0	93	2	3	0	distractor	1	653	674	56625	13.328	13.293	13.363
ProbeTrack09	6	ProbeTrack	1470	SCS215a	20090504.103935	20090504.105103	8	0.013328	60	10	60-180	60	83	GapExp	0	94	2	6	0	distractor	1	427	787	57412	13.328	13.293	13.363
ProbeTrack09	6	ProbeTrack	1470	SCS215a	20090504.103935	20090504.105109	8	0.013328	60	10	60-180	60	67	GapExp	0	95	2	6	0	target	0	467	-1000	56412	13.328	13.293	13.362
ProbeTrack09	6	ProbeTrack	1470	SCS215a	20090504.103935	20090504.105114	8	0.013328	60	10	60-180	60	109	GapExp	0	96	2	96	1	target	1	427	787	57199	13.328	13.292	13.364
ProbeTrack09	6	ProbeTrack	1470	SCS215a	20090504.103935	20090504.105124	8	0.013328	60	10	60-180	60	72	GapExp	0	97	2	3	1	distractor	0	374	-1000	56199	13.328	13.293	13.363
ProbeTrack09	6	ProbeTrack	1470	SCS215a	20090504.103935	20090504.105129	8	0.013328	60	10	60-180	60	95	GapExp	0	98	2	3	1	target	1	747	627	56826	13.328	13.293	13.363
ProbeTrack09	6	ProbeTrack	1470	SCS215a	20090504.103935	20090504.105135	8	0.013328	60	10	60-180	60	66	GapExp	0	99	2	96	0	distractor	1	387	807	57633	13.328	13.293	13.363
ProbeTrack09	6	ProbeTrack	1470	SCS215a	20090504.103935	20090504.105142	8	0.013328	60	10	60-180	60	85	GapExp	0	100	2	0	0	target	0	747	-1000	56633	13.328	13.292	13.364
ProbeTrack09	6	ProbeTrack	1470	SCS215a	20090504.103935	20090504.105151	8	0.013328	60	10	60-180	60	77	GapExp	0	101	2	0	1	target	1	400	800	57433	13.328	13.293	13.363
ProbeTrack09	6	ProbeTrack	1470	SCS215a	20090504.103935	20090504.105213	8	0.013328	60	10	60-180	60	142	GapExp	0	102	2	3	0	distractor	1	480	760	58193	13.328	13.293	13.363
ProbeTrack09	6	ProbeTrack	1470	SCS215a	20090504.103935	20090504.105220	8	0.013328	60	10	60-180	60	78	GapExp	0	103	2	0	0	distractor	1	627	687	58880	13.328	13.293	13.363
ProbeTrack09	6	ProbeTrack	1470	SCS215a	20090504.103935	20090504.105226	8	0.013328	60	10	60-180	60	61	GapExp	0	104	2	0	1	target	1	507	747	59627	13.328	13.293	13.363
ProbeTrack09	6	ProbeTrack	1470	SCS215a	20090504.103935	20090504.105232	8	0.013328	60	10	60-180	60	167	GapExp	0	105	2	6	1	distractor	0	454	-1000	58627	13.328	13.285	13.366
ProbeTrack09	6	ProbeTrack	1470	SCS215a	20090504.103935	20090504.105240	8	0.013328	60	10	60-180	60	150	GapExp	0	106	2	3	0	distractor	1	600	700	59327	13.328	13.293	13.363
ProbeTrack09	6	ProbeTrack	1470	SCS215a	20090504.103935	20090504.105246	8	0.013328	60	10	60-180	60	123	GapExp	0	107	2	3	0	distractor	1	467	767	60094	13.328	13.293	13.363
ProbeTrack09	6	ProbeTrack	1470	SCS215a	20090504.103935	20090504.105255	8	0.013328	60	10	60-180	60	163	GapExp	0	108	2	96	0	distractor	1	400	800	60894	13.328	13.293	13.363
ProbeTrack09	6	ProbeTrack	1470	SCS215a	20090504.103935	20090504.105303	8	0.013328	60	10	60-180	60	91	GapExp	0	109	2	96	1	distractor	0	494	-1000	59894	13.328	13.292	13.363
ProbeTrack09	6	ProbeTrack	1470	SCS215a	20090504.103935	20090504.105310	8	0.013328	60	10	60-180	60	126	GapExp	0	110	2	96	1	target	1	440	780	60674	13.328	13.293	13.363
ProbeTrack09	6	ProbeTrack	1470	SCS215a	20090504.103935	20090504.105318	8	0.013328	60	10	60-180	60	151	GapExp	0	111	2	6	0	distractor	1	494	753	61427	13.328	13.293	13.363
ProbeTrack09	6	ProbeTrack	1470	SCS215a	20090504.103935	20090504.105325	8	0.013328	60	10	60-180	60	120	GapExp	0	112	2	3	0	distractor	1	400	800	62227	13.328	13.293	13.363
ProbeTrack09	6	ProbeTrack	1470	SCS215a	20090504.103935	20090504.105331	8	0.013328	60	10	60-180	60	159	GapExp	0	113	2	96	1	distractor	0	467	-1000	61227	13.328	13.292	13.363
ProbeTrack09	6	ProbeTrack	1470	SCS215a	20090504.103935	20090504.105339	8	0.013328	60	10	60-180	60	163	GapExp	0	114	2	6	1	target	1	534	733	61960	13.328	13.293	13.363
ProbeTrack09	6	ProbeTrack	1470	SCS215a	20090504.103935	20090504.105346	8	0.013328	60	10	60-180	60	94	GapExp	0	115	2	96	1	target	1	427	787	62747	13.328	13.293	13.363
ProbeTrack09	6	ProbeTrack	1470	SCS215a	20090504.103935	20090504.105353	8	0.013328	60	10	60-180	60	118	GapExp	0	116	2	0	1	distractor	0	587	-1000	61747	13.328	13.293	13.363
ProbeTrack09	6	ProbeTrack	1470	SCS215a	20090504.103935	20090504.105359	8	0.013328	60	10	60-180	60	89	GapExp	0	117	2	6	1	target	1	387	807	62554	13.328	13.293	13.363
ProbeTrack09	6	ProbeTrack	1470	SCS215a	20090504.103935	20090504.105405	8	0.013328	60	10	60-180	60	164	GapExp	0	118	2	0	0	distractor	1	534	733	63287	13.328	13.293	13.363
ProbeTrack09	6	ProbeTrack	1470	SCS215a	20090504.103935	20090504.105412	8	0.013328	60	10	60-180	60	174	GapExp	0	119	2	3	1	target	1	307	847	64134	13.328	13.293	13.363
ProbeTrack09	6	ProbeTrack	1470	SCS215a	20090504.103935	20090504.105419	8	0.013328	60	10	60-180	60	99	GapExp	0	120	2	3	0	target	0	467	-1000	63134	13.328	13.293	13.363
ProbeTrack09	6	ProbeTrack	1470	SCS215a	20090504.103935	20090504.105426	8	0.013328	60	10	60-180	60	96	GapExp	0	121	2	96	1	target	1	400	800	63934	13.328	13.293	13.362
ProbeTrack09	6	ProbeTrack	1470	SCS215a	20090504.103935	20090504.105435	8	0.013328	60	10	60-180	60	135	GapExp	0	122	2	3	1	target	1	374	813	64747	13.328	13.293	13.366
ProbeTrack09	6	ProbeTrack	1470	SCS215a	20090504.103935	20090504.105441	8	0.013328	60	10	60-180	60	115	GapExp	0	123	2	96	1	target	1	334	833	65580	13.328	13.293	13.363
ProbeTrack09	6	ProbeTrack	1470	SCS215a	20090504.103935	20090504.105448	8	0.013328	60	10	60-180	60	110	GapExp	0	124	2	3	0	distractor	1	640	680	66260	13.328	13.293	13.363
ProbeTrack09	6	ProbeTrack	1470	SCS215a	20090504.103935	20090504.105454	8	0.013328	60	10	60-180	60	113	GapExp	0	125	2	3	1	distractor	0	547	-1000	65260	13.328	13.292	13.363
ProbeTrack09	6	ProbeTrack	1470	SCS215a	20090504.103935	20090504.105501	8	0.013328	60	10	60-180	60	86	GapExp	0	126	2	0	1	target	1	400	800	66060	13.328	13.293	13.363
ProbeTrack09	6	ProbeTrack	1470	SCS215a	20090504.103935	20090504.105506	8	0.013328	60	10	60-180	60	137	GapExp	0	127	2	96	1	target	1	400	800	66860	13.328	13.293	13.363
ProbeTrack09	6	ProbeTrack	1470	SCS215a	20090504.103935	20090504.105513	8	0.013328	60	10	60-180	60	124	GapExp	0	128	2	0	1	target	1	400	800	67660	13.328	13.293	13.363
ProbeTrack09	6	ProbeTrack	1470	SCS215a	20090504.103935	20090504.105520	8	0.013328	60	10	60-180	60	91	GapExp	0	129	2	3	1	target	1	387	807	68467	13.328	13.293	13.363
ProbeTrack09	6	ProbeTrack	1470	SCS215a	20090504.103935	20090504.105526	8	0.013328	60	10	60-180	60	171	GapExp	0	130	2	96	0	distractor	1	307	847	69314	13.328	13.293	13.363
ProbeTrack09	6	ProbeTrack	1470	SCS215a	20090504.103935	20090504.105535	8	0.013328	60	10	60-180	60	105	GapExp	0	131	2	6	1	target	1	347	827	70141	13.328	13.293	13.363
ProbeTrack09	6	ProbeTrack	1470	SCS215a	20090504.103935	20090504.105541	8	0.013328	60	10	60-180	60	70	GapExp	0	132	2	0	1	target	1	387	807	70948	13.328	13.293	13.363
ProbeTrack09	6	ProbeTrack	1470	SCS215a	20090504.103935	20090504.105546	8	0.013328	60	10	60-180	60	162	GapExp	0	133	2	6	1	target	1	400	800	71748	13.328	13.293	13.363
ProbeTrack09	6	ProbeTrack	1470	SCS215a	20090504.103935	20090504.105602	8	0.013328	60	10	60-180	60	121	GapExp	0	134	2	96	0	distractor	1	334	833	72581	13.328	13.293	13.363
ProbeTrack09	6	ProbeTrack	1470	SCS215a	20090504.103935	20090504.105609	8	0.013328	60	10	60-180	60	140	GapExp	0	135	2	0	0	distractor	1	520	740	73321	13.328	13.293	13.363
ProbeTrack09	6	ProbeTrack	1470	SCS215a	20090504.103935	20090504.105616	8	0.013328	60	10	60-180	60	73	GapExp	0	136	2	0	0	distractor	1	827	587	73908	13.328	13.293	13.363
ProbeTrack09	6	ProbeTrack	1470	SCS215a	20090504.103935	20090504.105622	8	0.013328	60	10	60-180	60	106	GapExp	0	137	2	96	0	distractor	1	454	773	74681	13.328	13.293	13.363
ProbeTrack09	6	ProbeTrack	1470	SCS215a	20090504.103935	20090504.105629	8	0.013328	60	10	60-180	60	103	GapExp	0	138	2	96	0	distractor	1	467	767	75448	13.328	13.293	13.363
ProbeTrack09	6	ProbeTrack	1470	SCS215a	20090504.103935	20090504.105636	8	0.013328	60	10	60-180	60	159	GapExp	0	139	2	96	1	target	1	467	767	76215	13.328	13.293	13.363
ProbeTrack09	6	ProbeTrack	1470	SCS215a	20090504.103935	20090504.105644	8	0.013328	60	10	60-180	60	92	GapExp	0	140	2	0	1	distractor	0	414	-1000	75215	13.328	13.292	13.363
ProbeTrack09	6	ProbeTrack	1470	SCS215a	20090504.103935	20090504.105650	8	0.013328	60	10	60-180	60	97	GapExp	0	141	2	3	0	distractor	1	600	700	75915	13.328	13.293	13.363
ProbeTrack09	6	ProbeTrack	1470	SCS215a	20090504.103935	20090504.105656	8	0.013328	60	10	60-180	60	137	GapExp	0	142	2	3	0	distractor	1	587	707	76622	13.328	13.293	13.363
ProbeTrack09	6	ProbeTrack	1470	SCS215a	20090504.103935	20090504.105703	8	0.013328	60	10	60-180	60	81	GapExp	0	143	2	6	1	target	1	494	753	77375	13.328	13.290	13.366
ProbeTrack09	6	ProbeTrack	1470	SCS215a	20090504.103935	20090504.105709	8	0.013328	60	10	60-180	60	149	GapExp	0	144	2	0	0	target	0	547	-1000	76375	13.328	13.293	13.363
ProbeTrack09	6	ProbeTrack	1470	SCS215a	20090504.103935	20090504.105715	8	0.013328	60	10	60-180	60	75	GapExp	0	145	2	0	1	target	1	427	787	77162	13.328	13.293	13.363
ProbeTrack09	6	ProbeTrack	1470	SCS215a	20090504.103935	20090504.105721	8	0.013328	60	10	60-180	60	110	GapExp	0	146	2	3	0	distractor	1	507	747	77909	13.328	13.293	13.363
ProbeTrack09	6	ProbeTrack	1470	SCS215a	20090504.103935	20090504.105727	8	0.013328	60	10	60-180	60	75	GapExp	0	147	2	3	1	target	1	427	787	78696	13.328	13.293	13.363
ProbeTrack09	6	ProbeTrack	1470	SCS215a	20090504.103935	20090504.105732	8	0.013328	60	10	60-180	60	175	GapExp	0	148	2	6	1	target	1	414	793	79489	13.328	13.293	13.363
ProbeTrack09	6	ProbeTrack	1470	SCS215a	20090504.103935	20090504.105739	8	0.013328	60	10	60-180	60	77	GapExp	0	149	2	0	1	target	1	400	800	80289	13.328	13.293	13.363
ProbeTrack09	6	ProbeTrack	1470	SCS215a	20090504.103935	20090504.105745	8	0.013328	60	10	60-180	60	73	GapExp	0	150	2	0	0	distractor	1	600	700	80989	13.328	13.293	13.363
ProbeTrack09	6	ProbeTrack	1470	SCS215a	20090504.103935	20090504.105750	8	0.013328	60	10	60-180	60	135	GapExp	0	151	2	3	0	distractor	1	427	787	81776	13.328	13.293	13.363
ProbeTrack09	6	ProbeTrack	1470	SCS215a	20090504.103935	20090504.105757	8	0.013328	60	10	60-180	60	75	GapExp	0	152	2	6	1	target	1	400	800	82576	13.328	13.293	13.363
ProbeTrack09	6	ProbeTrack	1470	SCS215a	20090504.103935	20090504.105802	8	0.013328	60	10	60-180	60	109	GapExp	0	153	2	3	1	target	1	440	780	83356	13.328	13.293	13.363
ProbeTrack09	6	ProbeTrack	1470	SCS215a	20090504.103935	20090504.105808	8	0.013328	60	10	60-180	60	131	GapExp	0	154	2	0	0	distractor	1	440	780	84136	13.328	13.293	13.363
ProbeTrack09	6	ProbeTrack	1470	SCS215a	20090504.103935	20090504.105814	8	0.013328	60	10	60-180	60	104	GapExp	0	155	2	96	1	target	1	387	807	84943	13.328	13.291	13.364
ProbeTrack09	6	ProbeTrack	1470	SCS215a	20090504.103935	20090504.105822	8	0.013328	60	10	60-180	60	68	GapExp	0	156	2	0	1	target	1	440	780	85723	13.328	13.293	13.363
ProbeTrack09	6	ProbeTrack	1470	SCS215a	20090504.103935	20090504.105827	8	0.013328	60	10	60-180	60	151	GapExp	0	157	2	6	0	distractor	1	587	707	86430	13.328	13.293	13.363
ProbeTrack09	6	ProbeTrack	1470	SCS215a	20090504.103935	20090504.105834	8	0.013328	60	10	60-180	60	124	GapExp	0	158	2	6	0	target	0	533	-1000	85430	13.328	13.293	13.367
ProbeTrack09	6	ProbeTrack	1470	SCS215a	20090504.103935	20090504.105840	8	0.013328	60	10	60-180	60	61	GapExp	0	159	2	96	0	distractor	1	560	720	86150	13.328	13.293	13.363
ProbeTrack09	6	ProbeTrack	1470	SCS215a	20090504.103935	20090504.105847	8	0.013328	60	10	60-180	60	78	GapExp	0	160	2	6	0	distractor	1	587	707	86857	13.328	13.293	13.363
ProbeTrack09	6	ProbeTrack	1470	SCS215a	20090504.103935	20090504.105852	8	0.013328	60	10	60-180	60	177	GapExp	0	161	2	0	0	distractor	1	774	613	87470	13.328	13.293	13.367
ProbeTrack09	6	ProbeTrack	1470	SCS215a	20090504.103935	20090504.105900	8	0.013328	60	10	60-180	60	145	GapExp	0	162	2	6	1	target	1	733	634	88104	13.328	13.293	13.363
ProbeTrack09	6	ProbeTrack	1470	SCS215a	20090504.103935	20090504.105906	8	0.013328	60	10	60-180	60	109	GapExp	0	163	2	6	0	distractor	1	560	720	88824	13.328	13.290	13.367
ProbeTrack09	6	ProbeTrack	1470	SCS215a	20090504.103935	20090504.105912	8	0.013328	60	10	60-180	60	106	GapExp	0	164	2	0	1	target	1	667	667	89491	13.328	13.293	13.363
ProbeTrack09	6	ProbeTrack	1470	SCS215a	20090504.103935	20090504.105919	8	0.013328	60	10	60-180	60	176	GapExp	0	165	2	96	1	target	1	480	760	90251	13.328	13.293	13.363
ProbeTrack09	6	ProbeTrack	1470	SCS215a	20090504.103935	20090504.105927	8	0.013328	60	10	60-180	60	155	GapExp	0	166	2	96	0	distractor	1	507	747	90998	13.328	13.293	13.363
ProbeTrack09	6	ProbeTrack	1470	SCS215a	20090504.103935	20090504.105935	8	0.013328	60	10	60-180	60	75	GapExp	0	167	2	3	0	distractor	1	733	634	91632	13.328	13.293	13.363
ProbeTrack09	6	ProbeTrack	1470	SCS215a	20090504.103935	20090504.105942	8	0.013328	60	10	60-180	60	131	GapExp	0	168	2	3	0	distractor	1	627	687	92319	13.328	13.289	13.363
ProbeTrack09	6	ProbeTrack	1470	SCS215a	20090504.103935	20090504.105948	8	0.013328	60	10	60-180	60	150	GapExp	0	169	2	3	1	target	1	454	773	93092	13.328	13.292	13.363
ProbeTrack09	6	ProbeTrack	1470	SCS215a	20090504.103935	20090504.105955	8	0.013328	60	10	60-180	60	132	GapExp	0	170	2	96	0	distractor	1	547	727	93819	13.328	13.293	13.363
ProbeTrack09	6	ProbeTrack	1470	SCS215a	20090504.103935	20090504.110003	8	0.013328	60	10	60-180	60	86	GapExp	0	171	2	96	0	distractor	1	534	733	94552	13.328	13.293	13.363
ProbeTrack09	6	ProbeTrack	1470	SCS215a	20090504.103935	20090504.110010	8	0.013328	60	10	60-180	60	140	GapExp	0	172	2	0	0	distractor	1	627	687	95239	13.328	13.292	13.363
ProbeTrack09	6	ProbeTrack	1470	SCS215a	20090504.103935	20090504.110016	8	0.013328	60	10	60-180	60	81	GapExp	0	173	2	3	1	target	1	680	660	95899	13.328	13.290	13.363
ProbeTrack09	6	ProbeTrack	1470	SCS215a	20090504.103935	20090504.110022	8	0.013328	60	10	60-180	60	138	GapExp	0	174	2	96	0	distractor	1	587	707	96606	13.328	13.293	13.363
ProbeTrack09	6	ProbeTrack	1470	SCS215a	20090504.103935	20090504.110029	8	0.013328	60	10	60-180	60	116	GapExp	0	175	2	96	1	target	1	454	773	97379	13.328	13.293	13.363
ProbeTrack09	6	ProbeTrack	1470	SCS215a	20090504.103935	20090504.110037	8	0.013328	60	10	60-180	60	171	GapExp	0	176	2	96	1	target	1	414	793	98172	13.328	13.292	13.363
ProbeTrack09	6	ProbeTrack	1470	SCS215a	20090504.103935	20090504.110045	8	0.013328	60	10	60-180	60	116	GapExp	0	177	2	6	1	target	1	454	773	98945	13.328	13.293	13.363
ProbeTrack09	6	ProbeTrack	1470	SCS215a	20090504.103935	20090504.110051	8	0.013328	60	10	60-180	60	73	GapExp	0	178	2	3	1	target	1	427	787	99732	13.328	13.289	13.363
ProbeTrack09	6	ProbeTrack	1470	SCS215a	20090504.103935	20090504.110056	8	0.013328	60	10	60-180	60	71	GapExp	0	179	2	0	1	target	1	494	753	100485	13.328	13.293	13.363
ProbeTrack09	6	ProbeTrack	1470	SCS215a	20090504.103935	20090504.110102	8	0.013328	60	10	60-180	60	164	GapExp	0	180	2	3	0	distractor	1	507	747	101232	13.328	13.292	13.363
ProbeTrack09	6	ProbeTrack	1470	SCS215a	20090504.103935	20090504.110109	8	0.013328	60	10	60-180	60	94	GapExp	0	181	2	96	1	distractor	0	640	-1000	100232	13.328	13.293	13.363
ProbeTrack09	6	ProbeTrack	1470	SCS215a	20090504.103935	20090504.110116	8	0.013328	60	10	60-180	60	167	GapExp	0	182	2	0	0	distractor	1	627	687	100919	13.328	13.293	13.363
ProbeTrack09	6	ProbeTrack	1470	SCS215a	20090504.103935	20090504.110123	8	0.013328	60	10	60-180	60	160	GapExp	0	183	2	6	0	distractor	1	440	780	101699	13.328	13.289	13.363
ProbeTrack09	6	ProbeTrack	1470	SCS215a	20090504.103935	20090504.110129	8	0.013328	60	10	60-180	60	96	GapExp	0	184	2	96	0	distractor	1	174	913	102612	13.328	13.293	13.363
ProbeTrack09	6	ProbeTrack	1470	SCS215a	20090504.103935	20090504.110136	8	0.013328	60	10	60-180	60	133	GapExp	0	185	2	0	0	distractor	1	387	807	103419	13.328	13.293	13.363
ProbeTrack09	6	ProbeTrack	1470	SCS215a	20090504.103935	20090504.110143	8	0.013328	60	10	60-180	60	93	GapExp	0	186	2	6	1	target	1	374	813	104232	13.328	13.293	13.363
ProbeTrack09	6	ProbeTrack	1470	SCS215a	20090504.103935	20090504.110149	8	0.013328	60	10	60-180	60	115	GapExp	0	187	2	6	1	target	1	467	767	104999	13.328	13.293	13.363
ProbeTrack09	6	ProbeTrack	1470	SCS215a	20090504.103935	20090504.110155	8	0.013328	60	10	60-180	60	131	GapExp	0	188	2	0	0	distractor	1	533	734	105733	13.328	13.290	13.363
ProbeTrack09	6	ProbeTrack	1470	SCS215a	20090504.103935	20090504.110201	8	0.013328	60	10	60-180	60	101	GapExp	0	189	2	0	1	target	1	334	833	106566	13.328	13.291	13.364
ProbeTrack09	6	ProbeTrack	1470	SCS215a	20090504.103935	20090504.110208	8	0.013328	60	10	60-180	60	147	GapExp	0	190	2	0	0	distractor	1	467	767	107333	13.328	13.293	13.363
ProbeTrack09	6	ProbeTrack	1470	SCS215a	20090504.103935	20090504.110214	8	0.013328	60	10	60-180	60	153	GapExp	0	191	2	6	1	target	1	467	767	108100	13.328	13.293	13.363
ProbeTrack09	6	ProbeTrack	1470	SCS215a	20090504.103935	20090504.110221	8	0.013328	60	10	60-180	60	85	GapExp	0	192	2	96	1	target	1	347	827	108927	13.328	13.293	13.363
ProbeTrack09	6	ProbeTrack	1470	SCS215a	20090504.103935	20090504.110228	8	0.013328	60	10	60-180	60	89	GapExp	0	193	2	96	1	target	1	347	827	109754	13.328	13.292	13.363
ProbeTrack09	6	ProbeTrack	1470	SCS215a	20090504.103935	20090504.110234	8	0.013328	60	10	60-180	60	171	GapExp	0	194	2	6	0	distractor	1	614	693	110447	13.328	13.293	13.363
ProbeTrack09	6	ProbeTrack	1470	SCS215a	20090504.103935	20090504.110241	8	0.013328	60	10	60-180	60	120	GapExp	0	195	2	96	1	target	1	494	753	111200	13.328	13.293	13.363
ProbeTrack09	6	ProbeTrack	1470	SCS215a	20090504.103935	20090504.110249	8	0.013328	60	10	60-180	60	136	GapExp	0	196	2	0	1	target	1	414	793	111993	13.328	13.293	13.363
ProbeTrack09	6	ProbeTrack	1470	SCS215a	20090504.103935	20090504.110255	8	0.013328	60	10	60-180	60	78	GapExp	0	197	2	96	0	distractor	1	494	753	112746	13.328	13.293	13.363
ProbeTrack09	6	ProbeTrack	1470	SCS215a	20090504.103935	20090504.110302	8	0.013328	60	10	60-180	60	108	GapExp	0	198	2	0	1	target	1	454	773	113519	13.328	13.287	13.369
ProbeTrack09	6	ProbeTrack	1470	SCS215a	20090504.103935	20090504.110308	8	0.013328	60	10	60-180	60	166	GapExp	0	199	2	0	0	distractor	1	440	780	114299	13.328	13.293	13.363
ProbeTrack09	6	ProbeTrack	1470	SCS215a	20090504.103935	20090504.110314	8	0.013328	60	10	60-180	60	123	GapExp	0	200	2	6	1	target	1	374	813	115112	13.328	13.293	13.363
