exp	sub	code	rev	comp	runtime	trialtime	nstim	refreshdur	cuedur	gapdur	gapOnsetRange	durPostProbe	gapOnsetTime	blocktype	prac	trial	ntargets	soa	probeTarget	resp	acc	rt	pts	tpts	meanFrameDur	minFrameDur	maxFrameDur
ProbeTrack09	15	ProbeTrack	1470	SCS215a	20090522.132922	20090522.132931	8	0.013327	60	0	60-180	60	176	NoGap	1	1	2	3	1	target	1	640	680	680	13.328	13.293	13.363
ProbeTrack09	15	ProbeTrack	1470	SCS215a	20090522.132922	20090522.133009	8	0.013327	60	0	60-180	60	63	NoGap	1	2	2	96	1	target	1	493	754	1434	13.328	13.293	13.363
ProbeTrack09	15	ProbeTrack	1470	SCS215a	20090522.132922	20090522.133023	8	0.013327	60	0	60-180	60	162	NoGap	1	3	2	3	0	distractor	1	800	600	2034	13.328	13.291	13.366
ProbeTrack09	15	ProbeTrack	1470	SCS215a	20090522.132922	20090522.133031	8	0.013327	60	0	60-180	60	84	NoGap	1	4	2	6	0	distractor	1	707	647	2681	13.328	13.293	13.363
ProbeTrack09	15	ProbeTrack	1470	SCS215a	20090522.132922	20090522.133037	8	0.013327	60	0	60-180	60	132	NoGap	1	5	2	0	0	distractor	1	587	707	3388	13.328	13.293	13.363
ProbeTrack09	15	ProbeTrack	1470	SCS215a	20090522.132922	20090522.133044	8	0.013327	60	0	60-180	60	128	NoGap	1	6	2	0	1	distractor	0	467	-1000	2388	13.328	13.293	13.362
ProbeTrack09	15	ProbeTrack	1470	SCS215a	20090522.132922	20090522.133051	8	0.013327	60	0	60-180	60	82	NoGap	1	7	2	96	1	target	1	600	700	3088	13.328	13.293	13.363
ProbeTrack09	15	ProbeTrack	1470	SCS215a	20090522.132922	20090522.133058	8	0.013327	60	0	60-180	60	76	NoGap	1	8	2	0	0	distractor	1	1080	460	3548	13.328	13.293	13.364
ProbeTrack09	15	ProbeTrack	1470	SCS215a	20090522.132922	20090522.133104	8	0.013327	60	0	60-180	60	153	NoGap	1	9	2	96	0	distractor	1	640	680	4228	13.328	13.289	13.366
ProbeTrack09	15	ProbeTrack	1470	SCS215a	20090522.132922	20090522.133113	8	0.013327	60	0	60-180	60	117	NoGap	1	10	2	96	0	distractor	1	640	680	4908	13.328	13.293	13.363
ProbeTrack09	15	ProbeTrack	1470	SCS215a	20090522.132922	20090522.133120	8	0.013327	60	0	60-180	60	149	NoGap	1	11	2	6	0	distractor	1	627	687	5595	13.328	13.293	13.363
ProbeTrack09	15	ProbeTrack	1470	SCS215a	20090522.132922	20090522.133127	8	0.013327	60	0	60-180	60	129	NoGap	1	12	2	0	1	target	1	494	753	6348	13.328	13.292	13.364
ProbeTrack09	15	ProbeTrack	1470	SCS215a	20090522.132922	20090522.133133	8	0.013327	60	0	60-180	60	145	NoGap	1	13	2	6	0	distractor	1	653	674	7022	13.328	13.292	13.364
ProbeTrack09	15	ProbeTrack	1470	SCS215a	20090522.132922	20090522.133140	8	0.013327	60	0	60-180	60	109	NoGap	1	14	2	0	0	distractor	1	587	707	7729	13.328	13.293	13.363
ProbeTrack09	15	ProbeTrack	1470	SCS215a	20090522.132922	20090522.133146	8	0.013327	60	0	60-180	60	129	NoGap	1	15	2	96	1	target	1	667	667	8396	13.328	13.293	13.363
ProbeTrack09	15	ProbeTrack	1470	SCS215a	20090522.132922	20090522.133154	8	0.013327	60	0	60-180	60	134	NoGap	1	16	2	3	1	target	1	454	773	9169	13.328	13.293	13.363
ProbeTrack09	15	ProbeTrack	1470	SCS215a	20090522.132922	20090522.133200	8	0.013327	60	0	60-180	60	96	NoGap	1	17	2	96	0	distractor	1	573	714	9883	13.328	13.293	13.363
ProbeTrack09	15	ProbeTrack	1470	SCS215a	20090522.132922	20090522.133207	8	0.013327	60	0	60-180	60	123	NoGap	1	18	2	6	1	target	1	387	807	10690	13.328	13.293	13.363
ProbeTrack09	15	ProbeTrack	1470	SCS215a	20090522.132922	20090522.133213	8	0.013327	60	0	60-180	60	136	NoGap	1	19	2	6	0	target	0	427	-1000	9690	13.327	13.293	13.363
ProbeTrack09	15	ProbeTrack	1470	SCS215a	20090522.132922	20090522.133220	8	0.013327	60	0	60-180	60	113	NoGap	1	20	2	3	0	distractor	1	613	694	10384	13.327	13.293	13.363
ProbeTrack09	15	ProbeTrack	1470	SCS215a	20090522.132922	20090522.133226	8	0.013327	60	0	60-180	60	98	NoGap	1	21	2	96	0	distractor	1	547	727	11111	13.328	13.293	13.363
ProbeTrack09	15	ProbeTrack	1470	SCS215a	20090522.132922	20090522.133233	8	0.013327	60	0	60-180	60	91	NoGap	1	22	2	96	0	distractor	1	560	720	11831	13.328	13.292	13.363
ProbeTrack09	15	ProbeTrack	1470	SCS215a	20090522.132922	20090522.133240	8	0.013327	60	0	60-180	60	72	NoGap	1	23	2	96	1	target	1	400	800	12631	13.328	13.293	13.363
ProbeTrack09	15	ProbeTrack	1470	SCS215a	20090522.132922	20090522.133246	8	0.013327	60	0	60-180	60	131	NoGap	1	24	2	6	1	target	1	374	813	13444	13.327	13.293	13.363
ProbeTrack09	15	ProbeTrack	1470	SCS215a	20090522.132922	20090522.133252	8	0.013327	60	0	60-180	60	135	NoGap	1	25	2	3	1	target	1	480	760	14204	13.328	13.293	13.365
ProbeTrack09	15	ProbeTrack	1470	SCS215a	20090522.132922	20090522.133258	8	0.013327	60	0	60-180	60	73	NoGap	1	26	2	96	1	target	1	347	827	15031	13.328	13.293	13.363
ProbeTrack09	15	ProbeTrack	1470	SCS215a	20090522.132922	20090522.133304	8	0.013327	60	0	60-180	60	175	NoGap	1	27	2	3	1	target	1	360	820	15851	13.328	13.293	13.364
ProbeTrack09	15	ProbeTrack	1470	SCS215a	20090522.132922	20090522.133311	8	0.013327	60	0	60-180	60	114	NoGap	1	28	2	6	0	distractor	1	600	700	16551	13.327	13.293	13.363
ProbeTrack09	15	ProbeTrack	1470	SCS215a	20090522.132922	20090522.133317	8	0.013327	60	0	60-180	60	160	NoGap	1	29	2	0	0	target	0	467	-1000	15551	13.328	13.293	13.366
ProbeTrack09	15	ProbeTrack	1470	SCS215a	20090522.132922	20090522.133323	8	0.013327	60	0	60-180	60	90	NoGap	1	30	2	0	0	distractor	1	1027	487	16038	13.328	13.293	13.363
ProbeTrack09	15	ProbeTrack	1470	SCS215a	20090522.132922	20090522.133329	8	0.013327	60	0	60-180	60	162	NoGap	1	31	2	0	1	target	1	427	787	16825	13.328	13.293	13.363
ProbeTrack09	15	ProbeTrack	1470	SCS215a	20090522.132922	20090522.133336	8	0.013327	60	0	60-180	60	143	NoGap	1	32	2	6	0	distractor	1	467	767	17592	13.327	13.291	13.364
ProbeTrack09	15	ProbeTrack	1470	SCS215a	20090522.132922	20090522.133342	8	0.013327	60	0	60-180	60	100	NoGap	1	33	2	6	1	target	1	360	820	18412	13.328	13.293	13.363
ProbeTrack09	15	ProbeTrack	1470	SCS215a	20090522.132922	20090522.133348	8	0.013327	60	0	60-180	60	77	NoGap	1	34	2	3	0	distractor	1	534	733	19145	13.328	13.293	13.362
ProbeTrack09	15	ProbeTrack	1470	SCS215a	20090522.132922	20090522.133353	8	0.013327	60	0	60-180	60	118	NoGap	1	35	2	96	0	target	0	320	-1000	18145	13.328	13.292	13.363
ProbeTrack09	15	ProbeTrack	1470	SCS215a	20090522.132922	20090522.133400	8	0.013327	60	0	60-180	60	160	NoGap	1	36	2	96	0	distractor	1	414	793	18938	13.328	13.291	13.363
ProbeTrack09	15	ProbeTrack	1470	SCS215a	20090522.132922	20090522.133407	8	0.013327	60	0	60-180	60	83	NoGap	1	37	2	0	1	target	1	454	773	19711	13.328	13.293	13.363
ProbeTrack09	15	ProbeTrack	1470	SCS215a	20090522.132922	20090522.133413	8	0.013327	60	0	60-180	60	167	NoGap	1	38	2	3	1	distractor	0	427	-1000	18711	13.328	13.293	13.363
ProbeTrack09	15	ProbeTrack	1470	SCS215a	20090522.132922	20090522.133419	8	0.013327	60	0	60-180	60	156	NoGap	1	39	2	3	0	distractor	1	427	787	19498	13.328	13.292	13.363
ProbeTrack09	15	ProbeTrack	1470	SCS215a	20090522.132922	20090522.133427	8	0.013327	60	0	60-180	60	138	NoGap	1	40	2	0	1	target	1	494	753	20251	13.328	13.289	13.363
ProbeTrack09	15	ProbeTrack	1470	SCS215a	20090522.132922	20090522.133433	8	0.013327	60	0	60-180	60	93	NoGap	1	41	2	3	0	distractor	1	587	707	20958	13.328	13.293	13.363
ProbeTrack09	15	ProbeTrack	1470	SCS215a	20090522.132922	20090522.133439	8	0.013327	60	0	60-180	60	97	NoGap	1	42	2	0	0	distractor	1	533	734	21692	13.328	13.293	13.363
ProbeTrack09	15	ProbeTrack	1470	SCS215a	20090522.132922	20090522.133444	8	0.013327	60	0	60-180	60	146	NoGap	1	43	2	0	1	target	1	467	767	22459	13.328	13.292	13.363
ProbeTrack09	15	ProbeTrack	1470	SCS215a	20090522.132922	20090522.133451	8	0.013327	60	0	60-180	60	102	NoGap	1	44	2	3	1	target	1	507	747	23206	13.328	13.293	13.363
ProbeTrack09	15	ProbeTrack	1470	SCS215a	20090522.132922	20090522.133456	8	0.013327	60	0	60-180	60	76	NoGap	1	45	2	96	1	target	1	414	793	23999	13.328	13.293	13.363
ProbeTrack09	15	ProbeTrack	1470	SCS215a	20090522.132922	20090522.133503	8	0.013327	60	0	60-180	60	113	NoGap	1	46	2	6	1	target	1	334	833	24832	13.328	13.293	13.363
ProbeTrack09	15	ProbeTrack	1470	SCS215a	20090522.132922	20090522.133508	8	0.013327	60	0	60-180	60	148	NoGap	1	47	2	3	0	target	0	400	-1000	23832	13.328	13.293	13.363
ProbeTrack09	15	ProbeTrack	1470	SCS215a	20090522.132922	20090522.133514	8	0.013327	60	0	60-180	60	116	NoGap	1	48	2	96	1	distractor	0	467	-1000	22832	13.328	13.292	13.368
ProbeTrack09	15	ProbeTrack	1470	SCS215a	20090522.132922	20090522.133522	8	0.013327	60	0	60-180	60	167	NoGap	1	49	2	0	0	distractor	1	547	727	23559	13.328	13.293	13.362
ProbeTrack09	15	ProbeTrack	1470	SCS215a	20090522.132922	20090522.133529	8	0.013327	60	0	60-180	60	124	NoGap	1	50	2	6	1	target	1	374	813	24372	13.328	13.293	13.362
ProbeTrack09	15	ProbeTrack	1470	SCS215a	20090522.133649	20090522.133700	8	0.013328	60	10	60-180	60	75	GapPrac	1	1	2	3	0	target	0	840	-1000	23372	13.327	13.293	13.363
ProbeTrack09	15	ProbeTrack	1470	SCS215a	20090522.133649	20090522.133709	8	0.013328	60	10	60-180	60	80	GapPrac	1	2	2	6	0	distractor	1	693	654	24026	13.328	13.293	13.362
ProbeTrack09	15	ProbeTrack	1470	SCS215a	20090522.133649	20090522.133715	8	0.013328	60	10	60-180	60	85	GapPrac	1	3	2	0	0	distractor	1	840	580	24606	13.328	13.293	13.363
ProbeTrack09	15	ProbeTrack	1470	SCS215a	20090522.133649	20090522.133727	8	0.013328	60	10	60-180	60	113	GapPrac	1	4	2	6	1	target	1	454	773	25379	13.328	13.293	13.363
ProbeTrack09	15	ProbeTrack	1470	SCS215a	20090522.133649	20090522.133733	8	0.013328	60	10	60-180	60	122	GapPrac	1	5	2	6	0	distractor	1	494	753	26132	13.328	13.293	13.363
ProbeTrack09	15	ProbeTrack	1470	SCS215a	20090522.133649	20090522.133739	8	0.013328	60	10	60-180	60	64	GapPrac	1	6	2	96	0	distractor	1	654	673	26805	13.328	13.293	13.363
ProbeTrack09	15	ProbeTrack	1470	SCS215a	20090522.133649	20090522.133746	8	0.013328	60	10	60-180	60	91	GapPrac	1	7	2	3	1	target	1	653	674	27479	13.328	13.291	13.363
ProbeTrack09	15	ProbeTrack	1470	SCS215a	20090522.133649	20090522.133752	8	0.013328	60	10	60-180	60	111	GapPrac	1	8	2	0	0	distractor	1	1067	467	27946	13.328	13.293	13.363
ProbeTrack09	15	ProbeTrack	1470	SCS215a	20090522.133649	20090522.133758	8	0.013328	60	10	60-180	60	98	GapPrac	1	9	2	6	1	target	1	653	674	28620	13.328	13.292	13.363
ProbeTrack09	15	ProbeTrack	1470	SCS215a	20090522.133649	20090522.133805	8	0.013328	60	10	60-180	60	158	GapPrac	1	10	2	6	1	target	1	507	747	29367	13.328	13.293	13.363
ProbeTrack09	15	ProbeTrack	1470	SCS215a	20090522.133649	20090522.133811	8	0.013328	60	10	60-180	60	79	GapPrac	1	11	2	96	1	target	1	613	694	30061	13.328	13.292	13.363
ProbeTrack09	15	ProbeTrack	1470	SCS215a	20090522.133649	20090522.133818	8	0.013328	60	10	60-180	60	178	GapPrac	1	12	2	0	1	target	1	507	747	30808	13.328	13.292	13.363
ProbeTrack09	15	ProbeTrack	1470	SCS215a	20090522.133649	20090522.133825	8	0.013328	60	10	60-180	60	96	GapPrac	1	13	2	6	0	distractor	1	600	700	31508	13.328	13.293	13.362
ProbeTrack09	15	ProbeTrack	1470	SCS215a	20090522.133649	20090522.133830	8	0.013328	60	10	60-180	60	168	GapPrac	1	14	2	3	0	distractor	1	520	740	32248	13.328	13.293	13.363
ProbeTrack09	15	ProbeTrack	1470	SCS215a	20090522.133649	20090522.133837	8	0.013328	60	10	60-180	60	90	GapPrac	1	15	2	3	0	distractor	1	640	680	32928	13.328	13.292	13.363
ProbeTrack09	15	ProbeTrack	1470	SCS215a	20090522.133649	20090522.133843	8	0.013328	60	10	60-180	60	135	GapPrac	1	16	2	0	1	target	1	534	733	33661	13.328	13.293	13.363
ProbeTrack09	15	ProbeTrack	1470	SCS215a	20090522.133649	20090522.133849	8	0.013328	60	10	60-180	60	122	GapPrac	1	17	2	96	1	target	1	440	780	34441	13.328	13.292	13.363
ProbeTrack09	15	ProbeTrack	1470	SCS215a	20090522.133649	20090522.133856	8	0.013328	60	10	60-180	60	126	GapPrac	1	18	2	3	1	distractor	0	454	-1000	33441	13.328	13.293	13.363
ProbeTrack09	15	ProbeTrack	1470	SCS215a	20090522.133649	20090522.133902	8	0.013328	60	10	60-180	60	139	GapPrac	1	19	2	0	0	distractor	1	547	727	34168	13.328	13.293	13.363
ProbeTrack09	15	ProbeTrack	1470	SCS215a	20090522.133649	20090522.133909	8	0.013328	60	10	60-180	60	104	GapPrac	1	20	2	96	0	distractor	1	560	720	34888	13.328	13.293	13.363
ProbeTrack09	15	ProbeTrack	1470	SCS215a	20090522.134012	20090522.134028	8	0.013327	60	10	60-180	60	63	GapExp	1	1	2	6	0	distractor	1	707	647	35535	13.328	13.292	13.365
ProbeTrack09	15	ProbeTrack	1470	SCS215a	20090522.134012	20090522.134035	8	0.013327	60	10	60-180	60	126	GapExp	1	2	2	3	0	target	0	613	-1000	34535	13.328	13.293	13.363
ProbeTrack09	15	ProbeTrack	1470	SCS215a	20090522.134012	20090522.134041	8	0.013327	60	10	60-180	60	87	GapExp	1	3	2	96	1	target	1	427	787	35322	13.328	13.293	13.363
ProbeTrack09	15	ProbeTrack	1470	SCS215a	20090522.134012	20090522.134048	8	0.013327	60	10	60-180	60	100	GapExp	1	4	2	96	0	distractor	1	427	787	36109	13.328	13.292	13.363
ProbeTrack09	15	ProbeTrack	1470	SCS215a	20090522.134012	20090522.134055	8	0.013327	60	10	60-180	60	77	GapExp	1	5	2	0	1	target	1	627	687	36796	13.328	13.293	13.364
ProbeTrack09	15	ProbeTrack	1470	SCS215a	20090522.134012	20090522.134100	8	0.013327	60	10	60-180	60	153	GapExp	1	6	2	0	0	distractor	1	760	620	37416	13.328	13.293	13.363
ProbeTrack09	15	ProbeTrack	1470	SCS215a	20090522.134012	20090522.134107	8	0.013327	60	10	60-180	60	136	GapExp	1	7	2	6	1	target	1	480	760	38176	13.328	13.290	13.363
ProbeTrack09	15	ProbeTrack	1470	SCS215a	20090522.134012	20090522.134113	8	0.013327	60	10	60-180	60	112	GapExp	1	8	2	3	1	multi	-2	587	-1000	37176	13.328	13.291	13.366
ProbeTrack09	15	ProbeTrack	1470	SCS215a	20090522.134012	20090522.134119	8	0.013327	60	10	60-180	60	154	GapExp	0	9	2	96	0	target	0	560	-1000	36176	13.328	13.293	13.363
ProbeTrack09	15	ProbeTrack	1470	SCS215a	20090522.134012	20090522.134127	8	0.013327	60	10	60-180	60	176	GapExp	0	10	2	3	1	target	1	640	680	36856	13.328	13.293	13.363
ProbeTrack09	15	ProbeTrack	1470	SCS215a	20090522.134012	20090522.134134	8	0.013327	60	10	60-180	60	93	GapExp	0	11	2	96	0	distractor	1	547	727	37583	13.328	13.293	13.363
ProbeTrack09	15	ProbeTrack	1470	SCS215a	20090522.134012	20090522.134141	8	0.013327	60	10	60-180	60	120	GapExp	0	12	2	3	1	target	1	467	767	38350	13.328	13.293	13.363
ProbeTrack09	15	ProbeTrack	1470	SCS215a	20090522.134012	20090522.134147	8	0.013327	60	10	60-180	60	168	GapExp	0	13	2	3	0	distractor	1	773	614	38964	13.328	13.289	13.363
ProbeTrack09	15	ProbeTrack	1470	SCS215a	20090522.134012	20090522.134154	8	0.013327	60	10	60-180	60	101	GapExp	0	14	2	3	0	distractor	1	587	707	39671	13.328	13.293	13.363
ProbeTrack09	15	ProbeTrack	1470	SCS215a	20090522.134012	20090522.134200	8	0.013327	60	10	60-180	60	93	GapExp	0	15	2	6	0	distractor	1	667	667	40338	13.328	13.292	13.363
ProbeTrack09	15	ProbeTrack	1470	SCS215a	20090522.134012	20090522.134207	8	0.013327	60	10	60-180	60	137	GapExp	0	16	2	96	1	target	1	400	800	41138	13.328	13.289	13.367
ProbeTrack09	15	ProbeTrack	1470	SCS215a	20090522.134012	20090522.134214	8	0.013327	60	10	60-180	60	173	GapExp	0	17	2	3	1	target	1	494	753	41891	13.328	13.293	13.363
ProbeTrack09	15	ProbeTrack	1470	SCS215a	20090522.134012	20090522.134221	8	0.013327	60	10	60-180	60	61	GapExp	0	18	2	3	1	target	1	414	793	42684	13.328	13.293	13.363
ProbeTrack09	15	ProbeTrack	1470	SCS215a	20090522.134012	20090522.134226	8	0.013327	60	10	60-180	60	103	GapExp	0	19	2	0	1	target	1	440	780	43464	13.328	13.293	13.363
ProbeTrack09	15	ProbeTrack	1470	SCS215a	20090522.134012	20090522.134232	8	0.013327	60	10	60-180	60	142	GapExp	0	20	2	0	0	distractor	1	520	740	44204	13.328	13.289	13.363
ProbeTrack09	15	ProbeTrack	1470	SCS215a	20090522.134012	20090522.134238	8	0.013327	60	10	60-180	60	104	GapExp	0	21	2	6	0	distractor	1	560	720	44924	13.328	13.293	13.363
ProbeTrack09	15	ProbeTrack	1470	SCS215a	20090522.134012	20090522.134244	8	0.013327	60	10	60-180	60	169	GapExp	0	22	2	96	0	distractor	1	454	773	45697	13.328	13.293	13.363
ProbeTrack09	15	ProbeTrack	1470	SCS215a	20090522.134012	20090522.134252	8	0.013327	60	10	60-180	60	168	GapExp	0	23	2	6	0	distractor	1	507	747	46444	13.328	13.293	13.363
ProbeTrack09	15	ProbeTrack	1470	SCS215a	20090522.134012	20090522.134259	8	0.013327	60	10	60-180	60	121	GapExp	0	24	2	96	0	distractor	1	574	713	47157	13.328	13.293	13.363
ProbeTrack09	15	ProbeTrack	1470	SCS215a	20090522.134012	20090522.134306	8	0.013327	60	10	60-180	60	126	GapExp	0	25	2	0	1	target	1	507	747	47904	13.328	13.293	13.363
ProbeTrack09	15	ProbeTrack	1470	SCS215a	20090522.134012	20090522.134312	8	0.013327	60	10	60-180	60	71	GapExp	0	26	2	3	0	target	0	600	-1000	46904	13.328	13.293	13.363
ProbeTrack09	15	ProbeTrack	1470	SCS215a	20090522.134012	20090522.134318	8	0.013327	60	10	60-180	60	84	GapExp	0	27	2	96	0	target	0	480	-1000	45904	13.328	13.293	13.363
ProbeTrack09	15	ProbeTrack	1470	SCS215a	20090522.134012	20090522.134327	8	0.013327	60	10	60-180	60	68	GapExp	0	28	2	0	0	target	0	653	-1000	44904	13.328	13.293	13.363
ProbeTrack09	15	ProbeTrack	1470	SCS215a	20090522.134012	20090522.134333	8	0.013327	60	10	60-180	60	64	GapExp	0	29	2	96	1	target	1	387	807	45711	13.328	13.293	13.363
ProbeTrack09	15	ProbeTrack	1470	SCS215a	20090522.134012	20090522.134340	8	0.013327	60	10	60-180	60	129	GapExp	0	30	2	0	1	target	1	480	760	46471	13.327	13.293	13.363
ProbeTrack09	15	ProbeTrack	1470	SCS215a	20090522.134012	20090522.134346	8	0.013327	60	10	60-180	60	65	GapExp	0	31	2	0	0	target	0	347	-1000	45471	13.327	13.293	13.362
ProbeTrack09	15	ProbeTrack	1470	SCS215a	20090522.134012	20090522.134351	8	0.013327	60	10	60-180	60	112	GapExp	0	32	2	0	1	target	1	560	720	46191	13.328	13.293	13.363
ProbeTrack09	15	ProbeTrack	1470	SCS215a	20090522.134012	20090522.134357	8	0.013327	60	10	60-180	60	114	GapExp	0	33	2	0	0	distractor	1	574	713	46904	13.327	13.293	13.363
ProbeTrack09	15	ProbeTrack	1470	SCS215a	20090522.134012	20090522.134403	8	0.013327	60	10	60-180	60	145	GapExp	0	34	2	96	0	distractor	1	494	753	47657	13.328	13.293	13.365
ProbeTrack09	15	ProbeTrack	1470	SCS215a	20090522.134012	20090522.134410	8	0.013327	60	10	60-180	60	62	GapExp	0	35	2	3	1	target	1	414	793	48450	13.328	13.293	13.365
ProbeTrack09	15	ProbeTrack	1470	SCS215a	20090522.134012	20090522.134415	8	0.013327	60	10	60-180	60	84	GapExp	0	36	2	0	0	distractor	1	747	627	49077	13.328	13.293	13.363
ProbeTrack09	15	ProbeTrack	1470	SCS215a	20090522.134012	20090522.134421	8	0.013327	60	10	60-180	60	67	GapExp	0	37	2	0	1	target	1	427	787	49864	13.328	13.293	13.363
ProbeTrack09	15	ProbeTrack	1470	SCS215a	20090522.134012	20090522.134427	8	0.013327	60	10	60-180	60	76	GapExp	0	38	2	3	0	distractor	1	427	787	50651	13.328	13.293	13.363
ProbeTrack09	15	ProbeTrack	1470	SCS215a	20090522.134012	20090522.134432	8	0.013327	60	10	60-180	60	104	GapExp	0	39	2	96	1	target	1	400	800	51451	13.328	13.292	13.363
ProbeTrack09	15	ProbeTrack	1470	SCS215a	20090522.134012	20090522.134440	8	0.013327	60	10	60-180	60	89	GapExp	0	40	2	3	1	target	1	467	767	52218	13.327	13.289	13.367
ProbeTrack09	15	ProbeTrack	1470	SCS215a	20090522.134012	20090522.134445	8	0.013327	60	10	60-180	60	115	GapExp	0	41	2	96	0	distractor	1	507	747	52965	13.328	13.290	13.366
ProbeTrack09	15	ProbeTrack	1470	SCS215a	20090522.134012	20090522.134453	8	0.013327	60	10	60-180	60	75	GapExp	0	42	2	6	1	target	1	454	773	53738	13.328	13.292	13.363
ProbeTrack09	15	ProbeTrack	1470	SCS215a	20090522.134012	20090522.134458	8	0.013327	60	10	60-180	60	146	GapExp	0	43	2	6	1	target	1	400	800	54538	13.328	13.293	13.363
ProbeTrack09	15	ProbeTrack	1470	SCS215a	20090522.134012	20090522.134504	8	0.013327	60	10	60-180	60	174	GapExp	0	44	2	0	0	distractor	1	440	780	55318	13.328	13.293	13.363
ProbeTrack09	15	ProbeTrack	1470	SCS215a	20090522.134012	20090522.134511	8	0.013327	60	10	60-180	60	141	GapExp	0	45	2	3	1	target	1	347	827	56145	13.328	13.293	13.363
ProbeTrack09	15	ProbeTrack	1470	SCS215a	20090522.134012	20090522.134517	8	0.013327	60	10	60-180	60	137	GapExp	0	46	2	6	0	distractor	1	414	793	56938	13.328	13.292	13.364
ProbeTrack09	15	ProbeTrack	1470	SCS215a	20090522.134012	20090522.134523	8	0.013327	60	10	60-180	60	102	GapExp	0	47	2	0	1	target	1	387	807	57745	13.328	13.293	13.365
ProbeTrack09	15	ProbeTrack	1470	SCS215a	20090522.134012	20090522.134529	8	0.013327	60	10	60-180	60	135	GapExp	0	48	2	96	1	target	1	320	840	58585	13.328	13.293	13.363
ProbeTrack09	15	ProbeTrack	1470	SCS215a	20090522.134012	20090522.134536	8	0.013327	60	10	60-180	60	109	GapExp	0	49	2	6	0	distractor	1	454	773	59358	13.328	13.293	13.363
ProbeTrack09	15	ProbeTrack	1470	SCS215a	20090522.134012	20090522.134542	8	0.013327	60	10	60-180	60	94	GapExp	0	50	2	6	1	target	1	347	827	60185	13.328	13.293	13.363
ProbeTrack09	15	ProbeTrack	1470	SCS215a	20090522.134012	20090522.134548	8	0.013327	60	10	60-180	60	176	GapExp	0	51	2	6	0	distractor	1	387	807	60992	13.328	13.291	13.364
ProbeTrack09	15	ProbeTrack	1470	SCS215a	20090522.134012	20090522.134554	8	0.013327	60	10	60-180	60	86	GapExp	0	52	2	3	1	target	1	494	753	61745	13.328	13.293	13.363
ProbeTrack09	15	ProbeTrack	1470	SCS215a	20090522.134012	20090522.134600	8	0.013327	60	10	60-180	60	121	GapExp	0	53	2	0	1	target	1	533	734	62479	13.328	13.293	13.363
ProbeTrack09	15	ProbeTrack	1470	SCS215a	20090522.134012	20090522.134607	8	0.013327	60	10	60-180	60	65	GapExp	0	54	2	6	0	distractor	1	547	727	63206	13.328	13.293	13.363
ProbeTrack09	15	ProbeTrack	1470	SCS215a	20090522.134012	20090522.134612	8	0.013327	60	10	60-180	60	143	GapExp	0	55	2	0	1	target	1	467	767	63973	13.328	13.292	13.363
ProbeTrack09	15	ProbeTrack	1470	SCS215a	20090522.134012	20090522.134618	8	0.013327	60	10	60-180	60	66	GapExp	0	56	2	3	0	target	0	427	-1000	62973	13.327	13.293	13.363
ProbeTrack09	15	ProbeTrack	1470	SCS215a	20090522.134012	20090522.134623	8	0.013327	60	10	60-180	60	132	GapExp	0	57	2	96	0	distractor	1	387	807	63780	13.328	13.292	13.363
ProbeTrack09	15	ProbeTrack	1470	SCS215a	20090522.134012	20090522.134630	8	0.013327	60	10	60-180	60	61	GapExp	0	58	2	0	1	distractor	0	507	-1000	62780	13.328	13.292	13.363
ProbeTrack09	15	ProbeTrack	1470	SCS215a	20090522.134012	20090522.134635	8	0.013327	60	10	60-180	60	109	GapExp	0	59	2	96	1	target	1	414	793	63573	13.328	13.278	13.410
ProbeTrack09	15	ProbeTrack	1470	SCS215a	20090522.134012	20090522.134642	8	0.013327	60	10	60-180	60	133	GapExp	0	60	2	96	0	distractor	1	507	747	64320	13.328	13.293	13.363
ProbeTrack09	15	ProbeTrack	1470	SCS215a	20090522.134012	20090522.134650	8	0.013327	60	10	60-180	60	143	GapExp	0	61	2	6	0	distractor	1	427	787	65107	13.328	13.293	13.363
ProbeTrack09	15	ProbeTrack	1470	SCS215a	20090522.134012	20090522.134656	8	0.013327	60	10	60-180	60	82	GapExp	0	62	2	96	0	distractor	1	507	747	65854	13.328	13.292	13.366
ProbeTrack09	15	ProbeTrack	1470	SCS215a	20090522.134012	20090522.134703	8	0.013327	60	10	60-180	60	164	GapExp	0	63	2	3	0	distractor	1	467	767	66621	13.328	13.293	13.363
ProbeTrack09	15	ProbeTrack	1470	SCS215a	20090522.134012	20090522.134710	8	0.013327	60	10	60-180	60	150	GapExp	0	64	2	6	0	distractor	1	374	813	67434	13.328	13.288	13.363
ProbeTrack09	15	ProbeTrack	1470	SCS215a	20090522.134012	20090522.134716	8	0.013327	60	10	60-180	60	118	GapExp	0	65	2	0	1	target	1	560	720	68154	13.328	13.293	13.363
ProbeTrack09	15	ProbeTrack	1470	SCS215a	20090522.134012	20090522.134722	8	0.013327	60	10	60-180	60	164	GapExp	0	66	2	96	1	target	1	387	807	68961	13.328	13.293	13.363
ProbeTrack09	15	ProbeTrack	1470	SCS215a	20090522.134012	20090522.134730	8	0.013327	60	10	60-180	60	70	GapExp	0	67	2	0	0	target	0	933	-1000	67961	13.328	13.293	13.363
ProbeTrack09	15	ProbeTrack	1470	SCS215a	20090522.134012	20090522.134736	8	0.013327	60	10	60-180	60	124	GapExp	0	68	2	96	1	target	1	347	827	68788	13.328	13.293	13.363
ProbeTrack09	15	ProbeTrack	1470	SCS215a	20090522.134012	20090522.134743	8	0.013327	60	10	60-180	60	76	GapExp	0	69	2	0	0	target	0	480	-1000	67788	13.328	13.293	13.362
ProbeTrack09	15	ProbeTrack	1470	SCS215a	20090522.134012	20090522.134748	8	0.013327	60	10	60-180	60	81	GapExp	0	70	2	96	0	distractor	1	573	714	68502	13.328	13.293	13.363
ProbeTrack09	15	ProbeTrack	1470	SCS215a	20090522.134012	20090522.134755	8	0.013327	60	10	60-180	60	136	GapExp	0	71	2	6	0	distractor	1	560	720	69222	13.328	13.293	13.363
ProbeTrack09	15	ProbeTrack	1470	SCS215a	20090522.134012	20090522.134801	8	0.013327	60	10	60-180	60	145	GapExp	0	72	2	6	1	target	1	440	780	70002	13.328	13.293	13.363
ProbeTrack09	15	ProbeTrack	1470	SCS215a	20090522.134012	20090522.134808	8	0.013327	60	10	60-180	60	135	GapExp	0	73	2	3	0	target	0	387	-1000	69002	13.328	13.293	13.363
ProbeTrack09	15	ProbeTrack	1470	SCS215a	20090522.134012	20090522.134814	8	0.013327	60	10	60-180	60	95	GapExp	0	74	2	6	0	distractor	1	400	800	69802	13.328	13.290	13.363
ProbeTrack09	15	ProbeTrack	1470	SCS215a	20090522.134012	20090522.134820	8	0.013327	60	10	60-180	60	81	GapExp	0	75	2	96	1	target	1	387	807	70609	13.328	13.291	13.365
ProbeTrack09	15	ProbeTrack	1470	SCS215a	20090522.134012	20090522.134826	8	0.013327	60	10	60-180	60	84	GapExp	0	76	2	6	1	target	1	400	800	71409	13.327	13.293	13.363
ProbeTrack09	15	ProbeTrack	1470	SCS215a	20090522.134012	20090522.134832	8	0.013327	60	10	60-180	60	139	GapExp	0	77	2	96	1	target	1	440	780	72189	13.328	13.293	13.363
ProbeTrack09	15	ProbeTrack	1470	SCS215a	20090522.134012	20090522.134840	8	0.013327	60	10	60-180	60	127	GapExp	0	78	2	6	1	target	1	387	807	72996	13.328	13.293	13.363
ProbeTrack09	15	ProbeTrack	1470	SCS215a	20090522.134012	20090522.134846	8	0.013327	60	10	60-180	60	179	GapExp	0	79	2	6	1	target	1	320	840	73836	13.328	13.271	13.418
ProbeTrack09	15	ProbeTrack	1470	SCS215a	20090522.134012	20090522.134852	8	0.013327	60	10	60-180	60	101	GapExp	0	80	2	0	0	distractor	1	560	720	74556	13.327	13.293	13.362
ProbeTrack09	15	ProbeTrack	1470	SCS215a	20090522.134012	20090522.134858	8	0.013327	60	10	60-180	60	102	GapExp	0	81	2	0	0	distractor	1	467	767	75323	13.328	13.293	13.363
ProbeTrack09	15	ProbeTrack	1470	SCS215a	20090522.134012	20090522.134904	8	0.013327	60	10	60-180	60	116	GapExp	0	82	2	0	0	distractor	1	560	720	76043	13.328	13.293	13.363
ProbeTrack09	15	ProbeTrack	1470	SCS215a	20090522.134012	20090522.134910	8	0.013327	60	10	60-180	60	180	GapExp	0	83	2	6	1	target	1	400	800	76843	13.328	13.291	13.363
ProbeTrack09	15	ProbeTrack	1470	SCS215a	20090522.134012	20090522.134916	8	0.013327	60	10	60-180	60	127	GapExp	0	84	2	3	0	distractor	1	400	800	77643	13.327	13.293	13.363
ProbeTrack09	15	ProbeTrack	1470	SCS215a	20090522.134012	20090522.134923	8	0.013327	60	10	60-180	60	176	GapExp	0	85	2	0	0	target	0	387	-1000	76643	13.328	13.290	13.366
ProbeTrack09	15	ProbeTrack	1470	SCS215a	20090522.134012	20090522.134929	8	0.013327	60	10	60-180	60	146	GapExp	0	86	2	3	1	target	1	467	767	77410	13.328	13.293	13.363
ProbeTrack09	15	ProbeTrack	1470	SCS215a	20090522.134012	20090522.134936	8	0.013327	60	10	60-180	60	135	GapExp	0	87	2	3	0	distractor	1	360	820	78230	13.327	13.293	13.363
ProbeTrack09	15	ProbeTrack	1470	SCS215a	20090522.134012	20090522.134942	8	0.013327	60	10	60-180	60	118	GapExp	0	88	2	3	0	distractor	1	547	727	78957	13.327	13.293	13.363
ProbeTrack09	15	ProbeTrack	1470	SCS215a	20090522.134012	20090522.134948	8	0.013327	60	10	60-180	60	87	GapExp	0	89	2	96	1	target	1	480	760	79717	13.328	13.293	13.363
ProbeTrack09	15	ProbeTrack	1470	SCS215a	20090522.134012	20090522.134955	8	0.013327	60	10	60-180	60	77	GapExp	0	90	2	6	0	distractor	1	467	767	80484	13.328	13.292	13.363
ProbeTrack09	15	ProbeTrack	1470	SCS215a	20090522.134012	20090522.135000	8	0.013327	60	10	60-180	60	164	GapExp	0	91	2	96	1	distractor	0	294	-1000	79484	13.328	13.293	13.363
ProbeTrack09	15	ProbeTrack	1470	SCS215a	20090522.134012	20090522.135008	8	0.013327	60	10	60-180	60	88	GapExp	0	92	2	0	1	target	1	467	767	80251	13.327	13.293	13.363
ProbeTrack09	15	ProbeTrack	1470	SCS215a	20090522.134012	20090522.135013	8	0.013327	60	10	60-180	60	143	GapExp	0	93	2	3	1	target	1	454	773	81024	13.328	13.293	13.363
ProbeTrack09	15	ProbeTrack	1470	SCS215a	20090522.134012	20090522.135020	8	0.013327	60	10	60-180	60	122	GapExp	0	94	2	0	0	distractor	1	454	773	81797	13.328	13.293	13.366
ProbeTrack09	15	ProbeTrack	1470	SCS215a	20090522.134012	20090522.135026	8	0.013327	60	10	60-180	60	135	GapExp	0	95	2	6	0	target	0	254	-1000	80797	13.328	13.289	13.363
ProbeTrack09	15	ProbeTrack	1470	SCS215a	20090522.134012	20090522.135032	8	0.013327	60	10	60-180	60	164	GapExp	0	96	2	96	0	target	0	494	-1000	79797	13.328	13.293	13.363
ProbeTrack09	15	ProbeTrack	1470	SCS215a	20090522.134012	20090522.135040	8	0.013327	60	10	60-180	60	66	GapExp	0	97	2	3	0	distractor	1	574	713	80510	13.328	13.293	13.363
ProbeTrack09	15	ProbeTrack	1470	SCS215a	20090522.134012	20090522.135045	8	0.013327	60	10	60-180	60	115	GapExp	0	98	2	96	1	target	1	307	847	81357	13.328	13.293	13.363
ProbeTrack09	15	ProbeTrack	1470	SCS215a	20090522.134012	20090522.135052	8	0.013327	60	10	60-180	60	180	GapExp	0	99	2	96	0	distractor	1	507	747	82104	13.328	13.289	13.363
ProbeTrack09	15	ProbeTrack	1470	SCS215a	20090522.134012	20090522.135101	8	0.013327	60	10	60-180	60	110	GapExp	0	100	2	3	1	target	1	440	780	82884	13.328	13.293	13.363
ProbeTrack09	15	ProbeTrack	1470	SCS215a	20090522.134012	20090522.135107	8	0.013327	60	10	60-180	60	108	GapExp	0	101	2	3	0	target	0	2706	-1000	81884	13.328	13.288	13.363
ProbeTrack09	15	ProbeTrack	1470	SCS215a	20090522.134012	20090522.135115	8	0.013327	60	10	60-180	60	176	GapExp	0	102	2	6	0	distractor	1	547	727	82611	13.328	13.293	13.363
ProbeTrack09	15	ProbeTrack	1470	SCS215a	20090522.134012	20090522.135122	8	0.013327	60	10	60-180	60	88	GapExp	0	103	2	96	1	target	1	334	833	83444	13.328	13.292	13.363
ProbeTrack09	15	ProbeTrack	1470	SCS215a	20090522.134012	20090522.135129	8	0.013327	60	10	60-180	60	179	GapExp	0	104	2	0	1	target	1	414	793	84237	13.328	13.293	13.363
ProbeTrack09	15	ProbeTrack	1470	SCS215a	20090522.134012	20090522.135135	8	0.013327	60	10	60-180	60	63	GapExp	0	105	2	96	1	target	1	440	780	85017	13.328	13.289	13.366
ProbeTrack09	15	ProbeTrack	1470	SCS215a	20090522.134012	20090522.135142	8	0.013327	60	10	60-180	60	86	GapExp	0	106	2	0	1	target	1	334	833	85850	13.328	13.290	13.365
ProbeTrack09	15	ProbeTrack	1470	SCS215a	20090522.134012	20090522.135147	8	0.013327	60	10	60-180	60	133	GapExp	0	107	2	0	0	target	0	294	-1000	84850	13.328	13.293	13.363
ProbeTrack09	15	ProbeTrack	1470	SCS215a	20090522.134012	20090522.135153	8	0.013327	60	10	60-180	60	104	GapExp	0	108	2	3	1	target	1	307	847	85697	13.327	13.293	13.363
ProbeTrack09	15	ProbeTrack	1470	SCS215a	20090522.134012	20090522.135159	8	0.013327	60	10	60-180	60	149	GapExp	0	109	2	96	0	target	0	374	-1000	84697	13.328	13.292	13.363
ProbeTrack09	15	ProbeTrack	1470	SCS215a	20090522.134012	20090522.135206	8	0.013327	60	10	60-180	60	158	GapExp	0	110	2	96	1	target	1	307	847	85544	13.328	13.293	13.363
ProbeTrack09	15	ProbeTrack	1470	SCS215a	20090522.134012	20090522.135214	8	0.013327	60	10	60-180	60	158	GapExp	0	111	2	6	1	target	1	360	820	86364	13.328	13.293	13.363
ProbeTrack09	15	ProbeTrack	1470	SCS215a	20090522.134012	20090522.135220	8	0.013327	60	10	60-180	60	137	GapExp	0	112	2	96	0	distractor	1	560	720	87084	13.328	13.291	13.363
ProbeTrack09	15	ProbeTrack	1470	SCS215a	20090522.134012	20090522.135228	8	0.013327	60	10	60-180	60	120	GapExp	0	113	2	6	1	target	1	347	827	87911	13.328	13.293	13.363
ProbeTrack09	15	ProbeTrack	1470	SCS215a	20090522.134012	20090522.135234	8	0.013327	60	10	60-180	60	139	GapExp	0	114	2	3	0	target	0	440	-1000	86911	13.328	13.293	13.363
ProbeTrack09	15	ProbeTrack	1470	SCS215a	20090522.134012	20090522.135240	8	0.013327	60	10	60-180	60	133	GapExp	0	115	2	96	1	target	1	427	787	87698	13.328	13.293	13.363
ProbeTrack09	15	ProbeTrack	1470	SCS215a	20090522.134012	20090522.135247	8	0.013327	60	10	60-180	60	90	GapExp	0	116	2	0	0	distractor	1	494	753	88451	13.328	13.292	13.363
ProbeTrack09	15	ProbeTrack	1470	SCS215a	20090522.134012	20090522.135253	8	0.013327	60	10	60-180	60	99	GapExp	0	117	2	3	0	distractor	1	627	687	89138	13.328	13.293	13.364
ProbeTrack09	15	ProbeTrack	1470	SCS215a	20090522.134012	20090522.135259	8	0.013327	60	10	60-180	60	80	GapExp	0	118	2	3	1	target	1	360	820	89958	13.328	13.293	13.362
ProbeTrack09	15	ProbeTrack	1470	SCS215a	20090522.134012	20090522.135304	8	0.013327	60	10	60-180	60	120	GapExp	0	119	2	6	1	distractor	0	374	-1000	88958	13.327	13.293	13.363
ProbeTrack09	15	ProbeTrack	1470	SCS215a	20090522.134012	20090522.135310	8	0.013327	60	10	60-180	60	102	GapExp	0	120	2	3	1	target	1	294	853	89811	13.328	13.293	13.363
ProbeTrack09	15	ProbeTrack	1470	SCS215a	20090522.134012	20090522.135316	8	0.013327	60	10	60-180	60	179	GapExp	0	121	2	96	0	distractor	1	480	760	90571	13.328	13.293	13.363
ProbeTrack09	15	ProbeTrack	1470	SCS215a	20090522.134012	20090522.135324	8	0.013327	60	10	60-180	60	76	GapExp	0	122	2	0	0	target	0	520	-1000	89571	13.328	13.293	13.366
ProbeTrack09	15	ProbeTrack	1470	SCS215a	20090522.134012	20090522.135329	8	0.013327	60	10	60-180	60	145	GapExp	0	123	2	96	0	distractor	1	467	767	90338	13.328	13.293	13.363
ProbeTrack09	15	ProbeTrack	1470	SCS215a	20090522.134012	20090522.135337	8	0.013327	60	10	60-180	60	168	GapExp	0	124	2	6	0	target	0	387	-1000	89338	13.328	13.293	13.363
ProbeTrack09	15	ProbeTrack	1470	SCS215a	20090522.134012	20090522.135343	8	0.013327	60	10	60-180	60	179	GapExp	0	125	2	96	1	distractor	0	400	-1000	88338	13.328	13.286	13.363
ProbeTrack09	15	ProbeTrack	1470	SCS215a	20090522.134012	20090522.135351	8	0.013327	60	10	60-180	60	173	GapExp	0	126	2	6	0	distractor	1	560	720	89058	13.328	13.292	13.364
ProbeTrack09	15	ProbeTrack	1470	SCS215a	20090522.134012	20090522.135358	8	0.013327	60	10	60-180	60	157	GapExp	0	127	2	0	1	distractor	0	400	-1000	88058	13.328	13.293	13.363
ProbeTrack09	15	ProbeTrack	1470	SCS215a	20090522.134012	20090522.135404	8	0.013327	60	10	60-180	60	110	GapExp	0	128	2	6	0	distractor	1	534	733	88791	13.327	13.293	13.363
ProbeTrack09	15	ProbeTrack	1470	SCS215a	20090522.134012	20090522.135410	8	0.013327	60	10	60-180	60	154	GapExp	0	129	2	6	1	target	1	320	840	89631	13.328	13.293	13.363
ProbeTrack09	15	ProbeTrack	1470	SCS215a	20090522.134012	20090522.135417	8	0.013327	60	10	60-180	60	151	GapExp	0	130	2	0	1	target	1	454	773	90404	13.328	13.291	13.363
ProbeTrack09	15	ProbeTrack	1470	SCS215a	20090522.134012	20090522.135423	8	0.013327	60	10	60-180	60	179	GapExp	0	131	2	6	0	distractor	1	387	807	91211	13.328	13.293	13.363
ProbeTrack09	15	ProbeTrack	1470	SCS215a	20090522.134012	20090522.135430	8	0.013327	60	10	60-180	60	86	GapExp	0	132	2	96	1	target	1	427	787	91998	13.328	13.292	13.364
ProbeTrack09	15	ProbeTrack	1470	SCS215a	20090522.134012	20090522.135436	8	0.013327	60	10	60-180	60	152	GapExp	0	133	2	96	0	distractor	1	494	753	92751	13.328	13.293	13.363
ProbeTrack09	15	ProbeTrack	1470	SCS215a	20090522.134012	20090522.135444	8	0.013327	60	10	60-180	60	134	GapExp	0	134	2	6	1	distractor	0	347	-1000	91751	13.328	13.293	13.363
ProbeTrack09	15	ProbeTrack	1470	SCS215a	20090522.134012	20090522.135450	8	0.013327	60	10	60-180	60	96	GapExp	0	135	2	0	1	target	1	334	833	92584	13.327	13.292	13.362
ProbeTrack09	15	ProbeTrack	1470	SCS215a	20090522.134012	20090522.135456	8	0.013327	60	10	60-180	60	120	GapExp	0	136	2	6	0	target	0	427	-1000	91584	13.327	13.292	13.363
ProbeTrack09	15	ProbeTrack	1470	SCS215a	20090522.134012	20090522.135502	8	0.013327	60	10	60-180	60	139	GapExp	0	137	2	0	0	distractor	1	467	767	92351	13.328	13.293	13.363
ProbeTrack09	15	ProbeTrack	1470	SCS215a	20090522.134012	20090522.135508	8	0.013327	60	10	60-180	60	158	GapExp	0	138	2	3	0	distractor	1	307	847	93198	13.328	13.293	13.363
ProbeTrack09	15	ProbeTrack	1470	SCS215a	20090522.134012	20090522.135514	8	0.013327	60	10	60-180	60	179	GapExp	0	139	2	0	0	target	0	347	-1000	92198	13.328	13.293	13.363
ProbeTrack09	15	ProbeTrack	1470	SCS215a	20090522.134012	20090522.135521	8	0.013327	60	10	60-180	60	79	GapExp	0	140	2	0	0	distractor	1	467	767	92965	13.328	13.293	13.363
ProbeTrack09	15	ProbeTrack	1470	SCS215a	20090522.134012	20090522.135526	8	0.013327	60	10	60-180	60	68	GapExp	0	141	2	3	0	target	0	547	-1000	91965	13.328	13.293	13.363
ProbeTrack09	15	ProbeTrack	1470	SCS215a	20090522.134012	20090522.135532	8	0.013327	60	10	60-180	60	63	GapExp	0	142	2	0	0	distractor	1	347	827	92792	13.328	13.293	13.363
ProbeTrack09	15	ProbeTrack	1470	SCS215a	20090522.134012	20090522.135539	8	0.013327	60	10	60-180	60	142	GapExp	0	143	2	6	0	target	0	427	-1000	91792	13.328	13.292	13.362
ProbeTrack09	15	ProbeTrack	1470	SCS215a	20090522.134012	20090522.135545	8	0.013327	60	10	60-180	60	156	GapExp	0	144	2	0	1	distractor	0	347	-1000	90792	13.328	13.293	13.363
ProbeTrack09	15	ProbeTrack	1470	SCS215a	20090522.134012	20090522.135551	8	0.013327	60	10	60-180	60	156	GapExp	0	145	2	0	0	target	0	440	-1000	89792	13.328	13.293	13.363
ProbeTrack09	15	ProbeTrack	1470	SCS215a	20090522.134012	20090522.135558	8	0.013327	60	10	60-180	60	78	GapExp	0	146	2	6	0	distractor	1	427	787	90579	13.328	13.293	13.364
ProbeTrack09	15	ProbeTrack	1470	SCS215a	20090522.134012	20090522.135603	8	0.013327	60	10	60-180	60	113	GapExp	0	147	2	6	1	distractor	0	334	-1000	89579	13.328	13.293	13.366
ProbeTrack09	15	ProbeTrack	1470	SCS215a	20090522.134012	20090522.135609	8	0.013327	60	10	60-180	60	164	GapExp	0	148	2	3	1	target	1	334	833	90412	13.328	13.292	13.363
ProbeTrack09	15	ProbeTrack	1470	SCS215a	20090522.134012	20090522.135616	8	0.013327	60	10	60-180	60	134	GapExp	0	149	2	6	1	target	1	414	793	91205	13.328	13.293	13.363
ProbeTrack09	15	ProbeTrack	1470	SCS215a	20090522.134012	20090522.135622	8	0.013327	60	10	60-180	60	76	GapExp	0	150	2	96	1	target	1	467	767	91972	13.328	13.293	13.363
ProbeTrack09	15	ProbeTrack	1470	SCS215a	20090522.134012	20090522.135629	8	0.013327	60	10	60-180	60	83	GapExp	0	151	2	6	1	distractor	0	560	-1000	90972	13.328	13.293	13.363
ProbeTrack09	15	ProbeTrack	1470	SCS215a	20090522.134012	20090522.135634	8	0.013327	60	10	60-180	60	77	GapExp	0	152	2	96	1	target	1	387	807	91779	13.328	13.293	13.364
ProbeTrack09	15	ProbeTrack	1470	SCS215a	20090522.134012	20090522.135641	8	0.013327	60	10	60-180	60	154	GapExp	0	153	2	96	1	target	1	307	847	92626	13.328	13.293	13.364
ProbeTrack09	15	ProbeTrack	1470	SCS215a	20090522.134012	20090522.135648	8	0.013327	60	10	60-180	60	117	GapExp	0	154	2	96	0	distractor	1	467	767	93393	13.328	13.293	13.363
ProbeTrack09	15	ProbeTrack	1470	SCS215a	20090522.134012	20090522.135655	8	0.013327	60	10	60-180	60	179	GapExp	0	155	2	0	1	target	1	480	760	94153	13.328	13.292	13.363
ProbeTrack09	15	ProbeTrack	1470	SCS215a	20090522.134012	20090522.135702	8	0.013327	60	10	60-180	60	164	GapExp	0	156	2	0	1	target	1	494	753	94906	13.328	13.292	13.363
ProbeTrack09	15	ProbeTrack	1470	SCS215a	20090522.134012	20090522.135709	8	0.013327	60	10	60-180	60	176	GapExp	0	157	2	3	1	target	1	547	727	95633	13.328	13.292	13.363
ProbeTrack09	15	ProbeTrack	1470	SCS215a	20090522.134012	20090522.135716	8	0.013327	60	10	60-180	60	178	GapExp	0	158	2	3	0	distractor	1	427	787	96420	13.328	13.293	13.363
ProbeTrack09	15	ProbeTrack	1470	SCS215a	20090522.134012	20090522.135723	8	0.013327	60	10	60-180	60	103	GapExp	0	159	2	96	0	target	0	520	-1000	95420	13.328	13.293	13.363
ProbeTrack09	15	ProbeTrack	1470	SCS215a	20090522.134012	20090522.135730	8	0.013327	60	10	60-180	60	168	GapExp	0	160	2	6	1	target	1	334	833	96253	13.328	13.290	13.363
ProbeTrack09	15	ProbeTrack	1470	SCS215a	20090522.134012	20090522.135737	8	0.013327	60	10	60-180	60	75	GapExp	0	161	2	6	1	target	1	574	713	96966	13.327	13.293	13.363
ProbeTrack09	15	ProbeTrack	1470	SCS215a	20090522.134012	20090522.135745	8	0.013327	60	10	60-180	60	159	GapExp	0	162	2	6	1	distractor	0	347	-1000	95966	13.328	13.293	13.363
ProbeTrack09	15	ProbeTrack	1470	SCS215a	20090522.134012	20090522.135753	8	0.013327	60	10	60-180	60	150	GapExp	0	163	2	3	1	target	1	400	800	96766	13.328	13.292	13.363
ProbeTrack09	15	ProbeTrack	1470	SCS215a	20090522.134012	20090522.135800	8	0.013327	60	10	60-180	60	82	GapExp	0	164	2	3	0	distractor	1	454	773	97539	13.327	13.293	13.363
ProbeTrack09	15	ProbeTrack	1470	SCS215a	20090522.134012	20090522.135805	8	0.013327	60	10	60-180	60	72	GapExp	0	165	2	3	0	distractor	1	454	773	98312	13.327	13.293	13.364
ProbeTrack09	15	ProbeTrack	1470	SCS215a	20090522.134012	20090522.135811	8	0.013327	60	10	60-180	60	173	GapExp	0	166	2	3	0	distractor	1	467	767	99079	13.328	13.292	13.363
ProbeTrack09	15	ProbeTrack	1470	SCS215a	20090522.134012	20090522.135817	8	0.013327	60	10	60-180	60	179	GapExp	0	167	2	3	0	distractor	1	494	753	99832	13.328	13.293	13.363
ProbeTrack09	15	ProbeTrack	1470	SCS215a	20090522.134012	20090522.135824	8	0.013327	60	10	60-180	60	123	GapExp	0	168	2	6	1	target	1	467	767	100599	13.328	13.292	13.363
ProbeTrack09	15	ProbeTrack	1470	SCS215a	20090522.134012	20090522.135830	8	0.013327	60	10	60-180	60	173	GapExp	0	169	2	0	1	target	1	467	767	101366	13.328	13.293	13.363
ProbeTrack09	15	ProbeTrack	1470	SCS215a	20090522.134012	20090522.135837	8	0.013327	60	10	60-180	60	149	GapExp	0	170	2	0	0	distractor	1	347	827	102193	13.328	13.293	13.362
ProbeTrack09	15	ProbeTrack	1470	SCS215a	20090522.134012	20090522.135843	8	0.013327	60	10	60-180	60	118	GapExp	0	171	2	3	0	distractor	1	334	833	103026	13.328	13.293	13.363
ProbeTrack09	15	ProbeTrack	1470	SCS215a	20090522.134012	20090522.135849	8	0.013327	60	10	60-180	60	89	GapExp	0	172	2	96	1	target	1	414	793	103819	13.328	13.290	13.363
ProbeTrack09	15	ProbeTrack	1470	SCS215a	20090522.134012	20090522.135856	8	0.013327	60	10	60-180	60	177	GapExp	0	173	2	96	0	distractor	1	454	773	104592	13.328	13.293	13.363
ProbeTrack09	15	ProbeTrack	1470	SCS215a	20090522.134012	20090522.135904	8	0.013327	60	10	60-180	60	90	GapExp	0	174	2	3	0	target	0	640	-1000	103592	13.327	13.293	13.363
ProbeTrack09	15	ProbeTrack	1470	SCS215a	20090522.134012	20090522.135909	8	0.013327	60	10	60-180	60	81	GapExp	0	175	2	0	1	target	1	494	753	104345	13.327	13.293	13.363
ProbeTrack09	15	ProbeTrack	1470	SCS215a	20090522.134012	20090522.135915	8	0.013327	60	10	60-180	60	63	GapExp	0	176	2	3	1	target	1	374	813	105158	13.328	13.293	13.363
ProbeTrack09	15	ProbeTrack	1470	SCS215a	20090522.134012	20090522.135920	8	0.013327	60	10	60-180	60	118	GapExp	0	177	2	3	1	target	1	507	747	105905	13.328	13.292	13.363
ProbeTrack09	15	ProbeTrack	1470	SCS215a	20090522.134012	20090522.135926	8	0.013327	60	10	60-180	60	112	GapExp	0	178	2	96	1	target	1	387	807	106712	13.328	13.284	13.363
ProbeTrack09	15	ProbeTrack	1470	SCS215a	20090522.134012	20090522.135933	8	0.013327	60	10	60-180	60	174	GapExp	0	179	2	0	1	target	1	534	733	107445	13.328	13.293	13.363
ProbeTrack09	15	ProbeTrack	1470	SCS215a	20090522.134012	20090522.135939	8	0.013327	60	10	60-180	60	115	GapExp	0	180	2	96	0	distractor	1	560	720	108165	13.328	13.293	13.363
ProbeTrack09	15	ProbeTrack	1470	SCS215a	20090522.134012	20090522.135946	8	0.013327	60	10	60-180	60	165	GapExp	0	181	2	3	1	target	1	520	740	108905	13.328	13.292	13.363
ProbeTrack09	15	ProbeTrack	1470	SCS215a	20090522.134012	20090522.135953	8	0.013327	60	10	60-180	60	88	GapExp	0	182	2	96	1	target	1	387	807	109712	13.328	13.293	13.363
ProbeTrack09	15	ProbeTrack	1470	SCS215a	20090522.134012	20090522.140000	8	0.013327	60	10	60-180	60	132	GapExp	0	183	2	3	1	target	1	414	793	110505	13.328	13.293	13.363
ProbeTrack09	15	ProbeTrack	1470	SCS215a	20090522.134012	20090522.140006	8	0.013327	60	10	60-180	60	144	GapExp	0	184	2	6	1	target	1	387	807	111312	13.328	13.293	13.363
ProbeTrack09	15	ProbeTrack	1470	SCS215a	20090522.134012	20090522.140012	8	0.013327	60	10	60-180	60	153	GapExp	0	185	2	96	0	distractor	1	480	760	112072	13.328	13.293	13.364
ProbeTrack09	15	ProbeTrack	1470	SCS215a	20090522.134012	20090522.140020	8	0.013327	60	10	60-180	60	100	GapExp	0	186	2	3	1	target	1	467	767	112839	13.328	13.292	13.363
ProbeTrack09	15	ProbeTrack	1470	SCS215a	20090522.134012	20090522.140026	8	0.013327	60	10	60-180	60	133	GapExp	0	187	2	3	0	target	0	400	-1000	111839	13.328	13.293	13.363
ProbeTrack09	15	ProbeTrack	1470	SCS215a	20090522.134012	20090522.140032	8	0.013327	60	10	60-180	60	102	GapExp	0	188	2	0	1	target	1	454	773	112612	13.327	13.293	13.363
ProbeTrack09	15	ProbeTrack	1470	SCS215a	20090522.134012	20090522.140038	8	0.013327	60	10	60-180	60	64	GapExp	0	189	2	6	1	target	1	307	847	113459	13.327	13.293	13.363
ProbeTrack09	15	ProbeTrack	1470	SCS215a	20090522.134012	20090522.140043	8	0.013327	60	10	60-180	60	98	GapExp	0	190	2	6	0	distractor	1	520	740	114199	13.327	13.293	13.363
ProbeTrack09	15	ProbeTrack	1470	SCS215a	20090522.134012	20090522.140049	8	0.013327	60	10	60-180	60	133	GapExp	0	191	2	96	0	distractor	1	560	720	114919	13.328	13.289	13.364
ProbeTrack09	15	ProbeTrack	1470	SCS215a	20090522.134012	20090522.140056	8	0.013327	60	10	60-180	60	72	GapExp	0	192	2	6	1	target	1	600	700	115619	13.328	13.281	13.375
ProbeTrack09	15	ProbeTrack	1470	SCS215a	20090522.134012	20090522.140102	8	0.013327	60	10	60-180	60	164	GapExp	0	193	2	0	0	distractor	1	653	674	116293	13.328	13.293	13.363
ProbeTrack09	15	ProbeTrack	1470	SCS215a	20090522.134012	20090522.140108	8	0.013327	60	10	60-180	60	92	GapExp	0	194	2	6	0	distractor	1	440	780	117073	13.328	13.292	13.363
ProbeTrack09	15	ProbeTrack	1470	SCS215a	20090522.134012	20090522.140114	8	0.013327	60	10	60-180	60	90	GapExp	0	195	2	0	0	distractor	1	467	767	117840	13.327	13.292	13.363
ProbeTrack09	15	ProbeTrack	1470	SCS215a	20090522.134012	20090522.140120	8	0.013327	60	10	60-180	60	149	GapExp	0	196	2	3	1	distractor	0	400	-1000	116840	13.328	13.293	13.363
ProbeTrack09	15	ProbeTrack	1470	SCS215a	20090522.134012	20090522.140126	8	0.013327	60	10	60-180	60	102	GapExp	0	197	2	3	1	target	1	360	820	117660	13.328	13.293	13.363
ProbeTrack09	15	ProbeTrack	1470	SCS215a	20090522.134012	20090522.140132	8	0.013327	60	10	60-180	60	171	GapExp	0	198	2	0	1	target	1	267	867	118527	13.328	13.293	13.363
ProbeTrack09	15	ProbeTrack	1470	SCS215a	20090522.134012	20090522.140138	8	0.013327	60	10	60-180	60	64	GapExp	0	199	2	6	0	distractor	1	440	780	119307	13.327	13.293	13.363
ProbeTrack09	15	ProbeTrack	1470	SCS215a	20090522.134012	20090522.140143	8	0.013327	60	10	60-180	60	143	GapExp	0	200	2	6	1	distractor	0	307	-1000	118307	13.328	13.290	13.363
