exp	sub	code	rev	comp	runtime	trialtime	nstim	refreshdur	cuedur	gapdur	gapOnsetRange	durPostProbe	gapOnsetTime	blocktype	prac	trial	ntargets	soa	probeTarget	resp	acc	rt	pts	tpts	meanFrameDur	minFrameDur	maxFrameDur
ProbeTrack09	13	ProbeTrack	1470	SCS215a	20090522.123348	20090522.123351	8	0.013327	60	0	60-180	60	71	NoGap	1	1	2	0	0	distractor	1	1320	340	340	13.328	13.293	13.363
ProbeTrack09	13	ProbeTrack	1470	SCS215a	20090522.123348	20090522.123430	8	0.013327	60	0	60-180	60	122	NoGap	1	2	2	6	0	distractor	1	667	667	1007	13.328	13.292	13.363
ProbeTrack09	13	ProbeTrack	1470	SCS215a	20090522.123348	20090522.123449	8	0.013327	60	0	60-180	60	155	NoGap	1	3	2	96	1	target	1	387	807	1814	13.328	13.293	13.363
ProbeTrack09	13	ProbeTrack	1470	SCS215a	20090522.123348	20090522.123459	8	0.013327	60	0	60-180	60	91	NoGap	1	4	2	0	1	target	1	573	714	2528	13.328	13.293	13.363
ProbeTrack09	13	ProbeTrack	1470	SCS215a	20090522.123348	20090522.123505	8	0.013327	60	0	60-180	60	118	NoGap	1	5	2	6	0	distractor	1	560	720	3248	13.327	13.293	13.363
ProbeTrack09	13	ProbeTrack	1470	SCS215a	20090522.123348	20090522.123513	8	0.013327	60	0	60-180	60	116	NoGap	1	6	2	96	1	distractor	0	747	-1000	2248	13.328	13.293	13.363
ProbeTrack09	13	ProbeTrack	1470	SCS215a	20090522.123348	20090522.123524	8	0.013327	60	0	60-180	60	139	NoGap	1	7	2	0	1	distractor	0	573	-1000	1248	13.328	13.293	13.363
ProbeTrack09	13	ProbeTrack	1470	SCS215a	20090522.123348	20090522.123533	8	0.013327	60	0	60-180	60	65	NoGap	1	8	2	3	0	distractor	1	880	560	1808	13.328	13.293	13.363
ProbeTrack09	13	ProbeTrack	1470	SCS215a	20090522.123348	20090522.123538	8	0.013327	60	0	60-180	60	135	NoGap	1	9	2	3	0	distractor	1	733	634	2442	13.328	13.293	13.363
ProbeTrack09	13	ProbeTrack	1470	SCS215a	20090522.123348	20090522.123546	8	0.013327	60	0	60-180	60	160	NoGap	1	10	2	96	0	distractor	1	520	740	3182	13.328	13.293	13.365
ProbeTrack09	13	ProbeTrack	1470	SCS215a	20090522.123348	20090522.123554	8	0.013327	60	0	60-180	60	165	NoGap	1	11	2	96	0	distractor	1	440	780	3962	13.328	13.293	13.363
ProbeTrack09	13	ProbeTrack	1470	SCS215a	20090522.123348	20090522.123602	8	0.013327	60	0	60-180	60	100	NoGap	1	12	2	96	0	distractor	1	533	734	4696	13.328	13.293	13.363
ProbeTrack09	13	ProbeTrack	1470	SCS215a	20090522.123348	20090522.123610	8	0.013327	60	0	60-180	60	77	NoGap	1	13	2	3	1	target	1	360	820	5516	13.328	13.293	13.363
ProbeTrack09	13	ProbeTrack	1470	SCS215a	20090522.123348	20090522.123616	8	0.013327	60	0	60-180	60	108	NoGap	1	14	2	96	1	target	1	507	747	6263	13.328	13.293	13.363
ProbeTrack09	13	ProbeTrack	1470	SCS215a	20090522.123348	20090522.123624	8	0.013327	60	0	60-180	60	64	NoGap	1	15	2	6	1	target	1	640	680	6943	13.327	13.293	13.363
ProbeTrack09	13	ProbeTrack	1470	SCS215a	20090522.123348	20090522.123630	8	0.013327	60	0	60-180	60	154	NoGap	1	16	2	3	1	target	1	360	820	7763	13.328	13.293	13.363
ProbeTrack09	13	ProbeTrack	1470	SCS215a	20090522.123348	20090522.123638	8	0.013327	60	0	60-180	60	79	NoGap	1	17	2	96	1	target	1	320	840	8603	13.328	13.293	13.363
ProbeTrack09	13	ProbeTrack	1470	SCS215a	20090522.123348	20090522.123644	8	0.013327	60	0	60-180	60	91	NoGap	1	18	2	0	1	target	1	467	767	9370	13.328	13.293	13.363
ProbeTrack09	13	ProbeTrack	1470	SCS215a	20090522.123348	20090522.123650	8	0.013327	60	0	60-180	60	126	NoGap	1	19	2	3	1	target	1	334	833	10203	13.327	13.293	13.363
ProbeTrack09	13	ProbeTrack	1470	SCS215a	20090522.123348	20090522.123657	8	0.013327	60	0	60-180	60	169	NoGap	1	20	2	6	1	distractor	0	507	-1000	9203	13.328	13.289	13.363
ProbeTrack09	13	ProbeTrack	1470	SCS215a	20090522.123348	20090522.123704	8	0.013327	60	0	60-180	60	71	NoGap	1	21	2	0	0	target	0	520	-1000	8203	13.328	13.293	13.363
ProbeTrack09	13	ProbeTrack	1470	SCS215a	20090522.123348	20090522.123710	8	0.013327	60	0	60-180	60	111	NoGap	1	22	2	0	1	target	1	387	807	9010	13.328	13.293	13.363
ProbeTrack09	13	ProbeTrack	1470	SCS215a	20090522.123348	20090522.123716	8	0.013327	60	0	60-180	60	155	NoGap	1	23	2	6	0	distractor	1	560	720	9730	13.328	13.293	13.363
ProbeTrack09	13	ProbeTrack	1470	SCS215a	20090522.123348	20090522.123723	8	0.013327	60	0	60-180	60	154	NoGap	1	24	2	3	0	target	0	427	-1000	8730	13.328	13.293	13.363
ProbeTrack09	13	ProbeTrack	1470	SCS215a	20090522.123348	20090522.123730	8	0.013327	60	0	60-180	60	103	NoGap	1	25	2	6	1	target	1	533	734	9464	13.328	13.293	13.363
ProbeTrack09	13	ProbeTrack	1470	SCS215a	20090522.123348	20090522.123737	8	0.013327	60	0	60-180	60	158	NoGap	1	26	2	3	0	distractor	1	574	713	10177	13.328	13.293	13.363
ProbeTrack09	13	ProbeTrack	1470	SCS215a	20090522.123348	20090522.123744	8	0.013327	60	0	60-180	60	111	NoGap	1	27	2	3	0	distractor	1	760	620	10797	13.328	13.292	13.363
ProbeTrack09	13	ProbeTrack	1470	SCS215a	20090522.123348	20090522.123750	8	0.013327	60	0	60-180	60	118	NoGap	1	28	2	3	1	target	1	387	807	11604	13.328	13.293	13.363
ProbeTrack09	13	ProbeTrack	1470	SCS215a	20090522.123348	20090522.123757	8	0.013327	60	0	60-180	60	83	NoGap	1	29	2	96	1	target	1	414	793	12397	13.328	13.293	13.363
ProbeTrack09	13	ProbeTrack	1470	SCS215a	20090522.123348	20090522.123804	8	0.013327	60	0	60-180	60	75	NoGap	1	30	2	96	0	distractor	1	454	773	13170	13.328	13.293	13.363
ProbeTrack09	13	ProbeTrack	1470	SCS215a	20090522.123348	20090522.123811	8	0.013327	60	0	60-180	60	107	NoGap	1	31	2	6	0	distractor	1	480	760	13930	13.328	13.291	13.363
ProbeTrack09	13	ProbeTrack	1470	SCS215a	20090522.123348	20090522.123817	8	0.013327	60	0	60-180	60	102	NoGap	1	32	2	0	1	distractor	0	574	-1000	12930	13.328	13.292	13.363
ProbeTrack09	13	ProbeTrack	1470	SCS215a	20090522.123348	20090522.123823	8	0.013327	60	0	60-180	60	123	NoGap	1	33	2	96	0	distractor	1	560	720	13650	13.328	13.292	13.363
ProbeTrack09	13	ProbeTrack	1470	SCS215a	20090522.123348	20090522.123831	8	0.013327	60	0	60-180	60	75	NoGap	1	34	2	6	1	target	1	613	694	14344	13.328	13.293	13.363
ProbeTrack09	13	ProbeTrack	1470	SCS215a	20090522.123348	20090522.123837	8	0.013327	60	0	60-180	60	166	NoGap	1	35	2	96	0	distractor	1	507	747	15091	13.328	13.293	13.363
ProbeTrack09	13	ProbeTrack	1470	SCS215a	20090522.123348	20090522.123845	8	0.013327	60	0	60-180	60	73	NoGap	1	36	2	0	0	distractor	1	707	647	15738	13.328	13.289	13.363
ProbeTrack09	13	ProbeTrack	1470	SCS215a	20090522.123348	20090522.123851	8	0.013327	60	0	60-180	60	180	NoGap	1	37	2	3	1	target	1	507	747	16485	13.328	13.292	13.363
ProbeTrack09	13	ProbeTrack	1470	SCS215a	20090522.123348	20090522.123858	8	0.013327	60	0	60-180	60	161	NoGap	1	38	2	96	1	target	1	480	760	17245	13.328	13.286	13.368
ProbeTrack09	13	ProbeTrack	1470	SCS215a	20090522.123348	20090522.123906	8	0.013327	60	0	60-180	60	168	NoGap	1	39	2	0	0	distractor	1	467	767	18012	13.328	13.293	13.363
ProbeTrack09	13	ProbeTrack	1470	SCS215a	20090522.123348	20090522.123913	8	0.013327	60	0	60-180	60	124	NoGap	1	40	2	6	0	distractor	1	494	753	18765	13.328	13.293	13.363
ProbeTrack09	13	ProbeTrack	1470	SCS215a	20090522.123348	20090522.123920	8	0.013327	60	0	60-180	60	168	NoGap	1	41	2	6	0	distractor	1	320	840	19605	13.328	13.290	13.363
ProbeTrack09	13	ProbeTrack	1470	SCS215a	20090522.123348	20090522.123927	8	0.013327	60	0	60-180	60	95	NoGap	1	42	2	0	1	target	1	414	793	20398	13.328	13.293	13.363
ProbeTrack09	13	ProbeTrack	1470	SCS215a	20090522.123348	20090522.123933	8	0.013327	60	0	60-180	60	134	NoGap	1	43	2	3	0	distractor	1	440	780	21178	13.328	13.289	13.366
ProbeTrack09	13	ProbeTrack	1470	SCS215a	20090522.123348	20090522.123940	8	0.013327	60	0	60-180	60	167	NoGap	1	44	2	3	0	distractor	1	320	840	22018	13.328	13.293	13.363
ProbeTrack09	13	ProbeTrack	1470	SCS215a	20090522.123348	20090522.123946	8	0.013327	60	0	60-180	60	112	NoGap	1	45	2	6	1	target	1	387	807	22825	13.328	13.292	13.363
ProbeTrack09	13	ProbeTrack	1470	SCS215a	20090522.123348	20090522.123953	8	0.013327	60	0	60-180	60	126	NoGap	1	46	2	0	0	distractor	1	347	827	23652	13.328	13.292	13.363
ProbeTrack09	13	ProbeTrack	1470	SCS215a	20090522.123348	20090522.124000	8	0.013327	60	0	60-180	60	153	NoGap	1	47	2	0	0	target	0	467	-1000	22652	13.328	13.292	13.363
ProbeTrack09	13	ProbeTrack	1470	SCS215a	20090522.123348	20090522.124007	8	0.013327	60	0	60-180	60	161	NoGap	1	48	2	0	1	distractor	0	334	-1000	21652	13.328	13.293	13.363
ProbeTrack09	13	ProbeTrack	1470	SCS215a	20090522.123348	20090522.124013	8	0.013327	60	0	60-180	60	85	NoGap	1	49	2	6	0	distractor	1	454	773	22425	13.328	13.293	13.363
ProbeTrack09	13	ProbeTrack	1470	SCS215a	20090522.123348	20090522.124019	8	0.013327	60	0	60-180	60	82	NoGap	1	50	2	96	1	target	1	733	634	23059	13.328	13.293	13.363
ProbeTrack09	13	ProbeTrack	1470	SCS215a	20090522.124127	20090522.124134	8	0.013327	60	10	60-180	60	91	GapPrac	1	1	2	96	0	target	0	760	-1000	22059	13.328	13.293	13.366
ProbeTrack09	13	ProbeTrack	1470	SCS215a	20090522.124127	20090522.124143	8	0.013327	60	10	60-180	60	78	GapPrac	1	2	2	3	0	distractor	1	880	560	22619	13.327	13.293	13.363
ProbeTrack09	13	ProbeTrack	1470	SCS215a	20090522.124127	20090522.124150	8	0.013327	60	10	60-180	60	72	GapPrac	1	3	2	96	1	target	1	547	727	23346	13.328	13.293	13.363
ProbeTrack09	13	ProbeTrack	1470	SCS215a	20090522.124127	20090522.124158	8	0.013327	60	10	60-180	60	179	GapPrac	1	4	2	0	0	distractor	1	720	640	23986	13.328	13.292	13.366
ProbeTrack09	13	ProbeTrack	1470	SCS215a	20090522.124127	20090522.124205	8	0.013327	60	10	60-180	60	117	GapPrac	1	5	2	3	1	target	1	494	753	24739	13.328	13.293	13.363
ProbeTrack09	13	ProbeTrack	1470	SCS215a	20090522.124127	20090522.124212	8	0.013327	60	10	60-180	60	121	GapPrac	1	6	2	6	1	target	1	520	740	25479	13.328	13.293	13.363
ProbeTrack09	13	ProbeTrack	1470	SCS215a	20090522.124127	20090522.124218	8	0.013327	60	10	60-180	60	80	GapPrac	1	7	2	0	0	distractor	1	547	727	26206	13.328	13.290	13.363
ProbeTrack09	13	ProbeTrack	1470	SCS215a	20090522.124127	20090522.124224	8	0.013327	60	10	60-180	60	72	GapPrac	1	8	2	0	1	target	1	374	813	27019	13.328	13.293	13.363
ProbeTrack09	13	ProbeTrack	1470	SCS215a	20090522.124127	20090522.124229	8	0.013327	60	10	60-180	60	61	GapPrac	1	9	2	96	0	distractor	1	520	740	27759	13.328	13.293	13.363
ProbeTrack09	13	ProbeTrack	1470	SCS215a	20090522.124127	20090522.124236	8	0.013327	60	10	60-180	60	141	GapPrac	1	10	2	3	1	target	1	614	693	28452	13.328	13.292	13.364
ProbeTrack09	13	ProbeTrack	1470	SCS215a	20090522.124127	20090522.124243	8	0.013327	60	10	60-180	60	112	GapPrac	1	11	2	3	0	distractor	1	613	694	29146	13.328	13.293	13.363
ProbeTrack09	13	ProbeTrack	1470	SCS215a	20090522.124127	20090522.124249	8	0.013327	60	10	60-180	60	107	GapPrac	1	12	2	6	0	distractor	1	280	860	30006	13.328	13.289	13.363
ProbeTrack09	13	ProbeTrack	1470	SCS215a	20090522.124127	20090522.124255	8	0.013327	60	10	60-180	60	128	GapPrac	1	13	2	96	1	target	1	334	833	30839	13.328	13.293	13.363
ProbeTrack09	13	ProbeTrack	1470	SCS215a	20090522.124127	20090522.124303	8	0.013327	60	10	60-180	60	140	GapPrac	1	14	2	6	0	target	0	414	-1000	29839	13.328	13.293	13.363
ProbeTrack09	13	ProbeTrack	1470	SCS215a	20090522.124127	20090522.124310	8	0.013327	60	10	60-180	60	157	GapPrac	1	15	2	96	0	distractor	1	467	767	30606	13.328	13.290	13.363
ProbeTrack09	13	ProbeTrack	1470	SCS215a	20090522.124127	20090522.124318	8	0.013327	60	10	60-180	60	88	GapPrac	1	16	2	0	0	distractor	1	613	694	31300	13.328	13.293	13.362
ProbeTrack09	13	ProbeTrack	1470	SCS215a	20090522.124127	20090522.124324	8	0.013327	60	10	60-180	60	157	GapPrac	1	17	2	0	1	target	1	560	720	32020	13.328	13.293	13.363
ProbeTrack09	13	ProbeTrack	1470	SCS215a	20090522.124127	20090522.124330	8	0.013327	60	10	60-180	60	102	GapPrac	1	18	2	6	1	target	1	454	773	32793	13.328	13.293	13.363
ProbeTrack09	13	ProbeTrack	1470	SCS215a	20090522.124127	20090522.124336	8	0.013327	60	10	60-180	60	61	GapPrac	1	19	2	3	0	distractor	1	334	833	33626	13.328	13.293	13.363
ProbeTrack09	13	ProbeTrack	1470	SCS215a	20090522.124127	20090522.124342	8	0.013327	60	10	60-180	60	170	GapPrac	1	20	2	96	1	distractor	0	360	-1000	32626	13.328	13.292	13.364
ProbeTrack09	13	ProbeTrack	1470	SCS215a	20090522.124442	20090522.124448	8	0.013327	60	10	60-180	60	83	GapExp	1	1	2	0	0	distractor	1	693	654	33280	13.328	13.293	13.363
ProbeTrack09	13	ProbeTrack	1470	SCS215a	20090522.124442	20090522.124456	8	0.013327	60	10	60-180	60	121	GapExp	1	2	2	0	1	distractor	0	427	-1000	32280	13.328	13.293	13.363
ProbeTrack09	13	ProbeTrack	1470	SCS215a	20090522.124442	20090522.124503	8	0.013327	60	10	60-180	60	63	GapExp	1	3	2	6	0	distractor	1	600	700	32980	13.327	13.293	13.363
ProbeTrack09	13	ProbeTrack	1470	SCS215a	20090522.124442	20090522.124508	8	0.013327	60	10	60-180	60	100	GapExp	1	4	2	96	0	distractor	1	494	753	33733	13.328	13.293	13.363
ProbeTrack09	13	ProbeTrack	1470	SCS215a	20090522.124442	20090522.124516	8	0.013327	60	10	60-180	60	138	GapExp	1	5	2	3	1	target	1	467	767	34500	13.328	13.293	13.363
ProbeTrack09	13	ProbeTrack	1470	SCS215a	20090522.124442	20090522.124522	8	0.013327	60	10	60-180	60	162	GapExp	1	6	2	3	0	target	0	494	-1000	33500	13.328	13.293	13.363
ProbeTrack09	13	ProbeTrack	1470	SCS215a	20090522.124442	20090522.124529	8	0.013327	60	10	60-180	60	64	GapExp	1	7	2	6	1	distractor	0	467	-1000	32500	13.327	13.293	13.363
ProbeTrack09	13	ProbeTrack	1470	SCS215a	20090522.124442	20090522.124535	8	0.013327	60	10	60-180	60	94	GapExp	1	8	2	96	1	target	1	347	827	33327	13.328	13.293	13.363
ProbeTrack09	13	ProbeTrack	1470	SCS215a	20090522.124442	20090522.124542	8	0.013327	60	10	60-180	60	74	GapExp	0	9	2	3	0	distractor	1	467	767	34094	13.328	13.293	13.363
ProbeTrack09	13	ProbeTrack	1470	SCS215a	20090522.124442	20090522.124547	8	0.013327	60	10	60-180	60	144	GapExp	0	10	2	6	0	target	0	707	-1000	33094	13.328	13.292	13.363
ProbeTrack09	13	ProbeTrack	1470	SCS215a	20090522.124442	20090522.124554	8	0.013327	60	10	60-180	60	150	GapExp	0	11	2	96	0	distractor	1	427	787	33881	13.328	13.293	13.363
ProbeTrack09	13	ProbeTrack	1470	SCS215a	20090522.124442	20090522.124601	8	0.013327	60	10	60-180	60	71	GapExp	0	12	2	6	0	distractor	1	720	640	34521	13.328	13.293	13.363
ProbeTrack09	13	ProbeTrack	1470	SCS215a	20090522.124442	20090522.124607	8	0.013327	60	10	60-180	60	129	GapExp	0	13	2	6	0	distractor	1	773	614	35135	13.328	13.289	13.363
ProbeTrack09	13	ProbeTrack	1470	SCS215a	20090522.124442	20090522.124614	8	0.013327	60	10	60-180	60	109	GapExp	0	14	2	6	0	distractor	1	560	720	35855	13.328	13.293	13.363
ProbeTrack09	13	ProbeTrack	1470	SCS215a	20090522.124442	20090522.124620	8	0.013327	60	10	60-180	60	127	GapExp	0	15	2	96	0	distractor	1	227	887	36742	13.328	13.293	13.371
ProbeTrack09	13	ProbeTrack	1470	SCS215a	20090522.124442	20090522.124629	8	0.013327	60	10	60-180	60	73	GapExp	0	16	2	0	1	target	1	560	720	37462	13.327	13.293	13.363
ProbeTrack09	13	ProbeTrack	1470	SCS215a	20090522.124442	20090522.124636	8	0.013327	60	10	60-180	60	180	GapExp	0	17	2	0	0	distractor	1	534	733	38195	13.328	13.176	13.479
ProbeTrack09	13	ProbeTrack	1470	SCS215a	20090522.124442	20090522.124648	8	0.013327	60	10	60-180	60	74	GapExp	0	18	2	3	1	distractor	0	440	-1000	37195	13.328	13.293	13.363
ProbeTrack09	13	ProbeTrack	1470	SCS215a	20090522.124442	20090522.124657	8	0.013327	60	10	60-180	60	74	GapExp	0	19	2	6	0	target	0	454	-1000	36195	13.328	13.293	13.363
ProbeTrack09	13	ProbeTrack	1470	SCS215a	20090522.124442	20090522.124703	8	0.013327	60	10	60-180	60	141	GapExp	0	20	2	0	0	distractor	1	414	793	36988	13.328	13.292	13.364
ProbeTrack09	13	ProbeTrack	1470	SCS215a	20090522.124442	20090522.124709	8	0.013327	60	10	60-180	60	69	GapExp	0	21	2	3	0	distractor	1	494	753	37741	13.327	13.293	13.363
ProbeTrack09	13	ProbeTrack	1470	SCS215a	20090522.124442	20090522.124715	8	0.013327	60	10	60-180	60	95	GapExp	0	22	2	6	1	target	1	400	800	38541	13.328	13.293	13.363
ProbeTrack09	13	ProbeTrack	1470	SCS215a	20090522.124442	20090522.124720	8	0.013327	60	10	60-180	60	147	GapExp	0	23	2	3	0	distractor	1	347	827	39368	13.328	13.293	13.363
ProbeTrack09	13	ProbeTrack	1470	SCS215a	20090522.124442	20090522.124727	8	0.013327	60	10	60-180	60	169	GapExp	0	24	2	96	0	distractor	1	440	780	40148	13.328	13.293	13.366
ProbeTrack09	13	ProbeTrack	1470	SCS215a	20090522.124442	20090522.124735	8	0.013327	60	10	60-180	60	172	GapExp	0	25	2	0	1	target	1	400	800	40948	13.328	13.292	13.363
ProbeTrack09	13	ProbeTrack	1470	SCS215a	20090522.124442	20090522.124741	8	0.013327	60	10	60-180	60	118	GapExp	0	26	2	3	1	target	1	320	840	41788	13.327	13.293	13.363
ProbeTrack09	13	ProbeTrack	1470	SCS215a	20090522.124442	20090522.124747	8	0.013327	60	10	60-180	60	63	GapExp	0	27	2	0	0	distractor	1	560	720	42508	13.328	13.293	13.363
ProbeTrack09	13	ProbeTrack	1470	SCS215a	20090522.124442	20090522.124753	8	0.013327	60	10	60-180	60	108	GapExp	0	28	2	96	0	distractor	1	507	747	43255	13.328	13.293	13.363
ProbeTrack09	13	ProbeTrack	1470	SCS215a	20090522.124442	20090522.124800	8	0.013327	60	10	60-180	60	81	GapExp	0	29	2	96	0	distractor	1	653	674	43929	13.328	13.293	13.363
ProbeTrack09	13	ProbeTrack	1470	SCS215a	20090522.124442	20090522.124808	8	0.013327	60	10	60-180	60	162	GapExp	0	30	2	96	0	distractor	1	534	733	44662	13.328	13.290	13.363
ProbeTrack09	13	ProbeTrack	1470	SCS215a	20090522.124442	20090522.124816	8	0.013327	60	10	60-180	60	140	GapExp	0	31	2	96	0	distractor	1	400	800	45462	13.328	13.293	13.363
ProbeTrack09	13	ProbeTrack	1470	SCS215a	20090522.124442	20090522.124824	8	0.013327	60	10	60-180	60	168	GapExp	0	32	2	3	0	distractor	1	720	640	46102	13.328	13.286	13.363
ProbeTrack09	13	ProbeTrack	1470	SCS215a	20090522.124442	20090522.124831	8	0.013327	60	10	60-180	60	88	GapExp	0	33	2	6	0	target	0	1027	-1000	45102	13.327	13.293	13.363
ProbeTrack09	13	ProbeTrack	1470	SCS215a	20090522.124442	20090522.124837	8	0.013327	60	10	60-180	60	176	GapExp	0	34	2	3	1	target	1	574	713	45815	13.328	13.291	13.363
ProbeTrack09	13	ProbeTrack	1470	SCS215a	20090522.124442	20090522.124845	8	0.013327	60	10	60-180	60	130	GapExp	0	35	2	6	0	distractor	1	587	707	46522	13.328	13.293	13.363
ProbeTrack09	13	ProbeTrack	1470	SCS215a	20090522.124442	20090522.124852	8	0.013327	60	10	60-180	60	131	GapExp	0	36	2	6	1	target	1	534	733	47255	13.328	13.293	13.363
ProbeTrack09	13	ProbeTrack	1470	SCS215a	20090522.124442	20090522.124858	8	0.013327	60	10	60-180	60	119	GapExp	0	37	2	6	1	target	1	414	793	48048	13.328	13.293	13.363
ProbeTrack09	13	ProbeTrack	1470	SCS215a	20090522.124442	20090522.124904	8	0.013327	60	10	60-180	60	69	GapExp	0	38	2	3	1	target	1	507	747	48795	13.328	13.293	13.363
ProbeTrack09	13	ProbeTrack	1470	SCS215a	20090522.124442	20090522.124910	8	0.013327	60	10	60-180	60	176	GapExp	0	39	2	0	1	target	1	440	780	49575	13.328	13.289	13.367
ProbeTrack09	13	ProbeTrack	1470	SCS215a	20090522.124442	20090522.124917	8	0.013327	60	10	60-180	60	81	GapExp	0	40	2	6	1	target	1	467	767	50342	13.328	13.292	13.363
ProbeTrack09	13	ProbeTrack	1470	SCS215a	20090522.124442	20090522.124924	8	0.013327	60	10	60-180	60	154	GapExp	0	41	2	6	1	target	1	387	807	51149	13.328	13.293	13.367
ProbeTrack09	13	ProbeTrack	1470	SCS215a	20090522.124442	20090522.124931	8	0.013327	60	10	60-180	60	132	GapExp	0	42	2	96	1	target	1	334	833	51982	13.328	13.293	13.363
ProbeTrack09	13	ProbeTrack	1470	SCS215a	20090522.124442	20090522.124939	8	0.013327	60	10	60-180	60	71	GapExp	0	43	2	6	1	target	1	347	827	52809	13.328	13.293	13.363
ProbeTrack09	13	ProbeTrack	1470	SCS215a	20090522.124442	20090522.124944	8	0.013327	60	10	60-180	60	179	GapExp	0	44	2	0	0	distractor	1	507	747	53556	13.328	13.293	13.363
ProbeTrack09	13	ProbeTrack	1470	SCS215a	20090522.124442	20090522.124951	8	0.013327	60	10	60-180	60	97	GapExp	0	45	2	96	1	target	1	494	753	54309	13.328	13.293	13.363
ProbeTrack09	13	ProbeTrack	1470	SCS215a	20090522.124442	20090522.124958	8	0.013327	60	10	60-180	60	164	GapExp	0	46	2	6	1	target	1	360	820	55129	13.328	13.293	13.363
ProbeTrack09	13	ProbeTrack	1470	SCS215a	20090522.124442	20090522.125005	8	0.013327	60	10	60-180	60	94	GapExp	0	47	2	6	0	distractor	1	507	747	55876	13.328	13.293	13.369
ProbeTrack09	13	ProbeTrack	1470	SCS215a	20090522.124442	20090522.125011	8	0.013327	60	10	60-180	60	92	GapExp	0	48	2	0	0	target	0	520	-1000	54876	13.328	13.292	13.363
ProbeTrack09	13	ProbeTrack	1470	SCS215a	20090522.124442	20090522.125016	8	0.013327	60	10	60-180	60	131	GapExp	0	49	2	0	1	target	1	360	820	55696	13.327	13.292	13.363
ProbeTrack09	13	ProbeTrack	1470	SCS215a	20090522.124442	20090522.125022	8	0.013327	60	10	60-180	60	126	GapExp	0	50	2	3	1	target	1	414	793	56489	13.328	13.289	13.363
ProbeTrack09	13	ProbeTrack	1470	SCS215a	20090522.124442	20090522.125029	8	0.013327	60	10	60-180	60	95	GapExp	0	51	2	6	0	distractor	1	733	634	57123	13.328	13.289	13.363
ProbeTrack09	13	ProbeTrack	1470	SCS215a	20090522.124442	20090522.125035	8	0.013327	60	10	60-180	60	132	GapExp	0	52	2	3	0	distractor	1	587	707	57830	13.328	13.293	13.363
ProbeTrack09	13	ProbeTrack	1470	SCS215a	20090522.124442	20090522.125042	8	0.013327	60	10	60-180	60	129	GapExp	0	53	2	0	1	target	1	653	674	58504	13.328	13.292	13.363
ProbeTrack09	13	ProbeTrack	1470	SCS215a	20090522.124442	20090522.125048	8	0.013327	60	10	60-180	60	178	GapExp	0	54	2	0	1	target	1	520	740	59244	13.328	13.293	13.363
ProbeTrack09	13	ProbeTrack	1470	SCS215a	20090522.124442	20090522.125055	8	0.013327	60	10	60-180	60	70	GapExp	0	55	2	0	0	target	0	627	-1000	58244	13.328	13.293	13.363
ProbeTrack09	13	ProbeTrack	1470	SCS215a	20090522.124442	20090522.125101	8	0.013327	60	10	60-180	60	131	GapExp	0	56	2	6	0	distractor	1	454	773	59017	13.328	13.293	13.367
ProbeTrack09	13	ProbeTrack	1470	SCS215a	20090522.124442	20090522.125107	8	0.013327	60	10	60-180	60	127	GapExp	0	57	2	0	1	distractor	0	440	-1000	58017	13.328	13.293	13.363
ProbeTrack09	13	ProbeTrack	1470	SCS215a	20090522.124442	20090522.125114	8	0.013327	60	10	60-180	60	66	GapExp	0	58	2	0	1	target	1	414	793	58810	13.328	13.293	13.363
ProbeTrack09	13	ProbeTrack	1470	SCS215a	20090522.124442	20090522.125124	8	0.013327	60	10	60-180	60	102	GapExp	0	59	2	0	0	distractor	1	427	787	59597	13.327	13.293	13.363
ProbeTrack09	13	ProbeTrack	1470	SCS215a	20090522.124442	20090522.125132	8	0.013327	60	10	60-180	60	164	GapExp	0	60	2	0	1	target	1	414	793	60390	13.328	13.292	13.363
ProbeTrack09	13	ProbeTrack	1470	SCS215a	20090522.124442	20090522.125140	8	0.013327	60	10	60-180	60	136	GapExp	0	61	2	6	1	distractor	0	400	-1000	59390	13.328	13.291	13.364
ProbeTrack09	13	ProbeTrack	1470	SCS215a	20090522.124442	20090522.125146	8	0.013327	60	10	60-180	60	130	GapExp	0	62	2	96	1	target	1	427	787	60177	13.328	13.293	13.363
ProbeTrack09	13	ProbeTrack	1470	SCS215a	20090522.124442	20090522.125154	8	0.013327	60	10	60-180	60	85	GapExp	0	63	2	0	0	distractor	1	494	753	60930	13.327	13.293	13.363
ProbeTrack09	13	ProbeTrack	1470	SCS215a	20090522.124442	20090522.125202	8	0.013327	60	10	60-180	60	73	GapExp	0	64	2	6	1	target	1	440	780	61710	13.328	13.292	13.363
ProbeTrack09	13	ProbeTrack	1470	SCS215a	20090522.124442	20090522.125215	8	0.013327	60	10	60-180	60	64	GapExp	0	65	2	0	0	distractor	1	440	780	62490	13.328	13.292	13.363
ProbeTrack09	13	ProbeTrack	1470	SCS215a	20090522.124442	20090522.125222	8	0.013327	60	10	60-180	60	98	GapExp	0	66	2	3	1	target	1	534	733	63223	13.328	13.280	13.363
ProbeTrack09	13	ProbeTrack	1470	SCS215a	20090522.124442	20090522.125228	8	0.013327	60	10	60-180	60	112	GapExp	0	67	2	3	0	distractor	1	587	707	63930	13.328	13.293	13.363
ProbeTrack09	13	ProbeTrack	1470	SCS215a	20090522.124442	20090522.125233	8	0.013327	60	10	60-180	60	156	GapExp	0	68	2	96	1	target	1	480	760	64690	13.328	13.293	13.363
ProbeTrack09	13	ProbeTrack	1470	SCS215a	20090522.124442	20090522.125241	8	0.013327	60	10	60-180	60	81	GapExp	0	69	2	6	1	target	1	387	807	65497	13.328	13.292	13.363
ProbeTrack09	13	ProbeTrack	1470	SCS215a	20090522.124442	20090522.125247	8	0.013327	60	10	60-180	60	111	GapExp	0	70	2	6	1	target	1	387	807	66304	13.328	13.285	13.371
ProbeTrack09	13	ProbeTrack	1470	SCS215a	20090522.124442	20090522.125252	8	0.013327	60	10	60-180	60	103	GapExp	0	71	2	0	0	target	0	440	-1000	65304	13.328	13.168	13.453
ProbeTrack09	13	ProbeTrack	1470	SCS215a	20090522.124442	20090522.125258	8	0.013327	60	10	60-180	60	154	GapExp	0	72	2	3	1	target	1	334	833	66137	13.328	13.292	13.363
ProbeTrack09	13	ProbeTrack	1470	SCS215a	20090522.124442	20090522.125304	8	0.013327	60	10	60-180	60	93	GapExp	0	73	2	0	1	target	1	307	847	66984	13.328	13.293	13.363
ProbeTrack09	13	ProbeTrack	1470	SCS215a	20090522.124442	20090522.125310	8	0.013327	60	10	60-180	60	97	GapExp	0	74	2	3	1	target	1	347	827	67811	13.328	13.293	13.371
ProbeTrack09	13	ProbeTrack	1470	SCS215a	20090522.124442	20090522.125315	8	0.013327	60	10	60-180	60	63	GapExp	0	75	2	96	1	distractor	0	347	-1000	66811	13.328	13.292	13.363
ProbeTrack09	13	ProbeTrack	1470	SCS215a	20090522.124442	20090522.125321	8	0.013327	60	10	60-180	60	84	GapExp	0	76	2	0	1	target	1	427	787	67598	13.328	13.293	13.363
ProbeTrack09	13	ProbeTrack	1470	SCS215a	20090522.124442	20090522.125327	8	0.013327	60	10	60-180	60	84	GapExp	0	77	2	96	1	distractor	0	280	-1000	66598	13.328	13.293	13.363
ProbeTrack09	13	ProbeTrack	1470	SCS215a	20090522.124442	20090522.125334	8	0.013327	60	10	60-180	60	124	GapExp	0	78	2	6	0	distractor	1	560	720	67318	13.328	13.293	13.363
ProbeTrack09	13	ProbeTrack	1470	SCS215a	20090522.124442	20090522.125340	8	0.013327	60	10	60-180	60	81	GapExp	0	79	2	3	0	distractor	1	494	753	68071	13.328	13.284	13.363
ProbeTrack09	13	ProbeTrack	1470	SCS215a	20090522.124442	20090522.125345	8	0.013327	60	10	60-180	60	173	GapExp	0	80	2	3	1	target	1	427	787	68858	13.328	13.293	13.365
ProbeTrack09	13	ProbeTrack	1470	SCS215a	20090522.124442	20090522.125352	8	0.013327	60	10	60-180	60	67	GapExp	0	81	2	6	1	target	1	374	813	69671	13.328	13.293	13.363
ProbeTrack09	13	ProbeTrack	1470	SCS215a	20090522.124442	20090522.125357	8	0.013327	60	10	60-180	60	135	GapExp	0	82	2	96	1	target	1	294	853	70524	13.328	13.292	13.364
ProbeTrack09	13	ProbeTrack	1470	SCS215a	20090522.124442	20090522.125404	8	0.013327	60	10	60-180	60	145	GapExp	0	83	2	3	1	target	1	347	827	71351	13.328	13.292	13.363
ProbeTrack09	13	ProbeTrack	1470	SCS215a	20090522.124442	20090522.125410	8	0.013327	60	10	60-180	60	69	GapExp	0	84	2	6	1	target	1	400	800	72151	13.328	13.293	13.363
ProbeTrack09	13	ProbeTrack	1470	SCS215a	20090522.124442	20090522.125416	8	0.013327	60	10	60-180	60	70	GapExp	0	85	2	0	0	target	0	374	-1000	71151	13.327	13.293	13.363
ProbeTrack09	13	ProbeTrack	1470	SCS215a	20090522.124442	20090522.125421	8	0.013327	60	10	60-180	60	138	GapExp	0	86	2	6	1	target	1	440	780	71931	13.328	13.292	13.363
ProbeTrack09	13	ProbeTrack	1470	SCS215a	20090522.124442	20090522.125453	8	0.013327	60	10	60-180	60	115	GapExp	0	87	2	96	0	target	0	494	-1000	70931	13.328	13.293	13.363
ProbeTrack09	13	ProbeTrack	1470	SCS215a	20090522.124442	20090522.125500	8	0.013327	60	10	60-180	60	91	GapExp	0	88	2	0	1	target	1	427	787	71718	13.328	13.293	13.363
ProbeTrack09	13	ProbeTrack	1470	SCS215a	20090522.124442	20090522.125506	8	0.013327	60	10	60-180	60	74	GapExp	0	89	2	0	0	distractor	1	454	773	72491	13.328	13.293	13.363
ProbeTrack09	13	ProbeTrack	1470	SCS215a	20090522.124442	20090522.125511	8	0.013327	60	10	60-180	60	172	GapExp	0	90	2	96	0	distractor	1	427	787	73278	13.328	13.293	13.364
ProbeTrack09	13	ProbeTrack	1470	SCS215a	20090522.124442	20090522.125519	8	0.013327	60	10	60-180	60	176	GapExp	0	91	2	3	0	distractor	1	494	753	74031	13.328	13.289	13.366
ProbeTrack09	13	ProbeTrack	1470	SCS215a	20090522.124442	20090522.125526	8	0.013327	60	10	60-180	60	174	GapExp	0	92	2	96	0	distractor	1	414	793	74824	13.328	13.293	13.364
ProbeTrack09	13	ProbeTrack	1470	SCS215a	20090522.124442	20090522.125535	8	0.013327	60	10	60-180	60	153	GapExp	0	93	2	0	0	distractor	1	427	787	75611	13.328	13.289	13.363
ProbeTrack09	13	ProbeTrack	1470	SCS215a	20090522.124442	20090522.125541	8	0.013327	60	10	60-180	60	117	GapExp	0	94	2	96	0	distractor	1	400	800	76411	13.328	13.293	13.363
ProbeTrack09	13	ProbeTrack	1470	SCS215a	20090522.124442	20090522.125548	8	0.013327	60	10	60-180	60	176	GapExp	0	95	2	0	1	target	1	374	813	77224	13.328	13.289	13.363
ProbeTrack09	13	ProbeTrack	1470	SCS215a	20090522.124442	20090522.125555	8	0.013327	60	10	60-180	60	178	GapExp	0	96	2	3	1	target	1	520	740	77964	13.328	13.291	13.364
ProbeTrack09	13	ProbeTrack	1470	SCS215a	20090522.124442	20090522.125602	8	0.013327	60	10	60-180	60	104	GapExp	0	97	2	0	1	target	1	534	733	78697	13.328	13.293	13.363
ProbeTrack09	13	ProbeTrack	1470	SCS215a	20090522.124442	20090522.125608	8	0.013327	60	10	60-180	60	126	GapExp	0	98	2	96	1	target	1	360	820	79517	13.328	13.289	13.366
ProbeTrack09	13	ProbeTrack	1470	SCS215a	20090522.124442	20090522.125615	8	0.013327	60	10	60-180	60	165	GapExp	0	99	2	3	1	target	1	360	820	80337	13.328	13.293	13.363
ProbeTrack09	13	ProbeTrack	1470	SCS215a	20090522.124442	20090522.125626	8	0.013327	60	10	60-180	60	101	GapExp	0	100	2	0	1	target	1	387	807	81144	13.328	13.293	13.364
ProbeTrack09	13	ProbeTrack	1470	SCS215a	20090522.124442	20090522.125633	8	0.013327	60	10	60-180	60	145	GapExp	0	101	2	0	1	target	1	281	860	82004	13.327	13.293	13.362
ProbeTrack09	13	ProbeTrack	1470	SCS215a	20090522.124442	20090522.125644	8	0.013327	60	10	60-180	60	174	GapExp	0	102	2	6	0	distractor	1	640	680	82684	13.328	13.289	13.363
ProbeTrack09	13	ProbeTrack	1470	SCS215a	20090522.124442	20090522.125651	8	0.013327	60	10	60-180	60	123	GapExp	0	103	2	96	0	distractor	1	574	713	83397	13.328	13.292	13.363
ProbeTrack09	13	ProbeTrack	1470	SCS215a	20090522.124442	20090522.125658	8	0.013327	60	10	60-180	60	154	GapExp	0	104	2	3	0	distractor	1	400	800	84197	13.328	13.287	13.363
ProbeTrack09	13	ProbeTrack	1470	SCS215a	20090522.124442	20090522.125705	8	0.013327	60	10	60-180	60	63	GapExp	0	105	2	0	0	distractor	1	494	753	84950	13.327	13.289	13.365
ProbeTrack09	13	ProbeTrack	1470	SCS215a	20090522.124442	20090522.125710	8	0.013327	60	10	60-180	60	120	GapExp	0	106	2	6	1	target	1	400	800	85750	13.328	13.293	13.363
ProbeTrack09	13	ProbeTrack	1470	SCS215a	20090522.124442	20090522.125716	8	0.013327	60	10	60-180	60	106	GapExp	0	107	2	0	0	distractor	1	867	567	86317	13.328	13.293	13.363
ProbeTrack09	13	ProbeTrack	1470	SCS215a	20090522.124442	20090522.125722	8	0.013327	60	10	60-180	60	150	GapExp	0	108	2	0	1	target	1	400	800	87117	13.328	13.293	13.363
ProbeTrack09	13	ProbeTrack	1470	SCS215a	20090522.124442	20090522.125729	8	0.013327	60	10	60-180	60	65	GapExp	0	109	2	96	1	target	1	347	827	87944	13.328	13.293	13.363
ProbeTrack09	13	ProbeTrack	1470	SCS215a	20090522.124442	20090522.125735	8	0.013327	60	10	60-180	60	180	GapExp	0	110	2	6	0	distractor	1	400	800	88744	13.328	13.288	13.363
ProbeTrack09	13	ProbeTrack	1470	SCS215a	20090522.124442	20090522.125742	8	0.013327	60	10	60-180	60	124	GapExp	0	111	2	96	1	target	1	414	793	89537	13.328	13.292	13.363
ProbeTrack09	13	ProbeTrack	1470	SCS215a	20090522.124442	20090522.125749	8	0.013327	60	10	60-180	60	100	GapExp	0	112	2	0	1	target	1	414	793	90330	13.328	13.291	13.364
ProbeTrack09	13	ProbeTrack	1470	SCS215a	20090522.124442	20090522.125755	8	0.013327	60	10	60-180	60	162	GapExp	0	113	2	3	0	distractor	1	547	727	91057	13.328	13.284	13.372
ProbeTrack09	13	ProbeTrack	1470	SCS215a	20090522.124442	20090522.125802	8	0.013327	60	10	60-180	60	64	GapExp	0	114	2	3	0	distractor	1	467	767	91824	13.328	13.293	13.363
ProbeTrack09	13	ProbeTrack	1470	SCS215a	20090522.124442	20090522.125807	8	0.013327	60	10	60-180	60	148	GapExp	0	115	2	3	1	distractor	0	307	-1000	90824	13.328	13.293	13.363
ProbeTrack09	13	ProbeTrack	1470	SCS215a	20090522.124442	20090522.125814	8	0.013327	60	10	60-180	60	62	GapExp	0	116	2	3	1	target	1	534	733	91557	13.328	13.293	13.362
ProbeTrack09	13	ProbeTrack	1470	SCS215a	20090522.124442	20090522.125819	8	0.013327	60	10	60-180	60	156	GapExp	0	117	2	96	1	target	1	440	780	92337	13.328	13.293	13.364
ProbeTrack09	13	ProbeTrack	1470	SCS215a	20090522.124442	20090522.125826	8	0.013327	60	10	60-180	60	139	GapExp	0	118	2	96	1	83	-3	387	-1000	91337	13.328	13.293	13.365
ProbeTrack09	13	ProbeTrack	1470	SCS215a	20090522.124442	20090522.125840	8	0.013327	60	10	60-180	60	79	GapExp	0	119	2	6	0	distractor	1	467	767	92104	13.328	13.293	13.363
ProbeTrack09	13	ProbeTrack	1470	SCS215a	20090522.124442	20090522.125848	8	0.013327	60	10	60-180	60	106	GapExp	0	120	2	6	0	distractor	1	520	740	92844	13.328	13.293	13.363
ProbeTrack09	13	ProbeTrack	1470	SCS215a	20090522.124442	20090522.125855	8	0.013327	60	10	60-180	60	134	GapExp	0	121	2	6	1	target	1	307	847	93691	13.328	13.292	13.362
ProbeTrack09	13	ProbeTrack	1470	SCS215a	20090522.124442	20090522.125901	8	0.013327	60	10	60-180	60	72	GapExp	0	122	2	6	0	distractor	1	400	800	94491	13.328	13.292	13.363
ProbeTrack09	13	ProbeTrack	1470	SCS215a	20090522.124442	20090522.125906	8	0.013327	60	10	60-180	60	141	GapExp	0	123	2	6	0	distractor	1	360	820	95311	13.328	13.293	13.363
ProbeTrack09	13	ProbeTrack	1470	SCS215a	20090522.124442	20090522.125912	8	0.013327	60	10	60-180	60	89	GapExp	0	124	2	0	0	distractor	1	387	807	96118	13.328	13.292	13.364
ProbeTrack09	13	ProbeTrack	1470	SCS215a	20090522.124442	20090522.125918	8	0.013327	60	10	60-180	60	175	GapExp	0	125	2	0	0	distractor	1	534	733	96851	13.328	13.293	13.363
ProbeTrack09	13	ProbeTrack	1470	SCS215a	20090522.124442	20090522.125927	8	0.013327	60	10	60-180	60	139	GapExp	0	126	2	6	0	distractor	1	374	813	97664	13.328	13.292	13.363
ProbeTrack09	13	ProbeTrack	1470	SCS215a	20090522.124442	20090522.125936	8	0.013327	60	10	60-180	60	99	GapExp	0	127	2	3	1	distractor	0	427	-1000	96664	13.328	13.293	13.363
ProbeTrack09	13	ProbeTrack	1470	SCS215a	20090522.124442	20090522.125942	8	0.013327	60	10	60-180	60	80	GapExp	0	128	2	3	0	distractor	1	400	800	97464	13.328	13.293	13.362
ProbeTrack09	13	ProbeTrack	1470	SCS215a	20090522.124442	20090522.125947	8	0.013327	60	10	60-180	60	158	GapExp	0	129	2	6	1	target	1	307	847	98311	13.328	13.293	13.363
ProbeTrack09	13	ProbeTrack	1470	SCS215a	20090522.124442	20090522.125953	8	0.013327	60	10	60-180	60	82	GapExp	0	130	2	3	1	target	1	360	820	99131	13.328	13.292	13.363
ProbeTrack09	13	ProbeTrack	1470	SCS215a	20090522.124442	20090522.125959	8	0.013327	60	10	60-180	60	67	GapExp	0	131	2	6	1	target	1	334	833	99964	13.328	13.293	13.363
ProbeTrack09	13	ProbeTrack	1470	SCS215a	20090522.124442	20090522.130004	8	0.013327	60	10	60-180	60	173	GapExp	0	132	2	0	1	target	1	387	807	100771	13.328	13.293	13.363
ProbeTrack09	13	ProbeTrack	1470	SCS215a	20090522.124442	20090522.130011	8	0.013327	60	10	60-180	60	173	GapExp	0	133	2	0	0	distractor	1	560	720	101491	13.328	13.293	13.363
ProbeTrack09	13	ProbeTrack	1470	SCS215a	20090522.124442	20090522.130017	8	0.013327	60	10	60-180	60	148	GapExp	0	134	2	96	0	distractor	1	360	820	102311	13.328	13.293	13.363
ProbeTrack09	13	ProbeTrack	1470	SCS215a	20090522.124442	20090522.130025	8	0.013327	60	10	60-180	60	75	GapExp	0	135	2	6	1	target	1	454	773	103084	13.328	13.289	13.366
ProbeTrack09	13	ProbeTrack	1470	SCS215a	20090522.124442	20090522.130030	8	0.013327	60	10	60-180	60	110	GapExp	0	136	2	3	0	distractor	1	414	793	103877	13.328	13.293	13.363
ProbeTrack09	13	ProbeTrack	1470	SCS215a	20090522.124442	20090522.130036	8	0.013327	60	10	60-180	60	168	GapExp	0	137	2	3	0	distractor	1	347	827	104704	13.328	13.293	13.363
ProbeTrack09	13	ProbeTrack	1470	SCS215a	20090522.124442	20090522.130042	8	0.013327	60	10	60-180	60	84	GapExp	0	138	2	3	0	distractor	1	414	793	105497	13.328	13.293	13.363
ProbeTrack09	13	ProbeTrack	1470	SCS215a	20090522.124442	20090522.130048	8	0.013327	60	10	60-180	60	164	GapExp	0	139	2	6	0	distractor	1	387	807	106304	13.328	13.293	13.363
ProbeTrack09	13	ProbeTrack	1470	SCS215a	20090522.124442	20090522.130054	8	0.013327	60	10	60-180	60	163	GapExp	0	140	2	96	1	target	1	440	780	107084	13.328	13.293	13.363
ProbeTrack09	13	ProbeTrack	1470	SCS215a	20090522.124442	20090522.130102	8	0.013327	60	10	60-180	60	112	GapExp	0	141	2	3	1	target	1	387	807	107891	13.328	13.293	13.364
ProbeTrack09	13	ProbeTrack	1470	SCS215a	20090522.124442	20090522.130108	8	0.013327	60	10	60-180	60	94	GapExp	0	142	2	3	0	distractor	1	334	833	108724	13.328	13.293	13.363
ProbeTrack09	13	ProbeTrack	1470	SCS215a	20090522.124442	20090522.130114	8	0.013327	60	10	60-180	60	132	GapExp	0	143	2	3	0	distractor	1	374	813	109537	13.327	13.293	13.363
ProbeTrack09	13	ProbeTrack	1470	SCS215a	20090522.124442	20090522.130122	8	0.013327	60	10	60-180	60	160	GapExp	0	144	2	0	0	distractor	1	480	760	110297	13.328	13.293	13.363
ProbeTrack09	13	ProbeTrack	1470	SCS215a	20090522.124442	20090522.130128	8	0.013327	60	10	60-180	60	123	GapExp	0	145	2	3	0	distractor	1	560	720	111017	13.327	13.292	13.363
ProbeTrack09	13	ProbeTrack	1470	SCS215a	20090522.124442	20090522.130134	8	0.013327	60	10	60-180	60	104	GapExp	0	146	2	6	0	distractor	1	427	787	111804	13.328	13.293	13.363
ProbeTrack09	13	ProbeTrack	1470	SCS215a	20090522.124442	20090522.130141	8	0.013327	60	10	60-180	60	103	GapExp	0	147	2	3	0	distractor	1	427	787	112591	13.328	13.290	13.363
ProbeTrack09	13	ProbeTrack	1470	SCS215a	20090522.124442	20090522.130147	8	0.013327	60	10	60-180	60	126	GapExp	0	148	2	3	0	distractor	1	627	687	113278	13.328	13.293	13.363
ProbeTrack09	13	ProbeTrack	1470	SCS215a	20090522.124442	20090522.130154	8	0.013327	60	10	60-180	60	141	GapExp	0	149	2	3	1	target	1	347	827	114105	13.328	13.293	13.363
ProbeTrack09	13	ProbeTrack	1470	SCS215a	20090522.124442	20090522.130201	8	0.013327	60	10	60-180	60	96	GapExp	0	150	2	96	1	target	1	360	820	114925	13.328	13.293	13.369
ProbeTrack09	13	ProbeTrack	1470	SCS215a	20090522.124442	20090522.130211	8	0.013327	60	10	60-180	60	61	GapExp	0	151	2	96	1	target	1	307	847	115772	13.328	13.293	13.363
ProbeTrack09	13	ProbeTrack	1470	SCS215a	20090522.124442	20090522.130219	8	0.013327	60	10	60-180	60	142	GapExp	0	152	2	3	1	target	1	400	800	116572	13.328	13.293	13.362
ProbeTrack09	13	ProbeTrack	1470	SCS215a	20090522.124442	20090522.130225	8	0.013327	60	10	60-180	60	130	GapExp	0	153	2	3	0	distractor	1	414	793	117365	13.328	13.293	13.363
ProbeTrack09	13	ProbeTrack	1470	SCS215a	20090522.124442	20090522.130232	8	0.013327	60	10	60-180	60	135	GapExp	0	154	2	96	0	distractor	1	400	800	118165	13.328	13.293	13.363
ProbeTrack09	13	ProbeTrack	1470	SCS215a	20090522.124442	20090522.130241	8	0.013327	60	10	60-180	60	145	GapExp	0	155	2	96	0	distractor	1	493	754	118919	13.328	13.292	13.364
ProbeTrack09	13	ProbeTrack	1470	SCS215a	20090522.124442	20090522.130249	8	0.013327	60	10	60-180	60	162	GapExp	0	156	2	96	0	distractor	1	494	753	119672	13.328	13.292	13.363
ProbeTrack09	13	ProbeTrack	1470	SCS215a	20090522.124442	20090522.130300	8	0.013327	60	10	60-180	60	139	GapExp	0	157	2	0	0	distractor	1	400	800	120472	13.327	13.293	13.362
ProbeTrack09	13	ProbeTrack	1470	SCS215a	20090522.124442	20090522.130306	8	0.013327	60	10	60-180	60	145	GapExp	0	158	2	0	1	target	1	440	780	121252	13.328	13.293	13.363
ProbeTrack09	13	ProbeTrack	1470	SCS215a	20090522.124442	20090522.130312	8	0.013327	60	10	60-180	60	113	GapExp	0	159	2	0	0	distractor	1	400	800	122052	13.328	13.293	13.363
ProbeTrack09	13	ProbeTrack	1470	SCS215a	20090522.124442	20090522.130318	8	0.013327	60	10	60-180	60	71	GapExp	0	160	2	3	0	target	0	653	-1000	121052	13.328	13.293	13.363
ProbeTrack09	13	ProbeTrack	1470	SCS215a	20090522.124442	20090522.130324	8	0.013327	60	10	60-180	60	141	GapExp	0	161	2	96	0	distractor	1	440	780	121832	13.328	13.293	13.364
ProbeTrack09	13	ProbeTrack	1470	SCS215a	20090522.124442	20090522.130331	8	0.013327	60	10	60-180	60	124	GapExp	0	162	2	3	1	target	1	360	820	122652	13.328	13.293	13.363
ProbeTrack09	13	ProbeTrack	1470	SCS215a	20090522.124442	20090522.130337	8	0.013327	60	10	60-180	60	120	GapExp	0	163	2	0	0	target	0	374	-1000	121652	13.327	13.293	13.363
ProbeTrack09	13	ProbeTrack	1470	SCS215a	20090522.124442	20090522.130343	8	0.013327	60	10	60-180	60	175	GapExp	0	164	2	96	1	target	1	334	833	122485	13.328	13.291	13.364
ProbeTrack09	13	ProbeTrack	1470	SCS215a	20090522.124442	20090522.130351	8	0.013327	60	10	60-180	60	137	GapExp	0	165	2	6	1	target	1	454	773	123258	13.328	13.287	13.369
ProbeTrack09	13	ProbeTrack	1470	SCS215a	20090522.124442	20090522.130357	8	0.013327	60	10	60-180	60	123	GapExp	0	166	2	0	0	distractor	1	454	773	124031	13.328	13.286	13.369
ProbeTrack09	13	ProbeTrack	1470	SCS215a	20090522.124442	20090522.130404	8	0.013327	60	10	60-180	60	66	GapExp	0	167	2	96	1	target	1	374	813	124844	13.328	13.293	13.363
ProbeTrack09	13	ProbeTrack	1470	SCS215a	20090522.124442	20090522.130410	8	0.013327	60	10	60-180	60	111	GapExp	0	168	2	0	1	distractor	0	374	-1000	123844	13.328	13.290	13.363
ProbeTrack09	13	ProbeTrack	1470	SCS215a	20090522.124442	20090522.130416	8	0.013327	60	10	60-180	60	151	GapExp	0	169	2	96	0	distractor	1	520	740	124584	13.328	13.293	13.363
ProbeTrack09	13	ProbeTrack	1470	SCS215a	20090522.124442	20090522.130424	8	0.013327	60	10	60-180	60	111	GapExp	0	170	2	6	1	target	1	334	833	125417	13.328	13.292	13.363
ProbeTrack09	13	ProbeTrack	1470	SCS215a	20090522.124442	20090522.130429	8	0.013327	60	10	60-180	60	176	GapExp	0	171	2	6	1	distractor	0	334	-1000	124417	13.328	13.293	13.366
ProbeTrack09	13	ProbeTrack	1470	SCS215a	20090522.124442	20090522.130447	8	0.013327	60	10	60-180	60	178	GapExp	0	172	2	6	0	target	0	360	-1000	123417	13.328	13.293	13.363
ProbeTrack09	13	ProbeTrack	1470	SCS215a	20090522.124442	20090522.130457	8	0.013327	60	10	60-180	60	114	GapExp	0	173	2	96	1	target	1	374	813	124230	13.328	13.293	13.363
ProbeTrack09	13	ProbeTrack	1470	SCS215a	20090522.124442	20090522.130504	8	0.013327	60	10	60-180	60	157	GapExp	0	174	2	96	1	target	1	294	853	125083	13.328	13.293	13.363
ProbeTrack09	13	ProbeTrack	1470	SCS215a	20090522.124442	20090522.130511	8	0.013327	60	10	60-180	60	139	GapExp	0	175	2	3	1	target	1	360	820	125903	13.328	13.292	13.363
ProbeTrack09	13	ProbeTrack	1470	SCS215a	20090522.124442	20090522.130517	8	0.013327	60	10	60-180	60	79	GapExp	0	176	2	3	1	distractor	0	494	-1000	124903	13.328	13.293	13.363
ProbeTrack09	13	ProbeTrack	1470	SCS215a	20090522.124442	20090522.130523	8	0.013327	60	10	60-180	60	101	GapExp	0	177	2	6	0	distractor	1	427	787	125690	13.328	13.293	13.363
ProbeTrack09	13	ProbeTrack	1470	SCS215a	20090522.124442	20090522.130528	8	0.013327	60	10	60-180	60	152	GapExp	0	178	2	3	0	distractor	1	440	780	126470	13.328	13.291	13.364
ProbeTrack09	13	ProbeTrack	1470	SCS215a	20090522.124442	20090522.130535	8	0.013327	60	10	60-180	60	166	GapExp	0	179	2	0	0	distractor	1	374	813	127283	13.328	13.292	13.364
ProbeTrack09	13	ProbeTrack	1470	SCS215a	20090522.124442	20090522.130541	8	0.013327	60	10	60-180	60	118	GapExp	0	180	2	96	0	distractor	1	427	787	128070	13.328	13.292	13.363
ProbeTrack09	13	ProbeTrack	1470	SCS215a	20090522.124442	20090522.130551	8	0.013327	60	10	60-180	60	67	GapExp	0	181	2	3	1	target	1	374	813	128883	13.328	13.293	13.363
ProbeTrack09	13	ProbeTrack	1470	SCS215a	20090522.124442	20090522.130556	8	0.013327	60	10	60-180	60	87	GapExp	0	182	2	6	1	target	1	374	813	129696	13.328	13.293	13.366
ProbeTrack09	13	ProbeTrack	1470	SCS215a	20090522.124442	20090522.130601	8	0.013327	60	10	60-180	60	78	GapExp	0	183	2	3	0	distractor	1	427	787	130483	13.327	13.293	13.363
ProbeTrack09	13	ProbeTrack	1470	SCS215a	20090522.124442	20090522.130607	8	0.013327	60	10	60-180	60	129	GapExp	0	184	2	0	1	target	1	334	833	131316	13.328	13.293	13.364
ProbeTrack09	13	ProbeTrack	1470	SCS215a	20090522.124442	20090522.130613	8	0.013327	60	10	60-180	60	88	GapExp	0	185	2	6	1	target	1	294	853	132169	13.328	13.293	13.363
ProbeTrack09	13	ProbeTrack	1470	SCS215a	20090522.124442	20090522.130618	8	0.013327	60	10	60-180	60	145	GapExp	0	186	2	96	1	target	1	600	700	132869	13.328	13.293	13.363
ProbeTrack09	13	ProbeTrack	1470	SCS215a	20090522.124442	20090522.130626	8	0.013327	60	10	60-180	60	128	GapExp	0	187	2	6	0	distractor	1	494	753	133622	13.328	13.293	13.363
ProbeTrack09	13	ProbeTrack	1470	SCS215a	20090522.124442	20090522.130632	8	0.013327	60	10	60-180	60	164	GapExp	0	188	2	0	1	distractor	0	534	-1000	132622	13.328	13.292	13.363
ProbeTrack09	13	ProbeTrack	1470	SCS215a	20090522.124442	20090522.130638	8	0.013327	60	10	60-180	60	155	GapExp	0	189	2	3	1	target	1	507	747	133369	13.328	13.293	13.363
ProbeTrack09	13	ProbeTrack	1470	SCS215a	20090522.124442	20090522.130645	8	0.013327	60	10	60-180	60	68	GapExp	0	190	2	96	1	target	1	347	827	134196	13.328	13.293	13.363
ProbeTrack09	13	ProbeTrack	1470	SCS215a	20090522.124442	20090522.130651	8	0.013327	60	10	60-180	60	97	GapExp	0	191	2	96	0	distractor	1	507	747	134943	13.328	13.293	13.367
ProbeTrack09	13	ProbeTrack	1470	SCS215a	20090522.124442	20090522.130658	8	0.013327	60	10	60-180	60	84	GapExp	0	192	2	96	1	target	1	440	780	135723	13.328	13.219	13.403
ProbeTrack09	13	ProbeTrack	1470	SCS215a	20090522.124442	20090522.130705	8	0.013327	60	10	60-180	60	115	GapExp	0	193	2	96	0	distractor	1	454	773	136496	13.328	13.293	13.362
ProbeTrack09	13	ProbeTrack	1470	SCS215a	20090522.124442	20090522.130712	8	0.013327	60	10	60-180	60	151	GapExp	0	194	2	6	0	distractor	1	494	753	137249	13.328	13.293	13.363
ProbeTrack09	13	ProbeTrack	1470	SCS215a	20090522.124442	20090522.130719	8	0.013327	60	10	60-180	60	74	GapExp	0	195	2	96	0	distractor	1	494	753	138002	13.328	13.293	13.363
ProbeTrack09	13	ProbeTrack	1470	SCS215a	20090522.124442	20090522.130726	8	0.013327	60	10	60-180	60	114	GapExp	0	196	2	0	1	target	1	467	767	138769	13.327	13.293	13.363
ProbeTrack09	13	ProbeTrack	1470	SCS215a	20090522.124442	20090522.130732	8	0.013327	60	10	60-180	60	123	GapExp	0	197	2	96	0	target	0	454	-1000	137769	13.328	13.293	13.363
ProbeTrack09	13	ProbeTrack	1470	SCS215a	20090522.124442	20090522.130739	8	0.013327	60	10	60-180	60	103	GapExp	0	198	2	96	1	target	1	280	860	138629	13.328	13.291	13.367
ProbeTrack09	13	ProbeTrack	1470	SCS215a	20090522.124442	20090522.130746	8	0.013327	60	10	60-180	60	62	GapExp	0	199	2	96	1	distractor	0	440	-1000	137629	13.328	13.293	13.363
ProbeTrack09	13	ProbeTrack	1470	SCS215a	20090522.124442	20090522.130753	8	0.013327	60	10	60-180	60	127	GapExp	0	200	2	96	0	distractor	1	400	800	138429	13.328	13.289	13.363
