exp	sub	code	rev	comp	runtime	trialtime	nstim	refreshdur	cuedur	gapdur	gapOnsetRange	durPostProbe	gapOnsetTime	blocktype	prac	trial	ntargets	soa	probeTarget	resp	acc	rt	pts	tpts	meanFrameDur	minFrameDur	maxFrameDur
ProbeTrack09	5	ProbeTrack	1470	SCS215a	20090501.124842	20090501.124851	8	0.013327	60	0	60-180	60	138	NoGap	1	1	2	6	1	target	1	2759	0	0	13.328	13.293	13.363
ProbeTrack09	5	ProbeTrack	1470	SCS215a	20090501.124842	20090501.124926	8	0.013327	60	0	60-180	60	178	NoGap	1	2	2	0	0	distractor	1	973	514	514	13.328	13.293	13.363
ProbeTrack09	5	ProbeTrack	1470	SCS215a	20090501.124842	20090501.124940	8	0.013327	60	0	60-180	60	114	NoGap	1	3	2	96	0	distractor	1	2386	0	514	13.328	13.292	13.363
ProbeTrack09	5	ProbeTrack	1470	SCS215a	20090501.124842	20090501.124952	8	0.013327	60	0	60-180	60	105	NoGap	1	4	2	6	0	distractor	1	947	527	1041	13.328	13.293	13.363
ProbeTrack09	5	ProbeTrack	1470	SCS215a	20090501.124842	20090501.124959	8	0.013327	60	0	60-180	60	169	NoGap	1	5	2	96	0	distractor	1	733	634	1675	13.328	13.293	13.363
ProbeTrack09	5	ProbeTrack	1470	SCS215a	20090501.124842	20090501.125010	8	0.013327	60	0	60-180	60	91	NoGap	1	6	2	96	1	target	1	800	600	2275	13.328	13.293	13.367
ProbeTrack09	5	ProbeTrack	1470	SCS215a	20090501.124842	20090501.125018	8	0.013327	60	0	60-180	60	109	NoGap	1	7	2	0	1	target	1	880	560	2835	13.328	13.292	13.363
ProbeTrack09	5	ProbeTrack	1470	SCS215a	20090501.124842	20090501.125027	8	0.013327	60	0	60-180	60	79	NoGap	1	8	2	3	0	distractor	1	707	647	3482	13.328	13.293	13.363
ProbeTrack09	5	ProbeTrack	1470	SCS215a	20090501.124842	20090501.125033	8	0.013327	60	0	60-180	60	94	NoGap	1	9	2	6	1	distractor	0	747	-1000	2482	13.328	13.292	13.363
ProbeTrack09	5	ProbeTrack	1470	SCS215a	20090501.124842	20090501.125039	8	0.013327	60	0	60-180	60	157	NoGap	1	10	2	0	1	target	1	1000	500	2982	13.328	13.293	13.363
ProbeTrack09	5	ProbeTrack	1470	SCS215a	20090501.124842	20090501.125050	8	0.013327	60	0	60-180	60	176	NoGap	1	11	2	0	0	distractor	1	827	587	3569	13.328	13.293	13.363
ProbeTrack09	5	ProbeTrack	1470	SCS215a	20090501.124842	20090501.125059	8	0.013327	60	0	60-180	60	87	NoGap	1	12	2	0	0	distractor	1	1013	494	4063	13.328	13.293	13.363
ProbeTrack09	5	ProbeTrack	1470	SCS215a	20090501.124842	20090501.125106	8	0.013327	60	0	60-180	60	69	NoGap	1	13	2	6	0	distractor	1	880	560	4623	13.328	13.293	13.363
ProbeTrack09	5	ProbeTrack	1470	SCS215a	20090501.124842	20090501.125114	8	0.013327	60	0	60-180	60	139	NoGap	1	14	2	6	1	target	1	547	727	5350	13.328	13.293	13.364
ProbeTrack09	5	ProbeTrack	1470	SCS215a	20090501.124842	20090501.125121	8	0.013327	60	0	60-180	60	63	NoGap	1	15	2	0	1	target	1	680	660	6010	13.327	13.293	13.362
ProbeTrack09	5	ProbeTrack	1470	SCS215a	20090501.124842	20090501.125128	8	0.013327	60	0	60-180	60	97	NoGap	1	16	2	6	0	distractor	1	653	674	6684	13.328	13.292	13.363
ProbeTrack09	5	ProbeTrack	1470	SCS215a	20090501.124842	20090501.125135	8	0.013327	60	0	60-180	60	76	NoGap	1	17	2	96	0	distractor	1	653	674	7358	13.328	13.293	13.363
ProbeTrack09	5	ProbeTrack	1470	SCS215a	20090501.124842	20090501.125143	8	0.013327	60	0	60-180	60	179	NoGap	1	18	2	3	1	target	1	467	767	8125	13.328	13.293	13.363
ProbeTrack09	5	ProbeTrack	1470	SCS215a	20090501.124842	20090501.125150	8	0.013327	60	0	60-180	60	159	NoGap	1	19	2	96	1	target	1	467	767	8892	13.328	13.293	13.363
ProbeTrack09	5	ProbeTrack	1470	SCS215a	20090501.124842	20090501.125159	8	0.013327	60	0	60-180	60	140	NoGap	1	20	2	3	1	target	1	560	720	9612	13.328	13.293	13.363
ProbeTrack09	5	ProbeTrack	1470	SCS215a	20090501.124842	20090501.125206	8	0.013327	60	0	60-180	60	148	NoGap	1	21	2	0	0	distractor	1	680	660	10272	13.328	13.293	13.363
ProbeTrack09	5	ProbeTrack	1470	SCS215a	20090501.124842	20090501.125213	8	0.013327	60	0	60-180	60	178	NoGap	1	22	2	6	0	distractor	1	600	700	10972	13.328	13.292	13.364
ProbeTrack09	5	ProbeTrack	1470	SCS215a	20090501.124842	20090501.125221	8	0.013327	60	0	60-180	60	73	NoGap	1	23	2	0	0	distractor	1	600	700	11672	13.328	13.292	13.363
ProbeTrack09	5	ProbeTrack	1470	SCS215a	20090501.124842	20090501.125227	8	0.013327	60	0	60-180	60	125	NoGap	1	24	2	3	1	target	1	520	740	12412	13.327	13.292	13.363
ProbeTrack09	5	ProbeTrack	1470	SCS215a	20090501.124842	20090501.125234	8	0.013327	60	0	60-180	60	175	NoGap	1	25	2	0	0	distractor	1	693	654	13066	13.328	13.293	13.363
ProbeTrack09	5	ProbeTrack	1470	SCS215a	20090501.124842	20090501.125242	8	0.013327	60	0	60-180	60	98	NoGap	1	26	2	96	0	distractor	1	640	680	13746	13.328	13.292	13.363
ProbeTrack09	5	ProbeTrack	1470	SCS215a	20090501.124842	20090501.125249	8	0.013327	60	0	60-180	60	118	NoGap	1	27	2	96	1	target	1	627	687	14433	13.328	13.293	13.364
ProbeTrack09	5	ProbeTrack	1470	SCS215a	20090501.124842	20090501.125258	8	0.013327	60	0	60-180	60	100	NoGap	1	28	2	96	0	distractor	1	680	660	15093	13.328	13.292	13.363
ProbeTrack09	5	ProbeTrack	1470	SCS215a	20090501.124842	20090501.125306	8	0.013327	60	0	60-180	60	74	NoGap	1	29	2	6	1	target	1	587	707	15800	13.328	13.293	13.363
ProbeTrack09	5	ProbeTrack	1470	SCS215a	20090501.124842	20090501.125312	8	0.013327	60	0	60-180	60	82	NoGap	1	30	2	0	1	target	1	613	694	16494	13.327	13.293	13.363
ProbeTrack09	5	ProbeTrack	1470	SCS215a	20090501.124842	20090501.125318	8	0.013327	60	0	60-180	60	133	NoGap	1	31	2	3	0	distractor	1	600	700	17194	13.328	13.293	13.363
ProbeTrack09	5	ProbeTrack	1470	SCS215a	20090501.124842	20090501.125326	8	0.013327	60	0	60-180	60	98	NoGap	1	32	2	96	1	target	1	520	740	17934	13.328	13.293	13.363
ProbeTrack09	5	ProbeTrack	1470	SCS215a	20090501.124842	20090501.125333	8	0.013327	60	0	60-180	60	166	NoGap	1	33	2	96	0	distractor	1	840	580	18514	13.328	13.293	13.363
ProbeTrack09	5	ProbeTrack	1470	SCS215a	20090501.124842	20090501.125342	8	0.013327	60	0	60-180	60	101	NoGap	1	34	2	6	1	target	1	560	720	19234	13.328	13.293	13.363
ProbeTrack09	5	ProbeTrack	1470	SCS215a	20090501.124842	20090501.125350	8	0.013327	60	0	60-180	60	70	NoGap	1	35	2	6	0	distractor	1	640	680	19914	13.328	13.293	13.363
ProbeTrack09	5	ProbeTrack	1470	SCS215a	20090501.124842	20090501.125357	8	0.013327	60	0	60-180	60	139	NoGap	1	36	2	6	1	target	1	387	807	20721	13.327	13.293	13.363
ProbeTrack09	5	ProbeTrack	1470	SCS215a	20090501.124842	20090501.125404	8	0.013327	60	0	60-180	60	125	NoGap	1	37	2	0	1	target	1	494	753	21474	13.328	13.293	13.363
ProbeTrack09	5	ProbeTrack	1470	SCS215a	20090501.124842	20090501.125411	8	0.013327	60	0	60-180	60	110	NoGap	1	38	2	96	1	target	1	547	727	22201	13.328	13.293	13.363
ProbeTrack09	5	ProbeTrack	1470	SCS215a	20090501.124842	20090501.125419	8	0.013327	60	0	60-180	60	68	NoGap	1	39	2	3	0	distractor	1	707	647	22848	13.328	13.292	13.363
ProbeTrack09	5	ProbeTrack	1470	SCS215a	20090501.124842	20090501.125426	8	0.013327	60	0	60-180	60	154	NoGap	1	40	2	0	1	target	1	427	787	23635	13.328	13.293	13.363
ProbeTrack09	5	ProbeTrack	1470	SCS215a	20090501.124842	20090501.125434	8	0.013327	60	0	60-180	60	155	NoGap	1	41	2	96	1	target	1	600	700	24335	13.328	13.293	13.363
ProbeTrack09	5	ProbeTrack	1470	SCS215a	20090501.124842	20090501.125442	8	0.013327	60	0	60-180	60	160	NoGap	1	42	2	3	1	target	1	560	720	25055	13.328	13.293	13.366
ProbeTrack09	5	ProbeTrack	1470	SCS215a	20090501.124842	20090501.125449	8	0.013327	60	0	60-180	60	111	NoGap	1	43	2	3	0	distractor	1	733	634	25689	13.328	13.292	13.363
ProbeTrack09	5	ProbeTrack	1470	SCS215a	20090501.124842	20090501.125457	8	0.013327	60	0	60-180	60	174	NoGap	1	44	2	96	0	distractor	1	587	707	26396	13.328	13.293	13.363
ProbeTrack09	5	ProbeTrack	1470	SCS215a	20090501.124842	20090501.125505	8	0.013327	60	0	60-180	60	169	NoGap	1	45	2	3	0	distractor	1	547	727	27123	13.328	13.289	13.363
ProbeTrack09	5	ProbeTrack	1470	SCS215a	20090501.124842	20090501.125514	8	0.013327	60	0	60-180	60	179	NoGap	1	46	2	3	0	distractor	1	560	720	27843	13.328	13.292	13.363
ProbeTrack09	5	ProbeTrack	1470	SCS215a	20090501.124842	20090501.125522	8	0.013327	60	0	60-180	60	76	NoGap	1	47	2	3	1	target	1	480	760	28603	13.328	13.292	13.362
ProbeTrack09	5	ProbeTrack	1470	SCS215a	20090501.124842	20090501.125528	8	0.013327	60	0	60-180	60	150	NoGap	1	48	2	6	0	distractor	1	707	647	29250	13.328	13.293	13.363
ProbeTrack09	5	ProbeTrack	1470	SCS215a	20090501.124842	20090501.125536	8	0.013327	60	0	60-180	60	178	NoGap	1	49	2	6	1	target	1	787	607	29857	13.328	13.293	13.363
ProbeTrack09	5	ProbeTrack	1470	SCS215a	20090501.124842	20090501.125544	8	0.013327	60	0	60-180	60	73	NoGap	1	50	2	0	1	target	1	533	734	30591	13.328	13.293	13.363
ProbeTrack09	5	ProbeTrack	1470	SCS215a	20090501.125656	20090501.125709	8	0.013327	60	10	60-180	60	109	GapPrac	1	1	2	6	1	target	1	1400	300	30891	13.328	13.293	13.363
ProbeTrack09	5	ProbeTrack	1470	SCS215a	20090501.125656	20090501.125718	8	0.013327	60	10	60-180	60	158	GapPrac	1	2	2	96	1	target	1	813	594	31485	13.328	13.293	13.363
ProbeTrack09	5	ProbeTrack	1470	SCS215a	20090501.125656	20090501.125734	8	0.013327	60	10	60-180	60	67	GapPrac	1	3	2	6	0	distractor	1	1040	480	31965	13.327	13.293	13.363
ProbeTrack09	5	ProbeTrack	1470	SCS215a	20090501.125656	20090501.125741	8	0.013327	60	10	60-180	60	120	GapPrac	1	4	2	96	0	distractor	1	760	620	32585	13.328	13.293	13.363
ProbeTrack09	5	ProbeTrack	1470	SCS215a	20090501.125656	20090501.125749	8	0.013327	60	10	60-180	60	110	GapPrac	1	5	2	0	0	distractor	1	2146	0	32585	13.328	13.292	13.363
ProbeTrack09	5	ProbeTrack	1470	SCS215a	20090501.125656	20090501.125758	8	0.013327	60	10	60-180	60	121	GapPrac	1	6	2	3	1	target	1	947	527	33112	13.328	13.293	13.363
ProbeTrack09	5	ProbeTrack	1470	SCS215a	20090501.125656	20090501.125807	8	0.013327	60	10	60-180	60	125	GapPrac	1	7	2	6	1	target	1	1240	380	33492	13.328	13.291	13.363
ProbeTrack09	5	ProbeTrack	1470	SCS215a	20090501.125656	20090501.125815	8	0.013327	60	10	60-180	60	143	GapPrac	1	8	2	3	0	distractor	1	1186	407	33899	13.328	13.293	13.363
ProbeTrack09	5	ProbeTrack	1470	SCS215a	20090501.125656	20090501.125824	8	0.013327	60	10	60-180	60	174	GapPrac	1	9	2	0	0	distractor	1	1680	160	34059	13.328	13.292	13.365
ProbeTrack09	5	ProbeTrack	1470	SCS215a	20090501.125656	20090501.125833	8	0.013327	60	10	60-180	60	78	GapPrac	1	10	2	96	0	distractor	1	707	647	34706	13.328	13.293	13.363
ProbeTrack09	5	ProbeTrack	1470	SCS215a	20090501.125656	20090501.125842	8	0.013327	60	10	60-180	60	65	GapPrac	1	11	2	3	0	target	0	2266	-1000	33706	13.327	13.293	13.363
ProbeTrack09	5	ProbeTrack	1470	SCS215a	20090501.125656	20090501.125850	8	0.013327	60	10	60-180	60	64	GapPrac	1	12	2	6	0	distractor	1	1040	480	34186	13.328	13.293	13.363
ProbeTrack09	5	ProbeTrack	1470	SCS215a	20090501.125656	20090501.125858	8	0.013327	60	10	60-180	60	122	GapPrac	1	13	2	6	0	distractor	1	987	507	34693	13.328	13.293	13.363
ProbeTrack09	5	ProbeTrack	1470	SCS215a	20090501.125656	20090501.125905	8	0.013327	60	10	60-180	60	140	GapPrac	1	14	2	96	1	distractor	0	613	-1000	33693	13.328	13.293	13.363
ProbeTrack09	5	ProbeTrack	1470	SCS215a	20090501.125656	20090501.125915	8	0.013327	60	10	60-180	60	125	GapPrac	1	15	2	96	0	distractor	1	600	700	34393	13.328	13.292	13.363
ProbeTrack09	5	ProbeTrack	1470	SCS215a	20090501.125656	20090501.125925	8	0.013327	60	10	60-180	60	143	GapPrac	1	16	2	96	1	distractor	0	653	-1000	33393	13.328	13.292	13.363
ProbeTrack09	5	ProbeTrack	1470	SCS215a	20090501.125656	20090501.125934	8	0.013327	60	10	60-180	60	147	GapPrac	1	17	2	0	1	target	1	1040	480	33873	13.328	13.292	13.363
ProbeTrack09	5	ProbeTrack	1470	SCS215a	20090501.125656	20090501.125942	8	0.013327	60	10	60-180	60	91	GapPrac	1	18	2	3	1	target	1	1173	414	34287	13.328	13.290	13.363
ProbeTrack09	5	ProbeTrack	1470	SCS215a	20090501.125656	20090501.125951	8	0.013327	60	10	60-180	60	88	GapPrac	1	19	2	0	1	target	1	2239	0	34287	13.328	13.289	13.362
ProbeTrack09	5	ProbeTrack	1470	SCS215a	20090501.125656	20090501.125959	8	0.013327	60	10	60-180	60	105	GapPrac	1	20	2	6	1	target	1	720	640	34927	13.328	13.292	13.363
ProbeTrack09	5	ProbeTrack	1470	SCS215a	20090501.130118	20090501.130125	8	0.013327	60	10	60-180	60	111	GapExp	1	1	2	3	0	distractor	1	1840	80	35007	13.328	13.293	13.363
ProbeTrack09	5	ProbeTrack	1470	SCS215a	20090501.130118	20090501.130135	8	0.013327	60	10	60-180	60	129	GapExp	1	2	2	0	0	distractor	1	1080	460	35467	13.328	13.290	13.366
ProbeTrack09	5	ProbeTrack	1470	SCS215a	20090501.130118	20090501.130144	8	0.013327	60	10	60-180	60	63	GapExp	1	3	2	6	0	distractor	1	947	527	35994	13.327	13.293	13.363
ProbeTrack09	5	ProbeTrack	1470	SCS215a	20090501.130118	20090501.130151	8	0.013327	60	10	60-180	60	151	GapExp	1	4	2	3	1	target	1	880	560	36554	13.328	13.293	13.363
ProbeTrack09	5	ProbeTrack	1470	SCS215a	20090501.130118	20090501.130159	8	0.013327	60	10	60-180	60	86	GapExp	1	5	2	6	1	target	1	1386	307	36861	13.328	13.292	13.364
ProbeTrack09	5	ProbeTrack	1470	SCS215a	20090501.130118	20090501.130207	8	0.013327	60	10	60-180	60	69	GapExp	1	6	2	96	0	distractor	1	627	687	37548	13.328	13.293	13.364
ProbeTrack09	5	ProbeTrack	1470	SCS215a	20090501.130118	20090501.130215	8	0.013327	60	10	60-180	60	94	GapExp	1	7	2	96	1	distractor	0	680	-1000	36548	13.328	13.292	13.363
ProbeTrack09	5	ProbeTrack	1470	SCS215a	20090501.130118	20090501.130225	8	0.013327	60	10	60-180	60	94	GapExp	1	8	2	0	1	target	1	760	620	37168	13.328	13.293	13.363
ProbeTrack09	5	ProbeTrack	1470	SCS215a	20090501.130118	20090501.130233	8	0.013327	60	10	60-180	60	134	GapExp	0	9	2	3	1	target	1	760	620	37788	13.328	13.293	13.365
ProbeTrack09	5	ProbeTrack	1470	SCS215a	20090501.130118	20090501.130241	8	0.013327	60	10	60-180	60	89	GapExp	0	10	2	3	1	target	1	707	647	38435	13.328	13.293	13.363
ProbeTrack09	5	ProbeTrack	1470	SCS215a	20090501.130118	20090501.130248	8	0.013327	60	10	60-180	60	65	GapExp	0	11	2	6	1	target	1	547	727	39162	13.328	13.293	13.363
ProbeTrack09	5	ProbeTrack	1470	SCS215a	20090501.130118	20090501.130257	8	0.013327	60	10	60-180	60	98	GapExp	0	12	2	0	1	target	1	587	707	39869	13.327	13.293	13.363
ProbeTrack09	5	ProbeTrack	1470	SCS215a	20090501.130118	20090501.130305	8	0.013327	60	10	60-180	60	83	GapExp	0	13	2	3	0	distractor	1	707	647	40516	13.327	13.293	13.363
ProbeTrack09	5	ProbeTrack	1470	SCS215a	20090501.130118	20090501.130312	8	0.013327	60	10	60-180	60	176	GapExp	0	14	2	0	1	target	1	707	647	41163	13.328	13.292	13.363
ProbeTrack09	5	ProbeTrack	1470	SCS215a	20090501.130118	20090501.130320	8	0.013327	60	10	60-180	60	116	GapExp	0	15	2	96	1	target	1	507	747	41910	13.328	13.291	13.363
ProbeTrack09	5	ProbeTrack	1470	SCS215a	20090501.130118	20090501.130329	8	0.013327	60	10	60-180	60	114	GapExp	0	16	2	3	1	target	1	547	727	42637	13.328	13.292	13.364
ProbeTrack09	5	ProbeTrack	1470	SCS215a	20090501.130118	20090501.130337	8	0.013327	60	10	60-180	60	141	GapExp	0	17	2	6	1	target	1	613	694	43331	13.328	13.289	13.363
ProbeTrack09	5	ProbeTrack	1470	SCS215a	20090501.130118	20090501.130344	8	0.013327	60	10	60-180	60	134	GapExp	0	18	2	0	0	distractor	1	1120	440	43771	13.328	13.288	13.363
ProbeTrack09	5	ProbeTrack	1470	SCS215a	20090501.130118	20090501.130352	8	0.013327	60	10	60-180	60	175	GapExp	0	19	2	0	1	target	1	547	727	44498	13.328	13.293	13.363
ProbeTrack09	5	ProbeTrack	1470	SCS215a	20090501.130118	20090501.130400	8	0.013327	60	10	60-180	60	127	GapExp	0	20	2	6	0	distractor	1	653	674	45172	13.328	13.293	13.364
ProbeTrack09	5	ProbeTrack	1470	SCS215a	20090501.130118	20090501.130407	8	0.013327	60	10	60-180	60	70	GapExp	0	21	2	96	0	distractor	1	613	694	45866	13.328	13.293	13.363
ProbeTrack09	5	ProbeTrack	1470	SCS215a	20090501.130118	20090501.130414	8	0.013327	60	10	60-180	60	68	GapExp	0	22	2	96	0	distractor	1	587	707	46573	13.328	13.293	13.363
ProbeTrack09	5	ProbeTrack	1470	SCS215a	20090501.130118	20090501.130421	8	0.013327	60	10	60-180	60	157	GapExp	0	23	2	6	0	distractor	1	987	507	47080	13.328	13.290	13.363
ProbeTrack09	5	ProbeTrack	1470	SCS215a	20090501.130118	20090501.130429	8	0.013327	60	10	60-180	60	62	GapExp	0	24	2	96	0	target	0	547	-1000	46080	13.328	13.291	13.363
ProbeTrack09	5	ProbeTrack	1470	SCS215a	20090501.130118	20090501.130437	8	0.013327	60	10	60-180	60	110	GapExp	0	25	2	96	0	distractor	1	667	667	46747	13.328	13.267	13.388
ProbeTrack09	5	ProbeTrack	1470	SCS215a	20090501.130118	20090501.130452	8	0.013327	60	10	60-180	60	86	GapExp	0	26	2	6	0	distractor	1	693	654	47401	13.328	13.293	13.363
ProbeTrack09	5	ProbeTrack	1470	SCS215a	20090501.130118	20090501.130459	8	0.013327	60	10	60-180	60	163	GapExp	0	27	2	96	0	distractor	1	560	720	48121	13.328	13.293	13.363
ProbeTrack09	5	ProbeTrack	1470	SCS215a	20090501.130118	20090501.130507	8	0.013327	60	10	60-180	60	113	GapExp	0	28	2	96	0	distractor	1	547	727	48848	13.328	13.289	13.365
ProbeTrack09	5	ProbeTrack	1470	SCS215a	20090501.130118	20090501.130515	8	0.013327	60	10	60-180	60	88	GapExp	0	29	2	0	1	target	1	520	740	49588	13.327	13.293	13.362
ProbeTrack09	5	ProbeTrack	1470	SCS215a	20090501.130118	20090501.130522	8	0.013327	60	10	60-180	60	96	GapExp	0	30	2	6	1	target	1	547	727	50315	13.328	13.293	13.363
ProbeTrack09	5	ProbeTrack	1470	SCS215a	20090501.130118	20090501.130529	8	0.013327	60	10	60-180	60	97	GapExp	0	31	2	0	1	target	1	534	733	51048	13.327	13.293	13.366
ProbeTrack09	5	ProbeTrack	1470	SCS215a	20090501.130118	20090501.130535	8	0.013327	60	10	60-180	60	153	GapExp	0	32	2	96	0	distractor	1	547	727	51775	13.328	13.292	13.367
ProbeTrack09	5	ProbeTrack	1470	SCS215a	20090501.130118	20090501.130544	8	0.013327	60	10	60-180	60	64	GapExp	0	33	2	96	0	distractor	1	547	727	52502	13.328	13.292	13.363
ProbeTrack09	5	ProbeTrack	1470	SCS215a	20090501.130118	20090501.130551	8	0.013327	60	10	60-180	60	162	GapExp	0	34	2	3	1	target	1	560	720	53222	13.328	13.292	13.363
ProbeTrack09	5	ProbeTrack	1470	SCS215a	20090501.130118	20090501.130559	8	0.013327	60	10	60-180	60	164	GapExp	0	35	2	0	1	target	1	627	687	53909	13.328	13.292	13.363
ProbeTrack09	5	ProbeTrack	1470	SCS215a	20090501.130118	20090501.130606	8	0.013327	60	10	60-180	60	127	GapExp	0	36	2	0	0	distractor	1	1173	414	54323	13.328	13.293	13.363
ProbeTrack09	5	ProbeTrack	1470	SCS215a	20090501.130118	20090501.130614	8	0.013327	60	10	60-180	60	148	GapExp	0	37	2	6	1	target	1	520	740	55063	13.328	13.293	13.363
ProbeTrack09	5	ProbeTrack	1470	SCS215a	20090501.130118	20090501.130621	8	0.013327	60	10	60-180	60	177	GapExp	0	38	2	96	1	target	1	427	787	55850	13.328	13.293	13.363
ProbeTrack09	5	ProbeTrack	1470	SCS215a	20090501.130118	20090501.130630	8	0.013327	60	10	60-180	60	135	GapExp	0	39	2	96	1	target	1	534	733	56583	13.328	13.293	13.363
ProbeTrack09	5	ProbeTrack	1470	SCS215a	20090501.130118	20090501.130639	8	0.013327	60	10	60-180	60	111	GapExp	0	40	2	6	0	distractor	1	654	673	57256	13.328	13.292	13.363
ProbeTrack09	5	ProbeTrack	1470	SCS215a	20090501.130118	20090501.130645	8	0.013327	60	10	60-180	60	151	GapExp	0	41	2	6	1	target	1	547	727	57983	13.328	13.293	13.363
ProbeTrack09	5	ProbeTrack	1470	SCS215a	20090501.130118	20090501.130652	8	0.013327	60	10	60-180	60	110	GapExp	0	42	2	96	0	distractor	1	600	700	58683	13.328	13.292	13.363
ProbeTrack09	5	ProbeTrack	1470	SCS215a	20090501.130118	20090501.130700	8	0.013327	60	10	60-180	60	123	GapExp	0	43	2	0	0	distractor	1	760	620	59303	13.328	13.293	13.363
ProbeTrack09	5	ProbeTrack	1470	SCS215a	20090501.130118	20090501.130708	8	0.013327	60	10	60-180	60	81	GapExp	0	44	2	3	1	target	1	693	654	59957	13.327	13.293	13.363
ProbeTrack09	5	ProbeTrack	1470	SCS215a	20090501.130118	20090501.130715	8	0.013327	60	10	60-180	60	138	GapExp	0	45	2	0	1	target	1	627	687	60644	13.328	13.292	13.363
ProbeTrack09	5	ProbeTrack	1470	SCS215a	20090501.130118	20090501.130722	8	0.013327	60	10	60-180	60	66	GapExp	0	46	2	6	1	target	1	867	567	61211	13.327	13.292	13.363
ProbeTrack09	5	ProbeTrack	1470	SCS215a	20090501.130118	20090501.130728	8	0.013327	60	10	60-180	60	75	GapExp	0	47	2	96	0	distractor	1	574	713	61924	13.328	13.292	13.363
ProbeTrack09	5	ProbeTrack	1470	SCS215a	20090501.130118	20090501.130735	8	0.013327	60	10	60-180	60	169	GapExp	0	48	2	0	0	distractor	1	600	700	62624	13.328	13.292	13.363
ProbeTrack09	5	ProbeTrack	1470	SCS215a	20090501.130118	20090501.130743	8	0.013327	60	10	60-180	60	162	GapExp	0	49	2	3	0	distractor	1	733	634	63258	13.328	13.292	13.363
ProbeTrack09	5	ProbeTrack	1470	SCS215a	20090501.130118	20090501.130750	8	0.013327	60	10	60-180	60	147	GapExp	0	50	2	6	0	distractor	1	693	654	63912	13.328	13.293	13.363
ProbeTrack09	5	ProbeTrack	1470	SCS215a	20090501.130118	20090501.130757	8	0.013327	60	10	60-180	60	140	GapExp	0	51	2	3	1	target	1	1386	307	64219	13.328	13.293	13.363
ProbeTrack09	5	ProbeTrack	1470	SCS215a	20090501.130118	20090501.130817	8	0.013327	60	10	60-180	60	135	GapExp	0	52	2	6	0	distractor	1	693	654	64873	13.328	13.292	13.366
ProbeTrack09	5	ProbeTrack	1470	SCS215a	20090501.130118	20090501.130824	8	0.013327	60	10	60-180	60	69	GapExp	0	53	2	0	1	target	1	587	707	65580	13.328	13.293	13.363
ProbeTrack09	5	ProbeTrack	1470	SCS215a	20090501.130118	20090501.130830	8	0.013327	60	10	60-180	60	136	GapExp	0	54	2	96	1	target	1	467	767	66347	13.328	13.293	13.369
ProbeTrack09	5	ProbeTrack	1470	SCS215a	20090501.130118	20090501.130839	8	0.013327	60	10	60-180	60	90	GapExp	0	55	2	3	0	distractor	1	947	527	66874	13.328	13.293	13.363
ProbeTrack09	5	ProbeTrack	1470	SCS215a	20090501.130118	20090501.130845	8	0.013327	60	10	60-180	60	136	GapExp	0	56	2	3	0	distractor	1	587	707	67581	13.328	13.293	13.363
ProbeTrack09	5	ProbeTrack	1470	SCS215a	20090501.130118	20090501.130853	8	0.013327	60	10	60-180	60	154	GapExp	0	57	2	96	0	distractor	1	494	753	68334	13.328	13.293	13.363
ProbeTrack09	5	ProbeTrack	1470	SCS215a	20090501.130118	20090501.130902	8	0.013327	60	10	60-180	60	147	GapExp	0	58	2	0	0	distractor	1	853	574	68908	13.328	13.293	13.363
ProbeTrack09	5	ProbeTrack	1470	SCS215a	20090501.130118	20090501.130909	8	0.013327	60	10	60-180	60	172	GapExp	0	59	2	3	1	target	1	507	747	69655	13.328	13.292	13.364
ProbeTrack09	5	ProbeTrack	1470	SCS215a	20090501.130118	20090501.130917	8	0.013327	60	10	60-180	60	79	GapExp	0	60	2	6	1	target	1	494	753	70408	13.328	13.293	13.363
ProbeTrack09	5	ProbeTrack	1470	SCS215a	20090501.130118	20090501.130923	8	0.013327	60	10	60-180	60	129	GapExp	0	61	2	6	0	distractor	1	600	700	71108	13.328	13.293	13.363
ProbeTrack09	5	ProbeTrack	1470	SCS215a	20090501.130118	20090501.130930	8	0.013327	60	10	60-180	60	127	GapExp	0	62	2	3	1	target	1	467	767	71875	13.327	13.293	13.363
ProbeTrack09	5	ProbeTrack	1470	SCS215a	20090501.130118	20090501.130937	8	0.013327	60	10	60-180	60	139	GapExp	0	63	2	96	0	distractor	1	507	747	72622	13.328	13.293	13.363
ProbeTrack09	5	ProbeTrack	1470	SCS215a	20090501.130118	20090501.130945	8	0.013327	60	10	60-180	60	122	GapExp	0	64	2	6	0	distractor	1	693	654	73276	13.328	13.293	13.364
ProbeTrack09	5	ProbeTrack	1470	SCS215a	20090501.130118	20090501.130952	8	0.013327	60	10	60-180	60	162	GapExp	0	65	2	0	1	target	1	560	720	73996	13.328	13.292	13.363
ProbeTrack09	5	ProbeTrack	1470	SCS215a	20090501.130118	20090501.131000	8	0.013327	60	10	60-180	60	100	GapExp	0	66	2	3	0	distractor	1	573	714	74710	13.327	13.289	13.366
ProbeTrack09	5	ProbeTrack	1470	SCS215a	20090501.130118	20090501.131009	8	0.013327	60	10	60-180	60	80	GapExp	0	67	2	3	1	target	1	494	753	75463	13.327	13.293	13.363
ProbeTrack09	5	ProbeTrack	1470	SCS215a	20090501.130118	20090501.131015	8	0.013327	60	10	60-180	60	146	GapExp	0	68	2	3	0	distractor	1	560	720	76183	13.328	13.292	13.363
ProbeTrack09	5	ProbeTrack	1470	SCS215a	20090501.130118	20090501.131022	8	0.013327	60	10	60-180	60	140	GapExp	0	69	2	6	1	target	1	440	780	76963	13.328	13.293	13.363
ProbeTrack09	5	ProbeTrack	1470	SCS215a	20090501.130118	20090501.131029	8	0.013327	60	10	60-180	60	169	GapExp	0	70	2	0	1	target	1	494	753	77716	13.328	13.293	13.363
ProbeTrack09	5	ProbeTrack	1470	SCS215a	20090501.130118	20090501.131036	8	0.013327	60	10	60-180	60	150	GapExp	0	71	2	0	1	distractor	0	1480	-1000	76716	13.328	13.292	13.363
ProbeTrack09	5	ProbeTrack	1470	SCS215a	20090501.130118	20090501.131045	8	0.013327	60	10	60-180	60	130	GapExp	0	72	2	0	1	target	1	747	627	77343	13.328	13.293	13.363
ProbeTrack09	5	ProbeTrack	1470	SCS215a	20090501.130118	20090501.131053	8	0.013327	60	10	60-180	60	79	GapExp	0	73	2	0	1	target	1	520	740	78083	13.328	13.293	13.363
ProbeTrack09	5	ProbeTrack	1470	SCS215a	20090501.130118	20090501.131100	8	0.013327	60	10	60-180	60	124	GapExp	0	74	2	96	1	target	1	587	707	78790	13.328	13.292	13.364
ProbeTrack09	5	ProbeTrack	1470	SCS215a	20090501.130118	20090501.131108	8	0.013327	60	10	60-180	60	82	GapExp	0	75	2	0	0	distractor	1	973	514	79304	13.327	13.293	13.363
ProbeTrack09	5	ProbeTrack	1470	SCS215a	20090501.130118	20090501.131115	8	0.013327	60	10	60-180	60	71	GapExp	0	76	2	96	1	target	1	507	747	80051	13.328	13.293	13.363
ProbeTrack09	5	ProbeTrack	1470	SCS215a	20090501.130118	20090501.131125	8	0.013327	60	10	60-180	60	77	GapExp	0	77	2	96	0	distractor	1	560	720	80771	13.328	13.293	13.363
ProbeTrack09	5	ProbeTrack	1470	SCS215a	20090501.130118	20090501.131132	8	0.013327	60	10	60-180	60	158	GapExp	0	78	2	6	1	target	1	400	800	81571	13.328	13.292	13.363
ProbeTrack09	5	ProbeTrack	1470	SCS215a	20090501.130118	20090501.131139	8	0.013327	60	10	60-180	60	95	GapExp	0	79	2	96	0	distractor	1	587	707	82278	13.328	13.292	13.363
ProbeTrack09	5	ProbeTrack	1470	SCS215a	20090501.130118	20090501.131147	8	0.013327	60	10	60-180	60	160	GapExp	0	80	2	96	0	distractor	1	494	753	83031	13.328	13.292	13.363
ProbeTrack09	5	ProbeTrack	1470	SCS215a	20090501.130118	20090501.131155	8	0.013327	60	10	60-180	60	82	GapExp	0	81	2	3	0	distractor	1	1240	380	83411	13.328	13.293	13.363
ProbeTrack09	5	ProbeTrack	1470	SCS215a	20090501.130118	20090501.131202	8	0.013327	60	10	60-180	60	67	GapExp	0	82	2	6	0	distractor	1	600	700	84111	13.328	13.293	13.362
ProbeTrack09	5	ProbeTrack	1470	SCS215a	20090501.130118	20090501.131208	8	0.013327	60	10	60-180	60	160	GapExp	0	83	2	3	1	target	1	720	640	84751	13.328	13.293	13.363
ProbeTrack09	5	ProbeTrack	1470	SCS215a	20090501.130118	20090501.131215	8	0.013327	60	10	60-180	60	97	GapExp	0	84	2	0	1	target	1	534	733	85484	13.328	13.289	13.363
ProbeTrack09	5	ProbeTrack	1470	SCS215a	20090501.130118	20090501.131221	8	0.013327	60	10	60-180	60	105	GapExp	0	85	2	96	0	distractor	1	547	727	86211	13.328	13.293	13.363
ProbeTrack09	5	ProbeTrack	1470	SCS215a	20090501.130118	20090501.131229	8	0.013327	60	10	60-180	60	150	GapExp	0	86	2	3	1	target	1	454	773	86984	13.328	13.293	13.363
ProbeTrack09	5	ProbeTrack	1470	SCS215a	20090501.130118	20090501.131236	8	0.013327	60	10	60-180	60	124	GapExp	0	87	2	3	1	target	1	520	740	87724	13.328	13.292	13.363
ProbeTrack09	5	ProbeTrack	1470	SCS215a	20090501.130118	20090501.131242	8	0.013327	60	10	60-180	60	153	GapExp	0	88	2	3	0	distractor	1	613	694	88418	13.328	13.293	13.364
ProbeTrack09	5	ProbeTrack	1470	SCS215a	20090501.130118	20090501.131249	8	0.013327	60	10	60-180	60	167	GapExp	0	89	2	96	1	target	1	480	760	89178	13.328	13.293	13.366
ProbeTrack09	5	ProbeTrack	1470	SCS215a	20090501.130118	20090501.131257	8	0.013327	60	10	60-180	60	133	GapExp	0	90	2	96	1	target	1	494	753	89931	13.328	13.293	13.363
ProbeTrack09	5	ProbeTrack	1470	SCS215a	20090501.130118	20090501.131305	8	0.013327	60	10	60-180	60	138	GapExp	0	91	2	0	0	distractor	1	600	700	90631	13.328	13.293	13.363
ProbeTrack09	5	ProbeTrack	1470	SCS215a	20090501.130118	20090501.131312	8	0.013327	60	10	60-180	60	105	GapExp	0	92	2	6	1	target	1	480	760	91391	13.328	13.293	13.363
ProbeTrack09	5	ProbeTrack	1470	SCS215a	20090501.130118	20090501.131318	8	0.013327	60	10	60-180	60	122	GapExp	0	93	2	96	0	distractor	1	560	720	92111	13.328	13.292	13.363
ProbeTrack09	5	ProbeTrack	1470	SCS215a	20090501.130118	20090501.131326	8	0.013327	60	10	60-180	60	141	GapExp	0	94	2	96	0	distractor	1	534	733	92844	13.328	13.293	13.363
ProbeTrack09	5	ProbeTrack	1470	SCS215a	20090501.130118	20090501.131334	8	0.013327	60	10	60-180	60	119	GapExp	0	95	2	6	1	target	1	507	747	93591	13.328	13.292	13.363
ProbeTrack09	5	ProbeTrack	1470	SCS215a	20090501.130118	20090501.131340	8	0.013327	60	10	60-180	60	65	GapExp	0	96	2	6	0	distractor	1	587	707	94298	13.328	13.289	13.363
ProbeTrack09	5	ProbeTrack	1470	SCS215a	20090501.130118	20090501.131346	8	0.013327	60	10	60-180	60	128	GapExp	0	97	2	96	1	target	1	440	780	95078	13.328	13.293	13.363
ProbeTrack09	5	ProbeTrack	1470	SCS215a	20090501.130118	20090501.131354	8	0.013327	60	10	60-180	60	91	GapExp	0	98	2	3	1	target	1	520	740	95818	13.327	13.293	13.363
ProbeTrack09	5	ProbeTrack	1470	SCS215a	20090501.130118	20090501.131400	8	0.013327	60	10	60-180	60	97	GapExp	0	99	2	6	1	target	1	494	753	96571	13.328	13.293	13.363
ProbeTrack09	5	ProbeTrack	1470	SCS215a	20090501.130118	20090501.131406	8	0.013327	60	10	60-180	60	92	GapExp	0	100	2	0	1	target	1	467	767	97338	13.328	13.293	13.363
ProbeTrack09	5	ProbeTrack	1470	SCS215a	20090501.130118	20090501.131412	8	0.013327	60	10	60-180	60	151	GapExp	0	101	2	6	1	target	1	494	753	98091	13.328	13.293	13.363
ProbeTrack09	5	ProbeTrack	1470	SCS215a	20090501.130118	20090501.131419	8	0.013327	60	10	60-180	60	112	GapExp	0	102	2	3	1	target	1	494	753	98844	13.328	13.293	13.363
ProbeTrack09	5	ProbeTrack	1470	SCS215a	20090501.130118	20090501.131426	8	0.013327	60	10	60-180	60	78	GapExp	0	103	2	3	1	target	1	720	640	99484	13.328	13.293	13.363
ProbeTrack09	5	ProbeTrack	1470	SCS215a	20090501.130118	20090501.131431	8	0.013327	60	10	60-180	60	157	GapExp	0	104	2	6	0	distractor	1	520	740	100224	13.328	13.293	13.363
ProbeTrack09	5	ProbeTrack	1470	SCS215a	20090501.130118	20090501.131438	8	0.013327	60	10	60-180	60	98	GapExp	0	105	2	96	1	target	1	653	674	100898	13.328	13.293	13.363
ProbeTrack09	5	ProbeTrack	1470	SCS215a	20090501.130118	20090501.131446	8	0.013327	60	10	60-180	60	105	GapExp	0	106	2	6	0	distractor	1	574	713	101611	13.328	13.293	13.363
ProbeTrack09	5	ProbeTrack	1470	SCS215a	20090501.130118	20090501.131452	8	0.013327	60	10	60-180	60	68	GapExp	0	107	2	0	0	distractor	1	1000	500	102111	13.328	13.293	13.363
ProbeTrack09	5	ProbeTrack	1470	SCS215a	20090501.130118	20090501.131458	8	0.013327	60	10	60-180	60	169	GapExp	0	108	2	6	0	distractor	1	534	733	102844	13.328	13.293	13.363
ProbeTrack09	5	ProbeTrack	1470	SCS215a	20090501.130118	20090501.131506	8	0.013327	60	10	60-180	60	164	GapExp	0	109	2	96	0	distractor	1	573	714	103558	13.328	13.293	13.368
ProbeTrack09	5	ProbeTrack	1470	SCS215a	20090501.130118	20090501.131514	8	0.013327	60	10	60-180	60	157	GapExp	0	110	2	96	0	distractor	1	534	733	104291	13.328	13.293	13.363
ProbeTrack09	5	ProbeTrack	1470	SCS215a	20090501.130118	20090501.131522	8	0.013327	60	10	60-180	60	86	GapExp	0	111	2	6	0	distractor	1	613	694	104985	13.328	13.293	13.363
ProbeTrack09	5	ProbeTrack	1470	SCS215a	20090501.130118	20090501.131528	8	0.013327	60	10	60-180	60	62	GapExp	0	112	2	6	0	distractor	1	560	720	105705	13.328	13.293	13.363
ProbeTrack09	5	ProbeTrack	1470	SCS215a	20090501.130118	20090501.131534	8	0.013327	60	10	60-180	60	141	GapExp	0	113	2	0	0	distractor	1	587	707	106412	13.328	13.293	13.363
ProbeTrack09	5	ProbeTrack	1470	SCS215a	20090501.130118	20090501.131541	8	0.013327	60	10	60-180	60	101	GapExp	0	114	2	3	1	distractor	0	827	-1000	105412	13.328	13.292	13.363
ProbeTrack09	5	ProbeTrack	1470	SCS215a	20090501.130118	20090501.131547	8	0.013327	60	10	60-180	60	117	GapExp	0	115	2	6	1	target	1	600	700	106112	13.328	13.293	13.363
ProbeTrack09	5	ProbeTrack	1470	SCS215a	20090501.130118	20090501.131555	8	0.013327	60	10	60-180	60	75	GapExp	0	116	2	0	1	target	1	547	727	106839	13.328	13.293	13.363
ProbeTrack09	5	ProbeTrack	1470	SCS215a	20090501.130118	20090501.131602	8	0.013327	60	10	60-180	60	148	GapExp	0	117	2	0	0	distractor	1	534	733	107572	13.328	13.293	13.363
ProbeTrack09	5	ProbeTrack	1470	SCS215a	20090501.130118	20090501.131609	8	0.013327	60	10	60-180	60	146	GapExp	0	118	2	96	0	distractor	1	520	740	108312	13.328	13.292	13.363
ProbeTrack09	5	ProbeTrack	1470	SCS215a	20090501.130118	20090501.131618	8	0.013327	60	10	60-180	60	135	GapExp	0	119	2	96	1	target	1	467	767	109079	13.328	13.293	13.363
ProbeTrack09	5	ProbeTrack	1470	SCS215a	20090501.130118	20090501.131626	8	0.013327	60	10	60-180	60	118	GapExp	0	120	2	0	0	distractor	1	693	654	109733	13.328	13.293	13.363
ProbeTrack09	5	ProbeTrack	1470	SCS215a	20090501.130118	20090501.131633	8	0.013327	60	10	60-180	60	85	GapExp	0	121	2	0	0	distractor	1	920	540	110273	13.328	13.292	13.363
ProbeTrack09	5	ProbeTrack	1470	SCS215a	20090501.130118	20090501.131639	8	0.013327	60	10	60-180	60	159	GapExp	0	122	2	6	0	distractor	1	560	720	110993	13.328	13.293	13.363
ProbeTrack09	5	ProbeTrack	1470	SCS215a	20090501.130118	20090501.131647	8	0.013327	60	10	60-180	60	98	GapExp	0	123	2	6	1	target	1	640	680	111673	13.328	13.293	13.363
ProbeTrack09	5	ProbeTrack	1470	SCS215a	20090501.130118	20090501.131653	8	0.013327	60	10	60-180	60	115	GapExp	0	124	2	96	1	target	1	534	733	112406	13.328	13.293	13.363
ProbeTrack09	5	ProbeTrack	1470	SCS215a	20090501.130118	20090501.131701	8	0.013327	60	10	60-180	60	89	GapExp	0	125	2	3	1	target	1	534	733	113139	13.328	13.293	13.365
ProbeTrack09	5	ProbeTrack	1470	SCS215a	20090501.130118	20090501.131708	8	0.013327	60	10	60-180	60	139	GapExp	0	126	2	6	1	target	1	494	753	113892	13.328	13.292	13.362
ProbeTrack09	5	ProbeTrack	1470	SCS215a	20090501.130118	20090501.131714	8	0.013327	60	10	60-180	60	82	GapExp	0	127	2	0	1	target	1	680	660	114552	13.328	13.290	13.362
ProbeTrack09	5	ProbeTrack	1470	SCS215a	20090501.130118	20090501.131721	8	0.013327	60	10	60-180	60	82	GapExp	0	128	2	6	0	distractor	1	587	707	115259	13.328	13.293	13.363
ProbeTrack09	5	ProbeTrack	1470	SCS215a	20090501.130118	20090501.131727	8	0.013327	60	10	60-180	60	67	GapExp	0	129	2	0	1	target	1	1200	400	115659	13.328	13.293	13.363
ProbeTrack09	5	ProbeTrack	1470	SCS215a	20090501.130118	20090501.131733	8	0.013327	60	10	60-180	60	96	GapExp	0	130	2	96	1	target	1	747	627	116286	13.328	13.293	13.363
ProbeTrack09	5	ProbeTrack	1470	SCS215a	20090501.130118	20090501.131741	8	0.013327	60	10	60-180	60	79	GapExp	0	131	2	3	1	target	1	600	700	116986	13.328	13.293	13.363
ProbeTrack09	5	ProbeTrack	1470	SCS215a	20090501.130118	20090501.131747	8	0.013327	60	10	60-180	60	68	GapExp	0	132	2	0	1	target	1	933	534	117520	13.328	13.293	13.363
ProbeTrack09	5	ProbeTrack	1470	SCS215a	20090501.130118	20090501.131753	8	0.013327	60	10	60-180	60	131	GapExp	0	133	2	6	1	target	1	1053	474	117994	13.328	13.292	13.363
ProbeTrack09	5	ProbeTrack	1470	SCS215a	20090501.130118	20090501.131800	8	0.013327	60	10	60-180	60	63	GapExp	0	134	2	6	1	distractor	0	760	-1000	116994	13.328	13.293	13.363
ProbeTrack09	5	ProbeTrack	1470	SCS215a	20090501.130118	20090501.131806	8	0.013327	60	10	60-180	60	126	GapExp	0	135	2	3	1	target	1	493	754	117748	13.327	13.293	13.363
ProbeTrack09	5	ProbeTrack	1470	SCS215a	20090501.130118	20090501.131825	8	0.013327	60	10	60-180	60	170	GapExp	0	136	2	3	0	distractor	1	720	640	118388	13.328	13.290	13.366
ProbeTrack09	5	ProbeTrack	1470	SCS215a	20090501.130118	20090501.131832	8	0.013327	60	10	60-180	60	140	GapExp	0	137	2	0	0	distractor	1	560	720	119108	13.328	13.290	13.364
ProbeTrack09	5	ProbeTrack	1470	SCS215a	20090501.130118	20090501.131839	8	0.013327	60	10	60-180	60	180	GapExp	0	138	2	3	0	distractor	1	454	773	119881	13.328	13.293	13.363
ProbeTrack09	5	ProbeTrack	1470	SCS215a	20090501.130118	20090501.131846	8	0.013327	60	10	60-180	60	104	GapExp	0	139	2	3	0	distractor	1	893	554	120435	13.327	13.293	13.364
ProbeTrack09	5	ProbeTrack	1470	SCS215a	20090501.130118	20090501.131853	8	0.013327	60	10	60-180	60	165	GapExp	0	140	2	96	1	target	1	627	687	121122	13.328	13.293	13.363
ProbeTrack09	5	ProbeTrack	1470	SCS215a	20090501.130118	20090501.131902	8	0.013327	60	10	60-180	60	122	GapExp	0	141	2	96	1	target	1	534	733	121855	13.328	13.293	13.363
ProbeTrack09	5	ProbeTrack	1470	SCS215a	20090501.130118	20090501.131909	8	0.013327	60	10	60-180	60	77	GapExp	0	142	2	0	0	distractor	1	707	647	122502	13.328	13.292	13.363
ProbeTrack09	5	ProbeTrack	1470	SCS215a	20090501.130118	20090501.131915	8	0.013327	60	10	60-180	60	62	GapExp	0	143	2	0	1	target	1	520	740	123242	13.328	13.293	13.363
ProbeTrack09	5	ProbeTrack	1470	SCS215a	20090501.130118	20090501.131921	8	0.013327	60	10	60-180	60	153	GapExp	0	144	2	3	0	distractor	1	667	667	123909	13.328	13.293	13.363
ProbeTrack09	5	ProbeTrack	1470	SCS215a	20090501.130118	20090501.131928	8	0.013327	60	10	60-180	60	119	GapExp	0	145	2	3	1	target	1	440	780	124689	13.328	13.292	13.363
ProbeTrack09	5	ProbeTrack	1470	SCS215a	20090501.130118	20090501.131934	8	0.013327	60	10	60-180	60	172	GapExp	0	146	2	6	1	target	1	454	773	125462	13.328	13.293	13.362
ProbeTrack09	5	ProbeTrack	1470	SCS215a	20090501.130118	20090501.131941	8	0.013327	60	10	60-180	60	77	GapExp	0	147	2	0	1	target	1	494	753	126215	13.328	13.292	13.363
ProbeTrack09	5	ProbeTrack	1470	SCS215a	20090501.130118	20090501.131947	8	0.013327	60	10	60-180	60	117	GapExp	0	148	2	3	0	target	0	387	-1000	125215	13.328	13.289	13.363
ProbeTrack09	5	ProbeTrack	1470	SCS215a	20090501.130118	20090501.131953	8	0.013327	60	10	60-180	60	138	GapExp	0	149	2	3	0	distractor	1	640	680	125895	13.328	13.293	13.363
ProbeTrack09	5	ProbeTrack	1470	SCS215a	20090501.130118	20090501.132000	8	0.013327	60	10	60-180	60	109	GapExp	0	150	2	96	1	distractor	0	600	-1000	124895	13.328	13.292	13.363
ProbeTrack09	5	ProbeTrack	1470	SCS215a	20090501.130118	20090501.132013	8	0.013327	60	10	60-180	60	163	GapExp	0	151	2	96	0	distractor	1	507	747	125642	13.328	13.290	13.365
ProbeTrack09	5	ProbeTrack	1470	SCS215a	20090501.130118	20090501.132032	8	0.013327	60	10	60-180	60	144	GapExp	0	152	2	0	0	distractor	1	773	614	126256	13.328	13.293	13.363
ProbeTrack09	5	ProbeTrack	1470	SCS215a	20090501.130118	20090501.132039	8	0.013327	60	10	60-180	60	144	GapExp	0	153	2	3	0	distractor	1	720	640	126896	13.328	13.293	13.363
ProbeTrack09	5	ProbeTrack	1470	SCS215a	20090501.130118	20090501.132046	8	0.013327	60	10	60-180	60	151	GapExp	0	154	2	3	0	distractor	1	653	674	127570	13.328	13.293	13.366
ProbeTrack09	5	ProbeTrack	1470	SCS215a	20090501.130118	20090501.132054	8	0.013327	60	10	60-180	60	62	GapExp	0	155	2	6	1	target	1	547	727	128297	13.328	13.292	13.363
ProbeTrack09	5	ProbeTrack	1470	SCS215a	20090501.130118	20090501.132100	8	0.013327	60	10	60-180	60	136	GapExp	0	156	2	0	1	target	1	427	787	129084	13.328	13.291	13.366
ProbeTrack09	5	ProbeTrack	1470	SCS215a	20090501.130118	20090501.132107	8	0.013327	60	10	60-180	60	77	GapExp	0	157	2	3	0	distractor	1	600	700	129784	13.328	13.293	13.363
ProbeTrack09	5	ProbeTrack	1470	SCS215a	20090501.130118	20090501.132113	8	0.013327	60	10	60-180	60	68	GapExp	0	158	2	0	0	distractor	1	507	747	130531	13.328	13.293	13.363
ProbeTrack09	5	ProbeTrack	1470	SCS215a	20090501.130118	20090501.132119	8	0.013327	60	10	60-180	60	71	GapExp	0	159	2	3	0	distractor	1	587	707	131238	13.328	13.287	13.363
ProbeTrack09	5	ProbeTrack	1470	SCS215a	20090501.130118	20090501.132125	8	0.013327	60	10	60-180	60	164	GapExp	0	160	2	6	1	target	1	587	707	131945	13.328	13.292	13.363
ProbeTrack09	5	ProbeTrack	1470	SCS215a	20090501.130118	20090501.132132	8	0.013327	60	10	60-180	60	62	GapExp	0	161	2	96	0	distractor	1	427	787	132732	13.328	13.292	13.363
ProbeTrack09	5	ProbeTrack	1470	SCS215a	20090501.130118	20090501.132139	8	0.013327	60	10	60-180	60	157	GapExp	0	162	2	96	1	distractor	0	813	-1000	131732	13.328	13.290	13.365
ProbeTrack09	5	ProbeTrack	1470	SCS215a	20090501.130118	20090501.132147	8	0.013327	60	10	60-180	60	72	GapExp	0	163	2	96	0	distractor	1	534	733	132465	13.328	13.290	13.366
ProbeTrack09	5	ProbeTrack	1470	SCS215a	20090501.130118	20090501.132155	8	0.013327	60	10	60-180	60	106	GapExp	0	164	2	0	1	target	1	574	713	133178	13.327	13.293	13.363
ProbeTrack09	5	ProbeTrack	1470	SCS215a	20090501.130118	20090501.132201	8	0.013327	60	10	60-180	60	135	GapExp	0	165	2	96	1	target	1	467	767	133945	13.328	13.292	13.363
ProbeTrack09	5	ProbeTrack	1470	SCS215a	20090501.130118	20090501.132209	8	0.013327	60	10	60-180	60	98	GapExp	0	166	2	3	1	target	1	467	767	134712	13.328	13.293	13.363
ProbeTrack09	5	ProbeTrack	1470	SCS215a	20090501.130118	20090501.132215	8	0.013327	60	10	60-180	60	143	GapExp	0	167	2	3	0	distractor	1	893	554	135266	13.328	13.293	13.363
ProbeTrack09	5	ProbeTrack	1470	SCS215a	20090501.130118	20090501.132222	8	0.013327	60	10	60-180	60	168	GapExp	0	168	2	6	1	target	1	507	747	136013	13.328	13.293	13.363
ProbeTrack09	5	ProbeTrack	1470	SCS215a	20090501.130118	20090501.132229	8	0.013327	60	10	60-180	60	87	GapExp	0	169	2	6	0	distractor	1	667	667	136680	13.328	13.293	13.363
ProbeTrack09	5	ProbeTrack	1470	SCS215a	20090501.130118	20090501.132235	8	0.013327	60	10	60-180	60	177	GapExp	0	170	2	6	0	distractor	1	747	627	137307	13.328	13.293	13.363
ProbeTrack09	5	ProbeTrack	1470	SCS215a	20090501.130118	20090501.132243	8	0.013327	60	10	60-180	60	79	GapExp	0	171	2	3	0	distractor	1	653	674	137981	13.328	13.293	13.363
ProbeTrack09	5	ProbeTrack	1470	SCS215a	20090501.130118	20090501.132249	8	0.013327	60	10	60-180	60	138	GapExp	0	172	2	96	1	target	1	520	740	138721	13.328	13.292	13.363
ProbeTrack09	5	ProbeTrack	1470	SCS215a	20090501.130118	20090501.132257	8	0.013327	60	10	60-180	60	162	GapExp	0	173	2	96	1	target	1	573	714	139435	13.328	13.293	13.363
ProbeTrack09	5	ProbeTrack	1470	SCS215a	20090501.130118	20090501.132305	8	0.013327	60	10	60-180	60	92	GapExp	0	174	2	0	0	target	0	1013	-1000	138435	13.327	13.292	13.363
ProbeTrack09	5	ProbeTrack	1470	SCS215a	20090501.130118	20090501.132311	8	0.013327	60	10	60-180	60	152	GapExp	0	175	2	96	1	target	1	520	740	139175	13.328	13.292	13.363
ProbeTrack09	5	ProbeTrack	1470	SCS215a	20090501.130118	20090501.132320	8	0.013327	60	10	60-180	60	154	GapExp	0	176	2	3	1	target	1	454	773	139948	13.328	13.293	13.363
ProbeTrack09	5	ProbeTrack	1470	SCS215a	20090501.130118	20090501.132327	8	0.013327	60	10	60-180	60	156	GapExp	0	177	2	0	0	distractor	1	587	707	140655	13.328	13.293	13.363
ProbeTrack09	5	ProbeTrack	1470	SCS215a	20090501.130118	20090501.132333	8	0.013327	60	10	60-180	60	112	GapExp	0	178	2	3	1	target	1	454	773	141428	13.328	13.292	13.363
ProbeTrack09	5	ProbeTrack	1470	SCS215a	20090501.130118	20090501.132340	8	0.013327	60	10	60-180	60	176	GapExp	0	179	2	6	0	distractor	1	534	733	142161	13.328	13.292	13.363
ProbeTrack09	5	ProbeTrack	1470	SCS215a	20090501.130118	20090501.132347	8	0.013327	60	10	60-180	60	107	GapExp	0	180	2	96	1	target	1	414	793	142954	13.328	13.293	13.363
ProbeTrack09	5	ProbeTrack	1470	SCS215a	20090501.130118	20090501.132354	8	0.013327	60	10	60-180	60	96	GapExp	0	181	2	0	0	distractor	1	534	733	143687	13.328	13.293	13.363
ProbeTrack09	5	ProbeTrack	1470	SCS215a	20090501.130118	20090501.132400	8	0.013327	60	10	60-180	60	116	GapExp	0	182	2	0	0	target	0	427	-1000	142687	13.327	13.293	13.363
ProbeTrack09	5	ProbeTrack	1470	SCS215a	20090501.130118	20090501.132406	8	0.013327	60	10	60-180	60	180	GapExp	0	183	2	96	1	target	1	440	780	143467	13.328	13.292	13.363
ProbeTrack09	5	ProbeTrack	1470	SCS215a	20090501.130118	20090501.132415	8	0.013327	60	10	60-180	60	103	GapExp	0	184	2	0	0	distractor	1	560	720	144187	13.328	13.291	13.363
ProbeTrack09	5	ProbeTrack	1470	SCS215a	20090501.130118	20090501.132421	8	0.013327	60	10	60-180	60	158	GapExp	0	185	2	3	0	distractor	1	560	720	144907	13.328	13.292	13.363
ProbeTrack09	5	ProbeTrack	1470	SCS215a	20090501.130118	20090501.132428	8	0.013327	60	10	60-180	60	80	GapExp	0	186	2	0	1	target	1	613	694	145601	13.328	13.293	13.363
ProbeTrack09	5	ProbeTrack	1470	SCS215a	20090501.130118	20090501.132433	8	0.013327	60	10	60-180	60	128	GapExp	0	187	2	6	0	distractor	1	494	753	146354	13.328	13.292	13.363
ProbeTrack09	5	ProbeTrack	1470	SCS215a	20090501.130118	20090501.132440	8	0.013327	60	10	60-180	60	156	GapExp	0	188	2	3	1	target	1	334	833	147187	13.328	13.292	13.363
ProbeTrack09	5	ProbeTrack	1470	SCS215a	20090501.130118	20090501.132446	8	0.013327	60	10	60-180	60	102	GapExp	0	189	2	6	0	distractor	1	480	760	147947	13.327	13.290	13.366
ProbeTrack09	5	ProbeTrack	1470	SCS215a	20090501.130118	20090501.132452	8	0.013327	60	10	60-180	60	120	GapExp	0	190	2	96	1	target	1	374	813	148760	13.328	13.288	13.363
ProbeTrack09	5	ProbeTrack	1470	SCS215a	20090501.130118	20090501.132500	8	0.013327	60	10	60-180	60	155	GapExp	0	191	2	0	0	distractor	1	533	734	149494	13.328	13.292	13.363
ProbeTrack09	5	ProbeTrack	1470	SCS215a	20090501.130118	20090501.132506	8	0.013327	60	10	60-180	60	68	GapExp	0	192	2	0	0	distractor	1	547	727	150221	13.328	13.293	13.363
ProbeTrack09	5	ProbeTrack	1470	SCS215a	20090501.130118	20090501.132512	8	0.013327	60	10	60-180	60	65	GapExp	0	193	2	3	0	distractor	1	454	773	150994	13.328	13.293	13.362
ProbeTrack09	5	ProbeTrack	1470	SCS215a	20090501.130118	20090501.132517	8	0.013327	60	10	60-180	60	148	GapExp	0	194	2	6	1	target	1	467	767	151761	13.328	13.292	13.363
ProbeTrack09	5	ProbeTrack	1470	SCS215a	20090501.130118	20090501.132524	8	0.013327	60	10	60-180	60	173	GapExp	0	195	2	6	0	distractor	1	494	753	152514	13.328	13.293	13.363
ProbeTrack09	5	ProbeTrack	1470	SCS215a	20090501.130118	20090501.132531	8	0.013327	60	10	60-180	60	180	GapExp	0	196	2	0	0	distractor	1	480	760	153274	13.328	13.293	13.363
ProbeTrack09	5	ProbeTrack	1470	SCS215a	20090501.130118	20090501.132538	8	0.013327	60	10	60-180	60	82	GapExp	0	197	2	6	1	target	1	440	780	154054	13.328	13.288	13.368
ProbeTrack09	5	ProbeTrack	1470	SCS215a	20090501.130118	20090501.132543	8	0.013327	60	10	60-180	60	117	GapExp	0	198	2	6	0	distractor	1	560	720	154774	13.327	13.293	13.363
ProbeTrack09	5	ProbeTrack	1470	SCS215a	20090501.130118	20090501.132550	8	0.013327	60	10	60-180	60	70	GapExp	0	199	2	3	0	distractor	1	867	567	155341	13.328	13.292	13.367
ProbeTrack09	5	ProbeTrack	1470	SCS215a	20090501.130118	20090501.132555	8	0.013327	60	10	60-180	60	157	GapExp	0	200	2	3	0	target	0	747	-1000	154341	13.328	13.293	13.366
