exp	sub	code	rev	comp	runtime	trialtime	nstim	refreshdur	cuedur	gapdur	gapOnsetRange	durPostProbe	gapOnsetTime	blocktype	prac	trial	ntargets	soa	probeTarget	resp	acc	rt	pts	tpts	meanFrameDur	minFrameDur	maxFrameDur
ProbeTrack09	7	ProbeTrack	1470	SCS215a	20090504.115940	20090504.115944	8	0.013328	60	0	60-180	60	109	NoGap	1	1	2	3	0	distractor	1	947	527	527	13.328	13.293	13.363
ProbeTrack09	7	ProbeTrack	1470	SCS215a	20090504.115940	20090504.120020	8	0.013328	60	0	60-180	60	161	NoGap	1	2	2	6	1	target	1	387	807	1334	13.328	13.293	13.363
ProbeTrack09	7	ProbeTrack	1470	SCS215a	20090504.115940	20090504.120038	8	0.013328	60	0	60-180	60	78	NoGap	1	3	2	0	1	target	1	427	787	2121	13.328	13.290	13.362
ProbeTrack09	7	ProbeTrack	1470	SCS215a	20090504.115940	20090504.120044	8	0.013328	60	0	60-180	60	66	NoGap	1	4	2	0	0	distractor	1	440	780	2901	13.328	13.293	13.363
ProbeTrack09	7	ProbeTrack	1470	SCS215a	20090504.115940	20090504.120050	8	0.013328	60	0	60-180	60	121	NoGap	1	5	2	96	0	distractor	1	414	793	3694	13.328	13.293	13.365
ProbeTrack09	7	ProbeTrack	1470	SCS215a	20090504.115940	20090504.120057	8	0.013328	60	0	60-180	60	134	NoGap	1	6	2	96	0	distractor	1	480	760	4454	13.328	13.293	13.363
ProbeTrack09	7	ProbeTrack	1470	SCS215a	20090504.115940	20090504.120105	8	0.013328	60	0	60-180	60	97	NoGap	1	7	2	96	1	distractor	0	387	-1000	3454	13.328	13.293	13.363
ProbeTrack09	7	ProbeTrack	1470	SCS215a	20090504.115940	20090504.120112	8	0.013328	60	0	60-180	60	97	NoGap	1	8	2	3	0	distractor	1	573	714	4168	13.328	13.293	13.362
ProbeTrack09	7	ProbeTrack	1470	SCS215a	20090504.115940	20090504.120120	8	0.013328	60	0	60-180	60	147	NoGap	1	9	2	6	1	target	1	427	787	4955	13.328	13.293	13.363
ProbeTrack09	7	ProbeTrack	1470	SCS215a	20090504.115940	20090504.120126	8	0.013328	60	0	60-180	60	115	NoGap	1	10	2	96	1	target	1	480	760	5715	13.328	13.293	13.363
ProbeTrack09	7	ProbeTrack	1470	SCS215a	20090504.115940	20090504.120133	8	0.013328	60	0	60-180	60	71	NoGap	1	11	2	96	1	target	1	334	833	6548	13.328	13.292	13.364
ProbeTrack09	7	ProbeTrack	1470	SCS215a	20090504.115940	20090504.120140	8	0.013328	60	0	60-180	60	79	NoGap	1	12	2	0	1	distractor	0	427	-1000	5548	13.328	13.293	13.362
ProbeTrack09	7	ProbeTrack	1470	SCS215a	20090504.115940	20090504.120145	8	0.013328	60	0	60-180	60	66	NoGap	1	13	2	96	1	target	1	427	787	6335	13.328	13.293	13.363
ProbeTrack09	7	ProbeTrack	1470	SCS215a	20090504.115940	20090504.120152	8	0.013328	60	0	60-180	60	168	NoGap	1	14	2	6	1	target	1	387	807	7142	13.328	13.293	13.363
ProbeTrack09	7	ProbeTrack	1470	SCS215a	20090504.115940	20090504.120159	8	0.013328	60	0	60-180	60	85	NoGap	1	15	2	3	1	target	1	467	767	7909	13.328	13.293	13.363
ProbeTrack09	7	ProbeTrack	1470	SCS215a	20090504.115940	20090504.120205	8	0.013328	60	0	60-180	60	177	NoGap	1	16	2	96	0	distractor	1	494	753	8662	13.328	13.293	13.363
ProbeTrack09	7	ProbeTrack	1470	SCS215a	20090504.115940	20090504.120213	8	0.013328	60	0	60-180	60	121	NoGap	1	17	2	0	1	target	1	440	780	9442	13.328	13.290	13.366
ProbeTrack09	7	ProbeTrack	1470	SCS215a	20090504.115940	20090504.120219	8	0.013328	60	0	60-180	60	100	NoGap	1	18	2	3	1	target	1	387	807	10249	13.328	13.293	13.363
ProbeTrack09	7	ProbeTrack	1470	SCS215a	20090504.115940	20090504.120225	8	0.013328	60	0	60-180	60	130	NoGap	1	19	2	96	0	distractor	1	573	714	10963	13.328	13.293	13.363
ProbeTrack09	7	ProbeTrack	1470	SCS215a	20090504.115940	20090504.120232	8	0.013328	60	0	60-180	60	129	NoGap	1	20	2	0	1	target	1	400	800	11763	13.328	13.293	13.363
ProbeTrack09	7	ProbeTrack	1470	SCS215a	20090504.115940	20090504.120238	8	0.013328	60	0	60-180	60	135	NoGap	1	21	2	3	1	target	1	400	800	12563	13.328	13.293	13.363
ProbeTrack09	7	ProbeTrack	1470	SCS215a	20090504.115940	20090504.120244	8	0.013328	60	0	60-180	60	114	NoGap	1	22	2	0	0	distractor	1	600	700	13263	13.328	13.292	13.365
ProbeTrack09	7	ProbeTrack	1470	SCS215a	20090504.115940	20090504.120250	8	0.013328	60	0	60-180	60	81	NoGap	1	23	2	96	0	distractor	1	520	740	14003	13.328	13.293	13.363
ProbeTrack09	7	ProbeTrack	1470	SCS215a	20090504.115940	20090504.120258	8	0.013328	60	0	60-180	60	96	NoGap	1	24	2	3	1	target	1	480	760	14763	13.328	13.293	13.363
ProbeTrack09	7	ProbeTrack	1470	SCS215a	20090504.115940	20090504.120303	8	0.013328	60	0	60-180	60	86	NoGap	1	25	2	0	0	distractor	1	547	727	15490	13.328	13.290	13.363
ProbeTrack09	7	ProbeTrack	1470	SCS215a	20090504.115940	20090504.120308	8	0.013328	60	0	60-180	60	118	NoGap	1	26	2	3	0	distractor	1	560	720	16210	13.328	13.293	13.363
ProbeTrack09	7	ProbeTrack	1470	SCS215a	20090504.115940	20090504.120315	8	0.013328	60	0	60-180	60	166	NoGap	1	27	2	0	1	target	1	427	787	16997	13.328	13.293	13.364
ProbeTrack09	7	ProbeTrack	1470	SCS215a	20090504.115940	20090504.120323	8	0.013328	60	0	60-180	60	129	NoGap	1	28	2	3	0	distractor	1	454	773	17770	13.328	13.293	13.363
ProbeTrack09	7	ProbeTrack	1470	SCS215a	20090504.115940	20090504.120328	8	0.013328	60	0	60-180	60	173	NoGap	1	29	2	0	1	target	1	440	780	18550	13.328	13.293	13.363
ProbeTrack09	7	ProbeTrack	1470	SCS215a	20090504.115940	20090504.120335	8	0.013328	60	0	60-180	60	150	NoGap	1	30	2	6	0	distractor	1	454	773	19323	13.328	13.293	13.363
ProbeTrack09	7	ProbeTrack	1470	SCS215a	20090504.115940	20090504.120341	8	0.013328	60	0	60-180	60	75	NoGap	1	31	2	96	1	target	1	427	787	20110	13.328	13.289	13.366
ProbeTrack09	7	ProbeTrack	1470	SCS215a	20090504.115940	20090504.120347	8	0.013328	60	0	60-180	60	120	NoGap	1	32	2	6	1	target	1	494	753	20863	13.328	13.293	13.363
ProbeTrack09	7	ProbeTrack	1470	SCS215a	20090504.115940	20090504.120353	8	0.013328	60	0	60-180	60	142	NoGap	1	33	2	6	0	distractor	1	520	740	21603	13.328	13.293	13.363
ProbeTrack09	7	ProbeTrack	1470	SCS215a	20090504.115940	20090504.120400	8	0.013328	60	0	60-180	60	138	NoGap	1	34	2	6	1	target	1	427	787	22390	13.328	13.293	13.363
ProbeTrack09	7	ProbeTrack	1470	SCS215a	20090504.115940	20090504.120406	8	0.013328	60	0	60-180	60	174	NoGap	1	35	2	3	0	distractor	1	547	727	23117	13.328	13.293	13.363
ProbeTrack09	7	ProbeTrack	1470	SCS215a	20090504.115940	20090504.120412	8	0.013328	60	0	60-180	60	76	NoGap	1	36	2	6	0	distractor	1	667	667	23784	13.328	13.293	13.363
ProbeTrack09	7	ProbeTrack	1470	SCS215a	20090504.115940	20090504.120418	8	0.013328	60	0	60-180	60	123	NoGap	1	37	2	96	1	distractor	0	440	-1000	22784	13.328	13.290	13.363
ProbeTrack09	7	ProbeTrack	1470	SCS215a	20090504.115940	20090504.120425	8	0.013328	60	0	60-180	60	83	NoGap	1	38	2	96	0	distractor	1	627	687	23471	13.328	13.293	13.363
ProbeTrack09	7	ProbeTrack	1470	SCS215a	20090504.115940	20090504.120436	8	0.013328	60	0	60-180	60	64	NoGap	1	39	2	96	1	target	1	427	787	24258	13.328	13.293	13.363
ProbeTrack09	7	ProbeTrack	1470	SCS215a	20090504.115940	20090504.120443	8	0.013328	60	0	60-180	60	107	NoGap	1	40	2	3	1	target	1	427	787	25045	13.328	13.293	13.363
ProbeTrack09	7	ProbeTrack	1470	SCS215a	20090504.115940	20090504.120449	8	0.013328	60	0	60-180	60	130	NoGap	1	41	2	3	0	target	0	347	-1000	24045	13.328	13.293	13.366
ProbeTrack09	7	ProbeTrack	1470	SCS215a	20090504.115940	20090504.120455	8	0.013328	60	0	60-180	60	113	NoGap	1	42	2	6	1	target	1	440	780	24825	13.328	13.293	13.363
ProbeTrack09	7	ProbeTrack	1470	SCS215a	20090504.115940	20090504.120501	8	0.013328	60	0	60-180	60	81	NoGap	1	43	2	6	1	target	1	467	767	25592	13.328	13.292	13.363
ProbeTrack09	7	ProbeTrack	1470	SCS215a	20090504.115940	20090504.120507	8	0.013328	60	0	60-180	60	111	NoGap	1	44	2	96	0	distractor	1	600	700	26292	13.328	13.293	13.363
ProbeTrack09	7	ProbeTrack	1470	SCS215a	20090504.115940	20090504.120514	8	0.013328	60	0	60-180	60	79	NoGap	1	45	2	6	0	distractor	1	680	660	26952	13.328	13.289	13.363
ProbeTrack09	7	ProbeTrack	1470	SCS215a	20090504.115940	20090504.120520	8	0.013328	60	0	60-180	60	123	NoGap	1	46	2	0	0	distractor	1	507	747	27699	13.328	13.293	13.363
ProbeTrack09	7	ProbeTrack	1470	SCS215a	20090504.115940	20090504.120526	8	0.013328	60	0	60-180	60	150	NoGap	1	47	2	6	0	distractor	1	520	740	28439	13.328	13.293	13.363
ProbeTrack09	7	ProbeTrack	1470	SCS215a	20090504.115940	20090504.120532	8	0.013328	60	0	60-180	60	171	NoGap	1	48	2	0	0	distractor	1	480	760	29199	13.328	13.293	13.364
ProbeTrack09	7	ProbeTrack	1470	SCS215a	20090504.115940	20090504.120539	8	0.013328	60	0	60-180	60	155	NoGap	1	49	2	3	0	distractor	1	560	720	29919	13.328	13.293	13.363
ProbeTrack09	7	ProbeTrack	1470	SCS215a	20090504.115940	20090504.120545	8	0.013328	60	0	60-180	60	72	NoGap	1	50	2	0	0	distractor	1	667	667	30586	13.328	13.293	13.363
ProbeTrack09	7	ProbeTrack	1470	SCS215a	20090504.120630	20090504.120642	8	0.013327	60	10	60-180	60	67	GapExp	1	1	2	96	1	target	1	427	787	31373	13.328	13.293	13.363
ProbeTrack09	7	ProbeTrack	1470	SCS215a	20090504.120630	20090504.120650	8	0.013327	60	10	60-180	60	79	GapExp	1	2	2	0	1	target	1	520	740	32113	13.328	13.293	13.363
ProbeTrack09	7	ProbeTrack	1470	SCS215a	20090504.120630	20090504.120710	8	0.013327	60	10	60-180	60	105	GapExp	1	3	2	3	1	target	1	453	774	32887	13.328	13.293	13.363
ProbeTrack09	7	ProbeTrack	1470	SCS215a	20090504.120630	20090504.120716	8	0.013327	60	10	60-180	60	180	GapExp	1	4	2	96	0	distractor	1	467	767	33654	13.328	13.293	13.368
ProbeTrack09	7	ProbeTrack	1470	SCS215a	20090504.120630	20090504.120724	8	0.013327	60	10	60-180	60	78	GapExp	1	5	2	6	0	distractor	1	587	707	34361	13.328	13.293	13.363
ProbeTrack09	7	ProbeTrack	1470	SCS215a	20090504.120630	20090504.120729	8	0.013327	60	10	60-180	60	84	GapExp	1	6	2	6	1	target	1	334	833	35194	13.328	13.293	13.363
ProbeTrack09	7	ProbeTrack	1470	SCS215a	20090504.120630	20090504.120735	8	0.013327	60	10	60-180	60	79	GapExp	1	7	2	0	0	distractor	1	560	720	35914	13.328	13.291	13.364
ProbeTrack09	7	ProbeTrack	1470	SCS215a	20090504.120630	20090504.120740	8	0.013327	60	10	60-180	60	129	GapExp	1	8	2	3	0	distractor	1	480	760	36674	13.328	13.292	13.363
ProbeTrack09	7	ProbeTrack	1470	SCS215a	20090504.120630	20090504.120746	8	0.013327	60	10	60-180	60	141	GapExp	0	9	2	0	1	distractor	0	494	-1000	35674	13.328	13.293	13.363
ProbeTrack09	7	ProbeTrack	1470	SCS215a	20090504.120630	20090504.120752	8	0.013327	60	10	60-180	60	119	GapExp	0	10	2	6	0	distractor	1	574	713	36387	13.328	13.289	13.367
ProbeTrack09	7	ProbeTrack	1470	SCS215a	20090504.120630	20090504.120759	8	0.013327	60	10	60-180	60	79	GapExp	0	11	2	96	1	target	1	480	760	37147	13.328	13.293	13.363
ProbeTrack09	7	ProbeTrack	1470	SCS215a	20090504.120630	20090504.120806	8	0.013327	60	10	60-180	60	91	GapExp	0	12	2	3	0	distractor	1	933	534	37681	13.328	13.293	13.363
ProbeTrack09	7	ProbeTrack	1470	SCS215a	20090504.120630	20090504.120812	8	0.013327	60	10	60-180	60	66	GapExp	0	13	2	3	0	distractor	1	827	587	38268	13.328	13.290	13.363
ProbeTrack09	7	ProbeTrack	1470	SCS215a	20090504.120630	20090504.120819	8	0.013327	60	10	60-180	60	107	GapExp	0	14	2	3	1	target	1	414	793	39061	13.328	13.293	13.363
ProbeTrack09	7	ProbeTrack	1470	SCS215a	20090504.120630	20090504.120824	8	0.013327	60	10	60-180	60	175	GapExp	0	15	2	0	1	target	1	573	714	39775	13.328	13.293	13.363
ProbeTrack09	7	ProbeTrack	1470	SCS215a	20090504.120630	20090504.120831	8	0.013327	60	10	60-180	60	110	GapExp	0	16	2	6	0	distractor	1	560	720	40495	13.328	13.293	13.363
ProbeTrack09	7	ProbeTrack	1470	SCS215a	20090504.120630	20090504.120837	8	0.013327	60	10	60-180	60	78	GapExp	0	17	2	6	0	distractor	1	600	700	41195	13.328	13.293	13.363
ProbeTrack09	7	ProbeTrack	1470	SCS215a	20090504.120630	20090504.120843	8	0.013327	60	10	60-180	60	156	GapExp	0	18	2	3	1	target	1	427	787	41982	13.328	13.293	13.363
ProbeTrack09	7	ProbeTrack	1470	SCS215a	20090504.120630	20090504.120850	8	0.013327	60	10	60-180	60	65	GapExp	0	19	2	0	0	target	0	360	-1000	40982	13.328	13.293	13.363
ProbeTrack09	7	ProbeTrack	1470	SCS215a	20090504.120630	20090504.120855	8	0.013327	60	10	60-180	60	77	GapExp	0	20	2	96	0	distractor	1	560	720	41702	13.328	13.293	13.363
ProbeTrack09	7	ProbeTrack	1470	SCS215a	20090504.120630	20090504.120903	8	0.013327	60	10	60-180	60	133	GapExp	0	21	2	0	1	target	1	347	827	42529	13.328	13.293	13.363
ProbeTrack09	7	ProbeTrack	1470	SCS215a	20090504.120630	20090504.120910	8	0.013327	60	10	60-180	60	103	GapExp	0	22	2	0	0	target	0	467	-1000	41529	13.328	13.290	13.363
ProbeTrack09	7	ProbeTrack	1470	SCS215a	20090504.120630	20090504.120916	8	0.013327	60	10	60-180	60	150	GapExp	0	23	2	3	1	target	1	374	813	42342	13.328	13.292	13.363
ProbeTrack09	7	ProbeTrack	1470	SCS215a	20090504.120630	20090504.120922	8	0.013327	60	10	60-180	60	175	GapExp	0	24	2	3	0	distractor	1	653	674	43016	13.328	13.291	13.363
ProbeTrack09	7	ProbeTrack	1470	SCS215a	20090504.120630	20090504.120929	8	0.013327	60	10	60-180	60	130	GapExp	0	25	2	3	0	distractor	1	614	693	43709	13.328	13.293	13.366
ProbeTrack09	7	ProbeTrack	1470	SCS215a	20090504.120630	20090504.120935	8	0.013327	60	10	60-180	60	154	GapExp	0	26	2	96	0	distractor	1	613	694	44403	13.328	13.293	13.363
ProbeTrack09	7	ProbeTrack	1470	SCS215a	20090504.120630	20090504.120943	8	0.013327	60	10	60-180	60	76	GapExp	0	27	2	6	0	target	0	534	-1000	43403	13.328	13.291	13.363
ProbeTrack09	7	ProbeTrack	1470	SCS215a	20090504.120630	20090504.120949	8	0.013327	60	10	60-180	60	177	GapExp	0	28	2	0	0	target	0	787	-1000	42403	13.328	13.291	13.363
ProbeTrack09	7	ProbeTrack	1470	SCS215a	20090504.120630	20090504.120956	8	0.013327	60	10	60-180	60	107	GapExp	0	29	2	96	1	target	1	374	813	43216	13.328	13.293	13.363
ProbeTrack09	7	ProbeTrack	1470	SCS215a	20090504.120630	20090504.121004	8	0.013327	60	10	60-180	60	125	GapExp	0	30	2	96	0	distractor	1	587	707	43923	13.328	13.290	13.365
ProbeTrack09	7	ProbeTrack	1470	SCS215a	20090504.120630	20090504.121011	8	0.013327	60	10	60-180	60	141	GapExp	0	31	2	0	0	target	0	760	-1000	42923	13.328	13.293	13.363
ProbeTrack09	7	ProbeTrack	1470	SCS215a	20090504.120630	20090504.121018	8	0.013327	60	10	60-180	60	164	GapExp	0	32	2	6	1	target	1	494	753	43676	13.328	13.293	13.363
ProbeTrack09	7	ProbeTrack	1470	SCS215a	20090504.120630	20090504.121025	8	0.013327	60	10	60-180	60	125	GapExp	0	33	2	0	0	distractor	1	800	600	44276	13.328	13.293	13.363
ProbeTrack09	7	ProbeTrack	1470	SCS215a	20090504.120630	20090504.121031	8	0.013327	60	10	60-180	60	168	GapExp	0	34	2	3	0	distractor	1	600	700	44976	13.328	13.293	13.363
ProbeTrack09	7	ProbeTrack	1470	SCS215a	20090504.120630	20090504.121038	8	0.013327	60	10	60-180	60	77	GapExp	0	35	2	0	1	target	1	480	760	45736	13.328	13.293	13.363
ProbeTrack09	7	ProbeTrack	1470	SCS215a	20090504.120630	20090504.121044	8	0.013327	60	10	60-180	60	167	GapExp	0	36	2	96	0	distractor	1	547	727	46463	13.328	13.293	13.363
ProbeTrack09	7	ProbeTrack	1470	SCS215a	20090504.120630	20090504.121053	8	0.013327	60	10	60-180	60	102	GapExp	0	37	2	96	0	target	0	467	-1000	45463	13.328	13.293	13.363
ProbeTrack09	7	ProbeTrack	1470	SCS215a	20090504.120630	20090504.121100	8	0.013327	60	10	60-180	60	67	GapExp	0	38	2	6	1	target	1	494	753	46216	13.328	13.293	13.363
ProbeTrack09	7	ProbeTrack	1470	SCS215a	20090504.120630	20090504.121106	8	0.013327	60	10	60-180	60	76	GapExp	0	39	2	6	1	target	1	467	767	46983	13.328	13.293	13.363
ProbeTrack09	7	ProbeTrack	1470	SCS215a	20090504.120630	20090504.121111	8	0.013327	60	10	60-180	60	66	GapExp	0	40	2	96	1	distractor	0	613	-1000	45983	13.328	13.293	13.366
ProbeTrack09	7	ProbeTrack	1470	SCS215a	20090504.120630	20090504.121118	8	0.013327	60	10	60-180	60	146	GapExp	0	41	2	6	1	target	1	400	800	46783	13.328	13.292	13.363
ProbeTrack09	7	ProbeTrack	1470	SCS215a	20090504.120630	20090504.121125	8	0.013327	60	10	60-180	60	79	GapExp	0	42	2	6	1	target	1	454	773	47556	13.328	13.291	13.364
ProbeTrack09	7	ProbeTrack	1470	SCS215a	20090504.120630	20090504.121130	8	0.013327	60	10	60-180	60	139	GapExp	0	43	2	96	0	distractor	1	547	727	48283	13.328	13.293	13.363
ProbeTrack09	7	ProbeTrack	1470	SCS215a	20090504.120630	20090504.121138	8	0.013327	60	10	60-180	60	104	GapExp	0	44	2	3	1	target	1	400	800	49083	13.328	13.293	13.363
ProbeTrack09	7	ProbeTrack	1470	SCS215a	20090504.120630	20090504.121144	8	0.013327	60	10	60-180	60	110	GapExp	0	45	2	3	1	target	1	427	787	49870	13.328	13.293	13.363
ProbeTrack09	7	ProbeTrack	1470	SCS215a	20090504.120630	20090504.121150	8	0.013327	60	10	60-180	60	173	GapExp	0	46	2	3	1	target	1	400	800	50670	13.328	13.293	13.363
ProbeTrack09	7	ProbeTrack	1470	SCS215a	20090504.120630	20090504.121157	8	0.013327	60	10	60-180	60	95	GapExp	0	47	2	0	1	target	1	547	727	51397	13.328	13.293	13.363
ProbeTrack09	7	ProbeTrack	1470	SCS215a	20090504.120630	20090504.121203	8	0.013327	60	10	60-180	60	150	GapExp	0	48	2	96	0	distractor	1	494	753	52150	13.328	13.293	13.363
ProbeTrack09	7	ProbeTrack	1470	SCS215a	20090504.120630	20090504.121211	8	0.013327	60	10	60-180	60	77	GapExp	0	49	2	0	1	target	1	400	800	52950	13.328	13.293	13.363
ProbeTrack09	7	ProbeTrack	1470	SCS215a	20090504.120630	20090504.121216	8	0.013327	60	10	60-180	60	152	GapExp	0	50	2	3	0	distractor	1	613	694	53644	13.328	13.293	13.363
ProbeTrack09	7	ProbeTrack	1470	SCS215a	20090504.120630	20090504.121223	8	0.013327	60	10	60-180	60	137	GapExp	0	51	2	96	1	target	1	454	773	54417	13.328	13.293	13.363
ProbeTrack09	7	ProbeTrack	1470	SCS215a	20090504.120630	20090504.121230	8	0.013327	60	10	60-180	60	93	GapExp	0	52	2	3	0	distractor	1	587	707	55124	13.328	13.293	13.363
ProbeTrack09	7	ProbeTrack	1470	SCS215a	20090504.120630	20090504.121236	8	0.013327	60	10	60-180	60	163	GapExp	0	53	2	3	0	distractor	1	813	594	55718	13.328	13.293	13.363
ProbeTrack09	7	ProbeTrack	1470	SCS215a	20090504.120630	20090504.121244	8	0.013327	60	10	60-180	60	74	GapExp	0	54	2	6	0	target	0	627	-1000	54718	13.328	13.293	13.364
ProbeTrack09	7	ProbeTrack	1470	SCS215a	20090504.120630	20090504.121249	8	0.013327	60	10	60-180	60	86	GapExp	0	55	2	96	1	target	1	480	760	55478	13.328	13.293	13.363
ProbeTrack09	7	ProbeTrack	1470	SCS215a	20090504.120630	20090504.121257	8	0.013327	60	10	60-180	60	85	GapExp	0	56	2	0	0	distractor	1	667	667	56145	13.328	13.292	13.366
ProbeTrack09	7	ProbeTrack	1470	SCS215a	20090504.120630	20090504.121304	8	0.013327	60	10	60-180	60	69	GapExp	0	57	2	96	0	distractor	1	440	780	56925	13.328	13.293	13.363
ProbeTrack09	7	ProbeTrack	1470	SCS215a	20090504.120630	20090504.121310	8	0.013327	60	10	60-180	60	168	GapExp	0	58	2	96	1	target	1	467	767	57692	13.328	13.293	13.363
ProbeTrack09	7	ProbeTrack	1470	SCS215a	20090504.120630	20090504.121319	8	0.013327	60	10	60-180	60	141	GapExp	0	59	2	96	0	target	0	467	-1000	56692	13.328	13.293	13.363
ProbeTrack09	7	ProbeTrack	1470	SCS215a	20090504.120630	20090504.121326	8	0.013327	60	10	60-180	60	126	GapExp	0	60	2	96	0	target	0	520	-1000	55692	13.328	13.292	13.363
ProbeTrack09	7	ProbeTrack	1470	SCS215a	20090504.120630	20090504.121333	8	0.013327	60	10	60-180	60	90	GapExp	0	61	2	0	1	target	1	587	707	56399	13.328	13.293	13.363
ProbeTrack09	7	ProbeTrack	1470	SCS215a	20090504.120630	20090504.121340	8	0.013327	60	10	60-180	60	71	GapExp	0	62	2	0	0	target	0	693	-1000	55399	13.328	13.292	13.363
ProbeTrack09	7	ProbeTrack	1470	SCS215a	20090504.120630	20090504.121345	8	0.013327	60	10	60-180	60	98	GapExp	0	63	2	96	0	distractor	1	573	714	56113	13.328	13.293	13.364
ProbeTrack09	7	ProbeTrack	1470	SCS215a	20090504.120630	20090504.121352	8	0.013327	60	10	60-180	60	76	GapExp	0	64	2	0	0	distractor	1	920	540	56653	13.328	13.293	13.363
ProbeTrack09	7	ProbeTrack	1470	SCS215a	20090504.120630	20090504.121359	8	0.013327	60	10	60-180	60	171	GapExp	0	65	2	6	0	distractor	1	534	733	57386	13.328	13.293	13.363
ProbeTrack09	7	ProbeTrack	1470	SCS215a	20090504.120630	20090504.121406	8	0.013327	60	10	60-180	60	110	GapExp	0	66	2	6	0	distractor	1	653	674	58060	13.328	13.293	13.363
ProbeTrack09	7	ProbeTrack	1470	SCS215a	20090504.120630	20090504.121412	8	0.013327	60	10	60-180	60	91	GapExp	0	67	2	3	1	target	1	680	660	58720	13.328	13.293	13.363
ProbeTrack09	7	ProbeTrack	1470	SCS215a	20090504.120630	20090504.121418	8	0.013327	60	10	60-180	60	112	GapExp	0	68	2	6	1	target	1	547	727	59447	13.328	13.293	13.363
ProbeTrack09	7	ProbeTrack	1470	SCS215a	20090504.120630	20090504.121424	8	0.013327	60	10	60-180	60	61	GapExp	0	69	2	3	1	distractor	0	773	-1000	58447	13.328	13.293	13.363
ProbeTrack09	7	ProbeTrack	1470	SCS215a	20090504.120630	20090504.121430	8	0.013327	60	10	60-180	60	80	GapExp	0	70	2	0	0	distractor	1	560	720	59167	13.328	13.293	13.363
ProbeTrack09	7	ProbeTrack	1470	SCS215a	20090504.120630	20090504.121435	8	0.013327	60	10	60-180	60	125	GapExp	0	71	2	6	1	target	1	547	727	59894	13.328	13.293	13.363
ProbeTrack09	7	ProbeTrack	1470	SCS215a	20090504.120630	20090504.121441	8	0.013327	60	10	60-180	60	164	GapExp	0	72	2	96	1	distractor	0	667	-1000	58894	13.328	13.293	13.363
ProbeTrack09	7	ProbeTrack	1470	SCS215a	20090504.120630	20090504.121450	8	0.013327	60	10	60-180	60	63	GapExp	0	73	2	0	1	target	1	427	787	59681	13.328	13.293	13.363
ProbeTrack09	7	ProbeTrack	1470	SCS215a	20090504.120630	20090504.121455	8	0.013327	60	10	60-180	60	96	GapExp	0	74	2	0	1	target	1	534	733	60414	13.328	13.293	13.363
ProbeTrack09	7	ProbeTrack	1470	SCS215a	20090504.120630	20090504.121500	8	0.013327	60	10	60-180	60	127	GapExp	0	75	2	0	0	distractor	1	693	654	61068	13.328	13.293	13.363
ProbeTrack09	7	ProbeTrack	1470	SCS215a	20090504.120630	20090504.121507	8	0.013327	60	10	60-180	60	88	GapExp	0	76	2	96	0	distractor	1	640	680	61748	13.328	13.293	13.364
ProbeTrack09	7	ProbeTrack	1470	SCS215a	20090504.120630	20090504.121514	8	0.013327	60	10	60-180	60	97	GapExp	0	77	2	3	0	distractor	1	547	727	62475	13.328	13.293	13.364
ProbeTrack09	7	ProbeTrack	1470	SCS215a	20090504.120630	20090504.121520	8	0.013327	60	10	60-180	60	179	GapExp	0	78	2	96	1	target	1	454	773	63248	13.328	13.290	13.366
ProbeTrack09	7	ProbeTrack	1470	SCS215a	20090504.120630	20090504.121528	8	0.013327	60	10	60-180	60	80	GapExp	0	79	2	3	0	distractor	1	1000	500	63748	13.328	13.293	13.363
ProbeTrack09	7	ProbeTrack	1470	SCS215a	20090504.120630	20090504.121534	8	0.013327	60	10	60-180	60	124	GapExp	0	80	2	6	0	target	0	467	-1000	62748	13.328	13.289	13.363
ProbeTrack09	7	ProbeTrack	1470	SCS215a	20090504.120630	20090504.121541	8	0.013327	60	10	60-180	60	136	GapExp	0	81	2	6	1	target	1	520	740	63488	13.328	13.293	13.363
ProbeTrack09	7	ProbeTrack	1470	SCS215a	20090504.120630	20090504.121547	8	0.013327	60	10	60-180	60	81	GapExp	0	82	2	6	1	target	1	454	773	64261	13.328	13.290	13.367
ProbeTrack09	7	ProbeTrack	1470	SCS215a	20090504.120630	20090504.121552	8	0.013327	60	10	60-180	60	76	GapExp	0	83	2	0	1	target	1	454	773	65034	13.328	13.293	13.363
ProbeTrack09	7	ProbeTrack	1470	SCS215a	20090504.120630	20090504.121558	8	0.013327	60	10	60-180	60	119	GapExp	0	84	2	0	1	target	1	467	767	65801	13.328	13.292	13.363
ProbeTrack09	7	ProbeTrack	1470	SCS215a	20090504.120630	20090504.121604	8	0.013327	60	10	60-180	60	62	GapExp	0	85	2	0	0	distractor	1	680	660	66461	13.328	13.293	13.363
ProbeTrack09	7	ProbeTrack	1470	SCS215a	20090504.120630	20090504.121610	8	0.013327	60	10	60-180	60	144	GapExp	0	86	2	0	0	distractor	1	627	687	67148	13.328	13.293	13.363
ProbeTrack09	7	ProbeTrack	1470	SCS215a	20090504.120630	20090504.121616	8	0.013327	60	10	60-180	60	117	GapExp	0	87	2	0	0	distractor	1	560	720	67868	13.328	13.293	13.364
ProbeTrack09	7	ProbeTrack	1470	SCS215a	20090504.120630	20090504.121622	8	0.013327	60	10	60-180	60	94	GapExp	0	88	2	3	0	distractor	1	547	727	68595	13.328	13.293	13.363
ProbeTrack09	7	ProbeTrack	1470	SCS215a	20090504.120630	20090504.121628	8	0.013327	60	10	60-180	60	123	GapExp	0	89	2	6	1	target	1	587	707	69302	13.328	13.293	13.366
ProbeTrack09	7	ProbeTrack	1470	SCS215a	20090504.120630	20090504.121634	8	0.013327	60	10	60-180	60	93	GapExp	0	90	2	0	1	target	1	614	693	69995	13.328	13.293	13.363
ProbeTrack09	7	ProbeTrack	1470	SCS215a	20090504.120630	20090504.121640	8	0.013327	60	10	60-180	60	165	GapExp	0	91	2	0	0	distractor	1	733	634	70629	13.328	13.293	13.363
ProbeTrack09	7	ProbeTrack	1470	SCS215a	20090504.120630	20090504.121647	8	0.013327	60	10	60-180	60	78	GapExp	0	92	2	3	0	distractor	1	547	727	71356	13.328	13.293	13.363
ProbeTrack09	7	ProbeTrack	1470	SCS215a	20090504.120630	20090504.121653	8	0.013327	60	10	60-180	60	95	GapExp	0	93	2	96	0	distractor	1	494	753	72109	13.328	13.293	13.363
ProbeTrack09	7	ProbeTrack	1470	SCS215a	20090504.120630	20090504.121659	8	0.013327	60	10	60-180	60	116	GapExp	0	94	2	6	0	distractor	1	494	753	72862	13.328	13.293	13.363
ProbeTrack09	7	ProbeTrack	1470	SCS215a	20090504.120630	20090504.121705	8	0.013327	60	10	60-180	60	83	GapExp	0	95	2	3	1	target	1	507	747	73609	13.328	13.293	13.363
ProbeTrack09	7	ProbeTrack	1470	SCS215a	20090504.120630	20090504.121711	8	0.013327	60	10	60-180	60	121	GapExp	0	96	2	0	1	target	1	480	760	74369	13.328	13.293	13.363
ProbeTrack09	7	ProbeTrack	1470	SCS215a	20090504.120630	20090504.121717	8	0.013327	60	10	60-180	60	67	GapExp	0	97	2	96	1	target	1	440	780	75149	13.328	13.293	13.363
ProbeTrack09	7	ProbeTrack	1470	SCS215a	20090504.120630	20090504.121723	8	0.013327	60	10	60-180	60	106	GapExp	0	98	2	3	1	target	1	400	800	75949	13.328	13.293	13.363
ProbeTrack09	7	ProbeTrack	1470	SCS215a	20090504.120630	20090504.121729	8	0.013327	60	10	60-180	60	114	GapExp	0	99	2	3	1	target	1	454	773	76722	13.328	13.293	13.363
ProbeTrack09	7	ProbeTrack	1470	SCS215a	20090504.120630	20090504.121735	8	0.013327	60	10	60-180	60	68	GapExp	0	100	2	6	0	distractor	1	574	713	77435	13.328	13.293	13.362
ProbeTrack09	7	ProbeTrack	1470	SCS215a	20090504.120630	20090504.121740	8	0.013327	60	10	60-180	60	160	GapExp	0	101	2	0	0	distractor	1	667	667	78102	13.328	13.293	13.363
ProbeTrack09	7	ProbeTrack	1470	SCS215a	20090504.120630	20090504.121747	8	0.013327	60	10	60-180	60	144	GapExp	0	102	2	96	1	target	1	360	820	78922	13.328	13.293	13.364
ProbeTrack09	7	ProbeTrack	1470	SCS215a	20090504.120630	20090504.121754	8	0.013327	60	10	60-180	60	107	GapExp	0	103	2	3	0	distractor	1	520	740	79662	13.328	13.293	13.364
ProbeTrack09	7	ProbeTrack	1470	SCS215a	20090504.120630	20090504.121800	8	0.013327	60	10	60-180	60	150	GapExp	0	104	2	3	1	target	1	400	800	80462	13.328	13.293	13.363
ProbeTrack09	7	ProbeTrack	1470	SCS215a	20090504.120630	20090504.121806	8	0.013327	60	10	60-180	60	80	GapExp	0	105	2	96	0	distractor	1	494	753	81215	13.328	13.293	13.363
ProbeTrack09	7	ProbeTrack	1470	SCS215a	20090504.120630	20090504.121814	8	0.013327	60	10	60-180	60	134	GapExp	0	106	2	3	0	target	0	467	-1000	80215	13.328	13.293	13.363
ProbeTrack09	7	ProbeTrack	1470	SCS215a	20090504.120630	20090504.121820	8	0.013327	60	10	60-180	60	164	GapExp	0	107	2	3	1	target	1	480	760	80975	13.328	13.292	13.365
ProbeTrack09	7	ProbeTrack	1470	SCS215a	20090504.120630	20090504.121827	8	0.013327	60	10	60-180	60	141	GapExp	0	108	2	6	0	distractor	1	574	713	81688	13.328	13.293	13.363
ProbeTrack09	7	ProbeTrack	1470	SCS215a	20090504.120630	20090504.121834	8	0.013327	60	10	60-180	60	178	GapExp	0	109	2	96	0	distractor	1	534	733	82421	13.328	13.291	13.365
ProbeTrack09	7	ProbeTrack	1470	SCS215a	20090504.120630	20090504.121842	8	0.013327	60	10	60-180	60	99	GapExp	0	110	2	6	0	distractor	1	534	733	83154	13.328	13.293	13.363
ProbeTrack09	7	ProbeTrack	1470	SCS215a	20090504.120630	20090504.121848	8	0.013327	60	10	60-180	60	115	GapExp	0	111	2	3	1	target	1	467	767	83921	13.328	13.292	13.363
ProbeTrack09	7	ProbeTrack	1470	SCS215a	20090504.120630	20090504.121853	8	0.013327	60	10	60-180	60	151	GapExp	0	112	2	0	0	distractor	1	507	747	84668	13.328	13.292	13.363
ProbeTrack09	7	ProbeTrack	1470	SCS215a	20090504.120630	20090504.121900	8	0.013327	60	10	60-180	60	161	GapExp	0	113	2	6	0	distractor	1	547	727	85395	13.328	13.293	13.363
ProbeTrack09	7	ProbeTrack	1470	SCS215a	20090504.120630	20090504.121906	8	0.013327	60	10	60-180	60	79	GapExp	0	114	2	96	0	distractor	1	547	727	86122	13.328	13.293	13.363
ProbeTrack09	7	ProbeTrack	1470	SCS215a	20090504.120630	20090504.121913	8	0.013327	60	10	60-180	60	122	GapExp	0	115	2	6	1	target	1	574	713	86835	13.328	13.293	13.363
ProbeTrack09	7	ProbeTrack	1470	SCS215a	20090504.120630	20090504.121919	8	0.013327	60	10	60-180	60	62	GapExp	0	116	2	0	0	distractor	1	600	700	87535	13.328	13.293	13.363
ProbeTrack09	7	ProbeTrack	1470	SCS215a	20090504.120630	20090504.121924	8	0.013327	60	10	60-180	60	168	GapExp	0	117	2	96	1	target	1	427	787	88322	13.328	13.292	13.363
ProbeTrack09	7	ProbeTrack	1470	SCS215a	20090504.120630	20090504.121932	8	0.013327	60	10	60-180	60	75	GapExp	0	118	2	96	0	distractor	1	640	680	89002	13.328	13.293	13.363
ProbeTrack09	7	ProbeTrack	1470	SCS215a	20090504.120630	20090504.121938	8	0.013327	60	10	60-180	60	171	GapExp	0	119	2	6	1	target	1	480	760	89762	13.328	13.293	13.363
ProbeTrack09	7	ProbeTrack	1470	SCS215a	20090504.120630	20090504.121945	8	0.013327	60	10	60-180	60	70	GapExp	0	120	2	6	1	target	1	494	753	90515	13.328	13.293	13.363
ProbeTrack09	7	ProbeTrack	1470	SCS215a	20090504.120630	20090504.121950	8	0.013327	60	10	60-180	60	162	GapExp	0	121	2	3	1	target	1	320	840	91355	13.328	13.292	13.363
ProbeTrack09	7	ProbeTrack	1470	SCS215a	20090504.120630	20090504.121956	8	0.013327	60	10	60-180	60	99	GapExp	0	122	2	3	0	target	0	680	-1000	90355	13.328	13.293	13.363
ProbeTrack09	7	ProbeTrack	1470	SCS215a	20090504.120630	20090504.122002	8	0.013327	60	10	60-180	60	139	GapExp	0	123	2	0	1	target	1	374	813	91168	13.328	13.293	13.363
ProbeTrack09	7	ProbeTrack	1470	SCS215a	20090504.120630	20090504.122008	8	0.013327	60	10	60-180	60	119	GapExp	0	124	2	6	1	target	1	387	807	91975	13.328	13.293	13.363
ProbeTrack09	7	ProbeTrack	1470	SCS215a	20090504.120630	20090504.122014	8	0.013327	60	10	60-180	60	89	GapExp	0	125	2	6	0	distractor	1	507	747	92722	13.328	13.293	13.363
ProbeTrack09	7	ProbeTrack	1470	SCS215a	20090504.120630	20090504.122019	8	0.013327	60	10	60-180	60	135	GapExp	0	126	2	0	1	target	1	400	800	93522	13.328	13.292	13.362
ProbeTrack09	7	ProbeTrack	1470	SCS215a	20090504.120630	20090504.122026	8	0.013327	60	10	60-180	60	138	GapExp	0	127	2	96	0	distractor	1	454	773	94295	13.328	13.292	13.363
ProbeTrack09	7	ProbeTrack	1470	SCS215a	20090504.120630	20090504.122033	8	0.013327	60	10	60-180	60	90	GapExp	0	128	2	0	0	distractor	1	653	674	94969	13.328	13.293	13.362
ProbeTrack09	7	ProbeTrack	1470	SCS215a	20090504.120630	20090504.122039	8	0.013327	60	10	60-180	60	125	GapExp	0	129	2	96	1	target	1	653	674	95643	13.328	13.293	13.363
ProbeTrack09	7	ProbeTrack	1470	SCS215a	20090504.120630	20090504.122046	8	0.013327	60	10	60-180	60	136	GapExp	0	130	2	96	1	distractor	0	547	-1000	94643	13.328	13.293	13.363
ProbeTrack09	7	ProbeTrack	1470	SCS215a	20090504.120630	20090504.122053	8	0.013327	60	10	60-180	60	134	GapExp	0	131	2	96	0	distractor	1	627	687	95330	13.328	13.293	13.366
ProbeTrack09	7	ProbeTrack	1470	SCS215a	20090504.120630	20090504.122102	8	0.013327	60	10	60-180	60	154	GapExp	0	132	2	3	0	target	0	760	-1000	94330	13.328	13.293	13.363
ProbeTrack09	7	ProbeTrack	1470	SCS215a	20090504.120630	20090504.122109	8	0.013327	60	10	60-180	60	163	GapExp	0	133	2	0	1	target	1	454	773	95103	13.328	13.293	13.363
ProbeTrack09	7	ProbeTrack	1470	SCS215a	20090504.120630	20090504.122115	8	0.013327	60	10	60-180	60	130	GapExp	0	134	2	6	0	distractor	1	494	753	95856	13.328	13.292	13.363
ProbeTrack09	7	ProbeTrack	1470	SCS215a	20090504.120630	20090504.122121	8	0.013327	60	10	60-180	60	106	GapExp	0	135	2	6	1	target	1	400	800	96656	13.328	13.293	13.363
ProbeTrack09	7	ProbeTrack	1470	SCS215a	20090504.120630	20090504.122127	8	0.013327	60	10	60-180	60	174	GapExp	0	136	2	6	0	target	0	760	-1000	95656	13.328	13.293	13.363
ProbeTrack09	7	ProbeTrack	1470	SCS215a	20090504.120630	20090504.122134	8	0.013327	60	10	60-180	60	131	GapExp	0	137	2	96	1	target	1	454	773	96429	13.328	13.293	13.367
ProbeTrack09	7	ProbeTrack	1470	SCS215a	20090504.120630	20090504.122141	8	0.013327	60	10	60-180	60	123	GapExp	0	138	2	3	1	target	1	547	727	97156	13.328	13.293	13.364
ProbeTrack09	7	ProbeTrack	1470	SCS215a	20090504.120630	20090504.122147	8	0.013327	60	10	60-180	60	109	GapExp	0	139	2	96	1	distractor	0	520	-1000	96156	13.328	13.293	13.363
ProbeTrack09	7	ProbeTrack	1470	SCS215a	20090504.120630	20090504.122154	8	0.013327	60	10	60-180	60	166	GapExp	0	140	2	3	1	target	1	374	813	96969	13.328	13.293	13.363
ProbeTrack09	7	ProbeTrack	1470	SCS215a	20090504.120630	20090504.122200	8	0.013327	60	10	60-180	60	127	GapExp	0	141	2	96	1	target	1	387	807	97776	13.328	13.293	13.364
ProbeTrack09	7	ProbeTrack	1470	SCS215a	20090504.120630	20090504.122207	8	0.013327	60	10	60-180	60	161	GapExp	0	142	2	6	0	distractor	1	507	747	98523	13.328	13.290	13.367
ProbeTrack09	7	ProbeTrack	1470	SCS215a	20090504.120630	20090504.122214	8	0.013327	60	10	60-180	60	168	GapExp	0	143	2	3	0	target	0	494	-1000	97523	13.328	13.293	13.363
ProbeTrack09	7	ProbeTrack	1470	SCS215a	20090504.120630	20090504.122221	8	0.013327	60	10	60-180	60	150	GapExp	0	144	2	0	1	target	1	427	787	98310	13.328	13.291	13.363
ProbeTrack09	7	ProbeTrack	1470	SCS215a	20090504.120630	20090504.122226	8	0.013327	60	10	60-180	60	69	GapExp	0	145	2	3	1	target	1	387	807	99117	13.328	13.293	13.363
ProbeTrack09	7	ProbeTrack	1470	SCS215a	20090504.120630	20090504.122233	8	0.013327	60	10	60-180	60	104	GapExp	0	146	2	3	0	distractor	1	574	713	99830	13.328	13.290	13.363
ProbeTrack09	7	ProbeTrack	1470	SCS215a	20090504.120630	20090504.122239	8	0.013327	60	10	60-180	60	110	GapExp	0	147	2	0	1	target	1	414	793	100623	13.328	13.293	13.363
ProbeTrack09	7	ProbeTrack	1470	SCS215a	20090504.120630	20090504.122245	8	0.013327	60	10	60-180	60	125	GapExp	0	148	2	6	0	distractor	1	653	674	101297	13.328	13.293	13.363
ProbeTrack09	7	ProbeTrack	1470	SCS215a	20090504.120630	20090504.122251	8	0.013327	60	10	60-180	60	129	GapExp	0	149	2	0	0	distractor	1	600	700	101997	13.328	13.293	13.363
ProbeTrack09	7	ProbeTrack	1470	SCS215a	20090504.120630	20090504.122257	8	0.013327	60	10	60-180	60	87	GapExp	0	150	2	6	1	target	1	347	827	102824	13.328	13.293	13.363
ProbeTrack09	7	ProbeTrack	1470	SCS215a	20090504.120630	20090504.122303	8	0.013327	60	10	60-180	60	164	GapExp	0	151	2	3	1	target	1	387	807	103631	13.328	13.293	13.363
ProbeTrack09	7	ProbeTrack	1470	SCS215a	20090504.120630	20090504.122309	8	0.013327	60	10	60-180	60	135	GapExp	0	152	2	3	1	target	1	494	753	104384	13.328	13.293	13.366
ProbeTrack09	7	ProbeTrack	1470	SCS215a	20090504.120630	20090504.122315	8	0.013327	60	10	60-180	60	121	GapExp	0	153	2	3	1	target	1	427	787	105171	13.328	13.292	13.367
ProbeTrack09	7	ProbeTrack	1470	SCS215a	20090504.120630	20090504.122337	8	0.013327	60	10	60-180	60	142	GapExp	0	154	2	96	0	distractor	1	480	760	105931	13.328	13.293	13.363
ProbeTrack09	7	ProbeTrack	1470	SCS215a	20090504.120630	20090504.122344	8	0.013327	60	10	60-180	60	76	GapExp	0	155	2	3	1	target	1	320	840	106771	13.328	13.293	13.363
ProbeTrack09	7	ProbeTrack	1470	SCS215a	20090504.120630	20090504.122349	8	0.013327	60	10	60-180	60	122	GapExp	0	156	2	3	0	target	0	400	-1000	105771	13.328	13.293	13.363
ProbeTrack09	7	ProbeTrack	1470	SCS215a	20090504.120630	20090504.122355	8	0.013327	60	10	60-180	60	165	GapExp	0	157	2	0	1	target	1	307	847	106618	13.328	13.293	13.363
ProbeTrack09	7	ProbeTrack	1470	SCS215a	20090504.120630	20090504.122403	8	0.013327	60	10	60-180	60	94	GapExp	0	158	2	6	1	target	1	374	813	107431	13.328	13.293	13.363
ProbeTrack09	7	ProbeTrack	1470	SCS215a	20090504.120630	20090504.122408	8	0.013327	60	10	60-180	60	94	GapExp	0	159	2	96	1	target	1	360	820	108251	13.328	13.293	13.363
ProbeTrack09	7	ProbeTrack	1470	SCS215a	20090504.120630	20090504.122415	8	0.013327	60	10	60-180	60	169	GapExp	0	160	2	3	0	distractor	1	520	740	108991	13.328	13.291	13.364
ProbeTrack09	7	ProbeTrack	1470	SCS215a	20090504.120630	20090504.122421	8	0.013327	60	10	60-180	60	174	GapExp	0	161	2	96	0	distractor	1	547	727	109718	13.328	13.293	13.363
ProbeTrack09	7	ProbeTrack	1470	SCS215a	20090504.120630	20090504.122429	8	0.013327	60	10	60-180	60	83	GapExp	0	162	2	0	1	target	1	414	793	110511	13.328	13.293	13.363
ProbeTrack09	7	ProbeTrack	1470	SCS215a	20090504.120630	20090504.122434	8	0.013327	60	10	60-180	60	98	GapExp	0	163	2	96	1	target	1	374	813	111324	13.328	13.293	13.363
ProbeTrack09	7	ProbeTrack	1470	SCS215a	20090504.120630	20090504.122441	8	0.013327	60	10	60-180	60	77	GapExp	0	164	2	96	1	target	1	360	820	112144	13.328	13.289	13.366
ProbeTrack09	7	ProbeTrack	1470	SCS215a	20090504.120630	20090504.122448	8	0.013327	60	10	60-180	60	170	GapExp	0	165	2	6	1	target	1	440	780	112924	13.328	13.293	13.363
ProbeTrack09	7	ProbeTrack	1470	SCS215a	20090504.120630	20090504.122454	8	0.013327	60	10	60-180	60	114	GapExp	0	166	2	0	0	distractor	1	693	654	113578	13.328	13.293	13.363
ProbeTrack09	7	ProbeTrack	1470	SCS215a	20090504.120630	20090504.122500	8	0.013327	60	10	60-180	60	173	GapExp	0	167	2	0	0	target	0	534	-1000	112578	13.328	13.293	13.363
ProbeTrack09	7	ProbeTrack	1470	SCS215a	20090504.120630	20090504.122507	8	0.013327	60	10	60-180	60	132	GapExp	0	168	2	0	1	target	1	520	740	113318	13.328	13.290	13.363
ProbeTrack09	7	ProbeTrack	1470	SCS215a	20090504.120630	20090504.122513	8	0.013327	60	10	60-180	60	96	GapExp	0	169	2	6	0	distractor	1	533	734	114052	13.328	13.292	13.364
ProbeTrack09	7	ProbeTrack	1470	SCS215a	20090504.120630	20090504.122518	8	0.013327	60	10	60-180	60	116	GapExp	0	170	2	96	1	distractor	0	494	-1000	113052	13.328	13.293	13.363
ProbeTrack09	7	ProbeTrack	1470	SCS215a	20090504.120630	20090504.122525	8	0.013327	60	10	60-180	60	79	GapExp	0	171	2	6	1	target	1	360	820	113872	13.328	13.293	13.363
ProbeTrack09	7	ProbeTrack	1470	SCS215a	20090504.120630	20090504.122531	8	0.013327	60	10	60-180	60	115	GapExp	0	172	2	96	0	distractor	1	547	727	114599	13.328	13.293	13.367
ProbeTrack09	7	ProbeTrack	1470	SCS215a	20090504.120630	20090504.122538	8	0.013327	60	10	60-180	60	100	GapExp	0	173	2	6	1	target	1	347	827	115426	13.328	13.293	13.363
ProbeTrack09	7	ProbeTrack	1470	SCS215a	20090504.120630	20090504.122543	8	0.013327	60	10	60-180	60	112	GapExp	0	174	2	6	1	target	1	454	773	116199	13.328	13.293	13.363
ProbeTrack09	7	ProbeTrack	1470	SCS215a	20090504.120630	20090504.122550	8	0.013327	60	10	60-180	60	172	GapExp	0	175	2	0	1	target	1	587	707	116906	13.328	13.290	13.365
ProbeTrack09	7	ProbeTrack	1470	SCS215a	20090504.120630	20090504.122557	8	0.013327	60	10	60-180	60	133	GapExp	0	176	2	6	0	distractor	1	653	674	117580	13.328	13.293	13.363
ProbeTrack09	7	ProbeTrack	1470	SCS215a	20090504.120630	20090504.122603	8	0.013327	60	10	60-180	60	104	GapExp	0	177	2	96	0	distractor	1	613	694	118274	13.328	13.292	13.363
ProbeTrack09	7	ProbeTrack	1470	SCS215a	20090504.120630	20090504.122610	8	0.013327	60	10	60-180	60	135	GapExp	0	178	2	6	1	target	1	374	813	119087	13.328	13.293	13.363
ProbeTrack09	7	ProbeTrack	1470	SCS215a	20090504.120630	20090504.122616	8	0.013327	60	10	60-180	60	70	GapExp	0	179	2	0	1	target	1	360	820	119907	13.328	13.293	13.365
ProbeTrack09	7	ProbeTrack	1470	SCS215a	20090504.120630	20090504.122621	8	0.013327	60	10	60-180	60	154	GapExp	0	180	2	6	0	distractor	1	520	740	120647	13.328	13.293	13.363
ProbeTrack09	7	ProbeTrack	1470	SCS215a	20090504.120630	20090504.122627	8	0.013327	60	10	60-180	60	175	GapExp	0	181	2	96	0	distractor	1	520	740	121387	13.328	13.289	13.363
ProbeTrack09	7	ProbeTrack	1470	SCS215a	20090504.120630	20090504.122635	8	0.013327	60	10	60-180	60	132	GapExp	0	182	2	3	1	target	1	627	687	122074	13.328	13.293	13.363
ProbeTrack09	7	ProbeTrack	1470	SCS215a	20090504.120630	20090504.122641	8	0.013327	60	10	60-180	60	144	GapExp	0	183	2	3	0	target	0	520	-1000	121074	13.328	13.293	13.363
ProbeTrack09	7	ProbeTrack	1470	SCS215a	20090504.120630	20090504.122648	8	0.013327	60	10	60-180	60	118	GapExp	0	184	2	6	0	distractor	1	520	740	121814	13.328	13.293	13.363
ProbeTrack09	7	ProbeTrack	1470	SCS215a	20090504.120630	20090504.122654	8	0.013327	60	10	60-180	60	159	GapExp	0	185	2	96	1	target	1	440	780	122594	13.328	13.293	13.363
ProbeTrack09	7	ProbeTrack	1470	SCS215a	20090504.120630	20090504.122702	8	0.013327	60	10	60-180	60	73	GapExp	0	186	2	3	0	distractor	1	613	694	123288	13.328	13.293	13.363
ProbeTrack09	7	ProbeTrack	1470	SCS215a	20090504.120630	20090504.122707	8	0.013327	60	10	60-180	60	119	GapExp	0	187	2	3	0	target	0	480	-1000	122288	13.328	13.293	13.363
ProbeTrack09	7	ProbeTrack	1470	SCS215a	20090504.120630	20090504.122713	8	0.013327	60	10	60-180	60	87	GapExp	0	188	2	6	0	distractor	1	467	767	123055	13.328	13.293	13.363
ProbeTrack09	7	ProbeTrack	1470	SCS215a	20090504.120630	20090504.122718	8	0.013327	60	10	60-180	60	110	GapExp	0	189	2	96	1	target	1	454	773	123828	13.328	13.293	13.363
ProbeTrack09	7	ProbeTrack	1470	SCS215a	20090504.120630	20090504.122725	8	0.013327	60	10	60-180	60	112	GapExp	0	190	2	3	1	target	1	440	780	124608	13.328	13.289	13.363
ProbeTrack09	7	ProbeTrack	1470	SCS215a	20090504.120630	20090504.122731	8	0.013327	60	10	60-180	60	133	GapExp	0	191	2	96	1	target	1	334	833	125441	13.328	13.293	13.363
ProbeTrack09	7	ProbeTrack	1470	SCS215a	20090504.120630	20090504.122738	8	0.013327	60	10	60-180	60	124	GapExp	0	192	2	6	0	target	0	414	-1000	124441	13.328	13.293	13.365
ProbeTrack09	7	ProbeTrack	1470	SCS215a	20090504.120630	20090504.122744	8	0.013327	60	10	60-180	60	71	GapExp	0	193	2	6	1	target	1	374	813	125254	13.328	13.293	13.363
ProbeTrack09	7	ProbeTrack	1470	SCS215a	20090504.120630	20090504.122749	8	0.013327	60	10	60-180	60	166	GapExp	0	194	2	3	0	distractor	1	627	687	125941	13.328	13.293	13.363
ProbeTrack09	7	ProbeTrack	1470	SCS215a	20090504.120630	20090504.122756	8	0.013327	60	10	60-180	60	111	GapExp	0	195	2	0	0	distractor	1	573	714	126655	13.328	13.293	13.363
ProbeTrack09	7	ProbeTrack	1470	SCS215a	20090504.120630	20090504.122801	8	0.013327	60	10	60-180	60	92	GapExp	0	196	2	0	0	distractor	1	587	707	127362	13.328	13.293	13.363
ProbeTrack09	7	ProbeTrack	1470	SCS215a	20090504.120630	20090504.122807	8	0.013327	60	10	60-180	60	86	GapExp	0	197	2	0	0	distractor	1	613	694	128056	13.328	13.293	13.364
ProbeTrack09	7	ProbeTrack	1470	SCS215a	20090504.120630	20090504.122812	8	0.013327	60	10	60-180	60	89	GapExp	0	198	2	0	1	target	1	480	760	128816	13.328	13.293	13.364
ProbeTrack09	7	ProbeTrack	1470	SCS215a	20090504.120630	20090504.122817	8	0.013327	60	10	60-180	60	174	GapExp	0	199	2	96	1	distractor	0	2479	-1000	127816	13.328	13.293	13.363
ProbeTrack09	7	ProbeTrack	1470	SCS215a	20090504.120630	20090504.122827	8	0.013327	60	10	60-180	60	94	GapExp	0	200	2	6	1	target	1	454	773	128589	13.328	13.293	13.363
