exp	sub	code	rev	comp	runtime	trialtime	nstim	refreshdur	cuedur	gapdur	gapOnsetRange	durPostProbe	gapOnsetTime	blocktype	prac	trial	ntargets	soa	probeTarget	resp	acc	rt	pts	tpts	meanFrameDur	minFrameDur	maxFrameDur
ProbeTrack09	8	ProbeTrack	1470	SCS215a	20090504.124703	20090504.124706	8	0.013328	60	0	60-180	60	139	NoGap	1	1	2	6	1	distractor	0	1253	-1000	-1000	13.328	13.293	13.363
ProbeTrack09	8	ProbeTrack	1470	SCS215a	20090504.124703	20090504.124747	8	0.013328	60	0	60-180	60	62	NoGap	1	2	2	3	1	target	1	853	574	-426	13.328	13.290	13.366
ProbeTrack09	8	ProbeTrack	1470	SCS215a	20090504.124703	20090504.124758	8	0.013328	60	0	60-180	60	81	NoGap	1	3	2	3	1	target	1	774	613	187	13.328	13.293	13.363
ProbeTrack09	8	ProbeTrack	1470	SCS215a	20090504.124703	20090504.124805	8	0.013328	60	0	60-180	60	98	NoGap	1	4	2	0	0	distractor	1	947	527	714	13.328	13.293	13.363
ProbeTrack09	8	ProbeTrack	1470	SCS215a	20090504.124703	20090504.124812	8	0.013328	60	0	60-180	60	155	NoGap	1	5	2	96	0	distractor	1	853	574	1288	13.328	13.293	13.363
ProbeTrack09	8	ProbeTrack	1470	SCS215a	20090504.124703	20090504.124822	8	0.013328	60	0	60-180	60	135	NoGap	1	6	2	0	1	target	1	733	634	1922	13.328	13.293	13.363
ProbeTrack09	8	ProbeTrack	1470	SCS215a	20090504.124703	20090504.124830	8	0.013328	60	0	60-180	60	133	NoGap	1	7	2	96	1	target	1	693	654	2576	13.328	13.293	13.363
ProbeTrack09	8	ProbeTrack	1470	SCS215a	20090504.124703	20090504.124838	8	0.013328	60	0	60-180	60	87	NoGap	1	8	2	6	0	distractor	1	787	607	3183	13.328	13.293	13.363
ProbeTrack09	8	ProbeTrack	1470	SCS215a	20090504.124703	20090504.124845	8	0.013328	60	0	60-180	60	169	NoGap	1	9	2	3	0	distractor	1	1187	407	3590	13.328	13.293	13.363
ProbeTrack09	8	ProbeTrack	1470	SCS215a	20090504.124703	20090504.124853	8	0.013328	60	0	60-180	60	150	NoGap	1	10	2	6	0	distractor	1	667	667	4257	13.328	13.292	13.363
ProbeTrack09	8	ProbeTrack	1470	SCS215a	20090504.124703	20090504.124859	8	0.013328	60	0	60-180	60	92	NoGap	1	11	2	96	0	distractor	1	614	693	4950	13.328	13.293	13.363
ProbeTrack09	8	ProbeTrack	1470	SCS215a	20090504.124703	20090504.124906	8	0.013328	60	0	60-180	60	64	NoGap	1	12	2	3	0	distractor	1	600	700	5650	13.328	13.293	13.363
ProbeTrack09	8	ProbeTrack	1470	SCS215a	20090504.124703	20090504.124913	8	0.013328	60	0	60-180	60	113	NoGap	1	13	2	0	1	target	1	627	687	6337	13.328	13.293	13.364
ProbeTrack09	8	ProbeTrack	1470	SCS215a	20090504.124703	20090504.124919	8	0.013328	60	0	60-180	60	124	NoGap	1	14	2	96	1	target	1	640	680	7017	13.328	13.293	13.367
ProbeTrack09	8	ProbeTrack	1470	SCS215a	20090504.124703	20090504.124929	8	0.013328	60	0	60-180	60	161	NoGap	1	15	2	0	0	distractor	1	600	700	7717	13.328	13.293	13.363
ProbeTrack09	8	ProbeTrack	1470	SCS215a	20090504.124703	20090504.124936	8	0.013328	60	0	60-180	60	166	NoGap	1	16	2	6	0	distractor	1	534	733	8450	13.328	13.293	13.363
ProbeTrack09	8	ProbeTrack	1470	SCS215a	20090504.124703	20090504.124943	8	0.013328	60	0	60-180	60	73	NoGap	1	17	2	6	1	target	1	693	654	9104	13.328	13.293	13.363
ProbeTrack09	8	ProbeTrack	1470	SCS215a	20090504.124703	20090504.124948	8	0.013328	60	0	60-180	60	180	NoGap	1	18	2	3	0	distractor	1	494	753	9857	13.328	13.290	13.367
ProbeTrack09	8	ProbeTrack	1470	SCS215a	20090504.124703	20090504.124955	8	0.013328	60	0	60-180	60	99	NoGap	1	19	2	6	1	target	1	560	720	10577	13.328	13.293	13.363
ProbeTrack09	8	ProbeTrack	1470	SCS215a	20090504.124703	20090504.125001	8	0.013328	60	0	60-180	60	128	NoGap	1	20	2	96	0	distractor	1	560	720	11297	13.328	13.292	13.364
ProbeTrack09	8	ProbeTrack	1470	SCS215a	20090504.124703	20090504.125009	8	0.013328	60	0	60-180	60	149	NoGap	1	21	2	96	1	target	1	707	647	11944	13.328	13.285	13.363
ProbeTrack09	8	ProbeTrack	1470	SCS215a	20090504.124703	20090504.125018	8	0.013328	60	0	60-180	60	122	NoGap	1	22	2	6	0	distractor	1	534	733	12677	13.328	13.293	13.363
ProbeTrack09	8	ProbeTrack	1470	SCS215a	20090504.124703	20090504.125024	8	0.013328	60	0	60-180	60	89	NoGap	1	23	2	3	1	target	1	547	727	13404	13.328	13.293	13.363
ProbeTrack09	8	ProbeTrack	1470	SCS215a	20090504.124703	20090504.125031	8	0.013328	60	0	60-180	60	81	NoGap	1	24	2	0	0	distractor	1	494	753	14157	13.328	13.293	13.363
ProbeTrack09	8	ProbeTrack	1470	SCS215a	20090504.124703	20090504.125037	8	0.013328	60	0	60-180	60	89	NoGap	1	25	2	96	0	distractor	1	494	753	14910	13.328	13.293	13.363
ProbeTrack09	8	ProbeTrack	1470	SCS215a	20090504.124703	20090504.125044	8	0.013328	60	0	60-180	60	90	NoGap	1	26	2	0	0	target	0	560	-1000	13910	13.328	13.293	13.363
ProbeTrack09	8	ProbeTrack	1470	SCS215a	20090504.124703	20090504.125050	8	0.013328	60	0	60-180	60	176	NoGap	1	27	2	0	0	distractor	1	507	747	14657	13.328	13.293	13.366
ProbeTrack09	8	ProbeTrack	1470	SCS215a	20090504.124703	20090504.125057	8	0.013328	60	0	60-180	60	79	NoGap	1	28	2	3	0	distractor	1	667	667	15324	13.328	13.293	13.363
ProbeTrack09	8	ProbeTrack	1470	SCS215a	20090504.124703	20090504.125103	8	0.013328	60	0	60-180	60	161	NoGap	1	29	2	6	1	target	1	520	740	16064	13.328	13.292	13.363
ProbeTrack09	8	ProbeTrack	1470	SCS215a	20090504.124703	20090504.125110	8	0.013328	60	0	60-180	60	154	NoGap	1	30	2	96	1	distractor	0	467	-1000	15064	13.328	13.292	13.371
ProbeTrack09	8	ProbeTrack	1470	SCS215a	20090504.124703	20090504.125119	8	0.013328	60	0	60-180	60	82	NoGap	1	31	2	0	1	target	1	587	707	15771	13.328	13.293	13.363
ProbeTrack09	8	ProbeTrack	1470	SCS215a	20090504.124703	20090504.125124	8	0.013328	60	0	60-180	60	150	NoGap	1	32	2	3	1	target	1	560	720	16491	13.328	13.293	13.363
ProbeTrack09	8	ProbeTrack	1470	SCS215a	20090504.124703	20090504.125131	8	0.013328	60	0	60-180	60	124	NoGap	1	33	2	0	1	target	1	440	780	17271	13.328	13.290	13.366
ProbeTrack09	8	ProbeTrack	1470	SCS215a	20090504.124703	20090504.125137	8	0.013328	60	0	60-180	60	80	NoGap	1	34	2	0	1	target	1	480	760	18031	13.328	13.293	13.363
ProbeTrack09	8	ProbeTrack	1470	SCS215a	20090504.124703	20090504.125143	8	0.013328	60	0	60-180	60	154	NoGap	1	35	2	3	0	distractor	1	600	700	18731	13.328	13.293	13.364
ProbeTrack09	8	ProbeTrack	1470	SCS215a	20090504.124703	20090504.125150	8	0.013328	60	0	60-180	60	83	NoGap	1	36	2	6	1	target	1	454	773	19504	13.328	13.293	13.363
ProbeTrack09	8	ProbeTrack	1470	SCS215a	20090504.124703	20090504.125155	8	0.013328	60	0	60-180	60	172	NoGap	1	37	2	3	1	target	1	560	720	20224	13.328	13.293	13.363
ProbeTrack09	8	ProbeTrack	1470	SCS215a	20090504.124703	20090504.125202	8	0.013328	60	0	60-180	60	66	NoGap	1	38	2	0	0	distractor	1	587	707	20931	13.328	13.293	13.363
ProbeTrack09	8	ProbeTrack	1470	SCS215a	20090504.124703	20090504.125207	8	0.013328	60	0	60-180	60	172	NoGap	1	39	2	6	0	distractor	1	507	747	21678	13.328	13.293	13.363
ProbeTrack09	8	ProbeTrack	1470	SCS215a	20090504.124703	20090504.125214	8	0.013328	60	0	60-180	60	134	NoGap	1	40	2	3	1	target	1	467	767	22445	13.328	13.293	13.363
ProbeTrack09	8	ProbeTrack	1470	SCS215a	20090504.124703	20090504.125221	8	0.013328	60	0	60-180	60	152	NoGap	1	41	2	6	0	distractor	1	494	753	23198	13.328	13.293	13.363
ProbeTrack09	8	ProbeTrack	1470	SCS215a	20090504.124703	20090504.125228	8	0.013328	60	0	60-180	60	95	NoGap	1	42	2	6	1	distractor	0	507	-1000	22198	13.328	13.293	13.363
ProbeTrack09	8	ProbeTrack	1470	SCS215a	20090504.124703	20090504.125233	8	0.013328	60	0	60-180	60	103	NoGap	1	43	2	6	0	distractor	1	667	667	22865	13.328	13.293	13.363
ProbeTrack09	8	ProbeTrack	1470	SCS215a	20090504.124703	20090504.125240	8	0.013328	60	0	60-180	60	115	NoGap	1	44	2	96	0	distractor	1	627	687	23552	13.328	13.293	13.363
ProbeTrack09	8	ProbeTrack	1470	SCS215a	20090504.124703	20090504.125248	8	0.013328	60	0	60-180	60	115	NoGap	1	45	2	96	1	target	1	627	687	24239	13.328	13.293	13.363
ProbeTrack09	8	ProbeTrack	1470	SCS215a	20090504.124703	20090504.125255	8	0.013328	60	0	60-180	60	138	NoGap	1	46	2	96	1	target	1	440	780	25019	13.328	13.290	13.366
ProbeTrack09	8	ProbeTrack	1470	SCS215a	20090504.124703	20090504.125302	8	0.013328	60	0	60-180	60	74	NoGap	1	47	2	96	0	distractor	1	440	780	25799	13.328	13.293	13.363
ProbeTrack09	8	ProbeTrack	1470	SCS215a	20090504.124703	20090504.125309	8	0.013328	60	0	60-180	60	173	NoGap	1	48	2	0	1	distractor	0	853	-1000	24799	13.328	13.293	13.366
ProbeTrack09	8	ProbeTrack	1470	SCS215a	20090504.124703	20090504.125316	8	0.013328	60	0	60-180	60	123	NoGap	1	49	2	3	1	target	1	534	733	25532	13.328	13.293	13.363
ProbeTrack09	8	ProbeTrack	1470	SCS215a	20090504.124703	20090504.125322	8	0.013328	60	0	60-180	60	147	NoGap	1	50	2	3	0	distractor	1	440	780	26312	13.328	13.290	13.363
ProbeTrack09	8	ProbeTrack	1470	SCS215a	20090504.125411	20090504.125416	8	0.013328	60	10	60-180	60	119	GapPrac	1	1	2	0	1	target	1	880	560	26872	13.328	13.293	13.363
ProbeTrack09	8	ProbeTrack	1470	SCS215a	20090504.125411	20090504.125427	8	0.013328	60	10	60-180	60	137	GapPrac	1	2	2	3	1	target	1	653	674	27546	13.328	13.293	13.363
ProbeTrack09	8	ProbeTrack	1470	SCS215a	20090504.125411	20090504.125440	8	0.013328	60	10	60-180	60	140	GapPrac	1	3	2	96	0	distractor	1	587	707	28253	13.328	13.293	13.365
ProbeTrack09	8	ProbeTrack	1470	SCS215a	20090504.125411	20090504.125449	8	0.013328	60	10	60-180	60	133	GapPrac	1	4	2	6	1	target	1	520	740	28993	13.328	13.291	13.363
ProbeTrack09	8	ProbeTrack	1470	SCS215a	20090504.125411	20090504.125456	8	0.013328	60	10	60-180	60	125	GapPrac	1	5	2	96	0	distractor	1	547	727	29720	13.328	13.293	13.363
ProbeTrack09	8	ProbeTrack	1470	SCS215a	20090504.125411	20090504.125503	8	0.013328	60	10	60-180	60	103	GapPrac	1	6	2	0	1	target	1	587	707	30427	13.328	13.293	13.363
ProbeTrack09	8	ProbeTrack	1470	SCS215a	20090504.125411	20090504.125510	8	0.013328	60	10	60-180	60	106	GapPrac	1	7	2	3	1	target	1	547	727	31154	13.328	13.293	13.362
ProbeTrack09	8	ProbeTrack	1470	SCS215a	20090504.125411	20090504.125516	8	0.013328	60	10	60-180	60	100	GapPrac	1	8	2	6	0	distractor	1	533	734	31888	13.328	13.292	13.363
ProbeTrack09	8	ProbeTrack	1470	SCS215a	20090504.125411	20090504.125522	8	0.013328	60	10	60-180	60	165	GapPrac	1	9	2	3	0	distractor	1	520	740	32628	13.328	13.292	13.363
ProbeTrack09	8	ProbeTrack	1470	SCS215a	20090504.125411	20090504.125529	8	0.013328	60	10	60-180	60	125	GapPrac	1	10	2	96	1	distractor	0	747	-1000	31628	13.328	13.293	13.365
ProbeTrack09	8	ProbeTrack	1470	SCS215a	20090504.125411	20090504.125537	8	0.013328	60	10	60-180	60	119	GapPrac	1	11	2	0	1	target	1	547	727	32355	13.328	13.293	13.363
ProbeTrack09	8	ProbeTrack	1470	SCS215a	20090504.125411	20090504.125543	8	0.013328	60	10	60-180	60	147	GapPrac	1	12	2	3	0	distractor	1	560	720	33075	13.328	13.293	13.363
ProbeTrack09	8	ProbeTrack	1470	SCS215a	20090504.125411	20090504.125550	8	0.013328	60	10	60-180	60	140	GapPrac	1	13	2	6	1	target	1	454	773	33848	13.328	13.293	13.363
ProbeTrack09	8	ProbeTrack	1470	SCS215a	20090504.125411	20090504.125557	8	0.013328	60	10	60-180	60	109	GapPrac	1	14	2	96	0	distractor	1	520	740	34588	13.328	13.291	13.363
ProbeTrack09	8	ProbeTrack	1470	SCS215a	20090504.125411	20090504.125604	8	0.013328	60	10	60-180	60	172	GapPrac	1	15	2	3	1	target	1	467	767	35355	13.328	13.293	13.363
ProbeTrack09	8	ProbeTrack	1470	SCS215a	20090504.125411	20090504.125611	8	0.013328	60	10	60-180	60	168	GapPrac	1	16	2	6	0	distractor	1	534	733	36088	13.328	13.292	13.363
ProbeTrack09	8	ProbeTrack	1470	SCS215a	20090504.125411	20090504.125618	8	0.013328	60	10	60-180	60	174	GapPrac	1	17	2	6	1	target	1	534	733	36821	13.328	13.293	13.363
ProbeTrack09	8	ProbeTrack	1470	SCS215a	20090504.125411	20090504.125625	8	0.013328	60	10	60-180	60	156	GapPrac	1	18	2	96	1	target	1	627	687	37508	13.328	13.293	13.363
ProbeTrack09	8	ProbeTrack	1470	SCS215a	20090504.125411	20090504.125633	8	0.013328	60	10	60-180	60	111	GapPrac	1	19	2	0	0	distractor	1	587	707	38215	13.328	13.293	13.363
ProbeTrack09	8	ProbeTrack	1470	SCS215a	20090504.125411	20090504.125639	8	0.013328	60	10	60-180	60	178	GapPrac	1	20	2	0	0	distractor	1	653	674	38889	13.328	13.290	13.366
ProbeTrack09	8	ProbeTrack	1470	SCS215a	20090504.125738	20090504.125747	8	0.013328	60	10	60-180	60	113	GapExp	1	1	2	3	1	target	1	507	747	39636	13.328	13.293	13.363
ProbeTrack09	8	ProbeTrack	1470	SCS215a	20090504.125738	20090504.125759	8	0.013328	60	10	60-180	60	158	GapExp	1	2	2	3	0	distractor	1	427	787	40423	13.328	13.293	13.363
ProbeTrack09	8	ProbeTrack	1470	SCS215a	20090504.125738	20090504.125807	8	0.013328	60	10	60-180	60	86	GapExp	1	3	2	6	0	distractor	1	493	754	41177	13.328	13.293	13.363
ProbeTrack09	8	ProbeTrack	1470	SCS215a	20090504.125738	20090504.125813	8	0.013328	60	10	60-180	60	172	GapExp	1	4	2	96	0	distractor	1	520	740	41917	13.328	13.293	13.363
ProbeTrack09	8	ProbeTrack	1470	SCS215a	20090504.125738	20090504.125821	8	0.013328	60	10	60-180	60	165	GapExp	1	5	2	0	0	distractor	1	454	773	42690	13.328	13.293	13.363
ProbeTrack09	8	ProbeTrack	1470	SCS215a	20090504.125738	20090504.125828	8	0.013328	60	10	60-180	60	61	GapExp	1	6	2	6	1	target	1	507	747	43437	13.328	13.293	13.363
ProbeTrack09	8	ProbeTrack	1470	SCS215a	20090504.125738	20090504.125834	8	0.013328	60	10	60-180	60	163	GapExp	1	7	2	0	1	target	1	627	687	44124	13.328	13.293	13.363
ProbeTrack09	8	ProbeTrack	1470	SCS215a	20090504.125738	20090504.125840	8	0.013328	60	10	60-180	60	116	GapExp	1	8	2	96	1	distractor	0	360	-1000	43124	13.328	13.293	13.363
ProbeTrack09	8	ProbeTrack	1470	SCS215a	20090504.125738	20090504.125848	8	0.013328	60	10	60-180	60	124	GapExp	0	9	2	3	0	target	0	574	-1000	42124	13.328	13.293	13.363
ProbeTrack09	8	ProbeTrack	1470	SCS215a	20090504.125738	20090504.125855	8	0.013328	60	10	60-180	60	118	GapExp	0	10	2	3	0	target	0	813	-1000	41124	13.328	13.293	13.363
ProbeTrack09	8	ProbeTrack	1470	SCS215a	20090504.125738	20090504.125902	8	0.013328	60	10	60-180	60	129	GapExp	0	11	2	96	0	distractor	1	653	674	41798	13.328	13.293	13.365
ProbeTrack09	8	ProbeTrack	1470	SCS215a	20090504.125738	20090504.125910	8	0.013328	60	10	60-180	60	98	GapExp	0	12	2	0	0	target	0	627	-1000	40798	13.328	13.293	13.364
ProbeTrack09	8	ProbeTrack	1470	SCS215a	20090504.125738	20090504.125916	8	0.013328	60	10	60-180	60	160	GapExp	0	13	2	0	1	target	1	734	633	41431	13.328	13.293	13.363
ProbeTrack09	8	ProbeTrack	1470	SCS215a	20090504.125738	20090504.125923	8	0.013328	60	10	60-180	60	136	GapExp	0	14	2	6	1	target	1	547	727	42158	13.328	13.293	13.363
ProbeTrack09	8	ProbeTrack	1470	SCS215a	20090504.125738	20090504.125929	8	0.013328	60	10	60-180	60	152	GapExp	0	15	2	0	1	target	1	534	733	42891	13.328	13.293	13.363
ProbeTrack09	8	ProbeTrack	1470	SCS215a	20090504.125738	20090504.130003	8	0.013328	60	10	60-180	60	92	GapExp	0	16	2	96	1	distractor	0	733	-1000	41891	13.328	13.292	13.363
ProbeTrack09	8	ProbeTrack	1470	SCS215a	20090504.125738	20090504.130010	8	0.013328	60	10	60-180	60	76	GapExp	0	17	2	96	0	distractor	1	480	760	42651	13.328	13.293	13.365
ProbeTrack09	8	ProbeTrack	1470	SCS215a	20090504.125738	20090504.130018	8	0.013328	60	10	60-180	60	155	GapExp	0	18	2	6	0	target	0	653	-1000	41651	13.328	13.293	13.363
ProbeTrack09	8	ProbeTrack	1470	SCS215a	20090504.125738	20090504.130025	8	0.013328	60	10	60-180	60	106	GapExp	0	19	2	0	1	target	1	627	687	42338	13.328	13.293	13.363
ProbeTrack09	8	ProbeTrack	1470	SCS215a	20090504.125738	20090504.130031	8	0.013328	60	10	60-180	60	156	GapExp	0	20	2	6	0	distractor	1	773	614	42952	13.328	13.293	13.364
ProbeTrack09	8	ProbeTrack	1470	SCS215a	20090504.125738	20090504.130038	8	0.013328	60	10	60-180	60	109	GapExp	0	21	2	96	1	target	1	587	707	43659	13.328	13.293	13.363
ProbeTrack09	8	ProbeTrack	1470	SCS215a	20090504.125738	20090504.130046	8	0.013328	60	10	60-180	60	122	GapExp	0	22	2	0	1	target	1	507	747	44406	13.328	13.293	13.363
ProbeTrack09	8	ProbeTrack	1470	SCS215a	20090504.125738	20090504.130052	8	0.013328	60	10	60-180	60	158	GapExp	0	23	2	3	1	target	1	480	760	45166	13.328	13.293	13.363
ProbeTrack09	8	ProbeTrack	1470	SCS215a	20090504.125738	20090504.130100	8	0.013328	60	10	60-180	60	132	GapExp	0	24	2	3	0	distractor	1	720	640	45806	13.328	13.292	13.363
ProbeTrack09	8	ProbeTrack	1470	SCS215a	20090504.125738	20090504.130107	8	0.013328	60	10	60-180	60	111	GapExp	0	25	2	3	1	target	1	480	760	46566	13.328	13.293	13.363
ProbeTrack09	8	ProbeTrack	1470	SCS215a	20090504.125738	20090504.130113	8	0.013328	60	10	60-180	60	145	GapExp	0	26	2	96	0	distractor	1	480	760	47326	13.328	13.293	13.363
ProbeTrack09	8	ProbeTrack	1470	SCS215a	20090504.125738	20090504.130121	8	0.013328	60	10	60-180	60	87	GapExp	0	27	2	3	1	target	1	600	700	48026	13.328	13.293	13.363
ProbeTrack09	8	ProbeTrack	1470	SCS215a	20090504.125738	20090504.130127	8	0.013328	60	10	60-180	60	122	GapExp	0	28	2	6	0	distractor	1	533	734	48760	13.328	13.293	13.363
ProbeTrack09	8	ProbeTrack	1470	SCS215a	20090504.125738	20090504.130134	8	0.013328	60	10	60-180	60	170	GapExp	0	29	2	6	1	target	1	494	753	49513	13.328	13.293	13.363
ProbeTrack09	8	ProbeTrack	1470	SCS215a	20090504.125738	20090504.130141	8	0.013328	60	10	60-180	60	82	GapExp	0	30	2	6	0	distractor	1	480	760	50273	13.328	13.293	13.363
ProbeTrack09	8	ProbeTrack	1470	SCS215a	20090504.125738	20090504.130147	8	0.013328	60	10	60-180	60	111	GapExp	0	31	2	3	0	distractor	1	587	707	50980	13.328	13.293	13.363
ProbeTrack09	8	ProbeTrack	1470	SCS215a	20090504.125738	20090504.130153	8	0.013328	60	10	60-180	60	124	GapExp	0	32	2	3	0	distractor	1	534	733	51713	13.328	13.293	13.363
ProbeTrack09	8	ProbeTrack	1470	SCS215a	20090504.125738	20090504.130200	8	0.013328	60	10	60-180	60	135	GapExp	0	33	2	3	0	distractor	1	414	793	52506	13.328	13.293	13.363
ProbeTrack09	8	ProbeTrack	1470	SCS215a	20090504.125738	20090504.130206	8	0.013328	60	10	60-180	60	178	GapExp	0	34	2	6	0	distractor	1	587	707	53213	13.328	13.292	13.363
ProbeTrack09	8	ProbeTrack	1470	SCS215a	20090504.125738	20090504.130214	8	0.013328	60	10	60-180	60	82	GapExp	0	35	2	6	1	target	1	494	753	53966	13.328	13.290	13.364
ProbeTrack09	8	ProbeTrack	1470	SCS215a	20090504.125738	20090504.130220	8	0.013328	60	10	60-180	60	132	GapExp	0	36	2	96	1	target	1	494	753	54719	13.328	13.293	13.363
ProbeTrack09	8	ProbeTrack	1470	SCS215a	20090504.125738	20090504.130227	8	0.013328	60	10	60-180	60	79	GapExp	0	37	2	3	1	target	1	440	780	55499	13.328	13.293	13.363
ProbeTrack09	8	ProbeTrack	1470	SCS215a	20090504.125738	20090504.130233	8	0.013328	60	10	60-180	60	166	GapExp	0	38	2	0	1	target	1	440	780	56279	13.328	13.293	13.363
ProbeTrack09	8	ProbeTrack	1470	SCS215a	20090504.125738	20090504.130240	8	0.013328	60	10	60-180	60	102	GapExp	0	39	2	6	1	target	1	440	780	57059	13.328	13.292	13.363
ProbeTrack09	8	ProbeTrack	1470	SCS215a	20090504.125738	20090504.130246	8	0.013328	60	10	60-180	60	71	GapExp	0	40	2	96	1	distractor	0	360	-1000	56059	13.328	13.293	13.363
ProbeTrack09	8	ProbeTrack	1470	SCS215a	20090504.125738	20090504.130253	8	0.013328	60	10	60-180	60	85	GapExp	0	41	2	96	0	distractor	1	507	747	56806	13.328	13.293	13.365
ProbeTrack09	8	ProbeTrack	1470	SCS215a	20090504.125738	20090504.130300	8	0.013328	60	10	60-180	60	158	GapExp	0	42	2	96	0	distractor	1	507	747	57553	13.328	13.293	13.363
ProbeTrack09	8	ProbeTrack	1470	SCS215a	20090504.125738	20090504.130308	8	0.013328	60	10	60-180	60	113	GapExp	0	43	2	0	0	distractor	1	627	687	58240	13.328	13.293	13.364
ProbeTrack09	8	ProbeTrack	1470	SCS215a	20090504.125738	20090504.130314	8	0.013328	60	10	60-180	60	91	GapExp	0	44	2	96	1	target	1	560	720	58960	13.328	13.290	13.366
ProbeTrack09	8	ProbeTrack	1470	SCS215a	20090504.125738	20090504.130322	8	0.013328	60	10	60-180	60	130	GapExp	0	45	2	6	0	target	0	520	-1000	57960	13.328	13.293	13.363
ProbeTrack09	8	ProbeTrack	1470	SCS215a	20090504.125738	20090504.130329	8	0.013328	60	10	60-180	60	167	GapExp	0	46	2	0	1	distractor	0	587	-1000	56960	13.328	13.293	13.363
ProbeTrack09	8	ProbeTrack	1470	SCS215a	20090504.125738	20090504.130336	8	0.013328	60	10	60-180	60	78	GapExp	0	47	2	0	1	target	1	507	747	57707	13.328	13.293	13.363
ProbeTrack09	8	ProbeTrack	1470	SCS215a	20090504.125738	20090504.130341	8	0.013328	60	10	60-180	60	145	GapExp	0	48	2	3	0	distractor	1	600	700	58407	13.328	13.293	13.363
ProbeTrack09	8	ProbeTrack	1470	SCS215a	20090504.125738	20090504.130348	8	0.013328	60	10	60-180	60	124	GapExp	0	49	2	3	0	distractor	1	494	753	59160	13.328	13.291	13.364
ProbeTrack09	8	ProbeTrack	1470	SCS215a	20090504.125738	20090504.130355	8	0.013328	60	10	60-180	60	161	GapExp	0	50	2	0	1	target	1	547	727	59887	13.328	13.293	13.363
ProbeTrack09	8	ProbeTrack	1470	SCS215a	20090504.125738	20090504.130402	8	0.013328	60	10	60-180	60	125	GapExp	0	51	2	6	1	target	1	613	694	60581	13.328	13.293	13.363
ProbeTrack09	8	ProbeTrack	1470	SCS215a	20090504.125738	20090504.130518	8	0.013328	60	10	60-180	60	138	GapExp	0	52	2	3	1	target	1	653	674	61255	13.328	13.293	13.364
ProbeTrack09	8	ProbeTrack	1470	SCS215a	20090504.125738	20090504.130525	8	0.013328	60	10	60-180	60	175	GapExp	0	53	2	6	0	target	0	520	-1000	60255	13.328	13.293	13.363
ProbeTrack09	8	ProbeTrack	1470	SCS215a	20090504.125738	20090504.130532	8	0.013328	60	10	60-180	60	117	GapExp	0	54	2	3	0	target	0	520	-1000	59255	13.328	13.290	13.368
ProbeTrack09	8	ProbeTrack	1470	SCS215a	20090504.125738	20090504.130538	8	0.013328	60	10	60-180	60	100	GapExp	0	55	2	6	0	distractor	1	467	767	60022	13.328	13.292	13.363
ProbeTrack09	8	ProbeTrack	1470	SCS215a	20090504.125738	20090504.130544	8	0.013328	60	10	60-180	60	87	GapExp	0	56	2	96	0	distractor	1	520	740	60762	13.328	13.293	13.363
ProbeTrack09	8	ProbeTrack	1470	SCS215a	20090504.125738	20090504.130551	8	0.013328	60	10	60-180	60	176	GapExp	0	57	2	6	0	distractor	1	547	727	61489	13.328	13.293	13.363
ProbeTrack09	8	ProbeTrack	1470	SCS215a	20090504.125738	20090504.130558	8	0.013328	60	10	60-180	60	175	GapExp	0	58	2	6	1	target	1	693	654	62143	13.328	13.293	13.363
ProbeTrack09	8	ProbeTrack	1470	SCS215a	20090504.125738	20090504.130605	8	0.013328	60	10	60-180	60	178	GapExp	0	59	2	3	1	target	1	480	760	62903	13.328	13.292	13.364
ProbeTrack09	8	ProbeTrack	1470	SCS215a	20090504.125738	20090504.130612	8	0.013328	60	10	60-180	60	69	GapExp	0	60	2	96	0	distractor	1	507	747	63650	13.328	13.293	13.363
ProbeTrack09	8	ProbeTrack	1470	SCS215a	20090504.125738	20090504.130619	8	0.013328	60	10	60-180	60	64	GapExp	0	61	2	0	0	distractor	1	520	740	64390	13.328	13.293	13.363
ProbeTrack09	8	ProbeTrack	1470	SCS215a	20090504.125738	20090504.130624	8	0.013328	60	10	60-180	60	118	GapExp	0	62	2	6	0	distractor	1	440	780	65170	13.328	13.291	13.363
ProbeTrack09	8	ProbeTrack	1470	SCS215a	20090504.125738	20090504.130630	8	0.013328	60	10	60-180	60	80	GapExp	0	63	2	0	1	target	1	560	720	65890	13.328	13.293	13.363
ProbeTrack09	8	ProbeTrack	1470	SCS215a	20090504.125738	20090504.130636	8	0.013328	60	10	60-180	60	71	GapExp	0	64	2	6	1	target	1	560	720	66610	13.328	13.293	13.363
ProbeTrack09	8	ProbeTrack	1470	SCS215a	20090504.125738	20090504.130642	8	0.013328	60	10	60-180	60	173	GapExp	0	65	2	3	1	target	1	627	687	67297	13.328	13.293	13.363
ProbeTrack09	8	ProbeTrack	1470	SCS215a	20090504.125738	20090504.130649	8	0.013328	60	10	60-180	60	108	GapExp	0	66	2	3	0	distractor	1	534	733	68030	13.328	13.293	13.363
ProbeTrack09	8	ProbeTrack	1470	SCS215a	20090504.125738	20090504.130656	8	0.013328	60	10	60-180	60	136	GapExp	0	67	2	0	0	distractor	1	467	767	68797	13.328	13.290	13.363
ProbeTrack09	8	ProbeTrack	1470	SCS215a	20090504.125738	20090504.130702	8	0.013328	60	10	60-180	60	100	GapExp	0	68	2	6	0	distractor	1	480	760	69557	13.328	13.293	13.363
ProbeTrack09	8	ProbeTrack	1470	SCS215a	20090504.125738	20090504.130708	8	0.013328	60	10	60-180	60	76	GapExp	0	69	2	3	0	distractor	1	560	720	70277	13.328	13.293	13.363
ProbeTrack09	8	ProbeTrack	1470	SCS215a	20090504.125738	20090504.130714	8	0.013328	60	10	60-180	60	77	GapExp	0	70	2	3	1	target	1	667	667	70944	13.328	13.293	13.363
ProbeTrack09	8	ProbeTrack	1470	SCS215a	20090504.125738	20090504.130720	8	0.013328	60	10	60-180	60	175	GapExp	0	71	2	0	1	target	1	494	753	71697	13.328	13.293	13.363
ProbeTrack09	8	ProbeTrack	1470	SCS215a	20090504.125738	20090504.130727	8	0.013328	60	10	60-180	60	149	GapExp	0	72	2	96	1	distractor	0	400	-1000	70697	13.328	13.290	13.363
ProbeTrack09	8	ProbeTrack	1470	SCS215a	20090504.125738	20090504.130734	8	0.013328	60	10	60-180	60	166	GapExp	0	73	2	3	0	target	0	707	-1000	69697	13.328	13.293	13.363
ProbeTrack09	8	ProbeTrack	1470	SCS215a	20090504.125738	20090504.130741	8	0.013328	60	10	60-180	60	135	GapExp	0	74	2	3	0	distractor	1	480	760	70457	13.328	13.292	13.363
ProbeTrack09	8	ProbeTrack	1470	SCS215a	20090504.125738	20090504.130748	8	0.013328	60	10	60-180	60	100	GapExp	0	75	2	96	1	target	1	494	753	71210	13.328	13.293	13.363
ProbeTrack09	8	ProbeTrack	1470	SCS215a	20090504.125738	20090504.130755	8	0.013328	60	10	60-180	60	116	GapExp	0	76	2	96	1	target	1	560	720	71930	13.328	13.293	13.363
ProbeTrack09	8	ProbeTrack	1470	SCS215a	20090504.125738	20090504.130802	8	0.013328	60	10	60-180	60	118	GapExp	0	77	2	0	0	distractor	1	680	660	72590	13.328	13.293	13.363
ProbeTrack09	8	ProbeTrack	1470	SCS215a	20090504.125738	20090504.130809	8	0.013328	60	10	60-180	60	146	GapExp	0	78	2	3	1	target	1	440	780	73370	13.328	13.293	13.363
ProbeTrack09	8	ProbeTrack	1470	SCS215a	20090504.125738	20090504.130815	8	0.013328	60	10	60-180	60	147	GapExp	0	79	2	96	1	target	1	467	767	74137	13.328	13.293	13.363
ProbeTrack09	8	ProbeTrack	1470	SCS215a	20090504.125738	20090504.130823	8	0.013328	60	10	60-180	60	91	GapExp	0	80	2	3	0	target	0	760	-1000	73137	13.328	13.293	13.362
ProbeTrack09	8	ProbeTrack	1470	SCS215a	20090504.125738	20090504.130829	8	0.013328	60	10	60-180	60	119	GapExp	0	81	2	0	1	target	1	494	753	73890	13.328	13.293	13.363
ProbeTrack09	8	ProbeTrack	1470	SCS215a	20090504.125738	20090504.130836	8	0.013328	60	10	60-180	60	61	GapExp	0	82	2	0	0	target	0	533	-1000	72890	13.328	13.293	13.365
ProbeTrack09	8	ProbeTrack	1470	SCS215a	20090504.125738	20090504.130842	8	0.013328	60	10	60-180	60	170	GapExp	0	83	2	96	1	target	1	573	714	73604	13.328	13.290	13.366
ProbeTrack09	8	ProbeTrack	1470	SCS215a	20090504.125738	20090504.130850	8	0.013328	60	10	60-180	60	109	GapExp	0	84	2	6	1	target	1	573	714	74318	13.328	13.293	13.363
ProbeTrack09	8	ProbeTrack	1470	SCS215a	20090504.125738	20090504.130912	8	0.013328	60	10	60-180	60	89	GapExp	0	85	2	3	0	distractor	1	467	767	75085	13.328	13.293	13.363
ProbeTrack09	8	ProbeTrack	1470	SCS215a	20090504.125738	20090504.130917	8	0.013328	60	10	60-180	60	101	GapExp	0	86	2	96	0	distractor	1	587	707	75792	13.328	13.293	13.363
ProbeTrack09	8	ProbeTrack	1470	SCS215a	20090504.125738	20090504.130925	8	0.013328	60	10	60-180	60	119	GapExp	0	87	2	6	0	distractor	1	494	753	76545	13.328	13.289	13.363
ProbeTrack09	8	ProbeTrack	1470	SCS215a	20090504.125738	20090504.130931	8	0.013328	60	10	60-180	60	79	GapExp	0	88	2	6	0	target	0	494	-1000	75545	13.328	13.293	13.363
ProbeTrack09	8	ProbeTrack	1470	SCS215a	20090504.125738	20090504.130937	8	0.013328	60	10	60-180	60	100	GapExp	0	89	2	6	1	target	1	534	733	76278	13.328	13.292	13.363
ProbeTrack09	8	ProbeTrack	1470	SCS215a	20090504.125738	20090504.130943	8	0.013328	60	10	60-180	60	169	GapExp	0	90	2	96	0	distractor	1	467	767	77045	13.328	13.292	13.363
ProbeTrack09	8	ProbeTrack	1470	SCS215a	20090504.125738	20090504.130953	8	0.013328	60	10	60-180	60	150	GapExp	0	91	2	96	0	distractor	1	440	780	77825	13.328	13.292	13.363
ProbeTrack09	8	ProbeTrack	1470	SCS215a	20090504.125738	20090504.131001	8	0.013328	60	10	60-180	60	147	GapExp	0	92	2	6	0	distractor	1	560	720	78545	13.328	13.293	13.363
ProbeTrack09	8	ProbeTrack	1470	SCS215a	20090504.125738	20090504.131007	8	0.013328	60	10	60-180	60	123	GapExp	0	93	2	0	0	distractor	1	480	760	79305	13.328	13.293	13.363
ProbeTrack09	8	ProbeTrack	1470	SCS215a	20090504.125738	20090504.131014	8	0.013328	60	10	60-180	60	151	GapExp	0	94	2	6	0	distractor	1	467	767	80072	13.328	13.293	13.363
ProbeTrack09	8	ProbeTrack	1470	SCS215a	20090504.125738	20090504.131020	8	0.013328	60	10	60-180	60	121	GapExp	0	95	2	6	1	distractor	0	360	-1000	79072	13.328	13.293	13.363
ProbeTrack09	8	ProbeTrack	1470	SCS215a	20090504.125738	20090504.131027	8	0.013328	60	10	60-180	60	96	GapExp	0	96	2	96	0	distractor	1	640	680	79752	13.328	13.293	13.364
ProbeTrack09	8	ProbeTrack	1470	SCS215a	20090504.125738	20090504.131034	8	0.013328	60	10	60-180	60	154	GapExp	0	97	2	3	1	target	1	494	753	80505	13.328	13.290	13.363
ProbeTrack09	8	ProbeTrack	1470	SCS215a	20090504.125738	20090504.131041	8	0.013328	60	10	60-180	60	118	GapExp	0	98	2	6	1	target	1	427	787	81292	13.328	13.293	13.363
ProbeTrack09	8	ProbeTrack	1470	SCS215a	20090504.125738	20090504.131047	8	0.013328	60	10	60-180	60	63	GapExp	0	99	2	0	0	target	0	507	-1000	80292	13.328	13.293	13.363
ProbeTrack09	8	ProbeTrack	1470	SCS215a	20090504.125738	20090504.131052	8	0.013328	60	10	60-180	60	170	GapExp	0	100	2	3	0	distractor	1	573	714	81006	13.328	13.293	13.363
ProbeTrack09	8	ProbeTrack	1470	SCS215a	20090504.125738	20090504.131059	8	0.013328	60	10	60-180	60	82	GapExp	0	101	2	96	1	distractor	0	720	-1000	80006	13.328	13.293	13.363
ProbeTrack09	8	ProbeTrack	1470	SCS215a	20090504.125738	20090504.131207	8	0.013328	60	10	60-180	60	169	GapExp	0	102	2	0	1	target	1	440	780	80786	13.328	13.291	13.363
ProbeTrack09	8	ProbeTrack	1470	SCS215a	20090504.125738	20090504.131215	8	0.013328	60	10	60-180	60	146	GapExp	0	103	2	0	1	target	1	440	780	81566	13.328	13.292	13.363
ProbeTrack09	8	ProbeTrack	1470	SCS215a	20090504.125738	20090504.131221	8	0.013328	60	10	60-180	60	131	GapExp	0	104	2	0	0	distractor	1	480	760	82326	13.328	13.293	13.363
ProbeTrack09	8	ProbeTrack	1470	SCS215a	20090504.125738	20090504.131228	8	0.013328	60	10	60-180	60	126	GapExp	0	105	2	6	1	target	1	440	780	83106	13.328	13.293	13.366
ProbeTrack09	8	ProbeTrack	1470	SCS215a	20090504.125738	20090504.131234	8	0.013328	60	10	60-180	60	75	GapExp	0	106	2	0	0	distractor	1	520	740	83846	13.328	13.293	13.363
ProbeTrack09	8	ProbeTrack	1470	SCS215a	20090504.125738	20090504.131239	8	0.013328	60	10	60-180	60	168	GapExp	0	107	2	3	0	target	0	640	-1000	82846	13.328	13.289	13.363
ProbeTrack09	8	ProbeTrack	1470	SCS215a	20090504.125738	20090504.131246	8	0.013328	60	10	60-180	60	141	GapExp	0	108	2	96	0	distractor	1	440	780	83626	13.328	13.293	13.365
ProbeTrack09	8	ProbeTrack	1470	SCS215a	20090504.125738	20090504.131254	8	0.013328	60	10	60-180	60	154	GapExp	0	109	2	0	1	target	1	440	780	84406	13.328	13.293	13.363
ProbeTrack09	8	ProbeTrack	1470	SCS215a	20090504.125738	20090504.131301	8	0.013328	60	10	60-180	60	76	GapExp	0	110	2	96	0	distractor	1	494	753	85159	13.328	13.293	13.363
ProbeTrack09	8	ProbeTrack	1470	SCS215a	20090504.125738	20090504.131307	8	0.013328	60	10	60-180	60	122	GapExp	0	111	2	96	0	distractor	1	440	780	85939	13.328	13.293	13.363
ProbeTrack09	8	ProbeTrack	1470	SCS215a	20090504.125738	20090504.131315	8	0.013328	60	10	60-180	60	82	GapExp	0	112	2	3	1	target	1	454	773	86712	13.328	13.293	13.363
ProbeTrack09	8	ProbeTrack	1470	SCS215a	20090504.125738	20090504.131320	8	0.013328	60	10	60-180	60	73	GapExp	0	113	2	6	0	distractor	1	440	780	87492	13.328	13.293	13.363
ProbeTrack09	8	ProbeTrack	1470	SCS215a	20090504.125738	20090504.131326	8	0.013328	60	10	60-180	60	99	GapExp	0	114	2	6	1	target	1	454	773	88265	13.328	13.293	13.363
ProbeTrack09	8	ProbeTrack	1470	SCS215a	20090504.125738	20090504.131332	8	0.013328	60	10	60-180	60	146	GapExp	0	115	2	96	0	distractor	1	480	760	89025	13.328	13.293	13.363
ProbeTrack09	8	ProbeTrack	1470	SCS215a	20090504.125738	20090504.131340	8	0.013328	60	10	60-180	60	69	GapExp	0	116	2	96	0	distractor	1	427	787	89812	13.328	13.293	13.362
ProbeTrack09	8	ProbeTrack	1470	SCS215a	20090504.125738	20090504.131347	8	0.013328	60	10	60-180	60	143	GapExp	0	117	2	3	0	distractor	1	400	800	90612	13.328	13.293	13.366
ProbeTrack09	8	ProbeTrack	1470	SCS215a	20090504.125738	20090504.131353	8	0.013328	60	10	60-180	60	174	GapExp	0	118	2	3	1	distractor	0	547	-1000	89612	13.328	13.293	13.363
ProbeTrack09	8	ProbeTrack	1470	SCS215a	20090504.125738	20090504.131400	8	0.013328	60	10	60-180	60	75	GapExp	0	119	2	6	1	target	1	480	760	90372	13.328	13.293	13.363
ProbeTrack09	8	ProbeTrack	1470	SCS215a	20090504.125738	20090504.131406	8	0.013328	60	10	60-180	60	128	GapExp	0	120	2	0	0	target	0	480	-1000	89372	13.328	13.293	13.363
ProbeTrack09	8	ProbeTrack	1470	SCS215a	20090504.125738	20090504.131412	8	0.013328	60	10	60-180	60	164	GapExp	0	121	2	96	1	target	1	534	733	90105	13.328	13.293	13.364
ProbeTrack09	8	ProbeTrack	1470	SCS215a	20090504.125738	20090504.131420	8	0.013328	60	10	60-180	60	123	GapExp	0	122	2	96	1	target	1	480	760	90865	13.328	13.293	13.363
ProbeTrack09	8	ProbeTrack	1470	SCS215a	20090504.125738	20090504.131428	8	0.013328	60	10	60-180	60	167	GapExp	0	123	2	0	1	target	1	573	714	91579	13.328	13.293	13.363
ProbeTrack09	8	ProbeTrack	1470	SCS215a	20090504.125738	20090504.131434	8	0.013328	60	10	60-180	60	115	GapExp	0	124	2	3	1	target	1	440	780	92359	13.328	13.293	13.366
ProbeTrack09	8	ProbeTrack	1470	SCS215a	20090504.125738	20090504.131440	8	0.013328	60	10	60-180	60	166	GapExp	0	125	2	3	1	target	1	427	787	93146	13.328	13.293	13.363
ProbeTrack09	8	ProbeTrack	1470	SCS215a	20090504.125738	20090504.131447	8	0.013328	60	10	60-180	60	156	GapExp	0	126	2	96	1	target	1	414	793	93939	13.328	13.293	13.363
ProbeTrack09	8	ProbeTrack	1470	SCS215a	20090504.125738	20090504.131455	8	0.013328	60	10	60-180	60	75	GapExp	0	127	2	6	1	target	1	573	714	94653	13.328	13.293	13.363
ProbeTrack09	8	ProbeTrack	1470	SCS215a	20090504.125738	20090504.131501	8	0.013328	60	10	60-180	60	138	GapExp	0	128	2	0	1	target	1	507	747	95400	13.328	13.293	13.365
ProbeTrack09	8	ProbeTrack	1470	SCS215a	20090504.125738	20090504.131507	8	0.013328	60	10	60-180	60	84	GapExp	0	129	2	96	0	distractor	1	507	747	96147	13.328	13.293	13.363
ProbeTrack09	8	ProbeTrack	1470	SCS215a	20090504.125738	20090504.131514	8	0.013328	60	10	60-180	60	172	GapExp	0	130	2	3	0	distractor	1	387	807	96954	13.328	13.293	13.364
ProbeTrack09	8	ProbeTrack	1470	SCS215a	20090504.125738	20090504.131521	8	0.013328	60	10	60-180	60	173	GapExp	0	131	2	0	1	target	1	494	753	97707	13.328	13.293	13.363
ProbeTrack09	8	ProbeTrack	1470	SCS215a	20090504.125738	20090504.131543	8	0.013328	60	10	60-180	60	68	GapExp	0	132	2	0	0	32	-3	693	-1000	96707	13.328	13.293	13.363
ProbeTrack09	8	ProbeTrack	1470	SCS215a	20090504.125738	20090504.131549	8	0.013328	60	10	60-180	60	138	GapExp	0	133	2	6	1	distractor	0	414	-1000	95707	13.328	13.293	13.363
ProbeTrack09	8	ProbeTrack	1470	SCS215a	20090504.125738	20090504.131557	8	0.013328	60	10	60-180	60	68	GapExp	0	134	2	3	1	target	1	427	787	96494	13.328	13.293	13.364
ProbeTrack09	8	ProbeTrack	1470	SCS215a	20090504.125738	20090504.131602	8	0.013328	60	10	60-180	60	65	GapExp	0	135	2	3	1	target	1	520	740	97234	13.328	13.292	13.363
ProbeTrack09	8	ProbeTrack	1470	SCS215a	20090504.125738	20090504.131608	8	0.013328	60	10	60-180	60	93	GapExp	0	136	2	3	1	target	1	454	773	98007	13.328	13.293	13.363
ProbeTrack09	8	ProbeTrack	1470	SCS215a	20090504.125738	20090504.131613	8	0.013328	60	10	60-180	60	172	GapExp	0	137	2	6	0	distractor	1	400	800	98807	13.328	13.292	13.363
ProbeTrack09	8	ProbeTrack	1470	SCS215a	20090504.125738	20090504.131620	8	0.013328	60	10	60-180	60	115	GapExp	0	138	2	0	1	target	1	427	787	99594	13.328	13.293	13.363
ProbeTrack09	8	ProbeTrack	1470	SCS215a	20090504.125738	20090504.131626	8	0.013328	60	10	60-180	60	94	GapExp	0	139	2	0	0	distractor	1	480	760	100354	13.328	13.293	13.363
ProbeTrack09	8	ProbeTrack	1470	SCS215a	20090504.125738	20090504.131632	8	0.013328	60	10	60-180	60	122	GapExp	0	140	2	6	0	distractor	1	467	767	101121	13.328	13.293	13.364
ProbeTrack09	8	ProbeTrack	1470	SCS215a	20090504.125738	20090504.131638	8	0.013328	60	10	60-180	60	166	GapExp	0	141	2	6	1	target	1	587	707	101828	13.328	13.293	13.363
ProbeTrack09	8	ProbeTrack	1470	SCS215a	20090504.125738	20090504.131645	8	0.013328	60	10	60-180	60	85	GapExp	0	142	2	0	1	target	1	573	714	102542	13.328	13.293	13.363
ProbeTrack09	8	ProbeTrack	1470	SCS215a	20090504.125738	20090504.131651	8	0.013328	60	10	60-180	60	167	GapExp	0	143	2	96	1	target	1	507	747	103289	13.328	13.293	13.363
ProbeTrack09	8	ProbeTrack	1470	SCS215a	20090504.125738	20090504.131659	8	0.013328	60	10	60-180	60	163	GapExp	0	144	2	96	0	distractor	1	320	840	104129	13.328	13.293	13.363
ProbeTrack09	8	ProbeTrack	1470	SCS215a	20090504.125738	20090504.131707	8	0.013328	60	10	60-180	60	122	GapExp	0	145	2	3	1	target	1	480	760	104889	13.328	13.293	13.363
ProbeTrack09	8	ProbeTrack	1470	SCS215a	20090504.125738	20090504.131713	8	0.013328	60	10	60-180	60	97	GapExp	0	146	2	3	0	distractor	1	494	753	105642	13.328	13.289	13.363
ProbeTrack09	8	ProbeTrack	1470	SCS215a	20090504.125738	20090504.131719	8	0.013328	60	10	60-180	60	65	GapExp	0	147	2	6	1	target	1	440	780	106422	13.328	13.293	13.363
ProbeTrack09	8	ProbeTrack	1470	SCS215a	20090504.125738	20090504.131724	8	0.013328	60	10	60-180	60	157	GapExp	0	148	2	96	1	target	1	387	807	107229	13.328	13.293	13.363
ProbeTrack09	8	ProbeTrack	1470	SCS215a	20090504.125738	20090504.131733	8	0.013328	60	10	60-180	60	123	GapExp	0	149	2	3	1	target	1	374	813	108042	13.328	13.293	13.363
ProbeTrack09	8	ProbeTrack	1470	SCS215a	20090504.125738	20090504.131739	8	0.013328	60	10	60-180	60	104	GapExp	0	150	2	6	1	target	1	454	773	108815	13.328	13.291	13.366
ProbeTrack09	8	ProbeTrack	1470	SCS215a	20090504.125738	20090504.131746	8	0.013328	60	10	60-180	60	112	GapExp	0	151	2	0	0	distractor	1	480	760	109575	13.328	13.293	13.365
ProbeTrack09	8	ProbeTrack	1470	SCS215a	20090504.125738	20090504.131753	8	0.013328	60	10	60-180	60	168	GapExp	0	152	2	96	0	distractor	1	480	760	110335	13.328	13.291	13.363
ProbeTrack09	8	ProbeTrack	1470	SCS215a	20090504.125738	20090504.131801	8	0.013328	60	10	60-180	60	150	GapExp	0	153	2	6	1	target	1	547	727	111062	13.328	13.293	13.363
ProbeTrack09	8	ProbeTrack	1470	SCS215a	20090504.125738	20090504.131808	8	0.013328	60	10	60-180	60	87	GapExp	0	154	2	3	1	target	1	427	787	111849	13.328	13.293	13.364
ProbeTrack09	8	ProbeTrack	1470	SCS215a	20090504.125738	20090504.131813	8	0.013328	60	10	60-180	60	108	GapExp	0	155	2	0	0	distractor	1	400	800	112649	13.328	13.293	13.363
ProbeTrack09	8	ProbeTrack	1470	SCS215a	20090504.125738	20090504.131819	8	0.013328	60	10	60-180	60	82	GapExp	0	156	2	3	0	distractor	1	494	753	113402	13.328	13.293	13.363
ProbeTrack09	8	ProbeTrack	1470	SCS215a	20090504.125738	20090504.131824	8	0.013328	60	10	60-180	60	174	GapExp	0	157	2	3	1	target	1	533	734	114136	13.328	13.293	13.363
ProbeTrack09	8	ProbeTrack	1470	SCS215a	20090504.125738	20090504.131831	8	0.013328	60	10	60-180	60	77	GapExp	0	158	2	96	0	distractor	1	387	807	114943	13.328	13.293	13.363
ProbeTrack09	8	ProbeTrack	1470	SCS215a	20090504.125738	20090504.131838	8	0.013328	60	10	60-180	60	85	GapExp	0	159	2	96	0	distractor	1	414	793	115736	13.328	13.293	13.363
ProbeTrack09	8	ProbeTrack	1470	SCS215a	20090504.125738	20090504.131845	8	0.013328	60	10	60-180	60	145	GapExp	0	160	2	0	0	target	0	480	-1000	114736	13.328	13.289	13.365
ProbeTrack09	8	ProbeTrack	1470	SCS215a	20090504.125738	20090504.131851	8	0.013328	60	10	60-180	60	89	GapExp	0	161	2	0	0	distractor	1	427	787	115523	13.328	13.293	13.363
ProbeTrack09	8	ProbeTrack	1470	SCS215a	20090504.125738	20090504.131857	8	0.013328	60	10	60-180	60	84	GapExp	0	162	2	96	1	target	1	414	793	116316	13.328	13.293	13.363
ProbeTrack09	8	ProbeTrack	1470	SCS215a	20090504.125738	20090504.131904	8	0.013328	60	10	60-180	60	168	GapExp	0	163	2	0	0	distractor	1	374	813	117129	13.328	13.293	13.366
ProbeTrack09	8	ProbeTrack	1470	SCS215a	20090504.125738	20090504.131911	8	0.013328	60	10	60-180	60	139	GapExp	0	164	2	0	0	target	0	667	-1000	116129	13.328	13.293	13.363
ProbeTrack09	8	ProbeTrack	1470	SCS215a	20090504.125738	20090504.131917	8	0.013328	60	10	60-180	60	109	GapExp	0	165	2	3	0	distractor	1	494	753	116882	13.328	13.293	13.363
ProbeTrack09	8	ProbeTrack	1470	SCS215a	20090504.125738	20090504.131923	8	0.013328	60	10	60-180	60	113	GapExp	0	166	2	0	0	distractor	1	507	747	117629	13.328	13.293	13.363
ProbeTrack09	8	ProbeTrack	1470	SCS215a	20090504.125738	20090504.131929	8	0.013328	60	10	60-180	60	130	GapExp	0	167	2	3	0	distractor	1	387	807	118436	13.328	13.293	13.363
ProbeTrack09	8	ProbeTrack	1470	SCS215a	20090504.125738	20090504.131935	8	0.013328	60	10	60-180	60	120	GapExp	0	168	2	6	1	target	1	547	727	119163	13.328	13.293	13.363
ProbeTrack09	8	ProbeTrack	1470	SCS215a	20090504.125738	20090504.131942	8	0.013328	60	10	60-180	60	131	GapExp	0	169	2	0	1	target	1	480	760	119923	13.328	13.293	13.363
ProbeTrack09	8	ProbeTrack	1470	SCS215a	20090504.125738	20090504.131948	8	0.013328	60	10	60-180	60	98	GapExp	0	170	2	96	1	target	1	547	727	120650	13.328	13.293	13.363
ProbeTrack09	8	ProbeTrack	1470	SCS215a	20090504.125738	20090504.131955	8	0.013328	60	10	60-180	60	100	GapExp	0	171	2	0	0	distractor	1	494	753	121403	13.328	13.293	13.363
ProbeTrack09	8	ProbeTrack	1470	SCS215a	20090504.125738	20090504.132012	8	0.013328	60	10	60-180	60	157	GapExp	0	172	2	3	1	distractor	0	307	-1000	120403	13.328	13.293	13.363
ProbeTrack09	8	ProbeTrack	1470	SCS215a	20090504.125738	20090504.132019	8	0.013328	60	10	60-180	60	148	GapExp	0	173	2	0	0	distractor	1	400	800	121203	13.328	13.293	13.363
ProbeTrack09	8	ProbeTrack	1470	SCS215a	20090504.125738	20090504.132025	8	0.013328	60	10	60-180	60	146	GapExp	0	174	2	96	1	target	1	507	747	121950	13.328	13.292	13.363
ProbeTrack09	8	ProbeTrack	1470	SCS215a	20090504.125738	20090504.132033	8	0.013328	60	10	60-180	60	101	GapExp	0	175	2	96	0	distractor	1	320	840	122790	13.328	13.293	13.363
ProbeTrack09	8	ProbeTrack	1470	SCS215a	20090504.125738	20090504.132040	8	0.013328	60	10	60-180	60	130	GapExp	0	176	2	0	1	target	1	494	753	123543	13.328	13.293	13.363
ProbeTrack09	8	ProbeTrack	1470	SCS215a	20090504.125738	20090504.132046	8	0.013328	60	10	60-180	60	109	GapExp	0	177	2	0	1	target	1	454	773	124316	13.328	13.293	13.363
ProbeTrack09	8	ProbeTrack	1470	SCS215a	20090504.125738	20090504.132052	8	0.013328	60	10	60-180	60	156	GapExp	0	178	2	0	0	distractor	1	440	780	125096	13.328	13.293	13.363
ProbeTrack09	8	ProbeTrack	1470	SCS215a	20090504.125738	20090504.132058	8	0.013328	60	10	60-180	60	141	GapExp	0	179	2	6	0	distractor	1	360	820	125916	13.328	13.292	13.363
ProbeTrack09	8	ProbeTrack	1470	SCS215a	20090504.125738	20090504.132105	8	0.013328	60	10	60-180	60	169	GapExp	0	180	2	0	1	target	1	547	727	126643	13.328	13.292	13.363
ProbeTrack09	8	ProbeTrack	1470	SCS215a	20090504.125738	20090504.132112	8	0.013328	60	10	60-180	60	64	GapExp	0	181	2	96	0	distractor	1	534	733	127376	13.328	13.293	13.363
ProbeTrack09	8	ProbeTrack	1470	SCS215a	20090504.125738	20090504.132118	8	0.013328	60	10	60-180	60	156	GapExp	0	182	2	96	1	distractor	0	360	-1000	126376	13.328	13.293	13.363
ProbeTrack09	8	ProbeTrack	1470	SCS215a	20090504.125738	20090504.132126	8	0.013328	60	10	60-180	60	123	GapExp	0	183	2	96	1	target	1	480	760	127136	13.328	13.293	13.363
ProbeTrack09	8	ProbeTrack	1470	SCS215a	20090504.125738	20090504.132133	8	0.013328	60	10	60-180	60	116	GapExp	0	184	2	96	1	target	1	467	767	127903	13.328	13.293	13.364
ProbeTrack09	8	ProbeTrack	1470	SCS215a	20090504.125738	20090504.132140	8	0.013328	60	10	60-180	60	67	GapExp	0	185	2	96	1	distractor	0	387	-1000	126903	13.328	13.293	13.364
ProbeTrack09	8	ProbeTrack	1470	SCS215a	20090504.125738	20090504.132147	8	0.013328	60	10	60-180	60	140	GapExp	0	186	2	3	0	target	0	454	-1000	125903	13.328	13.293	13.363
ProbeTrack09	8	ProbeTrack	1470	SCS215a	20090504.125738	20090504.132153	8	0.013328	60	10	60-180	60	87	GapExp	0	187	2	6	0	distractor	1	440	780	126683	13.328	13.293	13.363
ProbeTrack09	8	ProbeTrack	1470	SCS215a	20090504.125738	20090504.132159	8	0.013328	60	10	60-180	60	124	GapExp	0	188	2	3	1	target	1	440	780	127463	13.328	13.292	13.363
ProbeTrack09	8	ProbeTrack	1470	SCS215a	20090504.125738	20090504.132205	8	0.013328	60	10	60-180	60	172	GapExp	0	189	2	6	0	distractor	1	667	667	128130	13.328	13.292	13.363
ProbeTrack09	8	ProbeTrack	1470	SCS215a	20090504.125738	20090504.132212	8	0.013328	60	10	60-180	60	117	GapExp	0	190	2	0	1	target	1	414	793	128923	13.328	13.293	13.363
ProbeTrack09	8	ProbeTrack	1470	SCS215a	20090504.125738	20090504.132218	8	0.013328	60	10	60-180	60	89	GapExp	0	191	2	6	1	target	1	547	727	129650	13.328	13.293	13.363
ProbeTrack09	8	ProbeTrack	1470	SCS215a	20090504.125738	20090504.132233	8	0.013328	60	10	60-180	60	91	GapExp	0	192	2	96	0	target	0	507	-1000	128650	13.328	13.293	13.363
ProbeTrack09	8	ProbeTrack	1470	SCS215a	20090504.125738	20090504.132240	8	0.013328	60	10	60-180	60	106	GapExp	0	193	2	6	1	target	1	653	674	129324	13.328	13.293	13.363
ProbeTrack09	8	ProbeTrack	1470	SCS215a	20090504.125738	20090504.132246	8	0.013328	60	10	60-180	60	110	GapExp	0	194	2	6	0	distractor	1	507	747	130071	13.328	13.289	13.366
ProbeTrack09	8	ProbeTrack	1470	SCS215a	20090504.125738	20090504.132252	8	0.013328	60	10	60-180	60	119	GapExp	0	195	2	6	0	distractor	1	347	827	130898	13.328	13.293	13.363
ProbeTrack09	8	ProbeTrack	1470	SCS215a	20090504.125738	20090504.132258	8	0.013328	60	10	60-180	60	155	GapExp	0	196	2	3	1	target	1	494	753	131651	13.328	13.293	13.363
ProbeTrack09	8	ProbeTrack	1470	SCS215a	20090504.125738	20090504.132305	8	0.013328	60	10	60-180	60	176	GapExp	0	197	2	0	0	distractor	1	440	780	132431	13.328	13.293	13.363
ProbeTrack09	8	ProbeTrack	1470	SCS215a	20090504.125738	20090504.132312	8	0.013328	60	10	60-180	60	176	GapExp	0	198	2	6	0	distractor	1	427	787	133218	13.328	13.292	13.363
ProbeTrack09	8	ProbeTrack	1470	SCS215a	20090504.125738	20090504.132319	8	0.013328	60	10	60-180	60	101	GapExp	0	199	2	6	1	target	1	494	753	133971	13.328	13.289	13.363
ProbeTrack09	8	ProbeTrack	1470	SCS215a	20090504.125738	20090504.132325	8	0.013328	60	10	60-180	60	127	GapExp	0	200	2	96	1	target	1	600	700	134671	13.328	13.293	13.363
