exp	sub	code	rev	comp	runtime	trialtime	nstim	refreshdur	cuedur	gapdur	gapOnsetRange	durPostProbe	gapOnsetTime	blocktype	prac	trial	ntargets	soa	probeTarget	resp	acc	rt	pts	tpts	meanFrameDur	minFrameDur	maxFrameDur
ProbeTrack09	9	ProbeTrack	1470	SCS215a	20090511.103124	20090511.103132	8	0.013328	60	0	60-180	60	101	NoGap	1	1	2	6	1	target	1	1173	414	414	13.328	13.293	13.363
ProbeTrack09	9	ProbeTrack	1470	SCS215a	20090511.103124	20090511.103206	8	0.013328	60	0	60-180	60	132	NoGap	1	2	2	0	0	distractor	1	467	767	1181	13.328	13.293	13.363
ProbeTrack09	9	ProbeTrack	1470	SCS215a	20090511.103124	20090511.103222	8	0.013328	60	0	60-180	60	78	NoGap	1	3	2	3	1	target	1	334	833	2014	13.328	13.293	13.362
ProbeTrack09	9	ProbeTrack	1470	SCS215a	20090511.103124	20090511.103229	8	0.013328	60	0	60-180	60	151	NoGap	1	4	2	96	0	distractor	1	454	773	2787	13.328	13.293	13.364
ProbeTrack09	9	ProbeTrack	1470	SCS215a	20090511.103124	20090511.103237	8	0.013328	60	0	60-180	60	66	NoGap	1	5	2	3	1	distractor	0	387	-1000	1787	13.328	13.293	13.363
ProbeTrack09	9	ProbeTrack	1470	SCS215a	20090511.103124	20090511.103243	8	0.013328	60	0	60-180	60	121	NoGap	1	6	2	6	0	distractor	1	440	780	2567	13.328	13.293	13.363
ProbeTrack09	9	ProbeTrack	1470	SCS215a	20090511.103124	20090511.103250	8	0.013328	60	0	60-180	60	120	NoGap	1	7	2	6	1	distractor	0	574	-1000	1567	13.328	13.144	13.512
ProbeTrack09	9	ProbeTrack	1470	SCS215a	20090511.103124	20090511.103256	8	0.013328	60	0	60-180	60	135	NoGap	1	8	2	96	0	target	0	520	-1000	567	13.328	13.293	13.363
ProbeTrack09	9	ProbeTrack	1470	SCS215a	20090511.103124	20090511.103304	8	0.013328	60	0	60-180	60	92	NoGap	1	9	2	0	1	target	1	427	787	1354	13.328	13.293	13.363
ProbeTrack09	9	ProbeTrack	1470	SCS215a	20090511.103124	20090511.103310	8	0.013328	60	0	60-180	60	109	NoGap	1	10	2	6	0	distractor	1	414	793	2147	13.328	13.293	13.364
ProbeTrack09	9	ProbeTrack	1470	SCS215a	20090511.103124	20090511.103317	8	0.013328	60	0	60-180	60	169	NoGap	1	11	2	6	1	target	1	467	767	2914	13.328	13.293	13.363
ProbeTrack09	9	ProbeTrack	1470	SCS215a	20090511.103124	20090511.103324	8	0.013328	60	0	60-180	60	136	NoGap	1	12	2	96	1	target	1	414	793	3707	13.328	13.293	13.363
ProbeTrack09	9	ProbeTrack	1470	SCS215a	20090511.103124	20090511.103332	8	0.013328	60	0	60-180	60	166	NoGap	1	13	2	3	0	distractor	1	494	753	4460	13.328	13.293	13.363
ProbeTrack09	9	ProbeTrack	1470	SCS215a	20090511.103124	20090511.103340	8	0.013328	60	0	60-180	60	109	NoGap	1	14	2	3	0	distractor	1	494	753	5213	13.328	13.290	13.363
ProbeTrack09	9	ProbeTrack	1470	SCS215a	20090511.103124	20090511.103346	8	0.013328	60	0	60-180	60	119	NoGap	1	15	2	0	1	target	1	480	760	5973	13.328	13.293	13.363
ProbeTrack09	9	ProbeTrack	1470	SCS215a	20090511.103124	20090511.103352	8	0.013328	60	0	60-180	60	170	NoGap	1	16	2	0	0	distractor	1	374	813	6786	13.328	13.293	13.364
ProbeTrack09	9	ProbeTrack	1470	SCS215a	20090511.103124	20090511.103359	8	0.013328	60	0	60-180	60	167	NoGap	1	17	2	6	0	distractor	1	347	827	7613	13.328	13.293	13.363
ProbeTrack09	9	ProbeTrack	1470	SCS215a	20090511.103124	20090511.103406	8	0.013328	60	0	60-180	60	82	NoGap	1	18	2	3	0	distractor	1	374	813	8426	13.328	13.293	13.364
ProbeTrack09	9	ProbeTrack	1470	SCS215a	20090511.103124	20090511.103411	8	0.013328	60	0	60-180	60	133	NoGap	1	19	2	6	1	target	1	507	747	9173	13.328	13.293	13.363
ProbeTrack09	9	ProbeTrack	1470	SCS215a	20090511.103124	20090511.103418	8	0.013328	60	0	60-180	60	177	NoGap	1	20	2	3	1	target	1	507	747	9920	13.328	13.293	13.363
ProbeTrack09	9	ProbeTrack	1470	SCS215a	20090511.103124	20090511.103426	8	0.013328	60	0	60-180	60	94	NoGap	1	21	2	0	1	target	1	440	780	10700	13.328	13.293	13.364
ProbeTrack09	9	ProbeTrack	1470	SCS215a	20090511.103124	20090511.103431	8	0.013328	60	0	60-180	60	68	NoGap	1	22	2	6	0	distractor	1	494	753	11453	13.328	13.292	13.375
ProbeTrack09	9	ProbeTrack	1470	SCS215a	20090511.103124	20090511.103438	8	0.013328	60	0	60-180	60	161	NoGap	1	23	2	96	1	target	1	374	813	12266	13.328	13.293	13.363
ProbeTrack09	9	ProbeTrack	1470	SCS215a	20090511.103124	20090511.103446	8	0.013328	60	0	60-180	60	77	NoGap	1	24	2	0	1	target	1	440	780	13046	13.328	13.293	13.363
ProbeTrack09	9	ProbeTrack	1470	SCS215a	20090511.103124	20090511.103452	8	0.013328	60	0	60-180	60	170	NoGap	1	25	2	96	0	distractor	1	360	820	13866	13.328	13.059	13.596
ProbeTrack09	9	ProbeTrack	1470	SCS215a	20090511.103124	20090511.103500	8	0.013328	60	0	60-180	60	128	NoGap	1	26	2	6	0	distractor	1	427	787	14653	13.328	13.293	13.366
ProbeTrack09	9	ProbeTrack	1470	SCS215a	20090511.103124	20090511.103506	8	0.013328	60	0	60-180	60	98	NoGap	1	27	2	6	1	target	1	400	800	15453	13.328	13.293	13.363
ProbeTrack09	9	ProbeTrack	1470	SCS215a	20090511.103124	20090511.103512	8	0.013328	60	0	60-180	60	96	NoGap	1	28	2	6	0	distractor	1	454	773	16226	13.328	13.293	13.363
ProbeTrack09	9	ProbeTrack	1470	SCS215a	20090511.103124	20090511.103518	8	0.013328	60	0	60-180	60	113	NoGap	1	29	2	96	0	distractor	1	414	793	17019	13.328	13.289	13.365
ProbeTrack09	9	ProbeTrack	1470	SCS215a	20090511.103124	20090511.103526	8	0.013328	60	0	60-180	60	64	NoGap	1	30	2	3	1	distractor	0	427	-1000	16019	13.328	13.293	13.363
ProbeTrack09	9	ProbeTrack	1470	SCS215a	20090511.103124	20090511.103532	8	0.013328	60	0	60-180	60	124	NoGap	1	31	2	3	1	target	1	387	807	16826	13.328	13.293	13.363
ProbeTrack09	9	ProbeTrack	1470	SCS215a	20090511.103124	20090511.103539	8	0.013328	60	0	60-180	60	145	NoGap	1	32	2	96	1	target	1	440	780	17606	13.328	13.293	13.363
ProbeTrack09	9	ProbeTrack	1470	SCS215a	20090511.103124	20090511.103547	8	0.013328	60	0	60-180	60	151	NoGap	1	33	2	3	0	distractor	1	400	800	18406	13.328	13.293	13.365
ProbeTrack09	9	ProbeTrack	1470	SCS215a	20090511.103124	20090511.103554	8	0.013328	60	0	60-180	60	165	NoGap	1	34	2	3	0	distractor	1	374	813	19219	13.328	13.293	13.365
ProbeTrack09	9	ProbeTrack	1470	SCS215a	20090511.103124	20090511.103602	8	0.013328	60	0	60-180	60	112	NoGap	1	35	2	96	0	distractor	1	400	800	20019	13.328	13.293	13.363
ProbeTrack09	9	ProbeTrack	1470	SCS215a	20090511.103124	20090511.103609	8	0.013328	60	0	60-180	60	107	NoGap	1	36	2	0	1	target	1	400	800	20819	13.328	13.293	13.363
ProbeTrack09	9	ProbeTrack	1470	SCS215a	20090511.103124	20090511.103617	8	0.013328	60	0	60-180	60	133	NoGap	1	37	2	96	1	target	1	414	793	21612	13.328	13.293	13.363
ProbeTrack09	9	ProbeTrack	1470	SCS215a	20090511.103124	20090511.103626	8	0.013328	60	0	60-180	60	112	NoGap	1	38	2	0	0	distractor	1	494	753	22365	13.328	13.293	13.363
ProbeTrack09	9	ProbeTrack	1470	SCS215a	20090511.103124	20090511.103632	8	0.013328	60	0	60-180	60	67	NoGap	1	39	2	6	1	target	1	507	747	23112	13.328	13.293	13.363
ProbeTrack09	9	ProbeTrack	1470	SCS215a	20090511.103124	20090511.103638	8	0.013328	60	0	60-180	60	64	NoGap	1	40	2	0	1	target	1	440	780	23892	13.328	13.291	13.365
ProbeTrack09	9	ProbeTrack	1470	SCS215a	20090511.103124	20090511.103643	8	0.013328	60	0	60-180	60	179	NoGap	1	41	2	96	0	distractor	1	440	780	24672	13.328	13.293	13.365
ProbeTrack09	9	ProbeTrack	1470	SCS215a	20090511.103124	20090511.103651	8	0.013328	60	0	60-180	60	86	NoGap	1	42	2	0	0	distractor	1	454	773	25445	13.328	13.293	13.363
ProbeTrack09	9	ProbeTrack	1470	SCS215a	20090511.103124	20090511.103657	8	0.013328	60	0	60-180	60	90	NoGap	1	43	2	0	0	distractor	1	507	747	26192	13.328	13.293	13.363
ProbeTrack09	9	ProbeTrack	1470	SCS215a	20090511.103124	20090511.103703	8	0.013328	60	0	60-180	60	72	NoGap	1	44	2	6	0	distractor	1	454	773	26965	13.328	13.293	13.363
ProbeTrack09	9	ProbeTrack	1470	SCS215a	20090511.103124	20090511.103709	8	0.013328	60	0	60-180	60	82	NoGap	1	45	2	3	1	target	1	480	760	27725	13.328	13.293	13.363
ProbeTrack09	9	ProbeTrack	1470	SCS215a	20090511.103124	20090511.103714	8	0.013328	60	0	60-180	60	114	NoGap	1	46	2	3	1	distractor	0	427	-1000	26725	13.328	13.293	13.363
ProbeTrack09	9	ProbeTrack	1470	SCS215a	20090511.103124	20090511.103720	8	0.013328	60	0	60-180	60	69	NoGap	1	47	2	96	1	target	1	480	760	27485	13.328	13.293	13.364
ProbeTrack09	9	ProbeTrack	1470	SCS215a	20090511.103124	20090511.103727	8	0.013328	60	0	60-180	60	145	NoGap	1	48	2	0	0	distractor	1	400	800	28285	13.328	13.293	13.363
ProbeTrack09	9	ProbeTrack	1470	SCS215a	20090511.103124	20090511.103734	8	0.013328	60	0	60-180	60	107	NoGap	1	49	2	96	0	distractor	1	467	767	29052	13.328	13.293	13.363
ProbeTrack09	9	ProbeTrack	1470	SCS215a	20090511.103124	20090511.103741	8	0.013328	60	0	60-180	60	75	NoGap	1	50	2	6	1	target	1	480	760	29812	13.328	13.293	13.374
ProbeTrack09	9	ProbeTrack	1470	SCS215a	20090511.103828	20090511.103836	8	0.013328	60	10	60-180	60	168	GapPrac	1	1	2	6	1	target	1	653	674	30486	13.328	13.293	13.363
ProbeTrack09	9	ProbeTrack	1470	SCS215a	20090511.103828	20090511.103846	8	0.013328	60	10	60-180	60	71	GapPrac	1	2	2	0	0	distractor	1	400	800	31286	13.328	13.293	13.363
ProbeTrack09	9	ProbeTrack	1470	SCS215a	20090511.103828	20090511.103859	8	0.013328	60	10	60-180	60	170	GapPrac	1	3	2	0	1	distractor	0	454	-1000	30286	13.328	13.293	13.363
ProbeTrack09	9	ProbeTrack	1470	SCS215a	20090511.103828	20090511.103907	8	0.013328	60	10	60-180	60	119	GapPrac	1	4	2	96	1	target	1	547	727	31013	13.328	13.293	13.363
ProbeTrack09	9	ProbeTrack	1470	SCS215a	20090511.103828	20090511.103914	8	0.013328	60	10	60-180	60	131	GapPrac	1	5	2	0	1	target	1	534	733	31746	13.328	13.293	13.363
ProbeTrack09	9	ProbeTrack	1470	SCS215a	20090511.103828	20090511.103921	8	0.013328	60	10	60-180	60	128	GapPrac	1	6	2	6	0	distractor	1	440	780	32526	13.328	13.293	13.363
ProbeTrack09	9	ProbeTrack	1470	SCS215a	20090511.103828	20090511.103927	8	0.013328	60	10	60-180	60	61	GapPrac	1	7	2	96	1	target	1	387	807	33333	13.328	13.293	13.363
ProbeTrack09	9	ProbeTrack	1470	SCS215a	20090511.103828	20090511.103934	8	0.013328	60	10	60-180	60	164	GapPrac	1	8	2	0	0	distractor	1	627	687	34020	13.328	13.293	13.363
ProbeTrack09	9	ProbeTrack	1470	SCS215a	20090511.103828	20090511.103941	8	0.013328	60	10	60-180	60	101	GapPrac	1	9	2	0	0	distractor	1	587	707	34727	13.328	13.293	13.363
ProbeTrack09	9	ProbeTrack	1470	SCS215a	20090511.103828	20090511.103947	8	0.013328	60	10	60-180	60	64	GapPrac	1	10	2	6	1	target	1	467	767	35494	13.328	13.293	13.363
ProbeTrack09	9	ProbeTrack	1470	SCS215a	20090511.103828	20090511.103953	8	0.013328	60	10	60-180	60	143	GapPrac	1	11	2	3	0	distractor	1	494	753	36247	13.328	13.293	13.363
ProbeTrack09	9	ProbeTrack	1470	SCS215a	20090511.103828	20090511.104000	8	0.013328	60	10	60-180	60	92	GapPrac	1	12	2	96	1	target	1	440	780	37027	13.328	13.293	13.363
ProbeTrack09	9	ProbeTrack	1470	SCS215a	20090511.103828	20090511.104007	8	0.013328	60	10	60-180	60	69	GapPrac	1	13	2	96	0	distractor	1	467	767	37794	13.328	13.293	13.363
ProbeTrack09	9	ProbeTrack	1470	SCS215a	20090511.103828	20090511.104013	8	0.013328	60	10	60-180	60	93	GapPrac	1	14	2	3	1	target	1	374	813	38607	13.328	13.293	13.363
ProbeTrack09	9	ProbeTrack	1470	SCS215a	20090511.103828	20090511.104020	8	0.013328	60	10	60-180	60	176	GapPrac	1	15	2	3	0	distractor	1	560	720	39327	13.328	13.292	13.363
ProbeTrack09	9	ProbeTrack	1470	SCS215a	20090511.103828	20090511.104027	8	0.013328	60	10	60-180	60	149	GapPrac	1	16	2	6	1	target	1	480	760	40087	13.328	13.289	13.366
ProbeTrack09	9	ProbeTrack	1470	SCS215a	20090511.103828	20090511.104033	8	0.013328	60	10	60-180	60	148	GapPrac	1	17	2	0	1	target	1	520	740	40827	13.328	13.293	13.363
ProbeTrack09	9	ProbeTrack	1470	SCS215a	20090511.103828	20090511.104040	8	0.013328	60	10	60-180	60	99	GapPrac	1	18	2	6	0	distractor	1	614	693	41520	13.328	13.293	13.363
ProbeTrack09	9	ProbeTrack	1470	SCS215a	20090511.103828	20090511.104047	8	0.013328	60	10	60-180	60	180	GapPrac	1	19	2	96	0	distractor	1	693	654	42174	13.328	13.293	13.363
ProbeTrack09	9	ProbeTrack	1470	SCS215a	20090511.103828	20090511.104056	8	0.013328	60	10	60-180	60	109	GapPrac	1	20	2	3	1	target	1	454	773	42947	13.328	13.293	13.363
ProbeTrack09	9	ProbeTrack	1470	SCS215a	20090511.104138	20090511.104153	8	0.013327	60	10	60-180	60	166	GapExp	1	1	2	6	0	distractor	1	520	740	43687	13.328	13.293	13.363
ProbeTrack09	9	ProbeTrack	1470	SCS215a	20090511.104138	20090511.104202	8	0.013327	60	10	60-180	60	150	GapExp	1	2	2	6	1	distractor	0	320	-1000	42687	13.328	13.289	13.363
ProbeTrack09	9	ProbeTrack	1470	SCS215a	20090511.104138	20090511.104209	8	0.013327	60	10	60-180	60	119	GapExp	1	3	2	0	1	target	1	414	793	43480	13.328	13.293	13.363
ProbeTrack09	9	ProbeTrack	1470	SCS215a	20090511.104138	20090511.104216	8	0.013327	60	10	60-180	60	145	GapExp	1	4	2	3	1	target	1	454	773	44253	13.328	13.293	13.364
ProbeTrack09	9	ProbeTrack	1470	SCS215a	20090511.104138	20090511.104223	8	0.013327	60	10	60-180	60	172	GapExp	1	5	2	3	0	distractor	1	574	713	44966	13.328	13.293	13.363
ProbeTrack09	9	ProbeTrack	1470	SCS215a	20090511.104138	20090511.104230	8	0.013327	60	10	60-180	60	76	GapExp	1	6	2	0	0	distractor	1	494	753	45719	13.328	13.293	13.363
ProbeTrack09	9	ProbeTrack	1470	SCS215a	20090511.104138	20090511.104236	8	0.013327	60	10	60-180	60	151	GapExp	1	7	2	96	0	distractor	1	440	780	46499	13.328	13.293	13.363
ProbeTrack09	9	ProbeTrack	1470	SCS215a	20090511.104138	20090511.104243	8	0.013327	60	10	60-180	60	160	GapExp	1	8	2	96	1	target	1	454	773	47272	13.328	13.290	13.363
ProbeTrack09	9	ProbeTrack	1470	SCS215a	20090511.104138	20090511.104251	8	0.013327	60	10	60-180	60	124	GapExp	0	9	2	6	0	distractor	1	427	787	48059	13.328	13.293	13.363
ProbeTrack09	9	ProbeTrack	1470	SCS215a	20090511.104138	20090511.104258	8	0.013327	60	10	60-180	60	72	GapExp	0	10	2	96	1	target	1	400	800	48859	13.328	13.293	13.363
ProbeTrack09	9	ProbeTrack	1470	SCS215a	20090511.104138	20090511.104305	8	0.013327	60	10	60-180	60	101	GapExp	0	11	2	6	1	distractor	0	427	-1000	47859	13.328	13.293	13.363
ProbeTrack09	9	ProbeTrack	1470	SCS215a	20090511.104138	20090511.104311	8	0.013327	60	10	60-180	60	164	GapExp	0	12	2	3	0	distractor	1	387	807	48666	13.328	13.293	13.363
ProbeTrack09	9	ProbeTrack	1470	SCS215a	20090511.104138	20090511.104318	8	0.013327	60	10	60-180	60	120	GapExp	0	13	2	6	1	target	1	414	793	49459	13.328	13.293	13.363
ProbeTrack09	9	ProbeTrack	1470	SCS215a	20090511.104138	20090511.104324	8	0.013327	60	10	60-180	60	126	GapExp	0	14	2	0	1	distractor	0	440	-1000	48459	13.328	13.293	13.363
ProbeTrack09	9	ProbeTrack	1470	SCS215a	20090511.104138	20090511.104330	8	0.013327	60	10	60-180	60	100	GapExp	0	15	2	96	1	target	1	573	714	49173	13.328	13.292	13.363
ProbeTrack09	9	ProbeTrack	1470	SCS215a	20090511.104138	20090511.104346	8	0.013327	60	10	60-180	60	78	GapExp	0	16	2	0	1	target	1	534	733	49906	13.328	13.291	13.366
ProbeTrack09	9	ProbeTrack	1470	SCS215a	20090511.104138	20090511.104352	8	0.013327	60	10	60-180	60	93	GapExp	0	17	2	3	0	distractor	1	414	793	50699	13.328	13.293	13.363
ProbeTrack09	9	ProbeTrack	1470	SCS215a	20090511.104138	20090511.104358	8	0.013327	60	10	60-180	60	91	GapExp	0	18	2	96	0	distractor	1	693	654	51353	13.328	13.293	13.364
ProbeTrack09	9	ProbeTrack	1470	SCS215a	20090511.104138	20090511.104405	8	0.013327	60	10	60-180	60	111	GapExp	0	19	2	6	1	target	1	454	773	52126	13.328	13.293	13.363
ProbeTrack09	9	ProbeTrack	1470	SCS215a	20090511.104138	20090511.104411	8	0.013327	60	10	60-180	60	80	GapExp	0	20	2	3	1	target	1	520	740	52866	13.328	13.293	13.364
ProbeTrack09	9	ProbeTrack	1470	SCS215a	20090511.104138	20090511.104417	8	0.013327	60	10	60-180	60	154	GapExp	0	21	2	0	1	target	1	427	787	53653	13.328	13.293	13.368
ProbeTrack09	9	ProbeTrack	1470	SCS215a	20090511.104138	20090511.104424	8	0.013327	60	10	60-180	60	146	GapExp	0	22	2	0	0	distractor	1	507	747	54400	13.328	13.293	13.363
ProbeTrack09	9	ProbeTrack	1470	SCS215a	20090511.104138	20090511.104430	8	0.013327	60	10	60-180	60	114	GapExp	0	23	2	96	1	distractor	0	774	-1000	53400	13.328	13.292	13.363
ProbeTrack09	9	ProbeTrack	1470	SCS215a	20090511.104138	20090511.104438	8	0.013327	60	10	60-180	60	137	GapExp	0	24	2	0	1	target	1	587	707	54107	13.328	13.292	13.365
ProbeTrack09	9	ProbeTrack	1470	SCS215a	20090511.104138	20090511.104446	8	0.013327	60	10	60-180	60	94	GapExp	0	25	2	96	1	target	1	454	773	54880	13.328	13.293	13.363
ProbeTrack09	9	ProbeTrack	1470	SCS215a	20090511.104138	20090511.104453	8	0.013327	60	10	60-180	60	150	GapExp	0	26	2	0	0	distractor	1	547	727	55607	13.328	13.293	13.363
ProbeTrack09	9	ProbeTrack	1470	SCS215a	20090511.104138	20090511.104500	8	0.013327	60	10	60-180	60	79	GapExp	0	27	2	3	0	distractor	1	560	720	56327	13.328	13.293	13.363
ProbeTrack09	9	ProbeTrack	1470	SCS215a	20090511.104138	20090511.104506	8	0.013327	60	10	60-180	60	66	GapExp	0	28	2	6	1	target	1	467	767	57094	13.328	13.293	13.363
ProbeTrack09	9	ProbeTrack	1470	SCS215a	20090511.104138	20090511.104512	8	0.013327	60	10	60-180	60	101	GapExp	0	29	2	96	0	distractor	1	560	720	57814	13.328	13.293	13.363
ProbeTrack09	9	ProbeTrack	1470	SCS215a	20090511.104138	20090511.104519	8	0.013327	60	10	60-180	60	118	GapExp	0	30	2	0	1	target	1	454	773	58587	13.328	13.293	13.363
ProbeTrack09	9	ProbeTrack	1470	SCS215a	20090511.104138	20090511.104525	8	0.013327	60	10	60-180	60	72	GapExp	0	31	2	96	1	13	-3	454	-1000	57587	13.328	13.293	13.364
ProbeTrack09	9	ProbeTrack	1470	SCS215a	20090511.104138	20090511.104532	8	0.013327	60	10	60-180	60	130	GapExp	0	32	2	96	1	target	1	494	753	58340	13.328	13.293	13.363
ProbeTrack09	9	ProbeTrack	1470	SCS215a	20090511.104138	20090511.104541	8	0.013327	60	10	60-180	60	103	GapExp	0	33	2	0	1	target	1	454	773	59113	13.328	13.292	13.363
ProbeTrack09	9	ProbeTrack	1470	SCS215a	20090511.104138	20090511.104547	8	0.013327	60	10	60-180	60	165	GapExp	0	34	2	96	0	distractor	1	520	740	59853	13.328	13.293	13.363
ProbeTrack09	9	ProbeTrack	1470	SCS215a	20090511.104138	20090511.104555	8	0.013327	60	10	60-180	60	115	GapExp	0	35	2	6	0	distractor	1	534	733	60586	13.328	13.293	13.363
ProbeTrack09	9	ProbeTrack	1470	SCS215a	20090511.104138	20090511.104601	8	0.013327	60	10	60-180	60	113	GapExp	0	36	2	96	1	target	1	480	760	61346	13.328	13.293	13.363
ProbeTrack09	9	ProbeTrack	1470	SCS215a	20090511.104138	20090511.104609	8	0.013327	60	10	60-180	60	165	GapExp	0	37	2	3	0	distractor	1	480	760	62106	13.328	13.293	13.363
ProbeTrack09	9	ProbeTrack	1470	SCS215a	20090511.104138	20090511.104616	8	0.013327	60	10	60-180	60	129	GapExp	0	38	2	3	0	distractor	1	547	727	62833	13.328	13.293	13.366
ProbeTrack09	9	ProbeTrack	1470	SCS215a	20090511.104138	20090511.104622	8	0.013327	60	10	60-180	60	177	GapExp	0	39	2	96	1	target	1	400	800	63633	13.328	13.293	13.363
ProbeTrack09	9	ProbeTrack	1470	SCS215a	20090511.104138	20090511.104631	8	0.013327	60	10	60-180	60	171	GapExp	0	40	2	0	1	target	1	507	747	64380	13.328	13.293	13.368
ProbeTrack09	9	ProbeTrack	1470	SCS215a	20090511.104138	20090511.104638	8	0.013327	60	10	60-180	60	69	GapExp	0	41	2	96	0	distractor	1	507	747	65127	13.328	13.292	13.363
ProbeTrack09	9	ProbeTrack	1470	SCS215a	20090511.104138	20090511.104645	8	0.013327	60	10	60-180	60	168	GapExp	0	42	2	96	0	distractor	1	480	760	65887	13.328	13.293	13.364
ProbeTrack09	9	ProbeTrack	1470	SCS215a	20090511.104138	20090511.104705	8	0.013327	60	10	60-180	60	150	GapExp	0	43	2	3	0	distractor	1	520	740	66627	13.328	13.289	13.366
ProbeTrack09	9	ProbeTrack	1470	SCS215a	20090511.104138	20090511.104712	8	0.013327	60	10	60-180	60	99	GapExp	0	44	2	96	0	distractor	1	520	740	67367	13.328	13.293	13.363
ProbeTrack09	9	ProbeTrack	1470	SCS215a	20090511.104138	20090511.104720	8	0.013327	60	10	60-180	60	63	GapExp	0	45	2	6	0	distractor	1	533	734	68101	13.328	13.293	13.363
ProbeTrack09	9	ProbeTrack	1470	SCS215a	20090511.104138	20090511.104725	8	0.013327	60	10	60-180	60	99	GapExp	0	46	2	3	1	target	1	347	827	68928	13.328	13.293	13.363
ProbeTrack09	9	ProbeTrack	1470	SCS215a	20090511.104138	20090511.104731	8	0.013327	60	10	60-180	60	149	GapExp	0	47	2	6	1	target	1	334	833	69761	13.328	13.293	13.363
ProbeTrack09	9	ProbeTrack	1470	SCS215a	20090511.104138	20090511.104738	8	0.013327	60	10	60-180	60	135	GapExp	0	48	2	3	1	target	1	414	793	70554	13.328	13.293	13.363
ProbeTrack09	9	ProbeTrack	1470	SCS215a	20090511.104138	20090511.104744	8	0.013327	60	10	60-180	60	73	GapExp	0	49	2	0	1	target	1	534	733	71287	13.328	13.293	13.363
ProbeTrack09	9	ProbeTrack	1470	SCS215a	20090511.104138	20090511.104750	8	0.013327	60	10	60-180	60	104	GapExp	0	50	2	0	1	target	1	387	807	72094	13.328	13.293	13.364
ProbeTrack09	9	ProbeTrack	1470	SCS215a	20090511.104138	20090511.104756	8	0.013327	60	10	60-180	60	165	GapExp	0	51	2	96	0	distractor	1	440	780	72874	13.328	13.293	13.363
ProbeTrack09	9	ProbeTrack	1470	SCS215a	20090511.104138	20090511.104804	8	0.013327	60	10	60-180	60	108	GapExp	0	52	2	0	1	target	1	467	767	73641	13.328	13.292	13.363
ProbeTrack09	9	ProbeTrack	1470	SCS215a	20090511.104138	20090511.104810	8	0.013327	60	10	60-180	60	139	GapExp	0	53	2	96	1	target	1	414	793	74434	13.328	13.291	13.363
ProbeTrack09	9	ProbeTrack	1470	SCS215a	20090511.104138	20090511.104818	8	0.013327	60	10	60-180	60	166	GapExp	0	54	2	0	0	distractor	1	414	793	75227	13.328	13.293	13.363
ProbeTrack09	9	ProbeTrack	1470	SCS215a	20090511.104138	20090511.104825	8	0.013327	60	10	60-180	60	140	GapExp	0	55	2	3	1	target	1	494	753	75980	13.328	13.293	13.363
ProbeTrack09	9	ProbeTrack	1470	SCS215a	20090511.104138	20090511.104832	8	0.013327	60	10	60-180	60	171	GapExp	0	56	2	3	0	distractor	1	467	767	76747	13.328	13.293	13.363
ProbeTrack09	9	ProbeTrack	1470	SCS215a	20090511.104138	20090511.104839	8	0.013327	60	10	60-180	60	151	GapExp	0	57	2	0	1	target	1	360	820	77567	13.328	13.293	13.365
ProbeTrack09	9	ProbeTrack	1470	SCS215a	20090511.104138	20090511.104846	8	0.013327	60	10	60-180	60	163	GapExp	0	58	2	96	0	distractor	1	494	753	78320	13.328	13.293	13.363
ProbeTrack09	9	ProbeTrack	1470	SCS215a	20090511.104138	20090511.104854	8	0.013327	60	10	60-180	60	104	GapExp	0	59	2	3	0	distractor	1	387	807	79127	13.328	13.293	13.363
ProbeTrack09	9	ProbeTrack	1470	SCS215a	20090511.104138	20090511.104901	8	0.013327	60	10	60-180	60	127	GapExp	0	60	2	96	1	distractor	0	560	-1000	78127	13.328	13.293	13.363
ProbeTrack09	9	ProbeTrack	1470	SCS215a	20090511.104138	20090511.104908	8	0.013327	60	10	60-180	60	153	GapExp	0	61	2	96	1	target	1	400	800	78927	13.328	13.293	13.364
ProbeTrack09	9	ProbeTrack	1470	SCS215a	20090511.104138	20090511.104916	8	0.013327	60	10	60-180	60	148	GapExp	0	62	2	96	0	distractor	1	520	740	79667	13.328	13.293	13.363
ProbeTrack09	9	ProbeTrack	1470	SCS215a	20090511.104138	20090511.104925	8	0.013327	60	10	60-180	60	163	GapExp	0	63	2	6	1	target	1	573	714	80381	13.328	13.293	13.363
ProbeTrack09	9	ProbeTrack	1470	SCS215a	20090511.104138	20090511.104932	8	0.013327	60	10	60-180	60	73	GapExp	0	64	2	3	0	distractor	1	587	707	81088	13.328	13.293	13.363
ProbeTrack09	9	ProbeTrack	1470	SCS215a	20090511.104138	20090511.104937	8	0.013327	60	10	60-180	60	179	GapExp	0	65	2	6	1	target	1	440	780	81868	13.328	13.293	13.367
ProbeTrack09	9	ProbeTrack	1470	SCS215a	20090511.104138	20090511.104944	8	0.013327	60	10	60-180	60	94	GapExp	0	66	2	6	0	distractor	1	520	740	82608	13.328	13.292	13.363
ProbeTrack09	9	ProbeTrack	1470	SCS215a	20090511.104138	20090511.104951	8	0.013327	60	10	60-180	60	124	GapExp	0	67	2	96	0	distractor	1	494	753	83361	13.328	13.293	13.363
ProbeTrack09	9	ProbeTrack	1470	SCS215a	20090511.104138	20090511.104958	8	0.013327	60	10	60-180	60	126	GapExp	0	68	2	6	0	distractor	1	427	787	84148	13.328	13.293	13.363
ProbeTrack09	9	ProbeTrack	1470	SCS215a	20090511.104138	20090511.105005	8	0.013327	60	10	60-180	60	126	GapExp	0	69	2	6	1	target	1	427	787	84935	13.328	13.293	13.364
ProbeTrack09	9	ProbeTrack	1470	SCS215a	20090511.104138	20090511.105011	8	0.013327	60	10	60-180	60	119	GapExp	0	70	2	6	0	distractor	1	560	720	85655	13.328	13.293	13.365
ProbeTrack09	9	ProbeTrack	1470	SCS215a	20090511.104138	20090511.105017	8	0.013327	60	10	60-180	60	146	GapExp	0	71	2	6	1	target	1	320	840	86495	13.328	13.293	13.363
ProbeTrack09	9	ProbeTrack	1470	SCS215a	20090511.104138	20090511.105024	8	0.013327	60	10	60-180	60	177	GapExp	0	72	2	96	0	distractor	1	467	767	87262	13.328	13.293	13.363
ProbeTrack09	9	ProbeTrack	1470	SCS215a	20090511.104138	20090511.105032	8	0.013327	60	10	60-180	60	117	GapExp	0	73	2	96	1	target	1	427	787	88049	13.328	13.293	13.363
ProbeTrack09	9	ProbeTrack	1470	SCS215a	20090511.104138	20090511.105040	8	0.013327	60	10	60-180	60	141	GapExp	0	74	2	96	0	distractor	1	480	760	88809	13.328	13.290	13.364
ProbeTrack09	9	ProbeTrack	1470	SCS215a	20090511.104138	20090511.105048	8	0.013327	60	10	60-180	60	154	GapExp	0	75	2	6	0	distractor	1	414	793	89602	13.328	13.293	13.363
ProbeTrack09	9	ProbeTrack	1470	SCS215a	20090511.104138	20090511.105055	8	0.013327	60	10	60-180	60	110	GapExp	0	76	2	6	1	distractor	0	400	-1000	88602	13.328	13.293	13.363
ProbeTrack09	9	ProbeTrack	1470	SCS215a	20090511.104138	20090511.105101	8	0.013327	60	10	60-180	60	135	GapExp	0	77	2	6	0	target	0	374	-1000	87602	13.328	13.293	13.363
ProbeTrack09	9	ProbeTrack	1470	SCS215a	20090511.104138	20090511.105122	8	0.013327	60	10	60-180	60	139	GapExp	0	78	2	6	1	target	1	400	800	88402	13.328	13.293	13.363
ProbeTrack09	9	ProbeTrack	1470	SCS215a	20090511.104138	20090511.105128	8	0.013327	60	10	60-180	60	78	GapExp	0	79	2	0	0	distractor	1	520	740	89142	13.328	13.293	13.363
ProbeTrack09	9	ProbeTrack	1470	SCS215a	20090511.104138	20090511.105134	8	0.013327	60	10	60-180	60	124	GapExp	0	80	2	6	1	target	1	547	727	89869	13.328	13.293	13.363
ProbeTrack09	9	ProbeTrack	1470	SCS215a	20090511.104138	20090511.105140	8	0.013327	60	10	60-180	60	80	GapExp	0	81	2	96	0	distractor	1	507	747	90616	13.328	13.293	13.366
ProbeTrack09	9	ProbeTrack	1470	SCS215a	20090511.104138	20090511.105147	8	0.013327	60	10	60-180	60	126	GapExp	0	82	2	96	0	distractor	1	507	747	91363	13.328	13.293	13.363
ProbeTrack09	9	ProbeTrack	1470	SCS215a	20090511.104138	20090511.105155	8	0.013327	60	10	60-180	60	111	GapExp	0	83	2	6	0	distractor	1	733	634	91997	13.328	13.293	13.363
ProbeTrack09	9	ProbeTrack	1470	SCS215a	20090511.104138	20090511.105205	8	0.013327	60	10	60-180	60	125	GapExp	0	84	2	0	0	distractor	1	467	767	92764	13.328	13.292	13.363
ProbeTrack09	9	ProbeTrack	1470	SCS215a	20090511.104138	20090511.105211	8	0.013327	60	10	60-180	60	87	GapExp	0	85	2	3	0	target	0	547	-1000	91764	13.328	13.293	13.363
ProbeTrack09	9	ProbeTrack	1470	SCS215a	20090511.104138	20090511.105217	8	0.013327	60	10	60-180	60	172	GapExp	0	86	2	6	0	distractor	1	440	780	92544	13.328	13.293	13.364
ProbeTrack09	9	ProbeTrack	1470	SCS215a	20090511.104138	20090511.105224	8	0.013327	60	10	60-180	60	78	GapExp	0	87	2	6	1	target	1	494	753	93297	13.328	13.293	13.366
ProbeTrack09	9	ProbeTrack	1470	SCS215a	20090511.104138	20090511.105229	8	0.013327	60	10	60-180	60	140	GapExp	0	88	2	3	0	distractor	1	547	727	94024	13.328	13.293	13.363
ProbeTrack09	9	ProbeTrack	1470	SCS215a	20090511.104138	20090511.105236	8	0.013327	60	10	60-180	60	92	GapExp	0	89	2	3	1	target	1	467	767	94791	13.328	13.293	13.364
ProbeTrack09	9	ProbeTrack	1470	SCS215a	20090511.104138	20090511.105242	8	0.013327	60	10	60-180	60	139	GapExp	0	90	2	3	1	target	1	440	780	95571	13.328	13.293	13.363
ProbeTrack09	9	ProbeTrack	1470	SCS215a	20090511.104138	20090511.105248	8	0.013327	60	10	60-180	60	153	GapExp	0	91	2	3	0	distractor	1	587	707	96278	13.328	13.293	13.366
ProbeTrack09	9	ProbeTrack	1470	SCS215a	20090511.104138	20090511.105255	8	0.013327	60	10	60-180	60	78	GapExp	0	92	2	3	1	target	1	454	773	97051	13.328	13.293	13.363
ProbeTrack09	9	ProbeTrack	1470	SCS215a	20090511.104138	20090511.105301	8	0.013327	60	10	60-180	60	145	GapExp	0	93	2	0	0	distractor	1	480	760	97811	13.328	13.293	13.363
ProbeTrack09	9	ProbeTrack	1470	SCS215a	20090511.104138	20090511.105308	8	0.013327	60	10	60-180	60	103	GapExp	0	94	2	3	1	target	1	374	813	98624	13.328	13.293	13.366
ProbeTrack09	9	ProbeTrack	1470	SCS215a	20090511.104138	20090511.105314	8	0.013327	60	10	60-180	60	89	GapExp	0	95	2	6	0	distractor	1	387	807	99431	13.328	13.293	13.363
ProbeTrack09	9	ProbeTrack	1470	SCS215a	20090511.104138	20090511.105319	8	0.013327	60	10	60-180	60	123	GapExp	0	96	2	0	0	distractor	1	440	780	100211	13.328	13.293	13.364
ProbeTrack09	9	ProbeTrack	1470	SCS215a	20090511.104138	20090511.105325	8	0.013327	60	10	60-180	60	120	GapExp	0	97	2	0	1	target	1	520	740	100951	13.328	13.293	13.363
ProbeTrack09	9	ProbeTrack	1470	SCS215a	20090511.104138	20090511.105332	8	0.013327	60	10	60-180	60	109	GapExp	0	98	2	3	1	target	1	387	807	101758	13.328	13.293	13.363
ProbeTrack09	9	ProbeTrack	1470	SCS215a	20090511.104138	20090511.105338	8	0.013327	60	10	60-180	60	102	GapExp	0	99	2	3	1	target	1	387	807	102565	13.328	13.293	13.363
ProbeTrack09	9	ProbeTrack	1470	SCS215a	20090511.104138	20090511.105344	8	0.013327	60	10	60-180	60	153	GapExp	0	100	2	3	1	target	1	387	807	103372	13.328	13.293	13.363
ProbeTrack09	9	ProbeTrack	1470	SCS215a	20090511.104138	20090511.105350	8	0.013327	60	10	60-180	60	103	GapExp	0	101	2	3	1	target	1	467	767	104139	13.328	13.292	13.365
ProbeTrack09	9	ProbeTrack	1470	SCS215a	20090511.104138	20090511.105358	8	0.013327	60	10	60-180	60	82	GapExp	0	102	2	96	1	target	1	387	807	104946	13.328	13.293	13.363
ProbeTrack09	9	ProbeTrack	1470	SCS215a	20090511.104138	20090511.105405	8	0.013327	60	10	60-180	60	113	GapExp	0	103	2	6	0	distractor	1	400	800	105746	13.328	13.293	13.363
ProbeTrack09	9	ProbeTrack	1470	SCS215a	20090511.104138	20090511.105411	8	0.013327	60	10	60-180	60	84	GapExp	0	104	2	96	0	target	0	440	-1000	104746	13.328	13.289	13.366
ProbeTrack09	9	ProbeTrack	1470	SCS215a	20090511.104138	20090511.105419	8	0.013327	60	10	60-180	60	174	GapExp	0	105	2	6	1	target	1	534	733	105479	13.328	13.293	13.363
ProbeTrack09	9	ProbeTrack	1470	SCS215a	20090511.104138	20090511.105430	8	0.013327	60	10	60-180	60	111	GapExp	0	106	2	0	0	distractor	1	440	780	106259	13.328	13.291	13.363
ProbeTrack09	9	ProbeTrack	1470	SCS215a	20090511.104138	20090511.105436	8	0.013327	60	10	60-180	60	87	GapExp	0	107	2	0	0	distractor	1	480	760	107019	13.328	13.293	13.363
ProbeTrack09	9	ProbeTrack	1470	SCS215a	20090511.104138	20090511.105442	8	0.013327	60	10	60-180	60	139	GapExp	0	108	2	6	0	distractor	1	440	780	107799	13.328	13.293	13.363
ProbeTrack09	9	ProbeTrack	1470	SCS215a	20090511.104138	20090511.105449	8	0.013327	60	10	60-180	60	65	GapExp	0	109	2	0	1	target	1	494	753	108552	13.328	13.293	13.363
ProbeTrack09	9	ProbeTrack	1470	SCS215a	20090511.104138	20090511.105455	8	0.013327	60	10	60-180	60	73	GapExp	0	110	2	3	0	distractor	1	467	767	109319	13.328	13.293	13.363
ProbeTrack09	9	ProbeTrack	1470	SCS215a	20090511.104138	20090511.105500	8	0.013327	60	10	60-180	60	77	GapExp	0	111	2	96	0	distractor	1	507	747	110066	13.328	13.293	13.365
ProbeTrack09	9	ProbeTrack	1470	SCS215a	20090511.104138	20090511.105507	8	0.013327	60	10	60-180	60	65	GapExp	0	112	2	0	1	target	1	467	767	110833	13.328	13.292	13.363
ProbeTrack09	9	ProbeTrack	1470	SCS215a	20090511.104138	20090511.105512	8	0.013327	60	10	60-180	60	73	GapExp	0	113	2	96	1	target	1	454	773	111606	13.328	13.293	13.363
ProbeTrack09	9	ProbeTrack	1470	SCS215a	20090511.104138	20090511.105519	8	0.013327	60	10	60-180	60	62	GapExp	0	114	2	6	1	target	1	480	760	112366	13.328	13.293	13.363
ProbeTrack09	9	ProbeTrack	1470	SCS215a	20090511.104138	20090511.105525	8	0.013327	60	10	60-180	60	114	GapExp	0	115	2	0	0	distractor	1	480	760	113126	13.328	13.291	13.366
ProbeTrack09	9	ProbeTrack	1470	SCS215a	20090511.104138	20090511.105531	8	0.013327	60	10	60-180	60	127	GapExp	0	116	2	96	0	distractor	1	440	780	113906	13.328	13.292	13.364
ProbeTrack09	9	ProbeTrack	1470	SCS215a	20090511.104138	20090511.105538	8	0.013327	60	10	60-180	60	116	GapExp	0	117	2	0	0	distractor	1	494	753	114659	13.328	13.293	13.363
ProbeTrack09	9	ProbeTrack	1470	SCS215a	20090511.104138	20090511.105545	8	0.013327	60	10	60-180	60	67	GapExp	0	118	2	96	1	target	1	387	807	115466	13.328	13.293	13.363
ProbeTrack09	9	ProbeTrack	1470	SCS215a	20090511.104138	20090511.105551	8	0.013327	60	10	60-180	60	179	GapExp	0	119	2	3	1	target	1	733	634	116100	13.328	13.293	13.363
ProbeTrack09	9	ProbeTrack	1470	SCS215a	20090511.104138	20090511.105559	8	0.013327	60	10	60-180	60	70	GapExp	0	120	2	6	0	distractor	1	414	793	116893	13.328	13.293	13.363
ProbeTrack09	9	ProbeTrack	1470	SCS215a	20090511.104138	20090511.105605	8	0.013327	60	10	60-180	60	115	GapExp	0	121	2	0	1	target	1	374	813	117706	13.328	13.293	13.363
ProbeTrack09	9	ProbeTrack	1470	SCS215a	20090511.104138	20090511.105614	8	0.013327	60	10	60-180	60	78	GapExp	0	122	2	96	1	target	1	414	793	118499	13.328	13.293	13.364
ProbeTrack09	9	ProbeTrack	1470	SCS215a	20090511.104138	20090511.105621	8	0.013327	60	10	60-180	60	127	GapExp	0	123	2	96	1	target	1	414	793	119292	13.328	13.293	13.363
ProbeTrack09	9	ProbeTrack	1470	SCS215a	20090511.104138	20090511.105629	8	0.013327	60	10	60-180	60	108	GapExp	0	124	2	96	0	distractor	1	520	740	120032	13.328	13.293	13.363
ProbeTrack09	9	ProbeTrack	1470	SCS215a	20090511.104138	20090511.105636	8	0.013327	60	10	60-180	60	95	GapExp	0	125	2	6	0	distractor	1	480	760	120792	13.328	13.293	13.363
ProbeTrack09	9	ProbeTrack	1470	SCS215a	20090511.104138	20090511.105642	8	0.013327	60	10	60-180	60	150	GapExp	0	126	2	6	1	target	1	467	767	121559	13.328	13.292	13.364
ProbeTrack09	9	ProbeTrack	1470	SCS215a	20090511.104138	20090511.105649	8	0.013327	60	10	60-180	60	141	GapExp	0	127	2	6	0	distractor	1	507	747	122306	13.328	13.293	13.363
ProbeTrack09	9	ProbeTrack	1470	SCS215a	20090511.104138	20090511.105656	8	0.013327	60	10	60-180	60	176	GapExp	0	128	2	3	1	target	1	387	807	123113	13.328	13.293	13.363
ProbeTrack09	9	ProbeTrack	1470	SCS215a	20090511.104138	20090511.105703	8	0.013327	60	10	60-180	60	121	GapExp	0	129	2	6	0	distractor	1	334	833	123946	13.328	13.293	13.364
ProbeTrack09	9	ProbeTrack	1470	SCS215a	20090511.104138	20090511.105709	8	0.013327	60	10	60-180	60	101	GapExp	0	130	2	3	0	distractor	1	387	807	124753	13.328	13.292	13.363
ProbeTrack09	9	ProbeTrack	1470	SCS215a	20090511.104138	20090511.105715	8	0.013327	60	10	60-180	60	119	GapExp	0	131	2	6	1	target	1	374	813	125566	13.328	13.293	13.363
ProbeTrack09	9	ProbeTrack	1470	SCS215a	20090511.104138	20090511.105721	8	0.013327	60	10	60-180	60	133	GapExp	0	132	2	0	1	target	1	400	800	126366	13.328	13.293	13.363
ProbeTrack09	9	ProbeTrack	1470	SCS215a	20090511.104138	20090511.105727	8	0.013327	60	10	60-180	60	126	GapExp	0	133	2	96	0	distractor	1	440	780	127146	13.328	13.293	13.363
ProbeTrack09	9	ProbeTrack	1470	SCS215a	20090511.104138	20090511.105734	8	0.013327	60	10	60-180	60	128	GapExp	0	134	2	0	0	distractor	1	507	747	127893	13.328	13.293	13.363
ProbeTrack09	9	ProbeTrack	1470	SCS215a	20090511.104138	20090511.105742	8	0.013327	60	10	60-180	60	178	GapExp	0	135	2	96	0	distractor	1	454	773	128666	13.328	13.290	13.364
ProbeTrack09	9	ProbeTrack	1470	SCS215a	20090511.104138	20090511.105750	8	0.013327	60	10	60-180	60	136	GapExp	0	136	2	0	0	distractor	1	640	680	129346	13.328	13.292	13.363
ProbeTrack09	9	ProbeTrack	1470	SCS215a	20090511.104138	20090511.105757	8	0.013327	60	10	60-180	60	140	GapExp	0	137	2	3	1	target	1	387	807	130153	13.328	13.293	13.363
ProbeTrack09	9	ProbeTrack	1470	SCS215a	20090511.104138	20090511.105803	8	0.013327	60	10	60-180	60	106	GapExp	0	138	2	96	0	distractor	1	467	767	130920	13.328	13.293	13.363
ProbeTrack09	9	ProbeTrack	1470	SCS215a	20090511.104138	20090511.105813	8	0.013327	60	10	60-180	60	162	GapExp	0	139	2	6	1	target	1	400	800	131720	13.328	13.293	13.363
ProbeTrack09	9	ProbeTrack	1470	SCS215a	20090511.104138	20090511.105820	8	0.013327	60	10	60-180	60	146	GapExp	0	140	2	3	0	distractor	1	440	780	132500	13.328	13.293	13.363
ProbeTrack09	9	ProbeTrack	1470	SCS215a	20090511.104138	20090511.105827	8	0.013327	60	10	60-180	60	128	GapExp	0	141	2	96	1	target	1	320	840	133340	13.328	13.293	13.363
ProbeTrack09	9	ProbeTrack	1470	SCS215a	20090511.104138	20090511.105834	8	0.013327	60	10	60-180	60	79	GapExp	0	142	2	3	0	distractor	1	440	780	134120	13.328	13.293	13.363
ProbeTrack09	9	ProbeTrack	1470	SCS215a	20090511.104138	20090511.105840	8	0.013327	60	10	60-180	60	81	GapExp	0	143	2	96	1	target	1	280	860	134980	13.328	13.292	13.363
ProbeTrack09	9	ProbeTrack	1470	SCS215a	20090511.104138	20090511.105847	8	0.013327	60	10	60-180	60	172	GapExp	0	144	2	0	0	distractor	1	387	807	135787	13.328	13.293	13.364
ProbeTrack09	9	ProbeTrack	1470	SCS215a	20090511.104138	20090511.105854	8	0.013327	60	10	60-180	60	132	GapExp	0	145	2	96	0	distractor	1	573	714	136501	13.328	13.290	13.363
ProbeTrack09	9	ProbeTrack	1470	SCS215a	20090511.104138	20090511.105901	8	0.013327	60	10	60-180	60	98	GapExp	0	146	2	0	1	target	1	640	680	137181	13.328	13.293	13.363
ProbeTrack09	9	ProbeTrack	1470	SCS215a	20090511.104138	20090511.105907	8	0.013327	60	10	60-180	60	112	GapExp	0	147	2	0	0	distractor	1	427	787	137968	13.328	13.293	13.363
ProbeTrack09	9	ProbeTrack	1470	SCS215a	20090511.104138	20090511.105913	8	0.013327	60	10	60-180	60	135	GapExp	0	148	2	3	0	target	0	360	-1000	136968	13.328	13.293	13.364
ProbeTrack09	9	ProbeTrack	1470	SCS215a	20090511.104138	20090511.105920	8	0.013327	60	10	60-180	60	126	GapExp	0	149	2	3	1	target	1	414	793	137761	13.328	13.293	13.367
ProbeTrack09	9	ProbeTrack	1470	SCS215a	20090511.104138	20090511.105926	8	0.013327	60	10	60-180	60	100	GapExp	0	150	2	6	0	target	0	440	-1000	136761	13.328	13.291	13.363
ProbeTrack09	9	ProbeTrack	1470	SCS215a	20090511.104138	20090511.105932	8	0.013327	60	10	60-180	60	83	GapExp	0	151	2	3	0	distractor	1	440	780	137541	13.328	13.291	13.363
ProbeTrack09	9	ProbeTrack	1470	SCS215a	20090511.104138	20090511.105954	8	0.013327	60	10	60-180	60	64	GapExp	0	152	2	6	1	target	1	400	800	138341	13.328	13.293	13.363
ProbeTrack09	9	ProbeTrack	1470	SCS215a	20090511.104138	20090511.110003	8	0.013327	60	10	60-180	60	91	GapExp	0	153	2	0	1	target	1	387	807	139148	13.328	13.293	13.363
ProbeTrack09	9	ProbeTrack	1470	SCS215a	20090511.104138	20090511.110009	8	0.013327	60	10	60-180	60	172	GapExp	0	154	2	6	1	target	1	387	807	139955	13.328	13.293	13.363
ProbeTrack09	9	ProbeTrack	1470	SCS215a	20090511.104138	20090511.110016	8	0.013327	60	10	60-180	60	144	GapExp	0	155	2	3	1	multi	-2	387	-1000	138955	13.328	13.293	13.363
ProbeTrack09	9	ProbeTrack	1470	SCS215a	20090511.104138	20090511.110022	8	0.013327	60	10	60-180	60	134	GapExp	0	156	2	6	1	target	1	347	827	139782	13.328	13.293	13.363
ProbeTrack09	9	ProbeTrack	1470	SCS215a	20090511.104138	20090511.110030	8	0.013327	60	10	60-180	60	177	GapExp	0	157	2	0	1	target	1	494	753	140535	13.328	13.293	13.363
ProbeTrack09	9	ProbeTrack	1470	SCS215a	20090511.104138	20090511.110038	8	0.013327	60	10	60-180	60	86	GapExp	0	158	2	3	1	target	1	400	800	141335	13.328	13.293	13.363
ProbeTrack09	9	ProbeTrack	1470	SCS215a	20090511.104138	20090511.110045	8	0.013327	60	10	60-180	60	69	GapExp	0	159	2	6	0	distractor	1	467	767	142102	13.328	13.293	13.363
ProbeTrack09	9	ProbeTrack	1470	SCS215a	20090511.104138	20090511.110051	8	0.013327	60	10	60-180	60	111	GapExp	0	160	2	0	0	distractor	1	547	727	142829	13.328	13.293	13.363
ProbeTrack09	9	ProbeTrack	1470	SCS215a	20090511.104138	20090511.110057	8	0.013327	60	10	60-180	60	115	GapExp	0	161	2	96	1	target	1	414	793	143622	13.328	13.293	13.363
ProbeTrack09	9	ProbeTrack	1470	SCS215a	20090511.104138	20090511.110104	8	0.013327	60	10	60-180	60	132	GapExp	0	162	2	3	1	target	1	387	807	144429	13.328	13.293	13.363
ProbeTrack09	9	ProbeTrack	1470	SCS215a	20090511.104138	20090511.110110	8	0.013327	60	10	60-180	60	118	GapExp	0	163	2	3	0	distractor	1	507	747	145176	13.328	13.293	13.363
ProbeTrack09	9	ProbeTrack	1470	SCS215a	20090511.104138	20090511.110117	8	0.013327	60	10	60-180	60	96	GapExp	0	164	2	3	0	distractor	1	480	760	145936	13.328	13.293	13.363
ProbeTrack09	9	ProbeTrack	1470	SCS215a	20090511.104138	20090511.110123	8	0.013327	60	10	60-180	60	146	GapExp	0	165	2	0	1	target	1	414	793	146729	13.328	13.293	13.363
ProbeTrack09	9	ProbeTrack	1470	SCS215a	20090511.104138	20090511.110132	8	0.013327	60	10	60-180	60	165	GapExp	0	166	2	0	0	distractor	1	587	707	147436	13.328	13.293	13.363
ProbeTrack09	9	ProbeTrack	1470	SCS215a	20090511.104138	20090511.110139	8	0.013327	60	10	60-180	60	68	GapExp	0	167	2	96	0	distractor	1	494	753	148189	13.328	13.293	13.363
ProbeTrack09	9	ProbeTrack	1470	SCS215a	20090511.104138	20090511.110146	8	0.013327	60	10	60-180	60	127	GapExp	0	168	2	96	1	target	1	440	780	148969	13.328	13.293	13.363
ProbeTrack09	9	ProbeTrack	1470	SCS215a	20090511.104138	20090511.110153	8	0.013327	60	10	60-180	60	88	GapExp	0	169	2	6	0	distractor	1	400	800	149769	13.328	13.293	13.363
ProbeTrack09	9	ProbeTrack	1470	SCS215a	20090511.104138	20090511.110159	8	0.013327	60	10	60-180	60	126	GapExp	0	170	2	0	1	target	1	374	813	150582	13.328	13.293	13.363
ProbeTrack09	9	ProbeTrack	1470	SCS215a	20090511.104138	20090511.110205	8	0.013327	60	10	60-180	60	81	GapExp	0	171	2	6	0	distractor	1	440	780	151362	13.328	13.292	13.363
ProbeTrack09	9	ProbeTrack	1470	SCS215a	20090511.104138	20090511.110211	8	0.013327	60	10	60-180	60	164	GapExp	0	172	2	96	0	distractor	1	494	753	152115	13.328	13.293	13.363
ProbeTrack09	9	ProbeTrack	1470	SCS215a	20090511.104138	20090511.110219	8	0.013327	60	10	60-180	60	66	GapExp	0	173	2	0	0	distractor	1	467	767	152882	13.328	13.293	13.363
ProbeTrack09	9	ProbeTrack	1470	SCS215a	20090511.104138	20090511.110224	8	0.013327	60	10	60-180	60	82	GapExp	0	174	2	0	0	distractor	1	440	780	153662	13.328	13.293	13.362
ProbeTrack09	9	ProbeTrack	1470	SCS215a	20090511.104138	20090511.110230	8	0.013327	60	10	60-180	60	133	GapExp	0	175	2	0	1	target	1	387	807	154469	13.328	13.291	13.364
ProbeTrack09	9	ProbeTrack	1470	SCS215a	20090511.104138	20090511.110236	8	0.013327	60	10	60-180	60	92	GapExp	0	176	2	6	1	target	1	334	833	155302	13.328	13.293	13.363
ProbeTrack09	9	ProbeTrack	1470	SCS215a	20090511.104138	20090511.110242	8	0.013327	60	10	60-180	60	101	GapExp	0	177	2	3	0	distractor	1	387	807	156109	13.328	13.292	13.363
ProbeTrack09	9	ProbeTrack	1470	SCS215a	20090511.104138	20090511.110247	8	0.013327	60	10	60-180	60	117	GapExp	0	178	2	6	0	distractor	1	414	793	156902	13.328	13.293	13.363
ProbeTrack09	9	ProbeTrack	1470	SCS215a	20090511.104138	20090511.110253	8	0.013327	60	10	60-180	60	68	GapExp	0	179	2	3	0	distractor	1	467	767	157669	13.328	13.293	13.363
ProbeTrack09	9	ProbeTrack	1470	SCS215a	20090511.104138	20090511.110259	8	0.013327	60	10	60-180	60	62	GapExp	0	180	2	6	1	target	1	414	793	158462	13.328	13.284	13.371
ProbeTrack09	9	ProbeTrack	1470	SCS215a	20090511.104138	20090511.110304	8	0.013327	60	10	60-180	60	138	GapExp	0	181	2	0	1	target	1	360	820	159282	13.328	13.293	13.363
ProbeTrack09	9	ProbeTrack	1470	SCS215a	20090511.104138	20090511.110311	8	0.013327	60	10	60-180	60	70	GapExp	0	182	2	0	1	target	1	414	793	160075	13.328	13.293	13.364
ProbeTrack09	9	ProbeTrack	1470	SCS215a	20090511.104138	20090511.110316	8	0.013327	60	10	60-180	60	171	GapExp	0	183	2	0	0	distractor	1	387	807	160882	13.328	13.292	13.364
ProbeTrack09	9	ProbeTrack	1470	SCS215a	20090511.104138	20090511.110323	8	0.013327	60	10	60-180	60	80	GapExp	0	184	2	6	0	distractor	1	547	727	161609	13.328	13.293	13.363
ProbeTrack09	9	ProbeTrack	1470	SCS215a	20090511.104138	20090511.110329	8	0.013327	60	10	60-180	60	78	GapExp	0	185	2	96	1	target	1	334	833	162442	13.328	13.293	13.363
ProbeTrack09	9	ProbeTrack	1470	SCS215a	20090511.104138	20090511.110335	8	0.013327	60	10	60-180	60	111	GapExp	0	186	2	96	1	target	1	347	827	163269	13.328	13.293	13.363
ProbeTrack09	9	ProbeTrack	1470	SCS215a	20090511.104138	20090511.110343	8	0.013327	60	10	60-180	60	115	GapExp	0	187	2	3	1	target	1	347	827	164096	13.328	13.293	13.363
ProbeTrack09	9	ProbeTrack	1470	SCS215a	20090511.104138	20090511.110349	8	0.013327	60	10	60-180	60	63	GapExp	0	188	2	0	0	distractor	1	414	793	164889	13.328	13.292	13.363
ProbeTrack09	9	ProbeTrack	1470	SCS215a	20090511.104138	20090511.110354	8	0.013327	60	10	60-180	60	125	GapExp	0	189	2	3	1	target	1	360	820	165709	13.328	13.293	13.364
ProbeTrack09	9	ProbeTrack	1470	SCS215a	20090511.104138	20090511.110400	8	0.013327	60	10	60-180	60	78	GapExp	0	190	2	3	1	target	1	320	840	166549	13.328	13.293	13.367
ProbeTrack09	9	ProbeTrack	1470	SCS215a	20090511.104138	20090511.110405	8	0.013327	60	10	60-180	60	76	GapExp	0	191	2	96	1	target	1	374	813	167362	13.328	13.293	13.363
ProbeTrack09	9	ProbeTrack	1470	SCS215a	20090511.104138	20090511.110414	8	0.013327	60	10	60-180	60	171	GapExp	0	192	2	3	1	target	1	360	820	168182	13.328	13.291	13.365
ProbeTrack09	9	ProbeTrack	1470	SCS215a	20090511.104138	20090511.110421	8	0.013327	60	10	60-180	60	85	GapExp	0	193	2	0	0	target	0	547	-1000	167182	13.328	13.293	13.363
ProbeTrack09	9	ProbeTrack	1470	SCS215a	20090511.104138	20090511.110427	8	0.013327	60	10	60-180	60	128	GapExp	0	194	2	0	0	distractor	1	454	773	167955	13.328	13.290	13.366
ProbeTrack09	9	ProbeTrack	1470	SCS215a	20090511.104138	20090511.110433	8	0.013327	60	10	60-180	60	132	GapExp	0	195	2	6	0	distractor	1	440	780	168735	13.328	13.293	13.363
ProbeTrack09	9	ProbeTrack	1470	SCS215a	20090511.104138	20090511.110442	8	0.013327	60	10	60-180	60	100	GapExp	0	196	2	3	0	distractor	1	427	787	169522	13.328	13.293	13.363
ProbeTrack09	9	ProbeTrack	1470	SCS215a	20090511.104138	20090511.110448	8	0.013327	60	10	60-180	60	89	GapExp	0	197	2	0	0	target	0	427	-1000	168522	13.328	13.293	13.363
ProbeTrack09	9	ProbeTrack	1470	SCS215a	20090511.104138	20090511.110454	8	0.013327	60	10	60-180	60	92	GapExp	0	198	2	6	1	target	1	534	733	169255	13.328	13.290	13.363
ProbeTrack09	9	ProbeTrack	1470	SCS215a	20090511.104138	20090511.110500	8	0.013327	60	10	60-180	60	165	GapExp	0	199	2	3	0	distractor	1	574	713	169968	13.328	13.293	13.363
ProbeTrack09	9	ProbeTrack	1470	SCS215a	20090511.104138	20090511.110507	8	0.013327	60	10	60-180	60	165	GapExp	0	200	2	3	1	target	1	334	833	170801	13.328	13.293	13.363
