exp	sub	code	rev	comp	runtime	trialtime	nstim	refreshdur	cuedur	gapdur	gapOnsetRange	durPostProbe	gapOnsetTime	blocktype	prac	trial	ntargets	soa	probeTarget	resp	acc	rt	pts	tpts	meanFrameDur	minFrameDur	maxFrameDur
ProbeTrack09	12	ProbeTrack	1470	SCS215a	20090522.103455	20090522.103500	8	0.013327	60	0	60-180	60	91	NoGap	1	1	2	6	1	target	1	4532	0	0	13.328	13.289	13.363
ProbeTrack09	12	ProbeTrack	1470	SCS215a	20090522.103455	20090522.103600	8	0.013327	60	0	60-180	60	177	NoGap	1	2	2	0	1	target	1	667	667	667	13.328	13.292	13.363
ProbeTrack09	12	ProbeTrack	1470	SCS215a	20090522.103455	20090522.103626	8	0.013327	60	0	60-180	60	88	NoGap	1	3	2	96	1	target	1	560	720	1387	13.328	13.293	13.363
ProbeTrack09	12	ProbeTrack	1470	SCS215a	20090522.103455	20090522.103633	8	0.013327	60	0	60-180	60	136	NoGap	1	4	2	6	0	distractor	1	880	560	1947	13.328	13.293	13.363
ProbeTrack09	12	ProbeTrack	1470	SCS215a	20090522.103455	20090522.103640	8	0.013327	60	0	60-180	60	165	NoGap	1	5	2	3	0	distractor	1	747	627	2574	13.328	13.292	13.363
ProbeTrack09	12	ProbeTrack	1470	SCS215a	20090522.103455	20090522.103648	8	0.013327	60	0	60-180	60	122	NoGap	1	6	2	3	0	distractor	1	627	687	3261	13.328	13.293	13.363
ProbeTrack09	12	ProbeTrack	1470	SCS215a	20090522.103455	20090522.103654	8	0.013327	60	0	60-180	60	116	NoGap	1	7	2	6	1	distractor	0	520	-1000	2261	13.327	13.292	13.364
ProbeTrack09	12	ProbeTrack	1470	SCS215a	20090522.103455	20090522.103701	8	0.013327	60	0	60-180	60	126	NoGap	1	8	2	96	0	distractor	1	520	740	3001	13.328	13.292	13.363
ProbeTrack09	12	ProbeTrack	1470	SCS215a	20090522.103455	20090522.103711	8	0.013327	60	0	60-180	60	128	NoGap	1	9	2	96	0	distractor	1	533	734	3735	13.328	13.292	13.363
ProbeTrack09	12	ProbeTrack	1470	SCS215a	20090522.103455	20090522.103718	8	0.013327	60	0	60-180	60	134	NoGap	1	10	2	6	0	distractor	1	587	707	4442	13.328	13.293	13.363
ProbeTrack09	12	ProbeTrack	1470	SCS215a	20090522.103455	20090522.103725	8	0.013327	60	0	60-180	60	142	NoGap	1	11	2	0	1	distractor	0	454	-1000	3442	13.328	13.293	13.363
ProbeTrack09	12	ProbeTrack	1470	SCS215a	20090522.103455	20090522.103731	8	0.013327	60	0	60-180	60	174	NoGap	1	12	2	96	1	target	1	680	660	4102	13.328	13.292	13.363
ProbeTrack09	12	ProbeTrack	1470	SCS215a	20090522.103455	20090522.103741	8	0.013327	60	0	60-180	60	108	NoGap	1	13	2	6	0	distractor	1	1133	434	4536	13.328	13.293	13.363
ProbeTrack09	12	ProbeTrack	1470	SCS215a	20090522.103455	20090522.103748	8	0.013327	60	0	60-180	60	86	NoGap	1	14	2	6	1	target	1	667	667	5203	13.327	13.293	13.363
ProbeTrack09	12	ProbeTrack	1470	SCS215a	20090522.103455	20090522.103803	8	0.013327	60	0	60-180	60	102	NoGap	1	15	2	0	0	distractor	1	680	660	5863	13.327	13.293	13.366
ProbeTrack09	12	ProbeTrack	1470	SCS215a	20090522.103455	20090522.103810	8	0.013327	60	0	60-180	60	70	NoGap	1	16	2	0	0	distractor	1	600	700	6563	13.328	13.293	13.363
ProbeTrack09	12	ProbeTrack	1470	SCS215a	20090522.103455	20090522.103817	8	0.013327	60	0	60-180	60	120	NoGap	1	17	2	96	1	target	1	427	787	7350	13.328	13.293	13.363
ProbeTrack09	12	ProbeTrack	1470	SCS215a	20090522.103455	20090522.103824	8	0.013327	60	0	60-180	60	147	NoGap	1	18	2	96	1	target	1	507	747	8097	13.328	13.292	13.363
ProbeTrack09	12	ProbeTrack	1470	SCS215a	20090522.103455	20090522.103832	8	0.013327	60	0	60-180	60	62	NoGap	1	19	2	96	1	target	1	534	733	8830	13.328	13.293	13.364
ProbeTrack09	12	ProbeTrack	1470	SCS215a	20090522.103455	20090522.103839	8	0.013327	60	0	60-180	60	69	NoGap	1	20	2	96	0	distractor	1	454	773	9603	13.328	13.292	13.363
ProbeTrack09	12	ProbeTrack	1470	SCS215a	20090522.103455	20090522.103845	8	0.013327	60	0	60-180	60	82	NoGap	1	21	2	3	1	target	1	533	734	10337	13.328	13.293	13.362
ProbeTrack09	12	ProbeTrack	1470	SCS215a	20090522.103455	20090522.103851	8	0.013327	60	0	60-180	60	128	NoGap	1	22	2	3	0	distractor	1	613	694	11031	13.328	13.293	13.363
ProbeTrack09	12	ProbeTrack	1470	SCS215a	20090522.103455	20090522.103857	8	0.013327	60	0	60-180	60	166	NoGap	1	23	2	0	0	distractor	1	480	760	11791	13.328	13.292	13.363
ProbeTrack09	12	ProbeTrack	1470	SCS215a	20090522.103455	20090522.103904	8	0.013327	60	0	60-180	60	84	NoGap	1	24	2	3	0	distractor	1	454	773	12564	13.328	13.292	13.363
ProbeTrack09	12	ProbeTrack	1470	SCS215a	20090522.103455	20090522.103909	8	0.013327	60	0	60-180	60	168	NoGap	1	25	2	6	1	target	1	480	760	13324	13.328	13.293	13.363
ProbeTrack09	12	ProbeTrack	1470	SCS215a	20090522.103455	20090522.103916	8	0.013327	60	0	60-180	60	141	NoGap	1	26	2	96	0	distractor	1	400	800	14124	13.328	13.293	13.363
ProbeTrack09	12	ProbeTrack	1470	SCS215a	20090522.103455	20090522.103924	8	0.013327	60	0	60-180	60	102	NoGap	1	27	2	3	1	target	1	387	807	14931	13.328	13.293	13.363
ProbeTrack09	12	ProbeTrack	1470	SCS215a	20090522.103455	20090522.103929	8	0.013327	60	0	60-180	60	156	NoGap	1	28	2	6	1	target	1	347	827	15758	13.328	13.293	13.363
ProbeTrack09	12	ProbeTrack	1470	SCS215a	20090522.103455	20090522.103936	8	0.013327	60	0	60-180	60	178	NoGap	1	29	2	6	0	distractor	1	573	714	16472	13.328	13.293	13.363
ProbeTrack09	12	ProbeTrack	1470	SCS215a	20090522.103455	20090522.103943	8	0.013327	60	0	60-180	60	98	NoGap	1	30	2	96	1	target	1	467	767	17239	13.328	13.289	13.366
ProbeTrack09	12	ProbeTrack	1470	SCS215a	20090522.103455	20090522.103950	8	0.013327	60	0	60-180	60	87	NoGap	1	31	2	3	0	distractor	1	560	720	17959	13.327	13.293	13.362
ProbeTrack09	12	ProbeTrack	1470	SCS215a	20090522.103455	20090522.103955	8	0.013327	60	0	60-180	60	112	NoGap	1	32	2	96	0	distractor	1	574	713	18672	13.328	13.292	13.362
ProbeTrack09	12	ProbeTrack	1470	SCS215a	20090522.103455	20090522.104003	8	0.013327	60	0	60-180	60	139	NoGap	1	33	2	6	1	target	1	454	773	19445	13.328	13.293	13.363
ProbeTrack09	12	ProbeTrack	1470	SCS215a	20090522.103455	20090522.104009	8	0.013327	60	0	60-180	60	157	NoGap	1	34	2	3	1	target	1	374	813	20258	13.328	13.293	13.363
ProbeTrack09	12	ProbeTrack	1470	SCS215a	20090522.103455	20090522.104017	8	0.013327	60	0	60-180	60	65	NoGap	1	35	2	0	1	target	1	400	800	21058	13.328	13.293	13.365
ProbeTrack09	12	ProbeTrack	1470	SCS215a	20090522.103455	20090522.104022	8	0.013327	60	0	60-180	60	129	NoGap	1	36	2	6	0	distractor	1	534	733	21791	13.328	13.293	13.363
ProbeTrack09	12	ProbeTrack	1470	SCS215a	20090522.103455	20090522.104028	8	0.013327	60	0	60-180	60	137	NoGap	1	37	2	0	0	distractor	1	440	780	22571	13.328	13.293	13.363
ProbeTrack09	12	ProbeTrack	1470	SCS215a	20090522.103455	20090522.104035	8	0.013327	60	0	60-180	60	78	NoGap	1	38	2	0	1	target	1	400	800	23371	13.328	13.290	13.363
ProbeTrack09	12	ProbeTrack	1470	SCS215a	20090522.103455	20090522.104040	8	0.013327	60	0	60-180	60	104	NoGap	1	39	2	3	1	target	1	294	853	24224	13.328	13.293	13.363
ProbeTrack09	12	ProbeTrack	1470	SCS215a	20090522.103455	20090522.104046	8	0.013327	60	0	60-180	60	148	NoGap	1	40	2	96	0	distractor	1	454	773	24997	13.328	13.293	13.363
ProbeTrack09	12	ProbeTrack	1470	SCS215a	20090522.103455	20090522.104053	8	0.013327	60	0	60-180	60	128	NoGap	1	41	2	6	0	distractor	1	467	767	25764	13.328	13.293	13.363
ProbeTrack09	12	ProbeTrack	1470	SCS215a	20090522.103455	20090522.104100	8	0.013327	60	0	60-180	60	90	NoGap	1	42	2	0	1	target	1	401	800	26564	13.328	13.293	13.363
ProbeTrack09	12	ProbeTrack	1470	SCS215a	20090522.103455	20090522.104105	8	0.013327	60	0	60-180	60	106	NoGap	1	43	2	0	0	distractor	1	480	760	27324	13.328	13.291	13.363
ProbeTrack09	12	ProbeTrack	1470	SCS215a	20090522.103455	20090522.104111	8	0.013327	60	0	60-180	60	81	NoGap	1	44	2	6	1	target	1	467	767	28091	13.327	13.292	13.364
ProbeTrack09	12	ProbeTrack	1470	SCS215a	20090522.103455	20090522.104116	8	0.013327	60	0	60-180	60	69	NoGap	1	45	2	96	0	distractor	1	334	833	28924	13.328	13.293	13.363
ProbeTrack09	12	ProbeTrack	1470	SCS215a	20090522.103455	20090522.104123	8	0.013327	60	0	60-180	60	170	NoGap	1	46	2	3	0	distractor	1	440	780	29704	13.328	13.293	13.363
ProbeTrack09	12	ProbeTrack	1470	SCS215a	20090522.103455	20090522.104132	8	0.013327	60	0	60-180	60	63	NoGap	1	47	2	3	0	distractor	1	480	760	30464	13.328	13.291	13.363
ProbeTrack09	12	ProbeTrack	1470	SCS215a	20090522.103455	20090522.104138	8	0.013327	60	0	60-180	60	125	NoGap	1	48	2	6	0	distractor	1	427	787	31251	13.328	13.293	13.363
ProbeTrack09	12	ProbeTrack	1470	SCS215a	20090522.103455	20090522.104144	8	0.013327	60	0	60-180	60	92	NoGap	1	49	2	3	1	target	1	334	833	32084	13.328	13.293	13.363
ProbeTrack09	12	ProbeTrack	1470	SCS215a	20090522.103455	20090522.104149	8	0.013327	60	0	60-180	60	111	NoGap	1	50	2	0	1	target	1	454	773	32857	13.328	13.293	13.363
ProbeTrack09	12	ProbeTrack	1470	SCS215a	20090522.104309	20090522.104322	8	0.013328	60	10	60-180	60	131	GapPrac	1	1	2	6	1	target	1	3905	0	32857	13.328	13.293	13.363
ProbeTrack09	12	ProbeTrack	1470	SCS215a	20090522.104309	20090522.104340	8	0.013328	60	10	60-180	60	123	GapPrac	1	2	2	6	0	target	0	2319	-1000	31857	13.328	13.293	13.363
ProbeTrack09	12	ProbeTrack	1470	SCS215a	20090522.104309	20090522.104351	8	0.013328	60	10	60-180	60	70	GapPrac	1	3	2	0	1	target	1	1693	154	32011	13.328	13.293	13.363
ProbeTrack09	12	ProbeTrack	1470	SCS215a	20090522.104309	20090522.104358	8	0.013328	60	10	60-180	60	67	GapPrac	1	4	2	0	0	target	0	1053	-1000	31011	13.328	13.293	13.362
ProbeTrack09	12	ProbeTrack	1470	SCS215a	20090522.104309	20090522.104405	8	0.013328	60	10	60-180	60	79	GapPrac	1	5	2	3	1	target	1	560	720	31731	13.327	13.293	13.363
ProbeTrack09	12	ProbeTrack	1470	SCS215a	20090522.104309	20090522.104416	8	0.013328	60	10	60-180	60	70	GapPrac	1	6	2	96	1	target	1	1093	454	32185	13.328	13.293	13.366
ProbeTrack09	12	ProbeTrack	1470	SCS215a	20090522.104309	20090522.104423	8	0.013328	60	10	60-180	60	84	GapPrac	1	7	2	6	1	target	1	733	634	32819	13.328	13.293	13.363
ProbeTrack09	12	ProbeTrack	1470	SCS215a	20090522.104309	20090522.104442	8	0.013328	60	10	60-180	60	150	GapPrac	1	8	2	6	0	distractor	1	760	620	33439	13.328	13.293	13.363
ProbeTrack09	12	ProbeTrack	1470	SCS215a	20090522.104309	20090522.104449	8	0.013328	60	10	60-180	60	141	GapPrac	1	9	2	0	1	target	1	640	680	34119	13.328	13.293	13.363
ProbeTrack09	12	ProbeTrack	1470	SCS215a	20090522.104309	20090522.104456	8	0.013328	60	10	60-180	60	131	GapPrac	1	10	2	96	1	distractor	0	640	-1000	33119	13.328	13.289	13.363
ProbeTrack09	12	ProbeTrack	1470	SCS215a	20090522.104309	20090522.104503	8	0.013328	60	10	60-180	60	157	GapPrac	1	11	2	0	0	distractor	1	907	547	33666	13.328	13.292	13.363
ProbeTrack09	12	ProbeTrack	1470	SCS215a	20090522.104309	20090522.104511	8	0.013328	60	10	60-180	60	154	GapPrac	1	12	2	3	0	distractor	1	694	653	34319	13.328	13.292	13.364
ProbeTrack09	12	ProbeTrack	1470	SCS215a	20090522.104309	20090522.104518	8	0.013328	60	10	60-180	60	72	GapPrac	1	13	2	6	1	target	1	960	520	34839	13.328	13.293	13.363
ProbeTrack09	12	ProbeTrack	1470	SCS215a	20090522.104309	20090522.104524	8	0.013328	60	10	60-180	60	179	GapPrac	1	14	2	3	1	target	1	520	740	35579	13.328	13.293	13.363
ProbeTrack09	12	ProbeTrack	1470	SCS215a	20090522.104309	20090522.104534	8	0.013328	60	10	60-180	60	121	GapPrac	1	15	2	96	0	distractor	1	573	714	36293	13.328	13.292	13.363
ProbeTrack09	12	ProbeTrack	1470	SCS215a	20090522.104309	20090522.104542	8	0.013328	60	10	60-180	60	110	GapPrac	1	16	2	0	1	target	1	653	674	36967	13.328	13.293	13.363
ProbeTrack09	12	ProbeTrack	1470	SCS215a	20090522.104309	20090522.104548	8	0.013328	60	10	60-180	60	177	GapPrac	1	17	2	3	0	target	0	1266	-1000	35967	13.328	13.293	13.363
ProbeTrack09	12	ProbeTrack	1470	SCS215a	20090522.104309	20090522.104555	8	0.013328	60	10	60-180	60	144	GapPrac	1	18	2	6	0	distractor	1	787	607	36574	13.328	13.289	13.367
ProbeTrack09	12	ProbeTrack	1470	SCS215a	20090522.104309	20090522.104602	8	0.013328	60	10	60-180	60	173	GapPrac	1	19	2	0	0	distractor	1	907	547	37121	13.328	13.291	13.363
ProbeTrack09	12	ProbeTrack	1470	SCS215a	20090522.104309	20090522.104610	8	0.013328	60	10	60-180	60	132	GapPrac	1	20	2	96	0	target	0	600	-1000	36121	13.328	13.293	13.363
ProbeTrack09	12	ProbeTrack	1470	SCS215a	20090522.104714	20090522.104724	8	0.013327	60	10	60-180	60	145	GapExp	1	1	2	96	0	distractor	1	840	580	36701	13.328	13.293	13.363
ProbeTrack09	12	ProbeTrack	1470	SCS215a	20090522.104714	20090522.104734	8	0.013327	60	10	60-180	60	80	GapExp	1	2	2	3	1	target	1	907	547	37248	13.328	13.293	13.362
ProbeTrack09	12	ProbeTrack	1470	SCS215a	20090522.104714	20090522.104743	8	0.013327	60	10	60-180	60	81	GapExp	1	3	2	96	1	target	1	400	800	38048	13.328	13.292	13.363
ProbeTrack09	12	ProbeTrack	1470	SCS215a	20090522.104714	20090522.104750	8	0.013327	60	10	60-180	60	106	GapExp	1	4	2	0	0	target	0	693	-1000	37048	13.328	13.292	13.363
ProbeTrack09	12	ProbeTrack	1470	SCS215a	20090522.104714	20090522.104757	8	0.013327	60	10	60-180	60	62	GapExp	1	5	2	0	1	target	1	533	734	37782	13.328	13.293	13.363
ProbeTrack09	12	ProbeTrack	1470	SCS215a	20090522.104714	20090522.104802	8	0.013327	60	10	60-180	60	140	GapExp	1	6	2	6	1	target	1	840	580	38362	13.328	13.290	13.366
ProbeTrack09	12	ProbeTrack	1470	SCS215a	20090522.104714	20090522.104809	8	0.013327	60	10	60-180	60	140	GapExp	1	7	2	3	0	distractor	1	600	700	39062	13.328	13.293	13.363
ProbeTrack09	12	ProbeTrack	1470	SCS215a	20090522.104714	20090522.104830	8	0.013327	60	10	60-180	60	114	GapExp	1	8	2	6	0	target	0	1120	-1000	38062	13.328	13.292	13.362
ProbeTrack09	12	ProbeTrack	1470	SCS215a	20090522.104714	20090522.104837	8	0.013327	60	10	60-180	60	112	GapExp	0	9	2	0	1	target	1	933	534	38596	13.328	13.292	13.363
ProbeTrack09	12	ProbeTrack	1470	SCS215a	20090522.104714	20090522.104845	8	0.013327	60	10	60-180	60	157	GapExp	0	10	2	0	0	target	0	1093	-1000	37596	13.328	13.293	13.363
ProbeTrack09	12	ProbeTrack	1470	SCS215a	20090522.104714	20090522.104853	8	0.013327	60	10	60-180	60	172	GapExp	0	11	2	3	1	target	1	573	714	38310	13.328	13.293	13.366
ProbeTrack09	12	ProbeTrack	1470	SCS215a	20090522.104714	20090522.104900	8	0.013327	60	10	60-180	60	126	GapExp	0	12	2	3	1	target	1	520	740	39050	13.328	13.292	13.363
ProbeTrack09	12	ProbeTrack	1470	SCS215a	20090522.104714	20090522.104907	8	0.013327	60	10	60-180	60	122	GapExp	0	13	2	0	0	distractor	1	653	674	39724	13.328	13.292	13.366
ProbeTrack09	12	ProbeTrack	1470	SCS215a	20090522.104714	20090522.104914	8	0.013327	60	10	60-180	60	72	GapExp	0	14	2	3	1	target	1	520	740	40464	13.328	13.293	13.363
ProbeTrack09	12	ProbeTrack	1470	SCS215a	20090522.104714	20090522.104921	8	0.013327	60	10	60-180	60	133	GapExp	0	15	2	0	0	distractor	1	587	707	41171	13.328	13.293	13.363
ProbeTrack09	12	ProbeTrack	1470	SCS215a	20090522.104714	20090522.104927	8	0.013327	60	10	60-180	60	124	GapExp	0	16	2	96	1	target	1	427	787	41958	13.328	13.291	13.363
ProbeTrack09	12	ProbeTrack	1470	SCS215a	20090522.104714	20090522.104935	8	0.013327	60	10	60-180	60	161	GapExp	0	17	2	3	0	distractor	1	720	640	42598	13.328	13.293	13.363
ProbeTrack09	12	ProbeTrack	1470	SCS215a	20090522.104714	20090522.104942	8	0.013327	60	10	60-180	60	73	GapExp	0	18	2	3	0	target	0	613	-1000	41598	13.327	13.291	13.365
ProbeTrack09	12	ProbeTrack	1470	SCS215a	20090522.104714	20090522.104949	8	0.013327	60	10	60-180	60	102	GapExp	0	19	2	96	0	distractor	1	587	707	42305	13.328	13.292	13.363
ProbeTrack09	12	ProbeTrack	1470	SCS215a	20090522.104714	20090522.105003	8	0.013327	60	10	60-180	60	94	GapExp	0	20	2	96	1	target	1	480	760	43065	13.328	13.293	13.363
ProbeTrack09	12	ProbeTrack	1470	SCS215a	20090522.104714	20090522.105011	8	0.013327	60	10	60-180	60	142	GapExp	0	21	2	3	0	distractor	1	574	713	43778	13.328	13.293	13.363
ProbeTrack09	12	ProbeTrack	1470	SCS215a	20090522.104714	20090522.105023	8	0.013327	60	10	60-180	60	64	GapExp	0	22	2	0	1	target	1	680	660	44438	13.328	13.292	13.366
ProbeTrack09	12	ProbeTrack	1470	SCS215a	20090522.104714	20090522.105029	8	0.013327	60	10	60-180	60	65	GapExp	0	23	2	96	0	distractor	1	534	733	45171	13.328	13.293	13.363
ProbeTrack09	12	ProbeTrack	1470	SCS215a	20090522.104714	20090522.105036	8	0.013327	60	10	60-180	60	145	GapExp	0	24	2	3	1	target	1	667	667	45838	13.328	13.293	13.363
ProbeTrack09	12	ProbeTrack	1470	SCS215a	20090522.104714	20090522.105043	8	0.013327	60	10	60-180	60	150	GapExp	0	25	2	0	1	target	1	587	707	46545	13.328	13.293	13.363
ProbeTrack09	12	ProbeTrack	1470	SCS215a	20090522.104714	20090522.105050	8	0.013327	60	10	60-180	60	118	GapExp	0	26	2	6	1	target	1	454	773	47318	13.328	13.293	13.363
ProbeTrack09	12	ProbeTrack	1470	SCS215a	20090522.104714	20090522.105129	8	0.013327	60	10	60-180	60	87	GapExp	0	27	2	3	0	distractor	1	787	607	47925	13.328	13.293	13.363
ProbeTrack09	12	ProbeTrack	1470	SCS215a	20090522.104714	20090522.105137	8	0.013327	60	10	60-180	60	67	GapExp	0	28	2	3	1	target	1	520	740	48665	13.328	13.293	13.363
ProbeTrack09	12	ProbeTrack	1470	SCS215a	20090522.104714	20090522.105143	8	0.013327	60	10	60-180	60	121	GapExp	0	29	2	96	1	target	1	454	773	49438	13.328	13.293	13.363
ProbeTrack09	12	ProbeTrack	1470	SCS215a	20090522.104714	20090522.105151	8	0.013327	60	10	60-180	60	69	GapExp	0	30	2	96	0	distractor	1	520	740	50178	13.328	13.293	13.363
ProbeTrack09	12	ProbeTrack	1470	SCS215a	20090522.104714	20090522.105157	8	0.013327	60	10	60-180	60	132	GapExp	0	31	2	3	1	target	1	653	674	50852	13.328	13.292	13.363
ProbeTrack09	12	ProbeTrack	1470	SCS215a	20090522.104714	20090522.105204	8	0.013327	60	10	60-180	60	129	GapExp	0	32	2	0	0	distractor	1	627	687	51539	13.328	13.293	13.364
ProbeTrack09	12	ProbeTrack	1470	SCS215a	20090522.104714	20090522.105211	8	0.013327	60	10	60-180	60	163	GapExp	0	33	2	6	1	target	1	507	747	52286	13.328	13.293	13.363
ProbeTrack09	12	ProbeTrack	1470	SCS215a	20090522.104714	20090522.105218	8	0.013327	60	10	60-180	60	164	GapExp	0	34	2	0	1	target	1	733	634	52920	13.328	13.293	13.363
ProbeTrack09	12	ProbeTrack	1470	SCS215a	20090522.104714	20090522.105225	8	0.013327	60	10	60-180	60	73	GapExp	0	35	2	6	1	target	1	467	767	53687	13.328	13.293	13.363
ProbeTrack09	12	ProbeTrack	1470	SCS215a	20090522.104714	20090522.105231	8	0.013327	60	10	60-180	60	165	GapExp	0	36	2	3	1	target	1	520	740	54427	13.328	13.292	13.363
ProbeTrack09	12	ProbeTrack	1470	SCS215a	20090522.104714	20090522.105245	8	0.013327	60	10	60-180	60	132	GapExp	0	37	2	3	0	distractor	1	613	694	55121	13.328	13.292	13.364
ProbeTrack09	12	ProbeTrack	1470	SCS215a	20090522.104714	20090522.105252	8	0.013327	60	10	60-180	60	126	GapExp	0	38	2	6	1	target	1	427	787	55908	13.328	13.293	13.363
ProbeTrack09	12	ProbeTrack	1470	SCS215a	20090522.104714	20090522.105259	8	0.013327	60	10	60-180	60	67	GapExp	0	39	2	3	1	target	1	374	813	56721	13.327	13.293	13.362
ProbeTrack09	12	ProbeTrack	1470	SCS215a	20090522.104714	20090522.105304	8	0.013327	60	10	60-180	60	64	GapExp	0	40	2	6	0	distractor	1	507	747	57468	13.327	13.292	13.363
ProbeTrack09	12	ProbeTrack	1470	SCS215a	20090522.104714	20090522.105310	8	0.013327	60	10	60-180	60	144	GapExp	0	41	2	0	0	target	0	533	-1000	56468	13.328	13.293	13.363
ProbeTrack09	12	ProbeTrack	1470	SCS215a	20090522.104714	20090522.105316	8	0.013327	60	10	60-180	60	105	GapExp	0	42	2	6	1	target	1	467	767	57235	13.328	13.293	13.363
ProbeTrack09	12	ProbeTrack	1470	SCS215a	20090522.104714	20090522.105324	8	0.013327	60	10	60-180	60	141	GapExp	0	43	2	6	1	target	1	733	634	57869	13.328	13.293	13.363
ProbeTrack09	12	ProbeTrack	1470	SCS215a	20090522.104714	20090522.105331	8	0.013327	60	10	60-180	60	64	GapExp	0	44	2	6	0	distractor	1	560	720	58589	13.328	13.293	13.364
ProbeTrack09	12	ProbeTrack	1470	SCS215a	20090522.104714	20090522.105336	8	0.013327	60	10	60-180	60	68	GapExp	0	45	2	96	1	target	1	400	800	59389	13.328	13.290	13.363
ProbeTrack09	12	ProbeTrack	1470	SCS215a	20090522.104714	20090522.105343	8	0.013327	60	10	60-180	60	98	GapExp	0	46	2	0	1	target	1	494	753	60142	13.328	13.293	13.363
ProbeTrack09	12	ProbeTrack	1470	SCS215a	20090522.104714	20090522.105349	8	0.013327	60	10	60-180	60	136	GapExp	0	47	2	0	0	target	0	813	-1000	59142	13.328	13.293	13.363
ProbeTrack09	12	ProbeTrack	1470	SCS215a	20090522.104714	20090522.105355	8	0.013327	60	10	60-180	60	173	GapExp	0	48	2	6	0	target	0	920	-1000	58142	13.328	13.290	13.364
ProbeTrack09	12	ProbeTrack	1470	SCS215a	20090522.104714	20090522.105403	8	0.013327	60	10	60-180	60	142	GapExp	0	49	2	0	1	target	1	494	753	58895	13.328	13.293	13.363
ProbeTrack09	12	ProbeTrack	1470	SCS215a	20090522.104714	20090522.105410	8	0.013327	60	10	60-180	60	88	GapExp	0	50	2	0	0	distractor	1	667	667	59562	13.328	13.293	13.362
ProbeTrack09	12	ProbeTrack	1470	SCS215a	20090522.104714	20090522.105416	8	0.013327	60	10	60-180	60	83	GapExp	0	51	2	0	0	distractor	1	827	587	60149	13.327	13.293	13.363
ProbeTrack09	12	ProbeTrack	1470	SCS215a	20090522.104714	20090522.105422	8	0.013327	60	10	60-180	60	146	GapExp	0	52	2	3	0	distractor	1	640	680	60829	13.328	13.293	13.363
ProbeTrack09	12	ProbeTrack	1470	SCS215a	20090522.104714	20090522.105429	8	0.013327	60	10	60-180	60	157	GapExp	0	53	2	0	1	target	1	467	767	61596	13.328	13.293	13.366
ProbeTrack09	12	ProbeTrack	1470	SCS215a	20090522.104714	20090522.105435	8	0.013327	60	10	60-180	60	147	GapExp	0	54	2	3	1	target	1	467	767	62363	13.328	13.293	13.363
ProbeTrack09	12	ProbeTrack	1470	SCS215a	20090522.104714	20090522.105442	8	0.013327	60	10	60-180	60	159	GapExp	0	55	2	0	1	target	1	480	760	63123	13.328	13.293	13.363
ProbeTrack09	12	ProbeTrack	1470	SCS215a	20090522.104714	20090522.105448	8	0.013327	60	10	60-180	60	112	GapExp	0	56	2	96	0	distractor	1	480	760	63883	13.328	13.290	13.366
ProbeTrack09	12	ProbeTrack	1470	SCS215a	20090522.104714	20090522.105456	8	0.013327	60	10	60-180	60	131	GapExp	0	57	2	6	0	distractor	1	653	674	64557	13.328	13.292	13.363
ProbeTrack09	12	ProbeTrack	1470	SCS215a	20090522.104714	20090522.105503	8	0.013327	60	10	60-180	60	91	GapExp	0	58	2	3	0	distractor	1	560	720	65277	13.328	13.293	13.364
ProbeTrack09	12	ProbeTrack	1470	SCS215a	20090522.104714	20090522.105524	8	0.013327	60	10	60-180	60	87	GapExp	0	59	2	0	1	target	1	693	654	65931	13.328	13.293	13.363
ProbeTrack09	12	ProbeTrack	1470	SCS215a	20090522.104714	20090522.105530	8	0.013327	60	10	60-180	60	67	GapExp	0	60	2	3	1	target	1	467	767	66698	13.328	13.293	13.363
ProbeTrack09	12	ProbeTrack	1470	SCS215a	20090522.104714	20090522.105535	8	0.013327	60	10	60-180	60	98	GapExp	0	61	2	96	1	target	1	374	813	67511	13.328	13.293	13.363
ProbeTrack09	12	ProbeTrack	1470	SCS215a	20090522.104714	20090522.105542	8	0.013327	60	10	60-180	60	89	GapExp	0	62	2	3	1	target	1	494	753	68264	13.328	13.292	13.363
ProbeTrack09	12	ProbeTrack	1470	SCS215a	20090522.104714	20090522.105548	8	0.013327	60	10	60-180	60	163	GapExp	0	63	2	6	0	distractor	1	1813	94	68358	13.328	13.292	13.366
ProbeTrack09	12	ProbeTrack	1470	SCS215a	20090522.104714	20090522.105557	8	0.013327	60	10	60-180	60	108	GapExp	0	64	2	96	1	target	1	560	720	69078	13.328	13.292	13.363
ProbeTrack09	12	ProbeTrack	1470	SCS215a	20090522.104714	20090522.105607	8	0.013327	60	10	60-180	60	173	GapExp	0	65	2	96	1	target	1	600	700	69778	13.328	13.293	13.363
ProbeTrack09	12	ProbeTrack	1470	SCS215a	20090522.104714	20090522.105615	8	0.013327	60	10	60-180	60	129	GapExp	0	66	2	96	1	target	1	520	740	70518	13.328	13.293	13.363
ProbeTrack09	12	ProbeTrack	1470	SCS215a	20090522.104714	20090522.105624	8	0.013327	60	10	60-180	60	97	GapExp	0	67	2	0	0	distractor	1	1266	367	70885	13.327	13.293	13.363
ProbeTrack09	12	ProbeTrack	1470	SCS215a	20090522.104714	20090522.105631	8	0.013327	60	10	60-180	60	77	GapExp	0	68	2	3	1	target	1	480	760	71645	13.328	13.292	13.363
ProbeTrack09	12	ProbeTrack	1470	SCS215a	20090522.104714	20090522.105637	8	0.013327	60	10	60-180	60	161	GapExp	0	69	2	6	1	target	1	720	640	72285	13.328	13.293	13.363
ProbeTrack09	12	ProbeTrack	1470	SCS215a	20090522.104714	20090522.105644	8	0.013327	60	10	60-180	60	84	GapExp	0	70	2	96	1	target	1	467	767	73052	13.328	13.293	13.363
ProbeTrack09	12	ProbeTrack	1470	SCS215a	20090522.104714	20090522.105651	8	0.013327	60	10	60-180	60	126	GapExp	0	71	2	6	0	distractor	1	1600	200	73252	13.328	13.292	13.363
ProbeTrack09	12	ProbeTrack	1470	SCS215a	20090522.104714	20090522.105658	8	0.013327	60	10	60-180	60	160	GapExp	0	72	2	0	1	target	1	534	733	73985	13.328	13.292	13.363
ProbeTrack09	12	ProbeTrack	1470	SCS215a	20090522.104714	20090522.105705	8	0.013327	60	10	60-180	60	145	GapExp	0	73	2	0	0	distractor	1	1266	367	74352	13.328	13.293	13.363
ProbeTrack09	12	ProbeTrack	1470	SCS215a	20090522.104714	20090522.105712	8	0.013327	60	10	60-180	60	118	GapExp	0	74	2	6	1	distractor	0	693	-1000	73352	13.328	13.293	13.363
ProbeTrack09	12	ProbeTrack	1470	SCS215a	20090522.104714	20090522.105719	8	0.013327	60	10	60-180	60	63	GapExp	0	75	2	0	1	distractor	0	1147	-1000	72352	13.328	13.292	13.364
ProbeTrack09	12	ProbeTrack	1470	SCS215a	20090522.104714	20090522.105725	8	0.013327	60	10	60-180	60	153	GapExp	0	76	2	0	0	distractor	1	680	660	73012	13.328	13.293	13.366
ProbeTrack09	12	ProbeTrack	1470	SCS215a	20090522.104714	20090522.105736	8	0.013327	60	10	60-180	60	71	GapExp	0	77	2	6	1	target	1	507	747	73759	13.328	13.293	13.363
ProbeTrack09	12	ProbeTrack	1470	SCS215a	20090522.104714	20090522.105742	8	0.013327	60	10	60-180	60	81	GapExp	0	78	2	0	0	distractor	1	760	620	74379	13.328	13.293	13.363
ProbeTrack09	12	ProbeTrack	1470	SCS215a	20090522.104714	20090522.105748	8	0.013327	60	10	60-180	60	167	GapExp	0	79	2	96	0	distractor	1	534	733	75112	13.328	13.293	13.363
ProbeTrack09	12	ProbeTrack	1470	SCS215a	20090522.104714	20090522.105756	8	0.013327	60	10	60-180	60	180	GapExp	0	80	2	3	0	distractor	1	547	727	75839	13.328	13.293	13.364
ProbeTrack09	12	ProbeTrack	1470	SCS215a	20090522.104714	20090522.105804	8	0.013327	60	10	60-180	60	144	GapExp	0	81	2	0	1	target	1	520	740	76579	13.328	13.292	13.363
ProbeTrack09	12	ProbeTrack	1470	SCS215a	20090522.104714	20090522.105810	8	0.013327	60	10	60-180	60	123	GapExp	0	82	2	3	0	distractor	1	1147	427	77006	13.328	13.293	13.363
ProbeTrack09	12	ProbeTrack	1470	SCS215a	20090522.104714	20090522.105817	8	0.013327	60	10	60-180	60	70	GapExp	0	83	2	6	0	distractor	1	733	634	77640	13.328	13.293	13.363
ProbeTrack09	12	ProbeTrack	1470	SCS215a	20090522.104714	20090522.105824	8	0.013327	60	10	60-180	60	133	GapExp	0	84	2	96	0	distractor	1	507	747	78387	13.328	13.292	13.363
ProbeTrack09	12	ProbeTrack	1470	SCS215a	20090522.104714	20090522.105833	8	0.013327	60	10	60-180	60	166	GapExp	0	85	2	96	1	distractor	0	827	-1000	77387	13.328	13.292	13.363
ProbeTrack09	12	ProbeTrack	1470	SCS215a	20090522.104714	20090522.105842	8	0.013327	60	10	60-180	60	120	GapExp	0	86	2	6	1	target	1	547	727	78114	13.328	13.293	13.363
ProbeTrack09	12	ProbeTrack	1470	SCS215a	20090522.104714	20090522.105848	8	0.013327	60	10	60-180	60	115	GapExp	0	87	2	6	1	target	1	467	767	78881	13.328	13.293	13.363
ProbeTrack09	12	ProbeTrack	1470	SCS215a	20090522.104714	20090522.105855	8	0.013327	60	10	60-180	60	141	GapExp	0	88	2	3	0	distractor	1	747	627	79508	13.328	13.293	13.363
ProbeTrack09	12	ProbeTrack	1470	SCS215a	20090522.104714	20090522.105901	8	0.013327	60	10	60-180	60	145	GapExp	0	89	2	96	1	target	1	467	767	80275	13.328	13.293	13.363
ProbeTrack09	12	ProbeTrack	1470	SCS215a	20090522.104714	20090522.105909	8	0.013327	60	10	60-180	60	74	GapExp	0	90	2	3	1	target	1	640	680	80955	13.328	13.293	13.363
ProbeTrack09	12	ProbeTrack	1470	SCS215a	20090522.104714	20090522.105915	8	0.013327	60	10	60-180	60	151	GapExp	0	91	2	96	1	target	1	387	807	81762	13.328	13.293	13.363
ProbeTrack09	12	ProbeTrack	1470	SCS215a	20090522.104714	20090522.105922	8	0.013327	60	10	60-180	60	66	GapExp	0	92	2	96	0	distractor	1	507	747	82509	13.328	13.293	13.363
ProbeTrack09	12	ProbeTrack	1470	SCS215a	20090522.104714	20090522.105929	8	0.013327	60	10	60-180	60	98	GapExp	0	93	2	3	0	distractor	1	613	694	83203	13.328	13.293	13.363
ProbeTrack09	12	ProbeTrack	1470	SCS215a	20090522.104714	20090522.105935	8	0.013327	60	10	60-180	60	86	GapExp	0	94	2	96	1	target	1	307	847	84050	13.328	13.293	13.363
ProbeTrack09	12	ProbeTrack	1470	SCS215a	20090522.104714	20090522.105941	8	0.013327	60	10	60-180	60	108	GapExp	0	95	2	3	1	target	1	600	700	84750	13.328	13.293	13.363
ProbeTrack09	12	ProbeTrack	1470	SCS215a	20090522.104714	20090522.105947	8	0.013327	60	10	60-180	60	114	GapExp	0	96	2	6	0	distractor	1	973	514	85264	13.328	13.293	13.363
ProbeTrack09	12	ProbeTrack	1470	SCS215a	20090522.104714	20090522.105954	8	0.013327	60	10	60-180	60	125	GapExp	0	97	2	96	1	target	1	520	740	86004	13.328	13.293	13.363
ProbeTrack09	12	ProbeTrack	1470	SCS215a	20090522.104714	20090522.110001	8	0.013327	60	10	60-180	60	152	GapExp	0	98	2	6	0	distractor	1	747	627	86631	13.328	13.291	13.363
ProbeTrack09	12	ProbeTrack	1470	SCS215a	20090522.104714	20090522.110008	8	0.013327	60	10	60-180	60	175	GapExp	0	99	2	3	0	distractor	1	653	674	87305	13.328	13.293	13.363
ProbeTrack09	12	ProbeTrack	1470	SCS215a	20090522.104714	20090522.110016	8	0.013327	60	10	60-180	60	162	GapExp	0	100	2	96	1	target	1	533	734	88039	13.328	13.293	13.363
ProbeTrack09	12	ProbeTrack	1470	SCS215a	20090522.104714	20090522.110024	8	0.013327	60	10	60-180	60	180	GapExp	0	101	2	3	0	target	0	707	-1000	87039	13.328	13.291	13.365
ProbeTrack09	12	ProbeTrack	1470	SCS215a	20090522.104714	20090522.110050	8	0.013327	60	10	60-180	60	113	GapExp	0	102	2	3	1	target	1	1000	500	87539	13.328	13.293	13.363
ProbeTrack09	12	ProbeTrack	1470	SCS215a	20090522.104714	20090522.110057	8	0.013327	60	10	60-180	60	145	GapExp	0	103	2	6	0	target	0	1453	-1000	86539	13.328	13.293	13.363
ProbeTrack09	12	ProbeTrack	1470	SCS215a	20090522.104714	20090522.110104	8	0.013327	60	10	60-180	60	137	GapExp	0	104	2	6	1	distractor	0	1027	-1000	85539	13.328	13.292	13.363
ProbeTrack09	12	ProbeTrack	1470	SCS215a	20090522.104714	20090522.110111	8	0.013327	60	10	60-180	60	101	GapExp	0	105	2	96	1	target	1	440	780	86319	13.328	13.293	13.363
ProbeTrack09	12	ProbeTrack	1470	SCS215a	20090522.104714	20090522.110118	8	0.013327	60	10	60-180	60	106	GapExp	0	106	2	3	1	target	1	454	773	87092	13.328	13.293	13.363
ProbeTrack09	12	ProbeTrack	1470	SCS215a	20090522.104714	20090522.110124	8	0.013327	60	10	60-180	60	67	GapExp	0	107	2	6	0	distractor	1	653	674	87766	13.328	13.293	13.363
ProbeTrack09	12	ProbeTrack	1470	SCS215a	20090522.104714	20090522.110129	8	0.013327	60	10	60-180	60	159	GapExp	0	108	2	96	0	distractor	1	667	667	88433	13.328	13.293	13.367
ProbeTrack09	12	ProbeTrack	1470	SCS215a	20090522.104714	20090522.110137	8	0.013327	60	10	60-180	60	93	GapExp	0	109	2	0	1	target	1	427	787	89220	13.328	13.292	13.364
ProbeTrack09	12	ProbeTrack	1470	SCS215a	20090522.104714	20090522.110143	8	0.013327	60	10	60-180	60	146	GapExp	0	110	2	0	1	target	1	520	740	89960	13.328	13.293	13.363
ProbeTrack09	12	ProbeTrack	1470	SCS215a	20090522.104714	20090522.110149	8	0.013327	60	10	60-180	60	79	GapExp	0	111	2	6	1	target	1	494	753	90713	13.328	13.293	13.365
ProbeTrack09	12	ProbeTrack	1470	SCS215a	20090522.104714	20090522.110155	8	0.013327	60	10	60-180	60	118	GapExp	0	112	2	6	0	distractor	1	534	733	91446	13.328	13.292	13.363
ProbeTrack09	12	ProbeTrack	1470	SCS215a	20090522.104714	20090522.110201	8	0.013327	60	10	60-180	60	66	GapExp	0	113	2	96	0	distractor	1	480	760	92206	13.328	13.292	13.363
ProbeTrack09	12	ProbeTrack	1470	SCS215a	20090522.104714	20090522.110207	8	0.013327	60	10	60-180	60	177	GapExp	0	114	2	96	1	target	1	440	780	92986	13.328	13.293	13.363
ProbeTrack09	12	ProbeTrack	1470	SCS215a	20090522.104714	20090522.110215	8	0.013327	60	10	60-180	60	128	GapExp	0	115	2	96	1	distractor	0	574	-1000	91986	13.328	13.292	13.364
ProbeTrack09	12	ProbeTrack	1470	SCS215a	20090522.104714	20090522.110222	8	0.013327	60	10	60-180	60	74	GapExp	0	116	2	96	1	target	1	480	760	92746	13.328	13.292	13.363
ProbeTrack09	12	ProbeTrack	1470	SCS215a	20090522.104714	20090522.110229	8	0.013327	60	10	60-180	60	79	GapExp	0	117	2	6	1	target	1	494	753	93499	13.328	13.293	13.363
ProbeTrack09	12	ProbeTrack	1470	SCS215a	20090522.104714	20090522.110235	8	0.013327	60	10	60-180	60	70	GapExp	0	118	2	96	1	distractor	0	747	-1000	92499	13.328	13.292	13.363
ProbeTrack09	12	ProbeTrack	1470	SCS215a	20090522.104714	20090522.110241	8	0.013327	60	10	60-180	60	103	GapExp	0	119	2	6	0	distractor	1	1053	474	92973	13.328	13.293	13.363
ProbeTrack09	12	ProbeTrack	1470	SCS215a	20090522.104714	20090522.110248	8	0.013327	60	10	60-180	60	119	GapExp	0	120	2	3	1	target	1	480	760	93733	13.327	13.286	13.363
ProbeTrack09	12	ProbeTrack	1470	SCS215a	20090522.104714	20090522.110254	8	0.013327	60	10	60-180	60	135	GapExp	0	121	2	6	1	target	1	853	574	94307	13.328	13.292	13.366
ProbeTrack09	12	ProbeTrack	1470	SCS215a	20090522.104714	20090522.110301	8	0.013327	60	10	60-180	60	99	GapExp	0	122	2	96	0	distractor	1	467	767	95074	13.328	13.293	13.363
ProbeTrack09	12	ProbeTrack	1470	SCS215a	20090522.104714	20090522.110308	8	0.013327	60	10	60-180	60	158	GapExp	0	123	2	0	0	distractor	1	560	720	95794	13.328	13.293	13.363
ProbeTrack09	12	ProbeTrack	1470	SCS215a	20090522.104714	20090522.110314	8	0.013327	60	10	60-180	60	144	GapExp	0	124	2	6	0	distractor	1	707	647	96441	13.328	13.290	13.363
ProbeTrack09	12	ProbeTrack	1470	SCS215a	20090522.104714	20090522.110321	8	0.013327	60	10	60-180	60	154	GapExp	0	125	2	6	1	target	1	480	760	97201	13.328	13.293	13.363
ProbeTrack09	12	ProbeTrack	1470	SCS215a	20090522.104714	20090522.110328	8	0.013327	60	10	60-180	60	153	GapExp	0	126	2	0	1	target	1	453	774	97975	13.328	13.293	13.363
ProbeTrack09	12	ProbeTrack	1470	SCS215a	20090522.104714	20090522.110334	8	0.013327	60	10	60-180	60	65	GapExp	0	127	2	6	1	target	1	480	760	98735	13.328	13.293	13.363
ProbeTrack09	12	ProbeTrack	1470	SCS215a	20090522.104714	20090522.110339	8	0.013327	60	10	60-180	60	120	GapExp	0	128	2	96	0	distractor	1	387	807	99542	13.328	13.293	13.363
ProbeTrack09	12	ProbeTrack	1470	SCS215a	20090522.104714	20090522.110347	8	0.013327	60	10	60-180	60	153	GapExp	0	129	2	96	0	distractor	1	480	760	100302	13.328	13.293	13.363
ProbeTrack09	12	ProbeTrack	1470	SCS215a	20090522.104714	20090522.110354	8	0.013327	60	10	60-180	60	116	GapExp	0	130	2	96	0	distractor	1	440	780	101082	13.328	13.292	13.364
ProbeTrack09	12	ProbeTrack	1470	SCS215a	20090522.104714	20090522.110402	8	0.013327	60	10	60-180	60	178	GapExp	0	131	2	3	1	target	1	560	720	101802	13.328	13.293	13.364
ProbeTrack09	12	ProbeTrack	1470	SCS215a	20090522.104714	20090522.110408	8	0.013327	60	10	60-180	60	111	GapExp	0	132	2	0	1	target	1	507	747	102549	13.328	13.293	13.365
ProbeTrack09	12	ProbeTrack	1470	SCS215a	20090522.104714	20090522.110414	8	0.013327	60	10	60-180	60	86	GapExp	0	133	2	6	0	distractor	1	560	720	103269	13.328	13.293	13.363
ProbeTrack09	12	ProbeTrack	1470	SCS215a	20090522.104714	20090522.110420	8	0.013327	60	10	60-180	60	67	GapExp	0	134	2	3	1	target	1	400	800	104069	13.328	13.289	13.363
ProbeTrack09	12	ProbeTrack	1470	SCS215a	20090522.104714	20090522.110425	8	0.013327	60	10	60-180	60	118	GapExp	0	135	2	3	1	target	1	374	813	104882	13.328	13.293	13.363
ProbeTrack09	12	ProbeTrack	1470	SCS215a	20090522.104714	20090522.110431	8	0.013327	60	10	60-180	60	126	GapExp	0	136	2	0	0	distractor	1	907	547	105429	13.328	13.141	13.515
ProbeTrack09	12	ProbeTrack	1470	SCS215a	20090522.104714	20090522.110438	8	0.013327	60	10	60-180	60	119	GapExp	0	137	2	0	1	target	1	467	767	106196	13.327	13.293	13.365
ProbeTrack09	12	ProbeTrack	1470	SCS215a	20090522.104714	20090522.110444	8	0.013327	60	10	60-180	60	64	GapExp	0	138	2	0	0	target	0	960	-1000	105196	13.328	13.293	13.363
ProbeTrack09	12	ProbeTrack	1470	SCS215a	20090522.104714	20090522.110449	8	0.013327	60	10	60-180	60	167	GapExp	0	139	2	6	1	target	1	427	787	105983	13.328	13.293	13.363
ProbeTrack09	12	ProbeTrack	1470	SCS215a	20090522.104714	20090522.110456	8	0.013327	60	10	60-180	60	129	GapExp	0	140	2	0	1	distractor	0	547	-1000	104983	13.328	13.293	13.363
ProbeTrack09	12	ProbeTrack	1470	SCS215a	20090522.104714	20090522.110502	8	0.013327	60	10	60-180	60	108	GapExp	0	141	2	3	1	target	1	387	807	105790	13.327	13.293	13.363
ProbeTrack09	12	ProbeTrack	1470	SCS215a	20090522.104714	20090522.110508	8	0.013327	60	10	60-180	60	79	GapExp	0	142	2	6	0	distractor	1	773	614	106404	13.328	13.293	13.363
ProbeTrack09	12	ProbeTrack	1470	SCS215a	20090522.104714	20090522.110539	8	0.013327	60	10	60-180	60	104	GapExp	0	143	2	96	0	target	0	360	-1000	105404	13.328	13.293	13.363
ProbeTrack09	12	ProbeTrack	1470	SCS215a	20090522.104714	20090522.110547	8	0.013327	60	10	60-180	60	120	GapExp	0	144	2	96	0	distractor	1	560	720	106124	13.328	13.293	13.363
ProbeTrack09	12	ProbeTrack	1470	SCS215a	20090522.104714	20090522.110555	8	0.013327	60	10	60-180	60	100	GapExp	0	145	2	96	0	distractor	1	480	760	106884	13.328	13.292	13.363
ProbeTrack09	12	ProbeTrack	1470	SCS215a	20090522.104714	20090522.110604	8	0.013327	60	10	60-180	60	72	GapExp	0	146	2	96	0	distractor	1	520	740	107624	13.328	13.292	13.363
ProbeTrack09	12	ProbeTrack	1470	SCS215a	20090522.104714	20090522.110610	8	0.013327	60	10	60-180	60	64	GapExp	0	147	2	0	0	distractor	1	1253	374	107998	13.327	13.293	13.363
ProbeTrack09	12	ProbeTrack	1470	SCS215a	20090522.104714	20090522.110616	8	0.013327	60	10	60-180	60	170	GapExp	0	148	2	6	0	distractor	1	867	567	108565	13.328	13.293	13.363
ProbeTrack09	12	ProbeTrack	1470	SCS215a	20090522.104714	20090522.110623	8	0.013327	60	10	60-180	60	137	GapExp	0	149	2	3	0	distractor	1	787	607	109172	13.328	13.293	13.363
ProbeTrack09	12	ProbeTrack	1470	SCS215a	20090522.104714	20090522.110631	8	0.013327	60	10	60-180	60	133	GapExp	0	150	2	0	1	target	1	414	793	109965	13.328	13.289	13.366
ProbeTrack09	12	ProbeTrack	1470	SCS215a	20090522.104714	20090522.110638	8	0.013327	60	10	60-180	60	177	GapExp	0	151	2	3	0	distractor	1	667	667	110632	13.328	13.293	13.363
ProbeTrack09	12	ProbeTrack	1470	SCS215a	20090522.104714	20090522.110644	8	0.013327	60	10	60-180	60	83	GapExp	0	152	2	3	0	distractor	1	1040	480	111112	13.328	13.293	13.363
ProbeTrack09	12	ProbeTrack	1470	SCS215a	20090522.104714	20090522.110651	8	0.013327	60	10	60-180	60	87	GapExp	0	153	2	6	0	distractor	1	747	627	111739	13.328	13.293	13.363
ProbeTrack09	12	ProbeTrack	1470	SCS215a	20090522.104714	20090522.110657	8	0.013327	60	10	60-180	60	148	GapExp	0	154	2	96	1	target	1	427	787	112526	13.328	13.292	13.367
ProbeTrack09	12	ProbeTrack	1470	SCS215a	20090522.104714	20090522.110704	8	0.013327	60	10	60-180	60	178	GapExp	0	155	2	0	0	distractor	1	893	554	113080	13.328	13.293	13.363
ProbeTrack09	12	ProbeTrack	1470	SCS215a	20090522.104714	20090522.110711	8	0.013327	60	10	60-180	60	135	GapExp	0	156	2	96	1	target	1	427	787	113867	13.328	13.293	13.363
ProbeTrack09	12	ProbeTrack	1470	SCS215a	20090522.104714	20090522.110719	8	0.013327	60	10	60-180	60	112	GapExp	0	157	2	6	0	distractor	1	640	680	114547	13.328	13.293	13.363
ProbeTrack09	12	ProbeTrack	1470	SCS215a	20090522.104714	20090522.110725	8	0.013327	60	10	60-180	60	149	GapExp	0	158	2	6	1	target	1	773	614	115161	13.328	13.289	13.365
ProbeTrack09	12	ProbeTrack	1470	SCS215a	20090522.104714	20090522.110732	8	0.013327	60	10	60-180	60	61	GapExp	0	159	2	3	1	target	1	520	740	115901	13.328	13.293	13.363
ProbeTrack09	12	ProbeTrack	1470	SCS215a	20090522.104714	20090522.110737	8	0.013327	60	10	60-180	60	180	GapExp	0	160	2	96	0	distractor	1	600	700	116601	13.328	13.293	13.364
ProbeTrack09	12	ProbeTrack	1470	SCS215a	20090522.104714	20090522.110745	8	0.013327	60	10	60-180	60	145	GapExp	0	161	2	96	1	target	1	387	807	117408	13.328	13.293	13.366
ProbeTrack09	12	ProbeTrack	1470	SCS215a	20090522.104714	20090522.110753	8	0.013327	60	10	60-180	60	116	GapExp	0	162	2	3	1	target	1	400	800	118208	13.327	13.293	13.363
ProbeTrack09	12	ProbeTrack	1470	SCS215a	20090522.104714	20090522.110759	8	0.013327	60	10	60-180	60	95	GapExp	0	163	2	96	0	distractor	1	414	793	119001	13.328	13.293	13.363
ProbeTrack09	12	ProbeTrack	1470	SCS215a	20090522.104714	20090522.110806	8	0.013327	60	10	60-180	60	145	GapExp	0	164	2	3	0	distractor	1	867	567	119568	13.328	13.293	13.363
ProbeTrack09	12	ProbeTrack	1470	SCS215a	20090522.104714	20090522.110812	8	0.013327	60	10	60-180	60	79	GapExp	0	165	2	0	1	target	1	480	760	120328	13.327	13.292	13.363
ProbeTrack09	12	ProbeTrack	1470	SCS215a	20090522.104714	20090522.110818	8	0.013327	60	10	60-180	60	83	GapExp	0	166	2	6	1	distractor	0	693	-1000	119328	13.328	13.293	13.363
ProbeTrack09	12	ProbeTrack	1470	SCS215a	20090522.104714	20090522.110824	8	0.013327	60	10	60-180	60	138	GapExp	0	167	2	0	0	distractor	1	627	687	120015	13.328	13.292	13.363
ProbeTrack09	12	ProbeTrack	1470	SCS215a	20090522.104714	20090522.110830	8	0.013327	60	10	60-180	60	180	GapExp	0	168	2	3	0	distractor	1	600	700	120715	13.328	13.293	13.363
ProbeTrack09	12	ProbeTrack	1470	SCS215a	20090522.104714	20090522.110840	8	0.013327	60	10	60-180	60	139	GapExp	0	169	2	0	0	distractor	1	574	713	121428	13.328	13.293	13.366
ProbeTrack09	12	ProbeTrack	1470	SCS215a	20090522.104714	20090522.110846	8	0.013327	60	10	60-180	60	76	GapExp	0	170	2	6	0	distractor	1	560	720	122148	13.328	13.293	13.363
ProbeTrack09	12	ProbeTrack	1470	SCS215a	20090522.104714	20090522.110852	8	0.013327	60	10	60-180	60	104	GapExp	0	171	2	6	0	distractor	1	547	727	122875	13.328	13.293	13.363
ProbeTrack09	12	ProbeTrack	1470	SCS215a	20090522.104714	20090522.110859	8	0.013327	60	10	60-180	60	70	GapExp	0	172	2	0	1	target	1	480	760	123635	13.328	13.293	13.363
ProbeTrack09	12	ProbeTrack	1470	SCS215a	20090522.104714	20090522.110904	8	0.013327	60	10	60-180	60	66	GapExp	0	173	2	3	0	distractor	1	480	760	124395	13.328	13.291	13.363
ProbeTrack09	12	ProbeTrack	1470	SCS215a	20090522.104714	20090522.110910	8	0.013327	60	10	60-180	60	127	GapExp	0	174	2	0	0	distractor	1	573	714	125109	13.328	13.293	13.363
ProbeTrack09	12	ProbeTrack	1470	SCS215a	20090522.104714	20090522.110915	8	0.013327	60	10	60-180	60	177	GapExp	0	175	2	96	1	distractor	0	760	-1000	124109	13.328	13.293	13.363
ProbeTrack09	12	ProbeTrack	1470	SCS215a	20090522.104714	20090522.110924	8	0.013327	60	10	60-180	60	102	GapExp	0	176	2	3	0	distractor	1	733	634	124743	13.328	13.293	13.362
ProbeTrack09	12	ProbeTrack	1470	SCS215a	20090522.104714	20090522.110930	8	0.013327	60	10	60-180	60	61	GapExp	0	177	2	6	0	distractor	1	693	654	125397	13.327	13.293	13.363
ProbeTrack09	12	ProbeTrack	1470	SCS215a	20090522.104714	20090522.110935	8	0.013327	60	10	60-180	60	66	GapExp	0	178	2	3	0	distractor	1	520	740	126137	13.328	13.293	13.363
ProbeTrack09	12	ProbeTrack	1470	SCS215a	20090522.104714	20090522.110941	8	0.013327	60	10	60-180	60	129	GapExp	0	179	2	6	0	distractor	1	1093	454	126591	13.328	13.293	13.366
ProbeTrack09	12	ProbeTrack	1470	SCS215a	20090522.104714	20090522.110948	8	0.013327	60	10	60-180	60	148	GapExp	0	180	2	3	0	distractor	1	920	540	127131	13.328	13.293	13.363
ProbeTrack09	12	ProbeTrack	1470	SCS215a	20090522.104714	20090522.110954	8	0.013327	60	10	60-180	60	155	GapExp	0	181	2	0	1	target	1	467	767	127898	13.328	13.293	13.363
ProbeTrack09	12	ProbeTrack	1470	SCS215a	20090522.104714	20090522.111001	8	0.013327	60	10	60-180	60	124	GapExp	0	182	2	96	0	distractor	1	427	787	128685	13.328	13.292	13.363
ProbeTrack09	12	ProbeTrack	1470	SCS215a	20090522.104714	20090522.111008	8	0.013327	60	10	60-180	60	95	GapExp	0	183	2	0	1	target	1	494	753	129438	13.327	13.293	13.362
ProbeTrack09	12	ProbeTrack	1470	SCS215a	20090522.104714	20090522.111013	8	0.013327	60	10	60-180	60	131	GapExp	0	184	2	3	0	distractor	1	627	687	130125	13.328	13.292	13.364
ProbeTrack09	12	ProbeTrack	1470	SCS215a	20090522.104714	20090522.111020	8	0.013327	60	10	60-180	60	124	GapExp	0	185	2	6	1	target	1	400	800	130925	13.328	13.293	13.363
ProbeTrack09	12	ProbeTrack	1470	SCS215a	20090522.104714	20090522.111026	8	0.013327	60	10	60-180	60	86	GapExp	0	186	2	0	0	distractor	1	667	667	131592	13.328	13.293	13.366
ProbeTrack09	12	ProbeTrack	1470	SCS215a	20090522.104714	20090522.111031	8	0.013327	60	10	60-180	60	135	GapExp	0	187	2	0	0	distractor	1	507	747	132339	13.328	13.293	13.363
ProbeTrack09	12	ProbeTrack	1470	SCS215a	20090522.104714	20090522.111038	8	0.013327	60	10	60-180	60	120	GapExp	0	188	2	96	0	target	0	454	-1000	131339	13.328	13.292	13.363
ProbeTrack09	12	ProbeTrack	1470	SCS215a	20090522.104714	20090522.111045	8	0.013327	60	10	60-180	60	92	GapExp	0	189	2	96	0	distractor	1	467	767	132106	13.328	13.293	13.363
ProbeTrack09	12	ProbeTrack	1470	SCS215a	20090522.104714	20090522.111052	8	0.013327	60	10	60-180	60	144	GapExp	0	190	2	3	1	target	1	520	740	132846	13.328	13.292	13.363
ProbeTrack09	12	ProbeTrack	1470	SCS215a	20090522.104714	20090522.111058	8	0.013327	60	10	60-180	60	166	GapExp	0	191	2	0	0	distractor	1	947	527	133373	13.328	13.293	13.363
ProbeTrack09	12	ProbeTrack	1470	SCS215a	20090522.104714	20090522.111105	8	0.013327	60	10	60-180	60	115	GapExp	0	192	2	6	1	target	1	454	773	134146	13.327	13.293	13.364
ProbeTrack09	12	ProbeTrack	1470	SCS215a	20090522.104714	20090522.111112	8	0.013327	60	10	60-180	60	178	GapExp	0	193	2	0	1	target	1	533	734	134880	13.328	13.292	13.363
ProbeTrack09	12	ProbeTrack	1470	SCS215a	20090522.104714	20090522.111118	8	0.013327	60	10	60-180	60	111	GapExp	0	194	2	96	0	distractor	1	653	674	135554	13.328	13.293	13.363
ProbeTrack09	12	ProbeTrack	1470	SCS215a	20090522.104714	20090522.111126	8	0.013327	60	10	60-180	60	68	GapExp	0	195	2	6	0	distractor	1	587	707	136261	13.328	13.293	13.363
ProbeTrack09	12	ProbeTrack	1470	SCS215a	20090522.104714	20090522.111132	8	0.013327	60	10	60-180	60	143	GapExp	0	196	2	6	1	target	1	440	780	137041	13.328	13.289	13.363
ProbeTrack09	12	ProbeTrack	1470	SCS215a	20090522.104714	20090522.111138	8	0.013327	60	10	60-180	60	141	GapExp	0	197	2	6	1	target	1	494	753	137794	13.328	13.290	13.366
ProbeTrack09	12	ProbeTrack	1470	SCS215a	20090522.104714	20090522.111145	8	0.013327	60	10	60-180	60	123	GapExp	0	198	2	96	0	distractor	1	574	713	138507	13.328	13.291	13.363
ProbeTrack09	12	ProbeTrack	1470	SCS215a	20090522.104714	20090522.111152	8	0.013327	60	10	60-180	60	137	GapExp	0	199	2	3	0	distractor	1	627	687	139194	13.328	13.293	13.363
ProbeTrack09	12	ProbeTrack	1470	SCS215a	20090522.104714	20090522.111158	8	0.013327	60	10	60-180	60	92	GapExp	0	200	2	0	0	distractor	1	614	693	139887	13.328	13.293	13.367
