exp	sub	code	rev	comp	runtime	trialtime	nstim	refreshdur	cuedur	gapdur	gapOnsetRange	durPostProbe	gapOnsetTime	blocktype	gaptype	prac	trial	ntargets	soa	probeTarget	resp	acc	rt	pts	tpts	meanFrameDur	minFrameDur	maxFrameDur
ProbeTrack14	5	ProbeTrack	14.0	SCS215b	20111122.130314	20111122.130319	8	0.013328	60	0	60-180	60	71	NoGap	None	1	1	2	1	1	target	1	1739	131	131	13.392	12.195	14.468
ProbeTrack14	5	ProbeTrack	14.0	SCS215b	20111122.130314	20111122.130503	8	0.013328	60	0	60-180	60	62	NoGap	None	1	2	2	6	0	distractor	1	992	504	635	13.328	7.228	19.438
ProbeTrack14	5	ProbeTrack	14.0	SCS215b	20111122.130314	20111122.130512	8	0.013328	60	0	60-180	60	87	NoGap	None	1	3	2	2	0	distractor	1	717	642	1277	13.328	10.530	16.130
ProbeTrack14	5	ProbeTrack	14.0	SCS215b	20111122.130314	20111122.130519	8	0.013328	60	0	60-180	60	124	NoGap	None	1	4	2	1	0	distractor	1	633	684	1961	13.328	3.095	23.567
ProbeTrack14	5	ProbeTrack	14.0	SCS215b	20111122.130314	20111122.130526	8	0.013328	60	0	60-180	60	151	NoGap	None	1	5	2	6	1	target	1	606	697	2658	13.328	9.291	17.372
ProbeTrack14	5	ProbeTrack	14.0	SCS215b	20111122.130314	20111122.130533	8	0.013328	60	0	60-180	60	80	NoGap	None	1	6	2	2	1	target	1	525	738	3396	13.328	4.305	22.355
ProbeTrack14	5	ProbeTrack	14.0	SCS215b	20111122.130314	20111122.130538	8	0.013328	60	0	60-180	60	72	NoGap	None	1	7	2	45	1	target	1	530	735	4131	13.328	4.578	22.085
ProbeTrack14	5	ProbeTrack	14.0	SCS215b	20111122.130314	20111122.130544	8	0.013328	60	0	60-180	60	136	NoGap	None	1	8	2	1	1	target	1	479	761	4892	13.327	6.833	19.837
ProbeTrack14	5	ProbeTrack	14.0	SCS215b	20111122.130314	20111122.130550	8	0.013328	60	0	60-180	60	109	NoGap	None	1	9	2	0	1	target	1	390	805	5697	13.328	6.019	20.659
ProbeTrack14	5	ProbeTrack	14.0	SCS215b	20111122.130314	20111122.130556	8	0.013328	60	0	60-180	60	63	NoGap	None	1	10	2	6	1	target	1	474	763	6460	13.328	7.370	19.290
ProbeTrack14	5	ProbeTrack	14.0	SCS215b	20111122.130314	20111122.130601	8	0.013328	60	0	60-180	60	168	NoGap	None	1	11	2	6	0	distractor	1	708	646	7106	13.328	7.441	19.221
ProbeTrack14	5	ProbeTrack	14.0	SCS215b	20111122.130314	20111122.130609	8	0.013328	60	0	60-180	60	61	NoGap	None	1	12	2	2	0	distractor	1	556	722	7828	13.328	13.039	13.618
ProbeTrack14	5	ProbeTrack	14.0	SCS215b	20111122.130314	20111122.130614	8	0.013328	60	0	60-180	60	174	NoGap	None	1	13	2	45	0	distractor	1	634	683	8511	13.328	9.176	17.484
ProbeTrack14	5	ProbeTrack	14.0	SCS215b	20111122.130314	20111122.130622	8	0.013328	60	0	60-180	60	152	NoGap	None	1	14	2	0	0	distractor	1	607	697	9208	13.328	10.051	16.598
ProbeTrack14	5	ProbeTrack	14.0	SCS215b	20111122.130314	20111122.130629	8	0.013328	60	0	60-180	60	126	NoGap	None	1	15	2	0	1	target	1	528	736	9944	13.328	4.365	22.295
ProbeTrack14	5	ProbeTrack	14.0	SCS215b	20111122.130314	20111122.130635	8	0.013328	60	0	60-180	60	136	NoGap	None	1	16	2	45	0	distractor	1	558	721	10665	13.328	5.503	21.158
ProbeTrack14	5	ProbeTrack	14.0	SCS215b	20111122.130314	20111122.130642	8	0.013328	60	0	60-180	60	144	NoGap	None	1	17	2	0	0	distractor	1	499	751	11416	13.328	11.698	14.963
ProbeTrack14	5	ProbeTrack	14.0	SCS215b	20111122.130314	20111122.130648	8	0.013328	60	0	60-180	60	127	NoGap	None	1	18	2	45	1	target	1	564	718	12134	13.328	7.851	18.811
ProbeTrack14	5	ProbeTrack	14.0	SCS215b	20111122.130314	20111122.130655	8	0.013328	60	0	60-180	60	150	NoGap	None	1	19	2	2	0	distractor	1	523	739	12873	13.328	8.131	18.522
ProbeTrack14	5	ProbeTrack	14.0	SCS215b	20111122.130314	20111122.130702	8	0.013328	60	0	60-180	60	133	NoGap	None	1	20	2	2	0	distractor	1	542	729	13602	13.328	7.595	19.068
ProbeTrack14	5	ProbeTrack	14.0	SCS215b	20111122.130314	20111122.130708	8	0.013328	60	0	60-180	60	77	NoGap	None	1	21	2	1	0	distractor	1	483	759	14361	13.328	4.570	22.095
ProbeTrack14	5	ProbeTrack	14.0	SCS215b	20111122.130314	20111122.130714	8	0.013328	60	0	60-180	60	135	NoGap	None	1	22	2	1	1	target	1	446	777	15138	13.328	12.730	13.927
ProbeTrack14	5	ProbeTrack	14.0	SCS215b	20111122.130314	20111122.130720	8	0.013328	60	0	60-180	60	123	NoGap	None	1	23	2	6	0	distractor	1	449	776	15914	13.328	4.694	21.968
ProbeTrack14	5	ProbeTrack	14.0	SCS215b	20111122.130314	20111122.130726	8	0.013328	60	0	60-180	60	133	NoGap	None	1	24	2	6	0	distractor	1	461	770	16684	13.328	11.188	15.484
ProbeTrack14	5	ProbeTrack	14.0	SCS215b	20111122.130314	20111122.130732	8	0.013328	60	0	60-180	60	70	NoGap	None	1	25	2	6	1	target	1	504	748	17432	13.328	7.979	18.683
ProbeTrack14	5	ProbeTrack	14.0	SCS215b	20111122.130314	20111122.130737	8	0.013328	60	0	60-180	60	96	NoGap	None	1	26	2	45	0	distractor	1	512	744	18176	13.328	10.307	16.354
ProbeTrack14	5	ProbeTrack	14.0	SCS215b	20111122.130314	20111122.130743	8	0.013328	60	0	60-180	60	73	NoGap	None	1	27	2	6	1	target	1	539	731	18907	13.328	7.827	18.837
ProbeTrack14	5	ProbeTrack	14.0	SCS215b	20111122.130314	20111122.130749	8	0.013328	60	0	60-180	60	133	NoGap	None	1	28	2	1	1	target	1	448	776	19683	13.328	5.162	21.497
ProbeTrack14	5	ProbeTrack	14.0	SCS215b	20111122.130314	20111122.130755	8	0.013328	60	0	60-180	60	64	NoGap	None	1	29	2	1	0	distractor	1	516	742	20425	13.328	12.733	13.386
ProbeTrack14	5	ProbeTrack	14.0	SCS215b	20111122.130314	20111122.130800	8	0.013328	60	0	60-180	60	91	NoGap	None	1	30	2	0	1	target	1	413	794	21219	13.328	12.845	13.755
ProbeTrack14	5	ProbeTrack	14.0	SCS215b	20111122.130314	20111122.130806	8	0.013328	60	0	60-180	60	164	NoGap	None	1	31	2	0	0	distractor	1	424	788	22007	13.328	5.399	21.263
ProbeTrack14	5	ProbeTrack	14.0	SCS215b	20111122.130314	20111122.130812	8	0.013328	60	0	60-180	60	178	NoGap	None	1	32	2	2	1	target	1	403	799	22806	13.328	8.951	17.714
ProbeTrack14	5	ProbeTrack	14.0	SCS215b	20111122.130314	20111122.130819	8	0.013328	60	0	60-180	60	179	NoGap	None	1	33	2	0	1	target	1	423	789	23595	13.328	8.281	18.386
ProbeTrack14	5	ProbeTrack	14.0	SCS215b	20111122.130314	20111122.130826	8	0.013328	60	0	60-180	60	69	NoGap	None	1	34	2	45	0	distractor	1	478	761	24356	13.328	7.225	19.436
ProbeTrack14	5	ProbeTrack	14.0	SCS215b	20111122.130314	20111122.130832	8	0.013328	60	0	60-180	60	138	NoGap	None	1	35	2	1	0	distractor	1	585	708	25064	13.328	12.746	13.912
ProbeTrack14	5	ProbeTrack	14.0	SCS215b	20111122.130314	20111122.130838	8	0.013328	60	0	60-180	60	112	NoGap	None	1	36	2	2	1	target	1	432	784	25848	13.328	13.292	13.363
ProbeTrack14	5	ProbeTrack	14.0	SCS215b	20111122.130314	20111122.130844	8	0.013328	60	0	60-180	60	141	NoGap	None	1	37	2	45	1	target	1	431	785	26633	13.328	10.557	16.102
ProbeTrack14	5	ProbeTrack	14.0	SCS215b	20111122.130314	20111122.130850	8	0.013328	60	0	60-180	60	166	NoGap	None	1	38	2	45	1	target	1	467	767	27400	13.328	8.281	18.385
ProbeTrack14	5	ProbeTrack	14.0	SCS215b	20111122.130314	20111122.130858	8	0.013328	60	0	60-180	60	144	NoGap	None	1	39	2	2	1	target	1	404	798	28198	13.328	11.715	14.947
ProbeTrack14	5	ProbeTrack	14.0	SCS215b	20111122.130314	20111122.130904	8	0.013328	60	0	60-180	60	154	NoGap	None	1	40	2	0	0	distractor	1	439	781	28979	13.328	8.959	17.697
ProbeTrack14	5	ProbeTrack	14.0	SCS215b	20111122.131036	20111122.131043	8	0.013324	60	10	60-180	60	160	GapPrac	Blank	1	1	2	1	0	target	0	757	-1000	27979	13.372	6.590	20.050
ProbeTrack14	5	ProbeTrack	14.0	SCS215b	20111122.131036	20111122.131051	8	0.013324	60	10	60-180	60	97	GapPrac	Blank	1	2	2	6	0	distractor	1	985	508	28487	13.328	10.574	16.095
ProbeTrack14	5	ProbeTrack	14.0	SCS215b	20111122.131036	20111122.131059	8	0.013324	60	10	60-180	60	165	GapPrac	Blank	1	3	2	2	1	target	1	647	677	29164	13.328	11.716	14.948
ProbeTrack14	5	ProbeTrack	14.0	SCS215b	20111122.131036	20111122.131106	8	0.013324	60	10	60-180	60	108	GapPrac	Blank	1	4	2	6	1	target	1	621	690	29854	13.328	11.256	15.401
ProbeTrack14	5	ProbeTrack	14.0	SCS215b	20111122.131036	20111122.131112	8	0.013324	60	10	60-180	60	90	GapPrac	Blank	1	5	2	0	0	distractor	1	731	635	30489	13.328	6.614	20.045
ProbeTrack14	5	ProbeTrack	14.0	SCS215b	20111122.131036	20111122.131118	8	0.013324	60	10	60-180	60	134	GapPrac	Blank	1	6	2	2	1	target	1	459	771	31260	13.328	6.707	19.944
ProbeTrack14	5	ProbeTrack	14.0	SCS215b	20111122.131036	20111122.131125	8	0.013324	60	10	60-180	60	101	GapPrac	Blank	1	7	2	45	1	target	1	741	630	31890	13.328	3.309	23.346
ProbeTrack14	5	ProbeTrack	14.0	SCS215b	20111122.131036	20111122.131131	8	0.013324	60	10	60-180	60	70	GapPrac	Blank	1	8	2	45	0	distractor	1	680	660	32550	13.342	6.818	19.844
ProbeTrack14	5	ProbeTrack	14.0	SCS215b	20111122.131036	20111122.131138	8	0.013324	60	10	60-180	60	168	GapPrac	Blank	1	9	2	1	1	target	1	626	687	33237	13.328	5.389	21.270
ProbeTrack14	5	ProbeTrack	14.0	SCS215b	20111122.131036	20111122.131145	8	0.013324	60	10	60-180	60	144	GapPrac	Blank	1	10	2	6	0	distractor	1	539	731	33968	13.328	4.201	22.438
ProbeTrack14	5	ProbeTrack	14.0	SCS215b	20111122.131036	20111122.131152	8	0.013324	60	10	60-180	60	74	GapPrac	Blank	1	11	2	0	0	distractor	1	691	655	34623	13.328	5.015	21.637
ProbeTrack14	5	ProbeTrack	14.0	SCS215b	20111122.131036	20111122.131158	8	0.013324	60	10	60-180	60	67	GapPrac	Blank	1	12	2	2	0	distractor	1	1078	461	35084	13.328	3.536	23.119
ProbeTrack14	5	ProbeTrack	14.0	SCS215b	20111122.131036	20111122.131203	8	0.013324	60	10	60-180	60	104	GapPrac	Blank	1	13	2	45	0	distractor	1	608	696	35780	13.328	6.017	20.643
ProbeTrack14	5	ProbeTrack	14.0	SCS215b	20111122.131036	20111122.131210	8	0.013324	60	10	60-180	60	105	GapPrac	Blank	1	14	2	0	1	target	1	429	786	36566	13.328	3.551	23.105
ProbeTrack14	5	ProbeTrack	14.0	SCS215b	20111122.131036	20111122.131216	8	0.013324	60	10	60-180	60	118	GapPrac	Blank	1	15	2	1	1	target	1	508	746	37312	13.328	11.205	15.455
ProbeTrack14	5	ProbeTrack	14.0	SCS215b	20111122.131036	20111122.131222	8	0.013324	60	10	60-180	60	118	GapPrac	Blank	1	16	2	45	1	target	1	447	777	38089	13.328	4.245	22.406
ProbeTrack14	5	ProbeTrack	14.0	SCS215b	20111122.131036	20111122.131229	8	0.013324	60	10	60-180	60	90	GapPrac	Blank	1	17	2	0	1	target	1	541	730	38819	13.328	5.288	21.362
ProbeTrack14	5	ProbeTrack	14.0	SCS215b	20111122.131036	20111122.131235	8	0.013324	60	10	60-180	60	77	GapPrac	Blank	1	18	2	1	0	distractor	1	705	648	39467	13.328	4.635	22.016
ProbeTrack14	5	ProbeTrack	14.0	SCS215b	20111122.131036	20111122.131240	8	0.013324	60	10	60-180	60	144	GapPrac	Blank	1	19	2	2	0	distractor	1	794	603	40070	13.328	6.198	20.448
ProbeTrack14	5	ProbeTrack	14.0	SCS215b	20111122.131036	20111122.131247	8	0.013324	60	10	60-180	60	149	GapPrac	Blank	1	20	2	6	1	target	1	436	782	40852	13.328	4.650	22.023
ProbeTrack14	5	ProbeTrack	14.0	SCS215b	20111122.131311	20111122.131317	8	0.013328	60	10	60-180	60	116	GapExp	Blank	1	1	2	45	1	target	1	483	759	41611	13.375	6.570	20.081
ProbeTrack14	5	ProbeTrack	14.0	SCS215b	20111122.131311	20111122.131325	8	0.013328	60	10	60-180	60	115	GapExp	Blank	1	2	2	6	0	distractor	1	506	747	42358	13.328	7.578	19.071
ProbeTrack14	5	ProbeTrack	14.0	SCS215b	20111122.131311	20111122.131331	8	0.013328	60	10	60-180	60	98	GapExp	Blank	1	3	2	2	0	distractor	1	748	626	42984	13.328	8.232	18.430
ProbeTrack14	5	ProbeTrack	14.0	SCS215b	20111122.131311	20111122.131337	8	0.013328	60	10	60-180	60	132	GapExp	Blank	1	4	2	6	1	distractor	0	480	-1000	41984	13.328	8.649	18.002
ProbeTrack14	5	ProbeTrack	14.0	SCS215b	20111122.131311	20111122.131344	8	0.013328	60	10	60-180	60	100	GapExp	Blank	1	5	2	45	0	distractor	1	502	749	42733	13.328	11.069	15.593
ProbeTrack14	5	ProbeTrack	14.0	SCS215b	20111122.131311	20111122.131351	8	0.013328	60	10	60-180	60	104	GapExp	Blank	1	6	2	0	1	target	1	471	765	43498	13.328	10.540	16.294
ProbeTrack14	5	ProbeTrack	14.0	SCS215b	20111122.131311	20111122.131357	8	0.013328	60	10	60-180	60	179	GapExp	Blank	1	7	2	1	1	target	1	604	698	44196	13.337	10.620	16.121
ProbeTrack14	5	ProbeTrack	14.0	SCS215b	20111122.131311	20111122.131404	8	0.013328	60	10	60-180	60	97	GapExp	Blank	1	8	2	0	0	distractor	1	457	772	44968	13.315	6.298	20.361
ProbeTrack14	5	ProbeTrack	14.0	SCS215b	20111122.131311	20111122.131409	8	0.013328	60	10	60-180	60	116	GapExp	Blank	1	9	2	2	1	target	1	473	764	45732	13.328	6.005	20.652
ProbeTrack14	5	ProbeTrack	14.0	SCS215b	20111122.131311	20111122.131416	8	0.013328	60	10	60-180	60	169	GapExp	Blank	1	10	2	1	0	distractor	1	833	584	46316	13.328	3.977	22.681
ProbeTrack14	5	ProbeTrack	14.0	SCS215b	20111122.131311	20111122.131423	8	0.013328	60	10	60-180	60	61	GapExp	Blank	0	11	2	45	0	distractor	1	593	704	47020	13.328	10.797	15.856
ProbeTrack14	5	ProbeTrack	14.0	SCS215b	20111122.131311	20111122.131429	8	0.013328	60	10	60-180	60	105	GapExp	Blank	0	12	2	2	0	distractor	1	817	592	47612	13.328	8.350	18.317
ProbeTrack14	5	ProbeTrack	14.0	SCS215b	20111122.131311	20111122.131436	8	0.013328	60	10	60-180	60	123	GapExp	Blank	0	13	2	0	0	distractor	1	537	732	48344	13.328	4.132	22.515
ProbeTrack14	5	ProbeTrack	14.0	SCS215b	20111122.131311	20111122.131442	8	0.013328	60	10	60-180	60	100	GapExp	Blank	0	14	2	2	0	distractor	1	638	681	49025	13.328	5.949	20.719
ProbeTrack14	5	ProbeTrack	14.0	SCS215b	20111122.131311	20111122.131448	8	0.013328	60	10	60-180	60	76	GapExp	Blank	0	15	2	6	1	target	1	437	782	49807	13.328	9.201	17.446
ProbeTrack14	5	ProbeTrack	14.0	SCS215b	20111122.131311	20111122.131453	8	0.013328	60	10	60-180	60	172	GapExp	Blank	0	16	2	0	1	target	1	452	774	50581	13.328	4.197	22.457
ProbeTrack14	5	ProbeTrack	14.0	SCS215b	20111122.131311	20111122.131500	8	0.013328	60	10	60-180	60	124	GapExp	Blank	0	17	2	0	0	distractor	1	508	746	51327	13.328	8.600	18.058
ProbeTrack14	5	ProbeTrack	14.0	SCS215b	20111122.131311	20111122.131506	8	0.013328	60	10	60-180	60	73	GapExp	Blank	0	18	2	2	1	target	1	432	784	52111	13.328	11.114	15.553
ProbeTrack14	5	ProbeTrack	14.0	SCS215b	20111122.131311	20111122.131511	8	0.013328	60	10	60-180	60	89	GapExp	Blank	0	19	2	1	1	target	1	466	767	52878	13.328	6.065	20.597
ProbeTrack14	5	ProbeTrack	14.0	SCS215b	20111122.131311	20111122.131517	8	0.013328	60	10	60-180	60	67	GapExp	Blank	0	20	2	1	0	distractor	1	587	707	53585	13.328	10.220	14.555
ProbeTrack14	5	ProbeTrack	14.0	SCS215b	20111122.131311	20111122.131522	8	0.013328	60	10	60-180	60	73	GapExp	Blank	0	21	2	1	1	target	1	371	815	54400	13.328	7.545	18.969
ProbeTrack14	5	ProbeTrack	14.0	SCS215b	20111122.131311	20111122.131527	8	0.013328	60	10	60-180	60	115	GapExp	Blank	0	22	2	6	0	distractor	1	561	720	55120	13.328	5.259	21.403
ProbeTrack14	5	ProbeTrack	14.0	SCS215b	20111122.131311	20111122.131534	8	0.013328	60	10	60-180	60	126	GapExp	Blank	0	23	2	45	1	target	1	445	778	55898	13.328	6.653	20.008
ProbeTrack14	5	ProbeTrack	14.0	SCS215b	20111122.131311	20111122.131540	8	0.013328	60	10	60-180	60	92	GapExp	Blank	0	24	2	45	1	target	1	416	792	56690	13.328	11.272	15.395
ProbeTrack14	5	ProbeTrack	14.0	SCS215b	20111122.131311	20111122.131547	8	0.013328	60	10	60-180	60	135	GapExp	Blank	0	25	2	1	0	distractor	1	552	724	57414	13.328	8.483	18.167
ProbeTrack14	5	ProbeTrack	14.0	SCS215b	20111122.131311	20111122.131553	8	0.013328	60	10	60-180	60	140	GapExp	Blank	0	26	2	6	1	target	1	369	816	58230	13.328	5.016	21.624
ProbeTrack14	5	ProbeTrack	14.0	SCS215b	20111122.131311	20111122.131559	8	0.013328	60	10	60-180	60	180	GapExp	Blank	0	27	2	6	1	target	1	341	830	59060	13.317	9.908	15.149
ProbeTrack14	5	ProbeTrack	14.0	SCS215b	20111122.131311	20111122.131607	8	0.013328	60	10	60-180	60	81	GapExp	Blank	0	28	2	45	0	distractor	1	494	753	59813	13.328	8.369	18.301
ProbeTrack14	5	ProbeTrack	14.0	SCS215b	20111122.131311	20111122.131613	8	0.013328	60	10	60-180	60	125	GapExp	Blank	0	29	2	2	1	target	1	446	777	60590	13.328	6.036	20.631
ProbeTrack14	5	ProbeTrack	14.0	SCS215b	20111122.131311	20111122.131619	8	0.013328	60	10	60-180	60	142	GapExp	Blank	0	30	2	45	1	target	1	396	802	61392	13.328	3.859	22.796
ProbeTrack14	5	ProbeTrack	14.0	SCS215b	20111122.131311	20111122.131625	8	0.013328	60	10	60-180	60	118	GapExp	Blank	0	31	2	1	0	target	0	415	-1000	60392	13.328	9.622	17.022
ProbeTrack14	5	ProbeTrack	14.0	SCS215b	20111122.131311	20111122.131631	8	0.013328	60	10	60-180	60	130	GapExp	Blank	0	32	2	1	0	distractor	1	460	770	61162	13.328	8.723	17.933
ProbeTrack14	5	ProbeTrack	14.0	SCS215b	20111122.131311	20111122.131638	8	0.013328	60	10	60-180	60	66	GapExp	Blank	0	33	2	45	0	distractor	1	451	775	61937	13.328	5.259	21.402
ProbeTrack14	5	ProbeTrack	14.0	SCS215b	20111122.131311	20111122.131644	8	0.013328	60	10	60-180	60	106	GapExp	Blank	0	34	2	6	0	distractor	1	450	775	62712	13.328	10.028	16.621
ProbeTrack14	5	ProbeTrack	14.0	SCS215b	20111122.131311	20111122.131650	8	0.013328	60	10	60-180	60	78	GapExp	Blank	0	35	2	0	1	target	1	502	749	63461	13.328	10.675	15.973
ProbeTrack14	5	ProbeTrack	14.0	SCS215b	20111122.131311	20111122.131655	8	0.013328	60	10	60-180	60	72	GapExp	Blank	0	36	2	1	1	target	1	397	802	64263	13.328	7.501	19.146
ProbeTrack14	5	ProbeTrack	14.0	SCS215b	20111122.131311	20111122.131700	8	0.013328	60	10	60-180	60	141	GapExp	Blank	0	37	2	45	1	target	1	369	816	65079	13.323	7.185	19.470
ProbeTrack14	5	ProbeTrack	14.0	SCS215b	20111122.131311	20111122.131707	8	0.013328	60	10	60-180	60	169	GapExp	Blank	0	38	2	6	0	distractor	1	482	759	65838	13.328	4.806	21.843
ProbeTrack14	5	ProbeTrack	14.0	SCS215b	20111122.131311	20111122.131714	8	0.013328	60	10	60-180	60	165	GapExp	Blank	0	39	2	2	0	distractor	1	525	738	66576	13.351	4.486	22.152
ProbeTrack14	5	ProbeTrack	14.0	SCS215b	20111122.131311	20111122.131721	8	0.013328	60	10	60-180	60	116	GapExp	Blank	0	40	2	0	0	distractor	1	625	688	67264	13.328	11.902	14.750
ProbeTrack14	5	ProbeTrack	14.0	SCS215b	20111122.131311	20111122.131727	8	0.013328	60	10	60-180	60	146	GapExp	Blank	0	41	2	2	1	target	1	449	776	68040	13.328	10.523	16.131
ProbeTrack14	5	ProbeTrack	14.0	SCS215b	20111122.131311	20111122.131734	8	0.013328	60	10	60-180	60	90	GapExp	Blank	0	42	2	0	1	target	1	385	808	68848	13.328	6.110	20.540
ProbeTrack14	5	ProbeTrack	14.0	SCS215b	20111122.131311	20111122.131739	8	0.013328	60	10	60-180	60	67	GapExp	Blank	0	43	2	1	0	distractor	1	409	796	69644	13.328	7.550	19.091
ProbeTrack14	5	ProbeTrack	14.0	SCS215b	20111122.131311	20111122.131744	8	0.013328	60	10	60-180	60	178	GapExp	Blank	0	44	2	6	1	target	1	369	816	70460	13.328	8.609	18.060
ProbeTrack14	5	ProbeTrack	14.0	SCS215b	20111122.131311	20111122.131751	8	0.013328	60	10	60-180	60	81	GapExp	Blank	0	45	2	6	0	distractor	1	349	826	71286	13.328	8.728	17.930
ProbeTrack14	5	ProbeTrack	14.0	SCS215b	20111122.131311	20111122.131756	8	0.013328	60	10	60-180	60	77	GapExp	Blank	0	46	2	6	0	distractor	1	433	784	72070	13.328	10.964	15.679
ProbeTrack14	5	ProbeTrack	14.0	SCS215b	20111122.131311	20111122.131801	8	0.013328	60	10	60-180	60	129	GapExp	Blank	0	47	2	6	1	target	1	405	798	72868	13.328	8.108	18.556
ProbeTrack14	5	ProbeTrack	14.0	SCS215b	20111122.131311	20111122.131808	8	0.013328	60	10	60-180	60	125	GapExp	Blank	0	48	2	1	1	target	1	340	830	73698	13.328	7.053	19.605
ProbeTrack14	5	ProbeTrack	14.0	SCS215b	20111122.131311	20111122.131813	8	0.013328	60	10	60-180	60	123	GapExp	Blank	0	49	2	2	0	distractor	1	546	727	74425	13.328	9.639	17.029
ProbeTrack14	5	ProbeTrack	14.0	SCS215b	20111122.131311	20111122.131819	8	0.013328	60	10	60-180	60	158	GapExp	Blank	0	50	2	6	1	target	1	384	808	75233	13.328	7.735	18.929
ProbeTrack14	5	ProbeTrack	14.0	SCS215b	20111122.131311	20111122.131827	8	0.013328	60	10	60-180	60	68	GapExp	Blank	0	51	2	6	0	distractor	1	398	801	76034	13.328	5.201	21.457
ProbeTrack14	5	ProbeTrack	14.0	SCS215b	20111122.131311	20111122.131832	8	0.013328	60	10	60-180	60	159	GapExp	Blank	0	52	2	0	0	distractor	1	423	789	76823	13.328	9.221	17.444
ProbeTrack14	5	ProbeTrack	14.0	SCS215b	20111122.131311	20111122.131838	8	0.013328	60	10	60-180	60	180	GapExp	Blank	0	53	2	0	0	distractor	1	411	795	77618	13.328	8.362	18.297
ProbeTrack14	5	ProbeTrack	14.0	SCS215b	20111122.131311	20111122.131845	8	0.013328	60	10	60-180	60	141	GapExp	Blank	0	54	2	0	0	distractor	1	724	638	78256	13.328	6.229	20.425
ProbeTrack14	5	ProbeTrack	14.0	SCS215b	20111122.131311	20111122.131851	8	0.013328	60	10	60-180	60	174	GapExp	Blank	0	55	2	6	1	target	1	404	798	79054	13.328	5.031	21.629
ProbeTrack14	5	ProbeTrack	14.0	SCS215b	20111122.131311	20111122.131859	8	0.013328	60	10	60-180	60	153	GapExp	Blank	0	56	2	45	1	target	1	387	807	79861	13.328	8.371	18.286
ProbeTrack14	5	ProbeTrack	14.0	SCS215b	20111122.131311	20111122.131905	8	0.013328	60	10	60-180	60	148	GapExp	Blank	0	57	2	1	0	distractor	1	572	714	80575	13.328	7.998	21.682
ProbeTrack14	5	ProbeTrack	14.0	SCS215b	20111122.131311	20111122.131912	8	0.013328	60	10	60-180	60	149	GapExp	Blank	0	58	2	45	1	target	1	373	814	81389	13.328	7.176	19.469
ProbeTrack14	5	ProbeTrack	14.0	SCS215b	20111122.131311	20111122.131919	8	0.013328	60	10	60-180	60	91	GapExp	Blank	0	59	2	1	0	distractor	1	512	744	82133	13.328	8.541	18.124
ProbeTrack14	5	ProbeTrack	14.0	SCS215b	20111122.131311	20111122.131924	8	0.013328	60	10	60-180	60	81	GapExp	Blank	0	60	2	45	0	target	0	396	-1000	81133	13.328	8.237	18.414
ProbeTrack14	5	ProbeTrack	14.0	SCS215b	20111122.131311	20111122.131931	8	0.013328	60	10	60-180	60	131	GapExp	Blank	0	61	2	2	1	target	1	435	783	81916	13.328	6.367	20.295
ProbeTrack14	5	ProbeTrack	14.0	SCS215b	20111122.131311	20111122.131937	8	0.013328	60	10	60-180	60	131	GapExp	Blank	0	62	2	1	1	target	1	456	772	82688	13.381	8.821	20.218
ProbeTrack14	5	ProbeTrack	14.0	SCS215b	20111122.131311	20111122.131943	8	0.013328	60	10	60-180	60	100	GapExp	Blank	0	63	2	0	0	distractor	1	465	768	83456	13.328	10.013	16.641
ProbeTrack14	5	ProbeTrack	14.0	SCS215b	20111122.131311	20111122.131948	8	0.013328	60	10	60-180	60	125	GapExp	Blank	0	64	2	1	0	distractor	1	568	716	84172	13.328	9.598	17.072
ProbeTrack14	5	ProbeTrack	14.0	SCS215b	20111122.131311	20111122.131954	8	0.013328	60	10	60-180	60	179	GapExp	Blank	0	65	2	45	0	distractor	1	435	783	84955	13.328	6.717	19.948
ProbeTrack14	5	ProbeTrack	14.0	SCS215b	20111122.131311	20111122.132002	8	0.013328	60	10	60-180	60	88	GapExp	Blank	0	66	2	45	1	distractor	0	482	-1000	83955	13.328	6.933	19.736
ProbeTrack14	5	ProbeTrack	14.0	SCS215b	20111122.131311	20111122.132008	8	0.013328	60	10	60-180	60	148	GapExp	Blank	0	67	2	45	0	distractor	1	510	745	84700	13.328	5.210	21.440
ProbeTrack14	5	ProbeTrack	14.0	SCS215b	20111122.131311	20111122.132015	8	0.013328	60	10	60-180	60	84	GapExp	Blank	0	68	2	2	0	distractor	1	702	649	85349	13.328	8.207	18.461
ProbeTrack14	5	ProbeTrack	14.0	SCS215b	20111122.131311	20111122.132021	8	0.013328	60	10	60-180	60	143	GapExp	Blank	0	69	2	0	1	target	1	460	770	86119	13.379	9.993	26.413
ProbeTrack14	5	ProbeTrack	14.0	SCS215b	20111122.131311	20111122.132027	8	0.013328	60	10	60-180	60	66	GapExp	Blank	0	70	2	45	0	distractor	1	410	795	86914	13.328	3.301	23.343
ProbeTrack14	5	ProbeTrack	14.0	SCS215b	20111122.131311	20111122.132033	8	0.013328	60	10	60-180	60	160	GapExp	Blank	0	71	2	2	1	target	1	460	770	87684	13.328	7.402	19.303
ProbeTrack14	5	ProbeTrack	14.0	SCS215b	20111122.131311	20111122.132039	8	0.013328	60	10	60-180	60	110	GapExp	Blank	0	72	2	45	0	distractor	1	399	801	88485	13.328	4.905	21.743
ProbeTrack14	5	ProbeTrack	14.0	SCS215b	20111122.131311	20111122.132046	8	0.013328	60	10	60-180	60	155	GapExp	Blank	0	73	2	0	1	target	1	414	793	89278	13.572	8.090	48.318
ProbeTrack14	5	ProbeTrack	14.0	SCS215b	20111122.131311	20111122.132052	8	0.013328	60	10	60-180	60	109	GapExp	Blank	0	74	2	1	0	distractor	1	685	658	89936	13.382	3.609	23.040
ProbeTrack14	5	ProbeTrack	14.0	SCS215b	20111122.131311	20111122.132058	8	0.013328	60	10	60-180	60	156	GapExp	Blank	0	75	2	6	0	distractor	1	856	572	90508	13.328	4.551	22.092
ProbeTrack14	5	ProbeTrack	14.0	SCS215b	20111122.131311	20111122.132105	8	0.013328	60	10	60-180	60	80	GapExp	Blank	0	76	2	1	1	target	1	421	790	91298	13.328	5.317	21.352
ProbeTrack14	5	ProbeTrack	14.0	SCS215b	20111122.131311	20111122.132111	8	0.013328	60	10	60-180	60	99	GapExp	Blank	0	77	2	0	1	target	1	406	797	92095	13.328	6.708	19.950
ProbeTrack14	5	ProbeTrack	14.0	SCS215b	20111122.131311	20111122.132116	8	0.013328	60	10	60-180	60	73	GapExp	Blank	0	78	2	0	1	target	1	398	801	92896	13.328	12.084	14.567
ProbeTrack14	5	ProbeTrack	14.0	SCS215b	20111122.131311	20111122.132121	8	0.013328	60	10	60-180	60	144	GapExp	Blank	0	79	2	2	0	distractor	1	455	773	93669	13.328	6.573	20.132
ProbeTrack14	5	ProbeTrack	14.0	SCS215b	20111122.131311	20111122.132127	8	0.013328	60	10	60-180	60	147	GapExp	Blank	0	80	2	0	0	distractor	1	625	688	94357	13.328	8.143	18.517
ProbeTrack14	5	ProbeTrack	14.0	SCS215b	20111122.131311	20111122.132134	8	0.013328	60	10	60-180	60	141	GapExp	Blank	0	81	2	2	1	distractor	0	499	-1000	93357	13.328	6.657	20.009
ProbeTrack14	5	ProbeTrack	14.0	SCS215b	20111122.131311	20111122.132140	8	0.013328	60	10	60-180	60	112	GapExp	Blank	0	82	2	2	1	target	1	403	799	94156	13.329	7.280	19.393
ProbeTrack14	5	ProbeTrack	14.0	SCS215b	20111122.131311	20111122.132146	8	0.013328	60	10	60-180	60	89	GapExp	Blank	0	83	2	2	1	target	1	345	828	94984	13.394	11.391	22.578
ProbeTrack14	5	ProbeTrack	14.0	SCS215b	20111122.131311	20111122.132151	8	0.013328	60	10	60-180	60	90	GapExp	Blank	0	84	2	0	0	distractor	1	474	763	95747	13.328	7.959	18.700
ProbeTrack14	5	ProbeTrack	14.0	SCS215b	20111122.131311	20111122.132157	8	0.013328	60	10	60-180	60	149	GapExp	Blank	0	85	2	45	1	target	1	385	808	96555	13.354	8.467	21.478
ProbeTrack14	5	ProbeTrack	14.0	SCS215b	20111122.131311	20111122.132204	8	0.013328	60	10	60-180	60	119	GapExp	Blank	0	86	2	1	0	distractor	1	463	769	97324	13.383	7.538	22.799
ProbeTrack14	5	ProbeTrack	14.0	SCS215b	20111122.131311	20111122.132209	8	0.013328	60	10	60-180	60	119	GapExp	Blank	0	87	2	1	1	target	1	313	844	98168	13.328	9.685	16.970
ProbeTrack14	5	ProbeTrack	14.0	SCS215b	20111122.131311	20111122.132215	8	0.013328	60	10	60-180	60	124	GapExp	Blank	0	88	2	1	1	target	1	435	783	98951	13.328	7.393	19.269
ProbeTrack14	5	ProbeTrack	14.0	SCS215b	20111122.131311	20111122.132221	8	0.013328	60	10	60-180	60	170	GapExp	Blank	0	89	2	2	0	distractor	1	403	799	99750	13.328	4.812	21.841
ProbeTrack14	5	ProbeTrack	14.0	SCS215b	20111122.131311	20111122.132228	8	0.013328	60	10	60-180	60	160	GapExp	Blank	0	90	2	6	1	target	1	367	817	100567	13.328	8.893	17.867
ProbeTrack14	5	ProbeTrack	14.0	SCS215b	20111122.131311	20111122.132234	8	0.013328	60	10	60-180	60	132	GapExp	Blank	0	91	2	0	0	distractor	1	586	707	101274	13.328	6.113	20.621
ProbeTrack14	5	ProbeTrack	14.0	SCS215b	20111122.131311	20111122.132240	8	0.013328	60	10	60-180	60	62	GapExp	Blank	0	92	2	2	1	target	1	310	845	102119	13.328	9.163	17.497
ProbeTrack14	5	ProbeTrack	14.0	SCS215b	20111122.131311	20111122.132246	8	0.013328	60	10	60-180	60	152	GapExp	Blank	0	93	2	2	0	distractor	1	428	786	102905	13.328	3.660	23.007
ProbeTrack14	5	ProbeTrack	14.0	SCS215b	20111122.131311	20111122.132252	8	0.013328	60	10	60-180	60	174	GapExp	Blank	0	94	2	6	1	target	1	358	821	103726	13.328	3.926	22.717
ProbeTrack14	5	ProbeTrack	14.0	SCS215b	20111122.131311	20111122.132258	8	0.013328	60	10	60-180	60	131	GapExp	Blank	0	95	2	0	0	target	0	392	-1000	102726	13.328	10.366	16.296
ProbeTrack14	5	ProbeTrack	14.0	SCS215b	20111122.131311	20111122.132304	8	0.013328	60	10	60-180	60	136	GapExp	Blank	0	96	2	45	0	distractor	1	421	790	103516	13.328	5.342	21.319
ProbeTrack14	5	ProbeTrack	14.0	SCS215b	20111122.131311	20111122.132311	8	0.013328	60	10	60-180	60	161	GapExp	Blank	0	97	2	2	1	target	1	369	816	104332	13.328	4.294	22.354
ProbeTrack14	5	ProbeTrack	14.0	SCS215b	20111122.131311	20111122.132318	8	0.013328	60	10	60-180	60	79	GapExp	Blank	0	98	2	6	0	distractor	1	474	763	105095	13.328	9.224	17.415
ProbeTrack14	5	ProbeTrack	14.0	SCS215b	20111122.131311	20111122.132323	8	0.013328	60	10	60-180	60	151	GapExp	Blank	0	99	2	1	0	distractor	1	464	768	105863	13.328	3.412	22.834
ProbeTrack14	5	ProbeTrack	14.0	SCS215b	20111122.131311	20111122.132330	8	0.013328	60	10	60-180	60	117	GapExp	Blank	0	100	2	1	0	target	0	395	-1000	104863	13.328	8.405	18.250
ProbeTrack14	5	ProbeTrack	14.0	SCS215b	20111122.131311	20111122.132336	8	0.013328	60	10	60-180	60	158	GapExp	Blank	0	101	2	6	1	target	1	356	822	105685	13.328	5.819	20.827
ProbeTrack14	5	ProbeTrack	14.0	SCS215b	20111122.131311	20111122.132342	8	0.013328	60	10	60-180	60	88	GapExp	Blank	0	102	2	45	1	target	1	324	838	106523	13.328	7.292	19.358
ProbeTrack14	5	ProbeTrack	14.0	SCS215b	20111122.131311	20111122.132348	8	0.013328	60	10	60-180	60	166	GapExp	Blank	0	103	2	6	1	target	1	372	814	107337	13.328	5.765	20.894
ProbeTrack14	5	ProbeTrack	14.0	SCS215b	20111122.131311	20111122.132355	8	0.013328	60	10	60-180	60	80	GapExp	Blank	0	104	2	2	1	target	1	375	813	108150	13.328	7.032	19.624
ProbeTrack14	5	ProbeTrack	14.0	SCS215b	20111122.131311	20111122.132400	8	0.013328	60	10	60-180	60	107	GapExp	Blank	0	105	2	1	1	target	1	424	788	108938	13.328	4.616	22.038
ProbeTrack14	5	ProbeTrack	14.0	SCS215b	20111122.131311	20111122.132406	8	0.013328	60	10	60-180	60	123	GapExp	Blank	0	106	2	2	0	distractor	1	422	789	109727	13.328	4.648	21.997
ProbeTrack14	5	ProbeTrack	14.0	SCS215b	20111122.131311	20111122.132412	8	0.013328	60	10	60-180	60	66	GapExp	Blank	0	107	2	0	0	distractor	1	608	696	110423	13.597	10.321	41.053
ProbeTrack14	5	ProbeTrack	14.0	SCS215b	20111122.131311	20111122.132417	8	0.013328	60	10	60-180	60	171	GapExp	Blank	0	108	2	1	0	distractor	1	419	791	111214	13.328	7.646	19.024
ProbeTrack14	5	ProbeTrack	14.0	SCS215b	20111122.131311	20111122.132424	8	0.013328	60	10	60-180	60	113	GapExp	Blank	0	109	2	45	0	distractor	1	431	785	111999	13.328	8.408	18.250
ProbeTrack14	5	ProbeTrack	14.0	SCS215b	20111122.131311	20111122.132430	8	0.013328	60	10	60-180	60	154	GapExp	Blank	0	110	2	6	0	distractor	1	515	743	112742	13.328	5.242	21.397
ProbeTrack14	5	ProbeTrack	14.0	SCS215b	20111122.131311	20111122.132436	8	0.013328	60	10	60-180	60	152	GapExp	Blank	0	111	2	0	0	distractor	1	448	776	113518	13.328	6.644	20.010
ProbeTrack14	5	ProbeTrack	14.0	SCS215b	20111122.131311	20111122.132442	8	0.013328	60	10	60-180	60	64	GapExp	Blank	0	112	2	0	0	target	0	462	-1000	112518	13.328	9.946	16.694
ProbeTrack14	5	ProbeTrack	14.0	SCS215b	20111122.131311	20111122.132447	8	0.013328	60	10	60-180	60	120	GapExp	Blank	0	113	2	1	1	target	1	426	787	113305	13.328	7.719	18.928
ProbeTrack14	5	ProbeTrack	14.0	SCS215b	20111122.131311	20111122.132454	8	0.013328	60	10	60-180	60	152	GapExp	Blank	0	114	2	6	1	distractor	0	376	-1000	112305	13.328	8.326	18.343
ProbeTrack14	5	ProbeTrack	14.0	SCS215b	20111122.131311	20111122.132500	8	0.013328	60	10	60-180	60	162	GapExp	Blank	0	115	2	2	1	target	1	468	766	113071	13.328	10.794	15.851
ProbeTrack14	5	ProbeTrack	14.0	SCS215b	20111122.131311	20111122.132507	8	0.013328	60	10	60-180	60	124	GapExp	Blank	0	116	2	6	1	target	1	332	834	113905	13.328	10.707	15.952
ProbeTrack14	5	ProbeTrack	14.0	SCS215b	20111122.131311	20111122.132513	8	0.013328	60	10	60-180	60	151	GapExp	Blank	0	117	2	2	0	distractor	1	467	767	114672	13.426	10.802	30.508
ProbeTrack14	5	ProbeTrack	14.0	SCS215b	20111122.131311	20111122.132519	8	0.013328	60	10	60-180	60	160	GapExp	Blank	0	118	2	1	0	distractor	1	525	738	115410	13.328	5.684	21.082
ProbeTrack14	5	ProbeTrack	14.0	SCS215b	20111122.131311	20111122.132525	8	0.013328	60	10	60-180	60	165	GapExp	Blank	0	119	2	0	1	target	1	366	817	116227	13.328	11.153	15.542
ProbeTrack14	5	ProbeTrack	14.0	SCS215b	20111122.131311	20111122.132532	8	0.013328	60	10	60-180	60	67	GapExp	Blank	0	120	2	0	1	target	1	317	842	117069	13.328	11.344	15.329
ProbeTrack14	5	ProbeTrack	14.0	SCS215b	20111122.131311	20111122.132538	8	0.013328	60	10	60-180	60	102	GapExp	Blank	0	121	2	6	0	distractor	1	358	821	117890	13.390	6.074	22.244
ProbeTrack14	5	ProbeTrack	14.0	SCS215b	20111122.131311	20111122.132543	8	0.013328	60	10	60-180	60	167	GapExp	Blank	0	122	2	6	1	target	1	407	797	118687	13.328	11.141	16.287
ProbeTrack14	5	ProbeTrack	14.0	SCS215b	20111122.131311	20111122.132550	8	0.013328	60	10	60-180	60	129	GapExp	Blank	0	123	2	2	0	distractor	1	747	627	119314	13.328	7.956	18.704
ProbeTrack14	5	ProbeTrack	14.0	SCS215b	20111122.131311	20111122.132556	8	0.013328	60	10	60-180	60	99	GapExp	Blank	0	124	2	0	1	target	1	331	835	120149	13.328	9.888	16.779
ProbeTrack14	5	ProbeTrack	14.0	SCS215b	20111122.131311	20111122.132601	8	0.013328	60	10	60-180	60	80	GapExp	Blank	0	125	2	2	1	target	1	309	846	120995	13.328	10.805	15.860
ProbeTrack14	5	ProbeTrack	14.0	SCS215b	20111122.131311	20111122.132607	8	0.013328	60	10	60-180	60	140	GapExp	Blank	0	126	2	1	1	target	1	336	832	121827	13.328	10.426	16.225
ProbeTrack14	5	ProbeTrack	14.0	SCS215b	20111122.131311	20111122.132612	8	0.013328	60	10	60-180	60	164	GapExp	Blank	0	127	2	6	0	distractor	1	392	804	122631	13.328	8.652	18.132
ProbeTrack14	5	ProbeTrack	14.0	SCS215b	20111122.131311	20111122.132619	8	0.013328	60	10	60-180	60	62	GapExp	Blank	0	128	2	1	0	distractor	1	478	761	123392	13.328	7.104	19.582
ProbeTrack14	5	ProbeTrack	14.0	SCS215b	20111122.131311	20111122.132624	8	0.013328	60	10	60-180	60	99	GapExp	Blank	0	129	2	45	0	distractor	1	511	745	124137	13.328	12.792	13.872
ProbeTrack14	5	ProbeTrack	14.0	SCS215b	20111122.131311	20111122.132630	8	0.013328	60	10	60-180	60	113	GapExp	Blank	0	130	2	6	0	distractor	1	430	785	124922	13.328	12.859	13.791
ProbeTrack14	5	ProbeTrack	14.0	SCS215b	20111122.131311	20111122.132636	8	0.013328	60	10	60-180	60	88	GapExp	Blank	0	131	2	45	0	distractor	1	399	801	125723	13.328	9.503	17.140
ProbeTrack14	5	ProbeTrack	14.0	SCS215b	20111122.131311	20111122.132642	8	0.013328	60	10	60-180	60	107	GapExp	Blank	0	132	2	0	1	target	1	632	684	126407	13.328	9.231	17.406
ProbeTrack14	5	ProbeTrack	14.0	SCS215b	20111122.131311	20111122.132648	8	0.013328	60	10	60-180	60	124	GapExp	Blank	0	133	2	0	1	target	1	471	765	127172	13.328	8.913	17.746
ProbeTrack14	5	ProbeTrack	14.0	SCS215b	20111122.131311	20111122.132653	8	0.013328	60	10	60-180	60	147	GapExp	Blank	0	134	2	1	1	target	1	385	808	127980	13.328	3.334	23.316
ProbeTrack14	5	ProbeTrack	14.0	SCS215b	20111122.131311	20111122.132700	8	0.013328	60	10	60-180	60	137	GapExp	Blank	0	135	2	45	0	distractor	1	406	797	128777	13.310	5.898	20.750
ProbeTrack14	5	ProbeTrack	14.0	SCS215b	20111122.131311	20111122.132706	8	0.013328	60	10	60-180	60	127	GapExp	Blank	0	136	2	6	0	distractor	1	413	794	129571	13.328	3.446	23.218
ProbeTrack14	5	ProbeTrack	14.0	SCS215b	20111122.131311	20111122.132713	8	0.013328	60	10	60-180	60	126	GapExp	Blank	0	137	2	2	1	target	1	338	831	130402	13.328	7.515	19.146
ProbeTrack14	5	ProbeTrack	14.0	SCS215b	20111122.131311	20111122.132719	8	0.013328	60	10	60-180	60	166	GapExp	Blank	0	138	2	2	0	distractor	1	383	809	131211	13.328	8.029	18.638
ProbeTrack14	5	ProbeTrack	14.0	SCS215b	20111122.131311	20111122.132725	8	0.013328	60	10	60-180	60	125	GapExp	Blank	0	139	2	45	0	distractor	1	396	802	132013	13.328	4.036	22.632
ProbeTrack14	5	ProbeTrack	14.0	SCS215b	20111122.131311	20111122.132732	8	0.013328	60	10	60-180	60	175	GapExp	Blank	0	140	2	45	1	target	1	378	811	132824	13.328	10.097	16.561
ProbeTrack14	5	ProbeTrack	14.0	SCS215b	20111122.131311	20111122.132739	8	0.013328	60	10	60-180	60	63	GapExp	Blank	0	141	2	45	0	distractor	1	433	784	133608	13.328	8.085	18.560
ProbeTrack14	5	ProbeTrack	14.0	SCS215b	20111122.131311	20111122.132745	8	0.013328	60	10	60-180	60	133	GapExp	Blank	0	142	2	1	1	target	1	421	790	134398	13.328	6.449	20.203
ProbeTrack14	5	ProbeTrack	14.0	SCS215b	20111122.131311	20111122.132751	8	0.013328	60	10	60-180	60	157	GapExp	Blank	0	143	2	0	0	distractor	1	516	742	135140	13.328	11.974	14.684
ProbeTrack14	5	ProbeTrack	14.0	SCS215b	20111122.131311	20111122.132757	8	0.013328	60	10	60-180	60	142	GapExp	Blank	0	144	2	6	1	target	1	328	836	135976	13.332	6.368	20.283
ProbeTrack14	5	ProbeTrack	14.0	SCS215b	20111122.131311	20111122.132803	8	0.013328	60	10	60-180	60	126	GapExp	Blank	0	145	2	45	1	target	1	399	801	136777	13.374	13.097	25.507
ProbeTrack14	5	ProbeTrack	14.0	SCS215b	20111122.131311	20111122.132809	8	0.013328	60	10	60-180	60	83	GapExp	Blank	0	146	2	45	0	distractor	1	482	759	137536	13.328	5.380	21.271
ProbeTrack14	5	ProbeTrack	14.0	SCS215b	20111122.131311	20111122.132815	8	0.013328	60	10	60-180	60	118	GapExp	Blank	0	147	2	2	0	target	0	588	-1000	136536	13.381	10.874	26.953
ProbeTrack14	5	ProbeTrack	14.0	SCS215b	20111122.131311	20111122.132821	8	0.013328	60	10	60-180	60	134	GapExp	Blank	0	148	2	2	1	target	1	403	799	137335	13.328	10.986	15.674
ProbeTrack14	5	ProbeTrack	14.0	SCS215b	20111122.131311	20111122.132827	8	0.013328	60	10	60-180	60	122	GapExp	Blank	0	149	2	45	0	distractor	1	406	797	138132	13.328	8.714	17.946
ProbeTrack14	5	ProbeTrack	14.0	SCS215b	20111122.131311	20111122.132833	8	0.013328	60	10	60-180	60	102	GapExp	Blank	0	150	2	45	1	target	1	352	824	138956	13.328	6.237	20.487
ProbeTrack14	5	ProbeTrack	14.0	SCS215b	20111122.131311	20111122.132839	8	0.013328	60	10	60-180	60	86	GapExp	Blank	0	151	2	6	1	target	1	388	806	139762	13.456	12.100	26.675
ProbeTrack14	5	ProbeTrack	14.0	SCS215b	20111122.131311	20111122.132845	8	0.013328	60	10	60-180	60	170	GapExp	Blank	0	152	2	2	1	target	1	385	808	140570	13.328	10.273	16.365
ProbeTrack14	5	ProbeTrack	14.0	SCS215b	20111122.131311	20111122.132852	8	0.013328	60	10	60-180	60	80	GapExp	Blank	0	153	2	45	1	target	1	345	828	141398	13.328	6.212	20.445
ProbeTrack14	5	ProbeTrack	14.0	SCS215b	20111122.131311	20111122.132857	8	0.013328	60	10	60-180	60	116	GapExp	Blank	0	154	2	6	0	distractor	1	374	813	142211	13.328	8.761	17.889
ProbeTrack14	5	ProbeTrack	14.0	SCS215b	20111122.131311	20111122.132903	8	0.013328	60	10	60-180	60	144	GapExp	Blank	0	155	2	1	1	target	1	325	838	143049	13.328	7.696	18.954
ProbeTrack14	5	ProbeTrack	14.0	SCS215b	20111122.131311	20111122.132909	8	0.013328	60	10	60-180	60	99	GapExp	Blank	0	156	2	2	1	target	1	356	822	143871	13.328	5.794	20.872
ProbeTrack14	5	ProbeTrack	14.0	SCS215b	20111122.131311	20111122.132914	8	0.013328	60	10	60-180	60	171	GapExp	Blank	0	157	2	45	0	distractor	1	376	812	144683	13.328	7.406	19.238
ProbeTrack14	5	ProbeTrack	14.0	SCS215b	20111122.131311	20111122.132922	8	0.013328	60	10	60-180	60	79	GapExp	Blank	0	158	2	1	1	target	1	365	818	145501	13.328	11.139	15.518
ProbeTrack14	5	ProbeTrack	14.0	SCS215b	20111122.131311	20111122.132927	8	0.013328	60	10	60-180	60	73	GapExp	Blank	0	159	2	45	1	target	1	300	850	146351	13.328	3.855	22.808
ProbeTrack14	5	ProbeTrack	14.0	SCS215b	20111122.131311	20111122.132933	8	0.013328	60	10	60-180	60	99	GapExp	Blank	0	160	2	0	1	target	1	449	776	147127	13.328	10.920	15.745
ProbeTrack14	5	ProbeTrack	14.0	SCS215b	20111122.131311	20111122.132938	8	0.013328	60	10	60-180	60	102	GapExp	Blank	0	161	2	45	1	target	1	313	844	147971	13.328	8.195	18.459
ProbeTrack14	5	ProbeTrack	14.0	SCS215b	20111122.131311	20111122.132944	8	0.013328	60	10	60-180	60	148	GapExp	Blank	0	162	2	6	0	distractor	1	431	785	148756	13.328	8.941	17.706
ProbeTrack14	5	ProbeTrack	14.0	SCS215b	20111122.131311	20111122.132950	8	0.013328	60	10	60-180	60	155	GapExp	Blank	0	163	2	2	1	target	1	750	625	149381	13.328	12.872	13.784
ProbeTrack14	5	ProbeTrack	14.0	SCS215b	20111122.131311	20111122.132957	8	0.013328	60	10	60-180	60	142	GapExp	Blank	0	164	2	45	1	distractor	0	347	-1000	148381	13.328	12.184	14.468
ProbeTrack14	5	ProbeTrack	14.0	SCS215b	20111122.131311	20111122.133004	8	0.013328	60	10	60-180	60	142	GapExp	Blank	0	165	2	1	1	target	1	304	848	149229	13.328	4.401	22.265
ProbeTrack14	5	ProbeTrack	14.0	SCS215b	20111122.131311	20111122.133010	8	0.013328	60	10	60-180	60	153	GapExp	Blank	0	166	2	45	1	target	1	377	812	150041	13.328	9.541	17.099
ProbeTrack14	5	ProbeTrack	14.0	SCS215b	20111122.131311	20111122.133017	8	0.013328	60	10	60-180	60	178	GapExp	Blank	0	167	2	0	0	distractor	1	541	730	150771	13.328	6.490	20.161
ProbeTrack14	5	ProbeTrack	14.0	SCS215b	20111122.131311	20111122.133023	8	0.013328	60	10	60-180	60	79	GapExp	Blank	0	168	2	1	0	distractor	1	594	703	151474	13.328	10.344	16.306
ProbeTrack14	5	ProbeTrack	14.0	SCS215b	20111122.131311	20111122.133029	8	0.013328	60	10	60-180	60	161	GapExp	Blank	0	169	2	2	0	target	0	361	-1000	150474	13.328	10.513	16.144
ProbeTrack14	5	ProbeTrack	14.0	SCS215b	20111122.131311	20111122.133035	8	0.013328	60	10	60-180	60	157	GapExp	Blank	0	170	2	0	1	target	1	388	806	151280	13.328	9.525	17.124
ProbeTrack14	5	ProbeTrack	14.0	SCS215b	20111122.131311	20111122.133041	8	0.013328	60	10	60-180	60	105	GapExp	Blank	0	171	2	1	1	target	1	341	830	152110	13.328	12.984	13.676
ProbeTrack14	5	ProbeTrack	14.0	SCS215b	20111122.131311	20111122.133047	8	0.013328	60	10	60-180	60	66	GapExp	Blank	0	172	2	45	0	distractor	1	346	827	152937	13.328	5.342	21.306
ProbeTrack14	5	ProbeTrack	14.0	SCS215b	20111122.131311	20111122.133052	8	0.013328	60	10	60-180	60	99	GapExp	Blank	0	173	2	6	0	distractor	1	500	750	153687	13.328	10.469	16.183
ProbeTrack14	5	ProbeTrack	14.0	SCS215b	20111122.131311	20111122.133058	8	0.013328	60	10	60-180	60	158	GapExp	Blank	0	174	2	6	0	distractor	1	424	788	154475	13.328	6.802	19.835
ProbeTrack14	5	ProbeTrack	14.0	SCS215b	20111122.131311	20111122.133104	8	0.013328	60	10	60-180	60	66	GapExp	Blank	0	175	2	6	0	distractor	1	446	777	155252	13.328	5.955	20.692
ProbeTrack14	5	ProbeTrack	14.0	SCS215b	20111122.131311	20111122.133109	8	0.013328	60	10	60-180	60	139	GapExp	Blank	0	176	2	6	0	distractor	1	384	808	156060	13.328	9.369	17.296
ProbeTrack14	5	ProbeTrack	14.0	SCS215b	20111122.131311	20111122.133115	8	0.013328	60	10	60-180	60	134	GapExp	Blank	0	177	2	2	0	distractor	1	446	777	156837	13.328	9.450	17.210
ProbeTrack14	5	ProbeTrack	14.0	SCS215b	20111122.131311	20111122.133121	8	0.013328	60	10	60-180	60	149	GapExp	Blank	0	178	2	1	1	target	1	344	828	157665	13.328	7.745	18.909
ProbeTrack14	5	ProbeTrack	14.0	SCS215b	20111122.131311	20111122.133128	8	0.013328	60	10	60-180	60	153	GapExp	Blank	0	179	2	0	1	distractor	0	379	-1000	156665	13.328	9.470	17.190
ProbeTrack14	5	ProbeTrack	14.0	SCS215b	20111122.131311	20111122.133134	8	0.013328	60	10	60-180	60	113	GapExp	Blank	0	180	2	0	1	target	1	382	809	157474	13.328	6.013	20.653
ProbeTrack14	5	ProbeTrack	14.0	SCS215b	20111122.131311	20111122.133140	8	0.013328	60	10	60-180	60	125	GapExp	Blank	0	181	2	45	1	target	1	305	848	158322	13.328	9.296	17.351
ProbeTrack14	5	ProbeTrack	14.0	SCS215b	20111122.131311	20111122.133146	8	0.013328	60	10	60-180	60	86	GapExp	Blank	0	182	2	1	0	distractor	1	359	821	159143	13.328	10.217	16.438
ProbeTrack14	5	ProbeTrack	14.0	SCS215b	20111122.131311	20111122.133151	8	0.013328	60	10	60-180	60	94	GapExp	Blank	0	183	2	45	0	distractor	1	383	809	159952	13.328	7.594	19.054
ProbeTrack14	5	ProbeTrack	14.0	SCS215b	20111122.131311	20111122.133157	8	0.013328	60	10	60-180	60	65	GapExp	Blank	0	184	2	0	1	target	1	321	840	160792	13.328	7.377	19.265
ProbeTrack14	5	ProbeTrack	14.0	SCS215b	20111122.131311	20111122.133203	8	0.013328	60	10	60-180	60	153	GapExp	Blank	0	185	2	6	1	target	1	279	861	161653	13.328	6.334	20.309
ProbeTrack14	5	ProbeTrack	14.0	SCS215b	20111122.131311	20111122.133210	8	0.013328	60	10	60-180	60	61	GapExp	Blank	0	186	2	6	1	target	1	314	843	162496	13.328	6.427	20.237
ProbeTrack14	5	ProbeTrack	14.0	SCS215b	20111122.131311	20111122.133215	8	0.013328	60	10	60-180	60	145	GapExp	Blank	0	187	2	2	0	distractor	1	377	812	163308	13.328	6.690	19.964
ProbeTrack14	5	ProbeTrack	14.0	SCS215b	20111122.131311	20111122.133221	8	0.013328	60	10	60-180	60	128	GapExp	Blank	0	188	2	0	0	distractor	1	481	760	164068	13.328	6.359	20.285
ProbeTrack14	5	ProbeTrack	14.0	SCS215b	20111122.131311	20111122.133226	8	0.013328	60	10	60-180	60	145	GapExp	Blank	0	189	2	45	1	target	1	314	843	164911	13.328	9.600	17.063
ProbeTrack14	5	ProbeTrack	14.0	SCS215b	20111122.131311	20111122.133233	8	0.013328	60	10	60-180	60	143	GapExp	Blank	0	190	2	45	1	distractor	0	327	-1000	163911	13.328	5.267	21.397
ProbeTrack14	5	ProbeTrack	14.0	SCS215b	20111122.131311	20111122.133239	8	0.013328	60	10	60-180	60	130	GapExp	Blank	0	191	2	2	0	target	0	423	-1000	162911	13.328	6.825	19.837
ProbeTrack14	5	ProbeTrack	14.0	SCS215b	20111122.131311	20111122.133246	8	0.013328	60	10	60-180	60	172	GapExp	Blank	0	192	2	6	1	target	1	360	820	163731	13.328	5.735	20.905
ProbeTrack14	5	ProbeTrack	14.0	SCS215b	20111122.131311	20111122.133252	8	0.013328	60	10	60-180	60	69	GapExp	Blank	0	193	2	2	0	distractor	1	490	755	164486	13.328	6.826	19.822
ProbeTrack14	5	ProbeTrack	14.0	SCS215b	20111122.131311	20111122.133257	8	0.013328	60	10	60-180	60	147	GapExp	Blank	0	194	2	2	0	distractor	1	413	794	165280	13.328	5.552	21.105
ProbeTrack14	5	ProbeTrack	14.0	SCS215b	20111122.131311	20111122.133303	8	0.013328	60	10	60-180	60	152	GapExp	Blank	0	195	2	1	1	target	1	369	816	166096	13.328	6.188	20.480
ProbeTrack14	5	ProbeTrack	14.0	SCS215b	20111122.131311	20111122.133309	8	0.013328	60	10	60-180	60	171	GapExp	Blank	0	196	2	2	0	distractor	1	398	801	166897	13.328	7.646	19.017
ProbeTrack14	5	ProbeTrack	14.0	SCS215b	20111122.131311	20111122.133315	8	0.013328	60	10	60-180	60	79	GapExp	Blank	0	197	2	6	0	distractor	1	695	653	167550	13.328	8.147	18.522
ProbeTrack14	5	ProbeTrack	14.0	SCS215b	20111122.131311	20111122.133321	8	0.013328	60	10	60-180	60	179	GapExp	Blank	0	198	2	0	0	distractor	1	668	666	168216	13.328	8.224	18.422
ProbeTrack14	5	ProbeTrack	14.0	SCS215b	20111122.131311	20111122.133337	8	0.013328	60	10	60-180	60	65	GapExp	Blank	0	199	2	45	1	target	1	342	829	169045	13.328	5.875	20.780
ProbeTrack14	5	ProbeTrack	14.0	SCS215b	20111122.131311	20111122.133342	8	0.013328	60	10	60-180	60	118	GapExp	Blank	0	200	2	0	0	distractor	1	526	737	169782	13.328	6.786	19.882
ProbeTrack14	5	ProbeTrack	14.0	SCS215b	20111122.131311	20111122.133348	8	0.013328	60	10	60-180	60	160	GapExp	Blank	0	201	2	0	0	distractor	1	577	712	170494	13.328	10.440	16.216
ProbeTrack14	5	ProbeTrack	14.0	SCS215b	20111122.131311	20111122.133355	8	0.013328	60	10	60-180	60	73	GapExp	Blank	0	202	2	0	0	distractor	1	563	719	171213	13.328	7.975	18.670
ProbeTrack14	5	ProbeTrack	14.0	SCS215b	20111122.131311	20111122.133400	8	0.013328	60	10	60-180	60	158	GapExp	Blank	0	203	2	6	1	target	1	358	821	172034	13.328	6.024	20.617
ProbeTrack14	5	ProbeTrack	14.0	SCS215b	20111122.131311	20111122.133406	8	0.013328	60	10	60-180	60	152	GapExp	Blank	0	204	2	2	1	target	1	457	772	172806	13.347	6.630	20.031
ProbeTrack14	5	ProbeTrack	14.0	SCS215b	20111122.131311	20111122.133412	8	0.013328	60	10	60-180	60	161	GapExp	Blank	0	205	2	6	1	target	1	452	774	173580	13.328	6.045	20.620
ProbeTrack14	5	ProbeTrack	14.0	SCS215b	20111122.131311	20111122.133419	8	0.013328	60	10	60-180	60	170	GapExp	Blank	0	206	2	0	1	target	1	397	802	174382	13.328	12.228	14.433
ProbeTrack14	5	ProbeTrack	14.0	SCS215b	20111122.131311	20111122.133425	8	0.013328	60	10	60-180	60	150	GapExp	Blank	0	207	2	1	0	distractor	1	650	675	175057	13.328	6.164	20.506
ProbeTrack14	5	ProbeTrack	14.0	SCS215b	20111122.131311	20111122.133432	8	0.013328	60	10	60-180	60	84	GapExp	Blank	0	208	2	45	0	distractor	1	405	798	175855	13.328	11.888	14.769
ProbeTrack14	5	ProbeTrack	14.0	SCS215b	20111122.131311	20111122.133437	8	0.013328	60	10	60-180	60	69	GapExp	Blank	0	209	2	2	0	distractor	1	483	759	176614	13.328	11.555	15.096
ProbeTrack14	5	ProbeTrack	14.0	SCS215b	20111122.131311	20111122.133442	8	0.013328	60	10	60-180	60	154	GapExp	Blank	0	210	2	0	0	distractor	1	426	787	177401	13.328	9.540	17.111
ProbeTrack14	5	ProbeTrack	14.0	SCS215b	20111122.131311	20111122.133449	8	0.013328	60	10	60-180	60	117	GapExp	Blank	0	211	2	45	0	target	0	407	-1000	176401	13.328	9.255	17.403
ProbeTrack14	5	ProbeTrack	14.0	SCS215b	20111122.131311	20111122.133455	8	0.013328	60	10	60-180	60	83	GapExp	Blank	0	212	2	6	0	distractor	1	458	771	177172	13.328	10.520	16.150
ProbeTrack14	5	ProbeTrack	14.0	SCS215b	20111122.131311	20111122.133500	8	0.013328	60	10	60-180	60	129	GapExp	Blank	0	213	2	0	1	target	1	404	798	177970	13.328	8.623	18.031
ProbeTrack14	5	ProbeTrack	14.0	SCS215b	20111122.131311	20111122.133506	8	0.013328	60	10	60-180	60	144	GapExp	Blank	0	214	2	2	1	target	1	389	806	178776	13.328	10.250	16.412
ProbeTrack14	5	ProbeTrack	14.0	SCS215b	20111122.131311	20111122.133533	8	0.013328	60	10	60-180	60	168	GapExp	Blank	0	215	2	1	1	target	1	321	840	179616	13.328	10.607	16.037
ProbeTrack14	5	ProbeTrack	14.0	SCS215b	20111122.131311	20111122.133540	8	0.013328	60	10	60-180	60	129	GapExp	Blank	0	216	2	2	0	distractor	1	468	766	180382	13.328	4.787	21.862
ProbeTrack14	5	ProbeTrack	14.0	SCS215b	20111122.131311	20111122.133546	8	0.013328	60	10	60-180	60	113	GapExp	Blank	0	217	2	1	1	target	1	378	811	181193	13.328	8.679	17.980
ProbeTrack14	5	ProbeTrack	14.0	SCS215b	20111122.131311	20111122.133552	8	0.013328	60	10	60-180	60	147	GapExp	Blank	0	218	2	2	1	target	1	341	830	182023	13.328	10.394	16.252
ProbeTrack14	5	ProbeTrack	14.0	SCS215b	20111122.131311	20111122.133557	8	0.013328	60	10	60-180	60	69	GapExp	Blank	0	219	2	0	1	target	1	367	817	182840	13.328	12.176	14.480
ProbeTrack14	5	ProbeTrack	14.0	SCS215b	20111122.131311	20111122.133602	8	0.013328	60	10	60-180	60	87	GapExp	Blank	0	220	2	6	0	distractor	1	418	791	183631	13.328	9.913	16.743
ProbeTrack14	5	ProbeTrack	14.0	SCS215b	20111122.131311	20111122.133608	8	0.013328	60	10	60-180	60	105	GapExp	Blank	0	221	2	1	0	target	0	338	-1000	182631	13.328	3.836	22.816
ProbeTrack14	5	ProbeTrack	14.0	SCS215b	20111122.131311	20111122.133614	8	0.013328	60	10	60-180	60	126	GapExp	Blank	0	222	2	6	1	target	1	345	828	183459	13.328	7.794	18.867
ProbeTrack14	5	ProbeTrack	14.0	SCS215b	20111122.131311	20111122.133619	8	0.013328	60	10	60-180	60	76	GapExp	Blank	0	223	2	6	0	distractor	1	456	772	184231	13.328	8.719	18.022
ProbeTrack14	5	ProbeTrack	14.0	SCS215b	20111122.131311	20111122.133624	8	0.013328	60	10	60-180	60	120	GapExp	Blank	0	224	2	0	1	target	1	585	708	184939	13.328	5.131	21.528
ProbeTrack14	5	ProbeTrack	14.0	SCS215b	20111122.131311	20111122.133630	8	0.013328	60	10	60-180	60	148	GapExp	Blank	0	225	2	6	1	target	1	304	848	185787	13.328	3.893	22.763
ProbeTrack14	5	ProbeTrack	14.0	SCS215b	20111122.131311	20111122.133636	8	0.013328	60	10	60-180	60	160	GapExp	Blank	0	226	2	0	1	target	1	397	802	186589	13.376	7.358	25.186
ProbeTrack14	5	ProbeTrack	14.0	SCS215b	20111122.131311	20111122.133643	8	0.013328	60	10	60-180	60	133	GapExp	Blank	0	227	2	2	1	target	1	304	848	187437	13.328	5.470	21.192
ProbeTrack14	5	ProbeTrack	14.0	SCS215b	20111122.131311	20111122.133649	8	0.013328	60	10	60-180	60	133	GapExp	Blank	0	228	2	1	1	target	1	365	818	188255	13.328	8.714	17.941
ProbeTrack14	5	ProbeTrack	14.0	SCS215b	20111122.131311	20111122.133654	8	0.013328	60	10	60-180	60	136	GapExp	Blank	0	229	2	45	0	distractor	1	438	781	189036	13.328	6.340	20.328
ProbeTrack14	5	ProbeTrack	14.0	SCS215b	20111122.131311	20111122.133701	8	0.013328	60	10	60-180	60	108	GapExp	Blank	0	230	2	2	0	distractor	1	370	815	189851	13.328	10.900	15.745
ProbeTrack14	5	ProbeTrack	14.0	SCS215b	20111122.131311	20111122.133706	8	0.013328	60	10	60-180	60	177	GapExp	Blank	0	231	2	0	1	target	1	364	818	190669	13.328	10.579	16.214
ProbeTrack14	5	ProbeTrack	14.0	SCS215b	20111122.131311	20111122.133713	8	0.013328	60	10	60-180	60	138	GapExp	Blank	0	232	2	2	1	target	1	321	840	191509	13.328	3.884	22.766
ProbeTrack14	5	ProbeTrack	14.0	SCS215b	20111122.131311	20111122.133719	8	0.013328	60	10	60-180	60	135	GapExp	Blank	0	233	2	1	0	distractor	1	435	783	192292	13.328	6.511	20.128
ProbeTrack14	5	ProbeTrack	14.0	SCS215b	20111122.131311	20111122.133725	8	0.013328	60	10	60-180	60	176	GapExp	Blank	0	234	2	1	0	distractor	1	405	798	193090	13.328	4.447	22.197
ProbeTrack14	5	ProbeTrack	14.0	SCS215b	20111122.131311	20111122.133731	8	0.013328	60	10	60-180	60	78	GapExp	Blank	0	235	2	6	0	distractor	1	434	783	193873	13.328	7.016	19.651
ProbeTrack14	5	ProbeTrack	14.0	SCS215b	20111122.131311	20111122.133736	8	0.013328	60	10	60-180	60	141	GapExp	Blank	0	236	2	45	0	distractor	1	403	799	194672	13.328	7.180	19.481
ProbeTrack14	5	ProbeTrack	14.0	SCS215b	20111122.131311	20111122.133743	8	0.013328	60	10	60-180	60	68	GapExp	Blank	0	237	2	45	1	target	1	357	822	195494	13.328	5.403	21.260
ProbeTrack14	5	ProbeTrack	14.0	SCS215b	20111122.131311	20111122.133749	8	0.013328	60	10	60-180	60	103	GapExp	Blank	0	238	2	1	0	distractor	1	391	805	196299	13.328	10.534	16.129
ProbeTrack14	5	ProbeTrack	14.0	SCS215b	20111122.131311	20111122.133754	8	0.013328	60	10	60-180	60	128	GapExp	Blank	0	239	2	1	1	target	1	307	847	197146	13.328	5.597	21.052
ProbeTrack14	5	ProbeTrack	14.0	SCS215b	20111122.131311	20111122.133800	8	0.013328	60	10	60-180	60	112	GapExp	Blank	0	240	2	2	1	target	1	418	791	197937	13.328	12.456	14.196
ProbeTrack14	5	ProbeTrack	14.0	SCS215b	20111122.131311	20111122.133806	8	0.013328	60	10	60-180	60	61	GapExp	Blank	0	241	2	2	0	distractor	1	462	769	198706	13.328	8.039	18.610
ProbeTrack14	5	ProbeTrack	14.0	SCS215b	20111122.131311	20111122.133811	8	0.013328	60	10	60-180	60	92	GapExp	Blank	0	242	2	1	0	distractor	1	498	751	199457	13.328	4.373	22.295
ProbeTrack14	5	ProbeTrack	14.0	SCS215b	20111122.131311	20111122.133816	8	0.013328	60	10	60-180	60	137	GapExp	Blank	0	243	2	6	1	target	1	319	841	200298	13.328	9.374	17.277
ProbeTrack14	5	ProbeTrack	14.0	SCS215b	20111122.131311	20111122.133823	8	0.013328	60	10	60-180	60	75	GapExp	Blank	0	244	2	1	0	distractor	1	401	800	201098	13.328	8.266	18.390
ProbeTrack14	5	ProbeTrack	14.0	SCS215b	20111122.131311	20111122.133828	8	0.013328	60	10	60-180	60	113	GapExp	Blank	0	245	2	1	1	target	1	365	818	201916	13.328	5.042	21.604
ProbeTrack14	5	ProbeTrack	14.0	SCS215b	20111122.131311	20111122.133833	8	0.013328	60	10	60-180	60	80	GapExp	Blank	0	246	2	45	1	target	1	368	816	202732	13.328	8.170	18.491
ProbeTrack14	5	ProbeTrack	14.0	SCS215b	20111122.131311	20111122.133839	8	0.013328	60	10	60-180	60	168	GapExp	Blank	0	247	2	0	0	distractor	1	429	786	203518	13.328	7.624	19.033
ProbeTrack14	5	ProbeTrack	14.0	SCS215b	20111122.131311	20111122.133845	8	0.013328	60	10	60-180	60	152	GapExp	Blank	0	248	2	0	0	distractor	1	441	780	204298	13.328	9.899	16.754
ProbeTrack14	5	ProbeTrack	14.0	SCS215b	20111122.131311	20111122.133851	8	0.013328	60	10	60-180	60	105	GapExp	Blank	0	249	2	45	1	target	1	484	758	205056	13.328	6.870	19.785
ProbeTrack14	5	ProbeTrack	14.0	SCS215b	20111122.131311	20111122.133858	8	0.013328	60	10	60-180	60	89	GapExp	Blank	0	250	2	0	1	target	1	397	802	205858	14.043	7.513	77.135
