exp	sub	code	rev	comp	runtime	trialtime	nstim	refreshdur	cuedur	gapdur	gapOnsetRange	durPostProbe	gapOnsetTime	blocktype	gaptype	prac	trial	ntargets	soa	probeTarget	resp	acc	rt	pts	tpts	meanFrameDur	minFrameDur	maxFrameDur
ProbeTrack14	6	ProbeTrack	14.0	SCS215a	20111122.132006	20111122.132010	8	0.013319	60	0	60-180	60	119	NoGap	None	1	1	2	1	1	target	1	9449	0	0	13.432	7.518	26.564
ProbeTrack14	6	ProbeTrack	14.0	SCS215a	20111122.132006	20111122.132150	8	0.013319	60	0	60-180	60	175	NoGap	None	1	2	2	1	0	distractor	1	1335	333	333	13.328	13.307	13.346
ProbeTrack14	6	ProbeTrack	14.0	SCS215a	20111122.132006	20111122.132228	8	0.013319	60	0	60-180	60	108	NoGap	None	1	3	2	0	0	distractor	1	818	591	924	13.328	13.308	13.347
ProbeTrack14	6	ProbeTrack	14.0	SCS215a	20111122.132006	20111122.132236	8	0.013319	60	0	60-180	60	161	NoGap	None	1	4	2	0	0	target	0	842	-1000	-76	13.328	13.308	13.346
ProbeTrack14	6	ProbeTrack	14.0	SCS215a	20111122.132006	20111122.132243	8	0.013319	60	0	60-180	60	152	NoGap	None	1	5	2	2	1	target	1	768	616	540	13.328	13.307	13.344
ProbeTrack14	6	ProbeTrack	14.0	SCS215a	20111122.132006	20111122.132250	8	0.013319	60	0	60-180	60	180	NoGap	None	1	6	2	0	1	target	1	504	748	1288	13.373	8.220	20.269
ProbeTrack14	6	ProbeTrack	14.0	SCS215a	20111122.132006	20111122.132257	8	0.013319	60	0	60-180	60	99	NoGap	None	1	7	2	6	1	target	1	448	776	2064	13.390	12.942	26.589
ProbeTrack14	6	ProbeTrack	14.0	SCS215a	20111122.132006	20111122.132304	8	0.013319	60	0	60-180	60	157	NoGap	None	1	8	2	6	1	early	-4	-1878	-1000	1064	13.328	13.276	13.376
ProbeTrack14	6	ProbeTrack	14.0	SCS215a	20111122.132006	20111122.132310	8	0.013319	60	0	60-180	60	118	NoGap	None	1	9	2	45	0	distractor	1	546	727	1791	13.375	13.044	24.782
ProbeTrack14	6	ProbeTrack	14.0	SCS215a	20111122.132006	20111122.132318	8	0.013319	60	0	60-180	60	173	NoGap	None	1	10	2	45	1	target	1	617	692	2483	13.328	13.107	13.541
ProbeTrack14	6	ProbeTrack	14.0	SCS215a	20111122.132006	20111122.132326	8	0.013319	60	0	60-180	60	125	NoGap	None	1	11	2	1	0	distractor	1	640	680	3163	13.328	4.668	21.975
ProbeTrack14	6	ProbeTrack	14.0	SCS215a	20111122.132006	20111122.132332	8	0.013319	60	0	60-180	60	131	NoGap	None	1	12	2	45	1	target	1	574	713	3876	13.373	13.219	26.746
ProbeTrack14	6	ProbeTrack	14.0	SCS215a	20111122.132006	20111122.132340	8	0.013319	60	0	60-180	60	167	NoGap	None	1	13	2	45	0	distractor	1	512	744	4620	13.409	6.793	26.501
ProbeTrack14	6	ProbeTrack	14.0	SCS215a	20111122.132006	20111122.132347	8	0.013319	60	0	60-180	60	175	NoGap	None	1	14	2	6	0	distractor	1	618	691	5311	13.328	8.754	17.892
ProbeTrack14	6	ProbeTrack	14.0	SCS215a	20111122.132006	20111122.132354	8	0.013319	60	0	60-180	60	77	NoGap	None	1	15	2	0	1	target	1	645	678	5989	13.328	10.543	16.120
ProbeTrack14	6	ProbeTrack	14.0	SCS215a	20111122.132006	20111122.132400	8	0.013319	60	0	60-180	60	176	NoGap	None	1	16	2	2	0	distractor	1	576	712	6701	13.328	13.303	13.348
ProbeTrack14	6	ProbeTrack	14.0	SCS215a	20111122.132006	20111122.132407	8	0.013319	60	0	60-180	60	138	NoGap	None	1	17	2	0	1	target	1	493	754	7455	13.328	13.309	13.345
ProbeTrack14	6	ProbeTrack	14.0	SCS215a	20111122.132006	20111122.132413	8	0.013319	60	0	60-180	60	177	NoGap	None	1	18	2	0	0	distractor	1	494	753	8208	13.328	12.691	13.958
ProbeTrack14	6	ProbeTrack	14.0	SCS215a	20111122.132006	20111122.132420	8	0.013319	60	0	60-180	60	68	NoGap	None	1	19	2	1	1	target	1	638	681	8889	13.328	12.960	13.682
ProbeTrack14	6	ProbeTrack	14.0	SCS215a	20111122.132006	20111122.132426	8	0.013319	60	0	60-180	60	132	NoGap	None	1	20	2	2	0	distractor	1	520	740	9629	13.328	4.465	22.177
ProbeTrack14	6	ProbeTrack	14.0	SCS215a	20111122.132006	20111122.132432	8	0.013319	60	0	60-180	60	160	NoGap	None	1	21	2	1	0	distractor	1	479	761	10390	13.328	13.100	13.564
ProbeTrack14	6	ProbeTrack	14.0	SCS215a	20111122.132006	20111122.132438	8	0.013319	60	0	60-180	60	136	NoGap	None	1	22	2	6	0	distractor	1	560	720	11110	13.328	9.061	17.608
ProbeTrack14	6	ProbeTrack	14.0	SCS215a	20111122.132006	20111122.132445	8	0.013319	60	0	60-180	60	88	NoGap	None	1	23	2	1	0	distractor	1	457	772	11882	13.328	11.647	15.019
ProbeTrack14	6	ProbeTrack	14.0	SCS215a	20111122.132006	20111122.132451	8	0.013319	60	0	60-180	60	175	NoGap	None	1	24	2	0	0	distractor	1	459	771	12653	13.328	12.533	14.127
ProbeTrack14	6	ProbeTrack	14.0	SCS215a	20111122.132006	20111122.132457	8	0.013319	60	0	60-180	60	165	NoGap	None	1	25	2	6	0	distractor	1	395	803	13456	13.376	12.323	22.188
ProbeTrack14	6	ProbeTrack	14.0	SCS215a	20111122.132006	20111122.132504	8	0.013319	60	0	60-180	60	129	NoGap	None	1	26	2	2	0	distractor	1	509	746	14202	13.328	11.012	15.638
ProbeTrack14	6	ProbeTrack	14.0	SCS215a	20111122.132006	20111122.132510	8	0.013319	60	0	60-180	60	112	NoGap	None	1	27	2	1	1	distractor	0	364	-1000	13202	13.328	12.539	14.128
ProbeTrack14	6	ProbeTrack	14.0	SCS215a	20111122.132006	20111122.132516	8	0.013319	60	0	60-180	60	73	NoGap	None	1	28	2	6	1	distractor	0	376	-1000	12202	13.328	13.310	13.349
ProbeTrack14	6	ProbeTrack	14.0	SCS215a	20111122.132006	20111122.132521	8	0.013319	60	0	60-180	60	143	NoGap	None	1	29	2	2	0	distractor	1	879	561	12763	13.423	13.303	38.337
ProbeTrack14	6	ProbeTrack	14.0	SCS215a	20111122.132006	20111122.132528	8	0.013319	60	0	60-180	60	150	NoGap	None	1	30	2	6	0	distractor	1	578	711	13474	13.328	13.099	13.544
ProbeTrack14	6	ProbeTrack	14.0	SCS215a	20111122.132006	20111122.132535	8	0.013319	60	0	60-180	60	62	NoGap	None	1	31	2	6	1	target	1	594	703	14177	13.328	13.106	13.557
ProbeTrack14	6	ProbeTrack	14.0	SCS215a	20111122.132006	20111122.132541	8	0.013319	60	0	60-180	60	76	NoGap	None	1	32	2	2	1	target	1	823	589	14766	13.328	9.728	16.914
ProbeTrack14	6	ProbeTrack	14.0	SCS215a	20111122.132006	20111122.132547	8	0.013319	60	0	60-180	60	127	NoGap	None	1	33	2	1	1	target	1	608	696	15462	13.328	12.782	14.004
ProbeTrack14	6	ProbeTrack	14.0	SCS215a	20111122.132006	20111122.132553	8	0.013319	60	0	60-180	60	65	NoGap	None	1	34	2	0	1	target	1	515	743	16205	13.328	13.312	13.344
ProbeTrack14	6	ProbeTrack	14.0	SCS215a	20111122.132006	20111122.132559	8	0.013319	60	0	60-180	60	106	NoGap	None	1	35	2	45	0	distractor	1	889	556	16761	13.328	10.504	16.151
ProbeTrack14	6	ProbeTrack	14.0	SCS215a	20111122.132006	20111122.132606	8	0.013319	60	0	60-180	60	127	NoGap	None	1	36	2	2	1	target	1	502	749	17510	13.328	13.307	13.347
ProbeTrack14	6	ProbeTrack	14.0	SCS215a	20111122.132006	20111122.132612	8	0.013319	60	0	60-180	60	124	NoGap	None	1	37	2	2	1	target	1	436	782	18292	13.328	13.309	13.348
ProbeTrack14	6	ProbeTrack	14.0	SCS215a	20111122.132006	20111122.132619	8	0.013319	60	0	60-180	60	126	NoGap	None	1	38	2	45	1	target	1	539	731	19023	13.328	12.971	13.676
ProbeTrack14	6	ProbeTrack	14.0	SCS215a	20111122.132006	20111122.132626	8	0.013319	60	0	60-180	60	91	NoGap	None	1	39	2	45	0	distractor	1	668	666	19689	13.430	13.310	39.488
ProbeTrack14	6	ProbeTrack	14.0	SCS215a	20111122.132006	20111122.132633	8	0.013319	60	0	60-180	60	75	NoGap	None	1	40	2	45	1	target	1	498	751	20440	13.328	13.308	13.345
ProbeTrack14	6	ProbeTrack	14.0	SCS215a	20111122.132733	20111122.132739	8	0.013327	60	10	60-180	60	105	GapPrac	Blank	1	1	2	6	0	distractor	1	635	683	21123	13.382	13.115	13.586
ProbeTrack14	6	ProbeTrack	14.0	SCS215a	20111122.132733	20111122.132748	8	0.013327	60	10	60-180	60	113	GapPrac	Blank	1	2	2	6	0	target	0	693	-1000	20123	13.328	9.886	16.928
ProbeTrack14	6	ProbeTrack	14.0	SCS215a	20111122.132733	20111122.132755	8	0.013327	60	10	60-180	60	92	GapPrac	Blank	1	3	2	2	1	distractor	0	636	-1000	19123	13.446	13.084	31.905
ProbeTrack14	6	ProbeTrack	14.0	SCS215a	20111122.132733	20111122.132801	8	0.013327	60	10	60-180	60	80	GapPrac	Blank	1	4	2	1	1	target	1	475	763	19886	13.328	13.313	13.345
ProbeTrack14	6	ProbeTrack	14.0	SCS215a	20111122.132733	20111122.132806	8	0.013327	60	10	60-180	60	81	GapPrac	Blank	1	5	2	45	0	distractor	1	502	749	20635	13.381	6.229	25.807
ProbeTrack14	6	ProbeTrack	14.0	SCS215a	20111122.132733	20111122.132813	8	0.013327	60	10	60-180	60	115	GapPrac	Blank	1	6	2	45	0	distractor	1	405	798	21433	13.376	13.013	22.881
ProbeTrack14	6	ProbeTrack	14.0	SCS215a	20111122.132733	20111122.132820	8	0.013327	60	10	60-180	60	120	GapPrac	Blank	1	7	2	0	0	distractor	1	850	575	22008	13.328	12.966	13.681
ProbeTrack14	6	ProbeTrack	14.0	SCS215a	20111122.132733	20111122.132826	8	0.013327	60	10	60-180	60	71	GapPrac	Blank	1	8	2	2	0	distractor	1	629	686	22694	13.328	8.213	18.435
ProbeTrack14	6	ProbeTrack	14.0	SCS215a	20111122.132733	20111122.132832	8	0.013327	60	10	60-180	60	175	GapPrac	Blank	1	9	2	6	1	target	1	710	645	23339	13.328	12.619	14.037
ProbeTrack14	6	ProbeTrack	14.0	SCS215a	20111122.132733	20111122.132839	8	0.013327	60	10	60-180	60	110	GapPrac	Blank	1	10	2	1	1	target	1	524	738	24077	13.328	8.032	18.631
ProbeTrack14	6	ProbeTrack	14.0	SCS215a	20111122.132733	20111122.132845	8	0.013327	60	10	60-180	60	66	GapPrac	Blank	1	11	2	1	0	target	0	585	-1000	23077	13.328	13.310	13.348
ProbeTrack14	6	ProbeTrack	14.0	SCS215a	20111122.132733	20111122.132852	8	0.013327	60	10	60-180	60	138	GapPrac	Blank	1	12	2	0	1	target	1	417	792	23869	13.328	13.276	13.373
ProbeTrack14	6	ProbeTrack	14.0	SCS215a	20111122.132733	20111122.132858	8	0.013327	60	10	60-180	60	165	GapPrac	Blank	1	13	2	2	1	target	1	521	740	24609	13.327	13.100	13.348
ProbeTrack14	6	ProbeTrack	14.0	SCS215a	20111122.132733	20111122.132905	8	0.013327	60	10	60-180	60	135	GapPrac	Blank	1	14	2	45	1	target	1	426	787	25396	13.328	13.099	13.550
ProbeTrack14	6	ProbeTrack	14.0	SCS215a	20111122.132733	20111122.132912	8	0.013327	60	10	60-180	60	173	GapPrac	Blank	1	15	2	45	1	target	1	685	658	26054	13.328	11.075	15.566
ProbeTrack14	6	ProbeTrack	14.0	SCS215a	20111122.132733	20111122.132920	8	0.013327	60	10	60-180	60	62	GapPrac	Blank	1	16	2	6	1	target	1	452	774	26828	13.328	13.309	13.348
ProbeTrack14	6	ProbeTrack	14.0	SCS215a	20111122.132733	20111122.132926	8	0.013327	60	10	60-180	60	177	GapPrac	Blank	1	17	2	1	0	distractor	1	705	648	27476	13.328	13.091	13.559
ProbeTrack14	6	ProbeTrack	14.0	SCS215a	20111122.132733	20111122.132933	8	0.013327	60	10	60-180	60	92	GapPrac	Blank	1	18	2	2	0	distractor	1	633	684	28160	13.328	13.308	13.344
ProbeTrack14	6	ProbeTrack	14.0	SCS215a	20111122.132733	20111122.132940	8	0.013327	60	10	60-180	60	63	GapPrac	Blank	1	19	2	0	0	distractor	1	820	590	28750	13.328	12.851	13.800
ProbeTrack14	6	ProbeTrack	14.0	SCS215a	20111122.132733	20111122.132945	8	0.013327	60	10	60-180	60	171	GapPrac	Blank	1	20	2	0	1	target	1	513	744	29494	13.328	13.113	13.551
ProbeTrack14	6	ProbeTrack	14.0	SCS215a	20111122.133022	20111122.133028	8	0.013324	60	10	60-180	60	63	GapExp	Blank	1	1	2	0	1	target	1	525	738	30232	13.398	13.095	13.556
ProbeTrack14	6	ProbeTrack	14.0	SCS215a	20111122.133022	20111122.133034	8	0.013324	60	10	60-180	60	170	GapExp	Blank	1	2	2	1	0	target	0	568	-1000	29232	13.328	13.085	13.564
ProbeTrack14	6	ProbeTrack	14.0	SCS215a	20111122.133022	20111122.133041	8	0.013324	60	10	60-180	60	70	GapExp	Blank	1	3	2	6	0	target	0	493	-1000	28232	13.328	10.119	16.542
ProbeTrack14	6	ProbeTrack	14.0	SCS215a	20111122.133022	20111122.133047	8	0.013324	60	10	60-180	60	132	GapExp	Blank	1	4	2	0	0	distractor	1	581	710	28942	13.328	13.308	13.349
ProbeTrack14	6	ProbeTrack	14.0	SCS215a	20111122.133022	20111122.133053	8	0.013324	60	10	60-180	60	89	GapExp	Blank	1	5	2	1	1	target	1	456	772	29714	13.328	13.308	13.348
ProbeTrack14	6	ProbeTrack	14.0	SCS215a	20111122.133022	20111122.133059	8	0.013324	60	10	60-180	60	164	GapExp	Blank	1	6	2	2	0	target	0	589	-1000	28714	13.328	13.234	13.416
ProbeTrack14	6	ProbeTrack	14.0	SCS215a	20111122.133022	20111122.133106	8	0.013324	60	10	60-180	60	167	GapExp	Blank	1	7	2	6	1	distractor	0	663	-1000	27714	13.328	9.347	17.302
ProbeTrack14	6	ProbeTrack	14.0	SCS215a	20111122.133022	20111122.133113	8	0.013324	60	10	60-180	60	63	GapExp	Blank	1	8	2	45	0	distractor	1	478	761	28475	13.328	13.310	13.346
ProbeTrack14	6	ProbeTrack	14.0	SCS215a	20111122.133022	20111122.133119	8	0.013324	60	10	60-180	60	109	GapExp	Blank	1	9	2	45	1	distractor	0	578	-1000	27475	13.328	13.297	13.347
ProbeTrack14	6	ProbeTrack	14.0	SCS215a	20111122.133022	20111122.133126	8	0.013324	60	10	60-180	60	170	GapExp	Blank	1	10	2	2	1	early	-4	-3424	-1000	26475	13.328	13.306	13.351
ProbeTrack14	6	ProbeTrack	14.0	SCS215a	20111122.133022	20111122.133132	8	0.013324	60	10	60-180	60	87	GapExp	Blank	0	11	2	2	1	target	1	458	771	27246	13.328	13.098	13.558
ProbeTrack14	6	ProbeTrack	14.0	SCS215a	20111122.133022	20111122.133138	8	0.013324	60	10	60-180	60	166	GapExp	Blank	0	12	2	6	1	target	1	362	819	28065	13.328	13.105	13.558
ProbeTrack14	6	ProbeTrack	14.0	SCS215a	20111122.133022	20111122.133145	8	0.013324	60	10	60-180	60	172	GapExp	Blank	0	13	2	0	0	distractor	1	668	666	28731	13.328	13.105	13.552
ProbeTrack14	6	ProbeTrack	14.0	SCS215a	20111122.133022	20111122.133151	8	0.013324	60	10	60-180	60	108	GapExp	Blank	0	14	2	45	0	distractor	1	396	802	29533	13.328	9.885	16.771
ProbeTrack14	6	ProbeTrack	14.0	SCS215a	20111122.133022	20111122.133158	8	0.013324	60	10	60-180	60	71	GapExp	Blank	0	15	2	6	0	target	0	2669	-1000	28533	13.328	10.793	15.855
ProbeTrack14	6	ProbeTrack	14.0	SCS215a	20111122.133022	20111122.133205	8	0.013324	60	10	60-180	60	178	GapExp	Blank	0	16	2	6	1	distractor	0	488	-1000	27533	13.328	13.099	13.551
ProbeTrack14	6	ProbeTrack	14.0	SCS215a	20111122.133022	20111122.133212	8	0.013324	60	10	60-180	60	105	GapExp	Blank	0	17	2	0	0	target	0	448	-1000	26533	13.328	12.718	13.939
ProbeTrack14	6	ProbeTrack	14.0	SCS215a	20111122.133022	20111122.133218	8	0.013324	60	10	60-180	60	75	GapExp	Blank	0	18	2	1	0	target	0	719	-1000	25533	13.328	13.308	13.344
ProbeTrack14	6	ProbeTrack	14.0	SCS215a	20111122.133022	20111122.133223	8	0.013324	60	10	60-180	60	107	GapExp	Blank	0	19	2	1	0	target	0	490	-1000	24533	13.328	13.307	13.348
ProbeTrack14	6	ProbeTrack	14.0	SCS215a	20111122.133022	20111122.133229	8	0.013324	60	10	60-180	60	149	GapExp	Blank	0	20	2	45	1	target	1	682	659	25192	13.328	13.302	13.351
ProbeTrack14	6	ProbeTrack	14.0	SCS215a	20111122.133022	20111122.133236	8	0.013324	60	10	60-180	60	93	GapExp	Blank	0	21	2	2	0	target	0	442	-1000	24192	13.328	9.465	17.204
ProbeTrack14	6	ProbeTrack	14.0	SCS215a	20111122.133022	20111122.133243	8	0.013324	60	10	60-180	60	104	GapExp	Blank	0	22	2	2	1	target	1	525	738	24930	13.385	13.105	26.351
ProbeTrack14	6	ProbeTrack	14.0	SCS215a	20111122.133022	20111122.133248	8	0.013324	60	10	60-180	60	105	GapExp	Blank	0	23	2	6	0	distractor	1	797	602	25532	13.328	11.903	14.745
ProbeTrack14	6	ProbeTrack	14.0	SCS215a	20111122.133022	20111122.133258	8	0.013324	60	10	60-180	60	135	GapExp	Blank	0	24	2	0	1	distractor	0	666	-1000	24532	13.328	13.308	13.346
ProbeTrack14	6	ProbeTrack	14.0	SCS215a	20111122.133022	20111122.133304	8	0.013324	60	10	60-180	60	149	GapExp	Blank	0	25	2	6	0	target	0	617	-1000	23532	13.328	13.308	13.344
ProbeTrack14	6	ProbeTrack	14.0	SCS215a	20111122.133022	20111122.133311	8	0.013324	60	10	60-180	60	70	GapExp	Blank	0	26	2	2	1	target	1	479	761	24293	13.328	13.125	13.543
ProbeTrack14	6	ProbeTrack	14.0	SCS215a	20111122.133022	20111122.133317	8	0.013324	60	10	60-180	60	105	GapExp	Blank	0	27	2	2	0	target	0	654	-1000	23293	13.328	10.966	15.683
ProbeTrack14	6	ProbeTrack	14.0	SCS215a	20111122.133022	20111122.133323	8	0.013324	60	10	60-180	60	106	GapExp	Blank	0	28	2	2	0	target	0	514	-1000	22293	13.328	8.332	18.313
ProbeTrack14	6	ProbeTrack	14.0	SCS215a	20111122.133022	20111122.133329	8	0.013324	60	10	60-180	60	164	GapExp	Blank	0	29	2	45	1	target	1	459	771	23064	13.328	7.878	18.793
ProbeTrack14	6	ProbeTrack	14.0	SCS215a	20111122.133022	20111122.133336	8	0.013324	60	10	60-180	60	78	GapExp	Blank	0	30	2	6	0	target	0	825	-1000	22064	13.328	13.310	13.348
ProbeTrack14	6	ProbeTrack	14.0	SCS215a	20111122.133022	20111122.133342	8	0.013324	60	10	60-180	60	156	GapExp	Blank	0	31	2	0	1	distractor	0	896	-1000	21064	13.328	13.093	13.556
ProbeTrack14	6	ProbeTrack	14.0	SCS215a	20111122.133022	20111122.133349	8	0.013324	60	10	60-180	60	104	GapExp	Blank	0	32	2	6	1	target	1	519	741	21805	13.328	12.578	14.087
ProbeTrack14	6	ProbeTrack	14.0	SCS215a	20111122.133022	20111122.133355	8	0.013324	60	10	60-180	60	69	GapExp	Blank	0	33	2	1	1	target	1	415	793	22598	13.328	13.293	13.354
ProbeTrack14	6	ProbeTrack	14.0	SCS215a	20111122.133022	20111122.133400	8	0.013324	60	10	60-180	60	133	GapExp	Blank	0	34	2	0	1	target	1	481	760	23358	13.328	13.304	13.346
ProbeTrack14	6	ProbeTrack	14.0	SCS215a	20111122.133022	20111122.133407	8	0.013324	60	10	60-180	60	142	GapExp	Blank	0	35	2	1	0	target	0	467	-1000	22358	13.328	13.100	13.557
ProbeTrack14	6	ProbeTrack	14.0	SCS215a	20111122.133022	20111122.133413	8	0.013324	60	10	60-180	60	94	GapExp	Blank	0	36	2	1	0	target	0	676	-1000	21358	13.328	13.294	13.352
ProbeTrack14	6	ProbeTrack	14.0	SCS215a	20111122.133022	20111122.133419	8	0.013324	60	10	60-180	60	119	GapExp	Blank	0	37	2	1	0	distractor	1	622	689	22047	13.328	13.105	13.551
ProbeTrack14	6	ProbeTrack	14.0	SCS215a	20111122.133022	20111122.133425	8	0.013324	60	10	60-180	60	154	GapExp	Blank	0	38	2	1	0	target	0	422	-1000	21047	13.328	13.092	13.563
ProbeTrack14	6	ProbeTrack	14.0	SCS215a	20111122.133022	20111122.133432	8	0.013324	60	10	60-180	60	69	GapExp	Blank	0	39	2	45	0	distractor	1	601	700	21747	13.328	9.544	17.125
ProbeTrack14	6	ProbeTrack	14.0	SCS215a	20111122.133022	20111122.133438	8	0.013324	60	10	60-180	60	175	GapExp	Blank	0	40	2	0	0	distractor	1	795	603	22350	13.328	13.109	13.541
ProbeTrack14	6	ProbeTrack	14.0	SCS215a	20111122.133022	20111122.133446	8	0.013324	60	10	60-180	60	146	GapExp	Blank	0	41	2	45	0	distractor	1	617	692	23042	13.328	13.106	13.544
ProbeTrack14	6	ProbeTrack	14.0	SCS215a	20111122.133022	20111122.133454	8	0.013324	60	10	60-180	60	171	GapExp	Blank	0	42	2	2	1	target	1	573	714	23756	13.328	13.098	13.572
ProbeTrack14	6	ProbeTrack	14.0	SCS215a	20111122.133022	20111122.133501	8	0.013324	60	10	60-180	60	96	GapExp	Blank	0	43	2	0	1	target	1	479	761	24517	13.328	13.104	13.552
ProbeTrack14	6	ProbeTrack	14.0	SCS215a	20111122.133022	20111122.133506	8	0.013324	60	10	60-180	60	141	GapExp	Blank	0	44	2	1	1	target	1	627	687	25204	13.328	11.257	15.401
ProbeTrack14	6	ProbeTrack	14.0	SCS215a	20111122.133022	20111122.133513	8	0.013324	60	10	60-180	60	76	GapExp	Blank	0	45	2	45	0	distractor	1	560	720	25924	13.328	13.308	13.349
ProbeTrack14	6	ProbeTrack	14.0	SCS215a	20111122.133022	20111122.133519	8	0.013324	60	10	60-180	60	129	GapExp	Blank	0	46	2	6	0	distractor	1	533	734	26658	13.328	5.462	21.200
ProbeTrack14	6	ProbeTrack	14.0	SCS215a	20111122.133022	20111122.133525	8	0.013324	60	10	60-180	60	158	GapExp	Blank	0	47	2	1	0	distractor	1	711	645	27303	13.328	9.998	16.652
ProbeTrack14	6	ProbeTrack	14.0	SCS215a	20111122.133022	20111122.133532	8	0.013324	60	10	60-180	60	65	GapExp	Blank	0	48	2	45	1	target	1	636	682	27985	13.328	13.307	13.355
ProbeTrack14	6	ProbeTrack	14.0	SCS215a	20111122.133022	20111122.133538	8	0.013324	60	10	60-180	60	74	GapExp	Blank	0	49	2	45	0	distractor	1	522	739	28724	13.328	12.906	13.784
ProbeTrack14	6	ProbeTrack	14.0	SCS215a	20111122.133022	20111122.133544	8	0.013324	60	10	60-180	60	89	GapExp	Blank	0	50	2	2	1	target	1	412	794	29518	13.328	13.098	13.564
ProbeTrack14	6	ProbeTrack	14.0	SCS215a	20111122.133022	20111122.133549	8	0.013324	60	10	60-180	60	173	GapExp	Blank	0	51	2	1	1	target	1	443	779	30297	13.328	10.022	16.646
ProbeTrack14	6	ProbeTrack	14.0	SCS215a	20111122.133022	20111122.133556	8	0.013324	60	10	60-180	60	65	GapExp	Blank	0	52	2	6	0	distractor	1	501	750	31047	13.328	10.916	15.742
ProbeTrack14	6	ProbeTrack	14.0	SCS215a	20111122.133022	20111122.133602	8	0.013324	60	10	60-180	60	141	GapExp	Blank	0	53	2	0	1	target	1	583	709	31756	13.328	13.308	13.348
ProbeTrack14	6	ProbeTrack	14.0	SCS215a	20111122.133022	20111122.133608	8	0.013324	60	10	60-180	60	78	GapExp	Blank	0	54	2	2	1	target	1	461	770	32526	13.328	12.414	14.242
ProbeTrack14	6	ProbeTrack	14.0	SCS215a	20111122.133022	20111122.133614	8	0.013324	60	10	60-180	60	97	GapExp	Blank	0	55	2	45	1	target	1	593	704	33230	13.328	13.299	13.356
ProbeTrack14	6	ProbeTrack	14.0	SCS215a	20111122.133022	20111122.133620	8	0.013324	60	10	60-180	60	172	GapExp	Blank	0	56	2	45	1	target	1	412	794	34024	13.328	8.097	18.559
ProbeTrack14	6	ProbeTrack	14.0	SCS215a	20111122.133022	20111122.133628	8	0.013324	60	10	60-180	60	61	GapExp	Blank	0	57	2	45	1	target	1	413	794	34818	13.328	13.306	13.348
ProbeTrack14	6	ProbeTrack	14.0	SCS215a	20111122.133022	20111122.133633	8	0.013324	60	10	60-180	60	106	GapExp	Blank	0	58	2	1	0	target	0	547	-1000	33818	13.328	13.101	13.558
ProbeTrack14	6	ProbeTrack	14.0	SCS215a	20111122.133022	20111122.133639	8	0.013324	60	10	60-180	60	129	GapExp	Blank	0	59	2	1	0	target	0	523	-1000	32818	13.328	12.076	14.579
ProbeTrack14	6	ProbeTrack	14.0	SCS215a	20111122.133022	20111122.133646	8	0.013324	60	10	60-180	60	68	GapExp	Blank	0	60	2	45	0	distractor	1	348	826	33644	13.328	9.723	16.920
ProbeTrack14	6	ProbeTrack	14.0	SCS215a	20111122.133022	20111122.133651	8	0.013324	60	10	60-180	60	139	GapExp	Blank	0	61	2	1	0	distractor	1	649	676	34320	13.328	13.110	13.540
ProbeTrack14	6	ProbeTrack	14.0	SCS215a	20111122.133022	20111122.133658	8	0.013324	60	10	60-180	60	73	GapExp	Blank	0	62	2	1	1	target	1	448	776	35096	13.328	11.253	15.415
ProbeTrack14	6	ProbeTrack	14.0	SCS215a	20111122.133022	20111122.133704	8	0.013324	60	10	60-180	60	97	GapExp	Blank	0	63	2	2	0	distractor	1	579	711	35807	13.328	13.309	13.344
ProbeTrack14	6	ProbeTrack	14.0	SCS215a	20111122.133022	20111122.133710	8	0.013324	60	10	60-180	60	175	GapExp	Blank	0	64	2	2	0	distractor	1	674	663	36470	13.328	13.161	13.482
ProbeTrack14	6	ProbeTrack	14.0	SCS215a	20111122.133022	20111122.133717	8	0.013324	60	10	60-180	60	99	GapExp	Blank	0	65	2	0	0	distractor	1	612	694	37164	13.328	13.167	13.490
ProbeTrack14	6	ProbeTrack	14.0	SCS215a	20111122.133022	20111122.133723	8	0.013324	60	10	60-180	60	132	GapExp	Blank	0	66	2	0	0	target	0	555	-1000	36164	13.328	13.303	13.349
ProbeTrack14	6	ProbeTrack	14.0	SCS215a	20111122.133022	20111122.133730	8	0.013324	60	10	60-180	60	124	GapExp	Blank	0	67	2	2	0	distractor	1	485	758	36922	13.328	12.565	14.097
ProbeTrack14	6	ProbeTrack	14.0	SCS215a	20111122.133022	20111122.133736	8	0.013324	60	10	60-180	60	107	GapExp	Blank	0	68	2	6	0	distractor	1	466	767	37689	13.328	13.106	13.551
ProbeTrack14	6	ProbeTrack	14.0	SCS215a	20111122.133022	20111122.133742	8	0.013324	60	10	60-180	60	100	GapExp	Blank	0	69	2	1	0	target	0	517	-1000	36689	13.328	13.106	13.551
ProbeTrack14	6	ProbeTrack	14.0	SCS215a	20111122.133022	20111122.133748	8	0.013324	60	10	60-180	60	106	GapExp	Blank	0	70	2	0	0	distractor	1	613	694	37383	13.328	10.525	16.131
ProbeTrack14	6	ProbeTrack	14.0	SCS215a	20111122.133022	20111122.133754	8	0.013324	60	10	60-180	60	176	GapExp	Blank	0	71	2	45	0	distractor	1	713	644	38027	13.328	9.743	16.920
ProbeTrack14	6	ProbeTrack	14.0	SCS215a	20111122.133022	20111122.133802	8	0.013324	60	10	60-180	60	165	GapExp	Blank	0	72	2	1	1	target	1	490	755	38782	13.328	11.338	15.312
ProbeTrack14	6	ProbeTrack	14.0	SCS215a	20111122.133022	20111122.133809	8	0.013324	60	10	60-180	60	115	GapExp	Blank	0	73	2	45	0	distractor	1	385	808	39590	13.309	8.107	13.552
ProbeTrack14	6	ProbeTrack	14.0	SCS215a	20111122.133022	20111122.133816	8	0.013324	60	10	60-180	60	83	GapExp	Blank	0	74	2	6	1	distractor	0	879	-1000	38590	13.328	13.309	13.354
ProbeTrack14	6	ProbeTrack	14.0	SCS215a	20111122.133022	20111122.133822	8	0.013324	60	10	60-180	60	64	GapExp	Blank	0	75	2	0	1	target	1	482	759	39349	13.328	13.308	13.344
ProbeTrack14	6	ProbeTrack	14.0	SCS215a	20111122.133022	20111122.133827	8	0.013324	60	10	60-180	60	171	GapExp	Blank	0	76	2	0	1	distractor	0	423	-1000	38349	13.328	12.161	14.510
ProbeTrack14	6	ProbeTrack	14.0	SCS215a	20111122.133022	20111122.133836	8	0.013324	60	10	60-180	60	130	GapExp	Blank	0	77	2	1	0	target	0	611	-1000	37349	13.328	11.718	14.950
ProbeTrack14	6	ProbeTrack	14.0	SCS215a	20111122.133022	20111122.133843	8	0.013324	60	10	60-180	60	67	GapExp	Blank	0	78	2	6	0	distractor	1	383	809	38158	13.328	13.313	13.344
ProbeTrack14	6	ProbeTrack	14.0	SCS215a	20111122.133022	20111122.133848	8	0.013324	60	10	60-180	60	139	GapExp	Blank	0	79	2	6	1	target	1	497	752	38910	13.328	13.289	13.354
ProbeTrack14	6	ProbeTrack	14.0	SCS215a	20111122.133022	20111122.133855	8	0.013324	60	10	60-180	60	176	GapExp	Blank	0	80	2	45	0	target	0	434	-1000	37910	13.328	13.306	13.350
ProbeTrack14	6	ProbeTrack	14.0	SCS215a	20111122.133022	20111122.133902	8	0.013324	60	10	60-180	60	120	GapExp	Blank	0	81	2	1	1	target	1	621	690	38600	13.328	13.300	13.363
ProbeTrack14	6	ProbeTrack	14.0	SCS215a	20111122.133022	20111122.133909	8	0.013324	60	10	60-180	60	108	GapExp	Blank	0	82	2	6	1	target	1	580	710	39310	13.328	13.296	13.348
ProbeTrack14	6	ProbeTrack	14.0	SCS215a	20111122.133022	20111122.133915	8	0.013324	60	10	60-180	60	98	GapExp	Blank	0	83	2	0	0	distractor	1	834	583	39893	13.328	11.390	15.262
ProbeTrack14	6	ProbeTrack	14.0	SCS215a	20111122.133022	20111122.133921	8	0.013324	60	10	60-180	60	96	GapExp	Blank	0	84	2	0	1	target	1	715	643	40536	13.328	9.381	17.283
ProbeTrack14	6	ProbeTrack	14.0	SCS215a	20111122.133022	20111122.133928	8	0.013324	60	10	60-180	60	138	GapExp	Blank	0	85	2	0	1	target	1	501	750	41286	13.328	3.902	22.748
ProbeTrack14	6	ProbeTrack	14.0	SCS215a	20111122.133022	20111122.133934	8	0.013324	60	10	60-180	60	103	GapExp	Blank	0	86	2	45	0	distractor	1	962	519	41805	13.328	13.100	13.565
ProbeTrack14	6	ProbeTrack	14.0	SCS215a	20111122.133022	20111122.133941	8	0.013324	60	10	60-180	60	151	GapExp	Blank	0	87	2	45	0	distractor	1	481	760	42565	13.328	13.105	13.566
ProbeTrack14	6	ProbeTrack	14.0	SCS215a	20111122.133022	20111122.133948	8	0.013324	60	10	60-180	60	165	GapExp	Blank	0	88	2	6	1	target	1	609	696	43261	13.372	10.243	21.272
ProbeTrack14	6	ProbeTrack	14.0	SCS215a	20111122.133022	20111122.133955	8	0.013324	60	10	60-180	60	167	GapExp	Blank	0	89	2	2	1	target	1	464	768	44029	13.328	12.828	13.834
ProbeTrack14	6	ProbeTrack	14.0	SCS215a	20111122.133022	20111122.134002	8	0.013324	60	10	60-180	60	119	GapExp	Blank	0	90	2	1	1	target	1	500	750	44779	13.328	13.100	13.551
ProbeTrack14	6	ProbeTrack	14.0	SCS215a	20111122.133022	20111122.134008	8	0.013324	60	10	60-180	60	171	GapExp	Blank	0	91	2	45	0	distractor	1	603	699	45478	13.328	9.050	17.601
ProbeTrack14	6	ProbeTrack	14.0	SCS215a	20111122.133022	20111122.134016	8	0.013324	60	10	60-180	60	70	GapExp	Blank	0	92	2	45	0	distractor	1	572	714	46192	13.328	12.755	13.904
ProbeTrack14	6	ProbeTrack	14.0	SCS215a	20111122.133022	20111122.134022	8	0.013324	60	10	60-180	60	80	GapExp	Blank	0	93	2	0	0	target	0	621	-1000	45192	13.328	13.058	13.664
ProbeTrack14	6	ProbeTrack	14.0	SCS215a	20111122.133022	20111122.134028	8	0.013324	60	10	60-180	60	88	GapExp	Blank	0	94	2	1	1	distractor	0	662	-1000	44192	13.328	9.609	17.055
ProbeTrack14	6	ProbeTrack	14.0	SCS215a	20111122.133022	20111122.134034	8	0.013324	60	10	60-180	60	101	GapExp	Blank	0	95	2	1	1	distractor	0	644	-1000	43192	13.328	12.877	13.784
ProbeTrack14	6	ProbeTrack	14.0	SCS215a	20111122.133022	20111122.134040	8	0.013324	60	10	60-180	60	77	GapExp	Blank	0	96	2	1	1	target	1	482	759	43951	13.328	12.379	14.270
ProbeTrack14	6	ProbeTrack	14.0	SCS215a	20111122.133022	20111122.134047	8	0.013324	60	10	60-180	60	142	GapExp	Blank	0	97	2	1	1	target	1	450	775	44726	13.430	13.106	40.210
ProbeTrack14	6	ProbeTrack	14.0	SCS215a	20111122.133022	20111122.134053	8	0.013324	60	10	60-180	60	122	GapExp	Blank	0	98	2	2	1	target	1	592	704	45430	13.328	8.177	18.495
ProbeTrack14	6	ProbeTrack	14.0	SCS215a	20111122.133022	20111122.134059	8	0.013324	60	10	60-180	60	82	GapExp	Blank	0	99	2	6	0	distractor	1	406	797	46227	13.328	13.099	13.565
ProbeTrack14	6	ProbeTrack	14.0	SCS215a	20111122.133022	20111122.134104	8	0.013324	60	10	60-180	60	67	GapExp	Blank	0	100	2	1	0	distractor	1	544	728	46955	13.464	11.094	26.690
ProbeTrack14	6	ProbeTrack	14.0	SCS215a	20111122.133022	20111122.134110	8	0.013324	60	10	60-180	60	119	GapExp	Blank	0	101	2	0	0	distractor	1	852	574	47529	13.328	13.112	13.558
ProbeTrack14	6	ProbeTrack	14.0	SCS215a	20111122.133022	20111122.134117	8	0.013324	60	10	60-180	60	137	GapExp	Blank	0	102	2	45	1	distractor	0	356	-1000	46529	13.328	12.300	14.344
ProbeTrack14	6	ProbeTrack	14.0	SCS215a	20111122.133022	20111122.134124	8	0.013324	60	10	60-180	60	178	GapExp	Blank	0	103	2	2	0	target	0	388	-1000	45529	13.344	12.317	18.009
ProbeTrack14	6	ProbeTrack	14.0	SCS215a	20111122.133022	20111122.134131	8	0.013324	60	10	60-180	60	88	GapExp	Blank	0	104	2	2	1	distractor	0	485	-1000	44529	13.328	13.302	13.357
ProbeTrack14	6	ProbeTrack	14.0	SCS215a	20111122.133022	20111122.134136	8	0.013324	60	10	60-180	60	107	GapExp	Blank	0	105	2	1	1	target	1	406	797	45326	13.328	10.496	16.148
ProbeTrack14	6	ProbeTrack	14.0	SCS215a	20111122.133022	20111122.134143	8	0.013324	60	10	60-180	60	82	GapExp	Blank	0	106	2	6	1	distractor	0	284	-1000	44326	13.328	5.396	21.272
ProbeTrack14	6	ProbeTrack	14.0	SCS215a	20111122.133022	20111122.134149	8	0.013324	60	10	60-180	60	114	GapExp	Blank	0	107	2	6	1	target	1	583	709	45035	13.328	13.307	13.352
ProbeTrack14	6	ProbeTrack	14.0	SCS215a	20111122.133022	20111122.134155	8	0.013324	60	10	60-180	60	157	GapExp	Blank	0	108	2	45	1	target	1	452	774	45809	13.328	13.086	13.564
ProbeTrack14	6	ProbeTrack	14.0	SCS215a	20111122.133022	20111122.134202	8	0.013324	60	10	60-180	60	114	GapExp	Blank	0	109	2	0	0	target	0	540	-1000	44809	13.328	13.312	13.349
ProbeTrack14	6	ProbeTrack	14.0	SCS215a	20111122.133022	20111122.134209	8	0.013324	60	10	60-180	60	71	GapExp	Blank	0	110	2	0	1	target	1	690	655	45464	13.328	13.091	13.552
ProbeTrack14	6	ProbeTrack	14.0	SCS215a	20111122.133022	20111122.134214	8	0.013324	60	10	60-180	60	107	GapExp	Blank	0	111	2	2	0	distractor	1	385	808	46272	13.328	13.099	13.571
ProbeTrack14	6	ProbeTrack	14.0	SCS215a	20111122.133022	20111122.134221	8	0.013324	60	10	60-180	60	88	GapExp	Blank	0	112	2	6	0	target	0	628	-1000	45272	13.328	11.895	14.757
ProbeTrack14	6	ProbeTrack	14.0	SCS215a	20111122.133022	20111122.134226	8	0.013324	60	10	60-180	60	158	GapExp	Blank	0	113	2	1	1	target	1	657	672	45944	13.328	6.055	20.602
ProbeTrack14	6	ProbeTrack	14.0	SCS215a	20111122.133022	20111122.134233	8	0.013324	60	10	60-180	60	104	GapExp	Blank	0	114	2	45	0	distractor	1	501	750	46694	13.328	10.721	15.938
ProbeTrack14	6	ProbeTrack	14.0	SCS215a	20111122.133022	20111122.134239	8	0.013324	60	10	60-180	60	113	GapExp	Blank	0	115	2	45	1	target	1	519	741	47435	13.328	4.618	22.039
ProbeTrack14	6	ProbeTrack	14.0	SCS215a	20111122.133022	20111122.134246	8	0.013324	60	10	60-180	60	74	GapExp	Blank	0	116	2	6	1	target	1	613	694	48129	13.328	13.307	13.343
ProbeTrack14	6	ProbeTrack	14.0	SCS215a	20111122.133022	20111122.134253	8	0.013324	60	10	60-180	60	179	GapExp	Blank	0	117	2	1	0	distractor	1	368	816	48945	13.328	5.541	21.123
ProbeTrack14	6	ProbeTrack	14.0	SCS215a	20111122.133022	20111122.134300	8	0.013324	60	10	60-180	60	177	GapExp	Blank	0	118	2	45	0	target	0	611	-1000	47945	13.328	7.129	19.535
ProbeTrack14	6	ProbeTrack	14.0	SCS215a	20111122.133022	20111122.134308	8	0.013324	60	10	60-180	60	171	GapExp	Blank	0	119	2	2	0	target	0	701	-1000	46945	13.328	6.745	19.920
ProbeTrack14	6	ProbeTrack	14.0	SCS215a	20111122.133022	20111122.134315	8	0.013324	60	10	60-180	60	127	GapExp	Blank	0	120	2	45	1	target	1	541	730	47675	13.328	13.248	13.422
ProbeTrack14	6	ProbeTrack	14.0	SCS215a	20111122.133022	20111122.134322	8	0.013324	60	10	60-180	60	159	GapExp	Blank	0	121	2	6	0	target	0	455	-1000	46675	13.328	4.304	22.352
ProbeTrack14	6	ProbeTrack	14.0	SCS215a	20111122.133022	20111122.134329	8	0.013324	60	10	60-180	60	117	GapExp	Blank	0	122	2	0	0	target	0	671	-1000	45675	13.328	7.310	19.355
ProbeTrack14	6	ProbeTrack	14.0	SCS215a	20111122.133022	20111122.134336	8	0.013324	60	10	60-180	60	122	GapExp	Blank	0	123	2	2	0	distractor	1	748	626	46301	13.328	13.308	13.346
ProbeTrack14	6	ProbeTrack	14.0	SCS215a	20111122.133022	20111122.134342	8	0.013324	60	10	60-180	60	178	GapExp	Blank	0	124	2	6	1	target	1	458	771	47072	13.328	8.753	17.902
ProbeTrack14	6	ProbeTrack	14.0	SCS215a	20111122.133022	20111122.134349	8	0.013324	60	10	60-180	60	99	GapExp	Blank	0	125	2	45	0	distractor	1	664	668	47740	13.328	12.477	14.178
ProbeTrack14	6	ProbeTrack	14.0	SCS215a	20111122.133022	20111122.134355	8	0.013324	60	10	60-180	60	63	GapExp	Blank	0	126	2	1	0	target	0	642	-1000	46740	13.328	13.305	13.357
ProbeTrack14	6	ProbeTrack	14.0	SCS215a	20111122.133022	20111122.134401	8	0.013324	60	10	60-180	60	79	GapExp	Blank	0	127	2	0	0	early	-4	-2286	-1000	45740	13.328	13.099	13.571
ProbeTrack14	6	ProbeTrack	14.0	SCS215a	20111122.133022	20111122.134407	8	0.013324	60	10	60-180	60	68	GapExp	Blank	0	128	2	2	0	target	0	474	-1000	44740	13.328	12.779	13.860
ProbeTrack14	6	ProbeTrack	14.0	SCS215a	20111122.133022	20111122.134413	8	0.013324	60	10	60-180	60	118	GapExp	Blank	0	129	2	2	0	distractor	1	346	827	45567	13.328	13.308	13.347
ProbeTrack14	6	ProbeTrack	14.0	SCS215a	20111122.133022	20111122.134419	8	0.013324	60	10	60-180	60	173	GapExp	Blank	0	130	2	45	0	distractor	1	656	672	46239	13.328	7.257	19.399
ProbeTrack14	6	ProbeTrack	14.0	SCS215a	20111122.133022	20111122.134427	8	0.013324	60	10	60-180	60	145	GapExp	Blank	0	131	2	6	0	distractor	1	458	771	47010	13.426	5.356	33.986
ProbeTrack14	6	ProbeTrack	14.0	SCS215a	20111122.133022	20111122.134434	8	0.013324	60	10	60-180	60	178	GapExp	Blank	0	132	2	0	0	distractor	1	566	717	47727	13.328	10.867	15.780
ProbeTrack14	6	ProbeTrack	14.0	SCS215a	20111122.133022	20111122.134442	8	0.013324	60	10	60-180	60	95	GapExp	Blank	0	133	2	45	1	distractor	0	458	-1000	46727	13.328	12.544	14.101
ProbeTrack14	6	ProbeTrack	14.0	SCS215a	20111122.133022	20111122.134448	8	0.013324	60	10	60-180	60	62	GapExp	Blank	0	134	2	1	1	distractor	0	1091	-1000	45727	13.328	13.305	13.349
ProbeTrack14	6	ProbeTrack	14.0	SCS215a	20111122.133022	20111122.134454	8	0.013324	60	10	60-180	60	146	GapExp	Blank	0	135	2	6	1	early	-4	-3303	-1000	44727	13.328	11.337	15.318
ProbeTrack14	6	ProbeTrack	14.0	SCS215a	20111122.133022	20111122.134500	8	0.013324	60	10	60-180	60	65	GapExp	Blank	0	136	2	0	0	distractor	1	369	816	45543	13.328	13.309	13.395
ProbeTrack14	6	ProbeTrack	14.0	SCS215a	20111122.133022	20111122.134506	8	0.013324	60	10	60-180	60	132	GapExp	Blank	0	137	2	6	0	distractor	1	266	867	46410	13.328	13.270	13.391
ProbeTrack14	6	ProbeTrack	14.0	SCS215a	20111122.133022	20111122.134513	8	0.013324	60	10	60-180	60	77	GapExp	Blank	0	138	2	1	1	target	1	536	732	47142	13.328	13.308	13.344
ProbeTrack14	6	ProbeTrack	14.0	SCS215a	20111122.133022	20111122.134519	8	0.013324	60	10	60-180	60	103	GapExp	Blank	0	139	2	6	1	target	1	408	796	47938	13.328	10.524	16.131
ProbeTrack14	6	ProbeTrack	14.0	SCS215a	20111122.133022	20111122.134524	8	0.013324	60	10	60-180	60	177	GapExp	Blank	0	140	2	2	0	distractor	1	597	702	48640	13.328	13.098	13.550
ProbeTrack14	6	ProbeTrack	14.0	SCS215a	20111122.133022	20111122.134531	8	0.013324	60	10	60-180	60	127	GapExp	Blank	0	141	2	0	1	target	1	268	866	49506	13.328	13.105	13.552
ProbeTrack14	6	ProbeTrack	14.0	SCS215a	20111122.133022	20111122.134538	8	0.013324	60	10	60-180	60	89	GapExp	Blank	0	142	2	1	1	target	1	522	739	50245	13.328	11.445	15.614
ProbeTrack14	6	ProbeTrack	14.0	SCS215a	20111122.133022	20111122.134543	8	0.013324	60	10	60-180	60	155	GapExp	Blank	0	143	2	2	0	distractor	1	731	635	50880	13.328	13.307	13.347
ProbeTrack14	6	ProbeTrack	14.0	SCS215a	20111122.133022	20111122.134550	8	0.013324	60	10	60-180	60	108	GapExp	Blank	0	144	2	6	1	target	1	585	708	51588	13.328	6.851	19.812
ProbeTrack14	6	ProbeTrack	14.0	SCS215a	20111122.133022	20111122.134556	8	0.013324	60	10	60-180	60	136	GapExp	Blank	0	145	2	0	0	distractor	1	450	775	52363	13.328	6.897	19.761
ProbeTrack14	6	ProbeTrack	14.0	SCS215a	20111122.133022	20111122.134602	8	0.013324	60	10	60-180	60	117	GapExp	Blank	0	146	2	0	0	target	0	667	-1000	51363	13.328	11.388	15.267
ProbeTrack14	6	ProbeTrack	14.0	SCS215a	20111122.133022	20111122.134608	8	0.013324	60	10	60-180	60	166	GapExp	Blank	0	147	2	45	0	distractor	1	541	730	52093	13.328	6.033	20.630
ProbeTrack14	6	ProbeTrack	14.0	SCS215a	20111122.133022	20111122.134615	8	0.013324	60	10	60-180	60	126	GapExp	Blank	0	148	2	45	1	target	1	426	787	52880	13.328	10.686	15.956
ProbeTrack14	6	ProbeTrack	14.0	SCS215a	20111122.133022	20111122.134622	8	0.013324	60	10	60-180	60	66	GapExp	Blank	0	149	2	6	0	target	0	434	-1000	51880	13.328	5.847	20.801
ProbeTrack14	6	ProbeTrack	14.0	SCS215a	20111122.133022	20111122.134627	8	0.013324	60	10	60-180	60	158	GapExp	Blank	0	150	2	1	0	target	0	504	-1000	50880	13.328	13.308	13.350
ProbeTrack14	6	ProbeTrack	14.0	SCS215a	20111122.133022	20111122.134634	8	0.013324	60	10	60-180	60	68	GapExp	Blank	0	151	2	45	0	distractor	1	496	752	51632	13.328	11.332	15.330
ProbeTrack14	6	ProbeTrack	14.0	SCS215a	20111122.133022	20111122.134640	8	0.013324	60	10	60-180	60	161	GapExp	Blank	0	152	2	0	1	target	1	408	796	52428	13.328	6.623	20.033
ProbeTrack14	6	ProbeTrack	14.0	SCS215a	20111122.133022	20111122.134647	8	0.013324	60	10	60-180	60	141	GapExp	Blank	0	153	2	2	1	target	1	666	667	53095	13.328	6.685	19.977
ProbeTrack14	6	ProbeTrack	14.0	SCS215a	20111122.133022	20111122.134653	8	0.013324	60	10	60-180	60	78	GapExp	Blank	0	154	2	0	1	target	1	395	803	53898	13.328	13.301	13.344
ProbeTrack14	6	ProbeTrack	14.0	SCS215a	20111122.133022	20111122.134658	8	0.013324	60	10	60-180	60	167	GapExp	Blank	0	155	2	2	0	target	0	696	-1000	52898	13.328	10.397	16.246
ProbeTrack14	6	ProbeTrack	14.0	SCS215a	20111122.133022	20111122.134705	8	0.013324	60	10	60-180	60	101	GapExp	Blank	0	156	2	0	0	distractor	1	509	746	53644	13.328	12.349	14.312
ProbeTrack14	6	ProbeTrack	14.0	SCS215a	20111122.133022	20111122.134711	8	0.013324	60	10	60-180	60	95	GapExp	Blank	0	157	2	6	0	distractor	1	633	684	54328	13.328	13.092	13.564
ProbeTrack14	6	ProbeTrack	14.0	SCS215a	20111122.133022	20111122.134718	8	0.013324	60	10	60-180	60	85	GapExp	Blank	0	158	2	2	0	target	0	528	-1000	53328	13.328	13.309	13.346
ProbeTrack14	6	ProbeTrack	14.0	SCS215a	20111122.133022	20111122.134725	8	0.013324	60	10	60-180	60	109	GapExp	Blank	0	159	2	1	1	target	1	393	804	54132	13.328	13.309	13.344
ProbeTrack14	6	ProbeTrack	14.0	SCS215a	20111122.133022	20111122.134733	8	0.013324	60	10	60-180	60	158	GapExp	Blank	0	160	2	45	1	distractor	0	464	-1000	53132	13.328	13.274	13.374
ProbeTrack14	6	ProbeTrack	14.0	SCS215a	20111122.133022	20111122.134741	8	0.013324	60	10	60-180	60	92	GapExp	Blank	0	161	2	2	1	target	1	594	703	53835	13.328	13.287	13.362
ProbeTrack14	6	ProbeTrack	14.0	SCS215a	20111122.133022	20111122.134747	8	0.013324	60	10	60-180	60	167	GapExp	Blank	0	162	2	0	1	target	1	519	741	54576	13.328	12.245	14.412
ProbeTrack14	6	ProbeTrack	14.0	SCS215a	20111122.133022	20111122.134754	8	0.013324	60	10	60-180	60	169	GapExp	Blank	0	163	2	45	1	target	1	556	722	55298	13.328	13.308	13.348
ProbeTrack14	6	ProbeTrack	14.0	SCS215a	20111122.133022	20111122.134802	8	0.013324	60	10	60-180	60	109	GapExp	Blank	0	164	2	1	1	target	1	466	767	56065	13.328	11.538	15.118
ProbeTrack14	6	ProbeTrack	14.0	SCS215a	20111122.133022	20111122.134808	8	0.013324	60	10	60-180	60	66	GapExp	Blank	0	165	2	45	1	target	1	568	716	56781	13.328	11.173	15.511
ProbeTrack14	6	ProbeTrack	14.0	SCS215a	20111122.133022	20111122.134814	8	0.013324	60	10	60-180	60	79	GapExp	Blank	0	166	2	45	1	distractor	0	302	-1000	55781	13.321	5.202	21.442
ProbeTrack14	6	ProbeTrack	14.0	SCS215a	20111122.133022	20111122.134821	8	0.013324	60	10	60-180	60	132	GapExp	Blank	0	167	2	2	1	target	1	340	830	56611	13.328	13.085	13.571
ProbeTrack14	6	ProbeTrack	14.0	SCS215a	20111122.133022	20111122.134827	8	0.013324	60	10	60-180	60	85	GapExp	Blank	0	168	2	6	0	distractor	1	754	623	57234	13.328	12.223	14.446
ProbeTrack14	6	ProbeTrack	14.0	SCS215a	20111122.133022	20111122.134833	8	0.013324	60	10	60-180	60	164	GapExp	Blank	0	169	2	1	1	target	1	419	791	58025	13.328	13.092	13.551
ProbeTrack14	6	ProbeTrack	14.0	SCS215a	20111122.133022	20111122.134839	8	0.013324	60	10	60-180	60	120	GapExp	Blank	0	170	2	6	0	distractor	1	580	710	58735	13.328	7.077	19.586
ProbeTrack14	6	ProbeTrack	14.0	SCS215a	20111122.133022	20111122.134845	8	0.013324	60	10	60-180	60	110	GapExp	Blank	0	171	2	6	0	target	0	396	-1000	57735	13.328	9.249	17.403
ProbeTrack14	6	ProbeTrack	14.0	SCS215a	20111122.133022	20111122.134852	8	0.013324	60	10	60-180	60	130	GapExp	Blank	0	172	2	6	1	target	1	861	570	58305	13.328	13.299	13.358
ProbeTrack14	6	ProbeTrack	14.0	SCS215a	20111122.133022	20111122.134858	8	0.013324	60	10	60-180	60	172	GapExp	Blank	0	173	2	45	0	distractor	1	239	881	59186	13.328	12.743	13.900
ProbeTrack14	6	ProbeTrack	14.0	SCS215a	20111122.133022	20111122.134905	8	0.013324	60	10	60-180	60	127	GapExp	Blank	0	174	2	1	0	distractor	1	515	743	59929	13.328	12.091	14.551
ProbeTrack14	6	ProbeTrack	14.0	SCS215a	20111122.133022	20111122.134911	8	0.013324	60	10	60-180	60	71	GapExp	Blank	0	175	2	2	1	target	1	648	676	60605	13.328	11.795	14.868
ProbeTrack14	6	ProbeTrack	14.0	SCS215a	20111122.133022	20111122.134917	8	0.013324	60	10	60-180	60	118	GapExp	Blank	0	176	2	1	0	distractor	1	343	829	61434	13.328	12.912	13.750
ProbeTrack14	6	ProbeTrack	14.0	SCS215a	20111122.133022	20111122.134924	8	0.013324	60	10	60-180	60	139	GapExp	Blank	0	177	2	1	0	target	0	657	-1000	60434	13.328	9.535	17.109
ProbeTrack14	6	ProbeTrack	14.0	SCS215a	20111122.133022	20111122.134930	8	0.013324	60	10	60-180	60	102	GapExp	Blank	0	178	2	1	1	target	1	641	680	61114	13.384	13.083	21.288
ProbeTrack14	6	ProbeTrack	14.0	SCS215a	20111122.133022	20111122.134936	8	0.013324	60	10	60-180	60	119	GapExp	Blank	0	179	2	1	1	target	1	516	742	61856	13.437	13.098	33.943
ProbeTrack14	6	ProbeTrack	14.0	SCS215a	20111122.133022	20111122.134942	8	0.013324	60	10	60-180	60	100	GapExp	Blank	0	180	2	1	0	distractor	1	531	735	62591	13.328	7.646	19.010
ProbeTrack14	6	ProbeTrack	14.0	SCS215a	20111122.133022	20111122.134948	8	0.013324	60	10	60-180	60	141	GapExp	Blank	0	181	2	2	1	distractor	0	916	-1000	61591	13.328	9.016	17.639
ProbeTrack14	6	ProbeTrack	14.0	SCS215a	20111122.133022	20111122.134955	8	0.013324	60	10	60-180	60	96	GapExp	Blank	0	182	2	0	1	target	1	285	858	62449	13.328	8.749	17.907
ProbeTrack14	6	ProbeTrack	14.0	SCS215a	20111122.133022	20111122.135001	8	0.013324	60	10	60-180	60	99	GapExp	Blank	0	183	2	1	0	target	0	384	-1000	61449	13.328	13.307	13.348
ProbeTrack14	6	ProbeTrack	14.0	SCS215a	20111122.133022	20111122.135006	8	0.013324	60	10	60-180	60	132	GapExp	Blank	0	184	2	0	1	distractor	0	503	-1000	60449	13.328	6.312	20.337
ProbeTrack14	6	ProbeTrack	14.0	SCS215a	20111122.133022	20111122.135012	8	0.013324	60	10	60-180	60	136	GapExp	Blank	0	185	2	45	1	target	1	295	853	61302	13.328	13.099	13.543
ProbeTrack14	6	ProbeTrack	14.0	SCS215a	20111122.133022	20111122.135019	8	0.013324	60	10	60-180	60	115	GapExp	Blank	0	186	2	2	0	distractor	1	590	705	62007	13.436	13.303	26.858
ProbeTrack14	6	ProbeTrack	14.0	SCS215a	20111122.133022	20111122.135025	8	0.013324	60	10	60-180	60	137	GapExp	Blank	0	187	2	45	0	target	0	45474	-1000	61007	13.328	13.105	13.544
ProbeTrack14	6	ProbeTrack	14.0	SCS215a	20111122.133022	20111122.135117	8	0.013324	60	10	60-180	60	84	GapExp	Blank	0	188	2	6	1	target	1	459	771	61778	13.328	6.831	19.824
ProbeTrack14	6	ProbeTrack	14.0	SCS215a	20111122.133022	20111122.135123	8	0.013324	60	10	60-180	60	151	GapExp	Blank	0	189	2	2	1	distractor	0	342	-1000	60778	13.378	13.097	23.343
ProbeTrack14	6	ProbeTrack	14.0	SCS215a	20111122.133022	20111122.135129	8	0.013324	60	10	60-180	60	178	GapExp	Blank	0	190	2	6	1	target	1	380	810	61588	13.328	5.532	21.123
ProbeTrack14	6	ProbeTrack	14.0	SCS215a	20111122.133022	20111122.135136	8	0.013324	60	10	60-180	60	70	GapExp	Blank	0	191	2	6	0	distractor	1	417	792	62380	13.328	13.106	13.551
ProbeTrack14	6	ProbeTrack	14.0	SCS215a	20111122.133022	20111122.135141	8	0.013324	60	10	60-180	60	171	GapExp	Blank	0	192	2	6	0	distractor	1	670	665	63045	13.328	7.437	19.220
ProbeTrack14	6	ProbeTrack	14.0	SCS215a	20111122.133022	20111122.135148	8	0.013324	60	10	60-180	60	146	GapExp	Blank	0	193	2	0	1	target	1	478	761	63806	13.328	7.350	19.309
ProbeTrack14	6	ProbeTrack	14.0	SCS215a	20111122.133022	20111122.135155	8	0.013324	60	10	60-180	60	74	GapExp	Blank	0	194	2	1	1	target	1	424	788	64594	13.328	12.125	14.536
ProbeTrack14	6	ProbeTrack	14.0	SCS215a	20111122.133022	20111122.135200	8	0.013324	60	10	60-180	60	77	GapExp	Blank	0	195	2	2	0	target	0	488	-1000	63594	13.328	13.308	13.349
ProbeTrack14	6	ProbeTrack	14.0	SCS215a	20111122.133022	20111122.135206	8	0.013324	60	10	60-180	60	95	GapExp	Blank	0	196	2	6	1	target	1	519	741	64335	13.328	13.304	13.346
ProbeTrack14	6	ProbeTrack	14.0	SCS215a	20111122.133022	20111122.135211	8	0.013324	60	10	60-180	60	82	GapExp	Blank	0	197	2	45	1	target	1	505	748	65083	13.435	13.100	33.481
ProbeTrack14	6	ProbeTrack	14.0	SCS215a	20111122.133022	20111122.135217	8	0.013324	60	10	60-180	60	159	GapExp	Blank	0	198	2	45	1	target	1	450	775	65858	13.349	11.964	21.490
ProbeTrack14	6	ProbeTrack	14.0	SCS215a	20111122.133022	20111122.135225	8	0.013324	60	10	60-180	60	63	GapExp	Blank	0	199	2	1	0	target	0	518	-1000	64858	13.328	5.760	20.897
ProbeTrack14	6	ProbeTrack	14.0	SCS215a	20111122.133022	20111122.135232	8	0.013324	60	10	60-180	60	121	GapExp	Blank	0	200	2	6	1	target	1	410	795	65653	13.328	12.962	13.677
ProbeTrack14	6	ProbeTrack	14.0	SCS215a	20111122.133022	20111122.135238	8	0.013324	60	10	60-180	60	92	GapExp	Blank	0	201	2	2	1	target	1	410	795	66448	13.328	5.822	20.846
ProbeTrack14	6	ProbeTrack	14.0	SCS215a	20111122.133022	20111122.135246	8	0.013324	60	10	60-180	60	100	GapExp	Blank	0	202	2	45	0	target	0	498	-1000	65448	13.328	13.114	13.543
ProbeTrack14	6	ProbeTrack	14.0	SCS215a	20111122.133022	20111122.135253	8	0.013324	60	10	60-180	60	87	GapExp	Blank	0	203	2	0	1	target	1	442	779	66227	13.456	13.100	26.544
ProbeTrack14	6	ProbeTrack	14.0	SCS215a	20111122.133022	20111122.135259	8	0.013324	60	10	60-180	60	155	GapExp	Blank	0	204	2	6	1	target	1	537	732	66959	13.328	13.086	13.557
ProbeTrack14	6	ProbeTrack	14.0	SCS215a	20111122.133022	20111122.135306	8	0.013324	60	10	60-180	60	120	GapExp	Blank	0	205	2	1	0	distractor	1	656	672	67631	13.328	13.105	13.562
ProbeTrack14	6	ProbeTrack	14.0	SCS215a	20111122.133022	20111122.135312	8	0.013324	60	10	60-180	60	127	GapExp	Blank	0	206	2	1	1	target	1	415	793	68424	13.328	13.304	13.353
ProbeTrack14	6	ProbeTrack	14.0	SCS215a	20111122.133022	20111122.135318	8	0.013324	60	10	60-180	60	84	GapExp	Blank	0	207	2	0	0	target	0	536	-1000	67424	13.391	5.402	21.241
ProbeTrack14	6	ProbeTrack	14.0	SCS215a	20111122.133022	20111122.135324	8	0.013324	60	10	60-180	60	83	GapExp	Blank	0	208	2	6	0	target	0	411	-1000	66424	13.328	13.307	13.344
ProbeTrack14	6	ProbeTrack	14.0	SCS215a	20111122.133022	20111122.135330	8	0.013324	60	10	60-180	60	114	GapExp	Blank	0	209	2	0	1	target	1	465	768	67192	13.328	13.307	13.345
ProbeTrack14	6	ProbeTrack	14.0	SCS215a	20111122.133022	20111122.135336	8	0.013324	60	10	60-180	60	151	GapExp	Blank	0	210	2	2	0	distractor	1	631	685	67877	13.328	13.099	13.557
ProbeTrack14	6	ProbeTrack	14.0	SCS215a	20111122.133022	20111122.135342	8	0.013324	60	10	60-180	60	129	GapExp	Blank	0	211	2	2	1	target	1	487	757	68634	13.328	13.292	13.353
ProbeTrack14	6	ProbeTrack	14.0	SCS215a	20111122.133022	20111122.135348	8	0.013324	60	10	60-180	60	128	GapExp	Blank	0	212	2	2	0	distractor	1	549	726	69360	13.328	13.090	13.552
ProbeTrack14	6	ProbeTrack	14.0	SCS215a	20111122.133022	20111122.135354	8	0.013324	60	10	60-180	60	63	GapExp	Blank	0	213	2	2	1	target	1	433	784	70144	13.328	6.319	20.343
ProbeTrack14	6	ProbeTrack	14.0	SCS215a	20111122.133022	20111122.135359	8	0.013324	60	10	60-180	60	122	GapExp	Blank	0	214	2	0	1	target	1	449	776	70920	13.328	11.675	14.986
ProbeTrack14	6	ProbeTrack	14.0	SCS215a	20111122.133022	20111122.135406	8	0.013324	60	10	60-180	60	82	GapExp	Blank	0	215	2	6	0	target	0	490	-1000	69920	13.328	13.180	13.477
ProbeTrack14	6	ProbeTrack	14.0	SCS215a	20111122.133022	20111122.135411	8	0.013324	60	10	60-180	60	86	GapExp	Blank	0	216	2	2	1	target	1	499	751	70671	13.328	10.063	16.593
ProbeTrack14	6	ProbeTrack	14.0	SCS215a	20111122.133022	20111122.135417	8	0.013324	60	10	60-180	60	165	GapExp	Blank	0	217	2	0	0	distractor	1	342	829	71500	13.328	12.045	14.599
ProbeTrack14	6	ProbeTrack	14.0	SCS215a	20111122.133022	20111122.135423	8	0.013324	60	10	60-180	60	180	GapExp	Blank	0	218	2	0	1	target	1	494	753	72253	13.328	13.106	13.536
ProbeTrack14	6	ProbeTrack	14.0	SCS215a	20111122.133022	20111122.135430	8	0.013324	60	10	60-180	60	153	GapExp	Blank	0	219	2	45	0	distractor	1	449	776	73029	13.328	13.087	13.551
ProbeTrack14	6	ProbeTrack	14.0	SCS215a	20111122.133022	20111122.135437	8	0.013324	60	10	60-180	60	102	GapExp	Blank	0	220	2	2	1	target	1	425	788	73817	13.388	9.679	26.337
ProbeTrack14	6	ProbeTrack	14.0	SCS215a	20111122.133022	20111122.135443	8	0.013324	60	10	60-180	60	85	GapExp	Blank	0	221	2	0	1	target	1	452	774	74591	13.393	13.026	26.665
ProbeTrack14	6	ProbeTrack	14.0	SCS215a	20111122.133022	20111122.135448	8	0.013324	60	10	60-180	60	133	GapExp	Blank	0	222	2	2	0	distractor	1	420	790	75381	13.328	12.589	14.069
ProbeTrack14	6	ProbeTrack	14.0	SCS215a	20111122.133022	20111122.135454	8	0.013324	60	10	60-180	60	157	GapExp	Blank	0	223	2	1	1	target	1	416	792	76173	13.328	9.989	16.679
ProbeTrack14	6	ProbeTrack	14.0	SCS215a	20111122.133022	20111122.135501	8	0.013324	60	10	60-180	60	130	GapExp	Blank	0	224	2	1	0	target	0	523	-1000	75173	13.328	10.235	16.428
ProbeTrack14	6	ProbeTrack	14.0	SCS215a	20111122.133022	20111122.135506	8	0.013324	60	10	60-180	60	168	GapExp	Blank	0	225	2	6	0	distractor	1	472	764	75937	13.328	11.818	14.840
ProbeTrack14	6	ProbeTrack	14.0	SCS215a	20111122.133022	20111122.135514	8	0.013324	60	10	60-180	60	115	GapExp	Blank	0	226	2	6	0	distractor	1	622	689	76626	13.328	7.804	18.858
ProbeTrack14	6	ProbeTrack	14.0	SCS215a	20111122.133022	20111122.135520	8	0.013324	60	10	60-180	60	163	GapExp	Blank	0	227	2	2	0	distractor	1	325	838	77464	13.328	9.539	17.117
ProbeTrack14	6	ProbeTrack	14.0	SCS215a	20111122.133022	20111122.135526	8	0.013324	60	10	60-180	60	146	GapExp	Blank	0	228	2	2	0	distractor	1	716	642	78106	13.328	10.877	15.775
ProbeTrack14	6	ProbeTrack	14.0	SCS215a	20111122.133022	20111122.135532	8	0.013324	60	10	60-180	60	171	GapExp	Blank	0	229	2	2	1	target	1	326	837	78943	13.328	10.106	16.543
ProbeTrack14	6	ProbeTrack	14.0	SCS215a	20111122.133022	20111122.135539	8	0.013324	60	10	60-180	60	124	GapExp	Blank	0	230	2	0	1	target	1	366	817	79760	13.328	11.953	14.710
ProbeTrack14	6	ProbeTrack	14.0	SCS215a	20111122.133022	20111122.135545	8	0.013324	60	10	60-180	60	115	GapExp	Blank	0	231	2	45	1	target	1	336	832	80592	13.328	2.735	23.901
ProbeTrack14	6	ProbeTrack	14.0	SCS215a	20111122.133022	20111122.135551	8	0.013324	60	10	60-180	60	126	GapExp	Blank	0	232	2	2	1	target	1	336	832	81424	13.328	10.184	16.472
ProbeTrack14	6	ProbeTrack	14.0	SCS215a	20111122.133022	20111122.135557	8	0.013324	60	10	60-180	60	162	GapExp	Blank	0	233	2	45	1	target	1	408	796	82220	13.369	11.450	26.514
ProbeTrack14	6	ProbeTrack	14.0	SCS215a	20111122.133022	20111122.135604	8	0.013324	60	10	60-180	60	155	GapExp	Blank	0	234	2	2	1	target	1	359	821	83041	13.377	11.653	22.867
ProbeTrack14	6	ProbeTrack	14.0	SCS215a	20111122.133022	20111122.135610	8	0.013324	60	10	60-180	60	95	GapExp	Blank	0	235	2	0	0	distractor	1	513	744	83785	13.328	13.098	13.550
ProbeTrack14	6	ProbeTrack	14.0	SCS215a	20111122.133022	20111122.135616	8	0.013324	60	10	60-180	60	169	GapExp	Blank	0	236	2	2	0	target	0	783	-1000	82785	13.328	11.900	14.755
ProbeTrack14	6	ProbeTrack	14.0	SCS215a	20111122.133022	20111122.135623	8	0.013324	60	10	60-180	60	90	GapExp	Blank	0	237	2	0	0	distractor	1	878	561	83346	13.328	13.003	13.654
ProbeTrack14	6	ProbeTrack	14.0	SCS215a	20111122.133022	20111122.135629	8	0.013324	60	10	60-180	60	174	GapExp	Blank	0	238	2	45	1	distractor	0	507	-1000	82346	13.367	12.288	26.871
ProbeTrack14	6	ProbeTrack	14.0	SCS215a	20111122.133022	20111122.135636	8	0.013324	60	10	60-180	60	138	GapExp	Blank	0	239	2	0	0	target	0	427	-1000	81346	13.328	11.303	15.483
ProbeTrack14	6	ProbeTrack	14.0	SCS215a	20111122.133022	20111122.135642	8	0.013324	60	10	60-180	60	168	GapExp	Blank	0	240	2	0	0	distractor	1	943	529	81875	13.328	9.804	16.856
ProbeTrack14	6	ProbeTrack	14.0	SCS215a	20111122.133022	20111122.135650	8	0.013324	60	10	60-180	60	124	GapExp	Blank	0	241	2	6	1	early	-4	-2687	-1000	80875	13.383	12.143	26.864
ProbeTrack14	6	ProbeTrack	14.0	SCS215a	20111122.133022	20111122.135655	8	0.013324	60	10	60-180	60	66	GapExp	Blank	0	242	2	6	1	target	1	338	831	81706	13.400	13.288	20.571
ProbeTrack14	6	ProbeTrack	14.0	SCS215a	20111122.133022	20111122.135701	8	0.013324	60	10	60-180	60	92	GapExp	Blank	0	243	2	0	1	target	1	445	778	82484	13.328	9.884	16.759
ProbeTrack14	6	ProbeTrack	14.0	SCS215a	20111122.133022	20111122.135706	8	0.013324	60	10	60-180	60	110	GapExp	Blank	0	244	2	45	1	target	1	586	707	83191	13.375	6.921	26.796
ProbeTrack14	6	ProbeTrack	14.0	SCS215a	20111122.133022	20111122.135713	8	0.013324	60	10	60-180	60	103	GapExp	Blank	0	245	2	45	0	distractor	1	515	743	83934	13.328	6.101	20.555
ProbeTrack14	6	ProbeTrack	14.0	SCS215a	20111122.133022	20111122.135719	8	0.013324	60	10	60-180	60	126	GapExp	Blank	0	246	2	0	0	distractor	1	371	815	84749	13.328	13.099	13.551
ProbeTrack14	6	ProbeTrack	14.0	SCS215a	20111122.133022	20111122.135726	8	0.013324	60	10	60-180	60	115	GapExp	Blank	0	247	2	6	1	distractor	0	601	-1000	83749	13.328	13.098	13.550
ProbeTrack14	6	ProbeTrack	14.0	SCS215a	20111122.133022	20111122.135731	8	0.013324	60	10	60-180	60	63	GapExp	Blank	0	248	2	2	1	target	1	322	839	84588	13.328	12.540	14.110
ProbeTrack14	6	ProbeTrack	14.0	SCS215a	20111122.133022	20111122.135736	8	0.013324	60	10	60-180	60	161	GapExp	Blank	0	249	2	6	1	target	1	342	829	85417	13.376	11.390	24.166
ProbeTrack14	6	ProbeTrack	14.0	SCS215a	20111122.133022	20111122.135743	8	0.013324	60	10	60-180	60	150	GapExp	Blank	0	250	2	45	1	distractor	0	435	-1000	84417	13.328	13.308	13.347
