exp	sub	code	rev	comp	runtime	trialtime	nstim	refreshdur	cuedur	gapdur	gapOnsetRange	durPostProbe	gapOnsetTime	blocktype	gaptype	prac	trial	ntargets	soa	probeTarget	resp	acc	rt	pts	tpts	meanFrameDur	minFrameDur	maxFrameDur
ProbeTrack14	1	ProbeTrack	14.0	SCS215a	20111118.090756	20111118.090942	8	0.013328	60	0	60-180	60	122	NoGap	None	1	1	2	6	1	target	1	2853	0	0	13.379	12.913	13.753
ProbeTrack14	1	ProbeTrack	14.0	SCS215a	20111118.090756	20111118.091027	8	0.013328	60	0	60-180	60	162	NoGap	None	1	2	2	0	0	distractor	1	672	664	664	13.420	13.277	39.971
ProbeTrack14	1	ProbeTrack	14.0	SCS215a	20111118.090756	20111118.091036	8	0.013328	60	0	60-180	60	98	NoGap	None	1	3	2	6	1	target	1	582	709	1373	13.328	13.307	13.345
ProbeTrack14	1	ProbeTrack	14.0	SCS215a	20111118.090756	20111118.091045	8	0.013328	60	0	60-180	60	136	NoGap	None	1	4	2	2	1	target	1	401	800	2173	13.328	13.114	13.545
ProbeTrack14	1	ProbeTrack	14.0	SCS215a	20111118.090756	20111118.091053	8	0.013328	60	0	60-180	60	150	NoGap	None	1	5	2	45	0	distractor	1	469	766	2939	13.327	13.264	13.420
ProbeTrack14	1	ProbeTrack	14.0	SCS215a	20111118.090756	20111118.091103	8	0.013328	60	0	60-180	60	110	NoGap	None	1	6	2	1	0	distractor	1	501	750	3689	13.328	13.288	13.363
ProbeTrack14	1	ProbeTrack	14.0	SCS215a	20111118.090756	20111118.091111	8	0.013328	60	0	60-180	60	117	NoGap	None	1	7	2	0	1	target	1	348	826	4515	13.328	13.308	13.347
ProbeTrack14	1	ProbeTrack	14.0	SCS215a	20111118.090756	20111118.091118	8	0.013328	60	0	60-180	60	167	NoGap	None	1	8	2	45	0	distractor	1	514	743	5258	13.328	12.856	13.795
ProbeTrack14	1	ProbeTrack	14.0	SCS215a	20111118.090756	20111118.091126	8	0.013328	60	0	60-180	60	68	NoGap	None	1	9	2	1	1	target	1	441	780	6038	13.328	13.111	13.558
ProbeTrack14	1	ProbeTrack	14.0	SCS215a	20111118.090756	20111118.091134	8	0.013328	60	0	60-180	60	117	NoGap	None	1	10	2	2	1	target	1	335	833	6871	13.328	13.098	13.550
ProbeTrack14	1	ProbeTrack	14.0	SCS215a	20111118.090756	20111118.091141	8	0.013328	60	0	60-180	60	155	NoGap	None	1	11	2	45	1	distractor	0	349	-1000	5871	13.328	13.032	13.745
ProbeTrack14	1	ProbeTrack	14.0	SCS215a	20111118.090756	20111118.091149	8	0.013328	60	0	60-180	60	88	NoGap	None	1	12	2	0	0	target	0	352	-1000	4871	13.328	12.966	13.698
ProbeTrack14	1	ProbeTrack	14.0	SCS215a	20111118.090756	20111118.091155	8	0.013328	60	0	60-180	60	164	NoGap	None	1	13	2	6	0	distractor	1	502	749	5620	13.328	12.978	13.678
ProbeTrack14	1	ProbeTrack	14.0	SCS215a	20111118.090756	20111118.091205	8	0.013328	60	0	60-180	60	96	NoGap	None	1	14	2	2	0	distractor	1	431	785	6405	13.328	13.303	13.348
ProbeTrack14	1	ProbeTrack	14.0	SCS215a	20111118.090756	20111118.091212	8	0.013328	60	0	60-180	60	77	NoGap	None	1	15	2	0	1	target	1	389	806	7211	13.328	12.976	13.684
ProbeTrack14	1	ProbeTrack	14.0	SCS215a	20111118.090756	20111118.091221	8	0.013328	60	0	60-180	60	105	NoGap	None	1	16	2	6	0	distractor	1	402	799	8010	13.328	13.311	13.348
ProbeTrack14	1	ProbeTrack	14.0	SCS215a	20111118.090756	20111118.091227	8	0.013328	60	0	60-180	60	178	NoGap	None	1	17	2	6	1	target	1	347	827	8837	13.328	13.308	13.345
ProbeTrack14	1	ProbeTrack	14.0	SCS215a	20111118.090756	20111118.091236	8	0.013328	60	0	60-180	60	158	NoGap	None	1	18	2	6	0	distractor	1	446	777	9614	13.328	13.307	13.354
ProbeTrack14	1	ProbeTrack	14.0	SCS215a	20111118.090756	20111118.091247	8	0.013328	60	0	60-180	60	155	NoGap	None	1	19	2	2	0	distractor	1	486	757	10371	13.328	13.284	13.364
ProbeTrack14	1	ProbeTrack	14.0	SCS215a	20111118.090756	20111118.091255	8	0.013328	60	0	60-180	60	173	NoGap	None	1	20	2	1	0	distractor	1	376	812	11183	13.328	13.088	13.567
ProbeTrack14	1	ProbeTrack	14.0	SCS215a	20111118.090756	20111118.091306	8	0.013328	60	0	60-180	60	112	NoGap	None	1	21	2	45	1	target	1	302	849	12032	13.328	13.082	13.604
ProbeTrack14	1	ProbeTrack	14.0	SCS215a	20111118.090756	20111118.091314	8	0.013328	60	0	60-180	60	171	NoGap	None	1	22	2	45	1	target	1	406	797	12829	13.328	12.918	13.731
ProbeTrack14	1	ProbeTrack	14.0	SCS215a	20111118.090756	20111118.091322	8	0.013328	60	0	60-180	60	174	NoGap	None	1	23	2	1	1	target	1	308	846	13675	13.328	13.309	13.348
ProbeTrack14	1	ProbeTrack	14.0	SCS215a	20111118.090756	20111118.091330	8	0.013328	60	0	60-180	60	90	NoGap	None	1	24	2	45	0	distractor	1	399	801	14476	13.328	13.025	13.620
ProbeTrack14	1	ProbeTrack	14.0	SCS215a	20111118.090756	20111118.091339	8	0.013328	60	0	60-180	60	178	NoGap	None	1	25	2	45	0	distractor	1	453	774	15250	13.328	12.869	13.789
ProbeTrack14	1	ProbeTrack	14.0	SCS215a	20111118.090756	20111118.091351	8	0.013328	60	0	60-180	60	167	NoGap	None	1	26	2	1	1	target	1	297	852	16102	13.328	12.898	13.788
ProbeTrack14	1	ProbeTrack	14.0	SCS215a	20111118.090756	20111118.091400	8	0.013328	60	0	60-180	60	106	NoGap	None	1	27	2	0	0	distractor	1	394	803	16905	13.328	12.947	13.717
ProbeTrack14	1	ProbeTrack	14.0	SCS215a	20111118.090756	20111118.091406	8	0.013328	60	0	60-180	60	89	NoGap	None	1	28	2	1	0	distractor	1	542	729	17634	13.328	13.307	13.356
ProbeTrack14	1	ProbeTrack	14.0	SCS215a	20111118.090756	20111118.091413	8	0.013328	60	0	60-180	60	115	NoGap	None	1	29	2	1	0	distractor	1	434	783	18417	13.328	12.972	13.696
ProbeTrack14	1	ProbeTrack	14.0	SCS215a	20111118.090756	20111118.091431	8	0.013328	60	0	60-180	60	77	NoGap	None	1	30	2	45	1	target	1	265	868	19285	13.328	12.858	13.605
ProbeTrack14	1	ProbeTrack	14.0	SCS215a	20111118.090756	20111118.091438	8	0.013328	60	0	60-180	60	80	NoGap	None	1	31	2	6	0	distractor	1	536	732	20017	13.328	12.866	13.794
ProbeTrack14	1	ProbeTrack	14.0	SCS215a	20111118.090756	20111118.091444	8	0.013328	60	0	60-180	60	123	NoGap	None	1	32	2	2	1	target	1	302	849	20866	13.328	13.098	13.558
ProbeTrack14	1	ProbeTrack	14.0	SCS215a	20111118.090756	20111118.091451	8	0.013328	60	0	60-180	60	75	NoGap	None	1	33	2	2	1	target	1	517	742	21608	13.328	13.112	13.552
ProbeTrack14	1	ProbeTrack	14.0	SCS215a	20111118.090756	20111118.091457	8	0.013328	60	0	60-180	60	127	NoGap	None	1	34	2	6	1	target	1	316	842	22450	13.328	13.097	13.558
ProbeTrack14	1	ProbeTrack	14.0	SCS215a	20111118.090756	20111118.091503	8	0.013328	60	0	60-180	60	148	NoGap	None	1	35	2	0	1	target	1	311	845	23295	13.328	12.913	13.756
ProbeTrack14	1	ProbeTrack	14.0	SCS215a	20111118.090756	20111118.091510	8	0.013328	60	0	60-180	60	71	NoGap	None	1	36	2	0	0	distractor	1	426	787	24082	13.328	13.107	13.559
ProbeTrack14	1	ProbeTrack	14.0	SCS215a	20111118.090756	20111118.091518	8	0.013328	60	0	60-180	60	110	NoGap	None	1	37	2	2	0	distractor	1	496	752	24834	13.328	13.105	13.571
ProbeTrack14	1	ProbeTrack	14.0	SCS215a	20111118.090756	20111118.091525	8	0.013328	60	0	60-180	60	99	NoGap	None	1	38	2	0	1	target	1	260	870	25704	13.328	12.932	13.726
ProbeTrack14	1	ProbeTrack	14.0	SCS215a	20111118.090756	20111118.091531	8	0.013328	60	0	60-180	60	162	NoGap	None	1	39	2	2	0	target	0	272	-1000	24704	13.328	13.278	13.379
ProbeTrack14	1	ProbeTrack	14.0	SCS215a	20111118.090756	20111118.091544	8	0.013328	60	0	60-180	60	163	NoGap	None	1	40	2	1	1	target	1	276	862	25566	13.328	13.118	13.544
ProbeTrack14	1	ProbeTrack	14.0	SCS215a	20111118.091755	20111118.091801	8	0.013318	60	10	60-180	60	146	GapPrac	Blank	1	1	2	2	1	target	1	836	582	26148	13.373	13.245	13.432
ProbeTrack14	1	ProbeTrack	14.0	SCS215a	20111118.091755	20111118.091811	8	0.013318	60	10	60-180	60	157	GapPrac	Blank	1	2	2	6	1	target	1	434	783	26931	13.328	10.387	16.281
ProbeTrack14	1	ProbeTrack	14.0	SCS215a	20111118.091755	20111118.091827	8	0.013318	60	10	60-180	60	71	GapPrac	Blank	1	3	2	1	0	distractor	1	634	683	27614	13.328	13.290	13.352
ProbeTrack14	1	ProbeTrack	14.0	SCS215a	20111118.091755	20111118.091833	8	0.013318	60	10	60-180	60	177	GapPrac	Blank	1	4	2	0	0	distractor	1	709	646	28260	13.328	13.111	13.545
ProbeTrack14	1	ProbeTrack	14.0	SCS215a	20111118.091755	20111118.091840	8	0.013318	60	10	60-180	60	139	GapPrac	Blank	1	5	2	2	1	target	1	448	776	29036	13.328	12.825	14.027
ProbeTrack14	1	ProbeTrack	14.0	SCS215a	20111118.091755	20111118.091850	8	0.013318	60	10	60-180	60	79	GapPrac	Blank	1	6	2	45	1	target	1	426	787	29823	13.328	12.653	14.006
ProbeTrack14	1	ProbeTrack	14.0	SCS215a	20111118.091755	20111118.091856	8	0.013318	60	10	60-180	60	130	GapPrac	Blank	1	7	2	2	0	distractor	1	590	705	30528	13.328	10.409	16.236
ProbeTrack14	1	ProbeTrack	14.0	SCS215a	20111118.091755	20111118.091903	8	0.013318	60	10	60-180	60	127	GapPrac	Blank	1	8	2	1	0	distractor	1	484	758	31286	13.328	12.948	13.701
ProbeTrack14	1	ProbeTrack	14.0	SCS215a	20111118.091755	20111118.091909	8	0.013318	60	10	60-180	60	143	GapPrac	Blank	1	9	2	45	1	target	1	486	757	32043	13.328	9.066	17.588
ProbeTrack14	1	ProbeTrack	14.0	SCS215a	20111118.091755	20111118.091922	8	0.013318	60	10	60-180	60	113	GapPrac	Blank	1	10	2	6	0	distractor	1	714	643	32686	13.328	13.297	13.358
ProbeTrack14	1	ProbeTrack	14.0	SCS215a	20111118.091755	20111118.091934	8	0.013318	60	10	60-180	60	87	GapPrac	Blank	1	11	2	45	0	distractor	1	532	734	33420	13.328	13.301	13.361
ProbeTrack14	1	ProbeTrack	14.0	SCS215a	20111118.091755	20111118.091946	8	0.013318	60	10	60-180	60	172	GapPrac	Blank	1	12	2	1	1	target	1	239	881	34301	13.328	7.455	19.214
ProbeTrack14	1	ProbeTrack	14.0	SCS215a	20111118.091755	20111118.092101	8	0.013318	60	10	60-180	60	162	GapPrac	Blank	1	13	2	6	1	target	1	349	826	35127	13.328	12.964	13.706
ProbeTrack14	1	ProbeTrack	14.0	SCS215a	20111118.091755	20111118.092108	8	0.013318	60	10	60-180	60	99	GapPrac	Blank	1	14	2	45	0	distractor	1	357	822	35949	13.328	8.736	18.143
ProbeTrack14	1	ProbeTrack	14.0	SCS215a	20111118.091755	20111118.092115	8	0.013318	60	10	60-180	60	150	GapPrac	Blank	1	15	2	0	1	target	1	303	849	36798	13.328	6.854	19.802
ProbeTrack14	1	ProbeTrack	14.0	SCS215a	20111118.091755	20111118.092121	8	0.013318	60	10	60-180	60	158	GapPrac	Blank	1	16	2	0	0	distractor	1	374	813	37611	13.328	13.105	13.556
ProbeTrack14	1	ProbeTrack	14.0	SCS215a	20111118.091755	20111118.092128	8	0.013318	60	10	60-180	60	75	GapPrac	Blank	1	17	2	1	1	target	1	304	848	38459	13.328	11.423	15.257
ProbeTrack14	1	ProbeTrack	14.0	SCS215a	20111118.091755	20111118.092134	8	0.013318	60	10	60-180	60	131	GapPrac	Blank	1	18	2	0	1	target	1	256	872	39331	13.328	11.488	15.180
ProbeTrack14	1	ProbeTrack	14.0	SCS215a	20111118.091755	20111118.092140	8	0.013318	60	10	60-180	60	100	GapPrac	Blank	1	19	2	2	0	distractor	1	290	855	40186	13.328	13.236	13.438
ProbeTrack14	1	ProbeTrack	14.0	SCS215a	20111118.091755	20111118.092146	8	0.013318	60	10	60-180	60	102	GapPrac	Blank	1	20	2	6	0	distractor	1	335	833	41019	13.328	12.603	14.045
ProbeTrack14	1	ProbeTrack	14.0	SCS215a	20111118.092215	20111118.092242	8	0.013328	60	10	60-180	60	65	GapExp	Blank	1	1	2	6	0	distractor	1	647	677	41696	13.393	12.855	13.803
ProbeTrack14	1	ProbeTrack	14.0	SCS215a	20111118.092215	20111118.092250	8	0.013328	60	10	60-180	60	76	GapExp	Blank	1	2	2	0	0	distractor	1	657	672	42368	13.328	13.277	13.386
ProbeTrack14	1	ProbeTrack	14.0	SCS215a	20111118.092215	20111118.092257	8	0.013328	60	10	60-180	60	82	GapExp	Blank	1	3	2	2	1	target	1	268	866	43234	13.328	12.990	13.663
ProbeTrack14	1	ProbeTrack	14.0	SCS215a	20111118.092215	20111118.092321	8	0.013328	60	10	60-180	60	89	GapExp	Blank	1	4	2	45	1	target	1	387	807	44041	13.328	13.108	13.561
ProbeTrack14	1	ProbeTrack	14.0	SCS215a	20111118.092215	20111118.092327	8	0.013328	60	10	60-180	60	124	GapExp	Blank	1	5	2	0	1	target	1	301	850	44891	13.328	13.021	13.629
ProbeTrack14	1	ProbeTrack	14.0	SCS215a	20111118.092215	20111118.092344	8	0.013328	60	10	60-180	60	95	GapExp	Blank	1	6	2	1	1	target	1	340	830	45721	13.328	13.105	13.551
ProbeTrack14	1	ProbeTrack	14.0	SCS215a	20111118.092215	20111118.092349	8	0.013328	60	10	60-180	60	156	GapExp	Blank	1	7	2	2	0	distractor	1	414	793	46514	13.328	13.091	13.571
ProbeTrack14	1	ProbeTrack	14.0	SCS215a	20111118.092215	20111118.092356	8	0.013328	60	10	60-180	60	167	GapExp	Blank	1	8	2	45	0	distractor	1	477	762	47276	13.328	12.994	13.659
ProbeTrack14	1	ProbeTrack	14.0	SCS215a	20111118.092215	20111118.092404	8	0.013328	60	10	60-180	60	168	GapExp	Blank	1	9	2	6	1	target	1	278	861	48137	13.328	12.877	13.793
ProbeTrack14	1	ProbeTrack	14.0	SCS215a	20111118.092215	20111118.092411	8	0.013328	60	10	60-180	60	115	GapExp	Blank	1	10	2	1	0	distractor	1	412	794	48931	13.328	12.894	13.763
ProbeTrack14	1	ProbeTrack	14.0	SCS215a	20111118.092215	20111118.092417	8	0.013328	60	10	60-180	60	71	GapExp	Blank	0	11	2	45	1	target	1	393	804	49735	13.328	13.092	13.550
ProbeTrack14	1	ProbeTrack	14.0	SCS215a	20111118.092215	20111118.092423	8	0.013328	60	10	60-180	60	167	GapExp	Blank	0	12	2	45	0	distractor	1	391	805	50540	13.328	12.901	13.805
ProbeTrack14	1	ProbeTrack	14.0	SCS215a	20111118.092215	20111118.092431	8	0.013328	60	10	60-180	60	135	GapExp	Blank	0	13	2	1	0	distractor	1	479	761	51301	13.328	12.885	13.787
ProbeTrack14	1	ProbeTrack	14.0	SCS215a	20111118.092215	20111118.092437	8	0.013328	60	10	60-180	60	132	GapExp	Blank	0	14	2	2	0	distractor	1	528	736	52037	13.328	12.887	13.805
ProbeTrack14	1	ProbeTrack	14.0	SCS215a	20111118.092215	20111118.092443	8	0.013328	60	10	60-180	60	179	GapExp	Blank	0	15	2	2	1	target	1	311	845	52882	13.328	12.884	13.785
ProbeTrack14	1	ProbeTrack	14.0	SCS215a	20111118.092215	20111118.092450	8	0.013328	60	10	60-180	60	78	GapExp	Blank	0	16	2	6	0	target	0	438	-1000	51882	13.328	13.311	13.345
ProbeTrack14	1	ProbeTrack	14.0	SCS215a	20111118.092215	20111118.092456	8	0.013328	60	10	60-180	60	125	GapExp	Blank	0	17	2	6	1	target	1	315	843	52725	13.328	12.885	13.776
ProbeTrack14	1	ProbeTrack	14.0	SCS215a	20111118.092215	20111118.092503	8	0.013328	60	10	60-180	60	154	GapExp	Blank	0	18	2	6	0	distractor	1	444	778	53503	13.328	13.021	13.627
ProbeTrack14	1	ProbeTrack	14.0	SCS215a	20111118.092215	20111118.092510	8	0.013328	60	10	60-180	60	171	GapExp	Blank	0	19	2	1	1	target	1	330	835	54338	13.328	13.300	13.349
ProbeTrack14	1	ProbeTrack	14.0	SCS215a	20111118.092215	20111118.092517	8	0.013328	60	10	60-180	60	69	GapExp	Blank	0	20	2	1	1	target	1	359	821	55159	13.328	13.308	13.344
ProbeTrack14	1	ProbeTrack	14.0	SCS215a	20111118.092215	20111118.092522	8	0.013328	60	10	60-180	60	110	GapExp	Blank	0	21	2	1	0	distractor	1	417	792	55951	13.328	13.310	13.344
ProbeTrack14	1	ProbeTrack	14.0	SCS215a	20111118.092215	20111118.092529	8	0.013328	60	10	60-180	60	134	GapExp	Blank	0	22	2	0	1	target	1	420	790	56741	13.328	13.096	13.560
ProbeTrack14	1	ProbeTrack	14.0	SCS215a	20111118.092215	20111118.092536	8	0.013328	60	10	60-180	60	110	GapExp	Blank	0	23	2	45	0	distractor	1	456	772	57513	13.328	13.108	13.549
ProbeTrack14	1	ProbeTrack	14.0	SCS215a	20111118.092215	20111118.092542	8	0.013328	60	10	60-180	60	139	GapExp	Blank	0	24	2	6	1	target	1	294	853	58366	13.328	12.933	13.725
ProbeTrack14	1	ProbeTrack	14.0	SCS215a	20111118.092215	20111118.092549	8	0.013328	60	10	60-180	60	67	GapExp	Blank	0	25	2	0	0	distractor	1	848	576	58942	13.328	12.951	13.705
ProbeTrack14	1	ProbeTrack	14.0	SCS215a	20111118.092215	20111118.092555	8	0.013328	60	10	60-180	60	126	GapExp	Blank	0	26	2	2	1	target	1	276	862	59804	13.328	13.099	13.552
ProbeTrack14	1	ProbeTrack	14.0	SCS215a	20111118.092215	20111118.092602	8	0.013328	60	10	60-180	60	139	GapExp	Blank	0	27	2	0	1	target	1	309	846	60650	13.328	13.085	13.564
ProbeTrack14	1	ProbeTrack	14.0	SCS215a	20111118.092215	20111118.092609	8	0.013328	60	10	60-180	60	101	GapExp	Blank	0	28	2	6	1	target	1	340	830	61480	13.328	13.106	13.538
ProbeTrack14	1	ProbeTrack	14.0	SCS215a	20111118.092215	20111118.092615	8	0.013328	60	10	60-180	60	108	GapExp	Blank	0	29	2	1	1	target	1	245	878	62358	13.328	13.303	13.343
ProbeTrack14	1	ProbeTrack	14.0	SCS215a	20111118.092215	20111118.092621	8	0.013328	60	10	60-180	60	134	GapExp	Blank	0	30	2	6	1	target	1	297	852	63210	13.328	13.307	13.345
ProbeTrack14	1	ProbeTrack	14.0	SCS215a	20111118.092215	20111118.092627	8	0.013328	60	10	60-180	60	166	GapExp	Blank	0	31	2	45	0	distractor	1	486	757	63967	13.328	13.309	13.348
ProbeTrack14	1	ProbeTrack	14.0	SCS215a	20111118.092215	20111118.092635	8	0.013328	60	10	60-180	60	63	GapExp	Blank	0	32	2	2	1	target	1	376	812	64779	13.328	13.304	13.349
ProbeTrack14	1	ProbeTrack	14.0	SCS215a	20111118.092215	20111118.092641	8	0.013328	60	10	60-180	60	147	GapExp	Blank	0	33	2	2	1	target	1	382	809	65588	13.328	13.301	13.354
ProbeTrack14	1	ProbeTrack	14.0	SCS215a	20111118.092215	20111118.092648	8	0.013328	60	10	60-180	60	84	GapExp	Blank	0	34	2	45	1	target	1	380	810	66398	13.328	13.309	13.346
ProbeTrack14	1	ProbeTrack	14.0	SCS215a	20111118.092215	20111118.092655	8	0.013328	60	10	60-180	60	153	GapExp	Blank	0	35	2	6	0	distractor	1	484	758	67156	13.328	13.308	13.352
ProbeTrack14	1	ProbeTrack	14.0	SCS215a	20111118.092215	20111118.092701	8	0.013328	60	10	60-180	60	96	GapExp	Blank	0	36	2	6	0	target	0	344	-1000	66156	13.328	13.165	13.521
ProbeTrack14	1	ProbeTrack	14.0	SCS215a	20111118.092215	20111118.092707	8	0.013328	60	10	60-180	60	171	GapExp	Blank	0	37	2	0	1	target	1	359	821	66977	13.328	13.307	13.346
ProbeTrack14	1	ProbeTrack	14.0	SCS215a	20111118.092215	20111118.092716	8	0.013328	60	10	60-180	60	131	GapExp	Blank	0	38	2	0	1	target	1	470	765	67742	13.328	13.309	13.349
ProbeTrack14	1	ProbeTrack	14.0	SCS215a	20111118.092215	20111118.092722	8	0.013328	60	10	60-180	60	147	GapExp	Blank	0	39	2	0	0	distractor	1	539	731	68473	13.328	13.310	13.347
ProbeTrack14	1	ProbeTrack	14.0	SCS215a	20111118.092215	20111118.092729	8	0.013328	60	10	60-180	60	145	GapExp	Blank	0	40	2	45	1	target	1	326	837	69310	13.328	12.882	13.779
ProbeTrack14	1	ProbeTrack	14.0	SCS215a	20111118.092215	20111118.092736	8	0.013328	60	10	60-180	60	71	GapExp	Blank	0	41	2	2	0	distractor	1	521	740	70050	13.328	12.919	13.730
ProbeTrack14	1	ProbeTrack	14.0	SCS215a	20111118.092215	20111118.092741	8	0.013328	60	10	60-180	60	168	GapExp	Blank	0	42	2	6	0	distractor	1	392	804	70854	13.328	13.101	13.543
ProbeTrack14	1	ProbeTrack	14.0	SCS215a	20111118.092215	20111118.092748	8	0.013328	60	10	60-180	60	108	GapExp	Blank	0	43	2	1	1	target	1	287	857	71711	13.328	13.093	13.544
ProbeTrack14	1	ProbeTrack	14.0	SCS215a	20111118.092215	20111118.092754	8	0.013328	60	10	60-180	60	97	GapExp	Blank	0	44	2	45	1	target	1	392	804	72515	13.328	13.297	13.345
ProbeTrack14	1	ProbeTrack	14.0	SCS215a	20111118.092215	20111118.092800	8	0.013328	60	10	60-180	60	62	GapExp	Blank	0	45	2	0	0	distractor	1	466	767	73282	13.328	13.308	13.344
ProbeTrack14	1	ProbeTrack	14.0	SCS215a	20111118.092215	20111118.092805	8	0.013328	60	10	60-180	60	65	GapExp	Blank	0	46	2	45	1	target	1	315	843	74125	13.328	13.310	13.346
ProbeTrack14	1	ProbeTrack	14.0	SCS215a	20111118.092215	20111118.092811	8	0.013328	60	10	60-180	60	129	GapExp	Blank	0	47	2	45	1	target	1	340	830	74955	13.328	12.873	13.646
ProbeTrack14	1	ProbeTrack	14.0	SCS215a	20111118.092215	20111118.092818	8	0.013328	60	10	60-180	60	176	GapExp	Blank	0	48	2	2	1	distractor	0	309	-1000	73955	13.328	12.957	13.681
ProbeTrack14	1	ProbeTrack	14.0	SCS215a	20111118.092215	20111118.092825	8	0.013328	60	10	60-180	60	166	GapExp	Blank	0	49	2	45	1	distractor	0	431	-1000	72955	13.328	12.873	13.786
ProbeTrack14	1	ProbeTrack	14.0	SCS215a	20111118.092215	20111118.092836	8	0.013328	60	10	60-180	60	69	GapExp	Blank	0	50	2	1	1	target	1	418	791	73746	13.328	12.873	13.783
ProbeTrack14	1	ProbeTrack	14.0	SCS215a	20111118.092215	20111118.092842	8	0.013328	60	10	60-180	60	130	GapExp	Blank	0	51	2	6	1	target	1	301	850	74596	13.328	13.308	13.348
ProbeTrack14	1	ProbeTrack	14.0	SCS215a	20111118.092215	20111118.092853	8	0.013328	60	10	60-180	60	67	GapExp	Blank	0	52	2	45	0	distractor	1	483	759	75355	13.328	13.309	13.349
ProbeTrack14	1	ProbeTrack	14.0	SCS215a	20111118.092215	20111118.092858	8	0.013328	60	10	60-180	60	71	GapExp	Blank	0	53	2	0	0	target	0	635	-1000	74355	13.328	13.110	13.550
ProbeTrack14	1	ProbeTrack	14.0	SCS215a	20111118.092215	20111118.092904	8	0.013328	60	10	60-180	60	93	GapExp	Blank	0	54	2	2	1	target	1	571	715	75070	13.328	13.308	13.345
ProbeTrack14	1	ProbeTrack	14.0	SCS215a	20111118.092215	20111118.092910	8	0.013328	60	10	60-180	60	63	GapExp	Blank	0	55	2	45	1	target	1	309	846	75916	13.328	13.310	13.346
ProbeTrack14	1	ProbeTrack	14.0	SCS215a	20111118.092215	20111118.092916	8	0.013328	60	10	60-180	60	171	GapExp	Blank	0	56	2	2	0	distractor	1	420	790	76706	13.328	13.304	13.359
ProbeTrack14	1	ProbeTrack	14.0	SCS215a	20111118.092215	20111118.092923	8	0.013328	60	10	60-180	60	118	GapExp	Blank	0	57	2	0	1	target	1	583	709	77415	13.328	13.303	13.344
ProbeTrack14	1	ProbeTrack	14.0	SCS215a	20111118.092215	20111118.092929	8	0.013328	60	10	60-180	60	86	GapExp	Blank	0	58	2	2	0	distractor	1	488	756	78171	13.328	13.308	13.348
ProbeTrack14	1	ProbeTrack	14.0	SCS215a	20111118.092215	20111118.092934	8	0.013328	60	10	60-180	60	125	GapExp	Blank	0	59	2	1	1	target	1	298	851	79022	13.328	13.110	13.560
ProbeTrack14	1	ProbeTrack	14.0	SCS215a	20111118.092215	20111118.092940	8	0.013328	60	10	60-180	60	171	GapExp	Blank	0	60	2	2	0	distractor	1	412	794	79816	13.328	13.111	13.538
ProbeTrack14	1	ProbeTrack	14.0	SCS215a	20111118.092215	20111118.092947	8	0.013328	60	10	60-180	60	87	GapExp	Blank	0	61	2	0	0	distractor	1	583	709	80525	13.328	13.085	13.564
ProbeTrack14	1	ProbeTrack	14.0	SCS215a	20111118.092215	20111118.092953	8	0.013328	60	10	60-180	60	88	GapExp	Blank	0	62	2	1	1	target	1	298	851	81376	13.328	13.308	13.344
ProbeTrack14	1	ProbeTrack	14.0	SCS215a	20111118.092215	20111118.092959	8	0.013328	60	10	60-180	60	123	GapExp	Blank	0	63	2	0	0	distractor	1	714	643	82019	13.328	13.312	13.349
ProbeTrack14	1	ProbeTrack	14.0	SCS215a	20111118.092215	20111118.093005	8	0.013328	60	10	60-180	60	139	GapExp	Blank	0	64	2	0	1	target	1	683	659	82678	13.328	13.308	13.346
ProbeTrack14	1	ProbeTrack	14.0	SCS215a	20111118.092215	20111118.093011	8	0.013328	60	10	60-180	60	95	GapExp	Blank	0	65	2	1	0	distractor	1	718	641	83319	13.328	12.896	13.777
ProbeTrack14	1	ProbeTrack	14.0	SCS215a	20111118.092215	20111118.093017	8	0.013328	60	10	60-180	60	103	GapExp	Blank	0	66	2	0	1	target	1	366	817	84136	13.328	13.102	13.544
ProbeTrack14	1	ProbeTrack	14.0	SCS215a	20111118.092215	20111118.093023	8	0.013328	60	10	60-180	60	122	GapExp	Blank	0	67	2	6	0	target	0	655	-1000	83136	13.328	13.278	13.379
ProbeTrack14	1	ProbeTrack	14.0	SCS215a	20111118.092215	20111118.093031	8	0.013328	60	10	60-180	60	167	GapExp	Blank	0	68	2	6	0	distractor	1	674	663	83799	13.328	12.865	13.758
ProbeTrack14	1	ProbeTrack	14.0	SCS215a	20111118.092215	20111118.093038	8	0.013328	60	10	60-180	60	104	GapExp	Blank	0	69	2	0	0	distractor	1	516	742	84541	13.328	13.110	13.546
ProbeTrack14	1	ProbeTrack	14.0	SCS215a	20111118.092215	20111118.093044	8	0.013328	60	10	60-180	60	143	GapExp	Blank	0	70	2	45	0	distractor	1	650	675	85216	13.328	13.011	13.640
ProbeTrack14	1	ProbeTrack	14.0	SCS215a	20111118.092215	20111118.093051	8	0.013328	60	10	60-180	60	71	GapExp	Blank	0	71	2	45	0	distractor	1	680	660	85876	13.328	13.113	13.557
ProbeTrack14	1	ProbeTrack	14.0	SCS215a	20111118.092215	20111118.093058	8	0.013328	60	10	60-180	60	71	GapExp	Blank	0	72	2	0	1	target	1	368	816	86692	13.328	13.085	13.565
ProbeTrack14	1	ProbeTrack	14.0	SCS215a	20111118.092215	20111118.093103	8	0.013328	60	10	60-180	60	138	GapExp	Blank	0	73	2	1	1	target	1	385	808	87500	13.380	12.972	26.726
ProbeTrack14	1	ProbeTrack	14.0	SCS215a	20111118.092215	20111118.093109	8	0.013328	60	10	60-180	60	168	GapExp	Blank	0	74	2	45	0	distractor	1	432	784	88284	13.328	13.095	13.567
ProbeTrack14	1	ProbeTrack	14.0	SCS215a	20111118.092215	20111118.093117	8	0.013328	60	10	60-180	60	120	GapExp	Blank	0	75	2	6	1	target	1	403	799	89083	13.328	13.307	13.348
ProbeTrack14	1	ProbeTrack	14.0	SCS215a	20111118.092215	20111118.093123	8	0.013328	60	10	60-180	60	163	GapExp	Blank	0	76	2	0	1	target	1	300	850	89933	13.328	13.304	13.358
ProbeTrack14	1	ProbeTrack	14.0	SCS215a	20111118.092215	20111118.093130	8	0.013328	60	10	60-180	60	180	GapExp	Blank	0	77	2	2	0	distractor	1	514	743	90676	13.328	13.297	13.371
ProbeTrack14	1	ProbeTrack	14.0	SCS215a	20111118.092215	20111118.093137	8	0.013328	60	10	60-180	60	167	GapExp	Blank	0	78	2	6	1	target	1	398	801	91477	13.328	13.307	13.361
ProbeTrack14	1	ProbeTrack	14.0	SCS215a	20111118.092215	20111118.093144	8	0.013328	60	10	60-180	60	105	GapExp	Blank	0	79	2	45	1	target	1	409	796	92273	13.328	13.305	13.352
ProbeTrack14	1	ProbeTrack	14.0	SCS215a	20111118.092215	20111118.093150	8	0.013328	60	10	60-180	60	161	GapExp	Blank	0	80	2	2	0	distractor	1	372	814	93087	13.328	13.204	13.448
ProbeTrack14	1	ProbeTrack	14.0	SCS215a	20111118.092215	20111118.093157	8	0.013328	60	10	60-180	60	108	GapExp	Blank	0	81	2	0	1	target	1	479	761	93848	13.328	13.313	13.344
ProbeTrack14	1	ProbeTrack	14.0	SCS215a	20111118.092215	20111118.093203	8	0.013328	60	10	60-180	60	146	GapExp	Blank	0	82	2	0	1	distractor	0	437	-1000	92848	13.328	13.298	13.358
ProbeTrack14	1	ProbeTrack	14.0	SCS215a	20111118.092215	20111118.093210	8	0.013328	60	10	60-180	60	139	GapExp	Blank	0	83	2	0	1	target	1	344	828	93676	13.328	13.312	13.347
ProbeTrack14	1	ProbeTrack	14.0	SCS215a	20111118.092215	20111118.093216	8	0.013328	60	10	60-180	60	123	GapExp	Blank	0	84	2	0	0	distractor	1	692	654	94330	13.328	12.860	13.800
ProbeTrack14	1	ProbeTrack	14.0	SCS215a	20111118.092215	20111118.093222	8	0.013328	60	10	60-180	60	99	GapExp	Blank	0	85	2	2	1	target	1	357	822	95152	13.328	13.274	13.381
ProbeTrack14	1	ProbeTrack	14.0	SCS215a	20111118.092215	20111118.093227	8	0.013328	60	10	60-180	60	130	GapExp	Blank	0	86	2	2	0	distractor	1	706	647	95799	13.328	13.108	13.545
ProbeTrack14	1	ProbeTrack	14.0	SCS215a	20111118.092215	20111118.093234	8	0.013328	60	10	60-180	60	108	GapExp	Blank	0	87	2	45	0	distractor	1	465	768	96567	13.328	13.098	13.551
ProbeTrack14	1	ProbeTrack	14.0	SCS215a	20111118.092215	20111118.093241	8	0.013328	60	10	60-180	60	71	GapExp	Blank	0	88	2	1	0	target	0	377	-1000	95567	13.328	13.313	13.351
ProbeTrack14	1	ProbeTrack	14.0	SCS215a	20111118.092215	20111118.093246	8	0.013328	60	10	60-180	60	117	GapExp	Blank	0	89	2	0	0	target	0	341	-1000	94567	13.328	12.837	13.808
ProbeTrack14	1	ProbeTrack	14.0	SCS215a	20111118.092215	20111118.093252	8	0.013328	60	10	60-180	60	72	GapExp	Blank	0	90	2	2	1	target	1	381	810	95377	13.328	13.310	13.347
ProbeTrack14	1	ProbeTrack	14.0	SCS215a	20111118.092215	20111118.093258	8	0.013328	60	10	60-180	60	132	GapExp	Blank	0	91	2	2	0	distractor	1	453	774	96151	13.328	12.831	13.814
ProbeTrack14	1	ProbeTrack	14.0	SCS215a	20111118.092215	20111118.093303	8	0.013328	60	10	60-180	60	155	GapExp	Blank	0	92	2	45	0	distractor	1	493	754	96905	13.328	13.085	13.572
ProbeTrack14	1	ProbeTrack	14.0	SCS215a	20111118.092215	20111118.093311	8	0.013328	60	10	60-180	60	180	GapExp	Blank	0	93	2	1	0	distractor	1	408	796	97701	13.328	13.104	13.563
ProbeTrack14	1	ProbeTrack	14.0	SCS215a	20111118.092215	20111118.093318	8	0.013328	60	10	60-180	60	151	GapExp	Blank	0	94	2	6	1	target	1	475	763	98464	13.328	13.091	13.558
ProbeTrack14	1	ProbeTrack	14.0	SCS215a	20111118.092215	20111118.093325	8	0.013328	60	10	60-180	60	166	GapExp	Blank	0	95	2	0	0	distractor	1	531	735	99199	13.328	13.097	13.559
ProbeTrack14	1	ProbeTrack	14.0	SCS215a	20111118.092215	20111118.093332	8	0.013328	60	10	60-180	60	107	GapExp	Blank	0	96	2	0	0	target	0	553	-1000	98199	13.328	12.858	13.801
ProbeTrack14	1	ProbeTrack	14.0	SCS215a	20111118.092215	20111118.093339	8	0.013328	60	10	60-180	60	143	GapExp	Blank	0	97	2	6	1	target	1	450	775	98974	13.328	13.102	13.544
ProbeTrack14	1	ProbeTrack	14.0	SCS215a	20111118.092215	20111118.093346	8	0.013328	60	10	60-180	60	159	GapExp	Blank	0	98	2	6	0	distractor	1	430	785	99759	13.328	13.313	13.344
ProbeTrack14	1	ProbeTrack	14.0	SCS215a	20111118.092215	20111118.093354	8	0.013328	60	10	60-180	60	159	GapExp	Blank	0	99	2	6	0	distractor	1	601	700	100459	13.328	13.097	13.552
ProbeTrack14	1	ProbeTrack	14.0	SCS215a	20111118.092215	20111118.093401	8	0.013328	60	10	60-180	60	93	GapExp	Blank	0	100	2	0	0	distractor	1	939	531	100990	13.328	13.309	13.344
ProbeTrack14	1	ProbeTrack	14.0	SCS215a	20111118.092215	20111118.093409	8	0.013328	60	10	60-180	60	128	GapExp	Blank	0	101	2	6	0	distractor	1	452	774	101764	13.328	12.957	13.694
ProbeTrack14	1	ProbeTrack	14.0	SCS215a	20111118.092215	20111118.093441	8	0.013328	60	10	60-180	60	96	GapExp	Blank	0	102	2	45	0	distractor	1	434	783	102547	13.328	13.105	13.546
ProbeTrack14	1	ProbeTrack	14.0	SCS215a	20111118.092215	20111118.093447	8	0.013328	60	10	60-180	60	180	GapExp	Blank	0	103	2	45	1	distractor	0	433	-1000	101547	13.328	13.101	13.565
ProbeTrack14	1	ProbeTrack	14.0	SCS215a	20111118.092215	20111118.093454	8	0.013328	60	10	60-180	60	91	GapExp	Blank	0	104	2	0	0	distractor	1	742	629	102176	13.328	13.111	13.559
ProbeTrack14	1	ProbeTrack	14.0	SCS215a	20111118.092215	20111118.093501	8	0.013328	60	10	60-180	60	175	GapExp	Blank	0	105	2	0	0	distractor	1	403	799	102975	13.328	13.112	13.543
ProbeTrack14	1	ProbeTrack	14.0	SCS215a	20111118.092215	20111118.093508	8	0.013328	60	10	60-180	60	87	GapExp	Blank	0	106	2	0	1	target	1	503	749	103724	13.328	13.306	13.352
ProbeTrack14	1	ProbeTrack	14.0	SCS215a	20111118.092215	20111118.093514	8	0.013328	60	10	60-180	60	180	GapExp	Blank	0	107	2	2	0	distractor	1	323	839	104563	13.328	13.303	13.346
ProbeTrack14	1	ProbeTrack	14.0	SCS215a	20111118.092215	20111118.093521	8	0.013328	60	10	60-180	60	126	GapExp	Blank	0	108	2	45	0	distractor	1	380	810	105373	13.328	13.109	13.538
ProbeTrack14	1	ProbeTrack	14.0	SCS215a	20111118.092215	20111118.093606	8	0.013328	60	10	60-180	60	133	GapExp	Blank	0	109	2	1	0	distractor	1	470	765	106138	13.328	13.097	13.564
ProbeTrack14	1	ProbeTrack	14.0	SCS215a	20111118.092215	20111118.093613	8	0.013328	60	10	60-180	60	158	GapExp	Blank	0	110	2	1	1	target	1	295	853	106991	13.328	12.861	13.794
ProbeTrack14	1	ProbeTrack	14.0	SCS215a	20111118.092215	20111118.093619	8	0.013328	60	10	60-180	60	124	GapExp	Blank	0	111	2	6	0	distractor	1	385	808	107799	13.328	13.310	13.343
ProbeTrack14	1	ProbeTrack	14.0	SCS215a	20111118.092215	20111118.093625	8	0.013328	60	10	60-180	60	88	GapExp	Blank	0	112	2	1	1	distractor	0	364	-1000	106799	13.328	13.066	13.605
ProbeTrack14	1	ProbeTrack	14.0	SCS215a	20111118.092215	20111118.093630	8	0.013328	60	10	60-180	60	160	GapExp	Blank	0	113	2	0	1	target	1	322	839	107638	13.328	13.310	13.348
ProbeTrack14	1	ProbeTrack	14.0	SCS215a	20111118.092215	20111118.093637	8	0.013328	60	10	60-180	60	153	GapExp	Blank	0	114	2	1	0	distractor	1	451	775	108413	13.328	13.301	13.356
ProbeTrack14	1	ProbeTrack	14.0	SCS215a	20111118.092215	20111118.093644	8	0.013328	60	10	60-180	60	90	GapExp	Blank	0	115	2	45	1	distractor	0	429	-1000	107413	13.328	13.308	13.346
ProbeTrack14	1	ProbeTrack	14.0	SCS215a	20111118.092215	20111118.093650	8	0.013328	60	10	60-180	60	86	GapExp	Blank	0	116	2	2	1	target	1	509	746	108159	13.328	13.308	13.349
ProbeTrack14	1	ProbeTrack	14.0	SCS215a	20111118.092215	20111118.093656	8	0.013328	60	10	60-180	60	149	GapExp	Blank	0	117	2	2	0	distractor	1	445	778	108937	13.328	13.306	13.347
ProbeTrack14	1	ProbeTrack	14.0	SCS215a	20111118.092215	20111118.093702	8	0.013328	60	10	60-180	60	163	GapExp	Blank	0	118	2	2	1	target	1	321	840	109777	13.328	13.093	13.571
ProbeTrack14	1	ProbeTrack	14.0	SCS215a	20111118.092215	20111118.093709	8	0.013328	60	10	60-180	60	114	GapExp	Blank	0	119	2	1	0	distractor	1	285	858	110635	13.328	13.108	13.563
ProbeTrack14	1	ProbeTrack	14.0	SCS215a	20111118.092215	20111118.093715	8	0.013328	60	10	60-180	60	102	GapExp	Blank	0	120	2	1	0	distractor	1	378	811	111446	13.328	13.106	13.565
ProbeTrack14	1	ProbeTrack	14.0	SCS215a	20111118.092215	20111118.093721	8	0.013328	60	10	60-180	60	94	GapExp	Blank	0	121	2	0	1	target	1	441	780	112226	13.328	13.290	13.367
ProbeTrack14	1	ProbeTrack	14.0	SCS215a	20111118.092215	20111118.093726	8	0.013328	60	10	60-180	60	72	GapExp	Blank	0	122	2	45	0	distractor	1	402	799	113025	13.328	13.287	13.356
ProbeTrack14	1	ProbeTrack	14.0	SCS215a	20111118.092215	20111118.093732	8	0.013328	60	10	60-180	60	174	GapExp	Blank	0	123	2	2	0	distractor	1	376	812	113837	13.328	13.044	13.600
ProbeTrack14	1	ProbeTrack	14.0	SCS215a	20111118.092215	20111118.093739	8	0.013328	60	10	60-180	60	173	GapExp	Blank	0	124	2	1	0	distractor	1	365	818	114655	13.328	13.309	13.348
ProbeTrack14	1	ProbeTrack	14.0	SCS215a	20111118.092215	20111118.093746	8	0.013328	60	10	60-180	60	116	GapExp	Blank	0	125	2	2	0	distractor	1	391	805	115460	13.328	13.233	13.430
ProbeTrack14	1	ProbeTrack	14.0	SCS215a	20111118.092215	20111118.093752	8	0.013328	60	10	60-180	60	157	GapExp	Blank	0	126	2	45	1	target	1	402	799	116259	13.328	12.929	13.734
ProbeTrack14	1	ProbeTrack	14.0	SCS215a	20111118.092215	20111118.093759	8	0.013328	60	10	60-180	60	158	GapExp	Blank	0	127	2	1	1	target	1	432	784	117043	13.328	13.307	13.355
ProbeTrack14	1	ProbeTrack	14.0	SCS215a	20111118.092215	20111118.093805	8	0.013328	60	10	60-180	60	170	GapExp	Blank	0	128	2	2	1	target	1	462	769	117812	13.328	12.909	13.747
ProbeTrack14	1	ProbeTrack	14.0	SCS215a	20111118.092215	20111118.093812	8	0.013328	60	10	60-180	60	61	GapExp	Blank	0	129	2	0	0	target	0	429	-1000	116812	13.328	13.099	13.564
ProbeTrack14	1	ProbeTrack	14.0	SCS215a	20111118.092215	20111118.093818	8	0.013328	60	10	60-180	60	61	GapExp	Blank	0	130	2	2	1	target	1	437	782	117594	13.328	13.307	13.349
ProbeTrack14	1	ProbeTrack	14.0	SCS215a	20111118.092215	20111118.093823	8	0.013328	60	10	60-180	60	88	GapExp	Blank	0	131	2	6	1	target	1	368	816	118410	13.328	12.930	13.726
ProbeTrack14	1	ProbeTrack	14.0	SCS215a	20111118.092215	20111118.093828	8	0.013328	60	10	60-180	60	72	GapExp	Blank	0	132	2	0	0	distractor	1	474	763	119173	13.328	13.308	13.347
ProbeTrack14	1	ProbeTrack	14.0	SCS215a	20111118.092215	20111118.093834	8	0.013328	60	10	60-180	60	161	GapExp	Blank	0	133	2	2	1	target	1	292	854	120027	13.328	13.305	13.345
ProbeTrack14	1	ProbeTrack	14.0	SCS215a	20111118.092215	20111118.093840	8	0.013328	60	10	60-180	60	103	GapExp	Blank	0	134	2	1	0	distractor	1	489	756	120783	13.328	13.107	13.545
ProbeTrack14	1	ProbeTrack	14.0	SCS215a	20111118.092215	20111118.093846	8	0.013328	60	10	60-180	60	145	GapExp	Blank	0	135	2	1	0	distractor	1	441	780	121563	13.328	13.106	13.556
ProbeTrack14	1	ProbeTrack	14.0	SCS215a	20111118.092215	20111118.093923	8	0.013328	60	10	60-180	60	82	GapExp	Blank	0	136	2	45	1	target	1	416	792	122355	13.328	12.866	13.738
ProbeTrack14	1	ProbeTrack	14.0	SCS215a	20111118.092215	20111118.093932	8	0.013328	60	10	60-180	60	104	GapExp	Blank	0	137	2	45	0	distractor	1	380	810	123165	13.328	13.307	13.348
ProbeTrack14	1	ProbeTrack	14.0	SCS215a	20111118.092215	20111118.093946	8	0.013328	60	10	60-180	60	178	GapExp	Blank	0	138	2	6	0	distractor	1	407	797	123962	13.328	13.197	13.466
ProbeTrack14	1	ProbeTrack	14.0	SCS215a	20111118.092215	20111118.093953	8	0.013328	60	10	60-180	60	108	GapExp	Blank	0	139	2	1	1	target	1	448	776	124738	13.328	13.300	13.350
ProbeTrack14	1	ProbeTrack	14.0	SCS215a	20111118.092215	20111118.093959	8	0.013328	60	10	60-180	60	141	GapExp	Blank	0	140	2	0	0	distractor	1	394	803	125541	13.328	12.964	13.703
ProbeTrack14	1	ProbeTrack	14.0	SCS215a	20111118.092215	20111118.094006	8	0.013328	60	10	60-180	60	97	GapExp	Blank	0	141	2	0	0	target	0	446	-1000	124541	13.328	12.899	13.750
ProbeTrack14	1	ProbeTrack	14.0	SCS215a	20111118.092215	20111118.094018	8	0.013328	60	10	60-180	60	140	GapExp	Blank	0	142	2	1	0	distractor	1	422	789	125330	13.328	13.093	13.550
ProbeTrack14	1	ProbeTrack	14.0	SCS215a	20111118.092215	20111118.094024	8	0.013328	60	10	60-180	60	149	GapExp	Blank	0	143	2	1	0	target	0	409	-1000	124330	13.328	12.862	13.796
ProbeTrack14	1	ProbeTrack	14.0	SCS215a	20111118.092215	20111118.094031	8	0.013328	60	10	60-180	60	109	GapExp	Blank	0	144	2	1	0	target	0	623	-1000	123330	13.328	13.097	13.573
ProbeTrack14	1	ProbeTrack	14.0	SCS215a	20111118.092215	20111118.094037	8	0.013328	60	10	60-180	60	124	GapExp	Blank	0	145	2	45	1	target	1	367	817	124147	13.375	12.972	26.607
ProbeTrack14	1	ProbeTrack	14.0	SCS215a	20111118.092215	20111118.094045	8	0.013328	60	10	60-180	60	152	GapExp	Blank	0	146	2	2	1	target	1	350	825	124972	13.328	13.306	13.350
ProbeTrack14	1	ProbeTrack	14.0	SCS215a	20111118.092215	20111118.094052	8	0.013328	60	10	60-180	60	109	GapExp	Blank	0	147	2	1	0	target	0	578	-1000	123972	13.383	13.129	26.531
ProbeTrack14	1	ProbeTrack	14.0	SCS215a	20111118.092215	20111118.094057	8	0.013328	60	10	60-180	60	66	GapExp	Blank	0	148	2	0	1	target	1	277	862	124834	13.328	13.063	13.601
ProbeTrack14	1	ProbeTrack	14.0	SCS215a	20111118.092215	20111118.094234	8	0.013328	60	10	60-180	60	145	GapExp	Blank	0	149	2	2	1	target	1	301	850	125684	13.328	13.307	13.348
ProbeTrack14	1	ProbeTrack	14.0	SCS215a	20111118.092215	20111118.094240	8	0.013328	60	10	60-180	60	73	GapExp	Blank	0	150	2	6	1	target	1	4871	0	125684	13.328	13.260	13.396
ProbeTrack14	1	ProbeTrack	14.0	SCS215a	20111118.092215	20111118.094250	8	0.013328	60	10	60-180	60	87	GapExp	Blank	0	151	2	6	1	target	1	471	765	126449	13.328	12.886	13.762
ProbeTrack14	1	ProbeTrack	14.0	SCS215a	20111118.092215	20111118.094301	8	0.013328	60	10	60-180	60	63	GapExp	Blank	0	152	2	45	0	distractor	1	370	815	127264	13.328	13.308	13.347
ProbeTrack14	1	ProbeTrack	14.0	SCS215a	20111118.092215	20111118.094307	8	0.013328	60	10	60-180	60	68	GapExp	Blank	0	153	2	45	0	distractor	1	502	749	128013	13.328	13.105	13.559
ProbeTrack14	1	ProbeTrack	14.0	SCS215a	20111118.092215	20111118.094313	8	0.013328	60	10	60-180	60	130	GapExp	Blank	0	154	2	6	0	distractor	1	455	773	128786	13.328	13.099	13.558
ProbeTrack14	1	ProbeTrack	14.0	SCS215a	20111118.092215	20111118.094319	8	0.013328	60	10	60-180	60	161	GapExp	Blank	0	155	2	6	0	distractor	1	446	777	129563	13.328	13.098	13.539
ProbeTrack14	1	ProbeTrack	14.0	SCS215a	20111118.092215	20111118.094325	8	0.013328	60	10	60-180	60	115	GapExp	Blank	0	156	2	1	0	distractor	1	428	786	130349	13.328	13.119	13.532
ProbeTrack14	1	ProbeTrack	14.0	SCS215a	20111118.092215	20111118.094331	8	0.013328	60	10	60-180	60	68	GapExp	Blank	0	157	2	1	0	distractor	1	453	774	131123	13.328	12.891	13.772
ProbeTrack14	1	ProbeTrack	14.0	SCS215a	20111118.092215	20111118.094336	8	0.013328	60	10	60-180	60	61	GapExp	Blank	0	158	2	45	0	distractor	1	337	832	131955	13.328	12.877	13.794
ProbeTrack14	1	ProbeTrack	14.0	SCS215a	20111118.092215	20111118.094342	8	0.013328	60	10	60-180	60	161	GapExp	Blank	0	159	2	6	0	distractor	1	409	796	132751	13.328	12.880	13.793
ProbeTrack14	1	ProbeTrack	14.0	SCS215a	20111118.092215	20111118.094349	8	0.013328	60	10	60-180	60	80	GapExp	Blank	0	160	2	6	0	distractor	1	554	723	133474	13.328	12.992	13.744
ProbeTrack14	1	ProbeTrack	14.0	SCS215a	20111118.092215	20111118.094354	8	0.013328	60	10	60-180	60	135	GapExp	Blank	0	161	2	2	1	target	1	417	792	134266	13.328	12.906	13.751
ProbeTrack14	1	ProbeTrack	14.0	SCS215a	20111118.092215	20111118.094400	8	0.013328	60	10	60-180	60	127	GapExp	Blank	0	162	2	2	0	distractor	1	420	790	135056	13.328	13.051	13.599
ProbeTrack14	1	ProbeTrack	14.0	SCS215a	20111118.092215	20111118.094406	8	0.013328	60	10	60-180	60	129	GapExp	Blank	0	163	2	1	1	target	1	362	819	135875	13.328	13.309	13.349
ProbeTrack14	1	ProbeTrack	14.0	SCS215a	20111118.092215	20111118.094413	8	0.013328	60	10	60-180	60	84	GapExp	Blank	0	164	2	2	0	distractor	1	372	814	136689	13.328	13.069	13.601
ProbeTrack14	1	ProbeTrack	14.0	SCS215a	20111118.092215	20111118.094418	8	0.013328	60	10	60-180	60	164	GapExp	Blank	0	165	2	6	1	target	1	610	695	137384	13.328	13.307	13.349
ProbeTrack14	1	ProbeTrack	14.0	SCS215a	20111118.092215	20111118.094425	8	0.013328	60	10	60-180	60	159	GapExp	Blank	0	166	2	6	1	target	1	399	801	138185	13.328	13.306	13.348
ProbeTrack14	1	ProbeTrack	14.0	SCS215a	20111118.092215	20111118.094433	8	0.013328	60	10	60-180	60	145	GapExp	Blank	0	167	2	6	0	distractor	1	435	783	138968	13.328	13.307	13.348
ProbeTrack14	1	ProbeTrack	14.0	SCS215a	20111118.092215	20111118.094440	8	0.013328	60	10	60-180	60	153	GapExp	Blank	0	168	2	6	0	target	0	547	-1000	137968	13.328	13.039	13.629
ProbeTrack14	1	ProbeTrack	14.0	SCS215a	20111118.092215	20111118.094447	8	0.013328	60	10	60-180	60	157	GapExp	Blank	0	169	2	1	0	distractor	1	478	761	138729	13.328	13.167	13.503
ProbeTrack14	1	ProbeTrack	14.0	SCS215a	20111118.092215	20111118.094528	8	0.013328	60	10	60-180	60	70	GapExp	Blank	0	170	2	2	0	distractor	1	437	782	139511	13.328	13.306	13.345
ProbeTrack14	1	ProbeTrack	14.0	SCS215a	20111118.092215	20111118.094533	8	0.013328	60	10	60-180	60	172	GapExp	Blank	0	171	2	0	0	distractor	1	380	810	140321	13.328	13.104	13.559
ProbeTrack14	1	ProbeTrack	14.0	SCS215a	20111118.092215	20111118.094540	8	0.013328	60	10	60-180	60	177	GapExp	Blank	0	172	2	45	1	target	1	362	819	141140	13.328	13.102	13.568
ProbeTrack14	1	ProbeTrack	14.0	SCS215a	20111118.092215	20111118.094547	8	0.013328	60	10	60-180	60	92	GapExp	Blank	0	173	2	6	1	target	1	455	773	141913	13.328	13.309	13.348
ProbeTrack14	1	ProbeTrack	14.0	SCS215a	20111118.092215	20111118.094553	8	0.013328	60	10	60-180	60	89	GapExp	Blank	0	174	2	45	1	distractor	0	491	-1000	140913	13.328	13.082	13.573
ProbeTrack14	1	ProbeTrack	14.0	SCS215a	20111118.092215	20111118.094559	8	0.013328	60	10	60-180	60	131	GapExp	Blank	0	175	2	2	1	target	1	302	849	141762	13.328	12.848	13.792
ProbeTrack14	1	ProbeTrack	14.0	SCS215a	20111118.092215	20111118.094605	8	0.013328	60	10	60-180	60	133	GapExp	Blank	0	176	2	6	0	distractor	1	446	777	142539	13.328	13.053	13.601
ProbeTrack14	1	ProbeTrack	14.0	SCS215a	20111118.092215	20111118.094611	8	0.013328	60	10	60-180	60	76	GapExp	Blank	0	177	2	45	0	distractor	1	404	798	143337	13.328	12.850	13.799
ProbeTrack14	1	ProbeTrack	14.0	SCS215a	20111118.092215	20111118.094617	8	0.013328	60	10	60-180	60	152	GapExp	Blank	0	178	2	0	1	target	1	379	811	144148	13.328	13.287	13.367
ProbeTrack14	1	ProbeTrack	14.0	SCS215a	20111118.092215	20111118.094623	8	0.013328	60	10	60-180	60	125	GapExp	Blank	0	179	2	2	0	distractor	1	439	781	144929	13.328	12.981	13.673
ProbeTrack14	1	ProbeTrack	14.0	SCS215a	20111118.092215	20111118.094630	8	0.013328	60	10	60-180	60	153	GapExp	Blank	0	180	2	6	0	distractor	1	384	808	145737	13.328	13.102	13.558
ProbeTrack14	1	ProbeTrack	14.0	SCS215a	20111118.092215	20111118.094637	8	0.013328	60	10	60-180	60	102	GapExp	Blank	0	181	2	0	0	target	0	451	-1000	144737	13.328	13.098	13.572
ProbeTrack14	1	ProbeTrack	14.0	SCS215a	20111118.092215	20111118.094643	8	0.013328	60	10	60-180	60	166	GapExp	Blank	0	182	2	1	1	target	1	349	826	145563	13.328	13.112	13.538
ProbeTrack14	1	ProbeTrack	14.0	SCS215a	20111118.092215	20111118.094649	8	0.013328	60	10	60-180	60	121	GapExp	Blank	0	183	2	1	0	distractor	1	328	836	146399	13.328	13.108	13.544
ProbeTrack14	1	ProbeTrack	14.0	SCS215a	20111118.092215	20111118.094655	8	0.013328	60	10	60-180	60	110	GapExp	Blank	0	184	2	2	0	distractor	1	664	668	147067	13.328	13.302	13.348
ProbeTrack14	1	ProbeTrack	14.0	SCS215a	20111118.092215	20111118.094702	8	0.013328	60	10	60-180	60	170	GapExp	Blank	0	185	2	6	1	target	1	375	813	147880	13.328	13.104	13.559
ProbeTrack14	1	ProbeTrack	14.0	SCS215a	20111118.092215	20111118.094758	8	0.013328	60	10	60-180	60	105	GapExp	Blank	0	186	2	1	1	target	1	410	795	148675	13.328	13.308	13.344
ProbeTrack14	1	ProbeTrack	14.0	SCS215a	20111118.092215	20111118.094831	8	0.013328	60	10	60-180	60	161	GapExp	Blank	0	187	2	45	0	distractor	1	396	802	149477	13.328	13.308	13.350
ProbeTrack14	1	ProbeTrack	14.0	SCS215a	20111118.092215	20111118.094838	8	0.013328	60	10	60-180	60	158	GapExp	Blank	0	188	2	0	0	distractor	1	713	644	150121	13.328	13.100	13.551
ProbeTrack14	1	ProbeTrack	14.0	SCS215a	20111118.092215	20111118.094855	8	0.013328	60	10	60-180	60	121	GapExp	Blank	0	189	2	2	1	target	1	390	805	150926	13.328	13.312	13.345
ProbeTrack14	1	ProbeTrack	14.0	SCS215a	20111118.092215	20111118.094907	8	0.013328	60	10	60-180	60	82	GapExp	Blank	0	190	2	6	0	distractor	1	448	776	151702	13.328	13.101	13.555
ProbeTrack14	1	ProbeTrack	14.0	SCS215a	20111118.092215	20111118.095013	8	0.013328	60	10	60-180	60	119	GapExp	Blank	0	191	2	2	1	distractor	0	346	-1000	150702	13.328	13.109	13.540
ProbeTrack14	1	ProbeTrack	14.0	SCS215a	20111118.092215	20111118.095019	8	0.013328	60	10	60-180	60	73	GapExp	Blank	0	192	2	6	1	target	1	338	831	151533	13.328	12.878	13.774
ProbeTrack14	1	ProbeTrack	14.0	SCS215a	20111118.092215	20111118.095024	8	0.013328	60	10	60-180	60	143	GapExp	Blank	0	193	2	6	0	distractor	1	448	776	152309	13.328	12.869	13.792
ProbeTrack14	1	ProbeTrack	14.0	SCS215a	20111118.092215	20111118.095030	8	0.013328	60	10	60-180	60	69	GapExp	Blank	0	194	2	45	1	distractor	0	428	-1000	151309	13.328	13.307	13.360
ProbeTrack14	1	ProbeTrack	14.0	SCS215a	20111118.092215	20111118.095036	8	0.013328	60	10	60-180	60	63	GapExp	Blank	0	195	2	45	0	distractor	1	386	807	152116	13.328	13.301	13.349
ProbeTrack14	1	ProbeTrack	14.0	SCS215a	20111118.092215	20111118.095041	8	0.013328	60	10	60-180	60	102	GapExp	Blank	0	196	2	2	0	distractor	1	432	784	152900	13.328	12.894	13.762
ProbeTrack14	1	ProbeTrack	14.0	SCS215a	20111118.092215	20111118.095047	8	0.013328	60	10	60-180	60	67	GapExp	Blank	0	197	2	1	1	target	1	448	776	153676	13.328	12.923	13.721
ProbeTrack14	1	ProbeTrack	14.0	SCS215a	20111118.092215	20111118.095053	8	0.013328	60	10	60-180	60	73	GapExp	Blank	0	198	2	45	0	distractor	1	367	817	154493	13.328	12.876	13.800
ProbeTrack14	1	ProbeTrack	14.0	SCS215a	20111118.092215	20111118.095058	8	0.013328	60	10	60-180	60	172	GapExp	Blank	0	199	2	2	1	target	1	264	868	155361	13.328	13.239	13.419
ProbeTrack14	1	ProbeTrack	14.0	SCS215a	20111118.092215	20111118.095105	8	0.013328	60	10	60-180	60	86	GapExp	Blank	0	200	2	6	1	target	1	355	823	156184	13.328	13.301	13.354
ProbeTrack14	1	ProbeTrack	14.0	SCS215a	20111118.092215	20111118.095110	8	0.013328	60	10	60-180	60	175	GapExp	Blank	0	201	2	1	0	distractor	1	378	811	156995	13.328	13.094	13.563
ProbeTrack14	1	ProbeTrack	14.0	SCS215a	20111118.092215	20111118.095116	8	0.013328	60	10	60-180	60	73	GapExp	Blank	0	202	2	6	0	distractor	1	371	815	157810	13.328	13.111	13.555
ProbeTrack14	1	ProbeTrack	14.0	SCS215a	20111118.092215	20111118.095122	8	0.013328	60	10	60-180	60	166	GapExp	Blank	0	203	2	0	1	target	1	381	810	158620	13.328	13.307	13.344
ProbeTrack14	1	ProbeTrack	14.0	SCS215a	20111118.092215	20111118.095128	8	0.013328	60	10	60-180	60	177	GapExp	Blank	0	204	2	1	1	target	1	362	819	159439	13.328	12.896	13.768
ProbeTrack14	1	ProbeTrack	14.0	SCS215a	20111118.092215	20111118.095135	8	0.013328	60	10	60-180	60	162	GapExp	Blank	0	205	2	0	1	target	1	397	802	160241	13.328	13.071	13.576
ProbeTrack14	1	ProbeTrack	14.0	SCS215a	20111118.092215	20111118.095145	8	0.013328	60	10	60-180	60	87	GapExp	Blank	0	206	2	1	1	target	1	465	768	161009	13.328	12.909	13.741
ProbeTrack14	1	ProbeTrack	14.0	SCS215a	20111118.092215	20111118.095151	8	0.013328	60	10	60-180	60	137	GapExp	Blank	0	207	2	1	1	target	1	396	802	161811	13.328	12.861	13.810
ProbeTrack14	1	ProbeTrack	14.0	SCS215a	20111118.092215	20111118.095158	8	0.013328	60	10	60-180	60	112	GapExp	Blank	0	208	2	6	1	target	1	391	805	162616	13.328	13.308	13.347
ProbeTrack14	1	ProbeTrack	14.0	SCS215a	20111118.092215	20111118.095203	8	0.013328	60	10	60-180	60	171	GapExp	Blank	0	209	2	45	1	target	1	345	828	163444	13.328	12.846	13.826
ProbeTrack14	1	ProbeTrack	14.0	SCS215a	20111118.092215	20111118.095211	8	0.013328	60	10	60-180	60	88	GapExp	Blank	0	210	2	0	0	distractor	1	442	779	164223	13.328	13.209	13.448
ProbeTrack14	1	ProbeTrack	14.0	SCS215a	20111118.092215	20111118.095216	8	0.013328	60	10	60-180	60	169	GapExp	Blank	0	211	2	45	0	distractor	1	393	804	165027	13.328	13.308	13.347
ProbeTrack14	1	ProbeTrack	14.0	SCS215a	20111118.092215	20111118.095223	8	0.013328	60	10	60-180	60	76	GapExp	Blank	0	212	2	45	0	distractor	1	554	723	165750	13.328	12.874	13.791
ProbeTrack14	1	ProbeTrack	14.0	SCS215a	20111118.092215	20111118.095230	8	0.013328	60	10	60-180	60	91	GapExp	Blank	0	213	2	2	0	target	0	346	-1000	164750	13.328	13.305	13.365
ProbeTrack14	1	ProbeTrack	14.0	SCS215a	20111118.092215	20111118.095235	8	0.013328	60	10	60-180	60	145	GapExp	Blank	0	214	2	1	1	target	1	422	789	165539	13.328	13.307	13.345
ProbeTrack14	1	ProbeTrack	14.0	SCS215a	20111118.092215	20111118.095241	8	0.013328	60	10	60-180	60	116	GapExp	Blank	0	215	2	2	0	distractor	1	633	684	166223	13.328	12.940	13.712
ProbeTrack14	1	ProbeTrack	14.0	SCS215a	20111118.092215	20111118.095247	8	0.013328	60	10	60-180	60	150	GapExp	Blank	0	216	2	2	0	distractor	1	481	760	166983	13.328	13.103	13.559
ProbeTrack14	1	ProbeTrack	14.0	SCS215a	20111118.092215	20111118.095253	8	0.013328	60	10	60-180	60	140	GapExp	Blank	0	217	2	0	1	target	1	368	816	167799	13.328	13.108	13.554
ProbeTrack14	1	ProbeTrack	14.0	SCS215a	20111118.092215	20111118.095300	8	0.013328	60	10	60-180	60	68	GapExp	Blank	0	218	2	45	1	target	1	422	789	168588	13.328	13.089	13.567
ProbeTrack14	1	ProbeTrack	14.0	SCS215a	20111118.092215	20111118.095306	8	0.013328	60	10	60-180	60	86	GapExp	Blank	0	219	2	0	0	distractor	1	398	801	169389	13.328	13.016	13.632
ProbeTrack14	1	ProbeTrack	14.0	SCS215a	20111118.092215	20111118.095311	8	0.013328	60	10	60-180	60	100	GapExp	Blank	0	220	2	45	1	target	1	348	826	170215	13.328	13.308	13.349
ProbeTrack14	1	ProbeTrack	14.0	SCS215a	20111118.092215	20111118.095317	8	0.013328	60	10	60-180	60	178	GapExp	Blank	0	221	2	0	1	target	1	468	766	170981	13.328	13.053	13.607
ProbeTrack14	1	ProbeTrack	14.0	SCS215a	20111118.092215	20111118.095324	8	0.013328	60	10	60-180	60	133	GapExp	Blank	0	222	2	0	1	target	1	491	755	171736	13.328	13.309	13.348
ProbeTrack14	1	ProbeTrack	14.0	SCS215a	20111118.092215	20111118.095331	8	0.013328	60	10	60-180	60	66	GapExp	Blank	0	223	2	45	1	target	1	314	843	172579	13.328	12.886	13.772
ProbeTrack14	1	ProbeTrack	14.0	SCS215a	20111118.092215	20111118.095337	8	0.013328	60	10	60-180	60	87	GapExp	Blank	0	224	2	1	0	distractor	1	417	792	173371	13.328	12.892	13.657
ProbeTrack14	1	ProbeTrack	14.0	SCS215a	20111118.092215	20111118.095344	8	0.013328	60	10	60-180	60	67	GapExp	Blank	0	225	2	1	1	target	1	386	807	174178	13.328	13.098	13.565
ProbeTrack14	1	ProbeTrack	14.0	SCS215a	20111118.092215	20111118.095349	8	0.013328	60	10	60-180	60	173	GapExp	Blank	0	226	2	6	1	target	1	351	825	175003	13.328	13.092	13.558
ProbeTrack14	1	ProbeTrack	14.0	SCS215a	20111118.092215	20111118.095356	8	0.013328	60	10	60-180	60	155	GapExp	Blank	0	227	2	2	1	target	1	416	792	175795	13.328	13.083	13.568
ProbeTrack14	1	ProbeTrack	14.0	SCS215a	20111118.092215	20111118.095402	8	0.013328	60	10	60-180	60	141	GapExp	Blank	0	228	2	6	1	target	1	368	816	176611	13.328	13.098	13.557
ProbeTrack14	1	ProbeTrack	14.0	SCS215a	20111118.092215	20111118.095409	8	0.013328	60	10	60-180	60	156	GapExp	Blank	0	229	2	2	1	target	1	385	808	177419	13.328	12.852	13.795
ProbeTrack14	1	ProbeTrack	14.0	SCS215a	20111118.092215	20111118.095415	8	0.013328	60	10	60-180	60	86	GapExp	Blank	0	230	2	45	0	distractor	1	381	810	178229	13.328	13.270	13.381
ProbeTrack14	1	ProbeTrack	14.0	SCS215a	20111118.092215	20111118.095421	8	0.013328	60	10	60-180	60	169	GapExp	Blank	0	231	2	45	1	target	1	482	759	178988	13.328	13.303	13.354
ProbeTrack14	1	ProbeTrack	14.0	SCS215a	20111118.092215	20111118.095429	8	0.013328	60	10	60-180	60	92	GapExp	Blank	0	232	2	0	0	distractor	1	436	782	179770	13.328	13.305	13.351
ProbeTrack14	1	ProbeTrack	14.0	SCS215a	20111118.092215	20111118.095434	8	0.013328	60	10	60-180	60	75	GapExp	Blank	0	233	2	1	1	target	1	334	833	180603	13.328	13.297	13.352
ProbeTrack14	1	ProbeTrack	14.0	SCS215a	20111118.092215	20111118.095440	8	0.013328	60	10	60-180	60	110	GapExp	Blank	0	234	2	6	1	target	1	279	861	181464	13.328	12.878	13.766
ProbeTrack14	1	ProbeTrack	14.0	SCS215a	20111118.092215	20111118.095446	8	0.013328	60	10	60-180	60	129	GapExp	Blank	0	235	2	2	0	target	0	320	-1000	180464	13.328	13.120	13.524
ProbeTrack14	1	ProbeTrack	14.0	SCS215a	20111118.092215	20111118.095452	8	0.013328	60	10	60-180	60	128	GapExp	Blank	0	236	2	6	0	distractor	1	458	771	181235	13.328	12.903	13.768
ProbeTrack14	1	ProbeTrack	14.0	SCS215a	20111118.092215	20111118.095458	8	0.013328	60	10	60-180	60	94	GapExp	Blank	0	237	2	0	1	target	1	408	796	182031	13.328	12.975	13.688
ProbeTrack14	1	ProbeTrack	14.0	SCS215a	20111118.092215	20111118.095503	8	0.013328	60	10	60-180	60	110	GapExp	Blank	0	238	2	0	1	target	1	355	823	182854	13.328	13.022	13.621
ProbeTrack14	1	ProbeTrack	14.0	SCS215a	20111118.092215	20111118.095509	8	0.013328	60	10	60-180	60	120	GapExp	Blank	0	239	2	6	1	distractor	0	782	-1000	181854	13.328	13.305	13.358
ProbeTrack14	1	ProbeTrack	14.0	SCS215a	20111118.092215	20111118.095515	8	0.013328	60	10	60-180	60	80	GapExp	Blank	0	240	2	6	1	target	1	359	821	182675	13.328	12.902	13.746
ProbeTrack14	1	ProbeTrack	14.0	SCS215a	20111118.092215	20111118.095520	8	0.013328	60	10	60-180	60	73	GapExp	Blank	0	241	2	45	1	target	1	473	764	183439	13.383	13.307	26.662
ProbeTrack14	1	ProbeTrack	14.0	SCS215a	20111118.092215	20111118.095526	8	0.013328	60	10	60-180	60	157	GapExp	Blank	0	242	2	45	0	distractor	1	428	786	184225	13.328	13.092	13.560
ProbeTrack14	1	ProbeTrack	14.0	SCS215a	20111118.092215	20111118.095533	8	0.013328	60	10	60-180	60	157	GapExp	Blank	0	243	2	2	1	target	1	357	822	185047	13.328	12.909	13.756
ProbeTrack14	1	ProbeTrack	14.0	SCS215a	20111118.092215	20111118.095540	8	0.013328	60	10	60-180	60	87	GapExp	Blank	0	244	2	1	0	distractor	1	623	689	185736	13.328	13.302	13.348
ProbeTrack14	1	ProbeTrack	14.0	SCS215a	20111118.092215	20111118.095546	8	0.013328	60	10	60-180	60	65	GapExp	Blank	0	245	2	1	0	distractor	1	456	772	186508	13.328	13.290	13.356
ProbeTrack14	1	ProbeTrack	14.0	SCS215a	20111118.092215	20111118.095551	8	0.013328	60	10	60-180	60	113	GapExp	Blank	0	246	2	1	1	target	1	441	780	187288	13.328	12.998	13.663
ProbeTrack14	1	ProbeTrack	14.0	SCS215a	20111118.092215	20111118.095557	8	0.013328	60	10	60-180	60	174	GapExp	Blank	0	247	2	45	1	target	1	705	648	187936	13.328	13.005	13.671
ProbeTrack14	1	ProbeTrack	14.0	SCS215a	20111118.092215	20111118.095604	8	0.013328	60	10	60-180	60	156	GapExp	Blank	0	248	2	2	0	target	0	497	-1000	186936	13.328	12.851	13.617
ProbeTrack14	1	ProbeTrack	14.0	SCS215a	20111118.092215	20111118.095611	8	0.013328	60	10	60-180	60	137	GapExp	Blank	0	249	2	1	1	target	1	380	810	187746	13.328	12.861	13.794
ProbeTrack14	1	ProbeTrack	14.0	SCS215a	20111118.092215	20111118.095617	8	0.013328	60	10	60-180	60	102	GapExp	Blank	0	250	2	2	1	target	1	529	736	188482	13.328	12.855	13.809
