exp	sub	code	rev	comp	runtime	trialtime	nstim	refreshdur	cuedur	gapdur	gapOnsetRange	durPostProbe	gapOnsetTime	blocktype	gaptype	prac	trial	ntargets	soa	probeTarget	resp	acc	rt	pts	tpts	meanFrameDur	minFrameDur	maxFrameDur
ProbeTrack14	7	ProbeTrack	14.0	SCS215a	20111122.140231	20111122.140235	8	0.013328	60	0	60-180	60	178	NoGap	None	1	1	2	0	0	target	0	605	-1000	-1000	13.372	13.308	13.349
ProbeTrack14	7	ProbeTrack	14.0	SCS215a	20111122.140231	20111122.140402	8	0.013328	60	0	60-180	60	168	NoGap	None	1	2	2	0	1	target	1	719	641	-359	13.328	13.098	13.565
ProbeTrack14	7	ProbeTrack	14.0	SCS215a	20111122.140231	20111122.140410	8	0.013328	60	0	60-180	60	169	NoGap	None	1	3	2	2	1	target	1	676	662	303	13.328	12.866	13.791
ProbeTrack14	7	ProbeTrack	14.0	SCS215a	20111122.140231	20111122.140418	8	0.013328	60	0	60-180	60	166	NoGap	None	1	4	2	2	1	target	1	362	819	1122	13.328	13.073	13.564
ProbeTrack14	7	ProbeTrack	14.0	SCS215a	20111122.140231	20111122.140432	8	0.013328	60	0	60-180	60	100	NoGap	None	1	5	2	1	0	distractor	1	947	527	1649	13.328	13.112	13.544
ProbeTrack14	7	ProbeTrack	14.0	SCS215a	20111122.140231	20111122.140439	8	0.013328	60	0	60-180	60	79	NoGap	None	1	6	2	0	0	distractor	1	841	580	2229	13.328	13.116	13.553
ProbeTrack14	7	ProbeTrack	14.0	SCS215a	20111122.140231	20111122.140446	8	0.013328	60	0	60-180	60	155	NoGap	None	1	7	2	0	0	distractor	1	593	704	2933	13.328	12.900	13.750
ProbeTrack14	7	ProbeTrack	14.0	SCS215a	20111122.140231	20111122.140452	8	0.013328	60	0	60-180	60	70	NoGap	None	1	8	2	0	1	target	1	740	630	3563	13.328	13.306	13.350
ProbeTrack14	7	ProbeTrack	14.0	SCS215a	20111122.140231	20111122.140459	8	0.013328	60	0	60-180	60	88	NoGap	None	1	9	2	1	0	distractor	1	596	702	4265	13.328	13.309	13.351
ProbeTrack14	7	ProbeTrack	14.0	SCS215a	20111122.140231	20111122.140505	8	0.013328	60	0	60-180	60	135	NoGap	None	1	10	2	45	0	distractor	1	568	716	4981	13.328	13.112	13.548
ProbeTrack14	7	ProbeTrack	14.0	SCS215a	20111122.140231	20111122.140512	8	0.013328	60	0	60-180	60	140	NoGap	None	1	11	2	6	1	target	1	969	516	5497	13.328	13.301	13.349
ProbeTrack14	7	ProbeTrack	14.0	SCS215a	20111122.140231	20111122.140519	8	0.013328	60	0	60-180	60	158	NoGap	None	1	12	2	1	1	target	1	716	642	6139	13.328	12.950	13.713
ProbeTrack14	7	ProbeTrack	14.0	SCS215a	20111122.140231	20111122.140527	8	0.013328	60	0	60-180	60	86	NoGap	None	1	13	2	45	0	distractor	1	559	721	6860	13.328	13.096	13.541
ProbeTrack14	7	ProbeTrack	14.0	SCS215a	20111122.140231	20111122.140533	8	0.013328	60	0	60-180	60	152	NoGap	None	1	14	2	6	1	target	1	606	697	7557	13.328	13.310	13.346
ProbeTrack14	7	ProbeTrack	14.0	SCS215a	20111122.140231	20111122.140540	8	0.013328	60	0	60-180	60	151	NoGap	None	1	15	2	0	0	distractor	1	754	623	8180	13.328	13.103	13.559
ProbeTrack14	7	ProbeTrack	14.0	SCS215a	20111122.140231	20111122.140548	8	0.013328	60	0	60-180	60	128	NoGap	None	1	16	2	1	1	target	1	553	724	8904	13.328	12.887	13.785
ProbeTrack14	7	ProbeTrack	14.0	SCS215a	20111122.140231	20111122.140554	8	0.013328	60	0	60-180	60	63	NoGap	None	1	17	2	1	0	distractor	1	561	720	9624	13.328	13.308	13.343
ProbeTrack14	7	ProbeTrack	14.0	SCS215a	20111122.140231	20111122.140559	8	0.013328	60	0	60-180	60	145	NoGap	None	1	18	2	1	0	distractor	1	455	773	10397	13.328	12.978	13.684
ProbeTrack14	7	ProbeTrack	14.0	SCS215a	20111122.140231	20111122.140605	8	0.013328	60	0	60-180	60	61	NoGap	None	1	19	2	45	1	target	1	640	680	11077	13.328	13.091	13.552
ProbeTrack14	7	ProbeTrack	14.0	SCS215a	20111122.140231	20111122.140611	8	0.013328	60	0	60-180	60	135	NoGap	None	1	20	2	6	1	target	1	467	767	11844	13.328	13.091	13.566
ProbeTrack14	7	ProbeTrack	14.0	SCS215a	20111122.140231	20111122.140617	8	0.013328	60	0	60-180	60	85	NoGap	None	1	21	2	6	0	distractor	1	420	790	12634	13.328	13.097	13.560
ProbeTrack14	7	ProbeTrack	14.0	SCS215a	20111122.140231	20111122.140623	8	0.013328	60	0	60-180	60	117	NoGap	None	1	22	2	6	0	distractor	1	633	684	13318	13.328	13.307	13.344
ProbeTrack14	7	ProbeTrack	14.0	SCS215a	20111122.140231	20111122.140629	8	0.013328	60	0	60-180	60	107	NoGap	None	1	23	2	6	1	target	1	603	699	14017	13.328	12.897	13.765
ProbeTrack14	7	ProbeTrack	14.0	SCS215a	20111122.140231	20111122.140635	8	0.013328	60	0	60-180	60	91	NoGap	None	1	24	2	2	1	target	1	533	734	14751	13.328	13.307	13.352
ProbeTrack14	7	ProbeTrack	14.0	SCS215a	20111122.140231	20111122.140641	8	0.013328	60	0	60-180	60	108	NoGap	None	1	25	2	0	1	target	1	462	769	15520	13.328	13.223	13.426
ProbeTrack14	7	ProbeTrack	14.0	SCS215a	20111122.140231	20111122.140648	8	0.013328	60	0	60-180	60	154	NoGap	None	1	26	2	6	0	target	0	461	-1000	14520	13.328	13.091	13.563
ProbeTrack14	7	ProbeTrack	14.0	SCS215a	20111122.140231	20111122.140654	8	0.013328	60	0	60-180	60	108	NoGap	None	1	27	2	2	1	target	1	655	673	15193	13.328	13.098	13.572
ProbeTrack14	7	ProbeTrack	14.0	SCS215a	20111122.140231	20111122.140700	8	0.013328	60	0	60-180	60	81	NoGap	None	1	28	2	45	0	distractor	1	507	747	15940	13.328	13.109	13.548
ProbeTrack14	7	ProbeTrack	14.0	SCS215a	20111122.140231	20111122.140706	8	0.013328	60	0	60-180	60	151	NoGap	None	1	29	2	2	0	distractor	1	462	769	16709	13.328	13.204	13.474
ProbeTrack14	7	ProbeTrack	14.0	SCS215a	20111122.140231	20111122.140713	8	0.013328	60	0	60-180	60	106	NoGap	None	1	30	2	6	0	distractor	1	584	708	17417	13.328	13.118	13.550
ProbeTrack14	7	ProbeTrack	14.0	SCS215a	20111122.140231	20111122.140719	8	0.013328	60	0	60-180	60	170	NoGap	None	1	31	2	2	0	distractor	1	431	785	18202	13.328	13.098	13.545
ProbeTrack14	7	ProbeTrack	14.0	SCS215a	20111122.140231	20111122.140726	8	0.013328	60	0	60-180	60	68	NoGap	None	1	32	2	1	1	target	1	697	652	18854	13.328	13.306	13.343
ProbeTrack14	7	ProbeTrack	14.0	SCS215a	20111122.140231	20111122.140731	8	0.013328	60	0	60-180	60	97	NoGap	None	1	33	2	1	1	target	1	473	764	19618	13.328	13.297	13.359
ProbeTrack14	7	ProbeTrack	14.0	SCS215a	20111122.140231	20111122.140737	8	0.013328	60	0	60-180	60	117	NoGap	None	1	34	2	45	1	target	1	512	744	20362	13.328	13.301	13.345
ProbeTrack14	7	ProbeTrack	14.0	SCS215a	20111122.140231	20111122.140744	8	0.013328	60	0	60-180	60	75	NoGap	None	1	35	2	45	1	target	1	525	738	21100	13.328	12.915	13.748
ProbeTrack14	7	ProbeTrack	14.0	SCS215a	20111122.140231	20111122.140750	8	0.013328	60	0	60-180	60	163	NoGap	None	1	36	2	45	1	target	1	603	699	21799	13.328	12.933	13.724
ProbeTrack14	7	ProbeTrack	14.0	SCS215a	20111122.140231	20111122.140757	8	0.013328	60	0	60-180	60	172	NoGap	None	1	37	2	2	0	distractor	1	681	660	22459	13.328	13.099	13.556
ProbeTrack14	7	ProbeTrack	14.0	SCS215a	20111122.140231	20111122.140804	8	0.013328	60	0	60-180	60	156	NoGap	None	1	38	2	0	1	target	1	440	780	23239	13.328	12.964	13.692
ProbeTrack14	7	ProbeTrack	14.0	SCS215a	20111122.140231	20111122.140810	8	0.013328	60	0	60-180	60	162	NoGap	None	1	39	2	45	0	distractor	1	520	740	23979	13.328	13.273	13.391
ProbeTrack14	7	ProbeTrack	14.0	SCS215a	20111122.140231	20111122.140818	8	0.013328	60	0	60-180	60	81	NoGap	None	1	40	2	2	0	distractor	1	521	740	24719	13.328	13.098	13.546
ProbeTrack14	7	ProbeTrack	14.0	SCS215a	20111122.140901	20111122.140917	8	0.013328	60	10	60-180	60	150	GapPrac	Blank	1	1	2	0	1	target	1	791	605	25324	13.373	9.340	17.323
ProbeTrack14	7	ProbeTrack	14.0	SCS215a	20111122.140901	20111122.140926	8	0.013328	60	10	60-180	60	145	GapPrac	Blank	1	2	2	1	0	distractor	1	665	668	25992	13.328	13.113	13.551
ProbeTrack14	7	ProbeTrack	14.0	SCS215a	20111122.140901	20111122.140933	8	0.013328	60	10	60-180	60	177	GapPrac	Blank	1	3	2	45	0	distractor	1	786	607	26599	13.328	13.099	13.551
ProbeTrack14	7	ProbeTrack	14.0	SCS215a	20111122.140901	20111122.140941	8	0.013328	60	10	60-180	60	104	GapPrac	Blank	1	4	2	2	1	target	1	753	624	27223	13.328	13.095	13.558
ProbeTrack14	7	ProbeTrack	14.0	SCS215a	20111122.140901	20111122.140948	8	0.013328	60	10	60-180	60	179	GapPrac	Blank	1	5	2	1	0	distractor	1	652	674	27897	13.328	13.100	13.549
ProbeTrack14	7	ProbeTrack	14.0	SCS215a	20111122.140901	20111122.140954	8	0.013328	60	10	60-180	60	112	GapPrac	Blank	1	6	2	0	0	distractor	1	1127	437	28334	13.328	13.306	13.349
ProbeTrack14	7	ProbeTrack	14.0	SCS215a	20111122.140901	20111122.141002	8	0.013328	60	10	60-180	60	134	GapPrac	Blank	1	7	2	6	0	distractor	1	730	635	28969	13.328	7.226	19.436
ProbeTrack14	7	ProbeTrack	14.0	SCS215a	20111122.140901	20111122.141009	8	0.013328	60	10	60-180	60	83	GapPrac	Blank	1	8	2	6	1	target	1	906	547	29516	13.328	13.107	13.551
ProbeTrack14	7	ProbeTrack	14.0	SCS215a	20111122.140901	20111122.141015	8	0.013328	60	10	60-180	60	158	GapPrac	Blank	1	9	2	6	1	target	1	749	626	30142	13.328	4.046	22.608
ProbeTrack14	7	ProbeTrack	14.0	SCS215a	20111122.140901	20111122.141022	8	0.013328	60	10	60-180	60	65	GapPrac	Blank	1	10	2	2	0	distractor	1	915	543	30685	13.328	13.044	13.625
ProbeTrack14	7	ProbeTrack	14.0	SCS215a	20111122.140901	20111122.141028	8	0.013328	60	10	60-180	60	136	GapPrac	Blank	1	11	2	6	0	distractor	1	677	662	31347	13.328	7.434	19.221
ProbeTrack14	7	ProbeTrack	14.0	SCS215a	20111122.140901	20111122.141035	8	0.013328	60	10	60-180	60	178	GapPrac	Blank	1	12	2	1	1	target	1	974	513	31860	13.328	12.068	14.608
ProbeTrack14	7	ProbeTrack	14.0	SCS215a	20111122.140901	20111122.141042	8	0.013328	60	10	60-180	60	172	GapPrac	Blank	1	13	2	45	0	distractor	1	697	652	32512	13.328	8.909	17.754
ProbeTrack14	7	ProbeTrack	14.0	SCS215a	20111122.140901	20111122.141049	8	0.013328	60	10	60-180	60	89	GapPrac	Blank	1	14	2	2	0	distractor	1	688	656	33168	13.328	12.708	13.960
ProbeTrack14	7	ProbeTrack	14.0	SCS215a	20111122.140901	20111122.141055	8	0.013328	60	10	60-180	60	93	GapPrac	Blank	1	15	2	1	1	distractor	0	1062	-1000	32168	13.328	13.300	13.345
ProbeTrack14	7	ProbeTrack	14.0	SCS215a	20111122.140901	20111122.141101	8	0.013328	60	10	60-180	60	153	GapPrac	Blank	1	16	2	45	1	target	1	980	510	32678	13.328	13.305	13.352
ProbeTrack14	7	ProbeTrack	14.0	SCS215a	20111122.140901	20111122.141109	8	0.013328	60	10	60-180	60	136	GapPrac	Blank	1	17	2	0	0	distractor	1	729	636	33314	13.315	9.649	13.946
ProbeTrack14	7	ProbeTrack	14.0	SCS215a	20111122.140901	20111122.141116	8	0.013328	60	10	60-180	60	120	GapPrac	Blank	1	18	2	45	1	target	1	561	720	34034	13.328	5.001	13.470
ProbeTrack14	7	ProbeTrack	14.0	SCS215a	20111122.140901	20111122.141123	8	0.013328	60	10	60-180	60	143	GapPrac	Blank	1	19	2	2	1	target	1	742	629	34663	13.328	8.205	18.452
ProbeTrack14	7	ProbeTrack	14.0	SCS215a	20111122.140901	20111122.141130	8	0.013328	60	10	60-180	60	101	GapPrac	Blank	1	20	2	0	1	distractor	0	726	-1000	33663	13.383	13.291	22.554
ProbeTrack14	7	ProbeTrack	14.0	SCS215a	20111122.141341	20111122.141402	8	0.013325	60	10	60-180	60	163	GapExp	Blank	1	1	2	1	1	target	1	962	519	34182	13.371	12.713	13.937
ProbeTrack14	7	ProbeTrack	14.0	SCS215a	20111122.141341	20111122.141411	8	0.013325	60	10	60-180	60	69	GapExp	Blank	1	2	2	2	0	distractor	1	1644	178	34360	13.328	13.307	13.351
ProbeTrack14	7	ProbeTrack	14.0	SCS215a	20111122.141341	20111122.141418	8	0.013325	60	10	60-180	60	80	GapExp	Blank	1	3	2	6	0	distractor	1	809	596	34956	13.313	9.849	16.097
ProbeTrack14	7	ProbeTrack	14.0	SCS215a	20111122.141341	20111122.141424	8	0.013325	60	10	60-180	60	86	GapExp	Blank	1	4	2	2	1	target	1	626	687	35643	13.328	12.971	13.681
ProbeTrack14	7	ProbeTrack	14.0	SCS215a	20111122.141341	20111122.141430	8	0.013325	60	10	60-180	60	63	GapExp	Blank	1	5	2	0	0	distractor	1	799	601	36244	13.328	8.612	18.043
ProbeTrack14	7	ProbeTrack	14.0	SCS215a	20111122.141341	20111122.141436	8	0.013325	60	10	60-180	60	160	GapExp	Blank	1	6	2	6	1	target	1	888	556	36800	13.328	13.114	13.556
ProbeTrack14	7	ProbeTrack	14.0	SCS215a	20111122.141341	20111122.141444	8	0.013325	60	10	60-180	60	89	GapExp	Blank	1	7	2	1	0	distractor	1	703	649	37449	13.328	6.413	20.261
ProbeTrack14	7	ProbeTrack	14.0	SCS215a	20111122.141341	20111122.141450	8	0.013325	60	10	60-180	60	154	GapExp	Blank	1	8	2	45	0	distractor	1	794	603	38052	13.328	13.096	13.567
ProbeTrack14	7	ProbeTrack	14.0	SCS215a	20111122.141341	20111122.141457	8	0.013325	60	10	60-180	60	101	GapExp	Blank	1	9	2	0	1	target	1	859	571	38623	13.328	8.106	18.556
ProbeTrack14	7	ProbeTrack	14.0	SCS215a	20111122.141341	20111122.141503	8	0.013325	60	10	60-180	60	98	GapExp	Blank	1	10	2	45	1	target	1	943	529	39152	13.328	13.099	13.551
ProbeTrack14	7	ProbeTrack	14.0	SCS215a	20111122.141341	20111122.141510	8	0.013325	60	10	60-180	60	122	GapExp	Blank	0	11	2	1	0	distractor	1	671	665	39817	13.328	9.839	16.811
ProbeTrack14	7	ProbeTrack	14.0	SCS215a	20111122.141341	20111122.141517	8	0.013325	60	10	60-180	60	115	GapExp	Blank	0	12	2	1	0	distractor	1	728	636	40453	13.328	11.726	14.943
ProbeTrack14	7	ProbeTrack	14.0	SCS215a	20111122.141341	20111122.141523	8	0.013325	60	10	60-180	60	158	GapExp	Blank	0	13	2	45	0	distractor	1	610	695	41148	13.328	13.094	13.568
ProbeTrack14	7	ProbeTrack	14.0	SCS215a	20111122.141341	20111122.141530	8	0.013325	60	10	60-180	60	167	GapExp	Blank	0	14	2	6	0	distractor	1	733	634	41782	13.328	13.112	13.551
ProbeTrack14	7	ProbeTrack	14.0	SCS215a	20111122.141341	20111122.141537	8	0.013325	60	10	60-180	60	174	GapExp	Blank	0	15	2	6	1	distractor	0	1030	-1000	40782	13.369	13.116	26.679
ProbeTrack14	7	ProbeTrack	14.0	SCS215a	20111122.141341	20111122.141545	8	0.013325	60	10	60-180	60	83	GapExp	Blank	0	16	2	6	1	target	1	854	573	41355	13.328	10.421	16.242
ProbeTrack14	7	ProbeTrack	14.0	SCS215a	20111122.141341	20111122.141552	8	0.013325	60	10	60-180	60	96	GapExp	Blank	0	17	2	1	0	distractor	1	667	667	42022	13.328	13.106	13.550
ProbeTrack14	7	ProbeTrack	14.0	SCS215a	20111122.141341	20111122.141557	8	0.013325	60	10	60-180	60	164	GapExp	Blank	0	18	2	6	1	distractor	0	760	-1000	41022	13.328	7.671	18.989
ProbeTrack14	7	ProbeTrack	14.0	SCS215a	20111122.141341	20111122.141604	8	0.013325	60	10	60-180	60	168	GapExp	Blank	0	19	2	2	1	target	1	1445	278	41300	13.328	13.106	13.552
ProbeTrack14	7	ProbeTrack	14.0	SCS215a	20111122.141341	20111122.141613	8	0.013325	60	10	60-180	60	73	GapExp	Blank	0	20	2	0	1	distractor	0	729	-1000	40300	13.328	13.094	13.550
ProbeTrack14	7	ProbeTrack	14.0	SCS215a	20111122.141341	20111122.141618	8	0.013325	60	10	60-180	60	129	GapExp	Blank	0	21	2	1	1	target	1	579	711	41011	13.328	13.105	13.544
ProbeTrack14	7	ProbeTrack	14.0	SCS215a	20111122.141341	20111122.141625	8	0.013325	60	10	60-180	60	85	GapExp	Blank	0	22	2	45	0	distractor	1	664	668	41679	13.312	8.882	16.813
ProbeTrack14	7	ProbeTrack	14.0	SCS215a	20111122.141341	20111122.141632	8	0.013325	60	10	60-180	60	89	GapExp	Blank	0	23	2	45	1	target	1	834	583	42262	13.328	13.308	13.349
ProbeTrack14	7	ProbeTrack	14.0	SCS215a	20111122.141341	20111122.141638	8	0.013325	60	10	60-180	60	74	GapExp	Blank	0	24	2	2	1	target	1	643	679	42941	13.328	13.303	13.345
ProbeTrack14	7	ProbeTrack	14.0	SCS215a	20111122.141341	20111122.141644	8	0.013325	60	10	60-180	60	80	GapExp	Blank	0	25	2	2	0	distractor	1	536	732	43673	13.328	13.302	13.354
ProbeTrack14	7	ProbeTrack	14.0	SCS215a	20111122.141341	20111122.141649	8	0.013325	60	10	60-180	60	107	GapExp	Blank	0	26	2	45	0	distractor	1	540	730	44403	13.328	13.101	13.563
ProbeTrack14	7	ProbeTrack	14.0	SCS215a	20111122.141341	20111122.141656	8	0.013325	60	10	60-180	60	164	GapExp	Blank	0	27	2	1	0	distractor	1	693	654	45057	13.328	11.347	15.297
ProbeTrack14	7	ProbeTrack	14.0	SCS215a	20111122.141341	20111122.141703	8	0.013325	60	10	60-180	60	73	GapExp	Blank	0	28	2	6	1	distractor	0	710	-1000	44057	13.328	13.097	13.554
ProbeTrack14	7	ProbeTrack	14.0	SCS215a	20111122.141341	20111122.141709	8	0.013325	60	10	60-180	60	131	GapExp	Blank	0	29	2	2	1	target	1	799	601	44658	13.328	12.766	13.891
ProbeTrack14	7	ProbeTrack	14.0	SCS215a	20111122.141341	20111122.141715	8	0.013325	60	10	60-180	60	76	GapExp	Blank	0	30	2	45	1	target	1	932	534	45192	13.328	12.449	14.202
ProbeTrack14	7	ProbeTrack	14.0	SCS215a	20111122.141341	20111122.141722	8	0.013325	60	10	60-180	60	109	GapExp	Blank	0	31	2	1	1	distractor	0	630	-1000	44192	13.328	13.102	13.550
ProbeTrack14	7	ProbeTrack	14.0	SCS215a	20111122.141341	20111122.141728	8	0.013325	60	10	60-180	60	134	GapExp	Blank	0	32	2	2	1	target	1	413	794	44986	13.328	13.308	13.345
ProbeTrack14	7	ProbeTrack	14.0	SCS215a	20111122.141341	20111122.141734	8	0.013325	60	10	60-180	60	145	GapExp	Blank	0	33	2	45	0	target	0	531	-1000	43986	13.328	10.426	16.225
ProbeTrack14	7	ProbeTrack	14.0	SCS215a	20111122.141341	20111122.141741	8	0.013325	60	10	60-180	60	131	GapExp	Blank	0	34	2	2	0	distractor	1	603	699	44685	13.328	13.293	13.346
ProbeTrack14	7	ProbeTrack	14.0	SCS215a	20111122.141341	20111122.141747	8	0.013325	60	10	60-180	60	78	GapExp	Blank	0	35	2	0	0	distractor	1	726	637	45322	13.328	11.330	15.332
ProbeTrack14	7	ProbeTrack	14.0	SCS215a	20111122.141341	20111122.141753	8	0.013325	60	10	60-180	60	146	GapExp	Blank	0	36	2	45	0	distractor	1	520	740	46062	13.328	8.307	18.346
ProbeTrack14	7	ProbeTrack	14.0	SCS215a	20111122.141341	20111122.141801	8	0.013325	60	10	60-180	60	165	GapExp	Blank	0	37	2	45	0	distractor	1	473	764	46826	13.328	13.302	13.356
ProbeTrack14	7	ProbeTrack	14.0	SCS215a	20111122.141341	20111122.141808	8	0.013325	60	10	60-180	60	133	GapExp	Blank	0	38	2	2	0	distractor	1	547	727	47553	13.328	9.613	18.720
ProbeTrack14	7	ProbeTrack	14.0	SCS215a	20111122.141341	20111122.141814	8	0.013325	60	10	60-180	60	134	GapExp	Blank	0	39	2	0	1	target	1	736	632	48185	13.328	6.453	20.197
ProbeTrack14	7	ProbeTrack	14.0	SCS215a	20111122.141341	20111122.141821	8	0.013325	60	10	60-180	60	77	GapExp	Blank	0	40	2	0	1	target	1	675	663	48848	13.328	8.879	13.348
ProbeTrack14	7	ProbeTrack	14.0	SCS215a	20111122.141341	20111122.141826	8	0.013325	60	10	60-180	60	109	GapExp	Blank	0	41	2	6	0	distractor	1	569	716	49564	13.328	13.099	13.549
ProbeTrack14	7	ProbeTrack	14.0	SCS215a	20111122.141341	20111122.141833	8	0.013325	60	10	60-180	60	71	GapExp	Blank	0	42	2	2	0	distractor	1	639	681	50245	13.328	13.098	13.556
ProbeTrack14	7	ProbeTrack	14.0	SCS215a	20111122.141341	20111122.141838	8	0.013325	60	10	60-180	60	144	GapExp	Blank	0	43	2	1	0	distractor	1	719	641	50886	13.328	8.093	18.561
ProbeTrack14	7	ProbeTrack	14.0	SCS215a	20111122.141341	20111122.141845	8	0.013325	60	10	60-180	60	178	GapExp	Blank	0	44	2	0	0	distractor	1	1358	321	51207	13.328	13.307	13.346
ProbeTrack14	7	ProbeTrack	14.0	SCS215a	20111122.141341	20111122.141853	8	0.013325	60	10	60-180	60	91	GapExp	Blank	0	45	2	2	1	target	1	670	665	51872	13.328	13.093	13.550
ProbeTrack14	7	ProbeTrack	14.0	SCS215a	20111122.141341	20111122.141900	8	0.013325	60	10	60-180	60	99	GapExp	Blank	0	46	2	6	0	distractor	1	626	687	52559	13.328	13.092	13.556
ProbeTrack14	7	ProbeTrack	14.0	SCS215a	20111122.141341	20111122.141906	8	0.013325	60	10	60-180	60	106	GapExp	Blank	0	47	2	2	1	target	1	798	601	53160	13.328	13.308	13.358
ProbeTrack14	7	ProbeTrack	14.0	SCS215a	20111122.141341	20111122.141913	8	0.013325	60	10	60-180	60	117	GapExp	Blank	0	48	2	2	1	target	1	601	700	53860	13.328	12.687	13.974
ProbeTrack14	7	ProbeTrack	14.0	SCS215a	20111122.141341	20111122.141919	8	0.013325	60	10	60-180	60	121	GapExp	Blank	0	49	2	6	0	target	0	468	-1000	52860	13.328	11.415	15.240
ProbeTrack14	7	ProbeTrack	14.0	SCS215a	20111122.141341	20111122.141925	8	0.013325	60	10	60-180	60	134	GapExp	Blank	0	50	2	2	1	target	1	686	657	53517	13.328	10.474	16.168
ProbeTrack14	7	ProbeTrack	14.0	SCS215a	20111122.141341	20111122.141931	8	0.013325	60	10	60-180	60	168	GapExp	Blank	0	51	2	0	0	distractor	1	939	531	54048	13.328	13.294	13.367
ProbeTrack14	7	ProbeTrack	14.0	SCS215a	20111122.141341	20111122.141955	8	0.013325	60	10	60-180	60	178	GapExp	Blank	0	52	2	1	1	target	1	809	596	54644	13.328	10.002	13.348
ProbeTrack14	7	ProbeTrack	14.0	SCS215a	20111122.141341	20111122.142002	8	0.013325	60	10	60-180	60	72	GapExp	Blank	0	53	2	6	1	distractor	0	988	-1000	53644	13.328	11.533	15.129
ProbeTrack14	7	ProbeTrack	14.0	SCS215a	20111122.141341	20111122.142008	8	0.013325	60	10	60-180	60	148	GapExp	Blank	0	54	2	6	1	target	1	516	742	54386	13.328	9.420	17.236
ProbeTrack14	7	ProbeTrack	14.0	SCS215a	20111122.141341	20111122.142014	8	0.013325	60	10	60-180	60	152	GapExp	Blank	0	55	2	1	0	distractor	1	644	678	55064	13.328	13.306	13.347
ProbeTrack14	7	ProbeTrack	14.0	SCS215a	20111122.141341	20111122.142021	8	0.013325	60	10	60-180	60	80	GapExp	Blank	0	56	2	0	0	distractor	1	685	658	55722	13.328	13.078	13.585
ProbeTrack14	7	ProbeTrack	14.0	SCS215a	20111122.141341	20111122.142027	8	0.013325	60	10	60-180	60	178	GapExp	Blank	0	57	2	2	0	distractor	1	635	683	56405	13.328	13.242	13.421
ProbeTrack14	7	ProbeTrack	14.0	SCS215a	20111122.141341	20111122.142034	8	0.013325	60	10	60-180	60	164	GapExp	Blank	0	58	2	1	0	distractor	1	697	652	57057	13.328	5.851	20.810
ProbeTrack14	7	ProbeTrack	14.0	SCS215a	20111122.141341	20111122.142041	8	0.013325	60	10	60-180	60	108	GapExp	Blank	0	59	2	45	0	distractor	1	1293	354	57411	13.328	13.308	13.356
ProbeTrack14	7	ProbeTrack	14.0	SCS215a	20111122.141341	20111122.142048	8	0.013325	60	10	60-180	60	179	GapExp	Blank	0	60	2	1	0	distractor	1	1010	495	57906	13.328	8.710	17.944
ProbeTrack14	7	ProbeTrack	14.0	SCS215a	20111122.141341	20111122.142056	8	0.013325	60	10	60-180	60	128	GapExp	Blank	0	61	2	6	1	target	1	763	619	58525	13.328	13.275	13.372
ProbeTrack14	7	ProbeTrack	14.0	SCS215a	20111122.141341	20111122.142103	8	0.013325	60	10	60-180	60	90	GapExp	Blank	0	62	2	1	1	distractor	0	772	-1000	57525	13.328	10.202	16.475
ProbeTrack14	7	ProbeTrack	14.0	SCS215a	20111122.141341	20111122.142109	8	0.013325	60	10	60-180	60	144	GapExp	Blank	0	63	2	6	1	target	1	593	704	58229	13.328	13.308	13.348
ProbeTrack14	7	ProbeTrack	14.0	SCS215a	20111122.141341	20111122.142116	8	0.013325	60	10	60-180	60	141	GapExp	Blank	0	64	2	45	1	target	1	573	714	58943	13.328	13.086	13.564
ProbeTrack14	7	ProbeTrack	14.0	SCS215a	20111122.141341	20111122.142122	8	0.013325	60	10	60-180	60	151	GapExp	Blank	0	65	2	6	1	target	1	528	736	59679	13.328	11.662	14.994
ProbeTrack14	7	ProbeTrack	14.0	SCS215a	20111122.141341	20111122.142129	8	0.013325	60	10	60-180	60	81	GapExp	Blank	0	66	2	2	1	target	1	463	769	60448	13.328	12.993	13.669
ProbeTrack14	7	ProbeTrack	14.0	SCS215a	20111122.141341	20111122.142135	8	0.013325	60	10	60-180	60	95	GapExp	Blank	0	67	2	0	1	target	1	293	854	61302	13.328	13.305	13.349
ProbeTrack14	7	ProbeTrack	14.0	SCS215a	20111122.141341	20111122.142140	8	0.013325	60	10	60-180	60	180	GapExp	Blank	0	68	2	2	0	distractor	1	576	712	62014	13.328	13.101	13.558
ProbeTrack14	7	ProbeTrack	14.0	SCS215a	20111122.141341	20111122.142147	8	0.013325	60	10	60-180	60	168	GapExp	Blank	0	69	2	2	0	distractor	1	499	751	62765	13.328	10.106	16.543
ProbeTrack14	7	ProbeTrack	14.0	SCS215a	20111122.141341	20111122.142154	8	0.013325	60	10	60-180	60	135	GapExp	Blank	0	70	2	2	1	target	1	563	719	63484	13.328	13.307	13.353
ProbeTrack14	7	ProbeTrack	14.0	SCS215a	20111122.141341	20111122.142200	8	0.013325	60	10	60-180	60	110	GapExp	Blank	0	71	2	1	1	target	1	439	781	64265	13.328	13.303	13.350
ProbeTrack14	7	ProbeTrack	14.0	SCS215a	20111122.141341	20111122.142206	8	0.013325	60	10	60-180	60	155	GapExp	Blank	0	72	2	0	0	target	0	447	-1000	63265	13.328	6.701	19.946
ProbeTrack14	7	ProbeTrack	14.0	SCS215a	20111122.141341	20111122.142213	8	0.013325	60	10	60-180	60	166	GapExp	Blank	0	73	2	6	1	target	1	415	793	64058	13.328	11.140	15.500
ProbeTrack14	7	ProbeTrack	14.0	SCS215a	20111122.141341	20111122.142219	8	0.013325	60	10	60-180	60	62	GapExp	Blank	0	74	2	45	1	distractor	0	634	-1000	63058	13.328	11.392	15.275
ProbeTrack14	7	ProbeTrack	14.0	SCS215a	20111122.141341	20111122.142225	8	0.013325	60	10	60-180	60	80	GapExp	Blank	0	75	2	6	0	distractor	1	770	615	63673	13.386	13.069	21.731
ProbeTrack14	7	ProbeTrack	14.0	SCS215a	20111122.141341	20111122.142230	8	0.013325	60	10	60-180	60	153	GapExp	Blank	0	76	2	0	0	distractor	1	718	641	64314	13.373	7.117	20.448
ProbeTrack14	7	ProbeTrack	14.0	SCS215a	20111122.141341	20111122.142238	8	0.013325	60	10	60-180	60	107	GapExp	Blank	0	77	2	1	0	target	0	716	-1000	63314	13.328	5.304	21.352
ProbeTrack14	7	ProbeTrack	14.0	SCS215a	20111122.141341	20111122.142244	8	0.013325	60	10	60-180	60	150	GapExp	Blank	0	78	2	45	0	distractor	1	423	789	64103	13.370	13.099	26.866
ProbeTrack14	7	ProbeTrack	14.0	SCS215a	20111122.141341	20111122.142251	8	0.013325	60	10	60-180	60	66	GapExp	Blank	0	79	2	6	0	distractor	1	531	735	64838	13.328	13.093	13.556
ProbeTrack14	7	ProbeTrack	14.0	SCS215a	20111122.141341	20111122.142257	8	0.013325	60	10	60-180	60	158	GapExp	Blank	0	80	2	0	1	target	1	584	708	65546	13.328	13.307	13.349
ProbeTrack14	7	ProbeTrack	14.0	SCS215a	20111122.141341	20111122.142303	8	0.013325	60	10	60-180	60	96	GapExp	Blank	0	81	2	2	0	distractor	1	515	743	66289	13.388	7.916	25.088
ProbeTrack14	7	ProbeTrack	14.0	SCS215a	20111122.141341	20111122.142310	8	0.013325	60	10	60-180	60	116	GapExp	Blank	0	82	2	0	1	distractor	0	951	-1000	65289	13.430	11.101	26.432
ProbeTrack14	7	ProbeTrack	14.0	SCS215a	20111122.141341	20111122.142316	8	0.013325	60	10	60-180	60	67	GapExp	Blank	0	83	2	45	1	target	1	504	748	66037	13.328	10.400	16.248
ProbeTrack14	7	ProbeTrack	14.0	SCS215a	20111122.141341	20111122.142322	8	0.013325	60	10	60-180	60	66	GapExp	Blank	0	84	2	45	0	distractor	1	510	745	66782	13.328	12.106	14.559
ProbeTrack14	7	ProbeTrack	14.0	SCS215a	20111122.141341	20111122.142327	8	0.013325	60	10	60-180	60	65	GapExp	Blank	0	85	2	45	0	distractor	1	518	741	67523	13.328	11.942	14.726
ProbeTrack14	7	ProbeTrack	14.0	SCS215a	20111122.141341	20111122.142334	8	0.013325	60	10	60-180	60	95	GapExp	Blank	0	86	2	45	1	target	1	493	754	68277	13.328	13.109	13.535
ProbeTrack14	7	ProbeTrack	14.0	SCS215a	20111122.141341	20111122.142340	8	0.013325	60	10	60-180	60	141	GapExp	Blank	0	87	2	1	1	target	1	599	701	68978	13.328	12.478	14.165
ProbeTrack14	7	ProbeTrack	14.0	SCS215a	20111122.141341	20111122.142347	8	0.013325	60	10	60-180	60	144	GapExp	Blank	0	88	2	0	0	distractor	1	689	656	69634	13.328	9.877	16.792
ProbeTrack14	7	ProbeTrack	14.0	SCS215a	20111122.141341	20111122.142354	8	0.013325	60	10	60-180	60	93	GapExp	Blank	0	89	2	0	0	target	0	483	-1000	68634	13.328	13.100	13.557
ProbeTrack14	7	ProbeTrack	14.0	SCS215a	20111122.141341	20111122.142359	8	0.013325	60	10	60-180	60	163	GapExp	Blank	0	90	2	0	0	target	0	740	-1000	67634	13.371	12.270	26.889
ProbeTrack14	7	ProbeTrack	14.0	SCS215a	20111122.141341	20111122.142406	8	0.013325	60	10	60-180	60	86	GapExp	Blank	0	91	2	45	1	target	1	788	606	68240	13.328	11.208	15.455
ProbeTrack14	7	ProbeTrack	14.0	SCS215a	20111122.141341	20111122.142413	8	0.013325	60	10	60-180	60	166	GapExp	Blank	0	92	2	1	0	distractor	1	516	742	68982	13.328	12.309	14.332
ProbeTrack14	7	ProbeTrack	14.0	SCS215a	20111122.141341	20111122.142420	8	0.013325	60	10	60-180	60	120	GapExp	Blank	0	93	2	1	1	target	1	847	577	69559	13.328	8.441	18.198
ProbeTrack14	7	ProbeTrack	14.0	SCS215a	20111122.141341	20111122.142426	8	0.013325	60	10	60-180	60	169	GapExp	Blank	0	94	2	45	0	distractor	1	750	625	70184	13.328	12.894	13.761
ProbeTrack14	7	ProbeTrack	14.0	SCS215a	20111122.141341	20111122.142433	8	0.013325	60	10	60-180	60	78	GapExp	Blank	0	95	2	45	1	target	1	700	650	70834	13.328	9.015	17.641
ProbeTrack14	7	ProbeTrack	14.0	SCS215a	20111122.141341	20111122.142440	8	0.013325	60	10	60-180	60	94	GapExp	Blank	0	96	2	1	1	target	1	679	661	71495	13.444	13.073	33.247
ProbeTrack14	7	ProbeTrack	14.0	SCS215a	20111122.141341	20111122.142446	8	0.013325	60	10	60-180	60	144	GapExp	Blank	0	97	2	1	1	target	1	898	551	72046	13.328	7.951	18.705
ProbeTrack14	7	ProbeTrack	14.0	SCS215a	20111122.141341	20111122.142452	8	0.013325	60	10	60-180	60	129	GapExp	Blank	0	98	2	45	1	distractor	0	792	-1000	71046	13.328	12.714	13.940
ProbeTrack14	7	ProbeTrack	14.0	SCS215a	20111122.141341	20111122.142459	8	0.013325	60	10	60-180	60	160	GapExp	Blank	0	99	2	0	1	target	1	609	696	71742	13.328	8.689	17.962
ProbeTrack14	7	ProbeTrack	14.0	SCS215a	20111122.141341	20111122.142506	8	0.013325	60	10	60-180	60	137	GapExp	Blank	0	100	2	6	0	distractor	1	601	700	72442	13.328	11.451	15.193
ProbeTrack14	7	ProbeTrack	14.0	SCS215a	20111122.141341	20111122.142513	8	0.013325	60	10	60-180	60	80	GapExp	Blank	0	101	2	1	0	distractor	1	880	560	73002	13.328	13.299	13.353
ProbeTrack14	7	ProbeTrack	14.0	SCS215a	20111122.141341	20111122.142535	8	0.013325	60	10	60-180	60	79	GapExp	Blank	0	102	2	1	0	target	0	587	-1000	72002	13.328	13.106	13.550
ProbeTrack14	7	ProbeTrack	14.0	SCS215a	20111122.141341	20111122.142540	8	0.013325	60	10	60-180	60	68	GapExp	Blank	0	103	2	6	0	distractor	1	594	703	72705	13.459	13.114	35.477
ProbeTrack14	7	ProbeTrack	14.0	SCS215a	20111122.141341	20111122.142545	8	0.013325	60	10	60-180	60	146	GapExp	Blank	0	104	2	6	1	distractor	0	545	-1000	71705	13.328	13.109	13.542
ProbeTrack14	7	ProbeTrack	14.0	SCS215a	20111122.141341	20111122.142552	8	0.013325	60	10	60-180	60	167	GapExp	Blank	0	105	2	0	1	target	1	620	690	72395	13.328	11.114	15.544
ProbeTrack14	7	ProbeTrack	14.0	SCS215a	20111122.141341	20111122.142559	8	0.013325	60	10	60-180	60	105	GapExp	Blank	0	106	2	45	1	target	1	384	808	73203	13.328	3.965	22.686
ProbeTrack14	7	ProbeTrack	14.0	SCS215a	20111122.141341	20111122.142605	8	0.013325	60	10	60-180	60	169	GapExp	Blank	0	107	2	0	0	distractor	1	676	662	73865	13.371	12.566	25.249
ProbeTrack14	7	ProbeTrack	14.0	SCS215a	20111122.141341	20111122.142612	8	0.013325	60	10	60-180	60	103	GapExp	Blank	0	108	2	0	0	distractor	1	810	595	74460	13.328	13.308	13.348
ProbeTrack14	7	ProbeTrack	14.0	SCS215a	20111122.141341	20111122.142618	8	0.013325	60	10	60-180	60	148	GapExp	Blank	0	109	2	2	1	target	1	613	694	75154	13.328	13.309	13.356
ProbeTrack14	7	ProbeTrack	14.0	SCS215a	20111122.141341	20111122.142624	8	0.013325	60	10	60-180	60	103	GapExp	Blank	0	110	2	45	1	target	1	568	716	75870	13.376	9.726	26.433
ProbeTrack14	7	ProbeTrack	14.0	SCS215a	20111122.141341	20111122.142634	8	0.013325	60	10	60-180	60	155	GapExp	Blank	0	111	2	1	0	distractor	1	649	676	76546	13.374	7.454	23.539
ProbeTrack14	7	ProbeTrack	14.0	SCS215a	20111122.141341	20111122.142641	8	0.013325	60	10	60-180	60	140	GapExp	Blank	0	112	2	2	1	target	1	521	740	77286	13.328	7.908	18.747
ProbeTrack14	7	ProbeTrack	14.0	SCS215a	20111122.141341	20111122.142648	8	0.013325	60	10	60-180	60	93	GapExp	Blank	0	113	2	6	0	distractor	1	654	673	77959	13.328	6.480	20.183
ProbeTrack14	7	ProbeTrack	14.0	SCS215a	20111122.141341	20111122.142654	8	0.013325	60	10	60-180	60	112	GapExp	Blank	0	114	2	0	0	distractor	1	509	746	78705	13.328	10.322	16.335
ProbeTrack14	7	ProbeTrack	14.0	SCS215a	20111122.141341	20111122.142659	8	0.013325	60	10	60-180	60	162	GapExp	Blank	0	115	2	45	1	target	1	630	685	79390	13.328	4.728	21.929
ProbeTrack14	7	ProbeTrack	14.0	SCS215a	20111122.141341	20111122.142706	8	0.013325	60	10	60-180	60	121	GapExp	Blank	0	116	2	1	0	distractor	1	1307	347	79737	13.328	10.325	16.331
ProbeTrack14	7	ProbeTrack	14.0	SCS215a	20111122.141341	20111122.142714	8	0.013325	60	10	60-180	60	108	GapExp	Blank	0	117	2	1	0	target	0	692	-1000	78737	13.328	10.980	15.675
ProbeTrack14	7	ProbeTrack	14.0	SCS215a	20111122.141341	20111122.142720	8	0.013325	60	10	60-180	60	151	GapExp	Blank	0	118	2	0	0	distractor	1	663	669	79406	13.328	13.102	13.543
ProbeTrack14	7	ProbeTrack	14.0	SCS215a	20111122.141341	20111122.142726	8	0.013325	60	10	60-180	60	124	GapExp	Blank	0	119	2	1	1	target	1	610	695	80101	13.328	8.447	18.201
ProbeTrack14	7	ProbeTrack	14.0	SCS215a	20111122.141341	20111122.142732	8	0.013325	60	10	60-180	60	106	GapExp	Blank	0	120	2	1	1	target	1	611	695	80796	13.328	13.085	13.567
ProbeTrack14	7	ProbeTrack	14.0	SCS215a	20111122.141341	20111122.142738	8	0.013325	60	10	60-180	60	179	GapExp	Blank	0	121	2	6	1	target	1	499	751	81547	13.328	9.758	16.886
ProbeTrack14	7	ProbeTrack	14.0	SCS215a	20111122.141341	20111122.142745	8	0.013325	60	10	60-180	60	96	GapExp	Blank	0	122	2	1	0	distractor	1	635	683	82230	13.328	12.061	14.605
ProbeTrack14	7	ProbeTrack	14.0	SCS215a	20111122.141341	20111122.142751	8	0.013325	60	10	60-180	60	103	GapExp	Blank	0	123	2	1	0	distractor	1	631	685	82915	13.384	10.041	23.444
ProbeTrack14	7	ProbeTrack	14.0	SCS215a	20111122.141341	20111122.142758	8	0.013325	60	10	60-180	60	63	GapExp	Blank	0	124	2	2	0	distractor	1	589	706	83621	13.396	9.380	27.299
ProbeTrack14	7	ProbeTrack	14.0	SCS215a	20111122.141341	20111122.142803	8	0.013325	60	10	60-180	60	106	GapExp	Blank	0	125	2	45	1	target	1	509	746	84367	13.376	5.889	24.752
ProbeTrack14	7	ProbeTrack	14.0	SCS215a	20111122.141341	20111122.142810	8	0.013325	60	10	60-180	60	147	GapExp	Blank	0	126	2	6	1	target	1	503	749	85116	13.328	12.255	14.295
ProbeTrack14	7	ProbeTrack	14.0	SCS215a	20111122.141341	20111122.142816	8	0.013325	60	10	60-180	60	128	GapExp	Blank	0	127	2	2	0	distractor	1	520	740	85856	13.328	10.336	16.306
ProbeTrack14	7	ProbeTrack	14.0	SCS215a	20111122.141341	20111122.142822	8	0.013325	60	10	60-180	60	87	GapExp	Blank	0	128	2	1	0	target	0	1240	-1000	84856	13.328	13.093	13.574
ProbeTrack14	7	ProbeTrack	14.0	SCS215a	20111122.141341	20111122.142829	8	0.013325	60	10	60-180	60	131	GapExp	Blank	0	129	2	2	0	distractor	1	659	671	85527	13.328	10.393	16.276
ProbeTrack14	7	ProbeTrack	14.0	SCS215a	20111122.141341	20111122.142835	8	0.013325	60	10	60-180	60	101	GapExp	Blank	0	130	2	0	0	distractor	1	583	709	86236	13.386	13.106	22.173
ProbeTrack14	7	ProbeTrack	14.0	SCS215a	20111122.141341	20111122.142841	8	0.013325	60	10	60-180	60	106	GapExp	Blank	0	131	2	6	1	target	1	697	652	86888	13.381	13.100	26.496
ProbeTrack14	7	ProbeTrack	14.0	SCS215a	20111122.141341	20111122.142848	8	0.013325	60	10	60-180	60	141	GapExp	Blank	0	132	2	0	1	distractor	0	714	-1000	85888	13.375	9.835	26.670
ProbeTrack14	7	ProbeTrack	14.0	SCS215a	20111122.141341	20111122.142854	8	0.013325	60	10	60-180	60	173	GapExp	Blank	0	133	2	45	1	target	1	726	637	86525	13.328	13.113	13.544
ProbeTrack14	7	ProbeTrack	14.0	SCS215a	20111122.141341	20111122.142902	8	0.013325	60	10	60-180	60	144	GapExp	Blank	0	134	2	6	0	target	0	706	-1000	85525	13.328	13.100	13.550
ProbeTrack14	7	ProbeTrack	14.0	SCS215a	20111122.141341	20111122.142908	8	0.013325	60	10	60-180	60	139	GapExp	Blank	0	135	2	2	1	distractor	0	791	-1000	84525	13.328	11.443	15.208
ProbeTrack14	7	ProbeTrack	14.0	SCS215a	20111122.141341	20111122.142914	8	0.013325	60	10	60-180	60	78	GapExp	Blank	0	136	2	1	0	distractor	1	778	611	85136	13.328	8.140	18.516
ProbeTrack14	7	ProbeTrack	14.0	SCS215a	20111122.141341	20111122.142921	8	0.013325	60	10	60-180	60	176	GapExp	Blank	0	137	2	0	1	distractor	0	1056	-1000	84136	13.411	9.321	40.138
ProbeTrack14	7	ProbeTrack	14.0	SCS215a	20111122.141341	20111122.142928	8	0.013325	60	10	60-180	60	74	GapExp	Blank	0	138	2	2	0	distractor	1	925	538	84674	13.448	13.300	35.185
ProbeTrack14	7	ProbeTrack	14.0	SCS215a	20111122.141341	20111122.142934	8	0.013325	60	10	60-180	60	71	GapExp	Blank	0	139	2	6	1	target	1	776	612	85286	13.328	13.297	13.361
ProbeTrack14	7	ProbeTrack	14.0	SCS215a	20111122.141341	20111122.142939	8	0.013325	60	10	60-180	60	115	GapExp	Blank	0	140	2	0	1	target	1	565	718	86004	13.328	13.113	13.557
ProbeTrack14	7	ProbeTrack	14.0	SCS215a	20111122.141341	20111122.142945	8	0.013325	60	10	60-180	60	81	GapExp	Blank	0	141	2	0	1	distractor	0	690	-1000	85004	13.328	13.106	13.558
ProbeTrack14	7	ProbeTrack	14.0	SCS215a	20111122.141341	20111122.142951	8	0.013325	60	10	60-180	60	161	GapExp	Blank	0	142	2	6	0	distractor	1	619	691	85695	13.328	10.618	16.038
ProbeTrack14	7	ProbeTrack	14.0	SCS215a	20111122.141341	20111122.142958	8	0.013325	60	10	60-180	60	76	GapExp	Blank	0	143	2	1	1	distractor	0	1786	-1000	84695	13.328	9.095	17.560
ProbeTrack14	7	ProbeTrack	14.0	SCS215a	20111122.141341	20111122.143004	8	0.013325	60	10	60-180	60	107	GapExp	Blank	0	144	2	45	0	distractor	1	695	653	85348	13.328	12.686	13.970
ProbeTrack14	7	ProbeTrack	14.0	SCS215a	20111122.141341	20111122.143011	8	0.013325	60	10	60-180	60	64	GapExp	Blank	0	145	2	6	1	target	1	576	712	86060	13.394	13.218	26.464
ProbeTrack14	7	ProbeTrack	14.0	SCS215a	20111122.141341	20111122.143016	8	0.013325	60	10	60-180	60	147	GapExp	Blank	0	146	2	6	1	target	1	579	711	86771	13.328	8.453	18.201
ProbeTrack14	7	ProbeTrack	14.0	SCS215a	20111122.141341	20111122.143023	8	0.013325	60	10	60-180	60	82	GapExp	Blank	0	147	2	1	1	target	1	763	619	87390	13.328	10.353	16.494
ProbeTrack14	7	ProbeTrack	14.0	SCS215a	20111122.141341	20111122.143029	8	0.013325	60	10	60-180	60	89	GapExp	Blank	0	148	2	1	1	target	1	530	735	88125	13.328	13.293	13.348
ProbeTrack14	7	ProbeTrack	14.0	SCS215a	20111122.141341	20111122.143035	8	0.013325	60	10	60-180	60	122	GapExp	Blank	0	149	2	6	1	target	1	534	733	88858	13.433	13.086	32.267
ProbeTrack14	7	ProbeTrack	14.0	SCS215a	20111122.141341	20111122.143041	8	0.013325	60	10	60-180	60	164	GapExp	Blank	0	150	2	45	1	target	1	544	728	89586	13.328	13.100	13.558
ProbeTrack14	7	ProbeTrack	14.0	SCS215a	20111122.141341	20111122.143048	8	0.013325	60	10	60-180	60	163	GapExp	Blank	0	151	2	0	0	distractor	1	571	715	90301	13.328	13.099	13.561
ProbeTrack14	7	ProbeTrack	14.0	SCS215a	20111122.141341	20111122.143117	8	0.013325	60	10	60-180	60	76	GapExp	Blank	0	152	2	6	1	target	1	581	710	91011	13.328	13.100	13.558
ProbeTrack14	7	ProbeTrack	14.0	SCS215a	20111122.141341	20111122.143122	8	0.013325	60	10	60-180	60	64	GapExp	Blank	0	153	2	1	1	target	1	498	751	91762	13.328	13.309	13.343
ProbeTrack14	7	ProbeTrack	14.0	SCS215a	20111122.141341	20111122.143127	8	0.013325	60	10	60-180	60	116	GapExp	Blank	0	154	2	2	0	distractor	1	881	560	92322	13.328	13.308	13.347
ProbeTrack14	7	ProbeTrack	14.0	SCS215a	20111122.141341	20111122.143134	8	0.013325	60	10	60-180	60	78	GapExp	Blank	0	155	2	1	0	target	0	712	-1000	91322	13.328	9.984	16.672
ProbeTrack14	7	ProbeTrack	14.0	SCS215a	20111122.141341	20111122.143139	8	0.013325	60	10	60-180	60	77	GapExp	Blank	0	156	2	6	1	target	1	508	746	92068	13.328	7.923	18.733
ProbeTrack14	7	ProbeTrack	14.0	SCS215a	20111122.141341	20111122.143144	8	0.013325	60	10	60-180	60	102	GapExp	Blank	0	157	2	0	1	target	1	836	582	92650	13.328	13.093	13.565
ProbeTrack14	7	ProbeTrack	14.0	SCS215a	20111122.141341	20111122.143151	8	0.013325	60	10	60-180	60	155	GapExp	Blank	0	158	2	0	1	target	1	683	659	93309	13.328	12.725	13.932
ProbeTrack14	7	ProbeTrack	14.0	SCS215a	20111122.141341	20111122.143158	8	0.013325	60	10	60-180	60	155	GapExp	Blank	0	159	2	0	1	target	1	689	656	93965	13.328	13.106	13.558
ProbeTrack14	7	ProbeTrack	14.0	SCS215a	20111122.141341	20111122.143204	8	0.013325	60	10	60-180	60	117	GapExp	Blank	0	160	2	0	1	distractor	0	1043	-1000	92965	13.328	10.314	16.341
ProbeTrack14	7	ProbeTrack	14.0	SCS215a	20111122.141341	20111122.143211	8	0.013325	60	10	60-180	60	77	GapExp	Blank	0	161	2	1	1	target	1	452	774	93739	13.328	13.299	13.357
ProbeTrack14	7	ProbeTrack	14.0	SCS215a	20111122.141341	20111122.143216	8	0.013325	60	10	60-180	60	84	GapExp	Blank	0	162	2	1	1	target	1	819	591	94330	13.328	10.368	16.293
ProbeTrack14	7	ProbeTrack	14.0	SCS215a	20111122.141341	20111122.143223	8	0.013325	60	10	60-180	60	149	GapExp	Blank	0	163	2	1	0	distractor	1	577	712	95042	13.328	13.308	13.347
ProbeTrack14	7	ProbeTrack	14.0	SCS215a	20111122.141341	20111122.143231	8	0.013325	60	10	60-180	60	115	GapExp	Blank	0	164	2	6	0	distractor	1	558	721	95763	13.328	9.686	16.972
ProbeTrack14	7	ProbeTrack	14.0	SCS215a	20111122.141341	20111122.143237	8	0.013325	60	10	60-180	60	152	GapExp	Blank	0	165	2	2	1	distractor	0	915	-1000	94763	13.328	13.305	13.348
ProbeTrack14	7	ProbeTrack	14.0	SCS215a	20111122.141341	20111122.143244	8	0.013325	60	10	60-180	60	164	GapExp	Blank	0	166	2	2	1	target	1	786	607	95370	13.328	12.660	14.001
ProbeTrack14	7	ProbeTrack	14.0	SCS215a	20111122.141341	20111122.143250	8	0.013325	60	10	60-180	60	168	GapExp	Blank	0	167	2	45	0	distractor	1	1608	196	95566	13.328	12.188	14.469
ProbeTrack14	7	ProbeTrack	14.0	SCS215a	20111122.141341	20111122.143259	8	0.013325	60	10	60-180	60	119	GapExp	Blank	0	168	2	2	0	distractor	1	773	614	96180	13.328	7.389	19.267
ProbeTrack14	7	ProbeTrack	14.0	SCS215a	20111122.141341	20111122.143305	8	0.013325	60	10	60-180	60	99	GapExp	Blank	0	169	2	2	0	target	0	628	-1000	95180	13.328	13.300	13.349
ProbeTrack14	7	ProbeTrack	14.0	SCS215a	20111122.141341	20111122.143311	8	0.013325	60	10	60-180	60	86	GapExp	Blank	0	170	2	0	1	target	1	911	545	95725	13.328	13.099	13.558
ProbeTrack14	7	ProbeTrack	14.0	SCS215a	20111122.141341	20111122.143316	8	0.013325	60	10	60-180	60	110	GapExp	Blank	0	171	2	2	0	distractor	1	667	667	96392	13.328	13.300	13.358
ProbeTrack14	7	ProbeTrack	14.0	SCS215a	20111122.141341	20111122.143322	8	0.013325	60	10	60-180	60	167	GapExp	Blank	0	172	2	6	0	distractor	1	1054	473	96865	13.328	13.092	13.573
ProbeTrack14	7	ProbeTrack	14.0	SCS215a	20111122.141341	20111122.143330	8	0.013325	60	10	60-180	60	103	GapExp	Blank	0	173	2	45	1	target	1	432	784	97649	13.328	12.445	14.205
ProbeTrack14	7	ProbeTrack	14.0	SCS215a	20111122.141341	20111122.143336	8	0.013325	60	10	60-180	60	85	GapExp	Blank	0	174	2	45	1	distractor	0	465	-1000	96649	13.328	13.108	13.555
ProbeTrack14	7	ProbeTrack	14.0	SCS215a	20111122.141341	20111122.143342	8	0.013325	60	10	60-180	60	149	GapExp	Blank	0	175	2	1	1	target	1	547	727	97376	13.328	8.918	17.725
ProbeTrack14	7	ProbeTrack	14.0	SCS215a	20111122.141341	20111122.143349	8	0.013325	60	10	60-180	60	76	GapExp	Blank	0	176	2	6	0	distractor	1	997	502	97878	13.328	13.265	13.398
ProbeTrack14	7	ProbeTrack	14.0	SCS215a	20111122.141341	20111122.143355	8	0.013325	60	10	60-180	60	96	GapExp	Blank	0	177	2	6	0	target	0	596	-1000	96878	13.328	9.251	17.392
ProbeTrack14	7	ProbeTrack	14.0	SCS215a	20111122.141341	20111122.143401	8	0.013325	60	10	60-180	60	120	GapExp	Blank	0	178	2	1	1	target	1	731	635	97513	13.328	8.394	18.262
ProbeTrack14	7	ProbeTrack	14.0	SCS215a	20111122.141341	20111122.143407	8	0.013325	60	10	60-180	60	72	GapExp	Blank	0	179	2	2	0	distractor	1	556	722	98235	13.328	13.310	13.354
ProbeTrack14	7	ProbeTrack	14.0	SCS215a	20111122.141341	20111122.143415	8	0.013325	60	10	60-180	60	136	GapExp	Blank	0	180	2	45	1	distractor	0	680	-1000	97235	13.328	8.885	17.773
ProbeTrack14	7	ProbeTrack	14.0	SCS215a	20111122.141341	20111122.143422	8	0.013325	60	10	60-180	60	106	GapExp	Blank	0	181	2	2	0	target	0	672	-1000	96235	13.328	13.305	13.348
ProbeTrack14	7	ProbeTrack	14.0	SCS215a	20111122.141341	20111122.143428	8	0.013325	60	10	60-180	60	106	GapExp	Blank	0	182	2	45	0	distractor	1	882	559	96794	13.328	12.943	13.737
ProbeTrack14	7	ProbeTrack	14.0	SCS215a	20111122.141341	20111122.143435	8	0.013325	60	10	60-180	60	98	GapExp	Blank	0	183	2	6	0	distractor	1	717	642	97436	13.328	13.104	13.552
ProbeTrack14	7	ProbeTrack	14.0	SCS215a	20111122.141341	20111122.143441	8	0.013325	60	10	60-180	60	94	GapExp	Blank	0	184	2	45	0	distractor	1	670	665	98101	13.328	4.908	21.756
ProbeTrack14	7	ProbeTrack	14.0	SCS215a	20111122.141341	20111122.143447	8	0.013325	60	10	60-180	60	92	GapExp	Blank	0	185	2	0	0	distractor	1	882	559	98660	13.328	13.100	13.565
ProbeTrack14	7	ProbeTrack	14.0	SCS215a	20111122.141341	20111122.143453	8	0.013325	60	10	60-180	60	147	GapExp	Blank	0	186	2	45	0	distractor	1	554	723	99383	13.328	7.480	19.163
ProbeTrack14	7	ProbeTrack	14.0	SCS215a	20111122.141341	20111122.143500	8	0.013325	60	10	60-180	60	120	GapExp	Blank	0	187	2	2	1	target	1	681	660	100043	13.328	12.986	13.657
ProbeTrack14	7	ProbeTrack	14.0	SCS215a	20111122.141341	20111122.143507	8	0.013325	60	10	60-180	60	101	GapExp	Blank	0	188	2	45	1	target	1	469	766	100809	13.328	8.298	18.351
ProbeTrack14	7	ProbeTrack	14.0	SCS215a	20111122.141341	20111122.143514	8	0.013325	60	10	60-180	60	130	GapExp	Blank	0	189	2	45	0	target	0	449	-1000	99809	13.328	11.904	14.738
ProbeTrack14	7	ProbeTrack	14.0	SCS215a	20111122.141341	20111122.143520	8	0.013325	60	10	60-180	60	152	GapExp	Blank	0	190	2	0	0	distractor	1	595	703	100512	13.328	11.452	14.962
ProbeTrack14	7	ProbeTrack	14.0	SCS215a	20111122.141341	20111122.143527	8	0.013325	60	10	60-180	60	110	GapExp	Blank	0	191	2	0	1	target	1	1264	368	100880	13.328	6.644	20.003
ProbeTrack14	7	ProbeTrack	14.0	SCS215a	20111122.141341	20111122.143533	8	0.013325	60	10	60-180	60	156	GapExp	Blank	0	192	2	45	0	distractor	1	499	751	101631	13.369	13.170	26.470
ProbeTrack14	7	ProbeTrack	14.0	SCS215a	20111122.141341	20111122.143541	8	0.013325	60	10	60-180	60	180	GapExp	Blank	0	193	2	0	0	distractor	1	826	587	102218	13.328	13.099	13.558
ProbeTrack14	7	ProbeTrack	14.0	SCS215a	20111122.141341	20111122.143548	8	0.013325	60	10	60-180	60	75	GapExp	Blank	0	194	2	0	1	target	1	992	504	102722	13.328	8.581	18.069
ProbeTrack14	7	ProbeTrack	14.0	SCS215a	20111122.141341	20111122.143554	8	0.013325	60	10	60-180	60	120	GapExp	Blank	0	195	2	6	0	target	0	625	-1000	101722	13.328	13.305	13.349
ProbeTrack14	7	ProbeTrack	14.0	SCS215a	20111122.141341	20111122.143601	8	0.013325	60	10	60-180	60	84	GapExp	Blank	0	196	2	6	1	target	1	1133	434	102156	13.328	13.309	13.348
ProbeTrack14	7	ProbeTrack	14.0	SCS215a	20111122.141341	20111122.143607	8	0.013325	60	10	60-180	60	134	GapExp	Blank	0	197	2	6	0	distractor	1	423	789	102945	13.328	13.312	13.348
ProbeTrack14	7	ProbeTrack	14.0	SCS215a	20111122.141341	20111122.143614	8	0.013325	60	10	60-180	60	117	GapExp	Blank	0	198	2	2	1	target	1	548	726	103671	13.328	13.309	13.344
ProbeTrack14	7	ProbeTrack	14.0	SCS215a	20111122.141341	20111122.143620	8	0.013325	60	10	60-180	60	154	GapExp	Blank	0	199	2	45	0	distractor	1	646	677	104348	13.328	13.304	13.349
ProbeTrack14	7	ProbeTrack	14.0	SCS215a	20111122.141341	20111122.143628	8	0.013325	60	10	60-180	60	158	GapExp	Blank	0	200	2	45	0	distractor	1	725	638	104986	13.328	12.803	13.854
ProbeTrack14	7	ProbeTrack	14.0	SCS215a	20111122.141341	20111122.143636	8	0.013325	60	10	60-180	60	117	GapExp	Blank	0	201	2	2	1	target	1	483	759	105745	13.328	6.990	19.667
ProbeTrack14	7	ProbeTrack	14.0	SCS215a	20111122.141341	20111122.143705	8	0.013325	60	10	60-180	60	70	GapExp	Blank	0	202	2	6	1	target	1	512	744	106489	13.328	7.199	19.462
ProbeTrack14	7	ProbeTrack	14.0	SCS215a	20111122.141341	20111122.143710	8	0.013325	60	10	60-180	60	118	GapExp	Blank	0	203	2	2	1	target	1	569	716	107205	13.328	13.303	13.350
ProbeTrack14	7	ProbeTrack	14.0	SCS215a	20111122.141341	20111122.143716	8	0.013325	60	10	60-180	60	61	GapExp	Blank	0	204	2	6	0	distractor	1	716	642	107847	13.328	13.305	13.357
ProbeTrack14	7	ProbeTrack	14.0	SCS215a	20111122.141341	20111122.143722	8	0.013325	60	10	60-180	60	143	GapExp	Blank	0	205	2	1	1	target	1	604	698	108545	13.328	10.901	15.762
ProbeTrack14	7	ProbeTrack	14.0	SCS215a	20111122.141341	20111122.143728	8	0.013325	60	10	60-180	60	94	GapExp	Blank	0	206	2	1	1	target	1	531	735	109280	13.328	10.384	16.278
ProbeTrack14	7	ProbeTrack	14.0	SCS215a	20111122.141341	20111122.143733	8	0.013325	60	10	60-180	60	129	GapExp	Blank	0	207	2	0	0	distractor	1	523	739	110019	13.328	12.853	13.796
ProbeTrack14	7	ProbeTrack	14.0	SCS215a	20111122.141341	20111122.143740	8	0.013325	60	10	60-180	60	80	GapExp	Blank	0	208	2	45	0	distractor	1	656	672	110691	13.328	11.926	14.725
ProbeTrack14	7	ProbeTrack	14.0	SCS215a	20111122.141341	20111122.143746	8	0.013325	60	10	60-180	60	117	GapExp	Blank	0	209	2	1	1	target	1	661	670	111361	13.328	8.735	17.916
ProbeTrack14	7	ProbeTrack	14.0	SCS215a	20111122.141341	20111122.143752	8	0.013325	60	10	60-180	60	125	GapExp	Blank	0	210	2	2	0	distractor	1	547	727	112088	13.328	13.309	13.350
ProbeTrack14	7	ProbeTrack	14.0	SCS215a	20111122.141341	20111122.143758	8	0.013325	60	10	60-180	60	62	GapExp	Blank	0	211	2	6	0	distractor	1	459	771	112859	13.328	13.298	13.359
ProbeTrack14	7	ProbeTrack	14.0	SCS215a	20111122.141341	20111122.143804	8	0.013325	60	10	60-180	60	179	GapExp	Blank	0	212	2	45	1	target	1	647	677	113536	13.328	5.065	21.600
ProbeTrack14	7	ProbeTrack	14.0	SCS215a	20111122.141341	20111122.143812	8	0.013325	60	10	60-180	60	179	GapExp	Blank	0	213	2	2	1	target	1	529	736	114272	13.328	13.113	13.558
ProbeTrack14	7	ProbeTrack	14.0	SCS215a	20111122.141341	20111122.143818	8	0.013325	60	10	60-180	60	70	GapExp	Blank	0	214	2	45	0	target	0	749	-1000	113272	13.328	6.570	20.093
ProbeTrack14	7	ProbeTrack	14.0	SCS215a	20111122.141341	20111122.143825	8	0.013325	60	10	60-180	60	101	GapExp	Blank	0	215	2	6	0	distractor	1	731	635	113907	13.328	13.092	13.558
ProbeTrack14	7	ProbeTrack	14.0	SCS215a	20111122.141341	20111122.143830	8	0.013325	60	10	60-180	60	179	GapExp	Blank	0	216	2	1	0	distractor	1	484	758	114665	13.328	9.704	16.958
ProbeTrack14	7	ProbeTrack	14.0	SCS215a	20111122.141341	20111122.143837	8	0.013325	60	10	60-180	60	157	GapExp	Blank	0	217	2	0	0	distractor	1	540	730	115395	13.328	10.916	15.734
ProbeTrack14	7	ProbeTrack	14.0	SCS215a	20111122.141341	20111122.143844	8	0.013325	60	10	60-180	60	93	GapExp	Blank	0	218	2	2	0	distractor	1	617	692	116087	13.328	13.113	13.543
ProbeTrack14	7	ProbeTrack	14.0	SCS215a	20111122.141341	20111122.143850	8	0.013325	60	10	60-180	60	142	GapExp	Blank	0	219	2	1	0	distractor	1	544	728	116815	13.328	10.905	15.755
ProbeTrack14	7	ProbeTrack	14.0	SCS215a	20111122.141341	20111122.143856	8	0.013325	60	10	60-180	60	92	GapExp	Blank	0	220	2	45	0	distractor	1	873	564	117379	13.328	13.310	13.349
ProbeTrack14	7	ProbeTrack	14.0	SCS215a	20111122.141341	20111122.143902	8	0.013325	60	10	60-180	60	90	GapExp	Blank	0	221	2	1	1	target	1	1031	485	117864	13.328	10.685	15.965
ProbeTrack14	7	ProbeTrack	14.0	SCS215a	20111122.141341	20111122.143908	8	0.013325	60	10	60-180	60	96	GapExp	Blank	0	222	2	0	0	distractor	1	575	713	118577	13.328	12.579	14.088
ProbeTrack14	7	ProbeTrack	14.0	SCS215a	20111122.141341	20111122.143915	8	0.013325	60	10	60-180	60	86	GapExp	Blank	0	223	2	0	1	distractor	0	686	-1000	117577	13.328	12.461	14.201
ProbeTrack14	7	ProbeTrack	14.0	SCS215a	20111122.141341	20111122.143920	8	0.013325	60	10	60-180	60	107	GapExp	Blank	0	224	2	2	0	distractor	1	528	736	118313	13.328	12.646	14.017
ProbeTrack14	7	ProbeTrack	14.0	SCS215a	20111122.141341	20111122.143926	8	0.013325	60	10	60-180	60	161	GapExp	Blank	0	225	2	1	1	target	1	513	744	119057	13.328	11.002	15.642
ProbeTrack14	7	ProbeTrack	14.0	SCS215a	20111122.141341	20111122.143932	8	0.013325	60	10	60-180	60	101	GapExp	Blank	0	226	2	0	0	distractor	1	478	761	119818	13.328	13.306	13.349
ProbeTrack14	7	ProbeTrack	14.0	SCS215a	20111122.141341	20111122.143938	8	0.013325	60	10	60-180	60	63	GapExp	Blank	0	227	2	6	0	distractor	1	429	786	120604	13.328	8.003	18.647
ProbeTrack14	7	ProbeTrack	14.0	SCS215a	20111122.141341	20111122.143943	8	0.013325	60	10	60-180	60	164	GapExp	Blank	0	228	2	2	1	target	1	650	675	121279	13.328	10.553	16.115
ProbeTrack14	7	ProbeTrack	14.0	SCS215a	20111122.141341	20111122.143950	8	0.013325	60	10	60-180	60	87	GapExp	Blank	0	229	2	45	0	distractor	1	442	779	122058	13.328	9.984	16.666
ProbeTrack14	7	ProbeTrack	14.0	SCS215a	20111122.141341	20111122.143956	8	0.013325	60	10	60-180	60	89	GapExp	Blank	0	230	2	2	1	target	1	531	735	122793	13.328	8.498	18.149
ProbeTrack14	7	ProbeTrack	14.0	SCS215a	20111122.141341	20111122.144001	8	0.013325	60	10	60-180	60	154	GapExp	Blank	0	231	2	0	0	target	0	658	-1000	121793	13.328	13.178	13.461
ProbeTrack14	7	ProbeTrack	14.0	SCS215a	20111122.141341	20111122.144008	8	0.013325	60	10	60-180	60	171	GapExp	Blank	0	232	2	0	1	distractor	0	1065	-1000	120793	13.328	13.099	13.565
ProbeTrack14	7	ProbeTrack	14.0	SCS215a	20111122.141341	20111122.144015	8	0.013325	60	10	60-180	60	170	GapExp	Blank	0	233	2	45	1	target	1	538	731	121524	13.328	13.097	13.561
ProbeTrack14	7	ProbeTrack	14.0	SCS215a	20111122.141341	20111122.144023	8	0.013325	60	10	60-180	60	153	GapExp	Blank	0	234	2	0	1	target	1	400	800	122324	13.328	12.519	14.145
ProbeTrack14	7	ProbeTrack	14.0	SCS215a	20111122.141341	20111122.144029	8	0.013325	60	10	60-180	60	163	GapExp	Blank	0	235	2	45	1	target	1	468	766	123090	13.328	13.030	13.633
ProbeTrack14	7	ProbeTrack	14.0	SCS215a	20111122.141341	20111122.144036	8	0.013325	60	10	60-180	60	170	GapExp	Blank	0	236	2	6	0	distractor	1	467	767	123857	13.328	6.640	20.041
ProbeTrack14	7	ProbeTrack	14.0	SCS215a	20111122.141341	20111122.144043	8	0.013325	60	10	60-180	60	134	GapExp	Blank	0	237	2	2	0	distractor	1	811	595	124452	13.328	13.086	13.557
ProbeTrack14	7	ProbeTrack	14.0	SCS215a	20111122.141341	20111122.144049	8	0.013325	60	10	60-180	60	119	GapExp	Blank	0	238	2	0	1	distractor	0	512	-1000	123452	13.328	13.306	13.347
ProbeTrack14	7	ProbeTrack	14.0	SCS215a	20111122.141341	20111122.144056	8	0.013325	60	10	60-180	60	166	GapExp	Blank	0	239	2	2	0	target	0	649	-1000	122452	13.328	13.142	13.494
ProbeTrack14	7	ProbeTrack	14.0	SCS215a	20111122.141341	20111122.144102	8	0.013325	60	10	60-180	60	132	GapExp	Blank	0	240	2	2	1	target	1	638	681	123133	13.328	8.717	17.925
ProbeTrack14	7	ProbeTrack	14.0	SCS215a	20111122.141341	20111122.144108	8	0.013325	60	10	60-180	60	86	GapExp	Blank	0	241	2	45	1	target	1	553	724	123857	13.328	7.508	19.154
ProbeTrack14	7	ProbeTrack	14.0	SCS215a	20111122.141341	20111122.144115	8	0.013325	60	10	60-180	60	136	GapExp	Blank	0	242	2	2	0	distractor	1	667	667	124524	13.328	13.307	13.348
ProbeTrack14	7	ProbeTrack	14.0	SCS215a	20111122.141341	20111122.144121	8	0.013325	60	10	60-180	60	131	GapExp	Blank	0	243	2	2	1	target	1	609	696	125220	13.328	13.307	13.353
ProbeTrack14	7	ProbeTrack	14.0	SCS215a	20111122.141341	20111122.144128	8	0.013325	60	10	60-180	60	80	GapExp	Blank	0	244	2	0	1	target	1	646	677	125897	13.328	7.146	19.523
ProbeTrack14	7	ProbeTrack	14.0	SCS215a	20111122.141341	20111122.144133	8	0.013325	60	10	60-180	60	115	GapExp	Blank	0	245	2	0	0	target	0	414	-1000	124897	13.328	13.095	13.555
ProbeTrack14	7	ProbeTrack	14.0	SCS215a	20111122.141341	20111122.144139	8	0.013325	60	10	60-180	60	155	GapExp	Blank	0	246	2	6	1	target	1	511	745	125642	13.328	8.755	17.917
ProbeTrack14	7	ProbeTrack	14.0	SCS215a	20111122.141341	20111122.144145	8	0.013325	60	10	60-180	60	145	GapExp	Blank	0	247	2	6	1	target	1	503	749	126391	13.328	12.763	13.894
ProbeTrack14	7	ProbeTrack	14.0	SCS215a	20111122.141341	20111122.144152	8	0.013325	60	10	60-180	60	168	GapExp	Blank	0	248	2	6	0	distractor	1	671	665	127056	13.328	13.304	13.349
ProbeTrack14	7	ProbeTrack	14.0	SCS215a	20111122.141341	20111122.144159	8	0.013325	60	10	60-180	60	119	GapExp	Blank	0	249	2	1	0	distractor	1	499	751	127807	13.328	4.156	22.494
ProbeTrack14	7	ProbeTrack	14.0	SCS215a	20111122.141341	20111122.144205	8	0.013325	60	10	60-180	60	92	GapExp	Blank	0	250	2	45	1	target	1	673	664	128471	13.328	10.953	16.407
