exp	sub	code	rev	comp	runtime	trialtime	nstim	refreshdur	cuedur	gapdur	gapOnsetRange	durPostProbe	gapOnsetTime	blocktype	gaptype	prac	trial	ntargets	soa	probeTarget	resp	acc	rt	pts	tpts	meanFrameDur	minFrameDur	maxFrameDur
ProbeTrack14	4	ProbeTrack	14.0	SCS215a	20111122.115744	20111122.115750	8	0.013327	60	0	60-180	60	122	NoGap	None	1	1	2	6	0	distractor	1	1319	341	341	13.379	13.096	13.573
ProbeTrack14	4	ProbeTrack	14.0	SCS215a	20111122.115744	20111122.120014	8	0.013327	60	0	60-180	60	133	NoGap	None	1	2	2	6	1	target	1	1086	457	798	13.376	12.514	25.080
ProbeTrack14	4	ProbeTrack	14.0	SCS215a	20111122.115744	20111122.120026	8	0.013327	60	0	60-180	60	164	NoGap	None	1	3	2	1	1	target	1	847	577	1375	13.328	13.112	13.556
ProbeTrack14	4	ProbeTrack	14.0	SCS215a	20111122.115744	20111122.120036	8	0.013327	60	0	60-180	60	171	NoGap	None	1	4	2	45	1	target	1	447	777	2152	13.328	11.446	16.586
ProbeTrack14	4	ProbeTrack	14.0	SCS215a	20111122.115744	20111122.120044	8	0.013327	60	0	60-180	60	137	NoGap	None	1	5	2	1	1	target	1	505	748	2900	13.328	13.185	13.453
ProbeTrack14	4	ProbeTrack	14.0	SCS215a	20111122.115744	20111122.120050	8	0.013327	60	0	60-180	60	113	NoGap	None	1	6	2	6	1	target	1	567	717	3617	13.328	13.098	13.558
ProbeTrack14	4	ProbeTrack	14.0	SCS215a	20111122.115744	20111122.120056	8	0.013327	60	0	60-180	60	177	NoGap	None	1	7	2	6	0	distractor	1	721	640	4257	13.328	13.098	13.550
ProbeTrack14	4	ProbeTrack	14.0	SCS215a	20111122.115744	20111122.120104	8	0.013327	60	0	60-180	60	173	NoGap	None	1	8	2	0	1	target	1	626	687	4944	13.328	13.135	13.520
ProbeTrack14	4	ProbeTrack	14.0	SCS215a	20111122.115744	20111122.120112	8	0.013327	60	0	60-180	60	139	NoGap	None	1	9	2	1	1	target	1	464	768	5712	13.328	9.356	17.311
ProbeTrack14	4	ProbeTrack	14.0	SCS215a	20111122.115744	20111122.120119	8	0.013327	60	0	60-180	60	178	NoGap	None	1	10	2	45	0	distractor	1	576	712	6424	13.328	13.309	13.345
ProbeTrack14	4	ProbeTrack	14.0	SCS215a	20111122.115744	20111122.120127	8	0.013327	60	0	60-180	60	147	NoGap	None	1	11	2	45	1	target	1	614	693	7117	13.328	13.096	13.557
ProbeTrack14	4	ProbeTrack	14.0	SCS215a	20111122.115744	20111122.120136	8	0.013327	60	0	60-180	60	100	NoGap	None	1	12	2	2	0	distractor	1	679	661	7778	13.386	13.112	26.494
ProbeTrack14	4	ProbeTrack	14.0	SCS215a	20111122.115744	20111122.120142	8	0.013327	60	0	60-180	60	153	NoGap	None	1	13	2	0	1	target	1	468	766	8544	13.428	11.447	39.985
ProbeTrack14	4	ProbeTrack	14.0	SCS215a	20111122.115744	20111122.120150	8	0.013327	60	0	60-180	60	158	NoGap	None	1	14	2	0	0	distractor	1	597	702	9246	13.328	13.308	13.350
ProbeTrack14	4	ProbeTrack	14.0	SCS215a	20111122.115744	20111122.120157	8	0.013327	60	0	60-180	60	68	NoGap	None	1	15	2	2	1	target	1	727	637	9883	13.328	13.309	13.347
ProbeTrack14	4	ProbeTrack	14.0	SCS215a	20111122.115744	20111122.120203	8	0.013327	60	0	60-180	60	70	NoGap	None	1	16	2	2	1	target	1	342	829	10712	13.328	13.298	13.343
ProbeTrack14	4	ProbeTrack	14.0	SCS215a	20111122.115744	20111122.120208	8	0.013327	60	0	60-180	60	110	NoGap	None	1	17	2	1	1	target	1	709	646	11358	13.439	11.656	32.932
ProbeTrack14	4	ProbeTrack	14.0	SCS215a	20111122.115744	20111122.120214	8	0.013327	60	0	60-180	60	110	NoGap	None	1	18	2	0	0	distractor	1	685	658	12016	13.328	11.317	15.331
ProbeTrack14	4	ProbeTrack	14.0	SCS215a	20111122.115744	20111122.120221	8	0.013327	60	0	60-180	60	63	NoGap	None	1	19	2	45	0	distractor	1	684	658	12674	13.328	12.642	14.021
ProbeTrack14	4	ProbeTrack	14.0	SCS215a	20111122.115744	20111122.120228	8	0.013327	60	0	60-180	60	105	NoGap	None	1	20	2	2	1	target	1	541	730	13404	13.387	13.113	26.504
ProbeTrack14	4	ProbeTrack	14.0	SCS215a	20111122.115744	20111122.120234	8	0.013327	60	0	60-180	60	79	NoGap	None	1	21	2	2	0	distractor	1	713	644	14048	13.328	13.105	13.558
ProbeTrack14	4	ProbeTrack	14.0	SCS215a	20111122.115744	20111122.120240	8	0.013327	60	0	60-180	60	159	NoGap	None	1	22	2	45	1	distractor	0	660	-1000	13048	13.368	13.098	26.262
ProbeTrack14	4	ProbeTrack	14.0	SCS215a	20111122.115744	20111122.120247	8	0.013327	60	0	60-180	60	74	NoGap	None	1	23	2	45	0	distractor	1	781	610	13658	13.328	13.105	13.566
ProbeTrack14	4	ProbeTrack	14.0	SCS215a	20111122.115744	20111122.120256	8	0.013327	60	0	60-180	60	159	NoGap	None	1	24	2	1	0	distractor	1	816	592	14250	13.328	13.112	13.557
ProbeTrack14	4	ProbeTrack	14.0	SCS215a	20111122.115744	20111122.120303	8	0.013327	60	0	60-180	60	129	NoGap	None	1	25	2	45	1	target	1	964	518	14768	13.328	10.546	16.104
ProbeTrack14	4	ProbeTrack	14.0	SCS215a	20111122.115744	20111122.120310	8	0.013327	60	0	60-180	60	131	NoGap	None	1	26	2	1	0	distractor	1	901	550	15318	13.328	9.807	16.850
ProbeTrack14	4	ProbeTrack	14.0	SCS215a	20111122.115744	20111122.120317	8	0.013327	60	0	60-180	60	90	NoGap	None	1	27	2	6	0	distractor	1	2398	0	15318	13.328	4.408	22.254
ProbeTrack14	4	ProbeTrack	14.0	SCS215a	20111122.115744	20111122.120326	8	0.013327	60	0	60-180	60	68	NoGap	None	1	28	2	0	0	distractor	1	1233	384	15702	13.328	11.897	14.766
ProbeTrack14	4	ProbeTrack	14.0	SCS215a	20111122.115744	20111122.120333	8	0.013327	60	0	60-180	60	163	NoGap	None	1	29	2	2	1	target	1	504	748	16450	13.328	13.301	13.355
ProbeTrack14	4	ProbeTrack	14.0	SCS215a	20111122.115744	20111122.120342	8	0.013327	60	0	60-180	60	112	NoGap	None	1	30	2	2	0	target	0	689	-1000	15450	13.328	11.414	15.241
ProbeTrack14	4	ProbeTrack	14.0	SCS215a	20111122.115744	20111122.120349	8	0.013327	60	0	60-180	60	71	NoGap	None	1	31	2	6	0	distractor	1	1507	247	15697	13.328	13.295	13.354
ProbeTrack14	4	ProbeTrack	14.0	SCS215a	20111122.115744	20111122.120357	8	0.013327	60	0	60-180	60	127	NoGap	None	1	32	2	6	1	target	1	610	695	16392	13.328	13.092	13.550
ProbeTrack14	4	ProbeTrack	14.0	SCS215a	20111122.115744	20111122.120406	8	0.013327	60	0	60-180	60	116	NoGap	None	1	33	2	0	0	distractor	1	681	660	17052	13.328	13.309	13.346
ProbeTrack14	4	ProbeTrack	14.0	SCS215a	20111122.115744	20111122.120413	8	0.013327	60	0	60-180	60	148	NoGap	None	1	34	2	1	0	distractor	1	670	665	17717	13.376	13.084	21.310
ProbeTrack14	4	ProbeTrack	14.0	SCS215a	20111122.115744	20111122.120419	8	0.013327	60	0	60-180	60	132	NoGap	None	1	35	2	45	0	distractor	1	616	692	18409	13.372	11.144	23.242
ProbeTrack14	4	ProbeTrack	14.0	SCS215a	20111122.115744	20111122.120427	8	0.013327	60	0	60-180	60	106	NoGap	None	1	36	2	2	0	distractor	1	668	666	19075	13.320	11.407	14.447
ProbeTrack14	4	ProbeTrack	14.0	SCS215a	20111122.115744	20111122.120433	8	0.013327	60	0	60-180	60	123	NoGap	None	1	37	2	6	1	distractor	0	589	-1000	18075	13.381	13.088	22.453
ProbeTrack14	4	ProbeTrack	14.0	SCS215a	20111122.115744	20111122.120441	8	0.013327	60	0	60-180	60	177	NoGap	None	1	38	2	0	1	target	1	1560	220	18295	13.328	13.307	13.347
ProbeTrack14	4	ProbeTrack	14.0	SCS215a	20111122.115744	20111122.120449	8	0.013327	60	0	60-180	60	80	NoGap	None	1	39	2	1	0	distractor	1	767	617	18912	13.328	13.309	13.346
ProbeTrack14	4	ProbeTrack	14.0	SCS215a	20111122.115744	20111122.120456	8	0.013327	60	0	60-180	60	123	NoGap	None	1	40	2	0	1	distractor	0	497	-1000	17912	13.328	13.091	13.551
ProbeTrack14	4	ProbeTrack	14.0	SCS215a	20111122.120539	20111122.120544	8	0.013328	60	10	60-180	60	122	GapPrac	Blank	1	1	2	45	0	target	0	2011	-1000	16912	13.370	11.014	15.631
ProbeTrack14	4	ProbeTrack	14.0	SCS215a	20111122.120539	20111122.120554	8	0.013328	60	10	60-180	60	144	GapPrac	Blank	1	2	2	0	0	target	0	1093	-1000	15912	13.328	8.981	17.662
ProbeTrack14	4	ProbeTrack	14.0	SCS215a	20111122.120539	20111122.120603	8	0.013328	60	10	60-180	60	176	GapPrac	Blank	1	3	2	2	1	distractor	0	1497	-1000	14912	13.328	6.876	19.786
ProbeTrack14	4	ProbeTrack	14.0	SCS215a	20111122.120539	20111122.120613	8	0.013328	60	10	60-180	60	106	GapPrac	Blank	1	4	2	1	1	target	1	711	645	15557	13.382	13.087	20.317
ProbeTrack14	4	ProbeTrack	14.0	SCS215a	20111122.120539	20111122.120620	8	0.013328	60	10	60-180	60	70	GapPrac	Blank	1	5	2	1	1	target	1	633	684	16241	13.393	13.107	20.358
ProbeTrack14	4	ProbeTrack	14.0	SCS215a	20111122.120539	20111122.120627	8	0.013328	60	10	60-180	60	80	GapPrac	Blank	1	6	2	2	1	target	1	554	723	16964	13.328	13.223	13.434
ProbeTrack14	4	ProbeTrack	14.0	SCS215a	20111122.120539	20111122.120636	8	0.013328	60	10	60-180	60	149	GapPrac	Blank	1	7	2	0	0	target	0	663	-1000	15964	13.375	12.848	26.331
ProbeTrack14	4	ProbeTrack	14.0	SCS215a	20111122.120539	20111122.120643	8	0.013328	60	10	60-180	60	142	GapPrac	Blank	1	8	2	45	1	target	1	779	611	16575	13.328	12.464	14.199
ProbeTrack14	4	ProbeTrack	14.0	SCS215a	20111122.120539	20111122.120652	8	0.013328	60	10	60-180	60	156	GapPrac	Blank	1	9	2	1	0	distractor	1	888	556	17131	13.328	13.306	13.347
ProbeTrack14	4	ProbeTrack	14.0	SCS215a	20111122.120539	20111122.120701	8	0.013328	60	10	60-180	60	144	GapPrac	Blank	1	10	2	0	1	early	-4	-336	-1000	16131	13.328	13.092	13.550
ProbeTrack14	4	ProbeTrack	14.0	SCS215a	20111122.120539	20111122.120710	8	0.013328	60	10	60-180	60	101	GapPrac	Blank	1	11	2	45	0	target	0	1442	-1000	15131	13.328	12.232	14.412
ProbeTrack14	4	ProbeTrack	14.0	SCS215a	20111122.120539	20111122.120720	8	0.013328	60	10	60-180	60	162	GapPrac	Blank	1	12	2	0	1	distractor	0	870	-1000	14131	13.328	13.109	13.546
ProbeTrack14	4	ProbeTrack	14.0	SCS215a	20111122.120539	20111122.120729	8	0.013328	60	10	60-180	60	95	GapPrac	Blank	1	13	2	45	1	early	-4	-3647	-1000	13131	13.328	13.309	13.349
ProbeTrack14	4	ProbeTrack	14.0	SCS215a	20111122.120539	20111122.120738	8	0.013328	60	10	60-180	60	156	GapPrac	Blank	1	14	2	2	0	target	0	674	-1000	12131	13.328	13.299	13.352
ProbeTrack14	4	ProbeTrack	14.0	SCS215a	20111122.120539	20111122.120746	8	0.013328	60	10	60-180	60	112	GapPrac	Blank	1	15	2	6	1	target	1	1221	390	12521	13.378	13.050	26.617
ProbeTrack14	4	ProbeTrack	14.0	SCS215a	20111122.120539	20111122.120755	8	0.013328	60	10	60-180	60	126	GapPrac	Blank	1	16	2	6	1	target	1	1040	480	13001	13.328	13.306	13.350
ProbeTrack14	4	ProbeTrack	14.0	SCS215a	20111122.120539	20111122.120802	8	0.013328	60	10	60-180	60	131	GapPrac	Blank	1	17	2	2	0	target	0	1469	-1000	12001	13.328	8.854	17.796
ProbeTrack14	4	ProbeTrack	14.0	SCS215a	20111122.120539	20111122.120811	8	0.013328	60	10	60-180	60	178	GapPrac	Blank	1	18	2	6	0	distractor	1	823	589	12590	13.328	12.050	14.614
ProbeTrack14	4	ProbeTrack	14.0	SCS215a	20111122.120539	20111122.120819	8	0.013328	60	10	60-180	60	107	GapPrac	Blank	1	19	2	6	0	distractor	1	828	586	13176	13.328	13.098	13.550
ProbeTrack14	4	ProbeTrack	14.0	SCS215a	20111122.120539	20111122.120825	8	0.013328	60	10	60-180	60	92	GapPrac	Blank	1	20	2	1	0	distractor	1	728	636	13812	13.328	13.089	13.352
ProbeTrack14	4	ProbeTrack	14.0	SCS215a	20111122.120936	20111122.120953	8	0.013328	60	10	60-180	60	64	GapExp	Blank	1	1	2	1	1	target	1	439	781	14593	13.400	13.009	13.627
ProbeTrack14	4	ProbeTrack	14.0	SCS215a	20111122.120936	20111122.120959	8	0.013328	60	10	60-180	60	161	GapExp	Blank	1	2	2	6	1	target	1	400	800	15393	13.328	13.007	13.644
ProbeTrack14	4	ProbeTrack	14.0	SCS215a	20111122.120936	20111122.121006	8	0.013328	60	10	60-180	60	121	GapExp	Blank	1	3	2	1	0	target	0	450	-1000	14393	13.328	12.912	13.743
ProbeTrack14	4	ProbeTrack	14.0	SCS215a	20111122.120936	20111122.121012	8	0.013328	60	10	60-180	60	124	GapExp	Blank	1	4	2	0	1	distractor	0	1359	-1000	13393	13.377	13.149	26.487
ProbeTrack14	4	ProbeTrack	14.0	SCS215a	20111122.120936	20111122.121020	8	0.013328	60	10	60-180	60	81	GapExp	Blank	1	5	2	6	0	distractor	1	560	720	14113	13.328	12.862	13.779
ProbeTrack14	4	ProbeTrack	14.0	SCS215a	20111122.120936	20111122.121025	8	0.013328	60	10	60-180	60	107	GapExp	Blank	1	6	2	45	1	target	1	679	661	14774	13.328	12.917	13.738
ProbeTrack14	4	ProbeTrack	14.0	SCS215a	20111122.120936	20111122.121032	8	0.013328	60	10	60-180	60	118	GapExp	Blank	1	7	2	0	0	target	0	649	-1000	13774	13.328	12.897	13.779
ProbeTrack14	4	ProbeTrack	14.0	SCS215a	20111122.120936	20111122.121039	8	0.013328	60	10	60-180	60	123	GapExp	Blank	1	8	2	2	0	target	0	797	-1000	12774	13.328	13.118	13.545
ProbeTrack14	4	ProbeTrack	14.0	SCS215a	20111122.120936	20111122.121045	8	0.013328	60	10	60-180	60	176	GapExp	Blank	1	9	2	2	1	target	1	1162	419	13193	13.328	13.092	13.559
ProbeTrack14	4	ProbeTrack	14.0	SCS215a	20111122.120936	20111122.121053	8	0.013328	60	10	60-180	60	109	GapExp	Blank	1	10	2	45	0	distractor	1	903	549	13742	13.328	12.912	13.746
ProbeTrack14	4	ProbeTrack	14.0	SCS215a	20111122.120936	20111122.121100	8	0.013328	60	10	60-180	60	150	GapExp	Blank	0	11	2	45	1	target	1	1002	499	14241	13.328	13.098	13.564
ProbeTrack14	4	ProbeTrack	14.0	SCS215a	20111122.120936	20111122.121109	8	0.013328	60	10	60-180	60	66	GapExp	Blank	0	12	2	2	1	target	1	768	616	14857	13.328	13.306	13.349
ProbeTrack14	4	ProbeTrack	14.0	SCS215a	20111122.120936	20111122.121115	8	0.013328	60	10	60-180	60	103	GapExp	Blank	0	13	2	6	0	target	0	645	-1000	13857	13.328	13.035	13.608
ProbeTrack14	4	ProbeTrack	14.0	SCS215a	20111122.120936	20111122.121122	8	0.013328	60	10	60-180	60	123	GapExp	Blank	0	14	2	0	0	target	0	629	-1000	12857	13.328	12.883	13.781
ProbeTrack14	4	ProbeTrack	14.0	SCS215a	20111122.120936	20111122.121129	8	0.013328	60	10	60-180	60	137	GapExp	Blank	0	15	2	45	0	distractor	1	347	827	13684	13.328	13.307	13.344
ProbeTrack14	4	ProbeTrack	14.0	SCS215a	20111122.120936	20111122.121135	8	0.013328	60	10	60-180	60	99	GapExp	Blank	0	16	2	2	1	distractor	0	817	-1000	12684	13.328	13.098	13.562
ProbeTrack14	4	ProbeTrack	14.0	SCS215a	20111122.120936	20111122.121142	8	0.013328	60	10	60-180	60	102	GapExp	Blank	0	17	2	6	0	early	-4	-332	-1000	11684	13.328	12.853	13.811
ProbeTrack14	4	ProbeTrack	14.0	SCS215a	20111122.120936	20111122.121148	8	0.013328	60	10	60-180	60	124	GapExp	Blank	0	18	2	0	0	distractor	1	447	777	12461	13.382	13.094	26.276
ProbeTrack14	4	ProbeTrack	14.0	SCS215a	20111122.120936	20111122.121155	8	0.013328	60	10	60-180	60	84	GapExp	Blank	0	19	2	1	1	distractor	0	189	-1000	11461	13.328	12.954	13.704
ProbeTrack14	4	ProbeTrack	14.0	SCS215a	20111122.120936	20111122.121200	8	0.013328	60	10	60-180	60	160	GapExp	Blank	0	20	2	2	0	target	0	1117	-1000	10461	13.328	13.077	13.566
ProbeTrack14	4	ProbeTrack	14.0	SCS215a	20111122.120936	20111122.121208	8	0.013328	60	10	60-180	60	175	GapExp	Blank	0	21	2	45	1	target	1	605	698	11159	13.328	12.942	13.714
ProbeTrack14	4	ProbeTrack	14.0	SCS215a	20111122.120936	20111122.121217	8	0.013328	60	10	60-180	60	157	GapExp	Blank	0	22	2	45	1	target	1	396	802	11961	13.328	12.893	13.757
ProbeTrack14	4	ProbeTrack	14.0	SCS215a	20111122.120936	20111122.121224	8	0.013328	60	10	60-180	60	119	GapExp	Blank	0	23	2	6	0	target	0	722	-1000	10961	13.328	13.299	13.348
ProbeTrack14	4	ProbeTrack	14.0	SCS215a	20111122.120936	20111122.121232	8	0.013328	60	10	60-180	60	92	GapExp	Blank	0	24	2	6	0	target	0	421	-1000	9961	13.328	13.070	13.593
ProbeTrack14	4	ProbeTrack	14.0	SCS215a	20111122.120936	20111122.121238	8	0.013328	60	10	60-180	60	158	GapExp	Blank	0	25	2	2	1	distractor	0	1447	-1000	8961	13.328	12.873	13.789
ProbeTrack14	4	ProbeTrack	14.0	SCS215a	20111122.120936	20111122.121246	8	0.013328	60	10	60-180	60	110	GapExp	Blank	0	26	2	2	1	target	1	823	589	9550	13.380	13.141	26.520
ProbeTrack14	4	ProbeTrack	14.0	SCS215a	20111122.120936	20111122.121253	8	0.013328	60	10	60-180	60	124	GapExp	Blank	0	27	2	6	1	target	1	666	667	10217	13.328	13.307	13.343
ProbeTrack14	4	ProbeTrack	14.0	SCS215a	20111122.120936	20111122.121300	8	0.013328	60	10	60-180	60	177	GapExp	Blank	0	28	2	2	1	target	1	578	711	10928	13.328	13.117	13.545
ProbeTrack14	4	ProbeTrack	14.0	SCS215a	20111122.120936	20111122.121307	8	0.013328	60	10	60-180	60	179	GapExp	Blank	0	29	2	2	1	target	1	1146	427	11355	13.328	12.982	13.669
ProbeTrack14	4	ProbeTrack	14.0	SCS215a	20111122.120936	20111122.121314	8	0.013328	60	10	60-180	60	83	GapExp	Blank	0	30	2	0	1	target	1	482	759	12114	13.328	13.110	13.532
ProbeTrack14	4	ProbeTrack	14.0	SCS215a	20111122.120936	20111122.121321	8	0.013328	60	10	60-180	60	138	GapExp	Blank	0	31	2	6	1	target	1	402	799	12913	13.328	13.101	13.571
ProbeTrack14	4	ProbeTrack	14.0	SCS215a	20111122.120936	20111122.121327	8	0.013328	60	10	60-180	60	61	GapExp	Blank	0	32	2	6	1	target	1	1849	76	12989	13.328	13.105	13.556
ProbeTrack14	4	ProbeTrack	14.0	SCS215a	20111122.120936	20111122.121334	8	0.013328	60	10	60-180	60	157	GapExp	Blank	0	33	2	1	1	target	1	265	868	13857	13.328	13.105	13.555
ProbeTrack14	4	ProbeTrack	14.0	SCS215a	20111122.120936	20111122.121341	8	0.013328	60	10	60-180	60	89	GapExp	Blank	0	34	2	45	1	target	1	1224826	0	13857	13.328	12.894	13.787
ProbeTrack14	4	ProbeTrack	14.0	SCS215a	20111122.120936	20111122.121347	8	0.013328	60	10	60-180	60	127	GapExp	Blank	0	35	2	2	0	target	0	1362	-1000	12857	13.328	12.860	13.789
ProbeTrack14	4	ProbeTrack	14.0	SCS215a	20111122.120936	20111122.121356	8	0.013328	60	10	60-180	60	111	GapExp	Blank	0	36	2	1	0	target	0	995	-1000	11857	13.328	12.992	13.676
ProbeTrack14	4	ProbeTrack	14.0	SCS215a	20111122.120936	20111122.121404	8	0.013328	60	10	60-180	60	118	GapExp	Blank	0	37	2	45	1	target	1	382	809	12666	13.328	12.885	13.577
ProbeTrack14	4	ProbeTrack	14.0	SCS215a	20111122.120936	20111122.121411	8	0.013328	60	10	60-180	60	165	GapExp	Blank	0	38	2	1	0	distractor	1	493	754	13420	13.328	12.875	13.781
ProbeTrack14	4	ProbeTrack	14.0	SCS215a	20111122.120936	20111122.121419	8	0.013328	60	10	60-180	60	106	GapExp	Blank	0	39	2	45	1	target	1	560	720	14140	13.328	12.902	13.761
ProbeTrack14	4	ProbeTrack	14.0	SCS215a	20111122.120936	20111122.121426	8	0.013328	60	10	60-180	60	168	GapExp	Blank	0	40	2	45	1	target	1	319	841	14981	13.328	12.913	13.748
ProbeTrack14	4	ProbeTrack	14.0	SCS215a	20111122.120936	20111122.121433	8	0.013328	60	10	60-180	60	178	GapExp	Blank	0	41	2	1	1	target	1	500	750	15731	13.329	12.931	13.762
ProbeTrack14	4	ProbeTrack	14.0	SCS215a	20111122.120936	20111122.121441	8	0.013328	60	10	60-180	60	145	GapExp	Blank	0	42	2	0	1	distractor	0	399	-1000	14731	13.328	12.865	13.808
ProbeTrack14	4	ProbeTrack	14.0	SCS215a	20111122.120936	20111122.121448	8	0.013328	60	10	60-180	60	75	GapExp	Blank	0	43	2	2	1	target	1	535	733	15464	13.328	12.852	13.804
ProbeTrack14	4	ProbeTrack	14.0	SCS215a	20111122.120936	20111122.121454	8	0.013328	60	10	60-180	60	136	GapExp	Blank	0	44	2	45	1	target	1	438	781	16245	13.328	13.302	13.346
ProbeTrack14	4	ProbeTrack	14.0	SCS215a	20111122.120936	20111122.121501	8	0.013328	60	10	60-180	60	116	GapExp	Blank	0	45	2	0	1	target	1	471	765	17010	13.328	12.851	13.798
ProbeTrack14	4	ProbeTrack	14.0	SCS215a	20111122.120936	20111122.121507	8	0.013328	60	10	60-180	60	102	GapExp	Blank	0	46	2	1	1	target	1	394	803	17813	13.389	12.904	26.531
ProbeTrack14	4	ProbeTrack	14.0	SCS215a	20111122.120936	20111122.121513	8	0.013328	60	10	60-180	60	170	GapExp	Blank	0	47	2	2	0	distractor	1	795	603	18416	13.370	13.032	26.888
ProbeTrack14	4	ProbeTrack	14.0	SCS215a	20111122.120936	20111122.121520	8	0.013328	60	10	60-180	60	81	GapExp	Blank	0	48	2	1	0	target	0	476	-1000	17416	13.328	12.900	13.762
ProbeTrack14	4	ProbeTrack	14.0	SCS215a	20111122.120936	20111122.121526	8	0.013328	60	10	60-180	60	93	GapExp	Blank	0	49	2	1	1	target	1	657	672	18088	13.328	13.309	13.348
ProbeTrack14	4	ProbeTrack	14.0	SCS215a	20111122.120936	20111122.121533	8	0.013328	60	10	60-180	60	87	GapExp	Blank	0	50	2	6	0	distractor	1	1117	442	18530	13.328	13.303	13.349
ProbeTrack14	4	ProbeTrack	14.0	SCS215a	20111122.120936	20111122.121540	8	0.013328	60	10	60-180	60	74	GapExp	Blank	0	51	2	45	0	target	0	715	-1000	17530	13.379	12.872	26.717
ProbeTrack14	4	ProbeTrack	14.0	SCS215a	20111122.120936	20111122.121555	8	0.013328	60	10	60-180	60	85	GapExp	Blank	0	52	2	0	1	target	1	428	786	18316	13.328	12.839	13.816
ProbeTrack14	4	ProbeTrack	14.0	SCS215a	20111122.120936	20111122.121601	8	0.013328	60	10	60-180	60	180	GapExp	Blank	0	53	2	1	0	target	0	288	-1000	17316	13.328	12.878	13.782
ProbeTrack14	4	ProbeTrack	14.0	SCS215a	20111122.120936	20111122.121607	8	0.013328	60	10	60-180	60	172	GapExp	Blank	0	54	2	6	0	distractor	1	932	534	17850	13.328	13.117	13.553
ProbeTrack14	4	ProbeTrack	14.0	SCS215a	20111122.120936	20111122.121615	8	0.013328	60	10	60-180	60	133	GapExp	Blank	0	55	2	6	1	target	1	601	700	18550	13.427	12.991	39.757
ProbeTrack14	4	ProbeTrack	14.0	SCS215a	20111122.120936	20111122.121621	8	0.013328	60	10	60-180	60	75	GapExp	Blank	0	56	2	0	0	target	0	759	-1000	17550	13.328	12.874	13.783
ProbeTrack14	4	ProbeTrack	14.0	SCS215a	20111122.120936	20111122.121628	8	0.013328	60	10	60-180	60	74	GapExp	Blank	0	57	2	0	1	target	1	565	718	18268	13.393	13.035	26.503
ProbeTrack14	4	ProbeTrack	14.0	SCS215a	20111122.120936	20111122.121634	8	0.013328	60	10	60-180	60	71	GapExp	Blank	0	58	2	6	1	target	1	690	655	18923	13.328	12.913	13.754
ProbeTrack14	4	ProbeTrack	14.0	SCS215a	20111122.120936	20111122.121640	8	0.013328	60	10	60-180	60	68	GapExp	Blank	0	59	2	45	0	target	0	2051	-1000	17923	13.379	12.877	26.610
ProbeTrack14	4	ProbeTrack	14.0	SCS215a	20111122.120936	20111122.121648	8	0.013328	60	10	60-180	60	162	GapExp	Blank	0	60	2	1	1	target	1	541	730	18653	13.328	13.105	13.551
ProbeTrack14	4	ProbeTrack	14.0	SCS215a	20111122.120936	20111122.121655	8	0.013328	60	10	60-180	60	83	GapExp	Blank	0	61	2	45	1	target	1	586	707	19360	13.328	12.909	13.742
ProbeTrack14	4	ProbeTrack	14.0	SCS215a	20111122.120936	20111122.121703	8	0.013328	60	10	60-180	60	75	GapExp	Blank	0	62	2	0	0	target	0	1281	-1000	18360	13.328	13.174	13.474
ProbeTrack14	4	ProbeTrack	14.0	SCS215a	20111122.120936	20111122.121709	8	0.013328	60	10	60-180	60	176	GapExp	Blank	0	63	2	45	0	distractor	1	661	670	19030	13.328	13.109	13.538
ProbeTrack14	4	ProbeTrack	14.0	SCS215a	20111122.120936	20111122.121717	8	0.013328	60	10	60-180	60	122	GapExp	Blank	0	64	2	0	0	target	0	2289	-1000	18030	13.378	13.111	26.454
ProbeTrack14	4	ProbeTrack	14.0	SCS215a	20111122.120936	20111122.121725	8	0.013328	60	10	60-180	60	98	GapExp	Blank	0	65	2	2	0	target	0	327	-1000	17030	13.391	13.111	26.447
ProbeTrack14	4	ProbeTrack	14.0	SCS215a	20111122.120936	20111122.121731	8	0.013328	60	10	60-180	60	130	GapExp	Blank	0	66	2	0	0	target	0	273	-1000	16030	13.441	13.091	26.719
ProbeTrack14	4	ProbeTrack	14.0	SCS215a	20111122.120936	20111122.121738	8	0.013328	60	10	60-180	60	86	GapExp	Blank	0	67	2	45	0	target	0	473	-1000	15030	13.328	13.092	13.558
ProbeTrack14	4	ProbeTrack	14.0	SCS215a	20111122.120936	20111122.121744	8	0.013328	60	10	60-180	60	99	GapExp	Blank	0	68	2	0	0	target	0	483	-1000	14030	13.328	13.107	13.554
ProbeTrack14	4	ProbeTrack	14.0	SCS215a	20111122.120936	20111122.121751	8	0.013328	60	10	60-180	60	134	GapExp	Blank	0	69	2	2	0	early	-4	-838	-1000	13030	13.328	13.296	13.351
ProbeTrack14	4	ProbeTrack	14.0	SCS215a	20111122.120936	20111122.121804	8	0.013328	60	10	60-180	60	148	GapExp	Blank	0	70	2	2	0	early	-4	-3741	-1000	12030	13.328	13.111	13.546
ProbeTrack14	4	ProbeTrack	14.0	SCS215a	20111122.120936	20111122.121826	8	0.013328	60	10	60-180	60	117	GapExp	Blank	0	71	2	1	0	target	0	834	-1000	11030	13.328	12.928	13.728
ProbeTrack14	4	ProbeTrack	14.0	SCS215a	20111122.120936	20111122.121833	8	0.013328	60	10	60-180	60	171	GapExp	Blank	0	72	2	6	0	distractor	1	796	602	11632	13.328	12.844	13.814
ProbeTrack14	4	ProbeTrack	14.0	SCS215a	20111122.120936	20111122.121841	8	0.013328	60	10	60-180	60	146	GapExp	Blank	0	73	2	2	1	target	1	695	653	12285	13.328	13.014	13.627
ProbeTrack14	4	ProbeTrack	14.0	SCS215a	20111122.120936	20111122.121848	8	0.013328	60	10	60-180	60	84	GapExp	Blank	0	74	2	1	0	target	0	385	-1000	11285	13.328	13.111	13.557
ProbeTrack14	4	ProbeTrack	14.0	SCS215a	20111122.120936	20111122.121854	8	0.013328	60	10	60-180	60	140	GapExp	Blank	0	75	2	2	0	distractor	1	446	777	12062	13.328	13.015	13.647
ProbeTrack14	4	ProbeTrack	14.0	SCS215a	20111122.120936	20111122.121901	8	0.013328	60	10	60-180	60	165	GapExp	Blank	0	76	2	6	0	early	-4	-4034	-1000	11062	13.328	12.873	13.799
ProbeTrack14	4	ProbeTrack	14.0	SCS215a	20111122.120936	20111122.121910	8	0.013328	60	10	60-180	60	167	GapExp	Blank	0	77	2	0	1	distractor	0	1591	-1000	10062	13.371	12.871	26.263
ProbeTrack14	4	ProbeTrack	14.0	SCS215a	20111122.120936	20111122.121918	8	0.013328	60	10	60-180	60	63	GapExp	Blank	0	78	2	45	0	early	-4	-3202	-1000	9062	13.328	12.858	13.785
ProbeTrack14	4	ProbeTrack	14.0	SCS215a	20111122.120936	20111122.121928	8	0.013328	60	10	60-180	60	164	GapExp	Blank	0	79	2	6	0	early	-4	-4037	-1000	8062	13.372	13.034	26.444
ProbeTrack14	4	ProbeTrack	14.0	SCS215a	20111122.120936	20111122.121940	8	0.013328	60	10	60-180	60	102	GapExp	Blank	0	80	2	6	1	early	-4	-3207	-1000	7062	13.328	13.103	13.540
ProbeTrack14	4	ProbeTrack	14.0	SCS215a	20111122.120936	20111122.121951	8	0.013328	60	10	60-180	60	98	GapExp	Blank	0	81	2	0	1	target	1	1919	41	7103	13.383	12.895	26.670
ProbeTrack14	4	ProbeTrack	14.0	SCS215a	20111122.120936	20111122.122001	8	0.013328	60	10	60-180	60	152	GapExp	Blank	0	82	2	2	1	target	1	1292	354	7457	13.328	12.861	13.781
ProbeTrack14	4	ProbeTrack	14.0	SCS215a	20111122.120936	20111122.122009	8	0.013328	60	10	60-180	60	129	GapExp	Blank	0	83	2	0	0	distractor	1	813	594	8051	13.328	12.915	13.766
ProbeTrack14	4	ProbeTrack	14.0	SCS215a	20111122.120936	20111122.122018	8	0.013328	60	10	60-180	60	165	GapExp	Blank	0	84	2	45	0	target	0	1705	-1000	7051	13.365	13.086	26.595
ProbeTrack14	4	ProbeTrack	14.0	SCS215a	20111122.120936	20111122.122027	8	0.013328	60	10	60-180	60	134	GapExp	Blank	0	85	2	45	1	target	1	644	678	7729	13.328	13.306	13.349
ProbeTrack14	4	ProbeTrack	14.0	SCS215a	20111122.120936	20111122.122035	8	0.013328	60	10	60-180	60	111	GapExp	Blank	0	86	2	6	0	distractor	1	409	796	8525	13.385	12.868	26.463
ProbeTrack14	4	ProbeTrack	14.0	SCS215a	20111122.120936	20111122.122041	8	0.013328	60	10	60-180	60	159	GapExp	Blank	0	87	2	45	1	target	1	523	739	9264	13.328	13.090	13.565
ProbeTrack14	4	ProbeTrack	14.0	SCS215a	20111122.120936	20111122.122049	8	0.013328	60	10	60-180	60	109	GapExp	Blank	0	88	2	2	0	target	0	1815	-1000	8264	13.328	13.307	13.344
ProbeTrack14	4	ProbeTrack	14.0	SCS215a	20111122.120936	20111122.122056	8	0.013328	60	10	60-180	60	92	GapExp	Blank	0	89	2	45	0	target	0	839	-1000	7264	13.328	13.172	13.536
ProbeTrack14	4	ProbeTrack	14.0	SCS215a	20111122.120936	20111122.122103	8	0.013328	60	10	60-180	60	146	GapExp	Blank	0	90	2	1	1	distractor	0	327	-1000	6264	13.328	12.904	13.747
ProbeTrack14	4	ProbeTrack	14.0	SCS215a	20111122.120936	20111122.122111	8	0.013328	60	10	60-180	60	61	GapExp	Blank	0	91	2	45	1	target	1	4789	0	6264	13.328	12.894	13.775
ProbeTrack14	4	ProbeTrack	14.0	SCS215a	20111122.120936	20111122.122123	8	0.013328	60	10	60-180	60	101	GapExp	Blank	0	92	2	0	1	target	1	524	738	7002	13.386	12.873	26.666
ProbeTrack14	4	ProbeTrack	14.0	SCS215a	20111122.120936	20111122.122130	8	0.013328	60	10	60-180	60	105	GapExp	Blank	0	93	2	6	1	target	1	385	808	7810	13.387	12.887	27.012
ProbeTrack14	4	ProbeTrack	14.0	SCS215a	20111122.120936	20111122.122137	8	0.013328	60	10	60-180	60	113	GapExp	Blank	0	94	2	0	0	distractor	1	653	674	8484	13.328	13.022	13.652
ProbeTrack14	4	ProbeTrack	14.0	SCS215a	20111122.120936	20111122.122143	8	0.013328	60	10	60-180	60	177	GapExp	Blank	0	95	2	2	0	target	0	793	-1000	7484	13.369	12.909	26.495
ProbeTrack14	4	ProbeTrack	14.0	SCS215a	20111122.120936	20111122.122151	8	0.013328	60	10	60-180	60	165	GapExp	Blank	0	96	2	0	0	distractor	1	1055	473	7957	13.328	12.960	13.703
ProbeTrack14	4	ProbeTrack	14.0	SCS215a	20111122.120936	20111122.122159	8	0.013328	60	10	60-180	60	122	GapExp	Blank	0	97	2	45	0	distractor	1	687	657	8614	13.328	12.853	13.810
ProbeTrack14	4	ProbeTrack	14.0	SCS215a	20111122.120936	20111122.122206	8	0.013328	60	10	60-180	60	87	GapExp	Blank	0	98	2	2	1	target	1	555	723	9337	13.389	13.026	26.673
ProbeTrack14	4	ProbeTrack	14.0	SCS215a	20111122.120936	20111122.122212	8	0.013328	60	10	60-180	60	70	GapExp	Blank	0	99	2	1	1	target	1	673	664	10001	13.328	13.091	13.741
ProbeTrack14	4	ProbeTrack	14.0	SCS215a	20111122.120936	20111122.122218	8	0.013328	60	10	60-180	60	129	GapExp	Blank	0	100	2	45	0	distractor	1	662	669	10670	13.371	13.081	26.471
ProbeTrack14	4	ProbeTrack	14.0	SCS215a	20111122.120936	20111122.122225	8	0.013328	60	10	60-180	60	148	GapExp	Blank	0	101	2	2	0	distractor	1	756	622	11292	13.328	13.112	13.541
ProbeTrack14	4	ProbeTrack	14.0	SCS215a	20111122.120936	20111122.122232	8	0.013328	60	10	60-180	60	124	GapExp	Blank	0	102	2	45	0	distractor	1	759	621	11913	13.328	12.956	13.693
ProbeTrack14	4	ProbeTrack	14.0	SCS215a	20111122.120936	20111122.122239	8	0.013328	60	10	60-180	60	64	GapExp	Blank	0	103	2	2	0	distractor	1	1227	387	12300	13.328	12.951	13.711
ProbeTrack14	4	ProbeTrack	14.0	SCS215a	20111122.120936	20111122.122245	8	0.013328	60	10	60-180	60	82	GapExp	Blank	0	104	2	6	1	target	1	1016	492	12792	13.328	12.851	13.813
ProbeTrack14	4	ProbeTrack	14.0	SCS215a	20111122.120936	20111122.122252	8	0.013328	60	10	60-180	60	120	GapExp	Blank	0	105	2	45	1	target	1	453	774	13566	13.328	13.099	13.551
ProbeTrack14	4	ProbeTrack	14.0	SCS215a	20111122.120936	20111122.122258	8	0.013328	60	10	60-180	60	89	GapExp	Blank	0	106	2	1	1	target	1	671	665	14231	13.328	13.305	13.358
ProbeTrack14	4	ProbeTrack	14.0	SCS215a	20111122.120936	20111122.122305	8	0.013328	60	10	60-180	60	172	GapExp	Blank	0	107	2	6	1	target	1	737	632	14863	13.328	12.883	13.799
ProbeTrack14	4	ProbeTrack	14.0	SCS215a	20111122.120936	20111122.122312	8	0.013328	60	10	60-180	60	125	GapExp	Blank	0	108	2	0	1	target	1	651	675	15538	13.328	13.068	13.576
ProbeTrack14	4	ProbeTrack	14.0	SCS215a	20111122.120936	20111122.122319	8	0.013328	60	10	60-180	60	111	GapExp	Blank	0	109	2	1	0	distractor	1	697	652	16190	13.328	12.905	13.751
ProbeTrack14	4	ProbeTrack	14.0	SCS215a	20111122.120936	20111122.122325	8	0.013328	60	10	60-180	60	156	GapExp	Blank	0	110	2	6	1	target	1	506	747	16937	13.328	13.309	13.346
ProbeTrack14	4	ProbeTrack	14.0	SCS215a	20111122.120936	20111122.122332	8	0.013328	60	10	60-180	60	150	GapExp	Blank	0	111	2	1	0	distractor	1	1547	227	17164	13.328	13.042	13.626
ProbeTrack14	4	ProbeTrack	14.0	SCS215a	20111122.120936	20111122.122340	8	0.013328	60	10	60-180	60	165	GapExp	Blank	0	112	2	2	1	target	1	858	571	17735	13.328	13.306	13.346
ProbeTrack14	4	ProbeTrack	14.0	SCS215a	20111122.120936	20111122.122347	8	0.013328	60	10	60-180	60	175	GapExp	Blank	0	113	2	1	1	target	1	350	825	18560	13.328	13.112	13.545
ProbeTrack14	4	ProbeTrack	14.0	SCS215a	20111122.120936	20111122.122354	8	0.013328	60	10	60-180	60	118	GapExp	Blank	0	114	2	2	1	target	1	882	559	19119	13.328	12.956	13.694
ProbeTrack14	4	ProbeTrack	14.0	SCS215a	20111122.120936	20111122.122401	8	0.013328	60	10	60-180	60	116	GapExp	Blank	0	115	2	6	1	target	1	1356	322	19441	13.328	13.304	13.346
ProbeTrack14	4	ProbeTrack	14.0	SCS215a	20111122.120936	20111122.122408	8	0.013328	60	10	60-180	60	105	GapExp	Blank	0	116	2	2	1	distractor	0	1102	-1000	18441	13.328	13.308	13.347
ProbeTrack14	4	ProbeTrack	14.0	SCS215a	20111122.120936	20111122.122415	8	0.013328	60	10	60-180	60	91	GapExp	Blank	0	117	2	6	0	distractor	1	773	614	19055	13.328	12.957	13.702
ProbeTrack14	4	ProbeTrack	14.0	SCS215a	20111122.120936	20111122.122422	8	0.013328	60	10	60-180	60	120	GapExp	Blank	0	118	2	6	1	target	1	431	785	19840	13.328	12.895	13.794
ProbeTrack14	4	ProbeTrack	14.0	SCS215a	20111122.120936	20111122.122428	8	0.013328	60	10	60-180	60	115	GapExp	Blank	0	119	2	6	0	distractor	1	709	646	20486	13.328	13.301	13.349
ProbeTrack14	4	ProbeTrack	14.0	SCS215a	20111122.120936	20111122.122434	8	0.013328	60	10	60-180	60	149	GapExp	Blank	0	120	2	1	1	target	1	1120	440	20926	13.328	13.303	13.348
ProbeTrack14	4	ProbeTrack	14.0	SCS215a	20111122.120936	20111122.122442	8	0.013328	60	10	60-180	60	88	GapExp	Blank	0	121	2	6	0	distractor	1	662	669	21595	13.328	13.307	13.351
ProbeTrack14	4	ProbeTrack	14.0	SCS215a	20111122.120936	20111122.122448	8	0.013328	60	10	60-180	60	171	GapExp	Blank	0	122	2	6	1	target	1	673	664	22259	13.328	12.873	13.796
ProbeTrack14	4	ProbeTrack	14.0	SCS215a	20111122.120936	20111122.122455	8	0.013328	60	10	60-180	60	174	GapExp	Blank	0	123	2	0	1	target	1	621	690	22949	13.328	13.301	13.346
ProbeTrack14	4	ProbeTrack	14.0	SCS215a	20111122.120936	20111122.122503	8	0.013328	60	10	60-180	60	148	GapExp	Blank	0	124	2	2	1	target	1	445	778	23727	13.328	13.269	13.400
ProbeTrack14	4	ProbeTrack	14.0	SCS215a	20111122.120936	20111122.122510	8	0.013328	60	10	60-180	60	156	GapExp	Blank	0	125	2	6	0	target	0	406	-1000	22727	13.328	13.309	13.353
ProbeTrack14	4	ProbeTrack	14.0	SCS215a	20111122.120936	20111122.122517	8	0.013328	60	10	60-180	60	161	GapExp	Blank	0	126	2	2	0	target	0	697	-1000	21727	13.328	12.914	13.729
ProbeTrack14	4	ProbeTrack	14.0	SCS215a	20111122.120936	20111122.122526	8	0.013328	60	10	60-180	60	81	GapExp	Blank	0	127	2	6	1	target	1	730	635	22362	13.328	13.308	13.344
ProbeTrack14	4	ProbeTrack	14.0	SCS215a	20111122.120936	20111122.122532	8	0.013328	60	10	60-180	60	89	GapExp	Blank	0	128	2	2	1	target	1	624	688	23050	13.328	12.933	13.716
ProbeTrack14	4	ProbeTrack	14.0	SCS215a	20111122.120936	20111122.122538	8	0.013328	60	10	60-180	60	103	GapExp	Blank	0	129	2	0	0	distractor	1	865	568	23618	13.328	12.905	13.759
ProbeTrack14	4	ProbeTrack	14.0	SCS215a	20111122.120936	20111122.122544	8	0.013328	60	10	60-180	60	109	GapExp	Blank	0	130	2	45	1	distractor	0	773	-1000	22618	13.328	12.972	13.683
ProbeTrack14	4	ProbeTrack	14.0	SCS215a	20111122.120936	20111122.122551	8	0.013328	60	10	60-180	60	61	GapExp	Blank	0	131	2	6	1	target	1	1090	455	23073	13.328	13.259	13.395
ProbeTrack14	4	ProbeTrack	14.0	SCS215a	20111122.120936	20111122.122558	8	0.013328	60	10	60-180	60	140	GapExp	Blank	0	132	2	6	0	distractor	1	1093	454	23527	13.328	12.940	13.720
ProbeTrack14	4	ProbeTrack	14.0	SCS215a	20111122.120936	20111122.122605	8	0.013328	60	10	60-180	60	77	GapExp	Blank	0	133	2	0	0	distractor	1	1041	480	24007	13.328	13.011	13.647
ProbeTrack14	4	ProbeTrack	14.0	SCS215a	20111122.120936	20111122.122611	8	0.013328	60	10	60-180	60	154	GapExp	Blank	0	134	2	6	0	distractor	1	839	581	24588	13.328	13.092	13.572
ProbeTrack14	4	ProbeTrack	14.0	SCS215a	20111122.120936	20111122.122618	8	0.013328	60	10	60-180	60	81	GapExp	Blank	0	135	2	0	0	distractor	1	1016	492	25080	13.328	13.084	13.564
ProbeTrack14	4	ProbeTrack	14.0	SCS215a	20111122.120936	20111122.122624	8	0.013328	60	10	60-180	60	137	GapExp	Blank	0	136	2	45	0	distractor	1	874	563	25643	13.328	13.023	13.642
ProbeTrack14	4	ProbeTrack	14.0	SCS215a	20111122.120936	20111122.122632	8	0.013328	60	10	60-180	60	139	GapExp	Blank	0	137	2	6	0	distractor	1	892	554	26197	13.328	12.848	13.799
ProbeTrack14	4	ProbeTrack	14.0	SCS215a	20111122.120936	20111122.122639	8	0.013328	60	10	60-180	60	173	GapExp	Blank	0	138	2	1	1	target	1	482	759	26956	13.328	13.309	13.350
ProbeTrack14	4	ProbeTrack	14.0	SCS215a	20111122.120936	20111122.122648	8	0.013328	60	10	60-180	60	151	GapExp	Blank	0	139	2	0	1	target	1	491	755	27711	13.328	13.307	13.348
ProbeTrack14	4	ProbeTrack	14.0	SCS215a	20111122.120936	20111122.122655	8	0.013328	60	10	60-180	60	160	GapExp	Blank	0	140	2	45	0	distractor	1	1187	407	28118	13.328	12.952	13.692
ProbeTrack14	4	ProbeTrack	14.0	SCS215a	20111122.120936	20111122.122707	8	0.013328	60	10	60-180	60	155	GapExp	Blank	0	141	2	1	1	target	1	513	744	28862	13.328	12.942	13.708
ProbeTrack14	4	ProbeTrack	14.0	SCS215a	20111122.120936	20111122.122714	8	0.013328	60	10	60-180	60	176	GapExp	Blank	0	142	2	2	0	target	0	1540	-1000	27862	13.328	13.087	13.570
ProbeTrack14	4	ProbeTrack	14.0	SCS215a	20111122.120936	20111122.122722	8	0.013328	60	10	60-180	60	159	GapExp	Blank	0	143	2	0	1	target	1	1332	334	28196	13.328	13.308	13.343
ProbeTrack14	4	ProbeTrack	14.0	SCS215a	20111122.120936	20111122.122732	8	0.013328	60	10	60-180	60	92	GapExp	Blank	0	144	2	0	0	distractor	1	958	521	28717	13.328	12.903	13.754
ProbeTrack14	4	ProbeTrack	14.0	SCS215a	20111122.120936	20111122.122739	8	0.013328	60	10	60-180	60	95	GapExp	Blank	0	145	2	1	0	distractor	1	937	532	29249	13.328	13.308	13.348
ProbeTrack14	4	ProbeTrack	14.0	SCS215a	20111122.120936	20111122.122745	8	0.013328	60	10	60-180	60	158	GapExp	Blank	0	146	2	45	1	distractor	0	1053	-1000	28249	13.328	13.086	13.563
ProbeTrack14	4	ProbeTrack	14.0	SCS215a	20111122.120936	20111122.122753	8	0.013328	60	10	60-180	60	134	GapExp	Blank	0	147	2	1	0	target	0	358	-1000	27249	13.328	13.306	13.346
ProbeTrack14	4	ProbeTrack	14.0	SCS215a	20111122.120936	20111122.122759	8	0.013328	60	10	60-180	60	101	GapExp	Blank	0	148	2	45	0	distractor	1	1518	241	27490	13.328	13.119	13.535
ProbeTrack14	4	ProbeTrack	14.0	SCS215a	20111122.120936	20111122.122808	8	0.013328	60	10	60-180	60	100	GapExp	Blank	0	149	2	2	1	target	1	911	545	28035	13.328	12.941	13.789
ProbeTrack14	4	ProbeTrack	14.0	SCS215a	20111122.120936	20111122.122815	8	0.013328	60	10	60-180	60	143	GapExp	Blank	0	150	2	45	1	target	1	633	684	28719	13.328	12.930	13.721
ProbeTrack14	4	ProbeTrack	14.0	SCS215a	20111122.120936	20111122.122823	8	0.013328	60	10	60-180	60	151	GapExp	Blank	0	151	2	6	0	distractor	1	1033	484	29203	13.328	12.918	13.739
ProbeTrack14	4	ProbeTrack	14.0	SCS215a	20111122.120936	20111122.122830	8	0.013328	60	10	60-180	60	75	GapExp	Blank	0	152	2	1	1	target	1	836	582	29785	13.328	13.112	13.539
ProbeTrack14	4	ProbeTrack	14.0	SCS215a	20111122.120936	20111122.122836	8	0.013328	60	10	60-180	60	145	GapExp	Blank	0	153	2	2	0	target	0	666	-1000	28785	13.328	12.866	13.785
ProbeTrack14	4	ProbeTrack	14.0	SCS215a	20111122.120936	20111122.122843	8	0.013328	60	10	60-180	60	144	GapExp	Blank	0	154	2	0	1	target	1	799	601	29386	13.328	13.309	13.351
ProbeTrack14	4	ProbeTrack	14.0	SCS215a	20111122.120936	20111122.122851	8	0.013328	60	10	60-180	60	117	GapExp	Blank	0	155	2	45	0	distractor	1	848	576	29962	13.328	13.112	13.544
ProbeTrack14	4	ProbeTrack	14.0	SCS215a	20111122.120936	20111122.122858	8	0.013328	60	10	60-180	60	176	GapExp	Blank	0	156	2	45	0	distractor	1	757	622	30584	13.328	12.893	13.759
ProbeTrack14	4	ProbeTrack	14.0	SCS215a	20111122.120936	20111122.122906	8	0.013328	60	10	60-180	60	92	GapExp	Blank	0	157	2	2	1	target	1	1285	358	30942	13.328	12.867	13.796
ProbeTrack14	4	ProbeTrack	14.0	SCS215a	20111122.120936	20111122.122913	8	0.013328	60	10	60-180	60	87	GapExp	Blank	0	158	2	2	1	target	1	542	729	31671	13.328	13.112	13.543
ProbeTrack14	4	ProbeTrack	14.0	SCS215a	20111122.120936	20111122.122919	8	0.013328	60	10	60-180	60	133	GapExp	Blank	0	159	2	45	1	target	1	678	661	32332	13.328	13.304	13.345
ProbeTrack14	4	ProbeTrack	14.0	SCS215a	20111122.120936	20111122.122927	8	0.013328	60	10	60-180	60	91	GapExp	Blank	0	160	2	2	0	distractor	1	1027	487	32819	13.328	13.085	13.557
ProbeTrack14	4	ProbeTrack	14.0	SCS215a	20111122.120936	20111122.122934	8	0.013328	60	10	60-180	60	116	GapExp	Blank	0	161	2	6	1	target	1	3330	0	32819	13.328	13.308	13.347
ProbeTrack14	4	ProbeTrack	14.0	SCS215a	20111122.120936	20111122.122944	8	0.013328	60	10	60-180	60	153	GapExp	Blank	0	162	2	0	1	target	1	608	696	33515	13.328	13.300	13.347
ProbeTrack14	4	ProbeTrack	14.0	SCS215a	20111122.120936	20111122.123003	8	0.013328	60	10	60-180	60	125	GapExp	Blank	0	163	2	0	1	target	1	520	740	34255	13.328	12.918	13.738
ProbeTrack14	4	ProbeTrack	14.0	SCS215a	20111122.120936	20111122.123037	8	0.013328	60	10	60-180	60	160	GapExp	Blank	0	164	2	2	1	target	1	765	618	34873	13.328	13.104	13.552
ProbeTrack14	4	ProbeTrack	14.0	SCS215a	20111122.120936	20111122.123044	8	0.013328	60	10	60-180	60	115	GapExp	Blank	0	165	2	6	0	target	0	500	-1000	33873	13.328	13.092	13.551
ProbeTrack14	4	ProbeTrack	14.0	SCS215a	20111122.120936	20111122.123051	8	0.013328	60	10	60-180	60	119	GapExp	Blank	0	166	2	6	1	distractor	0	982	-1000	32873	13.328	12.942	13.707
ProbeTrack14	4	ProbeTrack	14.0	SCS215a	20111122.120936	20111122.123101	8	0.013328	60	10	60-180	60	139	GapExp	Blank	0	167	2	1	1	target	1	532	734	33607	13.328	13.308	13.348
ProbeTrack14	4	ProbeTrack	14.0	SCS215a	20111122.120936	20111122.123108	8	0.013328	60	10	60-180	60	160	GapExp	Blank	0	168	2	1	1	target	1	464	768	34375	13.328	12.850	13.793
ProbeTrack14	4	ProbeTrack	14.0	SCS215a	20111122.120936	20111122.123115	8	0.013328	60	10	60-180	60	69	GapExp	Blank	0	169	2	45	1	target	1	533	734	35109	13.328	13.004	13.661
ProbeTrack14	4	ProbeTrack	14.0	SCS215a	20111122.120936	20111122.123121	8	0.013328	60	10	60-180	60	128	GapExp	Blank	0	170	2	6	1	target	1	612	694	35803	13.328	13.306	13.343
ProbeTrack14	4	ProbeTrack	14.0	SCS215a	20111122.120936	20111122.123127	8	0.013328	60	10	60-180	60	149	GapExp	Blank	0	171	2	0	1	target	1	2126	0	35803	13.328	13.111	13.557
ProbeTrack14	4	ProbeTrack	14.0	SCS215a	20111122.120936	20111122.123135	8	0.013328	60	10	60-180	60	149	GapExp	Blank	0	172	2	0	1	target	1	371	815	36618	13.328	13.224	13.427
ProbeTrack14	4	ProbeTrack	14.0	SCS215a	20111122.120936	20111122.123144	8	0.013328	60	10	60-180	60	133	GapExp	Blank	0	173	2	45	0	target	0	595	-1000	35618	13.328	12.889	13.780
ProbeTrack14	4	ProbeTrack	14.0	SCS215a	20111122.120936	20111122.123152	8	0.013328	60	10	60-180	60	79	GapExp	Blank	0	174	2	2	0	target	0	1215	-1000	34618	13.328	13.303	13.362
ProbeTrack14	4	ProbeTrack	14.0	SCS215a	20111122.120936	20111122.123158	8	0.013328	60	10	60-180	60	153	GapExp	Blank	0	175	2	1	1	target	1	674	663	35281	13.328	13.308	13.348
ProbeTrack14	4	ProbeTrack	14.0	SCS215a	20111122.120936	20111122.123205	8	0.013328	60	10	60-180	60	158	GapExp	Blank	0	176	2	2	0	target	0	789	-1000	34281	13.328	12.875	13.787
ProbeTrack14	4	ProbeTrack	14.0	SCS215a	20111122.120936	20111122.123213	8	0.013328	60	10	60-180	60	83	GapExp	Blank	0	177	2	1	0	distractor	1	641	680	34961	13.328	13.304	13.351
ProbeTrack14	4	ProbeTrack	14.0	SCS215a	20111122.120936	20111122.123220	8	0.013328	60	10	60-180	60	83	GapExp	Blank	0	178	2	2	0	distractor	1	1323	339	35300	13.386	13.091	26.646
ProbeTrack14	4	ProbeTrack	14.0	SCS215a	20111122.120936	20111122.123226	8	0.013328	60	10	60-180	60	160	GapExp	Blank	0	179	2	45	1	distractor	0	635	-1000	34300	13.328	12.933	13.729
ProbeTrack14	4	ProbeTrack	14.0	SCS215a	20111122.120936	20111122.123233	8	0.013328	60	10	60-180	60	128	GapExp	Blank	0	180	2	45	1	target	1	574	713	35013	13.328	12.871	13.817
ProbeTrack14	4	ProbeTrack	14.0	SCS215a	20111122.120936	20111122.123240	8	0.013328	60	10	60-180	60	167	GapExp	Blank	0	181	2	0	0	distractor	1	740	630	35643	13.328	12.991	13.678
ProbeTrack14	4	ProbeTrack	14.0	SCS215a	20111122.120936	20111122.123249	8	0.013328	60	10	60-180	60	129	GapExp	Blank	0	182	2	1	1	target	1	688	656	36299	13.328	12.902	13.771
ProbeTrack14	4	ProbeTrack	14.0	SCS215a	20111122.120936	20111122.123258	8	0.013328	60	10	60-180	60	126	GapExp	Blank	0	183	2	6	1	target	1	1991	5	36304	13.328	13.112	13.549
ProbeTrack14	4	ProbeTrack	14.0	SCS215a	20111122.120936	20111122.123306	8	0.013328	60	10	60-180	60	150	GapExp	Blank	0	184	2	45	0	target	0	1004	-1000	35304	13.328	12.898	13.768
ProbeTrack14	4	ProbeTrack	14.0	SCS215a	20111122.120936	20111122.123314	8	0.013328	60	10	60-180	60	162	GapExp	Blank	0	185	2	2	0	early	-4	-2122	-1000	34304	13.328	13.091	13.564
ProbeTrack14	4	ProbeTrack	14.0	SCS215a	20111122.120936	20111122.123322	8	0.013328	60	10	60-180	60	133	GapExp	Blank	0	186	2	6	0	target	0	6993	-1000	33304	13.328	13.307	13.345
ProbeTrack14	4	ProbeTrack	14.0	SCS215a	20111122.120936	20111122.123336	8	0.013328	60	10	60-180	60	149	GapExp	Blank	0	187	2	0	0	distractor	1	1681	160	33464	13.328	13.307	13.348
ProbeTrack14	4	ProbeTrack	14.0	SCS215a	20111122.120936	20111122.123344	8	0.013328	60	10	60-180	60	94	GapExp	Blank	0	188	2	1	0	target	0	2249	-1000	32464	13.328	13.010	13.636
ProbeTrack14	4	ProbeTrack	14.0	SCS215a	20111122.120936	20111122.123353	8	0.013328	60	10	60-180	60	178	GapExp	Blank	0	189	2	0	0	early	-4	-3476	-1000	31464	13.328	12.943	13.708
ProbeTrack14	4	ProbeTrack	14.0	SCS215a	20111122.120936	20111122.123402	8	0.013328	60	10	60-180	60	100	GapExp	Blank	0	190	2	1	1	distractor	0	1165	-1000	30464	13.328	13.103	13.552
ProbeTrack14	4	ProbeTrack	14.0	SCS215a	20111122.120936	20111122.123413	8	0.013328	60	10	60-180	60	125	GapExp	Blank	0	191	2	1	0	target	0	624	-1000	29464	13.328	13.093	13.572
ProbeTrack14	4	ProbeTrack	14.0	SCS215a	20111122.120936	20111122.123420	8	0.013328	60	10	60-180	60	108	GapExp	Blank	0	192	2	1	0	distractor	1	724	638	30102	13.328	13.306	13.346
ProbeTrack14	4	ProbeTrack	14.0	SCS215a	20111122.120936	20111122.123426	8	0.013328	60	10	60-180	60	127	GapExp	Blank	0	193	2	2	1	target	1	614	693	30795	13.328	13.092	13.556
ProbeTrack14	4	ProbeTrack	14.0	SCS215a	20111122.120936	20111122.123433	8	0.013328	60	10	60-180	60	86	GapExp	Blank	0	194	2	45	0	target	0	917	-1000	29795	13.328	13.300	13.350
ProbeTrack14	4	ProbeTrack	14.0	SCS215a	20111122.120936	20111122.123440	8	0.013328	60	10	60-180	60	112	GapExp	Blank	0	195	2	1	0	early	-4	-3224	-1000	28795	13.328	13.308	13.349
ProbeTrack14	4	ProbeTrack	14.0	SCS215a	20111122.120936	20111122.123447	8	0.013328	60	10	60-180	60	114	GapExp	Blank	0	196	2	2	0	target	0	779	-1000	27795	13.328	12.870	13.786
ProbeTrack14	4	ProbeTrack	14.0	SCS215a	20111122.120936	20111122.123453	8	0.013328	60	10	60-180	60	141	GapExp	Blank	0	197	2	2	1	early	-4	-3621	-1000	26795	13.328	13.307	13.346
ProbeTrack14	4	ProbeTrack	14.0	SCS215a	20111122.120936	20111122.123501	8	0.013328	60	10	60-180	60	81	GapExp	Blank	0	198	2	0	0	distractor	1	1013	494	27289	13.328	13.093	13.564
ProbeTrack14	4	ProbeTrack	14.0	SCS215a	20111122.120936	20111122.123509	8	0.013328	60	10	60-180	60	130	GapExp	Blank	0	199	2	1	0	target	0	526	-1000	26289	13.328	12.911	13.759
ProbeTrack14	4	ProbeTrack	14.0	SCS215a	20111122.120936	20111122.123516	8	0.013328	60	10	60-180	60	129	GapExp	Blank	0	200	2	45	1	distractor	0	548	-1000	25289	13.328	13.112	13.552
ProbeTrack14	4	ProbeTrack	14.0	SCS215a	20111122.120936	20111122.123523	8	0.013328	60	10	60-180	60	162	GapExp	Blank	0	201	2	0	0	distractor	1	2524605	0	25289	13.328	12.918	13.745
ProbeTrack14	4	ProbeTrack	14.0	SCS215a	20111122.120936	20111122.123529	8	0.013328	60	10	60-180	60	100	GapExp	Blank	0	202	2	0	1	target	1	259	871	26160	13.328	12.915	13.734
ProbeTrack14	4	ProbeTrack	14.0	SCS215a	20111122.120936	20111122.123535	8	0.013328	60	10	60-180	60	140	GapExp	Blank	0	203	2	6	1	target	1	71	965	27125	13.328	13.307	13.449
ProbeTrack14	4	ProbeTrack	14.0	SCS215a	20111122.120936	20111122.123541	8	0.013328	60	10	60-180	60	124	GapExp	Blank	0	204	2	45	1	early	-4	-539	-1000	26125	13.327	12.889	13.796
ProbeTrack14	4	ProbeTrack	14.0	SCS215a	20111122.120936	20111122.123548	8	0.013328	60	10	60-180	60	142	GapExp	Blank	0	205	2	1	0	target	0	894	-1000	25125	13.328	12.876	13.788
ProbeTrack14	4	ProbeTrack	14.0	SCS215a	20111122.120936	20111122.123556	8	0.013328	60	10	60-180	60	140	GapExp	Blank	0	206	2	1	0	target	0	592	-1000	24125	13.328	13.014	13.659
ProbeTrack14	4	ProbeTrack	14.0	SCS215a	20111122.120936	20111122.123602	8	0.013328	60	10	60-180	60	131	GapExp	Blank	0	207	2	6	0	distractor	1	4023	0	24125	13.328	12.848	13.802
ProbeTrack14	4	ProbeTrack	14.0	SCS215a	20111122.120936	20111122.123612	8	0.013328	60	10	60-180	60	142	GapExp	Blank	0	208	2	2	1	distractor	0	694	-1000	23125	13.375	13.093	26.433
ProbeTrack14	4	ProbeTrack	14.0	SCS215a	20111122.120936	20111122.123620	8	0.013328	60	10	60-180	60	174	GapExp	Blank	0	209	2	1	0	target	0	430	-1000	22125	13.373	12.873	26.490
ProbeTrack14	4	ProbeTrack	14.0	SCS215a	20111122.120936	20111122.123628	8	0.013328	60	10	60-180	60	134	GapExp	Blank	0	210	2	1	1	target	1	461	770	22895	13.380	12.862	26.660
ProbeTrack14	4	ProbeTrack	14.0	SCS215a	20111122.120936	20111122.123635	8	0.013328	60	10	60-180	60	133	GapExp	Blank	0	211	2	6	1	target	1	297	852	23747	13.328	13.309	13.359
ProbeTrack14	4	ProbeTrack	14.0	SCS215a	20111122.120936	20111122.123641	8	0.013328	60	10	60-180	60	174	GapExp	Blank	0	212	2	45	0	target	0	584	-1000	22747	13.328	12.873	13.787
ProbeTrack14	4	ProbeTrack	14.0	SCS215a	20111122.120936	20111122.123649	8	0.013328	60	10	60-180	60	101	GapExp	Blank	0	213	2	1	0	target	0	392	-1000	21747	13.328	13.092	13.557
ProbeTrack14	4	ProbeTrack	14.0	SCS215a	20111122.120936	20111122.123655	8	0.013328	60	10	60-180	60	126	GapExp	Blank	0	214	2	45	1	distractor	0	945	-1000	20747	13.328	13.039	13.800
ProbeTrack14	4	ProbeTrack	14.0	SCS215a	20111122.120936	20111122.123703	8	0.013328	60	10	60-180	60	173	GapExp	Blank	0	215	2	1	1	target	1	572	714	21461	13.328	12.901	13.758
ProbeTrack14	4	ProbeTrack	14.0	SCS215a	20111122.120936	20111122.123709	8	0.013328	60	10	60-180	60	116	GapExp	Blank	0	216	2	6	0	distractor	1	1685	158	21619	13.328	12.986	13.665
ProbeTrack14	4	ProbeTrack	14.0	SCS215a	20111122.120936	20111122.123717	8	0.013328	60	10	60-180	60	84	GapExp	Blank	0	217	2	2	0	target	0	924	-1000	20619	13.328	12.867	13.797
ProbeTrack14	4	ProbeTrack	14.0	SCS215a	20111122.120936	20111122.123723	8	0.013328	60	10	60-180	60	115	GapExp	Blank	0	218	2	0	1	distractor	0	657	-1000	19619	13.328	13.112	13.544
ProbeTrack14	4	ProbeTrack	14.0	SCS215a	20111122.120936	20111122.123729	8	0.013328	60	10	60-180	60	70	GapExp	Blank	0	219	2	6	1	target	1	1560	220	19839	13.328	13.092	13.545
ProbeTrack14	4	ProbeTrack	14.0	SCS215a	20111122.120936	20111122.123736	8	0.013328	60	10	60-180	60	71	GapExp	Blank	0	220	2	0	0	target	0	633	-1000	18839	13.393	12.961	26.657
ProbeTrack14	4	ProbeTrack	14.0	SCS215a	20111122.120936	20111122.123742	8	0.013328	60	10	60-180	60	177	GapExp	Blank	0	221	2	6	1	target	1	482	759	19598	13.328	12.944	13.713
ProbeTrack14	4	ProbeTrack	14.0	SCS215a	20111122.120936	20111122.123749	8	0.013328	60	10	60-180	60	131	GapExp	Blank	0	222	2	0	1	target	1	757	622	20220	13.328	13.100	13.707
ProbeTrack14	4	ProbeTrack	14.0	SCS215a	20111122.120936	20111122.123757	8	0.013328	60	10	60-180	60	109	GapExp	Blank	0	223	2	0	0	target	0	829	-1000	19220	13.433	13.073	26.990
ProbeTrack14	4	ProbeTrack	14.0	SCS215a	20111122.120936	20111122.123803	8	0.013328	60	10	60-180	60	97	GapExp	Blank	0	224	2	6	0	distractor	1	599	701	19921	13.328	12.844	13.826
ProbeTrack14	4	ProbeTrack	14.0	SCS215a	20111122.120936	20111122.123810	8	0.013328	60	10	60-180	60	177	GapExp	Blank	0	225	2	45	1	distractor	0	498	-1000	18921	13.328	13.121	13.556
ProbeTrack14	4	ProbeTrack	14.0	SCS215a	20111122.120936	20111122.123817	8	0.013328	60	10	60-180	60	155	GapExp	Blank	0	226	2	2	1	target	1	666	667	19588	13.328	13.099	13.557
ProbeTrack14	4	ProbeTrack	14.0	SCS215a	20111122.120936	20111122.123824	8	0.013328	60	10	60-180	60	163	GapExp	Blank	0	227	2	1	1	target	1	880	560	20148	13.328	12.893	13.758
ProbeTrack14	4	ProbeTrack	14.0	SCS215a	20111122.120936	20111122.123832	8	0.013328	60	10	60-180	60	110	GapExp	Blank	0	228	2	1	0	target	0	522	-1000	19148	13.328	13.000	13.663
ProbeTrack14	4	ProbeTrack	14.0	SCS215a	20111122.120936	20111122.123838	8	0.013328	60	10	60-180	60	166	GapExp	Blank	0	229	2	45	0	target	0	821	-1000	18148	13.328	13.070	13.571
ProbeTrack14	4	ProbeTrack	14.0	SCS215a	20111122.120936	20111122.123846	8	0.013328	60	10	60-180	60	136	GapExp	Blank	0	230	2	0	1	distractor	0	1697	-1000	17148	13.328	12.956	13.694
ProbeTrack14	4	ProbeTrack	14.0	SCS215a	20111122.120936	20111122.123854	8	0.013328	60	10	60-180	60	117	GapExp	Blank	0	231	2	1	1	distractor	0	1190	-1000	16148	13.328	12.903	13.748
ProbeTrack14	4	ProbeTrack	14.0	SCS215a	20111122.120936	20111122.123901	8	0.013328	60	10	60-180	60	62	GapExp	Blank	0	232	2	0	1	target	1	1735	133	16281	13.328	12.925	13.742
ProbeTrack14	4	ProbeTrack	14.0	SCS215a	20111122.120936	20111122.123908	8	0.013328	60	10	60-180	60	108	GapExp	Blank	0	233	2	2	0	target	0	732	-1000	15281	13.328	12.936	13.732
ProbeTrack14	4	ProbeTrack	14.0	SCS215a	20111122.120936	20111122.123914	8	0.013328	60	10	60-180	60	171	GapExp	Blank	0	234	2	0	1	early	-4	-3936	-1000	14281	13.328	12.897	13.773
ProbeTrack14	4	ProbeTrack	14.0	SCS215a	20111122.120936	20111122.123922	8	0.013328	60	10	60-180	60	177	GapExp	Blank	0	235	2	1	1	target	1	5494	0	14281	13.328	12.959	13.698
ProbeTrack14	4	ProbeTrack	14.0	SCS215a	20111122.120936	20111122.123935	8	0.013328	60	10	60-180	60	132	GapExp	Blank	0	236	2	2	1	target	1	812	594	14875	13.328	12.945	13.701
ProbeTrack14	4	ProbeTrack	14.0	SCS215a	20111122.120936	20111122.123941	8	0.013328	60	10	60-180	60	98	GapExp	Blank	0	237	2	2	0	distractor	1	716	642	15517	13.328	13.307	13.345
ProbeTrack14	4	ProbeTrack	14.0	SCS215a	20111122.120936	20111122.123947	8	0.013328	60	10	60-180	60	62	GapExp	Blank	0	238	2	45	0	distractor	1	699	651	16168	13.328	12.883	13.781
ProbeTrack14	4	ProbeTrack	14.0	SCS215a	20111122.120936	20111122.123954	8	0.013328	60	10	60-180	60	71	GapExp	Blank	0	239	2	6	1	target	1	563	719	16887	13.328	12.884	13.772
ProbeTrack14	4	ProbeTrack	14.0	SCS215a	20111122.120936	20111122.124000	8	0.013328	60	10	60-180	60	152	GapExp	Blank	0	240	2	0	0	distractor	1	589	706	17593	13.328	13.307	13.346
ProbeTrack14	4	ProbeTrack	14.0	SCS215a	20111122.120936	20111122.124006	8	0.013328	60	10	60-180	60	75	GapExp	Blank	0	241	2	45	0	target	0	433	-1000	16593	13.328	13.309	13.349
ProbeTrack14	4	ProbeTrack	14.0	SCS215a	20111122.120936	20111122.124012	8	0.013328	60	10	60-180	60	160	GapExp	Blank	0	242	2	0	0	distractor	1	464	768	17361	13.328	12.941	13.714
ProbeTrack14	4	ProbeTrack	14.0	SCS215a	20111122.120936	20111122.124019	8	0.013328	60	10	60-180	60	76	GapExp	Blank	0	243	2	0	1	target	1	490	755	18116	13.328	12.905	13.752
ProbeTrack14	4	ProbeTrack	14.0	SCS215a	20111122.120936	20111122.124025	8	0.013328	60	10	60-180	60	171	GapExp	Blank	0	244	2	6	0	target	0	524	-1000	17116	13.328	12.902	13.755
ProbeTrack14	4	ProbeTrack	14.0	SCS215a	20111122.120936	20111122.124032	8	0.013328	60	10	60-180	60	96	GapExp	Blank	0	245	2	1	0	distractor	1	591	705	17821	13.328	13.302	13.354
ProbeTrack14	4	ProbeTrack	14.0	SCS215a	20111122.120936	20111122.124038	8	0.013328	60	10	60-180	60	104	GapExp	Blank	0	246	2	1	0	distractor	1	650	675	18496	13.328	12.650	13.790
ProbeTrack14	4	ProbeTrack	14.0	SCS215a	20111122.120936	20111122.124044	8	0.013328	60	10	60-180	60	65	GapExp	Blank	0	247	2	45	0	target	0	916	-1000	17496	13.328	12.952	13.705
ProbeTrack14	4	ProbeTrack	14.0	SCS215a	20111122.120936	20111122.124050	8	0.013328	60	10	60-180	60	72	GapExp	Blank	0	248	2	1	0	distractor	1	705	648	18144	13.328	13.307	13.346
ProbeTrack14	4	ProbeTrack	14.0	SCS215a	20111122.120936	20111122.124057	8	0.013328	60	10	60-180	60	93	GapExp	Blank	0	249	2	0	0	distractor	1	1167	417	18561	13.328	13.237	13.407
ProbeTrack14	4	ProbeTrack	14.0	SCS215a	20111122.120936	20111122.124103	8	0.013328	60	10	60-180	60	65	GapExp	Blank	0	250	2	2	0	distractor	1	702	649	19210	13.328	12.900	13.748
