exp	sub	code	rev	comp	runtime	trialtime	nstim	refreshdur	cuedur	gapdur	gapOnsetRange	durPostProbe	gapOnsetTime	blocktype	gaptype	prac	trial	ntargets	soa	probeTarget	resp	acc	rt	pts	tpts	meanFrameDur	minFrameDur	maxFrameDur
ProbeTrack14	3	ProbeTrack	14.0	SCS215a	20111118.102418	20111118.102431	8	0.013328	60	0	60-180	60	121	NoGap	None	1	1	2	0	0	distractor	1	1013	494	494	13.380	13.088	13.566
ProbeTrack14	3	ProbeTrack	14.0	SCS215a	20111118.102418	20111118.102625	8	0.013328	60	0	60-180	60	132	NoGap	None	1	2	2	1	0	distractor	1	535	733	1227	13.329	13.306	13.581
ProbeTrack14	3	ProbeTrack	14.0	SCS215a	20111118.102418	20111118.102632	8	0.013328	60	0	60-180	60	132	NoGap	None	1	3	2	2	0	distractor	1	447	777	2004	13.328	13.309	13.345
ProbeTrack14	3	ProbeTrack	14.0	SCS215a	20111118.102418	20111118.102639	8	0.013328	60	0	60-180	60	109	NoGap	None	1	4	2	2	0	distractor	1	678	661	2665	13.328	12.997	13.678
ProbeTrack14	3	ProbeTrack	14.0	SCS215a	20111118.102418	20111118.102646	8	0.013328	60	0	60-180	60	119	NoGap	None	1	5	2	2	1	distractor	0	464	-1000	1665	13.385	13.036	26.949
ProbeTrack14	3	ProbeTrack	14.0	SCS215a	20111118.102418	20111118.102652	8	0.013328	60	0	60-180	60	160	NoGap	None	1	6	2	1	1	target	1	346	827	2492	13.328	12.853	13.792
ProbeTrack14	3	ProbeTrack	14.0	SCS215a	20111118.102418	20111118.102700	8	0.013328	60	0	60-180	60	159	NoGap	None	1	7	2	1	0	distractor	1	360	820	3312	13.328	13.102	13.763
ProbeTrack14	3	ProbeTrack	14.0	SCS215a	20111118.102418	20111118.102707	8	0.013328	60	0	60-180	60	150	NoGap	None	1	8	2	0	0	target	0	410	-1000	2312	13.328	13.309	13.348
ProbeTrack14	3	ProbeTrack	14.0	SCS215a	20111118.102418	20111118.102714	8	0.013328	60	0	60-180	60	137	NoGap	None	1	9	2	0	1	target	1	347	827	3139	13.328	12.941	13.711
ProbeTrack14	3	ProbeTrack	14.0	SCS215a	20111118.102418	20111118.102723	8	0.013328	60	0	60-180	60	132	NoGap	None	1	10	2	6	0	distractor	1	482	759	3898	13.328	13.304	13.348
ProbeTrack14	3	ProbeTrack	14.0	SCS215a	20111118.102418	20111118.102729	8	0.013328	60	0	60-180	60	122	NoGap	None	1	11	2	1	1	target	1	438	781	4679	13.328	13.009	13.646
ProbeTrack14	3	ProbeTrack	14.0	SCS215a	20111118.102418	20111118.102736	8	0.013328	60	0	60-180	60	61	NoGap	None	1	12	2	6	0	distractor	1	421	790	5469	13.328	13.281	13.374
ProbeTrack14	3	ProbeTrack	14.0	SCS215a	20111118.102418	20111118.102742	8	0.013328	60	0	60-180	60	164	NoGap	None	1	13	2	45	0	distractor	1	337	832	6301	13.328	12.860	13.795
ProbeTrack14	3	ProbeTrack	14.0	SCS215a	20111118.102418	20111118.102750	8	0.013328	60	0	60-180	60	175	NoGap	None	1	14	2	45	1	target	1	404	798	7099	13.328	13.295	13.383
ProbeTrack14	3	ProbeTrack	14.0	SCS215a	20111118.102418	20111118.102756	8	0.013328	60	0	60-180	60	115	NoGap	None	1	15	2	6	1	target	1	379	811	7910	13.328	12.895	13.717
ProbeTrack14	3	ProbeTrack	14.0	SCS215a	20111118.102418	20111118.102803	8	0.013328	60	0	60-180	60	66	NoGap	None	1	16	2	45	1	target	1	312	844	8754	13.328	12.877	13.781
ProbeTrack14	3	ProbeTrack	14.0	SCS215a	20111118.102418	20111118.102809	8	0.013328	60	0	60-180	60	175	NoGap	None	1	17	2	1	0	distractor	1	414	793	9547	13.328	13.301	13.350
ProbeTrack14	3	ProbeTrack	14.0	SCS215a	20111118.102418	20111118.102816	8	0.013328	60	0	60-180	60	142	NoGap	None	1	18	2	1	1	target	1	310	845	10392	13.328	13.093	13.550
ProbeTrack14	3	ProbeTrack	14.0	SCS215a	20111118.102418	20111118.102823	8	0.013328	60	0	60-180	60	80	NoGap	None	1	19	2	45	0	distractor	1	276	862	11254	13.328	13.100	13.558
ProbeTrack14	3	ProbeTrack	14.0	SCS215a	20111118.102418	20111118.102828	8	0.013328	60	0	60-180	60	154	NoGap	None	1	20	2	6	1	target	1	383	809	12063	13.328	13.109	13.544
ProbeTrack14	3	ProbeTrack	14.0	SCS215a	20111118.102418	20111118.102835	8	0.013328	60	0	60-180	60	124	NoGap	None	1	21	2	6	1	target	1	389	806	12869	13.328	13.099	13.564
ProbeTrack14	3	ProbeTrack	14.0	SCS215a	20111118.102418	20111118.102842	8	0.013328	60	0	60-180	60	120	NoGap	None	1	22	2	6	0	distractor	1	276	862	13731	13.328	12.939	13.718
ProbeTrack14	3	ProbeTrack	14.0	SCS215a	20111118.102418	20111118.102849	8	0.013328	60	0	60-180	60	61	NoGap	None	1	23	2	0	0	distractor	1	535	733	14464	13.328	13.082	13.574
ProbeTrack14	3	ProbeTrack	14.0	SCS215a	20111118.102418	20111118.102855	8	0.013328	60	0	60-180	60	125	NoGap	None	1	24	2	45	1	target	1	390	805	15269	13.328	12.889	13.797
ProbeTrack14	3	ProbeTrack	14.0	SCS215a	20111118.102418	20111118.102902	8	0.013328	60	0	60-180	60	89	NoGap	None	1	25	2	6	1	target	1	286	857	16126	13.328	13.298	13.348
ProbeTrack14	3	ProbeTrack	14.0	SCS215a	20111118.102418	20111118.102907	8	0.013328	60	0	60-180	60	112	NoGap	None	1	26	2	2	1	target	1	288	856	16982	13.328	12.988	13.664
ProbeTrack14	3	ProbeTrack	14.0	SCS215a	20111118.102418	20111118.102913	8	0.013328	60	0	60-180	60	131	NoGap	None	1	27	2	45	1	target	1	373	814	17796	13.328	13.122	13.532
ProbeTrack14	3	ProbeTrack	14.0	SCS215a	20111118.102418	20111118.102920	8	0.013328	60	0	60-180	60	77	NoGap	None	1	28	2	45	0	distractor	1	390	805	18601	13.328	13.309	13.349
ProbeTrack14	3	ProbeTrack	14.0	SCS215a	20111118.102418	20111118.102926	8	0.013328	60	0	60-180	60	83	NoGap	None	1	29	2	2	1	target	1	257	872	19473	13.328	13.097	13.556
ProbeTrack14	3	ProbeTrack	14.0	SCS215a	20111118.102418	20111118.102932	8	0.013328	60	0	60-180	60	87	NoGap	None	1	30	2	0	0	distractor	1	427	787	20260	13.328	13.105	13.564
ProbeTrack14	3	ProbeTrack	14.0	SCS215a	20111118.102418	20111118.102938	8	0.013328	60	0	60-180	60	133	NoGap	None	1	31	2	2	1	target	1	286	857	21117	13.328	12.905	13.738
ProbeTrack14	3	ProbeTrack	14.0	SCS215a	20111118.102418	20111118.102944	8	0.013328	60	0	60-180	60	99	NoGap	None	1	32	2	6	0	distractor	1	372	814	21931	13.328	13.297	13.359
ProbeTrack14	3	ProbeTrack	14.0	SCS215a	20111118.102418	20111118.102950	8	0.013328	60	0	60-180	60	70	NoGap	None	1	33	2	2	0	target	0	544	-1000	20931	13.328	13.307	13.348
ProbeTrack14	3	ProbeTrack	14.0	SCS215a	20111118.102418	20111118.102956	8	0.013328	60	0	60-180	60	133	NoGap	None	1	34	2	0	1	target	1	349	826	21757	13.328	13.042	13.627
ProbeTrack14	3	ProbeTrack	14.0	SCS215a	20111118.102418	20111118.103004	8	0.013328	60	0	60-180	60	169	NoGap	None	1	35	2	0	1	target	1	366	817	22574	13.328	13.308	13.352
ProbeTrack14	3	ProbeTrack	14.0	SCS215a	20111118.102418	20111118.103011	8	0.013328	60	0	60-180	60	101	NoGap	None	1	36	2	1	1	target	1	477	762	23336	13.328	13.069	13.495
ProbeTrack14	3	ProbeTrack	14.0	SCS215a	20111118.102418	20111118.103017	8	0.013328	60	0	60-180	60	73	NoGap	None	1	37	2	1	0	distractor	1	400	800	24136	13.328	12.935	13.757
ProbeTrack14	3	ProbeTrack	14.0	SCS215a	20111118.102418	20111118.103023	8	0.013328	60	0	60-180	60	124	NoGap	None	1	38	2	0	1	target	1	308	846	24982	13.328	13.120	13.529
ProbeTrack14	3	ProbeTrack	14.0	SCS215a	20111118.102418	20111118.103028	8	0.013328	60	0	60-180	60	101	NoGap	None	1	39	2	2	0	distractor	1	431	785	25767	13.328	13.000	13.662
ProbeTrack14	3	ProbeTrack	14.0	SCS215a	20111118.102418	20111118.103034	8	0.013328	60	0	60-180	60	63	NoGap	None	1	40	2	45	0	distractor	1	361	820	26587	13.328	13.095	13.542
ProbeTrack14	3	ProbeTrack	14.0	SCS215a	20111118.103134	20111118.103143	8	0.013328	60	10	60-180	60	92	GapPrac	Blank	1	1	2	6	0	distractor	1	712	644	27231	13.384	13.091	13.570
ProbeTrack14	3	ProbeTrack	14.0	SCS215a	20111118.103134	20111118.103153	8	0.013328	60	10	60-180	60	148	GapPrac	Blank	1	2	2	2	0	distractor	1	407	797	28028	13.328	12.926	13.718
ProbeTrack14	3	ProbeTrack	14.0	SCS215a	20111118.103134	20111118.103159	8	0.013328	60	10	60-180	60	61	GapPrac	Blank	1	3	2	2	0	target	0	363	-1000	27028	13.328	13.309	13.344
ProbeTrack14	3	ProbeTrack	14.0	SCS215a	20111118.103134	20111118.103205	8	0.013328	60	10	60-180	60	65	GapPrac	Blank	1	4	2	2	1	target	1	399	801	27829	13.328	13.098	13.556
ProbeTrack14	3	ProbeTrack	14.0	SCS215a	20111118.103134	20111118.103211	8	0.013328	60	10	60-180	60	140	GapPrac	Blank	1	5	2	45	1	distractor	0	6426068	-1000	26829	13.328	13.111	13.545
ProbeTrack14	3	ProbeTrack	14.0	SCS215a	20111118.103134	20111118.103218	8	0.013328	60	10	60-180	60	82	GapPrac	Blank	1	6	2	45	1	distractor	0	441	-1000	25829	13.328	13.106	13.555
ProbeTrack14	3	ProbeTrack	14.0	SCS215a	20111118.103134	20111118.103226	8	0.013328	60	10	60-180	60	98	GapPrac	Blank	1	7	2	6	1	target	1	379	811	26640	13.328	13.099	13.551
ProbeTrack14	3	ProbeTrack	14.0	SCS215a	20111118.103134	20111118.103232	8	0.013328	60	10	60-180	60	96	GapPrac	Blank	1	8	2	1	0	target	0	426	-1000	25640	13.328	12.957	13.691
ProbeTrack14	3	ProbeTrack	14.0	SCS215a	20111118.103134	20111118.103238	8	0.013328	60	10	60-180	60	83	GapPrac	Blank	1	9	2	0	0	distractor	1	425	788	26428	13.328	13.311	13.344
ProbeTrack14	3	ProbeTrack	14.0	SCS215a	20111118.103134	20111118.103244	8	0.013328	60	10	60-180	60	79	GapPrac	Blank	1	10	2	0	0	distractor	1	541	730	27158	13.328	13.308	13.344
ProbeTrack14	3	ProbeTrack	14.0	SCS215a	20111118.103134	20111118.103249	8	0.013328	60	10	60-180	60	109	GapPrac	Blank	1	11	2	45	0	distractor	1	398	801	27959	13.328	13.308	13.344
ProbeTrack14	3	ProbeTrack	14.0	SCS215a	20111118.103134	20111118.103257	8	0.013328	60	10	60-180	60	149	GapPrac	Blank	1	12	2	6	0	distractor	1	410	795	28754	13.328	13.299	13.350
ProbeTrack14	3	ProbeTrack	14.0	SCS215a	20111118.103134	20111118.103303	8	0.013328	60	10	60-180	60	94	GapPrac	Blank	1	13	2	2	1	target	1	308	846	29600	13.328	13.099	13.415
ProbeTrack14	3	ProbeTrack	14.0	SCS215a	20111118.103134	20111118.103309	8	0.013328	60	10	60-180	60	79	GapPrac	Blank	1	14	2	1	1	distractor	0	374	-1000	28600	13.328	13.309	13.347
ProbeTrack14	3	ProbeTrack	14.0	SCS215a	20111118.103134	20111118.103315	8	0.013328	60	10	60-180	60	175	GapPrac	Blank	1	15	2	1	0	distractor	1	368	816	29416	13.328	13.105	13.550
ProbeTrack14	3	ProbeTrack	14.0	SCS215a	20111118.103134	20111118.103322	8	0.013328	60	10	60-180	60	175	GapPrac	Blank	1	16	2	0	1	target	1	407	797	30213	13.328	13.099	13.563
ProbeTrack14	3	ProbeTrack	14.0	SCS215a	20111118.103134	20111118.103329	8	0.013328	60	10	60-180	60	66	GapPrac	Blank	1	17	2	0	1	target	1	388	806	31019	13.328	13.085	13.564
ProbeTrack14	3	ProbeTrack	14.0	SCS215a	20111118.103134	20111118.103335	8	0.013328	60	10	60-180	60	168	GapPrac	Blank	1	18	2	45	0	distractor	1	561	720	31739	13.328	12.911	13.753
ProbeTrack14	3	ProbeTrack	14.0	SCS215a	20111118.103134	20111118.103342	8	0.013328	60	10	60-180	60	148	GapPrac	Blank	1	19	2	1	1	target	1	342	829	32568	13.328	13.280	13.374
ProbeTrack14	3	ProbeTrack	14.0	SCS215a	20111118.103134	20111118.103348	8	0.013328	60	10	60-180	60	88	GapPrac	Blank	1	20	2	6	1	target	1	363	819	33387	13.328	13.040	13.610
ProbeTrack14	3	ProbeTrack	14.0	SCS215a	20111118.103417	20111118.103427	8	0.013328	60	10	60-180	60	166	GapExp	Blank	1	1	2	6	1	target	1	342	829	34216	13.375	13.277	13.361
ProbeTrack14	3	ProbeTrack	14.0	SCS215a	20111118.103417	20111118.103437	8	0.013328	60	10	60-180	60	77	GapExp	Blank	1	2	2	0	0	target	0	348	-1000	33216	13.328	13.298	13.361
ProbeTrack14	3	ProbeTrack	14.0	SCS215a	20111118.103417	20111118.103442	8	0.013328	60	10	60-180	60	122	GapExp	Blank	1	3	2	45	0	distractor	1	488	756	33972	13.328	13.304	13.349
ProbeTrack14	3	ProbeTrack	14.0	SCS215a	20111118.103417	20111118.103448	8	0.013328	60	10	60-180	60	175	GapExp	Blank	1	4	2	2	1	target	1	526	737	34709	13.328	13.270	13.367
ProbeTrack14	3	ProbeTrack	14.0	SCS215a	20111118.103417	20111118.103455	8	0.013328	60	10	60-180	60	107	GapExp	Blank	1	5	2	6	0	distractor	1	379	811	35520	13.328	13.001	13.664
ProbeTrack14	3	ProbeTrack	14.0	SCS215a	20111118.103417	20111118.103501	8	0.013328	60	10	60-180	60	84	GapExp	Blank	1	6	2	1	1	target	1	339	831	36351	13.328	13.113	13.556
ProbeTrack14	3	ProbeTrack	14.0	SCS215a	20111118.103417	20111118.103507	8	0.013328	60	10	60-180	60	90	GapExp	Blank	1	7	2	2	0	distractor	1	400	800	37151	13.328	13.008	13.662
ProbeTrack14	3	ProbeTrack	14.0	SCS215a	20111118.103417	20111118.103513	8	0.013328	60	10	60-180	60	105	GapExp	Blank	1	8	2	45	1	target	1	416	792	37943	13.328	13.308	13.346
ProbeTrack14	3	ProbeTrack	14.0	SCS215a	20111118.103417	20111118.103519	8	0.013328	60	10	60-180	60	84	GapExp	Blank	1	9	2	0	1	target	1	345	828	38771	13.328	13.307	13.348
ProbeTrack14	3	ProbeTrack	14.0	SCS215a	20111118.103417	20111118.103525	8	0.013328	60	10	60-180	60	171	GapExp	Blank	1	10	2	1	0	distractor	1	406	797	39568	13.328	13.308	13.352
ProbeTrack14	3	ProbeTrack	14.0	SCS215a	20111118.103417	20111118.103531	8	0.013328	60	10	60-180	60	65	GapExp	Blank	0	11	2	1	0	early	-4	-2622	-1000	38568	13.328	12.994	13.663
ProbeTrack14	3	ProbeTrack	14.0	SCS215a	20111118.103417	20111118.103536	8	0.013328	60	10	60-180	60	169	GapExp	Blank	0	12	2	1	0	distractor	1	337	832	39400	13.328	13.118	13.551
ProbeTrack14	3	ProbeTrack	14.0	SCS215a	20111118.103417	20111118.103544	8	0.013328	60	10	60-180	60	83	GapExp	Blank	0	13	2	1	1	target	1	428	786	40186	13.328	12.927	13.729
ProbeTrack14	3	ProbeTrack	14.0	SCS215a	20111118.103417	20111118.103549	8	0.013328	60	10	60-180	60	148	GapExp	Blank	0	14	2	1	1	distractor	0	365	-1000	39186	13.328	12.933	13.714
ProbeTrack14	3	ProbeTrack	14.0	SCS215a	20111118.103417	20111118.103556	8	0.013328	60	10	60-180	60	81	GapExp	Blank	0	15	2	45	1	target	1	364	818	40004	13.328	13.308	13.353
ProbeTrack14	3	ProbeTrack	14.0	SCS215a	20111118.103417	20111118.103605	8	0.013328	60	10	60-180	60	116	GapExp	Blank	0	16	2	45	1	target	1	440	780	40784	13.328	12.936	13.727
ProbeTrack14	3	ProbeTrack	14.0	SCS215a	20111118.103417	20111118.103612	8	0.013328	60	10	60-180	60	107	GapExp	Blank	0	17	2	45	1	target	1	425	788	41572	13.328	12.869	13.789
ProbeTrack14	3	ProbeTrack	14.0	SCS215a	20111118.103417	20111118.103619	8	0.013328	60	10	60-180	60	66	GapExp	Blank	0	18	2	45	1	distractor	0	438	-1000	40572	13.328	13.105	13.558
ProbeTrack14	3	ProbeTrack	14.0	SCS215a	20111118.103417	20111118.103625	8	0.013328	60	10	60-180	60	78	GapExp	Blank	0	19	2	0	1	target	1	369	816	41388	13.328	13.089	13.566
ProbeTrack14	3	ProbeTrack	14.0	SCS215a	20111118.103417	20111118.103631	8	0.013328	60	10	60-180	60	159	GapExp	Blank	0	20	2	0	0	distractor	1	381	810	42198	13.328	12.870	13.773
ProbeTrack14	3	ProbeTrack	14.0	SCS215a	20111118.103417	20111118.103637	8	0.013328	60	10	60-180	60	74	GapExp	Blank	0	21	2	1	0	early	-4	-2754	-1000	41198	13.328	12.837	13.819
ProbeTrack14	3	ProbeTrack	14.0	SCS215a	20111118.103417	20111118.103642	8	0.013328	60	10	60-180	60	148	GapExp	Blank	0	22	2	45	1	target	1	386	807	42005	13.328	13.304	13.347
ProbeTrack14	3	ProbeTrack	14.0	SCS215a	20111118.103417	20111118.103650	8	0.013328	60	10	60-180	60	61	GapExp	Blank	0	23	2	45	0	distractor	1	492	754	42759	13.328	13.309	13.343
ProbeTrack14	3	ProbeTrack	14.0	SCS215a	20111118.103417	20111118.103656	8	0.013328	60	10	60-180	60	108	GapExp	Blank	0	24	2	0	0	distractor	1	585	708	43467	13.328	13.265	13.383
ProbeTrack14	3	ProbeTrack	14.0	SCS215a	20111118.103417	20111118.103702	8	0.013328	60	10	60-180	60	85	GapExp	Blank	0	25	2	1	0	target	0	471	-1000	42467	13.328	12.985	13.603
ProbeTrack14	3	ProbeTrack	14.0	SCS215a	20111118.103417	20111118.103708	8	0.013328	60	10	60-180	60	140	GapExp	Blank	0	26	2	0	0	target	0	681	-1000	41467	13.328	13.106	13.543
ProbeTrack14	3	ProbeTrack	14.0	SCS215a	20111118.103417	20111118.103715	8	0.013328	60	10	60-180	60	155	GapExp	Blank	0	27	2	1	0	distractor	1	459	771	42238	13.328	13.112	13.544
ProbeTrack14	3	ProbeTrack	14.0	SCS215a	20111118.103417	20111118.103722	8	0.013328	60	10	60-180	60	140	GapExp	Blank	0	28	2	1	0	target	0	400	-1000	41238	13.328	13.098	13.560
ProbeTrack14	3	ProbeTrack	14.0	SCS215a	20111118.103417	20111118.103728	8	0.013328	60	10	60-180	60	75	GapExp	Blank	0	29	2	2	1	distractor	0	582	-1000	40238	13.328	12.977	13.660
ProbeTrack14	3	ProbeTrack	14.0	SCS215a	20111118.103417	20111118.103734	8	0.013328	60	10	60-180	60	125	GapExp	Blank	0	30	2	45	0	distractor	1	558	721	40959	13.328	13.307	13.353
ProbeTrack14	3	ProbeTrack	14.0	SCS215a	20111118.103417	20111118.103741	8	0.013328	60	10	60-180	60	119	GapExp	Blank	0	31	2	2	0	target	0	619	-1000	39959	13.328	13.092	13.565
ProbeTrack14	3	ProbeTrack	14.0	SCS215a	20111118.103417	20111118.103747	8	0.013328	60	10	60-180	60	122	GapExp	Blank	0	32	2	0	0	target	0	369	-1000	38959	13.328	13.297	13.355
ProbeTrack14	3	ProbeTrack	14.0	SCS215a	20111118.103417	20111118.103753	8	0.013328	60	10	60-180	60	85	GapExp	Blank	0	33	2	2	0	distractor	1	663	669	39628	13.328	13.307	13.354
ProbeTrack14	3	ProbeTrack	14.0	SCS215a	20111118.103417	20111118.103759	8	0.013328	60	10	60-180	60	104	GapExp	Blank	0	34	2	1	1	target	1	355	823	40451	13.328	13.308	13.349
ProbeTrack14	3	ProbeTrack	14.0	SCS215a	20111118.103417	20111118.103805	8	0.013328	60	10	60-180	60	134	GapExp	Blank	0	35	2	6	0	distractor	1	371	815	41266	13.328	13.165	13.506
ProbeTrack14	3	ProbeTrack	14.0	SCS215a	20111118.103417	20111118.103812	8	0.013328	60	10	60-180	60	146	GapExp	Blank	0	36	2	45	1	target	1	347	827	42093	13.328	12.933	13.716
ProbeTrack14	3	ProbeTrack	14.0	SCS215a	20111118.103417	20111118.103819	8	0.013328	60	10	60-180	60	87	GapExp	Blank	0	37	2	0	1	target	1	377	812	42905	13.328	13.307	13.348
ProbeTrack14	3	ProbeTrack	14.0	SCS215a	20111118.103417	20111118.103825	8	0.013328	60	10	60-180	60	159	GapExp	Blank	0	38	2	6	1	target	1	316	842	43747	13.328	12.981	13.566
ProbeTrack14	3	ProbeTrack	14.0	SCS215a	20111118.103417	20111118.103832	8	0.013328	60	10	60-180	60	146	GapExp	Blank	0	39	2	1	0	distractor	1	399	801	44548	13.328	13.105	13.556
ProbeTrack14	3	ProbeTrack	14.0	SCS215a	20111118.103417	20111118.103838	8	0.013328	60	10	60-180	60	142	GapExp	Blank	0	40	2	45	1	target	1	377	812	45360	13.328	13.107	13.543
ProbeTrack14	3	ProbeTrack	14.0	SCS215a	20111118.103417	20111118.103846	8	0.013328	60	10	60-180	60	180	GapExp	Blank	0	41	2	2	1	target	1	378	811	46171	13.328	13.306	13.347
ProbeTrack14	3	ProbeTrack	14.0	SCS215a	20111118.103417	20111118.103853	8	0.013328	60	10	60-180	60	61	GapExp	Blank	0	42	2	6	1	target	1	361	820	46991	13.328	12.961	13.688
ProbeTrack14	3	ProbeTrack	14.0	SCS215a	20111118.103417	20111118.103859	8	0.013328	60	10	60-180	60	136	GapExp	Blank	0	43	2	6	0	distractor	1	383	809	47800	13.328	13.101	13.560
ProbeTrack14	3	ProbeTrack	14.0	SCS215a	20111118.103417	20111118.103905	8	0.013328	60	10	60-180	60	118	GapExp	Blank	0	44	2	6	1	target	1	331	835	48635	13.328	12.844	13.814
ProbeTrack14	3	ProbeTrack	14.0	SCS215a	20111118.103417	20111118.103911	8	0.013328	60	10	60-180	60	179	GapExp	Blank	0	45	2	45	0	distractor	1	486	757	49392	13.328	12.861	13.802
ProbeTrack14	3	ProbeTrack	14.0	SCS215a	20111118.103417	20111118.103919	8	0.013328	60	10	60-180	60	161	GapExp	Blank	0	46	2	0	0	distractor	1	475	763	50155	13.328	13.113	13.543
ProbeTrack14	3	ProbeTrack	14.0	SCS215a	20111118.103417	20111118.103926	8	0.013328	60	10	60-180	60	112	GapExp	Blank	0	47	2	2	1	target	1	361	820	50975	13.328	13.307	13.344
ProbeTrack14	3	ProbeTrack	14.0	SCS215a	20111118.103417	20111118.103932	8	0.013328	60	10	60-180	60	81	GapExp	Blank	0	48	2	2	0	distractor	1	402	799	51774	13.394	13.073	26.678
ProbeTrack14	3	ProbeTrack	14.0	SCS215a	20111118.103417	20111118.103938	8	0.013328	60	10	60-180	60	111	GapExp	Blank	0	49	2	1	0	distractor	1	464	768	52542	13.328	13.236	13.411
ProbeTrack14	3	ProbeTrack	14.0	SCS215a	20111118.103417	20111118.103944	8	0.013328	60	10	60-180	60	103	GapExp	Blank	0	50	2	1	0	distractor	1	575	713	53255	13.328	13.295	13.355
ProbeTrack14	3	ProbeTrack	14.0	SCS215a	20111118.103417	20111118.103950	8	0.013328	60	10	60-180	60	132	GapExp	Blank	0	51	2	0	1	target	1	449	776	54031	13.328	13.307	13.350
ProbeTrack14	3	ProbeTrack	14.0	SCS215a	20111118.103417	20111118.103956	8	0.013328	60	10	60-180	60	94	GapExp	Blank	0	52	2	6	1	target	1	364	818	54849	13.328	13.092	13.564
ProbeTrack14	3	ProbeTrack	14.0	SCS215a	20111118.103417	20111118.104003	8	0.013328	60	10	60-180	60	153	GapExp	Blank	0	53	2	1	0	distractor	1	456	772	55621	13.328	13.113	13.536
ProbeTrack14	3	ProbeTrack	14.0	SCS215a	20111118.103417	20111118.104009	8	0.013328	60	10	60-180	60	152	GapExp	Blank	0	54	2	0	0	distractor	1	397	802	56423	13.328	13.085	13.564
ProbeTrack14	3	ProbeTrack	14.0	SCS215a	20111118.103417	20111118.104015	8	0.013328	60	10	60-180	60	94	GapExp	Blank	0	55	2	6	1	target	1	362	819	57242	13.328	13.298	13.354
ProbeTrack14	3	ProbeTrack	14.0	SCS215a	20111118.103417	20111118.104021	8	0.013328	60	10	60-180	60	96	GapExp	Blank	0	56	2	45	0	target	0	413	-1000	56242	13.328	13.298	13.359
ProbeTrack14	3	ProbeTrack	14.0	SCS215a	20111118.103417	20111118.104027	8	0.013328	60	10	60-180	60	146	GapExp	Blank	0	57	2	6	1	target	1	378	811	57053	13.328	12.905	13.744
ProbeTrack14	3	ProbeTrack	14.0	SCS215a	20111118.103417	20111118.104034	8	0.013328	60	10	60-180	60	149	GapExp	Blank	0	58	2	45	0	target	0	467	-1000	56053	13.328	12.919	13.736
ProbeTrack14	3	ProbeTrack	14.0	SCS215a	20111118.103417	20111118.104041	8	0.013328	60	10	60-180	60	90	GapExp	Blank	0	59	2	0	1	target	1	351	825	56878	13.328	13.309	13.350
ProbeTrack14	3	ProbeTrack	14.0	SCS215a	20111118.103417	20111118.104047	8	0.013328	60	10	60-180	60	152	GapExp	Blank	0	60	2	6	0	distractor	1	374	813	57691	13.328	13.293	13.379
ProbeTrack14	3	ProbeTrack	14.0	SCS215a	20111118.103417	20111118.104054	8	0.013328	60	10	60-180	60	63	GapExp	Blank	0	61	2	6	1	target	1	409	796	58487	13.328	13.100	13.557
ProbeTrack14	3	ProbeTrack	14.0	SCS215a	20111118.103417	20111118.104059	8	0.013328	60	10	60-180	60	98	GapExp	Blank	0	62	2	2	0	target	0	364	-1000	57487	13.328	12.946	13.716
ProbeTrack14	3	ProbeTrack	14.0	SCS215a	20111118.103417	20111118.104104	8	0.013328	60	10	60-180	60	95	GapExp	Blank	0	63	2	2	0	distractor	1	347	827	58314	13.328	13.098	13.580
ProbeTrack14	3	ProbeTrack	14.0	SCS215a	20111118.103417	20111118.104111	8	0.013328	60	10	60-180	60	96	GapExp	Blank	0	64	2	45	0	target	0	459	-1000	57314	13.328	13.111	13.549
ProbeTrack14	3	ProbeTrack	14.0	SCS215a	20111118.103417	20111118.104118	8	0.013328	60	10	60-180	60	80	GapExp	Blank	0	65	2	1	1	target	1	454	773	58087	13.328	13.305	13.349
ProbeTrack14	3	ProbeTrack	14.0	SCS215a	20111118.103417	20111118.104123	8	0.013328	60	10	60-180	60	170	GapExp	Blank	0	66	2	6	1	target	1	378	811	58898	13.328	12.876	13.777
ProbeTrack14	3	ProbeTrack	14.0	SCS215a	20111118.103417	20111118.104130	8	0.013328	60	10	60-180	60	158	GapExp	Blank	0	67	2	1	0	distractor	1	464	768	59666	13.328	13.308	13.347
ProbeTrack14	3	ProbeTrack	14.0	SCS215a	20111118.103417	20111118.104136	8	0.013328	60	10	60-180	60	161	GapExp	Blank	0	68	2	6	1	target	1	419	791	60457	13.328	12.860	13.777
ProbeTrack14	3	ProbeTrack	14.0	SCS215a	20111118.103417	20111118.104143	8	0.013328	60	10	60-180	60	145	GapExp	Blank	0	69	2	2	1	target	1	385	808	61265	13.328	13.010	13.645
ProbeTrack14	3	ProbeTrack	14.0	SCS215a	20111118.103417	20111118.104149	8	0.013328	60	10	60-180	60	132	GapExp	Blank	0	70	2	2	0	distractor	1	369	816	62081	13.328	13.085	13.564
ProbeTrack14	3	ProbeTrack	14.0	SCS215a	20111118.103417	20111118.104155	8	0.013328	60	10	60-180	60	74	GapExp	Blank	0	71	2	1	1	target	1	388	806	62887	13.328	13.114	13.551
ProbeTrack14	3	ProbeTrack	14.0	SCS215a	20111118.103417	20111118.104201	8	0.013328	60	10	60-180	60	98	GapExp	Blank	0	72	2	0	0	distractor	1	657	672	63559	13.328	13.104	13.573
ProbeTrack14	3	ProbeTrack	14.0	SCS215a	20111118.103417	20111118.104207	8	0.013328	60	10	60-180	60	62	GapExp	Blank	0	73	2	45	1	target	1	495	753	64312	13.328	13.019	13.626
ProbeTrack14	3	ProbeTrack	14.0	SCS215a	20111118.103417	20111118.104213	8	0.013328	60	10	60-180	60	96	GapExp	Blank	0	74	2	1	1	target	1	454	773	65085	13.328	13.312	13.348
ProbeTrack14	3	ProbeTrack	14.0	SCS215a	20111118.103417	20111118.104219	8	0.013328	60	10	60-180	60	176	GapExp	Blank	0	75	2	6	0	distractor	1	336	832	65917	13.328	13.308	13.348
ProbeTrack14	3	ProbeTrack	14.0	SCS215a	20111118.103417	20111118.104226	8	0.013328	60	10	60-180	60	131	GapExp	Blank	0	76	2	6	1	target	1	363	819	66736	13.328	13.300	13.350
ProbeTrack14	3	ProbeTrack	14.0	SCS215a	20111118.103417	20111118.104232	8	0.013328	60	10	60-180	60	169	GapExp	Blank	0	77	2	6	0	distractor	1	213	894	67630	13.328	13.308	13.343
ProbeTrack14	3	ProbeTrack	14.0	SCS215a	20111118.103417	20111118.104239	8	0.013328	60	10	60-180	60	143	GapExp	Blank	0	78	2	2	0	distractor	1	325	838	68468	13.328	12.873	13.782
ProbeTrack14	3	ProbeTrack	14.0	SCS215a	20111118.103417	20111118.104246	8	0.013328	60	10	60-180	60	86	GapExp	Blank	0	79	2	2	0	early	-4	-2978	-1000	67468	13.328	13.309	13.354
ProbeTrack14	3	ProbeTrack	14.0	SCS215a	20111118.103417	20111118.104252	8	0.013328	60	10	60-180	60	162	GapExp	Blank	0	80	2	1	1	target	1	374	813	68281	13.328	12.946	13.699
ProbeTrack14	3	ProbeTrack	14.0	SCS215a	20111118.103417	20111118.104301	8	0.013328	60	10	60-180	60	141	GapExp	Blank	0	81	2	0	0	distractor	1	487	757	69038	13.328	13.100	13.556
ProbeTrack14	3	ProbeTrack	14.0	SCS215a	20111118.103417	20111118.104310	8	0.013328	60	10	60-180	60	81	GapExp	Blank	0	82	2	1	0	target	0	412	-1000	68038	13.328	13.309	13.353
ProbeTrack14	3	ProbeTrack	14.0	SCS215a	20111118.103417	20111118.104315	8	0.013328	60	10	60-180	60	172	GapExp	Blank	0	83	2	6	1	target	1	404	798	68836	13.328	13.138	13.519
ProbeTrack14	3	ProbeTrack	14.0	SCS215a	20111118.103417	20111118.104322	8	0.013328	60	10	60-180	60	90	GapExp	Blank	0	84	2	2	0	distractor	1	399	801	69637	13.328	13.308	13.356
ProbeTrack14	3	ProbeTrack	14.0	SCS215a	20111118.103417	20111118.104328	8	0.013328	60	10	60-180	60	112	GapExp	Blank	0	85	2	0	0	distractor	1	434	783	70420	13.386	13.090	26.669
ProbeTrack14	3	ProbeTrack	14.0	SCS215a	20111118.103417	20111118.104334	8	0.013328	60	10	60-180	60	146	GapExp	Blank	0	86	2	1	1	target	1	365	818	71238	13.328	12.915	13.795
ProbeTrack14	3	ProbeTrack	14.0	SCS215a	20111118.103417	20111118.104341	8	0.013328	60	10	60-180	60	79	GapExp	Blank	0	87	2	6	0	distractor	1	510	745	71983	13.328	12.882	13.781
ProbeTrack14	3	ProbeTrack	14.0	SCS215a	20111118.103417	20111118.104346	8	0.013328	60	10	60-180	60	169	GapExp	Blank	0	88	2	0	0	distractor	1	444	778	72761	13.328	12.925	13.737
ProbeTrack14	3	ProbeTrack	14.0	SCS215a	20111118.103417	20111118.104353	8	0.013328	60	10	60-180	60	142	GapExp	Blank	0	89	2	2	0	distractor	1	580	710	73471	13.328	12.847	13.811
ProbeTrack14	3	ProbeTrack	14.0	SCS215a	20111118.103417	20111118.104359	8	0.013328	60	10	60-180	60	171	GapExp	Blank	0	90	2	2	0	distractor	1	384	808	74279	13.328	12.848	13.801
ProbeTrack14	3	ProbeTrack	14.0	SCS215a	20111118.103417	20111118.104406	8	0.013328	60	10	60-180	60	136	GapExp	Blank	0	91	2	2	1	target	1	370	815	75094	13.328	12.902	13.761
ProbeTrack14	3	ProbeTrack	14.0	SCS215a	20111118.103417	20111118.104412	8	0.013328	60	10	60-180	60	168	GapExp	Blank	0	92	2	2	1	target	1	374	813	75907	13.328	13.297	13.360
ProbeTrack14	3	ProbeTrack	14.0	SCS215a	20111118.103417	20111118.104419	8	0.013328	60	10	60-180	60	149	GapExp	Blank	0	93	2	0	0	distractor	1	464	768	76675	13.328	13.308	13.349
ProbeTrack14	3	ProbeTrack	14.0	SCS215a	20111118.103417	20111118.104426	8	0.013328	60	10	60-180	60	84	GapExp	Blank	0	94	2	2	0	distractor	1	421	790	77465	13.327	13.152	13.359
ProbeTrack14	3	ProbeTrack	14.0	SCS215a	20111118.103417	20111118.104432	8	0.013328	60	10	60-180	60	80	GapExp	Blank	0	95	2	2	1	target	1	484	758	78223	13.328	12.884	13.785
ProbeTrack14	3	ProbeTrack	14.0	SCS215a	20111118.103417	20111118.104437	8	0.013328	60	10	60-180	60	66	GapExp	Blank	0	96	2	45	1	target	1	475	763	78986	13.327	13.112	13.551
ProbeTrack14	3	ProbeTrack	14.0	SCS215a	20111118.103417	20111118.104443	8	0.013328	60	10	60-180	60	152	GapExp	Blank	0	97	2	2	1	target	1	382	809	79795	13.328	13.113	13.558
ProbeTrack14	3	ProbeTrack	14.0	SCS215a	20111118.103417	20111118.104450	8	0.013328	60	10	60-180	60	177	GapExp	Blank	0	98	2	1	1	target	1	459	771	80566	13.328	13.292	13.367
ProbeTrack14	3	ProbeTrack	14.0	SCS215a	20111118.103417	20111118.104457	8	0.013328	60	10	60-180	60	62	GapExp	Blank	0	99	2	0	0	distractor	1	645	678	81244	13.328	13.099	13.559
ProbeTrack14	3	ProbeTrack	14.0	SCS215a	20111118.103417	20111118.104503	8	0.013328	60	10	60-180	60	66	GapExp	Blank	0	100	2	0	0	distractor	1	601	700	81944	13.328	12.864	13.797
ProbeTrack14	3	ProbeTrack	14.0	SCS215a	20111118.103417	20111118.104510	8	0.013328	60	10	60-180	60	180	GapExp	Blank	0	101	2	2	0	distractor	1	476	762	82706	13.328	13.311	13.345
ProbeTrack14	3	ProbeTrack	14.0	SCS215a	20111118.103417	20111118.104818	8	0.013328	60	10	60-180	60	175	GapExp	Blank	0	102	2	2	0	early	-4	-3364	-1000	81706	13.328	12.881	13.763
ProbeTrack14	3	ProbeTrack	14.0	SCS215a	20111118.103417	20111118.104825	8	0.013328	60	10	60-180	60	96	GapExp	Blank	0	103	2	6	1	early	-4	-2658	-1000	80706	13.328	13.307	13.346
ProbeTrack14	3	ProbeTrack	14.0	SCS215a	20111118.103417	20111118.104830	8	0.013328	60	10	60-180	60	141	GapExp	Blank	0	104	2	45	0	target	0	559	-1000	79706	13.328	13.231	13.431
ProbeTrack14	3	ProbeTrack	14.0	SCS215a	20111118.103417	20111118.104837	8	0.013328	60	10	60-180	60	95	GapExp	Blank	0	105	2	2	0	distractor	1	363	819	80525	13.328	13.124	13.526
ProbeTrack14	3	ProbeTrack	14.0	SCS215a	20111118.103417	20111118.104843	8	0.013328	60	10	60-180	60	71	GapExp	Blank	0	106	2	0	1	target	1	482	759	81284	13.328	13.304	13.359
ProbeTrack14	3	ProbeTrack	14.0	SCS215a	20111118.103417	20111118.104849	8	0.013328	60	10	60-180	60	114	GapExp	Blank	0	107	2	6	0	distractor	1	382	809	82093	13.328	13.313	13.344
ProbeTrack14	3	ProbeTrack	14.0	SCS215a	20111118.103417	20111118.104855	8	0.013328	60	10	60-180	60	103	GapExp	Blank	0	108	2	0	0	distractor	1	455	773	82866	13.328	13.099	13.545
ProbeTrack14	3	ProbeTrack	14.0	SCS215a	20111118.103417	20111118.104900	8	0.013328	60	10	60-180	60	164	GapExp	Blank	0	109	2	6	1	target	1	415	793	83659	13.328	13.117	13.552
ProbeTrack14	3	ProbeTrack	14.0	SCS215a	20111118.103417	20111118.104907	8	0.013328	60	10	60-180	60	76	GapExp	Blank	0	110	2	45	0	distractor	1	496	752	84411	13.328	13.294	13.356
ProbeTrack14	3	ProbeTrack	14.0	SCS215a	20111118.103417	20111118.104913	8	0.013328	60	10	60-180	60	177	GapExp	Blank	0	111	2	0	1	target	1	338	831	85242	13.328	13.286	13.375
ProbeTrack14	3	ProbeTrack	14.0	SCS215a	20111118.103417	20111118.104920	8	0.013328	60	10	60-180	60	105	GapExp	Blank	0	112	2	0	1	target	1	405	798	86040	13.328	13.313	13.344
ProbeTrack14	3	ProbeTrack	14.0	SCS215a	20111118.103417	20111118.104926	8	0.013328	60	10	60-180	60	161	GapExp	Blank	0	113	2	6	0	distractor	1	339	831	86871	13.328	12.922	13.732
ProbeTrack14	3	ProbeTrack	14.0	SCS215a	20111118.103417	20111118.104933	8	0.013328	60	10	60-180	60	83	GapExp	Blank	0	114	2	45	0	distractor	1	427	787	87658	13.328	12.903	13.739
ProbeTrack14	3	ProbeTrack	14.0	SCS215a	20111118.103417	20111118.104939	8	0.013328	60	10	60-180	60	119	GapExp	Blank	0	115	2	45	1	target	1	409	796	88454	13.328	13.300	13.348
ProbeTrack14	3	ProbeTrack	14.0	SCS215a	20111118.103417	20111118.104945	8	0.013328	60	10	60-180	60	151	GapExp	Blank	0	116	2	2	1	target	1	424	788	89242	13.328	13.095	13.579
ProbeTrack14	3	ProbeTrack	14.0	SCS215a	20111118.103417	20111118.104952	8	0.013328	60	10	60-180	60	103	GapExp	Blank	0	117	2	2	1	target	1	381	810	90052	13.328	13.306	13.345
ProbeTrack14	3	ProbeTrack	14.0	SCS215a	20111118.103417	20111118.104958	8	0.013328	60	10	60-180	60	119	GapExp	Blank	0	118	2	2	0	target	0	439	-1000	89052	13.328	12.851	13.802
ProbeTrack14	3	ProbeTrack	14.0	SCS215a	20111118.103417	20111118.105004	8	0.013328	60	10	60-180	60	101	GapExp	Blank	0	119	2	6	1	target	1	383	809	89861	13.328	13.112	13.551
ProbeTrack14	3	ProbeTrack	14.0	SCS215a	20111118.103417	20111118.105011	8	0.013328	60	10	60-180	60	169	GapExp	Blank	0	120	2	6	1	target	1	376	812	90673	13.328	13.119	13.551
ProbeTrack14	3	ProbeTrack	14.0	SCS215a	20111118.103417	20111118.105017	8	0.013328	60	10	60-180	60	71	GapExp	Blank	0	121	2	45	1	target	1	384	808	91481	13.328	12.885	13.788
ProbeTrack14	3	ProbeTrack	14.0	SCS215a	20111118.103417	20111118.105024	8	0.013328	60	10	60-180	60	120	GapExp	Blank	0	122	2	1	1	target	1	354	823	92304	13.328	13.038	13.617
ProbeTrack14	3	ProbeTrack	14.0	SCS215a	20111118.103417	20111118.105030	8	0.013328	60	10	60-180	60	115	GapExp	Blank	0	123	2	6	0	distractor	1	410	795	93099	13.328	13.305	13.437
ProbeTrack14	3	ProbeTrack	14.0	SCS215a	20111118.103417	20111118.105036	8	0.013328	60	10	60-180	60	161	GapExp	Blank	0	124	2	1	1	target	1	320	840	93939	13.328	12.881	13.784
ProbeTrack14	3	ProbeTrack	14.0	SCS215a	20111118.103417	20111118.105042	8	0.013328	60	10	60-180	60	157	GapExp	Blank	0	125	2	1	0	distractor	1	426	787	94726	13.328	13.304	13.358
ProbeTrack14	3	ProbeTrack	14.0	SCS215a	20111118.103417	20111118.105049	8	0.013328	60	10	60-180	60	98	GapExp	Blank	0	126	2	1	1	target	1	314	843	95569	13.328	13.113	13.552
ProbeTrack14	3	ProbeTrack	14.0	SCS215a	20111118.103417	20111118.105055	8	0.013328	60	10	60-180	60	66	GapExp	Blank	0	127	2	0	1	target	1	411	795	96364	13.328	13.100	13.557
ProbeTrack14	3	ProbeTrack	14.0	SCS215a	20111118.103417	20111118.105100	8	0.013328	60	10	60-180	60	128	GapExp	Blank	0	128	2	1	1	target	1	331	835	97199	13.328	13.286	13.359
ProbeTrack14	3	ProbeTrack	14.0	SCS215a	20111118.103417	20111118.105106	8	0.013328	60	10	60-180	60	104	GapExp	Blank	0	129	2	0	0	distractor	1	405	798	97997	13.328	13.158	13.500
ProbeTrack14	3	ProbeTrack	14.0	SCS215a	20111118.103417	20111118.105112	8	0.013328	60	10	60-180	60	131	GapExp	Blank	0	130	2	45	1	target	1	440	780	98777	13.328	13.304	13.359
ProbeTrack14	3	ProbeTrack	14.0	SCS215a	20111118.103417	20111118.105118	8	0.013328	60	10	60-180	60	176	GapExp	Blank	0	131	2	45	1	target	1	433	784	99561	13.328	13.309	13.347
ProbeTrack14	3	ProbeTrack	14.0	SCS215a	20111118.103417	20111118.105126	8	0.013328	60	10	60-180	60	121	GapExp	Blank	0	132	2	0	1	target	1	381	810	100371	13.328	13.305	13.344
ProbeTrack14	3	ProbeTrack	14.0	SCS215a	20111118.103417	20111118.105133	8	0.013328	60	10	60-180	60	90	GapExp	Blank	0	133	2	2	1	target	1	353	824	101195	13.328	13.309	13.349
ProbeTrack14	3	ProbeTrack	14.0	SCS215a	20111118.103417	20111118.105139	8	0.013328	60	10	60-180	60	90	GapExp	Blank	0	134	2	45	0	distractor	1	418	791	101986	13.328	13.297	13.359
ProbeTrack14	3	ProbeTrack	14.0	SCS215a	20111118.103417	20111118.105145	8	0.013328	60	10	60-180	60	160	GapExp	Blank	0	135	2	6	1	target	1	411	795	102781	13.328	13.304	13.356
ProbeTrack14	3	ProbeTrack	14.0	SCS215a	20111118.103417	20111118.105152	8	0.013328	60	10	60-180	60	79	GapExp	Blank	0	136	2	2	1	target	1	501	750	103531	13.328	13.105	13.545
ProbeTrack14	3	ProbeTrack	14.0	SCS215a	20111118.103417	20111118.105158	8	0.013328	60	10	60-180	60	122	GapExp	Blank	0	137	2	45	0	distractor	1	419	791	104322	13.328	12.850	13.813
ProbeTrack14	3	ProbeTrack	14.0	SCS215a	20111118.103417	20111118.105204	8	0.013328	60	10	60-180	60	174	GapExp	Blank	0	138	2	0	1	target	1	327	837	105159	13.328	12.952	13.705
ProbeTrack14	3	ProbeTrack	14.0	SCS215a	20111118.103417	20111118.105211	8	0.013328	60	10	60-180	60	133	GapExp	Blank	0	139	2	1	0	distractor	1	343	829	105988	13.328	13.105	13.544
ProbeTrack14	3	ProbeTrack	14.0	SCS215a	20111118.103417	20111118.105217	8	0.013328	60	10	60-180	60	98	GapExp	Blank	0	140	2	45	1	target	1	377	812	106800	13.328	13.099	13.558
ProbeTrack14	3	ProbeTrack	14.0	SCS215a	20111118.103417	20111118.105223	8	0.013328	60	10	60-180	60	107	GapExp	Blank	0	141	2	45	0	distractor	1	464	768	107568	13.328	12.994	13.662
ProbeTrack14	3	ProbeTrack	14.0	SCS215a	20111118.103417	20111118.105230	8	0.013328	60	10	60-180	60	67	GapExp	Blank	0	142	2	6	0	distractor	1	479	761	108329	13.328	13.309	13.350
ProbeTrack14	3	ProbeTrack	14.0	SCS215a	20111118.103417	20111118.105235	8	0.013328	60	10	60-180	60	81	GapExp	Blank	0	143	2	45	0	distractor	1	433	784	109113	13.328	13.310	13.348
ProbeTrack14	3	ProbeTrack	14.0	SCS215a	20111118.103417	20111118.105241	8	0.013328	60	10	60-180	60	61	GapExp	Blank	0	144	2	0	0	distractor	1	469	766	109879	13.328	12.984	13.681
ProbeTrack14	3	ProbeTrack	14.0	SCS215a	20111118.103417	20111118.105247	8	0.013328	60	10	60-180	60	92	GapExp	Blank	0	145	2	0	0	distractor	1	525	738	110617	13.328	13.098	13.544
ProbeTrack14	3	ProbeTrack	14.0	SCS215a	20111118.103417	20111118.105252	8	0.013328	60	10	60-180	60	78	GapExp	Blank	0	146	2	45	0	distractor	1	599	701	111318	13.328	13.098	13.551
ProbeTrack14	3	ProbeTrack	14.0	SCS215a	20111118.103417	20111118.105258	8	0.013328	60	10	60-180	60	131	GapExp	Blank	0	147	2	2	0	distractor	1	387	807	112125	13.328	13.309	13.344
ProbeTrack14	3	ProbeTrack	14.0	SCS215a	20111118.103417	20111118.105305	8	0.013328	60	10	60-180	60	129	GapExp	Blank	0	148	2	1	1	target	1	331	835	112960	13.328	13.139	13.529
ProbeTrack14	3	ProbeTrack	14.0	SCS215a	20111118.103417	20111118.105311	8	0.013328	60	10	60-180	60	167	GapExp	Blank	0	149	2	0	1	target	1	354	823	113783	13.328	13.196	13.457
ProbeTrack14	3	ProbeTrack	14.0	SCS215a	20111118.103417	20111118.105317	8	0.013328	60	10	60-180	60	170	GapExp	Blank	0	150	2	45	0	distractor	1	499	751	114534	13.328	12.873	13.785
ProbeTrack14	3	ProbeTrack	14.0	SCS215a	20111118.103417	20111118.105324	8	0.013328	60	10	60-180	60	127	GapExp	Blank	0	151	2	1	0	distractor	1	359	821	115355	13.328	13.290	13.359
ProbeTrack14	3	ProbeTrack	14.0	SCS215a	20111118.103417	20111118.105330	8	0.013328	60	10	60-180	60	112	GapExp	Blank	0	152	2	2	1	target	1	400	800	116155	13.328	13.097	13.549
ProbeTrack14	3	ProbeTrack	14.0	SCS215a	20111118.103417	20111118.105337	8	0.013328	60	10	60-180	60	99	GapExp	Blank	0	153	2	2	0	distractor	1	362	819	116974	13.328	13.286	13.371
ProbeTrack14	3	ProbeTrack	14.0	SCS215a	20111118.103417	20111118.105343	8	0.013328	60	10	60-180	60	109	GapExp	Blank	0	154	2	2	1	target	1	364	818	117792	13.328	13.099	13.558
ProbeTrack14	3	ProbeTrack	14.0	SCS215a	20111118.103417	20111118.105349	8	0.013328	60	10	60-180	60	82	GapExp	Blank	0	155	2	2	1	target	1	318	841	118633	13.328	13.307	13.355
ProbeTrack14	3	ProbeTrack	14.0	SCS215a	20111118.103417	20111118.105354	8	0.013328	60	10	60-180	60	112	GapExp	Blank	0	156	2	6	0	distractor	1	322	839	119472	13.328	13.255	13.387
ProbeTrack14	3	ProbeTrack	14.0	SCS215a	20111118.103417	20111118.105400	8	0.013328	60	10	60-180	60	86	GapExp	Blank	0	157	2	6	0	distractor	1	379	811	120283	13.328	12.824	13.849
ProbeTrack14	3	ProbeTrack	14.0	SCS215a	20111118.103417	20111118.105405	8	0.013328	60	10	60-180	60	170	GapExp	Blank	0	158	2	1	1	target	1	318	841	121124	13.328	12.907	13.738
ProbeTrack14	3	ProbeTrack	14.0	SCS215a	20111118.103417	20111118.105412	8	0.013328	60	10	60-180	60	156	GapExp	Blank	0	159	2	6	1	target	1	356	822	121946	13.328	13.247	13.410
ProbeTrack14	3	ProbeTrack	14.0	SCS215a	20111118.103417	20111118.105419	8	0.013328	60	10	60-180	60	67	GapExp	Blank	0	160	2	1	1	distractor	0	384	-1000	120946	13.328	12.869	13.789
ProbeTrack14	3	ProbeTrack	14.0	SCS215a	20111118.103417	20111118.105425	8	0.013328	60	10	60-180	60	142	GapExp	Blank	0	161	2	6	0	distractor	1	296	852	121798	13.328	12.888	13.780
ProbeTrack14	3	ProbeTrack	14.0	SCS215a	20111118.103417	20111118.105431	8	0.013328	60	10	60-180	60	83	GapExp	Blank	0	162	2	1	1	target	1	296	852	122650	13.328	13.006	13.612
ProbeTrack14	3	ProbeTrack	14.0	SCS215a	20111118.103417	20111118.105437	8	0.013328	60	10	60-180	60	90	GapExp	Blank	0	163	2	2	1	target	1	309	846	123496	13.328	13.210	13.448
ProbeTrack14	3	ProbeTrack	14.0	SCS215a	20111118.103417	20111118.105442	8	0.013328	60	10	60-180	60	160	GapExp	Blank	0	164	2	45	1	target	1	446	777	124273	13.328	13.092	13.551
ProbeTrack14	3	ProbeTrack	14.0	SCS215a	20111118.103417	20111118.105450	8	0.013328	60	10	60-180	60	88	GapExp	Blank	0	165	2	45	1	target	1	468	766	125039	13.328	12.882	13.759
ProbeTrack14	3	ProbeTrack	14.0	SCS215a	20111118.103417	20111118.105456	8	0.013328	60	10	60-180	60	88	GapExp	Blank	0	166	2	2	1	target	1	471	765	125804	13.328	13.060	13.581
ProbeTrack14	3	ProbeTrack	14.0	SCS215a	20111118.103417	20111118.105501	8	0.013328	60	10	60-180	60	133	GapExp	Blank	0	167	2	0	0	distractor	1	391	805	126609	13.328	13.114	13.545
ProbeTrack14	3	ProbeTrack	14.0	SCS215a	20111118.103417	20111118.105507	8	0.013328	60	10	60-180	60	133	GapExp	Blank	0	168	2	2	1	target	1	374	813	127422	13.328	13.106	13.563
ProbeTrack14	3	ProbeTrack	14.0	SCS215a	20111118.103417	20111118.105514	8	0.013328	60	10	60-180	60	104	GapExp	Blank	0	169	2	1	0	distractor	1	393	804	128226	13.328	13.040	13.604
ProbeTrack14	3	ProbeTrack	14.0	SCS215a	20111118.103417	20111118.105520	8	0.013328	60	10	60-180	60	164	GapExp	Blank	0	170	2	0	0	distractor	1	519	741	128967	13.328	13.098	13.558
ProbeTrack14	3	ProbeTrack	14.0	SCS215a	20111118.103417	20111118.105527	8	0.013328	60	10	60-180	60	158	GapExp	Blank	0	171	2	45	1	target	1	409	796	129763	13.328	13.308	13.350
ProbeTrack14	3	ProbeTrack	14.0	SCS215a	20111118.103417	20111118.105534	8	0.013328	60	10	60-180	60	83	GapExp	Blank	0	172	2	2	1	target	1	432	784	130547	13.328	12.874	13.796
ProbeTrack14	3	ProbeTrack	14.0	SCS215a	20111118.103417	20111118.105539	8	0.013328	60	10	60-180	60	69	GapExp	Blank	0	173	2	1	1	target	1	451	775	131322	13.328	13.303	13.344
ProbeTrack14	3	ProbeTrack	14.0	SCS215a	20111118.103417	20111118.105545	8	0.013328	60	10	60-180	60	116	GapExp	Blank	0	174	2	1	1	target	1	356	822	132144	13.328	12.960	13.704
ProbeTrack14	3	ProbeTrack	14.0	SCS215a	20111118.103417	20111118.105551	8	0.013328	60	10	60-180	60	161	GapExp	Blank	0	175	2	6	0	distractor	1	479	761	132905	13.328	13.309	13.347
ProbeTrack14	3	ProbeTrack	14.0	SCS215a	20111118.103417	20111118.105557	8	0.013328	60	10	60-180	60	113	GapExp	Blank	0	176	2	45	0	distractor	1	517	742	133647	13.328	13.302	13.348
ProbeTrack14	3	ProbeTrack	14.0	SCS215a	20111118.103417	20111118.105604	8	0.013328	60	10	60-180	60	73	GapExp	Blank	0	177	2	2	0	distractor	1	358	821	134468	13.328	12.911	13.750
ProbeTrack14	3	ProbeTrack	14.0	SCS215a	20111118.103417	20111118.105610	8	0.013328	60	10	60-180	60	173	GapExp	Blank	0	178	2	2	1	target	1	457	772	135240	13.373	13.088	26.534
ProbeTrack14	3	ProbeTrack	14.0	SCS215a	20111118.103417	20111118.105617	8	0.013328	60	10	60-180	60	67	GapExp	Blank	0	179	2	6	0	distractor	1	356	822	136062	13.328	12.958	13.686
ProbeTrack14	3	ProbeTrack	14.0	SCS215a	20111118.103417	20111118.105622	8	0.013328	60	10	60-180	60	154	GapExp	Blank	0	180	2	0	1	target	1	325	838	136900	13.328	12.886	13.782
ProbeTrack14	3	ProbeTrack	14.0	SCS215a	20111118.103417	20111118.105629	8	0.013328	60	10	60-180	60	116	GapExp	Blank	0	181	2	0	0	distractor	1	429	786	137686	13.328	12.842	13.826
ProbeTrack14	3	ProbeTrack	14.0	SCS215a	20111118.103417	20111118.105635	8	0.013328	60	10	60-180	60	132	GapExp	Blank	0	182	2	0	1	target	1	509	746	138432	13.329	12.839	13.828
ProbeTrack14	3	ProbeTrack	14.0	SCS215a	20111118.103417	20111118.105641	8	0.013328	60	10	60-180	60	141	GapExp	Blank	0	183	2	2	1	target	1	343	829	139261	13.328	13.244	13.410
ProbeTrack14	3	ProbeTrack	14.0	SCS215a	20111118.103417	20111118.105647	8	0.013328	60	10	60-180	60	168	GapExp	Blank	0	184	2	2	0	distractor	1	369	816	140077	13.328	13.307	13.348
ProbeTrack14	3	ProbeTrack	14.0	SCS215a	20111118.103417	20111118.105654	8	0.013328	60	10	60-180	60	86	GapExp	Blank	0	185	2	45	1	target	1	458	771	140848	13.328	13.051	13.604
ProbeTrack14	3	ProbeTrack	14.0	SCS215a	20111118.103417	20111118.105700	8	0.013328	60	10	60-180	60	179	GapExp	Blank	0	186	2	6	0	distractor	1	456	772	141620	13.328	12.860	13.805
ProbeTrack14	3	ProbeTrack	14.0	SCS215a	20111118.103417	20111118.105707	8	0.013328	60	10	60-180	60	80	GapExp	Blank	0	187	2	2	1	target	1	362	819	142439	13.328	13.308	13.347
ProbeTrack14	3	ProbeTrack	14.0	SCS215a	20111118.103417	20111118.105712	8	0.013328	60	10	60-180	60	179	GapExp	Blank	0	188	2	45	1	target	1	386	807	143246	13.328	13.068	13.592
ProbeTrack14	3	ProbeTrack	14.0	SCS215a	20111118.103417	20111118.105720	8	0.013328	60	10	60-180	60	79	GapExp	Blank	0	189	2	2	1	target	1	372	814	144060	13.328	13.014	13.655
ProbeTrack14	3	ProbeTrack	14.0	SCS215a	20111118.103417	20111118.105726	8	0.013328	60	10	60-180	60	128	GapExp	Blank	0	190	2	45	1	target	1	388	806	144866	13.328	12.842	13.815
ProbeTrack14	3	ProbeTrack	14.0	SCS215a	20111118.103417	20111118.105732	8	0.013328	60	10	60-180	60	80	GapExp	Blank	0	191	2	1	1	target	1	375	813	145679	13.328	13.042	13.613
ProbeTrack14	3	ProbeTrack	14.0	SCS215a	20111118.103417	20111118.105738	8	0.013328	60	10	60-180	60	119	GapExp	Blank	0	192	2	6	1	target	1	381	810	146489	13.328	13.252	13.408
ProbeTrack14	3	ProbeTrack	14.0	SCS215a	20111118.103417	20111118.105744	8	0.013328	60	10	60-180	60	90	GapExp	Blank	0	193	2	0	0	target	0	365	-1000	145489	13.328	12.894	13.774
ProbeTrack14	3	ProbeTrack	14.0	SCS215a	20111118.103417	20111118.105749	8	0.013328	60	10	60-180	60	69	GapExp	Blank	0	194	2	1	1	target	1	336	832	146321	13.328	13.308	13.347
ProbeTrack14	3	ProbeTrack	14.0	SCS215a	20111118.103417	20111118.105755	8	0.013328	60	10	60-180	60	123	GapExp	Blank	0	195	2	0	0	distractor	1	470	765	147086	13.328	12.861	13.794
ProbeTrack14	3	ProbeTrack	14.0	SCS215a	20111118.103417	20111118.105801	8	0.013328	60	10	60-180	60	126	GapExp	Blank	0	196	2	45	1	target	1	518	741	147827	13.328	13.047	13.714
ProbeTrack14	3	ProbeTrack	14.0	SCS215a	20111118.103417	20111118.105808	8	0.013328	60	10	60-180	60	81	GapExp	Blank	0	197	2	6	1	target	1	301	850	148677	13.328	13.097	13.571
ProbeTrack14	3	ProbeTrack	14.0	SCS215a	20111118.103417	20111118.105813	8	0.013328	60	10	60-180	60	139	GapExp	Blank	0	198	2	1	0	target	0	434	-1000	147677	13.328	12.888	13.703
ProbeTrack14	3	ProbeTrack	14.0	SCS215a	20111118.103417	20111118.105820	8	0.013328	60	10	60-180	60	104	GapExp	Blank	0	199	2	0	1	target	1	427	787	148464	13.328	13.297	13.356
ProbeTrack14	3	ProbeTrack	14.0	SCS215a	20111118.103417	20111118.105826	8	0.013328	60	10	60-180	60	105	GapExp	Blank	0	200	2	2	0	distractor	1	451	775	149239	13.328	12.997	13.655
ProbeTrack14	3	ProbeTrack	14.0	SCS215a	20111118.103417	20111118.105832	8	0.013328	60	10	60-180	60	68	GapExp	Blank	0	201	2	6	1	target	1	374	813	150052	13.328	13.114	13.709
ProbeTrack14	3	ProbeTrack	14.0	SCS215a	20111118.103417	20111118.105838	8	0.013328	60	10	60-180	60	178	GapExp	Blank	0	202	2	1	0	distractor	1	385	808	150860	13.328	13.010	13.619
ProbeTrack14	3	ProbeTrack	14.0	SCS215a	20111118.103417	20111118.105900	8	0.013328	60	10	60-180	60	80	GapExp	Blank	0	203	2	2	1	target	1	289	856	151716	13.328	12.981	13.682
ProbeTrack14	3	ProbeTrack	14.0	SCS215a	20111118.103417	20111118.105905	8	0.013328	60	10	60-180	60	177	GapExp	Blank	0	204	2	0	1	target	1	444	778	152494	13.328	13.057	13.586
ProbeTrack14	3	ProbeTrack	14.0	SCS215a	20111118.103417	20111118.105912	8	0.013328	60	10	60-180	60	63	GapExp	Blank	0	205	2	0	1	target	1	336	832	153326	13.328	13.096	13.553
ProbeTrack14	3	ProbeTrack	14.0	SCS215a	20111118.103417	20111118.105917	8	0.013328	60	10	60-180	60	64	GapExp	Blank	0	206	2	0	0	distractor	1	396	802	154128	13.328	12.903	13.740
ProbeTrack14	3	ProbeTrack	14.0	SCS215a	20111118.103417	20111118.105922	8	0.013328	60	10	60-180	60	68	GapExp	Blank	0	207	2	45	1	target	1	387	807	154935	13.328	13.309	13.355
ProbeTrack14	3	ProbeTrack	14.0	SCS215a	20111118.103417	20111118.105929	8	0.013328	60	10	60-180	60	114	GapExp	Blank	0	208	2	0	1	target	1	320	840	155775	13.328	13.284	13.367
ProbeTrack14	3	ProbeTrack	14.0	SCS215a	20111118.103417	20111118.105935	8	0.013328	60	10	60-180	60	99	GapExp	Blank	0	209	2	6	1	target	1	306	847	156622	13.328	13.303	13.348
ProbeTrack14	3	ProbeTrack	14.0	SCS215a	20111118.103417	20111118.105940	8	0.013328	60	10	60-180	60	84	GapExp	Blank	0	210	2	1	0	distractor	1	323	839	157461	13.328	12.852	13.796
ProbeTrack14	3	ProbeTrack	14.0	SCS215a	20111118.103417	20111118.105946	8	0.013328	60	10	60-180	60	94	GapExp	Blank	0	211	2	1	0	distractor	1	322	839	158300	13.328	13.101	13.551
ProbeTrack14	3	ProbeTrack	14.0	SCS215a	20111118.103417	20111118.105951	8	0.013328	60	10	60-180	60	157	GapExp	Blank	0	212	2	0	1	target	1	294	853	159153	13.328	12.870	13.799
ProbeTrack14	3	ProbeTrack	14.0	SCS215a	20111118.103417	20111118.105957	8	0.013328	60	10	60-180	60	87	GapExp	Blank	0	213	2	1	1	target	1	304	848	160001	13.328	13.309	13.349
ProbeTrack14	3	ProbeTrack	14.0	SCS215a	20111118.103417	20111118.110002	8	0.013328	60	10	60-180	60	124	GapExp	Blank	0	214	2	6	0	distractor	1	292	854	160855	13.328	13.307	13.350
ProbeTrack14	3	ProbeTrack	14.0	SCS215a	20111118.103417	20111118.110008	8	0.013328	60	10	60-180	60	130	GapExp	Blank	0	215	2	6	1	target	1	323	839	161694	13.328	13.099	13.551
ProbeTrack14	3	ProbeTrack	14.0	SCS215a	20111118.103417	20111118.110015	8	0.013328	60	10	60-180	60	69	GapExp	Blank	0	216	2	6	0	distractor	1	282	859	162553	13.328	13.105	13.552
ProbeTrack14	3	ProbeTrack	14.0	SCS215a	20111118.103417	20111118.110020	8	0.013328	60	10	60-180	60	126	GapExp	Blank	0	217	2	0	0	distractor	1	438	781	163334	13.328	13.097	13.547
ProbeTrack14	3	ProbeTrack	14.0	SCS215a	20111118.103417	20111118.110026	8	0.013328	60	10	60-180	60	107	GapExp	Blank	0	218	2	2	0	distractor	1	348	826	164160	13.328	12.850	13.800
ProbeTrack14	3	ProbeTrack	14.0	SCS215a	20111118.103417	20111118.110031	8	0.013328	60	10	60-180	60	61	GapExp	Blank	0	219	2	1	0	distractor	1	447	777	164937	13.328	13.215	13.443
ProbeTrack14	3	ProbeTrack	14.0	SCS215a	20111118.103417	20111118.110036	8	0.013328	60	10	60-180	60	79	GapExp	Blank	0	220	2	6	0	distractor	1	395	803	165740	13.328	13.099	13.551
ProbeTrack14	3	ProbeTrack	14.0	SCS215a	20111118.103417	20111118.110042	8	0.013328	60	10	60-180	60	144	GapExp	Blank	0	221	2	6	1	target	1	303	849	166589	13.328	13.106	13.564
ProbeTrack14	3	ProbeTrack	14.0	SCS215a	20111118.103417	20111118.110049	8	0.013328	60	10	60-180	60	76	GapExp	Blank	0	222	2	2	0	distractor	1	364	818	167407	13.328	13.068	13.812
ProbeTrack14	3	ProbeTrack	14.0	SCS215a	20111118.103417	20111118.110054	8	0.013328	60	10	60-180	60	144	GapExp	Blank	0	223	2	6	0	distractor	1	277	862	168269	13.328	13.309	13.351
ProbeTrack14	3	ProbeTrack	14.0	SCS215a	20111118.103417	20111118.110100	8	0.013328	60	10	60-180	60	116	GapExp	Blank	0	224	2	45	0	distractor	1	440	780	169049	13.328	12.923	13.740
ProbeTrack14	3	ProbeTrack	14.0	SCS215a	20111118.103417	20111118.110107	8	0.013328	60	10	60-180	60	144	GapExp	Blank	0	225	2	0	1	distractor	0	443	-1000	168049	13.328	13.296	13.348
ProbeTrack14	3	ProbeTrack	14.0	SCS215a	20111118.103417	20111118.110113	8	0.013328	60	10	60-180	60	81	GapExp	Blank	0	226	2	6	0	distractor	1	512	744	168793	13.328	13.307	13.349
ProbeTrack14	3	ProbeTrack	14.0	SCS215a	20111118.103417	20111118.110118	8	0.013328	60	10	60-180	60	155	GapExp	Blank	0	227	2	0	1	target	1	372	814	169607	13.328	13.119	13.543
ProbeTrack14	3	ProbeTrack	14.0	SCS215a	20111118.103417	20111118.110125	8	0.013328	60	10	60-180	60	118	GapExp	Blank	0	228	2	45	0	distractor	1	447	777	170384	13.328	12.930	13.730
ProbeTrack14	3	ProbeTrack	14.0	SCS215a	20111118.103417	20111118.110132	8	0.013328	60	10	60-180	60	65	GapExp	Blank	0	229	2	45	1	distractor	0	477	-1000	169384	13.328	13.046	13.610
ProbeTrack14	3	ProbeTrack	14.0	SCS215a	20111118.103417	20111118.110137	8	0.013328	60	10	60-180	60	106	GapExp	Blank	0	230	2	2	0	distractor	1	366	817	170201	13.328	13.098	13.641
ProbeTrack14	3	ProbeTrack	14.0	SCS215a	20111118.103417	20111118.110143	8	0.013328	60	10	60-180	60	172	GapExp	Blank	0	231	2	45	0	distractor	1	421	790	170991	13.328	13.085	13.551
ProbeTrack14	3	ProbeTrack	14.0	SCS215a	20111118.103417	20111118.110150	8	0.013328	60	10	60-180	60	175	GapExp	Blank	0	232	2	45	0	distractor	1	426	787	171778	13.328	13.104	13.559
ProbeTrack14	3	ProbeTrack	14.0	SCS215a	20111118.103417	20111118.110158	8	0.013328	60	10	60-180	60	72	GapExp	Blank	0	233	2	1	0	distractor	1	363	819	172597	13.328	13.308	13.355
ProbeTrack14	3	ProbeTrack	14.0	SCS215a	20111118.103417	20111118.110203	8	0.013328	60	10	60-180	60	81	GapExp	Blank	0	234	2	45	0	distractor	1	370	815	173412	13.328	13.305	13.346
ProbeTrack14	3	ProbeTrack	14.0	SCS215a	20111118.103417	20111118.110209	8	0.013328	60	10	60-180	60	94	GapExp	Blank	0	235	2	45	0	distractor	1	440	780	174192	13.328	13.308	13.358
ProbeTrack14	3	ProbeTrack	14.0	SCS215a	20111118.103417	20111118.110215	8	0.013328	60	10	60-180	60	176	GapExp	Blank	0	236	2	1	0	distractor	1	394	803	174995	13.328	13.254	13.403
ProbeTrack14	3	ProbeTrack	14.0	SCS215a	20111118.103417	20111118.110222	8	0.013328	60	10	60-180	60	125	GapExp	Blank	0	237	2	1	1	target	1	410	795	175790	13.328	13.091	13.572
ProbeTrack14	3	ProbeTrack	14.0	SCS215a	20111118.103417	20111118.110228	8	0.013328	60	10	60-180	60	82	GapExp	Blank	0	238	2	45	0	distractor	1	443	779	176569	13.328	13.029	13.628
ProbeTrack14	3	ProbeTrack	14.0	SCS215a	20111118.103417	20111118.110234	8	0.013328	60	10	60-180	60	157	GapExp	Blank	0	239	2	6	1	target	1	314	843	177412	13.328	12.847	13.810
ProbeTrack14	3	ProbeTrack	14.0	SCS215a	20111118.103417	20111118.110240	8	0.013328	60	10	60-180	60	118	GapExp	Blank	0	240	2	0	1	target	1	389	806	178218	13.328	13.077	13.579
ProbeTrack14	3	ProbeTrack	14.0	SCS215a	20111118.103417	20111118.110246	8	0.013328	60	10	60-180	60	95	GapExp	Blank	0	241	2	45	0	distractor	1	389	806	179024	13.328	13.306	13.345
ProbeTrack14	3	ProbeTrack	14.0	SCS215a	20111118.103417	20111118.110252	8	0.013328	60	10	60-180	60	176	GapExp	Blank	0	242	2	0	1	target	1	414	793	179817	13.328	13.311	13.352
ProbeTrack14	3	ProbeTrack	14.0	SCS215a	20111118.103417	20111118.110259	8	0.013328	60	10	60-180	60	63	GapExp	Blank	0	243	2	45	1	target	1	453	774	180591	13.328	13.308	13.346
ProbeTrack14	3	ProbeTrack	14.0	SCS215a	20111118.103417	20111118.110306	8	0.013328	60	10	60-180	60	82	GapExp	Blank	0	244	2	6	0	distractor	1	347	827	181418	13.328	13.299	13.361
ProbeTrack14	3	ProbeTrack	14.0	SCS215a	20111118.103417	20111118.110311	8	0.013328	60	10	60-180	60	148	GapExp	Blank	0	245	2	1	1	target	1	404	798	182216	13.328	13.306	13.349
ProbeTrack14	3	ProbeTrack	14.0	SCS215a	20111118.103417	20111118.110317	8	0.013328	60	10	60-180	60	80	GapExp	Blank	0	246	2	0	1	target	1	533	734	182950	13.328	13.310	13.344
ProbeTrack14	3	ProbeTrack	14.0	SCS215a	20111118.103417	20111118.110323	8	0.013328	60	10	60-180	60	69	GapExp	Blank	0	247	2	0	1	target	1	395	803	183753	13.328	13.105	13.544
ProbeTrack14	3	ProbeTrack	14.0	SCS215a	20111118.103417	20111118.110329	8	0.013328	60	10	60-180	60	109	GapExp	Blank	0	248	2	6	0	distractor	1	302	849	184602	13.328	12.885	13.770
ProbeTrack14	3	ProbeTrack	14.0	SCS215a	20111118.103417	20111118.110335	8	0.013328	60	10	60-180	60	112	GapExp	Blank	0	249	2	6	0	distractor	1	372	814	185416	13.328	13.068	13.601
ProbeTrack14	3	ProbeTrack	14.0	SCS215a	20111118.103417	20111118.110341	8	0.013328	60	10	60-180	60	94	GapExp	Blank	0	250	2	1	0	distractor	1	306	847	186263	13.328	13.307	13.346
