exp	sub	code	rev	comp	runtime	trialtime	nstim	refreshdur	cuedur	gapdur	gapOnsetRange	durPostProbe	gapOnsetTime	blocktype	gaptype	prac	trial	ntargets	soa	probeTarget	resp	acc	rt	pts	tpts	meanFrameDur	minFrameDur	maxFrameDur
ProbeTrack14	9	ProbeTrack	14.0	SCS215b	20111122.150637	20111122.150642	8	0.013323	60	0	60-180	60	150	NoGap	None	1	1	2	6	1	target	1	904	548	548	13.374	8.615	18.049
ProbeTrack14	9	ProbeTrack	14.0	SCS215b	20111122.150637	20111122.150758	8	0.013323	60	0	60-180	60	147	NoGap	None	1	2	2	1	0	distractor	1	878	561	1109	13.328	6.249	20.413
ProbeTrack14	9	ProbeTrack	14.0	SCS215b	20111122.150637	20111122.150806	8	0.013323	60	0	60-180	60	88	NoGap	None	1	3	2	45	1	target	1	856	572	1681	13.328	6.436	20.210
ProbeTrack14	9	ProbeTrack	14.0	SCS215b	20111122.150637	20111122.150817	8	0.013323	60	0	60-180	60	93	NoGap	None	1	4	2	2	1	distractor	0	517	-1000	681	13.328	6.865	19.800
ProbeTrack14	9	ProbeTrack	14.0	SCS215b	20111122.150637	20111122.150824	8	0.013323	60	0	60-180	60	85	NoGap	None	1	5	2	45	0	distractor	1	833	584	1265	13.328	8.736	17.926
ProbeTrack14	9	ProbeTrack	14.0	SCS215b	20111122.150637	20111122.150831	8	0.013323	60	0	60-180	60	115	NoGap	None	1	6	2	0	0	distractor	1	631	685	1950	13.328	3.407	23.249
ProbeTrack14	9	ProbeTrack	14.0	SCS215b	20111122.150637	20111122.150838	8	0.013323	60	0	60-180	60	136	NoGap	None	1	7	2	0	1	target	1	847	577	2527	13.328	9.327	17.343
ProbeTrack14	9	ProbeTrack	14.0	SCS215b	20111122.150637	20111122.150846	8	0.013323	60	0	60-180	60	116	NoGap	None	1	8	2	6	1	target	1	567	717	3244	13.328	8.131	18.512
ProbeTrack14	9	ProbeTrack	14.0	SCS215b	20111122.150637	20111122.150853	8	0.013323	60	0	60-180	60	64	NoGap	None	1	9	2	0	0	distractor	1	705	648	3892	13.328	10.424	16.243
ProbeTrack14	9	ProbeTrack	14.0	SCS215b	20111122.150637	20111122.150859	8	0.013323	60	0	60-180	60	168	NoGap	None	1	10	2	2	1	target	1	671	665	4557	13.328	11.680	14.990
ProbeTrack14	9	ProbeTrack	14.0	SCS215b	20111122.150637	20111122.150907	8	0.013323	60	0	60-180	60	72	NoGap	None	1	11	2	0	0	distractor	1	676	662	5219	13.328	13.299	13.348
ProbeTrack14	9	ProbeTrack	14.0	SCS215b	20111122.150637	20111122.150915	8	0.013323	60	0	60-180	60	154	NoGap	None	1	12	2	45	1	target	1	714	643	5862	13.328	6.933	19.712
ProbeTrack14	9	ProbeTrack	14.0	SCS215b	20111122.150637	20111122.150922	8	0.013323	60	0	60-180	60	104	NoGap	None	1	13	2	1	0	distractor	1	801	600	6462	13.328	6.490	20.175
ProbeTrack14	9	ProbeTrack	14.0	SCS215b	20111122.150637	20111122.150929	8	0.013323	60	0	60-180	60	102	NoGap	None	1	14	2	6	1	target	1	615	693	7155	13.386	11.772	22.428
ProbeTrack14	9	ProbeTrack	14.0	SCS215b	20111122.150637	20111122.150936	8	0.013323	60	0	60-180	60	110	NoGap	None	1	15	2	6	0	distractor	1	601	700	7855	13.328	10.451	16.219
ProbeTrack14	9	ProbeTrack	14.0	SCS215b	20111122.150637	20111122.150943	8	0.013323	60	0	60-180	60	144	NoGap	None	1	16	2	45	1	target	1	721	640	8495	13.328	5.494	21.156
ProbeTrack14	9	ProbeTrack	14.0	SCS215b	20111122.150637	20111122.150950	8	0.013323	60	0	60-180	60	88	NoGap	None	1	17	2	1	0	distractor	1	734	633	9128	13.328	8.312	18.328
ProbeTrack14	9	ProbeTrack	14.0	SCS215b	20111122.150637	20111122.150957	8	0.013323	60	0	60-180	60	158	NoGap	None	1	18	2	2	1	target	1	641	680	9808	13.328	5.778	20.876
ProbeTrack14	9	ProbeTrack	14.0	SCS215b	20111122.150637	20111122.151004	8	0.013323	60	0	60-180	60	145	NoGap	None	1	19	2	1	0	distractor	1	695	653	10461	13.328	10.326	16.330
ProbeTrack14	9	ProbeTrack	14.0	SCS215b	20111122.150637	20111122.151014	8	0.013323	60	0	60-180	60	161	NoGap	None	1	20	2	1	1	target	1	519	741	11202	13.328	7.819	18.840
ProbeTrack14	9	ProbeTrack	14.0	SCS215b	20111122.150637	20111122.151020	8	0.013323	60	0	60-180	60	147	NoGap	None	1	21	2	6	0	distractor	1	625	688	11890	13.328	7.037	19.823
ProbeTrack14	9	ProbeTrack	14.0	SCS215b	20111122.150637	20111122.151030	8	0.013323	60	0	60-180	60	175	NoGap	None	1	22	2	6	0	distractor	1	625	688	12578	13.328	4.901	21.758
ProbeTrack14	9	ProbeTrack	14.0	SCS215b	20111122.150637	20111122.151038	8	0.013323	60	0	60-180	60	154	NoGap	None	1	23	2	2	0	distractor	1	631	685	13263	13.328	9.480	17.172
ProbeTrack14	9	ProbeTrack	14.0	SCS215b	20111122.150637	20111122.151045	8	0.013323	60	0	60-180	60	95	NoGap	None	1	24	2	1	1	target	1	731	635	13898	13.328	13.214	13.444
ProbeTrack14	9	ProbeTrack	14.0	SCS215b	20111122.150637	20111122.151052	8	0.013323	60	0	60-180	60	147	NoGap	None	1	25	2	45	0	distractor	1	509	746	14644	13.328	8.349	18.316
ProbeTrack14	9	ProbeTrack	14.0	SCS215b	20111122.150637	20111122.151059	8	0.013323	60	0	60-180	60	133	NoGap	None	1	26	2	45	1	target	1	637	682	15326	13.328	3.454	23.191
ProbeTrack14	9	ProbeTrack	14.0	SCS215b	20111122.150637	20111122.151106	8	0.013323	60	0	60-180	60	83	NoGap	None	1	27	2	45	0	distractor	1	656	672	15998	13.328	6.976	19.684
ProbeTrack14	9	ProbeTrack	14.0	SCS215b	20111122.150637	20111122.151112	8	0.013323	60	0	60-180	60	61	NoGap	None	1	28	2	2	0	distractor	1	601	700	16698	13.328	7.155	19.512
ProbeTrack14	9	ProbeTrack	14.0	SCS215b	20111122.150637	20111122.151119	8	0.013323	60	0	60-180	60	138	NoGap	None	1	29	2	2	1	target	1	393	804	17502	13.328	8.812	17.826
ProbeTrack14	9	ProbeTrack	14.0	SCS215b	20111122.150637	20111122.151128	8	0.013323	60	0	60-180	60	133	NoGap	None	1	30	2	6	0	distractor	1	536	732	18234	13.328	13.097	13.547
ProbeTrack14	9	ProbeTrack	14.0	SCS215b	20111122.150637	20111122.151135	8	0.013323	60	0	60-180	60	171	NoGap	None	1	31	2	0	0	distractor	1	375	813	19047	13.328	8.775	17.877
ProbeTrack14	9	ProbeTrack	14.0	SCS215b	20111122.150637	20111122.151141	8	0.013323	60	0	60-180	60	68	NoGap	None	1	32	2	6	1	target	1	398	801	19848	13.328	8.333	18.324
ProbeTrack14	9	ProbeTrack	14.0	SCS215b	20111122.150637	20111122.151147	8	0.013323	60	0	60-180	60	78	NoGap	None	1	33	2	1	1	target	1	656	672	20520	13.328	8.158	18.482
ProbeTrack14	9	ProbeTrack	14.0	SCS215b	20111122.150637	20111122.151153	8	0.013323	60	0	60-180	60	98	NoGap	None	1	34	2	0	1	target	1	324	838	21358	13.328	6.485	20.171
ProbeTrack14	9	ProbeTrack	14.0	SCS215b	20111122.150637	20111122.151158	8	0.013323	60	0	60-180	60	92	NoGap	None	1	35	2	0	1	target	1	604	698	22056	13.328	10.186	16.455
ProbeTrack14	9	ProbeTrack	14.0	SCS215b	20111122.150637	20111122.151204	8	0.013323	60	0	60-180	60	82	NoGap	None	1	36	2	0	1	target	1	429	786	22842	13.328	6.260	20.385
ProbeTrack14	9	ProbeTrack	14.0	SCS215b	20111122.150637	20111122.151210	8	0.013323	60	0	60-180	60	165	NoGap	None	1	37	2	2	0	distractor	1	478	761	23603	13.328	9.235	17.421
ProbeTrack14	9	ProbeTrack	14.0	SCS215b	20111122.150637	20111122.151217	8	0.013323	60	0	60-180	60	152	NoGap	None	1	38	2	45	0	distractor	1	483	759	24362	13.328	8.918	17.746
ProbeTrack14	9	ProbeTrack	14.0	SCS215b	20111122.150637	20111122.151224	8	0.013323	60	0	60-180	60	118	NoGap	None	1	39	2	2	0	distractor	1	476	762	25124	13.328	7.270	19.387
ProbeTrack14	9	ProbeTrack	14.0	SCS215b	20111122.150637	20111122.151230	8	0.013323	60	0	60-180	60	95	NoGap	None	1	40	2	1	1	target	1	427	787	25911	13.328	3.025	23.626
ProbeTrack14	9	ProbeTrack	14.0	SCS215b	20111122.151321	20111122.151334	8	0.013328	60	10	60-180	60	101	GapPrac	Blank	1	1	2	2	1	target	1	637	682	26593	13.384	5.476	21.177
ProbeTrack14	9	ProbeTrack	14.0	SCS215b	20111122.151321	20111122.151341	8	0.013328	60	10	60-180	60	75	GapPrac	Blank	1	2	2	45	0	distractor	1	1479	261	26854	13.328	6.637	20.020
ProbeTrack14	9	ProbeTrack	14.0	SCS215b	20111122.151321	20111122.151350	8	0.013328	60	10	60-180	60	78	GapPrac	Blank	1	3	2	6	0	distractor	1	897	552	27406	13.328	9.806	16.852
ProbeTrack14	9	ProbeTrack	14.0	SCS215b	20111122.151321	20111122.151356	8	0.013328	60	10	60-180	60	142	GapPrac	Blank	1	4	2	6	1	target	1	577	712	28118	13.572	12.505	66.909
ProbeTrack14	9	ProbeTrack	14.0	SCS215b	20111122.151321	20111122.151403	8	0.013328	60	10	60-180	60	124	GapPrac	Blank	1	5	2	2	1	distractor	0	403	-1000	27118	13.328	12.799	13.844
ProbeTrack14	9	ProbeTrack	14.0	SCS215b	20111122.151321	20111122.151412	8	0.013328	60	10	60-180	60	153	GapPrac	Blank	1	6	2	1	0	distractor	1	694	653	27771	13.328	11.010	15.642
ProbeTrack14	9	ProbeTrack	14.0	SCS215b	20111122.151321	20111122.151419	8	0.013328	60	10	60-180	60	102	GapPrac	Blank	1	7	2	0	0	distractor	1	618	691	28462	13.328	9.477	17.183
ProbeTrack14	9	ProbeTrack	14.0	SCS215b	20111122.151321	20111122.151425	8	0.013328	60	10	60-180	60	116	GapPrac	Blank	1	8	2	2	0	distractor	1	664	668	29130	13.328	9.356	17.298
ProbeTrack14	9	ProbeTrack	14.0	SCS215b	20111122.151321	20111122.151431	8	0.013328	60	10	60-180	60	95	GapPrac	Blank	1	9	2	1	1	distractor	0	573	-1000	28130	13.387	7.783	24.366
ProbeTrack14	9	ProbeTrack	14.0	SCS215b	20111122.151321	20111122.151438	8	0.013328	60	10	60-180	60	116	GapPrac	Blank	1	10	2	6	0	distractor	1	703	649	28779	13.328	6.371	20.282
ProbeTrack14	9	ProbeTrack	14.0	SCS215b	20111122.151321	20111122.151445	8	0.013328	60	10	60-180	60	70	GapPrac	Blank	1	11	2	45	0	distractor	1	746	627	29406	13.328	5.406	21.258
ProbeTrack14	9	ProbeTrack	14.0	SCS215b	20111122.151321	20111122.151452	8	0.013328	60	10	60-180	60	160	GapPrac	Blank	1	12	2	1	0	distractor	1	963	519	29925	13.328	4.912	21.759
ProbeTrack14	9	ProbeTrack	14.0	SCS215b	20111122.151321	20111122.151459	8	0.013328	60	10	60-180	60	120	GapPrac	Blank	1	13	2	1	1	target	1	629	686	30611	13.328	6.337	20.321
ProbeTrack14	9	ProbeTrack	14.0	SCS215b	20111122.151321	20111122.151506	8	0.013328	60	10	60-180	60	145	GapPrac	Blank	1	14	2	0	1	target	1	572	714	31325	13.328	5.001	21.651
ProbeTrack14	9	ProbeTrack	14.0	SCS215b	20111122.151321	20111122.151512	8	0.013328	60	10	60-180	60	112	GapPrac	Blank	1	15	2	0	0	target	0	770	-1000	30325	13.380	12.442	25.918
ProbeTrack14	9	ProbeTrack	14.0	SCS215b	20111122.151321	20111122.151519	8	0.013328	60	10	60-180	60	179	GapPrac	Blank	1	16	2	2	0	target	0	548	-1000	29325	13.328	8.361	18.297
ProbeTrack14	9	ProbeTrack	14.0	SCS215b	20111122.151321	20111122.151526	8	0.013328	60	10	60-180	60	108	GapPrac	Blank	1	17	2	6	1	target	1	585	708	30033	13.437	13.084	25.028
ProbeTrack14	9	ProbeTrack	14.0	SCS215b	20111122.151321	20111122.151534	8	0.013328	60	10	60-180	60	150	GapPrac	Blank	1	18	2	45	1	target	1	758	621	30654	13.328	5.884	20.766
ProbeTrack14	9	ProbeTrack	14.0	SCS215b	20111122.151321	20111122.151541	8	0.013328	60	10	60-180	60	153	GapPrac	Blank	1	19	2	45	1	distractor	0	920	-1000	29654	13.328	4.821	21.833
ProbeTrack14	9	ProbeTrack	14.0	SCS215b	20111122.151321	20111122.151549	8	0.013328	60	10	60-180	60	152	GapPrac	Blank	1	20	2	0	1	target	1	576	712	30366	13.328	5.241	21.412
ProbeTrack14	9	ProbeTrack	14.0	SCS215b	20111122.151632	20111122.151638	8	0.013328	60	10	60-180	60	90	GapExp	Blank	1	1	2	6	0	target	0	787	-1000	29366	13.383	12.845	13.827
ProbeTrack14	9	ProbeTrack	14.0	SCS215b	20111122.151632	20111122.151644	8	0.013328	60	10	60-180	60	95	GapExp	Blank	1	2	2	1	0	target	0	659	-1000	28366	13.328	12.957	13.701
ProbeTrack14	9	ProbeTrack	14.0	SCS215b	20111122.151632	20111122.151650	8	0.013328	60	10	60-180	60	146	GapExp	Blank	1	3	2	6	1	distractor	0	462	-1000	27366	13.327	12.876	13.780
ProbeTrack14	9	ProbeTrack	14.0	SCS215b	20111122.151632	20111122.151657	8	0.013328	60	10	60-180	60	65	GapExp	Blank	1	4	2	2	0	distractor	1	717	642	28008	13.393	12.851	26.203
ProbeTrack14	9	ProbeTrack	14.0	SCS215b	20111122.151632	20111122.151703	8	0.013328	60	10	60-180	60	71	GapExp	Blank	1	5	2	2	1	target	1	603	699	28707	13.328	12.874	13.782
ProbeTrack14	9	ProbeTrack	14.0	SCS215b	20111122.151632	20111122.151708	8	0.013328	60	10	60-180	60	175	GapExp	Blank	1	6	2	0	0	distractor	1	633	684	29391	13.328	12.858	13.801
ProbeTrack14	9	ProbeTrack	14.0	SCS215b	20111122.151632	20111122.151716	8	0.013328	60	10	60-180	60	114	GapExp	Blank	1	7	2	45	1	target	1	678	661	30052	13.328	12.856	13.798
ProbeTrack14	9	ProbeTrack	14.0	SCS215b	20111122.151632	20111122.151742	8	0.013328	60	10	60-180	60	90	GapExp	Blank	1	8	2	1	1	target	1	584	708	30760	13.328	12.872	13.779
ProbeTrack14	9	ProbeTrack	14.0	SCS215b	20111122.151632	20111122.151749	8	0.013328	60	10	60-180	60	93	GapExp	Blank	1	9	2	0	1	target	1	465	768	31528	13.328	12.894	13.767
ProbeTrack14	9	ProbeTrack	14.0	SCS215b	20111122.151632	20111122.151755	8	0.013328	60	10	60-180	60	163	GapExp	Blank	1	10	2	45	0	target	0	653	-1000	30528	13.328	12.845	13.804
ProbeTrack14	9	ProbeTrack	14.0	SCS215b	20111122.151632	20111122.151802	8	0.013328	60	10	60-180	60	73	GapExp	Blank	0	11	2	0	1	target	1	710	645	31173	13.328	12.918	13.734
ProbeTrack14	9	ProbeTrack	14.0	SCS215b	20111122.151632	20111122.151807	8	0.013328	60	10	60-180	60	121	GapExp	Blank	0	12	2	6	1	target	1	712	644	31817	13.328	12.848	13.803
ProbeTrack14	9	ProbeTrack	14.0	SCS215b	20111122.151632	20111122.151814	8	0.013328	60	10	60-180	60	61	GapExp	Blank	0	13	2	1	1	target	1	555	723	32540	13.328	13.309	13.347
ProbeTrack14	9	ProbeTrack	14.0	SCS215b	20111122.151632	20111122.151820	8	0.013328	60	10	60-180	60	68	GapExp	Blank	0	14	2	6	1	target	1	533	734	33274	13.328	13.004	13.650
ProbeTrack14	9	ProbeTrack	14.0	SCS215b	20111122.151632	20111122.151825	8	0.013328	60	10	60-180	60	151	GapExp	Blank	0	15	2	1	1	target	1	560	720	33994	13.328	13.050	13.606
ProbeTrack14	9	ProbeTrack	14.0	SCS215b	20111122.151632	20111122.151832	8	0.013328	60	10	60-180	60	109	GapExp	Blank	0	16	2	1	1	target	1	439	781	34775	13.328	12.923	13.729
ProbeTrack14	9	ProbeTrack	14.0	SCS215b	20111122.151632	20111122.151851	8	0.013328	60	10	60-180	60	178	GapExp	Blank	0	17	2	0	0	distractor	1	716	642	35417	13.328	12.924	13.729
ProbeTrack14	9	ProbeTrack	14.0	SCS215b	20111122.151632	20111122.151927	8	0.013328	60	10	60-180	60	177	GapExp	Blank	0	18	2	0	1	target	1	474	763	36180	13.328	12.912	13.752
ProbeTrack14	9	ProbeTrack	14.0	SCS215b	20111122.151632	20111122.151934	8	0.013328	60	10	60-180	60	143	GapExp	Blank	0	19	2	1	0	distractor	1	653	674	36854	13.328	12.939	13.715
ProbeTrack14	9	ProbeTrack	14.0	SCS215b	20111122.151632	20111122.151940	8	0.013328	60	10	60-180	60	168	GapExp	Blank	0	20	2	0	0	target	0	789	-1000	35854	13.327	12.845	13.814
ProbeTrack14	9	ProbeTrack	14.0	SCS215b	20111122.151632	20111122.151948	8	0.013328	60	10	60-180	60	84	GapExp	Blank	0	21	2	1	0	distractor	1	713	644	36498	13.328	12.971	13.673
ProbeTrack14	9	ProbeTrack	14.0	SCS215b	20111122.151632	20111122.151953	8	0.013328	60	10	60-180	60	116	GapExp	Blank	0	22	2	45	0	distractor	1	412	794	37292	13.328	13.037	13.630
ProbeTrack14	9	ProbeTrack	14.0	SCS215b	20111122.151632	20111122.152000	8	0.013328	60	10	60-180	60	78	GapExp	Blank	0	23	2	0	1	target	1	732	634	37926	13.328	12.986	13.692
ProbeTrack14	9	ProbeTrack	14.0	SCS215b	20111122.151632	20111122.152006	8	0.013328	60	10	60-180	60	77	GapExp	Blank	0	24	2	0	1	target	1	669	666	38592	13.328	12.827	13.826
ProbeTrack14	9	ProbeTrack	14.0	SCS215b	20111122.151632	20111122.152011	8	0.013328	60	10	60-180	60	101	GapExp	Blank	0	25	2	2	0	distractor	1	554	723	39315	13.328	13.101	13.560
ProbeTrack14	9	ProbeTrack	14.0	SCS215b	20111122.151632	20111122.152017	8	0.013328	60	10	60-180	60	88	GapExp	Blank	0	26	2	0	0	distractor	1	815	593	39908	13.328	12.837	13.823
ProbeTrack14	9	ProbeTrack	14.0	SCS215b	20111122.151632	20111122.152023	8	0.013328	60	10	60-180	60	96	GapExp	Blank	0	27	2	45	0	distractor	1	544	728	40636	13.328	12.909	13.762
ProbeTrack14	9	ProbeTrack	14.0	SCS215b	20111122.151632	20111122.152030	8	0.013328	60	10	60-180	60	79	GapExp	Blank	0	28	2	0	1	target	1	482	759	41395	13.328	13.157	13.514
ProbeTrack14	9	ProbeTrack	14.0	SCS215b	20111122.151632	20111122.152036	8	0.013328	60	10	60-180	60	160	GapExp	Blank	0	29	2	6	0	distractor	1	614	693	42088	13.328	12.912	13.743
ProbeTrack14	9	ProbeTrack	14.0	SCS215b	20111122.151632	20111122.152043	8	0.013328	60	10	60-180	60	120	GapExp	Blank	0	30	2	2	0	distractor	1	526	737	42825	13.328	12.866	13.784
ProbeTrack14	9	ProbeTrack	14.0	SCS215b	20111122.151632	20111122.152049	8	0.013328	60	10	60-180	60	79	GapExp	Blank	0	31	2	0	0	target	0	609	-1000	41825	13.328	12.877	13.785
ProbeTrack14	9	ProbeTrack	14.0	SCS215b	20111122.151632	20111122.152054	8	0.013328	60	10	60-180	60	67	GapExp	Blank	0	32	2	6	0	distractor	1	575	713	42538	13.330	12.913	13.740
ProbeTrack14	9	ProbeTrack	14.0	SCS215b	20111122.151632	20111122.152059	8	0.013328	60	10	60-180	60	114	GapExp	Blank	0	33	2	2	1	target	1	516	742	43280	13.328	13.040	13.618
ProbeTrack14	9	ProbeTrack	14.0	SCS215b	20111122.151632	20111122.152107	8	0.013328	60	10	60-180	60	141	GapExp	Blank	0	34	2	2	0	distractor	1	602	699	43979	13.328	12.970	13.685
ProbeTrack14	9	ProbeTrack	14.0	SCS215b	20111122.151632	20111122.152113	8	0.013328	60	10	60-180	60	157	GapExp	Blank	0	35	2	6	0	distractor	1	659	671	44650	13.328	12.888	13.776
ProbeTrack14	9	ProbeTrack	14.0	SCS215b	20111122.151632	20111122.152120	8	0.013328	60	10	60-180	60	145	GapExp	Blank	0	36	2	45	1	distractor	0	822	-1000	43650	13.328	12.832	13.825
ProbeTrack14	9	ProbeTrack	14.0	SCS215b	20111122.151632	20111122.152129	8	0.013328	60	10	60-180	60	133	GapExp	Blank	0	37	2	2	0	distractor	1	559	721	44371	13.328	12.884	13.785
ProbeTrack14	9	ProbeTrack	14.0	SCS215b	20111122.151632	20111122.152136	8	0.013328	60	10	60-180	60	114	GapExp	Blank	0	38	2	2	1	target	1	844	578	44949	13.328	12.822	13.819
ProbeTrack14	9	ProbeTrack	14.0	SCS215b	20111122.151632	20111122.152144	8	0.013328	60	10	60-180	60	71	GapExp	Blank	0	39	2	1	1	target	1	484	758	45707	13.328	12.899	13.745
ProbeTrack14	9	ProbeTrack	14.0	SCS215b	20111122.151632	20111122.152149	8	0.013328	60	10	60-180	60	129	GapExp	Blank	0	40	2	6	1	target	1	484	758	46465	13.328	13.102	13.557
ProbeTrack14	9	ProbeTrack	14.0	SCS215b	20111122.151632	20111122.152156	8	0.013328	60	10	60-180	60	73	GapExp	Blank	0	41	2	1	1	target	1	356	822	47287	13.328	12.989	13.673
ProbeTrack14	9	ProbeTrack	14.0	SCS215b	20111122.151632	20111122.152202	8	0.013328	60	10	60-180	60	86	GapExp	Blank	0	42	2	0	1	target	1	556	722	48009	13.328	12.878	13.789
ProbeTrack14	9	ProbeTrack	14.0	SCS215b	20111122.151632	20111122.152208	8	0.013328	60	10	60-180	60	101	GapExp	Blank	0	43	2	0	0	target	0	585	-1000	47009	13.328	13.092	13.569
ProbeTrack14	9	ProbeTrack	14.0	SCS215b	20111122.151632	20111122.152215	8	0.013328	60	10	60-180	60	154	GapExp	Blank	0	44	2	2	0	distractor	1	708	646	47655	13.328	12.833	13.822
ProbeTrack14	9	ProbeTrack	14.0	SCS215b	20111122.151632	20111122.152221	8	0.013328	60	10	60-180	60	65	GapExp	Blank	0	45	2	6	1	target	1	538	731	48386	13.328	12.985	13.686
ProbeTrack14	9	ProbeTrack	14.0	SCS215b	20111122.151632	20111122.152227	8	0.013328	60	10	60-180	60	139	GapExp	Blank	0	46	2	2	0	target	0	462	-1000	47386	13.328	12.997	13.668
ProbeTrack14	9	ProbeTrack	14.0	SCS215b	20111122.151632	20111122.152233	8	0.013328	60	10	60-180	60	64	GapExp	Blank	0	47	2	45	1	target	1	1133	434	47820	13.328	12.917	13.752
ProbeTrack14	9	ProbeTrack	14.0	SCS215b	20111122.151632	20111122.152239	8	0.013328	60	10	60-180	60	86	GapExp	Blank	0	48	2	1	1	target	1	461	770	48590	13.328	12.815	13.846
ProbeTrack14	9	ProbeTrack	14.0	SCS215b	20111122.151632	20111122.152246	8	0.013328	60	10	60-180	60	118	GapExp	Blank	0	49	2	2	0	distractor	1	690	655	49245	13.328	12.900	13.765
ProbeTrack14	9	ProbeTrack	14.0	SCS215b	20111122.151632	20111122.152253	8	0.013328	60	10	60-180	60	104	GapExp	Blank	0	50	2	0	1	target	1	639	681	49926	13.328	13.036	13.628
ProbeTrack14	9	ProbeTrack	14.0	SCS215b	20111122.151632	20111122.152259	8	0.013328	60	10	60-180	60	100	GapExp	Blank	0	51	2	0	0	distractor	1	705	648	50574	13.328	12.888	13.776
ProbeTrack14	9	ProbeTrack	14.0	SCS215b	20111122.151632	20111122.152305	8	0.013328	60	10	60-180	60	95	GapExp	Blank	0	52	2	0	1	target	1	538	731	51305	13.328	12.951	13.783
ProbeTrack14	9	ProbeTrack	14.0	SCS215b	20111122.151632	20111122.152311	8	0.013328	60	10	60-180	60	170	GapExp	Blank	0	53	2	45	1	early	-4	-267	-1000	50305	13.328	12.841	13.798
ProbeTrack14	9	ProbeTrack	14.0	SCS215b	20111122.151632	20111122.152321	8	0.013328	60	10	60-180	60	124	GapExp	Blank	0	54	2	45	0	target	0	656	-1000	49305	13.328	12.834	13.823
ProbeTrack14	9	ProbeTrack	14.0	SCS215b	20111122.151632	20111122.152329	8	0.013328	60	10	60-180	60	136	GapExp	Blank	0	55	2	6	1	target	1	436	782	50087	13.328	12.849	13.820
ProbeTrack14	9	ProbeTrack	14.0	SCS215b	20111122.151632	20111122.152336	8	0.013328	60	10	60-180	60	164	GapExp	Blank	0	56	2	2	1	target	1	457	772	50859	13.328	12.840	13.816
ProbeTrack14	9	ProbeTrack	14.0	SCS215b	20111122.151632	20111122.152342	8	0.013328	60	10	60-180	60	148	GapExp	Blank	0	57	2	45	1	target	1	500	750	51609	13.328	12.929	13.714
ProbeTrack14	9	ProbeTrack	14.0	SCS215b	20111122.151632	20111122.152359	8	0.013328	60	10	60-180	60	133	GapExp	Blank	0	58	2	6	0	target	0	626	-1000	50609	13.328	12.854	13.808
ProbeTrack14	9	ProbeTrack	14.0	SCS215b	20111122.151632	20111122.152406	8	0.013328	60	10	60-180	60	88	GapExp	Blank	0	59	2	2	0	distractor	1	700	650	51259	13.328	12.851	13.815
ProbeTrack14	9	ProbeTrack	14.0	SCS215b	20111122.151632	20111122.152412	8	0.013328	60	10	60-180	60	84	GapExp	Blank	0	60	2	45	0	distractor	1	746	627	51886	13.328	12.821	13.834
ProbeTrack14	9	ProbeTrack	14.0	SCS215b	20111122.151632	20111122.152419	8	0.013328	60	10	60-180	60	96	GapExp	Blank	0	61	2	2	0	distractor	1	764	618	52504	13.328	12.863	13.791
ProbeTrack14	9	ProbeTrack	14.0	SCS215b	20111122.151632	20111122.152425	8	0.013328	60	10	60-180	60	77	GapExp	Blank	0	62	2	45	0	target	0	789	-1000	51504	13.328	12.851	13.807
ProbeTrack14	9	ProbeTrack	14.0	SCS215b	20111122.151632	20111122.152432	8	0.013328	60	10	60-180	60	174	GapExp	Blank	0	63	2	45	1	target	1	836	582	52086	13.365	12.912	26.230
ProbeTrack14	9	ProbeTrack	14.0	SCS215b	20111122.151632	20111122.152440	8	0.013328	60	10	60-180	60	152	GapExp	Blank	0	64	2	6	1	target	1	527	737	52823	13.375	12.839	26.697
ProbeTrack14	9	ProbeTrack	14.0	SCS215b	20111122.151632	20111122.152447	8	0.013328	60	10	60-180	60	110	GapExp	Blank	0	65	2	1	0	distractor	1	535	733	53556	13.328	12.873	13.782
ProbeTrack14	9	ProbeTrack	14.0	SCS215b	20111122.151632	20111122.152453	8	0.013328	60	10	60-180	60	133	GapExp	Blank	0	66	2	6	1	target	1	432	784	54340	13.327	12.811	14.069
ProbeTrack14	9	ProbeTrack	14.0	SCS215b	20111122.151632	20111122.152459	8	0.013328	60	10	60-180	60	80	GapExp	Blank	0	67	2	6	1	target	1	577	712	55052	13.328	12.834	13.822
ProbeTrack14	9	ProbeTrack	14.0	SCS215b	20111122.151632	20111122.152505	8	0.013328	60	10	60-180	60	160	GapExp	Blank	0	68	2	1	0	distractor	1	612	694	55746	13.555	12.859	66.882
ProbeTrack14	9	ProbeTrack	14.0	SCS215b	20111122.151632	20111122.152512	8	0.013328	60	10	60-180	60	109	GapExp	Blank	0	69	2	1	0	target	0	409	-1000	54746	13.387	13.001	26.492
ProbeTrack14	9	ProbeTrack	14.0	SCS215b	20111122.151632	20111122.152518	8	0.013328	60	10	60-180	60	127	GapExp	Blank	0	70	2	0	1	target	1	621	690	55436	13.328	13.038	13.620
ProbeTrack14	9	ProbeTrack	14.0	SCS215b	20111122.151632	20111122.152524	8	0.013328	60	10	60-180	60	81	GapExp	Blank	0	71	2	1	1	target	1	426	787	56223	13.328	12.868	13.778
ProbeTrack14	9	ProbeTrack	14.0	SCS215b	20111122.151632	20111122.152530	8	0.013328	60	10	60-180	60	142	GapExp	Blank	0	72	2	45	0	target	0	753	-1000	55223	13.328	12.864	13.791
ProbeTrack14	9	ProbeTrack	14.0	SCS215b	20111122.151632	20111122.152538	8	0.013328	60	10	60-180	60	92	GapExp	Blank	0	73	2	2	0	target	0	636	-1000	54223	13.328	12.896	13.767
ProbeTrack14	9	ProbeTrack	14.0	SCS215b	20111122.151632	20111122.152544	8	0.013328	60	10	60-180	60	150	GapExp	Blank	0	74	2	45	1	target	1	673	664	54887	13.368	12.933	26.403
ProbeTrack14	9	ProbeTrack	14.0	SCS215b	20111122.151632	20111122.152551	8	0.013328	60	10	60-180	60	127	GapExp	Blank	0	75	2	6	0	distractor	1	729	636	55523	13.328	12.857	13.800
ProbeTrack14	9	ProbeTrack	14.0	SCS215b	20111122.151632	20111122.152558	8	0.013328	60	10	60-180	60	148	GapExp	Blank	0	76	2	6	0	distractor	1	793	604	56127	13.328	12.835	13.821
ProbeTrack14	9	ProbeTrack	14.0	SCS215b	20111122.151632	20111122.152605	8	0.013328	60	10	60-180	60	81	GapExp	Blank	0	77	2	2	1	target	1	545	728	56855	13.328	13.281	13.356
ProbeTrack14	9	ProbeTrack	14.0	SCS215b	20111122.151632	20111122.152611	8	0.013328	60	10	60-180	60	169	GapExp	Blank	0	78	2	1	1	target	1	466	767	57622	13.328	12.849	13.798
ProbeTrack14	9	ProbeTrack	14.0	SCS215b	20111122.151632	20111122.152618	8	0.013328	60	10	60-180	60	90	GapExp	Blank	0	79	2	2	0	distractor	1	932	534	58156	13.328	12.863	13.787
ProbeTrack14	9	ProbeTrack	14.0	SCS215b	20111122.151632	20111122.152624	8	0.013328	60	10	60-180	60	76	GapExp	Blank	0	80	2	2	0	target	0	655	-1000	57156	13.388	12.849	26.739
ProbeTrack14	9	ProbeTrack	14.0	SCS215b	20111122.151632	20111122.152630	8	0.013328	60	10	60-180	60	144	GapExp	Blank	0	81	2	1	1	distractor	0	760	-1000	56156	13.328	12.843	13.814
ProbeTrack14	9	ProbeTrack	14.0	SCS215b	20111122.151632	20111122.152637	8	0.013328	60	10	60-180	60	61	GapExp	Blank	0	82	2	0	0	target	0	853	-1000	55156	13.328	13.005	13.664
ProbeTrack14	9	ProbeTrack	14.0	SCS215b	20111122.151632	20111122.152643	8	0.013328	60	10	60-180	60	110	GapExp	Blank	0	83	2	0	0	distractor	1	873	564	55720	13.328	12.859	13.801
ProbeTrack14	9	ProbeTrack	14.0	SCS215b	20111122.151632	20111122.152648	8	0.013328	60	10	60-180	60	148	GapExp	Blank	0	84	2	1	1	target	1	436	782	56502	13.378	12.998	26.509
ProbeTrack14	9	ProbeTrack	14.0	SCS215b	20111122.151632	20111122.152655	8	0.013328	60	10	60-180	60	147	GapExp	Blank	0	85	2	1	1	target	1	543	729	57231	13.328	12.984	13.685
ProbeTrack14	9	ProbeTrack	14.0	SCS215b	20111122.151632	20111122.152701	8	0.013328	60	10	60-180	60	149	GapExp	Blank	0	86	2	45	1	target	1	497	752	57983	13.328	12.827	13.815
ProbeTrack14	9	ProbeTrack	14.0	SCS215b	20111122.151632	20111122.152708	8	0.013328	60	10	60-180	60	138	GapExp	Blank	0	87	2	2	0	target	0	824	-1000	56983	13.328	12.822	13.838
ProbeTrack14	9	ProbeTrack	14.0	SCS215b	20111122.151632	20111122.152716	8	0.013328	60	10	60-180	60	137	GapExp	Blank	0	88	2	1	1	target	1	1031	485	57468	13.327	12.909	13.752
ProbeTrack14	9	ProbeTrack	14.0	SCS215b	20111122.151632	20111122.152723	8	0.013328	60	10	60-180	60	135	GapExp	Blank	0	89	2	1	0	distractor	1	696	652	58120	13.377	12.948	26.428
ProbeTrack14	9	ProbeTrack	14.0	SCS215b	20111122.151632	20111122.152729	8	0.013328	60	10	60-180	60	144	GapExp	Blank	0	90	2	6	1	target	1	763	619	58739	13.373	12.853	26.665
ProbeTrack14	9	ProbeTrack	14.0	SCS215b	20111122.151632	20111122.152736	8	0.013328	60	10	60-180	60	169	GapExp	Blank	0	91	2	1	0	distractor	1	579	711	59450	13.328	12.838	13.836
ProbeTrack14	9	ProbeTrack	14.0	SCS215b	20111122.151632	20111122.152742	8	0.013328	60	10	60-180	60	178	GapExp	Blank	0	92	2	6	1	target	1	450	775	60225	13.328	12.647	14.041
ProbeTrack14	9	ProbeTrack	14.0	SCS215b	20111122.151632	20111122.152750	8	0.013328	60	10	60-180	60	179	GapExp	Blank	0	93	2	0	0	distractor	1	569	716	60941	13.328	13.000	13.676
ProbeTrack14	9	ProbeTrack	14.0	SCS215b	20111122.151632	20111122.152757	8	0.013328	60	10	60-180	60	113	GapExp	Blank	0	94	2	45	1	target	1	727	637	61578	13.328	12.880	13.767
ProbeTrack14	9	ProbeTrack	14.0	SCS215b	20111122.151632	20111122.152804	8	0.013328	60	10	60-180	60	111	GapExp	Blank	0	95	2	6	1	target	1	467	767	62345	13.328	12.845	13.821
ProbeTrack14	9	ProbeTrack	14.0	SCS215b	20111122.151632	20111122.152811	8	0.013328	60	10	60-180	60	106	GapExp	Blank	0	96	2	6	0	distractor	1	641	680	63025	13.328	12.889	13.784
ProbeTrack14	9	ProbeTrack	14.0	SCS215b	20111122.151632	20111122.152817	8	0.013328	60	10	60-180	60	70	GapExp	Blank	0	97	2	0	0	distractor	1	550	725	63750	13.328	12.864	13.799
ProbeTrack14	9	ProbeTrack	14.0	SCS215b	20111122.151632	20111122.152823	8	0.013328	60	10	60-180	60	178	GapExp	Blank	0	98	2	0	0	target	0	560	-1000	62750	13.328	12.859	13.806
ProbeTrack14	9	ProbeTrack	14.0	SCS215b	20111122.151632	20111122.152830	8	0.013328	60	10	60-180	60	143	GapExp	Blank	0	99	2	2	0	distractor	1	600	700	63450	13.328	12.938	13.772
ProbeTrack14	9	ProbeTrack	14.0	SCS215b	20111122.151632	20111122.152837	8	0.013328	60	10	60-180	60	64	GapExp	Blank	0	100	2	45	0	distractor	1	736	632	64082	13.328	12.838	13.824
ProbeTrack14	9	ProbeTrack	14.0	SCS215b	20111122.151632	20111122.152843	8	0.013328	60	10	60-180	60	104	GapExp	Blank	0	101	2	0	0	distractor	1	681	660	64742	13.328	12.814	13.841
ProbeTrack14	9	ProbeTrack	14.0	SCS215b	20111122.151632	20111122.152849	8	0.013328	60	10	60-180	60	95	GapExp	Blank	0	102	2	0	1	target	1	507	747	65489	13.328	12.824	13.850
ProbeTrack14	9	ProbeTrack	14.0	SCS215b	20111122.151632	20111122.152855	8	0.013328	60	10	60-180	60	70	GapExp	Blank	0	103	2	45	1	target	1	443	779	66268	13.328	12.846	13.824
ProbeTrack14	9	ProbeTrack	14.0	SCS215b	20111122.151632	20111122.152901	8	0.013328	60	10	60-180	60	148	GapExp	Blank	0	104	2	2	1	target	1	496	752	67020	13.328	12.859	13.809
ProbeTrack14	9	ProbeTrack	14.0	SCS215b	20111122.151632	20111122.152908	8	0.013328	60	10	60-180	60	180	GapExp	Blank	0	105	2	2	1	target	1	350	825	67845	13.328	13.095	13.565
ProbeTrack14	9	ProbeTrack	14.0	SCS215b	20111122.151632	20111122.152915	8	0.013328	60	10	60-180	60	126	GapExp	Blank	0	106	2	6	0	distractor	1	671	665	68510	13.328	12.866	13.807
ProbeTrack14	9	ProbeTrack	14.0	SCS215b	20111122.151632	20111122.152921	8	0.013328	60	10	60-180	60	152	GapExp	Blank	0	107	2	2	1	target	1	456	772	69282	13.376	12.883	26.309
ProbeTrack14	9	ProbeTrack	14.0	SCS215b	20111122.151632	20111122.152928	8	0.013328	60	10	60-180	60	122	GapExp	Blank	0	108	2	2	1	target	1	385	808	70090	13.440	12.878	26.841
ProbeTrack14	9	ProbeTrack	14.0	SCS215b	20111122.151632	20111122.152937	8	0.013328	60	10	60-180	60	72	GapExp	Blank	0	109	2	0	0	distractor	1	744	628	70718	13.389	12.889	26.742
ProbeTrack14	9	ProbeTrack	14.0	SCS215b	20111122.151632	20111122.152943	8	0.013328	60	10	60-180	60	165	GapExp	Blank	0	110	2	2	1	target	1	403	799	71517	13.328	12.831	13.800
ProbeTrack14	9	ProbeTrack	14.0	SCS215b	20111122.151632	20111122.152949	8	0.013328	60	10	60-180	60	148	GapExp	Blank	0	111	2	6	1	target	1	433	784	72301	13.328	12.827	13.823
ProbeTrack14	9	ProbeTrack	14.0	SCS215b	20111122.151632	20111122.152957	8	0.013328	60	10	60-180	60	116	GapExp	Blank	0	112	2	1	0	distractor	1	453	774	73075	13.385	12.894	26.395
ProbeTrack14	9	ProbeTrack	14.0	SCS215b	20111122.151632	20111122.153003	8	0.013328	60	10	60-180	60	84	GapExp	Blank	0	113	2	2	1	target	1	475	763	73838	13.328	12.870	13.810
ProbeTrack14	9	ProbeTrack	14.0	SCS215b	20111122.151632	20111122.153009	8	0.013328	60	10	60-180	60	160	GapExp	Blank	0	114	2	6	1	target	1	503	749	74587	13.328	12.876	13.788
ProbeTrack14	9	ProbeTrack	14.0	SCS215b	20111122.151632	20111122.153016	8	0.013328	60	10	60-180	60	64	GapExp	Blank	0	115	2	6	1	target	1	582	709	75296	13.328	13.074	13.789
ProbeTrack14	9	ProbeTrack	14.0	SCS215b	20111122.151632	20111122.153022	8	0.013328	60	10	60-180	60	128	GapExp	Blank	0	116	2	1	0	target	0	439	-1000	74296	13.328	13.197	13.448
ProbeTrack14	9	ProbeTrack	14.0	SCS215b	20111122.151632	20111122.153028	8	0.013328	60	10	60-180	60	148	GapExp	Blank	0	117	2	2	0	distractor	1	432	784	75080	13.328	13.100	13.543
ProbeTrack14	9	ProbeTrack	14.0	SCS215b	20111122.151632	20111122.153035	8	0.013328	60	10	60-180	60	106	GapExp	Blank	0	118	2	45	0	distractor	1	670	665	75745	13.330	12.837	13.825
ProbeTrack14	9	ProbeTrack	14.0	SCS215b	20111122.151632	20111122.153042	8	0.013328	60	10	60-180	60	115	GapExp	Blank	0	119	2	6	1	target	1	428	786	76531	13.328	12.878	13.775
ProbeTrack14	9	ProbeTrack	14.0	SCS215b	20111122.151632	20111122.153048	8	0.013328	60	10	60-180	60	82	GapExp	Blank	0	120	2	45	0	distractor	1	640	680	77211	13.328	12.857	13.796
ProbeTrack14	9	ProbeTrack	14.0	SCS215b	20111122.151632	20111122.153055	8	0.013328	60	10	60-180	60	167	GapExp	Blank	0	121	2	0	1	target	1	522	739	77950	13.328	12.839	13.818
ProbeTrack14	9	ProbeTrack	14.0	SCS215b	20111122.151632	20111122.153102	8	0.013328	60	10	60-180	60	92	GapExp	Blank	0	122	2	2	0	distractor	1	676	662	78612	13.328	12.900	13.757
ProbeTrack14	9	ProbeTrack	14.0	SCS215b	20111122.151632	20111122.153108	8	0.013328	60	10	60-180	60	124	GapExp	Blank	0	123	2	6	0	distractor	1	602	699	79311	13.328	12.848	13.811
ProbeTrack14	9	ProbeTrack	14.0	SCS215b	20111122.151632	20111122.153114	8	0.013328	60	10	60-180	60	82	GapExp	Blank	0	124	2	2	1	target	1	335	833	80144	13.326	12.876	13.775
ProbeTrack14	9	ProbeTrack	14.0	SCS215b	20111122.151632	20111122.153119	8	0.013328	60	10	60-180	60	78	GapExp	Blank	0	125	2	1	0	distractor	1	642	679	80823	13.391	13.101	26.179
ProbeTrack14	9	ProbeTrack	14.0	SCS215b	20111122.151632	20111122.153125	8	0.013328	60	10	60-180	60	131	GapExp	Blank	0	126	2	45	0	distractor	1	361	820	81643	13.328	12.840	13.798
ProbeTrack14	9	ProbeTrack	14.0	SCS215b	20111122.151632	20111122.153132	8	0.013328	60	10	60-180	60	99	GapExp	Blank	0	127	2	2	1	target	1	610	695	82338	13.328	12.925	13.721
ProbeTrack14	9	ProbeTrack	14.0	SCS215b	20111122.151632	20111122.153138	8	0.013328	60	10	60-180	60	83	GapExp	Blank	0	128	2	1	0	distractor	1	580	710	83048	13.328	12.997	13.662
ProbeTrack14	9	ProbeTrack	14.0	SCS215b	20111122.151632	20111122.153144	8	0.013328	60	10	60-180	60	66	GapExp	Blank	0	129	2	1	1	target	1	600	700	83748	13.326	12.882	13.791
ProbeTrack14	9	ProbeTrack	14.0	SCS215b	20111122.151632	20111122.153149	8	0.013328	60	10	60-180	60	156	GapExp	Blank	0	130	2	1	0	distractor	1	530	735	84483	13.328	12.988	13.675
ProbeTrack14	9	ProbeTrack	14.0	SCS215b	20111122.151632	20111122.153156	8	0.013328	60	10	60-180	60	158	GapExp	Blank	0	131	2	1	0	distractor	1	495	753	85236	13.328	12.849	13.811
ProbeTrack14	9	ProbeTrack	14.0	SCS215b	20111122.151632	20111122.153202	8	0.013328	60	10	60-180	60	118	GapExp	Blank	0	132	2	6	1	target	1	422	789	86025	13.328	13.302	13.353
ProbeTrack14	9	ProbeTrack	14.0	SCS215b	20111122.151632	20111122.153209	8	0.013328	60	10	60-180	60	142	GapExp	Blank	0	133	2	2	0	distractor	1	458	771	86796	13.328	12.877	13.769
ProbeTrack14	9	ProbeTrack	14.0	SCS215b	20111122.151632	20111122.153216	8	0.013328	60	10	60-180	60	99	GapExp	Blank	0	134	2	2	1	target	1	444	778	87574	13.328	12.818	13.822
ProbeTrack14	9	ProbeTrack	14.0	SCS215b	20111122.151632	20111122.153221	8	0.013328	60	10	60-180	60	95	GapExp	Blank	0	135	2	45	1	target	1	545	728	88302	13.328	12.847	13.815
ProbeTrack14	9	ProbeTrack	14.0	SCS215b	20111122.151632	20111122.153228	8	0.013328	60	10	60-180	60	117	GapExp	Blank	0	136	2	45	0	distractor	1	725	638	88940	13.328	12.872	13.791
ProbeTrack14	9	ProbeTrack	14.0	SCS215b	20111122.151632	20111122.153234	8	0.013328	60	10	60-180	60	168	GapExp	Blank	0	137	2	6	0	distractor	1	571	715	89655	13.328	12.906	13.785
ProbeTrack14	9	ProbeTrack	14.0	SCS215b	20111122.151632	20111122.153243	8	0.013328	60	10	60-180	60	99	GapExp	Blank	0	138	2	0	1	target	1	545	728	90383	13.328	13.027	13.816
ProbeTrack14	9	ProbeTrack	14.0	SCS215b	20111122.151632	20111122.153249	8	0.013328	60	10	60-180	60	162	GapExp	Blank	0	139	2	2	1	target	1	626	687	91070	13.328	12.881	13.768
ProbeTrack14	9	ProbeTrack	14.0	SCS215b	20111122.151632	20111122.153255	8	0.013328	60	10	60-180	60	144	GapExp	Blank	0	140	2	6	1	target	1	534	733	91803	13.376	12.825	26.661
ProbeTrack14	9	ProbeTrack	14.0	SCS215b	20111122.151632	20111122.153302	8	0.013328	60	10	60-180	60	158	GapExp	Blank	0	141	2	0	0	target	0	733	-1000	90803	13.328	12.840	13.813
ProbeTrack14	9	ProbeTrack	14.0	SCS215b	20111122.151632	20111122.153308	8	0.013328	60	10	60-180	60	177	GapExp	Blank	0	142	2	6	1	target	1	571	715	91518	13.328	12.874	13.788
ProbeTrack14	9	ProbeTrack	14.0	SCS215b	20111122.151632	20111122.153316	8	0.013328	60	10	60-180	60	89	GapExp	Blank	0	143	2	6	0	distractor	1	515	743	92261	13.328	12.898	13.818
ProbeTrack14	9	ProbeTrack	14.0	SCS215b	20111122.151632	20111122.153321	8	0.013328	60	10	60-180	60	131	GapExp	Blank	0	144	2	45	1	distractor	0	694	-1000	91261	13.328	12.976	13.698
ProbeTrack14	9	ProbeTrack	14.0	SCS215b	20111122.151632	20111122.153329	8	0.013328	60	10	60-180	60	145	GapExp	Blank	0	145	2	45	0	target	0	531	-1000	90261	13.328	12.887	13.781
ProbeTrack14	9	ProbeTrack	14.0	SCS215b	20111122.151632	20111122.153336	8	0.013328	60	10	60-180	60	85	GapExp	Blank	0	146	2	2	1	target	1	677	662	90923	13.388	12.846	26.367
ProbeTrack14	9	ProbeTrack	14.0	SCS215b	20111122.151632	20111122.153341	8	0.013328	60	10	60-180	60	178	GapExp	Blank	0	147	2	6	0	distractor	1	487	757	91680	13.328	12.938	13.726
ProbeTrack14	9	ProbeTrack	14.0	SCS215b	20111122.151632	20111122.153349	8	0.013328	60	10	60-180	60	138	GapExp	Blank	0	148	2	1	0	target	0	462	-1000	90680	13.328	12.922	13.721
ProbeTrack14	9	ProbeTrack	14.0	SCS215b	20111122.151632	20111122.153355	8	0.013328	60	10	60-180	60	80	GapExp	Blank	0	149	2	0	1	target	1	566	717	91397	13.328	12.919	13.737
ProbeTrack14	9	ProbeTrack	14.0	SCS215b	20111122.151632	20111122.153401	8	0.013328	60	10	60-180	60	174	GapExp	Blank	0	150	2	6	1	target	1	401	800	92197	13.328	12.916	13.750
ProbeTrack14	9	ProbeTrack	14.0	SCS215b	20111122.151632	20111122.153408	8	0.013328	60	10	60-180	60	103	GapExp	Blank	0	151	2	2	1	target	1	497	752	92949	13.328	12.838	13.816
ProbeTrack14	9	ProbeTrack	14.0	SCS215b	20111122.151632	20111122.153414	8	0.013328	60	10	60-180	60	118	GapExp	Blank	0	152	2	2	0	distractor	1	575	713	93662	13.328	12.969	13.677
ProbeTrack14	9	ProbeTrack	14.0	SCS215b	20111122.151632	20111122.153421	8	0.013328	60	10	60-180	60	148	GapExp	Blank	0	153	2	2	0	target	0	535	-1000	92662	13.328	12.906	13.743
ProbeTrack14	9	ProbeTrack	14.0	SCS215b	20111122.151632	20111122.153428	8	0.013328	60	10	60-180	60	177	GapExp	Blank	0	154	2	45	0	distractor	1	900	550	93212	13.328	12.843	13.818
ProbeTrack14	9	ProbeTrack	14.0	SCS215b	20111122.151632	20111122.153500	8	0.013328	60	10	60-180	60	124	GapExp	Blank	0	155	2	6	1	target	1	528	736	93948	13.328	12.910	13.761
ProbeTrack14	9	ProbeTrack	14.0	SCS215b	20111122.151632	20111122.153506	8	0.013328	60	10	60-180	60	101	GapExp	Blank	0	156	2	1	0	distractor	1	511	745	94693	13.328	13.082	13.563
ProbeTrack14	9	ProbeTrack	14.0	SCS215b	20111122.151632	20111122.153512	8	0.013328	60	10	60-180	60	133	GapExp	Blank	0	157	2	6	0	distractor	1	402	799	95492	13.328	12.822	13.833
ProbeTrack14	9	ProbeTrack	14.0	SCS215b	20111122.151632	20111122.153518	8	0.013328	60	10	60-180	60	139	GapExp	Blank	0	158	2	45	0	distractor	1	393	804	96296	13.328	12.858	13.811
ProbeTrack14	9	ProbeTrack	14.0	SCS215b	20111122.151632	20111122.153525	8	0.013328	60	10	60-180	60	151	GapExp	Blank	0	159	2	2	0	distractor	1	512	744	97040	13.328	12.859	13.782
ProbeTrack14	9	ProbeTrack	14.0	SCS215b	20111122.151632	20111122.153531	8	0.013328	60	10	60-180	60	177	GapExp	Blank	0	160	2	2	1	target	1	415	793	97833	13.328	12.828	13.826
ProbeTrack14	9	ProbeTrack	14.0	SCS215b	20111122.151632	20111122.153538	8	0.013328	60	10	60-180	60	99	GapExp	Blank	0	161	2	2	0	distractor	1	473	764	98597	13.328	12.951	13.716
ProbeTrack14	9	ProbeTrack	14.0	SCS215b	20111122.151632	20111122.153544	8	0.013328	60	10	60-180	60	117	GapExp	Blank	0	162	2	1	0	distractor	1	508	746	99343	13.328	12.831	13.820
ProbeTrack14	9	ProbeTrack	14.0	SCS215b	20111122.151632	20111122.153550	8	0.013328	60	10	60-180	60	159	GapExp	Blank	0	163	2	6	1	target	1	474	763	100106	13.375	13.068	26.353
ProbeTrack14	9	ProbeTrack	14.0	SCS215b	20111122.151632	20111122.153556	8	0.013328	60	10	60-180	60	174	GapExp	Blank	0	164	2	2	1	target	1	349	826	100932	13.328	12.898	13.746
ProbeTrack14	9	ProbeTrack	14.0	SCS215b	20111122.151632	20111122.153604	8	0.013328	60	10	60-180	60	111	GapExp	Blank	0	165	2	1	0	distractor	1	575	713	101645	13.328	12.928	13.724
ProbeTrack14	9	ProbeTrack	14.0	SCS215b	20111122.151632	20111122.153610	8	0.013328	60	10	60-180	60	180	GapExp	Blank	0	166	2	0	1	target	1	708	646	102291	13.327	12.839	13.823
ProbeTrack14	9	ProbeTrack	14.0	SCS215b	20111122.151632	20111122.153617	8	0.013328	60	10	60-180	60	159	GapExp	Blank	0	167	2	1	1	target	1	471	765	103056	13.328	12.858	13.794
ProbeTrack14	9	ProbeTrack	14.0	SCS215b	20111122.151632	20111122.153624	8	0.013328	60	10	60-180	60	64	GapExp	Blank	0	168	2	45	0	target	0	541	-1000	102056	13.328	12.870	13.784
ProbeTrack14	9	ProbeTrack	14.0	SCS215b	20111122.151632	20111122.153630	8	0.013328	60	10	60-180	60	160	GapExp	Blank	0	169	2	0	1	target	1	648	676	102732	13.328	12.841	13.823
ProbeTrack14	9	ProbeTrack	14.0	SCS215b	20111122.151632	20111122.153637	8	0.013328	60	10	60-180	60	74	GapExp	Blank	0	170	2	45	0	distractor	1	4018	0	102732	13.328	13.165	13.474
ProbeTrack14	9	ProbeTrack	14.0	SCS215b	20111122.151632	20111122.153647	8	0.013328	60	10	60-180	60	90	GapExp	Blank	0	171	2	0	0	target	0	667	-1000	101732	13.328	12.978	13.680
ProbeTrack14	9	ProbeTrack	14.0	SCS215b	20111122.151632	20111122.153656	8	0.013328	60	10	60-180	60	86	GapExp	Blank	0	172	2	45	0	distractor	1	573	714	102446	13.328	12.893	13.764
ProbeTrack14	9	ProbeTrack	14.0	SCS215b	20111122.151632	20111122.153702	8	0.013328	60	10	60-180	60	160	GapExp	Blank	0	173	2	6	0	distractor	1	1167	417	102863	13.328	12.966	13.687
ProbeTrack14	9	ProbeTrack	14.0	SCS215b	20111122.151632	20111122.153711	8	0.013328	60	10	60-180	60	98	GapExp	Blank	0	174	2	45	1	target	1	639	681	103544	13.328	12.881	13.783
ProbeTrack14	9	ProbeTrack	14.0	SCS215b	20111122.151632	20111122.153717	8	0.013328	60	10	60-180	60	115	GapExp	Blank	0	175	2	0	0	distractor	1	536	732	104276	13.328	12.894	13.757
ProbeTrack14	9	ProbeTrack	14.0	SCS215b	20111122.151632	20111122.153724	8	0.013328	60	10	60-180	60	166	GapExp	Blank	0	176	2	6	0	target	0	585	-1000	103276	13.328	12.894	13.770
ProbeTrack14	9	ProbeTrack	14.0	SCS215b	20111122.151632	20111122.153731	8	0.013328	60	10	60-180	60	179	GapExp	Blank	0	177	2	1	1	target	1	521	740	104016	13.328	12.847	13.807
ProbeTrack14	9	ProbeTrack	14.0	SCS215b	20111122.151632	20111122.153737	8	0.013328	60	10	60-180	60	114	GapExp	Blank	0	178	2	2	1	distractor	0	892	-1000	103016	13.328	12.843	13.815
ProbeTrack14	9	ProbeTrack	14.0	SCS215b	20111122.151632	20111122.153744	8	0.013328	60	10	60-180	60	86	GapExp	Blank	0	179	2	45	0	distractor	1	319	841	103857	13.328	12.860	13.795
ProbeTrack14	9	ProbeTrack	14.0	SCS215b	20111122.151632	20111122.153750	8	0.013328	60	10	60-180	60	96	GapExp	Blank	0	180	2	45	1	target	1	693	654	104511	13.328	12.885	13.772
ProbeTrack14	9	ProbeTrack	14.0	SCS215b	20111122.151632	20111122.153757	8	0.013328	60	10	60-180	60	85	GapExp	Blank	0	181	2	45	0	distractor	1	633	684	105195	13.328	12.979	13.679
ProbeTrack14	9	ProbeTrack	14.0	SCS215b	20111122.151632	20111122.153803	8	0.013328	60	10	60-180	60	142	GapExp	Blank	0	182	2	1	0	target	0	671	-1000	104195	13.328	12.850	13.803
ProbeTrack14	9	ProbeTrack	14.0	SCS215b	20111122.151632	20111122.153809	8	0.013328	60	10	60-180	60	84	GapExp	Blank	0	183	2	45	1	target	1	465	768	104963	13.328	12.847	13.812
ProbeTrack14	9	ProbeTrack	14.0	SCS215b	20111122.151632	20111122.153816	8	0.013328	60	10	60-180	60	149	GapExp	Blank	0	184	2	45	1	distractor	0	545	-1000	103963	13.328	12.838	13.837
ProbeTrack14	9	ProbeTrack	14.0	SCS215b	20111122.151632	20111122.153823	8	0.013328	60	10	60-180	60	169	GapExp	Blank	0	185	2	2	1	target	1	419	791	104754	13.328	12.913	13.743
ProbeTrack14	9	ProbeTrack	14.0	SCS215b	20111122.151632	20111122.153830	8	0.013328	60	10	60-180	60	147	GapExp	Blank	0	186	2	45	1	target	1	484	758	105512	13.328	12.844	13.804
ProbeTrack14	9	ProbeTrack	14.0	SCS215b	20111122.151632	20111122.153837	8	0.013328	60	10	60-180	60	61	GapExp	Blank	0	187	2	1	1	target	1	553	724	106236	13.328	13.100	13.562
ProbeTrack14	9	ProbeTrack	14.0	SCS215b	20111122.151632	20111122.153842	8	0.013328	60	10	60-180	60	167	GapExp	Blank	0	188	2	1	1	target	1	467	767	107003	13.328	12.997	13.669
ProbeTrack14	9	ProbeTrack	14.0	SCS215b	20111122.151632	20111122.153849	8	0.013328	60	10	60-180	60	115	GapExp	Blank	0	189	2	45	0	distractor	1	548	726	107729	13.328	12.831	13.811
ProbeTrack14	9	ProbeTrack	14.0	SCS215b	20111122.151632	20111122.153857	8	0.013328	60	10	60-180	60	71	GapExp	Blank	0	190	2	1	0	target	0	458	-1000	106729	13.535	12.832	53.206
ProbeTrack14	9	ProbeTrack	14.0	SCS215b	20111122.151632	20111122.153902	8	0.013328	60	10	60-180	60	156	GapExp	Blank	0	191	2	0	1	target	1	406	797	107526	13.328	12.966	13.680
ProbeTrack14	9	ProbeTrack	14.0	SCS215b	20111122.151632	20111122.153908	8	0.013328	60	10	60-180	60	136	GapExp	Blank	0	192	2	0	0	distractor	1	538	731	108257	13.328	12.923	13.729
ProbeTrack14	9	ProbeTrack	14.0	SCS215b	20111122.151632	20111122.153915	8	0.013328	60	10	60-180	60	121	GapExp	Blank	0	193	2	1	0	distractor	1	681	660	108917	13.328	12.921	13.723
ProbeTrack14	9	ProbeTrack	14.0	SCS215b	20111122.151632	20111122.153921	8	0.013328	60	10	60-180	60	107	GapExp	Blank	0	194	2	0	0	distractor	1	744	628	109545	13.327	12.902	13.741
ProbeTrack14	9	ProbeTrack	14.0	SCS215b	20111122.151632	20111122.153928	8	0.013328	60	10	60-180	60	104	GapExp	Blank	0	195	2	6	0	target	0	681	-1000	108545	13.328	12.900	13.750
ProbeTrack14	9	ProbeTrack	14.0	SCS215b	20111122.151632	20111122.153934	8	0.013328	60	10	60-180	60	139	GapExp	Blank	0	196	2	45	0	distractor	1	607	697	109242	13.328	12.836	13.813
ProbeTrack14	9	ProbeTrack	14.0	SCS215b	20111122.151632	20111122.153940	8	0.013328	60	10	60-180	60	62	GapExp	Blank	0	197	2	6	0	distractor	1	466	767	110009	13.328	12.900	13.767
ProbeTrack14	9	ProbeTrack	14.0	SCS215b	20111122.151632	20111122.153946	8	0.013328	60	10	60-180	60	152	GapExp	Blank	0	198	2	45	1	target	1	460	770	110779	13.328	12.832	13.821
ProbeTrack14	9	ProbeTrack	14.0	SCS215b	20111122.151632	20111122.153953	8	0.013328	60	10	60-180	60	65	GapExp	Blank	0	199	2	0	1	target	1	596	702	111481	13.328	12.864	13.794
ProbeTrack14	9	ProbeTrack	14.0	SCS215b	20111122.151632	20111122.153959	8	0.013328	60	10	60-180	60	83	GapExp	Blank	0	200	2	1	1	target	1	619	691	112172	13.328	13.169	13.473
ProbeTrack14	9	ProbeTrack	14.0	SCS215b	20111122.151632	20111122.154004	8	0.013328	60	10	60-180	60	92	GapExp	Blank	0	201	2	1	1	target	1	459	771	112943	13.328	12.858	13.813
ProbeTrack14	9	ProbeTrack	14.0	SCS215b	20111122.151632	20111122.154010	8	0.013328	60	10	60-180	60	177	GapExp	Blank	0	202	2	0	0	target	0	535	-1000	111943	13.328	12.935	13.731
ProbeTrack14	9	ProbeTrack	14.0	SCS215b	20111122.151632	20111122.154017	8	0.013328	60	10	60-180	60	131	GapExp	Blank	0	203	2	1	0	target	0	546	-1000	110943	13.329	12.832	13.808
ProbeTrack14	9	ProbeTrack	14.0	SCS215b	20111122.151632	20111122.154024	8	0.013328	60	10	60-180	60	158	GapExp	Blank	0	204	2	45	1	target	1	513	744	111687	13.328	13.014	13.643
ProbeTrack14	9	ProbeTrack	14.0	SCS215b	20111122.151632	20111122.154032	8	0.013328	60	10	60-180	60	146	GapExp	Blank	0	205	2	6	0	target	0	577	-1000	110687	13.328	12.870	13.789
ProbeTrack14	9	ProbeTrack	14.0	SCS215b	20111122.151632	20111122.154039	8	0.013328	60	10	60-180	60	147	GapExp	Blank	0	206	2	2	0	distractor	1	800	600	111287	13.328	12.933	13.715
ProbeTrack14	9	ProbeTrack	14.0	SCS215b	20111122.151632	20111122.154046	8	0.013328	60	10	60-180	60	119	GapExp	Blank	0	207	2	1	0	target	0	668	-1000	110287	13.328	12.865	13.787
ProbeTrack14	9	ProbeTrack	14.0	SCS215b	20111122.151632	20111122.154052	8	0.013328	60	10	60-180	60	157	GapExp	Blank	0	208	2	45	0	distractor	1	473	764	111051	13.328	12.986	13.672
ProbeTrack14	9	ProbeTrack	14.0	SCS215b	20111122.151632	20111122.154100	8	0.013328	60	10	60-180	60	76	GapExp	Blank	0	209	2	0	1	target	1	489	756	111807	13.328	13.132	13.529
ProbeTrack14	9	ProbeTrack	14.0	SCS215b	20111122.151632	20111122.154105	8	0.013328	60	10	60-180	60	68	GapExp	Blank	0	210	2	0	1	target	1	362	819	112626	13.328	12.891	13.772
ProbeTrack14	9	ProbeTrack	14.0	SCS215b	20111122.151632	20111122.154110	8	0.013328	60	10	60-180	60	127	GapExp	Blank	0	211	2	0	1	target	1	387	807	113433	13.328	12.934	13.720
ProbeTrack14	9	ProbeTrack	14.0	SCS215b	20111122.151632	20111122.154116	8	0.013328	60	10	60-180	60	165	GapExp	Blank	0	212	2	45	0	distractor	1	341	830	114263	13.328	12.862	13.789
ProbeTrack14	9	ProbeTrack	14.0	SCS215b	20111122.151632	20111122.154123	8	0.013328	60	10	60-180	60	174	GapExp	Blank	0	213	2	6	0	distractor	1	535	733	114996	13.328	12.949	13.708
ProbeTrack14	9	ProbeTrack	14.0	SCS215b	20111122.151632	20111122.154131	8	0.013328	60	10	60-180	60	149	GapExp	Blank	0	214	2	1	1	target	1	532	734	115730	13.330	12.863	13.787
ProbeTrack14	9	ProbeTrack	14.0	SCS215b	20111122.151632	20111122.154141	8	0.013328	60	10	60-180	60	156	GapExp	Blank	0	215	2	45	0	distractor	1	591	705	116435	13.328	13.093	13.561
ProbeTrack14	9	ProbeTrack	14.0	SCS215b	20111122.151632	20111122.154159	8	0.013328	60	10	60-180	60	145	GapExp	Blank	0	216	2	2	1	target	1	623	689	117124	13.328	12.854	13.793
ProbeTrack14	9	ProbeTrack	14.0	SCS215b	20111122.151632	20111122.154206	8	0.013328	60	10	60-180	60	157	GapExp	Blank	0	217	2	45	1	target	1	424	788	117912	13.328	12.844	13.799
ProbeTrack14	9	ProbeTrack	14.0	SCS215b	20111122.151632	20111122.154213	8	0.013328	60	10	60-180	60	169	GapExp	Blank	0	218	2	45	1	target	1	532	734	118646	13.328	12.845	13.813
ProbeTrack14	9	ProbeTrack	14.0	SCS215b	20111122.151632	20111122.154221	8	0.013328	60	10	60-180	60	97	GapExp	Blank	0	219	2	6	1	target	1	394	803	119449	13.328	12.842	13.808
ProbeTrack14	9	ProbeTrack	14.0	SCS215b	20111122.151632	20111122.154227	8	0.013328	60	10	60-180	60	74	GapExp	Blank	0	220	2	1	0	distractor	1	413	794	120243	13.328	13.094	13.547
ProbeTrack14	9	ProbeTrack	14.0	SCS215b	20111122.151632	20111122.154232	8	0.013328	60	10	60-180	60	127	GapExp	Blank	0	221	2	2	1	target	1	448	776	121019	13.328	12.885	13.760
ProbeTrack14	9	ProbeTrack	14.0	SCS215b	20111122.151632	20111122.154238	8	0.013328	60	10	60-180	60	70	GapExp	Blank	0	222	2	0	0	target	0	465	-1000	120019	13.328	12.871	13.796
ProbeTrack14	9	ProbeTrack	14.0	SCS215b	20111122.151632	20111122.154244	8	0.013328	60	10	60-180	60	143	GapExp	Blank	0	223	2	45	1	distractor	0	564	-1000	119019	13.328	12.840	13.813
ProbeTrack14	9	ProbeTrack	14.0	SCS215b	20111122.151632	20111122.154251	8	0.013328	60	10	60-180	60	75	GapExp	Blank	0	224	2	45	1	target	1	406	797	119816	13.328	12.843	13.813
ProbeTrack14	9	ProbeTrack	14.0	SCS215b	20111122.151632	20111122.154256	8	0.013328	60	10	60-180	60	89	GapExp	Blank	0	225	2	2	1	target	1	421	790	120606	13.328	12.847	13.796
ProbeTrack14	9	ProbeTrack	14.0	SCS215b	20111122.151632	20111122.154302	8	0.013328	60	10	60-180	60	148	GapExp	Blank	0	226	2	6	0	distractor	1	516	742	121348	13.328	12.886	13.773
ProbeTrack14	9	ProbeTrack	14.0	SCS215b	20111122.151632	20111122.154309	8	0.013328	60	10	60-180	60	71	GapExp	Blank	0	227	2	6	0	distractor	1	471	765	122113	13.328	12.938	13.710
ProbeTrack14	9	ProbeTrack	14.0	SCS215b	20111122.151632	20111122.154314	8	0.013328	60	10	60-180	60	160	GapExp	Blank	0	228	2	0	1	target	1	407	797	122910	13.328	12.976	13.679
ProbeTrack14	9	ProbeTrack	14.0	SCS215b	20111122.151632	20111122.154321	8	0.013328	60	10	60-180	60	107	GapExp	Blank	0	229	2	2	0	distractor	1	604	698	123608	13.328	12.874	13.786
ProbeTrack14	9	ProbeTrack	14.0	SCS215b	20111122.151632	20111122.154327	8	0.013328	60	10	60-180	60	92	GapExp	Blank	0	230	2	2	1	target	1	475	763	124371	13.328	12.964	13.686
ProbeTrack14	9	ProbeTrack	14.0	SCS215b	20111122.151632	20111122.154332	8	0.013328	60	10	60-180	60	180	GapExp	Blank	0	231	2	6	0	distractor	1	340	830	125201	13.328	12.858	13.803
ProbeTrack14	9	ProbeTrack	14.0	SCS215b	20111122.151632	20111122.154339	8	0.013328	60	10	60-180	60	164	GapExp	Blank	0	232	2	0	1	target	1	517	742	125943	13.328	12.863	13.806
ProbeTrack14	9	ProbeTrack	14.0	SCS215b	20111122.151632	20111122.154346	8	0.013328	60	10	60-180	60	141	GapExp	Blank	0	233	2	6	1	target	1	397	802	126745	13.328	13.015	13.643
ProbeTrack14	9	ProbeTrack	14.0	SCS215b	20111122.151632	20111122.154352	8	0.013328	60	10	60-180	60	176	GapExp	Blank	0	234	2	0	0	distractor	1	573	714	127459	13.328	13.063	13.595
ProbeTrack14	9	ProbeTrack	14.0	SCS215b	20111122.151632	20111122.154359	8	0.013328	60	10	60-180	60	114	GapExp	Blank	0	235	2	6	0	distractor	1	566	717	128176	13.328	12.885	13.764
ProbeTrack14	9	ProbeTrack	14.0	SCS215b	20111122.151632	20111122.154405	8	0.013328	60	10	60-180	60	132	GapExp	Blank	0	236	2	2	0	target	0	501	-1000	127176	13.327	13.093	13.511
ProbeTrack14	9	ProbeTrack	14.0	SCS215b	20111122.151632	20111122.154411	8	0.013328	60	10	60-180	60	156	GapExp	Blank	0	237	2	45	1	distractor	0	766	-1000	126176	13.328	12.840	13.828
ProbeTrack14	9	ProbeTrack	14.0	SCS215b	20111122.151632	20111122.154418	8	0.013328	60	10	60-180	60	132	GapExp	Blank	0	238	2	1	1	target	1	368	816	126992	13.328	12.853	13.796
ProbeTrack14	9	ProbeTrack	14.0	SCS215b	20111122.151632	20111122.154426	8	0.013328	60	10	60-180	60	173	GapExp	Blank	0	239	2	45	1	target	1	460	770	127762	13.328	12.882	13.779
ProbeTrack14	9	ProbeTrack	14.0	SCS215b	20111122.151632	20111122.154433	8	0.013328	60	10	60-180	60	130	GapExp	Blank	0	240	2	0	0	target	0	440	-1000	126762	13.328	12.880	13.779
ProbeTrack14	9	ProbeTrack	14.0	SCS215b	20111122.151632	20111122.154439	8	0.013328	60	10	60-180	60	72	GapExp	Blank	0	241	2	1	1	target	1	473	764	127526	13.328	12.913	13.759
ProbeTrack14	9	ProbeTrack	14.0	SCS215b	20111122.151632	20111122.154444	8	0.013328	60	10	60-180	60	74	GapExp	Blank	0	242	2	0	0	distractor	1	664	668	128194	13.392	12.913	26.652
ProbeTrack14	9	ProbeTrack	14.0	SCS215b	20111122.151632	20111122.154450	8	0.013328	60	10	60-180	60	88	GapExp	Blank	0	243	2	6	0	target	0	648	-1000	127194	13.328	12.864	13.782
ProbeTrack14	9	ProbeTrack	14.0	SCS215b	20111122.151632	20111122.154455	8	0.013328	60	10	60-180	60	148	GapExp	Blank	0	244	2	6	1	target	1	581	710	127904	13.328	12.877	13.776
ProbeTrack14	9	ProbeTrack	14.0	SCS215b	20111122.151632	20111122.154502	8	0.013328	60	10	60-180	60	95	GapExp	Blank	0	245	2	0	1	target	1	591	705	128609	13.328	12.909	13.750
ProbeTrack14	9	ProbeTrack	14.0	SCS215b	20111122.151632	20111122.154507	8	0.013328	60	10	60-180	60	154	GapExp	Blank	0	246	2	1	1	target	1	411	795	129404	13.573	12.882	66.718
ProbeTrack14	9	ProbeTrack	14.0	SCS215b	20111122.151632	20111122.154514	8	0.013328	60	10	60-180	60	100	GapExp	Blank	0	247	2	1	0	distractor	1	470	765	130169	13.329	13.041	13.614
ProbeTrack14	9	ProbeTrack	14.0	SCS215b	20111122.151632	20111122.154520	8	0.013328	60	10	60-180	60	115	GapExp	Blank	0	248	2	0	1	target	1	560	720	130889	13.328	13.005	13.641
ProbeTrack14	9	ProbeTrack	14.0	SCS215b	20111122.151632	20111122.154525	8	0.013328	60	10	60-180	60	168	GapExp	Blank	0	249	2	1	1	target	1	495	753	131642	13.328	12.872	13.772
ProbeTrack14	9	ProbeTrack	14.0	SCS215b	20111122.151632	20111122.154532	8	0.013328	60	10	60-180	60	73	GapExp	Blank	0	250	2	0	0	target	0	488	-1000	130642	13.328	12.894	13.760
