exp	sub	code	rev	comp	runtime	trialtime	nstim	refreshdur	cuedur	gapdur	gapOnsetRange	durPostProbe	gapOnsetTime	blocktype	gaptype	prac	trial	ntargets	soa	probeTarget	resp	acc	rt	pts	tpts	meanFrameDur	minFrameDur	maxFrameDur
ProbeTrack14	2	ProbeTrack	14.0	SCS215b	20111118.091136	20111118.091142	8	0.013328	60	0	60-180	60	79	NoGap	None	1	1	2	0	1	target	1	918	541	541	13.390	13.099	13.548
ProbeTrack14	2	ProbeTrack	14.0	SCS215b	20111118.091136	20111118.091610	8	0.013328	60	0	60-180	60	135	NoGap	None	1	2	2	0	0	distractor	1	4672	0	541	13.328	13.159	13.505
ProbeTrack14	2	ProbeTrack	14.0	SCS215b	20111118.091136	20111118.091628	8	0.013328	60	0	60-180	60	128	NoGap	None	1	3	2	2	0	distractor	1	879	561	1102	13.328	13.303	13.356
ProbeTrack14	2	ProbeTrack	14.0	SCS215b	20111118.091136	20111118.091648	8	0.013328	60	0	60-180	60	168	NoGap	None	1	4	2	6	0	distractor	1	516	742	1844	13.328	13.097	13.562
ProbeTrack14	2	ProbeTrack	14.0	SCS215b	20111118.091136	20111118.091658	8	0.013328	60	0	60-180	60	130	NoGap	None	1	5	2	1	0	distractor	1	480	760	2604	13.328	12.845	13.812
ProbeTrack14	2	ProbeTrack	14.0	SCS215b	20111118.091136	20111118.091707	8	0.013328	60	0	60-180	60	153	NoGap	None	1	6	2	2	1	distractor	0	544	-1000	1604	13.328	12.945	13.776
ProbeTrack14	2	ProbeTrack	14.0	SCS215b	20111118.091136	20111118.091715	8	0.013328	60	0	60-180	60	136	NoGap	None	1	7	2	6	1	distractor	0	545	-1000	604	13.328	13.127	13.546
ProbeTrack14	2	ProbeTrack	14.0	SCS215b	20111118.091136	20111118.091726	8	0.013328	60	0	60-180	60	166	NoGap	None	1	8	2	45	1	distractor	0	441	-1000	-396	13.328	12.911	13.750
ProbeTrack14	2	ProbeTrack	14.0	SCS215b	20111118.091136	20111118.091743	8	0.013328	60	0	60-180	60	152	NoGap	None	1	9	2	45	1	distractor	0	700	-1000	-1396	13.328	12.848	13.794
ProbeTrack14	2	ProbeTrack	14.0	SCS215b	20111118.091136	20111118.091758	8	0.013328	60	0	60-180	60	146	NoGap	None	1	10	2	45	1	distractor	0	848	-1000	-2396	13.328	13.151	13.509
ProbeTrack14	2	ProbeTrack	14.0	SCS215b	20111118.091136	20111118.091808	8	0.013328	60	0	60-180	60	152	NoGap	None	1	11	2	45	0	target	0	524	-1000	-3396	13.328	12.933	13.642
ProbeTrack14	2	ProbeTrack	14.0	SCS215b	20111118.091136	20111118.091832	8	0.013328	60	0	60-180	60	145	NoGap	None	1	12	2	2	1	distractor	0	604	-1000	-4396	13.328	13.094	13.567
ProbeTrack14	2	ProbeTrack	14.0	SCS215b	20111118.091136	20111118.091840	8	0.013328	60	0	60-180	60	82	NoGap	None	1	13	2	1	1	target	1	426	787	-3609	13.328	13.263	13.380
ProbeTrack14	2	ProbeTrack	14.0	SCS215b	20111118.091136	20111118.091849	8	0.013328	60	0	60-180	60	136	NoGap	None	1	14	2	45	0	distractor	1	732	634	-2975	13.328	12.855	13.800
ProbeTrack14	2	ProbeTrack	14.0	SCS215b	20111118.091136	20111118.091859	8	0.013328	60	0	60-180	60	151	NoGap	None	1	15	2	1	0	target	0	345	-1000	-3975	13.328	13.103	13.559
ProbeTrack14	2	ProbeTrack	14.0	SCS215b	20111118.091136	20111118.091915	8	0.013328	60	0	60-180	60	90	NoGap	None	1	16	2	1	0	target	0	510	-1000	-4975	13.328	12.911	13.742
ProbeTrack14	2	ProbeTrack	14.0	SCS215b	20111118.091136	20111118.091922	8	0.013328	60	0	60-180	60	168	NoGap	None	1	17	2	1	1	distractor	0	285	-1000	-5975	13.328	12.884	13.815
ProbeTrack14	2	ProbeTrack	14.0	SCS215b	20111118.091136	20111118.091929	8	0.013328	60	0	60-180	60	111	NoGap	None	1	18	2	2	1	distractor	0	351	-1000	-6975	13.328	12.855	13.809
ProbeTrack14	2	ProbeTrack	14.0	SCS215b	20111118.091136	20111118.091948	8	0.013328	60	0	60-180	60	158	NoGap	None	1	19	2	2	0	distractor	1	510	745	-6230	13.328	13.081	13.553
ProbeTrack14	2	ProbeTrack	14.0	SCS215b	20111118.091136	20111118.092010	8	0.013328	60	0	60-180	60	163	NoGap	None	1	20	2	2	1	distractor	0	638	-1000	-7230	13.328	12.875	13.798
ProbeTrack14	2	ProbeTrack	14.0	SCS215b	20111118.091136	20111118.092024	8	0.013328	60	0	60-180	60	94	NoGap	None	1	21	2	6	1	target	1	854	573	-6657	13.328	13.306	13.350
ProbeTrack14	2	ProbeTrack	14.0	SCS215b	20111118.091136	20111118.092031	8	0.013328	60	0	60-180	60	157	NoGap	None	1	22	2	1	1	target	1	507	747	-5910	13.328	12.895	13.771
ProbeTrack14	2	ProbeTrack	14.0	SCS215b	20111118.091136	20111118.092037	8	0.013328	60	0	60-180	60	94	NoGap	None	1	23	2	45	1	target	1	420	790	-5120	13.328	12.876	13.818
ProbeTrack14	2	ProbeTrack	14.0	SCS215b	20111118.091136	20111118.092044	8	0.013328	60	0	60-180	60	110	NoGap	None	1	24	2	1	0	distractor	1	544	728	-4392	13.328	12.916	13.803
ProbeTrack14	2	ProbeTrack	14.0	SCS215b	20111118.091136	20111118.092051	8	0.013328	60	0	60-180	60	104	NoGap	None	1	25	2	45	0	distractor	1	557	722	-3670	13.328	13.038	13.624
ProbeTrack14	2	ProbeTrack	14.0	SCS215b	20111118.091136	20111118.092058	8	0.013328	60	0	60-180	60	170	NoGap	None	1	26	2	0	1	distractor	0	446	-1000	-4670	13.328	12.894	13.759
ProbeTrack14	2	ProbeTrack	14.0	SCS215b	20111118.091136	20111118.092106	8	0.013328	60	0	60-180	60	121	NoGap	None	1	27	2	0	0	distractor	1	717	642	-4028	13.328	12.995	13.658
ProbeTrack14	2	ProbeTrack	14.0	SCS215b	20111118.091136	20111118.092112	8	0.013328	60	0	60-180	60	126	NoGap	None	1	28	2	2	0	distractor	1	605	698	-3330	13.328	12.877	13.805
ProbeTrack14	2	ProbeTrack	14.0	SCS215b	20111118.091136	20111118.092120	8	0.013328	60	0	60-180	60	172	NoGap	None	1	29	2	6	1	target	1	525	738	-2592	13.328	12.893	13.727
ProbeTrack14	2	ProbeTrack	14.0	SCS215b	20111118.091136	20111118.092137	8	0.013328	60	0	60-180	60	91	NoGap	None	1	30	2	45	0	distractor	1	504	748	-1844	13.328	13.063	13.641
ProbeTrack14	2	ProbeTrack	14.0	SCS215b	20111118.091136	20111118.092144	8	0.013328	60	0	60-180	60	137	NoGap	None	1	31	2	6	0	distractor	1	398	801	-1043	13.328	13.273	13.422
ProbeTrack14	2	ProbeTrack	14.0	SCS215b	20111118.091136	20111118.092151	8	0.013328	60	0	60-180	60	152	NoGap	None	1	32	2	6	0	distractor	1	483	759	-284	13.328	13.133	13.533
ProbeTrack14	2	ProbeTrack	14.0	SCS215b	20111118.091136	20111118.092157	8	0.013328	60	0	60-180	60	146	NoGap	None	1	33	2	0	1	target	1	418	791	507	13.328	12.914	13.736
ProbeTrack14	2	ProbeTrack	14.0	SCS215b	20111118.091136	20111118.092204	8	0.013328	60	0	60-180	60	95	NoGap	None	1	34	2	2	0	distractor	1	372	814	1321	13.329	12.826	13.826
ProbeTrack14	2	ProbeTrack	14.0	SCS215b	20111118.091136	20111118.092210	8	0.013328	60	0	60-180	60	110	NoGap	None	1	35	2	1	1	target	1	438	781	2102	13.328	13.140	13.642
ProbeTrack14	2	ProbeTrack	14.0	SCS215b	20111118.091136	20111118.092216	8	0.013328	60	0	60-180	60	140	NoGap	None	1	36	2	0	1	distractor	0	239	-1000	1102	13.328	13.103	13.708
ProbeTrack14	2	ProbeTrack	14.0	SCS215b	20111118.091136	20111118.092222	8	0.013328	60	0	60-180	60	139	NoGap	None	1	37	2	6	0	distractor	1	523	739	1841	13.328	12.870	13.792
ProbeTrack14	2	ProbeTrack	14.0	SCS215b	20111118.091136	20111118.092229	8	0.013328	60	0	60-180	60	126	NoGap	None	1	38	2	0	0	distractor	1	645	678	2519	13.328	13.144	13.521
ProbeTrack14	2	ProbeTrack	14.0	SCS215b	20111118.091136	20111118.092247	8	0.013328	60	0	60-180	60	71	NoGap	None	1	39	2	0	0	distractor	1	448	776	3295	13.328	12.907	13.749
ProbeTrack14	2	ProbeTrack	14.0	SCS215b	20111118.091136	20111118.092252	8	0.013328	60	0	60-180	60	144	NoGap	None	1	40	2	6	1	target	1	346	827	4122	13.328	13.093	13.555
ProbeTrack14	2	ProbeTrack	14.0	SCS215b	20111118.092437	20111118.092449	8	0.013328	60	10	60-180	60	112	GapPrac	Blank	1	1	2	6	1	distractor	0	676	-1000	3122	13.380	12.901	13.831
ProbeTrack14	2	ProbeTrack	14.0	SCS215b	20111118.092437	20111118.092500	8	0.013328	60	10	60-180	60	104	GapPrac	Blank	1	2	2	1	0	distractor	1	612	694	3816	13.362	8.840	21.436
ProbeTrack14	2	ProbeTrack	14.0	SCS215b	20111118.092437	20111118.092508	8	0.013328	60	10	60-180	60	166	GapPrac	Blank	1	3	2	0	1	target	1	581	710	4526	13.328	11.263	15.391
ProbeTrack14	2	ProbeTrack	14.0	SCS215b	20111118.092437	20111118.092515	8	0.013328	60	10	60-180	60	111	GapPrac	Blank	1	4	2	0	0	distractor	1	341	830	5356	13.328	13.092	13.559
ProbeTrack14	2	ProbeTrack	14.0	SCS215b	20111118.092437	20111118.092524	8	0.013328	60	10	60-180	60	86	GapPrac	Blank	1	5	2	45	0	distractor	1	344	828	6184	13.328	12.902	13.753
ProbeTrack14	2	ProbeTrack	14.0	SCS215b	20111118.092437	20111118.092531	8	0.013328	60	10	60-180	60	94	GapPrac	Blank	1	6	2	2	1	target	1	471	765	6949	13.329	8.974	17.706
ProbeTrack14	2	ProbeTrack	14.0	SCS215b	20111118.092437	20111118.092538	8	0.013328	60	10	60-180	60	144	GapPrac	Blank	1	7	2	6	0	target	0	462	-1000	5949	13.328	6.743	19.919
ProbeTrack14	2	ProbeTrack	14.0	SCS215b	20111118.092437	20111118.092548	8	0.013328	60	10	60-180	60	121	GapPrac	Blank	1	8	2	2	0	target	0	605	-1000	4949	13.328	13.092	13.556
ProbeTrack14	2	ProbeTrack	14.0	SCS215b	20111118.092437	20111118.092555	8	0.013328	60	10	60-180	60	87	GapPrac	Blank	1	9	2	6	1	target	1	518	741	5690	13.328	13.116	13.554
ProbeTrack14	2	ProbeTrack	14.0	SCS215b	20111118.092437	20111118.092604	8	0.013328	60	10	60-180	60	80	GapPrac	Blank	1	10	2	6	0	distractor	1	505	748	6438	13.328	13.082	13.562
ProbeTrack14	2	ProbeTrack	14.0	SCS215b	20111118.092437	20111118.092610	8	0.013328	60	10	60-180	60	168	GapPrac	Blank	1	11	2	0	0	distractor	1	520	740	7178	13.328	13.176	13.496
ProbeTrack14	2	ProbeTrack	14.0	SCS215b	20111118.092437	20111118.092616	8	0.013328	60	10	60-180	60	82	GapPrac	Blank	1	12	2	45	1	target	1	734	633	7811	13.328	7.764	18.908
ProbeTrack14	2	ProbeTrack	14.0	SCS215b	20111118.092437	20111118.092623	8	0.013328	60	10	60-180	60	119	GapPrac	Blank	1	13	2	45	0	distractor	1	539	731	8542	13.328	13.183	13.467
ProbeTrack14	2	ProbeTrack	14.0	SCS215b	20111118.092437	20111118.092630	8	0.013328	60	10	60-180	60	98	GapPrac	Blank	1	14	2	1	1	target	1	346	827	9369	13.328	13.102	13.540
ProbeTrack14	2	ProbeTrack	14.0	SCS215b	20111118.092437	20111118.092636	8	0.013328	60	10	60-180	60	105	GapPrac	Blank	1	15	2	45	1	target	1	436	782	10151	13.328	7.233	19.420
ProbeTrack14	2	ProbeTrack	14.0	SCS215b	20111118.092437	20111118.092643	8	0.013328	60	10	60-180	60	153	GapPrac	Blank	1	16	2	1	0	distractor	1	835	583	10734	13.328	13.060	13.599
ProbeTrack14	2	ProbeTrack	14.0	SCS215b	20111118.092437	20111118.092650	8	0.013328	60	10	60-180	60	169	GapPrac	Blank	1	17	2	2	1	target	1	260	870	11604	13.328	5.915	20.752
ProbeTrack14	2	ProbeTrack	14.0	SCS215b	20111118.092437	20111118.092656	8	0.013328	60	10	60-180	60	73	GapPrac	Blank	1	18	2	0	1	target	1	783	609	12213	13.328	8.463	18.199
ProbeTrack14	2	ProbeTrack	14.0	SCS215b	20111118.092437	20111118.092702	8	0.013328	60	10	60-180	60	170	GapPrac	Blank	1	19	2	1	1	target	1	493	754	12967	13.328	4.352	22.305
ProbeTrack14	2	ProbeTrack	14.0	SCS215b	20111118.092437	20111118.092710	8	0.013328	60	10	60-180	60	63	GapPrac	Blank	1	20	2	2	0	distractor	1	546	727	13694	13.328	11.463	15.177
ProbeTrack14	2	ProbeTrack	14.0	SCS215b	20111118.092743	20111118.092755	8	0.013328	60	10	60-180	60	64	GapExp	Blank	1	1	2	45	1	distractor	0	446	-1000	12694	13.386	13.098	13.534
ProbeTrack14	2	ProbeTrack	14.0	SCS215b	20111118.092743	20111118.092803	8	0.013328	60	10	60-180	60	139	GapExp	Blank	1	2	2	2	0	target	0	412	-1000	11694	13.328	12.900	13.757
ProbeTrack14	2	ProbeTrack	14.0	SCS215b	20111118.092743	20111118.092809	8	0.013328	60	10	60-180	60	178	GapExp	Blank	1	3	2	1	0	distractor	1	450	775	12469	13.328	12.962	13.694
ProbeTrack14	2	ProbeTrack	14.0	SCS215b	20111118.092743	20111118.092816	8	0.013328	60	10	60-180	60	170	GapExp	Blank	1	4	2	6	0	distractor	1	463	769	13238	13.328	12.876	13.783
ProbeTrack14	2	ProbeTrack	14.0	SCS215b	20111118.092743	20111118.092822	8	0.013328	60	10	60-180	60	162	GapExp	Blank	1	5	2	2	1	target	1	421	790	14028	13.328	12.906	13.807
ProbeTrack14	2	ProbeTrack	14.0	SCS215b	20111118.092743	20111118.092829	8	0.013328	60	10	60-180	60	71	GapExp	Blank	1	6	2	0	1	target	1	334	833	14861	13.328	12.999	13.663
ProbeTrack14	2	ProbeTrack	14.0	SCS215b	20111118.092743	20111118.092835	8	0.013328	60	10	60-180	60	129	GapExp	Blank	1	7	2	45	0	distractor	1	517	742	15603	13.328	13.302	13.359
ProbeTrack14	2	ProbeTrack	14.0	SCS215b	20111118.092743	20111118.092843	8	0.013328	60	10	60-180	60	142	GapExp	Blank	1	8	2	6	1	target	1	371	815	16418	13.328	12.879	13.790
ProbeTrack14	2	ProbeTrack	14.0	SCS215b	20111118.092743	20111118.092849	8	0.013328	60	10	60-180	60	140	GapExp	Blank	1	9	2	1	1	target	1	292	854	17272	13.328	13.264	13.404
ProbeTrack14	2	ProbeTrack	14.0	SCS215b	20111118.092743	20111118.092856	8	0.013328	60	10	60-180	60	119	GapExp	Blank	1	10	2	0	0	distractor	1	564	718	17990	13.328	12.833	13.822
ProbeTrack14	2	ProbeTrack	14.0	SCS215b	20111118.092743	20111118.092902	8	0.013328	60	10	60-180	60	168	GapExp	Blank	0	11	2	45	1	target	1	228	886	18876	13.328	12.900	13.745
ProbeTrack14	2	ProbeTrack	14.0	SCS215b	20111118.092743	20111118.092909	8	0.013328	60	10	60-180	60	137	GapExp	Blank	0	12	2	6	0	distractor	1	359	821	19697	13.328	12.962	13.696
ProbeTrack14	2	ProbeTrack	14.0	SCS215b	20111118.092743	20111118.092916	8	0.013328	60	10	60-180	60	96	GapExp	Blank	0	13	2	6	0	target	0	456	-1000	18697	13.328	12.940	13.718
ProbeTrack14	2	ProbeTrack	14.0	SCS215b	20111118.092743	20111118.092922	8	0.013328	60	10	60-180	60	172	GapExp	Blank	0	14	2	6	0	distractor	1	481	760	19457	13.328	12.838	13.826
ProbeTrack14	2	ProbeTrack	14.0	SCS215b	20111118.092743	20111118.092928	8	0.013328	60	10	60-180	60	135	GapExp	Blank	0	15	2	1	0	target	0	855	-1000	18457	13.328	12.922	13.726
ProbeTrack14	2	ProbeTrack	14.0	SCS215b	20111118.092743	20111118.092935	8	0.013328	60	10	60-180	60	119	GapExp	Blank	0	16	2	45	1	target	1	430	785	19242	13.328	12.975	13.699
ProbeTrack14	2	ProbeTrack	14.0	SCS215b	20111118.092743	20111118.092942	8	0.013328	60	10	60-180	60	177	GapExp	Blank	0	17	2	6	1	target	1	571	715	19957	13.328	13.014	13.652
ProbeTrack14	2	ProbeTrack	14.0	SCS215b	20111118.092743	20111118.092949	8	0.013328	60	10	60-180	60	86	GapExp	Blank	0	18	2	2	1	target	1	466	767	20724	13.328	12.876	13.784
ProbeTrack14	2	ProbeTrack	14.0	SCS215b	20111118.092743	20111118.092955	8	0.013328	60	10	60-180	60	128	GapExp	Blank	0	19	2	0	0	distractor	1	209	896	21620	13.328	12.978	13.764
ProbeTrack14	2	ProbeTrack	14.0	SCS215b	20111118.092743	20111118.093001	8	0.013328	60	10	60-180	60	96	GapExp	Blank	0	20	2	6	0	target	0	167	-1000	20620	13.328	13.067	13.574
ProbeTrack14	2	ProbeTrack	14.0	SCS215b	20111118.092743	20111118.093007	8	0.013328	60	10	60-180	60	149	GapExp	Blank	0	21	2	45	0	distractor	1	233	884	21504	13.328	12.859	13.795
ProbeTrack14	2	ProbeTrack	14.0	SCS215b	20111118.092743	20111118.093015	8	0.013328	60	10	60-180	60	164	GapExp	Blank	0	22	2	2	1	target	1	191	905	22409	13.328	12.897	13.773
ProbeTrack14	2	ProbeTrack	14.0	SCS215b	20111118.092743	20111118.093021	8	0.013328	60	10	60-180	60	86	GapExp	Blank	0	23	2	2	0	distractor	1	413	794	23203	13.328	12.987	13.667
ProbeTrack14	2	ProbeTrack	14.0	SCS215b	20111118.092743	20111118.093030	8	0.013328	60	10	60-180	60	70	GapExp	Blank	0	24	2	45	1	target	1	313	844	24047	13.328	13.081	13.571
ProbeTrack14	2	ProbeTrack	14.0	SCS215b	20111118.092743	20111118.093036	8	0.013328	60	10	60-180	60	80	GapExp	Blank	0	25	2	2	0	distractor	1	565	718	24765	13.328	13.303	13.355
ProbeTrack14	2	ProbeTrack	14.0	SCS215b	20111118.092743	20111118.093041	8	0.013328	60	10	60-180	60	159	GapExp	Blank	0	26	2	6	0	early	-4	-3571	-1000	23765	13.328	13.142	13.517
ProbeTrack14	2	ProbeTrack	14.0	SCS215b	20111118.092743	20111118.093048	8	0.013328	60	10	60-180	60	151	GapExp	Blank	0	27	2	45	0	target	0	232	-1000	22765	13.328	13.302	13.354
ProbeTrack14	2	ProbeTrack	14.0	SCS215b	20111118.092743	20111118.093059	8	0.013328	60	10	60-180	60	90	GapExp	Blank	0	28	2	0	1	early	-4	-2704	-1000	21765	13.328	12.826	13.825
ProbeTrack14	2	ProbeTrack	14.0	SCS215b	20111118.092743	20111118.093104	8	0.013328	60	10	60-180	60	106	GapExp	Blank	0	29	2	2	1	target	1	346	827	22592	13.328	13.103	13.545
ProbeTrack14	2	ProbeTrack	14.0	SCS215b	20111118.092743	20111118.093123	8	0.013328	60	10	60-180	60	121	GapExp	Blank	0	30	2	2	1	target	1	335	833	23425	13.328	13.304	13.354
ProbeTrack14	2	ProbeTrack	14.0	SCS215b	20111118.092743	20111118.093129	8	0.013328	60	10	60-180	60	91	GapExp	Blank	0	31	2	45	1	target	1	210	895	24320	13.328	13.056	13.586
ProbeTrack14	2	ProbeTrack	14.0	SCS215b	20111118.092743	20111118.093135	8	0.013328	60	10	60-180	60	151	GapExp	Blank	0	32	2	0	1	distractor	0	229	-1000	23320	13.328	12.899	13.748
ProbeTrack14	2	ProbeTrack	14.0	SCS215b	20111118.092743	20111118.093142	8	0.013328	60	10	60-180	60	66	GapExp	Blank	0	33	2	6	0	distractor	1	460	770	24090	13.328	13.106	13.559
ProbeTrack14	2	ProbeTrack	14.0	SCS215b	20111118.092743	20111118.093147	8	0.013328	60	10	60-180	60	74	GapExp	Blank	0	34	2	6	0	target	0	575	-1000	23090	13.328	12.898	13.749
ProbeTrack14	2	ProbeTrack	14.0	SCS215b	20111118.092743	20111118.093153	8	0.013328	60	10	60-180	60	118	GapExp	Blank	0	35	2	2	0	distractor	1	380	810	23900	13.328	12.851	13.817
ProbeTrack14	2	ProbeTrack	14.0	SCS215b	20111118.092743	20111118.093159	8	0.013328	60	10	60-180	60	151	GapExp	Blank	0	36	2	45	1	target	1	294	853	24753	13.328	12.873	13.808
ProbeTrack14	2	ProbeTrack	14.0	SCS215b	20111118.092743	20111118.093206	8	0.013328	60	10	60-180	60	96	GapExp	Blank	0	37	2	45	1	target	1	479	761	25514	13.328	12.941	13.711
ProbeTrack14	2	ProbeTrack	14.0	SCS215b	20111118.092743	20111118.093212	8	0.013328	60	10	60-180	60	149	GapExp	Blank	0	38	2	6	1	target	1	397	802	26316	13.328	13.084	13.562
ProbeTrack14	2	ProbeTrack	14.0	SCS215b	20111118.092743	20111118.093219	8	0.013328	60	10	60-180	60	114	GapExp	Blank	0	39	2	0	0	early	-4	-2803	-1000	25316	13.328	13.307	13.351
ProbeTrack14	2	ProbeTrack	14.0	SCS215b	20111118.092743	20111118.093225	8	0.013328	60	10	60-180	60	87	GapExp	Blank	0	40	2	6	1	target	1	291	855	26171	13.328	13.304	13.349
ProbeTrack14	2	ProbeTrack	14.0	SCS215b	20111118.092743	20111118.093230	8	0.013328	60	10	60-180	60	113	GapExp	Blank	0	41	2	6	1	target	1	375	813	26984	13.328	12.972	13.665
ProbeTrack14	2	ProbeTrack	14.0	SCS215b	20111118.092743	20111118.093236	8	0.013328	60	10	60-180	60	80	GapExp	Blank	0	42	2	45	0	early	-4	-3318	-1000	25984	13.328	12.867	13.772
ProbeTrack14	2	ProbeTrack	14.0	SCS215b	20111118.092743	20111118.093242	8	0.013328	60	10	60-180	60	63	GapExp	Blank	0	43	2	6	1	early	-4	-2274	-1000	24984	13.328	12.822	13.820
ProbeTrack14	2	ProbeTrack	14.0	SCS215b	20111118.092743	20111118.093247	8	0.013328	60	10	60-180	60	129	GapExp	Blank	0	44	2	6	0	early	-4	-3172	-1000	23984	13.328	12.943	13.700
ProbeTrack14	2	ProbeTrack	14.0	SCS215b	20111118.092743	20111118.093252	8	0.013328	60	10	60-180	60	168	GapExp	Blank	0	45	2	1	1	distractor	0	371	-1000	22984	13.328	12.832	13.815
ProbeTrack14	2	ProbeTrack	14.0	SCS215b	20111118.092743	20111118.093300	8	0.013328	60	10	60-180	60	80	GapExp	Blank	0	46	2	6	0	target	0	534	-1000	21984	13.328	13.116	13.561
ProbeTrack14	2	ProbeTrack	14.0	SCS215b	20111118.092743	20111118.093306	8	0.013328	60	10	60-180	60	128	GapExp	Blank	0	47	2	45	1	distractor	0	252	-1000	20984	13.328	13.106	13.556
ProbeTrack14	2	ProbeTrack	14.0	SCS215b	20111118.092743	20111118.093314	8	0.013328	60	10	60-180	60	116	GapExp	Blank	0	48	2	45	0	distractor	1	359	821	21805	13.328	12.839	13.826
ProbeTrack14	2	ProbeTrack	14.0	SCS215b	20111118.092743	20111118.093320	8	0.013328	60	10	60-180	60	85	GapExp	Blank	0	49	2	0	0	distractor	1	530	735	22540	13.328	13.163	13.481
ProbeTrack14	2	ProbeTrack	14.0	SCS215b	20111118.092743	20111118.093326	8	0.013328	60	10	60-180	60	138	GapExp	Blank	0	50	2	0	1	target	1	511	745	23285	13.328	13.305	13.369
ProbeTrack14	2	ProbeTrack	14.0	SCS215b	20111118.092743	20111118.093336	8	0.013328	60	10	60-180	60	75	GapExp	Blank	0	51	2	0	1	target	1	293	854	24139	13.328	13.307	13.352
ProbeTrack14	2	ProbeTrack	14.0	SCS215b	20111118.092743	20111118.093342	8	0.013328	60	10	60-180	60	163	GapExp	Blank	0	52	2	1	1	distractor	0	274	-1000	23139	13.328	12.871	13.786
ProbeTrack14	2	ProbeTrack	14.0	SCS215b	20111118.092743	20111118.093348	8	0.013328	60	10	60-180	60	107	GapExp	Blank	0	53	2	6	0	target	0	603	-1000	22139	13.328	12.907	13.761
ProbeTrack14	2	ProbeTrack	14.0	SCS215b	20111118.092743	20111118.093354	8	0.013328	60	10	60-180	60	128	GapExp	Blank	0	54	2	0	0	target	0	526	-1000	21139	13.328	13.304	13.360
ProbeTrack14	2	ProbeTrack	14.0	SCS215b	20111118.092743	20111118.093401	8	0.013328	60	10	60-180	60	94	GapExp	Blank	0	55	2	0	0	distractor	1	466	767	21906	13.328	12.847	13.766
ProbeTrack14	2	ProbeTrack	14.0	SCS215b	20111118.092743	20111118.093407	8	0.013328	60	10	60-180	60	113	GapExp	Blank	0	56	2	1	0	distractor	1	378	811	22717	13.328	12.857	13.810
ProbeTrack14	2	ProbeTrack	14.0	SCS215b	20111118.092743	20111118.093413	8	0.013328	60	10	60-180	60	101	GapExp	Blank	0	57	2	2	0	target	0	286	-1000	21717	13.328	12.857	13.784
ProbeTrack14	2	ProbeTrack	14.0	SCS215b	20111118.092743	20111118.093418	8	0.013328	60	10	60-180	60	119	GapExp	Blank	0	58	2	45	1	target	1	577	712	22429	13.328	13.286	13.360
ProbeTrack14	2	ProbeTrack	14.0	SCS215b	20111118.092743	20111118.093425	8	0.013328	60	10	60-180	60	96	GapExp	Blank	0	59	2	2	0	distractor	1	563	719	23148	13.328	12.916	13.759
ProbeTrack14	2	ProbeTrack	14.0	SCS215b	20111118.092743	20111118.093431	8	0.013328	60	10	60-180	60	93	GapExp	Blank	0	60	2	2	1	target	1	460	770	23918	13.390	13.130	26.804
ProbeTrack14	2	ProbeTrack	14.0	SCS215b	20111118.092743	20111118.093437	8	0.013328	60	10	60-180	60	144	GapExp	Blank	0	61	2	0	0	target	0	487	-1000	22918	13.328	13.075	13.583
ProbeTrack14	2	ProbeTrack	14.0	SCS215b	20111118.092743	20111118.093444	8	0.013328	60	10	60-180	60	133	GapExp	Blank	0	62	2	6	1	target	1	361	820	23738	13.328	12.991	13.685
ProbeTrack14	2	ProbeTrack	14.0	SCS215b	20111118.092743	20111118.093450	8	0.013328	60	10	60-180	60	130	GapExp	Blank	0	63	2	0	0	distractor	1	742	629	24367	13.328	12.946	13.730
ProbeTrack14	2	ProbeTrack	14.0	SCS215b	20111118.092743	20111118.093456	8	0.013328	60	10	60-180	60	96	GapExp	Blank	0	64	2	45	0	distractor	1	496	752	25119	13.328	12.924	13.725
ProbeTrack14	2	ProbeTrack	14.0	SCS215b	20111118.092743	20111118.093502	8	0.013328	60	10	60-180	60	161	GapExp	Blank	0	65	2	0	0	distractor	1	402	799	25918	13.328	12.878	13.780
ProbeTrack14	2	ProbeTrack	14.0	SCS215b	20111118.092743	20111118.093509	8	0.013328	60	10	60-180	60	102	GapExp	Blank	0	66	2	6	1	target	1	442	779	26697	13.328	12.860	13.794
ProbeTrack14	2	ProbeTrack	14.0	SCS215b	20111118.092743	20111118.093515	8	0.013328	60	10	60-180	60	77	GapExp	Blank	0	67	2	0	1	target	1	465	768	27465	13.328	12.878	13.779
ProbeTrack14	2	ProbeTrack	14.0	SCS215b	20111118.092743	20111118.093520	8	0.013328	60	10	60-180	60	90	GapExp	Blank	0	68	2	2	0	early	-4	-2536	-1000	26465	13.328	12.890	13.759
ProbeTrack14	2	ProbeTrack	14.0	SCS215b	20111118.092743	20111118.093525	8	0.013328	60	10	60-180	60	95	GapExp	Blank	0	69	2	6	0	distractor	1	459	771	27236	13.328	13.094	13.555
ProbeTrack14	2	ProbeTrack	14.0	SCS215b	20111118.092743	20111118.093532	8	0.013328	60	10	60-180	60	143	GapExp	Blank	0	70	2	2	1	target	1	348	826	28062	13.328	12.837	13.807
ProbeTrack14	2	ProbeTrack	14.0	SCS215b	20111118.092743	20111118.093539	8	0.013328	60	10	60-180	60	136	GapExp	Blank	0	71	2	45	1	distractor	0	662	-1000	27062	13.328	13.100	13.559
ProbeTrack14	2	ProbeTrack	14.0	SCS215b	20111118.092743	20111118.093546	8	0.013328	60	10	60-180	60	135	GapExp	Blank	0	72	2	45	1	target	1	379	811	27873	13.328	13.145	13.503
ProbeTrack14	2	ProbeTrack	14.0	SCS215b	20111118.092743	20111118.093553	8	0.013328	60	10	60-180	60	168	GapExp	Blank	0	73	2	1	1	target	1	1006	497	28370	13.328	12.838	13.790
ProbeTrack14	2	ProbeTrack	14.0	SCS215b	20111118.092743	20111118.093600	8	0.013328	60	10	60-180	60	130	GapExp	Blank	0	74	2	1	0	distractor	1	506	747	29117	13.328	13.298	13.351
ProbeTrack14	2	ProbeTrack	14.0	SCS215b	20111118.092743	20111118.093607	8	0.013328	60	10	60-180	60	67	GapExp	Blank	0	75	2	45	1	target	1	502	749	29866	13.328	13.055	13.597
ProbeTrack14	2	ProbeTrack	14.0	SCS215b	20111118.092743	20111118.093613	8	0.013328	60	10	60-180	60	163	GapExp	Blank	0	76	2	2	0	target	0	328	-1000	28866	13.328	13.113	13.544
ProbeTrack14	2	ProbeTrack	14.0	SCS215b	20111118.092743	20111118.093620	8	0.013328	60	10	60-180	60	122	GapExp	Blank	0	77	2	2	0	distractor	1	390	805	29671	13.328	13.107	13.551
ProbeTrack14	2	ProbeTrack	14.0	SCS215b	20111118.092743	20111118.093626	8	0.013328	60	10	60-180	60	88	GapExp	Blank	0	78	2	1	0	target	0	227	-1000	28671	13.328	12.586	13.732
ProbeTrack14	2	ProbeTrack	14.0	SCS215b	20111118.092743	20111118.093631	8	0.013328	60	10	60-180	60	174	GapExp	Blank	0	79	2	6	1	early	-4	-4001	-1000	27671	13.328	13.297	13.364
ProbeTrack14	2	ProbeTrack	14.0	SCS215b	20111118.092743	20111118.093638	8	0.013328	60	10	60-180	60	153	GapExp	Blank	0	80	2	0	0	distractor	1	491	755	28426	13.328	12.872	13.782
ProbeTrack14	2	ProbeTrack	14.0	SCS215b	20111118.092743	20111118.093644	8	0.013328	60	10	60-180	60	175	GapExp	Blank	0	81	2	2	1	target	1	416	792	29218	13.328	13.076	13.575
ProbeTrack14	2	ProbeTrack	14.0	SCS215b	20111118.092743	20111118.093651	8	0.013328	60	10	60-180	60	70	GapExp	Blank	0	82	2	0	0	distractor	1	524	738	29956	13.328	12.850	13.809
ProbeTrack14	2	ProbeTrack	14.0	SCS215b	20111118.092743	20111118.093656	8	0.013328	60	10	60-180	60	100	GapExp	Blank	0	83	2	2	1	target	1	318	841	30797	13.328	12.865	13.801
ProbeTrack14	2	ProbeTrack	14.0	SCS215b	20111118.092743	20111118.093702	8	0.013328	60	10	60-180	60	161	GapExp	Blank	0	84	2	1	1	target	1	364	818	31615	13.328	12.905	13.764
ProbeTrack14	2	ProbeTrack	14.0	SCS215b	20111118.092743	20111118.093708	8	0.013328	60	10	60-180	60	87	GapExp	Blank	0	85	2	6	0	distractor	1	371	815	32430	13.328	13.123	13.545
ProbeTrack14	2	ProbeTrack	14.0	SCS215b	20111118.092743	20111118.093714	8	0.013328	60	10	60-180	60	129	GapExp	Blank	0	86	2	1	1	early	-4	-2588	-1000	31430	13.328	12.935	13.727
ProbeTrack14	2	ProbeTrack	14.0	SCS215b	20111118.092743	20111118.093720	8	0.013328	60	10	60-180	60	109	GapExp	Blank	0	87	2	2	0	target	0	180	-1000	30430	13.328	12.950	13.702
ProbeTrack14	2	ProbeTrack	14.0	SCS215b	20111118.092743	20111118.093726	8	0.013328	60	10	60-180	60	111	GapExp	Blank	0	88	2	0	0	target	0	274	-1000	29430	13.328	13.099	13.551
ProbeTrack14	2	ProbeTrack	14.0	SCS215b	20111118.092743	20111118.093732	8	0.013328	60	10	60-180	60	81	GapExp	Blank	0	89	2	0	1	target	1	326	837	30267	13.328	12.893	13.769
ProbeTrack14	2	ProbeTrack	14.0	SCS215b	20111118.092743	20111118.093737	8	0.013328	60	10	60-180	60	70	GapExp	Blank	0	90	2	2	1	target	1	318	841	31108	13.328	12.934	13.721
ProbeTrack14	2	ProbeTrack	14.0	SCS215b	20111118.092743	20111118.093742	8	0.013328	60	10	60-180	60	100	GapExp	Blank	0	91	2	2	0	target	0	59	-1000	30108	13.328	12.920	13.743
ProbeTrack14	2	ProbeTrack	14.0	SCS215b	20111118.092743	20111118.093747	8	0.013328	60	10	60-180	60	135	GapExp	Blank	0	92	2	45	0	target	0	222	-1000	29108	13.328	12.998	13.649
ProbeTrack14	2	ProbeTrack	14.0	SCS215b	20111118.092743	20111118.093754	8	0.013328	60	10	60-180	60	69	GapExp	Blank	0	93	2	0	0	distractor	1	404	798	29906	13.328	12.827	13.822
ProbeTrack14	2	ProbeTrack	14.0	SCS215b	20111118.092743	20111118.093759	8	0.013328	60	10	60-180	60	81	GapExp	Blank	0	94	2	2	1	target	1	386	807	30713	13.328	13.148	13.497
ProbeTrack14	2	ProbeTrack	14.0	SCS215b	20111118.092743	20111118.093804	8	0.013328	60	10	60-180	60	98	GapExp	Blank	0	95	2	1	0	distractor	1	403	799	31512	13.328	13.090	13.551
ProbeTrack14	2	ProbeTrack	14.0	SCS215b	20111118.092743	20111118.093810	8	0.013328	60	10	60-180	60	79	GapExp	Blank	0	96	2	6	0	distractor	1	399	801	32313	13.328	13.306	13.352
ProbeTrack14	2	ProbeTrack	14.0	SCS215b	20111118.092743	20111118.093815	8	0.013328	60	10	60-180	60	82	GapExp	Blank	0	97	2	2	1	target	1	302	849	33162	13.328	12.987	13.691
ProbeTrack14	2	ProbeTrack	14.0	SCS215b	20111118.092743	20111118.093821	8	0.013328	60	10	60-180	60	165	GapExp	Blank	0	98	2	45	1	target	1	451	775	33937	13.328	13.093	13.549
ProbeTrack14	2	ProbeTrack	14.0	SCS215b	20111118.092743	20111118.093828	8	0.013328	60	10	60-180	60	132	GapExp	Blank	0	99	2	45	0	distractor	1	300	850	34787	13.328	13.071	13.600
ProbeTrack14	2	ProbeTrack	14.0	SCS215b	20111118.092743	20111118.093835	8	0.013328	60	10	60-180	60	123	GapExp	Blank	0	100	2	2	1	target	1	348	826	35613	13.328	13.303	13.371
ProbeTrack14	2	ProbeTrack	14.0	SCS215b	20111118.092743	20111118.093840	8	0.013328	60	10	60-180	60	86	GapExp	Blank	0	101	2	1	1	target	1	587	707	36320	13.328	12.857	13.810
ProbeTrack14	2	ProbeTrack	14.0	SCS215b	20111118.092743	20111118.093846	8	0.013328	60	10	60-180	60	169	GapExp	Blank	0	102	2	45	1	early	-4	-4287	-1000	35320	13.328	12.912	13.758
ProbeTrack14	2	ProbeTrack	14.0	SCS215b	20111118.092743	20111118.093853	8	0.013328	60	10	60-180	60	142	GapExp	Blank	0	103	2	2	1	target	1	391	805	36125	13.328	12.830	13.826
ProbeTrack14	2	ProbeTrack	14.0	SCS215b	20111118.092743	20111118.093859	8	0.013328	60	10	60-180	60	138	GapExp	Blank	0	104	2	45	1	target	1	570	715	36840	13.328	13.308	13.356
ProbeTrack14	2	ProbeTrack	14.0	SCS215b	20111118.092743	20111118.093907	8	0.013328	60	10	60-180	60	162	GapExp	Blank	0	105	2	6	1	target	1	401	800	37640	13.328	13.101	13.549
ProbeTrack14	2	ProbeTrack	14.0	SCS215b	20111118.092743	20111118.093913	8	0.013328	60	10	60-180	60	62	GapExp	Blank	0	106	2	0	1	target	1	274	863	38503	13.328	12.978	13.682
ProbeTrack14	2	ProbeTrack	14.0	SCS215b	20111118.092743	20111118.093918	8	0.013328	60	10	60-180	60	154	GapExp	Blank	0	107	2	1	1	target	1	423	789	39292	13.328	13.299	13.353
ProbeTrack14	2	ProbeTrack	14.0	SCS215b	20111118.092743	20111118.093926	8	0.013328	60	10	60-180	60	85	GapExp	Blank	0	108	2	6	1	target	1	328	836	40128	13.328	12.900	13.776
ProbeTrack14	2	ProbeTrack	14.0	SCS215b	20111118.092743	20111118.093931	8	0.013328	60	10	60-180	60	95	GapExp	Blank	0	109	2	1	1	target	1	217	892	41020	13.328	12.927	13.729
ProbeTrack14	2	ProbeTrack	14.0	SCS215b	20111118.092743	20111118.093936	8	0.013328	60	10	60-180	60	165	GapExp	Blank	0	110	2	1	1	target	1	225	888	41908	13.328	12.860	13.802
ProbeTrack14	2	ProbeTrack	14.0	SCS215b	20111118.092743	20111118.093943	8	0.013328	60	10	60-180	60	180	GapExp	Blank	0	111	2	1	1	distractor	0	284	-1000	40908	13.328	13.043	13.602
ProbeTrack14	2	ProbeTrack	14.0	SCS215b	20111118.092743	20111118.093949	8	0.013328	60	10	60-180	60	173	GapExp	Blank	0	112	2	6	0	distractor	1	39	981	41889	13.328	12.891	13.769
ProbeTrack14	2	ProbeTrack	14.0	SCS215b	20111118.092743	20111118.093955	8	0.013328	60	10	60-180	60	177	GapExp	Blank	0	113	2	0	1	target	1	280	860	42749	13.328	12.846	13.824
ProbeTrack14	2	ProbeTrack	14.0	SCS215b	20111118.092743	20111118.094002	8	0.013328	60	10	60-180	60	133	GapExp	Blank	0	114	2	2	1	target	1	332	834	43583	13.328	13.292	13.357
ProbeTrack14	2	ProbeTrack	14.0	SCS215b	20111118.092743	20111118.094008	8	0.013328	60	10	60-180	60	163	GapExp	Blank	0	115	2	2	1	target	1	315	843	44426	13.328	12.946	13.709
ProbeTrack14	2	ProbeTrack	14.0	SCS215b	20111118.092743	20111118.094015	8	0.013328	60	10	60-180	60	113	GapExp	Blank	0	116	2	6	0	target	0	363	-1000	43426	13.328	13.290	13.358
ProbeTrack14	2	ProbeTrack	14.0	SCS215b	20111118.092743	20111118.094020	8	0.013328	60	10	60-180	60	152	GapExp	Blank	0	117	2	1	1	target	1	422	789	44215	13.328	13.102	13.550
ProbeTrack14	2	ProbeTrack	14.0	SCS215b	20111118.092743	20111118.094026	8	0.013328	60	10	60-180	60	146	GapExp	Blank	0	118	2	2	0	distractor	1	618	691	44906	13.328	12.997	13.659
ProbeTrack14	2	ProbeTrack	14.0	SCS215b	20111118.092743	20111118.094032	8	0.013328	60	10	60-180	60	134	GapExp	Blank	0	119	2	0	0	target	0	467	-1000	43906	13.328	12.937	13.711
ProbeTrack14	2	ProbeTrack	14.0	SCS215b	20111118.092743	20111118.094039	8	0.013328	60	10	60-180	60	155	GapExp	Blank	0	120	2	6	1	target	1	295	853	44759	13.328	13.085	13.553
ProbeTrack14	2	ProbeTrack	14.0	SCS215b	20111118.092743	20111118.094045	8	0.013328	60	10	60-180	60	77	GapExp	Blank	0	121	2	45	0	distractor	1	241	880	45639	13.328	12.896	13.751
ProbeTrack14	2	ProbeTrack	14.0	SCS215b	20111118.092743	20111118.094051	8	0.013328	60	10	60-180	60	84	GapExp	Blank	0	122	2	2	0	distractor	1	402	799	46438	13.328	13.299	13.351
ProbeTrack14	2	ProbeTrack	14.0	SCS215b	20111118.092743	20111118.094057	8	0.013328	60	10	60-180	60	108	GapExp	Blank	0	123	2	0	0	target	0	300	-1000	45438	13.328	12.870	13.776
ProbeTrack14	2	ProbeTrack	14.0	SCS215b	20111118.092743	20111118.094102	8	0.013328	60	10	60-180	60	98	GapExp	Blank	0	124	2	1	0	distractor	1	617	692	46130	13.328	13.113	13.551
ProbeTrack14	2	ProbeTrack	14.0	SCS215b	20111118.092743	20111118.094108	8	0.013328	60	10	60-180	60	95	GapExp	Blank	0	125	2	6	0	distractor	1	376	812	46942	13.328	12.836	13.817
ProbeTrack14	2	ProbeTrack	14.0	SCS215b	20111118.092743	20111118.094114	8	0.013328	60	10	60-180	60	126	GapExp	Blank	0	126	2	1	0	distractor	1	473	764	47706	13.328	12.949	13.698
ProbeTrack14	2	ProbeTrack	14.0	SCS215b	20111118.092743	20111118.094120	8	0.013328	60	10	60-180	60	131	GapExp	Blank	0	127	2	1	1	target	1	454	773	48479	13.328	13.263	13.391
ProbeTrack14	2	ProbeTrack	14.0	SCS215b	20111118.092743	20111118.094126	8	0.013328	60	10	60-180	60	103	GapExp	Blank	0	128	2	1	0	distractor	1	481	760	49239	13.328	13.101	13.550
ProbeTrack14	2	ProbeTrack	14.0	SCS215b	20111118.092743	20111118.094137	8	0.013328	60	10	60-180	60	101	GapExp	Blank	0	129	2	45	0	distractor	1	582	709	49948	13.328	12.848	13.835
ProbeTrack14	2	ProbeTrack	14.0	SCS215b	20111118.092743	20111118.094144	8	0.013328	60	10	60-180	60	159	GapExp	Blank	0	130	2	0	0	target	0	432	-1000	48948	13.328	13.143	13.517
ProbeTrack14	2	ProbeTrack	14.0	SCS215b	20111118.092743	20111118.094150	8	0.013328	60	10	60-180	60	89	GapExp	Blank	0	131	2	45	1	target	1	388	806	49754	13.328	13.094	13.540
ProbeTrack14	2	ProbeTrack	14.0	SCS215b	20111118.092743	20111118.094156	8	0.013328	60	10	60-180	60	85	GapExp	Blank	0	132	2	1	0	distractor	1	389	806	50560	13.328	13.297	13.363
ProbeTrack14	2	ProbeTrack	14.0	SCS215b	20111118.092743	20111118.094202	8	0.013328	60	10	60-180	60	63	GapExp	Blank	0	133	2	0	1	target	1	394	803	51363	13.328	12.992	13.676
ProbeTrack14	2	ProbeTrack	14.0	SCS215b	20111118.092743	20111118.094207	8	0.013328	60	10	60-180	60	99	GapExp	Blank	0	134	2	1	0	distractor	1	300	850	52213	13.328	13.106	13.570
ProbeTrack14	2	ProbeTrack	14.0	SCS215b	20111118.092743	20111118.094212	8	0.013328	60	10	60-180	60	72	GapExp	Blank	0	135	2	1	0	target	0	424	-1000	51213	13.329	12.965	13.688
ProbeTrack14	2	ProbeTrack	14.0	SCS215b	20111118.092743	20111118.094217	8	0.013328	60	10	60-180	60	84	GapExp	Blank	0	136	2	6	1	target	1	343	829	52042	13.328	13.295	13.362
ProbeTrack14	2	ProbeTrack	14.0	SCS215b	20111118.092743	20111118.094223	8	0.013328	60	10	60-180	60	130	GapExp	Blank	0	137	2	45	1	distractor	0	337	-1000	51042	13.375	12.931	27.069
ProbeTrack14	2	ProbeTrack	14.0	SCS215b	20111118.092743	20111118.094229	8	0.013328	60	10	60-180	60	126	GapExp	Blank	0	138	2	1	1	target	1	321	840	51882	13.328	12.874	13.785
ProbeTrack14	2	ProbeTrack	14.0	SCS215b	20111118.092743	20111118.094235	8	0.013328	60	10	60-180	60	67	GapExp	Blank	0	139	2	45	0	target	0	558	-1000	50882	13.328	12.859	13.799
ProbeTrack14	2	ProbeTrack	14.0	SCS215b	20111118.092743	20111118.094241	8	0.013328	60	10	60-180	60	142	GapExp	Blank	0	140	2	1	0	distractor	1	546	727	51609	13.328	12.938	13.704
ProbeTrack14	2	ProbeTrack	14.0	SCS215b	20111118.092743	20111118.094247	8	0.013328	60	10	60-180	60	114	GapExp	Blank	0	141	2	45	1	target	1	485	758	52367	13.328	12.916	13.746
ProbeTrack14	2	ProbeTrack	14.0	SCS215b	20111118.092743	20111118.094254	8	0.013328	60	10	60-180	60	76	GapExp	Blank	0	142	2	2	0	distractor	1	372	814	53181	13.328	13.076	13.570
ProbeTrack14	2	ProbeTrack	14.0	SCS215b	20111118.092743	20111118.094300	8	0.013328	60	10	60-180	60	115	GapExp	Blank	0	143	2	0	1	target	1	296	852	54033	13.328	12.874	13.792
ProbeTrack14	2	ProbeTrack	14.0	SCS215b	20111118.092743	20111118.094305	8	0.013328	60	10	60-180	60	106	GapExp	Blank	0	144	2	45	1	distractor	0	632	-1000	53033	13.328	12.856	13.811
ProbeTrack14	2	ProbeTrack	14.0	SCS215b	20111118.092743	20111118.094312	8	0.013328	60	10	60-180	60	86	GapExp	Blank	0	145	2	0	0	distractor	1	374	813	53846	13.328	13.309	13.354
ProbeTrack14	2	ProbeTrack	14.0	SCS215b	20111118.092743	20111118.094317	8	0.013328	60	10	60-180	60	67	GapExp	Blank	0	146	2	1	1	target	1	354	823	54669	13.328	12.831	13.827
ProbeTrack14	2	ProbeTrack	14.0	SCS215b	20111118.092743	20111118.094322	8	0.013328	60	10	60-180	60	119	GapExp	Blank	0	147	2	1	1	target	1	348	826	55495	13.328	12.976	13.675
ProbeTrack14	2	ProbeTrack	14.0	SCS215b	20111118.092743	20111118.094328	8	0.013328	60	10	60-180	60	120	GapExp	Blank	0	148	2	2	0	target	0	402	-1000	54495	13.328	13.304	13.350
ProbeTrack14	2	ProbeTrack	14.0	SCS215b	20111118.092743	20111118.094334	8	0.013328	60	10	60-180	60	135	GapExp	Blank	0	149	2	1	0	distractor	1	607	697	55192	13.328	12.912	13.749
ProbeTrack14	2	ProbeTrack	14.0	SCS215b	20111118.092743	20111118.094342	8	0.013328	60	10	60-180	60	113	GapExp	Blank	0	150	2	0	1	target	1	324	838	56030	13.328	12.910	13.742
ProbeTrack14	2	ProbeTrack	14.0	SCS215b	20111118.092743	20111118.094347	8	0.013328	60	10	60-180	60	160	GapExp	Blank	0	151	2	2	1	target	1	361	820	56850	13.328	12.875	13.796
ProbeTrack14	2	ProbeTrack	14.0	SCS215b	20111118.092743	20111118.094354	8	0.013328	60	10	60-180	60	122	GapExp	Blank	0	152	2	0	0	distractor	1	551	725	57575	13.328	13.295	13.355
ProbeTrack14	2	ProbeTrack	14.0	SCS215b	20111118.092743	20111118.094400	8	0.013328	60	10	60-180	60	87	GapExp	Blank	0	153	2	1	1	target	1	346	827	58402	13.328	12.850	13.813
ProbeTrack14	2	ProbeTrack	14.0	SCS215b	20111118.092743	20111118.094406	8	0.013328	60	10	60-180	60	179	GapExp	Blank	0	154	2	45	0	distractor	1	487	757	59159	13.328	13.100	13.536
ProbeTrack14	2	ProbeTrack	14.0	SCS215b	20111118.092743	20111118.094413	8	0.013328	60	10	60-180	60	135	GapExp	Blank	0	155	2	45	0	distractor	1	664	668	59827	13.328	12.955	13.695
ProbeTrack14	2	ProbeTrack	14.0	SCS215b	20111118.092743	20111118.094420	8	0.013328	60	10	60-180	60	155	GapExp	Blank	0	156	2	6	1	target	1	296	852	60679	13.328	12.808	13.840
ProbeTrack14	2	ProbeTrack	14.0	SCS215b	20111118.092743	20111118.094426	8	0.013328	60	10	60-180	60	127	GapExp	Blank	0	157	2	0	0	distractor	1	717	642	61321	13.328	12.920	13.741
ProbeTrack14	2	ProbeTrack	14.0	SCS215b	20111118.092743	20111118.094432	8	0.013328	60	10	60-180	60	164	GapExp	Blank	0	158	2	2	0	distractor	1	468	766	62087	13.328	12.890	13.766
ProbeTrack14	2	ProbeTrack	14.0	SCS215b	20111118.092743	20111118.094439	8	0.013328	60	10	60-180	60	162	GapExp	Blank	0	159	2	45	1	target	1	429	786	62873	13.328	13.036	13.839
ProbeTrack14	2	ProbeTrack	14.0	SCS215b	20111118.092743	20111118.094446	8	0.013328	60	10	60-180	60	76	GapExp	Blank	0	160	2	1	1	target	1	614	693	63566	13.328	12.865	13.788
ProbeTrack14	2	ProbeTrack	14.0	SCS215b	20111118.092743	20111118.094452	8	0.013328	60	10	60-180	60	177	GapExp	Blank	0	161	2	2	1	target	1	505	748	64314	13.328	12.905	13.786
ProbeTrack14	2	ProbeTrack	14.0	SCS215b	20111118.092743	20111118.094459	8	0.013328	60	10	60-180	60	85	GapExp	Blank	0	162	2	1	1	target	1	426	787	65101	13.328	12.863	13.778
ProbeTrack14	2	ProbeTrack	14.0	SCS215b	20111118.092743	20111118.094505	8	0.013328	60	10	60-180	60	83	GapExp	Blank	0	163	2	0	1	target	1	272	864	65965	13.328	12.887	13.778
ProbeTrack14	2	ProbeTrack	14.0	SCS215b	20111118.092743	20111118.094510	8	0.013328	60	10	60-180	60	105	GapExp	Blank	0	164	2	1	0	target	0	312	-1000	64965	13.328	12.897	13.775
ProbeTrack14	2	ProbeTrack	14.0	SCS215b	20111118.092743	20111118.094516	8	0.013328	60	10	60-180	60	135	GapExp	Blank	0	165	2	6	1	target	1	283	859	65824	13.328	12.919	13.751
ProbeTrack14	2	ProbeTrack	14.0	SCS215b	20111118.092743	20111118.094522	8	0.013328	60	10	60-180	60	78	GapExp	Blank	0	166	2	0	1	distractor	0	341	-1000	64824	13.328	12.835	13.828
ProbeTrack14	2	ProbeTrack	14.0	SCS215b	20111118.092743	20111118.094527	8	0.013328	60	10	60-180	60	169	GapExp	Blank	0	167	2	2	0	early	-4	-3849	-1000	63824	13.328	12.867	13.790
ProbeTrack14	2	ProbeTrack	14.0	SCS215b	20111118.092743	20111118.094534	8	0.013328	60	10	60-180	60	78	GapExp	Blank	0	168	2	0	0	target	0	367	-1000	62824	13.328	13.010	13.643
ProbeTrack14	2	ProbeTrack	14.0	SCS215b	20111118.092743	20111118.094543	8	0.013328	60	10	60-180	60	133	GapExp	Blank	0	169	2	45	0	target	0	510	-1000	61824	13.328	12.880	13.770
ProbeTrack14	2	ProbeTrack	14.0	SCS215b	20111118.092743	20111118.094550	8	0.013328	60	10	60-180	60	153	GapExp	Blank	0	170	2	6	1	distractor	0	438	-1000	60824	13.328	13.103	13.556
ProbeTrack14	2	ProbeTrack	14.0	SCS215b	20111118.092743	20111118.094556	8	0.013328	60	10	60-180	60	147	GapExp	Blank	0	171	2	0	0	early	-4	-3526	-1000	59824	13.328	12.946	13.786
ProbeTrack14	2	ProbeTrack	14.0	SCS215b	20111118.092743	20111118.094603	8	0.013328	60	10	60-180	60	82	GapExp	Blank	0	172	2	1	1	target	1	388	806	60630	13.328	13.077	13.558
ProbeTrack14	2	ProbeTrack	14.0	SCS215b	20111118.092743	20111118.094609	8	0.013328	60	10	60-180	60	161	GapExp	Blank	0	173	2	1	1	distractor	0	744	-1000	59630	13.328	13.183	13.496
ProbeTrack14	2	ProbeTrack	14.0	SCS215b	20111118.092743	20111118.094616	8	0.013328	60	10	60-180	60	156	GapExp	Blank	0	174	2	0	0	distractor	1	780	610	60240	13.328	13.297	13.353
ProbeTrack14	2	ProbeTrack	14.0	SCS215b	20111118.092743	20111118.094624	8	0.013328	60	10	60-180	60	138	GapExp	Blank	0	175	2	6	0	distractor	1	634	683	60923	13.328	13.301	13.365
ProbeTrack14	2	ProbeTrack	14.0	SCS215b	20111118.092743	20111118.094630	8	0.013328	60	10	60-180	60	100	GapExp	Blank	0	176	2	1	0	target	0	504	-1000	59923	13.328	13.002	13.649
ProbeTrack14	2	ProbeTrack	14.0	SCS215b	20111118.092743	20111118.094636	8	0.013328	60	10	60-180	60	170	GapExp	Blank	0	177	2	45	0	distractor	1	538	731	60654	13.328	13.209	13.441
ProbeTrack14	2	ProbeTrack	14.0	SCS215b	20111118.092743	20111118.094644	8	0.013328	60	10	60-180	60	176	GapExp	Blank	0	178	2	0	1	distractor	0	571	-1000	59654	13.328	13.072	13.590
ProbeTrack14	2	ProbeTrack	14.0	SCS215b	20111118.092743	20111118.094651	8	0.013328	60	10	60-180	60	154	GapExp	Blank	0	179	2	2	0	distractor	1	431	785	60439	13.328	12.899	13.750
ProbeTrack14	2	ProbeTrack	14.0	SCS215b	20111118.092743	20111118.094657	8	0.013328	60	10	60-180	60	95	GapExp	Blank	0	180	2	6	0	distractor	1	416	792	61231	13.328	12.901	13.752
ProbeTrack14	2	ProbeTrack	14.0	SCS215b	20111118.092743	20111118.094703	8	0.013328	60	10	60-180	60	160	GapExp	Blank	0	181	2	1	0	distractor	1	430	785	62016	13.328	13.198	13.454
ProbeTrack14	2	ProbeTrack	14.0	SCS215b	20111118.092743	20111118.094709	8	0.013328	60	10	60-180	60	146	GapExp	Blank	0	182	2	2	1	distractor	0	439	-1000	61016	13.328	13.300	13.350
ProbeTrack14	2	ProbeTrack	14.0	SCS215b	20111118.092743	20111118.094715	8	0.013328	60	10	60-180	60	121	GapExp	Blank	0	183	2	6	1	target	1	296	852	61868	13.328	13.100	13.552
ProbeTrack14	2	ProbeTrack	14.0	SCS215b	20111118.092743	20111118.094724	8	0.013328	60	10	60-180	60	115	GapExp	Blank	0	184	2	6	0	distractor	1	440	780	62648	13.328	12.981	13.692
ProbeTrack14	2	ProbeTrack	14.0	SCS215b	20111118.092743	20111118.094730	8	0.013328	60	10	60-180	60	179	GapExp	Blank	0	185	2	2	0	target	0	471	-1000	61648	13.328	13.070	13.595
ProbeTrack14	2	ProbeTrack	14.0	SCS215b	20111118.092743	20111118.094738	8	0.013328	60	10	60-180	60	114	GapExp	Blank	0	186	2	2	1	target	1	254	873	62521	13.328	13.104	13.559
ProbeTrack14	2	ProbeTrack	14.0	SCS215b	20111118.092743	20111118.094750	8	0.013328	60	10	60-180	60	83	GapExp	Blank	0	187	2	2	1	target	1	444	778	63299	13.328	12.874	13.778
ProbeTrack14	2	ProbeTrack	14.0	SCS215b	20111118.092743	20111118.094757	8	0.013328	60	10	60-180	60	124	GapExp	Blank	0	188	2	2	0	target	0	58194	-1000	62299	13.328	13.089	13.558
ProbeTrack14	2	ProbeTrack	14.0	SCS215b	20111118.092743	20111118.094901	8	0.013328	60	10	60-180	60	93	GapExp	Blank	0	189	2	0	1	target	1	412	794	63093	13.328	12.919	13.760
ProbeTrack14	2	ProbeTrack	14.0	SCS215b	20111118.092743	20111118.094910	8	0.013328	60	10	60-180	60	168	GapExp	Blank	0	190	2	45	1	target	1	612	694	63787	13.328	13.106	13.551
ProbeTrack14	2	ProbeTrack	14.0	SCS215b	20111118.092743	20111118.094917	8	0.013328	60	10	60-180	60	180	GapExp	Blank	0	191	2	45	0	target	0	684	-1000	62787	13.328	12.874	13.794
ProbeTrack14	2	ProbeTrack	14.0	SCS215b	20111118.092743	20111118.094925	8	0.013328	60	10	60-180	60	172	GapExp	Blank	0	192	2	45	0	distractor	1	616	692	63479	13.328	13.106	13.536
ProbeTrack14	2	ProbeTrack	14.0	SCS215b	20111118.092743	20111118.094933	8	0.013328	60	10	60-180	60	165	GapExp	Blank	0	193	2	45	1	target	1	522	739	64218	13.328	12.876	13.786
ProbeTrack14	2	ProbeTrack	14.0	SCS215b	20111118.092743	20111118.094941	8	0.013328	60	10	60-180	60	65	GapExp	Blank	0	194	2	6	1	target	1	481	760	64978	13.328	13.050	13.596
ProbeTrack14	2	ProbeTrack	14.0	SCS215b	20111118.092743	20111118.094946	8	0.013328	60	10	60-180	60	108	GapExp	Blank	0	195	2	6	1	distractor	0	559	-1000	63978	13.328	12.833	13.825
ProbeTrack14	2	ProbeTrack	14.0	SCS215b	20111118.092743	20111118.094952	8	0.013328	60	10	60-180	60	76	GapExp	Blank	0	196	2	2	0	target	0	530	-1000	62978	13.328	13.153	13.511
ProbeTrack14	2	ProbeTrack	14.0	SCS215b	20111118.092743	20111118.094957	8	0.013328	60	10	60-180	60	166	GapExp	Blank	0	197	2	1	1	target	1	338	831	63809	13.328	12.908	13.745
ProbeTrack14	2	ProbeTrack	14.0	SCS215b	20111118.092743	20111118.095004	8	0.013328	60	10	60-180	60	136	GapExp	Blank	0	198	2	6	0	distractor	1	430	785	64594	13.328	13.024	13.630
ProbeTrack14	2	ProbeTrack	14.0	SCS215b	20111118.092743	20111118.095010	8	0.013328	60	10	60-180	60	84	GapExp	Blank	0	199	2	1	0	distractor	1	515	743	65337	13.328	13.125	13.519
ProbeTrack14	2	ProbeTrack	14.0	SCS215b	20111118.092743	20111118.095015	8	0.013328	60	10	60-180	60	154	GapExp	Blank	0	200	2	2	1	target	1	455	773	66110	13.328	12.848	13.822
ProbeTrack14	2	ProbeTrack	14.0	SCS215b	20111118.092743	20111118.095022	8	0.013328	60	10	60-180	60	92	GapExp	Blank	0	201	2	0	1	target	1	407	797	66907	13.327	12.842	13.818
ProbeTrack14	2	ProbeTrack	14.0	SCS215b	20111118.092743	20111118.095028	8	0.013328	60	10	60-180	60	141	GapExp	Blank	0	202	2	6	0	distractor	1	399	801	67708	13.328	13.097	13.567
ProbeTrack14	2	ProbeTrack	14.0	SCS215b	20111118.092743	20111118.095035	8	0.013328	60	10	60-180	60	155	GapExp	Blank	0	203	2	2	0	distractor	1	379	811	68519	13.328	12.999	13.644
ProbeTrack14	2	ProbeTrack	14.0	SCS215b	20111118.092743	20111118.095041	8	0.013328	60	10	60-180	60	66	GapExp	Blank	0	204	2	0	1	target	1	393	804	69323	13.328	13.029	13.632
ProbeTrack14	2	ProbeTrack	14.0	SCS215b	20111118.092743	20111118.095047	8	0.013328	60	10	60-180	60	72	GapExp	Blank	0	205	2	0	1	target	1	355	823	70146	13.328	13.088	13.559
ProbeTrack14	2	ProbeTrack	14.0	SCS215b	20111118.092743	20111118.095051	8	0.013328	60	10	60-180	60	131	GapExp	Blank	0	206	2	6	1	target	1	378	811	70957	13.328	13.105	13.554
ProbeTrack14	2	ProbeTrack	14.0	SCS215b	20111118.092743	20111118.095057	8	0.013328	60	10	60-180	60	179	GapExp	Blank	0	207	2	2	0	target	0	359	-1000	69957	13.328	12.854	13.800
ProbeTrack14	2	ProbeTrack	14.0	SCS215b	20111118.092743	20111118.095104	8	0.013328	60	10	60-180	60	99	GapExp	Blank	0	208	2	6	1	target	1	338	831	70788	13.328	13.302	13.352
ProbeTrack14	2	ProbeTrack	14.0	SCS215b	20111118.092743	20111118.095110	8	0.013328	60	10	60-180	60	76	GapExp	Blank	0	209	2	45	1	target	1	662	669	71457	13.328	12.859	13.787
ProbeTrack14	2	ProbeTrack	14.0	SCS215b	20111118.092743	20111118.095116	8	0.013328	60	10	60-180	60	151	GapExp	Blank	0	210	2	1	0	distractor	1	438	781	72238	13.328	12.857	13.793
ProbeTrack14	2	ProbeTrack	14.0	SCS215b	20111118.092743	20111118.095122	8	0.013328	60	10	60-180	60	140	GapExp	Blank	0	211	2	6	0	distractor	1	436	782	73020	13.328	13.124	13.557
ProbeTrack14	2	ProbeTrack	14.0	SCS215b	20111118.092743	20111118.095128	8	0.013328	60	10	60-180	60	161	GapExp	Blank	0	212	2	1	0	distractor	1	481	760	73780	13.328	13.153	13.556
ProbeTrack14	2	ProbeTrack	14.0	SCS215b	20111118.092743	20111118.095134	8	0.013328	60	10	60-180	60	126	GapExp	Blank	0	213	2	2	0	distractor	1	403	799	74579	13.328	13.021	13.631
ProbeTrack14	2	ProbeTrack	14.0	SCS215b	20111118.092743	20111118.095141	8	0.013328	60	10	60-180	60	170	GapExp	Blank	0	214	2	0	1	target	1	429	786	75365	13.328	13.058	13.653
ProbeTrack14	2	ProbeTrack	14.0	SCS215b	20111118.092743	20111118.095147	8	0.013328	60	10	60-180	60	139	GapExp	Blank	0	215	2	45	0	distractor	1	541	730	76095	13.328	12.848	13.807
ProbeTrack14	2	ProbeTrack	14.0	SCS215b	20111118.092743	20111118.095154	8	0.013328	60	10	60-180	60	115	GapExp	Blank	0	216	2	6	1	target	1	498	751	76846	13.328	12.826	13.830
ProbeTrack14	2	ProbeTrack	14.0	SCS215b	20111118.092743	20111118.095200	8	0.013328	60	10	60-180	60	127	GapExp	Blank	0	217	2	45	1	target	1	662	669	77515	13.328	12.833	13.824
ProbeTrack14	2	ProbeTrack	14.0	SCS215b	20111118.092743	20111118.095206	8	0.013328	60	10	60-180	60	169	GapExp	Blank	0	218	2	0	0	distractor	1	488	756	78271	13.328	12.993	13.681
ProbeTrack14	2	ProbeTrack	14.0	SCS215b	20111118.092743	20111118.095213	8	0.013328	60	10	60-180	60	109	GapExp	Blank	0	219	2	1	0	distractor	1	491	755	79026	13.328	13.101	13.559
ProbeTrack14	2	ProbeTrack	14.0	SCS215b	20111118.092743	20111118.095219	8	0.013328	60	10	60-180	60	63	GapExp	Blank	0	220	2	0	0	target	0	580	-1000	78026	13.328	13.008	13.635
ProbeTrack14	2	ProbeTrack	14.0	SCS215b	20111118.092743	20111118.095224	8	0.013328	60	10	60-180	60	67	GapExp	Blank	0	221	2	45	1	target	1	439	781	78807	13.328	13.109	13.533
ProbeTrack14	2	ProbeTrack	14.0	SCS215b	20111118.092743	20111118.095229	8	0.013328	60	10	60-180	60	85	GapExp	Blank	0	222	2	0	1	target	1	555	723	79530	13.328	13.096	13.572
ProbeTrack14	2	ProbeTrack	14.0	SCS215b	20111118.092743	20111118.095235	8	0.013328	60	10	60-180	60	140	GapExp	Blank	0	223	2	1	0	distractor	1	336	832	80362	13.328	13.048	13.613
ProbeTrack14	2	ProbeTrack	14.0	SCS215b	20111118.092743	20111118.095240	8	0.013328	60	10	60-180	60	106	GapExp	Blank	0	224	2	2	1	target	1	259	871	81233	13.328	12.891	13.775
ProbeTrack14	2	ProbeTrack	14.0	SCS215b	20111118.092743	20111118.095246	8	0.013328	60	10	60-180	60	142	GapExp	Blank	0	225	2	1	1	target	1	360	820	82053	13.328	13.094	13.774
ProbeTrack14	2	ProbeTrack	14.0	SCS215b	20111118.092743	20111118.095253	8	0.013328	60	10	60-180	60	98	GapExp	Blank	0	226	2	6	1	target	1	355	823	82876	13.328	13.105	13.556
ProbeTrack14	2	ProbeTrack	14.0	SCS215b	20111118.092743	20111118.095258	8	0.013328	60	10	60-180	60	67	GapExp	Blank	0	227	2	2	1	target	1	289	856	83732	13.328	13.302	13.358
ProbeTrack14	2	ProbeTrack	14.0	SCS215b	20111118.092743	20111118.095303	8	0.013328	60	10	60-180	60	64	GapExp	Blank	0	228	2	45	0	distractor	1	319	841	84573	13.328	13.026	13.638
ProbeTrack14	2	ProbeTrack	14.0	SCS215b	20111118.092743	20111118.095309	8	0.013328	60	10	60-180	60	121	GapExp	Blank	0	229	2	0	1	target	1	285	858	85431	13.328	13.031	13.633
ProbeTrack14	2	ProbeTrack	14.0	SCS215b	20111118.092743	20111118.095314	8	0.013328	60	10	60-180	60	71	GapExp	Blank	0	230	2	45	0	distractor	1	355	823	86254	13.328	13.281	13.363
ProbeTrack14	2	ProbeTrack	14.0	SCS215b	20111118.092743	20111118.095320	8	0.013328	60	10	60-180	60	72	GapExp	Blank	0	231	2	6	0	distractor	1	428	786	87040	13.328	13.052	13.600
ProbeTrack14	2	ProbeTrack	14.0	SCS215b	20111118.092743	20111118.095326	8	0.013328	60	10	60-180	60	113	GapExp	Blank	0	232	2	6	0	distractor	1	368	816	87856	13.328	13.107	13.668
ProbeTrack14	2	ProbeTrack	14.0	SCS215b	20111118.092743	20111118.095332	8	0.013328	60	10	60-180	60	139	GapExp	Blank	0	233	2	6	1	target	1	351	825	88681	13.328	12.906	13.743
ProbeTrack14	2	ProbeTrack	14.0	SCS215b	20111118.092743	20111118.095338	8	0.013328	60	10	60-180	60	77	GapExp	Blank	0	234	2	6	1	target	1	372	814	89495	13.328	12.936	13.730
ProbeTrack14	2	ProbeTrack	14.0	SCS215b	20111118.092743	20111118.095343	8	0.013328	60	10	60-180	60	141	GapExp	Blank	0	235	2	0	0	distractor	1	442	779	90274	13.328	12.846	13.808
ProbeTrack14	2	ProbeTrack	14.0	SCS215b	20111118.092743	20111118.095349	8	0.013328	60	10	60-180	60	128	GapExp	Blank	0	236	2	2	0	distractor	1	354	823	91097	13.328	12.857	13.791
ProbeTrack14	2	ProbeTrack	14.0	SCS215b	20111118.092743	20111118.095355	8	0.013328	60	10	60-180	60	62	GapExp	Blank	0	237	2	45	0	distractor	1	377	812	91909	13.328	13.294	13.355
ProbeTrack14	2	ProbeTrack	14.0	SCS215b	20111118.092743	20111118.095401	8	0.013328	60	10	60-180	60	111	GapExp	Blank	0	238	2	2	1	target	1	320	840	92749	13.328	13.052	13.612
ProbeTrack14	2	ProbeTrack	14.0	SCS215b	20111118.092743	20111118.095406	8	0.013328	60	10	60-180	60	123	GapExp	Blank	0	239	2	1	1	target	1	749	626	93375	13.328	13.046	13.617
ProbeTrack14	2	ProbeTrack	14.0	SCS215b	20111118.092743	20111118.095413	8	0.013328	60	10	60-180	60	88	GapExp	Blank	0	240	2	0	1	target	1	359	821	94196	13.328	13.106	13.567
ProbeTrack14	2	ProbeTrack	14.0	SCS215b	20111118.092743	20111118.095418	8	0.013328	60	10	60-180	60	69	GapExp	Blank	0	241	2	0	1	target	1	320	840	95036	13.328	13.261	13.384
ProbeTrack14	2	ProbeTrack	14.0	SCS215b	20111118.092743	20111118.095422	8	0.013328	60	10	60-180	60	65	GapExp	Blank	0	242	2	1	1	target	1	302	849	95885	13.328	13.096	13.560
ProbeTrack14	2	ProbeTrack	14.0	SCS215b	20111118.092743	20111118.095428	8	0.013328	60	10	60-180	60	82	GapExp	Blank	0	243	2	45	0	distractor	1	354	823	96708	13.328	12.839	13.805
ProbeTrack14	2	ProbeTrack	14.0	SCS215b	20111118.092743	20111118.095434	8	0.013328	60	10	60-180	60	147	GapExp	Blank	0	244	2	1	0	distractor	1	450	775	97483	13.328	13.259	13.403
ProbeTrack14	2	ProbeTrack	14.0	SCS215b	20111118.092743	20111118.095440	8	0.013328	60	10	60-180	60	67	GapExp	Blank	0	245	2	45	0	distractor	1	380	810	98293	13.328	13.286	13.362
ProbeTrack14	2	ProbeTrack	14.0	SCS215b	20111118.092743	20111118.095445	8	0.013328	60	10	60-180	60	133	GapExp	Blank	0	246	2	45	0	target	0	430	-1000	97293	13.328	12.856	13.809
ProbeTrack14	2	ProbeTrack	14.0	SCS215b	20111118.092743	20111118.095453	8	0.013328	60	10	60-180	60	139	GapExp	Blank	0	247	2	1	0	distractor	1	413	794	98087	13.328	12.845	13.805
ProbeTrack14	2	ProbeTrack	14.0	SCS215b	20111118.092743	20111118.095500	8	0.013328	60	10	60-180	60	121	GapExp	Blank	0	248	2	0	1	target	1	458	771	98858	13.328	13.094	13.550
ProbeTrack14	2	ProbeTrack	14.0	SCS215b	20111118.092743	20111118.095506	8	0.013328	60	10	60-180	60	68	GapExp	Blank	0	249	2	1	0	distractor	1	599	701	99559	13.328	13.222	13.435
ProbeTrack14	2	ProbeTrack	14.0	SCS215b	20111118.092743	20111118.095511	8	0.013328	60	10	60-180	60	151	GapExp	Blank	0	250	2	45	0	distractor	1	469	766	100325	13.328	12.908	13.741
