exp	sub	code	rev	comp	runtime	trialtime	nstim	refreshdur	cuedur	gapdur	gapOnsetRange	durPostProbe	gapOnsetTime	blocktype	gaptype	prac	trial	ntargets	soa	probeTarget	resp	acc	rt	pts	tpts	meanFrameDur	minFrameDur	maxFrameDur
ProbeTrack14	8	ProbeTrack	14.0	SCS215a	20111122.150412	20111122.150416	8	0.013328	60	0	60-180	60	147	NoGap	None	1	1	2	0	0	target	0	864	-1000	-1000	13.375	13.099	13.565
ProbeTrack14	8	ProbeTrack	14.0	SCS215a	20111122.150412	20111122.150536	8	0.013328	60	0	60-180	60	133	NoGap	None	1	2	2	2	1	target	1	513	744	-256	13.328	12.921	13.757
ProbeTrack14	8	ProbeTrack	14.0	SCS215a	20111122.150412	20111122.150543	8	0.013328	60	0	60-180	60	88	NoGap	None	1	3	2	1	1	distractor	0	666	-1000	-1256	13.328	13.308	13.343
ProbeTrack14	8	ProbeTrack	14.0	SCS215a	20111122.150412	20111122.150549	8	0.013328	60	0	60-180	60	143	NoGap	None	1	4	2	0	1	target	1	404	798	-458	13.328	12.867	13.790
ProbeTrack14	8	ProbeTrack	14.0	SCS215a	20111122.150412	20111122.150605	8	0.013328	60	0	60-180	60	92	NoGap	None	1	5	2	6	1	target	1	443	779	321	13.328	13.308	13.346
ProbeTrack14	8	ProbeTrack	14.0	SCS215a	20111122.150412	20111122.150613	8	0.013328	60	0	60-180	60	103	NoGap	None	1	6	2	2	0	distractor	1	756	622	943	13.328	13.032	13.625
ProbeTrack14	8	ProbeTrack	14.0	SCS215a	20111122.150412	20111122.150619	8	0.013328	60	0	60-180	60	99	NoGap	None	1	7	2	45	1	target	1	291	855	1798	13.328	12.880	13.776
ProbeTrack14	8	ProbeTrack	14.0	SCS215a	20111122.150412	20111122.150625	8	0.013328	60	0	60-180	60	98	NoGap	None	1	8	2	6	1	target	1	424	788	2586	13.328	13.118	13.551
ProbeTrack14	8	ProbeTrack	14.0	SCS215a	20111122.150412	20111122.150631	8	0.013328	60	0	60-180	60	104	NoGap	None	1	9	2	0	1	target	1	639	681	3267	13.328	13.102	13.544
ProbeTrack14	8	ProbeTrack	14.0	SCS215a	20111122.150412	20111122.150637	8	0.013328	60	0	60-180	60	178	NoGap	None	1	10	2	0	0	distractor	1	308	846	4113	13.328	13.077	13.562
ProbeTrack14	8	ProbeTrack	14.0	SCS215a	20111122.150412	20111122.150644	8	0.013328	60	0	60-180	60	85	NoGap	None	1	11	2	6	0	distractor	1	763	619	4732	13.328	13.307	13.347
ProbeTrack14	8	ProbeTrack	14.0	SCS215a	20111122.150412	20111122.150650	8	0.013328	60	0	60-180	60	85	NoGap	None	1	12	2	2	0	distractor	1	691	655	5387	13.328	12.844	13.798
ProbeTrack14	8	ProbeTrack	14.0	SCS215a	20111122.150412	20111122.150655	8	0.013328	60	0	60-180	60	135	NoGap	None	1	13	2	6	1	target	1	266	867	6254	13.328	13.305	13.346
ProbeTrack14	8	ProbeTrack	14.0	SCS215a	20111122.150412	20111122.150701	8	0.013328	60	0	60-180	60	118	NoGap	None	1	14	2	45	1	distractor	0	330	-1000	5254	13.328	12.947	13.712
ProbeTrack14	8	ProbeTrack	14.0	SCS215a	20111122.150412	20111122.150707	8	0.013328	60	0	60-180	60	123	NoGap	None	1	15	2	2	0	distractor	1	433	784	6038	13.328	12.998	13.671
ProbeTrack14	8	ProbeTrack	14.0	SCS215a	20111122.150412	20111122.150713	8	0.013328	60	0	60-180	60	79	NoGap	None	1	16	2	1	0	distractor	1	518	741	6779	13.328	13.090	13.567
ProbeTrack14	8	ProbeTrack	14.0	SCS215a	20111122.150412	20111122.150719	8	0.013328	60	0	60-180	60	165	NoGap	None	1	17	2	2	1	target	1	398	801	7580	13.328	13.302	13.355
ProbeTrack14	8	ProbeTrack	14.0	SCS215a	20111122.150412	20111122.150725	8	0.013328	60	0	60-180	60	137	NoGap	None	1	18	2	0	1	target	1	318	841	8421	13.328	13.309	13.356
ProbeTrack14	8	ProbeTrack	14.0	SCS215a	20111122.150412	20111122.150731	8	0.013328	60	0	60-180	60	112	NoGap	None	1	19	2	2	1	target	1	295	853	9274	13.328	13.295	13.355
ProbeTrack14	8	ProbeTrack	14.0	SCS215a	20111122.150412	20111122.150737	8	0.013328	60	0	60-180	60	70	NoGap	None	1	20	2	45	1	target	1	343	829	10103	13.328	13.019	13.628
ProbeTrack14	8	ProbeTrack	14.0	SCS215a	20111122.150412	20111122.150742	8	0.013328	60	0	60-180	60	153	NoGap	None	1	21	2	6	0	distractor	1	363	819	10922	13.328	12.928	13.710
ProbeTrack14	8	ProbeTrack	14.0	SCS215a	20111122.150412	20111122.150748	8	0.013328	60	0	60-180	60	149	NoGap	None	1	22	2	0	0	distractor	1	252	874	11796	13.328	12.873	13.776
ProbeTrack14	8	ProbeTrack	14.0	SCS215a	20111122.150412	20111122.150754	8	0.013328	60	0	60-180	60	164	NoGap	None	1	23	2	45	0	distractor	1	356	822	12618	13.328	13.304	13.348
ProbeTrack14	8	ProbeTrack	14.0	SCS215a	20111122.150412	20111122.150801	8	0.013328	60	0	60-180	60	101	NoGap	None	1	24	2	1	0	distractor	1	710	645	13263	13.328	12.888	13.769
ProbeTrack14	8	ProbeTrack	14.0	SCS215a	20111122.150412	20111122.150807	8	0.013328	60	0	60-180	60	158	NoGap	None	1	25	2	45	1	target	1	355	823	14086	13.328	13.100	13.572
ProbeTrack14	8	ProbeTrack	14.0	SCS215a	20111122.150412	20111122.150814	8	0.013328	60	0	60-180	60	111	NoGap	None	1	26	2	1	1	target	1	420	790	14876	13.328	13.307	13.348
ProbeTrack14	8	ProbeTrack	14.0	SCS215a	20111122.150412	20111122.150820	8	0.013328	60	0	60-180	60	136	NoGap	None	1	27	2	45	0	distractor	1	349	826	15702	13.328	13.178	13.479
ProbeTrack14	8	ProbeTrack	14.0	SCS215a	20111122.150412	20111122.150827	8	0.013328	60	0	60-180	60	166	NoGap	None	1	28	2	45	0	distractor	1	521	740	16442	13.328	12.880	13.774
ProbeTrack14	8	ProbeTrack	14.0	SCS215a	20111122.150412	20111122.150833	8	0.013328	60	0	60-180	60	67	NoGap	None	1	29	2	1	1	target	1	590	705	17147	13.328	13.300	13.350
ProbeTrack14	8	ProbeTrack	14.0	SCS215a	20111122.150412	20111122.150839	8	0.013328	60	0	60-180	60	76	NoGap	None	1	30	2	2	1	target	1	479	761	17908	13.328	13.090	13.555
ProbeTrack14	8	ProbeTrack	14.0	SCS215a	20111122.150412	20111122.150844	8	0.013328	60	0	60-180	60	122	NoGap	None	1	31	2	45	0	distractor	1	295	853	18761	13.328	12.896	13.769
ProbeTrack14	8	ProbeTrack	14.0	SCS215a	20111122.150412	20111122.150850	8	0.013328	60	0	60-180	60	101	NoGap	None	1	32	2	1	0	distractor	1	479	761	19522	13.329	13.302	13.546
ProbeTrack14	8	ProbeTrack	14.0	SCS215a	20111122.150412	20111122.150855	8	0.013328	60	0	60-180	60	158	NoGap	None	1	33	2	1	0	distractor	1	341	830	20352	13.328	13.305	13.360
ProbeTrack14	8	ProbeTrack	14.0	SCS215a	20111122.150412	20111122.150902	8	0.013328	60	0	60-180	60	83	NoGap	None	1	34	2	2	0	distractor	1	356	822	21174	13.328	13.312	13.344
ProbeTrack14	8	ProbeTrack	14.0	SCS215a	20111122.150412	20111122.150907	8	0.013328	60	0	60-180	60	132	NoGap	None	1	35	2	1	1	target	1	243	879	22053	13.328	13.292	13.346
ProbeTrack14	8	ProbeTrack	14.0	SCS215a	20111122.150412	20111122.150913	8	0.013328	60	0	60-180	60	72	NoGap	None	1	36	2	6	0	distractor	1	264	868	22921	13.328	12.943	13.715
ProbeTrack14	8	ProbeTrack	14.0	SCS215a	20111122.150412	20111122.150918	8	0.013328	60	0	60-180	60	88	NoGap	None	1	37	2	0	0	distractor	1	344	828	23749	13.328	12.941	13.722
ProbeTrack14	8	ProbeTrack	14.0	SCS215a	20111122.150412	20111122.150923	8	0.013328	60	0	60-180	60	79	NoGap	None	1	38	2	0	1	target	1	331	835	24584	13.328	12.931	13.735
ProbeTrack14	8	ProbeTrack	14.0	SCS215a	20111122.150412	20111122.150928	8	0.013328	60	0	60-180	60	91	NoGap	None	1	39	2	6	0	distractor	1	399	801	25385	13.328	13.026	13.623
ProbeTrack14	8	ProbeTrack	14.0	SCS215a	20111122.150412	20111122.150933	8	0.013328	60	0	60-180	60	93	NoGap	None	1	40	2	6	1	target	1	275	863	26248	13.328	12.958	13.690
ProbeTrack14	8	ProbeTrack	14.0	SCS215a	20111122.151040	20111122.151052	8	0.013328	60	10	60-180	60	97	GapPrac	Blank	1	1	2	0	1	target	1	426	787	27035	13.390	13.309	13.349
ProbeTrack14	8	ProbeTrack	14.0	SCS215a	20111122.151040	20111122.151059	8	0.013328	60	10	60-180	60	61	GapPrac	Blank	1	2	2	45	0	distractor	1	546	727	27762	13.328	13.308	13.344
ProbeTrack14	8	ProbeTrack	14.0	SCS215a	20111122.151040	20111122.151105	8	0.013328	60	10	60-180	60	156	GapPrac	Blank	1	3	2	0	0	distractor	1	582	709	28471	13.328	12.834	13.815
ProbeTrack14	8	ProbeTrack	14.0	SCS215a	20111122.151040	20111122.151112	8	0.013328	60	10	60-180	60	109	GapPrac	Blank	1	4	2	45	1	target	1	342	829	29300	13.327	13.060	13.598
ProbeTrack14	8	ProbeTrack	14.0	SCS215a	20111122.151040	20111122.151118	8	0.013328	60	10	60-180	60	105	GapPrac	Blank	1	5	2	2	1	target	1	344	828	30128	13.328	13.104	13.558
ProbeTrack14	8	ProbeTrack	14.0	SCS215a	20111122.151040	20111122.151124	8	0.013328	60	10	60-180	60	112	GapPrac	Blank	1	6	2	1	1	target	1	473	764	30892	13.328	13.087	13.569
ProbeTrack14	8	ProbeTrack	14.0	SCS215a	20111122.151040	20111122.151131	8	0.013328	60	10	60-180	60	99	GapPrac	Blank	1	7	2	6	1	target	1	471	765	31657	13.328	12.980	13.674
ProbeTrack14	8	ProbeTrack	14.0	SCS215a	20111122.151040	20111122.151137	8	0.013328	60	10	60-180	60	127	GapPrac	Blank	1	8	2	1	0	distractor	1	487	757	32414	13.328	13.085	13.566
ProbeTrack14	8	ProbeTrack	14.0	SCS215a	20111122.151040	20111122.151143	8	0.013328	60	10	60-180	60	66	GapPrac	Blank	1	9	2	45	0	distractor	1	390	805	33219	13.328	12.889	13.766
ProbeTrack14	8	ProbeTrack	14.0	SCS215a	20111122.151040	20111122.151148	8	0.013328	60	10	60-180	60	159	GapPrac	Blank	1	10	2	1	1	target	1	411	795	34014	13.328	12.893	13.774
ProbeTrack14	8	ProbeTrack	14.0	SCS215a	20111122.151040	20111122.151154	8	0.013328	60	10	60-180	60	168	GapPrac	Blank	1	11	2	6	1	target	1	449	776	34790	13.328	12.880	13.778
ProbeTrack14	8	ProbeTrack	14.0	SCS215a	20111122.151040	20111122.151201	8	0.013328	60	10	60-180	60	163	GapPrac	Blank	1	12	2	0	1	target	1	509	746	35536	13.374	12.982	26.348
ProbeTrack14	8	ProbeTrack	14.0	SCS215a	20111122.151040	20111122.151208	8	0.013328	60	10	60-180	60	165	GapPrac	Blank	1	13	2	6	0	distractor	1	389	806	36342	13.328	12.944	13.720
ProbeTrack14	8	ProbeTrack	14.0	SCS215a	20111122.151040	20111122.151214	8	0.013328	60	10	60-180	60	106	GapPrac	Blank	1	14	2	2	0	distractor	1	468	766	37108	13.328	13.082	13.573
ProbeTrack14	8	ProbeTrack	14.0	SCS215a	20111122.151040	20111122.151220	8	0.013328	60	10	60-180	60	159	GapPrac	Blank	1	15	2	45	1	target	1	300	850	37958	13.328	12.855	13.786
ProbeTrack14	8	ProbeTrack	14.0	SCS215a	20111122.151040	20111122.151226	8	0.013328	60	10	60-180	60	159	GapPrac	Blank	1	16	2	2	0	distractor	1	496	752	38710	13.328	12.939	13.717
ProbeTrack14	8	ProbeTrack	14.0	SCS215a	20111122.151040	20111122.151233	8	0.013328	60	10	60-180	60	165	GapPrac	Blank	1	17	2	1	0	distractor	1	742	629	39339	13.328	13.093	13.556
ProbeTrack14	8	ProbeTrack	14.0	SCS215a	20111122.151040	20111122.151240	8	0.013328	60	10	60-180	60	154	GapPrac	Blank	1	18	2	2	1	target	1	550	725	40064	13.328	12.974	13.691
ProbeTrack14	8	ProbeTrack	14.0	SCS215a	20111122.151040	20111122.151247	8	0.013328	60	10	60-180	60	107	GapPrac	Blank	1	19	2	6	0	distractor	1	350	825	40889	13.328	13.296	13.354
ProbeTrack14	8	ProbeTrack	14.0	SCS215a	20111122.151040	20111122.151252	8	0.013328	60	10	60-180	60	103	GapPrac	Blank	1	20	2	0	0	distractor	1	420	790	41679	13.328	13.310	13.345
ProbeTrack14	8	ProbeTrack	14.0	SCS215a	20111122.151339	20111122.151346	8	0.013325	60	10	60-180	60	73	GapExp	Blank	1	1	2	45	0	distractor	1	498	751	42430	13.438	13.110	26.472
ProbeTrack14	8	ProbeTrack	14.0	SCS215a	20111122.151339	20111122.151353	8	0.013325	60	10	60-180	60	166	GapExp	Blank	1	2	2	0	0	distractor	1	470	765	43195	13.328	8.266	18.390
ProbeTrack14	8	ProbeTrack	14.0	SCS215a	20111122.151339	20111122.151359	8	0.013325	60	10	60-180	60	174	GapExp	Blank	1	3	2	6	0	distractor	1	334	833	44028	13.328	10.561	16.083
ProbeTrack14	8	ProbeTrack	14.0	SCS215a	20111122.151339	20111122.151410	8	0.013325	60	10	60-180	60	90	GapExp	Blank	1	4	2	1	1	target	1	340	830	44858	13.328	11.808	14.885
ProbeTrack14	8	ProbeTrack	14.0	SCS215a	20111122.151339	20111122.151416	8	0.013325	60	10	60-180	60	127	GapExp	Blank	1	5	2	2	1	target	1	417	792	45650	13.328	5.749	20.912
ProbeTrack14	8	ProbeTrack	14.0	SCS215a	20111122.151339	20111122.151422	8	0.013325	60	10	60-180	60	121	GapExp	Blank	1	6	2	45	1	target	1	260	870	46520	13.328	10.470	16.199
ProbeTrack14	8	ProbeTrack	14.0	SCS215a	20111122.151339	20111122.151428	8	0.013325	60	10	60-180	60	149	GapExp	Blank	1	7	2	2	0	target	0	425	-1000	45520	13.328	4.403	22.026
ProbeTrack14	8	ProbeTrack	14.0	SCS215a	20111122.151339	20111122.151435	8	0.013325	60	10	60-180	60	106	GapExp	Blank	1	8	2	6	1	target	1	391	805	46325	13.328	9.000	17.669
ProbeTrack14	8	ProbeTrack	14.0	SCS215a	20111122.151339	20111122.151441	8	0.013325	60	10	60-180	60	77	GapExp	Blank	1	9	2	0	1	target	1	511	745	47070	13.328	9.278	17.381
ProbeTrack14	8	ProbeTrack	14.0	SCS215a	20111122.151339	20111122.151446	8	0.013325	60	10	60-180	60	90	GapExp	Blank	1	10	2	1	0	distractor	1	352	824	47894	13.328	5.232	21.425
ProbeTrack14	8	ProbeTrack	14.0	SCS215a	20111122.151339	20111122.151451	8	0.013325	60	10	60-180	60	97	GapExp	Blank	0	11	2	45	1	target	1	278	861	48755	13.381	10.890	25.897
ProbeTrack14	8	ProbeTrack	14.0	SCS215a	20111122.151339	20111122.151457	8	0.013325	60	10	60-180	60	97	GapExp	Blank	0	12	2	6	0	distractor	1	358	821	49576	13.328	13.303	13.354
ProbeTrack14	8	ProbeTrack	14.0	SCS215a	20111122.151339	20111122.151505	8	0.013325	60	10	60-180	60	109	GapExp	Blank	0	13	2	6	0	distractor	1	458	771	50347	13.328	13.306	13.353
ProbeTrack14	8	ProbeTrack	14.0	SCS215a	20111122.151339	20111122.151511	8	0.013325	60	10	60-180	60	139	GapExp	Blank	0	14	2	2	1	target	1	306	847	51194	13.328	12.673	13.404
ProbeTrack14	8	ProbeTrack	14.0	SCS215a	20111122.151339	20111122.151517	8	0.013325	60	10	60-180	60	74	GapExp	Blank	0	15	2	6	1	target	1	407	797	51991	13.328	13.089	13.561
ProbeTrack14	8	ProbeTrack	14.0	SCS215a	20111122.151339	20111122.151522	8	0.013325	60	10	60-180	60	66	GapExp	Blank	0	16	2	1	1	target	1	462	769	52760	13.328	8.679	17.971
ProbeTrack14	8	ProbeTrack	14.0	SCS215a	20111122.151339	20111122.151527	8	0.013325	60	10	60-180	60	172	GapExp	Blank	0	17	2	45	1	distractor	0	353	-1000	51760	13.328	9.823	16.823
ProbeTrack14	8	ProbeTrack	14.0	SCS215a	20111122.151339	20111122.151534	8	0.013325	60	10	60-180	60	120	GapExp	Blank	0	18	2	0	1	target	1	382	809	52569	13.328	4.923	21.737
ProbeTrack14	8	ProbeTrack	14.0	SCS215a	20111122.151339	20111122.151540	8	0.013325	60	10	60-180	60	64	GapExp	Blank	0	19	2	2	1	target	1	419	791	53360	13.328	10.220	16.442
ProbeTrack14	8	ProbeTrack	14.0	SCS215a	20111122.151339	20111122.151546	8	0.013325	60	10	60-180	60	162	GapExp	Blank	0	20	2	6	1	target	1	377	812	54172	13.328	3.448	23.214
ProbeTrack14	8	ProbeTrack	14.0	SCS215a	20111122.151339	20111122.151552	8	0.013325	60	10	60-180	60	148	GapExp	Blank	0	21	2	45	1	target	1	262	869	55041	13.328	13.120	13.536
ProbeTrack14	8	ProbeTrack	14.0	SCS215a	20111122.151339	20111122.151558	8	0.013325	60	10	60-180	60	73	GapExp	Blank	0	22	2	1	1	target	1	323	839	55880	13.328	13.110	13.537
ProbeTrack14	8	ProbeTrack	14.0	SCS215a	20111122.151339	20111122.151604	8	0.013325	60	10	60-180	60	97	GapExp	Blank	0	23	2	45	1	target	1	330	835	56715	13.328	13.303	13.345
ProbeTrack14	8	ProbeTrack	14.0	SCS215a	20111122.151339	20111122.151609	8	0.013325	60	10	60-180	60	138	GapExp	Blank	0	24	2	2	1	target	1	429	786	57501	13.328	12.835	13.814
ProbeTrack14	8	ProbeTrack	14.0	SCS215a	20111122.151339	20111122.151616	8	0.013325	60	10	60-180	60	75	GapExp	Blank	0	25	2	0	1	target	1	339	831	58332	13.328	10.566	16.096
ProbeTrack14	8	ProbeTrack	14.0	SCS215a	20111122.151339	20111122.151621	8	0.013325	60	10	60-180	60	106	GapExp	Blank	0	26	2	6	0	distractor	1	487	757	59089	13.328	10.250	16.425
ProbeTrack14	8	ProbeTrack	14.0	SCS215a	20111122.151339	20111122.151627	8	0.013325	60	10	60-180	60	64	GapExp	Blank	0	27	2	0	1	target	1	398	801	59890	13.328	9.207	17.444
ProbeTrack14	8	ProbeTrack	14.0	SCS215a	20111122.151339	20111122.151632	8	0.013325	60	10	60-180	60	101	GapExp	Blank	0	28	2	45	0	distractor	1	461	770	60660	13.328	10.182	16.476
ProbeTrack14	8	ProbeTrack	14.0	SCS215a	20111122.151339	20111122.151638	8	0.013325	60	10	60-180	60	115	GapExp	Blank	0	29	2	2	1	target	1	446	777	61437	13.328	8.933	17.724
ProbeTrack14	8	ProbeTrack	14.0	SCS215a	20111122.151339	20111122.151644	8	0.013325	60	10	60-180	60	86	GapExp	Blank	0	30	2	45	0	distractor	1	411	795	62232	13.328	10.546	16.105
ProbeTrack14	8	ProbeTrack	14.0	SCS215a	20111122.151339	20111122.151650	8	0.013325	60	10	60-180	60	70	GapExp	Blank	0	31	2	45	0	distractor	1	387	807	63039	13.328	11.516	15.147
ProbeTrack14	8	ProbeTrack	14.0	SCS215a	20111122.151339	20111122.151656	8	0.013325	60	10	60-180	60	151	GapExp	Blank	0	32	2	2	0	distractor	1	300	850	63889	13.328	9.156	17.500
ProbeTrack14	8	ProbeTrack	14.0	SCS215a	20111122.151339	20111122.151702	8	0.013325	60	10	60-180	60	176	GapExp	Blank	0	33	2	45	1	target	1	313	844	64733	13.328	6.276	20.399
ProbeTrack14	8	ProbeTrack	14.0	SCS215a	20111122.151339	20111122.151709	8	0.013325	60	10	60-180	60	171	GapExp	Blank	0	34	2	1	1	target	1	364	818	65551	13.328	13.098	13.554
ProbeTrack14	8	ProbeTrack	14.0	SCS215a	20111122.151339	20111122.151716	8	0.013325	60	10	60-180	60	120	GapExp	Blank	0	35	2	45	0	distractor	1	394	803	66354	13.328	5.877	20.794
ProbeTrack14	8	ProbeTrack	14.0	SCS215a	20111122.151339	20111122.151723	8	0.013325	60	10	60-180	60	155	GapExp	Blank	0	36	2	0	1	target	1	434	783	67137	13.328	6.907	19.750
ProbeTrack14	8	ProbeTrack	14.0	SCS215a	20111122.151339	20111122.151729	8	0.013325	60	10	60-180	60	68	GapExp	Blank	0	37	2	2	1	target	1	435	783	67920	13.328	13.114	13.550
ProbeTrack14	8	ProbeTrack	14.0	SCS215a	20111122.151339	20111122.151734	8	0.013325	60	10	60-180	60	180	GapExp	Blank	0	38	2	1	0	distractor	1	327	837	68757	13.328	11.172	15.478
ProbeTrack14	8	ProbeTrack	14.0	SCS215a	20111122.151339	20111122.151741	8	0.013325	60	10	60-180	60	118	GapExp	Blank	0	39	2	0	0	distractor	1	333	834	69591	13.328	7.059	19.601
ProbeTrack14	8	ProbeTrack	14.0	SCS215a	20111122.151339	20111122.151746	8	0.013325	60	10	60-180	60	86	GapExp	Blank	0	40	2	2	1	target	1	577	712	70303	13.328	8.668	17.995
ProbeTrack14	8	ProbeTrack	14.0	SCS215a	20111122.151339	20111122.151752	8	0.013325	60	10	60-180	60	110	GapExp	Blank	0	41	2	45	0	distractor	1	430	785	71088	13.328	13.186	13.558
ProbeTrack14	8	ProbeTrack	14.0	SCS215a	20111122.151339	20111122.151759	8	0.013325	60	10	60-180	60	135	GapExp	Blank	0	42	2	45	0	distractor	1	394	803	71891	13.328	13.298	13.351
ProbeTrack14	8	ProbeTrack	14.0	SCS215a	20111122.151339	20111122.151805	8	0.013325	60	10	60-180	60	139	GapExp	Blank	0	43	2	45	1	target	1	555	723	72614	13.328	10.527	15.227
ProbeTrack14	8	ProbeTrack	14.0	SCS215a	20111122.151339	20111122.151812	8	0.013325	60	10	60-180	60	153	GapExp	Blank	0	44	2	0	0	distractor	1	344	828	73442	13.328	13.100	13.564
ProbeTrack14	8	ProbeTrack	14.0	SCS215a	20111122.151339	20111122.151818	8	0.013325	60	10	60-180	60	138	GapExp	Blank	0	45	2	0	0	distractor	1	413	794	74236	13.328	13.099	13.569
ProbeTrack14	8	ProbeTrack	14.0	SCS215a	20111122.151339	20111122.151824	8	0.013325	60	10	60-180	60	99	GapExp	Blank	0	46	2	1	1	target	1	319	841	75077	13.328	12.315	14.341
ProbeTrack14	8	ProbeTrack	14.0	SCS215a	20111122.151339	20111122.151829	8	0.013325	60	10	60-180	60	114	GapExp	Blank	0	47	2	0	0	distractor	1	428	786	75863	13.328	9.632	17.030
ProbeTrack14	8	ProbeTrack	14.0	SCS215a	20111122.151339	20111122.151835	8	0.013325	60	10	60-180	60	179	GapExp	Blank	0	48	2	2	1	target	1	489	756	76619	13.328	10.152	16.490
ProbeTrack14	8	ProbeTrack	14.0	SCS215a	20111122.151339	20111122.151842	8	0.013325	60	10	60-180	60	127	GapExp	Blank	0	49	2	6	1	target	1	495	753	77372	13.328	12.999	13.659
ProbeTrack14	8	ProbeTrack	14.0	SCS215a	20111122.151339	20111122.151848	8	0.013325	60	10	60-180	60	133	GapExp	Blank	0	50	2	45	1	target	1	478	761	78133	13.328	13.101	13.557
ProbeTrack14	8	ProbeTrack	14.0	SCS215a	20111122.151339	20111122.151854	8	0.013325	60	10	60-180	60	109	GapExp	Blank	0	51	2	1	0	distractor	1	418	791	78924	13.328	13.087	13.563
ProbeTrack14	8	ProbeTrack	14.0	SCS215a	20111122.151339	20111122.151907	8	0.013325	60	10	60-180	60	143	GapExp	Blank	0	52	2	1	0	distractor	1	420	790	79714	13.328	9.244	17.414
ProbeTrack14	8	ProbeTrack	14.0	SCS215a	20111122.151339	20111122.151913	8	0.013325	60	10	60-180	60	130	GapExp	Blank	0	53	2	2	0	distractor	1	434	783	80497	13.328	4.514	22.149
ProbeTrack14	8	ProbeTrack	14.0	SCS215a	20111122.151339	20111122.151919	8	0.013325	60	10	60-180	60	64	GapExp	Blank	0	54	2	6	0	distractor	1	476	762	81259	13.328	13.294	13.353
ProbeTrack14	8	ProbeTrack	14.0	SCS215a	20111122.151339	20111122.151923	8	0.013325	60	10	60-180	60	111	GapExp	Blank	0	55	2	2	1	target	1	348	826	82085	13.319	11.409	13.346
ProbeTrack14	8	ProbeTrack	14.0	SCS215a	20111122.151339	20111122.151929	8	0.013325	60	10	60-180	60	123	GapExp	Blank	0	56	2	2	0	distractor	1	406	797	82882	13.328	7.866	18.791
ProbeTrack14	8	ProbeTrack	14.0	SCS215a	20111122.151339	20111122.151935	8	0.013325	60	10	60-180	60	105	GapExp	Blank	0	57	2	0	1	target	1	331	835	83717	13.328	13.289	13.362
ProbeTrack14	8	ProbeTrack	14.0	SCS215a	20111122.151339	20111122.151941	8	0.013325	60	10	60-180	60	164	GapExp	Blank	0	58	2	2	1	target	1	330	835	84552	13.328	13.308	13.346
ProbeTrack14	8	ProbeTrack	14.0	SCS215a	20111122.151339	20111122.151947	8	0.013325	60	10	60-180	60	167	GapExp	Blank	0	59	2	0	1	target	1	443	779	85331	13.328	13.308	13.358
ProbeTrack14	8	ProbeTrack	14.0	SCS215a	20111122.151339	20111122.151953	8	0.013325	60	10	60-180	60	172	GapExp	Blank	0	60	2	0	1	target	1	391	805	86136	13.328	9.047	17.608
ProbeTrack14	8	ProbeTrack	14.0	SCS215a	20111122.151339	20111122.152000	8	0.013325	60	10	60-180	60	132	GapExp	Blank	0	61	2	45	0	distractor	1	366	817	86953	13.328	12.774	13.876
ProbeTrack14	8	ProbeTrack	14.0	SCS215a	20111122.151339	20111122.152006	8	0.013325	60	10	60-180	60	77	GapExp	Blank	0	62	2	45	0	distractor	1	415	793	87746	13.328	12.358	14.302
ProbeTrack14	8	ProbeTrack	14.0	SCS215a	20111122.151339	20111122.152012	8	0.013325	60	10	60-180	60	156	GapExp	Blank	0	63	2	45	0	distractor	1	390	805	88551	13.328	10.083	16.574
ProbeTrack14	8	ProbeTrack	14.0	SCS215a	20111122.151339	20111122.152019	8	0.013325	60	10	60-180	60	163	GapExp	Blank	0	64	2	6	1	target	1	344	828	89379	13.328	13.106	13.564
ProbeTrack14	8	ProbeTrack	14.0	SCS215a	20111122.151339	20111122.152025	8	0.013325	60	10	60-180	60	130	GapExp	Blank	0	65	2	6	0	distractor	1	415	793	90172	13.328	13.101	13.549
ProbeTrack14	8	ProbeTrack	14.0	SCS215a	20111122.151339	20111122.152031	8	0.013325	60	10	60-180	60	108	GapExp	Blank	0	66	2	2	0	distractor	1	733	634	90806	13.328	13.098	13.559
ProbeTrack14	8	ProbeTrack	14.0	SCS215a	20111122.151339	20111122.152037	8	0.013325	60	10	60-180	60	61	GapExp	Blank	0	67	2	0	0	target	0	471	-1000	89806	13.328	9.906	18.616
ProbeTrack14	8	ProbeTrack	14.0	SCS215a	20111122.151339	20111122.152043	8	0.013325	60	10	60-180	60	128	GapExp	Blank	0	68	2	6	0	distractor	1	361	820	90626	13.328	9.391	17.280
ProbeTrack14	8	ProbeTrack	14.0	SCS215a	20111122.151339	20111122.152049	8	0.013325	60	10	60-180	60	104	GapExp	Blank	0	69	2	6	0	distractor	1	374	813	91439	13.328	5.960	18.624
ProbeTrack14	8	ProbeTrack	14.0	SCS215a	20111122.151339	20111122.152054	8	0.013325	60	10	60-180	60	76	GapExp	Blank	0	70	2	6	0	distractor	1	460	770	92209	13.328	13.297	13.367
ProbeTrack14	8	ProbeTrack	14.0	SCS215a	20111122.151339	20111122.152059	8	0.013325	60	10	60-180	60	119	GapExp	Blank	0	71	2	6	0	distractor	1	380	810	93019	13.328	7.679	18.970
ProbeTrack14	8	ProbeTrack	14.0	SCS215a	20111122.151339	20111122.152105	8	0.013325	60	10	60-180	60	61	GapExp	Blank	0	72	2	1	0	distractor	1	459	771	93790	13.328	7.251	19.419
ProbeTrack14	8	ProbeTrack	14.0	SCS215a	20111122.151339	20111122.152110	8	0.013325	60	10	60-180	60	157	GapExp	Blank	0	73	2	1	1	distractor	0	402	-1000	92790	13.328	10.811	15.844
ProbeTrack14	8	ProbeTrack	14.0	SCS215a	20111122.151339	20111122.152117	8	0.013325	60	10	60-180	60	109	GapExp	Blank	0	74	2	45	1	target	1	298	851	93641	13.328	13.307	13.347
ProbeTrack14	8	ProbeTrack	14.0	SCS215a	20111122.151339	20111122.152123	8	0.013325	60	10	60-180	60	161	GapExp	Blank	0	75	2	45	1	target	1	306	847	94488	13.328	8.659	18.008
ProbeTrack14	8	ProbeTrack	14.0	SCS215a	20111122.151339	20111122.152129	8	0.013325	60	10	60-180	60	95	GapExp	Blank	0	76	2	1	1	target	1	443	779	95267	13.328	7.841	18.816
ProbeTrack14	8	ProbeTrack	14.0	SCS215a	20111122.151339	20111122.152134	8	0.013325	60	10	60-180	60	173	GapExp	Blank	0	77	2	1	1	target	1	376	812	96079	13.328	13.089	13.569
ProbeTrack14	8	ProbeTrack	14.0	SCS215a	20111122.151339	20111122.152141	8	0.013325	60	10	60-180	60	139	GapExp	Blank	0	78	2	1	0	distractor	1	355	823	96902	13.328	8.113	18.556
ProbeTrack14	8	ProbeTrack	14.0	SCS215a	20111122.151339	20111122.152147	8	0.013325	60	10	60-180	60	139	GapExp	Blank	0	79	2	6	1	target	1	392	804	97706	13.328	13.308	13.359
ProbeTrack14	8	ProbeTrack	14.0	SCS215a	20111122.151339	20111122.152153	8	0.013325	60	10	60-180	60	66	GapExp	Blank	0	80	2	2	0	distractor	1	266	867	98573	13.328	13.154	13.502
ProbeTrack14	8	ProbeTrack	14.0	SCS215a	20111122.151339	20111122.152158	8	0.013325	60	10	60-180	60	116	GapExp	Blank	0	81	2	45	1	target	1	240	880	99453	13.328	11.012	15.643
ProbeTrack14	8	ProbeTrack	14.0	SCS215a	20111122.151339	20111122.152204	8	0.013325	60	10	60-180	60	85	GapExp	Blank	0	82	2	45	0	distractor	1	545	728	100181	13.328	13.307	13.344
ProbeTrack14	8	ProbeTrack	14.0	SCS215a	20111122.151339	20111122.152210	8	0.013325	60	10	60-180	60	143	GapExp	Blank	0	83	2	2	1	target	1	269	866	101047	13.328	12.918	13.744
ProbeTrack14	8	ProbeTrack	14.0	SCS215a	20111122.151339	20111122.152216	8	0.013325	60	10	60-180	60	155	GapExp	Blank	0	84	2	0	0	distractor	1	476	762	101809	13.328	8.455	18.194
ProbeTrack14	8	ProbeTrack	14.0	SCS215a	20111122.151339	20111122.152222	8	0.013325	60	10	60-180	60	108	GapExp	Blank	0	85	2	6	0	distractor	1	436	782	102591	13.328	9.091	17.579
ProbeTrack14	8	ProbeTrack	14.0	SCS215a	20111122.151339	20111122.152230	8	0.013325	60	10	60-180	60	130	GapExp	Blank	0	86	2	45	1	target	1	323	839	103430	13.328	6.658	20.006
ProbeTrack14	8	ProbeTrack	14.0	SCS215a	20111122.151339	20111122.152236	8	0.013325	60	10	60-180	60	156	GapExp	Blank	0	87	2	2	0	distractor	1	311	845	104275	13.328	11.600	15.055
ProbeTrack14	8	ProbeTrack	14.0	SCS215a	20111122.151339	20111122.152244	8	0.013325	60	10	60-180	60	90	GapExp	Blank	0	88	2	0	0	distractor	1	415	793	105068	13.328	9.456	17.200
ProbeTrack14	8	ProbeTrack	14.0	SCS215a	20111122.151339	20111122.152249	8	0.013325	60	10	60-180	60	113	GapExp	Blank	0	89	2	0	0	distractor	1	380	810	105878	13.328	13.308	13.346
ProbeTrack14	8	ProbeTrack	14.0	SCS215a	20111122.151339	20111122.152255	8	0.013325	60	10	60-180	60	142	GapExp	Blank	0	90	2	6	1	distractor	0	340	-1000	104878	13.328	13.308	13.348
ProbeTrack14	8	ProbeTrack	14.0	SCS215a	20111122.151339	20111122.152301	8	0.013325	60	10	60-180	60	121	GapExp	Blank	0	91	2	2	0	distractor	1	301	850	105728	13.328	12.414	14.221
ProbeTrack14	8	ProbeTrack	14.0	SCS215a	20111122.151339	20111122.152307	8	0.013325	60	10	60-180	60	121	GapExp	Blank	0	92	2	1	0	distractor	1	353	824	106552	13.328	13.093	13.564
ProbeTrack14	8	ProbeTrack	14.0	SCS215a	20111122.151339	20111122.152312	8	0.013325	60	10	60-180	60	76	GapExp	Blank	0	93	2	1	1	target	1	263	869	107421	13.328	10.629	16.027
ProbeTrack14	8	ProbeTrack	14.0	SCS215a	20111122.151339	20111122.152317	8	0.013325	60	10	60-180	60	116	GapExp	Blank	0	94	2	0	0	distractor	1	513	744	108165	13.328	12.988	13.674
ProbeTrack14	8	ProbeTrack	14.0	SCS215a	20111122.151339	20111122.152323	8	0.013325	60	10	60-180	60	104	GapExp	Blank	0	95	2	45	1	target	1	292	854	109019	13.328	10.363	16.294
ProbeTrack14	8	ProbeTrack	14.0	SCS215a	20111122.151339	20111122.152329	8	0.013325	60	10	60-180	60	126	GapExp	Blank	0	96	2	6	1	target	1	291	855	109874	13.328	10.602	16.049
ProbeTrack14	8	ProbeTrack	14.0	SCS215a	20111122.151339	20111122.152335	8	0.013325	60	10	60-180	60	121	GapExp	Blank	0	97	2	2	0	distractor	1	307	847	110721	13.328	5.822	20.829
ProbeTrack14	8	ProbeTrack	14.0	SCS215a	20111122.151339	20111122.152341	8	0.013325	60	10	60-180	60	132	GapExp	Blank	0	98	2	6	0	distractor	1	321	840	111561	13.381	11.462	26.377
ProbeTrack14	8	ProbeTrack	14.0	SCS215a	20111122.151339	20111122.152347	8	0.013325	60	10	60-180	60	84	GapExp	Blank	0	99	2	1	1	target	1	492	754	112315	13.392	8.358	26.585
ProbeTrack14	8	ProbeTrack	14.0	SCS215a	20111122.151339	20111122.152353	8	0.013325	60	10	60-180	60	95	GapExp	Blank	0	100	2	6	0	distractor	1	302	849	113164	13.328	12.067	14.588
ProbeTrack14	8	ProbeTrack	14.0	SCS215a	20111122.151339	20111122.152358	8	0.013325	60	10	60-180	60	114	GapExp	Blank	0	101	2	45	0	distractor	1	388	806	113970	13.328	9.136	17.513
ProbeTrack14	8	ProbeTrack	14.0	SCS215a	20111122.151339	20111122.152425	8	0.013325	60	10	60-180	60	97	GapExp	Blank	0	102	2	0	0	distractor	1	402	799	114769	13.390	7.019	20.852
ProbeTrack14	8	ProbeTrack	14.0	SCS215a	20111122.151339	20111122.152431	8	0.013325	60	10	60-180	60	70	GapExp	Blank	0	103	2	0	1	target	1	350	825	115594	13.328	7.567	19.082
ProbeTrack14	8	ProbeTrack	14.0	SCS215a	20111122.151339	20111122.152436	8	0.013325	60	10	60-180	60	138	GapExp	Blank	0	104	2	45	0	distractor	1	357	822	116416	13.418	11.792	38.625
ProbeTrack14	8	ProbeTrack	14.0	SCS215a	20111122.151339	20111122.152442	8	0.013325	60	10	60-180	60	138	GapExp	Blank	0	105	2	6	0	distractor	1	251	875	117291	13.328	9.159	17.502
ProbeTrack14	8	ProbeTrack	14.0	SCS215a	20111122.151339	20111122.152448	8	0.013325	60	10	60-180	60	179	GapExp	Blank	0	106	2	6	1	target	1	316	842	118133	13.328	10.033	16.623
ProbeTrack14	8	ProbeTrack	14.0	SCS215a	20111122.151339	20111122.152455	8	0.013325	60	10	60-180	60	128	GapExp	Blank	0	107	2	0	0	distractor	1	316	842	118975	13.328	13.309	13.348
ProbeTrack14	8	ProbeTrack	14.0	SCS215a	20111122.151339	20111122.152501	8	0.013325	60	10	60-180	60	176	GapExp	Blank	0	108	2	0	1	target	1	253	874	119849	13.375	12.247	22.954
ProbeTrack14	8	ProbeTrack	14.0	SCS215a	20111122.151339	20111122.152507	8	0.013325	60	10	60-180	60	132	GapExp	Blank	0	109	2	0	0	distractor	1	328	836	120685	13.328	13.304	13.349
ProbeTrack14	8	ProbeTrack	14.0	SCS215a	20111122.151339	20111122.152513	8	0.013325	60	10	60-180	60	98	GapExp	Blank	0	110	2	45	0	distractor	1	365	818	121503	13.328	8.136	18.515
ProbeTrack14	8	ProbeTrack	14.0	SCS215a	20111122.151339	20111122.152519	8	0.013325	60	10	60-180	60	174	GapExp	Blank	0	111	2	1	0	distractor	1	378	811	122314	13.328	12.344	14.392
ProbeTrack14	8	ProbeTrack	14.0	SCS215a	20111122.151339	20111122.152525	8	0.013325	60	10	60-180	60	125	GapExp	Blank	0	112	2	2	0	distractor	1	388	806	123120	13.328	12.377	14.280
ProbeTrack14	8	ProbeTrack	14.0	SCS215a	20111122.151339	20111122.152532	8	0.013325	60	10	60-180	60	111	GapExp	Blank	0	113	2	2	0	target	0	429	-1000	122120	13.328	7.832	18.824
ProbeTrack14	8	ProbeTrack	14.0	SCS215a	20111122.151339	20111122.152537	8	0.013325	60	10	60-180	60	76	GapExp	Blank	0	114	2	0	0	distractor	1	307	847	122967	13.328	5.573	21.089
ProbeTrack14	8	ProbeTrack	14.0	SCS215a	20111122.151339	20111122.152542	8	0.013325	60	10	60-180	60	108	GapExp	Blank	0	115	2	45	0	distractor	1	290	855	123822	13.328	8.385	18.284
ProbeTrack14	8	ProbeTrack	14.0	SCS215a	20111122.151339	20111122.152549	8	0.013325	60	10	60-180	60	157	GapExp	Blank	0	116	2	6	0	distractor	1	343	829	124651	13.328	10.855	15.806
ProbeTrack14	8	ProbeTrack	14.0	SCS215a	20111122.151339	20111122.152556	8	0.013325	60	10	60-180	60	115	GapExp	Blank	0	117	2	2	0	distractor	1	376	812	125463	13.328	6.882	19.775
ProbeTrack14	8	ProbeTrack	14.0	SCS215a	20111122.151339	20111122.152602	8	0.013325	60	10	60-180	60	120	GapExp	Blank	0	118	2	2	0	distractor	1	378	811	126274	13.328	12.933	13.714
ProbeTrack14	8	ProbeTrack	14.0	SCS215a	20111122.151339	20111122.152607	8	0.013325	60	10	60-180	60	153	GapExp	Blank	0	119	2	45	0	distractor	1	352	824	127098	13.328	13.092	13.559
ProbeTrack14	8	ProbeTrack	14.0	SCS215a	20111122.151339	20111122.152614	8	0.013325	60	10	60-180	60	146	GapExp	Blank	0	120	2	1	1	target	1	281	860	127958	13.328	9.365	17.292
ProbeTrack14	8	ProbeTrack	14.0	SCS215a	20111122.151339	20111122.152620	8	0.013325	60	10	60-180	60	69	GapExp	Blank	0	121	2	2	0	distractor	1	491	755	128713	13.328	11.759	14.904
ProbeTrack14	8	ProbeTrack	14.0	SCS215a	20111122.151339	20111122.152625	8	0.013325	60	10	60-180	60	132	GapExp	Blank	0	122	2	0	1	target	1	316	842	129555	13.328	7.644	18.998
ProbeTrack14	8	ProbeTrack	14.0	SCS215a	20111122.151339	20111122.152630	8	0.013325	60	10	60-180	60	87	GapExp	Blank	0	123	2	1	0	distractor	1	445	778	130333	13.328	13.308	13.347
ProbeTrack14	8	ProbeTrack	14.0	SCS215a	20111122.151339	20111122.152636	8	0.013325	60	10	60-180	60	118	GapExp	Blank	0	124	2	45	1	target	1	273	864	131197	13.328	12.109	14.541
ProbeTrack14	8	ProbeTrack	14.0	SCS215a	20111122.151339	20111122.152642	8	0.013325	60	10	60-180	60	155	GapExp	Blank	0	125	2	6	1	target	1	264	868	132065	13.328	11.042	15.594
ProbeTrack14	8	ProbeTrack	14.0	SCS215a	20111122.151339	20111122.152648	8	0.013325	60	10	60-180	60	103	GapExp	Blank	0	126	2	2	0	distractor	1	351	825	132890	13.328	7.297	19.366
ProbeTrack14	8	ProbeTrack	14.0	SCS215a	20111122.151339	20111122.152654	8	0.013325	60	10	60-180	60	137	GapExp	Blank	0	127	2	1	0	distractor	1	335	833	133723	13.328	8.635	18.003
ProbeTrack14	8	ProbeTrack	14.0	SCS215a	20111122.151339	20111122.152700	8	0.013325	60	10	60-180	60	114	GapExp	Blank	0	128	2	6	1	target	1	344	828	134551	13.328	9.534	18.091
ProbeTrack14	8	ProbeTrack	14.0	SCS215a	20111122.151339	20111122.152705	8	0.013325	60	10	60-180	60	157	GapExp	Blank	0	129	2	45	0	distractor	1	305	848	135399	13.328	9.339	17.312
ProbeTrack14	8	ProbeTrack	14.0	SCS215a	20111122.151339	20111122.152712	8	0.013325	60	10	60-180	60	68	GapExp	Blank	0	130	2	0	1	target	1	446	777	136176	13.399	10.270	26.343
ProbeTrack14	8	ProbeTrack	14.0	SCS215a	20111122.151339	20111122.152717	8	0.013325	60	10	60-180	60	73	GapExp	Blank	0	131	2	0	0	distractor	1	411	795	136971	13.328	6.892	19.751
ProbeTrack14	8	ProbeTrack	14.0	SCS215a	20111122.151339	20111122.152722	8	0.013325	60	10	60-180	60	66	GapExp	Blank	0	132	2	0	1	target	1	243	879	137850	13.328	7.963	18.707
ProbeTrack14	8	ProbeTrack	14.0	SCS215a	20111122.151339	20111122.152727	8	0.013325	60	10	60-180	60	169	GapExp	Blank	0	133	2	2	1	target	1	357	822	138672	13.328	11.704	14.965
ProbeTrack14	8	ProbeTrack	14.0	SCS215a	20111122.151339	20111122.152733	8	0.013325	60	10	60-180	60	81	GapExp	Blank	0	134	2	6	0	distractor	1	264	868	139540	13.328	12.317	14.340
ProbeTrack14	8	ProbeTrack	14.0	SCS215a	20111122.151339	20111122.152738	8	0.013325	60	10	60-180	60	138	GapExp	Blank	0	135	2	45	1	target	1	262	869	140409	13.374	10.747	23.692
ProbeTrack14	8	ProbeTrack	14.0	SCS215a	20111122.151339	20111122.152744	8	0.013325	60	10	60-180	60	108	GapExp	Blank	0	136	2	6	0	distractor	1	344	828	141237	13.328	12.869	13.806
ProbeTrack14	8	ProbeTrack	14.0	SCS215a	20111122.151339	20111122.152750	8	0.013325	60	10	60-180	60	171	GapExp	Blank	0	137	2	1	1	target	1	274	863	142100	13.328	9.011	17.646
ProbeTrack14	8	ProbeTrack	14.0	SCS215a	20111122.151339	20111122.152756	8	0.013325	60	10	60-180	60	143	GapExp	Blank	0	138	2	45	0	distractor	1	325	838	142938	13.372	5.304	25.424
ProbeTrack14	8	ProbeTrack	14.0	SCS215a	20111122.151339	20111122.152803	8	0.013325	60	10	60-180	60	166	GapExp	Blank	0	139	2	2	0	distractor	1	390	805	143743	13.375	13.210	21.636
ProbeTrack14	8	ProbeTrack	14.0	SCS215a	20111122.151339	20111122.152809	8	0.013325	60	10	60-180	60	95	GapExp	Blank	0	140	2	0	1	distractor	0	298	-1000	142743	13.364	6.934	21.536
ProbeTrack14	8	ProbeTrack	14.0	SCS215a	20111122.151339	20111122.152814	8	0.013325	60	10	60-180	60	168	GapExp	Blank	0	141	2	6	1	target	1	312	844	143587	13.328	13.088	13.566
ProbeTrack14	8	ProbeTrack	14.0	SCS215a	20111122.151339	20111122.152821	8	0.013325	60	10	60-180	60	72	GapExp	Blank	0	142	2	0	0	distractor	1	509	746	144333	13.328	8.344	18.305
ProbeTrack14	8	ProbeTrack	14.0	SCS215a	20111122.151339	20111122.152826	8	0.013325	60	10	60-180	60	171	GapExp	Blank	0	143	2	1	0	distractor	1	344	828	145161	13.328	12.975	13.683
ProbeTrack14	8	ProbeTrack	14.0	SCS215a	20111122.151339	20111122.152833	8	0.013325	60	10	60-180	60	172	GapExp	Blank	0	144	2	2	1	target	1	342	829	145990	13.328	13.302	13.346
ProbeTrack14	8	ProbeTrack	14.0	SCS215a	20111122.151339	20111122.152839	8	0.013325	60	10	60-180	60	100	GapExp	Blank	0	145	2	6	1	target	1	283	859	146849	13.390	5.502	23.300
ProbeTrack14	8	ProbeTrack	14.0	SCS215a	20111122.151339	20111122.152844	8	0.013325	60	10	60-180	60	138	GapExp	Blank	0	146	2	1	0	distractor	1	339	831	147680	13.381	10.245	22.020
ProbeTrack14	8	ProbeTrack	14.0	SCS215a	20111122.151339	20111122.152850	8	0.013325	60	10	60-180	60	134	GapExp	Blank	0	147	2	1	0	distractor	1	658	671	148351	13.328	11.972	14.678
ProbeTrack14	8	ProbeTrack	14.0	SCS215a	20111122.151339	20111122.152856	8	0.013325	60	10	60-180	60	145	GapExp	Blank	0	148	2	0	1	target	1	310	845	149196	13.328	8.329	18.077
ProbeTrack14	8	ProbeTrack	14.0	SCS215a	20111122.151339	20111122.152902	8	0.013325	60	10	60-180	60	62	GapExp	Blank	0	149	2	1	1	target	1	301	850	150046	13.328	8.958	17.699
ProbeTrack14	8	ProbeTrack	14.0	SCS215a	20111122.151339	20111122.152907	8	0.013325	60	10	60-180	60	86	GapExp	Blank	0	150	2	0	0	distractor	1	372	814	150860	13.328	9.180	17.469
ProbeTrack14	8	ProbeTrack	14.0	SCS215a	20111122.151339	20111122.152912	8	0.013325	60	10	60-180	60	142	GapExp	Blank	0	151	2	2	1	target	1	224	888	151748	13.328	8.817	17.862
ProbeTrack14	8	ProbeTrack	14.0	SCS215a	20111122.151339	20111122.152918	8	0.013325	60	10	60-180	60	98	GapExp	Blank	0	152	2	45	1	target	1	311	845	152593	13.328	12.917	13.936
ProbeTrack14	8	ProbeTrack	14.0	SCS215a	20111122.151339	20111122.152924	8	0.013325	60	10	60-180	60	164	GapExp	Blank	0	153	2	2	1	distractor	0	273	-1000	151593	13.327	11.642	15.028
ProbeTrack14	8	ProbeTrack	14.0	SCS215a	20111122.151339	20111122.152930	8	0.013325	60	10	60-180	60	154	GapExp	Blank	0	154	2	45	0	distractor	1	342	829	152422	13.328	13.094	13.570
ProbeTrack14	8	ProbeTrack	14.0	SCS215a	20111122.151339	20111122.152938	8	0.013325	60	10	60-180	60	68	GapExp	Blank	0	155	2	1	0	target	0	374	-1000	151422	13.328	11.040	15.617
ProbeTrack14	8	ProbeTrack	14.0	SCS215a	20111122.151339	20111122.152943	8	0.013325	60	10	60-180	60	176	GapExp	Blank	0	156	2	1	0	target	0	267	-1000	150422	13.328	13.107	13.563
ProbeTrack14	8	ProbeTrack	14.0	SCS215a	20111122.151339	20111122.152949	8	0.013325	60	10	60-180	60	105	GapExp	Blank	0	157	2	0	1	target	1	394	803	151225	13.328	8.358	18.298
ProbeTrack14	8	ProbeTrack	14.0	SCS215a	20111122.151339	20111122.153002	8	0.013325	60	10	60-180	60	171	GapExp	Blank	0	158	2	45	1	target	1	317	842	152067	13.369	13.091	22.753
ProbeTrack14	8	ProbeTrack	14.0	SCS215a	20111122.151339	20111122.153009	8	0.013325	60	10	60-180	60	110	GapExp	Blank	0	159	2	0	1	target	1	332	834	152901	13.328	7.536	19.127
ProbeTrack14	8	ProbeTrack	14.0	SCS215a	20111122.151339	20111122.153015	8	0.013325	60	10	60-180	60	86	GapExp	Blank	0	160	2	45	1	target	1	359	821	153722	13.328	8.909	17.754
ProbeTrack14	8	ProbeTrack	14.0	SCS215a	20111122.151339	20111122.153021	8	0.013325	60	10	60-180	60	120	GapExp	Blank	0	161	2	2	1	target	1	279	861	154583	13.328	9.293	17.592
ProbeTrack14	8	ProbeTrack	14.0	SCS215a	20111122.151339	20111122.153027	8	0.013325	60	10	60-180	60	149	GapExp	Blank	0	162	2	1	0	distractor	1	570	715	155298	13.328	11.151	15.511
ProbeTrack14	8	ProbeTrack	14.0	SCS215a	20111122.151339	20111122.153033	8	0.013325	60	10	60-180	60	167	GapExp	Blank	0	163	2	6	1	target	1	261	870	156168	13.328	13.098	13.571
ProbeTrack14	8	ProbeTrack	14.0	SCS215a	20111122.151339	20111122.153040	8	0.013325	60	10	60-180	60	132	GapExp	Blank	0	164	2	1	0	distractor	1	352	824	156992	13.328	8.728	17.933
ProbeTrack14	8	ProbeTrack	14.0	SCS215a	20111122.151339	20111122.153046	8	0.013325	60	10	60-180	60	115	GapExp	Blank	0	165	2	45	1	target	1	267	867	157859	13.378	8.235	21.265
ProbeTrack14	8	ProbeTrack	14.0	SCS215a	20111122.151339	20111122.153052	8	0.013325	60	10	60-180	60	73	GapExp	Blank	0	166	2	1	1	target	1	393	804	158663	13.328	9.131	17.520
ProbeTrack14	8	ProbeTrack	14.0	SCS215a	20111122.151339	20111122.153057	8	0.013325	60	10	60-180	60	126	GapExp	Blank	0	167	2	0	1	target	1	275	863	159526	13.328	11.325	15.325
ProbeTrack14	8	ProbeTrack	14.0	SCS215a	20111122.151339	20111122.153102	8	0.013325	60	10	60-180	60	134	GapExp	Blank	0	168	2	6	0	distractor	1	488	756	160282	13.378	13.101	20.907
ProbeTrack14	8	ProbeTrack	14.0	SCS215a	20111122.151339	20111122.153109	8	0.013325	60	10	60-180	60	110	GapExp	Blank	0	169	2	1	1	target	1	442	779	161061	13.328	7.486	19.172
ProbeTrack14	8	ProbeTrack	14.0	SCS215a	20111122.151339	20111122.153114	8	0.013325	60	10	60-180	60	167	GapExp	Blank	0	170	2	2	0	distractor	1	336	832	161893	13.328	13.106	13.557
ProbeTrack14	8	ProbeTrack	14.0	SCS215a	20111122.151339	20111122.153121	8	0.013325	60	10	60-180	60	155	GapExp	Blank	0	171	2	45	0	distractor	1	572	714	162607	13.328	13.087	13.550
ProbeTrack14	8	ProbeTrack	14.0	SCS215a	20111122.151339	20111122.153128	8	0.013325	60	10	60-180	60	134	GapExp	Blank	0	172	2	45	0	distractor	1	408	796	163403	13.328	8.232	18.424
ProbeTrack14	8	ProbeTrack	14.0	SCS215a	20111122.151339	20111122.153134	8	0.013325	60	10	60-180	60	144	GapExp	Blank	0	173	2	2	0	distractor	1	395	803	164206	13.328	8.937	17.719
ProbeTrack14	8	ProbeTrack	14.0	SCS215a	20111122.151339	20111122.153141	8	0.013325	60	10	60-180	60	138	GapExp	Blank	0	174	2	2	0	distractor	1	342	829	165035	13.381	6.138	26.399
ProbeTrack14	8	ProbeTrack	14.0	SCS215a	20111122.151339	20111122.153147	8	0.013325	60	10	60-180	60	131	GapExp	Blank	0	175	2	6	0	distractor	1	380	810	165845	13.328	8.522	18.135
ProbeTrack14	8	ProbeTrack	14.0	SCS215a	20111122.151339	20111122.153153	8	0.013325	60	10	60-180	60	125	GapExp	Blank	0	176	2	2	1	target	1	336	832	166677	13.328	8.029	18.626
ProbeTrack14	8	ProbeTrack	14.0	SCS215a	20111122.151339	20111122.153158	8	0.013325	60	10	60-180	60	113	GapExp	Blank	0	177	2	6	1	target	1	355	823	167500	13.328	12.339	14.317
ProbeTrack14	8	ProbeTrack	14.0	SCS215a	20111122.151339	20111122.153204	8	0.013325	60	10	60-180	60	142	GapExp	Blank	0	178	2	0	0	distractor	1	331	835	168335	13.328	7.623	19.039
ProbeTrack14	8	ProbeTrack	14.0	SCS215a	20111122.151339	20111122.153210	8	0.013325	60	10	60-180	60	112	GapExp	Blank	0	179	2	1	0	distractor	1	361	820	169155	13.328	10.664	15.991
ProbeTrack14	8	ProbeTrack	14.0	SCS215a	20111122.151339	20111122.153216	8	0.013325	60	10	60-180	60	134	GapExp	Blank	0	180	2	0	0	distractor	1	310	845	170000	13.328	13.034	13.634
ProbeTrack14	8	ProbeTrack	14.0	SCS215a	20111122.151339	20111122.153222	8	0.013325	60	10	60-180	60	96	GapExp	Blank	0	181	2	2	0	distractor	1	404	798	170798	13.390	7.984	22.990
ProbeTrack14	8	ProbeTrack	14.0	SCS215a	20111122.151339	20111122.153227	8	0.013325	60	10	60-180	60	169	GapExp	Blank	0	182	2	1	0	distractor	1	350	825	171623	13.328	13.307	13.348
ProbeTrack14	8	ProbeTrack	14.0	SCS215a	20111122.151339	20111122.153233	8	0.013325	60	10	60-180	60	160	GapExp	Blank	0	183	2	6	0	distractor	1	275	863	172486	13.328	6.344	19.623
ProbeTrack14	8	ProbeTrack	14.0	SCS215a	20111122.151339	20111122.153239	8	0.013325	60	10	60-180	60	86	GapExp	Blank	0	184	2	0	1	target	1	313	844	173330	13.328	8.435	18.226
ProbeTrack14	8	ProbeTrack	14.0	SCS215a	20111122.151339	20111122.153244	8	0.013325	60	10	60-180	60	152	GapExp	Blank	0	185	2	2	1	target	1	267	867	174197	13.328	8.602	18.054
ProbeTrack14	8	ProbeTrack	14.0	SCS215a	20111122.151339	20111122.153251	8	0.013325	60	10	60-180	60	131	GapExp	Blank	0	186	2	1	0	distractor	1	312	844	175041	13.328	10.194	16.462
ProbeTrack14	8	ProbeTrack	14.0	SCS215a	20111122.151339	20111122.153256	8	0.013325	60	10	60-180	60	82	GapExp	Blank	0	187	2	1	1	target	1	225	888	175929	13.328	13.307	13.347
ProbeTrack14	8	ProbeTrack	14.0	SCS215a	20111122.151339	20111122.153301	8	0.013325	60	10	60-180	60	143	GapExp	Blank	0	188	2	0	0	distractor	1	234	883	176812	13.328	6.724	19.925
ProbeTrack14	8	ProbeTrack	14.0	SCS215a	20111122.151339	20111122.153307	8	0.013325	60	10	60-180	60	97	GapExp	Blank	0	189	2	1	1	target	1	252	874	177686	13.328	11.659	15.030
ProbeTrack14	8	ProbeTrack	14.0	SCS215a	20111122.151339	20111122.153312	8	0.013325	60	10	60-180	60	124	GapExp	Blank	0	190	2	45	0	distractor	1	487	757	178443	13.374	8.854	26.675
ProbeTrack14	8	ProbeTrack	14.0	SCS215a	20111122.151339	20111122.153319	8	0.013325	60	10	60-180	60	117	GapExp	Blank	0	191	2	1	1	target	1	294	853	179296	13.387	9.307	29.235
ProbeTrack14	8	ProbeTrack	14.0	SCS215a	20111122.151339	20111122.153325	8	0.013325	60	10	60-180	60	100	GapExp	Blank	0	192	2	1	1	target	1	300	850	180146	13.328	13.288	13.367
ProbeTrack14	8	ProbeTrack	14.0	SCS215a	20111122.151339	20111122.153330	8	0.013325	60	10	60-180	60	88	GapExp	Blank	0	193	2	2	1	target	1	248	876	181022	13.328	13.102	13.554
ProbeTrack14	8	ProbeTrack	14.0	SCS215a	20111122.151339	20111122.153335	8	0.013325	60	10	60-180	60	113	GapExp	Blank	0	194	2	45	1	target	1	357	822	181844	13.328	12.129	14.519
ProbeTrack14	8	ProbeTrack	14.0	SCS215a	20111122.151339	20111122.153341	8	0.013325	60	10	60-180	60	157	GapExp	Blank	0	195	2	2	1	target	1	320	840	182684	13.328	13.120	13.543
ProbeTrack14	8	ProbeTrack	14.0	SCS215a	20111122.151339	20111122.153347	8	0.013325	60	10	60-180	60	168	GapExp	Blank	0	196	2	2	1	target	1	338	831	183515	13.328	13.307	13.356
ProbeTrack14	8	ProbeTrack	14.0	SCS215a	20111122.151339	20111122.153400	8	0.013325	60	10	60-180	60	87	GapExp	Blank	0	197	2	6	1	target	1	244	878	184393	13.328	11.316	15.339
ProbeTrack14	8	ProbeTrack	14.0	SCS215a	20111122.151339	20111122.153406	8	0.013325	60	10	60-180	60	101	GapExp	Blank	0	198	2	45	0	distractor	1	435	783	185176	13.328	13.308	13.349
ProbeTrack14	8	ProbeTrack	14.0	SCS215a	20111122.151339	20111122.153412	8	0.013325	60	10	60-180	60	159	GapExp	Blank	0	199	2	2	1	target	1	218	891	186067	13.328	10.733	15.916
ProbeTrack14	8	ProbeTrack	14.0	SCS215a	20111122.151339	20111122.153418	8	0.013325	60	10	60-180	60	159	GapExp	Blank	0	200	2	1	0	distractor	1	370	815	186882	13.328	13.307	13.348
ProbeTrack14	8	ProbeTrack	14.0	SCS215a	20111122.151339	20111122.153426	8	0.013325	60	10	60-180	60	119	GapExp	Blank	0	201	2	1	1	target	1	350	825	187707	13.328	9.720	16.951
ProbeTrack14	8	ProbeTrack	14.0	SCS215a	20111122.151339	20111122.153432	8	0.013325	60	10	60-180	60	112	GapExp	Blank	0	202	2	1	1	target	1	254	873	188580	13.328	12.836	13.825
ProbeTrack14	8	ProbeTrack	14.0	SCS215a	20111122.151339	20111122.153437	8	0.013325	60	10	60-180	60	91	GapExp	Blank	0	203	2	6	1	target	1	265	868	189448	13.328	9.042	17.607
ProbeTrack14	8	ProbeTrack	14.0	SCS215a	20111122.151339	20111122.153443	8	0.013325	60	10	60-180	60	141	GapExp	Blank	0	204	2	6	1	distractor	0	234	-1000	188448	13.328	13.298	13.356
ProbeTrack14	8	ProbeTrack	14.0	SCS215a	20111122.151339	20111122.153449	8	0.013325	60	10	60-180	60	91	GapExp	Blank	0	205	2	6	0	distractor	1	571	715	189163	13.328	8.598	18.065
ProbeTrack14	8	ProbeTrack	14.0	SCS215a	20111122.151339	20111122.153454	8	0.013325	60	10	60-180	60	62	GapExp	Blank	0	206	2	1	1	target	1	291	855	190018	13.328	13.309	13.345
ProbeTrack14	8	ProbeTrack	14.0	SCS215a	20111122.151339	20111122.153459	8	0.013325	60	10	60-180	60	126	GapExp	Blank	0	207	2	6	0	distractor	1	357	822	190840	13.328	5.896	20.767
ProbeTrack14	8	ProbeTrack	14.0	SCS215a	20111122.151339	20111122.153505	8	0.013325	60	10	60-180	60	84	GapExp	Blank	0	208	2	45	1	target	1	294	853	191693	13.328	13.099	13.557
ProbeTrack14	8	ProbeTrack	14.0	SCS215a	20111122.151339	20111122.153511	8	0.013325	60	10	60-180	60	144	GapExp	Blank	0	209	2	45	1	target	1	435	783	192476	13.328	6.653	19.987
ProbeTrack14	8	ProbeTrack	14.0	SCS215a	20111122.151339	20111122.153517	8	0.013325	60	10	60-180	60	153	GapExp	Blank	0	210	2	2	0	distractor	1	418	791	193267	13.328	13.282	13.368
ProbeTrack14	8	ProbeTrack	14.0	SCS215a	20111122.151339	20111122.153523	8	0.013325	60	10	60-180	60	129	GapExp	Blank	0	211	2	0	0	distractor	1	374	813	194080	13.328	8.007	18.654
ProbeTrack14	8	ProbeTrack	14.0	SCS215a	20111122.151339	20111122.153529	8	0.013325	60	10	60-180	60	78	GapExp	Blank	0	212	2	6	1	target	1	298	851	194931	13.328	13.309	13.352
ProbeTrack14	8	ProbeTrack	14.0	SCS215a	20111122.151339	20111122.153535	8	0.013325	60	10	60-180	60	178	GapExp	Blank	0	213	2	0	0	distractor	1	356	822	195753	13.328	10.456	16.180
ProbeTrack14	8	ProbeTrack	14.0	SCS215a	20111122.151339	20111122.153542	8	0.013325	60	10	60-180	60	92	GapExp	Blank	0	214	2	45	0	distractor	1	383	809	196562	13.328	13.103	13.547
ProbeTrack14	8	ProbeTrack	14.0	SCS215a	20111122.151339	20111122.153548	8	0.013325	60	10	60-180	60	117	GapExp	Blank	0	215	2	0	0	distractor	1	528	736	197298	13.328	13.279	13.381
ProbeTrack14	8	ProbeTrack	14.0	SCS215a	20111122.151339	20111122.153554	8	0.013325	60	10	60-180	60	70	GapExp	Blank	0	216	2	2	0	distractor	1	280	860	198158	13.328	13.307	13.355
ProbeTrack14	8	ProbeTrack	14.0	SCS215a	20111122.151339	20111122.153559	8	0.013325	60	10	60-180	60	145	GapExp	Blank	0	217	2	6	1	target	1	270	865	199023	13.328	6.893	19.756
ProbeTrack14	8	ProbeTrack	14.0	SCS215a	20111122.151339	20111122.153605	8	0.013325	60	10	60-180	60	154	GapExp	Blank	0	218	2	1	0	distractor	1	301	850	199873	13.328	10.412	16.239
ProbeTrack14	8	ProbeTrack	14.0	SCS215a	20111122.151339	20111122.153611	8	0.013325	60	10	60-180	60	73	GapExp	Blank	0	219	2	6	1	target	1	415	793	200666	13.328	13.301	13.361
ProbeTrack14	8	ProbeTrack	14.0	SCS215a	20111122.151339	20111122.153616	8	0.013325	60	10	60-180	60	149	GapExp	Blank	0	220	2	2	0	distractor	1	778	611	201277	13.328	13.109	13.555
ProbeTrack14	8	ProbeTrack	14.0	SCS215a	20111122.151339	20111122.153623	8	0.013325	60	10	60-180	60	157	GapExp	Blank	0	221	2	0	1	target	1	263	869	202146	13.328	13.113	13.538
ProbeTrack14	8	ProbeTrack	14.0	SCS215a	20111122.151339	20111122.153629	8	0.013325	60	10	60-180	60	109	GapExp	Blank	0	222	2	6	0	distractor	1	342	829	202975	13.328	6.638	20.024
ProbeTrack14	8	ProbeTrack	14.0	SCS215a	20111122.151339	20111122.153634	8	0.013325	60	10	60-180	60	179	GapExp	Blank	0	223	2	1	1	target	1	346	827	203802	13.328	13.309	13.348
ProbeTrack14	8	ProbeTrack	14.0	SCS215a	20111122.151339	20111122.153641	8	0.013325	60	10	60-180	60	85	GapExp	Blank	0	224	2	0	1	target	1	304	848	204650	13.328	8.594	18.070
ProbeTrack14	8	ProbeTrack	14.0	SCS215a	20111122.151339	20111122.153646	8	0.013325	60	10	60-180	60	69	GapExp	Blank	0	225	2	1	1	target	1	226	887	205537	13.328	11.521	15.129
ProbeTrack14	8	ProbeTrack	14.0	SCS215a	20111122.151339	20111122.153651	8	0.013325	60	10	60-180	60	177	GapExp	Blank	0	226	2	45	1	target	1	243	879	206416	13.328	13.310	13.347
ProbeTrack14	8	ProbeTrack	14.0	SCS215a	20111122.151339	20111122.153658	8	0.013325	60	10	60-180	60	160	GapExp	Blank	0	227	2	1	0	distractor	1	397	802	207218	13.328	13.114	13.553
ProbeTrack14	8	ProbeTrack	14.0	SCS215a	20111122.151339	20111122.153704	8	0.013325	60	10	60-180	60	155	GapExp	Blank	0	228	2	6	0	distractor	1	256	872	208090	13.328	8.314	18.348
ProbeTrack14	8	ProbeTrack	14.0	SCS215a	20111122.151339	20111122.153710	8	0.013325	60	10	60-180	60	144	GapExp	Blank	0	229	2	0	1	target	1	256	872	208962	13.328	6.575	20.080
ProbeTrack14	8	ProbeTrack	14.0	SCS215a	20111122.151339	20111122.153717	8	0.013325	60	10	60-180	60	166	GapExp	Blank	0	230	2	2	0	distractor	1	312	844	209806	13.328	10.461	16.203
ProbeTrack14	8	ProbeTrack	14.0	SCS215a	20111122.151339	20111122.153723	8	0.013325	60	10	60-180	60	128	GapExp	Blank	0	231	2	45	0	distractor	1	584	708	210514	13.328	8.113	18.531
ProbeTrack14	8	ProbeTrack	14.0	SCS215a	20111122.151339	20111122.153730	8	0.013325	60	10	60-180	60	124	GapExp	Blank	0	232	2	6	1	target	1	242	879	211393	13.328	13.295	13.352
ProbeTrack14	8	ProbeTrack	14.0	SCS215a	20111122.151339	20111122.153735	8	0.013325	60	10	60-180	60	118	GapExp	Blank	0	233	2	1	0	distractor	1	348	826	212219	13.328	10.596	16.069
ProbeTrack14	8	ProbeTrack	14.0	SCS215a	20111122.151339	20111122.153741	8	0.013325	60	10	60-180	60	167	GapExp	Blank	0	234	2	0	0	distractor	1	350	825	213044	13.328	10.015	16.641
ProbeTrack14	8	ProbeTrack	14.0	SCS215a	20111122.151339	20111122.153747	8	0.013325	60	10	60-180	60	116	GapExp	Blank	0	235	2	1	0	distractor	1	400	800	213844	13.328	7.785	18.876
ProbeTrack14	8	ProbeTrack	14.0	SCS215a	20111122.151339	20111122.153753	8	0.013325	60	10	60-180	60	173	GapExp	Blank	0	236	2	6	1	target	1	264	868	214712	13.328	11.423	15.220
ProbeTrack14	8	ProbeTrack	14.0	SCS215a	20111122.151339	20111122.153759	8	0.013325	60	10	60-180	60	160	GapExp	Blank	0	237	2	6	0	distractor	1	279	861	215573	13.328	13.298	13.346
ProbeTrack14	8	ProbeTrack	14.0	SCS215a	20111122.151339	20111122.153806	8	0.013325	60	10	60-180	60	130	GapExp	Blank	0	238	2	0	1	target	1	482	759	216332	13.328	10.469	18.110
ProbeTrack14	8	ProbeTrack	14.0	SCS215a	20111122.151339	20111122.153812	8	0.013325	60	10	60-180	60	123	GapExp	Blank	0	239	2	45	1	target	1	318	841	217173	13.328	9.818	16.837
ProbeTrack14	8	ProbeTrack	14.0	SCS215a	20111122.151339	20111122.153818	8	0.013325	60	10	60-180	60	138	GapExp	Blank	0	240	2	45	1	distractor	0	413	-1000	216173	13.328	13.299	13.359
ProbeTrack14	8	ProbeTrack	14.0	SCS215a	20111122.151339	20111122.153825	8	0.013325	60	10	60-180	60	141	GapExp	Blank	0	241	2	2	1	target	1	273	864	217037	13.328	8.075	18.591
ProbeTrack14	8	ProbeTrack	14.0	SCS215a	20111122.151339	20111122.153830	8	0.013325	60	10	60-180	60	79	GapExp	Blank	0	242	2	6	1	target	1	294	853	217890	13.328	8.316	18.322
ProbeTrack14	8	ProbeTrack	14.0	SCS215a	20111122.151339	20111122.153835	8	0.013325	60	10	60-180	60	155	GapExp	Blank	0	243	2	2	1	target	1	249	876	218766	13.328	13.122	13.538
ProbeTrack14	8	ProbeTrack	14.0	SCS215a	20111122.151339	20111122.153842	8	0.013325	60	10	60-180	60	110	GapExp	Blank	0	244	2	1	1	target	1	326	837	219603	13.328	13.309	13.349
ProbeTrack14	8	ProbeTrack	14.0	SCS215a	20111122.151339	20111122.153847	8	0.013325	60	10	60-180	60	151	GapExp	Blank	0	245	2	6	1	target	1	252	874	220477	13.328	9.509	17.154
ProbeTrack14	8	ProbeTrack	14.0	SCS215a	20111122.151339	20111122.153854	8	0.013325	60	10	60-180	60	156	GapExp	Blank	0	246	2	0	1	target	1	324	838	221315	13.328	12.433	14.203
ProbeTrack14	8	ProbeTrack	14.0	SCS215a	20111122.151339	20111122.153900	8	0.013325	60	10	60-180	60	163	GapExp	Blank	0	247	2	0	1	target	1	260	870	222185	13.328	13.309	13.353
ProbeTrack14	8	ProbeTrack	14.0	SCS215a	20111122.151339	20111122.153907	8	0.013325	60	10	60-180	60	123	GapExp	Blank	0	248	2	2	0	distractor	1	453	774	222959	13.328	13.307	13.355
ProbeTrack14	8	ProbeTrack	14.0	SCS215a	20111122.151339	20111122.153913	8	0.013325	60	10	60-180	60	91	GapExp	Blank	0	249	2	0	0	distractor	1	429	786	223745	13.328	7.009	19.652
ProbeTrack14	8	ProbeTrack	14.0	SCS215a	20111122.151339	20111122.153918	8	0.013325	60	10	60-180	60	121	GapExp	Blank	0	250	2	2	1	target	1	266	867	224612	13.328	13.125	13.539
