exp	sub	code	rev	comp	runtime	trialtime	stdt	nstim	refreshdur	cuedur	gapdur	gapOnsetRange	durPostProbe	gapOnsetTime	blocktype	prac	trial	ntargets	soa	probeTarget	resp	acc	rt	pts	tpts	meanFrameDur	minFrameDur	maxFrameDur
DTProbeTrack03	3	ProbeTrackDT	1.1	SCS215a	20101029.133410	20101029.133433	single-task	8	0.013345	60	0	60-180	60	162	NoGap	1	1	2	45	1	target	1	1746	127	127	13.328	12.886	13.775
DTProbeTrack03	3	ProbeTrackDT	1.1	SCS215a	20101029.133410	20101029.133441	single-task	8	0.013345	60	0	60-180	60	83	NoGap	1	2	2	3	0	distractor	1	1013	494	621	13.328	13.092	13.562
DTProbeTrack03	3	ProbeTrackDT	1.1	SCS215a	20101029.133410	20101029.133447	single-task	8	0.013345	60	0	60-180	60	140	NoGap	1	3	2	1	1	distractor	0	427	-1000	-379	13.328	13.302	13.350
DTProbeTrack03	3	ProbeTrackDT	1.1	SCS215a	20101029.133410	20101029.133452	single-task	8	0.013345	60	0	60-180	60	65	NoGap	1	4	2	1	1	target	1	773	614	235	13.328	13.303	13.354
DTProbeTrack03	3	ProbeTrackDT	1.1	SCS215a	20101029.133410	20101029.133457	single-task	8	0.013345	60	0	60-180	60	148	NoGap	1	5	2	1	0	distractor	1	534	733	968	13.328	12.925	13.740
DTProbeTrack03	3	ProbeTrackDT	1.1	SCS215a	20101029.133410	20101029.133503	single-task	8	0.013345	60	0	60-180	60	114	NoGap	1	6	2	9	0	distractor	1	613	694	1662	13.382	13.116	26.664
DTProbeTrack03	3	ProbeTrackDT	1.1	SCS215a	20101029.133410	20101029.133509	single-task	8	0.013345	60	0	60-180	60	145	NoGap	1	7	2	3	1	distractor	0	614	-1000	662	13.328	12.897	13.763
DTProbeTrack03	3	ProbeTrackDT	1.1	SCS215a	20101029.133410	20101029.133515	single-task	8	0.013345	60	0	60-180	60	157	NoGap	1	8	2	9	1	target	1	347	827	1489	13.328	12.904	13.740
DTProbeTrack03	3	ProbeTrackDT	1.1	SCS215a	20101029.133410	20101029.133520	single-task	8	0.013345	60	0	60-180	60	179	NoGap	1	9	2	6	1	target	1	627	687	2176	13.328	13.215	13.442
DTProbeTrack03	3	ProbeTrackDT	1.1	SCS215a	20101029.133410	20101029.133527	single-task	8	0.013345	60	0	60-180	60	69	NoGap	1	10	2	3	0	distractor	1	560	720	2896	13.540	13.284	26.678
DTProbeTrack03	3	ProbeTrackDT	1.1	SCS215a	20101029.133410	20101029.133532	single-task	8	0.013345	60	0	60-180	60	137	NoGap	1	11	2	9	1	target	1	427	787	3683	13.328	12.874	13.794
DTProbeTrack03	3	ProbeTrackDT	1.1	SCS215a	20101029.133410	20101029.133537	single-task	8	0.013345	60	0	60-180	60	101	NoGap	1	12	2	3	1	target	1	347	827	4510	13.328	13.096	13.555
DTProbeTrack03	3	ProbeTrackDT	1.1	SCS215a	20101029.133410	20101029.133542	single-task	8	0.013345	60	0	60-180	60	124	NoGap	1	13	2	6	1	target	1	494	753	5263	13.328	12.907	13.740
DTProbeTrack03	3	ProbeTrackDT	1.1	SCS215a	20101029.133410	20101029.133548	single-task	8	0.013345	60	0	60-180	60	164	NoGap	1	14	2	9	0	distractor	1	427	787	6050	13.328	12.842	13.809
DTProbeTrack03	3	ProbeTrackDT	1.1	SCS215a	20101029.133410	20101029.133554	single-task	8	0.013345	60	0	60-180	60	75	NoGap	1	15	2	45	0	distractor	1	574	713	6763	13.328	13.032	13.618
DTProbeTrack03	3	ProbeTrackDT	1.1	SCS215a	20101029.133410	20101029.133559	single-task	8	0.013345	60	0	60-180	60	145	NoGap	1	16	2	6	1	target	1	454	773	7536	13.328	12.889	13.774
DTProbeTrack03	3	ProbeTrackDT	1.1	SCS215a	20101029.133410	20101029.133605	single-task	8	0.013345	60	0	60-180	60	125	NoGap	1	17	2	9	1	target	1	440	780	8316	13.328	12.889	13.756
DTProbeTrack03	3	ProbeTrackDT	1.1	SCS215a	20101029.133410	20101029.133610	single-task	8	0.013345	60	0	60-180	60	94	NoGap	1	18	2	1	1	target	1	387	807	9123	13.328	12.845	13.799
DTProbeTrack03	3	ProbeTrackDT	1.1	SCS215a	20101029.133410	20101029.133615	single-task	8	0.013345	60	0	60-180	60	179	NoGap	1	19	2	3	0	distractor	1	560	720	9843	13.328	13.292	13.360
DTProbeTrack03	3	ProbeTrackDT	1.1	SCS215a	20101029.133410	20101029.133622	single-task	8	0.013345	60	0	60-180	60	97	NoGap	1	20	2	3	1	target	1	387	807	10650	13.328	13.306	13.348
DTProbeTrack03	3	ProbeTrackDT	1.1	SCS215a	20101029.133410	20101029.133627	single-task	8	0.013345	60	0	60-180	60	91	NoGap	1	21	2	9	0	distractor	1	427	787	11437	13.328	12.893	13.756
DTProbeTrack03	3	ProbeTrackDT	1.1	SCS215a	20101029.133410	20101029.133632	single-task	8	0.013345	60	0	60-180	60	77	NoGap	1	22	2	6	0	distractor	1	454	773	12210	13.328	13.000	13.661
DTProbeTrack03	3	ProbeTrackDT	1.1	SCS215a	20101029.133410	20101029.133637	single-task	8	0.013345	60	0	60-180	60	145	NoGap	1	23	2	1	0	distractor	1	440	780	12990	13.328	12.991	13.658
DTProbeTrack03	3	ProbeTrackDT	1.1	SCS215a	20101029.133410	20101029.133642	single-task	8	0.013345	60	0	60-180	60	176	NoGap	1	24	2	9	0	distractor	1	520	740	13730	13.328	13.093	13.558
DTProbeTrack03	3	ProbeTrackDT	1.1	SCS215a	20101029.133410	20101029.133648	single-task	8	0.013345	60	0	60-180	60	68	NoGap	1	25	2	3	1	target	1	560	720	14450	13.328	13.031	13.635
DTProbeTrack03	3	ProbeTrackDT	1.1	SCS215a	20101029.133410	20101029.133653	single-task	8	0.013345	60	0	60-180	60	167	NoGap	1	26	2	45	1	target	1	387	807	15257	13.328	12.812	13.855
DTProbeTrack03	3	ProbeTrackDT	1.1	SCS215a	20101029.133410	20101029.133700	single-task	8	0.013345	60	0	60-180	60	138	NoGap	1	27	2	1	0	distractor	1	427	787	16044	13.328	13.304	13.348
DTProbeTrack03	3	ProbeTrackDT	1.1	SCS215a	20101029.133410	20101029.133705	single-task	8	0.013345	60	0	60-180	60	107	NoGap	1	28	2	45	1	target	1	494	753	16797	13.328	12.852	13.813
DTProbeTrack03	3	ProbeTrackDT	1.1	SCS215a	20101029.133410	20101029.133711	single-task	8	0.013345	60	0	60-180	60	75	NoGap	1	29	2	3	0	distractor	1	467	767	17564	13.328	13.067	13.590
DTProbeTrack03	3	ProbeTrackDT	1.1	SCS215a	20101029.133410	20101029.133716	single-task	8	0.013345	60	0	60-180	60	110	NoGap	1	30	2	6	1	target	1	400	800	18364	13.328	12.945	13.711
DTProbeTrack03	3	ProbeTrackDT	1.1	SCS215a	20101029.133410	20101029.133721	single-task	8	0.013345	60	0	60-180	60	167	NoGap	1	31	2	6	0	distractor	1	387	807	19171	13.328	13.103	13.551
DTProbeTrack03	3	ProbeTrackDT	1.1	SCS215a	20101029.133410	20101029.133727	single-task	8	0.013345	60	0	60-180	60	64	NoGap	1	32	2	45	0	distractor	1	467	767	19938	13.328	13.192	13.448
DTProbeTrack03	3	ProbeTrackDT	1.1	SCS215a	20101029.133410	20101029.133732	single-task	8	0.013345	60	0	60-180	60	119	NoGap	1	33	2	6	0	distractor	1	560	720	20658	13.328	12.859	13.769
DTProbeTrack03	3	ProbeTrackDT	1.1	SCS215a	20101029.133410	20101029.133738	single-task	8	0.013345	60	0	60-180	60	131	NoGap	1	34	2	45	0	distractor	1	534	733	21391	13.328	13.035	13.635
DTProbeTrack03	3	ProbeTrackDT	1.1	SCS215a	20101029.133410	20101029.133744	single-task	8	0.013345	60	0	60-180	60	137	NoGap	1	35	2	45	1	target	1	480	760	22151	13.328	12.923	13.743
DTProbeTrack03	3	ProbeTrackDT	1.1	SCS215a	20101029.133410	20101029.133750	single-task	8	0.013345	60	0	60-180	60	102	NoGap	1	36	2	9	1	target	1	400	800	22951	13.328	12.964	13.701
DTProbeTrack03	3	ProbeTrackDT	1.1	SCS215a	20101029.133410	20101029.133755	single-task	8	0.013345	60	0	60-180	60	147	NoGap	1	37	2	1	1	target	1	440	780	23731	13.328	13.308	13.347
DTProbeTrack03	3	ProbeTrackDT	1.1	SCS215a	20101029.133410	20101029.133801	single-task	8	0.013345	60	0	60-180	60	71	NoGap	1	38	2	45	0	distractor	1	480	760	24491	13.328	12.912	13.734
DTProbeTrack03	3	ProbeTrackDT	1.1	SCS215a	20101029.133410	20101029.133806	single-task	8	0.013345	60	0	60-180	60	87	NoGap	1	39	2	1	0	distractor	1	467	767	25258	13.328	13.065	13.597
DTProbeTrack03	3	ProbeTrackDT	1.1	SCS215a	20101029.133410	20101029.133811	single-task	8	0.013345	60	0	60-180	60	134	NoGap	1	40	2	6	0	target	0	481	-1000	24258	13.328	13.108	13.547
DTProbeTrack03	3	ProbeTrackDT	1.1	SCS215a	20101029.133949	20101029.133952	dt-shadow	8	0.013327	60	10	60-180	60	74	GapPrac	1	1	2	3	1	target	1	867	567	24825	13.328	12.912	13.749
DTProbeTrack03	3	ProbeTrackDT	1.1	SCS215a	20101029.133949	20101029.133958	dt-shadow	8	0.013327	60	10	60-180	60	91	GapPrac	1	2	2	3	0	distractor	1	733	634	25459	13.328	13.090	13.570
DTProbeTrack03	3	ProbeTrackDT	1.1	SCS215a	20101029.133949	20101029.134003	dt-shadow	8	0.013327	60	10	60-180	60	95	GapPrac	1	3	2	6	1	target	1	1093	454	25913	13.328	13.090	13.560
DTProbeTrack03	3	ProbeTrackDT	1.1	SCS215a	20101029.133949	20101029.134009	dt-shadow	8	0.013327	60	10	60-180	60	102	GapPrac	1	4	2	9	1	target	1	427	787	26700	13.328	12.862	13.805
DTProbeTrack03	3	ProbeTrackDT	1.1	SCS215a	20101029.133949	20101029.134014	dt-shadow	8	0.013327	60	10	60-180	60	143	GapPrac	1	5	2	1	1	distractor	0	494	-1000	25700	13.328	12.853	13.799
DTProbeTrack03	3	ProbeTrackDT	1.1	SCS215a	20101029.133949	20101029.134020	dt-shadow	8	0.013327	60	10	60-180	60	157	GapPrac	1	6	2	3	0	distractor	1	600	700	26400	13.328	13.099	13.571
DTProbeTrack03	3	ProbeTrackDT	1.1	SCS215a	20101029.133949	20101029.134026	dt-shadow	8	0.013327	60	10	60-180	60	86	GapPrac	1	7	2	9	0	distractor	1	467	767	27167	13.328	12.992	13.669
DTProbeTrack03	3	ProbeTrackDT	1.1	SCS215a	20101029.133949	20101029.134031	dt-shadow	8	0.013327	60	10	60-180	60	73	GapPrac	1	8	2	45	0	target	0	653	-1000	26167	13.328	12.942	13.694
DTProbeTrack03	3	ProbeTrackDT	1.1	SCS215a	20101029.133949	20101029.134037	dt-shadow	8	0.013327	60	10	60-180	60	130	GapPrac	1	9	2	6	1	distractor	0	693	-1000	25167	13.328	13.035	13.627
DTProbeTrack03	3	ProbeTrackDT	1.1	SCS215a	20101029.133949	20101029.134043	dt-shadow	8	0.013327	60	10	60-180	60	134	GapPrac	1	10	2	45	1	target	1	733	634	25801	13.328	12.906	13.758
DTProbeTrack03	3	ProbeTrackDT	1.1	SCS215a	20101029.133949	20101029.134050	dt-shadow	8	0.013327	60	10	60-180	60	134	GapPrac	1	11	2	1	1	target	1	534	733	26534	13.328	12.848	13.803
DTProbeTrack03	3	ProbeTrackDT	1.1	SCS215a	20101029.133949	20101029.134055	dt-shadow	8	0.013327	60	10	60-180	60	108	GapPrac	1	12	2	1	0	distractor	1	520	740	27274	13.328	12.919	13.736
DTProbeTrack03	3	ProbeTrackDT	1.1	SCS215a	20101029.133949	20101029.134101	dt-shadow	8	0.013327	60	10	60-180	60	82	GapPrac	1	13	2	9	0	distractor	1	947	527	27801	13.328	12.953	13.699
DTProbeTrack03	3	ProbeTrackDT	1.1	SCS215a	20101029.133949	20101029.134106	dt-shadow	8	0.013327	60	10	60-180	60	155	GapPrac	1	14	2	6	0	distractor	1	600	700	28501	13.328	12.873	13.799
DTProbeTrack03	3	ProbeTrackDT	1.1	SCS215a	20101029.133949	20101029.134112	dt-shadow	8	0.013327	60	10	60-180	60	114	GapPrac	1	15	2	45	1	distractor	0	600	-1000	27501	13.328	12.875	13.789
DTProbeTrack03	3	ProbeTrackDT	1.1	SCS215a	20101029.133949	20101029.134119	dt-shadow	8	0.013327	60	10	60-180	60	138	GapPrac	1	16	2	45	0	distractor	1	653	674	28175	13.328	13.295	13.355
DTProbeTrack03	3	ProbeTrackDT	1.1	SCS215a	20101029.133949	20101029.134125	dt-shadow	8	0.013327	60	10	60-180	60	171	GapPrac	1	17	2	6	0	distractor	1	760	620	28795	13.328	13.308	13.355
DTProbeTrack03	3	ProbeTrackDT	1.1	SCS215a	20101029.133949	20101029.134132	dt-shadow	8	0.013327	60	10	60-180	60	165	GapPrac	1	18	2	1	0	distractor	1	600	700	29495	13.328	12.843	13.813
DTProbeTrack03	3	ProbeTrackDT	1.1	SCS215a	20101029.133949	20101029.134138	dt-shadow	8	0.013327	60	10	60-180	60	151	GapPrac	1	19	2	9	1	distractor	0	574	-1000	28495	13.328	12.844	13.804
DTProbeTrack03	3	ProbeTrackDT	1.1	SCS215a	20101029.133949	20101029.134144	dt-shadow	8	0.013327	60	10	60-180	60	173	GapPrac	1	20	2	3	1	distractor	0	813	-1000	27495	13.328	13.106	13.543
DTProbeTrack03	3	ProbeTrackDT	1.1	SCS215a	20101029.134241	20101029.134245	dt-shadow	8	0.013328	60	10	60-180	60	175	GapExp	1	1	2	45	0	distractor	1	574	713	28208	13.328	13.100	13.572
DTProbeTrack03	3	ProbeTrackDT	1.1	SCS215a	20101029.134241	20101029.134252	dt-shadow	8	0.013328	60	10	60-180	60	136	GapExp	1	2	2	1	1	target	1	574	713	28921	13.328	13.092	13.571
DTProbeTrack03	3	ProbeTrackDT	1.1	SCS215a	20101029.134241	20101029.134257	dt-shadow	8	0.013328	60	10	60-180	60	176	GapExp	1	3	2	45	1	target	1	507	747	29668	13.405	13.098	40.002
DTProbeTrack03	3	ProbeTrackDT	1.1	SCS215a	20101029.134241	20101029.134304	dt-shadow	8	0.013328	60	10	60-180	60	84	GapExp	1	4	2	6	1	target	1	587	707	30375	13.328	12.884	13.758
DTProbeTrack03	3	ProbeTrackDT	1.1	SCS215a	20101029.134241	20101029.134309	dt-shadow	8	0.013328	60	10	60-180	60	159	GapExp	1	5	2	6	0	distractor	1	654	673	31048	13.328	13.266	13.386
DTProbeTrack03	3	ProbeTrackDT	1.1	SCS215a	20101029.134241	20101029.134316	dt-shadow	8	0.013328	60	10	60-180	60	124	GapExp	0	6	2	45	0	distractor	1	467	767	31815	13.328	12.914	13.742
DTProbeTrack03	3	ProbeTrackDT	1.1	SCS215a	20101029.134241	20101029.134322	dt-shadow	8	0.013328	60	10	60-180	60	180	GapExp	0	7	2	3	0	distractor	1	494	753	32568	13.328	12.910	13.744
DTProbeTrack03	3	ProbeTrackDT	1.1	SCS215a	20101029.134241	20101029.134328	dt-shadow	8	0.013328	60	10	60-180	60	134	GapExp	0	8	2	6	0	distractor	1	867	567	33135	13.328	12.961	13.686
DTProbeTrack03	3	ProbeTrackDT	1.1	SCS215a	20101029.134241	20101029.134334	dt-shadow	8	0.013328	60	10	60-180	60	62	GapExp	0	9	2	1	0	distractor	1	707	647	33782	13.328	12.895	13.770
DTProbeTrack03	3	ProbeTrackDT	1.1	SCS215a	20101029.134241	20101029.134339	dt-shadow	8	0.013328	60	10	60-180	60	94	GapExp	0	10	2	45	1	distractor	0	507	-1000	32782	13.328	13.301	13.349
DTProbeTrack03	3	ProbeTrackDT	1.1	SCS215a	20101029.134241	20101029.134345	dt-shadow	8	0.013328	60	10	60-180	60	165	GapExp	0	11	2	45	1	target	1	467	767	33549	13.328	12.908	13.767
DTProbeTrack03	3	ProbeTrackDT	1.1	SCS215a	20101029.134241	20101029.134352	dt-shadow	8	0.013328	60	10	60-180	60	116	GapExp	0	12	2	6	1	target	1	440	780	34329	13.328	13.028	13.621
DTProbeTrack03	3	ProbeTrackDT	1.1	SCS215a	20101029.134241	20101029.134357	dt-shadow	8	0.013328	60	10	60-180	60	80	GapExp	0	13	2	1	1	target	1	400	800	35129	13.328	13.309	13.344
DTProbeTrack03	3	ProbeTrackDT	1.1	SCS215a	20101029.134241	20101029.134402	dt-shadow	8	0.013328	60	10	60-180	60	141	GapExp	0	14	2	1	1	distractor	0	413	-1000	34129	13.328	12.939	13.721
DTProbeTrack03	3	ProbeTrackDT	1.1	SCS215a	20101029.134241	20101029.134408	dt-shadow	8	0.013328	60	10	60-180	60	160	GapExp	0	15	2	9	1	target	1	534	733	34862	13.328	12.858	13.789
DTProbeTrack03	3	ProbeTrackDT	1.1	SCS215a	20101029.134241	20101029.134414	dt-shadow	8	0.013328	60	10	60-180	60	108	GapExp	0	16	2	3	1	target	1	414	793	35655	13.328	13.078	13.580
DTProbeTrack03	3	ProbeTrackDT	1.1	SCS215a	20101029.134241	20101029.134419	dt-shadow	8	0.013328	60	10	60-180	60	62	GapExp	0	17	2	1	0	target	0	534	-1000	34655	13.328	13.301	13.349
DTProbeTrack03	3	ProbeTrackDT	1.1	SCS215a	20101029.134241	20101029.134424	dt-shadow	8	0.013328	60	10	60-180	60	108	GapExp	0	18	2	1	1	distractor	0	613	-1000	33655	13.328	13.041	13.623
DTProbeTrack03	3	ProbeTrackDT	1.1	SCS215a	20101029.134241	20101029.134430	dt-shadow	8	0.013328	60	10	60-180	60	177	GapExp	0	19	2	9	0	distractor	1	507	747	34402	13.328	12.863	13.794
DTProbeTrack03	3	ProbeTrackDT	1.1	SCS215a	20101029.134241	20101029.134436	dt-shadow	8	0.013328	60	10	60-180	60	155	GapExp	0	20	2	6	0	distractor	1	414	793	35195	13.375	13.049	26.936
DTProbeTrack03	3	ProbeTrackDT	1.1	SCS215a	20101029.134241	20101029.134442	dt-shadow	8	0.013328	60	10	60-180	60	71	GapExp	0	21	2	45	0	distractor	1	547	727	35922	13.328	13.006	13.639
DTProbeTrack03	3	ProbeTrackDT	1.1	SCS215a	20101029.134241	20101029.134448	dt-shadow	8	0.013328	60	10	60-180	60	107	GapExp	0	22	2	45	1	target	1	534	733	36655	13.328	12.907	13.754
DTProbeTrack03	3	ProbeTrackDT	1.1	SCS215a	20101029.134241	20101029.134454	dt-shadow	8	0.013328	60	10	60-180	60	117	GapExp	0	23	2	3	0	distractor	1	494	753	37408	13.328	13.257	13.397
DTProbeTrack03	3	ProbeTrackDT	1.1	SCS215a	20101029.134241	20101029.134459	dt-shadow	8	0.013328	60	10	60-180	60	100	GapExp	0	24	2	45	1	target	1	427	787	38195	13.328	12.912	13.731
DTProbeTrack03	3	ProbeTrackDT	1.1	SCS215a	20101029.134241	20101029.134505	dt-shadow	8	0.013328	60	10	60-180	60	76	GapExp	0	25	2	1	0	target	0	880	-1000	37195	13.328	12.882	13.776
DTProbeTrack03	3	ProbeTrackDT	1.1	SCS215a	20101029.134241	20101029.134510	dt-shadow	8	0.013328	60	10	60-180	60	66	GapExp	0	26	2	45	0	target	0	534	-1000	36195	13.328	13.260	13.382
DTProbeTrack03	3	ProbeTrackDT	1.1	SCS215a	20101029.134241	20101029.134516	dt-shadow	8	0.013328	60	10	60-180	60	122	GapExp	0	27	2	6	0	target	0	547	-1000	35195	13.328	12.960	13.706
DTProbeTrack03	3	ProbeTrackDT	1.1	SCS215a	20101029.134241	20101029.134521	dt-shadow	8	0.013328	60	10	60-180	60	118	GapExp	0	28	2	9	1	target	1	547	727	35922	13.328	13.304	13.357
DTProbeTrack03	3	ProbeTrackDT	1.1	SCS215a	20101029.134241	20101029.134527	dt-shadow	8	0.013328	60	10	60-180	60	76	GapExp	0	29	2	45	1	target	1	494	753	36675	13.328	12.849	13.794
DTProbeTrack03	3	ProbeTrackDT	1.1	SCS215a	20101029.134241	20101029.134532	dt-shadow	8	0.013328	60	10	60-180	60	140	GapExp	0	30	2	6	1	target	1	507	747	37422	13.475	12.993	26.957
DTProbeTrack03	3	ProbeTrackDT	1.1	SCS215a	20101029.134241	20101029.134538	dt-shadow	8	0.013328	60	10	60-180	60	64	GapExp	0	31	2	6	0	distractor	1	640	680	38102	13.328	12.857	13.803
DTProbeTrack03	3	ProbeTrackDT	1.1	SCS215a	20101029.134241	20101029.134543	dt-shadow	8	0.013328	60	10	60-180	60	110	GapExp	0	32	2	1	0	distractor	1	507	747	38849	13.328	13.308	13.347
DTProbeTrack03	3	ProbeTrackDT	1.1	SCS215a	20101029.134241	20101029.134549	dt-shadow	8	0.013328	60	10	60-180	60	120	GapExp	0	33	2	1	0	distractor	1	507	747	39596	13.328	13.123	13.564
DTProbeTrack03	3	ProbeTrackDT	1.1	SCS215a	20101029.134241	20101029.134554	dt-shadow	8	0.013328	60	10	60-180	60	176	GapExp	0	34	2	6	1	target	1	587	707	40303	13.328	12.878	13.768
DTProbeTrack03	3	ProbeTrackDT	1.1	SCS215a	20101029.134241	20101029.134601	dt-shadow	8	0.013328	60	10	60-180	60	108	GapExp	0	35	2	45	1	target	1	454	773	41076	13.328	12.931	13.739
DTProbeTrack03	3	ProbeTrackDT	1.1	SCS215a	20101029.134241	20101029.134607	dt-shadow	8	0.013328	60	10	60-180	60	69	GapExp	0	36	2	6	0	distractor	1	694	653	41729	13.328	13.303	13.348
DTProbeTrack03	3	ProbeTrackDT	1.1	SCS215a	20101029.134241	20101029.134612	dt-shadow	8	0.013328	60	10	60-180	60	85	GapExp	0	37	2	9	0	distractor	1	587	707	42436	13.328	13.308	13.359
DTProbeTrack03	3	ProbeTrackDT	1.1	SCS215a	20101029.134241	20101029.134617	dt-shadow	8	0.013328	60	10	60-180	60	158	GapExp	0	38	2	6	0	distractor	1	640	680	43116	13.328	13.092	13.571
DTProbeTrack03	3	ProbeTrackDT	1.1	SCS215a	20101029.134241	20101029.134623	dt-shadow	8	0.013328	60	10	60-180	60	105	GapExp	0	39	2	9	1	distractor	0	467	-1000	42116	13.328	13.097	13.566
DTProbeTrack03	3	ProbeTrackDT	1.1	SCS215a	20101029.134241	20101029.134628	dt-shadow	8	0.013328	60	10	60-180	60	135	GapExp	0	40	2	1	1	target	1	667	667	42783	13.328	13.101	13.555
DTProbeTrack03	3	ProbeTrackDT	1.1	SCS215a	20101029.134241	20101029.134634	dt-shadow	8	0.013328	60	10	60-180	60	118	GapExp	0	41	2	1	1	target	1	520	740	43523	13.328	13.155	13.497
DTProbeTrack03	3	ProbeTrackDT	1.1	SCS215a	20101029.134241	20101029.134640	dt-shadow	8	0.013328	60	10	60-180	60	148	GapExp	0	42	2	1	1	target	1	494	753	44276	13.328	13.308	13.349
DTProbeTrack03	3	ProbeTrackDT	1.1	SCS215a	20101029.134241	20101029.134646	dt-shadow	8	0.013328	60	10	60-180	60	69	GapExp	0	43	2	9	0	distractor	1	480	760	45036	13.328	12.910	13.733
DTProbeTrack03	3	ProbeTrackDT	1.1	SCS215a	20101029.134241	20101029.134651	dt-shadow	8	0.013328	60	10	60-180	60	136	GapExp	0	44	2	3	0	distractor	1	560	720	45756	13.328	12.876	13.803
DTProbeTrack03	3	ProbeTrackDT	1.1	SCS215a	20101029.134241	20101029.134657	dt-shadow	8	0.013328	60	10	60-180	60	164	GapExp	0	45	2	1	1	target	1	600	700	46456	13.326	9.955	16.687
DTProbeTrack03	3	ProbeTrackDT	1.1	SCS215a	20101029.134241	20101029.134703	dt-shadow	8	0.013328	60	10	60-180	60	114	GapExp	0	46	2	6	0	distractor	1	654	673	47129	13.380	12.846	27.103
DTProbeTrack03	3	ProbeTrackDT	1.1	SCS215a	20101029.134241	20101029.134708	dt-shadow	8	0.013328	60	10	60-180	60	83	GapExp	0	47	2	3	1	target	1	547	727	47856	13.328	13.086	13.563
DTProbeTrack03	3	ProbeTrackDT	1.1	SCS215a	20101029.134241	20101029.134714	dt-shadow	8	0.013328	60	10	60-180	60	137	GapExp	0	48	2	6	0	distractor	1	400	800	48656	13.328	13.308	13.348
DTProbeTrack03	3	ProbeTrackDT	1.1	SCS215a	20101029.134241	20101029.134719	dt-shadow	8	0.013328	60	10	60-180	60	92	GapExp	0	49	2	6	0	distractor	1	494	753	49409	13.328	13.043	13.623
DTProbeTrack03	3	ProbeTrackDT	1.1	SCS215a	20101029.134241	20101029.134725	dt-shadow	8	0.013328	60	10	60-180	60	74	GapExp	0	50	2	45	0	distractor	1	547	727	50136	13.328	12.986	13.685
DTProbeTrack03	3	ProbeTrackDT	1.1	SCS215a	20101029.134241	20101029.134741	dt-shadow	8	0.013328	60	10	60-180	60	172	GapExp	0	51	2	45	0	distractor	1	534	733	50869	13.328	12.880	13.778
DTProbeTrack03	3	ProbeTrackDT	1.1	SCS215a	20101029.134241	20101029.134748	dt-shadow	8	0.013328	60	10	60-180	60	167	GapExp	0	52	2	3	1	target	1	534	733	51602	13.732	12.912	133.699
DTProbeTrack03	3	ProbeTrackDT	1.1	SCS215a	20101029.134241	20101029.134755	dt-shadow	8	0.013328	60	10	60-180	60	92	GapExp	0	53	2	45	0	distractor	1	693	654	52256	13.328	12.938	13.715
DTProbeTrack03	3	ProbeTrackDT	1.1	SCS215a	20101029.134241	20101029.134801	dt-shadow	8	0.013328	60	10	60-180	60	133	GapExp	0	54	2	3	1	target	1	427	787	53043	13.328	13.099	13.560
DTProbeTrack03	3	ProbeTrackDT	1.1	SCS215a	20101029.134241	20101029.134806	dt-shadow	8	0.013328	60	10	60-180	60	77	GapExp	0	55	2	9	1	target	1	467	767	53810	13.328	13.083	13.573
DTProbeTrack03	3	ProbeTrackDT	1.1	SCS215a	20101029.134241	20101029.134811	dt-shadow	8	0.013328	60	10	60-180	60	90	GapExp	0	56	2	6	0	distractor	1	494	753	54563	13.328	13.309	13.345
DTProbeTrack03	3	ProbeTrackDT	1.1	SCS215a	20101029.134241	20101029.134816	dt-shadow	8	0.013328	60	10	60-180	60	134	GapExp	0	57	2	9	1	target	1	440	780	55343	13.328	13.309	13.345
DTProbeTrack03	3	ProbeTrackDT	1.1	SCS215a	20101029.134241	20101029.134822	dt-shadow	8	0.013328	60	10	60-180	60	171	GapExp	0	58	2	9	1	target	1	454	773	56116	13.328	13.099	13.564
DTProbeTrack03	3	ProbeTrackDT	1.1	SCS215a	20101029.134241	20101029.134828	dt-shadow	8	0.013328	60	10	60-180	60	137	GapExp	0	59	2	6	1	target	1	467	767	56883	13.328	13.085	13.553
DTProbeTrack03	3	ProbeTrackDT	1.1	SCS215a	20101029.134241	20101029.134834	dt-shadow	8	0.013328	60	10	60-180	60	115	GapExp	0	60	2	45	0	distractor	1	414	793	57676	13.328	12.912	13.744
DTProbeTrack03	3	ProbeTrackDT	1.1	SCS215a	20101029.134241	20101029.134840	dt-shadow	8	0.013328	60	10	60-180	60	73	GapExp	0	61	2	45	0	target	0	693	-1000	56676	13.328	12.950	13.713
DTProbeTrack03	3	ProbeTrackDT	1.1	SCS215a	20101029.134241	20101029.134846	dt-shadow	8	0.013328	60	10	60-180	60	125	GapExp	0	62	2	9	1	target	1	507	747	57423	13.328	13.091	13.563
DTProbeTrack03	3	ProbeTrackDT	1.1	SCS215a	20101029.134241	20101029.134852	dt-shadow	8	0.013328	60	10	60-180	60	170	GapExp	0	63	2	1	0	distractor	1	467	767	58190	13.328	12.928	13.728
DTProbeTrack03	3	ProbeTrackDT	1.1	SCS215a	20101029.134241	20101029.134858	dt-shadow	8	0.013328	60	10	60-180	60	174	GapExp	0	64	2	6	1	target	1	440	780	58970	13.328	12.848	13.799
DTProbeTrack03	3	ProbeTrackDT	1.1	SCS215a	20101029.134241	20101029.134904	dt-shadow	8	0.013328	60	10	60-180	60	167	GapExp	0	65	2	6	1	target	1	480	760	59730	13.328	12.870	13.785
DTProbeTrack03	3	ProbeTrackDT	1.1	SCS215a	20101029.134241	20101029.134910	dt-shadow	8	0.013328	60	10	60-180	60	152	GapExp	0	66	2	6	1	target	1	427	787	60517	13.328	13.007	13.638
DTProbeTrack03	3	ProbeTrackDT	1.1	SCS215a	20101029.134241	20101029.134916	dt-shadow	8	0.013328	60	10	60-180	60	85	GapExp	0	67	2	1	0	distractor	1	614	693	61210	13.328	12.941	13.719
DTProbeTrack03	3	ProbeTrackDT	1.1	SCS215a	20101029.134241	20101029.134921	dt-shadow	8	0.013328	60	10	60-180	60	75	GapExp	0	68	2	45	1	target	1	414	793	62003	13.328	13.307	13.347
DTProbeTrack03	3	ProbeTrackDT	1.1	SCS215a	20101029.134241	20101029.134927	dt-shadow	8	0.013328	60	10	60-180	60	167	GapExp	0	69	2	6	0	distractor	1	480	760	62763	13.328	13.307	13.347
DTProbeTrack03	3	ProbeTrackDT	1.1	SCS215a	20101029.134241	20101029.134933	dt-shadow	8	0.013328	60	10	60-180	60	123	GapExp	0	70	2	6	1	distractor	0	693	-1000	61763	13.328	13.092	13.559
DTProbeTrack03	3	ProbeTrackDT	1.1	SCS215a	20101029.134241	20101029.134939	dt-shadow	8	0.013328	60	10	60-180	60	137	GapExp	0	71	2	9	1	target	1	454	773	62536	13.328	13.006	13.647
DTProbeTrack03	3	ProbeTrackDT	1.1	SCS215a	20101029.134241	20101029.134944	dt-shadow	8	0.013328	60	10	60-180	60	156	GapExp	0	72	2	3	1	distractor	0	627	-1000	61536	13.328	12.843	13.818
DTProbeTrack03	3	ProbeTrackDT	1.1	SCS215a	20101029.134241	20101029.134951	dt-shadow	8	0.013328	60	10	60-180	60	155	GapExp	0	73	2	1	0	distractor	1	520	740	62276	13.328	13.031	13.627
DTProbeTrack03	3	ProbeTrackDT	1.1	SCS215a	20101029.134241	20101029.134957	dt-shadow	8	0.013328	60	10	60-180	60	123	GapExp	0	74	2	6	0	distractor	1	454	773	63049	13.381	13.217	26.644
DTProbeTrack03	3	ProbeTrackDT	1.1	SCS215a	20101029.134241	20101029.135002	dt-shadow	8	0.013328	60	10	60-180	60	171	GapExp	0	75	2	45	0	distractor	1	440	780	63829	13.328	12.935	13.721
DTProbeTrack03	3	ProbeTrackDT	1.1	SCS215a	20101029.134241	20101029.135009	dt-shadow	8	0.013328	60	10	60-180	60	176	GapExp	0	76	2	1	0	distractor	1	507	747	64576	13.328	12.870	13.780
DTProbeTrack03	3	ProbeTrackDT	1.1	SCS215a	20101029.134241	20101029.135015	dt-shadow	8	0.013328	60	10	60-180	60	159	GapExp	0	77	2	3	0	distractor	1	494	753	65329	13.328	13.080	13.586
DTProbeTrack03	3	ProbeTrackDT	1.1	SCS215a	20101029.134241	20101029.135021	dt-shadow	8	0.013328	60	10	60-180	60	84	GapExp	0	78	2	9	0	distractor	1	667	667	65996	13.328	13.107	13.543
DTProbeTrack03	3	ProbeTrackDT	1.1	SCS215a	20101029.134241	20101029.135027	dt-shadow	8	0.013328	60	10	60-180	60	102	GapExp	0	79	2	1	1	target	1	760	620	66616	13.328	12.991	13.682
DTProbeTrack03	3	ProbeTrackDT	1.1	SCS215a	20101029.134241	20101029.135032	dt-shadow	8	0.013328	60	10	60-180	60	155	GapExp	0	80	2	3	1	target	1	440	780	67396	13.328	12.882	13.781
DTProbeTrack03	3	ProbeTrackDT	1.1	SCS215a	20101029.134241	20101029.135038	dt-shadow	8	0.013328	60	10	60-180	60	72	GapExp	0	81	2	6	1	target	1	667	667	68063	13.700	13.143	93.282
DTProbeTrack03	3	ProbeTrackDT	1.1	SCS215a	20101029.134241	20101029.135043	dt-shadow	8	0.013328	60	10	60-180	60	106	GapExp	0	82	2	6	0	distractor	1	480	760	68823	13.328	12.899	13.758
DTProbeTrack03	3	ProbeTrackDT	1.1	SCS215a	20101029.134241	20101029.135049	dt-shadow	8	0.013328	60	10	60-180	60	67	GapExp	0	83	2	45	1	target	1	454	773	69596	13.328	13.106	13.550
DTProbeTrack03	3	ProbeTrackDT	1.1	SCS215a	20101029.134241	20101029.135054	dt-shadow	8	0.013328	60	10	60-180	60	88	GapExp	0	84	2	1	1	target	1	507	747	70343	13.328	12.927	13.731
DTProbeTrack03	3	ProbeTrackDT	1.1	SCS215a	20101029.134241	20101029.135059	dt-shadow	8	0.013328	60	10	60-180	60	180	GapExp	0	85	2	1	0	distractor	1	454	773	71116	13.328	13.068	13.590
DTProbeTrack03	3	ProbeTrackDT	1.1	SCS215a	20101029.134241	20101029.135106	dt-shadow	8	0.013328	60	10	60-180	60	157	GapExp	0	86	2	9	0	distractor	1	427	787	71903	13.328	13.119	13.538
DTProbeTrack03	3	ProbeTrackDT	1.1	SCS215a	20101029.134241	20101029.135112	dt-shadow	8	0.013328	60	10	60-180	60	145	GapExp	0	87	2	45	0	target	0	560	-1000	70903	13.328	13.082	13.581
DTProbeTrack03	3	ProbeTrackDT	1.1	SCS215a	20101029.134241	20101029.135118	dt-shadow	8	0.013328	60	10	60-180	60	126	GapExp	0	88	2	1	0	distractor	1	653	674	71577	13.328	13.085	13.558
DTProbeTrack03	3	ProbeTrackDT	1.1	SCS215a	20101029.134241	20101029.135124	dt-shadow	8	0.013328	60	10	60-180	60	166	GapExp	0	89	2	9	0	distractor	1	520	740	72317	13.328	13.099	13.543
DTProbeTrack03	3	ProbeTrackDT	1.1	SCS215a	20101029.134241	20101029.135130	dt-shadow	8	0.013328	60	10	60-180	60	173	GapExp	0	90	2	1	0	distractor	1	534	733	73050	13.328	12.897	13.748
DTProbeTrack03	3	ProbeTrackDT	1.1	SCS215a	20101029.134241	20101029.135136	dt-shadow	8	0.013328	60	10	60-180	60	153	GapExp	0	91	2	1	1	distractor	0	494	-1000	72050	13.328	13.109	13.560
DTProbeTrack03	3	ProbeTrackDT	1.1	SCS215a	20101029.134241	20101029.135142	dt-shadow	8	0.013328	60	10	60-180	60	173	GapExp	0	92	2	45	1	target	1	480	760	72810	13.328	13.105	13.550
DTProbeTrack03	3	ProbeTrackDT	1.1	SCS215a	20101029.134241	20101029.135149	dt-shadow	8	0.013328	60	10	60-180	60	114	GapExp	0	93	2	6	0	distractor	1	480	760	73570	13.328	13.058	13.585
DTProbeTrack03	3	ProbeTrackDT	1.1	SCS215a	20101029.134241	20101029.135155	dt-shadow	8	0.013328	60	10	60-180	60	169	GapExp	0	94	2	9	1	target	1	507	747	74317	13.328	13.310	13.347
DTProbeTrack03	3	ProbeTrackDT	1.1	SCS215a	20101029.134241	20101029.135201	dt-shadow	8	0.013328	60	10	60-180	60	68	GapExp	0	95	2	9	0	distractor	1	574	713	75030	13.328	13.110	13.541
DTProbeTrack03	3	ProbeTrackDT	1.1	SCS215a	20101029.134241	20101029.135206	dt-shadow	8	0.013328	60	10	60-180	60	105	GapExp	0	96	2	9	0	distractor	1	494	753	75783	13.328	13.307	13.346
DTProbeTrack03	3	ProbeTrackDT	1.1	SCS215a	20101029.134241	20101029.135211	dt-shadow	8	0.013328	60	10	60-180	60	148	GapExp	0	97	2	6	1	target	1	627	687	76470	13.328	12.883	13.778
DTProbeTrack03	3	ProbeTrackDT	1.1	SCS215a	20101029.134241	20101029.135217	dt-shadow	8	0.013328	60	10	60-180	60	107	GapExp	0	98	2	1	1	target	1	587	707	77177	13.328	13.304	13.349
DTProbeTrack03	3	ProbeTrackDT	1.1	SCS215a	20101029.134241	20101029.135223	dt-shadow	8	0.013328	60	10	60-180	60	147	GapExp	0	99	2	1	0	distractor	1	494	753	77930	13.328	12.883	13.797
DTProbeTrack03	3	ProbeTrackDT	1.1	SCS215a	20101029.134241	20101029.135229	dt-shadow	8	0.013328	60	10	60-180	60	146	GapExp	0	100	2	9	1	target	1	694	653	78583	13.328	13.125	13.536
DTProbeTrack03	3	ProbeTrackDT	1.1	SCS215a	20101029.134241	20101029.135244	dt-shadow	8	0.013328	60	10	60-180	60	86	GapExp	0	101	2	9	1	target	1	400	800	79383	13.328	13.310	13.346
DTProbeTrack03	3	ProbeTrackDT	1.1	SCS215a	20101029.134241	20101029.135249	dt-shadow	8	0.013328	60	10	60-180	60	80	GapExp	0	102	2	9	1	target	1	414	793	80176	13.328	13.097	13.556
DTProbeTrack03	3	ProbeTrackDT	1.1	SCS215a	20101029.134241	20101029.135254	dt-shadow	8	0.013328	60	10	60-180	60	142	GapExp	0	103	2	9	0	distractor	1	440	780	80956	13.328	12.841	13.809
DTProbeTrack03	3	ProbeTrackDT	1.1	SCS215a	20101029.134241	20101029.135300	dt-shadow	8	0.013328	60	10	60-180	60	171	GapExp	0	104	2	3	0	distractor	1	440	780	81736	13.328	13.098	13.565
DTProbeTrack03	3	ProbeTrackDT	1.1	SCS215a	20101029.134241	20101029.135306	dt-shadow	8	0.013328	60	10	60-180	60	177	GapExp	0	105	2	1	0	distractor	1	440	780	82516	13.685	12.932	119.945
DTProbeTrack03	3	ProbeTrackDT	1.1	SCS215a	20101029.134241	20101029.135313	dt-shadow	8	0.013328	60	10	60-180	60	88	GapExp	0	106	2	6	1	target	1	440	780	83296	13.328	12.942	13.719
DTProbeTrack03	3	ProbeTrackDT	1.1	SCS215a	20101029.134241	20101029.135318	dt-shadow	8	0.013328	60	10	60-180	60	113	GapExp	0	107	2	45	1	target	1	534	733	84029	13.328	13.307	13.345
DTProbeTrack03	3	ProbeTrackDT	1.1	SCS215a	20101029.134241	20101029.135324	dt-shadow	8	0.013328	60	10	60-180	60	120	GapExp	0	108	2	9	0	target	0	733	-1000	83029	13.328	13.104	13.554
DTProbeTrack03	3	ProbeTrackDT	1.1	SCS215a	20101029.134241	20101029.135329	dt-shadow	8	0.013328	60	10	60-180	60	87	GapExp	0	109	2	1	1	target	1	680	660	83689	13.328	13.096	13.566
DTProbeTrack03	3	ProbeTrackDT	1.1	SCS215a	20101029.134241	20101029.135335	dt-shadow	8	0.013328	60	10	60-180	60	61	GapExp	0	110	2	45	0	distractor	1	440	780	84469	13.328	12.916	13.732
DTProbeTrack03	3	ProbeTrackDT	1.1	SCS215a	20101029.134241	20101029.135340	dt-shadow	8	0.013328	60	10	60-180	60	180	GapExp	0	111	2	45	1	target	1	427	787	85256	13.328	12.872	13.787
DTProbeTrack03	3	ProbeTrackDT	1.1	SCS215a	20101029.134241	20101029.135347	dt-shadow	8	0.013328	60	10	60-180	60	88	GapExp	0	112	2	45	1	target	1	467	767	86023	13.328	13.305	13.347
DTProbeTrack03	3	ProbeTrackDT	1.1	SCS215a	20101029.134241	20101029.135352	dt-shadow	8	0.013328	60	10	60-180	60	134	GapExp	0	113	2	9	0	distractor	1	467	767	86790	13.328	12.927	13.727
DTProbeTrack03	3	ProbeTrackDT	1.1	SCS215a	20101029.134241	20101029.135358	dt-shadow	8	0.013328	60	10	60-180	60	69	GapExp	0	114	2	45	0	distractor	1	494	753	87543	13.328	13.105	13.743
DTProbeTrack03	3	ProbeTrackDT	1.1	SCS215a	20101029.134241	20101029.135404	dt-shadow	8	0.013328	60	10	60-180	60	93	GapExp	0	115	2	9	0	distractor	1	400	800	88343	13.328	12.925	13.706
DTProbeTrack03	3	ProbeTrackDT	1.1	SCS215a	20101029.134241	20101029.135409	dt-shadow	8	0.013328	60	10	60-180	60	169	GapExp	0	116	2	9	0	target	0	467	-1000	87343	13.328	13.107	13.534
DTProbeTrack03	3	ProbeTrackDT	1.1	SCS215a	20101029.134241	20101029.135415	dt-shadow	8	0.013328	60	10	60-180	60	122	GapExp	0	117	2	1	0	distractor	1	600	700	88043	13.328	13.310	13.343
DTProbeTrack03	3	ProbeTrackDT	1.1	SCS215a	20101029.134241	20101029.135421	dt-shadow	8	0.013328	60	10	60-180	60	150	GapExp	0	118	2	1	1	target	1	534	733	88776	13.328	13.306	13.349
DTProbeTrack03	3	ProbeTrackDT	1.1	SCS215a	20101029.134241	20101029.135427	dt-shadow	8	0.013328	60	10	60-180	60	98	GapExp	0	119	2	1	1	target	1	494	753	89529	13.328	13.097	13.572
DTProbeTrack03	3	ProbeTrackDT	1.1	SCS215a	20101029.134241	20101029.135432	dt-shadow	8	0.013328	60	10	60-180	60	164	GapExp	0	120	2	1	1	target	1	387	807	90336	13.328	13.086	13.569
DTProbeTrack03	3	ProbeTrackDT	1.1	SCS215a	20101029.134241	20101029.135438	dt-shadow	8	0.013328	60	10	60-180	60	133	GapExp	0	121	2	45	0	distractor	1	534	733	91069	13.328	13.096	13.554
DTProbeTrack03	3	ProbeTrackDT	1.1	SCS215a	20101029.134241	20101029.135444	dt-shadow	8	0.013328	60	10	60-180	60	72	GapExp	0	122	2	3	0	distractor	1	440	780	91849	13.328	12.906	13.751
DTProbeTrack03	3	ProbeTrackDT	1.1	SCS215a	20101029.134241	20101029.135449	dt-shadow	8	0.013328	60	10	60-180	60	161	GapExp	0	123	2	3	1	target	1	640	680	92529	13.328	12.881	13.769
DTProbeTrack03	3	ProbeTrackDT	1.1	SCS215a	20101029.134241	20101029.135455	dt-shadow	8	0.013328	60	10	60-180	60	109	GapExp	0	124	2	9	0	distractor	1	440	780	93309	13.328	13.298	13.348
DTProbeTrack03	3	ProbeTrackDT	1.1	SCS215a	20101029.134241	20101029.135501	dt-shadow	8	0.013328	60	10	60-180	60	141	GapExp	0	125	2	6	1	target	1	387	807	94116	13.328	12.908	13.760
DTProbeTrack03	3	ProbeTrackDT	1.1	SCS215a	20101029.134241	20101029.135506	dt-shadow	8	0.013328	60	10	60-180	60	104	GapExp	0	126	2	9	1	target	1	400	800	94916	13.328	13.100	13.557
DTProbeTrack03	3	ProbeTrackDT	1.1	SCS215a	20101029.134241	20101029.135512	dt-shadow	8	0.013328	60	10	60-180	60	167	GapExp	0	127	2	3	1	target	1	387	807	95723	13.328	13.303	13.349
DTProbeTrack03	3	ProbeTrackDT	1.1	SCS215a	20101029.134241	20101029.135518	dt-shadow	8	0.013328	60	10	60-180	60	70	GapExp	0	128	2	3	0	target	0	627	-1000	94723	13.328	13.037	13.619
DTProbeTrack03	3	ProbeTrackDT	1.1	SCS215a	20101029.134241	20101029.135523	dt-shadow	8	0.013328	60	10	60-180	60	131	GapExp	0	129	2	1	1	target	1	494	753	95476	13.328	13.093	13.556
DTProbeTrack03	3	ProbeTrackDT	1.1	SCS215a	20101029.134241	20101029.135528	dt-shadow	8	0.013328	60	10	60-180	60	95	GapExp	0	130	2	3	0	distractor	1	454	773	96249	13.328	13.106	13.549
DTProbeTrack03	3	ProbeTrackDT	1.1	SCS215a	20101029.134241	20101029.135534	dt-shadow	8	0.013328	60	10	60-180	60	165	GapExp	0	131	2	6	0	distractor	1	520	740	96989	13.328	13.106	13.549
DTProbeTrack03	3	ProbeTrackDT	1.1	SCS215a	20101029.134241	20101029.135540	dt-shadow	8	0.013328	60	10	60-180	60	171	GapExp	0	132	2	45	0	target	0	880	-1000	95989	13.328	12.898	13.752
DTProbeTrack03	3	ProbeTrackDT	1.1	SCS215a	20101029.134241	20101029.135547	dt-shadow	8	0.013328	60	10	60-180	60	86	GapExp	0	133	2	3	0	target	0	787	-1000	94989	13.328	13.126	13.520
DTProbeTrack03	3	ProbeTrackDT	1.1	SCS215a	20101029.134241	20101029.135553	dt-shadow	8	0.013328	60	10	60-180	60	153	GapExp	0	134	2	6	0	distractor	1	520	740	95729	13.328	12.867	13.790
DTProbeTrack03	3	ProbeTrackDT	1.1	SCS215a	20101029.134241	20101029.135559	dt-shadow	8	0.013328	60	10	60-180	60	151	GapExp	0	135	2	1	1	target	1	547	727	96456	13.328	13.014	13.631
DTProbeTrack03	3	ProbeTrackDT	1.1	SCS215a	20101029.134241	20101029.135605	dt-shadow	8	0.013328	60	10	60-180	60	175	GapExp	0	136	2	1	0	distractor	1	520	740	97196	13.328	12.919	13.736
DTProbeTrack03	3	ProbeTrackDT	1.1	SCS215a	20101029.134241	20101029.135611	dt-shadow	8	0.013328	60	10	60-180	60	77	GapExp	0	137	2	3	0	distractor	1	547	727	97923	13.392	13.108	26.652
DTProbeTrack03	3	ProbeTrackDT	1.1	SCS215a	20101029.134241	20101029.135616	dt-shadow	8	0.013328	60	10	60-180	60	148	GapExp	0	138	2	45	0	distractor	1	787	607	98530	13.328	13.113	13.543
DTProbeTrack03	3	ProbeTrackDT	1.1	SCS215a	20101029.134241	20101029.135623	dt-shadow	8	0.013328	60	10	60-180	60	114	GapExp	0	139	2	3	0	distractor	1	760	620	99150	13.328	13.303	13.355
DTProbeTrack03	3	ProbeTrackDT	1.1	SCS215a	20101029.134241	20101029.135628	dt-shadow	8	0.013328	60	10	60-180	60	99	GapExp	0	140	2	6	1	distractor	0	787	-1000	98150	13.328	13.226	13.418
DTProbeTrack03	3	ProbeTrackDT	1.1	SCS215a	20101029.134241	20101029.135634	dt-shadow	8	0.013328	60	10	60-180	60	175	GapExp	0	141	2	1	1	target	1	627	687	98837	13.328	13.297	13.348
DTProbeTrack03	3	ProbeTrackDT	1.1	SCS215a	20101029.134241	20101029.135640	dt-shadow	8	0.013328	60	10	60-180	60	141	GapExp	0	142	2	1	0	distractor	1	534	733	99570	13.328	13.307	13.347
DTProbeTrack03	3	ProbeTrackDT	1.1	SCS215a	20101029.134241	20101029.135646	dt-shadow	8	0.013328	60	10	60-180	60	159	GapExp	0	143	2	45	1	target	1	454	773	100343	13.328	13.119	13.542
DTProbeTrack03	3	ProbeTrackDT	1.1	SCS215a	20101029.134241	20101029.135653	dt-shadow	8	0.013328	60	10	60-180	60	92	GapExp	0	144	2	6	1	target	1	627	687	101030	13.328	12.982	13.688
DTProbeTrack03	3	ProbeTrackDT	1.1	SCS215a	20101029.134241	20101029.135658	dt-shadow	8	0.013328	60	10	60-180	60	138	GapExp	0	145	2	6	1	target	1	547	727	101757	13.328	12.882	13.776
DTProbeTrack03	3	ProbeTrackDT	1.1	SCS215a	20101029.134241	20101029.135704	dt-shadow	8	0.013328	60	10	60-180	60	164	GapExp	0	146	2	3	1	target	1	494	753	102510	13.328	13.173	13.491
DTProbeTrack03	3	ProbeTrackDT	1.1	SCS215a	20101029.134241	20101029.135710	dt-shadow	8	0.013328	60	10	60-180	60	123	GapExp	0	147	2	3	0	distractor	1	480	760	103270	13.328	13.310	13.349
DTProbeTrack03	3	ProbeTrackDT	1.1	SCS215a	20101029.134241	20101029.135716	dt-shadow	8	0.013328	60	10	60-180	60	159	GapExp	0	148	2	1	1	target	1	347	827	104097	13.328	12.928	13.729
DTProbeTrack03	3	ProbeTrackDT	1.1	SCS215a	20101029.134241	20101029.135722	dt-shadow	8	0.013328	60	10	60-180	60	86	GapExp	0	149	2	3	1	target	1	440	780	104877	13.328	12.912	13.740
DTProbeTrack03	3	ProbeTrackDT	1.1	SCS215a	20101029.134241	20101029.135727	dt-shadow	8	0.013328	60	10	60-180	60	104	GapExp	0	150	2	9	1	distractor	0	520	-1000	103877	13.328	13.112	13.553
DTProbeTrack03	3	ProbeTrackDT	1.1	SCS215a	20101029.134241	20101029.135747	dt-shadow	8	0.013328	60	10	60-180	60	109	GapExp	0	151	2	45	1	target	1	347	827	104704	13.328	13.092	13.557
DTProbeTrack03	3	ProbeTrackDT	1.1	SCS215a	20101029.134241	20101029.135753	dt-shadow	8	0.013328	60	10	60-180	60	78	GapExp	0	152	2	3	1	target	1	400	800	105504	13.328	13.309	13.344
DTProbeTrack03	3	ProbeTrackDT	1.1	SCS215a	20101029.134241	20101029.135758	dt-shadow	8	0.013328	60	10	60-180	60	72	GapExp	0	153	2	3	0	distractor	1	507	747	106251	13.328	13.188	13.478
DTProbeTrack03	3	ProbeTrackDT	1.1	SCS215a	20101029.134241	20101029.135803	dt-shadow	8	0.013328	60	10	60-180	60	176	GapExp	0	154	2	3	0	distractor	1	827	587	106838	13.328	13.085	13.556
DTProbeTrack03	3	ProbeTrackDT	1.1	SCS215a	20101029.134241	20101029.135809	dt-shadow	8	0.013328	60	10	60-180	60	67	GapExp	0	155	2	9	0	target	0	600	-1000	105838	13.328	13.311	13.352
DTProbeTrack03	3	ProbeTrackDT	1.1	SCS215a	20101029.134241	20101029.135814	dt-shadow	8	0.013328	60	10	60-180	60	96	GapExp	0	156	2	9	1	target	1	440	780	106618	13.328	13.032	13.628
DTProbeTrack03	3	ProbeTrackDT	1.1	SCS215a	20101029.134241	20101029.135820	dt-shadow	8	0.013328	60	10	60-180	60	132	GapExp	0	157	2	45	1	target	1	400	800	107418	13.328	13.310	13.346
DTProbeTrack03	3	ProbeTrackDT	1.1	SCS215a	20101029.134241	20101029.135826	dt-shadow	8	0.013328	60	10	60-180	60	83	GapExp	0	158	2	1	0	distractor	1	574	713	108131	13.328	12.896	13.767
DTProbeTrack03	3	ProbeTrackDT	1.1	SCS215a	20101029.134241	20101029.135831	dt-shadow	8	0.013328	60	10	60-180	60	137	GapExp	0	159	2	45	0	target	0	534	-1000	107131	13.328	13.084	13.575
DTProbeTrack03	3	ProbeTrackDT	1.1	SCS215a	20101029.134241	20101029.135837	dt-shadow	8	0.013328	60	10	60-180	60	78	GapExp	0	160	2	6	0	distractor	1	627	687	107818	13.328	13.091	13.564
DTProbeTrack03	3	ProbeTrackDT	1.1	SCS215a	20101029.134241	20101029.135842	dt-shadow	8	0.013328	60	10	60-180	60	102	GapExp	0	161	2	45	1	target	1	654	673	108491	13.328	13.291	13.351
DTProbeTrack03	3	ProbeTrackDT	1.1	SCS215a	20101029.134241	20101029.135848	dt-shadow	8	0.013328	60	10	60-180	60	97	GapExp	0	162	2	3	0	distractor	1	800	600	109091	13.328	13.308	13.352
DTProbeTrack03	3	ProbeTrackDT	1.1	SCS215a	20101029.134241	20101029.135854	dt-shadow	8	0.013328	60	10	60-180	60	65	GapExp	0	163	2	3	1	target	1	547	727	109818	13.328	13.302	13.361
DTProbeTrack03	3	ProbeTrackDT	1.1	SCS215a	20101029.134241	20101029.135859	dt-shadow	8	0.013328	60	10	60-180	60	144	GapExp	0	164	2	3	1	target	1	387	807	110625	13.328	13.102	13.569
DTProbeTrack03	3	ProbeTrackDT	1.1	SCS215a	20101029.134241	20101029.135905	dt-shadow	8	0.013328	60	10	60-180	60	77	GapExp	0	165	2	45	1	target	1	414	793	111418	13.328	13.108	13.551
DTProbeTrack03	3	ProbeTrackDT	1.1	SCS215a	20101029.134241	20101029.135910	dt-shadow	8	0.013328	60	10	60-180	60	153	GapExp	0	166	2	45	0	target	0	507	-1000	110418	13.328	12.956	13.714
DTProbeTrack03	3	ProbeTrackDT	1.1	SCS215a	20101029.134241	20101029.135917	dt-shadow	8	0.013328	60	10	60-180	60	122	GapExp	0	167	2	6	0	target	0	720	-1000	109418	13.328	12.954	13.702
DTProbeTrack03	3	ProbeTrackDT	1.1	SCS215a	20101029.134241	20101029.135922	dt-shadow	8	0.013328	60	10	60-180	60	177	GapExp	0	168	2	9	1	target	1	414	793	110211	13.328	13.298	13.364
DTProbeTrack03	3	ProbeTrackDT	1.1	SCS215a	20101029.134241	20101029.135929	dt-shadow	8	0.013328	60	10	60-180	60	131	GapExp	0	169	2	3	1	target	1	467	767	110978	13.328	13.116	13.537
DTProbeTrack03	3	ProbeTrackDT	1.1	SCS215a	20101029.134241	20101029.135934	dt-shadow	8	0.013328	60	10	60-180	60	133	GapExp	0	170	2	6	0	distractor	1	534	733	111711	13.328	13.105	13.552
DTProbeTrack03	3	ProbeTrackDT	1.1	SCS215a	20101029.134241	20101029.135940	dt-shadow	8	0.013328	60	10	60-180	60	161	GapExp	0	171	2	1	1	target	1	400	800	112511	13.328	12.968	13.686
DTProbeTrack03	3	ProbeTrackDT	1.1	SCS215a	20101029.134241	20101029.135946	dt-shadow	8	0.013328	60	10	60-180	60	164	GapExp	0	172	2	3	1	target	1	361	820	113331	13.328	12.916	13.741
DTProbeTrack03	3	ProbeTrackDT	1.1	SCS215a	20101029.134241	20101029.135952	dt-shadow	8	0.013328	60	10	60-180	60	103	GapExp	0	173	2	45	1	target	1	360	820	114151	13.379	12.890	26.834
DTProbeTrack03	3	ProbeTrackDT	1.1	SCS215a	20101029.134241	20101029.135958	dt-shadow	8	0.013328	60	10	60-180	60	175	GapExp	0	174	2	3	0	distractor	1	613	694	114845	13.371	13.129	26.837
DTProbeTrack03	3	ProbeTrackDT	1.1	SCS215a	20101029.134241	20101029.140004	dt-shadow	8	0.013328	60	10	60-180	60	120	GapExp	0	175	2	9	1	target	1	374	813	115658	13.328	13.016	13.640
DTProbeTrack03	3	ProbeTrackDT	1.1	SCS215a	20101029.134241	20101029.140010	dt-shadow	8	0.013328	60	10	60-180	60	139	GapExp	0	176	2	9	1	target	1	347	827	116485	13.328	13.097	13.729
DTProbeTrack03	3	ProbeTrackDT	1.1	SCS215a	20101029.134241	20101029.140015	dt-shadow	8	0.013328	60	10	60-180	60	100	GapExp	0	177	2	9	0	distractor	1	534	733	117218	13.328	13.099	13.551
DTProbeTrack03	3	ProbeTrackDT	1.1	SCS215a	20101029.134241	20101029.140021	dt-shadow	8	0.013328	60	10	60-180	60	168	GapExp	0	178	2	3	0	distractor	1	920	540	117758	13.328	13.119	13.532
DTProbeTrack03	3	ProbeTrackDT	1.1	SCS215a	20101029.134241	20101029.140027	dt-shadow	8	0.013328	60	10	60-180	60	127	GapExp	0	179	2	3	1	target	1	747	627	118385	13.328	13.129	13.512
DTProbeTrack03	3	ProbeTrackDT	1.1	SCS215a	20101029.134241	20101029.140033	dt-shadow	8	0.013328	60	10	60-180	60	167	GapExp	0	180	2	3	0	target	0	787	-1000	117385	13.328	13.017	13.647
DTProbeTrack03	3	ProbeTrackDT	1.1	SCS215a	20101029.134241	20101029.140040	dt-shadow	8	0.013328	60	10	60-180	60	144	GapExp	0	181	2	9	0	target	0	627	-1000	116385	13.328	13.308	13.353
DTProbeTrack03	3	ProbeTrackDT	1.1	SCS215a	20101029.134241	20101029.140046	dt-shadow	8	0.013328	60	10	60-180	60	117	GapExp	0	182	2	9	0	distractor	1	547	727	117112	13.328	13.308	13.347
DTProbeTrack03	3	ProbeTrackDT	1.1	SCS215a	20101029.134241	20101029.140051	dt-shadow	8	0.013328	60	10	60-180	60	107	GapExp	0	183	2	6	1	target	1	574	713	117825	13.328	13.093	13.555
DTProbeTrack03	3	ProbeTrackDT	1.1	SCS215a	20101029.134241	20101029.140057	dt-shadow	8	0.013328	60	10	60-180	60	84	GapExp	0	184	2	3	1	target	1	467	767	118592	13.328	13.310	13.347
DTProbeTrack03	3	ProbeTrackDT	1.1	SCS215a	20101029.134241	20101029.140102	dt-shadow	8	0.013328	60	10	60-180	60	91	GapExp	0	185	2	45	1	target	1	440	780	119372	13.328	12.877	13.791
DTProbeTrack03	3	ProbeTrackDT	1.1	SCS215a	20101029.134241	20101029.140108	dt-shadow	8	0.013328	60	10	60-180	60	112	GapExp	0	186	2	6	1	target	1	374	813	120185	13.328	13.110	13.541
DTProbeTrack03	3	ProbeTrackDT	1.1	SCS215a	20101029.134241	20101029.140113	dt-shadow	8	0.013328	60	10	60-180	60	177	GapExp	0	187	2	3	0	target	0	560	-1000	119185	13.328	12.929	13.737
DTProbeTrack03	3	ProbeTrackDT	1.1	SCS215a	20101029.134241	20101029.140119	dt-shadow	8	0.013328	60	10	60-180	60	125	GapExp	0	188	2	6	0	distractor	1	587	707	119892	13.328	12.971	13.701
DTProbeTrack03	3	ProbeTrackDT	1.1	SCS215a	20101029.134241	20101029.140125	dt-shadow	8	0.013328	60	10	60-180	60	71	GapExp	0	189	2	3	1	target	1	573	714	120606	13.328	13.101	13.549
DTProbeTrack03	3	ProbeTrackDT	1.1	SCS215a	20101029.134241	20101029.140130	dt-shadow	8	0.013328	60	10	60-180	60	119	GapExp	0	190	2	45	0	target	0	480	-1000	119606	13.328	13.308	13.346
DTProbeTrack03	3	ProbeTrackDT	1.1	SCS215a	20101029.134241	20101029.140136	dt-shadow	8	0.013328	60	10	60-180	60	63	GapExp	0	191	2	6	1	target	1	454	773	120379	13.328	13.224	13.443
DTProbeTrack03	3	ProbeTrackDT	1.1	SCS215a	20101029.134241	20101029.140141	dt-shadow	8	0.013328	60	10	60-180	60	172	GapExp	0	192	2	45	0	target	0	560	-1000	119379	13.328	13.108	13.555
DTProbeTrack03	3	ProbeTrackDT	1.1	SCS215a	20101029.134241	20101029.140148	dt-shadow	8	0.013328	60	10	60-180	60	76	GapExp	0	193	2	9	1	target	1	467	767	120146	13.328	13.086	13.573
DTProbeTrack03	3	ProbeTrackDT	1.1	SCS215a	20101029.134241	20101029.140153	dt-shadow	8	0.013328	60	10	60-180	60	178	GapExp	0	194	2	3	0	distractor	1	547	727	120873	13.328	13.106	13.551
DTProbeTrack03	3	ProbeTrackDT	1.1	SCS215a	20101029.134241	20101029.140159	dt-shadow	8	0.013328	60	10	60-180	60	152	GapExp	0	195	2	3	1	target	1	320	840	121713	13.328	13.107	13.548
DTProbeTrack03	3	ProbeTrackDT	1.1	SCS215a	20101029.134241	20101029.140205	dt-shadow	8	0.013328	60	10	60-180	60	172	GapExp	0	196	2	3	1	target	1	347	827	122540	13.328	12.846	13.817
DTProbeTrack03	3	ProbeTrackDT	1.1	SCS215a	20101029.134241	20101029.140211	dt-shadow	8	0.013328	60	10	60-180	60	61	GapExp	0	197	2	6	1	target	1	387	807	123347	13.328	13.310	13.347
DTProbeTrack03	3	ProbeTrackDT	1.1	SCS215a	20101029.134241	20101029.140216	dt-shadow	8	0.013328	60	10	60-180	60	123	GapExp	0	198	2	9	0	distractor	1	480	760	124107	13.328	13.101	13.550
DTProbeTrack03	3	ProbeTrackDT	1.1	SCS215a	20101029.134241	20101029.140222	dt-shadow	8	0.013328	60	10	60-180	60	151	GapExp	0	199	2	9	1	target	1	400	800	124907	13.328	13.093	13.557
DTProbeTrack03	3	ProbeTrackDT	1.1	SCS215a	20101029.134241	20101029.140228	dt-shadow	8	0.013328	60	10	60-180	60	177	GapExp	0	200	2	1	0	distractor	1	467	767	125674	13.328	13.101	13.556
DTProbeTrack03	3	ProbeTrackDT	1.1	SCS215a	20101029.134241	20101029.140242	dt-shadow	8	0.013328	60	10	60-180	60	68	GapExp	0	201	2	45	1	target	1	374	813	126487	13.328	12.998	13.661
DTProbeTrack03	3	ProbeTrackDT	1.1	SCS215a	20101029.134241	20101029.140247	dt-shadow	8	0.013328	60	10	60-180	60	160	GapExp	0	202	2	45	0	target	0	480	-1000	125487	13.328	13.113	13.564
DTProbeTrack03	3	ProbeTrackDT	1.1	SCS215a	20101029.134241	20101029.140254	dt-shadow	8	0.013328	60	10	60-180	60	170	GapExp	0	203	2	9	0	distractor	1	480	760	126247	13.328	12.885	13.765
DTProbeTrack03	3	ProbeTrackDT	1.1	SCS215a	20101029.134241	20101029.140300	dt-shadow	8	0.013328	60	10	60-180	60	173	GapExp	0	204	2	6	1	target	1	387	807	127054	13.328	13.061	13.596
DTProbeTrack03	3	ProbeTrackDT	1.1	SCS215a	20101029.134241	20101029.140306	dt-shadow	8	0.013328	60	10	60-180	60	124	GapExp	0	205	2	1	0	distractor	1	507	747	127801	13.328	13.306	13.347
DTProbeTrack03	3	ProbeTrackDT	1.1	SCS215a	20101029.140354	20101029.140357	single-task	8	0.013328	60	10	60-180	60	146	GapPrac	1	1	2	9	0	distractor	1	440	780	128581	13.328	13.248	13.407
DTProbeTrack03	3	ProbeTrackDT	1.1	SCS215a	20101029.140354	20101029.140403	single-task	8	0.013328	60	10	60-180	60	95	GapPrac	1	2	2	45	0	distractor	1	574	713	129294	13.328	13.308	13.349
DTProbeTrack03	3	ProbeTrackDT	1.1	SCS215a	20101029.140354	20101029.140409	single-task	8	0.013328	60	10	60-180	60	131	GapPrac	1	3	2	45	1	target	1	387	807	130101	13.328	13.073	13.584
DTProbeTrack03	3	ProbeTrackDT	1.1	SCS215a	20101029.140354	20101029.140415	single-task	8	0.013328	60	10	60-180	60	90	GapPrac	1	4	2	1	1	target	1	400	800	130901	13.328	12.915	13.729
DTProbeTrack03	3	ProbeTrackDT	1.1	SCS215a	20101029.140354	20101029.140420	single-task	8	0.013328	60	10	60-180	60	84	GapPrac	1	5	2	9	1	target	1	374	813	131714	13.328	12.884	13.770
DTProbeTrack03	3	ProbeTrackDT	1.1	SCS215a	20101029.140354	20101029.140425	single-task	8	0.013328	60	10	60-180	60	67	GapPrac	1	6	2	1	1	target	1	440	780	132494	13.328	12.952	13.699
DTProbeTrack03	3	ProbeTrackDT	1.1	SCS215a	20101029.140354	20101029.140430	single-task	8	0.013328	60	10	60-180	60	103	GapPrac	1	7	2	45	0	distractor	1	680	660	133154	13.328	13.027	13.622
DTProbeTrack03	3	ProbeTrackDT	1.1	SCS215a	20101029.140354	20101029.140436	single-task	8	0.013328	60	10	60-180	60	118	GapPrac	1	8	2	9	0	distractor	1	645	678	133832	13.328	13.039	13.620
DTProbeTrack03	3	ProbeTrackDT	1.1	SCS215a	20101029.140354	20101029.140442	single-task	8	0.013328	60	10	60-180	60	90	GapPrac	1	9	2	3	1	target	1	494	753	134585	13.328	13.090	13.549
DTProbeTrack03	3	ProbeTrackDT	1.1	SCS215a	20101029.140354	20101029.140447	single-task	8	0.013328	60	10	60-180	60	173	GapPrac	1	10	2	9	1	target	1	440	780	135365	13.328	13.303	13.357
DTProbeTrack03	3	ProbeTrackDT	1.1	SCS215a	20101029.140354	20101029.140454	single-task	8	0.013328	60	10	60-180	60	114	GapPrac	1	11	2	1	0	distractor	1	494	753	136118	13.328	13.307	13.350
DTProbeTrack03	3	ProbeTrackDT	1.1	SCS215a	20101029.140354	20101029.140459	single-task	8	0.013328	60	10	60-180	60	151	GapPrac	1	12	2	6	1	target	1	374	813	136931	13.328	13.301	13.349
DTProbeTrack03	3	ProbeTrackDT	1.1	SCS215a	20101029.140354	20101029.140505	single-task	8	0.013328	60	10	60-180	60	88	GapPrac	1	13	2	45	1	target	1	414	793	137724	13.328	13.306	13.347
DTProbeTrack03	3	ProbeTrackDT	1.1	SCS215a	20101029.140354	20101029.140510	single-task	8	0.013328	60	10	60-180	60	148	GapPrac	1	14	2	3	0	distractor	1	494	753	138477	13.328	13.098	13.553
DTProbeTrack03	3	ProbeTrackDT	1.1	SCS215a	20101029.140354	20101029.140516	single-task	8	0.013328	60	10	60-180	60	171	GapPrac	1	15	2	6	0	distractor	1	587	707	139184	13.328	13.109	13.546
DTProbeTrack03	3	ProbeTrackDT	1.1	SCS215a	20101029.140354	20101029.140523	single-task	8	0.013328	60	10	60-180	60	177	GapPrac	1	16	2	6	0	distractor	1	586	707	139891	13.328	12.972	13.683
DTProbeTrack03	3	ProbeTrackDT	1.1	SCS215a	20101029.140354	20101029.140529	single-task	8	0.013328	60	10	60-180	60	63	GapPrac	1	17	2	3	0	distractor	1	667	667	140558	13.328	13.306	13.347
DTProbeTrack03	3	ProbeTrackDT	1.1	SCS215a	20101029.140354	20101029.140534	single-task	8	0.013328	60	10	60-180	60	112	GapPrac	1	18	2	3	1	target	1	494	753	141311	13.328	13.010	13.653
DTProbeTrack03	3	ProbeTrackDT	1.1	SCS215a	20101029.140354	20101029.140540	single-task	8	0.013328	60	10	60-180	60	134	GapPrac	1	19	2	1	0	distractor	1	467	767	142078	13.328	13.019	13.643
DTProbeTrack03	3	ProbeTrackDT	1.1	SCS215a	20101029.140354	20101029.140545	single-task	8	0.013328	60	10	60-180	60	131	GapPrac	1	20	2	6	1	target	1	467	767	142845	13.328	13.088	13.556
DTProbeTrack03	3	ProbeTrackDT	1.1	SCS215a	20101029.140617	20101029.140621	single-task	8	0.013328	60	10	60-180	60	163	GapExp	1	1	2	6	0	distractor	1	520	740	143585	13.328	12.934	13.715
DTProbeTrack03	3	ProbeTrackDT	1.1	SCS215a	20101029.140617	20101029.140627	single-task	8	0.013328	60	10	60-180	60	125	GapExp	1	2	2	1	0	distractor	1	454	773	144358	13.328	13.094	13.544
DTProbeTrack03	3	ProbeTrackDT	1.1	SCS215a	20101029.140617	20101029.140633	single-task	8	0.013328	60	10	60-180	60	64	GapExp	1	3	2	9	0	distractor	1	360	820	145178	13.328	13.308	13.354
DTProbeTrack03	3	ProbeTrackDT	1.1	SCS215a	20101029.140617	20101029.140637	single-task	8	0.013328	60	10	60-180	60	107	GapExp	1	4	2	9	1	target	1	360	820	145998	13.328	12.884	13.778
DTProbeTrack03	3	ProbeTrackDT	1.1	SCS215a	20101029.140617	20101029.140643	single-task	8	0.013328	60	10	60-180	60	68	GapExp	1	5	2	6	1	target	1	387	807	146805	13.328	12.863	13.799
DTProbeTrack03	3	ProbeTrackDT	1.1	SCS215a	20101029.140617	20101029.140647	single-task	8	0.013328	60	10	60-180	60	83	GapExp	0	6	2	9	0	distractor	1	454	773	147578	13.328	13.098	13.571
DTProbeTrack03	3	ProbeTrackDT	1.1	SCS215a	20101029.140617	20101029.140652	single-task	8	0.013328	60	10	60-180	60	108	GapExp	0	7	2	3	1	target	1	360	820	148398	13.328	13.307	13.348
DTProbeTrack03	3	ProbeTrackDT	1.1	SCS215a	20101029.140617	20101029.140658	single-task	8	0.013328	60	10	60-180	60	79	GapExp	0	8	2	6	0	distractor	1	374	813	149211	13.328	13.046	13.609
DTProbeTrack03	3	ProbeTrackDT	1.1	SCS215a	20101029.140617	20101029.140703	single-task	8	0.013328	60	10	60-180	60	64	GapExp	0	9	2	1	0	target	0	693	-1000	148211	13.328	13.159	13.492
DTProbeTrack03	3	ProbeTrackDT	1.1	SCS215a	20101029.140617	20101029.140708	single-task	8	0.013328	60	10	60-180	60	163	GapExp	0	10	2	3	0	distractor	1	494	753	148964	13.328	13.105	13.544
DTProbeTrack03	3	ProbeTrackDT	1.1	SCS215a	20101029.140617	20101029.140714	single-task	8	0.013328	60	10	60-180	60	116	GapExp	0	11	2	9	0	target	0	467	-1000	147964	13.328	13.032	13.624
DTProbeTrack03	3	ProbeTrackDT	1.1	SCS215a	20101029.140617	20101029.140719	single-task	8	0.013328	60	10	60-180	60	153	GapExp	0	12	2	3	1	target	1	467	767	148731	13.328	13.287	13.369
DTProbeTrack03	3	ProbeTrackDT	1.1	SCS215a	20101029.140617	20101029.140725	single-task	8	0.013328	60	10	60-180	60	157	GapExp	0	13	2	6	1	target	1	374	813	149544	13.328	12.853	13.802
DTProbeTrack03	3	ProbeTrackDT	1.1	SCS215a	20101029.140617	20101029.140731	single-task	8	0.013328	60	10	60-180	60	76	GapExp	0	14	2	9	0	distractor	1	507	747	150291	13.328	12.926	13.732
DTProbeTrack03	3	ProbeTrackDT	1.1	SCS215a	20101029.140617	20101029.140736	single-task	8	0.013328	60	10	60-180	60	125	GapExp	0	15	2	9	1	target	1	414	793	151084	13.328	13.141	13.513
DTProbeTrack03	3	ProbeTrackDT	1.1	SCS215a	20101029.140617	20101029.140742	single-task	8	0.013328	60	10	60-180	60	81	GapExp	0	16	2	9	1	target	1	347	827	151911	13.328	12.889	13.766
DTProbeTrack03	3	ProbeTrackDT	1.1	SCS215a	20101029.140617	20101029.140747	single-task	8	0.013328	60	10	60-180	60	174	GapExp	0	17	2	6	0	target	0	307	-1000	150911	13.328	13.101	13.554
DTProbeTrack03	3	ProbeTrackDT	1.1	SCS215a	20101029.140617	20101029.140753	single-task	8	0.013328	60	10	60-180	60	110	GapExp	0	18	2	6	0	distractor	1	467	767	151678	13.328	13.299	13.348
DTProbeTrack03	3	ProbeTrackDT	1.1	SCS215a	20101029.140617	20101029.140758	single-task	8	0.013328	60	10	60-180	60	117	GapExp	0	19	2	9	0	distractor	1	467	767	152445	13.328	12.862	13.802
DTProbeTrack03	3	ProbeTrackDT	1.1	SCS215a	20101029.140617	20101029.140804	single-task	8	0.013328	60	10	60-180	60	112	GapExp	0	20	2	6	0	distractor	1	480	760	153205	13.328	13.106	13.552
DTProbeTrack03	3	ProbeTrackDT	1.1	SCS215a	20101029.140617	20101029.140809	single-task	8	0.013328	60	10	60-180	60	70	GapExp	0	21	2	6	1	target	1	427	787	153992	13.328	12.954	13.714
DTProbeTrack03	3	ProbeTrackDT	1.1	SCS215a	20101029.140617	20101029.140814	single-task	8	0.013328	60	10	60-180	60	143	GapExp	0	22	2	45	1	target	1	547	727	154719	13.328	12.851	13.805
DTProbeTrack03	3	ProbeTrackDT	1.1	SCS215a	20101029.140617	20101029.140820	single-task	8	0.013328	60	10	60-180	60	156	GapExp	0	23	2	6	1	target	1	414	793	155512	13.328	12.970	13.678
DTProbeTrack03	3	ProbeTrackDT	1.1	SCS215a	20101029.140617	20101029.140826	single-task	8	0.013328	60	10	60-180	60	87	GapExp	0	24	2	9	0	distractor	1	414	793	156305	13.328	13.097	13.565
DTProbeTrack03	3	ProbeTrackDT	1.1	SCS215a	20101029.140617	20101029.140832	single-task	8	0.013328	60	10	60-180	60	133	GapExp	0	25	2	3	0	distractor	1	454	773	157078	13.328	12.929	13.733
DTProbeTrack03	3	ProbeTrackDT	1.1	SCS215a	20101029.140617	20101029.140837	single-task	8	0.013328	60	10	60-180	60	154	GapExp	0	26	2	1	1	target	1	574	713	157791	13.328	13.304	13.347
DTProbeTrack03	3	ProbeTrackDT	1.1	SCS215a	20101029.140617	20101029.140843	single-task	8	0.013328	60	10	60-180	60	138	GapExp	0	27	2	45	1	target	1	454	773	158564	13.328	12.852	13.817
DTProbeTrack03	3	ProbeTrackDT	1.1	SCS215a	20101029.140617	20101029.140850	single-task	8	0.013328	60	10	60-180	60	127	GapExp	0	28	2	45	0	distractor	1	400	800	159364	13.328	12.889	13.754
DTProbeTrack03	3	ProbeTrackDT	1.1	SCS215a	20101029.140617	20101029.140856	single-task	8	0.013328	60	10	60-180	60	101	GapExp	0	29	2	45	1	target	1	374	813	160177	13.328	13.096	13.566
DTProbeTrack03	3	ProbeTrackDT	1.1	SCS215a	20101029.140617	20101029.140901	single-task	8	0.013328	60	10	60-180	60	116	GapExp	0	30	2	6	1	target	1	347	827	161004	13.328	13.105	13.552
DTProbeTrack03	3	ProbeTrackDT	1.1	SCS215a	20101029.140617	20101029.140907	single-task	8	0.013328	60	10	60-180	60	61	GapExp	0	31	2	9	0	distractor	1	440	780	161784	13.328	12.936	13.729
DTProbeTrack03	3	ProbeTrackDT	1.1	SCS215a	20101029.140617	20101029.140911	single-task	8	0.013328	60	10	60-180	60	121	GapExp	0	32	2	45	1	target	1	507	747	162531	13.328	12.941	13.720
DTProbeTrack03	3	ProbeTrackDT	1.1	SCS215a	20101029.140617	20101029.140918	single-task	8	0.013328	60	10	60-180	60	70	GapExp	0	33	2	6	1	target	1	427	787	163318	13.328	13.152	13.505
DTProbeTrack03	3	ProbeTrackDT	1.1	SCS215a	20101029.140617	20101029.140922	single-task	8	0.013328	60	10	60-180	60	137	GapExp	0	34	2	1	0	distractor	1	507	747	164065	13.328	13.118	13.550
DTProbeTrack03	3	ProbeTrackDT	1.1	SCS215a	20101029.140617	20101029.140928	single-task	8	0.013328	60	10	60-180	60	64	GapExp	0	35	2	9	0	target	0	667	-1000	163065	13.328	13.105	13.551
DTProbeTrack03	3	ProbeTrackDT	1.1	SCS215a	20101029.140617	20101029.140933	single-task	8	0.013328	60	10	60-180	60	127	GapExp	0	36	2	6	0	distractor	1	374	813	163878	13.328	12.871	13.800
DTProbeTrack03	3	ProbeTrackDT	1.1	SCS215a	20101029.140617	20101029.140939	single-task	8	0.013328	60	10	60-180	60	173	GapExp	0	37	2	1	0	distractor	1	400	800	164678	13.328	13.105	13.557
DTProbeTrack03	3	ProbeTrackDT	1.1	SCS215a	20101029.140617	20101029.140945	single-task	8	0.013328	60	10	60-180	60	86	GapExp	0	38	2	3	1	target	1	467	767	165445	13.328	13.004	13.664
DTProbeTrack03	3	ProbeTrackDT	1.1	SCS215a	20101029.140617	20101029.140950	single-task	8	0.013328	60	10	60-180	60	133	GapExp	0	39	2	3	0	distractor	1	440	780	166225	13.328	13.307	13.347
DTProbeTrack03	3	ProbeTrackDT	1.1	SCS215a	20101029.140617	20101029.140955	single-task	8	0.013328	60	10	60-180	60	95	GapExp	0	40	2	6	1	target	1	400	800	167025	13.328	12.926	13.739
DTProbeTrack03	3	ProbeTrackDT	1.1	SCS215a	20101029.140617	20101029.141001	single-task	8	0.013328	60	10	60-180	60	167	GapExp	0	41	2	1	0	target	0	454	-1000	166025	13.328	13.310	13.347
DTProbeTrack03	3	ProbeTrackDT	1.1	SCS215a	20101029.140617	20101029.141007	single-task	8	0.013328	60	10	60-180	60	153	GapExp	0	42	2	45	0	distractor	1	494	753	166778	13.328	12.906	13.749
DTProbeTrack03	3	ProbeTrackDT	1.1	SCS215a	20101029.140617	20101029.141013	single-task	8	0.013328	60	10	60-180	60	176	GapExp	0	43	2	1	1	target	1	454	773	167551	13.329	13.306	13.573
DTProbeTrack03	3	ProbeTrackDT	1.1	SCS215a	20101029.140617	20101029.141019	single-task	8	0.013328	60	10	60-180	60	130	GapExp	0	44	2	3	1	target	1	347	827	168378	13.328	13.267	13.384
DTProbeTrack03	3	ProbeTrackDT	1.1	SCS215a	20101029.140617	20101029.141025	single-task	8	0.013328	60	10	60-180	60	75	GapExp	0	45	2	9	0	distractor	1	454	773	169151	13.328	13.281	13.376
DTProbeTrack03	3	ProbeTrackDT	1.1	SCS215a	20101029.140617	20101029.141030	single-task	8	0.013328	60	10	60-180	60	117	GapExp	0	46	2	3	0	distractor	1	414	793	169944	13.328	13.308	13.349
DTProbeTrack03	3	ProbeTrackDT	1.1	SCS215a	20101029.140617	20101029.141035	single-task	8	0.013328	60	10	60-180	60	61	GapExp	0	47	2	9	0	distractor	1	400	800	170744	13.328	13.189	13.469
DTProbeTrack03	3	ProbeTrackDT	1.1	SCS215a	20101029.140617	20101029.141040	single-task	8	0.013328	60	10	60-180	60	173	GapExp	0	48	2	1	0	distractor	1	374	813	171557	13.328	13.105	13.552
DTProbeTrack03	3	ProbeTrackDT	1.1	SCS215a	20101029.140617	20101029.141046	single-task	8	0.013328	60	10	60-180	60	143	GapExp	0	49	2	1	0	distractor	1	467	767	172324	13.328	13.031	13.620
DTProbeTrack03	3	ProbeTrackDT	1.1	SCS215a	20101029.140617	20101029.141052	single-task	8	0.013328	60	10	60-180	60	163	GapExp	0	50	2	6	1	target	1	387	807	173131	13.328	13.085	13.570
DTProbeTrack03	3	ProbeTrackDT	1.1	SCS215a	20101029.140617	20101029.141326	single-task	8	0.013328	60	10	60-180	60	120	GapExp	0	51	2	9	1	target	1	347	827	173958	13.328	12.888	13.770
DTProbeTrack03	3	ProbeTrackDT	1.1	SCS215a	20101029.140617	20101029.141331	single-task	8	0.013328	60	10	60-180	60	131	GapExp	0	52	2	45	0	distractor	1	467	767	174725	13.328	12.848	13.821
DTProbeTrack03	3	ProbeTrackDT	1.1	SCS215a	20101029.140617	20101029.141338	single-task	8	0.013328	60	10	60-180	60	120	GapExp	0	53	2	9	1	target	1	507	747	175472	13.328	12.874	13.783
DTProbeTrack03	3	ProbeTrackDT	1.1	SCS215a	20101029.140617	20101029.141343	single-task	8	0.013328	60	10	60-180	60	95	GapExp	0	54	2	9	1	target	1	347	827	176299	13.328	13.263	13.404
DTProbeTrack03	3	ProbeTrackDT	1.1	SCS215a	20101029.140617	20101029.141348	single-task	8	0.013328	60	10	60-180	60	111	GapExp	0	55	2	45	0	target	0	507	-1000	175299	13.328	13.006	13.644
DTProbeTrack03	3	ProbeTrackDT	1.1	SCS215a	20101029.140617	20101029.141354	single-task	8	0.013328	60	10	60-180	60	166	GapExp	0	56	2	1	0	distractor	1	467	767	176066	13.328	13.095	13.571
DTProbeTrack03	3	ProbeTrackDT	1.1	SCS215a	20101029.140617	20101029.141400	single-task	8	0.013328	60	10	60-180	60	91	GapExp	0	57	2	3	1	target	1	334	833	176899	13.329	12.846	13.793
DTProbeTrack03	3	ProbeTrackDT	1.1	SCS215a	20101029.140617	20101029.141405	single-task	8	0.013328	60	10	60-180	60	170	GapExp	0	58	2	9	0	target	0	547	-1000	175899	13.328	13.306	13.357
DTProbeTrack03	3	ProbeTrackDT	1.1	SCS215a	20101029.140617	20101029.141412	single-task	8	0.013328	60	10	60-180	60	78	GapExp	0	59	2	45	1	target	1	507	747	176646	13.328	12.871	13.807
DTProbeTrack03	3	ProbeTrackDT	1.1	SCS215a	20101029.140617	20101029.141417	single-task	8	0.013328	60	10	60-180	60	142	GapExp	0	60	2	9	1	target	1	440	780	177426	13.328	12.882	13.786
DTProbeTrack03	3	ProbeTrackDT	1.1	SCS215a	20101029.140617	20101029.141423	single-task	8	0.013328	60	10	60-180	60	116	GapExp	0	61	2	3	1	target	1	387	807	178233	13.328	13.084	13.563
DTProbeTrack03	3	ProbeTrackDT	1.1	SCS215a	20101029.140617	20101029.141429	single-task	8	0.013328	60	10	60-180	60	76	GapExp	0	62	2	45	0	distractor	1	560	720	178953	13.328	12.849	13.816
DTProbeTrack03	3	ProbeTrackDT	1.1	SCS215a	20101029.140617	20101029.141434	single-task	8	0.013328	60	10	60-180	60	175	GapExp	0	63	2	1	1	target	1	574	713	179666	13.328	12.882	13.774
DTProbeTrack03	3	ProbeTrackDT	1.1	SCS215a	20101029.140617	20101029.141440	single-task	8	0.013328	60	10	60-180	60	133	GapExp	0	64	2	3	1	target	1	400	800	180466	13.328	12.886	13.772
DTProbeTrack03	3	ProbeTrackDT	1.1	SCS215a	20101029.140617	20101029.141446	single-task	8	0.013328	60	10	60-180	60	135	GapExp	0	65	2	45	0	target	0	454	-1000	179466	13.328	13.306	13.347
DTProbeTrack03	3	ProbeTrackDT	1.1	SCS215a	20101029.140617	20101029.141452	single-task	8	0.013328	60	10	60-180	60	85	GapExp	0	66	2	45	1	target	1	467	767	180233	13.328	13.309	13.348
DTProbeTrack03	3	ProbeTrackDT	1.1	SCS215a	20101029.140617	20101029.141458	single-task	8	0.013328	60	10	60-180	60	69	GapExp	0	67	2	6	1	target	1	400	800	181033	13.328	13.091	13.572
DTProbeTrack03	3	ProbeTrackDT	1.1	SCS215a	20101029.140617	20101029.141503	single-task	8	0.013328	60	10	60-180	60	128	GapExp	0	68	2	9	0	distractor	1	534	733	181766	13.328	12.988	13.678
DTProbeTrack03	3	ProbeTrackDT	1.1	SCS215a	20101029.140617	20101029.141509	single-task	8	0.013328	60	10	60-180	60	162	GapExp	0	69	2	3	0	distractor	1	467	767	182533	13.328	13.308	13.347
DTProbeTrack03	3	ProbeTrackDT	1.1	SCS215a	20101029.140617	20101029.141515	single-task	8	0.013328	60	10	60-180	60	64	GapExp	0	70	2	3	1	target	1	454	773	183306	13.328	12.964	13.675
DTProbeTrack03	3	ProbeTrackDT	1.1	SCS215a	20101029.140617	20101029.141519	single-task	8	0.013328	60	10	60-180	60	141	GapExp	0	71	2	9	1	target	1	574	713	184019	13.328	13.097	13.558
DTProbeTrack03	3	ProbeTrackDT	1.1	SCS215a	20101029.140617	20101029.141525	single-task	8	0.013328	60	10	60-180	60	61	GapExp	0	72	2	45	1	target	1	360	820	184839	13.328	13.099	13.537
DTProbeTrack03	3	ProbeTrackDT	1.1	SCS215a	20101029.140617	20101029.141530	single-task	8	0.013328	60	10	60-180	60	104	GapExp	0	73	2	9	0	distractor	1	427	787	185626	13.328	13.310	13.346
DTProbeTrack03	3	ProbeTrackDT	1.1	SCS215a	20101029.140617	20101029.141536	single-task	8	0.013328	60	10	60-180	60	90	GapExp	0	74	2	3	1	target	1	454	773	186399	13.328	12.889	13.762
DTProbeTrack03	3	ProbeTrackDT	1.1	SCS215a	20101029.140617	20101029.141541	single-task	8	0.013328	60	10	60-180	60	132	GapExp	0	75	2	3	1	target	1	520	740	187139	13.328	13.098	13.564
DTProbeTrack03	3	ProbeTrackDT	1.1	SCS215a	20101029.140617	20101029.141547	single-task	8	0.013328	60	10	60-180	60	75	GapExp	0	76	2	9	1	target	1	454	773	187912	13.328	13.094	13.567
DTProbeTrack03	3	ProbeTrackDT	1.1	SCS215a	20101029.140617	20101029.141552	single-task	8	0.013328	60	10	60-180	60	90	GapExp	0	77	2	1	0	distractor	1	520	740	188652	13.328	12.968	13.688
DTProbeTrack03	3	ProbeTrackDT	1.1	SCS215a	20101029.140617	20101029.141557	single-task	8	0.013328	60	10	60-180	60	144	GapExp	0	78	2	6	0	distractor	1	440	780	189432	13.328	13.191	13.449
DTProbeTrack03	3	ProbeTrackDT	1.1	SCS215a	20101029.140617	20101029.141602	single-task	8	0.013328	60	10	60-180	60	156	GapExp	0	79	2	9	1	target	1	414	793	190225	13.328	13.286	13.356
DTProbeTrack03	3	ProbeTrackDT	1.1	SCS215a	20101029.140617	20101029.141608	single-task	8	0.013328	60	10	60-180	60	163	GapExp	0	80	2	6	1	target	1	440	780	191005	13.328	13.092	13.563
DTProbeTrack03	3	ProbeTrackDT	1.1	SCS215a	20101029.140617	20101029.141614	single-task	8	0.013328	60	10	60-180	60	171	GapExp	0	81	2	1	0	distractor	1	534	733	191738	13.328	13.103	13.546
DTProbeTrack03	3	ProbeTrackDT	1.1	SCS215a	20101029.140617	20101029.141621	single-task	8	0.013328	60	10	60-180	60	81	GapExp	0	82	2	45	0	distractor	1	454	773	192511	13.328	12.916	13.740
DTProbeTrack03	3	ProbeTrackDT	1.1	SCS215a	20101029.140617	20101029.141626	single-task	8	0.013328	60	10	60-180	60	167	GapExp	0	83	2	45	0	distractor	1	454	773	193284	13.328	12.834	13.823
DTProbeTrack03	3	ProbeTrackDT	1.1	SCS215a	20101029.140617	20101029.141633	single-task	8	0.013328	60	10	60-180	60	165	GapExp	0	84	2	1	0	target	0	614	-1000	192284	13.328	13.074	13.588
DTProbeTrack03	3	ProbeTrackDT	1.1	SCS215a	20101029.140617	20101029.141639	single-task	8	0.013328	60	10	60-180	60	138	GapExp	0	85	2	45	1	target	1	787	607	192891	13.328	12.875	13.776
DTProbeTrack03	3	ProbeTrackDT	1.1	SCS215a	20101029.140617	20101029.141646	single-task	8	0.013328	60	10	60-180	60	126	GapExp	0	86	2	9	1	target	1	440	780	193671	13.328	13.304	13.346
DTProbeTrack03	3	ProbeTrackDT	1.1	SCS215a	20101029.140617	20101029.141652	single-task	8	0.013328	60	10	60-180	60	164	GapExp	0	87	2	9	1	target	1	480	760	194431	13.328	13.308	13.346
DTProbeTrack03	3	ProbeTrackDT	1.1	SCS215a	20101029.140617	20101029.141658	single-task	8	0.013328	60	10	60-180	60	169	GapExp	0	88	2	1	1	target	1	374	813	195244	13.328	13.096	13.556
DTProbeTrack03	3	ProbeTrackDT	1.1	SCS215a	20101029.140617	20101029.141704	single-task	8	0.013328	60	10	60-180	60	85	GapExp	0	89	2	3	0	target	0	8677	-1000	194244	13.328	13.164	13.422
DTProbeTrack03	3	ProbeTrackDT	1.1	SCS215a	20101029.140617	20101029.141717	single-task	8	0.013328	60	10	60-180	60	126	GapExp	0	90	2	45	1	target	1	427	787	195031	13.420	12.926	27.021
DTProbeTrack03	3	ProbeTrackDT	1.1	SCS215a	20101029.140617	20101029.141723	single-task	8	0.013328	60	10	60-180	60	171	GapExp	0	91	2	45	0	target	0	387	-1000	194031	13.328	13.100	13.549
DTProbeTrack03	3	ProbeTrackDT	1.1	SCS215a	20101029.140617	20101029.141730	single-task	8	0.013328	60	10	60-180	60	64	GapExp	0	92	2	6	0	distractor	1	427	787	194818	13.328	12.885	13.759
DTProbeTrack03	3	ProbeTrackDT	1.1	SCS215a	20101029.140617	20101029.141735	single-task	8	0.013328	60	10	60-180	60	85	GapExp	0	93	2	45	0	distractor	1	547	727	195545	13.328	13.308	13.349
DTProbeTrack03	3	ProbeTrackDT	1.1	SCS215a	20101029.140617	20101029.141740	single-task	8	0.013328	60	10	60-180	60	92	GapExp	0	94	2	45	0	target	0	520	-1000	194545	13.328	12.955	13.708
DTProbeTrack03	3	ProbeTrackDT	1.1	SCS215a	20101029.140617	20101029.141746	single-task	8	0.013328	60	10	60-180	60	80	GapExp	0	95	2	45	1	target	1	534	733	195278	13.328	13.091	13.555
DTProbeTrack03	3	ProbeTrackDT	1.1	SCS215a	20101029.140617	20101029.141752	single-task	8	0.013328	60	10	60-180	60	69	GapExp	0	96	2	9	1	target	1	374	813	196091	13.328	13.085	13.557
DTProbeTrack03	3	ProbeTrackDT	1.1	SCS215a	20101029.140617	20101029.141757	single-task	8	0.013328	60	10	60-180	60	65	GapExp	0	97	2	6	0	distractor	1	560	720	196811	13.328	12.824	13.831
DTProbeTrack03	3	ProbeTrackDT	1.1	SCS215a	20101029.140617	20101029.141802	single-task	8	0.013328	60	10	60-180	60	73	GapExp	0	98	2	1	1	target	1	414	793	197604	13.328	13.307	13.347
DTProbeTrack03	3	ProbeTrackDT	1.1	SCS215a	20101029.140617	20101029.141806	single-task	8	0.013328	60	10	60-180	60	132	GapExp	0	99	2	3	0	distractor	1	414	793	198397	13.328	13.297	13.360
DTProbeTrack03	3	ProbeTrackDT	1.1	SCS215a	20101029.140617	20101029.141812	single-task	8	0.013328	60	10	60-180	60	115	GapExp	0	100	2	3	1	target	1	427	787	199184	13.328	13.274	13.376
DTProbeTrack03	3	ProbeTrackDT	1.1	SCS215a	20101029.140617	20101029.141823	single-task	8	0.013328	60	10	60-180	60	111	GapExp	0	101	2	45	1	target	1	574	713	199897	13.328	12.962	13.693
DTProbeTrack03	3	ProbeTrackDT	1.1	SCS215a	20101029.140617	20101029.141829	single-task	8	0.013328	60	10	60-180	60	66	GapExp	0	102	2	1	1	target	1	454	773	200670	13.328	13.106	13.541
DTProbeTrack03	3	ProbeTrackDT	1.1	SCS215a	20101029.140617	20101029.141834	single-task	8	0.013328	60	10	60-180	60	134	GapExp	0	103	2	45	1	target	1	574	713	201383	13.328	13.106	13.499
DTProbeTrack03	3	ProbeTrackDT	1.1	SCS215a	20101029.140617	20101029.141840	single-task	8	0.013328	60	10	60-180	60	138	GapExp	0	104	2	1	1	target	1	454	773	202156	13.328	13.005	13.645
DTProbeTrack03	3	ProbeTrackDT	1.1	SCS215a	20101029.140617	20101029.141846	single-task	8	0.013328	60	10	60-180	60	143	GapExp	0	105	2	45	0	distractor	1	467	767	202923	13.328	13.259	13.395
DTProbeTrack03	3	ProbeTrackDT	1.1	SCS215a	20101029.140617	20101029.141852	single-task	8	0.013328	60	10	60-180	60	132	GapExp	0	106	2	45	0	distractor	1	534	733	203656	13.328	13.306	13.348
DTProbeTrack03	3	ProbeTrackDT	1.1	SCS215a	20101029.140617	20101029.141859	single-task	8	0.013328	60	10	60-180	60	162	GapExp	0	107	2	1	1	target	1	387	807	204463	13.328	13.150	13.504
DTProbeTrack03	3	ProbeTrackDT	1.1	SCS215a	20101029.140617	20101029.141905	single-task	8	0.013328	60	10	60-180	60	153	GapExp	0	108	2	3	0	distractor	1	560	720	205183	13.328	13.282	13.379
DTProbeTrack03	3	ProbeTrackDT	1.1	SCS215a	20101029.140617	20101029.141911	single-task	8	0.013328	60	10	60-180	60	121	GapExp	0	109	2	6	0	distractor	1	427	787	205970	13.328	12.884	13.764
DTProbeTrack03	3	ProbeTrackDT	1.1	SCS215a	20101029.140617	20101029.141916	single-task	8	0.013328	60	10	60-180	60	130	GapExp	0	110	2	9	0	distractor	1	507	747	206717	13.328	13.053	13.611
DTProbeTrack03	3	ProbeTrackDT	1.1	SCS215a	20101029.140617	20101029.141922	single-task	8	0.013328	60	10	60-180	60	165	GapExp	0	111	2	45	1	target	1	427	787	207504	13.328	13.107	13.565
DTProbeTrack03	3	ProbeTrackDT	1.1	SCS215a	20101029.140617	20101029.141929	single-task	8	0.013328	60	10	60-180	60	139	GapExp	0	112	2	3	0	distractor	1	400	800	208304	13.328	13.309	13.347
DTProbeTrack03	3	ProbeTrackDT	1.1	SCS215a	20101029.140617	20101029.141934	single-task	8	0.013328	60	10	60-180	60	61	GapExp	0	113	2	1	0	distractor	1	747	627	208931	13.328	13.300	13.356
DTProbeTrack03	3	ProbeTrackDT	1.1	SCS215a	20101029.140617	20101029.141939	single-task	8	0.013328	60	10	60-180	60	119	GapExp	0	114	2	1	0	distractor	1	640	680	209611	13.328	12.841	13.815
DTProbeTrack03	3	ProbeTrackDT	1.1	SCS215a	20101029.140617	20101029.141945	single-task	8	0.013328	60	10	60-180	60	144	GapExp	0	115	2	1	0	distractor	1	574	713	210324	13.328	13.062	13.574
DTProbeTrack03	3	ProbeTrackDT	1.1	SCS215a	20101029.140617	20101029.141951	single-task	8	0.013328	60	10	60-180	60	173	GapExp	0	116	2	45	1	target	1	427	787	211111	13.328	13.112	13.537
DTProbeTrack03	3	ProbeTrackDT	1.1	SCS215a	20101029.140617	20101029.141957	single-task	8	0.013328	60	10	60-180	60	180	GapExp	0	117	2	6	0	target	0	547	-1000	210111	13.328	12.940	13.715
DTProbeTrack03	3	ProbeTrackDT	1.1	SCS215a	20101029.140617	20101029.142004	single-task	8	0.013328	60	10	60-180	60	106	GapExp	0	118	2	6	0	distractor	1	480	760	210871	13.328	13.229	13.427
DTProbeTrack03	3	ProbeTrackDT	1.1	SCS215a	20101029.140617	20101029.142009	single-task	8	0.013328	60	10	60-180	60	129	GapExp	0	119	2	45	1	target	1	627	687	211558	13.328	13.308	13.353
DTProbeTrack03	3	ProbeTrackDT	1.1	SCS215a	20101029.140617	20101029.142016	single-task	8	0.013328	60	10	60-180	60	75	GapExp	0	120	2	45	0	distractor	1	454	773	212331	13.328	13.308	13.348
DTProbeTrack03	3	ProbeTrackDT	1.1	SCS215a	20101029.140617	20101029.142021	single-task	8	0.013328	60	10	60-180	60	171	GapExp	0	121	2	1	0	target	0	440	-1000	211331	13.328	13.268	13.380
DTProbeTrack03	3	ProbeTrackDT	1.1	SCS215a	20101029.140617	20101029.142027	single-task	8	0.013328	60	10	60-180	60	151	GapExp	0	122	2	3	1	target	1	560	720	212051	13.328	12.923	13.738
DTProbeTrack03	3	ProbeTrackDT	1.1	SCS215a	20101029.140617	20101029.142033	single-task	8	0.013328	60	10	60-180	60	90	GapExp	0	123	2	45	0	target	0	334	-1000	211051	13.328	13.100	13.543
DTProbeTrack03	3	ProbeTrackDT	1.1	SCS215a	20101029.140617	20101029.142039	single-task	8	0.013328	60	10	60-180	60	156	GapExp	0	124	2	45	0	distractor	1	720	640	211691	13.328	13.099	13.549
DTProbeTrack03	3	ProbeTrackDT	1.1	SCS215a	20101029.140617	20101029.142046	single-task	8	0.013328	60	10	60-180	60	70	GapExp	0	125	2	6	0	distractor	1	574	713	212404	13.327	13.263	13.375
DTProbeTrack03	3	ProbeTrackDT	1.1	SCS215a	20101029.140617	20101029.142051	single-task	8	0.013328	60	10	60-180	60	116	GapExp	0	126	2	9	0	distractor	1	454	773	213177	13.328	13.164	13.499
DTProbeTrack03	3	ProbeTrackDT	1.1	SCS215a	20101029.140617	20101029.142056	single-task	8	0.013328	60	10	60-180	60	143	GapExp	0	127	2	45	0	distractor	1	693	654	213831	13.409	12.927	27.060
DTProbeTrack03	3	ProbeTrackDT	1.1	SCS215a	20101029.140617	20101029.142103	single-task	8	0.013328	60	10	60-180	60	110	GapExp	0	128	2	6	0	distractor	1	454	773	214604	13.328	13.104	13.544
DTProbeTrack03	3	ProbeTrackDT	1.1	SCS215a	20101029.140617	20101029.142108	single-task	8	0.013328	60	10	60-180	60	74	GapExp	0	129	2	45	1	target	1	534	733	215337	13.328	13.097	13.557
DTProbeTrack03	3	ProbeTrackDT	1.1	SCS215a	20101029.140617	20101029.142114	single-task	8	0.013328	60	10	60-180	60	137	GapExp	0	130	2	9	1	target	1	547	727	216064	13.328	13.309	13.345
DTProbeTrack03	3	ProbeTrackDT	1.1	SCS215a	20101029.140617	20101029.142119	single-task	8	0.013328	60	10	60-180	60	102	GapExp	0	131	2	9	0	distractor	1	467	767	216831	13.328	13.311	13.346
DTProbeTrack03	3	ProbeTrackDT	1.1	SCS215a	20101029.140617	20101029.142125	single-task	8	0.013328	60	10	60-180	60	164	GapExp	0	132	2	1	0	distractor	1	560	720	217551	13.328	13.288	13.377
DTProbeTrack03	3	ProbeTrackDT	1.1	SCS215a	20101029.140617	20101029.142131	single-task	8	0.013328	60	10	60-180	60	166	GapExp	0	133	2	6	1	target	1	707	647	218198	13.328	13.308	13.347
DTProbeTrack03	3	ProbeTrackDT	1.1	SCS215a	20101029.140617	20101029.142137	single-task	8	0.013328	60	10	60-180	60	77	GapExp	0	134	2	9	1	target	1	360	820	219018	13.328	13.115	13.542
DTProbeTrack03	3	ProbeTrackDT	1.1	SCS215a	20101029.140617	20101029.142142	single-task	8	0.013328	60	10	60-180	60	155	GapExp	0	135	2	9	0	distractor	1	387	807	219825	13.328	13.107	13.556
DTProbeTrack03	3	ProbeTrackDT	1.1	SCS215a	20101029.140617	20101029.142148	single-task	8	0.013328	60	10	60-180	60	141	GapExp	0	136	2	3	0	distractor	1	347	827	220652	13.328	13.272	13.377
DTProbeTrack03	3	ProbeTrackDT	1.1	SCS215a	20101029.140617	20101029.142154	single-task	8	0.013328	60	10	60-180	60	148	GapExp	0	137	2	3	1	target	1	547	727	221379	13.328	13.156	13.500
DTProbeTrack03	3	ProbeTrackDT	1.1	SCS215a	20101029.140617	20101029.142200	single-task	8	0.013328	60	10	60-180	60	75	GapExp	0	138	2	1	1	target	1	574	713	222092	13.328	13.073	13.578
DTProbeTrack03	3	ProbeTrackDT	1.1	SCS215a	20101029.140617	20101029.142205	single-task	8	0.013328	60	10	60-180	60	63	GapExp	0	139	2	3	0	distractor	1	507	747	222839	13.328	13.099	13.563
DTProbeTrack03	3	ProbeTrackDT	1.1	SCS215a	20101029.140617	20101029.142210	single-task	8	0.013328	60	10	60-180	60	95	GapExp	0	140	2	9	0	distractor	1	414	793	223632	13.328	13.277	13.372
DTProbeTrack03	3	ProbeTrackDT	1.1	SCS215a	20101029.140617	20101029.142215	single-task	8	0.013328	60	10	60-180	60	97	GapExp	0	141	2	9	0	distractor	1	547	727	224359	13.328	13.309	13.348
DTProbeTrack03	3	ProbeTrackDT	1.1	SCS215a	20101029.140617	20101029.142220	single-task	8	0.013328	60	10	60-180	60	92	GapExp	0	142	2	1	0	distractor	1	454	773	225132	13.328	13.094	13.549
DTProbeTrack03	3	ProbeTrackDT	1.1	SCS215a	20101029.140617	20101029.142225	single-task	8	0.013328	60	10	60-180	60	134	GapExp	0	143	2	1	1	target	1	827	587	225719	13.328	12.939	13.728
DTProbeTrack03	3	ProbeTrackDT	1.1	SCS215a	20101029.140617	20101029.142231	single-task	8	0.013328	60	10	60-180	60	79	GapExp	0	144	2	3	0	target	0	427	-1000	224719	13.328	13.300	13.354
DTProbeTrack03	3	ProbeTrackDT	1.1	SCS215a	20101029.140617	20101029.142236	single-task	8	0.013328	60	10	60-180	60	175	GapExp	0	145	2	6	1	target	1	414	793	225512	13.328	12.930	13.711
DTProbeTrack03	3	ProbeTrackDT	1.1	SCS215a	20101029.140617	20101029.142242	single-task	8	0.013328	60	10	60-180	60	94	GapExp	0	146	2	1	1	target	1	640	680	226192	13.328	13.219	13.451
DTProbeTrack03	3	ProbeTrackDT	1.1	SCS215a	20101029.140617	20101029.142248	single-task	8	0.013328	60	10	60-180	60	133	GapExp	0	147	2	9	1	target	1	427	787	226979	13.328	12.889	13.759
DTProbeTrack03	3	ProbeTrackDT	1.1	SCS215a	20101029.140617	20101029.142253	single-task	8	0.013328	60	10	60-180	60	109	GapExp	0	148	2	6	1	target	1	374	813	227792	13.328	13.098	13.557
DTProbeTrack03	3	ProbeTrackDT	1.1	SCS215a	20101029.140617	20101029.142259	single-task	8	0.013328	60	10	60-180	60	136	GapExp	0	149	2	45	0	distractor	1	440	780	228572	13.328	12.890	13.773
DTProbeTrack03	3	ProbeTrackDT	1.1	SCS215a	20101029.140617	20101029.142305	single-task	8	0.013328	60	10	60-180	60	62	GapExp	0	150	2	6	0	target	0	547	-1000	227572	13.328	13.308	13.347
DTProbeTrack03	3	ProbeTrackDT	1.1	SCS215a	20101029.140617	20101029.142314	single-task	8	0.013328	60	10	60-180	60	140	GapExp	0	151	2	1	1	target	1	454	773	228345	13.328	13.103	13.559
DTProbeTrack03	3	ProbeTrackDT	1.1	SCS215a	20101029.140617	20101029.142320	single-task	8	0.013328	60	10	60-180	60	66	GapExp	0	152	2	45	1	target	1	534	733	229078	13.328	12.880	13.769
DTProbeTrack03	3	ProbeTrackDT	1.1	SCS215a	20101029.140617	20101029.142325	single-task	8	0.013328	60	10	60-180	60	178	GapExp	0	153	2	1	1	target	1	347	827	229905	13.328	13.309	13.348
DTProbeTrack03	3	ProbeTrackDT	1.1	SCS215a	20101029.140617	20101029.142331	single-task	8	0.013328	60	10	60-180	60	126	GapExp	0	154	2	1	1	target	1	347	827	230732	13.328	13.284	13.379
DTProbeTrack03	3	ProbeTrackDT	1.1	SCS215a	20101029.140617	20101029.142337	single-task	8	0.013328	60	10	60-180	60	85	GapExp	0	155	2	3	0	target	0	347	-1000	229732	13.328	12.915	13.738
DTProbeTrack03	3	ProbeTrackDT	1.1	SCS215a	20101029.140617	20101029.142342	single-task	8	0.013328	60	10	60-180	60	142	GapExp	0	156	2	45	1	target	1	414	793	230525	13.328	13.304	13.347
DTProbeTrack03	3	ProbeTrackDT	1.1	SCS215a	20101029.140617	20101029.142348	single-task	8	0.013328	60	10	60-180	60	180	GapExp	0	157	2	6	1	target	1	400	800	231325	13.328	13.098	13.542
DTProbeTrack03	3	ProbeTrackDT	1.1	SCS215a	20101029.140617	20101029.142354	single-task	8	0.013328	60	10	60-180	60	142	GapExp	0	158	2	9	0	distractor	1	520	740	232065	13.328	13.197	13.459
DTProbeTrack03	3	ProbeTrackDT	1.1	SCS215a	20101029.140617	20101029.142400	single-task	8	0.013328	60	10	60-180	60	108	GapExp	0	159	2	3	1	target	1	427	787	232852	13.328	12.871	13.778
DTProbeTrack03	3	ProbeTrackDT	1.1	SCS215a	20101029.140617	20101029.142406	single-task	8	0.013328	60	10	60-180	60	104	GapExp	0	160	2	6	0	distractor	1	600	700	233552	13.328	13.308	13.346
DTProbeTrack03	3	ProbeTrackDT	1.1	SCS215a	20101029.140617	20101029.142411	single-task	8	0.013328	60	10	60-180	60	115	GapExp	0	161	2	3	0	distractor	1	440	780	234332	13.328	13.011	13.652
DTProbeTrack03	3	ProbeTrackDT	1.1	SCS215a	20101029.140617	20101029.142416	single-task	8	0.013328	60	10	60-180	60	66	GapExp	0	162	2	3	1	target	1	414	793	235125	13.328	13.279	13.371
DTProbeTrack03	3	ProbeTrackDT	1.1	SCS215a	20101029.140617	20101029.142421	single-task	8	0.013328	60	10	60-180	60	154	GapExp	0	163	2	6	1	target	1	347	827	235952	13.328	12.958	13.692
DTProbeTrack03	3	ProbeTrackDT	1.1	SCS215a	20101029.140617	20101029.142427	single-task	8	0.013328	60	10	60-180	60	67	GapExp	0	164	2	6	0	distractor	1	547	727	236679	13.328	13.293	13.358
DTProbeTrack03	3	ProbeTrackDT	1.1	SCS215a	20101029.140617	20101029.142432	single-task	8	0.013328	60	10	60-180	60	79	GapExp	0	165	2	45	1	target	1	440	780	237459	13.328	13.102	13.551
DTProbeTrack03	3	ProbeTrackDT	1.1	SCS215a	20101029.140617	20101029.142437	single-task	8	0.013328	60	10	60-180	60	77	GapExp	0	166	2	3	0	distractor	1	427	787	238246	13.328	12.957	13.699
DTProbeTrack03	3	ProbeTrackDT	1.1	SCS215a	20101029.140617	20101029.142442	single-task	8	0.013328	60	10	60-180	60	174	GapExp	0	167	2	6	0	distractor	1	401	800	239046	13.328	13.125	13.537
DTProbeTrack03	3	ProbeTrackDT	1.1	SCS215a	20101029.140617	20101029.142448	single-task	8	0.013328	60	10	60-180	60	148	GapExp	0	168	2	3	1	target	1	400	800	239846	13.328	13.308	13.349
DTProbeTrack03	3	ProbeTrackDT	1.1	SCS215a	20101029.140617	20101029.142454	single-task	8	0.013328	60	10	60-180	60	90	GapExp	0	169	2	9	1	target	1	414	793	240639	13.328	13.103	13.551
DTProbeTrack03	3	ProbeTrackDT	1.1	SCS215a	20101029.140617	20101029.142459	single-task	8	0.013328	60	10	60-180	60	143	GapExp	0	170	2	3	1	target	1	387	807	241446	13.328	13.098	13.542
DTProbeTrack03	3	ProbeTrackDT	1.1	SCS215a	20101029.140617	20101029.142505	single-task	8	0.013328	60	10	60-180	60	120	GapExp	0	171	2	6	0	distractor	1	414	793	242239	13.328	12.997	13.677
DTProbeTrack03	3	ProbeTrackDT	1.1	SCS215a	20101029.140617	20101029.142510	single-task	8	0.013328	60	10	60-180	60	122	GapExp	0	172	2	9	1	target	1	427	787	243026	13.328	13.128	13.517
DTProbeTrack03	3	ProbeTrackDT	1.1	SCS215a	20101029.140617	20101029.142516	single-task	8	0.013328	60	10	60-180	60	174	GapExp	0	173	2	3	1	target	1	400	800	243826	13.328	13.291	13.367
DTProbeTrack03	3	ProbeTrackDT	1.1	SCS215a	20101029.140617	20101029.142522	single-task	8	0.013328	60	10	60-180	60	126	GapExp	0	174	2	6	0	distractor	1	440	780	244606	13.328	13.310	13.353
DTProbeTrack03	3	ProbeTrackDT	1.1	SCS215a	20101029.140617	20101029.142528	single-task	8	0.013328	60	10	60-180	60	125	GapExp	0	175	2	3	1	target	1	374	813	245419	13.328	13.112	13.548
DTProbeTrack03	3	ProbeTrackDT	1.1	SCS215a	20101029.140617	20101029.142533	single-task	8	0.013328	60	10	60-180	60	131	GapExp	0	176	2	6	1	target	1	307	847	246266	13.328	13.087	13.571
DTProbeTrack03	3	ProbeTrackDT	1.1	SCS215a	20101029.140617	20101029.142539	single-task	8	0.013328	60	10	60-180	60	62	GapExp	0	177	2	6	0	distractor	1	507	747	247013	13.328	12.989	13.660
DTProbeTrack03	3	ProbeTrackDT	1.1	SCS215a	20101029.140617	20101029.142543	single-task	8	0.013328	60	10	60-180	60	106	GapExp	0	178	2	6	1	target	1	613	694	247707	13.328	13.272	13.390
DTProbeTrack03	3	ProbeTrackDT	1.1	SCS215a	20101029.140617	20101029.142549	single-task	8	0.013328	60	10	60-180	60	153	GapExp	0	179	2	45	1	distractor	0	494	-1000	246707	13.328	13.087	13.566
DTProbeTrack03	3	ProbeTrackDT	1.1	SCS215a	20101029.140617	20101029.142556	single-task	8	0.013328	60	10	60-180	60	109	GapExp	0	180	2	3	0	distractor	1	547	727	247434	13.328	13.310	13.350
DTProbeTrack03	3	ProbeTrackDT	1.1	SCS215a	20101029.140617	20101029.142601	single-task	8	0.013328	60	10	60-180	60	100	GapExp	0	181	2	1	0	distractor	1	467	767	248201	13.328	13.300	13.346
DTProbeTrack03	3	ProbeTrackDT	1.1	SCS215a	20101029.140617	20101029.142606	single-task	8	0.013328	60	10	60-180	60	135	GapExp	0	182	2	9	1	target	1	414	793	248994	13.328	13.307	13.351
DTProbeTrack03	3	ProbeTrackDT	1.1	SCS215a	20101029.140617	20101029.142612	single-task	8	0.013328	60	10	60-180	60	108	GapExp	0	183	2	1	0	distractor	1	440	780	249774	13.328	13.055	13.610
DTProbeTrack03	3	ProbeTrackDT	1.1	SCS215a	20101029.140617	20101029.142617	single-task	8	0.013328	60	10	60-180	60	97	GapExp	0	184	2	1	1	target	1	414	793	250567	13.328	13.112	13.542
DTProbeTrack03	3	ProbeTrackDT	1.1	SCS215a	20101029.140617	20101029.142622	single-task	8	0.013328	60	10	60-180	60	177	GapExp	0	185	2	3	0	distractor	1	467	767	251334	13.328	12.970	13.693
DTProbeTrack03	3	ProbeTrackDT	1.1	SCS215a	20101029.140617	20101029.142629	single-task	8	0.013328	60	10	60-180	60	162	GapExp	0	186	2	3	1	target	1	374	813	252147	13.328	13.092	13.569
DTProbeTrack03	3	ProbeTrackDT	1.1	SCS215a	20101029.140617	20101029.142635	single-task	8	0.013328	60	10	60-180	60	87	GapExp	0	187	2	1	1	target	1	374	813	252960	13.328	12.923	13.740
DTProbeTrack03	3	ProbeTrackDT	1.1	SCS215a	20101029.140617	20101029.142640	single-task	8	0.013328	60	10	60-180	60	103	GapExp	0	188	2	45	0	distractor	1	494	753	253713	13.328	12.937	13.734
DTProbeTrack03	3	ProbeTrackDT	1.1	SCS215a	20101029.140617	20101029.142645	single-task	8	0.013328	60	10	60-180	60	125	GapExp	0	189	2	9	0	distractor	1	440	780	254493	13.328	13.101	13.563
DTProbeTrack03	3	ProbeTrackDT	1.1	SCS215a	20101029.140617	20101029.142651	single-task	8	0.013328	60	10	60-180	60	101	GapExp	0	190	2	1	1	target	1	560	720	255213	13.328	13.100	13.549
DTProbeTrack03	3	ProbeTrackDT	1.1	SCS215a	20101029.140617	20101029.142656	single-task	8	0.013328	60	10	60-180	60	80	GapExp	0	191	2	3	0	distractor	1	560	720	255933	13.328	13.308	13.346
DTProbeTrack03	3	ProbeTrackDT	1.1	SCS215a	20101029.140617	20101029.142702	single-task	8	0.013328	60	10	60-180	60	166	GapExp	0	192	2	6	1	target	1	387	807	256740	13.328	13.299	13.353
DTProbeTrack03	3	ProbeTrackDT	1.1	SCS215a	20101029.140617	20101029.142708	single-task	8	0.013328	60	10	60-180	60	112	GapExp	0	193	2	3	0	target	0	494	-1000	255740	13.328	12.873	13.782
DTProbeTrack03	3	ProbeTrackDT	1.1	SCS215a	20101029.140617	20101029.142713	single-task	8	0.013328	60	10	60-180	60	99	GapExp	0	194	2	1	0	distractor	1	827	587	256327	13.328	13.098	13.571
DTProbeTrack03	3	ProbeTrackDT	1.1	SCS215a	20101029.140617	20101029.142719	single-task	8	0.013328	60	10	60-180	60	108	GapExp	0	195	2	9	1	target	1	400	800	257127	13.328	13.093	13.568
DTProbeTrack03	3	ProbeTrackDT	1.1	SCS215a	20101029.140617	20101029.142724	single-task	8	0.013328	60	10	60-180	60	159	GapExp	0	196	2	1	0	target	0	667	-1000	256127	13.328	13.312	13.347
DTProbeTrack03	3	ProbeTrackDT	1.1	SCS215a	20101029.140617	20101029.142730	single-task	8	0.013328	60	10	60-180	60	149	GapExp	0	197	2	3	0	distractor	1	574	713	256840	13.328	13.308	13.351
DTProbeTrack03	3	ProbeTrackDT	1.1	SCS215a	20101029.140617	20101029.142736	single-task	8	0.013328	60	10	60-180	60	157	GapExp	0	198	2	45	0	distractor	1	547	727	257567	13.328	12.844	13.820
DTProbeTrack03	3	ProbeTrackDT	1.1	SCS215a	20101029.140617	20101029.142743	single-task	8	0.013328	60	10	60-180	60	115	GapExp	0	199	2	1	1	target	1	640	680	258247	13.328	12.853	13.812
DTProbeTrack03	3	ProbeTrackDT	1.1	SCS215a	20101029.140617	20101029.142748	single-task	8	0.013328	60	10	60-180	60	88	GapExp	0	200	2	6	1	target	1	520	740	258987	13.328	12.894	13.772
DTProbeTrack03	3	ProbeTrackDT	1.1	SCS215a	20101029.140617	20101029.142800	single-task	8	0.013328	60	10	60-180	60	118	GapExp	0	201	2	6	1	target	1	387	807	259794	13.328	12.900	13.746
DTProbeTrack03	3	ProbeTrackDT	1.1	SCS215a	20101029.140617	20101029.142805	single-task	8	0.013328	60	10	60-180	60	134	GapExp	0	202	2	1	1	target	1	320	840	260634	13.328	13.264	13.390
DTProbeTrack03	3	ProbeTrackDT	1.1	SCS215a	20101029.140617	20101029.142811	single-task	8	0.013328	60	10	60-180	60	88	GapExp	0	203	2	6	1	target	1	427	787	261421	13.328	13.310	13.348
DTProbeTrack03	3	ProbeTrackDT	1.1	SCS215a	20101029.140617	20101029.142816	single-task	8	0.013328	60	10	60-180	60	89	GapExp	0	204	2	9	1	target	1	360	820	262241	13.328	13.092	13.562
DTProbeTrack03	3	ProbeTrackDT	1.1	SCS215a	20101029.140617	20101029.142821	single-task	8	0.013328	60	10	60-180	60	165	GapExp	0	205	2	1	1	target	1	440	780	263021	13.328	13.099	13.562
DTProbeTrack03	3	ProbeTrackDT	1.1	SCS215a	20101029.142937	20101029.142941	dt-generate	8	0.013327	60	10	60-180	60	71	GapPrac	1	1	2	3	0	target	0	12768	-1000	262021	13.328	13.102	13.564
DTProbeTrack03	3	ProbeTrackDT	1.1	SCS215a	20101029.142937	20101029.142958	dt-generate	8	0.013327	60	10	60-180	60	113	GapPrac	1	2	2	3	0	distractor	1	640	680	262701	13.328	13.297	13.351
DTProbeTrack03	3	ProbeTrackDT	1.1	SCS215a	20101029.142937	20101029.143004	dt-generate	8	0.013327	60	10	60-180	60	87	GapPrac	1	3	2	6	1	target	1	440	780	263481	13.328	13.240	13.416
DTProbeTrack03	3	ProbeTrackDT	1.1	SCS215a	20101029.142937	20101029.143009	dt-generate	8	0.013327	60	10	60-180	60	173	GapPrac	1	4	2	1	0	target	0	520	-1000	262481	13.328	13.092	13.557
DTProbeTrack03	3	ProbeTrackDT	1.1	SCS215a	20101029.142937	20101029.143015	dt-generate	8	0.013327	60	10	60-180	60	178	GapPrac	1	5	2	9	1	target	1	1107	447	262928	13.328	13.114	13.550
DTProbeTrack03	3	ProbeTrackDT	1.1	SCS215a	20101029.142937	20101029.143022	dt-generate	8	0.013327	60	10	60-180	60	146	GapPrac	1	6	2	6	0	distractor	1	454	773	263701	13.328	12.901	13.755
DTProbeTrack03	3	ProbeTrackDT	1.1	SCS215a	20101029.142937	20101029.143028	dt-generate	8	0.013327	60	10	60-180	60	115	GapPrac	1	7	2	1	0	distractor	1	454	773	264474	13.328	12.958	13.699
DTProbeTrack03	3	ProbeTrackDT	1.1	SCS215a	20101029.142937	20101029.143033	dt-generate	8	0.013327	60	10	60-180	60	114	GapPrac	1	8	2	45	0	target	0	827	-1000	263474	13.328	13.100	13.553
DTProbeTrack03	3	ProbeTrackDT	1.1	SCS215a	20101029.142937	20101029.143040	dt-generate	8	0.013327	60	10	60-180	60	104	GapPrac	1	9	2	45	1	target	1	2653	0	263474	13.328	12.854	13.801
DTProbeTrack03	3	ProbeTrackDT	1.1	SCS215a	20101029.142937	20101029.143048	dt-generate	8	0.013327	60	10	60-180	60	123	GapPrac	1	10	2	6	0	target	0	760	-1000	262474	13.328	12.900	13.757
DTProbeTrack03	3	ProbeTrackDT	1.1	SCS215a	20101029.142937	20101029.143054	dt-generate	8	0.013327	60	10	60-180	60	77	GapPrac	1	11	2	1	1	target	1	2240	0	262474	13.328	13.308	13.346
DTProbeTrack03	3	ProbeTrackDT	1.1	SCS215a	20101029.142937	20101029.143100	dt-generate	8	0.013327	60	10	60-180	60	143	GapPrac	1	12	2	45	0	distractor	1	494	753	263227	13.328	13.107	13.549
DTProbeTrack03	3	ProbeTrackDT	1.1	SCS215a	20101029.142937	20101029.143107	dt-generate	8	0.013327	60	10	60-180	60	120	GapPrac	1	13	2	3	1	target	1	748	626	263853	13.328	12.880	13.770
DTProbeTrack03	3	ProbeTrackDT	1.1	SCS215a	20101029.142937	20101029.143113	dt-generate	8	0.013327	60	10	60-180	60	126	GapPrac	1	14	2	9	0	target	0	480	-1000	262853	13.328	13.206	13.451
DTProbeTrack03	3	ProbeTrackDT	1.1	SCS215a	20101029.142937	20101029.143118	dt-generate	8	0.013327	60	10	60-180	60	161	GapPrac	1	15	2	1	1	target	1	600	700	263553	13.328	12.892	13.769
DTProbeTrack03	3	ProbeTrackDT	1.1	SCS215a	20101029.142937	20101029.143124	dt-generate	8	0.013327	60	10	60-180	60	87	GapPrac	1	16	2	45	1	target	1	680	660	264213	13.328	12.851	13.805
DTProbeTrack03	3	ProbeTrackDT	1.1	SCS215a	20101029.142937	20101029.143130	dt-generate	8	0.013327	60	10	60-180	60	71	GapPrac	1	17	2	9	1	target	1	454	773	264986	13.328	13.306	13.346
DTProbeTrack03	3	ProbeTrackDT	1.1	SCS215a	20101029.142937	20101029.143135	dt-generate	8	0.013327	60	10	60-180	60	102	GapPrac	1	18	2	3	1	target	1	427	787	265773	13.328	12.911	13.740
DTProbeTrack03	3	ProbeTrackDT	1.1	SCS215a	20101029.142937	20101029.143140	dt-generate	8	0.013327	60	10	60-180	60	158	GapPrac	1	19	2	9	0	target	0	774	-1000	264773	13.328	12.838	13.806
DTProbeTrack03	3	ProbeTrackDT	1.1	SCS215a	20101029.142937	20101029.143147	dt-generate	8	0.013327	60	10	60-180	60	142	GapPrac	1	20	2	6	1	target	1	827	587	265360	13.328	13.092	13.558
DTProbeTrack03	3	ProbeTrackDT	1.1	SCS215a	20101029.143242	20101029.143245	dt-generate	8	0.013328	60	10	60-180	60	75	GapExp	1	1	2	1	1	target	1	627	687	266047	13.328	13.031	13.626
DTProbeTrack03	3	ProbeTrackDT	1.1	SCS215a	20101029.143242	20101029.143251	dt-generate	8	0.013328	60	10	60-180	60	71	GapExp	1	2	2	3	0	distractor	1	613	694	266741	13.328	13.070	13.587
DTProbeTrack03	3	ProbeTrackDT	1.1	SCS215a	20101029.143242	20101029.143256	dt-generate	8	0.013328	60	10	60-180	60	180	GapExp	1	3	2	6	0	distractor	1	520	740	267481	13.328	13.100	13.543
DTProbeTrack03	3	ProbeTrackDT	1.1	SCS215a	20101029.143242	20101029.143302	dt-generate	8	0.013328	60	10	60-180	60	173	GapExp	1	4	2	9	1	distractor	0	400	-1000	266481	13.328	13.120	13.534
DTProbeTrack03	3	ProbeTrackDT	1.1	SCS215a	20101029.143242	20101029.143308	dt-generate	8	0.013328	60	10	60-180	60	172	GapExp	1	5	2	9	0	target	0	360	-1000	265481	13.328	13.115	13.542
DTProbeTrack03	3	ProbeTrackDT	1.1	SCS215a	20101029.143242	20101029.143314	dt-generate	8	0.013328	60	10	60-180	60	166	GapExp	0	6	2	45	0	distractor	1	760	620	266101	13.328	12.854	13.789
DTProbeTrack03	3	ProbeTrackDT	1.1	SCS215a	20101029.143242	20101029.143321	dt-generate	8	0.013328	60	10	60-180	60	79	GapExp	0	7	2	9	0	distractor	1	1360	320	266421	13.328	13.309	13.344
DTProbeTrack03	3	ProbeTrackDT	1.1	SCS215a	20101029.143242	20101029.143327	dt-generate	8	0.013328	60	10	60-180	60	123	GapExp	0	8	2	6	0	target	0	933	-1000	265421	13.328	13.308	13.347
DTProbeTrack03	3	ProbeTrackDT	1.1	SCS215a	20101029.143242	20101029.143333	dt-generate	8	0.013328	60	10	60-180	60	116	GapExp	0	9	2	3	1	target	1	747	627	266048	13.328	13.306	13.363
DTProbeTrack03	3	ProbeTrackDT	1.1	SCS215a	20101029.143242	20101029.143339	dt-generate	8	0.013328	60	10	60-180	60	147	GapExp	0	10	2	1	0	distractor	1	520	740	266788	13.328	12.872	13.801
DTProbeTrack03	3	ProbeTrackDT	1.1	SCS215a	20101029.143242	20101029.143345	dt-generate	8	0.013328	60	10	60-180	60	101	GapExp	0	11	2	3	0	distractor	1	680	660	267448	13.328	13.100	13.553
DTProbeTrack03	3	ProbeTrackDT	1.1	SCS215a	20101029.143242	20101029.143351	dt-generate	8	0.013328	60	10	60-180	60	180	GapExp	0	12	2	1	0	target	0	587	-1000	266448	13.328	12.944	13.725
DTProbeTrack03	3	ProbeTrackDT	1.1	SCS215a	20101029.143242	20101029.143357	dt-generate	8	0.013328	60	10	60-180	60	98	GapExp	0	13	2	6	0	distractor	1	813	594	267042	13.328	13.104	13.539
DTProbeTrack03	3	ProbeTrackDT	1.1	SCS215a	20101029.143242	20101029.143403	dt-generate	8	0.013328	60	10	60-180	60	132	GapExp	0	14	2	3	0	target	0	520	-1000	266042	13.328	13.027	13.624
DTProbeTrack03	3	ProbeTrackDT	1.1	SCS215a	20101029.143242	20101029.143408	dt-generate	8	0.013328	60	10	60-180	60	155	GapExp	0	15	2	6	1	target	1	507	747	266789	13.328	12.914	13.750
DTProbeTrack03	3	ProbeTrackDT	1.1	SCS215a	20101029.143242	20101029.143415	dt-generate	8	0.013328	60	10	60-180	60	143	GapExp	0	16	2	3	0	target	0	374	-1000	265789	13.328	12.985	13.685
DTProbeTrack03	3	ProbeTrackDT	1.1	SCS215a	20101029.143242	20101029.143420	dt-generate	8	0.013328	60	10	60-180	60	134	GapExp	0	17	2	3	0	distractor	1	920	540	266329	13.328	12.978	13.678
DTProbeTrack03	3	ProbeTrackDT	1.1	SCS215a	20101029.143242	20101029.143426	dt-generate	8	0.013328	60	10	60-180	60	159	GapExp	0	18	2	1	0	distractor	1	640	680	267009	13.328	13.091	13.573
DTProbeTrack03	3	ProbeTrackDT	1.1	SCS215a	20101029.143242	20101029.143433	dt-generate	8	0.013328	60	10	60-180	60	145	GapExp	0	19	2	6	1	target	1	440	780	267789	13.328	13.098	13.556
DTProbeTrack03	3	ProbeTrackDT	1.1	SCS215a	20101029.143242	20101029.143438	dt-generate	8	0.013328	60	10	60-180	60	79	GapExp	0	20	2	9	0	target	0	147	-1000	266789	13.328	13.295	13.372
DTProbeTrack03	3	ProbeTrackDT	1.1	SCS215a	20101029.143242	20101029.143443	dt-generate	8	0.013328	60	10	60-180	60	75	GapExp	0	21	2	1	0	distractor	1	1866	67	266856	13.328	13.309	13.346
DTProbeTrack03	3	ProbeTrackDT	1.1	SCS215a	20101029.143242	20101029.143449	dt-generate	8	0.013328	60	10	60-180	60	90	GapExp	0	22	2	9	1	target	1	347	827	267683	13.328	13.307	13.346
DTProbeTrack03	3	ProbeTrackDT	1.1	SCS215a	20101029.143242	20101029.143455	dt-generate	8	0.013328	60	10	60-180	60	91	GapExp	0	23	2	45	1	target	1	480	760	268443	13.328	12.862	13.789
DTProbeTrack03	3	ProbeTrackDT	1.1	SCS215a	20101029.143242	20101029.143500	dt-generate	8	0.013328	60	10	60-180	60	161	GapExp	0	24	2	1	0	target	0	480	-1000	267443	13.328	13.118	13.542
DTProbeTrack03	3	ProbeTrackDT	1.1	SCS215a	20101029.143242	20101029.143506	dt-generate	8	0.013328	60	10	60-180	60	104	GapExp	0	25	2	9	1	target	1	480	760	268203	13.328	13.108	13.554
DTProbeTrack03	3	ProbeTrackDT	1.1	SCS215a	20101029.143242	20101029.143512	dt-generate	8	0.013328	60	10	60-180	60	108	GapExp	0	26	2	3	1	target	1	427	787	268990	13.328	13.308	13.348
DTProbeTrack03	3	ProbeTrackDT	1.1	SCS215a	20101029.143242	20101029.143517	dt-generate	8	0.013328	60	10	60-180	60	122	GapExp	0	27	2	1	1	target	1	454	773	269763	13.328	12.900	13.754
DTProbeTrack03	3	ProbeTrackDT	1.1	SCS215a	20101029.143242	20101029.143523	dt-generate	8	0.013328	60	10	60-180	60	86	GapExp	0	28	2	9	1	target	1	414	793	270556	13.328	13.103	13.550
DTProbeTrack03	3	ProbeTrackDT	1.1	SCS215a	20101029.143242	20101029.143528	dt-generate	8	0.013328	60	10	60-180	60	148	GapExp	0	29	2	45	1	target	1	440	780	271336	13.328	13.092	13.555
DTProbeTrack03	3	ProbeTrackDT	1.1	SCS215a	20101029.143242	20101029.143534	dt-generate	8	0.013328	60	10	60-180	60	161	GapExp	0	30	2	45	0	distractor	1	520	740	272076	13.328	12.946	13.703
DTProbeTrack03	3	ProbeTrackDT	1.1	SCS215a	20101029.143242	20101029.143541	dt-generate	8	0.013328	60	10	60-180	60	137	GapExp	0	31	2	9	1	target	1	334	833	272909	13.328	12.934	13.737
DTProbeTrack03	3	ProbeTrackDT	1.1	SCS215a	20101029.143242	20101029.143546	dt-generate	8	0.013328	60	10	60-180	60	115	GapExp	0	32	2	9	0	distractor	1	600	700	273609	13.328	13.269	13.373
DTProbeTrack03	3	ProbeTrackDT	1.1	SCS215a	20101029.143242	20101029.143552	dt-generate	8	0.013328	60	10	60-180	60	154	GapExp	0	33	2	3	0	target	0	414	-1000	272609	13.328	13.308	13.345
DTProbeTrack03	3	ProbeTrackDT	1.1	SCS215a	20101029.143242	20101029.143558	dt-generate	8	0.013328	60	10	60-180	60	160	GapExp	0	34	2	1	0	distractor	1	600	700	273309	13.328	13.088	13.551
DTProbeTrack03	3	ProbeTrackDT	1.1	SCS215a	20101029.143242	20101029.143604	dt-generate	8	0.013328	60	10	60-180	60	166	GapExp	0	35	2	6	1	target	1	440	780	274089	13.328	12.966	13.689
DTProbeTrack03	3	ProbeTrackDT	1.1	SCS215a	20101029.143242	20101029.143610	dt-generate	8	0.013328	60	10	60-180	60	178	GapExp	0	36	2	3	1	target	1	360	820	274909	13.328	13.112	13.551
DTProbeTrack03	3	ProbeTrackDT	1.1	SCS215a	20101029.143242	20101029.143617	dt-generate	8	0.013328	60	10	60-180	60	113	GapExp	0	37	2	45	1	target	1	360	820	275729	13.328	12.982	13.660
DTProbeTrack03	3	ProbeTrackDT	1.1	SCS215a	20101029.143242	20101029.143622	dt-generate	8	0.013328	60	10	60-180	60	73	GapExp	0	38	2	1	0	distractor	1	987	507	276236	13.328	13.308	13.344
DTProbeTrack03	3	ProbeTrackDT	1.1	SCS215a	20101029.143242	20101029.143628	dt-generate	8	0.013328	60	10	60-180	60	149	GapExp	0	39	2	6	1	target	1	574	713	276949	13.328	13.306	13.345
DTProbeTrack03	3	ProbeTrackDT	1.1	SCS215a	20101029.143242	20101029.143634	dt-generate	8	0.013328	60	10	60-180	60	62	GapExp	0	40	2	45	0	target	0	1160	-1000	275949	13.328	13.115	13.555
DTProbeTrack03	3	ProbeTrackDT	1.1	SCS215a	20101029.143242	20101029.143640	dt-generate	8	0.013328	60	10	60-180	60	106	GapExp	0	41	2	9	1	target	1	467	767	276716	13.328	13.095	13.545
