exp	sub	code	rev	comp	runtime	trialtime	stdt	nstim	refreshdur	cuedur	gapdur	gapOnsetRange	durPostProbe	gapOnsetTime	blocktype	prac	trial	ntargets	soa	probeTarget	resp	acc	rt	pts	tpts	meanFrameDur	minFrameDur	maxFrameDur
DTProbeTrack03	12	ProbeTrackDT	1.1	SCS215a	20101124.090447	20101124.090503	single-task	8	0.013335	60	0	60-180	60	160	NoGap	1	1	2	1	1	target	1	8197	0	0	13.778	12.996	40.331
DTProbeTrack03	12	ProbeTrackDT	1.1	SCS215a	20101124.090447	20101124.090517	single-task	8	0.013335	60	0	60-180	60	144	NoGap	1	2	2	9	1	target	1	440	780	780	13.328	13.108	13.561
DTProbeTrack03	12	ProbeTrackDT	1.1	SCS215a	20101124.090447	20101124.090523	single-task	8	0.013335	60	0	60-180	60	166	NoGap	1	3	2	6	1	target	1	920	540	1320	13.328	12.846	13.823
DTProbeTrack03	12	ProbeTrackDT	1.1	SCS215a	20101124.090447	20101124.090530	single-task	8	0.013335	60	0	60-180	60	127	NoGap	1	4	2	9	0	target	0	1306	-1000	320	13.326	12.944	13.356
DTProbeTrack03	12	ProbeTrackDT	1.1	SCS215a	20101124.090447	20101124.090536	single-task	8	0.013335	60	0	60-180	60	159	NoGap	1	5	2	1	0	distractor	1	707	647	967	13.328	13.307	13.350
DTProbeTrack03	12	ProbeTrackDT	1.1	SCS215a	20101124.090447	20101124.090542	single-task	8	0.013335	60	0	60-180	60	156	NoGap	1	6	2	3	0	distractor	1	600	700	1667	13.328	12.878	13.784
DTProbeTrack03	12	ProbeTrackDT	1.1	SCS215a	20101124.090447	20101124.090548	single-task	8	0.013335	60	0	60-180	60	166	NoGap	1	7	2	6	1	target	1	307	847	2514	13.328	12.882	13.783
DTProbeTrack03	12	ProbeTrackDT	1.1	SCS215a	20101124.090447	20101124.090554	single-task	8	0.013335	60	0	60-180	60	96	NoGap	1	8	2	3	1	target	1	334	833	3347	13.328	13.106	13.552
DTProbeTrack03	12	ProbeTrackDT	1.1	SCS215a	20101124.090447	20101124.090559	single-task	8	0.013335	60	0	60-180	60	151	NoGap	1	9	2	45	0	distractor	1	320	840	4187	13.328	12.844	13.813
DTProbeTrack03	12	ProbeTrackDT	1.1	SCS215a	20101124.090447	20101124.090605	single-task	8	0.013335	60	0	60-180	60	122	NoGap	1	10	2	3	1	target	1	547	727	4914	13.328	13.267	13.381
DTProbeTrack03	12	ProbeTrackDT	1.1	SCS215a	20101124.090447	20101124.090611	single-task	8	0.013335	60	0	60-180	60	91	NoGap	1	11	2	45	0	distractor	1	427	787	5701	13.328	13.308	13.347
DTProbeTrack03	12	ProbeTrackDT	1.1	SCS215a	20101124.090447	20101124.090616	single-task	8	0.013335	60	0	60-180	60	180	NoGap	1	12	2	45	1	distractor	0	347	-1000	4701	13.328	12.971	13.672
DTProbeTrack03	12	ProbeTrackDT	1.1	SCS215a	20101124.090447	20101124.090623	single-task	8	0.013335	60	0	60-180	60	119	NoGap	1	13	2	9	0	target	0	680	-1000	3701	13.328	13.113	13.527
DTProbeTrack03	12	ProbeTrackDT	1.1	SCS215a	20101124.090447	20101124.090629	single-task	8	0.013335	60	0	60-180	60	114	NoGap	1	14	2	9	1	target	1	427	787	4488	13.328	13.085	13.571
DTProbeTrack03	12	ProbeTrackDT	1.1	SCS215a	20101124.090447	20101124.090634	single-task	8	0.013335	60	0	60-180	60	167	NoGap	1	15	2	3	0	distractor	1	427	787	5275	13.328	13.106	13.541
DTProbeTrack03	12	ProbeTrackDT	1.1	SCS215a	20101124.090447	20101124.090640	single-task	8	0.013335	60	0	60-180	60	120	NoGap	1	16	2	9	0	distractor	1	427	787	6062	13.328	13.284	13.358
DTProbeTrack03	12	ProbeTrackDT	1.1	SCS215a	20101124.090447	20101124.090645	single-task	8	0.013335	60	0	60-180	60	134	NoGap	1	17	2	45	1	target	1	360	820	6882	13.328	12.980	13.666
DTProbeTrack03	12	ProbeTrackDT	1.1	SCS215a	20101124.090447	20101124.090651	single-task	8	0.013335	60	0	60-180	60	132	NoGap	1	18	2	1	1	target	1	520	740	7622	13.328	13.088	13.567
DTProbeTrack03	12	ProbeTrackDT	1.1	SCS215a	20101124.090447	20101124.090657	single-task	8	0.013335	60	0	60-180	60	67	NoGap	1	19	2	9	1	target	1	360	820	8442	13.328	13.078	13.563
DTProbeTrack03	12	ProbeTrackDT	1.1	SCS215a	20101124.090447	20101124.090701	single-task	8	0.013335	60	0	60-180	60	135	NoGap	1	20	2	1	1	target	1	414	793	9235	13.328	13.222	13.435
DTProbeTrack03	12	ProbeTrackDT	1.1	SCS215a	20101124.090447	20101124.090707	single-task	8	0.013335	60	0	60-180	60	90	NoGap	1	21	2	1	0	distractor	1	587	707	9942	13.328	13.305	13.346
DTProbeTrack03	12	ProbeTrackDT	1.1	SCS215a	20101124.090447	20101124.090712	single-task	8	0.013335	60	0	60-180	60	117	NoGap	1	22	2	6	0	distractor	1	414	793	10735	13.328	13.098	13.541
DTProbeTrack03	12	ProbeTrackDT	1.1	SCS215a	20101124.090447	20101124.090717	single-task	8	0.013335	60	0	60-180	60	147	NoGap	1	23	2	1	0	distractor	1	360	820	11555	13.328	12.943	13.722
DTProbeTrack03	12	ProbeTrackDT	1.1	SCS215a	20101124.090447	20101124.090723	single-task	8	0.013335	60	0	60-180	60	77	NoGap	1	24	2	45	0	target	0	347	-1000	10555	13.328	12.994	13.666
DTProbeTrack03	12	ProbeTrackDT	1.1	SCS215a	20101124.090447	20101124.090728	single-task	8	0.013335	60	0	60-180	60	77	NoGap	1	25	2	6	0	distractor	1	600	700	11255	13.328	13.025	13.751
DTProbeTrack03	12	ProbeTrackDT	1.1	SCS215a	20101124.090447	20101124.090733	single-task	8	0.013335	60	0	60-180	60	95	NoGap	1	26	2	1	1	target	1	454	773	12028	13.328	13.087	13.561
DTProbeTrack03	12	ProbeTrackDT	1.1	SCS215a	20101124.090447	20101124.090738	single-task	8	0.013335	60	0	60-180	60	179	NoGap	1	27	2	9	1	target	1	627	687	12715	13.328	13.016	13.632
DTProbeTrack03	12	ProbeTrackDT	1.1	SCS215a	20101124.090447	20101124.090744	single-task	8	0.013335	60	0	60-180	60	115	NoGap	1	28	2	45	0	distractor	1	400	800	13515	13.328	13.032	13.627
DTProbeTrack03	12	ProbeTrackDT	1.1	SCS215a	20101124.090447	20101124.090750	single-task	8	0.013335	60	0	60-180	60	145	NoGap	1	29	2	1	0	distractor	1	827	587	14102	13.328	13.026	13.623
DTProbeTrack03	12	ProbeTrackDT	1.1	SCS215a	20101124.090447	20101124.090756	single-task	8	0.013335	60	0	60-180	60	133	NoGap	1	30	2	3	0	distractor	1	467	767	14869	13.328	13.284	13.372
DTProbeTrack03	12	ProbeTrackDT	1.1	SCS215a	20101124.090447	20101124.090802	single-task	8	0.013335	60	0	60-180	60	132	NoGap	1	31	2	3	1	distractor	0	733	-1000	13869	13.328	13.306	13.354
DTProbeTrack03	12	ProbeTrackDT	1.1	SCS215a	20101124.090447	20101124.090808	single-task	8	0.013335	60	0	60-180	60	136	NoGap	1	32	2	45	1	target	1	467	767	14636	13.328	12.902	13.759
DTProbeTrack03	12	ProbeTrackDT	1.1	SCS215a	20101124.090447	20101124.090814	single-task	8	0.013335	60	0	60-180	60	144	NoGap	1	33	2	6	1	distractor	0	334	-1000	13636	13.328	13.111	13.564
DTProbeTrack03	12	ProbeTrackDT	1.1	SCS215a	20101124.090447	20101124.090819	single-task	8	0.013335	60	0	60-180	60	157	NoGap	1	34	2	6	0	distractor	1	640	680	14316	13.328	12.968	13.682
DTProbeTrack03	12	ProbeTrackDT	1.1	SCS215a	20101124.090447	20101124.090825	single-task	8	0.013335	60	0	60-180	60	160	NoGap	1	35	2	6	1	target	1	507	747	15063	13.328	13.310	13.345
DTProbeTrack03	12	ProbeTrackDT	1.1	SCS215a	20101124.090447	20101124.090831	single-task	8	0.013335	60	0	60-180	60	103	NoGap	1	36	2	6	0	distractor	1	600	700	15763	13.328	13.307	13.350
DTProbeTrack03	12	ProbeTrackDT	1.1	SCS215a	20101124.090447	20101124.090837	single-task	8	0.013335	60	0	60-180	60	124	NoGap	1	37	2	45	1	target	1	280	860	16623	13.328	13.308	13.347
DTProbeTrack03	12	ProbeTrackDT	1.1	SCS215a	20101124.090447	20101124.090842	single-task	8	0.013335	60	0	60-180	60	110	NoGap	1	38	2	3	1	target	1	387	807	17430	13.328	12.981	13.669
DTProbeTrack03	12	ProbeTrackDT	1.1	SCS215a	20101124.090447	20101124.090848	single-task	8	0.013335	60	0	60-180	60	133	NoGap	1	39	2	9	0	target	0	280	-1000	16430	13.328	12.867	13.791
DTProbeTrack03	12	ProbeTrackDT	1.1	SCS215a	20101124.090447	20101124.090853	single-task	8	0.013335	60	0	60-180	60	123	NoGap	1	40	2	3	0	distractor	1	494	753	17183	13.328	12.958	13.708
DTProbeTrack03	12	ProbeTrackDT	1.1	SCS215a	20101124.091123	20101124.091128	dt-generate	8	0.013328	60	10	60-180	60	89	GapPrac	1	1	2	1	0	distractor	1	720	640	17823	13.328	13.035	13.621
DTProbeTrack03	12	ProbeTrackDT	1.1	SCS215a	20101124.091123	20101124.091133	dt-generate	8	0.013328	60	10	60-180	60	124	GapPrac	1	2	2	45	1	distractor	0	294	-1000	16823	13.328	13.303	13.351
DTProbeTrack03	12	ProbeTrackDT	1.1	SCS215a	20101124.091123	20101124.091139	dt-generate	8	0.013328	60	10	60-180	60	162	GapPrac	1	3	2	3	1	target	1	6424	0	16823	13.328	12.950	13.722
DTProbeTrack03	12	ProbeTrackDT	1.1	SCS215a	20101124.091123	20101124.091151	dt-generate	8	0.013328	60	10	60-180	60	66	GapPrac	1	4	2	1	1	target	1	2919	0	16823	13.328	13.094	13.560
DTProbeTrack03	12	ProbeTrackDT	1.1	SCS215a	20101124.091123	20101124.091159	dt-generate	8	0.013328	60	10	60-180	60	81	GapPrac	1	5	2	3	0	distractor	1	574	713	17536	13.328	13.092	13.564
DTProbeTrack03	12	ProbeTrackDT	1.1	SCS215a	20101124.091123	20101124.091204	dt-generate	8	0.013328	60	10	60-180	60	66	GapPrac	1	6	2	45	0	target	0	-13	-1000	16536	13.328	13.309	13.348
DTProbeTrack03	12	ProbeTrackDT	1.1	SCS215a	20101124.091123	20101124.091208	dt-generate	8	0.013328	60	10	60-180	60	104	GapPrac	1	7	2	6	1	distractor	0	320	-1000	15536	13.328	13.003	13.656
DTProbeTrack03	12	ProbeTrackDT	1.1	SCS215a	20101124.091123	20101124.091214	dt-generate	8	0.013328	60	10	60-180	60	103	GapPrac	1	8	2	6	0	target	0	240	-1000	14536	13.328	13.308	13.347
DTProbeTrack03	12	ProbeTrackDT	1.1	SCS215a	20101124.091123	20101124.091219	dt-generate	8	0.013328	60	10	60-180	60	89	GapPrac	1	9	2	9	0	distractor	1	574	713	15249	13.328	13.110	13.614
DTProbeTrack03	12	ProbeTrackDT	1.1	SCS215a	20101124.091123	20101124.091224	dt-generate	8	0.013328	60	10	60-180	60	80	GapPrac	1	10	2	9	1	target	1	520	740	15989	13.328	13.129	13.534
DTProbeTrack03	12	ProbeTrackDT	1.1	SCS215a	20101124.091123	20101124.091229	dt-generate	8	0.013328	60	10	60-180	60	105	GapPrac	1	11	2	1	0	distractor	1	174	913	16902	13.328	13.202	13.463
DTProbeTrack03	12	ProbeTrackDT	1.1	SCS215a	20101124.091123	20101124.091234	dt-generate	8	0.013328	60	10	60-180	60	114	GapPrac	1	12	2	45	0	target	0	400	-1000	15902	13.328	12.954	13.692
DTProbeTrack03	12	ProbeTrackDT	1.1	SCS215a	20101124.091123	20101124.091240	dt-generate	8	0.013328	60	10	60-180	60	131	GapPrac	1	13	2	9	0	distractor	1	840	580	16482	13.328	13.100	13.558
DTProbeTrack03	12	ProbeTrackDT	1.1	SCS215a	20101124.091123	20101124.091246	dt-generate	8	0.013328	60	10	60-180	60	67	GapPrac	1	14	2	9	1	distractor	0	1306	-1000	15482	13.328	13.086	13.561
DTProbeTrack03	12	ProbeTrackDT	1.1	SCS215a	20101124.091123	20101124.091252	dt-generate	8	0.013328	60	10	60-180	60	108	GapPrac	1	15	2	3	0	target	0	907	-1000	14482	13.328	13.310	13.349
DTProbeTrack03	12	ProbeTrackDT	1.1	SCS215a	20101124.091123	20101124.091258	dt-generate	8	0.013328	60	10	60-180	60	157	GapPrac	1	16	2	45	1	distractor	0	467	-1000	13482	13.328	12.914	13.735
DTProbeTrack03	12	ProbeTrackDT	1.1	SCS215a	20101124.091123	20101124.091304	dt-generate	8	0.013328	60	10	60-180	60	178	GapPrac	1	17	2	3	1	target	1	653	674	14156	13.328	12.902	13.746
DTProbeTrack03	12	ProbeTrackDT	1.1	SCS215a	20101124.091123	20101124.091311	dt-generate	8	0.013328	60	10	60-180	60	86	GapPrac	1	18	2	6	0	target	0	800	-1000	13156	13.328	12.903	13.757
DTProbeTrack03	12	ProbeTrackDT	1.1	SCS215a	20101124.091123	20101124.091316	dt-generate	8	0.013328	60	10	60-180	60	93	GapPrac	1	19	2	1	1	distractor	0	733	-1000	12156	13.328	12.835	13.823
DTProbeTrack03	12	ProbeTrackDT	1.1	SCS215a	20101124.091123	20101124.091322	dt-generate	8	0.013328	60	10	60-180	60	130	GapPrac	1	20	2	6	1	target	1	3319	0	12156	13.328	13.055	13.589
DTProbeTrack03	12	ProbeTrackDT	1.1	SCS215a	20101124.091420	20101124.091427	dt-generate	8	0.013328	60	10	60-180	60	143	GapExp	1	1	2	6	1	distractor	0	720	-1000	11156	13.328	12.980	13.347
DTProbeTrack03	12	ProbeTrackDT	1.1	SCS215a	20101124.091420	20101124.091434	dt-generate	8	0.013328	60	10	60-180	60	127	GapExp	1	2	2	3	1	target	1	8250	0	11156	13.328	13.308	13.348
DTProbeTrack03	12	ProbeTrackDT	1.1	SCS215a	20101124.091420	20101124.091447	dt-generate	8	0.013328	60	10	60-180	60	164	GapExp	1	3	2	3	0	target	0	587	-1000	10156	13.328	12.950	13.712
DTProbeTrack03	12	ProbeTrackDT	1.1	SCS215a	20101124.091420	20101124.091453	dt-generate	8	0.013328	60	10	60-180	60	108	GapExp	1	4	2	1	1	distractor	0	614	-1000	9156	13.328	13.058	13.585
DTProbeTrack03	12	ProbeTrackDT	1.1	SCS215a	20101124.091420	20101124.091459	dt-generate	8	0.013328	60	10	60-180	60	88	GapExp	1	5	2	9	1	distractor	0	680	-1000	8156	13.328	13.103	13.553
DTProbeTrack03	12	ProbeTrackDT	1.1	SCS215a	20101124.091420	20101124.091504	dt-generate	8	0.013328	60	10	60-180	60	124	GapExp	0	6	2	3	0	distractor	1	547	727	8883	13.328	13.295	13.355
DTProbeTrack03	12	ProbeTrackDT	1.1	SCS215a	20101124.091420	20101124.091510	dt-generate	8	0.013328	60	10	60-180	60	156	GapExp	0	7	2	3	0	distractor	1	560	720	9603	13.328	13.302	13.352
DTProbeTrack03	12	ProbeTrackDT	1.1	SCS215a	20101124.091420	20101124.091516	dt-generate	8	0.013328	60	10	60-180	60	79	GapExp	0	8	2	9	1	distractor	0	893	-1000	8603	13.328	12.998	13.648
DTProbeTrack03	12	ProbeTrackDT	1.1	SCS215a	20101124.091420	20101124.091521	dt-generate	8	0.013328	60	10	60-180	60	111	GapExp	0	9	2	3	1	distractor	0	454	-1000	7603	13.328	12.870	13.785
DTProbeTrack03	12	ProbeTrackDT	1.1	SCS215a	20101124.091420	20101124.091527	dt-generate	8	0.013328	60	10	60-180	60	159	GapExp	0	10	2	1	0	distractor	1	480	760	8363	13.328	12.926	13.725
DTProbeTrack03	12	ProbeTrackDT	1.1	SCS215a	20101124.091420	20101124.091533	dt-generate	8	0.013328	60	10	60-180	60	64	GapExp	0	11	2	1	1	target	1	667	667	9030	13.328	13.308	13.345
DTProbeTrack03	12	ProbeTrackDT	1.1	SCS215a	20101124.091420	20101124.091538	dt-generate	8	0.013328	60	10	60-180	60	112	GapExp	0	12	2	6	0	distractor	1	1200	400	9430	13.328	13.305	13.356
DTProbeTrack03	12	ProbeTrackDT	1.1	SCS215a	20101124.091420	20101124.091544	dt-generate	8	0.013328	60	10	60-180	60	76	GapExp	0	13	2	3	1	target	1	762	619	10049	13.328	12.889	13.787
DTProbeTrack03	12	ProbeTrackDT	1.1	SCS215a	20101124.091420	20101124.091549	dt-generate	8	0.013328	60	10	60-180	60	180	GapExp	0	14	2	45	0	target	0	773	-1000	9049	13.328	12.891	13.767
DTProbeTrack03	12	ProbeTrackDT	1.1	SCS215a	20101124.091420	20101124.091556	dt-generate	8	0.013328	60	10	60-180	60	144	GapExp	0	15	2	3	1	distractor	0	454	-1000	8049	13.328	12.853	13.815
DTProbeTrack03	12	ProbeTrackDT	1.1	SCS215a	20101124.091420	20101124.091602	dt-generate	8	0.013328	60	10	60-180	60	75	GapExp	0	16	2	9	1	target	1	893	554	8603	13.328	13.092	13.561
DTProbeTrack03	12	ProbeTrackDT	1.1	SCS215a	20101124.091420	20101124.091608	dt-generate	8	0.013328	60	10	60-180	60	78	GapExp	0	17	2	6	0	distractor	1	640	680	9283	13.328	13.308	13.346
DTProbeTrack03	12	ProbeTrackDT	1.1	SCS215a	20101124.091420	20101124.091613	dt-generate	8	0.013328	60	10	60-180	60	84	GapExp	0	18	2	6	1	target	1	400	800	10083	13.328	12.961	13.701
DTProbeTrack03	12	ProbeTrackDT	1.1	SCS215a	20101124.091420	20101124.091618	dt-generate	8	0.013328	60	10	60-180	60	83	GapExp	0	19	2	1	0	distractor	1	733	634	10717	13.328	12.865	13.781
DTProbeTrack03	12	ProbeTrackDT	1.1	SCS215a	20101124.091420	20101124.091623	dt-generate	8	0.013328	60	10	60-180	60	100	GapExp	0	20	2	3	1	target	1	560	720	11437	13.328	13.016	13.669
DTProbeTrack03	12	ProbeTrackDT	1.1	SCS215a	20101124.091420	20101124.091628	dt-generate	8	0.013328	60	10	60-180	60	110	GapExp	0	21	2	3	0	distractor	1	853	574	12011	13.328	12.950	13.709
DTProbeTrack03	12	ProbeTrackDT	1.1	SCS215a	20101124.091420	20101124.091634	dt-generate	8	0.013328	60	10	60-180	60	120	GapExp	0	22	2	1	0	distractor	1	600	700	12711	13.328	13.165	13.488
DTProbeTrack03	12	ProbeTrackDT	1.1	SCS215a	20101124.091420	20101124.091640	dt-generate	8	0.013328	60	10	60-180	60	136	GapExp	0	23	2	6	0	distractor	1	454	773	13484	13.328	12.899	13.763
DTProbeTrack03	12	ProbeTrackDT	1.1	SCS215a	20101124.091420	20101124.091646	dt-generate	8	0.013328	60	10	60-180	60	95	GapExp	0	24	2	3	0	distractor	1	454	773	14257	13.328	13.309	13.359
DTProbeTrack03	12	ProbeTrackDT	1.1	SCS215a	20101124.091420	20101124.091651	dt-generate	8	0.013328	60	10	60-180	60	170	GapExp	0	25	2	6	1	distractor	0	614	-1000	13257	13.328	13.069	13.551
DTProbeTrack03	12	ProbeTrackDT	1.1	SCS215a	20101124.091420	20101124.091657	dt-generate	8	0.013328	60	10	60-180	60	156	GapExp	0	26	2	3	1	distractor	0	454	-1000	12257	13.328	13.107	13.551
DTProbeTrack03	12	ProbeTrackDT	1.1	SCS215a	20101124.091420	20101124.091703	dt-generate	8	0.013328	60	10	60-180	60	175	GapExp	0	27	2	45	0	target	0	334	-1000	11257	13.328	13.091	13.564
DTProbeTrack03	12	ProbeTrackDT	1.1	SCS215a	20101124.091420	20101124.091710	dt-generate	8	0.013328	60	10	60-180	60	160	GapExp	0	28	2	9	1	target	1	520	740	11997	13.328	12.879	13.793
DTProbeTrack03	12	ProbeTrackDT	1.1	SCS215a	20101124.091420	20101124.091716	dt-generate	8	0.013328	60	10	60-180	60	156	GapExp	0	29	2	9	0	distractor	1	560	720	12717	13.328	13.089	13.568
DTProbeTrack03	12	ProbeTrackDT	1.1	SCS215a	20101124.091420	20101124.091722	dt-generate	8	0.013328	60	10	60-180	60	112	GapExp	0	30	2	9	1	target	1	467	767	13484	13.328	13.289	13.376
DTProbeTrack03	12	ProbeTrackDT	1.1	SCS215a	20101124.091420	20101124.091728	dt-generate	8	0.013328	60	10	60-180	60	69	GapExp	0	31	2	3	0	distractor	1	494	753	14237	13.328	13.084	13.541
DTProbeTrack03	12	ProbeTrackDT	1.1	SCS215a	20101124.091420	20101124.091732	dt-generate	8	0.013328	60	10	60-180	60	159	GapExp	0	32	2	3	1	target	1	414	793	15030	13.328	12.978	13.672
DTProbeTrack03	12	ProbeTrackDT	1.1	SCS215a	20101124.091420	20101124.091738	dt-generate	8	0.013328	60	10	60-180	60	161	GapExp	0	33	2	9	0	distractor	1	520	740	15770	13.328	13.302	13.371
DTProbeTrack03	12	ProbeTrackDT	1.1	SCS215a	20101124.091420	20101124.091745	dt-generate	8	0.013328	60	10	60-180	60	150	GapExp	0	34	2	9	1	target	1	467	767	16537	13.328	12.871	13.793
DTProbeTrack03	12	ProbeTrackDT	1.1	SCS215a	20101124.091420	20101124.091751	dt-generate	8	0.013328	60	10	60-180	60	120	GapExp	0	35	2	45	1	target	1	573	714	17251	13.328	13.289	13.360
DTProbeTrack03	12	ProbeTrackDT	1.1	SCS215a	20101124.091420	20101124.091757	dt-generate	8	0.013328	60	10	60-180	60	132	GapExp	0	36	2	1	0	target	0	653	-1000	16251	13.328	13.307	13.347
DTProbeTrack03	12	ProbeTrackDT	1.1	SCS215a	20101124.091420	20101124.091803	dt-generate	8	0.013328	60	10	60-180	60	112	GapExp	0	37	2	45	1	target	1	547	727	16978	13.328	12.919	13.750
DTProbeTrack03	12	ProbeTrackDT	1.1	SCS215a	20101124.091420	20101124.091809	dt-generate	8	0.013328	60	10	60-180	60	146	GapExp	0	38	2	45	0	distractor	1	547	727	17705	13.328	13.104	13.546
DTProbeTrack03	12	ProbeTrackDT	1.1	SCS215a	20101124.091420	20101124.091815	dt-generate	8	0.013328	60	10	60-180	60	78	GapExp	0	39	2	3	0	target	0	1067	-1000	16705	13.328	13.093	13.575
DTProbeTrack03	12	ProbeTrackDT	1.1	SCS215a	20101124.091420	20101124.091821	dt-generate	8	0.013328	60	10	60-180	60	174	GapExp	0	40	2	6	1	distractor	0	640	-1000	15705	13.328	12.843	13.812
DTProbeTrack03	12	ProbeTrackDT	1.1	SCS215a	20101124.091420	20101124.091827	dt-generate	8	0.013328	60	10	60-180	60	164	GapExp	0	41	2	9	1	target	1	240	880	16585	13.328	12.858	13.799
DTProbeTrack03	12	ProbeTrackDT	1.1	SCS215a	20101124.091420	20101124.091833	dt-generate	8	0.013328	60	10	60-180	60	71	GapExp	0	42	2	6	0	distractor	1	600	700	17285	13.328	13.297	13.350
DTProbeTrack03	12	ProbeTrackDT	1.1	SCS215a	20101124.091420	20101124.091838	dt-generate	8	0.013328	60	10	60-180	60	110	GapExp	0	43	2	45	1	target	1	587	707	17992	13.328	13.100	13.558
DTProbeTrack03	12	ProbeTrackDT	1.1	SCS215a	20101124.091420	20101124.091844	dt-generate	8	0.013328	60	10	60-180	60	97	GapExp	0	44	2	45	0	target	0	1640	-1000	16992	13.328	13.097	13.563
DTProbeTrack03	12	ProbeTrackDT	1.1	SCS215a	20101124.091420	20101124.091851	dt-generate	8	0.013328	60	10	60-180	60	94	GapExp	0	45	2	9	0	distractor	1	547	727	17719	13.328	13.097	13.557
DTProbeTrack03	12	ProbeTrackDT	1.1	SCS215a	20101124.091420	20101124.091857	dt-generate	8	0.013328	60	10	60-180	60	177	GapExp	0	46	2	1	0	distractor	1	507	747	18466	13.328	13.007	13.642
DTProbeTrack03	12	ProbeTrackDT	1.1	SCS215a	20101124.091420	20101124.091903	dt-generate	8	0.013328	60	10	60-180	60	141	GapExp	0	47	2	45	0	distractor	1	627	687	19153	13.369	12.976	26.664
DTProbeTrack03	12	ProbeTrackDT	1.1	SCS215a	20101124.091420	20101124.091909	dt-generate	8	0.013328	60	10	60-180	60	61	GapExp	0	48	2	1	0	distractor	1	667	667	19820	13.328	13.158	13.502
DTProbeTrack03	12	ProbeTrackDT	1.1	SCS215a	20101124.091420	20101124.091914	dt-generate	8	0.013328	60	10	60-180	60	170	GapExp	0	49	2	45	0	distractor	1	414	793	20613	13.328	13.198	13.464
DTProbeTrack03	12	ProbeTrackDT	1.1	SCS215a	20101124.091420	20101124.091921	dt-generate	8	0.013328	60	10	60-180	60	115	GapExp	0	50	2	9	0	distractor	1	587	707	21320	13.328	13.308	13.350
DTProbeTrack03	12	ProbeTrackDT	1.1	SCS215a	20101124.091420	20101124.091931	dt-generate	8	0.013328	60	10	60-180	60	129	GapExp	0	51	2	45	0	distractor	1	494	753	22073	13.328	12.978	13.689
DTProbeTrack03	12	ProbeTrackDT	1.1	SCS215a	20101124.091420	20101124.091937	dt-generate	8	0.013328	60	10	60-180	60	98	GapExp	0	52	2	6	0	distractor	1	574	713	22786	13.328	12.925	13.732
DTProbeTrack03	12	ProbeTrackDT	1.1	SCS215a	20101124.091420	20101124.091943	dt-generate	8	0.013328	60	10	60-180	60	153	GapExp	0	53	2	9	1	target	1	1120	440	23226	13.328	13.007	13.656
DTProbeTrack03	12	ProbeTrackDT	1.1	SCS215a	20101124.091420	20101124.091949	dt-generate	8	0.013328	60	10	60-180	60	106	GapExp	0	54	2	1	1	distractor	0	480	-1000	22226	13.328	12.862	13.785
DTProbeTrack03	12	ProbeTrackDT	1.1	SCS215a	20101124.091420	20101124.091955	dt-generate	8	0.013328	60	10	60-180	60	114	GapExp	0	55	2	1	1	target	1	374	813	23039	13.328	12.939	13.709
DTProbeTrack03	12	ProbeTrackDT	1.1	SCS215a	20101124.091420	20101124.092000	dt-generate	8	0.013328	60	10	60-180	60	135	GapExp	0	56	2	6	0	target	0	880	-1000	22039	13.328	12.889	13.770
DTProbeTrack03	12	ProbeTrackDT	1.1	SCS215a	20101124.091420	20101124.092006	dt-generate	8	0.013328	60	10	60-180	60	77	GapExp	0	57	2	1	0	distractor	1	600	700	22739	13.328	13.307	13.357
DTProbeTrack03	12	ProbeTrackDT	1.1	SCS215a	20101124.091420	20101124.092011	dt-generate	8	0.013328	60	10	60-180	60	180	GapExp	0	58	2	3	0	distractor	1	640	680	23419	13.328	13.306	13.345
DTProbeTrack03	12	ProbeTrackDT	1.1	SCS215a	20101124.091420	20101124.092018	dt-generate	8	0.013328	60	10	60-180	60	102	GapExp	0	59	2	1	1	target	1	6105	0	23419	13.328	13.299	13.360
DTProbeTrack03	12	ProbeTrackDT	1.1	SCS215a	20101124.091420	20101124.092029	dt-generate	8	0.013328	60	10	60-180	60	139	GapExp	0	60	2	6	1	target	1	227	887	24306	13.328	13.120	13.562
DTProbeTrack03	12	ProbeTrackDT	1.1	SCS215a	20101124.091420	20101124.092034	dt-generate	8	0.013328	60	10	60-180	60	139	GapExp	0	61	2	45	0	target	0	494	-1000	23306	13.328	13.103	13.558
DTProbeTrack03	12	ProbeTrackDT	1.1	SCS215a	20101124.091420	20101124.092040	dt-generate	8	0.013328	60	10	60-180	60	99	GapExp	0	62	2	6	0	distractor	1	520	740	24046	13.328	13.309	13.349
DTProbeTrack03	12	ProbeTrackDT	1.1	SCS215a	20101124.091420	20101124.092046	dt-generate	8	0.013328	60	10	60-180	60	135	GapExp	0	63	2	1	1	distractor	0	494	-1000	23046	13.328	12.894	13.766
DTProbeTrack03	12	ProbeTrackDT	1.1	SCS215a	20101124.091420	20101124.092052	dt-generate	8	0.013328	60	10	60-180	60	65	GapExp	0	64	2	1	1	target	1	720	640	23686	13.328	13.304	13.356
DTProbeTrack03	12	ProbeTrackDT	1.1	SCS215a	20101124.091420	20101124.092057	dt-generate	8	0.013328	60	10	60-180	60	82	GapExp	0	65	2	45	1	target	1	307	847	24533	13.328	13.109	13.544
DTProbeTrack03	12	ProbeTrackDT	1.1	SCS215a	20101124.091420	20101124.092102	dt-generate	8	0.013328	60	10	60-180	60	134	GapExp	0	66	2	9	1	target	1	547	727	25260	13.328	13.112	13.542
DTProbeTrack03	12	ProbeTrackDT	1.1	SCS215a	20101124.091420	20101124.092108	dt-generate	8	0.013328	60	10	60-180	60	129	GapExp	0	67	2	45	1	distractor	0	507	-1000	24260	13.372	13.137	26.854
DTProbeTrack03	12	ProbeTrackDT	1.1	SCS215a	20101124.091420	20101124.092114	dt-generate	8	0.013328	60	10	60-180	60	79	GapExp	0	68	2	6	1	target	1	347	827	25087	13.328	12.965	13.689
DTProbeTrack03	12	ProbeTrackDT	1.1	SCS215a	20101124.091420	20101124.092119	dt-generate	8	0.013328	60	10	60-180	60	71	GapExp	0	69	2	45	0	target	0	520	-1000	24087	13.328	12.873	13.782
DTProbeTrack03	12	ProbeTrackDT	1.1	SCS215a	20101124.091420	20101124.092124	dt-generate	8	0.013328	60	10	60-180	60	133	GapExp	0	70	2	6	1	distractor	0	520	-1000	23087	13.328	13.097	13.563
DTProbeTrack03	12	ProbeTrackDT	1.1	SCS215a	20101124.091420	20101124.092130	dt-generate	8	0.013328	60	10	60-180	60	86	GapExp	0	71	2	3	0	target	0	640	-1000	22087	13.328	13.303	13.356
DTProbeTrack03	12	ProbeTrackDT	1.1	SCS215a	20101124.091420	20101124.092135	dt-generate	8	0.013328	60	10	60-180	60	103	GapExp	0	72	2	1	0	distractor	1	440	780	22867	13.328	13.303	13.348
DTProbeTrack03	12	ProbeTrackDT	1.1	SCS215a	20101124.091420	20101124.092141	dt-generate	8	0.013328	60	10	60-180	60	123	GapExp	0	73	2	6	1	distractor	0	520	-1000	21867	13.328	13.303	13.354
DTProbeTrack03	12	ProbeTrackDT	1.1	SCS215a	20101124.091420	20101124.092146	dt-generate	8	0.013328	60	10	60-180	60	88	GapExp	0	74	2	1	0	target	0	374	-1000	20867	13.328	13.309	13.346
DTProbeTrack03	12	ProbeTrackDT	1.1	SCS215a	20101124.091420	20101124.092151	dt-generate	8	0.013328	60	10	60-180	60	111	GapExp	0	75	2	6	0	target	0	600	-1000	19867	13.328	13.105	13.554
DTProbeTrack03	12	ProbeTrackDT	1.1	SCS215a	20101124.091420	20101124.092157	dt-generate	8	0.013328	60	10	60-180	60	128	GapExp	0	76	2	9	0	distractor	1	467	767	20634	13.328	13.308	13.347
DTProbeTrack03	12	ProbeTrackDT	1.1	SCS215a	20101124.091420	20101124.092203	dt-generate	8	0.013328	60	10	60-180	60	171	GapExp	0	77	2	9	0	distractor	1	480	760	21394	13.372	13.304	26.641
DTProbeTrack03	12	ProbeTrackDT	1.1	SCS215a	20101124.091420	20101124.092209	dt-generate	8	0.013328	60	10	60-180	60	179	GapExp	0	78	2	3	0	distractor	1	560	720	22114	13.456	13.305	39.978
DTProbeTrack03	12	ProbeTrackDT	1.1	SCS215a	20101124.091420	20101124.092215	dt-generate	8	0.013328	60	10	60-180	60	77	GapExp	0	79	2	6	0	target	0	1386	-1000	21114	13.328	13.107	13.540
DTProbeTrack03	12	ProbeTrackDT	1.1	SCS215a	20101124.091420	20101124.092221	dt-generate	8	0.013328	60	10	60-180	60	138	GapExp	0	80	2	3	0	target	0	5705	-1000	20114	13.328	13.292	13.367
DTProbeTrack03	12	ProbeTrackDT	1.1	SCS215a	20101124.091420	20101124.092232	dt-generate	8	0.013328	60	10	60-180	60	85	GapExp	0	81	2	45	1	target	1	536	732	20846	13.328	12.930	13.740
DTProbeTrack03	12	ProbeTrackDT	1.1	SCS215a	20101124.091420	20101124.092238	dt-generate	8	0.013328	60	10	60-180	60	80	GapExp	0	82	2	45	1	target	1	840	580	21426	13.328	13.304	13.356
DTProbeTrack03	12	ProbeTrackDT	1.1	SCS215a	20101124.091420	20101124.092244	dt-generate	8	0.013328	60	10	60-180	60	85	GapExp	0	83	2	45	0	distractor	1	800	600	22026	13.328	13.100	13.556
DTProbeTrack03	12	ProbeTrackDT	1.1	SCS215a	20101124.091420	20101124.092250	dt-generate	8	0.013328	60	10	60-180	60	146	GapExp	0	84	2	9	1	distractor	0	987	-1000	21026	13.328	13.094	13.560
DTProbeTrack03	12	ProbeTrackDT	1.1	SCS215a	20101124.091420	20101124.092256	dt-generate	8	0.013328	60	10	60-180	60	102	GapExp	0	85	2	9	0	target	0	134	-1000	20026	13.328	13.307	13.355
DTProbeTrack03	12	ProbeTrackDT	1.1	SCS215a	20101124.091420	20101124.092301	dt-generate	8	0.013328	60	10	60-180	60	132	GapExp	0	86	2	6	1	target	1	320	840	20866	13.328	13.099	13.551
DTProbeTrack03	12	ProbeTrackDT	1.1	SCS215a	20101124.091420	20101124.092307	dt-generate	8	0.013328	60	10	60-180	60	179	GapExp	0	87	2	1	1	target	1	774	613	21479	13.328	12.942	13.725
DTProbeTrack03	12	ProbeTrackDT	1.1	SCS215a	20101124.091420	20101124.092314	dt-generate	8	0.013328	60	10	60-180	60	89	GapExp	0	88	2	9	1	target	1	600	700	22179	13.328	13.305	13.345
DTProbeTrack03	12	ProbeTrackDT	1.1	SCS215a	20101124.091420	20101124.092319	dt-generate	8	0.013328	60	10	60-180	60	156	GapExp	0	89	2	6	1	target	1	1520	240	22419	13.328	13.308	13.349
DTProbeTrack03	12	ProbeTrackDT	1.1	SCS215a	20101124.091420	20101124.092326	dt-generate	8	0.013328	60	10	60-180	60	164	GapExp	0	90	2	45	0	distractor	1	614	693	23112	13.328	13.308	13.348
DTProbeTrack03	12	ProbeTrackDT	1.1	SCS215a	20101124.091420	20101124.092333	dt-generate	8	0.013328	60	10	60-180	60	92	GapExp	0	91	2	6	0	distractor	1	600	700	23812	13.328	13.310	13.345
DTProbeTrack03	12	ProbeTrackDT	1.1	SCS215a	20101124.091420	20101124.092338	dt-generate	8	0.013328	60	10	60-180	60	92	GapExp	0	92	2	1	1	target	1	693	654	24466	13.328	13.099	13.543
DTProbeTrack03	12	ProbeTrackDT	1.1	SCS215a	20101124.091420	20101124.092344	dt-generate	8	0.013328	60	10	60-180	60	152	GapExp	0	93	2	45	1	target	1	893	554	25020	13.328	13.096	13.554
DTProbeTrack03	12	ProbeTrackDT	1.1	SCS215a	20101124.091420	20101124.092350	dt-generate	8	0.013328	60	10	60-180	60	76	GapExp	0	94	2	45	1	target	1	454	773	25793	13.328	12.854	13.788
DTProbeTrack03	12	ProbeTrackDT	1.1	SCS215a	20101124.091420	20101124.092356	dt-generate	8	0.013328	60	10	60-180	60	143	GapExp	0	95	2	3	1	target	1	307	847	26640	13.328	13.303	13.349
DTProbeTrack03	12	ProbeTrackDT	1.1	SCS215a	20101124.091420	20101124.092402	dt-generate	8	0.013328	60	10	60-180	60	142	GapExp	0	96	2	45	0	distractor	1	467	767	27407	13.328	13.310	13.348
DTProbeTrack03	12	ProbeTrackDT	1.1	SCS215a	20101124.091420	20101124.092408	dt-generate	8	0.013328	60	10	60-180	60	103	GapExp	0	97	2	45	0	target	0	1053	-1000	26407	13.328	13.308	13.356
DTProbeTrack03	12	ProbeTrackDT	1.1	SCS215a	20101124.091420	20101124.092414	dt-generate	8	0.013328	60	10	60-180	60	101	GapExp	0	98	2	9	0	distractor	1	3172	0	26407	13.328	13.280	13.362
DTProbeTrack03	12	ProbeTrackDT	1.1	SCS215a	20101124.091420	20101124.092423	dt-generate	8	0.013328	60	10	60-180	60	155	GapExp	0	99	2	45	1	target	1	334	833	27240	13.328	13.307	13.351
DTProbeTrack03	12	ProbeTrackDT	1.1	SCS215a	20101124.091420	20101124.092429	dt-generate	8	0.013328	60	10	60-180	60	85	GapExp	0	100	2	9	0	distractor	1	520	740	27980	13.328	13.309	13.349
DTProbeTrack03	12	ProbeTrackDT	1.1	SCS215a	20101124.091420	20101124.092445	dt-generate	8	0.013328	60	10	60-180	60	122	GapExp	0	101	2	3	1	distractor	0	600	-1000	26980	13.328	13.250	13.408
DTProbeTrack03	12	ProbeTrackDT	1.1	SCS215a	20101124.091420	20101124.092451	dt-generate	8	0.013328	60	10	60-180	60	120	GapExp	0	102	2	1	1	target	1	347	827	27807	13.328	13.308	13.354
DTProbeTrack03	12	ProbeTrackDT	1.1	SCS215a	20101124.091420	20101124.092456	dt-generate	8	0.013328	60	10	60-180	60	114	GapExp	0	103	2	6	1	target	1	427	787	28594	13.328	13.105	13.561
DTProbeTrack03	12	ProbeTrackDT	1.1	SCS215a	20101124.091420	20101124.092502	dt-generate	8	0.013328	60	10	60-180	60	80	GapExp	0	104	2	45	1	target	1	547	727	29321	13.328	13.104	13.556
DTProbeTrack03	12	ProbeTrackDT	1.1	SCS215a	20101124.091420	20101124.092507	dt-generate	8	0.013328	60	10	60-180	60	81	GapExp	0	105	2	45	1	distractor	0	440	-1000	28321	13.328	13.303	13.348
DTProbeTrack03	12	ProbeTrackDT	1.1	SCS215a	20101124.091420	20101124.092513	dt-generate	8	0.013328	60	10	60-180	60	167	GapExp	0	106	2	1	1	target	1	307	847	29168	13.328	13.031	13.628
DTProbeTrack03	12	ProbeTrackDT	1.1	SCS215a	20101124.091420	20101124.092519	dt-generate	8	0.013328	60	10	60-180	60	104	GapExp	0	107	2	45	0	distractor	1	747	627	29795	13.328	13.013	13.647
DTProbeTrack03	12	ProbeTrackDT	1.1	SCS215a	20101124.091420	20101124.092525	dt-generate	8	0.013328	60	10	60-180	60	95	GapExp	0	108	2	45	0	distractor	1	534	733	30528	13.328	13.307	13.347
DTProbeTrack03	12	ProbeTrackDT	1.1	SCS215a	20101124.091420	20101124.092531	dt-generate	8	0.013328	60	10	60-180	60	168	GapExp	0	109	2	9	1	target	1	534	733	31261	13.328	13.091	13.539
DTProbeTrack03	12	ProbeTrackDT	1.1	SCS215a	20101124.091420	20101124.092537	dt-generate	8	0.013328	60	10	60-180	60	87	GapExp	0	110	2	6	1	target	1	693	654	31915	13.328	13.102	13.557
DTProbeTrack03	12	ProbeTrackDT	1.1	SCS215a	20101124.091420	20101124.092543	dt-generate	8	0.013328	60	10	60-180	60	147	GapExp	0	111	2	1	1	target	1	440	780	32695	13.328	13.104	13.563
DTProbeTrack03	12	ProbeTrackDT	1.1	SCS215a	20101124.091420	20101124.092548	dt-generate	8	0.013328	60	10	60-180	60	123	GapExp	0	112	2	3	0	distractor	1	467	767	33462	13.328	13.309	13.354
DTProbeTrack03	12	ProbeTrackDT	1.1	SCS215a	20101124.091420	20101124.092554	dt-generate	8	0.013328	60	10	60-180	60	126	GapExp	0	113	2	3	1	target	1	534	733	34195	13.328	13.308	13.349
DTProbeTrack03	12	ProbeTrackDT	1.1	SCS215a	20101124.091420	20101124.092600	dt-generate	8	0.013328	60	10	60-180	60	140	GapExp	0	114	2	3	0	distractor	1	507	747	34942	13.328	13.285	13.380
DTProbeTrack03	12	ProbeTrackDT	1.1	SCS215a	20101124.091420	20101124.092605	dt-generate	8	0.013328	60	10	60-180	60	92	GapExp	0	115	2	45	0	distractor	1	520	740	35682	13.328	13.117	13.548
DTProbeTrack03	12	ProbeTrackDT	1.1	SCS215a	20101124.091420	20101124.092611	dt-generate	8	0.013328	60	10	60-180	60	104	GapExp	0	116	2	9	0	target	0	1013	-1000	34682	13.328	13.309	13.348
DTProbeTrack03	12	ProbeTrackDT	1.1	SCS215a	20101124.091420	20101124.092617	dt-generate	8	0.013328	60	10	60-180	60	137	GapExp	0	117	2	45	0	target	0	427	-1000	33682	13.638	13.115	93.281
DTProbeTrack03	12	ProbeTrackDT	1.1	SCS215a	20101124.091420	20101124.092623	dt-generate	8	0.013328	60	10	60-180	60	91	GapExp	0	118	2	3	0	distractor	1	574	713	34395	13.328	12.884	13.785
DTProbeTrack03	12	ProbeTrackDT	1.1	SCS215a	20101124.091420	20101124.092629	dt-generate	8	0.013328	60	10	60-180	60	113	GapExp	0	119	2	3	0	target	0	427	-1000	33395	13.328	13.062	13.582
DTProbeTrack03	12	ProbeTrackDT	1.1	SCS215a	20101124.091420	20101124.092634	dt-generate	8	0.013328	60	10	60-180	60	102	GapExp	0	120	2	3	1	distractor	0	480	-1000	32395	13.328	13.093	13.572
DTProbeTrack03	12	ProbeTrackDT	1.1	SCS215a	20101124.091420	20101124.092639	dt-generate	8	0.013328	60	10	60-180	60	109	GapExp	0	121	2	6	0	distractor	1	560	720	33115	13.328	13.106	13.560
DTProbeTrack03	12	ProbeTrackDT	1.1	SCS215a	20101124.091420	20101124.092645	dt-generate	8	0.013328	60	10	60-180	60	125	GapExp	0	122	2	3	0	distractor	1	454	773	33888	13.328	13.304	13.346
DTProbeTrack03	12	ProbeTrackDT	1.1	SCS215a	20101124.091420	20101124.092650	dt-generate	8	0.013328	60	10	60-180	60	121	GapExp	0	123	2	45	1	target	1	374	813	34701	13.328	13.305	13.349
DTProbeTrack03	12	ProbeTrackDT	1.1	SCS215a	20101124.091420	20101124.092656	dt-generate	8	0.013328	60	10	60-180	60	67	GapExp	0	124	2	1	1	target	1	334	833	35534	13.328	13.311	13.343
DTProbeTrack03	12	ProbeTrackDT	1.1	SCS215a	20101124.091420	20101124.092701	dt-generate	8	0.013328	60	10	60-180	60	123	GapExp	0	125	2	3	1	distractor	0	494	-1000	34534	13.328	13.107	13.563
DTProbeTrack03	12	ProbeTrackDT	1.1	SCS215a	20101124.091420	20101124.092707	dt-generate	8	0.013328	60	10	60-180	60	149	GapExp	0	126	2	9	1	target	1	454	773	35307	13.328	12.950	13.711
DTProbeTrack03	12	ProbeTrackDT	1.1	SCS215a	20101124.091420	20101124.092712	dt-generate	8	0.013328	60	10	60-180	60	76	GapExp	0	127	2	1	1	target	1	560	720	36027	13.328	12.856	13.799
DTProbeTrack03	12	ProbeTrackDT	1.1	SCS215a	20101124.091420	20101124.092717	dt-generate	8	0.013328	60	10	60-180	60	134	GapExp	0	128	2	9	0	distractor	1	627	687	36714	13.328	12.946	13.704
DTProbeTrack03	12	ProbeTrackDT	1.1	SCS215a	20101124.091420	20101124.092723	dt-generate	8	0.013328	60	10	60-180	60	89	GapExp	0	129	2	1	0	distractor	1	480	760	37474	13.328	13.308	13.348
DTProbeTrack03	12	ProbeTrackDT	1.1	SCS215a	20101124.091420	20101124.092729	dt-generate	8	0.013328	60	10	60-180	60	83	GapExp	0	130	2	9	0	distractor	1	560	720	38194	13.328	12.908	13.738
DTProbeTrack03	12	ProbeTrackDT	1.1	SCS215a	20101124.091420	20101124.092734	dt-generate	8	0.013328	60	10	60-180	60	72	GapExp	0	131	2	3	1	target	1	307	847	39041	13.328	13.078	13.564
DTProbeTrack03	12	ProbeTrackDT	1.1	SCS215a	20101124.091420	20101124.092738	dt-generate	8	0.013328	60	10	60-180	60	108	GapExp	0	132	2	1	0	distractor	1	574	713	39754	13.328	13.294	13.356
DTProbeTrack03	12	ProbeTrackDT	1.1	SCS215a	20101124.091420	20101124.092744	dt-generate	8	0.013328	60	10	60-180	60	104	GapExp	0	133	2	3	1	distractor	0	480	-1000	38754	13.328	12.949	13.705
DTProbeTrack03	12	ProbeTrackDT	1.1	SCS215a	20101124.091420	20101124.092749	dt-generate	8	0.013328	60	10	60-180	60	140	GapExp	0	134	2	3	1	target	1	360	820	39574	13.328	13.110	13.550
DTProbeTrack03	12	ProbeTrackDT	1.1	SCS215a	20101124.091420	20101124.092755	dt-generate	8	0.013328	60	10	60-180	60	94	GapExp	0	135	2	6	0	distractor	1	1200	400	39974	13.328	13.306	13.347
DTProbeTrack03	12	ProbeTrackDT	1.1	SCS215a	20101124.091420	20101124.092801	dt-generate	8	0.013328	60	10	60-180	60	81	GapExp	0	136	2	1	0	target	0	1320	-1000	38974	13.328	13.308	13.348
DTProbeTrack03	12	ProbeTrackDT	1.1	SCS215a	20101124.091420	20101124.092807	dt-generate	8	0.013328	60	10	60-180	60	90	GapExp	0	137	2	3	1	distractor	0	454	-1000	37974	13.328	13.300	13.349
DTProbeTrack03	12	ProbeTrackDT	1.1	SCS215a	20101124.091420	20101124.092812	dt-generate	8	0.013328	60	10	60-180	60	170	GapExp	0	138	2	45	1	target	1	387	807	38781	13.328	12.991	13.654
DTProbeTrack03	12	ProbeTrackDT	1.1	SCS215a	20101124.091420	20101124.092818	dt-generate	8	0.013328	60	10	60-180	60	103	GapExp	0	139	2	6	1	target	1	427	787	39568	13.328	12.914	13.749
DTProbeTrack03	12	ProbeTrackDT	1.1	SCS215a	20101124.091420	20101124.092824	dt-generate	8	0.013328	60	10	60-180	60	172	GapExp	0	140	2	45	1	target	1	534	733	40301	13.328	12.905	13.743
DTProbeTrack03	12	ProbeTrackDT	1.1	SCS215a	20101124.091420	20101124.092831	dt-generate	8	0.013328	60	10	60-180	60	113	GapExp	0	141	2	6	0	distractor	1	680	660	40961	13.328	13.085	13.585
DTProbeTrack03	12	ProbeTrackDT	1.1	SCS215a	20101124.091420	20101124.092836	dt-generate	8	0.013328	60	10	60-180	60	135	GapExp	0	142	2	9	1	target	1	827	587	41548	13.328	13.308	13.346
DTProbeTrack03	12	ProbeTrackDT	1.1	SCS215a	20101124.091420	20101124.092842	dt-generate	8	0.013328	60	10	60-180	60	145	GapExp	0	143	2	9	0	distractor	1	440	780	42328	13.328	12.953	13.693
DTProbeTrack03	12	ProbeTrackDT	1.1	SCS215a	20101124.091420	20101124.092848	dt-generate	8	0.013328	60	10	60-180	60	180	GapExp	0	144	2	9	0	distractor	1	667	667	42995	13.369	13.302	26.674
DTProbeTrack03	12	ProbeTrackDT	1.1	SCS215a	20101124.091420	20101124.092855	dt-generate	8	0.013328	60	10	60-180	60	105	GapExp	0	145	2	9	1	target	1	613	694	43689	13.328	13.056	13.615
DTProbeTrack03	12	ProbeTrackDT	1.1	SCS215a	20101124.091420	20101124.092901	dt-generate	8	0.013328	60	10	60-180	60	87	GapExp	0	146	2	9	0	target	0	574	-1000	42689	13.623	13.290	79.966
DTProbeTrack03	12	ProbeTrackDT	1.1	SCS215a	20101124.091420	20101124.092906	dt-generate	8	0.013328	60	10	60-180	60	124	GapExp	0	147	2	9	1	target	1	667	667	43356	13.328	13.094	13.555
DTProbeTrack03	12	ProbeTrackDT	1.1	SCS215a	20101124.091420	20101124.092912	dt-generate	8	0.013328	60	10	60-180	60	179	GapExp	0	148	2	6	1	target	1	400	800	44156	13.328	12.916	13.736
DTProbeTrack03	12	ProbeTrackDT	1.1	SCS215a	20101124.091420	20101124.092918	dt-generate	8	0.013328	60	10	60-180	60	159	GapExp	0	149	2	3	1	target	1	387	807	44963	13.328	13.146	13.507
DTProbeTrack03	12	ProbeTrackDT	1.1	SCS215a	20101124.091420	20101124.092924	dt-generate	8	0.013328	60	10	60-180	60	76	GapExp	0	150	2	6	1	target	1	374	813	45776	13.328	13.308	13.346
DTProbeTrack03	12	ProbeTrackDT	1.1	SCS215a	20101124.091420	20101124.092937	dt-generate	8	0.013328	60	10	60-180	60	97	GapExp	0	151	2	9	0	distractor	1	560	720	46496	13.328	13.309	13.349
DTProbeTrack03	12	ProbeTrackDT	1.1	SCS215a	20101124.091420	20101124.092942	dt-generate	8	0.013328	60	10	60-180	60	111	GapExp	0	152	2	3	0	target	0	400	-1000	45496	13.328	12.925	13.726
DTProbeTrack03	12	ProbeTrackDT	1.1	SCS215a	20101124.091420	20101124.092947	dt-generate	8	0.013328	60	10	60-180	60	173	GapExp	0	153	2	45	0	distractor	1	614	693	46189	13.328	12.871	13.781
DTProbeTrack03	12	ProbeTrackDT	1.1	SCS215a	20101124.091420	20101124.092954	dt-generate	8	0.013328	60	10	60-180	60	82	GapExp	0	154	2	1	1	distractor	0	3212	-1000	45189	13.328	13.309	13.346
DTProbeTrack03	12	ProbeTrackDT	1.1	SCS215a	20101124.091420	20101124.093002	dt-generate	8	0.013328	60	10	60-180	60	134	GapExp	0	155	2	1	0	distractor	1	440	780	45969	13.380	13.096	26.648
DTProbeTrack03	12	ProbeTrackDT	1.1	SCS215a	20101124.091420	20101124.093008	dt-generate	8	0.013328	60	10	60-180	60	113	GapExp	0	156	2	1	1	distractor	0	1133	-1000	44969	13.328	13.309	13.347
DTProbeTrack03	12	ProbeTrackDT	1.1	SCS215a	20101124.091420	20101124.093014	dt-generate	8	0.013328	60	10	60-180	60	63	GapExp	0	157	2	6	0	distractor	1	560	720	45689	13.328	13.309	13.347
DTProbeTrack03	12	ProbeTrackDT	1.1	SCS215a	20101124.091420	20101124.093019	dt-generate	8	0.013328	60	10	60-180	60	172	GapExp	0	158	2	1	0	distractor	1	454	773	46462	13.328	13.309	13.353
DTProbeTrack03	12	ProbeTrackDT	1.1	SCS215a	20101124.091420	20101124.093025	dt-generate	8	0.013328	60	10	60-180	60	118	GapExp	0	159	2	6	1	target	1	1800	100	46562	13.328	12.937	13.722
DTProbeTrack03	12	ProbeTrackDT	1.1	SCS215a	20101124.091420	20101124.093032	dt-generate	8	0.013328	60	10	60-180	60	164	GapExp	0	160	2	3	1	target	1	600	700	47262	13.328	13.112	13.551
DTProbeTrack03	12	ProbeTrackDT	1.1	SCS215a	20101124.091420	20101124.093038	dt-generate	8	0.013328	60	10	60-180	60	61	GapExp	0	161	2	9	1	target	1	627	687	47949	13.328	13.105	13.547
DTProbeTrack03	12	ProbeTrackDT	1.1	SCS215a	20101124.091420	20101124.093043	dt-generate	8	0.013328	60	10	60-180	60	155	GapExp	0	162	2	1	1	target	1	480	760	48709	13.328	13.089	13.552
DTProbeTrack03	12	ProbeTrackDT	1.1	SCS215a	20101124.091420	20101124.093049	dt-generate	8	0.013328	60	10	60-180	60	147	GapExp	0	163	2	9	1	target	1	427	787	49496	13.328	12.935	13.724
DTProbeTrack03	12	ProbeTrackDT	1.1	SCS215a	20101124.091420	20101124.093055	dt-generate	8	0.013328	60	10	60-180	60	78	GapExp	0	164	2	6	0	target	0	560	-1000	48496	13.328	13.306	13.348
DTProbeTrack03	12	ProbeTrackDT	1.1	SCS215a	20101124.091420	20101124.093100	dt-generate	8	0.013328	60	10	60-180	60	83	GapExp	0	165	2	1	0	target	0	813	-1000	47496	13.328	13.090	13.560
DTProbeTrack03	12	ProbeTrackDT	1.1	SCS215a	20101124.091420	20101124.093105	dt-generate	8	0.013328	60	10	60-180	60	131	GapExp	0	166	2	9	0	distractor	1	494	753	48249	13.378	13.102	26.649
DTProbeTrack03	12	ProbeTrackDT	1.1	SCS215a	20101124.091420	20101124.093111	dt-generate	8	0.013328	60	10	60-180	60	86	GapExp	0	167	2	1	0	target	0	667	-1000	47249	13.328	13.218	13.457
DTProbeTrack03	12	ProbeTrackDT	1.1	SCS215a	20101124.091420	20101124.093116	dt-generate	8	0.013328	60	10	60-180	60	79	GapExp	0	168	2	9	0	distractor	1	494	753	48002	13.328	13.308	13.348
DTProbeTrack03	12	ProbeTrackDT	1.1	SCS215a	20101124.091420	20101124.093121	dt-generate	8	0.013328	60	10	60-180	60	125	GapExp	0	169	2	45	0	distractor	1	507	747	48749	13.373	12.947	26.836
DTProbeTrack03	12	ProbeTrackDT	1.1	SCS215a	20101124.091420	20101124.093128	dt-generate	8	0.013328	60	10	60-180	60	73	GapExp	0	170	2	3	1	target	1	414	793	49542	13.328	12.980	13.689
DTProbeTrack03	12	ProbeTrackDT	1.1	SCS215a	20101124.091420	20101124.093132	dt-generate	8	0.013328	60	10	60-180	60	115	GapExp	0	171	2	3	0	distractor	1	507	747	50289	13.328	13.104	13.554
DTProbeTrack03	12	ProbeTrackDT	1.1	SCS215a	20101124.091420	20101124.093138	dt-generate	8	0.013328	60	10	60-180	60	79	GapExp	0	172	2	9	1	target	1	320	840	51129	13.328	13.306	13.349
DTProbeTrack03	12	ProbeTrackDT	1.1	SCS215a	20101124.091420	20101124.093143	dt-generate	8	0.013328	60	10	60-180	60	125	GapExp	0	173	2	1	0	distractor	1	574	713	51842	13.328	13.309	13.351
DTProbeTrack03	12	ProbeTrackDT	1.1	SCS215a	20101124.091420	20101124.093148	dt-generate	8	0.013328	60	10	60-180	60	67	GapExp	0	174	2	1	1	target	1	294	853	52695	13.328	12.890	13.774
DTProbeTrack03	12	ProbeTrackDT	1.1	SCS215a	20101124.091420	20101124.093153	dt-generate	8	0.013328	60	10	60-180	60	117	GapExp	0	175	2	6	0	distractor	1	467	767	53462	13.328	13.301	13.355
DTProbeTrack03	12	ProbeTrackDT	1.1	SCS215a	20101124.091420	20101124.093159	dt-generate	8	0.013328	60	10	60-180	60	175	GapExp	0	176	2	6	0	distractor	1	480	760	54222	13.328	13.001	13.639
DTProbeTrack03	12	ProbeTrackDT	1.1	SCS215a	20101124.091420	20101124.093205	dt-generate	8	0.013328	60	10	60-180	60	174	GapExp	0	177	2	3	1	target	1	534	733	54955	13.328	13.048	13.620
DTProbeTrack03	12	ProbeTrackDT	1.1	SCS215a	20101124.091420	20101124.093211	dt-generate	8	0.013328	60	10	60-180	60	161	GapExp	0	178	2	3	0	distractor	1	454	773	55728	13.375	13.098	26.640
DTProbeTrack03	12	ProbeTrackDT	1.1	SCS215a	20101124.091420	20101124.093217	dt-generate	8	0.013328	60	10	60-180	60	176	GapExp	0	179	2	6	0	distractor	1	387	807	56535	13.328	12.869	13.776
DTProbeTrack03	12	ProbeTrackDT	1.1	SCS215a	20101124.091420	20101124.093223	dt-generate	8	0.013328	60	10	60-180	60	86	GapExp	0	180	2	1	1	target	1	480	760	57295	13.328	13.292	13.351
DTProbeTrack03	12	ProbeTrackDT	1.1	SCS215a	20101124.091420	20101124.093228	dt-generate	8	0.013328	60	10	60-180	60	76	GapExp	0	181	2	1	0	target	0	600	-1000	56295	13.328	13.294	13.345
DTProbeTrack03	12	ProbeTrackDT	1.1	SCS215a	20101124.091420	20101124.093233	dt-generate	8	0.013328	60	10	60-180	60	140	GapExp	0	182	2	6	0	distractor	1	520	740	57035	13.328	13.305	13.346
DTProbeTrack03	12	ProbeTrackDT	1.1	SCS215a	20101124.091420	20101124.093239	dt-generate	8	0.013328	60	10	60-180	60	72	GapExp	0	183	2	3	0	target	0	454	-1000	56035	13.328	13.103	13.558
DTProbeTrack03	12	ProbeTrackDT	1.1	SCS215a	20101124.091420	20101124.093244	dt-generate	8	0.013328	60	10	60-180	60	94	GapExp	0	184	2	6	1	target	1	454	773	56808	13.328	13.106	13.555
DTProbeTrack03	12	ProbeTrackDT	1.1	SCS215a	20101124.091420	20101124.093249	dt-generate	8	0.013328	60	10	60-180	60	62	GapExp	0	185	2	3	1	target	1	613	694	57502	13.328	13.266	13.393
DTProbeTrack03	12	ProbeTrackDT	1.1	SCS215a	20101124.091420	20101124.093254	dt-generate	8	0.013328	60	10	60-180	60	135	GapExp	0	186	2	1	0	distractor	1	107	947	58449	13.328	12.980	13.679
DTProbeTrack03	12	ProbeTrackDT	1.1	SCS215a	20101124.091420	20101124.093300	dt-generate	8	0.013328	60	10	60-180	60	69	GapExp	0	187	2	9	0	distractor	1	574	713	59162	13.328	13.098	13.562
DTProbeTrack03	12	ProbeTrackDT	1.1	SCS215a	20101124.091420	20101124.093305	dt-generate	8	0.013328	60	10	60-180	60	68	GapExp	0	188	2	6	0	distractor	1	467	767	59929	13.328	12.926	13.721
DTProbeTrack03	12	ProbeTrackDT	1.1	SCS215a	20101124.091420	20101124.093309	dt-generate	8	0.013328	60	10	60-180	60	68	GapExp	0	189	2	6	1	distractor	0	374	-1000	58929	13.328	13.068	13.576
DTProbeTrack03	12	ProbeTrackDT	1.1	SCS215a	20101124.091420	20101124.093314	dt-generate	8	0.013328	60	10	60-180	60	166	GapExp	0	190	2	1	1	target	1	627	687	59616	13.328	12.996	13.668
DTProbeTrack03	12	ProbeTrackDT	1.1	SCS215a	20101124.091420	20101124.093320	dt-generate	8	0.013328	60	10	60-180	60	117	GapExp	0	191	2	6	1	target	1	374	813	60429	13.776	13.020	120.088
DTProbeTrack03	12	ProbeTrackDT	1.1	SCS215a	20101124.091420	20101124.093326	dt-generate	8	0.013328	60	10	60-180	60	119	GapExp	0	192	2	9	1	target	1	374	813	61242	13.328	13.298	13.353
DTProbeTrack03	12	ProbeTrackDT	1.1	SCS215a	20101124.091420	20101124.093331	dt-generate	8	0.013328	60	10	60-180	60	137	GapExp	0	193	2	45	1	target	1	907	547	61789	13.328	12.970	13.702
DTProbeTrack03	12	ProbeTrackDT	1.1	SCS215a	20101124.091420	20101124.093338	dt-generate	8	0.013328	60	10	60-180	60	108	GapExp	0	194	2	45	0	target	0	627	-1000	60789	13.374	12.842	26.638
DTProbeTrack03	12	ProbeTrackDT	1.1	SCS215a	20101124.091420	20101124.093344	dt-generate	8	0.013328	60	10	60-180	60	160	GapExp	0	195	2	6	1	target	1	347	827	61616	13.328	13.074	13.586
DTProbeTrack03	12	ProbeTrackDT	1.1	SCS215a	20101124.091420	20101124.093350	dt-generate	8	0.013328	60	10	60-180	60	150	GapExp	0	196	2	1	1	target	1	400	800	62416	13.328	12.882	13.767
DTProbeTrack03	12	ProbeTrackDT	1.1	SCS215a	20101124.091420	20101124.093356	dt-generate	8	0.013328	60	10	60-180	60	64	GapExp	0	197	2	45	1	target	1	374	813	63229	13.328	13.036	13.635
DTProbeTrack03	12	ProbeTrackDT	1.1	SCS215a	20101124.091420	20101124.093401	dt-generate	8	0.013328	60	10	60-180	60	143	GapExp	0	198	2	45	1	target	1	414	793	64022	13.328	12.965	13.686
DTProbeTrack03	12	ProbeTrackDT	1.1	SCS215a	20101124.091420	20101124.093408	dt-generate	8	0.013328	60	10	60-180	60	135	GapExp	0	199	2	9	1	distractor	0	-13	-1000	63022	13.328	13.116	13.544
DTProbeTrack03	12	ProbeTrackDT	1.1	SCS215a	20101124.091420	20101124.093413	dt-generate	8	0.013328	60	10	60-180	60	75	GapExp	0	200	2	6	1	target	1	400	800	63822	13.328	13.243	13.396
DTProbeTrack03	12	ProbeTrackDT	1.1	SCS215a	20101124.091420	20101124.093430	dt-generate	8	0.013328	60	10	60-180	60	115	GapExp	0	201	2	45	1	target	1	320	840	64662	13.328	12.852	13.809
DTProbeTrack03	12	ProbeTrackDT	1.1	SCS215a	20101124.091420	20101124.093436	dt-generate	8	0.013328	60	10	60-180	60	138	GapExp	0	202	2	1	0	distractor	1	400	800	65462	13.328	13.305	13.347
DTProbeTrack03	12	ProbeTrackDT	1.1	SCS215a	20101124.091420	20101124.093441	dt-generate	8	0.013328	60	10	60-180	60	172	GapExp	0	203	2	3	0	target	0	653	-1000	64462	13.328	12.912	13.742
DTProbeTrack03	12	ProbeTrackDT	1.1	SCS215a	20101124.091420	20101124.093448	dt-generate	8	0.013328	60	10	60-180	60	85	GapExp	0	204	2	9	0	distractor	1	467	767	65229	13.328	13.304	13.358
DTProbeTrack03	12	ProbeTrackDT	1.1	SCS215a	20101124.091420	20101124.093453	dt-generate	8	0.013328	60	10	60-180	60	67	GapExp	0	205	2	45	1	target	1	1360	320	65549	13.328	12.893	13.766
DTProbeTrack03	12	ProbeTrackDT	1.1	SCS215a	20101124.093557	20101124.093602	dt-shadow	8	0.013328	60	10	60-180	60	130	GapPrac	1	1	2	45	1	target	1	853	574	66123	13.411	13.307	39.976
DTProbeTrack03	12	ProbeTrackDT	1.1	SCS215a	20101124.093557	20101124.093609	dt-shadow	8	0.013328	60	10	60-180	60	68	GapPrac	1	2	2	45	0	target	0	1027	-1000	65123	13.431	12.866	26.971
DTProbeTrack03	12	ProbeTrackDT	1.1	SCS215a	20101124.093557	20101124.093615	dt-shadow	8	0.013328	60	10	60-180	60	73	GapPrac	1	3	2	6	1	target	1	440	780	65903	13.328	13.020	13.646
DTProbeTrack03	12	ProbeTrackDT	1.1	SCS215a	20101124.093557	20101124.093620	dt-shadow	8	0.013328	60	10	60-180	60	178	GapPrac	1	4	2	9	0	distractor	1	613	694	66597	13.328	13.098	13.554
DTProbeTrack03	12	ProbeTrackDT	1.1	SCS215a	20101124.093557	20101124.093626	dt-shadow	8	0.013328	60	10	60-180	60	140	GapPrac	1	5	2	1	0	distractor	1	534	733	67330	13.328	13.269	13.390
DTProbeTrack03	12	ProbeTrackDT	1.1	SCS215a	20101124.093557	20101124.093632	dt-shadow	8	0.013328	60	10	60-180	60	139	GapPrac	1	6	2	9	0	distractor	1	800	600	67930	13.328	12.917	13.741
DTProbeTrack03	12	ProbeTrackDT	1.1	SCS215a	20101124.093557	20101124.093639	dt-shadow	8	0.013328	60	10	60-180	60	129	GapPrac	1	7	2	1	1	target	1	427	787	68717	13.328	13.043	13.611
DTProbeTrack03	12	ProbeTrackDT	1.1	SCS215a	20101124.093557	20101124.093644	dt-shadow	8	0.013328	60	10	60-180	60	179	GapPrac	1	8	2	3	0	distractor	1	454	773	69490	13.328	13.102	13.561
DTProbeTrack03	12	ProbeTrackDT	1.1	SCS215a	20101124.093557	20101124.093650	dt-shadow	8	0.013328	60	10	60-180	60	126	GapPrac	1	9	2	45	0	distractor	1	653	674	70164	13.328	13.305	13.352
DTProbeTrack03	12	ProbeTrackDT	1.1	SCS215a	20101124.093557	20101124.093657	dt-shadow	8	0.013328	60	10	60-180	60	64	GapPrac	1	10	2	6	0	target	0	547	-1000	69164	13.328	12.980	13.686
DTProbeTrack03	12	ProbeTrackDT	1.1	SCS215a	20101124.093557	20101124.093702	dt-shadow	8	0.013328	60	10	60-180	60	118	GapPrac	1	11	2	1	0	target	0	787	-1000	68164	13.328	13.060	13.599
DTProbeTrack03	12	ProbeTrackDT	1.1	SCS215a	20101124.093557	20101124.093707	dt-shadow	8	0.013328	60	10	60-180	60	144	GapPrac	1	12	2	9	1	target	1	454	773	68937	13.328	12.996	13.667
DTProbeTrack03	12	ProbeTrackDT	1.1	SCS215a	20101124.093557	20101124.093713	dt-shadow	8	0.013328	60	10	60-180	60	170	GapPrac	1	13	2	9	1	target	1	374	813	69750	13.328	12.883	13.784
DTProbeTrack03	12	ProbeTrackDT	1.1	SCS215a	20101124.093557	20101124.093720	dt-shadow	8	0.013328	60	10	60-180	60	91	GapPrac	1	14	2	1	1	target	1	414	793	70543	13.328	12.959	13.700
DTProbeTrack03	12	ProbeTrackDT	1.1	SCS215a	20101124.093557	20101124.093725	dt-shadow	8	0.013328	60	10	60-180	60	71	GapPrac	1	15	2	3	0	distractor	1	574	713	71256	13.330	13.044	13.732
DTProbeTrack03	12	ProbeTrackDT	1.1	SCS215a	20101124.093557	20101124.093730	dt-shadow	8	0.013328	60	10	60-180	60	116	GapPrac	1	16	2	3	1	target	1	400	800	72056	13.328	12.870	13.770
DTProbeTrack03	12	ProbeTrackDT	1.1	SCS215a	20101124.093557	20101124.093735	dt-shadow	8	0.013328	60	10	60-180	60	137	GapPrac	1	17	2	45	1	target	1	440	780	72836	13.328	13.306	13.356
DTProbeTrack03	12	ProbeTrackDT	1.1	SCS215a	20101124.093557	20101124.093741	dt-shadow	8	0.013328	60	10	60-180	60	149	GapPrac	1	18	2	3	1	target	1	680	660	73496	13.328	13.004	13.654
DTProbeTrack03	12	ProbeTrackDT	1.1	SCS215a	20101124.093557	20101124.093747	dt-shadow	8	0.013328	60	10	60-180	60	151	GapPrac	1	19	2	6	1	target	1	587	707	74203	13.328	13.064	13.595
DTProbeTrack03	12	ProbeTrackDT	1.1	SCS215a	20101124.093557	20101124.093753	dt-shadow	8	0.013328	60	10	60-180	60	122	GapPrac	1	20	2	6	0	distractor	1	507	747	74950	13.328	12.907	13.751
DTProbeTrack03	12	ProbeTrackDT	1.1	SCS215a	20101124.093831	20101124.093836	dt-shadow	8	0.013328	60	10	60-180	60	76	GapExp	1	1	2	45	0	target	0	400	-1000	73950	13.328	13.099	13.563
DTProbeTrack03	12	ProbeTrackDT	1.1	SCS215a	20101124.093831	20101124.093842	dt-shadow	8	0.013328	60	10	60-180	60	76	GapExp	1	2	2	6	0	distractor	1	667	667	74617	13.328	13.088	13.571
DTProbeTrack03	12	ProbeTrackDT	1.1	SCS215a	20101124.093831	20101124.093847	dt-shadow	8	0.013328	60	10	60-180	60	89	GapExp	1	3	2	45	1	target	1	347	827	75444	13.328	12.857	13.804
DTProbeTrack03	12	ProbeTrackDT	1.1	SCS215a	20101124.093831	20101124.093852	dt-shadow	8	0.013328	60	10	60-180	60	83	GapExp	1	4	2	3	0	distractor	1	600	700	76144	13.328	12.899	13.770
DTProbeTrack03	12	ProbeTrackDT	1.1	SCS215a	20101124.093831	20101124.093858	dt-shadow	8	0.013328	60	10	60-180	60	72	GapExp	1	5	2	9	0	distractor	1	440	780	76924	13.328	12.893	13.762
DTProbeTrack03	12	ProbeTrackDT	1.1	SCS215a	20101124.093831	20101124.093902	dt-shadow	8	0.013328	60	10	60-180	60	149	GapExp	0	6	2	45	0	target	0	347	-1000	75924	13.328	13.236	13.408
DTProbeTrack03	12	ProbeTrackDT	1.1	SCS215a	20101124.093831	20101124.093909	dt-shadow	8	0.013328	60	10	60-180	60	63	GapExp	0	7	2	45	0	distractor	1	507	747	76671	13.328	12.845	13.806
DTProbeTrack03	12	ProbeTrackDT	1.1	SCS215a	20101124.093831	20101124.093914	dt-shadow	8	0.013328	60	10	60-180	60	71	GapExp	0	8	2	9	1	target	1	400	800	77471	13.328	13.298	13.356
DTProbeTrack03	12	ProbeTrackDT	1.1	SCS215a	20101124.093831	20101124.093919	dt-shadow	8	0.013328	60	10	60-180	60	91	GapExp	0	9	2	9	0	target	0	360	-1000	76471	13.328	12.981	13.674
DTProbeTrack03	12	ProbeTrackDT	1.1	SCS215a	20101124.093831	20101124.093924	dt-shadow	8	0.013328	60	10	60-180	60	100	GapExp	0	10	2	45	0	distractor	1	454	773	77244	13.328	12.854	13.806
DTProbeTrack03	12	ProbeTrackDT	1.1	SCS215a	20101124.093831	20101124.093930	dt-shadow	8	0.013328	60	10	60-180	60	117	GapExp	0	11	2	6	1	target	1	14	993	78237	13.328	13.118	13.556
DTProbeTrack03	12	ProbeTrackDT	1.1	SCS215a	20101124.093831	20101124.093935	dt-shadow	8	0.013328	60	10	60-180	60	154	GapExp	0	12	2	45	0	target	0	680	-1000	77237	13.328	13.308	13.347
DTProbeTrack03	12	ProbeTrackDT	1.1	SCS215a	20101124.093831	20101124.093942	dt-shadow	8	0.013328	60	10	60-180	60	73	GapExp	0	13	2	45	0	distractor	1	600	700	77937	13.328	13.048	13.621
DTProbeTrack03	12	ProbeTrackDT	1.1	SCS215a	20101124.093831	20101124.093947	dt-shadow	8	0.013328	60	10	60-180	60	83	GapExp	0	14	2	1	1	distractor	0	600	-1000	76937	13.328	13.067	13.604
DTProbeTrack03	12	ProbeTrackDT	1.1	SCS215a	20101124.093831	20101124.093952	dt-shadow	8	0.013328	60	10	60-180	60	169	GapExp	0	15	2	9	1	target	1	427	787	77724	13.328	12.901	13.749
DTProbeTrack03	12	ProbeTrackDT	1.1	SCS215a	20101124.093831	20101124.093959	dt-shadow	8	0.013328	60	10	60-180	60	102	GapExp	0	16	2	45	1	target	1	560	720	78444	13.328	13.113	13.548
DTProbeTrack03	12	ProbeTrackDT	1.1	SCS215a	20101124.093831	20101124.094005	dt-shadow	8	0.013328	60	10	60-180	60	171	GapExp	0	17	2	9	0	target	0	334	-1000	77444	13.328	12.900	13.744
DTProbeTrack03	12	ProbeTrackDT	1.1	SCS215a	20101124.093831	20101124.094011	dt-shadow	8	0.013328	60	10	60-180	60	144	GapExp	0	18	2	3	1	target	1	400	800	78244	13.328	12.908	13.743
DTProbeTrack03	12	ProbeTrackDT	1.1	SCS215a	20101124.093831	20101124.094016	dt-shadow	8	0.013328	60	10	60-180	60	96	GapExp	0	19	2	6	1	target	1	400	800	79044	13.328	13.304	13.348
DTProbeTrack03	12	ProbeTrackDT	1.1	SCS215a	20101124.093831	20101124.094022	dt-shadow	8	0.013328	60	10	60-180	60	180	GapExp	0	20	2	1	0	distractor	1	494	753	79797	13.328	13.087	13.553
DTProbeTrack03	12	ProbeTrackDT	1.1	SCS215a	20101124.093831	20101124.094028	dt-shadow	8	0.013328	60	10	60-180	60	130	GapExp	0	21	2	3	1	target	1	454	773	80570	13.328	12.885	13.751
DTProbeTrack03	12	ProbeTrackDT	1.1	SCS215a	20101124.093831	20101124.094034	dt-shadow	8	0.013328	60	10	60-180	60	156	GapExp	0	22	2	1	0	distractor	1	534	733	81303	13.328	13.097	13.570
DTProbeTrack03	12	ProbeTrackDT	1.1	SCS215a	20101124.093831	20101124.094040	dt-shadow	8	0.013328	60	10	60-180	60	94	GapExp	0	23	2	6	0	distractor	1	520	740	82043	13.328	13.072	13.595
DTProbeTrack03	12	ProbeTrackDT	1.1	SCS215a	20101124.093831	20101124.094045	dt-shadow	8	0.013328	60	10	60-180	60	111	GapExp	0	24	2	3	0	distractor	1	494	753	82796	13.328	13.307	13.345
DTProbeTrack03	12	ProbeTrackDT	1.1	SCS215a	20101124.093831	20101124.094050	dt-shadow	8	0.013328	60	10	60-180	60	143	GapExp	0	25	2	6	1	target	1	360	820	83616	13.328	13.001	13.646
DTProbeTrack03	12	ProbeTrackDT	1.1	SCS215a	20101124.093831	20101124.094056	dt-shadow	8	0.013328	60	10	60-180	60	111	GapExp	0	26	2	9	0	distractor	1	614	693	84309	13.328	12.883	13.775
DTProbeTrack03	12	ProbeTrackDT	1.1	SCS215a	20101124.093831	20101124.094102	dt-shadow	8	0.013328	60	10	60-180	60	103	GapExp	0	27	2	6	0	distractor	1	507	747	85056	13.328	13.106	13.559
DTProbeTrack03	12	ProbeTrackDT	1.1	SCS215a	20101124.093831	20101124.094107	dt-shadow	8	0.013328	60	10	60-180	60	118	GapExp	0	28	2	3	1	target	1	480	760	85816	13.328	12.954	13.705
DTProbeTrack03	12	ProbeTrackDT	1.1	SCS215a	20101124.093831	20101124.094113	dt-shadow	8	0.013328	60	10	60-180	60	122	GapExp	0	29	2	9	1	distractor	0	400	-1000	84816	13.328	13.309	13.349
DTProbeTrack03	12	ProbeTrackDT	1.1	SCS215a	20101124.093831	20101124.094118	dt-shadow	8	0.013328	60	10	60-180	60	139	GapExp	0	30	2	45	1	target	1	414	793	85609	13.328	12.888	13.763
DTProbeTrack03	12	ProbeTrackDT	1.1	SCS215a	20101124.093831	20101124.094124	dt-shadow	8	0.013328	60	10	60-180	60	90	GapExp	0	31	2	45	0	distractor	1	454	773	86382	13.328	12.892	13.757
DTProbeTrack03	12	ProbeTrackDT	1.1	SCS215a	20101124.093831	20101124.094130	dt-shadow	8	0.013328	60	10	60-180	60	178	GapExp	0	32	2	6	0	distractor	1	480	760	87142	13.328	12.890	13.764
DTProbeTrack03	12	ProbeTrackDT	1.1	SCS215a	20101124.093831	20101124.094136	dt-shadow	8	0.013328	60	10	60-180	60	97	GapExp	0	33	2	1	1	target	1	414	793	87935	13.328	13.098	13.559
DTProbeTrack03	12	ProbeTrackDT	1.1	SCS215a	20101124.093831	20101124.094142	dt-shadow	8	0.013328	60	10	60-180	60	115	GapExp	0	34	2	6	1	target	1	667	667	88602	13.328	13.301	13.359
DTProbeTrack03	12	ProbeTrackDT	1.1	SCS215a	20101124.093831	20101124.094147	dt-shadow	8	0.013328	60	10	60-180	60	136	GapExp	0	35	2	3	0	distractor	1	440	780	89382	13.328	13.012	13.650
DTProbeTrack03	12	ProbeTrackDT	1.1	SCS215a	20101124.093831	20101124.094153	dt-shadow	8	0.013328	60	10	60-180	60	139	GapExp	0	36	2	1	0	distractor	1	480	760	90142	13.328	12.880	13.791
DTProbeTrack03	12	ProbeTrackDT	1.1	SCS215a	20101124.093831	20101124.094159	dt-shadow	8	0.013328	60	10	60-180	60	123	GapExp	0	37	2	9	1	target	1	440	780	90922	13.328	13.109	13.562
DTProbeTrack03	12	ProbeTrackDT	1.1	SCS215a	20101124.093831	20101124.094204	dt-shadow	8	0.013328	60	10	60-180	60	77	GapExp	0	38	2	1	1	target	1	560	720	91642	13.328	12.853	13.803
DTProbeTrack03	12	ProbeTrackDT	1.1	SCS215a	20101124.093831	20101124.094209	dt-shadow	8	0.013328	60	10	60-180	60	155	GapExp	0	39	2	6	1	target	1	400	800	92442	13.328	12.891	13.774
DTProbeTrack03	12	ProbeTrackDT	1.1	SCS215a	20101124.093831	20101124.094215	dt-shadow	8	0.013328	60	10	60-180	60	122	GapExp	0	40	2	45	0	distractor	1	574	713	93155	13.328	13.047	13.612
DTProbeTrack03	12	ProbeTrackDT	1.1	SCS215a	20101124.093831	20101124.094221	dt-shadow	8	0.013328	60	10	60-180	60	136	GapExp	0	41	2	6	0	distractor	1	760	620	93775	13.328	12.872	13.781
DTProbeTrack03	12	ProbeTrackDT	1.1	SCS215a	20101124.093831	20101124.094228	dt-shadow	8	0.013328	60	10	60-180	60	170	GapExp	0	42	2	45	1	target	1	414	793	94568	13.328	13.309	13.344
DTProbeTrack03	12	ProbeTrackDT	1.1	SCS215a	20101124.093831	20101124.094234	dt-shadow	8	0.013328	60	10	60-180	60	163	GapExp	0	43	2	6	0	target	0	427	-1000	93568	13.328	13.109	13.545
DTProbeTrack03	12	ProbeTrackDT	1.1	SCS215a	20101124.093831	20101124.094240	dt-shadow	8	0.013328	60	10	60-180	60	170	GapExp	0	44	2	9	1	target	1	334	833	94401	13.328	13.113	13.542
DTProbeTrack03	12	ProbeTrackDT	1.1	SCS215a	20101124.093831	20101124.094246	dt-shadow	8	0.013328	60	10	60-180	60	161	GapExp	0	45	2	1	0	distractor	1	494	753	95154	13.328	13.096	13.565
DTProbeTrack03	12	ProbeTrackDT	1.1	SCS215a	20101124.093831	20101124.094253	dt-shadow	8	0.013328	60	10	60-180	60	157	GapExp	0	46	2	6	1	target	1	454	773	95927	13.328	13.310	13.347
DTProbeTrack03	12	ProbeTrackDT	1.1	SCS215a	20101124.093831	20101124.094259	dt-shadow	8	0.013328	60	10	60-180	60	132	GapExp	0	47	2	45	0	distractor	1	467	767	96694	13.505	12.862	66.608
DTProbeTrack03	12	ProbeTrackDT	1.1	SCS215a	20101124.093831	20101124.094305	dt-shadow	8	0.013328	60	10	60-180	60	156	GapExp	0	48	2	6	1	target	1	360	820	97514	13.328	12.924	13.748
DTProbeTrack03	12	ProbeTrackDT	1.1	SCS215a	20101124.093831	20101124.094311	dt-shadow	8	0.013328	60	10	60-180	60	75	GapExp	0	49	2	45	0	distractor	1	574	713	98227	13.328	13.304	13.350
DTProbeTrack03	12	ProbeTrackDT	1.1	SCS215a	20101124.093831	20101124.094316	dt-shadow	8	0.013328	60	10	60-180	60	71	GapExp	0	50	2	6	1	target	1	534	733	98960	13.328	12.880	13.773
DTProbeTrack03	12	ProbeTrackDT	1.1	SCS215a	20101124.093831	20101124.094327	dt-shadow	8	0.013328	60	10	60-180	60	135	GapExp	0	51	2	9	0	distractor	1	387	807	99767	13.328	12.908	13.743
DTProbeTrack03	12	ProbeTrackDT	1.1	SCS215a	20101124.093831	20101124.094333	dt-shadow	8	0.013328	60	10	60-180	60	141	GapExp	0	52	2	3	1	target	1	307	847	100614	13.327	13.235	13.348
DTProbeTrack03	12	ProbeTrackDT	1.1	SCS215a	20101124.093831	20101124.094338	dt-shadow	8	0.013328	60	10	60-180	60	130	GapExp	0	53	2	45	0	target	0	427	-1000	99614	13.328	13.069	13.578
DTProbeTrack03	12	ProbeTrackDT	1.1	SCS215a	20101124.093831	20101124.094344	dt-shadow	8	0.013328	60	10	60-180	60	150	GapExp	0	54	2	45	1	distractor	0	494	-1000	98614	13.328	12.984	13.668
DTProbeTrack03	12	ProbeTrackDT	1.1	SCS215a	20101124.093831	20101124.094351	dt-shadow	8	0.013328	60	10	60-180	60	178	GapExp	0	55	2	9	0	distractor	1	467	767	99381	13.328	12.890	13.769
DTProbeTrack03	12	ProbeTrackDT	1.1	SCS215a	20101124.093831	20101124.094357	dt-shadow	8	0.013328	60	10	60-180	60	102	GapExp	0	56	2	3	0	target	0	334	-1000	98381	13.328	12.889	13.767
DTProbeTrack03	12	ProbeTrackDT	1.1	SCS215a	20101124.093831	20101124.094402	dt-shadow	8	0.013328	60	10	60-180	60	128	GapExp	0	57	2	1	0	target	0	374	-1000	97381	13.328	13.087	13.571
DTProbeTrack03	12	ProbeTrackDT	1.1	SCS215a	20101124.093831	20101124.094408	dt-shadow	8	0.013328	60	10	60-180	60	139	GapExp	0	58	2	45	0	distractor	1	587	707	98088	13.328	12.871	13.784
DTProbeTrack03	12	ProbeTrackDT	1.1	SCS215a	20101124.093831	20101124.094414	dt-shadow	8	0.013328	60	10	60-180	60	155	GapExp	0	59	2	6	1	target	1	427	787	98875	13.328	13.309	13.349
DTProbeTrack03	12	ProbeTrackDT	1.1	SCS215a	20101124.093831	20101124.094420	dt-shadow	8	0.013328	60	10	60-180	60	160	GapExp	0	60	2	3	0	target	0	320	-1000	97875	13.328	13.055	13.603
DTProbeTrack03	12	ProbeTrackDT	1.1	SCS215a	20101124.093831	20101124.094426	dt-shadow	8	0.013328	60	10	60-180	60	156	GapExp	0	61	2	9	1	target	1	520	740	98615	13.328	13.087	13.564
DTProbeTrack03	12	ProbeTrackDT	1.1	SCS215a	20101124.093831	20101124.094432	dt-shadow	8	0.013328	60	10	60-180	60	160	GapExp	0	62	2	6	0	distractor	1	427	787	99402	13.328	12.942	13.717
DTProbeTrack03	12	ProbeTrackDT	1.1	SCS215a	20101124.093831	20101124.094439	dt-shadow	8	0.013328	60	10	60-180	60	171	GapExp	0	63	2	9	0	target	0	240	-1000	98402	13.328	13.307	13.347
DTProbeTrack03	12	ProbeTrackDT	1.1	SCS215a	20101124.093831	20101124.094445	dt-shadow	8	0.013328	60	10	60-180	60	64	GapExp	0	64	2	3	0	distractor	1	427	787	99189	13.328	12.895	13.776
DTProbeTrack03	12	ProbeTrackDT	1.1	SCS215a	20101124.093831	20101124.094449	dt-shadow	8	0.013328	60	10	60-180	60	73	GapExp	0	65	2	6	0	target	0	680	-1000	98189	13.328	12.872	13.774
DTProbeTrack03	12	ProbeTrackDT	1.1	SCS215a	20101124.093831	20101124.094454	dt-shadow	8	0.013328	60	10	60-180	60	95	GapExp	0	66	2	9	0	target	0	307	-1000	97189	13.328	12.934	13.726
DTProbeTrack03	12	ProbeTrackDT	1.1	SCS215a	20101124.093831	20101124.094500	dt-shadow	8	0.013328	60	10	60-180	60	169	GapExp	0	67	2	1	1	target	1	320	840	98029	13.328	13.099	13.568
DTProbeTrack03	12	ProbeTrackDT	1.1	SCS215a	20101124.093831	20101124.094506	dt-shadow	8	0.013328	60	10	60-180	60	160	GapExp	0	68	2	9	1	target	1	347	827	98856	13.328	13.012	13.640
DTProbeTrack03	12	ProbeTrackDT	1.1	SCS215a	20101124.093831	20101124.094512	dt-shadow	8	0.013328	60	10	60-180	60	71	GapExp	0	69	2	1	1	target	1	387	807	99663	13.328	12.953	13.699
DTProbeTrack03	12	ProbeTrackDT	1.1	SCS215a	20101124.093831	20101124.094516	dt-shadow	8	0.013328	60	10	60-180	60	124	GapExp	0	70	2	3	1	target	1	320	840	100503	13.328	12.881	13.778
DTProbeTrack03	12	ProbeTrackDT	1.1	SCS215a	20101124.093831	20101124.094522	dt-shadow	8	0.013328	60	10	60-180	60	66	GapExp	0	71	2	3	1	target	1	267	867	101370	13.328	13.090	13.567
DTProbeTrack03	12	ProbeTrackDT	1.1	SCS215a	20101124.093831	20101124.094526	dt-shadow	8	0.013328	60	10	60-180	60	137	GapExp	0	72	2	1	1	target	1	307	847	102217	13.328	13.106	13.562
DTProbeTrack03	12	ProbeTrackDT	1.1	SCS215a	20101124.093831	20101124.094532	dt-shadow	8	0.013328	60	10	60-180	60	155	GapExp	0	73	2	9	0	distractor	1	547	727	102944	13.328	13.019	13.637
DTProbeTrack03	12	ProbeTrackDT	1.1	SCS215a	20101124.093831	20101124.094538	dt-shadow	8	0.013328	60	10	60-180	60	116	GapExp	0	74	2	3	0	distractor	1	547	727	103671	13.328	13.292	13.367
DTProbeTrack03	12	ProbeTrackDT	1.1	SCS215a	20101124.093831	20101124.094544	dt-shadow	8	0.013328	60	10	60-180	60	81	GapExp	0	75	2	1	0	distractor	1	520	740	104411	13.328	13.123	13.528
DTProbeTrack03	12	ProbeTrackDT	1.1	SCS215a	20101124.093831	20101124.094549	dt-shadow	8	0.013328	60	10	60-180	60	86	GapExp	0	76	2	45	1	target	1	414	793	105204	13.328	12.883	13.770
DTProbeTrack03	12	ProbeTrackDT	1.1	SCS215a	20101124.093831	20101124.094554	dt-shadow	8	0.013328	60	10	60-180	60	133	GapExp	0	77	2	3	1	distractor	0	467	-1000	104204	13.328	12.846	13.807
DTProbeTrack03	12	ProbeTrackDT	1.1	SCS215a	20101124.093831	20101124.094600	dt-shadow	8	0.013328	60	10	60-180	60	96	GapExp	0	78	2	1	1	target	1	320	840	105044	13.328	12.968	13.698
DTProbeTrack03	12	ProbeTrackDT	1.1	SCS215a	20101124.093831	20101124.094605	dt-shadow	8	0.013328	60	10	60-180	60	170	GapExp	0	79	2	3	1	target	1	280	860	105904	13.328	12.892	13.756
DTProbeTrack03	12	ProbeTrackDT	1.1	SCS215a	20101124.093831	20101124.094611	dt-shadow	8	0.013328	60	10	60-180	60	180	GapExp	0	80	2	3	1	target	1	414	793	106697	13.328	13.011	13.649
DTProbeTrack03	12	ProbeTrackDT	1.1	SCS215a	20101124.093831	20101124.094617	dt-shadow	8	0.013328	60	10	60-180	60	157	GapExp	0	81	2	1	1	target	1	294	853	107550	13.328	13.195	13.475
DTProbeTrack03	12	ProbeTrackDT	1.1	SCS215a	20101124.093831	20101124.094623	dt-shadow	8	0.013328	60	10	60-180	60	78	GapExp	0	82	2	45	0	distractor	1	507	747	108297	13.328	13.106	13.563
DTProbeTrack03	12	ProbeTrackDT	1.1	SCS215a	20101124.093831	20101124.094629	dt-shadow	8	0.013328	60	10	60-180	60	101	GapExp	0	83	2	6	0	distractor	1	440	780	109077	13.328	13.303	13.354
DTProbeTrack03	12	ProbeTrackDT	1.1	SCS215a	20101124.093831	20101124.094634	dt-shadow	8	0.013328	60	10	60-180	60	95	GapExp	0	84	2	9	1	target	1	454	773	109850	13.328	12.850	13.814
DTProbeTrack03	12	ProbeTrackDT	1.1	SCS215a	20101124.093831	20101124.094639	dt-shadow	8	0.013328	60	10	60-180	60	148	GapExp	0	85	2	3	1	target	1	307	847	110697	13.328	12.823	13.838
DTProbeTrack03	12	ProbeTrackDT	1.1	SCS215a	20101124.093831	20101124.094645	dt-shadow	8	0.013328	60	10	60-180	60	93	GapExp	0	86	2	3	0	distractor	1	653	674	111371	13.328	13.099	13.559
DTProbeTrack03	12	ProbeTrackDT	1.1	SCS215a	20101124.093831	20101124.094650	dt-shadow	8	0.013328	60	10	60-180	60	102	GapExp	0	87	2	3	0	target	0	414	-1000	110371	13.328	13.004	13.660
DTProbeTrack03	12	ProbeTrackDT	1.1	SCS215a	20101124.093831	20101124.094655	dt-shadow	8	0.013328	60	10	60-180	60	67	GapExp	0	88	2	3	0	distractor	1	520	740	111111	13.328	13.309	13.345
DTProbeTrack03	12	ProbeTrackDT	1.1	SCS215a	20101124.093831	20101124.094700	dt-shadow	8	0.013328	60	10	60-180	60	154	GapExp	0	89	2	6	0	distractor	1	467	767	111878	13.328	12.937	13.717
DTProbeTrack03	12	ProbeTrackDT	1.1	SCS215a	20101124.093831	20101124.094706	dt-shadow	8	0.013328	60	10	60-180	60	127	GapExp	0	90	2	6	1	target	1	400	800	112678	13.328	12.991	13.669
DTProbeTrack03	12	ProbeTrackDT	1.1	SCS215a	20101124.093831	20101124.094712	dt-shadow	8	0.013328	60	10	60-180	60	86	GapExp	0	91	2	6	0	distractor	1	414	793	113471	13.328	13.097	13.561
DTProbeTrack03	12	ProbeTrackDT	1.1	SCS215a	20101124.093831	20101124.094717	dt-shadow	8	0.013328	60	10	60-180	60	158	GapExp	0	92	2	45	1	target	1	387	807	114278	13.328	13.050	13.596
DTProbeTrack03	12	ProbeTrackDT	1.1	SCS215a	20101124.093831	20101124.094723	dt-shadow	8	0.013328	60	10	60-180	60	175	GapExp	0	93	2	3	1	target	1	320	840	115118	13.328	13.309	13.345
DTProbeTrack03	12	ProbeTrackDT	1.1	SCS215a	20101124.093831	20101124.094730	dt-shadow	8	0.013328	60	10	60-180	60	76	GapExp	0	94	2	9	0	target	0	467	-1000	114118	13.328	12.850	13.802
DTProbeTrack03	12	ProbeTrackDT	1.1	SCS215a	20101124.093831	20101124.094734	dt-shadow	8	0.013328	60	10	60-180	60	67	GapExp	0	95	2	45	1	target	1	414	793	114911	13.328	12.856	13.810
DTProbeTrack03	12	ProbeTrackDT	1.1	SCS215a	20101124.093831	20101124.094740	dt-shadow	8	0.013328	60	10	60-180	60	61	GapExp	0	96	2	9	1	target	1	334	833	115744	13.328	13.307	13.352
DTProbeTrack03	12	ProbeTrackDT	1.1	SCS215a	20101124.093831	20101124.094744	dt-shadow	8	0.013328	60	10	60-180	60	166	GapExp	0	97	2	3	1	target	1	427	787	116531	13.328	13.295	13.352
DTProbeTrack03	12	ProbeTrackDT	1.1	SCS215a	20101124.093831	20101124.094751	dt-shadow	8	0.013328	60	10	60-180	60	141	GapExp	0	98	2	45	0	distractor	1	560	720	117251	13.328	12.870	13.783
DTProbeTrack03	12	ProbeTrackDT	1.1	SCS215a	20101124.093831	20101124.094757	dt-shadow	8	0.013328	60	10	60-180	60	94	GapExp	0	99	2	6	1	target	1	400	800	118051	13.328	12.960	13.704
DTProbeTrack03	12	ProbeTrackDT	1.1	SCS215a	20101124.093831	20101124.094802	dt-shadow	8	0.013328	60	10	60-180	60	104	GapExp	0	100	2	1	1	target	1	307	847	118898	13.328	13.092	13.561
DTProbeTrack03	12	ProbeTrackDT	1.1	SCS215a	20101124.093831	20101124.094811	dt-shadow	8	0.013328	60	10	60-180	60	135	GapExp	0	101	2	1	1	distractor	0	360	-1000	117898	13.328	13.306	13.348
DTProbeTrack03	12	ProbeTrackDT	1.1	SCS215a	20101124.093831	20101124.094817	dt-shadow	8	0.013328	60	10	60-180	60	144	GapExp	0	102	2	1	1	target	1	267	867	118765	13.328	13.105	13.543
DTProbeTrack03	12	ProbeTrackDT	1.1	SCS215a	20101124.093831	20101124.094822	dt-shadow	8	0.013328	60	10	60-180	60	166	GapExp	0	103	2	9	0	distractor	1	427	787	119552	13.328	13.108	13.561
DTProbeTrack03	12	ProbeTrackDT	1.1	SCS215a	20101124.093831	20101124.094829	dt-shadow	8	0.013328	60	10	60-180	60	110	GapExp	0	104	2	45	1	target	1	374	813	120365	13.328	12.863	13.783
DTProbeTrack03	12	ProbeTrackDT	1.1	SCS215a	20101124.093831	20101124.094835	dt-shadow	8	0.013328	60	10	60-180	60	160	GapExp	0	105	2	3	0	distractor	1	494	753	121118	13.328	12.854	13.800
DTProbeTrack03	12	ProbeTrackDT	1.1	SCS215a	20101124.093831	20101124.094841	dt-shadow	8	0.013328	60	10	60-180	60	64	GapExp	0	106	2	45	1	target	1	347	827	121945	13.328	12.910	13.752
DTProbeTrack03	12	ProbeTrackDT	1.1	SCS215a	20101124.093831	20101124.094846	dt-shadow	8	0.013328	60	10	60-180	60	84	GapExp	0	107	2	1	0	distractor	1	720	640	122585	13.328	13.285	13.375
DTProbeTrack03	12	ProbeTrackDT	1.1	SCS215a	20101124.093831	20101124.094851	dt-shadow	8	0.013328	60	10	60-180	60	130	GapExp	0	108	2	6	0	target	0	467	-1000	121585	13.328	13.190	13.561
DTProbeTrack03	12	ProbeTrackDT	1.1	SCS215a	20101124.093831	20101124.094857	dt-shadow	8	0.013328	60	10	60-180	60	75	GapExp	0	109	2	3	1	target	1	400	800	122385	13.328	13.303	13.357
DTProbeTrack03	12	ProbeTrackDT	1.1	SCS215a	20101124.093831	20101124.094902	dt-shadow	8	0.013328	60	10	60-180	60	88	GapExp	0	110	2	9	1	target	1	480	760	123145	13.328	13.069	13.585
DTProbeTrack03	12	ProbeTrackDT	1.1	SCS215a	20101124.093831	20101124.094907	dt-shadow	8	0.013328	60	10	60-180	60	111	GapExp	0	111	2	45	0	distractor	1	614	693	123838	13.328	12.904	13.754
DTProbeTrack03	12	ProbeTrackDT	1.1	SCS215a	20101124.093831	20101124.094913	dt-shadow	8	0.013328	60	10	60-180	60	176	GapExp	0	112	2	3	1	target	1	334	833	124671	13.328	12.845	13.796
DTProbeTrack03	12	ProbeTrackDT	1.1	SCS215a	20101124.093831	20101124.094919	dt-shadow	8	0.013328	60	10	60-180	60	78	GapExp	0	113	2	6	0	distractor	1	560	720	125391	13.328	12.980	13.679
DTProbeTrack03	12	ProbeTrackDT	1.1	SCS215a	20101124.093831	20101124.094924	dt-shadow	8	0.013328	60	10	60-180	60	64	GapExp	0	114	2	45	1	target	1	360	820	126211	13.328	12.995	13.663
DTProbeTrack03	12	ProbeTrackDT	1.1	SCS215a	20101124.093831	20101124.094929	dt-shadow	8	0.013328	60	10	60-180	60	122	GapExp	0	115	2	6	0	distractor	1	347	827	127038	13.328	12.889	13.767
DTProbeTrack03	12	ProbeTrackDT	1.1	SCS215a	20101124.093831	20101124.094935	dt-shadow	8	0.013328	60	10	60-180	60	112	GapExp	0	116	2	6	0	distractor	1	534	733	127771	13.328	12.997	13.670
DTProbeTrack03	12	ProbeTrackDT	1.1	SCS215a	20101124.093831	20101124.094940	dt-shadow	8	0.013328	60	10	60-180	60	176	GapExp	0	117	2	6	1	distractor	0	347	-1000	126771	13.328	12.877	13.768
DTProbeTrack03	12	ProbeTrackDT	1.1	SCS215a	20101124.093831	20101124.094946	dt-shadow	8	0.013328	60	10	60-180	60	134	GapExp	0	118	2	3	1	target	1	454	773	127544	13.328	13.102	13.562
DTProbeTrack03	12	ProbeTrackDT	1.1	SCS215a	20101124.093831	20101124.094952	dt-shadow	8	0.013328	60	10	60-180	60	180	GapExp	0	119	2	9	0	target	0	267	-1000	126544	13.328	13.113	13.557
DTProbeTrack03	12	ProbeTrackDT	1.1	SCS215a	20101124.093831	20101124.094958	dt-shadow	8	0.013328	60	10	60-180	60	80	GapExp	0	120	2	9	0	target	0	1653	-1000	125544	13.328	12.990	13.667
DTProbeTrack03	12	ProbeTrackDT	1.1	SCS215a	20101124.093831	20101124.095005	dt-shadow	8	0.013328	60	10	60-180	60	93	GapExp	0	121	2	6	1	target	1	387	807	126351	13.328	12.862	13.797
DTProbeTrack03	12	ProbeTrackDT	1.1	SCS215a	20101124.093831	20101124.095010	dt-shadow	8	0.013328	60	10	60-180	60	122	GapExp	0	122	2	9	0	distractor	1	600	700	127051	13.378	12.839	26.705
DTProbeTrack03	12	ProbeTrackDT	1.1	SCS215a	20101124.093831	20101124.095015	dt-shadow	8	0.013328	60	10	60-180	60	156	GapExp	0	123	2	6	1	target	1	360	820	127871	13.328	13.109	13.554
DTProbeTrack03	12	ProbeTrackDT	1.1	SCS215a	20101124.093831	20101124.095021	dt-shadow	8	0.013328	60	10	60-180	60	175	GapExp	0	124	2	6	1	target	1	400	800	128671	13.328	12.865	13.789
DTProbeTrack03	12	ProbeTrackDT	1.1	SCS215a	20101124.093831	20101124.095028	dt-shadow	8	0.013328	60	10	60-180	60	160	GapExp	0	125	2	3	0	target	0	294	-1000	127671	13.328	12.965	13.685
DTProbeTrack03	12	ProbeTrackDT	1.1	SCS215a	20101124.093831	20101124.095033	dt-shadow	8	0.013328	60	10	60-180	60	68	GapExp	0	126	2	9	1	target	1	520	740	128411	13.328	12.865	13.815
DTProbeTrack03	12	ProbeTrackDT	1.1	SCS215a	20101124.093831	20101124.095038	dt-shadow	8	0.013328	60	10	60-180	60	125	GapExp	0	127	2	1	0	distractor	1	494	753	129164	13.328	12.846	13.810
DTProbeTrack03	12	ProbeTrackDT	1.1	SCS215a	20101124.093831	20101124.095044	dt-shadow	8	0.013328	60	10	60-180	60	148	GapExp	0	128	2	45	1	target	1	467	767	129931	13.328	12.859	13.803
DTProbeTrack03	12	ProbeTrackDT	1.1	SCS215a	20101124.093831	20101124.095050	dt-shadow	8	0.013328	60	10	60-180	60	93	GapExp	0	129	2	6	1	target	1	454	773	130704	13.328	13.108	13.541
DTProbeTrack03	12	ProbeTrackDT	1.1	SCS215a	20101124.093831	20101124.095056	dt-shadow	8	0.013328	60	10	60-180	60	121	GapExp	0	130	2	1	1	target	1	307	847	131551	13.328	13.088	13.570
DTProbeTrack03	12	ProbeTrackDT	1.1	SCS215a	20101124.093831	20101124.095101	dt-shadow	8	0.013328	60	10	60-180	60	95	GapExp	0	131	2	3	1	target	1	307	847	132398	13.328	13.303	13.348
DTProbeTrack03	12	ProbeTrackDT	1.1	SCS215a	20101124.093831	20101124.095106	dt-shadow	8	0.013328	60	10	60-180	60	150	GapExp	0	132	2	9	1	target	1	320	840	133238	13.328	13.309	13.352
DTProbeTrack03	12	ProbeTrackDT	1.1	SCS215a	20101124.093831	20101124.095112	dt-shadow	8	0.013328	60	10	60-180	60	119	GapExp	0	133	2	1	1	target	1	347	827	134065	13.328	13.107	13.543
DTProbeTrack03	12	ProbeTrackDT	1.1	SCS215a	20101124.093831	20101124.095117	dt-shadow	8	0.013328	60	10	60-180	60	151	GapExp	0	134	2	1	0	target	0	334	-1000	133065	13.328	13.009	13.716
DTProbeTrack03	12	ProbeTrackDT	1.1	SCS215a	20101124.093831	20101124.095123	dt-shadow	8	0.013328	60	10	60-180	60	95	GapExp	0	135	2	3	0	distractor	1	574	713	133778	13.328	13.021	13.639
DTProbeTrack03	12	ProbeTrackDT	1.1	SCS215a	20101124.093831	20101124.095128	dt-shadow	8	0.013328	60	10	60-180	60	175	GapExp	0	136	2	6	1	target	1	334	833	134611	13.328	13.068	13.591
DTProbeTrack03	12	ProbeTrackDT	1.1	SCS215a	20101124.093831	20101124.095134	dt-shadow	8	0.013328	60	10	60-180	60	146	GapExp	0	137	2	1	1	target	1	347	827	135438	13.328	13.308	13.350
DTProbeTrack03	12	ProbeTrackDT	1.1	SCS215a	20101124.093831	20101124.095140	dt-shadow	8	0.013328	60	10	60-180	60	139	GapExp	0	138	2	9	1	target	1	334	833	136271	13.328	12.869	13.779
DTProbeTrack03	12	ProbeTrackDT	1.1	SCS215a	20101124.093831	20101124.095146	dt-shadow	8	0.013328	60	10	60-180	60	159	GapExp	0	139	2	3	0	distractor	1	494	753	137024	13.328	13.104	13.548
DTProbeTrack03	12	ProbeTrackDT	1.1	SCS215a	20101124.093831	20101124.095152	dt-shadow	8	0.013328	60	10	60-180	60	138	GapExp	0	140	2	9	1	target	1	320	840	137864	13.328	12.934	13.727
DTProbeTrack03	12	ProbeTrackDT	1.1	SCS215a	20101124.093831	20101124.095157	dt-shadow	8	0.013328	60	10	60-180	60	113	GapExp	0	141	2	1	0	distractor	1	534	733	138597	13.328	12.903	13.766
DTProbeTrack03	12	ProbeTrackDT	1.1	SCS215a	20101124.093831	20101124.095203	dt-shadow	8	0.013328	60	10	60-180	60	167	GapExp	0	142	2	45	0	distractor	1	494	753	139350	13.328	12.860	13.789
DTProbeTrack03	12	ProbeTrackDT	1.1	SCS215a	20101124.093831	20101124.095210	dt-shadow	8	0.013328	60	10	60-180	60	172	GapExp	0	143	2	3	0	distractor	1	454	773	140123	13.328	13.028	13.621
DTProbeTrack03	12	ProbeTrackDT	1.1	SCS215a	20101124.093831	20101124.095216	dt-shadow	8	0.013328	60	10	60-180	60	114	GapExp	0	144	2	1	0	target	0	547	-1000	139123	13.328	13.112	13.536
DTProbeTrack03	12	ProbeTrackDT	1.1	SCS215a	20101124.093831	20101124.095221	dt-shadow	8	0.013328	60	10	60-180	60	162	GapExp	0	145	2	9	1	target	1	374	813	139936	13.328	12.882	13.768
DTProbeTrack03	12	ProbeTrackDT	1.1	SCS215a	20101124.093831	20101124.095227	dt-shadow	8	0.013328	60	10	60-180	60	164	GapExp	0	146	2	45	1	target	1	534	733	140669	13.328	12.940	13.707
DTProbeTrack03	12	ProbeTrackDT	1.1	SCS215a	20101124.093831	20101124.095234	dt-shadow	8	0.013328	60	10	60-180	60	88	GapExp	0	147	2	1	1	target	1	334	833	141502	13.328	12.867	13.802
DTProbeTrack03	12	ProbeTrackDT	1.1	SCS215a	20101124.093831	20101124.095239	dt-shadow	8	0.013328	60	10	60-180	60	129	GapExp	0	148	2	9	0	distractor	1	480	760	142262	13.328	12.871	13.774
DTProbeTrack03	12	ProbeTrackDT	1.1	SCS215a	20101124.093831	20101124.095245	dt-shadow	8	0.013328	60	10	60-180	60	164	GapExp	0	149	2	45	1	target	1	360	820	143082	13.328	13.053	13.610
DTProbeTrack03	12	ProbeTrackDT	1.1	SCS215a	20101124.093831	20101124.095251	dt-shadow	8	0.013328	60	10	60-180	60	63	GapExp	0	150	2	3	1	target	1	427	787	143869	13.328	13.304	13.351
DTProbeTrack03	12	ProbeTrackDT	1.1	SCS215a	20101124.093831	20101124.095317	dt-shadow	8	0.013328	60	10	60-180	60	108	GapExp	0	151	2	1	0	distractor	1	454	773	144642	13.328	12.952	13.715
DTProbeTrack03	12	ProbeTrackDT	1.1	SCS215a	20101124.093831	20101124.095322	dt-shadow	8	0.013328	60	10	60-180	60	92	GapExp	0	152	2	1	1	target	1	374	813	145455	13.328	13.306	13.355
DTProbeTrack03	12	ProbeTrackDT	1.1	SCS215a	20101124.093831	20101124.095327	dt-shadow	8	0.013328	60	10	60-180	60	134	GapExp	0	153	2	6	1	target	1	267	867	146322	13.328	13.032	13.571
DTProbeTrack03	12	ProbeTrackDT	1.1	SCS215a	20101124.093831	20101124.095333	dt-shadow	8	0.013328	60	10	60-180	60	177	GapExp	0	154	2	45	1	target	1	440	780	147102	13.328	12.955	13.695
DTProbeTrack03	12	ProbeTrackDT	1.1	SCS215a	20101124.093831	20101124.095340	dt-shadow	8	0.013328	60	10	60-180	60	89	GapExp	0	155	2	1	0	target	0	334	-1000	146102	13.328	12.964	13.688
DTProbeTrack03	12	ProbeTrackDT	1.1	SCS215a	20101124.093831	20101124.095345	dt-shadow	8	0.013328	60	10	60-180	60	67	GapExp	0	156	2	9	1	target	1	440	780	146882	13.328	12.926	13.725
DTProbeTrack03	12	ProbeTrackDT	1.1	SCS215a	20101124.093831	20101124.095349	dt-shadow	8	0.013328	60	10	60-180	60	134	GapExp	0	157	2	9	1	target	1	414	793	147675	13.328	13.303	13.351
DTProbeTrack03	12	ProbeTrackDT	1.1	SCS215a	20101124.093831	20101124.095355	dt-shadow	8	0.013328	60	10	60-180	60	139	GapExp	0	158	2	6	0	target	0	733	-1000	146675	13.328	12.865	13.794
DTProbeTrack03	12	ProbeTrackDT	1.1	SCS215a	20101124.093831	20101124.095401	dt-shadow	8	0.013328	60	10	60-180	60	159	GapExp	0	159	2	6	1	target	1	374	813	147488	13.328	12.943	13.715
DTProbeTrack03	12	ProbeTrackDT	1.1	SCS215a	20101124.093831	20101124.095407	dt-shadow	8	0.013328	60	10	60-180	60	149	GapExp	0	160	2	45	0	target	0	440	-1000	146488	13.328	13.308	13.347
DTProbeTrack03	12	ProbeTrackDT	1.1	SCS215a	20101124.093831	20101124.095414	dt-shadow	8	0.013328	60	10	60-180	60	180	GapExp	0	161	2	1	0	target	0	400	-1000	145488	13.328	13.116	13.543
DTProbeTrack03	12	ProbeTrackDT	1.1	SCS215a	20101124.093831	20101124.095420	dt-shadow	8	0.013328	60	10	60-180	60	112	GapExp	0	162	2	45	1	target	1	387	807	146295	13.328	12.958	13.690
DTProbeTrack03	12	ProbeTrackDT	1.1	SCS215a	20101124.093831	20101124.095426	dt-shadow	8	0.013328	60	10	60-180	60	113	GapExp	0	163	2	3	0	13	-3	400	-1000	145295	13.328	13.043	13.610
DTProbeTrack03	12	ProbeTrackDT	1.1	SCS215a	20101124.093831	20101124.095431	dt-shadow	8	0.013328	60	10	60-180	60	167	GapExp	0	164	2	1	0	distractor	1	534	733	146028	13.328	12.909	13.741
DTProbeTrack03	12	ProbeTrackDT	1.1	SCS215a	20101124.093831	20101124.095437	dt-shadow	8	0.013328	60	10	60-180	60	93	GapExp	0	165	2	1	1	target	1	414	793	146821	13.328	12.905	13.742
DTProbeTrack03	12	ProbeTrackDT	1.1	SCS215a	20101124.093831	20101124.095442	dt-shadow	8	0.013328	60	10	60-180	60	100	GapExp	0	166	2	6	0	distractor	1	507	747	147568	13.328	12.933	13.735
DTProbeTrack03	12	ProbeTrackDT	1.1	SCS215a	20101124.093831	20101124.095448	dt-shadow	8	0.013328	60	10	60-180	60	111	GapExp	0	167	2	3	1	target	1	334	833	148401	13.328	12.932	13.723
DTProbeTrack03	12	ProbeTrackDT	1.1	SCS215a	20101124.093831	20101124.095453	dt-shadow	8	0.013328	60	10	60-180	60	127	GapExp	0	168	2	3	0	distractor	1	720	640	149041	13.328	13.020	13.639
DTProbeTrack03	12	ProbeTrackDT	1.1	SCS215a	20101124.093831	20101124.095459	dt-shadow	8	0.013328	60	10	60-180	60	150	GapExp	0	169	2	9	0	target	0	587	-1000	148041	13.328	13.308	13.357
DTProbeTrack03	12	ProbeTrackDT	1.1	SCS215a	20101124.093831	20101124.095505	dt-shadow	8	0.013328	60	10	60-180	60	132	GapExp	0	170	2	9	1	target	1	454	773	148814	13.328	13.124	13.534
DTProbeTrack03	12	ProbeTrackDT	1.1	SCS215a	20101124.093831	20101124.095511	dt-shadow	8	0.013328	60	10	60-180	60	124	GapExp	0	171	2	3	0	distractor	1	480	760	149574	13.328	13.181	13.478
DTProbeTrack03	12	ProbeTrackDT	1.1	SCS215a	20101124.093831	20101124.095516	dt-shadow	8	0.013328	60	10	60-180	60	105	GapExp	0	172	2	3	0	distractor	1	374	813	150387	13.328	12.906	13.747
DTProbeTrack03	12	ProbeTrackDT	1.1	SCS215a	20101124.093831	20101124.095522	dt-shadow	8	0.013328	60	10	60-180	60	93	GapExp	0	173	2	9	1	target	1	494	753	151140	13.328	12.912	13.743
DTProbeTrack03	12	ProbeTrackDT	1.1	SCS215a	20101124.093831	20101124.095527	dt-shadow	8	0.013328	60	10	60-180	60	126	GapExp	0	174	2	45	0	distractor	1	467	767	151907	13.328	13.011	13.637
DTProbeTrack03	12	ProbeTrackDT	1.1	SCS215a	20101124.093831	20101124.095533	dt-shadow	8	0.013328	60	10	60-180	60	133	GapExp	0	175	2	45	1	target	1	387	807	152714	13.328	12.883	13.783
DTProbeTrack03	12	ProbeTrackDT	1.1	SCS215a	20101124.093831	20101124.095539	dt-shadow	8	0.013328	60	10	60-180	60	163	GapExp	0	176	2	9	0	distractor	1	360	820	153534	13.328	13.307	13.347
DTProbeTrack03	12	ProbeTrackDT	1.1	SCS215a	20101124.093831	20101124.095545	dt-shadow	8	0.013328	60	10	60-180	60	84	GapExp	0	177	2	9	0	distractor	1	375	813	154347	13.328	12.883	13.781
DTProbeTrack03	12	ProbeTrackDT	1.1	SCS215a	20101124.093831	20101124.095550	dt-shadow	8	0.013328	60	10	60-180	60	69	GapExp	0	178	2	3	1	target	1	347	827	155174	13.328	12.912	13.748
DTProbeTrack03	12	ProbeTrackDT	1.1	SCS215a	20101124.093831	20101124.095555	dt-shadow	8	0.013328	60	10	60-180	60	169	GapExp	0	179	2	1	0	target	0	307	-1000	154174	13.328	13.295	13.346
DTProbeTrack03	12	ProbeTrackDT	1.1	SCS215a	20101124.093831	20101124.095601	dt-shadow	8	0.013328	60	10	60-180	60	158	GapExp	0	180	2	9	0	distractor	1	414	793	154967	13.328	13.306	13.349
DTProbeTrack03	12	ProbeTrackDT	1.1	SCS215a	20101124.093831	20101124.095607	dt-shadow	8	0.013328	60	10	60-180	60	121	GapExp	0	181	2	6	0	distractor	1	520	740	155707	13.328	12.876	13.772
DTProbeTrack03	12	ProbeTrackDT	1.1	SCS215a	20101124.093831	20101124.095613	dt-shadow	8	0.013328	60	10	60-180	60	180	GapExp	0	182	2	45	1	distractor	0	280	-1000	154707	13.328	12.895	13.775
DTProbeTrack03	12	ProbeTrackDT	1.1	SCS215a	20101124.093831	20101124.095620	dt-shadow	8	0.013328	60	10	60-180	60	128	GapExp	0	183	2	9	0	target	0	294	-1000	153707	13.328	13.309	13.347
DTProbeTrack03	12	ProbeTrackDT	1.1	SCS215a	20101124.093831	20101124.095625	dt-shadow	8	0.013328	60	10	60-180	60	126	GapExp	0	184	2	1	0	distractor	1	400	800	154507	13.328	12.904	13.746
DTProbeTrack03	12	ProbeTrackDT	1.1	SCS215a	20101124.093831	20101124.095630	dt-shadow	8	0.013328	60	10	60-180	60	91	GapExp	0	185	2	6	1	target	1	440	780	155287	13.328	12.866	13.786
DTProbeTrack03	12	ProbeTrackDT	1.1	SCS215a	20101124.093831	20101124.095636	dt-shadow	8	0.013328	60	10	60-180	60	67	GapExp	0	186	2	3	0	distractor	1	573	714	156001	13.328	13.299	13.346
DTProbeTrack03	12	ProbeTrackDT	1.1	SCS215a	20101124.093831	20101124.095641	dt-shadow	8	0.013328	60	10	60-180	60	165	GapExp	0	187	2	3	0	distractor	1	480	760	156761	13.328	13.101	13.551
DTProbeTrack03	12	ProbeTrackDT	1.1	SCS215a	20101124.093831	20101124.095647	dt-shadow	8	0.013328	60	10	60-180	60	132	GapExp	0	188	2	6	0	distractor	1	547	727	157488	13.328	12.901	13.754
DTProbeTrack03	12	ProbeTrackDT	1.1	SCS215a	20101124.093831	20101124.095652	dt-shadow	8	0.013328	60	10	60-180	60	149	GapExp	0	189	2	6	0	distractor	1	400	800	158288	13.328	12.991	13.671
DTProbeTrack03	12	ProbeTrackDT	1.1	SCS215a	20101124.093831	20101124.095658	dt-shadow	8	0.013328	60	10	60-180	60	129	GapExp	0	190	2	45	0	distractor	1	534	733	159021	13.328	12.973	13.695
DTProbeTrack03	12	ProbeTrackDT	1.1	SCS215a	20101124.093831	20101124.095705	dt-shadow	8	0.013328	60	10	60-180	60	136	GapExp	0	191	2	1	1	target	1	400	800	159821	13.328	12.949	13.711
DTProbeTrack03	12	ProbeTrackDT	1.1	SCS215a	20101124.093831	20101124.095710	dt-shadow	8	0.013328	60	10	60-180	60	172	GapExp	0	192	2	45	1	target	1	414	793	160614	13.328	13.307	13.348
DTProbeTrack03	12	ProbeTrackDT	1.1	SCS215a	20101124.093831	20101124.095717	dt-shadow	8	0.013328	60	10	60-180	60	118	GapExp	0	193	2	9	0	distractor	1	374	813	161427	13.328	13.309	13.348
DTProbeTrack03	12	ProbeTrackDT	1.1	SCS215a	20101124.093831	20101124.095723	dt-shadow	8	0.013328	60	10	60-180	60	119	GapExp	0	194	2	1	1	target	1	320	840	162267	13.328	13.113	13.539
DTProbeTrack03	12	ProbeTrackDT	1.1	SCS215a	20101124.093831	20101124.095728	dt-shadow	8	0.013328	60	10	60-180	60	123	GapExp	0	195	2	45	0	target	0	454	-1000	161267	13.328	13.006	13.664
DTProbeTrack03	12	ProbeTrackDT	1.1	SCS215a	20101124.093831	20101124.095734	dt-shadow	8	0.013328	60	10	60-180	60	106	GapExp	0	196	2	45	1	target	1	454	773	162040	13.328	12.847	13.804
DTProbeTrack03	12	ProbeTrackDT	1.1	SCS215a	20101124.093831	20101124.095740	dt-shadow	8	0.013328	60	10	60-180	60	131	GapExp	0	197	2	1	0	distractor	1	520	740	162780	13.328	13.040	13.601
DTProbeTrack03	12	ProbeTrackDT	1.1	SCS215a	20101124.093831	20101124.095745	dt-shadow	8	0.013328	60	10	60-180	60	76	GapExp	0	198	2	6	0	distractor	1	507	747	163527	13.328	13.286	13.379
DTProbeTrack03	12	ProbeTrackDT	1.1	SCS215a	20101124.093831	20101124.095750	dt-shadow	8	0.013328	60	10	60-180	60	122	GapExp	0	199	2	1	1	target	1	347	827	164354	13.328	13.060	13.590
DTProbeTrack03	12	ProbeTrackDT	1.1	SCS215a	20101124.093831	20101124.095756	dt-shadow	8	0.013328	60	10	60-180	60	76	GapExp	0	200	2	1	0	target	0	280	-1000	163354	13.328	13.309	13.345
DTProbeTrack03	12	ProbeTrackDT	1.1	SCS215a	20101124.093831	20101124.095805	dt-shadow	8	0.013328	60	10	60-180	60	177	GapExp	0	201	2	45	1	target	1	387	807	164161	13.328	13.094	13.543
DTProbeTrack03	12	ProbeTrackDT	1.1	SCS215a	20101124.093831	20101124.095812	dt-shadow	8	0.013328	60	10	60-180	60	88	GapExp	0	202	2	3	1	target	1	374	813	164974	13.328	12.964	13.542
DTProbeTrack03	12	ProbeTrackDT	1.1	SCS215a	20101124.093831	20101124.095817	dt-shadow	8	0.013328	60	10	60-180	60	102	GapExp	0	203	2	9	1	target	1	374	813	165787	13.328	13.102	13.560
DTProbeTrack03	12	ProbeTrackDT	1.1	SCS215a	20101124.093831	20101124.095822	dt-shadow	8	0.013328	60	10	60-180	60	87	GapExp	0	204	2	1	0	distractor	1	494	753	166540	13.328	13.028	13.642
DTProbeTrack03	12	ProbeTrackDT	1.1	SCS215a	20101124.093831	20101124.095827	dt-shadow	8	0.013328	60	10	60-180	60	83	GapExp	0	205	2	45	0	distractor	1	587	707	167247	13.328	13.304	13.355
DTProbeTrack03	12	ProbeTrackDT	1.1	SCS215a	20101124.095910	20101124.095915	single-task	8	0.013328	60	10	60-180	60	100	GapPrac	1	1	2	6	1	target	1	720	640	167887	13.328	12.933	13.748
DTProbeTrack03	12	ProbeTrackDT	1.1	SCS215a	20101124.095910	20101124.095920	single-task	8	0.013328	60	10	60-180	60	151	GapPrac	1	2	2	9	1	target	1	334	833	168720	13.328	13.089	13.563
DTProbeTrack03	12	ProbeTrackDT	1.1	SCS215a	20101124.095910	20101124.095926	single-task	8	0.013328	60	10	60-180	60	64	GapPrac	1	3	2	6	0	distractor	1	454	773	169493	13.328	12.911	13.735
DTProbeTrack03	12	ProbeTrackDT	1.1	SCS215a	20101124.095910	20101124.095931	single-task	8	0.013328	60	10	60-180	60	139	GapPrac	1	4	2	1	0	distractor	1	374	813	170306	13.328	13.204	13.457
DTProbeTrack03	12	ProbeTrackDT	1.1	SCS215a	20101124.095910	20101124.095937	single-task	8	0.013328	60	10	60-180	60	154	GapPrac	1	5	2	9	0	distractor	1	334	833	171139	13.328	13.308	13.348
DTProbeTrack03	12	ProbeTrackDT	1.1	SCS215a	20101124.095910	20101124.095942	single-task	8	0.013328	60	10	60-180	60	67	GapPrac	1	6	2	3	1	target	1	347	827	171966	13.328	13.100	13.552
DTProbeTrack03	12	ProbeTrackDT	1.1	SCS215a	20101124.095910	20101124.095947	single-task	8	0.013328	60	10	60-180	60	146	GapPrac	1	7	2	45	1	target	1	360	820	172786	13.328	13.083	13.565
DTProbeTrack03	12	ProbeTrackDT	1.1	SCS215a	20101124.095910	20101124.095953	single-task	8	0.013328	60	10	60-180	60	95	GapPrac	1	8	2	3	0	distractor	1	494	753	173539	13.328	12.913	13.730
DTProbeTrack03	12	ProbeTrackDT	1.1	SCS215a	20101124.095910	20101124.095959	single-task	8	0.013328	60	10	60-180	60	130	GapPrac	1	9	2	1	0	distractor	1	534	733	174272	13.328	12.968	13.704
DTProbeTrack03	12	ProbeTrackDT	1.1	SCS215a	20101124.095910	20101124.100004	single-task	8	0.013328	60	10	60-180	60	69	GapPrac	1	10	2	9	0	distractor	1	549	726	174998	13.328	12.907	13.732
DTProbeTrack03	12	ProbeTrackDT	1.1	SCS215a	20101124.095910	20101124.100009	single-task	8	0.013328	60	10	60-180	60	141	GapPrac	1	11	2	45	1	distractor	0	640	-1000	173998	13.328	13.074	13.594
DTProbeTrack03	12	ProbeTrackDT	1.1	SCS215a	20101124.095910	20101124.100016	single-task	8	0.013328	60	10	60-180	60	112	GapPrac	1	12	2	1	1	target	1	360	820	174818	13.328	13.095	13.556
DTProbeTrack03	12	ProbeTrackDT	1.1	SCS215a	20101124.095910	20101124.100021	single-task	8	0.013328	60	10	60-180	60	78	GapPrac	1	13	2	1	1	target	1	440	780	175598	13.328	12.990	13.660
DTProbeTrack03	12	ProbeTrackDT	1.1	SCS215a	20101124.095910	20101124.100026	single-task	8	0.013328	60	10	60-180	60	153	GapPrac	1	14	2	3	1	target	1	307	847	176445	13.328	12.850	13.808
DTProbeTrack03	12	ProbeTrackDT	1.1	SCS215a	20101124.095910	20101124.100032	single-task	8	0.013328	60	10	60-180	60	100	GapPrac	1	15	2	6	0	distractor	1	400	800	177245	13.328	13.091	13.562
DTProbeTrack03	12	ProbeTrackDT	1.1	SCS215a	20101124.095910	20101124.100037	single-task	8	0.013328	60	10	60-180	60	152	GapPrac	1	16	2	45	0	distractor	1	480	760	178005	13.328	12.861	13.806
DTProbeTrack03	12	ProbeTrackDT	1.1	SCS215a	20101124.095910	20101124.100044	single-task	8	0.013328	60	10	60-180	60	96	GapPrac	1	17	2	9	1	target	1	467	767	178772	13.328	12.863	13.794
DTProbeTrack03	12	ProbeTrackDT	1.1	SCS215a	20101124.095910	20101124.100049	single-task	8	0.013328	60	10	60-180	60	153	GapPrac	1	18	2	45	0	distractor	1	693	654	179426	13.328	13.235	13.428
DTProbeTrack03	12	ProbeTrackDT	1.1	SCS215a	20101124.095910	20101124.100056	single-task	8	0.013328	60	10	60-180	60	79	GapPrac	1	19	2	3	0	distractor	1	440	780	180206	13.328	13.052	13.604
DTProbeTrack03	12	ProbeTrackDT	1.1	SCS215a	20101124.095910	20101124.100101	single-task	8	0.013328	60	10	60-180	60	62	GapPrac	1	20	2	6	1	target	1	414	793	180999	13.328	13.309	13.358
DTProbeTrack03	12	ProbeTrackDT	1.1	SCS215a	20101124.100127	20101124.100134	single-task	8	0.013328	60	10	60-180	60	111	GapExp	1	1	2	45	0	distractor	1	440	780	181779	13.328	13.093	13.557
DTProbeTrack03	12	ProbeTrackDT	1.1	SCS215a	20101124.100127	20101124.100140	single-task	8	0.013328	60	10	60-180	60	135	GapExp	1	2	2	6	0	distractor	1	334	833	182612	13.328	13.107	13.562
DTProbeTrack03	12	ProbeTrackDT	1.1	SCS215a	20101124.100127	20101124.100145	single-task	8	0.013328	60	10	60-180	60	148	GapExp	1	3	2	1	1	target	1	494	753	183365	13.328	12.924	13.726
DTProbeTrack03	12	ProbeTrackDT	1.1	SCS215a	20101124.100127	20101124.100151	single-task	8	0.013328	60	10	60-180	60	134	GapExp	1	4	2	9	1	target	1	360	820	184185	13.328	12.986	13.680
DTProbeTrack03	12	ProbeTrackDT	1.1	SCS215a	20101124.100127	20101124.100157	single-task	8	0.013328	60	10	60-180	60	109	GapExp	1	5	2	3	1	target	1	400	800	184985	13.328	12.892	13.779
DTProbeTrack03	12	ProbeTrackDT	1.1	SCS215a	20101124.100127	20101124.100202	single-task	8	0.013328	60	10	60-180	60	110	GapExp	0	6	2	1	0	target	0	387	-1000	183985	13.328	12.893	13.765
DTProbeTrack03	12	ProbeTrackDT	1.1	SCS215a	20101124.100127	20101124.100207	single-task	8	0.013328	60	10	60-180	60	147	GapExp	0	7	2	45	0	distractor	1	573	714	184699	13.328	12.867	13.775
DTProbeTrack03	12	ProbeTrackDT	1.1	SCS215a	20101124.100127	20101124.100214	single-task	8	0.013328	60	10	60-180	60	143	GapExp	0	8	2	1	1	target	1	347	827	185526	13.328	13.025	13.643
DTProbeTrack03	12	ProbeTrackDT	1.1	SCS215a	20101124.100127	20101124.100219	single-task	8	0.013328	60	10	60-180	60	123	GapExp	0	9	2	9	0	distractor	1	400	800	186326	13.328	12.875	13.796
DTProbeTrack03	12	ProbeTrackDT	1.1	SCS215a	20101124.100127	20101124.100225	single-task	8	0.013328	60	10	60-180	60	93	GapExp	0	10	2	3	1	target	1	374	813	187139	13.328	12.868	13.792
DTProbeTrack03	12	ProbeTrackDT	1.1	SCS215a	20101124.100127	20101124.100230	single-task	8	0.013328	60	10	60-180	60	91	GapExp	0	11	2	45	1	distractor	0	334	-1000	186139	13.328	13.108	13.561
DTProbeTrack03	12	ProbeTrackDT	1.1	SCS215a	20101124.100127	20101124.100236	single-task	8	0.013328	60	10	60-180	60	135	GapExp	0	12	2	1	0	distractor	1	374	813	186952	13.328	12.964	13.710
DTProbeTrack03	12	ProbeTrackDT	1.1	SCS215a	20101124.100127	20101124.100241	single-task	8	0.013328	60	10	60-180	60	126	GapExp	0	13	2	6	1	target	1	360	820	187772	13.493	12.950	26.914
DTProbeTrack03	12	ProbeTrackDT	1.1	SCS215a	20101124.100127	20101124.100247	single-task	8	0.013328	60	10	60-180	60	126	GapExp	0	14	2	1	0	distractor	1	440	780	188552	13.328	13.309	13.352
DTProbeTrack03	12	ProbeTrackDT	1.1	SCS215a	20101124.100127	20101124.100252	single-task	8	0.013328	60	10	60-180	60	101	GapExp	0	15	2	9	0	target	0	360	-1000	187552	13.328	12.892	13.758
DTProbeTrack03	12	ProbeTrackDT	1.1	SCS215a	20101124.100127	20101124.100257	single-task	8	0.013328	60	10	60-180	60	127	GapExp	0	16	2	3	0	target	0	387	-1000	186552	13.328	13.051	13.599
DTProbeTrack03	12	ProbeTrackDT	1.1	SCS215a	20101124.100127	20101124.100303	single-task	8	0.013328	60	10	60-180	60	83	GapExp	0	17	2	3	1	target	1	387	807	187359	13.328	12.851	13.819
DTProbeTrack03	12	ProbeTrackDT	1.1	SCS215a	20101124.100127	20101124.100308	single-task	8	0.013328	60	10	60-180	60	119	GapExp	0	18	2	3	0	target	0	320	-1000	186359	13.328	13.150	13.515
DTProbeTrack03	12	ProbeTrackDT	1.1	SCS215a	20101124.100127	20101124.100313	single-task	8	0.013328	60	10	60-180	60	149	GapExp	0	19	2	45	1	distractor	0	320	-1000	185359	13.328	12.869	13.796
DTProbeTrack03	12	ProbeTrackDT	1.1	SCS215a	20101124.100127	20101124.100319	single-task	8	0.013328	60	10	60-180	60	111	GapExp	0	20	2	1	0	target	0	334	-1000	184359	13.328	12.941	13.711
DTProbeTrack03	12	ProbeTrackDT	1.1	SCS215a	20101124.100127	20101124.100325	single-task	8	0.013328	60	10	60-180	60	77	GapExp	0	21	2	45	1	target	1	440	780	185139	13.328	12.970	13.673
DTProbeTrack03	12	ProbeTrackDT	1.1	SCS215a	20101124.100127	20101124.100330	single-task	8	0.013328	60	10	60-180	60	172	GapExp	0	22	2	9	1	target	1	334	833	185972	13.328	12.858	13.812
DTProbeTrack03	12	ProbeTrackDT	1.1	SCS215a	20101124.100127	20101124.100336	single-task	8	0.013328	60	10	60-180	60	103	GapExp	0	23	2	9	1	target	1	440	780	186752	13.328	13.309	13.347
DTProbeTrack03	12	ProbeTrackDT	1.1	SCS215a	20101124.100127	20101124.100342	single-task	8	0.013328	60	10	60-180	60	96	GapExp	0	24	2	1	1	target	1	334	833	187585	13.328	13.141	13.516
DTProbeTrack03	12	ProbeTrackDT	1.1	SCS215a	20101124.100127	20101124.100347	single-task	8	0.013328	60	10	60-180	60	144	GapExp	0	25	2	1	0	target	0	400	-1000	186585	13.328	13.075	13.585
DTProbeTrack03	12	ProbeTrackDT	1.1	SCS215a	20101124.100127	20101124.100352	single-task	8	0.013328	60	10	60-180	60	144	GapExp	0	26	2	9	0	target	0	480	-1000	185585	13.328	13.111	13.553
DTProbeTrack03	12	ProbeTrackDT	1.1	SCS215a	20101124.100127	20101124.100358	single-task	8	0.013328	60	10	60-180	60	168	GapExp	0	27	2	3	0	target	0	-13	-1000	184585	13.328	13.077	13.578
DTProbeTrack03	12	ProbeTrackDT	1.1	SCS215a	20101124.100127	20101124.100404	single-task	8	0.013328	60	10	60-180	60	127	GapExp	0	28	2	3	0	distractor	1	440	780	185365	13.328	13.305	13.357
DTProbeTrack03	12	ProbeTrackDT	1.1	SCS215a	20101124.100127	20101124.100410	single-task	8	0.013328	60	10	60-180	60	72	GapExp	0	29	2	6	1	target	1	374	813	186178	13.328	12.914	13.729
DTProbeTrack03	12	ProbeTrackDT	1.1	SCS215a	20101124.100127	20101124.100414	single-task	8	0.013328	60	10	60-180	60	72	GapExp	0	30	2	1	1	target	1	320	840	187018	13.328	13.105	13.551
DTProbeTrack03	12	ProbeTrackDT	1.1	SCS215a	20101124.100127	20101124.100419	single-task	8	0.013328	60	10	60-180	60	142	GapExp	0	31	2	9	0	distractor	1	480	760	187778	13.328	12.879	13.775
DTProbeTrack03	12	ProbeTrackDT	1.1	SCS215a	20101124.100127	20101124.100425	single-task	8	0.013328	60	10	60-180	60	122	GapExp	0	32	2	45	0	target	0	347	-1000	186778	13.328	13.308	13.348
DTProbeTrack03	12	ProbeTrackDT	1.1	SCS215a	20101124.100127	20101124.100431	single-task	8	0.013328	60	10	60-180	60	169	GapExp	0	33	2	3	0	distractor	1	360	820	187598	13.328	13.309	13.345
DTProbeTrack03	12	ProbeTrackDT	1.1	SCS215a	20101124.100127	20101124.100437	single-task	8	0.013328	60	10	60-180	60	180	GapExp	0	34	2	45	0	target	0	427	-1000	186598	13.328	12.847	13.812
DTProbeTrack03	12	ProbeTrackDT	1.1	SCS215a	20101124.100127	20101124.100444	single-task	8	0.013328	60	10	60-180	60	79	GapExp	0	35	2	6	0	distractor	1	507	747	187345	13.328	13.099	13.571
DTProbeTrack03	12	ProbeTrackDT	1.1	SCS215a	20101124.100127	20101124.100449	single-task	8	0.013328	60	10	60-180	60	108	GapExp	0	36	2	45	0	distractor	1	507	747	188092	13.328	13.092	13.561
DTProbeTrack03	12	ProbeTrackDT	1.1	SCS215a	20101124.100127	20101124.100455	single-task	8	0.013328	60	10	60-180	60	119	GapExp	0	37	2	3	1	target	1	307	847	188939	13.328	13.307	13.347
DTProbeTrack03	12	ProbeTrackDT	1.1	SCS215a	20101124.100127	20101124.100500	single-task	8	0.013328	60	10	60-180	60	122	GapExp	0	38	2	1	1	target	1	360	820	189759	13.328	13.095	13.552
