exp	sub	code	rev	comp	runtime	trialtime	stdt	nstim	refreshdur	cuedur	gapdur	gapOnsetRange	durPostProbe	gapOnsetTime	blocktype	prac	trial	ntargets	soa	probeTarget	resp	acc	rt	pts	tpts	meanFrameDur	minFrameDur	maxFrameDur
DTProbeTrack03	1	ProbeTrackDT	1.1	SCS215a	20101027.090358	20101027.090420	single-task	8	0.013343	60	0	60-180	60	172	NoGap	1	1	2	3	1	target	1	627	687	687	13.328	13.108	13.559
DTProbeTrack03	1	ProbeTrackDT	1.1	SCS215a	20101027.090358	20101027.090427	single-task	8	0.013343	60	0	60-180	60	135	NoGap	1	2	2	9	1	target	1	747	627	1314	13.328	13.093	13.557
DTProbeTrack03	1	ProbeTrackDT	1.1	SCS215a	20101027.090358	20101027.090433	single-task	8	0.013343	60	0	60-180	60	133	NoGap	1	3	2	45	0	distractor	1	840	580	1894	13.328	13.160	13.497
DTProbeTrack03	1	ProbeTrackDT	1.1	SCS215a	20101027.090358	20101027.090439	single-task	8	0.013343	60	0	60-180	60	106	NoGap	1	4	2	9	0	distractor	1	760	620	2514	13.328	13.118	13.538
DTProbeTrack03	1	ProbeTrackDT	1.1	SCS215a	20101027.090358	20101027.090445	single-task	8	0.013343	60	0	60-180	60	168	NoGap	1	5	2	6	0	distractor	1	640	680	3194	13.328	13.145	13.513
DTProbeTrack03	1	ProbeTrackDT	1.1	SCS215a	20101027.090358	20101027.090451	single-task	8	0.013343	60	0	60-180	60	150	NoGap	1	6	2	9	0	distractor	1	574	713	3907	13.328	13.305	13.353
DTProbeTrack03	1	ProbeTrackDT	1.1	SCS215a	20101027.090358	20101027.090457	single-task	8	0.013343	60	0	60-180	60	82	NoGap	1	7	2	9	0	distractor	1	773	614	4521	13.328	13.142	13.499
DTProbeTrack03	1	ProbeTrackDT	1.1	SCS215a	20101027.090358	20101027.090502	single-task	8	0.013343	60	0	60-180	60	168	NoGap	1	8	2	3	0	distractor	1	534	733	5254	13.328	12.924	13.730
DTProbeTrack03	1	ProbeTrackDT	1.1	SCS215a	20101027.090358	20101027.090508	single-task	8	0.013343	60	0	60-180	60	138	NoGap	1	9	2	1	0	distractor	1	480	760	6014	13.328	13.038	13.622
DTProbeTrack03	1	ProbeTrackDT	1.1	SCS215a	20101027.090358	20101027.090514	single-task	8	0.013343	60	0	60-180	60	143	NoGap	1	10	2	45	1	target	1	587	707	6721	13.328	13.071	13.598
DTProbeTrack03	1	ProbeTrackDT	1.1	SCS215a	20101027.090358	20101027.090520	single-task	8	0.013343	60	0	60-180	60	115	NoGap	1	11	2	45	1	distractor	0	587	-1000	5721	13.328	13.309	13.352
DTProbeTrack03	1	ProbeTrackDT	1.1	SCS215a	20101027.090358	20101027.090526	single-task	8	0.013343	60	0	60-180	60	149	NoGap	1	12	2	1	0	distractor	1	827	587	6308	13.328	12.904	13.765
DTProbeTrack03	1	ProbeTrackDT	1.1	SCS215a	20101027.090358	20101027.090532	single-task	8	0.013343	60	0	60-180	60	89	NoGap	1	13	2	3	0	distractor	1	800	600	6908	13.328	12.959	13.682
DTProbeTrack03	1	ProbeTrackDT	1.1	SCS215a	20101027.090358	20101027.090538	single-task	8	0.013343	60	0	60-180	60	69	NoGap	1	14	2	3	1	target	1	800	600	7508	13.328	12.904	13.773
DTProbeTrack03	1	ProbeTrackDT	1.1	SCS215a	20101027.090358	20101027.090543	single-task	8	0.013343	60	0	60-180	60	132	NoGap	1	15	2	45	0	distractor	1	587	707	8215	13.328	13.098	13.557
DTProbeTrack03	1	ProbeTrackDT	1.1	SCS215a	20101027.090358	20101027.090549	single-task	8	0.013343	60	0	60-180	60	175	NoGap	1	16	2	6	0	distractor	1	560	720	8935	13.417	13.084	26.657
DTProbeTrack03	1	ProbeTrackDT	1.1	SCS215a	20101027.090358	20101027.090555	single-task	8	0.013343	60	0	60-180	60	103	NoGap	1	17	2	6	0	distractor	1	627	687	9622	13.328	13.242	13.398
DTProbeTrack03	1	ProbeTrackDT	1.1	SCS215a	20101027.090358	20101027.090601	single-task	8	0.013343	60	0	60-180	60	101	NoGap	1	18	2	9	1	distractor	0	587	-1000	8622	13.328	12.926	13.743
DTProbeTrack03	1	ProbeTrackDT	1.1	SCS215a	20101027.090358	20101027.090606	single-task	8	0.013343	60	0	60-180	60	130	NoGap	1	19	2	1	1	target	1	707	647	9269	13.328	13.098	13.560
DTProbeTrack03	1	ProbeTrackDT	1.1	SCS215a	20101027.090358	20101027.090612	single-task	8	0.013343	60	0	60-180	60	127	NoGap	1	20	2	6	1	target	1	720	640	9909	13.328	13.289	13.351
DTProbeTrack03	1	ProbeTrackDT	1.1	SCS215a	20101027.090358	20101027.090617	single-task	8	0.013343	60	0	60-180	60	115	NoGap	1	21	2	45	0	distractor	1	694	653	10562	13.328	12.935	13.734
DTProbeTrack03	1	ProbeTrackDT	1.1	SCS215a	20101027.090358	20101027.090624	single-task	8	0.013343	60	0	60-180	60	166	NoGap	1	22	2	3	1	target	1	560	720	11282	13.328	13.111	13.546
DTProbeTrack03	1	ProbeTrackDT	1.1	SCS215a	20101027.090358	20101027.090630	single-task	8	0.013343	60	0	60-180	60	166	NoGap	1	23	2	9	1	target	1	613	694	11976	13.328	13.259	13.390
DTProbeTrack03	1	ProbeTrackDT	1.1	SCS215a	20101027.090358	20101027.090636	single-task	8	0.013343	60	0	60-180	60	155	NoGap	1	24	2	9	1	target	1	454	773	12749	13.328	13.306	13.348
DTProbeTrack03	1	ProbeTrackDT	1.1	SCS215a	20101027.090358	20101027.090642	single-task	8	0.013343	60	0	60-180	60	81	NoGap	1	25	2	9	0	distractor	1	734	633	13382	13.328	13.308	13.356
DTProbeTrack03	1	ProbeTrackDT	1.1	SCS215a	20101027.090358	20101027.090647	single-task	8	0.013343	60	0	60-180	60	133	NoGap	1	26	2	3	0	target	0	574	-1000	12382	13.328	13.294	13.377
DTProbeTrack03	1	ProbeTrackDT	1.1	SCS215a	20101027.090358	20101027.090653	single-task	8	0.013343	60	0	60-180	60	85	NoGap	1	27	2	6	1	target	1	720	640	13022	13.328	13.089	13.568
DTProbeTrack03	1	ProbeTrackDT	1.1	SCS215a	20101027.090358	20101027.090658	single-task	8	0.013343	60	0	60-180	60	75	NoGap	1	28	2	1	1	target	1	733	634	13656	13.588	12.997	26.663
DTProbeTrack03	1	ProbeTrackDT	1.1	SCS215a	20101027.090358	20101027.090703	single-task	8	0.013343	60	0	60-180	60	74	NoGap	1	29	2	6	1	target	1	733	634	14290	13.328	13.308	13.347
DTProbeTrack03	1	ProbeTrackDT	1.1	SCS215a	20101027.090358	20101027.090708	single-task	8	0.013343	60	0	60-180	60	125	NoGap	1	30	2	45	0	distractor	1	733	634	14924	13.328	13.119	13.541
DTProbeTrack03	1	ProbeTrackDT	1.1	SCS215a	20101027.090358	20101027.090715	single-task	8	0.013343	60	0	60-180	60	168	NoGap	1	31	2	1	0	distractor	1	733	634	15558	13.328	13.110	13.546
DTProbeTrack03	1	ProbeTrackDT	1.1	SCS215a	20101027.090358	20101027.090721	single-task	8	0.013343	60	0	60-180	60	146	NoGap	1	32	2	45	1	target	1	840	580	16138	13.328	13.075	13.573
DTProbeTrack03	1	ProbeTrackDT	1.1	SCS215a	20101027.090358	20101027.090728	single-task	8	0.013343	60	0	60-180	60	122	NoGap	1	33	2	3	0	distractor	1	973	514	16652	13.328	13.092	13.567
DTProbeTrack03	1	ProbeTrackDT	1.1	SCS215a	20101027.090358	20101027.090734	single-task	8	0.013343	60	0	60-180	60	129	NoGap	1	34	2	6	0	distractor	1	694	653	17305	13.378	13.309	26.649
DTProbeTrack03	1	ProbeTrackDT	1.1	SCS215a	20101027.090358	20101027.090739	single-task	8	0.013343	60	0	60-180	60	120	NoGap	1	35	2	45	1	target	1	947	527	17832	13.550	12.872	26.659
DTProbeTrack03	1	ProbeTrackDT	1.1	SCS215a	20101027.090358	20101027.090746	single-task	8	0.013343	60	0	60-180	60	176	NoGap	1	36	2	6	1	target	1	560	720	18552	13.328	13.307	13.357
DTProbeTrack03	1	ProbeTrackDT	1.1	SCS215a	20101027.090358	20101027.090752	single-task	8	0.013343	60	0	60-180	60	63	NoGap	1	37	2	1	1	target	1	613	694	19246	13.328	13.297	13.352
DTProbeTrack03	1	ProbeTrackDT	1.1	SCS215a	20101027.090358	20101027.090757	single-task	8	0.013343	60	0	60-180	60	96	NoGap	1	38	2	1	0	distractor	1	613	694	19940	13.328	13.101	13.546
DTProbeTrack03	1	ProbeTrackDT	1.1	SCS215a	20101027.090358	20101027.090802	single-task	8	0.013343	60	0	60-180	60	93	NoGap	1	39	2	3	1	target	1	587	707	20647	13.328	12.930	13.727
DTProbeTrack03	1	ProbeTrackDT	1.1	SCS215a	20101027.090358	20101027.090807	single-task	8	0.013343	60	0	60-180	60	84	NoGap	1	40	2	1	1	target	1	520	740	21387	13.328	13.049	13.621
DTProbeTrack03	1	ProbeTrackDT	1.1	SCS215a	20101027.090912	20101027.090928	single-task	8	0.013328	60	10	60-180	60	109	GapPrac	1	1	2	1	1	target	1	800	600	21987	13.328	13.098	13.547
DTProbeTrack03	1	ProbeTrackDT	1.1	SCS215a	20101027.090912	20101027.090933	single-task	8	0.013328	60	10	60-180	60	132	GapPrac	1	2	2	45	1	target	1	893	554	22541	13.328	13.103	13.553
DTProbeTrack03	1	ProbeTrackDT	1.1	SCS215a	20101027.090912	20101027.090940	single-task	8	0.013328	60	10	60-180	60	160	GapPrac	1	3	2	9	0	distractor	1	560	720	23261	13.328	13.099	13.542
DTProbeTrack03	1	ProbeTrackDT	1.1	SCS215a	20101027.090912	20101027.090946	single-task	8	0.013328	60	10	60-180	60	150	GapPrac	1	4	2	9	1	target	1	680	660	23921	13.328	13.087	13.573
DTProbeTrack03	1	ProbeTrackDT	1.1	SCS215a	20101027.090912	20101027.090953	single-task	8	0.013328	60	10	60-180	60	62	GapPrac	1	5	2	1	0	distractor	1	640	680	24601	13.328	13.308	13.358
DTProbeTrack03	1	ProbeTrackDT	1.1	SCS215a	20101027.090912	20101027.090958	single-task	8	0.013328	60	10	60-180	60	78	GapPrac	1	6	2	3	0	distractor	1	733	634	25235	13.328	13.293	13.377
DTProbeTrack03	1	ProbeTrackDT	1.1	SCS215a	20101027.090912	20101027.091003	single-task	8	0.013328	60	10	60-180	60	175	GapPrac	1	7	2	3	1	target	1	600	700	25935	13.328	13.256	13.397
DTProbeTrack03	1	ProbeTrackDT	1.1	SCS215a	20101027.090912	20101027.091009	single-task	8	0.013328	60	10	60-180	60	66	GapPrac	1	8	2	45	0	distractor	1	720	640	26575	13.328	13.091	13.568
DTProbeTrack03	1	ProbeTrackDT	1.1	SCS215a	20101027.090912	20101027.091015	single-task	8	0.013328	60	10	60-180	60	161	GapPrac	1	9	2	45	0	distractor	1	680	660	27235	13.328	12.844	13.828
DTProbeTrack03	1	ProbeTrackDT	1.1	SCS215a	20101027.090912	20101027.091022	single-task	8	0.013328	60	10	60-180	60	154	GapPrac	1	10	2	6	0	distractor	1	653	674	27909	13.373	12.873	26.952
DTProbeTrack03	1	ProbeTrackDT	1.1	SCS215a	20101027.090912	20101027.091028	single-task	8	0.013328	60	10	60-180	60	80	GapPrac	1	11	2	9	1	target	1	654	673	28582	14.583	12.869	53.311
DTProbeTrack03	1	ProbeTrackDT	1.1	SCS215a	20101027.090912	20101027.091034	single-task	8	0.013328	60	10	60-180	60	101	GapPrac	1	12	2	3	1	target	1	640	680	29262	13.383	13.210	26.626
DTProbeTrack03	1	ProbeTrackDT	1.1	SCS215a	20101027.090912	20101027.091039	single-task	8	0.013328	60	10	60-180	60	114	GapPrac	1	13	2	1	0	distractor	1	667	667	29929	13.328	12.864	13.782
DTProbeTrack03	1	ProbeTrackDT	1.1	SCS215a	20101027.090912	20101027.091045	single-task	8	0.013328	60	10	60-180	60	94	GapPrac	1	14	2	9	0	distractor	1	560	720	30649	13.328	13.110	13.541
DTProbeTrack03	1	ProbeTrackDT	1.1	SCS215a	20101027.090912	20101027.091050	single-task	8	0.013328	60	10	60-180	60	61	GapPrac	1	15	2	1	1	target	1	600	700	31349	13.328	13.308	13.356
DTProbeTrack03	1	ProbeTrackDT	1.1	SCS215a	20101027.090912	20101027.091055	single-task	8	0.013328	60	10	60-180	60	78	GapPrac	1	16	2	3	0	distractor	1	587	707	32056	13.328	13.306	13.348
DTProbeTrack03	1	ProbeTrackDT	1.1	SCS215a	20101027.090912	20101027.091100	single-task	8	0.013328	60	10	60-180	60	152	GapPrac	1	17	2	6	0	target	0	640	-1000	31056	13.328	12.869	13.792
DTProbeTrack03	1	ProbeTrackDT	1.1	SCS215a	20101027.090912	20101027.091106	single-task	8	0.013328	60	10	60-180	60	74	GapPrac	1	18	2	6	1	target	1	614	693	31749	13.328	13.093	13.573
DTProbeTrack03	1	ProbeTrackDT	1.1	SCS215a	20101027.090912	20101027.091111	single-task	8	0.013328	60	10	60-180	60	169	GapPrac	1	19	2	45	1	target	1	893	554	32303	13.328	13.305	13.356
DTProbeTrack03	1	ProbeTrackDT	1.1	SCS215a	20101027.090912	20101027.091119	single-task	8	0.013328	60	10	60-180	60	78	GapPrac	1	20	2	6	1	target	1	733	634	32937	13.328	13.098	13.570
DTProbeTrack03	1	ProbeTrackDT	1.1	SCS215a	20101027.091157	20101027.091205	single-task	8	0.013328	60	10	60-180	60	145	GapExp	1	1	2	1	0	distractor	1	614	693	33630	13.328	13.310	13.346
DTProbeTrack03	1	ProbeTrackDT	1.1	SCS215a	20101027.091157	20101027.091211	single-task	8	0.013328	60	10	60-180	60	162	GapExp	1	2	2	45	1	target	1	720	640	34270	13.328	13.210	13.447
DTProbeTrack03	1	ProbeTrackDT	1.1	SCS215a	20101027.091157	20101027.091219	single-task	8	0.013328	60	10	60-180	60	175	GapExp	1	3	2	1	1	target	1	547	727	34997	13.328	13.145	13.510
DTProbeTrack03	1	ProbeTrackDT	1.1	SCS215a	20101027.091157	20101027.091225	single-task	8	0.013328	60	10	60-180	60	74	GapExp	1	4	2	3	0	distractor	1	773	614	35611	13.328	13.178	13.482
DTProbeTrack03	1	ProbeTrackDT	1.1	SCS215a	20101027.091157	20101027.091230	single-task	8	0.013328	60	10	60-180	60	123	GapExp	1	5	2	9	1	target	1	574	713	36324	13.328	12.925	13.743
DTProbeTrack03	1	ProbeTrackDT	1.1	SCS215a	20101027.091157	20101027.091236	single-task	8	0.013328	60	10	60-180	60	127	GapExp	0	6	2	9	1	target	1	547	727	37051	13.328	13.101	13.558
DTProbeTrack03	1	ProbeTrackDT	1.1	SCS215a	20101027.091157	20101027.091242	single-task	8	0.013328	60	10	60-180	60	164	GapExp	0	7	2	6	1	target	1	667	667	37718	13.328	12.910	13.750
DTProbeTrack03	1	ProbeTrackDT	1.1	SCS215a	20101027.091157	20101027.091248	single-task	8	0.013328	60	10	60-180	60	104	GapExp	0	8	2	1	0	distractor	1	787	607	38325	13.328	13.292	13.373
DTProbeTrack03	1	ProbeTrackDT	1.1	SCS215a	20101027.091157	20101027.091254	single-task	8	0.013328	60	10	60-180	60	138	GapExp	0	9	2	3	1	target	1	547	727	39052	13.328	12.881	13.766
DTProbeTrack03	1	ProbeTrackDT	1.1	SCS215a	20101027.091157	20101027.091300	single-task	8	0.013328	60	10	60-180	60	102	GapExp	0	10	2	1	0	distractor	1	667	667	39719	13.328	13.307	13.350
DTProbeTrack03	1	ProbeTrackDT	1.1	SCS215a	20101027.091157	20101027.091305	single-task	8	0.013328	60	10	60-180	60	108	GapExp	0	11	2	45	0	distractor	1	707	647	40366	13.328	13.102	13.551
DTProbeTrack03	1	ProbeTrackDT	1.1	SCS215a	20101027.091157	20101027.091312	single-task	8	0.013328	60	10	60-180	60	129	GapExp	0	12	2	9	1	target	1	480	760	41126	13.328	12.861	13.792
DTProbeTrack03	1	ProbeTrackDT	1.1	SCS215a	20101027.091157	20101027.091317	single-task	8	0.013328	60	10	60-180	60	98	GapExp	0	13	2	6	1	target	1	507	747	41873	13.328	13.107	13.551
DTProbeTrack03	1	ProbeTrackDT	1.1	SCS215a	20101027.091157	20101027.091323	single-task	8	0.013328	60	10	60-180	60	111	GapExp	0	14	2	6	0	distractor	1	667	667	42540	13.328	13.312	13.351
DTProbeTrack03	1	ProbeTrackDT	1.1	SCS215a	20101027.091157	20101027.091328	single-task	8	0.013328	60	10	60-180	60	102	GapExp	0	15	2	1	1	target	1	467	767	43307	13.328	13.308	13.347
DTProbeTrack03	1	ProbeTrackDT	1.1	SCS215a	20101027.091157	20101027.091334	single-task	8	0.013328	60	10	60-180	60	100	GapExp	0	16	2	9	0	distractor	1	534	733	44040	13.328	13.083	13.562
DTProbeTrack03	1	ProbeTrackDT	1.1	SCS215a	20101027.091157	20101027.091339	single-task	8	0.013328	60	10	60-180	60	129	GapExp	0	17	2	6	1	target	1	520	740	44780	13.328	12.842	13.809
DTProbeTrack03	1	ProbeTrackDT	1.1	SCS215a	20101027.091157	20101027.091345	single-task	8	0.013328	60	10	60-180	60	99	GapExp	0	18	2	6	0	distractor	1	680	660	45440	13.328	13.304	13.348
DTProbeTrack03	1	ProbeTrackDT	1.1	SCS215a	20101027.091157	20101027.091350	single-task	8	0.013328	60	10	60-180	60	177	GapExp	0	19	2	45	0	target	0	494	-1000	44440	13.328	13.075	13.588
DTProbeTrack03	1	ProbeTrackDT	1.1	SCS215a	20101027.091157	20101027.091357	single-task	8	0.013328	60	10	60-180	60	128	GapExp	0	20	2	9	0	distractor	1	693	654	45094	13.328	13.279	13.372
DTProbeTrack03	1	ProbeTrackDT	1.1	SCS215a	20101027.091157	20101027.091403	single-task	8	0.013328	60	10	60-180	60	136	GapExp	0	21	2	45	1	target	1	520	740	45834	13.328	12.905	13.764
DTProbeTrack03	1	ProbeTrackDT	1.1	SCS215a	20101027.091157	20101027.091410	single-task	8	0.013328	60	10	60-180	60	128	GapExp	0	22	2	1	0	distractor	1	868	566	46400	13.328	12.978	13.668
DTProbeTrack03	1	ProbeTrackDT	1.1	SCS215a	20101027.091157	20101027.091416	single-task	8	0.013328	60	10	60-180	60	134	GapExp	0	23	2	6	0	distractor	1	560	720	47120	13.328	12.918	13.741
DTProbeTrack03	1	ProbeTrackDT	1.1	SCS215a	20101027.091157	20101027.091422	single-task	8	0.013328	60	10	60-180	60	161	GapExp	0	24	2	9	0	distractor	1	534	733	47853	13.328	13.092	13.554
DTProbeTrack03	1	ProbeTrackDT	1.1	SCS215a	20101027.091157	20101027.091428	single-task	8	0.013328	60	10	60-180	60	139	GapExp	0	25	2	6	1	target	1	507	747	48600	13.328	13.097	13.553
DTProbeTrack03	1	ProbeTrackDT	1.1	SCS215a	20101027.091157	20101027.091434	single-task	8	0.013328	60	10	60-180	60	127	GapExp	0	26	2	1	1	target	1	454	773	49373	13.328	12.840	13.832
DTProbeTrack03	1	ProbeTrackDT	1.1	SCS215a	20101027.091157	20101027.091439	single-task	8	0.013328	60	10	60-180	60	121	GapExp	0	27	2	1	0	distractor	1	667	667	50040	13.328	13.308	13.353
DTProbeTrack03	1	ProbeTrackDT	1.1	SCS215a	20101027.091157	20101027.091445	single-task	8	0.013328	60	10	60-180	60	111	GapExp	0	28	2	9	0	distractor	1	627	687	50727	13.328	13.289	13.368
DTProbeTrack03	1	ProbeTrackDT	1.1	SCS215a	20101027.091157	20101027.091451	single-task	8	0.013328	60	10	60-180	60	67	GapExp	0	29	2	45	0	distractor	1	587	707	51434	13.328	13.117	13.553
DTProbeTrack03	1	ProbeTrackDT	1.1	SCS215a	20101027.091157	20101027.091456	single-task	8	0.013328	60	10	60-180	60	91	GapExp	0	30	2	3	1	target	1	587	707	52141	13.328	13.087	13.564
DTProbeTrack03	1	ProbeTrackDT	1.1	SCS215a	20101027.091157	20101027.091501	single-task	8	0.013328	60	10	60-180	60	165	GapExp	0	31	2	9	1	target	1	587	707	52848	13.328	13.264	13.382
DTProbeTrack03	1	ProbeTrackDT	1.1	SCS215a	20101027.091157	20101027.091508	single-task	8	0.013328	60	10	60-180	60	87	GapExp	0	32	2	1	0	distractor	1	853	574	53422	13.328	13.305	13.351
DTProbeTrack03	1	ProbeTrackDT	1.1	SCS215a	20101027.091157	20101027.091513	single-task	8	0.013328	60	10	60-180	60	103	GapExp	0	33	2	3	1	target	1	494	753	54175	13.328	13.307	13.349
DTProbeTrack03	1	ProbeTrackDT	1.1	SCS215a	20101027.091157	20101027.091518	single-task	8	0.013328	60	10	60-180	60	83	GapExp	0	34	2	6	1	target	1	414	793	54968	13.328	13.115	13.541
DTProbeTrack03	1	ProbeTrackDT	1.1	SCS215a	20101027.091157	20101027.091523	single-task	8	0.013328	60	10	60-180	60	97	GapExp	0	35	2	9	0	distractor	1	560	720	55688	13.328	13.100	13.546
DTProbeTrack03	1	ProbeTrackDT	1.1	SCS215a	20101027.091157	20101027.091529	single-task	8	0.013328	60	10	60-180	60	165	GapExp	0	36	2	3	1	target	1	480	760	56448	13.328	13.256	13.411
DTProbeTrack03	1	ProbeTrackDT	1.1	SCS215a	20101027.091157	20101027.091535	single-task	8	0.013328	60	10	60-180	60	106	GapExp	0	37	2	9	1	target	1	414	793	57241	13.328	12.852	13.815
DTProbeTrack03	1	ProbeTrackDT	1.1	SCS215a	20101027.091157	20101027.091540	single-task	8	0.013328	60	10	60-180	60	145	GapExp	0	38	2	3	0	distractor	1	547	727	57968	13.328	13.306	13.352
DTProbeTrack03	1	ProbeTrackDT	1.1	SCS215a	20101027.091157	20101027.091546	single-task	8	0.013328	60	10	60-180	60	116	GapExp	0	39	2	45	0	distractor	1	560	720	58688	13.328	13.087	13.555
DTProbeTrack03	1	ProbeTrackDT	1.1	SCS215a	20101027.091157	20101027.091552	single-task	8	0.013328	60	10	60-180	60	93	GapExp	0	40	2	3	0	distractor	1	560	720	59408	13.387	12.875	27.037
DTProbeTrack03	1	ProbeTrackDT	1.1	SCS215a	20101027.091157	20101027.091558	single-task	8	0.013328	60	10	60-180	60	98	GapExp	0	41	2	1	1	target	1	560	720	60128	13.328	13.306	13.355
DTProbeTrack03	1	ProbeTrackDT	1.1	SCS215a	20101027.091157	20101027.091603	single-task	8	0.013328	60	10	60-180	60	70	GapExp	0	42	2	6	1	target	1	480	760	60888	13.328	13.310	13.348
DTProbeTrack03	1	ProbeTrackDT	1.1	SCS215a	20101027.091157	20101027.091608	single-task	8	0.013328	60	10	60-180	60	103	GapExp	0	43	2	6	1	target	1	400	800	61688	13.328	12.921	13.726
DTProbeTrack03	1	ProbeTrackDT	1.1	SCS215a	20101027.091157	20101027.091613	single-task	8	0.013328	60	10	60-180	60	112	GapExp	0	44	2	9	1	target	1	454	773	62461	13.328	13.307	13.348
DTProbeTrack03	1	ProbeTrackDT	1.1	SCS215a	20101027.091157	20101027.091619	single-task	8	0.013328	60	10	60-180	60	102	GapExp	0	45	2	9	1	target	1	613	694	63155	13.328	12.953	13.707
DTProbeTrack03	1	ProbeTrackDT	1.1	SCS215a	20101027.091157	20101027.091624	single-task	8	0.013328	60	10	60-180	60	85	GapExp	0	46	2	9	1	target	1	614	693	63848	13.328	13.308	13.348
DTProbeTrack03	1	ProbeTrackDT	1.1	SCS215a	20101027.091157	20101027.091629	single-task	8	0.013328	60	10	60-180	60	93	GapExp	0	47	2	45	0	distractor	1	587	707	64555	13.328	13.308	13.356
DTProbeTrack03	1	ProbeTrackDT	1.1	SCS215a	20101027.091157	20101027.091635	single-task	8	0.013328	60	10	60-180	60	72	GapExp	0	48	2	9	1	target	1	400	800	65355	13.328	12.917	13.734
DTProbeTrack03	1	ProbeTrackDT	1.1	SCS215a	20101027.091157	20101027.091640	single-task	8	0.013328	60	10	60-180	60	126	GapExp	0	49	2	3	0	distractor	1	574	713	66068	13.328	12.851	13.798
DTProbeTrack03	1	ProbeTrackDT	1.1	SCS215a	20101027.091157	20101027.091646	single-task	8	0.013328	60	10	60-180	60	100	GapExp	0	50	2	9	1	target	1	560	720	66788	13.328	13.307	13.354
DTProbeTrack03	1	ProbeTrackDT	1.1	SCS215a	20101027.091157	20101027.091659	single-task	8	0.013328	60	10	60-180	60	97	GapExp	0	51	2	6	1	target	1	560	720	67508	13.328	13.307	13.347
DTProbeTrack03	1	ProbeTrackDT	1.1	SCS215a	20101027.091157	20101027.091704	single-task	8	0.013328	60	10	60-180	60	62	GapExp	0	52	2	9	1	target	1	587	707	68215	13.328	12.903	13.782
DTProbeTrack03	1	ProbeTrackDT	1.1	SCS215a	20101027.091157	20101027.091709	single-task	8	0.013328	60	10	60-180	60	70	GapExp	0	53	2	3	0	distractor	1	507	747	68962	13.328	13.103	13.549
DTProbeTrack03	1	ProbeTrackDT	1.1	SCS215a	20101027.091157	20101027.091714	single-task	8	0.013328	60	10	60-180	60	100	GapExp	0	54	2	3	0	distractor	1	547	727	69689	13.328	12.876	13.775
DTProbeTrack03	1	ProbeTrackDT	1.1	SCS215a	20101027.091157	20101027.091719	single-task	8	0.013328	60	10	60-180	60	102	GapExp	0	55	2	9	0	distractor	1	534	733	70422	13.328	12.976	13.687
DTProbeTrack03	1	ProbeTrackDT	1.1	SCS215a	20101027.091157	20101027.091725	single-task	8	0.013328	60	10	60-180	60	147	GapExp	0	56	2	3	1	target	1	360	820	71242	13.328	13.117	13.535
DTProbeTrack03	1	ProbeTrackDT	1.1	SCS215a	20101027.091157	20101027.091731	single-task	8	0.013328	60	10	60-180	60	173	GapExp	0	57	2	3	0	distractor	1	653	674	71916	13.328	13.117	13.538
DTProbeTrack03	1	ProbeTrackDT	1.1	SCS215a	20101027.091157	20101027.091737	single-task	8	0.013328	60	10	60-180	60	109	GapExp	0	58	2	6	1	target	1	494	753	72669	13.328	12.829	13.828
DTProbeTrack03	1	ProbeTrackDT	1.1	SCS215a	20101027.091157	20101027.091742	single-task	8	0.013328	60	10	60-180	60	85	GapExp	0	59	2	1	1	target	1	454	773	73442	13.328	13.298	13.348
DTProbeTrack03	1	ProbeTrackDT	1.1	SCS215a	20101027.091157	20101027.091747	single-task	8	0.013328	60	10	60-180	60	74	GapExp	0	60	2	45	0	distractor	1	600	700	74142	13.328	13.306	13.348
DTProbeTrack03	1	ProbeTrackDT	1.1	SCS215a	20101027.091157	20101027.091753	single-task	8	0.013328	60	10	60-180	60	103	GapExp	0	61	2	3	0	distractor	1	587	707	74849	13.328	13.309	13.349
DTProbeTrack03	1	ProbeTrackDT	1.1	SCS215a	20101027.091157	20101027.091758	single-task	8	0.013328	60	10	60-180	60	117	GapExp	0	62	2	45	1	target	1	560	720	75569	13.328	13.095	13.561
DTProbeTrack03	1	ProbeTrackDT	1.1	SCS215a	20101027.091157	20101027.091805	single-task	8	0.013328	60	10	60-180	60	82	GapExp	0	63	2	45	1	target	1	507	747	76316	13.328	13.105	13.553
DTProbeTrack03	1	ProbeTrackDT	1.1	SCS215a	20101027.091157	20101027.091810	single-task	8	0.013328	60	10	60-180	60	64	GapExp	0	64	2	1	1	target	1	707	647	76963	13.328	13.300	13.345
DTProbeTrack03	1	ProbeTrackDT	1.1	SCS215a	20101027.091157	20101027.091815	single-task	8	0.013328	60	10	60-180	60	73	GapExp	0	65	2	1	0	distractor	1	680	660	77623	13.328	13.310	13.345
DTProbeTrack03	1	ProbeTrackDT	1.1	SCS215a	20101027.091157	20101027.091820	single-task	8	0.013328	60	10	60-180	60	114	GapExp	0	66	2	1	0	distractor	1	613	694	78317	13.328	13.094	13.569
DTProbeTrack03	1	ProbeTrackDT	1.1	SCS215a	20101027.091157	20101027.091826	single-task	8	0.013328	60	10	60-180	60	146	GapExp	0	67	2	3	1	target	1	414	793	79110	13.328	13.112	13.537
DTProbeTrack03	1	ProbeTrackDT	1.1	SCS215a	20101027.091157	20101027.091832	single-task	8	0.013328	60	10	60-180	60	140	GapExp	0	68	2	9	0	distractor	1	613	694	79804	13.328	12.863	13.799
DTProbeTrack03	1	ProbeTrackDT	1.1	SCS215a	20101027.091157	20101027.091838	single-task	8	0.013328	60	10	60-180	60	94	GapExp	0	69	2	45	1	target	1	480	760	80564	13.328	13.308	13.346
DTProbeTrack03	1	ProbeTrackDT	1.1	SCS215a	20101027.091157	20101027.091843	single-task	8	0.013328	60	10	60-180	60	148	GapExp	0	70	2	6	0	distractor	1	547	727	81291	13.328	13.307	13.348
DTProbeTrack03	1	ProbeTrackDT	1.1	SCS215a	20101027.091157	20101027.091849	single-task	8	0.013328	60	10	60-180	60	74	GapExp	0	71	2	45	1	target	1	640	680	81971	13.328	13.309	13.350
DTProbeTrack03	1	ProbeTrackDT	1.1	SCS215a	20101027.091157	20101027.091855	single-task	8	0.013328	60	10	60-180	60	117	GapExp	0	72	2	9	0	target	0	733	-1000	80971	13.328	13.088	13.568
DTProbeTrack03	1	ProbeTrackDT	1.1	SCS215a	20101027.091157	20101027.091901	single-task	8	0.013328	60	10	60-180	60	156	GapExp	0	73	2	6	0	target	0	467	-1000	79971	13.328	13.306	13.348
DTProbeTrack03	1	ProbeTrackDT	1.1	SCS215a	20101027.091157	20101027.091907	single-task	8	0.013328	60	10	60-180	60	134	GapExp	0	74	2	6	1	target	1	494	753	80724	13.328	13.098	13.568
DTProbeTrack03	1	ProbeTrackDT	1.1	SCS215a	20101027.091157	20101027.091913	single-task	8	0.013328	60	10	60-180	60	121	GapExp	0	75	2	6	0	distractor	1	547	727	81451	13.328	13.308	13.349
DTProbeTrack03	1	ProbeTrackDT	1.1	SCS215a	20101027.091157	20101027.091918	single-task	8	0.013328	60	10	60-180	60	121	GapExp	0	76	2	3	0	distractor	1	520	740	82191	13.328	13.309	13.346
DTProbeTrack03	1	ProbeTrackDT	1.1	SCS215a	20101027.091157	20101027.091924	single-task	8	0.013328	60	10	60-180	60	178	GapExp	0	77	2	1	1	target	1	414	793	82984	13.328	13.099	13.571
DTProbeTrack03	1	ProbeTrackDT	1.1	SCS215a	20101027.091157	20101027.091930	single-task	8	0.013328	60	10	60-180	60	145	GapExp	0	78	2	3	1	target	1	494	753	83737	13.328	13.065	13.593
DTProbeTrack03	1	ProbeTrackDT	1.1	SCS215a	20101027.091157	20101027.091936	single-task	8	0.013328	60	10	60-180	60	130	GapExp	0	79	2	6	0	distractor	1	507	747	84484	13.328	13.100	13.559
DTProbeTrack03	1	ProbeTrackDT	1.1	SCS215a	20101027.091157	20101027.091942	single-task	8	0.013328	60	10	60-180	60	151	GapExp	0	80	2	45	1	target	1	534	733	85217	13.328	13.088	13.561
DTProbeTrack03	1	ProbeTrackDT	1.1	SCS215a	20101027.091157	20101027.091948	single-task	8	0.013328	60	10	60-180	60	125	GapExp	0	81	2	6	0	distractor	1	587	707	85924	13.328	13.307	13.348
DTProbeTrack03	1	ProbeTrackDT	1.1	SCS215a	20101027.091157	20101027.091954	single-task	8	0.013328	60	10	60-180	60	152	GapExp	0	82	2	1	0	distractor	1	547	727	86651	13.328	13.305	13.347
DTProbeTrack03	1	ProbeTrackDT	1.1	SCS215a	20101027.091157	20101027.092000	single-task	8	0.013328	60	10	60-180	60	130	GapExp	0	83	2	3	0	distractor	1	547	727	87378	13.328	13.023	13.629
DTProbeTrack03	1	ProbeTrackDT	1.1	SCS215a	20101027.091157	20101027.092006	single-task	8	0.013328	60	10	60-180	60	69	GapExp	0	84	2	1	1	target	1	520	740	88118	13.328	13.308	13.346
DTProbeTrack03	1	ProbeTrackDT	1.1	SCS215a	20101027.091157	20101027.092011	single-task	8	0.013328	60	10	60-180	60	154	GapExp	0	85	2	6	1	target	1	440	780	88898	13.328	12.949	13.721
DTProbeTrack03	1	ProbeTrackDT	1.1	SCS215a	20101027.091157	20101027.092017	single-task	8	0.013328	60	10	60-180	60	150	GapExp	0	86	2	6	0	distractor	1	693	654	89552	13.328	13.100	13.559
DTProbeTrack03	1	ProbeTrackDT	1.1	SCS215a	20101027.091157	20101027.092023	single-task	8	0.013328	60	10	60-180	60	68	GapExp	0	87	2	1	0	distractor	1	574	713	90265	13.328	13.294	13.360
DTProbeTrack03	1	ProbeTrackDT	1.1	SCS215a	20101027.091157	20101027.092028	single-task	8	0.013328	60	10	60-180	60	94	GapExp	0	88	2	3	1	target	1	547	727	90992	13.328	13.309	13.347
DTProbeTrack03	1	ProbeTrackDT	1.1	SCS215a	20101027.091157	20101027.092033	single-task	8	0.013328	60	10	60-180	60	146	GapExp	0	89	2	1	1	target	1	427	787	91779	13.328	13.097	13.569
DTProbeTrack03	1	ProbeTrackDT	1.1	SCS215a	20101027.091157	20101027.092039	single-task	8	0.013328	60	10	60-180	60	179	GapExp	0	90	2	6	0	distractor	1	560	720	92499	13.328	13.307	13.352
DTProbeTrack03	1	ProbeTrackDT	1.1	SCS215a	20101027.091157	20101027.092045	single-task	8	0.013328	60	10	60-180	60	139	GapExp	0	91	2	45	1	target	1	520	740	93239	13.328	13.091	13.561
DTProbeTrack03	1	ProbeTrackDT	1.1	SCS215a	20101027.091157	20101027.092052	single-task	8	0.013328	60	10	60-180	60	156	GapExp	0	92	2	9	0	distractor	1	574	713	93952	13.328	13.101	13.557
DTProbeTrack03	1	ProbeTrackDT	1.1	SCS215a	20101027.091157	20101027.092058	single-task	8	0.013328	60	10	60-180	60	62	GapExp	0	93	2	45	0	distractor	1	627	687	94639	13.328	13.295	13.357
DTProbeTrack03	1	ProbeTrackDT	1.1	SCS215a	20101027.091157	20101027.092104	single-task	8	0.013328	60	10	60-180	60	79	GapExp	0	94	2	9	0	distractor	1	720	640	95279	13.328	13.307	13.345
DTProbeTrack03	1	ProbeTrackDT	1.1	SCS215a	20101027.091157	20101027.092109	single-task	8	0.013328	60	10	60-180	60	117	GapExp	0	95	2	6	1	target	1	480	760	96039	13.328	13.098	13.544
DTProbeTrack03	1	ProbeTrackDT	1.1	SCS215a	20101027.091157	20101027.092114	single-task	8	0.013328	60	10	60-180	60	118	GapExp	0	96	2	9	0	distractor	1	640	680	96719	13.328	13.310	13.347
DTProbeTrack03	1	ProbeTrackDT	1.1	SCS215a	20101027.091157	20101027.092120	single-task	8	0.013328	60	10	60-180	60	174	GapExp	0	97	2	9	1	target	1	507	747	97466	13.371	13.090	26.651
DTProbeTrack03	1	ProbeTrackDT	1.1	SCS215a	20101027.091157	20101027.092127	single-task	8	0.013328	60	10	60-180	60	70	GapExp	0	98	2	1	1	target	1	547	727	98193	13.328	13.307	13.345
DTProbeTrack03	1	ProbeTrackDT	1.1	SCS215a	20101027.091157	20101027.092132	single-task	8	0.013328	60	10	60-180	60	112	GapExp	0	99	2	45	0	distractor	1	640	680	98873	13.328	13.306	13.346
DTProbeTrack03	1	ProbeTrackDT	1.1	SCS215a	20101027.091157	20101027.092138	single-task	8	0.013328	60	10	60-180	60	97	GapExp	0	100	2	9	0	distractor	1	707	647	99520	13.544	13.295	26.657
DTProbeTrack03	1	ProbeTrackDT	1.1	SCS215a	20101027.091157	20101027.092150	single-task	8	0.013328	60	10	60-180	60	158	GapExp	0	101	2	9	0	distractor	1	640	680	100200	13.328	13.101	13.550
DTProbeTrack03	1	ProbeTrackDT	1.1	SCS215a	20101027.091157	20101027.092157	single-task	8	0.013328	60	10	60-180	60	167	GapExp	0	102	2	1	1	distractor	0	680	-1000	99200	13.328	13.101	13.550
DTProbeTrack03	1	ProbeTrackDT	1.1	SCS215a	20101027.091157	20101027.092203	single-task	8	0.013328	60	10	60-180	60	130	GapExp	0	103	2	3	0	distractor	1	614	693	99893	13.328	12.932	13.720
DTProbeTrack03	1	ProbeTrackDT	1.1	SCS215a	20101027.091157	20101027.092209	single-task	8	0.013328	60	10	60-180	60	105	GapExp	0	104	2	45	0	distractor	1	547	727	100620	13.328	13.098	13.558
DTProbeTrack03	1	ProbeTrackDT	1.1	SCS215a	20101027.091157	20101027.092215	single-task	8	0.013328	60	10	60-180	60	154	GapExp	0	105	2	3	1	target	1	534	733	101353	13.328	13.291	13.347
DTProbeTrack03	1	ProbeTrackDT	1.1	SCS215a	20101027.091157	20101027.092221	single-task	8	0.013328	60	10	60-180	60	85	GapExp	0	106	2	3	0	distractor	1	560	720	102073	13.328	12.936	13.736
DTProbeTrack03	1	ProbeTrackDT	1.1	SCS215a	20101027.091157	20101027.092226	single-task	8	0.013328	60	10	60-180	60	120	GapExp	0	107	2	6	0	distractor	1	587	707	102780	13.328	12.991	13.669
DTProbeTrack03	1	ProbeTrackDT	1.1	SCS215a	20101027.091157	20101027.092231	single-task	8	0.013328	60	10	60-180	60	100	GapExp	0	108	2	1	0	distractor	1	534	733	103513	13.328	13.100	13.546
DTProbeTrack03	1	ProbeTrackDT	1.1	SCS215a	20101027.091157	20101027.092237	single-task	8	0.013328	60	10	60-180	60	170	GapExp	0	109	2	1	0	distractor	1	773	614	104127	13.328	13.098	13.553
DTProbeTrack03	1	ProbeTrackDT	1.1	SCS215a	20101027.091157	20101027.092243	single-task	8	0.013328	60	10	60-180	60	61	GapExp	0	110	2	9	0	distractor	1	640	680	104807	13.328	13.310	13.345
DTProbeTrack03	1	ProbeTrackDT	1.1	SCS215a	20101027.091157	20101027.092248	single-task	8	0.013328	60	10	60-180	60	135	GapExp	0	111	2	1	1	distractor	0	560	-1000	103807	13.328	13.078	13.583
DTProbeTrack03	1	ProbeTrackDT	1.1	SCS215a	20101027.091157	20101027.092254	single-task	8	0.013328	60	10	60-180	60	169	GapExp	0	112	2	1	1	target	1	574	713	104520	13.328	13.293	13.361
DTProbeTrack03	1	ProbeTrackDT	1.1	SCS215a	20101027.091157	20101027.092300	single-task	8	0.013328	60	10	60-180	60	73	GapExp	0	113	2	9	1	target	1	707	647	105167	13.328	13.115	13.544
DTProbeTrack03	1	ProbeTrackDT	1.1	SCS215a	20101027.091157	20101027.092305	single-task	8	0.013328	60	10	60-180	60	94	GapExp	0	114	2	3	0	distractor	1	653	674	105841	13.328	13.114	13.552
DTProbeTrack03	1	ProbeTrackDT	1.1	SCS215a	20101027.091157	20101027.092311	single-task	8	0.013328	60	10	60-180	60	164	GapExp	0	115	2	1	0	distractor	1	680	660	106501	13.328	13.306	13.346
DTProbeTrack03	1	ProbeTrackDT	1.1	SCS215a	20101027.091157	20101027.092317	single-task	8	0.013328	60	10	60-180	60	167	GapExp	0	116	2	9	0	distractor	1	507	747	107248	13.328	12.881	13.761
DTProbeTrack03	1	ProbeTrackDT	1.1	SCS215a	20101027.091157	20101027.092324	single-task	8	0.013328	60	10	60-180	60	146	GapExp	0	117	2	1	1	target	1	587	707	107955	13.328	13.309	13.346
DTProbeTrack03	1	ProbeTrackDT	1.1	SCS215a	20101027.091157	20101027.092330	single-task	8	0.013328	60	10	60-180	60	159	GapExp	0	118	2	3	1	target	1	614	693	108648	13.328	13.309	13.347
DTProbeTrack03	1	ProbeTrackDT	1.1	SCS215a	20101027.091157	20101027.092336	single-task	8	0.013328	60	10	60-180	60	158	GapExp	0	119	2	3	1	target	1	494	753	109401	13.328	13.099	13.558
DTProbeTrack03	1	ProbeTrackDT	1.1	SCS215a	20101027.091157	20101027.092342	single-task	8	0.013328	60	10	60-180	60	143	GapExp	0	120	2	1	1	target	1	547	727	110128	13.328	13.101	13.572
DTProbeTrack03	1	ProbeTrackDT	1.1	SCS215a	20101027.091157	20101027.092348	single-task	8	0.013328	60	10	60-180	60	61	GapExp	0	121	2	9	1	target	1	480	760	110888	13.328	13.099	13.559
DTProbeTrack03	1	ProbeTrackDT	1.1	SCS215a	20101027.091157	20101027.092353	single-task	8	0.013328	60	10	60-180	60	160	GapExp	0	122	2	3	0	target	0	427	-1000	109888	13.328	13.309	13.349
DTProbeTrack03	1	ProbeTrackDT	1.1	SCS215a	20101027.091157	20101027.092359	single-task	8	0.013328	60	10	60-180	60	125	GapExp	0	123	2	9	1	target	1	454	773	110661	13.328	13.309	13.346
DTProbeTrack03	1	ProbeTrackDT	1.1	SCS215a	20101027.091157	20101027.092404	single-task	8	0.013328	60	10	60-180	60	65	GapExp	0	124	2	1	0	distractor	1	640	680	111341	13.328	13.309	13.345
DTProbeTrack03	1	ProbeTrackDT	1.1	SCS215a	20101027.091157	20101027.092409	single-task	8	0.013328	60	10	60-180	60	96	GapExp	0	125	2	9	0	target	0	560	-1000	110341	13.328	13.094	13.562
DTProbeTrack03	1	ProbeTrackDT	1.1	SCS215a	20101027.091157	20101027.092415	single-task	8	0.013328	60	10	60-180	60	64	GapExp	0	126	2	3	1	target	1	467	767	111108	13.328	13.309	13.349
DTProbeTrack03	1	ProbeTrackDT	1.1	SCS215a	20101027.091157	20101027.092419	single-task	8	0.013328	60	10	60-180	60	142	GapExp	0	127	2	6	0	distractor	1	693	654	111762	13.467	12.871	53.316
DTProbeTrack03	1	ProbeTrackDT	1.1	SCS215a	20101027.091157	20101027.092426	single-task	8	0.013328	60	10	60-180	60	142	GapExp	0	128	2	9	0	distractor	1	587	707	112469	13.328	13.091	13.558
DTProbeTrack03	1	ProbeTrackDT	1.1	SCS215a	20101027.091157	20101027.092432	single-task	8	0.013328	60	10	60-180	60	173	GapExp	0	129	2	45	1	target	1	680	660	113129	13.328	13.307	13.351
DTProbeTrack03	1	ProbeTrackDT	1.1	SCS215a	20101027.091157	20101027.092439	single-task	8	0.013328	60	10	60-180	60	134	GapExp	0	130	2	6	1	target	1	494	753	113882	13.328	12.998	13.657
DTProbeTrack03	1	ProbeTrackDT	1.1	SCS215a	20101027.091157	20101027.092444	single-task	8	0.013328	60	10	60-180	60	106	GapExp	0	131	2	1	0	distractor	1	747	627	114509	13.328	13.105	13.540
DTProbeTrack03	1	ProbeTrackDT	1.1	SCS215a	20101027.091157	20101027.092450	single-task	8	0.013328	60	10	60-180	60	158	GapExp	0	132	2	45	0	distractor	1	667	667	115176	13.328	13.087	13.564
DTProbeTrack03	1	ProbeTrackDT	1.1	SCS215a	20101027.091157	20101027.092457	single-task	8	0.013328	60	10	60-180	60	113	GapExp	0	133	2	9	0	distractor	1	534	733	115909	13.328	13.278	13.385
DTProbeTrack03	1	ProbeTrackDT	1.1	SCS215a	20101027.091157	20101027.092502	single-task	8	0.013328	60	10	60-180	60	164	GapExp	0	134	2	3	1	target	1	467	767	116676	13.328	12.907	13.736
DTProbeTrack03	1	ProbeTrackDT	1.1	SCS215a	20101027.091157	20101027.092508	single-task	8	0.013328	60	10	60-180	60	122	GapExp	0	135	2	1	0	distractor	1	507	747	117423	13.328	13.299	13.359
DTProbeTrack03	1	ProbeTrackDT	1.1	SCS215a	20101027.091157	20101027.092514	single-task	8	0.013328	60	10	60-180	60	126	GapExp	0	136	2	45	1	target	1	480	760	118183	13.328	13.099	13.567
DTProbeTrack03	1	ProbeTrackDT	1.1	SCS215a	20101027.091157	20101027.092520	single-task	8	0.013328	60	10	60-180	60	178	GapExp	0	137	2	45	0	distractor	1	654	673	118856	13.328	13.103	13.565
DTProbeTrack03	1	ProbeTrackDT	1.1	SCS215a	20101027.091157	20101027.092527	single-task	8	0.013328	60	10	60-180	60	61	GapExp	0	138	2	9	1	target	1	440	780	119636	13.328	13.073	13.587
DTProbeTrack03	1	ProbeTrackDT	1.1	SCS215a	20101027.091157	20101027.092532	single-task	8	0.013328	60	10	60-180	60	71	GapExp	0	139	2	9	1	target	1	440	780	120416	13.328	13.032	13.618
DTProbeTrack03	1	ProbeTrackDT	1.1	SCS215a	20101027.091157	20101027.092537	single-task	8	0.013328	60	10	60-180	60	66	GapExp	0	140	2	1	1	target	1	534	733	121149	13.328	12.937	13.728
DTProbeTrack03	1	ProbeTrackDT	1.1	SCS215a	20101027.091157	20101027.092542	single-task	8	0.013328	60	10	60-180	60	164	GapExp	0	141	2	45	1	target	1	587	707	121856	13.328	12.929	13.745
DTProbeTrack03	1	ProbeTrackDT	1.1	SCS215a	20101027.091157	20101027.092549	single-task	8	0.013328	60	10	60-180	60	118	GapExp	0	142	2	45	1	target	1	520	740	122596	13.328	13.108	13.542
DTProbeTrack03	1	ProbeTrackDT	1.1	SCS215a	20101027.091157	20101027.092555	single-task	8	0.013328	60	10	60-180	60	155	GapExp	0	143	2	3	0	distractor	1	534	733	123329	13.328	12.893	13.766
DTProbeTrack03	1	ProbeTrackDT	1.1	SCS215a	20101027.091157	20101027.092601	single-task	8	0.013328	60	10	60-180	60	77	GapExp	0	144	2	1	0	distractor	1	680	660	123989	13.328	12.945	13.703
DTProbeTrack03	1	ProbeTrackDT	1.1	SCS215a	20101027.091157	20101027.092606	single-task	8	0.013328	60	10	60-180	60	130	GapExp	0	145	2	45	1	target	1	507	747	124736	13.328	13.302	13.347
DTProbeTrack03	1	ProbeTrackDT	1.1	SCS215a	20101027.091157	20101027.092612	single-task	8	0.013328	60	10	60-180	60	98	GapExp	0	146	2	45	1	target	1	534	733	125469	13.328	13.307	13.351
DTProbeTrack03	1	ProbeTrackDT	1.1	SCS215a	20101027.091157	20101027.092618	single-task	8	0.013328	60	10	60-180	60	154	GapExp	0	147	2	6	0	distractor	1	520	740	126209	13.328	13.284	13.381
DTProbeTrack03	1	ProbeTrackDT	1.1	SCS215a	20101027.091157	20101027.092624	single-task	8	0.013328	60	10	60-180	60	89	GapExp	0	148	2	1	0	distractor	1	627	687	126896	13.328	13.102	13.547
DTProbeTrack03	1	ProbeTrackDT	1.1	SCS215a	20101027.091157	20101027.092629	single-task	8	0.013328	60	10	60-180	60	172	GapExp	0	149	2	6	0	distractor	1	534	733	127629	13.328	13.097	13.552
DTProbeTrack03	1	ProbeTrackDT	1.1	SCS215a	20101027.091157	20101027.092636	single-task	8	0.013328	60	10	60-180	60	173	GapExp	0	150	2	45	0	distractor	1	600	700	128329	13.328	13.100	13.536
DTProbeTrack03	1	ProbeTrackDT	1.1	SCS215a	20101027.091157	20101027.092650	single-task	8	0.013328	60	10	60-180	60	83	GapExp	0	151	2	3	1	target	1	773	614	128943	13.328	12.925	13.719
DTProbeTrack03	1	ProbeTrackDT	1.1	SCS215a	20101027.091157	20101027.092655	single-task	8	0.013328	60	10	60-180	60	160	GapExp	0	152	2	6	0	target	0	560	-1000	127943	13.328	13.307	13.345
DTProbeTrack03	1	ProbeTrackDT	1.1	SCS215a	20101027.091157	20101027.092701	single-task	8	0.013328	60	10	60-180	60	66	GapExp	0	153	2	3	0	target	0	733	-1000	126943	13.328	13.309	13.352
DTProbeTrack03	1	ProbeTrackDT	1.1	SCS215a	20101027.091157	20101027.092706	single-task	8	0.013328	60	10	60-180	60	156	GapExp	0	154	2	45	1	target	1	747	627	127570	13.328	12.990	13.672
DTProbeTrack03	1	ProbeTrackDT	1.1	SCS215a	20101027.091157	20101027.092713	single-task	8	0.013328	60	10	60-180	60	73	GapExp	0	155	2	3	0	distractor	1	733	634	128204	13.328	13.292	13.357
DTProbeTrack03	1	ProbeTrackDT	1.1	SCS215a	20101027.091157	20101027.092718	single-task	8	0.013328	60	10	60-180	60	94	GapExp	0	156	2	6	1	target	1	480	760	128964	13.328	13.261	13.385
DTProbeTrack03	1	ProbeTrackDT	1.1	SCS215a	20101027.091157	20101027.092724	single-task	8	0.013328	60	10	60-180	60	179	GapExp	0	157	2	9	1	target	1	587	707	129671	13.328	13.117	13.545
DTProbeTrack03	1	ProbeTrackDT	1.1	SCS215a	20101027.091157	20101027.092730	single-task	8	0.013328	60	10	60-180	60	85	GapExp	0	158	2	3	0	distractor	1	534	733	130404	13.328	13.306	13.346
DTProbeTrack03	1	ProbeTrackDT	1.1	SCS215a	20101027.091157	20101027.092735	single-task	8	0.013328	60	10	60-180	60	169	GapExp	0	159	2	6	0	distractor	1	600	700	131104	13.328	12.978	13.673
DTProbeTrack03	1	ProbeTrackDT	1.1	SCS215a	20101027.091157	20101027.092742	single-task	8	0.013328	60	10	60-180	60	162	GapExp	0	160	2	45	0	distractor	1	720	640	131744	13.328	13.308	13.346
DTProbeTrack03	1	ProbeTrackDT	1.1	SCS215a	20101027.091157	20101027.092749	single-task	8	0.013328	60	10	60-180	60	80	GapExp	0	161	2	6	1	target	1	600	700	132444	13.328	13.309	13.346
DTProbeTrack03	1	ProbeTrackDT	1.1	SCS215a	20101027.091157	20101027.092754	single-task	8	0.013328	60	10	60-180	60	176	GapExp	0	162	2	45	1	target	1	600	700	133144	13.328	13.307	13.349
DTProbeTrack03	1	ProbeTrackDT	1.1	SCS215a	20101027.091157	20101027.092801	single-task	8	0.013328	60	10	60-180	60	117	GapExp	0	163	2	3	0	distractor	1	560	720	133864	13.328	13.103	13.560
DTProbeTrack03	1	ProbeTrackDT	1.1	SCS215a	20101027.091157	20101027.092806	single-task	8	0.013328	60	10	60-180	60	133	GapExp	0	164	2	45	1	target	1	494	753	134617	13.328	13.094	13.574
DTProbeTrack03	1	ProbeTrackDT	1.1	SCS215a	20101027.091157	20101027.092813	single-task	8	0.013328	60	10	60-180	60	161	GapExp	0	165	2	6	0	distractor	1	507	747	135364	13.328	13.093	13.547
DTProbeTrack03	1	ProbeTrackDT	1.1	SCS215a	20101027.091157	20101027.092819	single-task	8	0.013328	60	10	60-180	60	65	GapExp	0	166	2	6	1	target	1	467	767	136131	13.328	13.310	13.346
DTProbeTrack03	1	ProbeTrackDT	1.1	SCS215a	20101027.091157	20101027.092824	single-task	8	0.013328	60	10	60-180	60	177	GapExp	0	167	2	45	0	distractor	1	600	700	136831	13.328	13.308	13.347
DTProbeTrack03	1	ProbeTrackDT	1.1	SCS215a	20101027.091157	20101027.092831	single-task	8	0.013328	60	10	60-180	60	175	GapExp	0	168	2	6	0	distractor	1	627	687	137518	13.328	13.278	13.377
DTProbeTrack03	1	ProbeTrackDT	1.1	SCS215a	20101027.091157	20101027.092837	single-task	8	0.013328	60	10	60-180	60	104	GapExp	0	169	2	45	0	distractor	1	574	713	138231	13.328	13.081	13.573
DTProbeTrack03	1	ProbeTrackDT	1.1	SCS215a	20101027.091157	20101027.092843	single-task	8	0.013328	60	10	60-180	60	111	GapExp	0	170	2	6	1	target	1	520	740	138971	13.383	12.962	26.648
DTProbeTrack03	1	ProbeTrackDT	1.1	SCS215a	20101027.091157	20101027.092848	single-task	8	0.013328	60	10	60-180	60	89	GapExp	0	171	2	1	1	target	1	587	707	139678	13.328	12.859	13.810
DTProbeTrack03	1	ProbeTrackDT	1.1	SCS215a	20101027.091157	20101027.092854	single-task	8	0.013328	60	10	60-180	60	125	GapExp	0	172	2	9	1	target	1	494	753	140431	13.638	13.284	93.267
DTProbeTrack03	1	ProbeTrackDT	1.1	SCS215a	20101027.091157	20101027.092859	single-task	8	0.013328	60	10	60-180	60	81	GapExp	0	173	2	3	0	distractor	1	707	647	141078	13.328	13.301	13.359
DTProbeTrack03	1	ProbeTrackDT	1.1	SCS215a	20101027.091157	20101027.092905	single-task	8	0.013328	60	10	60-180	60	155	GapExp	0	174	2	45	1	target	1	587	707	141785	13.328	12.969	13.681
DTProbeTrack03	1	ProbeTrackDT	1.1	SCS215a	20101027.091157	20101027.092911	single-task	8	0.013328	60	10	60-180	60	170	GapExp	0	175	2	1	1	target	1	653	674	142459	13.328	13.093	13.549
DTProbeTrack03	1	ProbeTrackDT	1.1	SCS215a	20101027.091157	20101027.092918	single-task	8	0.013328	60	10	60-180	60	67	GapExp	0	176	2	3	1	target	1	507	747	143206	13.328	13.109	13.548
DTProbeTrack03	1	ProbeTrackDT	1.1	SCS215a	20101027.091157	20101027.092922	single-task	8	0.013328	60	10	60-180	60	170	GapExp	0	177	2	6	0	target	0	387	-1000	142206	13.328	13.103	13.567
DTProbeTrack03	1	ProbeTrackDT	1.1	SCS215a	20101027.091157	20101027.092929	single-task	8	0.013328	60	10	60-180	60	159	GapExp	0	178	2	6	1	target	1	600	700	142906	13.328	13.301	13.374
DTProbeTrack03	1	ProbeTrackDT	1.1	SCS215a	20101027.091157	20101027.092935	single-task	8	0.013328	60	10	60-180	60	102	GapExp	0	179	2	3	1	target	1	494	753	143659	13.328	13.188	13.463
DTProbeTrack03	1	ProbeTrackDT	1.1	SCS215a	20101027.091157	20101027.092940	single-task	8	0.013328	60	10	60-180	60	131	GapExp	0	180	2	45	0	distractor	1	667	667	144326	13.328	13.096	13.560
DTProbeTrack03	1	ProbeTrackDT	1.1	SCS215a	20101027.091157	20101027.092947	single-task	8	0.013328	60	10	60-180	60	120	GapExp	0	181	2	6	1	target	1	494	753	145079	13.328	12.978	13.666
DTProbeTrack03	1	ProbeTrackDT	1.1	SCS215a	20101027.091157	20101027.092952	single-task	8	0.013328	60	10	60-180	60	166	GapExp	0	182	2	1	0	distractor	1	547	727	145806	13.328	13.096	13.564
DTProbeTrack03	1	ProbeTrackDT	1.1	SCS215a	20101027.091157	20101027.092958	single-task	8	0.013328	60	10	60-180	60	180	GapExp	0	183	2	1	0	distractor	1	574	713	146519	13.328	13.098	13.562
DTProbeTrack03	1	ProbeTrackDT	1.1	SCS215a	20101027.091157	20101027.093005	single-task	8	0.013328	60	10	60-180	60	141	GapExp	0	184	2	3	0	distractor	1	640	680	147199	13.328	13.307	13.349
DTProbeTrack03	1	ProbeTrackDT	1.1	SCS215a	20101027.091157	20101027.093011	single-task	8	0.013328	60	10	60-180	60	117	GapExp	0	185	2	1	0	distractor	1	587	707	147906	13.328	13.309	13.344
DTProbeTrack03	1	ProbeTrackDT	1.1	SCS215a	20101027.091157	20101027.093016	single-task	8	0.013328	60	10	60-180	60	119	GapExp	0	186	2	45	0	distractor	1	614	693	148599	13.328	13.297	13.360
DTProbeTrack03	1	ProbeTrackDT	1.1	SCS215a	20101027.091157	20101027.093023	single-task	8	0.013328	60	10	60-180	60	63	GapExp	0	187	2	3	1	target	1	507	747	149346	13.328	13.309	13.347
DTProbeTrack03	1	ProbeTrackDT	1.1	SCS215a	20101027.091157	20101027.093027	single-task	8	0.013328	60	10	60-180	60	66	GapExp	0	188	2	45	0	distractor	1	640	680	150026	13.328	13.108	13.543
DTProbeTrack03	1	ProbeTrackDT	1.1	SCS215a	20101027.091157	20101027.093033	single-task	8	0.013328	60	10	60-180	60	156	GapExp	0	189	2	1	1	target	1	440	780	150806	13.328	12.911	13.755
DTProbeTrack03	1	ProbeTrackDT	1.1	SCS215a	20101027.091157	20101027.093039	single-task	8	0.013328	60	10	60-180	60	121	GapExp	0	190	2	1	1	target	1	640	680	151486	13.328	12.903	13.754
DTProbeTrack03	1	ProbeTrackDT	1.1	SCS215a	20101027.091157	20101027.093045	single-task	8	0.013328	60	10	60-180	60	106	GapExp	0	191	2	45	0	distractor	1	653	674	152160	13.328	13.310	13.344
DTProbeTrack03	1	ProbeTrackDT	1.1	SCS215a	20101027.091157	20101027.093051	single-task	8	0.013328	60	10	60-180	60	149	GapExp	0	192	2	3	1	target	1	653	674	152834	13.328	13.309	13.348
DTProbeTrack03	1	ProbeTrackDT	1.1	SCS215a	20101027.091157	20101027.093057	single-task	8	0.013328	60	10	60-180	60	108	GapExp	0	193	2	9	0	distractor	1	507	747	153581	13.328	13.098	13.551
DTProbeTrack03	1	ProbeTrackDT	1.1	SCS215a	20101027.091157	20101027.093102	single-task	8	0.013328	60	10	60-180	60	176	GapExp	0	194	2	3	1	target	1	520	740	154321	13.328	13.105	13.545
DTProbeTrack03	1	ProbeTrackDT	1.1	SCS215a	20101027.091157	20101027.093109	single-task	8	0.013328	60	10	60-180	60	135	GapExp	0	195	2	45	0	distractor	1	547	727	155048	13.328	12.918	13.733
DTProbeTrack03	1	ProbeTrackDT	1.1	SCS215a	20101027.091157	20101027.093115	single-task	8	0.013328	60	10	60-180	60	112	GapExp	0	196	2	9	1	target	1	507	747	155795	13.437	13.108	26.713
DTProbeTrack03	1	ProbeTrackDT	1.1	SCS215a	20101027.091157	20101027.093121	single-task	8	0.013328	60	10	60-180	60	136	GapExp	0	197	2	6	1	target	1	574	713	156508	13.328	13.308	13.349
DTProbeTrack03	1	ProbeTrackDT	1.1	SCS215a	20101027.091157	20101027.093126	single-task	8	0.013328	60	10	60-180	60	92	GapExp	0	198	2	45	1	target	1	587	707	157215	13.328	12.952	13.688
DTProbeTrack03	1	ProbeTrackDT	1.1	SCS215a	20101027.091157	20101027.093132	single-task	8	0.013328	60	10	60-180	60	133	GapExp	0	199	2	6	0	distractor	1	560	720	157935	13.328	13.308	13.349
DTProbeTrack03	1	ProbeTrackDT	1.1	SCS215a	20101027.091157	20101027.093138	single-task	8	0.013328	60	10	60-180	60	175	GapExp	0	200	2	1	1	target	1	480	760	158695	13.328	13.116	13.544
DTProbeTrack03	1	ProbeTrackDT	1.1	SCS215a	20101027.091157	20101027.093151	single-task	8	0.013328	60	10	60-180	60	122	GapExp	0	201	2	45	1	186	-3	494	-1000	157695	13.328	12.976	13.675
DTProbeTrack03	1	ProbeTrackDT	1.1	SCS215a	20101027.091157	20101027.093157	single-task	8	0.013328	60	10	60-180	60	156	GapExp	0	202	2	9	0	distractor	1	760	620	158315	13.328	12.964	13.711
DTProbeTrack03	1	ProbeTrackDT	1.1	SCS215a	20101027.091157	20101027.093203	single-task	8	0.013328	60	10	60-180	60	163	GapExp	0	203	2	9	1	target	1	454	773	159088	13.328	12.865	13.806
DTProbeTrack03	1	ProbeTrackDT	1.1	SCS215a	20101027.091157	20101027.093210	single-task	8	0.013328	60	10	60-180	60	123	GapExp	0	204	2	45	1	target	1	547	727	159815	13.328	13.307	13.347
DTProbeTrack03	1	ProbeTrackDT	1.1	SCS215a	20101027.091157	20101027.093216	single-task	8	0.013328	60	10	60-180	60	169	GapExp	0	205	2	3	1	target	1	907	547	160362	13.328	13.309	13.347
DTProbeTrack03	1	ProbeTrackDT	1.1	SCS215a	20101027.093324	20101027.093334	dt-shadow	8	0.013327	60	10	60-180	60	180	GapPrac	1	1	2	1	0	target	0	574	-1000	159362	13.371	13.099	26.631
DTProbeTrack03	1	ProbeTrackDT	1.1	SCS215a	20101027.093324	20101027.093341	dt-shadow	8	0.013327	60	10	60-180	60	65	GapPrac	1	2	2	1	1	target	1	467	767	160129	13.328	13.307	13.349
DTProbeTrack03	1	ProbeTrackDT	1.1	SCS215a	20101027.093324	20101027.093345	dt-shadow	8	0.013327	60	10	60-180	60	82	GapPrac	1	3	2	45	0	distractor	1	680	660	160789	13.328	12.948	13.711
DTProbeTrack03	1	ProbeTrackDT	1.1	SCS215a	20101027.093324	20101027.093351	dt-shadow	8	0.013327	60	10	60-180	60	104	GapPrac	1	4	2	9	1	target	1	574	713	161502	13.328	13.100	13.547
DTProbeTrack03	1	ProbeTrackDT	1.1	SCS215a	20101027.093324	20101027.093357	dt-shadow	8	0.013327	60	10	60-180	60	174	GapPrac	1	5	2	3	0	distractor	1	467	767	162269	13.328	13.299	13.360
DTProbeTrack03	1	ProbeTrackDT	1.1	SCS215a	20101027.093324	20101027.093403	dt-shadow	8	0.013327	60	10	60-180	60	147	GapPrac	1	6	2	3	1	target	1	534	733	163002	13.328	13.106	13.545
DTProbeTrack03	1	ProbeTrackDT	1.1	SCS215a	20101027.093324	20101027.093409	dt-shadow	8	0.013327	60	10	60-180	60	158	GapPrac	1	7	2	9	1	target	1	467	767	163769	13.328	12.900	13.747
DTProbeTrack03	1	ProbeTrackDT	1.1	SCS215a	20101027.093324	20101027.093415	dt-shadow	8	0.013327	60	10	60-180	60	179	GapPrac	1	8	2	9	0	distractor	1	520	740	164509	13.328	13.303	13.354
DTProbeTrack03	1	ProbeTrackDT	1.1	SCS215a	20101027.093324	20101027.093421	dt-shadow	8	0.013327	60	10	60-180	60	70	GapPrac	1	9	2	45	0	distractor	1	640	680	165189	13.328	13.294	13.355
DTProbeTrack03	1	ProbeTrackDT	1.1	SCS215a	20101027.093324	20101027.093427	dt-shadow	8	0.013327	60	10	60-180	60	129	GapPrac	1	10	2	6	1	target	1	400	800	165989	13.328	12.968	13.678
DTProbeTrack03	1	ProbeTrackDT	1.1	SCS215a	20101027.093324	20101027.093433	dt-shadow	8	0.013327	60	10	60-180	60	154	GapPrac	1	11	2	6	0	distractor	1	574	713	166702	13.328	13.310	13.353
DTProbeTrack03	1	ProbeTrackDT	1.1	SCS215a	20101027.093324	20101027.093439	dt-shadow	8	0.013327	60	10	60-180	60	101	GapPrac	1	12	2	3	0	distractor	1	494	753	167455	13.328	13.102	13.551
DTProbeTrack03	1	ProbeTrackDT	1.1	SCS215a	20101027.093324	20101027.093444	dt-shadow	8	0.013327	60	10	60-180	60	90	GapPrac	1	13	2	3	1	target	1	400	800	168255	13.328	13.301	13.348
DTProbeTrack03	1	ProbeTrackDT	1.1	SCS215a	20101027.093324	20101027.093449	dt-shadow	8	0.013327	60	10	60-180	60	150	GapPrac	1	14	2	6	1	target	1	560	720	168975	13.328	13.304	13.345
DTProbeTrack03	1	ProbeTrackDT	1.1	SCS215a	20101027.093324	20101027.093455	dt-shadow	8	0.013327	60	10	60-180	60	66	GapPrac	1	15	2	1	1	target	1	520	740	169715	13.328	12.954	13.694
DTProbeTrack03	1	ProbeTrackDT	1.1	SCS215a	20101027.093324	20101027.093500	dt-shadow	8	0.013327	60	10	60-180	60	68	GapPrac	1	16	2	6	0	distractor	1	667	667	170382	13.328	13.107	13.551
DTProbeTrack03	1	ProbeTrackDT	1.1	SCS215a	20101027.093324	20101027.093505	dt-shadow	8	0.013327	60	10	60-180	60	64	GapPrac	1	17	2	45	1	target	1	480	760	171142	13.328	12.942	13.710
DTProbeTrack03	1	ProbeTrackDT	1.1	SCS215a	20101027.093324	20101027.093510	dt-shadow	8	0.013327	60	10	60-180	60	104	GapPrac	1	18	2	1	0	target	0	520	-1000	170142	13.328	12.885	13.782
DTProbeTrack03	1	ProbeTrackDT	1.1	SCS215a	20101027.093324	20101027.093516	dt-shadow	8	0.013327	60	10	60-180	60	124	GapPrac	1	19	2	9	0	distractor	1	547	727	170869	13.328	13.086	13.564
DTProbeTrack03	1	ProbeTrackDT	1.1	SCS215a	20101027.093324	20101027.093521	dt-shadow	8	0.013327	60	10	60-180	60	159	GapPrac	1	20	2	45	1	target	1	614	693	171562	13.328	13.092	13.554
DTProbeTrack03	1	ProbeTrackDT	1.1	SCS215a	20101027.093559	20101027.093606	dt-shadow	8	0.013328	60	10	60-180	60	145	GapExp	1	1	2	6	1	target	1	414	793	172355	13.328	12.884	13.763
DTProbeTrack03	1	ProbeTrackDT	1.1	SCS215a	20101027.093559	20101027.093612	dt-shadow	8	0.013328	60	10	60-180	60	116	GapExp	1	2	2	45	1	target	1	454	773	173128	13.328	12.914	13.753
DTProbeTrack03	1	ProbeTrackDT	1.1	SCS215a	20101027.093559	20101027.093618	dt-shadow	8	0.013328	60	10	60-180	60	78	GapExp	1	3	2	6	0	distractor	1	627	687	173815	13.328	13.092	13.559
DTProbeTrack03	1	ProbeTrackDT	1.1	SCS215a	20101027.093559	20101027.093623	dt-shadow	8	0.013328	60	10	60-180	60	83	GapExp	1	4	2	3	0	target	0	547	-1000	172815	13.328	13.281	13.364
DTProbeTrack03	1	ProbeTrackDT	1.1	SCS215a	20101027.093559	20101027.093628	dt-shadow	8	0.013328	60	10	60-180	60	170	GapExp	1	5	2	1	0	distractor	1	547	727	173542	13.372	12.901	26.648
DTProbeTrack03	1	ProbeTrackDT	1.1	SCS215a	20101027.093559	20101027.093635	dt-shadow	8	0.013328	60	10	60-180	60	65	GapExp	0	6	2	45	0	distractor	1	653	674	174216	13.328	12.922	13.740
DTProbeTrack03	1	ProbeTrackDT	1.1	SCS215a	20101027.093559	20101027.093640	dt-shadow	8	0.013328	60	10	60-180	60	76	GapExp	0	7	2	1	0	distractor	1	747	627	174843	13.328	13.097	13.568
DTProbeTrack03	1	ProbeTrackDT	1.1	SCS215a	20101027.093559	20101027.093645	dt-shadow	8	0.013328	60	10	60-180	60	117	GapExp	0	8	2	3	0	distractor	1	840	580	175423	13.328	13.307	13.348
DTProbeTrack03	1	ProbeTrackDT	1.1	SCS215a	20101027.093559	20101027.093651	dt-shadow	8	0.013328	60	10	60-180	60	165	GapExp	0	9	2	3	1	distractor	0	667	-1000	174423	13.328	12.865	13.793
DTProbeTrack03	1	ProbeTrackDT	1.1	SCS215a	20101027.093559	20101027.093658	dt-shadow	8	0.013328	60	10	60-180	60	74	GapExp	0	10	2	9	0	distractor	1	920	540	174963	13.328	13.276	13.374
DTProbeTrack03	1	ProbeTrackDT	1.1	SCS215a	20101027.093559	20101027.093703	dt-shadow	8	0.013328	60	10	60-180	60	142	GapExp	0	11	2	3	0	distractor	1	640	680	175643	13.328	13.030	13.655
DTProbeTrack03	1	ProbeTrackDT	1.1	SCS215a	20101027.093559	20101027.093709	dt-shadow	8	0.013328	60	10	60-180	60	65	GapExp	0	12	2	6	1	target	1	560	720	176363	13.328	13.308	13.343
DTProbeTrack03	1	ProbeTrackDT	1.1	SCS215a	20101027.093559	20101027.093714	dt-shadow	8	0.013328	60	10	60-180	60	135	GapExp	0	13	2	9	1	target	1	494	753	177116	13.328	13.091	13.546
DTProbeTrack03	1	ProbeTrackDT	1.1	SCS215a	20101027.093559	20101027.093720	dt-shadow	8	0.013328	60	10	60-180	60	83	GapExp	0	14	2	6	1	target	1	427	787	177903	13.328	12.997	13.652
DTProbeTrack03	1	ProbeTrackDT	1.1	SCS215a	20101027.093559	20101027.093725	dt-shadow	8	0.013328	60	10	60-180	60	124	GapExp	0	15	2	9	1	target	1	494	753	178656	13.328	13.309	13.346
DTProbeTrack03	1	ProbeTrackDT	1.1	SCS215a	20101027.093559	20101027.093730	dt-shadow	8	0.013328	60	10	60-180	60	129	GapExp	0	16	2	3	0	distractor	1	534	733	179389	13.328	12.929	13.729
DTProbeTrack03	1	ProbeTrackDT	1.1	SCS215a	20101027.093559	20101027.093736	dt-shadow	8	0.013328	60	10	60-180	60	161	GapExp	0	17	2	45	0	distractor	1	640	680	180069	13.328	13.097	13.351
DTProbeTrack03	1	ProbeTrackDT	1.1	SCS215a	20101027.093559	20101027.093743	dt-shadow	8	0.013328	60	10	60-180	60	156	GapExp	0	18	2	3	0	target	0	400	-1000	179069	13.328	13.103	13.549
DTProbeTrack03	1	ProbeTrackDT	1.1	SCS215a	20101027.093559	20101027.093749	dt-shadow	8	0.013328	60	10	60-180	60	168	GapExp	0	19	2	3	0	distractor	1	614	693	179762	13.328	13.118	13.547
DTProbeTrack03	1	ProbeTrackDT	1.1	SCS215a	20101027.093559	20101027.093755	dt-shadow	8	0.013328	60	10	60-180	60	112	GapExp	0	20	2	6	0	distractor	1	534	733	180495	13.328	13.291	13.370
DTProbeTrack03	1	ProbeTrackDT	1.1	SCS215a	20101027.093559	20101027.093801	dt-shadow	8	0.013328	60	10	60-180	60	127	GapExp	0	21	2	45	1	target	1	467	767	181262	13.373	13.096	26.655
DTProbeTrack03	1	ProbeTrackDT	1.1	SCS215a	20101027.093559	20101027.093807	dt-shadow	8	0.013328	60	10	60-180	60	90	GapExp	0	22	2	6	1	target	1	1267	367	181629	13.328	13.309	13.347
DTProbeTrack03	1	ProbeTrackDT	1.1	SCS215a	20101027.093559	20101027.093813	dt-shadow	8	0.013328	60	10	60-180	60	122	GapExp	0	23	2	3	0	distractor	1	614	693	182322	13.328	13.006	13.648
DTProbeTrack03	1	ProbeTrackDT	1.1	SCS215a	20101027.093559	20101027.093819	dt-shadow	8	0.013328	60	10	60-180	60	139	GapExp	0	24	2	1	1	target	1	414	793	183115	13.328	13.291	13.367
DTProbeTrack03	1	ProbeTrackDT	1.1	SCS215a	20101027.093559	20101027.093824	dt-shadow	8	0.013328	60	10	60-180	60	174	GapExp	0	25	2	45	1	target	1	387	807	183922	13.328	13.099	13.559
DTProbeTrack03	1	ProbeTrackDT	1.1	SCS215a	20101027.093559	20101027.093831	dt-shadow	8	0.013328	60	10	60-180	60	94	GapExp	0	26	2	1	0	distractor	1	560	720	184642	13.328	13.108	13.543
DTProbeTrack03	1	ProbeTrackDT	1.1	SCS215a	20101027.093559	20101027.093836	dt-shadow	8	0.013328	60	10	60-180	60	136	GapExp	0	27	2	45	1	target	1	667	667	185309	13.328	12.864	13.801
DTProbeTrack03	1	ProbeTrackDT	1.1	SCS215a	20101027.093559	20101027.093843	dt-shadow	8	0.013328	60	10	60-180	60	130	GapExp	0	28	2	3	1	target	1	480	760	186069	13.328	13.100	13.558
DTProbeTrack03	1	ProbeTrackDT	1.1	SCS215a	20101027.093559	20101027.093849	dt-shadow	8	0.013328	60	10	60-180	60	112	GapExp	0	29	2	6	0	distractor	1	627	687	186756	13.328	13.028	13.647
DTProbeTrack03	1	ProbeTrackDT	1.1	SCS215a	20101027.093559	20101027.093854	dt-shadow	8	0.013328	60	10	60-180	60	88	GapExp	0	30	2	1	1	target	1	520	740	187496	13.328	13.308	13.347
DTProbeTrack03	1	ProbeTrackDT	1.1	SCS215a	20101027.093559	20101027.093859	dt-shadow	8	0.013328	60	10	60-180	60	97	GapExp	0	31	2	45	0	distractor	1	653	674	188170	13.328	12.907	13.738
DTProbeTrack03	1	ProbeTrackDT	1.1	SCS215a	20101027.093559	20101027.093905	dt-shadow	8	0.013328	60	10	60-180	60	135	GapExp	0	32	2	3	0	distractor	1	560	720	188890	13.328	13.109	13.553
DTProbeTrack03	1	ProbeTrackDT	1.1	SCS215a	20101027.093559	20101027.093911	dt-shadow	8	0.013328	60	10	60-180	60	167	GapExp	0	33	2	6	1	target	1	480	760	189650	13.328	12.869	13.799
DTProbeTrack03	1	ProbeTrackDT	1.1	SCS215a	20101027.093559	20101027.093917	dt-shadow	8	0.013328	60	10	60-180	60	90	GapExp	0	34	2	9	1	target	1	560	720	190370	13.328	13.307	13.344
DTProbeTrack03	1	ProbeTrackDT	1.1	SCS215a	20101027.093559	20101027.093923	dt-shadow	8	0.013328	60	10	60-180	60	157	GapExp	0	35	2	45	1	target	1	560	720	191090	13.328	13.308	13.348
DTProbeTrack03	1	ProbeTrackDT	1.1	SCS215a	20101027.093559	20101027.093929	dt-shadow	8	0.013328	60	10	60-180	60	168	GapExp	0	36	2	9	1	target	1	440	780	191870	13.328	12.906	13.761
DTProbeTrack03	1	ProbeTrackDT	1.1	SCS215a	20101027.093559	20101027.093936	dt-shadow	8	0.013328	60	10	60-180	60	175	GapExp	0	37	2	1	0	distractor	1	600	700	192570	13.328	13.282	13.376
DTProbeTrack03	1	ProbeTrackDT	1.1	SCS215a	20101027.093559	20101027.093942	dt-shadow	8	0.013328	60	10	60-180	60	102	GapExp	0	38	2	9	1	target	1	547	727	193297	13.328	12.991	13.678
DTProbeTrack03	1	ProbeTrackDT	1.1	SCS215a	20101027.093559	20101027.093947	dt-shadow	8	0.013328	60	10	60-180	60	90	GapExp	0	39	2	6	0	distractor	1	480	760	194057	13.328	13.098	13.558
DTProbeTrack03	1	ProbeTrackDT	1.1	SCS215a	20101027.093559	20101027.093952	dt-shadow	8	0.013328	60	10	60-180	60	92	GapExp	0	40	2	45	1	target	1	507	747	194804	13.328	13.308	13.346
DTProbeTrack03	1	ProbeTrackDT	1.1	SCS215a	20101027.093559	20101027.093958	dt-shadow	8	0.013328	60	10	60-180	60	86	GapExp	0	41	2	6	1	target	1	494	753	195557	13.328	13.309	13.346
DTProbeTrack03	1	ProbeTrackDT	1.1	SCS215a	20101027.093559	20101027.094003	dt-shadow	8	0.013328	60	10	60-180	60	74	GapExp	0	42	2	6	1	target	1	427	787	196344	13.328	13.302	13.346
DTProbeTrack03	1	ProbeTrackDT	1.1	SCS215a	20101027.093559	20101027.094008	dt-shadow	8	0.013328	60	10	60-180	60	66	GapExp	0	43	2	9	0	distractor	1	587	707	197051	13.328	12.978	13.679
DTProbeTrack03	1	ProbeTrackDT	1.1	SCS215a	20101027.093559	20101027.094013	dt-shadow	8	0.013328	60	10	60-180	60	154	GapExp	0	44	2	9	0	distractor	1	600	700	197751	13.328	13.195	13.453
DTProbeTrack03	1	ProbeTrackDT	1.1	SCS215a	20101027.093559	20101027.094019	dt-shadow	8	0.013328	60	10	60-180	60	142	GapExp	0	45	2	1	0	distractor	1	587	707	198458	13.328	13.305	13.350
DTProbeTrack03	1	ProbeTrackDT	1.1	SCS215a	20101027.093559	20101027.094025	dt-shadow	8	0.013328	60	10	60-180	60	130	GapExp	0	46	2	9	1	distractor	0	560	-1000	197458	13.328	12.834	13.812
DTProbeTrack03	1	ProbeTrackDT	1.1	SCS215a	20101027.093559	20101027.094031	dt-shadow	8	0.013328	60	10	60-180	60	70	GapExp	0	47	2	9	0	distractor	1	693	654	198112	13.328	13.110	13.563
DTProbeTrack03	1	ProbeTrackDT	1.1	SCS215a	20101027.093559	20101027.094036	dt-shadow	8	0.013328	60	10	60-180	60	142	GapExp	0	48	2	3	1	target	1	454	773	198885	13.328	12.888	13.764
DTProbeTrack03	1	ProbeTrackDT	1.1	SCS215a	20101027.093559	20101027.094042	dt-shadow	8	0.013328	60	10	60-180	60	84	GapExp	0	49	2	3	1	target	1	467	767	199652	13.328	13.310	13.345
DTProbeTrack03	1	ProbeTrackDT	1.1	SCS215a	20101027.093559	20101027.094047	dt-shadow	8	0.013328	60	10	60-180	60	78	GapExp	0	50	2	9	1	target	1	520	740	200392	13.328	12.932	13.726
DTProbeTrack03	1	ProbeTrackDT	1.1	SCS215a	20101027.093559	20101027.094058	dt-shadow	8	0.013328	60	10	60-180	60	154	GapExp	0	51	2	1	0	target	0	840	-1000	199392	13.328	13.053	13.585
DTProbeTrack03	1	ProbeTrackDT	1.1	SCS215a	20101027.093559	20101027.094104	dt-shadow	8	0.013328	60	10	60-180	60	157	GapExp	0	52	2	1	0	target	0	494	-1000	198392	13.328	13.102	13.557
DTProbeTrack03	1	ProbeTrackDT	1.1	SCS215a	20101027.093559	20101027.094110	dt-shadow	8	0.013328	60	10	60-180	60	71	GapExp	0	53	2	45	0	distractor	1	720	640	199032	13.328	13.309	13.348
DTProbeTrack03	1	ProbeTrackDT	1.1	SCS215a	20101027.093559	20101027.094116	dt-shadow	8	0.013328	60	10	60-180	60	71	GapExp	0	54	2	6	1	target	1	534	733	199765	13.328	13.006	13.664
DTProbeTrack03	1	ProbeTrackDT	1.1	SCS215a	20101027.093559	20101027.094121	dt-shadow	8	0.013328	60	10	60-180	60	146	GapExp	0	55	2	1	0	distractor	1	747	627	200392	13.328	13.308	13.349
DTProbeTrack03	1	ProbeTrackDT	1.1	SCS215a	20101027.093559	20101027.094127	dt-shadow	8	0.013328	60	10	60-180	60	138	GapExp	0	56	2	6	0	distractor	1	587	707	201099	13.376	13.100	26.653
DTProbeTrack03	1	ProbeTrackDT	1.1	SCS215a	20101027.093559	20101027.094133	dt-shadow	8	0.013328	60	10	60-180	60	95	GapExp	0	57	2	9	0	distractor	1	733	634	201733	13.328	13.087	13.561
DTProbeTrack03	1	ProbeTrackDT	1.1	SCS215a	20101027.093559	20101027.094138	dt-shadow	8	0.013328	60	10	60-180	60	128	GapExp	0	58	2	6	1	target	1	440	780	202513	13.328	13.115	13.536
DTProbeTrack03	1	ProbeTrackDT	1.1	SCS215a	20101027.093559	20101027.094144	dt-shadow	8	0.013328	60	10	60-180	60	119	GapExp	0	59	2	45	1	target	1	667	667	203180	13.328	13.015	13.637
DTProbeTrack03	1	ProbeTrackDT	1.1	SCS215a	20101027.093559	20101027.094150	dt-shadow	8	0.013328	60	10	60-180	60	66	GapExp	0	60	2	6	1	target	1	467	767	203947	13.328	13.311	13.346
DTProbeTrack03	1	ProbeTrackDT	1.1	SCS215a	20101027.093559	20101027.094155	dt-shadow	8	0.013328	60	10	60-180	60	180	GapExp	0	61	2	6	0	distractor	1	574	713	204660	13.328	13.086	13.553
DTProbeTrack03	1	ProbeTrackDT	1.1	SCS215a	20101027.093559	20101027.094202	dt-shadow	8	0.013328	60	10	60-180	60	62	GapExp	0	62	2	45	0	distractor	1	547	727	205387	13.328	12.895	13.773
DTProbeTrack03	1	ProbeTrackDT	1.1	SCS215a	20101027.093559	20101027.094207	dt-shadow	8	0.013328	60	10	60-180	60	169	GapExp	0	63	2	6	1	target	1	560	720	206107	13.328	12.888	13.752
DTProbeTrack03	1	ProbeTrackDT	1.1	SCS215a	20101027.093559	20101027.094214	dt-shadow	8	0.013328	60	10	60-180	60	146	GapExp	0	64	2	45	0	distractor	1	760	620	206727	13.328	12.996	13.661
DTProbeTrack03	1	ProbeTrackDT	1.1	SCS215a	20101027.093559	20101027.094220	dt-shadow	8	0.013328	60	10	60-180	60	64	GapExp	0	65	2	3	0	distractor	1	680	660	207387	13.328	13.307	13.348
DTProbeTrack03	1	ProbeTrackDT	1.1	SCS215a	20101027.093559	20101027.094225	dt-shadow	8	0.013328	60	10	60-180	60	110	GapExp	0	66	2	6	0	target	0	494	-1000	206387	13.328	12.906	13.734
DTProbeTrack03	1	ProbeTrackDT	1.1	SCS215a	20101027.093559	20101027.094231	dt-shadow	8	0.013328	60	10	60-180	60	143	GapExp	0	67	2	1	1	target	1	560	720	207107	13.328	13.303	13.348
DTProbeTrack03	1	ProbeTrackDT	1.1	SCS215a	20101027.093559	20101027.094237	dt-shadow	8	0.013328	60	10	60-180	60	145	GapExp	0	68	2	9	1	target	1	547	727	207834	13.328	13.116	13.542
DTProbeTrack03	1	ProbeTrackDT	1.1	SCS215a	20101027.093559	20101027.094243	dt-shadow	8	0.013328	60	10	60-180	60	148	GapExp	0	69	2	45	1	target	1	520	740	208574	13.328	12.871	13.780
DTProbeTrack03	1	ProbeTrackDT	1.1	SCS215a	20101027.093559	20101027.094249	dt-shadow	8	0.013328	60	10	60-180	60	164	GapExp	0	70	2	6	0	distractor	1	614	693	209267	13.328	12.905	13.765
DTProbeTrack03	1	ProbeTrackDT	1.1	SCS215a	20101027.093559	20101027.094256	dt-shadow	8	0.013328	60	10	60-180	60	72	GapExp	0	71	2	3	0	distractor	1	560	720	209987	13.328	13.111	13.542
DTProbeTrack03	1	ProbeTrackDT	1.1	SCS215a	20101027.093559	20101027.094301	dt-shadow	8	0.013328	60	10	60-180	60	176	GapExp	0	72	2	6	1	target	1	414	793	210780	13.328	12.904	13.755
DTProbeTrack03	1	ProbeTrackDT	1.1	SCS215a	20101027.093559	20101027.094307	dt-shadow	8	0.013328	60	10	60-180	60	85	GapExp	0	73	2	1	1	target	1	414	793	211573	13.328	13.301	13.353
DTProbeTrack03	1	ProbeTrackDT	1.1	SCS215a	20101027.093559	20101027.094312	dt-shadow	8	0.013328	60	10	60-180	60	132	GapExp	0	74	2	1	1	target	1	440	780	212353	13.328	13.106	13.552
DTProbeTrack03	1	ProbeTrackDT	1.1	SCS215a	20101027.093559	20101027.094318	dt-shadow	8	0.013328	60	10	60-180	60	87	GapExp	0	75	2	45	1	target	1	440	780	213133	13.328	13.086	13.564
DTProbeTrack03	1	ProbeTrackDT	1.1	SCS215a	20101027.093559	20101027.094323	dt-shadow	8	0.013328	60	10	60-180	60	123	GapExp	0	76	2	3	1	target	1	360	820	213953	13.661	12.902	53.310
DTProbeTrack03	1	ProbeTrackDT	1.1	SCS215a	20101027.093559	20101027.094329	dt-shadow	8	0.013328	60	10	60-180	60	74	GapExp	0	77	2	3	1	target	1	427	787	214740	14.011	12.941	53.322
DTProbeTrack03	1	ProbeTrackDT	1.1	SCS215a	20101027.093559	20101027.094334	dt-shadow	8	0.013328	60	10	60-180	60	77	GapExp	0	78	2	9	1	target	1	494	753	215493	13.518	12.857	27.116
DTProbeTrack03	1	ProbeTrackDT	1.1	SCS215a	20101027.093559	20101027.094339	dt-shadow	8	0.013328	60	10	60-180	60	177	GapExp	0	79	2	3	0	distractor	1	534	733	216226	13.675	12.865	53.324
DTProbeTrack03	1	ProbeTrackDT	1.1	SCS215a	20101027.093559	20101027.094345	dt-shadow	8	0.013328	60	10	60-180	60	126	GapExp	0	80	2	6	1	target	1	440	780	217006	13.328	12.864	13.779
DTProbeTrack03	1	ProbeTrackDT	1.1	SCS215a	20101027.093559	20101027.094351	dt-shadow	8	0.013328	60	10	60-180	60	147	GapExp	0	81	2	6	0	distractor	1	560	720	217726	13.328	12.968	13.688
DTProbeTrack03	1	ProbeTrackDT	1.1	SCS215a	20101027.093559	20101027.094357	dt-shadow	8	0.013328	60	10	60-180	60	84	GapExp	0	82	2	1	1	target	1	480	760	218486	13.328	12.832	13.818
DTProbeTrack03	1	ProbeTrackDT	1.1	SCS215a	20101027.093559	20101027.094402	dt-shadow	8	0.013328	60	10	60-180	60	107	GapExp	0	83	2	45	0	distractor	1	640	680	219166	13.328	12.833	13.815
DTProbeTrack03	1	ProbeTrackDT	1.1	SCS215a	20101027.093559	20101027.094408	dt-shadow	8	0.013328	60	10	60-180	60	69	GapExp	0	84	2	9	0	distractor	1	667	667	219833	13.328	13.034	13.627
DTProbeTrack03	1	ProbeTrackDT	1.1	SCS215a	20101027.093559	20101027.094413	dt-shadow	8	0.013328	60	10	60-180	60	136	GapExp	0	85	2	6	0	distractor	1	747	627	220460	13.842	13.098	53.322
DTProbeTrack03	1	ProbeTrackDT	1.1	SCS215a	20101027.093559	20101027.094419	dt-shadow	8	0.013328	60	10	60-180	60	75	GapExp	0	86	2	1	1	target	1	480	760	221220	13.328	13.069	13.583
DTProbeTrack03	1	ProbeTrackDT	1.1	SCS215a	20101027.093559	20101027.094424	dt-shadow	8	0.013328	60	10	60-180	60	142	GapExp	0	87	2	9	1	target	1	374	813	222033	13.328	13.031	13.624
DTProbeTrack03	1	ProbeTrackDT	1.1	SCS215a	20101027.093559	20101027.094430	dt-shadow	8	0.013328	60	10	60-180	60	146	GapExp	0	88	2	45	0	distractor	1	693	654	222687	13.328	12.845	13.805
DTProbeTrack03	1	ProbeTrackDT	1.1	SCS215a	20101027.093559	20101027.094437	dt-shadow	8	0.013328	60	10	60-180	60	82	GapExp	0	89	2	45	0	distractor	1	547	727	223414	13.328	12.956	13.709
DTProbeTrack03	1	ProbeTrackDT	1.1	SCS215a	20101027.093559	20101027.094442	dt-shadow	8	0.013328	60	10	60-180	60	75	GapExp	0	90	2	6	0	distractor	1	587	707	224121	13.328	13.114	13.542
DTProbeTrack03	1	ProbeTrackDT	1.1	SCS215a	20101027.093559	20101027.094447	dt-shadow	8	0.013328	60	10	60-180	60	143	GapExp	0	91	2	6	0	distractor	1	560	720	224841	13.328	13.097	13.540
DTProbeTrack03	1	ProbeTrackDT	1.1	SCS215a	20101027.093559	20101027.094453	dt-shadow	8	0.013328	60	10	60-180	60	62	GapExp	0	92	2	45	1	target	1	547	727	225568	13.328	13.035	13.636
DTProbeTrack03	1	ProbeTrackDT	1.1	SCS215a	20101027.093559	20101027.094459	dt-shadow	8	0.013328	60	10	60-180	60	138	GapExp	0	93	2	1	0	target	0	800	-1000	224568	13.328	12.880	13.780
DTProbeTrack03	1	ProbeTrackDT	1.1	SCS215a	20101027.093559	20101027.094505	dt-shadow	8	0.013328	60	10	60-180	60	162	GapExp	0	94	2	9	0	distractor	1	574	713	225281	13.328	12.842	13.806
DTProbeTrack03	1	ProbeTrackDT	1.1	SCS215a	20101027.093559	20101027.094511	dt-shadow	8	0.013328	60	10	60-180	60	117	GapExp	0	95	2	45	1	target	1	574	713	225994	13.328	12.980	13.668
DTProbeTrack03	1	ProbeTrackDT	1.1	SCS215a	20101027.093559	20101027.094517	dt-shadow	8	0.013328	60	10	60-180	60	77	GapExp	0	96	2	3	0	distractor	1	840	580	226574	13.446	13.095	39.964
DTProbeTrack03	1	ProbeTrackDT	1.1	SCS215a	20101027.093559	20101027.094523	dt-shadow	8	0.013328	60	10	60-180	60	126	GapExp	0	97	2	9	0	target	0	574	-1000	225574	13.328	13.115	13.551
DTProbeTrack03	1	ProbeTrackDT	1.1	SCS215a	20101027.093559	20101027.094528	dt-shadow	8	0.013328	60	10	60-180	60	137	GapExp	0	98	2	9	1	target	1	480	760	226334	13.328	13.200	13.451
DTProbeTrack03	1	ProbeTrackDT	1.1	SCS215a	20101027.093559	20101027.094534	dt-shadow	8	0.013328	60	10	60-180	60	64	GapExp	0	99	2	1	1	target	1	613	694	227028	13.328	13.307	13.350
DTProbeTrack03	1	ProbeTrackDT	1.1	SCS215a	20101027.093559	20101027.094539	dt-shadow	8	0.013328	60	10	60-180	60	125	GapExp	0	100	2	45	1	target	1	440	780	227808	13.328	13.309	13.348
DTProbeTrack03	1	ProbeTrackDT	1.1	SCS215a	20101027.093559	20101027.094551	dt-shadow	8	0.013328	60	10	60-180	60	139	GapExp	0	101	2	3	0	distractor	1	494	753	228561	13.328	13.094	13.549
DTProbeTrack03	1	ProbeTrackDT	1.1	SCS215a	20101027.093559	20101027.094557	dt-shadow	8	0.013328	60	10	60-180	60	94	GapExp	0	102	2	1	1	target	1	387	807	229368	13.328	12.928	13.722
DTProbeTrack03	1	ProbeTrackDT	1.1	SCS215a	20101027.093559	20101027.094602	dt-shadow	8	0.013328	60	10	60-180	60	68	GapExp	0	103	2	1	0	distractor	1	480	760	230128	13.397	12.951	26.930
DTProbeTrack03	1	ProbeTrackDT	1.1	SCS215a	20101027.093559	20101027.094607	dt-shadow	8	0.013328	60	10	60-180	60	75	GapExp	0	104	2	6	1	target	1	560	720	230848	13.328	13.112	13.546
DTProbeTrack03	1	ProbeTrackDT	1.1	SCS215a	20101027.093559	20101027.094612	dt-shadow	8	0.013328	60	10	60-180	60	86	GapExp	0	105	2	6	1	target	1	440	780	231628	13.328	12.840	13.624
DTProbeTrack03	1	ProbeTrackDT	1.1	SCS215a	20101027.093559	20101027.094617	dt-shadow	8	0.013328	60	10	60-180	60	114	GapExp	0	106	2	6	1	target	1	507	747	232375	13.328	13.305	13.357
DTProbeTrack03	1	ProbeTrackDT	1.1	SCS215a	20101027.093559	20101027.094622	dt-shadow	8	0.013328	60	10	60-180	60	130	GapExp	0	107	2	9	0	distractor	1	547	727	233102	13.677	12.919	26.813
DTProbeTrack03	1	ProbeTrackDT	1.1	SCS215a	20101027.093559	20101027.094628	dt-shadow	8	0.013328	60	10	60-180	60	170	GapExp	0	108	2	3	1	target	1	440	780	233882	13.328	12.873	13.779
DTProbeTrack03	1	ProbeTrackDT	1.1	SCS215a	20101027.093559	20101027.094635	dt-shadow	8	0.013328	60	10	60-180	60	109	GapExp	0	109	2	3	0	distractor	1	920	540	234422	13.328	13.087	13.564
DTProbeTrack03	1	ProbeTrackDT	1.1	SCS215a	20101027.093559	20101027.094640	dt-shadow	8	0.013328	60	10	60-180	60	83	GapExp	0	110	2	45	0	distractor	1	747	627	235049	13.328	12.966	13.687
DTProbeTrack03	1	ProbeTrackDT	1.1	SCS215a	20101027.093559	20101027.094646	dt-shadow	8	0.013328	60	10	60-180	60	135	GapExp	0	111	2	45	1	target	1	587	707	235756	13.328	12.877	13.778
DTProbeTrack03	1	ProbeTrackDT	1.1	SCS215a	20101027.093559	20101027.094653	dt-shadow	8	0.013328	60	10	60-180	60	169	GapExp	0	112	2	3	0	distractor	1	880	560	236316	13.328	12.897	13.760
DTProbeTrack03	1	ProbeTrackDT	1.1	SCS215a	20101027.093559	20101027.094659	dt-shadow	8	0.013328	60	10	60-180	60	165	GapExp	0	113	2	9	0	distractor	1	507	747	237063	13.328	12.845	13.803
DTProbeTrack03	1	ProbeTrackDT	1.1	SCS215a	20101027.093559	20101027.094706	dt-shadow	8	0.013328	60	10	60-180	60	146	GapExp	0	114	2	1	1	target	1	480	760	237823	13.328	12.909	13.753
DTProbeTrack03	1	ProbeTrackDT	1.1	SCS215a	20101027.093559	20101027.094711	dt-shadow	8	0.013328	60	10	60-180	60	146	GapExp	0	115	2	6	1	target	1	414	793	238616	13.328	12.904	13.754
DTProbeTrack03	1	ProbeTrackDT	1.1	SCS215a	20101027.093559	20101027.094717	dt-shadow	8	0.013328	60	10	60-180	60	144	GapExp	0	116	2	6	0	distractor	1	707	647	239263	13.328	13.308	13.354
DTProbeTrack03	1	ProbeTrackDT	1.1	SCS215a	20101027.093559	20101027.094724	dt-shadow	8	0.013328	60	10	60-180	60	151	GapExp	0	117	2	9	0	distractor	1	507	747	240010	13.328	13.309	13.348
DTProbeTrack03	1	ProbeTrackDT	1.1	SCS215a	20101027.093559	20101027.094730	dt-shadow	8	0.013328	60	10	60-180	60	154	GapExp	0	118	2	3	1	target	1	414	793	240803	13.328	13.106	13.540
DTProbeTrack03	1	ProbeTrackDT	1.1	SCS215a	20101027.093559	20101027.094736	dt-shadow	8	0.013328	60	10	60-180	60	77	GapExp	0	119	2	45	1	target	1	627	687	241490	13.328	13.099	13.561
DTProbeTrack03	1	ProbeTrackDT	1.1	SCS215a	20101027.093559	20101027.094741	dt-shadow	8	0.013328	60	10	60-180	60	132	GapExp	0	120	2	3	1	target	1	440	780	242270	13.328	13.291	13.352
DTProbeTrack03	1	ProbeTrackDT	1.1	SCS215a	20101027.093559	20101027.094747	dt-shadow	8	0.013328	60	10	60-180	60	62	GapExp	0	121	2	6	0	distractor	1	520	740	243010	13.328	13.284	13.364
DTProbeTrack03	1	ProbeTrackDT	1.1	SCS215a	20101027.093559	20101027.094752	dt-shadow	8	0.013328	60	10	60-180	60	131	GapExp	0	122	2	9	0	target	0	534	-1000	242010	13.328	13.018	13.629
DTProbeTrack03	1	ProbeTrackDT	1.1	SCS215a	20101027.093559	20101027.094758	dt-shadow	8	0.013328	60	10	60-180	60	73	GapExp	0	123	2	9	0	distractor	1	560	720	242730	13.328	13.092	13.558
DTProbeTrack03	1	ProbeTrackDT	1.1	SCS215a	20101027.093559	20101027.094803	dt-shadow	8	0.013328	60	10	60-180	60	130	GapExp	0	124	2	1	0	distractor	1	574	713	243443	13.328	13.309	13.348
DTProbeTrack03	1	ProbeTrackDT	1.1	SCS215a	20101027.093559	20101027.094808	dt-shadow	8	0.013328	60	10	60-180	60	161	GapExp	0	125	2	9	1	target	1	574	713	244156	13.328	13.308	13.352
DTProbeTrack03	1	ProbeTrackDT	1.1	SCS215a	20101027.093559	20101027.094815	dt-shadow	8	0.013328	60	10	60-180	60	137	GapExp	0	126	2	45	1	target	1	587	707	244863	13.328	13.308	13.354
DTProbeTrack03	1	ProbeTrackDT	1.1	SCS215a	20101027.093559	20101027.094821	dt-shadow	8	0.013328	60	10	60-180	60	91	GapExp	0	127	2	9	1	target	1	480	760	245623	13.328	13.307	13.347
DTProbeTrack03	1	ProbeTrackDT	1.1	SCS215a	20101027.093559	20101027.094826	dt-shadow	8	0.013328	60	10	60-180	60	96	GapExp	0	128	2	1	1	target	1	400	800	246423	13.328	13.304	13.353
DTProbeTrack03	1	ProbeTrackDT	1.1	SCS215a	20101027.093559	20101027.094832	dt-shadow	8	0.013328	60	10	60-180	60	77	GapExp	0	129	2	1	1	distractor	0	427	-1000	245423	13.329	13.299	13.558
DTProbeTrack03	1	ProbeTrackDT	1.1	SCS215a	20101027.093559	20101027.094836	dt-shadow	8	0.013328	60	10	60-180	60	79	GapExp	0	130	2	6	0	target	0	454	-1000	244423	13.328	12.927	13.724
DTProbeTrack03	1	ProbeTrackDT	1.1	SCS215a	20101027.093559	20101027.094841	dt-shadow	8	0.013328	60	10	60-180	60	131	GapExp	0	131	2	45	0	distractor	1	627	687	245110	13.328	13.309	13.353
DTProbeTrack03	1	ProbeTrackDT	1.1	SCS215a	20101027.093559	20101027.094848	dt-shadow	8	0.013328	60	10	60-180	60	109	GapExp	0	132	2	3	0	distractor	1	787	607	245717	13.328	13.109	13.549
DTProbeTrack03	1	ProbeTrackDT	1.1	SCS215a	20101027.093559	20101027.094854	dt-shadow	8	0.013328	60	10	60-180	60	77	GapExp	0	133	2	9	0	distractor	1	480	760	246477	13.392	13.115	26.639
DTProbeTrack03	1	ProbeTrackDT	1.1	SCS215a	20101027.093559	20101027.094859	dt-shadow	8	0.013328	60	10	60-180	60	66	GapExp	0	134	2	9	1	distractor	0	720	-1000	245477	13.328	12.892	13.764
DTProbeTrack03	1	ProbeTrackDT	1.1	SCS215a	20101027.093559	20101027.094904	dt-shadow	8	0.013328	60	10	60-180	60	138	GapExp	0	135	2	1	0	distractor	1	534	733	246210	13.328	13.123	13.555
DTProbeTrack03	1	ProbeTrackDT	1.1	SCS215a	20101027.093559	20101027.094910	dt-shadow	8	0.013328	60	10	60-180	60	139	GapExp	0	136	2	6	0	distractor	1	627	687	246897	13.328	12.854	13.817
DTProbeTrack03	1	ProbeTrackDT	1.1	SCS215a	20101027.093559	20101027.094916	dt-shadow	8	0.013328	60	10	60-180	60	137	GapExp	0	137	2	1	1	target	1	454	773	247670	13.328	13.107	13.554
DTProbeTrack03	1	ProbeTrackDT	1.1	SCS215a	20101027.093559	20101027.094921	dt-shadow	8	0.013328	60	10	60-180	60	88	GapExp	0	138	2	1	0	distractor	1	693	654	248324	13.328	13.117	13.550
DTProbeTrack03	1	ProbeTrackDT	1.1	SCS215a	20101027.093559	20101027.094927	dt-shadow	8	0.013328	60	10	60-180	60	85	GapExp	0	139	2	9	1	target	1	467	767	249091	13.328	12.898	13.761
DTProbeTrack03	1	ProbeTrackDT	1.1	SCS215a	20101027.093559	20101027.094932	dt-shadow	8	0.013328	60	10	60-180	60	145	GapExp	0	140	2	1	1	target	1	400	800	249891	13.328	13.015	13.655
DTProbeTrack03	1	ProbeTrackDT	1.1	SCS215a	20101027.093559	20101027.094938	dt-shadow	8	0.013328	60	10	60-180	60	108	GapExp	0	141	2	45	0	distractor	1	480	760	250651	13.328	13.096	13.566
DTProbeTrack03	1	ProbeTrackDT	1.1	SCS215a	20101027.093559	20101027.094944	dt-shadow	8	0.013328	60	10	60-180	60	154	GapExp	0	142	2	45	1	distractor	0	534	-1000	249651	13.328	12.893	13.757
DTProbeTrack03	1	ProbeTrackDT	1.1	SCS215a	20101027.093559	20101027.094950	dt-shadow	8	0.013328	60	10	60-180	60	177	GapExp	0	143	2	45	1	target	1	614	693	250344	13.328	12.895	13.767
DTProbeTrack03	1	ProbeTrackDT	1.1	SCS215a	20101027.093559	20101027.094957	dt-shadow	8	0.013328	60	10	60-180	60	88	GapExp	0	144	2	45	1	target	1	560	720	251064	13.328	13.087	13.571
DTProbeTrack03	1	ProbeTrackDT	1.1	SCS215a	20101027.093559	20101027.095003	dt-shadow	8	0.013328	60	10	60-180	60	135	GapExp	0	145	2	1	0	distractor	1	600	700	251764	13.328	13.027	13.641
DTProbeTrack03	1	ProbeTrackDT	1.1	SCS215a	20101027.093559	20101027.095009	dt-shadow	8	0.013328	60	10	60-180	60	116	GapExp	0	146	2	3	0	distractor	1	613	694	252458	13.328	13.047	13.619
DTProbeTrack03	1	ProbeTrackDT	1.1	SCS215a	20101027.093559	20101027.095015	dt-shadow	8	0.013328	60	10	60-180	60	150	GapExp	0	147	2	1	1	distractor	0	574	-1000	251458	13.328	12.901	13.747
DTProbeTrack03	1	ProbeTrackDT	1.1	SCS215a	20101027.093559	20101027.095021	dt-shadow	8	0.013328	60	10	60-180	60	121	GapExp	0	148	2	3	1	target	1	427	787	252245	13.328	12.860	13.798
DTProbeTrack03	1	ProbeTrackDT	1.1	SCS215a	20101027.093559	20101027.095026	dt-shadow	8	0.013328	60	10	60-180	60	90	GapExp	0	149	2	3	1	target	1	507	747	252992	13.328	13.118	13.538
DTProbeTrack03	1	ProbeTrackDT	1.1	SCS215a	20101027.093559	20101027.095031	dt-shadow	8	0.013328	60	10	60-180	60	150	GapExp	0	150	2	3	0	distractor	1	480	760	253752	13.328	13.091	13.567
DTProbeTrack03	1	ProbeTrackDT	1.1	SCS215a	20101027.093559	20101027.095045	dt-shadow	8	0.013328	60	10	60-180	60	112	GapExp	0	151	2	1	0	distractor	1	800	600	254352	13.328	13.097	13.569
DTProbeTrack03	1	ProbeTrackDT	1.1	SCS215a	20101027.093559	20101027.095050	dt-shadow	8	0.013328	60	10	60-180	60	61	GapExp	0	152	2	1	0	distractor	1	640	680	255032	13.328	13.308	13.348
DTProbeTrack03	1	ProbeTrackDT	1.1	SCS215a	20101027.093559	20101027.095055	dt-shadow	8	0.013328	60	10	60-180	60	100	GapExp	0	153	2	45	0	distractor	1	480	760	255792	13.328	12.965	13.702
DTProbeTrack03	1	ProbeTrackDT	1.1	SCS215a	20101027.093559	20101027.095101	dt-shadow	8	0.013328	60	10	60-180	60	102	GapExp	0	154	2	3	1	target	1	494	753	256545	13.328	12.935	13.729
DTProbeTrack03	1	ProbeTrackDT	1.1	SCS215a	20101027.093559	20101027.095106	dt-shadow	8	0.013328	60	10	60-180	60	71	GapExp	0	155	2	3	1	target	1	653	674	257219	13.328	13.004	13.646
DTProbeTrack03	1	ProbeTrackDT	1.1	SCS215a	20101027.093559	20101027.095111	dt-shadow	8	0.013328	60	10	60-180	60	179	GapExp	0	156	2	3	1	target	1	467	767	257986	13.328	12.956	13.702
DTProbeTrack03	1	ProbeTrackDT	1.1	SCS215a	20101027.093559	20101027.095118	dt-shadow	8	0.013328	60	10	60-180	60	133	GapExp	0	157	2	3	0	distractor	1	587	707	258693	13.328	12.949	13.716
DTProbeTrack03	1	ProbeTrackDT	1.1	SCS215a	20101027.093559	20101027.095124	dt-shadow	8	0.013328	60	10	60-180	60	114	GapExp	0	158	2	6	1	target	1	454	773	259466	13.328	13.085	13.561
DTProbeTrack03	1	ProbeTrackDT	1.1	SCS215a	20101027.093559	20101027.095129	dt-shadow	8	0.013328	60	10	60-180	60	128	GapExp	0	159	2	45	0	distractor	1	587	707	260173	13.328	12.898	13.760
DTProbeTrack03	1	ProbeTrackDT	1.1	SCS215a	20101027.093559	20101027.095135	dt-shadow	8	0.013328	60	10	60-180	60	141	GapExp	0	160	2	1	1	target	1	507	747	260920	13.328	13.051	13.616
DTProbeTrack03	1	ProbeTrackDT	1.1	SCS215a	20101027.093559	20101027.095141	dt-shadow	8	0.013328	60	10	60-180	60	127	GapExp	0	161	2	9	1	target	1	574	713	261633	13.328	12.860	13.796
DTProbeTrack03	1	ProbeTrackDT	1.1	SCS215a	20101027.093559	20101027.095147	dt-shadow	8	0.013328	60	10	60-180	60	132	GapExp	0	162	2	6	0	distractor	1	600	700	262333	13.328	12.843	13.816
DTProbeTrack03	1	ProbeTrackDT	1.1	SCS215a	20101027.093559	20101027.095153	dt-shadow	8	0.013328	60	10	60-180	60	81	GapExp	0	163	2	3	0	distractor	1	534	733	263066	13.328	12.878	13.780
DTProbeTrack03	1	ProbeTrackDT	1.1	SCS215a	20101027.093559	20101027.095158	dt-shadow	8	0.013328	60	10	60-180	60	121	GapExp	0	164	2	3	1	target	1	507	747	263813	13.328	12.882	13.773
DTProbeTrack03	1	ProbeTrackDT	1.1	SCS215a	20101027.093559	20101027.095204	dt-shadow	8	0.013328	60	10	60-180	60	170	GapExp	0	165	2	3	1	target	1	534	733	264546	13.328	12.975	13.673
DTProbeTrack03	1	ProbeTrackDT	1.1	SCS215a	20101027.093559	20101027.095210	dt-shadow	8	0.013328	60	10	60-180	60	106	GapExp	0	166	2	45	0	distractor	1	574	713	265259	13.328	13.090	13.551
DTProbeTrack03	1	ProbeTrackDT	1.1	SCS215a	20101027.093559	20101027.095216	dt-shadow	8	0.013328	60	10	60-180	60	163	GapExp	0	167	2	3	0	distractor	1	614	693	265952	13.818	12.860	53.497
DTProbeTrack03	1	ProbeTrackDT	1.1	SCS215a	20101027.093559	20101027.095222	dt-shadow	8	0.013328	60	10	60-180	60	160	GapExp	0	168	2	6	0	distractor	1	574	713	266665	13.328	12.930	13.729
DTProbeTrack03	1	ProbeTrackDT	1.1	SCS215a	20101027.093559	20101027.095228	dt-shadow	8	0.013328	60	10	60-180	60	71	GapExp	0	169	2	3	1	target	1	654	673	267338	13.328	12.921	13.731
DTProbeTrack03	1	ProbeTrackDT	1.1	SCS215a	20101027.093559	20101027.095233	dt-shadow	8	0.013328	60	10	60-180	60	107	GapExp	0	170	2	9	0	distractor	1	520	740	268078	13.328	12.891	13.639
DTProbeTrack03	1	ProbeTrackDT	1.1	SCS215a	20101027.093559	20101027.095239	dt-shadow	8	0.013328	60	10	60-180	60	133	GapExp	0	171	2	45	0	distractor	1	560	720	268798	13.328	13.062	13.598
DTProbeTrack03	1	ProbeTrackDT	1.1	SCS215a	20101027.093559	20101027.095245	dt-shadow	8	0.013328	60	10	60-180	60	99	GapExp	0	172	2	45	1	target	1	574	713	269511	13.328	12.992	13.668
DTProbeTrack03	1	ProbeTrackDT	1.1	SCS215a	20101027.093559	20101027.095251	dt-shadow	8	0.013328	60	10	60-180	60	66	GapExp	0	173	2	1	0	distractor	1	613	694	270205	13.328	12.865	13.783
DTProbeTrack03	1	ProbeTrackDT	1.1	SCS215a	20101027.093559	20101027.095256	dt-shadow	8	0.013328	60	10	60-180	60	157	GapExp	0	174	2	6	0	distractor	1	560	720	270925	13.328	13.302	13.346
DTProbeTrack03	1	ProbeTrackDT	1.1	SCS215a	20101027.093559	20101027.095302	dt-shadow	8	0.013328	60	10	60-180	60	138	GapExp	0	175	2	3	1	target	1	467	767	271692	13.328	12.847	13.808
DTProbeTrack03	1	ProbeTrackDT	1.1	SCS215a	20101027.093559	20101027.095308	dt-shadow	8	0.013328	60	10	60-180	60	61	GapExp	0	176	2	45	0	distractor	1	547	727	272419	13.328	12.918	13.739
DTProbeTrack03	1	ProbeTrackDT	1.1	SCS215a	20101027.093559	20101027.095313	dt-shadow	8	0.013328	60	10	60-180	60	88	GapExp	0	177	2	9	0	distractor	1	547	727	273146	13.328	13.016	13.635
DTProbeTrack03	1	ProbeTrackDT	1.1	SCS215a	20101027.093559	20101027.095318	dt-shadow	8	0.013328	60	10	60-180	60	131	GapExp	0	178	2	6	1	target	1	494	753	273899	13.328	12.947	13.700
DTProbeTrack03	1	ProbeTrackDT	1.1	SCS215a	20101027.093559	20101027.095324	dt-shadow	8	0.013328	60	10	60-180	60	115	GapExp	0	179	2	1	1	target	1	480	760	274659	13.326	12.933	13.617
DTProbeTrack03	1	ProbeTrackDT	1.1	SCS215a	20101027.093559	20101027.095330	dt-shadow	8	0.013328	60	10	60-180	60	84	GapExp	0	180	2	1	0	distractor	1	574	713	275372	13.328	12.884	13.788
DTProbeTrack03	1	ProbeTrackDT	1.1	SCS215a	20101027.093559	20101027.095335	dt-shadow	8	0.013328	60	10	60-180	60	174	GapExp	0	181	2	6	0	distractor	1	627	687	276059	13.371	12.872	26.886
DTProbeTrack03	1	ProbeTrackDT	1.1	SCS215a	20101027.093559	20101027.095341	dt-shadow	8	0.013328	60	10	60-180	60	179	GapExp	0	182	2	9	1	target	1	720	640	276699	13.328	12.885	13.767
DTProbeTrack03	1	ProbeTrackDT	1.1	SCS215a	20101027.093559	20101027.095348	dt-shadow	8	0.013328	60	10	60-180	60	167	GapExp	0	183	2	9	0	distractor	1	534	733	277432	13.328	12.920	13.728
DTProbeTrack03	1	ProbeTrackDT	1.1	SCS215a	20101027.093559	20101027.095354	dt-shadow	8	0.013328	60	10	60-180	60	127	GapExp	0	184	2	9	1	target	1	480	760	278192	13.431	12.922	26.709
DTProbeTrack03	1	ProbeTrackDT	1.1	SCS215a	20101027.093559	20101027.095400	dt-shadow	8	0.013328	60	10	60-180	60	120	GapExp	0	185	2	1	1	target	1	480	760	278952	13.328	12.872	13.782
DTProbeTrack03	1	ProbeTrackDT	1.1	SCS215a	20101027.093559	20101027.095406	dt-shadow	8	0.013328	60	10	60-180	60	92	GapExp	0	186	2	6	1	target	1	374	813	279765	13.328	12.890	13.783
DTProbeTrack03	1	ProbeTrackDT	1.1	SCS215a	20101027.093559	20101027.095411	dt-shadow	8	0.013328	60	10	60-180	60	115	GapExp	0	187	2	9	0	distractor	1	534	733	280498	13.965	13.221	53.726
DTProbeTrack03	1	ProbeTrackDT	1.1	SCS215a	20101027.093559	20101027.095416	dt-shadow	8	0.013328	60	10	60-180	60	125	GapExp	0	188	2	45	1	target	1	614	693	281191	16.011	12.885	67.099
DTProbeTrack03	1	ProbeTrackDT	1.1	SCS215a	20101027.093559	20101027.095424	dt-shadow	8	0.013328	60	10	60-180	60	136	GapExp	0	189	2	3	1	target	1	467	767	281958	13.328	12.899	13.769
DTProbeTrack03	1	ProbeTrackDT	1.1	SCS215a	20101027.093559	20101027.095429	dt-shadow	8	0.013328	60	10	60-180	60	75	GapExp	0	190	2	9	1	target	1	467	767	282725	13.328	13.000	13.673
DTProbeTrack03	1	ProbeTrackDT	1.1	SCS215a	20101027.093559	20101027.095434	dt-shadow	8	0.013328	60	10	60-180	60	160	GapExp	0	191	2	1	1	target	1	440	780	283505	13.328	12.894	13.763
DTProbeTrack03	1	ProbeTrackDT	1.1	SCS215a	20101027.093559	20101027.095440	dt-shadow	8	0.013328	60	10	60-180	60	172	GapExp	0	192	2	9	0	target	0	494	-1000	282505	13.328	12.881	13.778
DTProbeTrack03	1	ProbeTrackDT	1.1	SCS215a	20101027.093559	20101027.095447	dt-shadow	8	0.013328	60	10	60-180	60	71	GapExp	0	193	2	45	1	target	1	520	740	283245	13.328	12.849	13.796
DTProbeTrack03	1	ProbeTrackDT	1.1	SCS215a	20101027.093559	20101027.095452	dt-shadow	8	0.013328	60	10	60-180	60	148	GapExp	0	194	2	1	0	distractor	1	1080	460	283705	13.645	12.847	40.090
DTProbeTrack03	1	ProbeTrackDT	1.1	SCS215a	20101027.093559	20101027.095459	dt-shadow	8	0.013328	60	10	60-180	60	104	GapExp	0	195	2	45	0	distractor	1	547	727	284432	13.424	12.876	39.985
DTProbeTrack03	1	ProbeTrackDT	1.1	SCS215a	20101027.093559	20101027.095505	dt-shadow	8	0.013328	60	10	60-180	60	104	GapExp	0	196	2	45	0	distractor	1	667	667	285099	13.328	12.875	13.786
DTProbeTrack03	1	ProbeTrackDT	1.1	SCS215a	20101027.093559	20101027.095511	dt-shadow	8	0.013328	60	10	60-180	60	84	GapExp	0	197	2	6	1	target	1	574	713	285812	13.328	13.091	13.546
DTProbeTrack03	1	ProbeTrackDT	1.1	SCS215a	20101027.093559	20101027.095516	dt-shadow	8	0.013328	60	10	60-180	60	130	GapExp	0	198	2	1	1	target	1	427	787	286599	13.328	12.920	13.734
DTProbeTrack03	1	ProbeTrackDT	1.1	SCS215a	20101027.093559	20101027.095522	dt-shadow	8	0.013328	60	10	60-180	60	70	GapExp	0	199	2	1	0	distractor	1	507	747	287346	13.328	12.999	13.672
DTProbeTrack03	1	ProbeTrackDT	1.1	SCS215a	20101027.093559	20101027.095526	dt-shadow	8	0.013328	60	10	60-180	60	103	GapExp	0	200	2	45	0	distractor	1	667	667	288013	13.328	12.927	13.733
DTProbeTrack03	1	ProbeTrackDT	1.1	SCS215a	20101027.093559	20101027.095539	dt-shadow	8	0.013328	60	10	60-180	60	72	GapExp	0	201	2	9	0	distractor	1	614	693	288706	13.328	13.307	13.345
DTProbeTrack03	1	ProbeTrackDT	1.1	SCS215a	20101027.093559	20101027.095544	dt-shadow	8	0.013328	60	10	60-180	60	84	GapExp	0	202	2	3	1	target	1	574	713	289419	13.328	12.871	13.799
DTProbeTrack03	1	ProbeTrackDT	1.1	SCS215a	20101027.093559	20101027.095549	dt-shadow	8	0.013328	60	10	60-180	60	146	GapExp	0	203	2	6	0	distractor	1	494	753	290172	13.328	12.853	13.811
DTProbeTrack03	1	ProbeTrackDT	1.1	SCS215a	20101027.093559	20101027.095555	dt-shadow	8	0.013328	60	10	60-180	60	66	GapExp	0	204	2	1	0	distractor	1	507	747	290919	13.328	12.869	13.798
DTProbeTrack03	1	ProbeTrackDT	1.1	SCS215a	20101027.093559	20101027.095600	dt-shadow	8	0.013328	60	10	60-180	60	112	GapExp	0	205	2	9	1	target	1	653	674	291593	13.328	12.902	13.757
DTProbeTrack03	1	ProbeTrackDT	1.1	SCS215a	20101027.095720	20101027.095728	dt-generate	8	0.013327	60	10	60-180	60	179	GapPrac	1	1	2	9	1	target	1	400	800	292393	13.328	13.307	13.345
DTProbeTrack03	1	ProbeTrackDT	1.1	SCS215a	20101027.095720	20101027.095734	dt-generate	8	0.013327	60	10	60-180	60	145	GapPrac	1	2	2	9	0	target	0	787	-1000	291393	13.372	13.307	26.650
DTProbeTrack03	1	ProbeTrackDT	1.1	SCS215a	20101027.095720	20101027.095741	dt-generate	8	0.013327	60	10	60-180	60	166	GapPrac	1	3	2	1	0	target	0	1466	-1000	290393	13.328	12.937	13.717
DTProbeTrack03	1	ProbeTrackDT	1.1	SCS215a	20101027.095720	20101027.095748	dt-generate	8	0.013327	60	10	60-180	60	113	GapPrac	1	4	2	9	1	target	1	1680	160	290553	13.328	13.305	13.350
DTProbeTrack03	1	ProbeTrackDT	1.1	SCS215a	20101027.095720	20101027.095755	dt-generate	8	0.013327	60	10	60-180	60	63	GapPrac	1	5	2	3	1	target	1	627	687	291240	13.328	12.968	13.681
DTProbeTrack03	1	ProbeTrackDT	1.1	SCS215a	20101027.095720	20101027.095759	dt-generate	8	0.013327	60	10	60-180	60	146	GapPrac	1	6	2	45	1	target	1	600	700	291940	13.328	13.106	13.555
DTProbeTrack03	1	ProbeTrackDT	1.1	SCS215a	20101027.095720	20101027.095806	dt-generate	8	0.013327	60	10	60-180	60	111	GapPrac	1	7	2	3	0	target	0	827	-1000	290940	13.328	13.118	13.542
DTProbeTrack03	1	ProbeTrackDT	1.1	SCS215a	20101027.095720	20101027.095812	dt-generate	8	0.013327	60	10	60-180	60	132	GapPrac	1	8	2	6	0	distractor	1	653	674	291614	13.328	13.109	13.538
DTProbeTrack03	1	ProbeTrackDT	1.1	SCS215a	20101027.095720	20101027.095818	dt-generate	8	0.013327	60	10	60-180	60	69	GapPrac	1	9	2	6	1	target	1	454	773	292387	13.328	13.308	13.353
DTProbeTrack03	1	ProbeTrackDT	1.1	SCS215a	20101027.095720	20101027.095823	dt-generate	8	0.013327	60	10	60-180	60	117	GapPrac	1	10	2	45	0	distractor	1	560	720	293107	13.328	13.293	13.351
DTProbeTrack03	1	ProbeTrackDT	1.1	SCS215a	20101027.095720	20101027.095829	dt-generate	8	0.013327	60	10	60-180	60	95	GapPrac	1	11	2	9	0	distractor	1	2346	0	293107	13.328	13.308	13.348
DTProbeTrack03	1	ProbeTrackDT	1.1	SCS215a	20101027.095720	20101027.095836	dt-generate	8	0.013327	60	10	60-180	60	124	GapPrac	1	12	2	6	0	distractor	1	507	747	293854	13.328	13.084	13.567
DTProbeTrack03	1	ProbeTrackDT	1.1	SCS215a	20101027.095720	20101027.095841	dt-generate	8	0.013327	60	10	60-180	60	132	GapPrac	1	13	2	45	1	target	1	547	727	294581	13.328	13.097	13.555
DTProbeTrack03	1	ProbeTrackDT	1.1	SCS215a	20101027.095720	20101027.095848	dt-generate	8	0.013327	60	10	60-180	60	67	GapPrac	1	14	2	3	0	target	0	827	-1000	293581	13.328	12.956	13.715
DTProbeTrack03	1	ProbeTrackDT	1.1	SCS215a	20101027.095720	20101027.095853	dt-generate	8	0.013327	60	10	60-180	60	88	GapPrac	1	15	2	1	0	target	0	1013	-1000	292581	13.442	13.308	26.657
DTProbeTrack03	1	ProbeTrackDT	1.1	SCS215a	20101027.095720	20101027.095859	dt-generate	8	0.013327	60	10	60-180	60	141	GapPrac	1	16	2	45	0	distractor	1	867	567	293148	13.328	13.214	13.434
DTProbeTrack03	1	ProbeTrackDT	1.1	SCS215a	20101027.095720	20101027.095905	dt-generate	8	0.013327	60	10	60-180	60	135	GapPrac	1	17	2	6	1	target	1	467	767	293915	13.328	13.308	13.348
DTProbeTrack03	1	ProbeTrackDT	1.1	SCS215a	20101027.095720	20101027.095911	dt-generate	8	0.013327	60	10	60-180	60	92	GapPrac	1	18	2	1	1	target	1	454	773	294688	13.328	13.037	13.622
DTProbeTrack03	1	ProbeTrackDT	1.1	SCS215a	20101027.095720	20101027.095916	dt-generate	8	0.013327	60	10	60-180	60	175	GapPrac	1	19	2	1	1	distractor	0	2213	-1000	293688	13.328	12.986	13.696
DTProbeTrack03	1	ProbeTrackDT	1.1	SCS215a	20101027.095720	20101027.095924	dt-generate	8	0.013327	60	10	60-180	60	176	GapPrac	1	20	2	3	1	distractor	0	347	-1000	292688	13.328	12.844	13.806
DTProbeTrack03	1	ProbeTrackDT	1.1	SCS215a	20101027.100023	20101027.100029	dt-generate	8	0.013328	60	10	60-180	60	83	GapExp	1	1	2	6	1	target	1	400	800	293488	13.328	13.060	13.595
DTProbeTrack03	1	ProbeTrackDT	1.1	SCS215a	20101027.100023	20101027.100034	dt-generate	8	0.013328	60	10	60-180	60	90	GapExp	1	2	2	3	1	target	1	494	753	294241	13.328	13.097	13.550
DTProbeTrack03	1	ProbeTrackDT	1.1	SCS215a	20101027.100023	20101027.100039	dt-generate	8	0.013328	60	10	60-180	60	159	GapExp	1	3	2	1	0	distractor	1	560	720	294961	13.328	13.308	13.348
DTProbeTrack03	1	ProbeTrackDT	1.1	SCS215a	20101027.100023	20101027.100045	dt-generate	8	0.013328	60	10	60-180	60	166	GapExp	1	4	2	45	1	target	1	374	813	295774	13.328	12.849	13.806
DTProbeTrack03	1	ProbeTrackDT	1.1	SCS215a	20101027.100023	20101027.100052	dt-generate	8	0.013328	60	10	60-180	60	154	GapExp	1	5	2	6	0	distractor	1	494	753	296527	13.328	13.305	13.347
DTProbeTrack03	1	ProbeTrackDT	1.1	SCS215a	20101027.100023	20101027.100058	dt-generate	8	0.013328	60	10	60-180	60	75	GapExp	0	6	2	9	1	target	1	574	713	297240	13.328	13.308	13.354
DTProbeTrack03	1	ProbeTrackDT	1.1	SCS215a	20101027.100023	20101027.100103	dt-generate	8	0.013328	60	10	60-180	60	126	GapExp	0	7	2	6	1	target	1	454	773	298013	13.328	13.092	13.568
DTProbeTrack03	1	ProbeTrackDT	1.1	SCS215a	20101027.100023	20101027.100108	dt-generate	8	0.013328	60	10	60-180	60	76	GapExp	0	8	2	9	1	target	1	787	607	298620	13.328	12.979	13.678
DTProbeTrack03	1	ProbeTrackDT	1.1	SCS215a	20101027.100023	20101027.100114	dt-generate	8	0.013328	60	10	60-180	60	91	GapExp	0	9	2	1	0	distractor	1	560	720	299340	13.328	13.311	13.352
DTProbeTrack03	1	ProbeTrackDT	1.1	SCS215a	20101027.100023	20101027.100119	dt-generate	8	0.013328	60	10	60-180	60	177	GapExp	0	10	2	3	1	target	1	1386	307	299647	13.328	13.158	13.500
DTProbeTrack03	1	ProbeTrackDT	1.1	SCS215a	20101027.100023	20101027.100126	dt-generate	8	0.013328	60	10	60-180	60	126	GapExp	0	11	2	45	1	target	1	467	767	300414	13.328	13.041	13.617
DTProbeTrack03	1	ProbeTrackDT	1.1	SCS215a	20101027.100023	20101027.100132	dt-generate	8	0.013328	60	10	60-180	60	156	GapExp	0	12	2	1	0	target	0	893	-1000	299414	13.416	12.952	40.304
DTProbeTrack03	1	ProbeTrackDT	1.1	SCS215a	20101027.100023	20101027.100139	dt-generate	8	0.013328	60	10	60-180	60	83	GapExp	0	13	2	1	1	target	1	680	660	300074	13.891	13.274	133.285
DTProbeTrack03	1	ProbeTrackDT	1.1	SCS215a	20101027.100023	20101027.100144	dt-generate	8	0.013328	60	10	60-180	60	147	GapExp	0	14	2	9	0	distractor	1	600	700	300774	13.328	13.102	13.553
DTProbeTrack03	1	ProbeTrackDT	1.1	SCS215a	20101027.100023	20101027.100150	dt-generate	8	0.013328	60	10	60-180	60	112	GapExp	0	15	2	9	1	target	1	547	727	301501	13.328	13.095	13.549
DTProbeTrack03	1	ProbeTrackDT	1.1	SCS215a	20101027.100023	20101027.100156	dt-generate	8	0.013328	60	10	60-180	60	171	GapExp	0	16	2	9	0	distractor	1	507	747	302248	13.371	12.900	26.967
DTProbeTrack03	1	ProbeTrackDT	1.1	SCS215a	20101027.100023	20101027.100202	dt-generate	8	0.013328	60	10	60-180	60	97	GapExp	0	17	2	6	0	distractor	1	520	740	302988	13.328	13.262	13.398
DTProbeTrack03	1	ProbeTrackDT	1.1	SCS215a	20101027.100023	20101027.100207	dt-generate	8	0.013328	60	10	60-180	60	111	GapExp	0	18	2	6	1	target	1	427	787	303775	13.328	12.956	13.708
DTProbeTrack03	1	ProbeTrackDT	1.1	SCS215a	20101027.100023	20101027.100213	dt-generate	8	0.013328	60	10	60-180	60	161	GapExp	0	19	2	45	0	distractor	1	534	733	304508	13.328	13.081	13.589
DTProbeTrack03	1	ProbeTrackDT	1.1	SCS215a	20101027.100023	20101027.100219	dt-generate	8	0.013328	60	10	60-180	60	154	GapExp	0	20	2	6	1	target	1	627	687	305195	13.328	13.040	13.624
DTProbeTrack03	1	ProbeTrackDT	1.1	SCS215a	20101027.100023	20101027.100226	dt-generate	8	0.013328	60	10	60-180	60	175	GapExp	0	21	2	1	0	distractor	1	534	733	305928	13.328	13.105	13.543
DTProbeTrack03	1	ProbeTrackDT	1.1	SCS215a	20101027.100023	20101027.100232	dt-generate	8	0.013328	60	10	60-180	60	95	GapExp	0	22	2	45	0	distractor	1	520	740	306668	13.328	13.024	13.635
DTProbeTrack03	1	ProbeTrackDT	1.1	SCS215a	20101027.100023	20101027.100238	dt-generate	8	0.013328	60	10	60-180	60	179	GapExp	0	23	2	9	1	distractor	0	1027	-1000	305668	13.328	13.068	13.589
DTProbeTrack03	1	ProbeTrackDT	1.1	SCS215a	20101027.100023	20101027.100245	dt-generate	8	0.013328	60	10	60-180	60	145	GapExp	0	24	2	45	1	target	1	480	760	306428	13.328	13.096	13.550
DTProbeTrack03	1	ProbeTrackDT	1.1	SCS215a	20101027.100023	20101027.100251	dt-generate	8	0.013328	60	10	60-180	60	171	GapExp	0	25	2	3	0	target	0	560	-1000	305428	13.328	12.873	13.786
DTProbeTrack03	1	ProbeTrackDT	1.1	SCS215a	20101027.100023	20101027.100257	dt-generate	8	0.013328	60	10	60-180	60	150	GapExp	0	26	2	6	1	target	1	454	773	306201	13.328	13.270	13.382
DTProbeTrack03	1	ProbeTrackDT	1.1	SCS215a	20101027.100023	20101027.100304	dt-generate	8	0.013328	60	10	60-180	60	180	GapExp	0	27	2	6	0	target	0	560	-1000	305201	13.328	13.304	13.358
DTProbeTrack03	1	ProbeTrackDT	1.1	SCS215a	20101027.100023	20101027.100310	dt-generate	8	0.013328	60	10	60-180	60	138	GapExp	0	28	2	6	0	distractor	1	560	720	305921	13.328	12.977	13.687
DTProbeTrack03	1	ProbeTrackDT	1.1	SCS215a	20101027.100023	20101027.100316	dt-generate	8	0.013328	60	10	60-180	60	130	GapExp	0	29	2	3	0	distractor	1	534	733	306654	13.328	12.941	13.729
DTProbeTrack03	1	ProbeTrackDT	1.1	SCS215a	20101027.100023	20101027.100322	dt-generate	8	0.013328	60	10	60-180	60	163	GapExp	0	30	2	3	1	distractor	0	427	-1000	305654	13.328	13.101	13.554
DTProbeTrack03	1	ProbeTrackDT	1.1	SCS215a	20101027.100023	20101027.100328	dt-generate	8	0.013328	60	10	60-180	60	176	GapExp	0	31	2	45	1	target	1	627	687	306341	13.328	13.306	13.354
DTProbeTrack03	1	ProbeTrackDT	1.1	SCS215a	20101027.100023	20101027.100335	dt-generate	8	0.013328	60	10	60-180	60	127	GapExp	0	32	2	9	1	target	1	693	654	306995	13.328	13.102	13.553
DTProbeTrack03	1	ProbeTrackDT	1.1	SCS215a	20101027.100023	20101027.100341	dt-generate	8	0.013328	60	10	60-180	60	126	GapExp	0	33	2	9	0	distractor	1	574	713	307708	13.328	12.960	13.685
DTProbeTrack03	1	ProbeTrackDT	1.1	SCS215a	20101027.100023	20101027.100346	dt-generate	8	0.013328	60	10	60-180	60	86	GapExp	0	34	2	9	0	distractor	1	547	727	308435	13.328	12.844	13.803
DTProbeTrack03	1	ProbeTrackDT	1.1	SCS215a	20101027.100023	20101027.100352	dt-generate	8	0.013328	60	10	60-180	60	137	GapExp	0	35	2	45	1	target	1	480	760	309195	13.328	12.872	13.796
DTProbeTrack03	1	ProbeTrackDT	1.1	SCS215a	20101027.100023	20101027.100358	dt-generate	8	0.013328	60	10	60-180	60	99	GapExp	0	36	2	1	1	target	1	454	773	309968	13.328	13.030	13.629
DTProbeTrack03	1	ProbeTrackDT	1.1	SCS215a	20101027.100023	20101027.100403	dt-generate	8	0.013328	60	10	60-180	60	90	GapExp	0	37	2	6	0	target	0	480	-1000	308968	13.328	12.883	13.776
DTProbeTrack03	1	ProbeTrackDT	1.1	SCS215a	20101027.100023	20101027.100408	dt-generate	8	0.013328	60	10	60-180	60	171	GapExp	0	38	2	1	1	target	1	480	760	309728	13.328	12.982	13.677
DTProbeTrack03	1	ProbeTrackDT	1.1	SCS215a	20101027.100023	20101027.100415	dt-generate	8	0.013328	60	10	60-180	60	163	GapExp	0	39	2	6	1	distractor	0	2932	-1000	308728	13.328	13.305	13.346
DTProbeTrack03	1	ProbeTrackDT	1.1	SCS215a	20101027.100023	20101027.100423	dt-generate	8	0.013328	60	10	60-180	60	82	GapExp	0	40	2	6	1	target	1	454	773	309501	13.328	13.309	13.347
DTProbeTrack03	1	ProbeTrackDT	1.1	SCS215a	20101027.100023	20101027.100428	dt-generate	8	0.013328	60	10	60-180	60	117	GapExp	0	41	2	9	1	target	1	507	747	310248	13.328	12.900	13.767
