exp	sub	code	rev	comp	runtime	trialtime	stdt	nstim	refreshdur	cuedur	gapdur	gapOnsetRange	durPostProbe	gapOnsetTime	blocktype	prac	trial	ntargets	soa	probeTarget	resp	acc	rt	pts	tpts	meanFrameDur	minFrameDur	maxFrameDur
DTProbeTrack03	17	ProbeTrackDT	1.1	SCS215a	20110128.090132	20110128.090152	single-task	8	0.013343	60	0	60-180	60	71	NoGap	1	1	2	45	1	target	1	454	773	773	13.328	12.857	13.809
DTProbeTrack03	17	ProbeTrackDT	1.1	SCS215a	20110128.090132	20110128.090158	single-task	8	0.013343	60	0	60-180	60	81	NoGap	1	2	2	45	1	target	1	360	820	1593	13.328	12.961	13.699
DTProbeTrack03	17	ProbeTrackDT	1.1	SCS215a	20110128.090132	20110128.090203	single-task	8	0.013343	60	0	60-180	60	94	NoGap	1	3	2	45	0	target	0	294	-1000	593	13.328	13.282	13.375
DTProbeTrack03	17	ProbeTrackDT	1.1	SCS215a	20110128.090132	20110128.090208	single-task	8	0.013343	60	0	60-180	60	115	NoGap	1	4	2	3	1	target	1	320	840	1433	13.328	13.307	13.349
DTProbeTrack03	17	ProbeTrackDT	1.1	SCS215a	20110128.090132	20110128.090213	single-task	8	0.013343	60	0	60-180	60	83	NoGap	1	5	2	6	1	target	1	374	813	2246	13.328	13.019	13.630
DTProbeTrack03	17	ProbeTrackDT	1.1	SCS215a	20110128.090132	20110128.090218	single-task	8	0.013343	60	0	60-180	60	178	NoGap	1	6	2	3	1	target	1	360	820	3066	13.328	13.153	13.495
DTProbeTrack03	17	ProbeTrackDT	1.1	SCS215a	20110128.090132	20110128.090224	single-task	8	0.013343	60	0	60-180	60	138	NoGap	1	7	2	1	0	distractor	1	440	780	3846	14.077	12.864	26.712
DTProbeTrack03	17	ProbeTrackDT	1.1	SCS215a	20110128.090132	20110128.090230	single-task	8	0.013343	60	0	60-180	60	152	NoGap	1	8	2	1	0	distractor	1	374	813	4659	13.638	12.984	40.265
DTProbeTrack03	17	ProbeTrackDT	1.1	SCS215a	20110128.090132	20110128.090236	single-task	8	0.013343	60	0	60-180	60	126	NoGap	1	9	2	45	0	target	0	347	-1000	3659	13.328	13.109	13.543
DTProbeTrack03	17	ProbeTrackDT	1.1	SCS215a	20110128.090132	20110128.090242	single-task	8	0.013343	60	0	60-180	60	169	NoGap	1	10	2	9	1	target	1	387	807	4466	13.421	13.109	26.662
DTProbeTrack03	17	ProbeTrackDT	1.1	SCS215a	20110128.090132	20110128.090248	single-task	8	0.013343	60	0	60-180	60	105	NoGap	1	11	2	6	1	target	1	334	833	5299	13.453	13.074	26.638
DTProbeTrack03	17	ProbeTrackDT	1.1	SCS215a	20110128.090132	20110128.090253	single-task	8	0.013343	60	0	60-180	60	160	NoGap	1	12	2	3	0	distractor	1	427	787	6086	13.523	13.066	39.661
DTProbeTrack03	17	ProbeTrackDT	1.1	SCS215a	20110128.090132	20110128.090259	single-task	8	0.013343	60	0	60-180	60	115	NoGap	1	13	2	1	0	distractor	1	640	680	6766	13.328	12.925	13.753
DTProbeTrack03	17	ProbeTrackDT	1.1	SCS215a	20110128.090132	20110128.090304	single-task	8	0.013343	60	0	60-180	60	166	NoGap	1	14	2	45	0	distractor	1	614	693	7459	13.328	13.246	13.410
DTProbeTrack03	17	ProbeTrackDT	1.1	SCS215a	20110128.090132	20110128.090311	single-task	8	0.013343	60	0	60-180	60	142	NoGap	1	15	2	9	0	distractor	1	400	800	8259	13.328	13.101	13.560
DTProbeTrack03	17	ProbeTrackDT	1.1	SCS215a	20110128.090132	20110128.090316	single-task	8	0.013343	60	0	60-180	60	176	NoGap	1	16	2	9	0	distractor	1	387	807	9066	13.328	13.097	13.751
DTProbeTrack03	17	ProbeTrackDT	1.1	SCS215a	20110128.090132	20110128.090322	single-task	8	0.013343	60	0	60-180	60	146	NoGap	1	17	2	6	1	target	1	294	853	9919	13.328	12.891	13.768
DTProbeTrack03	17	ProbeTrackDT	1.1	SCS215a	20110128.090132	20110128.090328	single-task	8	0.013343	60	0	60-180	60	104	NoGap	1	18	2	1	1	distractor	0	440	-1000	8919	13.328	13.305	13.357
DTProbeTrack03	17	ProbeTrackDT	1.1	SCS215a	20110128.090132	20110128.090333	single-task	8	0.013343	60	0	60-180	60	112	NoGap	1	19	2	45	1	target	1	387	807	9726	13.328	13.021	13.646
DTProbeTrack03	17	ProbeTrackDT	1.1	SCS215a	20110128.090132	20110128.090339	single-task	8	0.013343	60	0	60-180	60	155	NoGap	1	20	2	3	1	target	1	387	807	10533	13.328	13.305	13.349
DTProbeTrack03	17	ProbeTrackDT	1.1	SCS215a	20110128.090132	20110128.090345	single-task	8	0.013343	60	0	60-180	60	167	NoGap	1	21	2	9	1	target	1	360	820	11353	13.328	13.105	13.551
DTProbeTrack03	17	ProbeTrackDT	1.1	SCS215a	20110128.090132	20110128.090350	single-task	8	0.013343	60	0	60-180	60	123	NoGap	1	22	2	6	1	target	1	360	820	12173	13.327	13.303	13.357
DTProbeTrack03	17	ProbeTrackDT	1.1	SCS215a	20110128.090132	20110128.090356	single-task	8	0.013343	60	0	60-180	60	168	NoGap	1	23	2	6	0	distractor	1	467	767	12940	13.328	13.092	13.729
DTProbeTrack03	17	ProbeTrackDT	1.1	SCS215a	20110128.090132	20110128.090402	single-task	8	0.013343	60	0	60-180	60	178	NoGap	1	24	2	9	1	target	1	347	827	13767	13.328	12.883	13.778
DTProbeTrack03	17	ProbeTrackDT	1.1	SCS215a	20110128.090132	20110128.090408	single-task	8	0.013343	60	0	60-180	60	69	NoGap	1	25	2	6	0	distractor	1	560	720	14487	13.328	13.081	13.564
DTProbeTrack03	17	ProbeTrackDT	1.1	SCS215a	20110128.090132	20110128.090413	single-task	8	0.013343	60	0	60-180	60	86	NoGap	1	26	2	45	0	distractor	1	467	767	15254	13.328	13.095	13.560
DTProbeTrack03	17	ProbeTrackDT	1.1	SCS215a	20110128.090132	20110128.090418	single-task	8	0.013343	60	0	60-180	60	179	NoGap	1	27	2	9	1	target	1	400	800	16054	13.328	13.170	13.489
DTProbeTrack03	17	ProbeTrackDT	1.1	SCS215a	20110128.090132	20110128.090424	single-task	8	0.013343	60	0	60-180	60	167	NoGap	1	28	2	1	1	target	1	387	807	16861	13.328	13.192	13.465
DTProbeTrack03	17	ProbeTrackDT	1.1	SCS215a	20110128.090132	20110128.090430	single-task	8	0.013343	60	0	60-180	60	74	NoGap	1	29	2	1	1	target	1	427	787	17648	13.328	13.307	13.355
DTProbeTrack03	17	ProbeTrackDT	1.1	SCS215a	20110128.090132	20110128.090435	single-task	8	0.013343	60	0	60-180	60	128	NoGap	1	30	2	3	0	distractor	1	400	800	18448	13.328	13.110	13.540
DTProbeTrack03	17	ProbeTrackDT	1.1	SCS215a	20110128.090132	20110128.090440	single-task	8	0.013343	60	0	60-180	60	95	NoGap	1	31	2	6	0	distractor	1	400	800	19248	13.328	13.141	13.517
DTProbeTrack03	17	ProbeTrackDT	1.1	SCS215a	20110128.090132	20110128.090445	single-task	8	0.013343	60	0	60-180	60	160	NoGap	1	32	2	6	0	target	0	427	-1000	18248	13.328	13.098	13.561
DTProbeTrack03	17	ProbeTrackDT	1.1	SCS215a	20110128.090132	20110128.090451	single-task	8	0.013343	60	0	60-180	60	164	NoGap	1	33	2	9	0	distractor	1	400	800	19048	13.328	13.119	13.525
DTProbeTrack03	17	ProbeTrackDT	1.1	SCS215a	20110128.090132	20110128.090457	single-task	8	0.013343	60	0	60-180	60	175	NoGap	1	34	2	9	0	distractor	1	454	773	19821	13.328	12.883	13.783
DTProbeTrack03	17	ProbeTrackDT	1.1	SCS215a	20110128.090132	20110128.090503	single-task	8	0.013343	60	0	60-180	60	119	NoGap	1	35	2	45	1	distractor	0	1027	-1000	18821	13.328	13.099	13.538
DTProbeTrack03	17	ProbeTrackDT	1.1	SCS215a	20110128.090132	20110128.090510	single-task	8	0.013343	60	0	60-180	60	81	NoGap	1	36	2	3	0	distractor	1	667	667	19488	13.580	12.855	39.979
DTProbeTrack03	17	ProbeTrackDT	1.1	SCS215a	20110128.090132	20110128.090515	single-task	8	0.013343	60	0	60-180	60	79	NoGap	1	37	2	1	1	target	1	507	747	20235	13.328	12.854	13.806
DTProbeTrack03	17	ProbeTrackDT	1.1	SCS215a	20110128.090132	20110128.090519	single-task	8	0.013343	60	0	60-180	60	93	NoGap	1	38	2	1	0	distractor	1	427	787	21022	13.328	12.902	13.755
DTProbeTrack03	17	ProbeTrackDT	1.1	SCS215a	20110128.090132	20110128.090524	single-task	8	0.013343	60	0	60-180	60	129	NoGap	1	39	2	3	1	target	1	334	833	21855	13.328	12.913	13.755
DTProbeTrack03	17	ProbeTrackDT	1.1	SCS215a	20110128.090132	20110128.090530	single-task	8	0.013343	60	0	60-180	60	170	NoGap	1	40	2	3	0	distractor	1	347	827	22682	13.328	12.885	13.770
DTProbeTrack03	17	ProbeTrackDT	1.1	SCS215a	20110128.090908	20110128.090912	dt-generate	8	0.013328	60	10	60-180	60	155	GapPrac	1	1	2	9	1	target	1	440	780	23462	13.374	13.048	26.647
DTProbeTrack03	17	ProbeTrackDT	1.1	SCS215a	20110128.090908	20110128.090918	dt-generate	8	0.013328	60	10	60-180	60	163	GapPrac	1	2	2	6	0	target	0	640	-1000	22462	13.415	12.885	27.086
DTProbeTrack03	17	ProbeTrackDT	1.1	SCS215a	20110128.090908	20110128.090924	dt-generate	8	0.013328	60	10	60-180	60	111	GapPrac	1	3	2	3	0	target	0	427	-1000	21462	13.328	12.872	13.775
DTProbeTrack03	17	ProbeTrackDT	1.1	SCS215a	20110128.090908	20110128.090929	dt-generate	8	0.013328	60	10	60-180	60	175	GapPrac	1	4	2	45	0	distractor	1	494	753	22215	13.328	13.034	13.622
DTProbeTrack03	17	ProbeTrackDT	1.1	SCS215a	20110128.090908	20110128.090936	dt-generate	8	0.013328	60	10	60-180	60	174	GapPrac	1	5	2	3	1	target	1	600	700	22915	13.328	13.056	13.590
DTProbeTrack03	17	ProbeTrackDT	1.1	SCS215a	20110128.090908	20110128.090943	dt-generate	8	0.013328	60	10	60-180	60	112	GapPrac	1	6	2	3	0	distractor	1	547	727	23642	13.328	13.098	13.563
DTProbeTrack03	17	ProbeTrackDT	1.1	SCS215a	20110128.090908	20110128.090948	dt-generate	8	0.013328	60	10	60-180	60	131	GapPrac	1	7	2	45	1	target	1	507	747	24389	13.328	13.308	13.347
DTProbeTrack03	17	ProbeTrackDT	1.1	SCS215a	20110128.090908	20110128.090954	dt-generate	8	0.013328	60	10	60-180	60	71	GapPrac	1	8	2	45	1	distractor	0	414	-1000	23389	13.328	12.991	13.649
DTProbeTrack03	17	ProbeTrackDT	1.1	SCS215a	20110128.090908	20110128.091000	dt-generate	8	0.013328	60	10	60-180	60	81	GapPrac	1	9	2	6	1	target	1	374	813	24202	13.328	13.050	13.604
DTProbeTrack03	17	ProbeTrackDT	1.1	SCS215a	20110128.090908	20110128.091004	dt-generate	8	0.013328	60	10	60-180	60	178	GapPrac	1	10	2	9	0	distractor	1	400	800	25002	13.328	13.092	13.555
DTProbeTrack03	17	ProbeTrackDT	1.1	SCS215a	20110128.090908	20110128.091011	dt-generate	8	0.013328	60	10	60-180	60	164	GapPrac	1	11	2	1	0	target	0	14021	-1000	24002	13.328	13.103	13.566
DTProbeTrack03	17	ProbeTrackDT	1.1	SCS215a	20110128.090908	20110128.091030	dt-generate	8	0.013328	60	10	60-180	60	159	GapPrac	1	12	2	9	0	distractor	1	520	740	24742	13.328	13.096	13.560
DTProbeTrack03	17	ProbeTrackDT	1.1	SCS215a	20110128.090908	20110128.091036	dt-generate	8	0.013328	60	10	60-180	60	120	GapPrac	1	13	2	1	1	target	1	574	713	25455	13.328	13.302	13.349
DTProbeTrack03	17	ProbeTrackDT	1.1	SCS215a	20110128.090908	20110128.091042	dt-generate	8	0.013328	60	10	60-180	60	110	GapPrac	1	14	2	1	1	target	1	534	733	26188	13.328	13.305	13.347
DTProbeTrack03	17	ProbeTrackDT	1.1	SCS215a	20110128.090908	20110128.091047	dt-generate	8	0.013328	60	10	60-180	60	93	GapPrac	1	15	2	6	0	distractor	1	627	687	26875	13.328	13.302	13.358
DTProbeTrack03	17	ProbeTrackDT	1.1	SCS215a	20110128.090908	20110128.091053	dt-generate	8	0.013328	60	10	60-180	60	154	GapPrac	1	16	2	45	0	target	0	494	-1000	25875	13.328	13.024	13.546
DTProbeTrack03	17	ProbeTrackDT	1.1	SCS215a	20110128.090908	20110128.091059	dt-generate	8	0.013328	60	10	60-180	60	122	GapPrac	1	17	2	9	1	distractor	0	587	-1000	24875	13.328	13.103	13.720
DTProbeTrack03	17	ProbeTrackDT	1.1	SCS215a	20110128.090908	20110128.091105	dt-generate	8	0.013328	60	10	60-180	60	68	GapPrac	1	18	2	3	1	target	1	507	747	25622	13.328	13.306	13.346
DTProbeTrack03	17	ProbeTrackDT	1.1	SCS215a	20110128.090908	20110128.091110	dt-generate	8	0.013328	60	10	60-180	60	116	GapPrac	1	19	2	6	1	target	1	574	713	26335	13.328	13.104	13.553
DTProbeTrack03	17	ProbeTrackDT	1.1	SCS215a	20110128.090908	20110128.091115	dt-generate	8	0.013328	60	10	60-180	60	156	GapPrac	1	20	2	1	0	distractor	1	427	787	27122	13.327	13.105	13.363
DTProbeTrack03	17	ProbeTrackDT	1.1	SCS215a	20110128.091207	20110128.091212	dt-generate	8	0.013327	60	10	60-180	60	97	GapExp	1	1	2	9	0	distractor	1	907	547	27669	13.328	13.299	13.357
DTProbeTrack03	17	ProbeTrackDT	1.1	SCS215a	20110128.091207	20110128.091218	dt-generate	8	0.013327	60	10	60-180	60	77	GapExp	1	2	2	45	1	target	1	400	800	28469	13.328	13.112	13.553
DTProbeTrack03	17	ProbeTrackDT	1.1	SCS215a	20110128.091207	20110128.091223	dt-generate	8	0.013327	60	10	60-180	60	63	GapExp	1	3	2	3	0	distractor	1	520	740	29209	13.328	12.839	13.805
DTProbeTrack03	17	ProbeTrackDT	1.1	SCS215a	20110128.091207	20110128.091228	dt-generate	8	0.013327	60	10	60-180	60	74	GapExp	1	4	2	9	1	distractor	0	467	-1000	28209	13.328	12.935	13.708
DTProbeTrack03	17	ProbeTrackDT	1.1	SCS215a	20110128.091207	20110128.091233	dt-generate	8	0.013327	60	10	60-180	60	101	GapExp	1	5	2	1	0	distractor	1	494	753	28962	14.576	12.849	53.304
DTProbeTrack03	17	ProbeTrackDT	1.1	SCS215a	20110128.091207	20110128.091239	dt-generate	8	0.013327	60	10	60-180	60	92	GapExp	0	6	2	1	1	target	1	414	793	29755	13.328	12.871	13.781
DTProbeTrack03	17	ProbeTrackDT	1.1	SCS215a	20110128.091207	20110128.091244	dt-generate	8	0.013327	60	10	60-180	60	110	GapExp	0	7	2	45	0	distractor	1	520	740	30495	13.328	12.896	13.765
DTProbeTrack03	17	ProbeTrackDT	1.1	SCS215a	20110128.091207	20110128.091250	dt-generate	8	0.013327	60	10	60-180	60	132	GapExp	0	8	2	3	1	target	1	494	753	31248	13.328	13.309	13.347
DTProbeTrack03	17	ProbeTrackDT	1.1	SCS215a	20110128.091207	20110128.091255	dt-generate	8	0.013327	60	10	60-180	60	61	GapExp	0	9	2	9	0	distractor	1	507	747	31995	13.328	13.299	13.368
DTProbeTrack03	17	ProbeTrackDT	1.1	SCS215a	20110128.091207	20110128.091300	dt-generate	8	0.013327	60	10	60-180	60	144	GapExp	0	10	2	6	0	distractor	1	427	787	32782	13.328	13.121	13.550
DTProbeTrack03	17	ProbeTrackDT	1.1	SCS215a	20110128.091207	20110128.091306	dt-generate	8	0.013327	60	10	60-180	60	132	GapExp	0	11	2	1	1	target	1	560	720	33502	13.328	13.304	13.357
DTProbeTrack03	17	ProbeTrackDT	1.1	SCS215a	20110128.091207	20110128.091312	dt-generate	8	0.013327	60	10	60-180	60	154	GapExp	0	12	2	45	0	distractor	1	507	747	34249	13.328	13.107	13.557
DTProbeTrack03	17	ProbeTrackDT	1.1	SCS215a	20110128.091207	20110128.091318	dt-generate	8	0.013327	60	10	60-180	60	154	GapExp	0	13	2	6	1	target	1	640	680	34929	13.328	13.090	13.771
DTProbeTrack03	17	ProbeTrackDT	1.1	SCS215a	20110128.091207	20110128.091324	dt-generate	8	0.013327	60	10	60-180	60	175	GapExp	0	14	2	45	0	distractor	1	653	674	35603	13.328	12.887	13.789
DTProbeTrack03	17	ProbeTrackDT	1.1	SCS215a	20110128.091207	20110128.091331	dt-generate	8	0.013327	60	10	60-180	60	88	GapExp	0	15	2	9	0	distractor	1	480	760	36363	13.328	12.853	13.793
DTProbeTrack03	17	ProbeTrackDT	1.1	SCS215a	20110128.091207	20110128.091336	dt-generate	8	0.013327	60	10	60-180	60	62	GapExp	0	16	2	9	0	distractor	1	560	720	37083	13.328	12.867	13.784
DTProbeTrack03	17	ProbeTrackDT	1.1	SCS215a	20110128.091207	20110128.091341	dt-generate	8	0.013327	60	10	60-180	60	112	GapExp	0	17	2	3	1	target	1	387	807	37890	13.385	12.836	26.627
DTProbeTrack03	17	ProbeTrackDT	1.1	SCS215a	20110128.091207	20110128.091346	dt-generate	8	0.013327	60	10	60-180	60	175	GapExp	0	18	2	6	0	distractor	1	400	800	38690	13.328	13.107	13.543
DTProbeTrack03	17	ProbeTrackDT	1.1	SCS215a	20110128.091207	20110128.091353	dt-generate	8	0.013327	60	10	60-180	60	179	GapExp	0	19	2	9	0	distractor	1	427	787	39477	13.328	13.097	13.556
DTProbeTrack03	17	ProbeTrackDT	1.1	SCS215a	20110128.091207	20110128.091359	dt-generate	8	0.013327	60	10	60-180	60	91	GapExp	0	20	2	6	0	distractor	1	494	753	40230	13.328	12.883	13.773
DTProbeTrack03	17	ProbeTrackDT	1.1	SCS215a	20110128.091207	20110128.091404	dt-generate	8	0.013327	60	10	60-180	60	120	GapExp	0	21	2	3	1	distractor	0	347	-1000	39230	13.384	12.879	26.641
DTProbeTrack03	17	ProbeTrackDT	1.1	SCS215a	20110128.091207	20110128.091410	dt-generate	8	0.013327	60	10	60-180	60	92	GapExp	0	22	2	3	0	distractor	1	440	780	40010	13.327	13.093	13.548
DTProbeTrack03	17	ProbeTrackDT	1.1	SCS215a	20110128.091207	20110128.091415	dt-generate	8	0.013327	60	10	60-180	60	150	GapExp	0	23	2	3	0	distractor	1	387	807	40817	13.328	12.932	13.750
DTProbeTrack03	17	ProbeTrackDT	1.1	SCS215a	20110128.091207	20110128.091420	dt-generate	8	0.013327	60	10	60-180	60	106	GapExp	0	24	2	3	0	distractor	1	427	787	41604	13.328	12.931	13.753
DTProbeTrack03	17	ProbeTrackDT	1.1	SCS215a	20110128.091207	20110128.091426	dt-generate	8	0.013327	60	10	60-180	60	76	GapExp	0	25	2	3	1	target	1	867	567	42171	13.328	12.867	13.795
DTProbeTrack03	17	ProbeTrackDT	1.1	SCS215a	20110128.091207	20110128.091431	dt-generate	8	0.013327	60	10	60-180	60	109	GapExp	0	26	2	3	1	target	1	534	733	42904	13.328	12.888	13.754
DTProbeTrack03	17	ProbeTrackDT	1.1	SCS215a	20110128.091207	20110128.091436	dt-generate	8	0.013327	60	10	60-180	60	103	GapExp	0	27	2	6	0	target	0	520	-1000	41904	13.328	12.842	13.828
DTProbeTrack03	17	ProbeTrackDT	1.1	SCS215a	20110128.091207	20110128.091442	dt-generate	8	0.013327	60	10	60-180	60	107	GapExp	0	28	2	9	0	distractor	1	414	793	42697	13.328	13.303	13.349
DTProbeTrack03	17	ProbeTrackDT	1.1	SCS215a	20110128.091207	20110128.091447	dt-generate	8	0.013327	60	10	60-180	60	62	GapExp	0	29	2	45	0	distractor	1	494	753	43450	13.328	12.907	13.750
DTProbeTrack03	17	ProbeTrackDT	1.1	SCS215a	20110128.091207	20110128.091452	dt-generate	8	0.013327	60	10	60-180	60	147	GapExp	0	30	2	9	1	target	1	574	713	44163	13.328	12.919	13.740
DTProbeTrack03	17	ProbeTrackDT	1.1	SCS215a	20110128.091207	20110128.091458	dt-generate	8	0.013327	60	10	60-180	60	111	GapExp	0	31	2	3	1	target	1	454	773	44936	13.328	12.896	13.765
DTProbeTrack03	17	ProbeTrackDT	1.1	SCS215a	20110128.091207	20110128.091504	dt-generate	8	0.013327	60	10	60-180	60	111	GapExp	0	32	2	6	0	distractor	1	320	840	45776	13.328	13.110	13.553
DTProbeTrack03	17	ProbeTrackDT	1.1	SCS215a	20110128.091207	20110128.091509	dt-generate	8	0.013327	60	10	60-180	60	103	GapExp	0	33	2	3	1	target	1	387	807	46583	13.327	12.943	13.717
DTProbeTrack03	17	ProbeTrackDT	1.1	SCS215a	20110128.091207	20110128.091514	dt-generate	8	0.013327	60	10	60-180	60	61	GapExp	0	34	2	1	0	distractor	1	520	740	47323	13.328	12.919	13.748
DTProbeTrack03	17	ProbeTrackDT	1.1	SCS215a	20110128.091207	20110128.091519	dt-generate	8	0.013327	60	10	60-180	60	86	GapExp	0	35	2	45	0	target	0	454	-1000	46323	13.328	12.965	13.673
DTProbeTrack03	17	ProbeTrackDT	1.1	SCS215a	20110128.091207	20110128.091524	dt-generate	8	0.013327	60	10	60-180	60	137	GapExp	0	36	2	9	0	distractor	1	454	773	47096	13.328	13.112	13.538
DTProbeTrack03	17	ProbeTrackDT	1.1	SCS215a	20110128.091207	20110128.091530	dt-generate	8	0.013327	60	10	60-180	60	140	GapExp	0	37	2	6	1	distractor	0	414	-1000	46096	13.328	12.985	13.688
DTProbeTrack03	17	ProbeTrackDT	1.1	SCS215a	20110128.091207	20110128.091536	dt-generate	8	0.013327	60	10	60-180	60	143	GapExp	0	38	2	1	0	distractor	1	427	787	46883	13.328	13.112	13.531
DTProbeTrack03	17	ProbeTrackDT	1.1	SCS215a	20110128.091207	20110128.091542	dt-generate	8	0.013327	60	10	60-180	60	163	GapExp	0	39	2	9	0	distractor	1	374	813	47696	13.328	13.305	13.346
DTProbeTrack03	17	ProbeTrackDT	1.1	SCS215a	20110128.091207	20110128.091548	dt-generate	8	0.013327	60	10	60-180	60	175	GapExp	0	40	2	6	1	target	1	440	780	48476	13.328	13.005	13.643
DTProbeTrack03	17	ProbeTrackDT	1.1	SCS215a	20110128.091207	20110128.091554	dt-generate	8	0.013327	60	10	60-180	60	134	GapExp	0	41	2	45	1	target	1	747	627	49103	13.328	12.855	13.784
DTProbeTrack03	17	ProbeTrackDT	1.1	SCS215a	20110128.091207	20110128.091600	dt-generate	8	0.013327	60	10	60-180	60	168	GapExp	0	42	2	6	1	target	1	600	700	49803	13.328	13.105	13.538
DTProbeTrack03	17	ProbeTrackDT	1.1	SCS215a	20110128.091207	20110128.091607	dt-generate	8	0.013327	60	10	60-180	60	168	GapExp	0	43	2	1	1	target	1	613	694	50497	13.328	12.861	13.778
DTProbeTrack03	17	ProbeTrackDT	1.1	SCS215a	20110128.091207	20110128.091613	dt-generate	8	0.013327	60	10	60-180	60	165	GapExp	0	44	2	9	1	distractor	0	574	-1000	49497	13.328	12.830	13.824
DTProbeTrack03	17	ProbeTrackDT	1.1	SCS215a	20110128.091207	20110128.091619	dt-generate	8	0.013327	60	10	60-180	60	133	GapExp	0	45	2	9	1	target	1	414	793	50290	13.328	12.892	13.679
DTProbeTrack03	17	ProbeTrackDT	1.1	SCS215a	20110128.091207	20110128.091625	dt-generate	8	0.013327	60	10	60-180	60	93	GapExp	0	46	2	6	1	distractor	0	427	-1000	49290	13.328	12.901	13.742
DTProbeTrack03	17	ProbeTrackDT	1.1	SCS215a	20110128.091207	20110128.091630	dt-generate	8	0.013327	60	10	60-180	60	151	GapExp	0	47	2	45	1	target	1	480	760	50050	13.328	13.308	13.348
DTProbeTrack03	17	ProbeTrackDT	1.1	SCS215a	20110128.091207	20110128.091637	dt-generate	8	0.013327	60	10	60-180	60	152	GapExp	0	48	2	1	1	target	1	374	813	50863	13.328	13.037	13.622
DTProbeTrack03	17	ProbeTrackDT	1.1	SCS215a	20110128.091207	20110128.091642	dt-generate	8	0.013327	60	10	60-180	60	180	GapExp	0	49	2	6	0	distractor	1	507	747	51610	13.328	12.956	13.681
DTProbeTrack03	17	ProbeTrackDT	1.1	SCS215a	20110128.091207	20110128.091649	dt-generate	8	0.013327	60	10	60-180	60	62	GapExp	0	50	2	45	0	distractor	1	507	747	52357	13.328	12.872	13.784
DTProbeTrack03	17	ProbeTrackDT	1.1	SCS215a	20110128.091207	20110128.091734	dt-generate	8	0.013327	60	10	60-180	60	114	GapExp	0	51	2	1	0	target	0	1706	-1000	51357	13.328	13.123	13.737
DTProbeTrack03	17	ProbeTrackDT	1.1	SCS215a	20110128.091207	20110128.091740	dt-generate	8	0.013327	60	10	60-180	60	156	GapExp	0	52	2	9	1	target	1	427	787	52144	13.328	12.851	13.793
DTProbeTrack03	17	ProbeTrackDT	1.1	SCS215a	20110128.091207	20110128.091746	dt-generate	8	0.013327	60	10	60-180	60	100	GapExp	0	53	2	9	1	target	1	454	773	52917	13.328	12.941	13.702
DTProbeTrack03	17	ProbeTrackDT	1.1	SCS215a	20110128.091207	20110128.091752	dt-generate	8	0.013327	60	10	60-180	60	146	GapExp	0	54	2	6	0	distractor	1	933	534	53451	13.328	13.053	13.595
DTProbeTrack03	17	ProbeTrackDT	1.1	SCS215a	20110128.091207	20110128.091758	dt-generate	8	0.013327	60	10	60-180	60	136	GapExp	0	55	2	45	1	target	1	334	833	54284	13.328	12.902	13.764
DTProbeTrack03	17	ProbeTrackDT	1.1	SCS215a	20110128.091207	20110128.091804	dt-generate	8	0.013327	60	10	60-180	60	171	GapExp	0	56	2	6	0	distractor	1	360	820	55104	13.328	12.895	13.766
DTProbeTrack03	17	ProbeTrackDT	1.1	SCS215a	20110128.091207	20110128.091810	dt-generate	8	0.013327	60	10	60-180	60	78	GapExp	0	57	2	9	0	distractor	1	494	753	55857	13.328	12.873	13.785
DTProbeTrack03	17	ProbeTrackDT	1.1	SCS215a	20110128.091207	20110128.091815	dt-generate	8	0.013327	60	10	60-180	60	166	GapExp	0	58	2	6	0	target	0	414	-1000	54857	13.328	12.946	13.701
DTProbeTrack03	17	ProbeTrackDT	1.1	SCS215a	20110128.091207	20110128.091821	dt-generate	8	0.013327	60	10	60-180	60	130	GapExp	0	59	2	45	1	target	1	827	587	55444	13.328	13.097	13.554
DTProbeTrack03	17	ProbeTrackDT	1.1	SCS215a	20110128.091207	20110128.091828	dt-generate	8	0.013327	60	10	60-180	60	87	GapExp	0	60	2	1	0	distractor	1	467	767	56211	13.328	13.089	13.555
DTProbeTrack03	17	ProbeTrackDT	1.1	SCS215a	20110128.091207	20110128.091833	dt-generate	8	0.013327	60	10	60-180	60	147	GapExp	0	61	2	1	1	target	1	321	840	57051	13.328	12.888	13.768
DTProbeTrack03	17	ProbeTrackDT	1.1	SCS215a	20110128.091207	20110128.091838	dt-generate	8	0.013327	60	10	60-180	60	136	GapExp	0	62	2	45	0	target	0	467	-1000	56051	13.328	13.306	13.355
DTProbeTrack03	17	ProbeTrackDT	1.1	SCS215a	20110128.091207	20110128.091845	dt-generate	8	0.013327	60	10	60-180	60	136	GapExp	0	63	2	1	1	target	1	467	767	56818	13.430	12.883	27.107
DTProbeTrack03	17	ProbeTrackDT	1.1	SCS215a	20110128.091207	20110128.091850	dt-generate	8	0.013327	60	10	60-180	60	168	GapExp	0	64	2	3	0	distractor	1	320	840	57658	13.328	12.891	13.775
DTProbeTrack03	17	ProbeTrackDT	1.1	SCS215a	20110128.091207	20110128.091856	dt-generate	8	0.013327	60	10	60-180	60	172	GapExp	0	65	2	45	0	distractor	1	387	807	58465	13.328	12.910	13.738
DTProbeTrack03	17	ProbeTrackDT	1.1	SCS215a	20110128.091207	20110128.091903	dt-generate	8	0.013327	60	10	60-180	60	92	GapExp	0	66	2	3	1	target	1	653	674	59139	13.385	13.083	26.898
DTProbeTrack03	17	ProbeTrackDT	1.1	SCS215a	20110128.091207	20110128.091908	dt-generate	8	0.013327	60	10	60-180	60	95	GapExp	0	67	2	6	1	target	1	467	767	59906	13.328	13.102	13.549
DTProbeTrack03	17	ProbeTrackDT	1.1	SCS215a	20110128.091207	20110128.091913	dt-generate	8	0.013327	60	10	60-180	60	78	GapExp	0	68	2	3	0	target	0	600	-1000	58906	13.328	13.126	13.519
DTProbeTrack03	17	ProbeTrackDT	1.1	SCS215a	20110128.091207	20110128.091918	dt-generate	8	0.013327	60	10	60-180	60	109	GapExp	0	69	2	9	0	target	0	507	-1000	57906	13.382	13.057	26.644
DTProbeTrack03	17	ProbeTrackDT	1.1	SCS215a	20110128.091207	20110128.091924	dt-generate	8	0.013327	60	10	60-180	60	161	GapExp	0	70	2	45	1	target	1	454	773	58679	13.328	13.103	13.559
DTProbeTrack03	17	ProbeTrackDT	1.1	SCS215a	20110128.091207	20110128.091930	dt-generate	8	0.013327	60	10	60-180	60	103	GapExp	0	71	2	45	1	distractor	0	494	-1000	57679	13.328	12.853	13.804
DTProbeTrack03	17	ProbeTrackDT	1.1	SCS215a	20110128.091207	20110128.091936	dt-generate	8	0.013327	60	10	60-180	60	72	GapExp	0	72	2	6	1	target	1	440	780	58459	13.328	13.307	13.349
DTProbeTrack03	17	ProbeTrackDT	1.1	SCS215a	20110128.091207	20110128.091941	dt-generate	8	0.013327	60	10	60-180	60	140	GapExp	0	73	2	6	1	target	1	467	767	59226	13.328	12.830	13.826
DTProbeTrack03	17	ProbeTrackDT	1.1	SCS215a	20110128.091207	20110128.091947	dt-generate	8	0.013327	60	10	60-180	60	97	GapExp	0	74	2	3	0	distractor	1	693	654	59880	13.328	13.074	13.731
DTProbeTrack03	17	ProbeTrackDT	1.1	SCS215a	20110128.091207	20110128.091952	dt-generate	8	0.013327	60	10	60-180	60	131	GapExp	0	75	2	1	0	target	0	494	-1000	58880	13.328	13.097	13.550
DTProbeTrack03	17	ProbeTrackDT	1.1	SCS215a	20110128.091207	20110128.091958	dt-generate	8	0.013327	60	10	60-180	60	72	GapExp	0	76	2	6	1	target	1	307	847	59727	13.328	13.079	13.576
DTProbeTrack03	17	ProbeTrackDT	1.1	SCS215a	20110128.091207	20110128.092003	dt-generate	8	0.013327	60	10	60-180	60	61	GapExp	0	77	2	1	1	target	1	534	733	60460	13.328	12.908	13.760
DTProbeTrack03	17	ProbeTrackDT	1.1	SCS215a	20110128.091207	20110128.092007	dt-generate	8	0.013327	60	10	60-180	60	129	GapExp	0	78	2	1	0	distractor	1	414	793	61253	13.328	13.298	13.375
DTProbeTrack03	17	ProbeTrackDT	1.1	SCS215a	20110128.091207	20110128.092013	dt-generate	8	0.013327	60	10	60-180	60	163	GapExp	0	79	2	6	1	target	1	320	840	62093	13.328	13.094	13.667
DTProbeTrack03	17	ProbeTrackDT	1.1	SCS215a	20110128.091207	20110128.092019	dt-generate	8	0.013327	60	10	60-180	60	91	GapExp	0	80	2	1	1	target	1	374	813	62906	13.328	12.883	13.786
DTProbeTrack03	17	ProbeTrackDT	1.1	SCS215a	20110128.091207	20110128.092024	dt-generate	8	0.013327	60	10	60-180	60	94	GapExp	0	81	2	45	1	target	1	653	674	63580	13.328	12.863	13.805
DTProbeTrack03	17	ProbeTrackDT	1.1	SCS215a	20110128.091207	20110128.092030	dt-generate	8	0.013327	60	10	60-180	60	87	GapExp	0	82	2	9	0	distractor	1	440	780	64360	13.328	13.307	13.355
DTProbeTrack03	17	ProbeTrackDT	1.1	SCS215a	20110128.091207	20110128.092035	dt-generate	8	0.013327	60	10	60-180	60	92	GapExp	0	83	2	45	0	target	0	627	-1000	63360	13.328	13.112	13.559
DTProbeTrack03	17	ProbeTrackDT	1.1	SCS215a	20110128.091207	20110128.092040	dt-generate	8	0.013327	60	10	60-180	60	159	GapExp	0	84	2	1	0	distractor	1	787	607	63967	13.328	12.873	13.788
DTProbeTrack03	17	ProbeTrackDT	1.1	SCS215a	20110128.091207	20110128.092047	dt-generate	8	0.013327	60	10	60-180	60	121	GapExp	0	85	2	3	0	distractor	1	773	614	64581	13.328	12.910	13.738
DTProbeTrack03	17	ProbeTrackDT	1.1	SCS215a	20110128.091207	20110128.092053	dt-generate	8	0.013327	60	10	60-180	60	156	GapExp	0	86	2	45	0	distractor	1	494	753	65334	13.328	13.005	13.671
DTProbeTrack03	17	ProbeTrackDT	1.1	SCS215a	20110128.091207	20110128.092059	dt-generate	8	0.013327	60	10	60-180	60	147	GapExp	0	87	2	9	1	distractor	0	520	-1000	64334	13.328	12.853	13.811
DTProbeTrack03	17	ProbeTrackDT	1.1	SCS215a	20110128.091207	20110128.092105	dt-generate	8	0.013327	60	10	60-180	60	143	GapExp	0	88	2	45	0	distractor	1	613	694	65028	13.327	13.305	13.348
DTProbeTrack03	17	ProbeTrackDT	1.1	SCS215a	20110128.091207	20110128.092112	dt-generate	8	0.013327	60	10	60-180	60	136	GapExp	0	89	2	1	1	target	1	2119	0	65028	13.328	12.886	13.764
DTProbeTrack03	17	ProbeTrackDT	1.1	SCS215a	20110128.091207	20110128.092119	dt-generate	8	0.013327	60	10	60-180	60	86	GapExp	0	90	2	3	0	target	0	1613	-1000	64028	13.328	13.281	13.378
DTProbeTrack03	17	ProbeTrackDT	1.1	SCS215a	20110128.091207	20110128.092125	dt-generate	8	0.013327	60	10	60-180	60	136	GapExp	0	91	2	9	1	target	1	427	787	64815	13.328	13.085	13.578
DTProbeTrack03	17	ProbeTrackDT	1.1	SCS215a	20110128.091207	20110128.092131	dt-generate	8	0.013327	60	10	60-180	60	102	GapExp	0	92	2	45	0	distractor	1	520	740	65555	13.328	13.308	13.346
DTProbeTrack03	17	ProbeTrackDT	1.1	SCS215a	20110128.091207	20110128.092137	dt-generate	8	0.013327	60	10	60-180	60	87	GapExp	0	93	2	3	1	target	1	907	547	66102	13.328	13.118	13.552
DTProbeTrack03	17	ProbeTrackDT	1.1	SCS215a	20110128.091207	20110128.092142	dt-generate	8	0.013327	60	10	60-180	60	103	GapExp	0	94	2	45	1	target	1	454	773	66875	13.328	12.946	13.716
DTProbeTrack03	17	ProbeTrackDT	1.1	SCS215a	20110128.091207	20110128.092148	dt-generate	8	0.013327	60	10	60-180	60	79	GapExp	0	95	2	45	0	target	0	627	-1000	65875	13.328	13.047	13.620
DTProbeTrack03	17	ProbeTrackDT	1.1	SCS215a	20110128.091207	20110128.092154	dt-generate	8	0.013327	60	10	60-180	60	113	GapExp	0	96	2	45	0	distractor	1	440	780	66655	13.328	13.303	13.348
DTProbeTrack03	17	ProbeTrackDT	1.1	SCS215a	20110128.091207	20110128.092200	dt-generate	8	0.013327	60	10	60-180	60	153	GapExp	0	97	2	9	1	target	1	280	860	67515	13.328	12.996	13.664
DTProbeTrack03	17	ProbeTrackDT	1.1	SCS215a	20110128.091207	20110128.092205	dt-generate	8	0.013327	60	10	60-180	60	134	GapExp	0	98	2	45	1	target	1	534	733	68248	13.328	12.944	13.713
DTProbeTrack03	17	ProbeTrackDT	1.1	SCS215a	20110128.091207	20110128.092212	dt-generate	8	0.013327	60	10	60-180	60	113	GapExp	0	99	2	45	1	target	1	520	740	68988	13.328	12.905	13.741
DTProbeTrack03	17	ProbeTrackDT	1.1	SCS215a	20110128.091207	20110128.092218	dt-generate	8	0.013327	60	10	60-180	60	163	GapExp	0	100	2	1	0	distractor	1	440	780	69768	13.328	13.091	13.552
DTProbeTrack03	17	ProbeTrackDT	1.1	SCS215a	20110128.091207	20110128.092301	dt-generate	8	0.013327	60	10	60-180	60	100	GapExp	0	101	2	3	1	target	1	1466	267	70035	13.328	13.102	13.570
DTProbeTrack03	17	ProbeTrackDT	1.1	SCS215a	20110128.091207	20110128.092307	dt-generate	8	0.013327	60	10	60-180	60	167	GapExp	0	102	2	6	1	target	1	494	753	70788	13.328	13.010	13.649
DTProbeTrack03	17	ProbeTrackDT	1.1	SCS215a	20110128.091207	20110128.092313	dt-generate	8	0.013327	60	10	60-180	60	158	GapExp	0	103	2	1	0	distractor	1	414	793	71581	13.328	13.085	13.563
DTProbeTrack03	17	ProbeTrackDT	1.1	SCS215a	20110128.091207	20110128.092319	dt-generate	8	0.013327	60	10	60-180	60	103	GapExp	0	104	2	9	1	distractor	0	360	-1000	70581	13.328	13.143	13.500
DTProbeTrack03	17	ProbeTrackDT	1.1	SCS215a	20110128.091207	20110128.092324	dt-generate	8	0.013327	60	10	60-180	60	97	GapExp	0	105	2	1	0	target	0	400	-1000	69581	13.328	13.098	13.619
DTProbeTrack03	17	ProbeTrackDT	1.1	SCS215a	20110128.091207	20110128.092329	dt-generate	8	0.013327	60	10	60-180	60	178	GapExp	0	106	2	6	0	distractor	1	320	840	70421	13.328	13.114	13.537
DTProbeTrack03	17	ProbeTrackDT	1.1	SCS215a	20110128.091207	20110128.092336	dt-generate	8	0.013327	60	10	60-180	60	179	GapExp	0	107	2	6	1	distractor	0	374	-1000	69421	13.328	13.113	13.555
DTProbeTrack03	17	ProbeTrackDT	1.1	SCS215a	20110128.091207	20110128.092342	dt-generate	8	0.013327	60	10	60-180	60	99	GapExp	0	108	2	9	0	distractor	1	360	820	70241	13.328	13.307	13.356
DTProbeTrack03	17	ProbeTrackDT	1.1	SCS215a	20110128.091207	20110128.092347	dt-generate	8	0.013327	60	10	60-180	60	155	GapExp	0	109	2	1	0	target	0	640	-1000	69241	13.328	13.304	13.350
DTProbeTrack03	17	ProbeTrackDT	1.1	SCS215a	20110128.091207	20110128.092353	dt-generate	8	0.013327	60	10	60-180	60	71	GapExp	0	110	2	3	1	target	1	507	747	69988	13.596	12.851	39.976
DTProbeTrack03	17	ProbeTrackDT	1.1	SCS215a	20110128.091207	20110128.092358	dt-generate	8	0.013327	60	10	60-180	60	142	GapExp	0	111	2	6	0	distractor	1	334	833	70821	13.328	13.110	13.552
DTProbeTrack03	17	ProbeTrackDT	1.1	SCS215a	20110128.091207	20110128.092404	dt-generate	8	0.013327	60	10	60-180	60	175	GapExp	0	112	2	9	0	distractor	1	454	773	71594	13.328	12.871	13.817
DTProbeTrack03	17	ProbeTrackDT	1.1	SCS215a	20110128.091207	20110128.092410	dt-generate	8	0.013327	60	10	60-180	60	136	GapExp	0	113	2	45	0	distractor	1	427	787	72381	13.328	12.922	13.745
DTProbeTrack03	17	ProbeTrackDT	1.1	SCS215a	20110128.091207	20110128.092416	dt-generate	8	0.013327	60	10	60-180	60	132	GapExp	0	114	2	9	1	target	1	547	727	73108	13.328	13.307	13.347
DTProbeTrack03	17	ProbeTrackDT	1.1	SCS215a	20110128.091207	20110128.092422	dt-generate	8	0.013327	60	10	60-180	60	99	GapExp	0	115	2	45	1	target	1	387	807	73915	13.328	13.019	13.630
DTProbeTrack03	17	ProbeTrackDT	1.1	SCS215a	20110128.091207	20110128.092428	dt-generate	8	0.013327	60	10	60-180	60	95	GapExp	0	116	2	3	1	target	1	840	580	74495	13.382	13.123	26.632
DTProbeTrack03	17	ProbeTrackDT	1.1	SCS215a	20110128.091207	20110128.092433	dt-generate	8	0.013327	60	10	60-180	60	85	GapExp	0	117	2	9	1	target	1	454	773	75268	13.328	13.099	13.544
DTProbeTrack03	17	ProbeTrackDT	1.1	SCS215a	20110128.091207	20110128.092438	dt-generate	8	0.013327	60	10	60-180	60	87	GapExp	0	118	2	1	0	target	0	334	-1000	74268	13.328	13.099	13.557
DTProbeTrack03	17	ProbeTrackDT	1.1	SCS215a	20110128.091207	20110128.092443	dt-generate	8	0.013327	60	10	60-180	60	86	GapExp	0	119	2	3	1	target	1	427	787	75055	13.328	12.855	13.800
DTProbeTrack03	17	ProbeTrackDT	1.1	SCS215a	20110128.091207	20110128.092448	dt-generate	8	0.013327	60	10	60-180	60	105	GapExp	0	120	2	1	0	target	0	414	-1000	74055	13.328	12.914	13.740
DTProbeTrack03	17	ProbeTrackDT	1.1	SCS215a	20110128.091207	20110128.092453	dt-generate	8	0.013327	60	10	60-180	60	85	GapExp	0	121	2	1	1	target	1	707	647	74702	13.328	13.105	13.550
DTProbeTrack03	17	ProbeTrackDT	1.1	SCS215a	20110128.091207	20110128.092458	dt-generate	8	0.013327	60	10	60-180	60	83	GapExp	0	122	2	3	0	distractor	1	334	833	75535	13.328	12.882	13.779
DTProbeTrack03	17	ProbeTrackDT	1.1	SCS215a	20110128.091207	20110128.092503	dt-generate	8	0.013327	60	10	60-180	60	67	GapExp	0	123	2	9	1	target	1	360	820	76355	13.328	13.306	13.348
DTProbeTrack03	17	ProbeTrackDT	1.1	SCS215a	20110128.091207	20110128.092508	dt-generate	8	0.013327	60	10	60-180	60	78	GapExp	0	124	2	9	0	distractor	1	307	847	77202	13.328	13.092	13.565
DTProbeTrack03	17	ProbeTrackDT	1.1	SCS215a	20110128.091207	20110128.092513	dt-generate	8	0.013327	60	10	60-180	60	70	GapExp	0	125	2	3	0	distractor	1	494	753	77955	13.328	12.882	13.760
DTProbeTrack03	17	ProbeTrackDT	1.1	SCS215a	20110128.091207	20110128.092518	dt-generate	8	0.013327	60	10	60-180	60	112	GapExp	0	126	2	1	1	target	1	494	753	78708	13.328	13.280	13.374
DTProbeTrack03	17	ProbeTrackDT	1.1	SCS215a	20110128.091207	20110128.092523	dt-generate	8	0.013327	60	10	60-180	60	164	GapExp	0	127	2	1	1	distractor	0	627	-1000	77708	13.328	12.948	13.715
DTProbeTrack03	17	ProbeTrackDT	1.1	SCS215a	20110128.091207	20110128.092529	dt-generate	8	0.013327	60	10	60-180	60	150	GapExp	0	128	2	45	1	distractor	0	680	-1000	76708	13.328	12.855	13.806
DTProbeTrack03	17	ProbeTrackDT	1.1	SCS215a	20110128.091207	20110128.092536	dt-generate	8	0.013327	60	10	60-180	60	87	GapExp	0	129	2	9	1	target	1	360	820	77528	13.328	13.105	13.556
DTProbeTrack03	17	ProbeTrackDT	1.1	SCS215a	20110128.091207	20110128.092541	dt-generate	8	0.013327	60	10	60-180	60	65	GapExp	0	130	2	45	1	target	1	440	780	78308	13.328	13.101	13.550
DTProbeTrack03	17	ProbeTrackDT	1.1	SCS215a	20110128.091207	20110128.092546	dt-generate	8	0.013327	60	10	60-180	60	95	GapExp	0	131	2	1	0	distractor	1	574	713	79021	13.328	13.304	13.348
DTProbeTrack03	17	ProbeTrackDT	1.1	SCS215a	20110128.091207	20110128.092551	dt-generate	8	0.013327	60	10	60-180	60	79	GapExp	0	132	2	45	0	distractor	1	467	767	79788	13.328	13.309	13.355
DTProbeTrack03	17	ProbeTrackDT	1.1	SCS215a	20110128.091207	20110128.092557	dt-generate	8	0.013327	60	10	60-180	60	123	GapExp	0	133	2	1	1	distractor	0	400	-1000	78788	13.328	12.843	13.819
DTProbeTrack03	17	ProbeTrackDT	1.1	SCS215a	20110128.091207	20110128.092602	dt-generate	8	0.013327	60	10	60-180	60	153	GapExp	0	134	2	3	0	distractor	1	374	813	79601	13.328	13.093	13.568
DTProbeTrack03	17	ProbeTrackDT	1.1	SCS215a	20110128.091207	20110128.092608	dt-generate	8	0.013327	60	10	60-180	60	79	GapExp	0	135	2	6	1	target	1	480	760	80361	13.328	13.039	13.616
DTProbeTrack03	17	ProbeTrackDT	1.1	SCS215a	20110128.091207	20110128.092613	dt-generate	8	0.013327	60	10	60-180	60	64	GapExp	0	136	2	1	1	target	1	334	833	81194	13.328	13.252	13.404
DTProbeTrack03	17	ProbeTrackDT	1.1	SCS215a	20110128.091207	20110128.092618	dt-generate	8	0.013327	60	10	60-180	60	142	GapExp	0	137	2	1	0	distractor	1	693	654	81848	13.328	12.904	13.763
DTProbeTrack03	17	ProbeTrackDT	1.1	SCS215a	20110128.091207	20110128.092624	dt-generate	8	0.013327	60	10	60-180	60	123	GapExp	0	138	2	1	1	target	1	374	813	82661	13.328	12.873	13.766
DTProbeTrack03	17	ProbeTrackDT	1.1	SCS215a	20110128.091207	20110128.092629	dt-generate	8	0.013327	60	10	60-180	60	142	GapExp	0	139	2	3	1	target	1	427	787	83448	13.328	12.953	13.698
DTProbeTrack03	17	ProbeTrackDT	1.1	SCS215a	20110128.091207	20110128.092635	dt-generate	8	0.013327	60	10	60-180	60	66	GapExp	0	140	2	3	1	target	1	374	813	84261	13.328	13.309	13.348
DTProbeTrack03	17	ProbeTrackDT	1.1	SCS215a	20110128.091207	20110128.092639	dt-generate	8	0.013327	60	10	60-180	60	115	GapExp	0	141	2	1	1	target	1	1000	500	84761	13.328	13.294	13.354
DTProbeTrack03	17	ProbeTrackDT	1.1	SCS215a	20110128.091207	20110128.092645	dt-generate	8	0.013327	60	10	60-180	60	62	GapExp	0	142	2	6	0	distractor	1	454	773	85534	13.328	13.111	13.554
DTProbeTrack03	17	ProbeTrackDT	1.1	SCS215a	20110128.091207	20110128.092650	dt-generate	8	0.013327	60	10	60-180	60	136	GapExp	0	143	2	1	0	target	0	613	-1000	84534	13.328	12.945	13.715
DTProbeTrack03	17	ProbeTrackDT	1.1	SCS215a	20110128.091207	20110128.092656	dt-generate	8	0.013327	60	10	60-180	60	108	GapExp	0	144	2	45	0	distractor	1	360	820	85354	13.328	13.165	13.483
DTProbeTrack03	17	ProbeTrackDT	1.1	SCS215a	20110128.091207	20110128.092702	dt-generate	8	0.013327	60	10	60-180	60	70	GapExp	0	145	2	3	1	target	1	467	767	86121	13.396	13.186	26.649
DTProbeTrack03	17	ProbeTrackDT	1.1	SCS215a	20110128.091207	20110128.092706	dt-generate	8	0.013327	60	10	60-180	60	172	GapExp	0	146	2	3	0	target	0	560	-1000	85121	13.328	12.990	13.664
DTProbeTrack03	17	ProbeTrackDT	1.1	SCS215a	20110128.091207	20110128.092713	dt-generate	8	0.013327	60	10	60-180	60	111	GapExp	0	147	2	6	0	distractor	1	507	747	85868	13.493	12.867	53.321
DTProbeTrack03	17	ProbeTrackDT	1.1	SCS215a	20110128.091207	20110128.092718	dt-generate	8	0.013327	60	10	60-180	60	67	GapExp	0	148	2	9	1	target	1	414	793	86661	13.328	13.308	13.347
DTProbeTrack03	17	ProbeTrackDT	1.1	SCS215a	20110128.091207	20110128.092723	dt-generate	8	0.013327	60	10	60-180	60	173	GapExp	0	149	2	45	1	target	1	467	767	87428	13.328	12.891	13.775
DTProbeTrack03	17	ProbeTrackDT	1.1	SCS215a	20110128.091207	20110128.092730	dt-generate	8	0.013327	60	10	60-180	60	85	GapExp	0	150	2	9	0	distractor	1	414	793	88221	13.328	13.299	13.365
DTProbeTrack03	17	ProbeTrackDT	1.1	SCS215a	20110128.091207	20110128.092757	dt-generate	8	0.013327	60	10	60-180	60	119	GapExp	0	151	2	45	0	target	0	627	-1000	87221	13.328	13.104	13.566
DTProbeTrack03	17	ProbeTrackDT	1.1	SCS215a	20110128.091207	20110128.092803	dt-generate	8	0.013327	60	10	60-180	60	79	GapExp	0	152	2	45	1	target	1	334	833	88054	13.328	12.849	13.804
DTProbeTrack03	17	ProbeTrackDT	1.1	SCS215a	20110128.091207	20110128.092808	dt-generate	8	0.013327	60	10	60-180	60	153	GapExp	0	153	2	9	0	distractor	1	494	753	88807	13.328	13.046	13.604
DTProbeTrack03	17	ProbeTrackDT	1.1	SCS215a	20110128.091207	20110128.092814	dt-generate	8	0.013327	60	10	60-180	60	156	GapExp	0	154	2	3	0	distractor	1	520	740	89547	13.328	12.850	13.819
DTProbeTrack03	17	ProbeTrackDT	1.1	SCS215a	20110128.091207	20110128.092820	dt-generate	8	0.013327	60	10	60-180	60	121	GapExp	0	155	2	6	1	distractor	0	494	-1000	88547	13.328	13.307	13.356
DTProbeTrack03	17	ProbeTrackDT	1.1	SCS215a	20110128.091207	20110128.092826	dt-generate	8	0.013327	60	10	60-180	60	98	GapExp	0	156	2	1	0	target	0	614	-1000	87547	13.328	13.161	13.505
DTProbeTrack03	17	ProbeTrackDT	1.1	SCS215a	20110128.091207	20110128.092831	dt-generate	8	0.013327	60	10	60-180	60	109	GapExp	0	157	2	1	1	target	1	494	753	88300	13.328	12.868	13.773
DTProbeTrack03	17	ProbeTrackDT	1.1	SCS215a	20110128.091207	20110128.092836	dt-generate	8	0.013327	60	10	60-180	60	71	GapExp	0	158	2	9	1	target	1	640	680	88980	13.328	13.077	13.580
DTProbeTrack03	17	ProbeTrackDT	1.1	SCS215a	20110128.091207	20110128.092841	dt-generate	8	0.013327	60	10	60-180	60	144	GapExp	0	159	2	3	0	distractor	1	467	767	89747	13.328	13.152	13.500
DTProbeTrack03	17	ProbeTrackDT	1.1	SCS215a	20110128.091207	20110128.092847	dt-generate	8	0.013327	60	10	60-180	60	101	GapExp	0	160	2	6	0	target	0	800	-1000	88747	13.328	13.309	13.344
DTProbeTrack03	17	ProbeTrackDT	1.1	SCS215a	20110128.091207	20110128.092853	dt-generate	8	0.013327	60	10	60-180	60	94	GapExp	0	161	2	9	1	target	1	454	773	89520	13.328	13.208	13.437
DTProbeTrack03	17	ProbeTrackDT	1.1	SCS215a	20110128.091207	20110128.092858	dt-generate	8	0.013327	60	10	60-180	60	127	GapExp	0	162	2	6	0	distractor	1	334	833	90353	13.328	12.935	13.723
DTProbeTrack03	17	ProbeTrackDT	1.1	SCS215a	20110128.091207	20110128.092903	dt-generate	8	0.013327	60	10	60-180	60	137	GapExp	0	163	2	45	1	target	1	307	847	91200	13.328	12.917	13.745
DTProbeTrack03	17	ProbeTrackDT	1.1	SCS215a	20110128.091207	20110128.092909	dt-generate	8	0.013327	60	10	60-180	60	132	GapExp	0	164	2	3	1	target	1	334	833	92033	13.328	13.272	13.382
DTProbeTrack03	17	ProbeTrackDT	1.1	SCS215a	20110128.091207	20110128.092915	dt-generate	8	0.013327	60	10	60-180	60	134	GapExp	0	165	2	6	1	distractor	0	853	-1000	91033	13.328	12.876	13.777
DTProbeTrack03	17	ProbeTrackDT	1.1	SCS215a	20110128.091207	20110128.092921	dt-generate	8	0.013327	60	10	60-180	60	69	GapExp	0	166	2	9	0	distractor	1	574	713	91746	13.328	12.943	13.689
DTProbeTrack03	17	ProbeTrackDT	1.1	SCS215a	20110128.091207	20110128.092926	dt-generate	8	0.013327	60	10	60-180	60	171	GapExp	0	167	2	1	1	target	1	347	827	92573	13.328	13.105	13.557
DTProbeTrack03	17	ProbeTrackDT	1.1	SCS215a	20110128.091207	20110128.092932	dt-generate	8	0.013327	60	10	60-180	60	157	GapExp	0	168	2	6	0	distractor	1	520	740	93313	13.328	12.893	13.763
DTProbeTrack03	17	ProbeTrackDT	1.1	SCS215a	20110128.091207	20110128.092938	dt-generate	8	0.013327	60	10	60-180	60	130	GapExp	0	169	2	45	1	target	1	360	820	94133	13.328	12.975	13.678
DTProbeTrack03	17	ProbeTrackDT	1.1	SCS215a	20110128.091207	20110128.092944	dt-generate	8	0.013327	60	10	60-180	60	75	GapExp	0	170	2	9	0	distractor	1	454	773	94906	13.328	13.306	13.347
DTProbeTrack03	17	ProbeTrackDT	1.1	SCS215a	20110128.091207	20110128.092949	dt-generate	8	0.013327	60	10	60-180	60	120	GapExp	0	171	2	45	0	distractor	1	427	787	95693	13.328	13.303	13.346
DTProbeTrack03	17	ProbeTrackDT	1.1	SCS215a	20110128.091207	20110128.092955	dt-generate	8	0.013327	60	10	60-180	60	164	GapExp	0	172	2	6	1	target	1	467	767	96460	13.328	13.016	13.626
DTProbeTrack03	17	ProbeTrackDT	1.1	SCS215a	20110128.091207	20110128.093001	dt-generate	8	0.013327	60	10	60-180	60	125	GapExp	0	173	2	3	0	distractor	1	494	753	97213	13.328	13.089	13.560
DTProbeTrack03	17	ProbeTrackDT	1.1	SCS215a	20110128.091207	20110128.093007	dt-generate	8	0.013327	60	10	60-180	60	140	GapExp	0	174	2	6	0	distractor	1	374	813	98026	13.328	12.982	13.698
DTProbeTrack03	17	ProbeTrackDT	1.1	SCS215a	20110128.091207	20110128.093012	dt-generate	8	0.013327	60	10	60-180	60	109	GapExp	0	175	2	9	0	distractor	1	334	833	98859	13.328	12.938	13.710
DTProbeTrack03	17	ProbeTrackDT	1.1	SCS215a	20110128.091207	20110128.093018	dt-generate	8	0.013327	60	10	60-180	60	127	GapExp	0	176	2	3	0	target	0	454	-1000	97859	13.328	12.927	13.729
DTProbeTrack03	17	ProbeTrackDT	1.1	SCS215a	20110128.091207	20110128.093023	dt-generate	8	0.013327	60	10	60-180	60	75	GapExp	0	177	2	45	1	distractor	0	560	-1000	96859	13.328	12.857	13.792
DTProbeTrack03	17	ProbeTrackDT	1.1	SCS215a	20110128.091207	20110128.093029	dt-generate	8	0.013327	60	10	60-180	60	114	GapExp	0	178	2	3	0	distractor	1	560	720	97579	13.328	12.997	13.646
DTProbeTrack03	17	ProbeTrackDT	1.1	SCS215a	20110128.091207	20110128.093034	dt-generate	8	0.013327	60	10	60-180	60	147	GapExp	0	179	2	1	0	distractor	1	307	847	98426	13.328	13.109	13.544
DTProbeTrack03	17	ProbeTrackDT	1.1	SCS215a	20110128.091207	20110128.093040	dt-generate	8	0.013327	60	10	60-180	60	104	GapExp	0	180	2	1	1	distractor	0	520	-1000	97426	13.328	13.041	13.611
DTProbeTrack03	17	ProbeTrackDT	1.1	SCS215a	20110128.091207	20110128.093045	dt-generate	8	0.013327	60	10	60-180	60	65	GapExp	0	181	2	9	1	target	1	1027	487	97913	13.328	13.063	13.712
DTProbeTrack03	17	ProbeTrackDT	1.1	SCS215a	20110128.091207	20110128.093051	dt-generate	8	0.013327	60	10	60-180	60	155	GapExp	0	182	2	6	1	target	1	534	733	98646	13.328	13.065	13.598
DTProbeTrack03	17	ProbeTrackDT	1.1	SCS215a	20110128.091207	20110128.093057	dt-generate	8	0.013327	60	10	60-180	60	128	GapExp	0	183	2	9	1	distractor	0	680	-1000	97646	13.328	13.307	13.345
DTProbeTrack03	17	ProbeTrackDT	1.1	SCS215a	20110128.091207	20110128.093102	dt-generate	8	0.013327	60	10	60-180	60	91	GapExp	0	184	2	6	0	distractor	1	347	827	98473	13.328	13.106	13.545
DTProbeTrack03	17	ProbeTrackDT	1.1	SCS215a	20110128.091207	20110128.093108	dt-generate	8	0.013327	60	10	60-180	60	161	GapExp	0	185	2	6	0	distractor	1	400	800	99273	13.328	12.886	13.776
DTProbeTrack03	17	ProbeTrackDT	1.1	SCS215a	20110128.091207	20110128.093114	dt-generate	8	0.013327	60	10	60-180	60	98	GapExp	0	186	2	1	0	distractor	1	507	747	100020	13.328	13.307	13.347
DTProbeTrack03	17	ProbeTrackDT	1.1	SCS215a	20110128.091207	20110128.093119	dt-generate	8	0.013327	60	10	60-180	60	170	GapExp	0	187	2	9	1	target	1	414	793	100813	13.328	13.100	13.559
DTProbeTrack03	17	ProbeTrackDT	1.1	SCS215a	20110128.091207	20110128.093125	dt-generate	8	0.013327	60	10	60-180	60	165	GapExp	0	188	2	9	1	target	1	414	793	101606	13.328	13.111	13.549
DTProbeTrack03	17	ProbeTrackDT	1.1	SCS215a	20110128.091207	20110128.093131	dt-generate	8	0.013327	60	10	60-180	60	81	GapExp	0	189	2	3	1	target	1	507	747	102353	13.328	12.961	13.701
DTProbeTrack03	17	ProbeTrackDT	1.1	SCS215a	20110128.091207	20110128.093136	dt-generate	8	0.013327	60	10	60-180	60	174	GapExp	0	190	2	1	1	target	1	294	853	103206	13.328	13.307	13.349
DTProbeTrack03	17	ProbeTrackDT	1.1	SCS215a	20110128.091207	20110128.093142	dt-generate	8	0.013327	60	10	60-180	60	61	GapExp	0	191	2	45	1	target	1	414	793	103999	13.328	13.308	13.346
DTProbeTrack03	17	ProbeTrackDT	1.1	SCS215a	20110128.091207	20110128.093147	dt-generate	8	0.013327	60	10	60-180	60	134	GapExp	0	192	2	3	0	distractor	1	494	753	104752	13.328	13.100	13.552
DTProbeTrack03	17	ProbeTrackDT	1.1	SCS215a	20110128.091207	20110128.093153	dt-generate	8	0.013327	60	10	60-180	60	70	GapExp	0	193	2	3	0	distractor	1	507	747	105499	13.673	13.015	79.943
DTProbeTrack03	17	ProbeTrackDT	1.1	SCS215a	20110128.091207	20110128.093158	dt-generate	8	0.013327	60	10	60-180	60	114	GapExp	0	194	2	9	0	distractor	1	339	831	106330	13.327	13.043	13.608
DTProbeTrack03	17	ProbeTrackDT	1.1	SCS215a	20110128.091207	20110128.093203	dt-generate	8	0.013327	60	10	60-180	60	174	GapExp	0	195	2	3	0	target	0	2359	-1000	105330	13.328	13.309	13.346
DTProbeTrack03	17	ProbeTrackDT	1.1	SCS215a	20110128.091207	20110128.093211	dt-generate	8	0.013327	60	10	60-180	60	72	GapExp	0	196	2	6	1	target	1	1360	320	105650	13.328	12.956	13.711
DTProbeTrack03	17	ProbeTrackDT	1.1	SCS215a	20110128.091207	20110128.093217	dt-generate	8	0.013327	60	10	60-180	60	71	GapExp	0	197	2	3	1	target	1	1640	180	105830	13.328	12.881	13.782
DTProbeTrack03	17	ProbeTrackDT	1.1	SCS215a	20110128.091207	20110128.093223	dt-generate	8	0.013327	60	10	60-180	60	112	GapExp	0	198	2	6	1	distractor	0	973	-1000	104830	13.328	13.136	13.522
DTProbeTrack03	17	ProbeTrackDT	1.1	SCS215a	20110128.091207	20110128.093229	dt-generate	8	0.013327	60	10	60-180	60	145	GapExp	0	199	2	9	0	target	0	240	-1000	103830	13.328	12.945	13.725
DTProbeTrack03	17	ProbeTrackDT	1.1	SCS215a	20110128.091207	20110128.093234	dt-generate	8	0.013327	60	10	60-180	60	127	GapExp	0	200	2	1	0	distractor	1	520	740	104570	13.328	12.874	13.796
DTProbeTrack03	17	ProbeTrackDT	1.1	SCS215a	20110128.091207	20110128.093245	dt-generate	8	0.013327	60	10	60-180	60	112	GapExp	0	201	2	6	1	target	1	587	707	105277	13.328	13.109	13.553
DTProbeTrack03	17	ProbeTrackDT	1.1	SCS215a	20110128.091207	20110128.093251	dt-generate	8	0.013327	60	10	60-180	60	115	GapExp	0	202	2	45	1	distractor	0	1386	-1000	104277	13.371	12.882	26.642
DTProbeTrack03	17	ProbeTrackDT	1.1	SCS215a	20110128.091207	20110128.093257	dt-generate	8	0.013327	60	10	60-180	60	158	GapExp	0	203	2	3	1	distractor	0	507	-1000	103277	13.328	12.931	13.729
DTProbeTrack03	17	ProbeTrackDT	1.1	SCS215a	20110128.091207	20110128.093304	dt-generate	8	0.013327	60	10	60-180	60	124	GapExp	0	204	2	45	0	distractor	1	440	780	104057	13.328	12.965	13.687
DTProbeTrack03	17	ProbeTrackDT	1.1	SCS215a	20110128.091207	20110128.093310	dt-generate	8	0.013327	60	10	60-180	60	128	GapExp	0	205	2	6	0	target	0	667	-1000	103057	13.328	12.972	13.677
DTProbeTrack03	17	ProbeTrackDT	1.1	SCS215a	20110128.093359	20110128.093404	single-task	8	0.013328	60	10	60-180	60	85	GapPrac	1	1	2	9	0	distractor	1	414	793	103850	13.328	13.307	13.347
DTProbeTrack03	17	ProbeTrackDT	1.1	SCS215a	20110128.093359	20110128.093409	single-task	8	0.013328	60	10	60-180	60	148	GapPrac	1	2	2	45	1	target	1	320	840	104690	13.328	12.889	13.772
DTProbeTrack03	17	ProbeTrackDT	1.1	SCS215a	20110128.093359	20110128.093415	single-task	8	0.013328	60	10	60-180	60	142	GapPrac	1	3	2	9	1	distractor	0	347	-1000	103690	13.328	13.302	13.349
DTProbeTrack03	17	ProbeTrackDT	1.1	SCS215a	20110128.093359	20110128.093421	single-task	8	0.013328	60	10	60-180	60	61	GapPrac	1	4	2	6	0	distractor	1	480	760	104450	13.328	13.104	13.554
DTProbeTrack03	17	ProbeTrackDT	1.1	SCS215a	20110128.093359	20110128.093426	single-task	8	0.013328	60	10	60-180	60	75	GapPrac	1	5	2	6	1	target	1	414	793	105243	13.328	13.103	13.546
DTProbeTrack03	17	ProbeTrackDT	1.1	SCS215a	20110128.093359	20110128.093431	single-task	8	0.013328	60	10	60-180	60	111	GapPrac	1	6	2	9	1	target	1	334	833	106076	13.328	12.889	13.761
DTProbeTrack03	17	ProbeTrackDT	1.1	SCS215a	20110128.093359	20110128.093436	single-task	8	0.013328	60	10	60-180	60	160	GapPrac	1	7	2	9	0	distractor	1	320	840	106916	13.328	12.913	13.733
DTProbeTrack03	17	ProbeTrackDT	1.1	SCS215a	20110128.093359	20110128.093442	single-task	8	0.013328	60	10	60-180	60	94	GapPrac	1	8	2	3	0	distractor	1	374	813	107729	13.328	12.887	13.764
DTProbeTrack03	17	ProbeTrackDT	1.1	SCS215a	20110128.093359	20110128.093447	single-task	8	0.013328	60	10	60-180	60	142	GapPrac	1	9	2	1	1	target	1	454	773	108502	13.328	13.253	13.404
DTProbeTrack03	17	ProbeTrackDT	1.1	SCS215a	20110128.093359	20110128.093453	single-task	8	0.013328	60	10	60-180	60	99	GapPrac	1	10	2	6	1	target	1	440	780	109282	13.328	13.307	13.346
DTProbeTrack03	17	ProbeTrackDT	1.1	SCS215a	20110128.093359	20110128.093458	single-task	8	0.013328	60	10	60-180	60	136	GapPrac	1	11	2	3	0	distractor	1	134	933	110215	13.328	13.308	13.348
DTProbeTrack03	17	ProbeTrackDT	1.1	SCS215a	20110128.093359	20110128.093503	single-task	8	0.013328	60	10	60-180	60	133	GapPrac	1	12	2	3	1	target	1	187	907	111122	13.328	13.312	13.346
DTProbeTrack03	17	ProbeTrackDT	1.1	SCS215a	20110128.093359	20110128.093509	single-task	8	0.013328	60	10	60-180	60	162	GapPrac	1	13	2	45	0	distractor	1	427	787	111909	13.328	13.093	13.549
DTProbeTrack03	17	ProbeTrackDT	1.1	SCS215a	20110128.093359	20110128.093515	single-task	8	0.013328	60	10	60-180	60	112	GapPrac	1	14	2	45	1	target	1	454	773	112682	13.328	13.115	13.555
DTProbeTrack03	17	ProbeTrackDT	1.1	SCS215a	20110128.093359	20110128.093521	single-task	8	0.013328	60	10	60-180	60	136	GapPrac	1	15	2	1	1	target	1	307	847	113529	13.328	12.930	13.725
DTProbeTrack03	17	ProbeTrackDT	1.1	SCS215a	20110128.093359	20110128.093527	single-task	8	0.013328	60	10	60-180	60	127	GapPrac	1	16	2	6	0	distractor	1	280	860	114389	13.328	13.267	13.379
DTProbeTrack03	17	ProbeTrackDT	1.1	SCS215a	20110128.093359	20110128.093532	single-task	8	0.013328	60	10	60-180	60	157	GapPrac	1	17	2	45	0	target	0	440	-1000	113389	13.328	12.878	13.780
DTProbeTrack03	17	ProbeTrackDT	1.1	SCS215a	20110128.093359	20110128.093538	single-task	8	0.013328	60	10	60-180	60	105	GapPrac	1	18	2	1	0	target	0	387	-1000	112389	13.328	13.308	13.346
DTProbeTrack03	17	ProbeTrackDT	1.1	SCS215a	20110128.093359	20110128.093544	single-task	8	0.013328	60	10	60-180	60	144	GapPrac	1	19	2	1	0	distractor	1	334	833	113222	13.328	13.100	13.556
DTProbeTrack03	17	ProbeTrackDT	1.1	SCS215a	20110128.093359	20110128.093549	single-task	8	0.013328	60	10	60-180	60	117	GapPrac	1	20	2	3	1	target	1	134	933	114155	13.328	13.020	13.628
DTProbeTrack03	17	ProbeTrackDT	1.1	SCS215a	20110128.093623	20110128.093633	single-task	8	0.013328	60	10	60-180	60	176	GapExp	1	1	2	6	1	distractor	0	347	-1000	113155	13.328	13.098	13.566
DTProbeTrack03	17	ProbeTrackDT	1.1	SCS215a	20110128.093623	20110128.093639	single-task	8	0.013328	60	10	60-180	60	167	GapExp	1	2	2	45	0	target	0	520	-1000	112155	13.328	13.095	13.554
DTProbeTrack03	17	ProbeTrackDT	1.1	SCS215a	20110128.093623	20110128.093646	single-task	8	0.013328	60	10	60-180	60	105	GapExp	1	3	2	1	0	distractor	1	374	813	112968	13.328	13.081	13.568
DTProbeTrack03	17	ProbeTrackDT	1.1	SCS215a	20110128.093623	20110128.093651	single-task	8	0.013328	60	10	60-180	60	121	GapExp	1	4	2	9	1	target	1	374	813	113781	13.328	13.300	13.352
DTProbeTrack03	17	ProbeTrackDT	1.1	SCS215a	20110128.093623	20110128.093657	single-task	8	0.013328	60	10	60-180	60	71	GapExp	1	5	2	6	0	target	0	280	-1000	112781	13.327	12.903	13.747
DTProbeTrack03	17	ProbeTrackDT	1.1	SCS215a	20110128.093623	20110128.093701	single-task	8	0.013328	60	10	60-180	60	126	GapExp	0	6	2	9	1	distractor	0	280	-1000	111781	13.328	13.304	13.350
DTProbeTrack03	17	ProbeTrackDT	1.1	SCS215a	20110128.093623	20110128.093707	single-task	8	0.013328	60	10	60-180	60	140	GapExp	0	7	2	3	0	distractor	1	454	773	112554	13.328	13.094	13.556
DTProbeTrack03	17	ProbeTrackDT	1.1	SCS215a	20110128.093623	20110128.093712	single-task	8	0.013328	60	10	60-180	60	78	GapExp	0	8	2	6	1	target	1	334	833	113387	13.328	13.297	13.349
DTProbeTrack03	17	ProbeTrackDT	1.1	SCS215a	20110128.093623	20110128.093717	single-task	8	0.013328	60	10	60-180	60	72	GapExp	0	9	2	1	0	distractor	1	454	773	114160	13.328	13.074	13.581
DTProbeTrack03	17	ProbeTrackDT	1.1	SCS215a	20110128.093623	20110128.093722	single-task	8	0.013328	60	10	60-180	60	89	GapExp	0	10	2	6	0	distractor	1	307	847	115007	13.328	13.107	13.550
DTProbeTrack03	17	ProbeTrackDT	1.1	SCS215a	20110128.093623	20110128.093727	single-task	8	0.013328	60	10	60-180	60	166	GapExp	0	11	2	6	1	distractor	0	374	-1000	114007	13.328	12.842	13.827
DTProbeTrack03	17	ProbeTrackDT	1.1	SCS215a	20110128.093623	20110128.093733	single-task	8	0.013328	60	10	60-180	60	158	GapExp	0	12	2	6	1	target	1	347	827	114834	13.328	13.172	13.491
DTProbeTrack03	17	ProbeTrackDT	1.1	SCS215a	20110128.093623	20110128.093739	single-task	8	0.013328	60	10	60-180	60	144	GapExp	0	13	2	6	1	distractor	0	414	-1000	113834	13.328	12.851	13.799
DTProbeTrack03	17	ProbeTrackDT	1.1	SCS215a	20110128.093623	20110128.093745	single-task	8	0.013328	60	10	60-180	60	147	GapExp	0	14	2	3	0	target	0	320	-1000	112834	13.328	13.309	13.344
DTProbeTrack03	17	ProbeTrackDT	1.1	SCS215a	20110128.093623	20110128.093750	single-task	8	0.013328	60	10	60-180	60	66	GapExp	0	15	2	1	0	distractor	1	334	833	113667	13.328	13.100	13.563
DTProbeTrack03	17	ProbeTrackDT	1.1	SCS215a	20110128.093623	20110128.093755	single-task	8	0.013328	60	10	60-180	60	144	GapExp	0	16	2	9	1	distractor	0	400	-1000	112667	13.328	13.091	13.564
DTProbeTrack03	17	ProbeTrackDT	1.1	SCS215a	20110128.093623	20110128.093801	single-task	8	0.013328	60	10	60-180	60	108	GapExp	0	17	2	6	0	distractor	1	414	793	113460	13.328	13.308	13.347
DTProbeTrack03	17	ProbeTrackDT	1.1	SCS215a	20110128.093623	20110128.093806	single-task	8	0.013328	60	10	60-180	60	159	GapExp	0	18	2	3	0	distractor	1	440	780	114240	13.328	13.303	13.345
DTProbeTrack03	17	ProbeTrackDT	1.1	SCS215a	20110128.093623	20110128.093812	single-task	8	0.013328	60	10	60-180	60	130	GapExp	0	19	2	6	1	target	1	400	800	115040	13.328	12.885	13.752
DTProbeTrack03	17	ProbeTrackDT	1.1	SCS215a	20110128.093623	20110128.093818	single-task	8	0.013328	60	10	60-180	60	89	GapExp	0	20	2	9	1	target	1	414	793	115833	13.328	13.106	13.562
DTProbeTrack03	17	ProbeTrackDT	1.1	SCS215a	20110128.093623	20110128.093823	single-task	8	0.013328	60	10	60-180	60	174	GapExp	0	21	2	1	1	target	1	427	787	116620	13.328	13.098	13.558
DTProbeTrack03	17	ProbeTrackDT	1.1	SCS215a	20110128.093623	20110128.093829	single-task	8	0.013328	60	10	60-180	60	96	GapExp	0	22	2	3	1	target	1	387	807	117427	13.328	13.310	13.345
DTProbeTrack03	17	ProbeTrackDT	1.1	SCS215a	20110128.093623	20110128.093834	single-task	8	0.013328	60	10	60-180	60	110	GapExp	0	23	2	3	0	distractor	1	454	773	118200	13.328	13.309	13.345
DTProbeTrack03	17	ProbeTrackDT	1.1	SCS215a	20110128.093623	20110128.093839	single-task	8	0.013328	60	10	60-180	60	87	GapExp	0	24	2	6	1	distractor	0	440	-1000	117200	13.328	12.902	13.761
DTProbeTrack03	17	ProbeTrackDT	1.1	SCS215a	20110128.093623	20110128.093844	single-task	8	0.013328	60	10	60-180	60	168	GapExp	0	25	2	45	0	distractor	1	440	780	117980	13.368	12.866	26.673
DTProbeTrack03	17	ProbeTrackDT	1.1	SCS215a	20110128.093623	20110128.093851	single-task	8	0.013328	60	10	60-180	60	172	GapExp	0	26	2	45	1	target	1	387	807	118787	13.328	12.987	13.810
DTProbeTrack03	17	ProbeTrackDT	1.1	SCS215a	20110128.093623	20110128.093858	single-task	8	0.013328	60	10	60-180	60	117	GapExp	0	27	2	1	1	target	1	414	793	119580	13.328	13.308	13.347
DTProbeTrack03	17	ProbeTrackDT	1.1	SCS215a	20110128.093623	20110128.093903	single-task	8	0.013328	60	10	60-180	60	173	GapExp	0	28	2	9	1	target	1	307	847	120427	13.328	13.136	13.545
DTProbeTrack03	17	ProbeTrackDT	1.1	SCS215a	20110128.093623	20110128.093909	single-task	8	0.013328	60	10	60-180	60	66	GapExp	0	29	2	45	1	target	1	374	813	121240	13.328	13.229	13.450
DTProbeTrack03	17	ProbeTrackDT	1.1	SCS215a	20110128.093623	20110128.093914	single-task	8	0.013328	60	10	60-180	60	127	GapExp	0	30	2	6	1	target	1	320	840	122080	13.382	12.969	26.737
DTProbeTrack03	17	ProbeTrackDT	1.1	SCS215a	20110128.093623	20110128.093920	single-task	8	0.013328	60	10	60-180	60	128	GapExp	0	31	2	1	1	target	1	400	800	122880	13.328	13.096	13.560
DTProbeTrack03	17	ProbeTrackDT	1.1	SCS215a	20110128.093623	20110128.093925	single-task	8	0.013328	60	10	60-180	60	104	GapExp	0	32	2	1	0	target	0	307	-1000	121880	13.328	13.307	13.356
DTProbeTrack03	17	ProbeTrackDT	1.1	SCS215a	20110128.093623	20110128.093930	single-task	8	0.013328	60	10	60-180	60	83	GapExp	0	33	2	6	0	distractor	1	320	840	122720	13.328	13.307	13.357
DTProbeTrack03	17	ProbeTrackDT	1.1	SCS215a	20110128.093623	20110128.093935	single-task	8	0.013328	60	10	60-180	60	76	GapExp	0	34	2	9	0	distractor	1	414	793	123513	13.328	13.105	13.551
DTProbeTrack03	17	ProbeTrackDT	1.1	SCS215a	20110128.093623	20110128.093940	single-task	8	0.013328	60	10	60-180	60	129	GapExp	0	35	2	1	1	distractor	0	520	-1000	122513	13.328	13.086	13.561
DTProbeTrack03	17	ProbeTrackDT	1.1	SCS215a	20110128.093623	20110128.093946	single-task	8	0.013328	60	10	60-180	60	65	GapExp	0	36	2	6	0	distractor	1	454	773	123286	13.328	13.214	13.429
DTProbeTrack03	17	ProbeTrackDT	1.1	SCS215a	20110128.093623	20110128.093951	single-task	8	0.013328	60	10	60-180	60	88	GapExp	0	37	2	1	1	distractor	0	680	-1000	122286	13.328	12.892	13.749
DTProbeTrack03	17	ProbeTrackDT	1.1	SCS215a	20110128.093623	20110128.093956	single-task	8	0.013328	60	10	60-180	60	116	GapExp	0	38	2	9	1	target	1	334	833	123119	13.328	13.100	13.537
DTProbeTrack03	17	ProbeTrackDT	1.1	SCS215a	20110128.093623	20110128.094001	single-task	8	0.013328	60	10	60-180	60	175	GapExp	0	39	2	6	1	distractor	0	240	-1000	122119	13.328	12.855	13.793
DTProbeTrack03	17	ProbeTrackDT	1.1	SCS215a	20110128.093623	20110128.094007	single-task	8	0.013328	60	10	60-180	60	137	GapExp	0	40	2	45	0	target	0	440	-1000	121119	13.328	13.105	13.550
DTProbeTrack03	17	ProbeTrackDT	1.1	SCS215a	20110128.093623	20110128.094014	single-task	8	0.013328	60	10	60-180	60	141	GapExp	0	41	2	1	1	distractor	0	360	-1000	120119	13.328	12.921	13.731
DTProbeTrack03	17	ProbeTrackDT	1.1	SCS215a	20110128.093623	20110128.094019	single-task	8	0.013328	60	10	60-180	60	102	GapExp	0	42	2	6	1	target	1	347	827	120946	13.328	13.310	13.352
DTProbeTrack03	17	ProbeTrackDT	1.1	SCS215a	20110128.093623	20110128.094024	single-task	8	0.013328	60	10	60-180	60	93	GapExp	0	43	2	3	1	target	1	414	793	121739	13.328	12.859	13.783
DTProbeTrack03	17	ProbeTrackDT	1.1	SCS215a	20110128.093623	20110128.094029	single-task	8	0.013328	60	10	60-180	60	69	GapExp	0	44	2	6	1	target	1	360	820	122559	13.328	13.304	13.346
DTProbeTrack03	17	ProbeTrackDT	1.1	SCS215a	20110128.093623	20110128.094034	single-task	8	0.013328	60	10	60-180	60	103	GapExp	0	45	2	1	0	target	0	240	-1000	121559	13.328	12.928	13.716
DTProbeTrack03	17	ProbeTrackDT	1.1	SCS215a	20110128.093623	20110128.094039	single-task	8	0.013328	60	10	60-180	60	67	GapExp	0	46	2	3	1	target	1	267	867	122426	13.328	12.864	13.794
DTProbeTrack03	17	ProbeTrackDT	1.1	SCS215a	20110128.093623	20110128.094044	single-task	8	0.013328	60	10	60-180	60	68	GapExp	0	47	2	45	0	distractor	1	440	780	123206	13.328	13.093	13.549
DTProbeTrack03	17	ProbeTrackDT	1.1	SCS215a	20110128.093623	20110128.094049	single-task	8	0.013328	60	10	60-180	60	112	GapExp	0	48	2	45	1	target	1	347	827	124033	13.328	13.034	13.614
DTProbeTrack03	17	ProbeTrackDT	1.1	SCS215a	20110128.093623	20110128.094055	single-task	8	0.013328	60	10	60-180	60	139	GapExp	0	49	2	45	0	distractor	1	440	780	124813	13.328	13.304	13.347
DTProbeTrack03	17	ProbeTrackDT	1.1	SCS215a	20110128.093623	20110128.094101	single-task	8	0.013328	60	10	60-180	60	88	GapExp	0	50	2	45	0	target	0	440	-1000	123813	13.328	12.915	13.742
DTProbeTrack03	17	ProbeTrackDT	1.1	SCS215a	20110128.093623	20110128.094147	single-task	8	0.013328	60	10	60-180	60	162	GapExp	0	51	2	6	0	distractor	1	320	840	124653	13.328	12.977	13.695
DTProbeTrack03	17	ProbeTrackDT	1.1	SCS215a	20110128.093623	20110128.094153	single-task	8	0.013328	60	10	60-180	60	86	GapExp	0	52	2	1	0	target	0	400	-1000	123653	13.328	13.312	13.349
DTProbeTrack03	17	ProbeTrackDT	1.1	SCS215a	20110128.093623	20110128.094157	single-task	8	0.013328	60	10	60-180	60	104	GapExp	0	53	2	6	1	distractor	0	400	-1000	122653	13.328	13.127	13.533
DTProbeTrack03	17	ProbeTrackDT	1.1	SCS215a	20110128.093623	20110128.094203	single-task	8	0.013328	60	10	60-180	60	140	GapExp	0	54	2	45	0	distractor	1	280	860	123513	13.328	13.016	13.638
DTProbeTrack03	17	ProbeTrackDT	1.1	SCS215a	20110128.093623	20110128.094209	single-task	8	0.013328	60	10	60-180	60	98	GapExp	0	55	2	9	0	distractor	1	454	773	124286	13.328	12.935	13.722
DTProbeTrack03	17	ProbeTrackDT	1.1	SCS215a	20110128.093623	20110128.094214	single-task	8	0.013328	60	10	60-180	60	132	GapExp	0	56	2	1	0	distractor	1	307	847	125133	13.328	12.902	13.744
DTProbeTrack03	17	ProbeTrackDT	1.1	SCS215a	20110128.093623	20110128.094219	single-task	8	0.013328	60	10	60-180	60	169	GapExp	0	57	2	6	0	distractor	1	454	773	125906	13.328	13.006	13.651
DTProbeTrack03	17	ProbeTrackDT	1.1	SCS215a	20110128.093623	20110128.094226	single-task	8	0.013328	60	10	60-180	60	107	GapExp	0	58	2	45	0	distractor	1	414	793	126699	13.328	13.308	13.347
DTProbeTrack03	17	ProbeTrackDT	1.1	SCS215a	20110128.093623	20110128.094231	single-task	8	0.013328	60	10	60-180	60	83	GapExp	0	59	2	9	1	distractor	0	427	-1000	125699	13.328	13.308	13.346
DTProbeTrack03	17	ProbeTrackDT	1.1	SCS215a	20110128.093623	20110128.094236	single-task	8	0.013328	60	10	60-180	60	154	GapExp	0	60	2	3	0	distractor	1	374	813	126512	13.328	13.309	13.348
DTProbeTrack03	17	ProbeTrackDT	1.1	SCS215a	20110128.093623	20110128.094242	single-task	8	0.013328	60	10	60-180	60	106	GapExp	0	61	2	9	0	distractor	1	347	827	127339	13.328	12.857	13.816
DTProbeTrack03	17	ProbeTrackDT	1.1	SCS215a	20110128.093623	20110128.094247	single-task	8	0.013328	60	10	60-180	60	158	GapExp	0	62	2	3	0	target	0	107	-1000	126339	13.328	12.876	13.782
DTProbeTrack03	17	ProbeTrackDT	1.1	SCS215a	20110128.093623	20110128.094253	single-task	8	0.013328	60	10	60-180	60	126	GapExp	0	63	2	9	0	target	0	-13	-1000	125339	13.328	13.308	13.351
DTProbeTrack03	17	ProbeTrackDT	1.1	SCS215a	20110128.093623	20110128.094258	single-task	8	0.013328	60	10	60-180	60	72	GapExp	0	64	2	3	0	target	0	254	-1000	124339	13.917	12.848	39.948
DTProbeTrack03	17	ProbeTrackDT	1.1	SCS215a	20110128.093623	20110128.094303	single-task	8	0.013328	60	10	60-180	60	148	GapExp	0	65	2	3	1	target	1	80	960	125299	13.327	13.221	13.441
DTProbeTrack03	17	ProbeTrackDT	1.1	SCS215a	20110128.093623	20110128.094308	single-task	8	0.013328	60	10	60-180	60	153	GapExp	0	66	2	9	1	target	1	-13	1007	126306	13.328	13.287	13.357
DTProbeTrack03	17	ProbeTrackDT	1.1	SCS215a	20110128.093623	20110128.094314	single-task	8	0.013328	60	10	60-180	60	96	GapExp	0	67	2	45	1	target	1	374	813	127119	13.328	12.886	13.758
DTProbeTrack03	17	ProbeTrackDT	1.1	SCS215a	20110128.093623	20110128.094319	single-task	8	0.013328	60	10	60-180	60	112	GapExp	0	68	2	9	0	distractor	1	560	720	127839	13.328	12.922	13.719
DTProbeTrack03	17	ProbeTrackDT	1.1	SCS215a	20110128.093623	20110128.094325	single-task	8	0.013328	60	10	60-180	60	140	GapExp	0	69	2	3	1	distractor	0	334	-1000	126839	13.328	13.090	13.570
DTProbeTrack03	17	ProbeTrackDT	1.1	SCS215a	20110128.093623	20110128.094331	single-task	8	0.013328	60	10	60-180	60	70	GapExp	0	70	2	1	0	distractor	1	360	820	127659	13.328	12.989	13.660
DTProbeTrack03	17	ProbeTrackDT	1.1	SCS215a	20110128.093623	20110128.094335	single-task	8	0.013328	60	10	60-180	60	88	GapExp	0	71	2	3	1	target	1	840	580	128239	13.328	13.306	13.351
DTProbeTrack03	17	ProbeTrackDT	1.1	SCS215a	20110128.093623	20110128.094341	single-task	8	0.013328	60	10	60-180	60	176	GapExp	0	72	2	6	0	distractor	1	320	840	129079	13.328	13.104	13.544
DTProbeTrack03	17	ProbeTrackDT	1.1	SCS215a	20110128.093623	20110128.094347	single-task	8	0.013328	60	10	60-180	60	97	GapExp	0	73	2	6	1	distractor	0	467	-1000	128079	13.328	13.092	13.551
DTProbeTrack03	17	ProbeTrackDT	1.1	SCS215a	20110128.093623	20110128.094352	single-task	8	0.013328	60	10	60-180	60	84	GapExp	0	74	2	9	0	distractor	1	427	787	128866	13.328	13.308	13.346
DTProbeTrack03	17	ProbeTrackDT	1.1	SCS215a	20110128.093623	20110128.094357	single-task	8	0.013328	60	10	60-180	60	74	GapExp	0	75	2	3	0	distractor	1	454	773	129639	13.328	12.936	13.705
DTProbeTrack03	17	ProbeTrackDT	1.1	SCS215a	20110128.093623	20110128.094402	single-task	8	0.013328	60	10	60-180	60	66	GapExp	0	76	2	6	0	distractor	1	360	820	130459	13.328	13.087	13.563
DTProbeTrack03	17	ProbeTrackDT	1.1	SCS215a	20110128.093623	20110128.094407	single-task	8	0.013328	60	10	60-180	60	74	GapExp	0	77	2	45	1	target	1	387	807	131266	13.328	13.096	13.550
DTProbeTrack03	17	ProbeTrackDT	1.1	SCS215a	20110128.093623	20110128.094412	single-task	8	0.013328	60	10	60-180	60	168	GapExp	0	78	2	3	1	distractor	0	320	-1000	130266	13.328	13.182	13.487
DTProbeTrack03	17	ProbeTrackDT	1.1	SCS215a	20110128.093623	20110128.094418	single-task	8	0.013328	60	10	60-180	60	149	GapExp	0	79	2	45	0	target	0	467	-1000	129266	13.328	13.307	13.349
DTProbeTrack03	17	ProbeTrackDT	1.1	SCS215a	20110128.093623	20110128.094424	single-task	8	0.013328	60	10	60-180	60	101	GapExp	0	80	2	3	1	distractor	0	547	-1000	128266	13.328	13.300	13.362
DTProbeTrack03	17	ProbeTrackDT	1.1	SCS215a	20110128.093623	20110128.094430	single-task	8	0.013328	60	10	60-180	60	62	GapExp	0	81	2	9	1	target	1	454	773	129039	13.328	13.114	13.545
DTProbeTrack03	17	ProbeTrackDT	1.1	SCS215a	20110128.093623	20110128.094434	single-task	8	0.013328	60	10	60-180	60	172	GapExp	0	82	2	1	1	target	1	387	807	129846	13.328	13.120	13.543
DTProbeTrack03	17	ProbeTrackDT	1.1	SCS215a	20110128.093623	20110128.094440	single-task	8	0.013328	60	10	60-180	60	157	GapExp	0	83	2	1	0	distractor	1	427	787	130633	13.328	13.086	13.555
DTProbeTrack03	17	ProbeTrackDT	1.1	SCS215a	20110128.093623	20110128.094446	single-task	8	0.013328	60	10	60-180	60	67	GapExp	0	84	2	3	0	distractor	1	467	767	131400	13.328	12.964	13.678
DTProbeTrack03	17	ProbeTrackDT	1.1	SCS215a	20110128.093623	20110128.094451	single-task	8	0.013328	60	10	60-180	60	118	GapExp	0	85	2	3	0	distractor	1	334	833	132233	13.328	12.918	13.736
DTProbeTrack03	17	ProbeTrackDT	1.1	SCS215a	20110128.093623	20110128.094456	single-task	8	0.013328	60	10	60-180	60	79	GapExp	0	86	2	3	0	distractor	1	440	780	133013	13.328	12.885	13.771
DTProbeTrack03	17	ProbeTrackDT	1.1	SCS215a	20110128.093623	20110128.094501	single-task	8	0.013328	60	10	60-180	60	157	GapExp	0	87	2	9	0	distractor	1	347	827	133840	13.328	13.306	13.349
DTProbeTrack03	17	ProbeTrackDT	1.1	SCS215a	20110128.093623	20110128.094507	single-task	8	0.013328	60	10	60-180	60	104	GapExp	0	88	2	1	1	distractor	0	307	-1000	132840	13.328	12.992	13.655
DTProbeTrack03	17	ProbeTrackDT	1.1	SCS215a	20110128.093623	20110128.094512	single-task	8	0.013328	60	10	60-180	60	95	GapExp	0	89	2	1	1	target	1	307	847	133687	13.328	12.879	13.790
DTProbeTrack03	17	ProbeTrackDT	1.1	SCS215a	20110128.093623	20110128.094517	single-task	8	0.013328	60	10	60-180	60	146	GapExp	0	90	2	45	0	distractor	1	494	753	134440	13.328	12.894	13.774
DTProbeTrack03	17	ProbeTrackDT	1.1	SCS215a	20110128.093623	20110128.094524	single-task	8	0.013328	60	10	60-180	60	179	GapExp	0	91	2	3	0	distractor	1	347	827	135267	13.328	13.086	13.557
DTProbeTrack03	17	ProbeTrackDT	1.1	SCS215a	20110128.093623	20110128.094530	single-task	8	0.013328	60	10	60-180	60	132	GapExp	0	92	2	45	0	distractor	1	387	807	136074	13.328	12.993	13.658
DTProbeTrack03	17	ProbeTrackDT	1.1	SCS215a	20110128.093623	20110128.094536	single-task	8	0.013328	60	10	60-180	60	62	GapExp	0	93	2	45	1	distractor	0	1027	-1000	135074	13.328	13.310	13.344
DTProbeTrack03	17	ProbeTrackDT	1.1	SCS215a	20110128.093623	20110128.094542	single-task	8	0.013328	60	10	60-180	60	122	GapExp	0	94	2	3	0	distractor	1	574	713	135787	13.328	12.896	13.759
DTProbeTrack03	17	ProbeTrackDT	1.1	SCS215a	20110128.093623	20110128.094547	single-task	8	0.013328	60	10	60-180	60	123	GapExp	0	95	2	1	0	distractor	1	534	733	136520	13.328	13.306	13.350
DTProbeTrack03	17	ProbeTrackDT	1.1	SCS215a	20110128.093623	20110128.094553	single-task	8	0.013328	60	10	60-180	60	162	GapExp	0	96	2	9	1	distractor	0	307	-1000	135520	13.328	13.307	13.349
DTProbeTrack03	17	ProbeTrackDT	1.1	SCS215a	20110128.093623	20110128.094559	single-task	8	0.013328	60	10	60-180	60	123	GapExp	0	97	2	6	1	target	1	387	807	136327	13.328	13.112	13.545
DTProbeTrack03	17	ProbeTrackDT	1.1	SCS215a	20110128.093623	20110128.094604	single-task	8	0.013328	60	10	60-180	60	165	GapExp	0	98	2	6	1	target	1	360	820	137147	13.328	13.093	13.556
DTProbeTrack03	17	ProbeTrackDT	1.1	SCS215a	20110128.093623	20110128.094611	single-task	8	0.013328	60	10	60-180	60	176	GapExp	0	99	2	45	1	distractor	0	520	-1000	136147	13.328	13.293	13.364
DTProbeTrack03	17	ProbeTrackDT	1.1	SCS215a	20110128.093623	20110128.094617	single-task	8	0.013328	60	10	60-180	60	72	GapExp	0	100	2	45	0	target	0	427	-1000	135147	13.328	13.070	13.590
DTProbeTrack03	17	ProbeTrackDT	1.1	SCS215a	20110128.093623	20110128.094712	single-task	8	0.013328	60	10	60-180	60	124	GapExp	0	101	2	45	1	distractor	0	2506	-1000	134147	13.328	13.300	13.347
DTProbeTrack03	17	ProbeTrackDT	1.1	SCS215a	20110128.093623	20110128.094720	single-task	8	0.013328	60	10	60-180	60	138	GapExp	0	102	2	9	0	distractor	1	334	833	134980	13.328	13.304	13.347
DTProbeTrack03	17	ProbeTrackDT	1.1	SCS215a	20110128.093623	20110128.094726	single-task	8	0.013328	60	10	60-180	60	140	GapExp	0	103	2	45	1	target	1	307	847	135827	13.328	13.307	13.347
DTProbeTrack03	17	ProbeTrackDT	1.1	SCS215a	20110128.093623	20110128.094732	single-task	8	0.013328	60	10	60-180	60	161	GapExp	0	104	2	1	0	distractor	1	347	827	136654	13.328	13.100	13.559
DTProbeTrack03	17	ProbeTrackDT	1.1	SCS215a	20110128.093623	20110128.094738	single-task	8	0.013328	60	10	60-180	60	72	GapExp	0	105	2	3	1	target	1	454	773	137427	13.328	13.108	13.549
DTProbeTrack03	17	ProbeTrackDT	1.1	SCS215a	20110128.093623	20110128.094743	single-task	8	0.013328	60	10	60-180	60	176	GapExp	0	106	2	3	1	target	1	307	847	138274	13.328	12.877	13.767
DTProbeTrack03	17	ProbeTrackDT	1.1	SCS215a	20110128.093623	20110128.094749	single-task	8	0.013328	60	10	60-180	60	153	GapExp	0	107	2	9	0	distractor	1	347	827	139101	13.328	13.309	13.347
DTProbeTrack03	17	ProbeTrackDT	1.1	SCS215a	20110128.093623	20110128.094755	single-task	8	0.013328	60	10	60-180	60	168	GapExp	0	108	2	6	1	target	1	440	780	139881	13.328	13.273	13.382
DTProbeTrack03	17	ProbeTrackDT	1.1	SCS215a	20110128.093623	20110128.094801	single-task	8	0.013328	60	10	60-180	60	158	GapExp	0	109	2	6	0	distractor	1	520	740	140621	13.328	13.048	13.594
DTProbeTrack03	17	ProbeTrackDT	1.1	SCS215a	20110128.093623	20110128.094807	single-task	8	0.013328	60	10	60-180	60	180	GapExp	0	110	2	1	1	target	1	320	840	141461	13.328	13.302	13.355
DTProbeTrack03	17	ProbeTrackDT	1.1	SCS215a	20110128.093623	20110128.094813	single-task	8	0.013328	60	10	60-180	60	122	GapExp	0	111	2	9	1	distractor	0	294	-1000	140461	13.328	13.086	13.564
DTProbeTrack03	17	ProbeTrackDT	1.1	SCS215a	20110128.093623	20110128.094818	single-task	8	0.013328	60	10	60-180	60	73	GapExp	0	112	2	6	1	target	1	347	827	141288	13.328	13.308	13.344
DTProbeTrack03	17	ProbeTrackDT	1.1	SCS215a	20110128.093623	20110128.094823	single-task	8	0.013328	60	10	60-180	60	121	GapExp	0	113	2	3	1	target	1	347	827	142115	13.328	13.307	13.347
DTProbeTrack03	17	ProbeTrackDT	1.1	SCS215a	20110128.093623	20110128.094829	single-task	8	0.013328	60	10	60-180	60	129	GapExp	0	114	2	6	0	distractor	1	307	847	142962	13.328	13.308	13.352
DTProbeTrack03	17	ProbeTrackDT	1.1	SCS215a	20110128.093623	20110128.094834	single-task	8	0.013328	60	10	60-180	60	135	GapExp	0	115	2	6	0	distractor	1	347	827	143789	13.328	12.912	13.741
DTProbeTrack03	17	ProbeTrackDT	1.1	SCS215a	20110128.093623	20110128.094840	single-task	8	0.013328	60	10	60-180	60	76	GapExp	0	116	2	1	0	distractor	1	334	833	144622	13.328	13.308	13.347
DTProbeTrack03	17	ProbeTrackDT	1.1	SCS215a	20110128.093623	20110128.094844	single-task	8	0.013328	60	10	60-180	60	78	GapExp	0	117	2	3	1	distractor	0	467	-1000	143622	13.328	13.210	13.445
DTProbeTrack03	17	ProbeTrackDT	1.1	SCS215a	20110128.093623	20110128.094849	single-task	8	0.013328	60	10	60-180	60	71	GapExp	0	118	2	1	0	distractor	1	374	813	144435	13.328	13.308	13.343
DTProbeTrack03	17	ProbeTrackDT	1.1	SCS215a	20110128.093623	20110128.094854	single-task	8	0.013328	60	10	60-180	60	171	GapExp	0	119	2	1	0	distractor	1	440	780	145215	13.328	13.099	13.557
DTProbeTrack03	17	ProbeTrackDT	1.1	SCS215a	20110128.093623	20110128.094900	single-task	8	0.013328	60	10	60-180	60	108	GapExp	0	120	2	1	0	distractor	1	360	820	146035	13.328	12.896	13.772
DTProbeTrack03	17	ProbeTrackDT	1.1	SCS215a	20110128.093623	20110128.094905	single-task	8	0.013328	60	10	60-180	60	146	GapExp	0	121	2	1	1	distractor	0	440	-1000	145035	13.328	13.307	13.346
DTProbeTrack03	17	ProbeTrackDT	1.1	SCS215a	20110128.093623	20110128.094911	single-task	8	0.013328	60	10	60-180	60	101	GapExp	0	122	2	3	0	target	0	347	-1000	144035	13.328	13.118	13.671
DTProbeTrack03	17	ProbeTrackDT	1.1	SCS215a	20110128.093623	20110128.094916	single-task	8	0.013328	60	10	60-180	60	123	GapExp	0	123	2	3	0	target	0	467	-1000	143035	13.328	13.308	13.347
DTProbeTrack03	17	ProbeTrackDT	1.1	SCS215a	20110128.093623	20110128.094922	single-task	8	0.013328	60	10	60-180	60	146	GapExp	0	124	2	1	0	distractor	1	440	780	143815	13.328	13.069	13.568
DTProbeTrack03	17	ProbeTrackDT	1.1	SCS215a	20110128.093623	20110128.094928	single-task	8	0.013328	60	10	60-180	60	124	GapExp	0	125	2	3	1	distractor	0	427	-1000	142815	13.328	13.219	13.609
DTProbeTrack03	17	ProbeTrackDT	1.1	SCS215a	20110128.093623	20110128.094933	single-task	8	0.013328	60	10	60-180	60	168	GapExp	0	126	2	45	1	target	1	480	760	143575	13.328	13.058	13.591
DTProbeTrack03	17	ProbeTrackDT	1.1	SCS215a	20110128.093623	20110128.094940	single-task	8	0.013328	60	10	60-180	60	174	GapExp	0	127	2	9	1	distractor	0	307	-1000	142575	13.328	13.198	13.543
DTProbeTrack03	17	ProbeTrackDT	1.1	SCS215a	20110128.093623	20110128.094946	single-task	8	0.013328	60	10	60-180	60	97	GapExp	0	128	2	45	0	target	0	400	-1000	141575	13.328	13.302	13.346
DTProbeTrack03	17	ProbeTrackDT	1.1	SCS215a	20110128.093623	20110128.094952	single-task	8	0.013328	60	10	60-180	60	130	GapExp	0	129	2	45	1	distractor	0	320	-1000	140575	13.328	13.310	13.348
DTProbeTrack03	17	ProbeTrackDT	1.1	SCS215a	20110128.093623	20110128.094958	single-task	8	0.013328	60	10	60-180	60	91	GapExp	0	130	2	45	1	target	1	467	767	141342	13.328	13.054	13.616
DTProbeTrack03	17	ProbeTrackDT	1.1	SCS215a	20110128.093623	20110128.095003	single-task	8	0.013328	60	10	60-180	60	70	GapExp	0	131	2	1	0	distractor	1	467	767	142109	13.328	12.966	13.681
DTProbeTrack03	17	ProbeTrackDT	1.1	SCS215a	20110128.093623	20110128.095008	single-task	8	0.013328	60	10	60-180	60	83	GapExp	0	132	2	9	1	target	1	414	793	142902	13.327	12.891	13.751
DTProbeTrack03	17	ProbeTrackDT	1.1	SCS215a	20110128.093623	20110128.095013	single-task	8	0.013328	60	10	60-180	60	167	GapExp	0	133	2	45	1	distractor	0	440	-1000	141902	13.328	13.085	13.563
DTProbeTrack03	17	ProbeTrackDT	1.1	SCS215a	20110128.093623	20110128.095020	single-task	8	0.013328	60	10	60-180	60	79	GapExp	0	134	2	9	0	target	0	400	-1000	140902	13.328	12.935	13.727
DTProbeTrack03	17	ProbeTrackDT	1.1	SCS215a	20110128.093623	20110128.095025	single-task	8	0.013328	60	10	60-180	60	136	GapExp	0	135	2	45	1	distractor	0	254	-1000	139902	13.328	12.972	13.682
DTProbeTrack03	17	ProbeTrackDT	1.1	SCS215a	20110128.093623	20110128.095031	single-task	8	0.013328	60	10	60-180	60	137	GapExp	0	136	2	6	0	distractor	1	347	827	140729	13.328	12.897	13.750
DTProbeTrack03	17	ProbeTrackDT	1.1	SCS215a	20110128.093623	20110128.095037	single-task	8	0.013328	60	10	60-180	60	110	GapExp	0	137	2	1	0	distractor	1	387	807	141536	13.328	12.910	13.739
DTProbeTrack03	17	ProbeTrackDT	1.1	SCS215a	20110128.093623	20110128.095042	single-task	8	0.013328	60	10	60-180	60	75	GapExp	0	138	2	9	1	target	1	467	767	142303	13.328	12.993	13.680
DTProbeTrack03	17	ProbeTrackDT	1.1	SCS215a	20110128.093623	20110128.095047	single-task	8	0.013328	60	10	60-180	60	110	GapExp	0	139	2	9	0	distractor	1	360	820	143123	13.328	13.099	13.563
DTProbeTrack03	17	ProbeTrackDT	1.1	SCS215a	20110128.093623	20110128.095052	single-task	8	0.013328	60	10	60-180	60	150	GapExp	0	140	2	3	0	distractor	1	400	800	143923	13.328	13.077	13.579
DTProbeTrack03	17	ProbeTrackDT	1.1	SCS215a	20110128.093623	20110128.095058	single-task	8	0.013328	60	10	60-180	60	180	GapExp	0	141	2	6	0	target	0	134	-1000	142923	13.328	13.304	13.356
DTProbeTrack03	17	ProbeTrackDT	1.1	SCS215a	20110128.093623	20110128.095104	single-task	8	0.013328	60	10	60-180	60	134	GapExp	0	142	2	45	1	target	1	334	833	143756	13.328	12.920	13.738
DTProbeTrack03	17	ProbeTrackDT	1.1	SCS215a	20110128.093623	20110128.095110	single-task	8	0.013328	60	10	60-180	60	169	GapExp	0	143	2	45	0	target	0	507	-1000	142756	13.328	12.863	13.803
DTProbeTrack03	17	ProbeTrackDT	1.1	SCS215a	20110128.093623	20110128.095117	single-task	8	0.013328	60	10	60-180	60	168	GapExp	0	144	2	9	0	distractor	1	387	807	143563	13.328	13.308	13.344
DTProbeTrack03	17	ProbeTrackDT	1.1	SCS215a	20110128.093623	20110128.095123	single-task	8	0.013328	60	10	60-180	60	81	GapExp	0	145	2	45	0	distractor	1	480	760	144323	13.328	13.099	13.563
DTProbeTrack03	17	ProbeTrackDT	1.1	SCS215a	20110128.093623	20110128.095129	single-task	8	0.013328	60	10	60-180	60	74	GapExp	0	146	2	1	1	target	1	320	840	145163	13.327	12.993	13.658
DTProbeTrack03	17	ProbeTrackDT	1.1	SCS215a	20110128.093623	20110128.095133	single-task	8	0.013328	60	10	60-180	60	130	GapExp	0	147	2	1	0	target	0	307	-1000	144163	13.328	12.901	13.767
DTProbeTrack03	17	ProbeTrackDT	1.1	SCS215a	20110128.093623	20110128.095139	single-task	8	0.013328	60	10	60-180	60	88	GapExp	0	148	2	3	1	target	1	360	820	144983	13.328	13.307	13.348
DTProbeTrack03	17	ProbeTrackDT	1.1	SCS215a	20110128.093623	20110128.095144	single-task	8	0.013328	60	10	60-180	60	170	GapExp	0	149	2	3	1	target	1	280	860	145843	13.328	13.016	13.605
DTProbeTrack03	17	ProbeTrackDT	1.1	SCS215a	20110128.093623	20110128.095150	single-task	8	0.013328	60	10	60-180	60	118	GapExp	0	150	2	6	0	distractor	1	427	787	146630	13.328	13.092	13.565
DTProbeTrack03	17	ProbeTrackDT	1.1	SCS215a	20110128.093623	20110128.095546	single-task	8	0.013328	60	10	60-180	60	132	GapExp	0	151	2	3	1	distractor	0	280	-1000	145630	13.328	12.895	13.758
DTProbeTrack03	17	ProbeTrackDT	1.1	SCS215a	20110128.093623	20110128.095552	single-task	8	0.013328	60	10	60-180	60	155	GapExp	0	152	2	1	1	target	1	267	867	146497	13.328	13.176	13.478
DTProbeTrack03	17	ProbeTrackDT	1.1	SCS215a	20110128.093623	20110128.095558	single-task	8	0.013328	60	10	60-180	60	180	GapExp	0	153	2	3	1	distractor	0	320	-1000	145497	13.328	13.256	13.409
DTProbeTrack03	17	ProbeTrackDT	1.1	SCS215a	20110128.093623	20110128.095604	single-task	8	0.013328	60	10	60-180	60	97	GapExp	0	154	2	6	1	distractor	0	320	-1000	144497	13.328	13.308	13.347
DTProbeTrack03	17	ProbeTrackDT	1.1	SCS215a	20110128.093623	20110128.095609	single-task	8	0.013328	60	10	60-180	60	177	GapExp	0	155	2	3	0	target	0	320	-1000	143497	13.328	13.085	13.575
DTProbeTrack03	17	ProbeTrackDT	1.1	SCS215a	20110128.093623	20110128.095615	single-task	8	0.013328	60	10	60-180	60	126	GapExp	0	156	2	9	0	distractor	1	427	787	144284	13.328	12.864	13.786
DTProbeTrack03	17	ProbeTrackDT	1.1	SCS215a	20110128.093623	20110128.095620	single-task	8	0.013328	60	10	60-180	60	135	GapExp	0	157	2	9	0	distractor	1	320	840	145124	13.328	12.979	13.679
DTProbeTrack03	17	ProbeTrackDT	1.1	SCS215a	20110128.093623	20110128.095626	single-task	8	0.013328	60	10	60-180	60	145	GapExp	0	158	2	3	1	target	1	307	847	145971	13.328	12.927	13.728
DTProbeTrack03	17	ProbeTrackDT	1.1	SCS215a	20110128.093623	20110128.095632	single-task	8	0.013328	60	10	60-180	60	93	GapExp	0	159	2	9	1	distractor	0	294	-1000	144971	13.328	13.309	13.344
DTProbeTrack03	17	ProbeTrackDT	1.1	SCS215a	20110128.093623	20110128.095637	single-task	8	0.013328	60	10	60-180	60	134	GapExp	0	160	2	45	1	target	1	320	840	145811	13.328	13.106	13.538
DTProbeTrack03	17	ProbeTrackDT	1.1	SCS215a	20110128.093623	20110128.095643	single-task	8	0.013328	60	10	60-180	60	156	GapExp	0	161	2	6	0	distractor	1	347	827	146638	13.328	13.100	13.558
DTProbeTrack03	17	ProbeTrackDT	1.1	SCS215a	20110128.093623	20110128.095649	single-task	8	0.013328	60	10	60-180	60	165	GapExp	0	162	2	1	0	distractor	1	387	807	147445	13.328	13.100	13.562
DTProbeTrack03	17	ProbeTrackDT	1.1	SCS215a	20110128.093623	20110128.095655	single-task	8	0.013328	60	10	60-180	60	105	GapExp	0	163	2	45	0	distractor	1	280	860	148305	13.328	12.925	13.731
DTProbeTrack03	17	ProbeTrackDT	1.1	SCS215a	20110128.093623	20110128.095701	single-task	8	0.013328	60	10	60-180	60	68	GapExp	0	164	2	3	0	target	0	733	-1000	147305	13.328	13.308	13.343
DTProbeTrack03	17	ProbeTrackDT	1.1	SCS215a	20110128.093623	20110128.095706	single-task	8	0.013328	60	10	60-180	60	149	GapExp	0	165	2	3	1	distractor	0	520	-1000	146305	13.328	13.093	13.560
DTProbeTrack03	17	ProbeTrackDT	1.1	SCS215a	20110128.093623	20110128.095712	single-task	8	0.013328	60	10	60-180	60	144	GapExp	0	166	2	45	1	target	1	427	787	147092	13.328	13.092	13.650
DTProbeTrack03	17	ProbeTrackDT	1.1	SCS215a	20110128.093623	20110128.095718	single-task	8	0.013328	60	10	60-180	60	150	GapExp	0	167	2	3	0	distractor	1	440	780	147872	13.328	13.111	13.538
DTProbeTrack03	17	ProbeTrackDT	1.1	SCS215a	20110128.093623	20110128.095724	single-task	8	0.013328	60	10	60-180	60	88	GapExp	0	168	2	45	1	distractor	0	374	-1000	146872	13.328	13.298	13.349
DTProbeTrack03	17	ProbeTrackDT	1.1	SCS215a	20110128.093623	20110128.095729	single-task	8	0.013328	60	10	60-180	60	147	GapExp	0	169	2	45	0	distractor	1	267	867	147739	13.328	13.304	13.350
DTProbeTrack03	17	ProbeTrackDT	1.1	SCS215a	20110128.093623	20110128.095736	single-task	8	0.013328	60	10	60-180	60	172	GapExp	0	170	2	6	1	target	1	347	827	148566	13.328	12.865	13.775
DTProbeTrack03	17	ProbeTrackDT	1.1	SCS215a	20110128.093623	20110128.095742	single-task	8	0.013328	60	10	60-180	60	127	GapExp	0	171	2	9	0	target	0	347	-1000	147566	13.328	12.950	13.701
DTProbeTrack03	17	ProbeTrackDT	1.1	SCS215a	20110128.093623	20110128.095747	single-task	8	0.013328	60	10	60-180	60	86	GapExp	0	172	2	1	1	distractor	0	347	-1000	146566	13.328	12.909	13.761
DTProbeTrack03	17	ProbeTrackDT	1.1	SCS215a	20110128.093623	20110128.095752	single-task	8	0.013328	60	10	60-180	60	92	GapExp	0	173	2	1	1	target	1	214	893	147459	13.328	13.308	13.349
DTProbeTrack03	17	ProbeTrackDT	1.1	SCS215a	20110128.093623	20110128.095757	single-task	8	0.013328	60	10	60-180	60	139	GapExp	0	174	2	9	1	target	1	534	733	148192	13.328	13.308	13.348
DTProbeTrack03	17	ProbeTrackDT	1.1	SCS215a	20110128.093623	20110128.095803	single-task	8	0.013328	60	10	60-180	60	128	GapExp	0	175	2	3	1	target	1	187	907	149099	13.328	13.307	13.348
DTProbeTrack03	17	ProbeTrackDT	1.1	SCS215a	20110128.093623	20110128.095808	single-task	8	0.013328	60	10	60-180	60	85	GapExp	0	176	2	6	0	distractor	1	400	800	149899	13.328	13.309	13.348
DTProbeTrack03	17	ProbeTrackDT	1.1	SCS215a	20110128.093623	20110128.095813	single-task	8	0.013328	60	10	60-180	60	138	GapExp	0	177	2	9	1	target	1	174	913	150812	13.328	12.838	13.811
DTProbeTrack03	17	ProbeTrackDT	1.1	SCS215a	20110128.093623	20110128.095819	single-task	8	0.013328	60	10	60-180	60	112	GapExp	0	178	2	6	0	distractor	1	320	840	151652	13.328	13.284	13.368
DTProbeTrack03	17	ProbeTrackDT	1.1	SCS215a	20110128.093623	20110128.095824	single-task	8	0.013328	60	10	60-180	60	68	GapExp	0	179	2	45	1	distractor	0	480	-1000	150652	13.327	13.308	13.347
DTProbeTrack03	17	ProbeTrackDT	1.1	SCS215a	20110128.093623	20110128.095830	single-task	8	0.013328	60	10	60-180	60	152	GapExp	0	180	2	9	0	target	0	134	-1000	149652	13.379	13.086	26.706
DTProbeTrack03	17	ProbeTrackDT	1.1	SCS215a	20110128.093623	20110128.095835	single-task	8	0.013328	60	10	60-180	60	141	GapExp	0	181	2	9	1	target	1	454	773	150425	13.328	13.112	13.541
DTProbeTrack03	17	ProbeTrackDT	1.1	SCS215a	20110128.093623	20110128.095841	single-task	8	0.013328	60	10	60-180	60	170	GapExp	0	182	2	9	0	distractor	1	360	820	151245	13.328	13.194	13.476
DTProbeTrack03	17	ProbeTrackDT	1.1	SCS215a	20110128.093623	20110128.095847	single-task	8	0.013328	60	10	60-180	60	116	GapExp	0	183	2	9	1	target	1	520	740	151985	13.328	13.119	13.535
DTProbeTrack03	17	ProbeTrackDT	1.1	SCS215a	20110128.093623	20110128.095853	single-task	8	0.013328	60	10	60-180	60	108	GapExp	0	184	2	1	1	target	1	320	840	152825	13.328	12.915	13.750
DTProbeTrack03	17	ProbeTrackDT	1.1	SCS215a	20110128.093623	20110128.095858	single-task	8	0.013328	60	10	60-180	60	75	GapExp	0	185	2	1	1	distractor	0	320	-1000	151825	13.328	13.085	13.555
DTProbeTrack03	17	ProbeTrackDT	1.1	SCS215a	20110128.093623	20110128.095903	single-task	8	0.013328	60	10	60-180	60	130	GapExp	0	186	2	9	1	target	1	280	860	152685	13.328	13.105	13.550
DTProbeTrack03	17	ProbeTrackDT	1.1	SCS215a	20110128.093623	20110128.095908	single-task	8	0.013328	60	10	60-180	60	94	GapExp	0	187	2	45	0	distractor	1	467	767	153452	13.328	13.308	13.348
DTProbeTrack03	17	ProbeTrackDT	1.1	SCS215a	20110128.093623	20110128.095914	single-task	8	0.013328	60	10	60-180	60	119	GapExp	0	188	2	9	0	target	0	467	-1000	152452	13.328	13.308	13.348
DTProbeTrack03	17	ProbeTrackDT	1.1	SCS215a	20110128.093623	20110128.095919	single-task	8	0.013328	60	10	60-180	60	136	GapExp	0	189	2	45	0	target	0	320	-1000	151452	13.328	12.982	13.662
DTProbeTrack03	17	ProbeTrackDT	1.1	SCS215a	20110128.093623	20110128.095925	single-task	8	0.013328	60	10	60-180	60	85	GapExp	0	190	2	9	0	distractor	1	360	820	152272	13.328	13.103	13.552
DTProbeTrack03	17	ProbeTrackDT	1.1	SCS215a	20110128.093623	20110128.095930	single-task	8	0.013328	60	10	60-180	60	101	GapExp	0	191	2	9	0	distractor	1	387	807	153079	13.327	13.093	13.548
DTProbeTrack03	17	ProbeTrackDT	1.1	SCS215a	20110128.093623	20110128.095936	single-task	8	0.013328	60	10	60-180	60	155	GapExp	0	192	2	3	0	220	-3	-13	-1000	152079	13.328	13.306	13.346
DTProbeTrack03	17	ProbeTrackDT	1.1	SCS215a	20110128.093623	20110128.095941	single-task	8	0.013328	60	10	60-180	60	62	GapExp	0	193	2	45	0	target	0	427	-1000	151079	13.328	13.308	13.347
DTProbeTrack03	17	ProbeTrackDT	1.1	SCS215a	20110128.093623	20110128.095946	single-task	8	0.013328	60	10	60-180	60	113	GapExp	0	194	2	6	0	target	0	467	-1000	150079	13.328	12.918	13.730
DTProbeTrack03	17	ProbeTrackDT	1.1	SCS215a	20110128.093623	20110128.095952	single-task	8	0.013328	60	10	60-180	60	131	GapExp	0	195	2	6	1	target	1	454	773	150852	13.328	13.117	13.549
DTProbeTrack03	17	ProbeTrackDT	1.1	SCS215a	20110128.093623	20110128.095957	single-task	8	0.013328	60	10	60-180	60	113	GapExp	0	196	2	6	0	distractor	1	307	847	151699	13.328	13.051	13.604
DTProbeTrack03	17	ProbeTrackDT	1.1	SCS215a	20110128.093623	20110128.100003	single-task	8	0.013328	60	10	60-180	60	77	GapExp	0	197	2	6	0	distractor	1	414	793	152492	13.328	13.309	13.347
DTProbeTrack03	17	ProbeTrackDT	1.1	SCS215a	20110128.093623	20110128.100008	single-task	8	0.013328	60	10	60-180	60	154	GapExp	0	198	2	1	1	target	1	334	833	153325	13.328	13.099	13.559
DTProbeTrack03	17	ProbeTrackDT	1.1	SCS215a	20110128.093623	20110128.100014	single-task	8	0.013328	60	10	60-180	60	66	GapExp	0	199	2	45	1	distractor	0	494	-1000	152325	13.328	13.103	13.551
DTProbeTrack03	17	ProbeTrackDT	1.1	SCS215a	20110128.093623	20110128.100019	single-task	8	0.013328	60	10	60-180	60	168	GapExp	0	200	2	1	0	distractor	1	374	813	153138	13.328	13.308	13.349
DTProbeTrack03	17	ProbeTrackDT	1.1	SCS215a	20110128.093623	20110128.100030	single-task	8	0.013328	60	10	60-180	60	139	GapExp	0	201	2	1	1	distractor	0	400	-1000	152138	13.328	13.311	13.345
DTProbeTrack03	17	ProbeTrackDT	1.1	SCS215a	20110128.093623	20110128.100035	single-task	8	0.013328	60	10	60-180	60	97	GapExp	0	202	2	6	1	target	1	307	847	152985	13.327	13.104	13.553
DTProbeTrack03	17	ProbeTrackDT	1.1	SCS215a	20110128.093623	20110128.100040	single-task	8	0.013328	60	10	60-180	60	117	GapExp	0	203	2	9	1	target	1	480	760	153745	13.328	13.029	13.614
DTProbeTrack03	17	ProbeTrackDT	1.1	SCS215a	20110128.093623	20110128.100046	single-task	8	0.013328	60	10	60-180	60	180	GapExp	0	204	2	45	0	distractor	1	454	773	154518	13.328	13.091	13.555
DTProbeTrack03	17	ProbeTrackDT	1.1	SCS215a	20110128.093623	20110128.100053	single-task	8	0.013328	60	10	60-180	60	74	GapExp	0	205	2	1	1	target	1	440	780	155298	13.328	13.227	13.438
DTProbeTrack03	17	ProbeTrackDT	1.1	SCS215a	20110128.100138	20110128.100147	dt-shadow	8	0.013327	60	10	60-180	60	66	GapPrac	1	1	2	1	1	target	1	494	753	156051	13.328	13.307	13.348
DTProbeTrack03	17	ProbeTrackDT	1.1	SCS215a	20110128.100138	20110128.100152	dt-shadow	8	0.013327	60	10	60-180	60	115	GapPrac	1	2	2	1	1	target	1	467	767	156818	13.328	13.114	13.538
DTProbeTrack03	17	ProbeTrackDT	1.1	SCS215a	20110128.100138	20110128.100157	dt-shadow	8	0.013327	60	10	60-180	60	129	GapPrac	1	3	2	1	0	distractor	1	600	700	157518	13.328	13.059	13.583
DTProbeTrack03	17	ProbeTrackDT	1.1	SCS215a	20110128.100138	20110128.100203	dt-shadow	8	0.013327	60	10	60-180	60	94	GapPrac	1	4	2	45	0	distractor	1	507	747	158265	13.328	13.300	13.349
DTProbeTrack03	17	ProbeTrackDT	1.1	SCS215a	20110128.100138	20110128.100209	dt-shadow	8	0.013327	60	10	60-180	60	119	GapPrac	1	5	2	6	1	target	1	627	687	158952	13.328	13.308	13.349
DTProbeTrack03	17	ProbeTrackDT	1.1	SCS215a	20110128.100138	20110128.100214	dt-shadow	8	0.013327	60	10	60-180	60	138	GapPrac	1	6	2	45	0	distractor	1	414	793	159745	13.328	13.306	13.348
DTProbeTrack03	17	ProbeTrackDT	1.1	SCS215a	20110128.100138	20110128.100220	dt-shadow	8	0.013327	60	10	60-180	60	79	GapPrac	1	7	2	45	1	distractor	0	494	-1000	158745	13.328	13.088	13.564
DTProbeTrack03	17	ProbeTrackDT	1.1	SCS215a	20110128.100138	20110128.100226	dt-shadow	8	0.013327	60	10	60-180	60	81	GapPrac	1	8	2	9	1	target	1	400	800	159545	13.328	12.910	13.745
DTProbeTrack03	17	ProbeTrackDT	1.1	SCS215a	20110128.100138	20110128.100231	dt-shadow	8	0.013327	60	10	60-180	60	72	GapPrac	1	9	2	9	0	distractor	1	494	753	160298	13.328	13.308	13.348
DTProbeTrack03	17	ProbeTrackDT	1.1	SCS215a	20110128.100138	20110128.100236	dt-shadow	8	0.013327	60	10	60-180	60	150	GapPrac	1	10	2	9	1	target	1	414	793	161091	13.328	13.310	13.346
DTProbeTrack03	17	ProbeTrackDT	1.1	SCS215a	20110128.100138	20110128.100242	dt-shadow	8	0.013327	60	10	60-180	60	120	GapPrac	1	11	2	3	0	distractor	1	440	780	161871	13.328	13.091	13.552
DTProbeTrack03	17	ProbeTrackDT	1.1	SCS215a	20110128.100138	20110128.100247	dt-shadow	8	0.013327	60	10	60-180	60	134	GapPrac	1	12	2	45	1	distractor	0	360	-1000	160871	13.328	13.086	13.570
DTProbeTrack03	17	ProbeTrackDT	1.1	SCS215a	20110128.100138	20110128.100253	dt-shadow	8	0.013327	60	10	60-180	60	124	GapPrac	1	13	2	3	0	target	0	307	-1000	159871	13.328	12.884	13.795
DTProbeTrack03	17	ProbeTrackDT	1.1	SCS215a	20110128.100138	20110128.100259	dt-shadow	8	0.013327	60	10	60-180	60	144	GapPrac	1	14	2	6	0	distractor	1	187	907	160778	13.328	13.308	13.345
DTProbeTrack03	17	ProbeTrackDT	1.1	SCS215a	20110128.100138	20110128.100304	dt-shadow	8	0.013327	60	10	60-180	60	152	GapPrac	1	15	2	3	1	target	1	400	800	161578	13.328	13.013	13.661
DTProbeTrack03	17	ProbeTrackDT	1.1	SCS215a	20110128.100138	20110128.100310	dt-shadow	8	0.013327	60	10	60-180	60	63	GapPrac	1	16	2	3	1	distractor	0	360	-1000	160578	13.328	13.306	13.355
DTProbeTrack03	17	ProbeTrackDT	1.1	SCS215a	20110128.100138	20110128.100315	dt-shadow	8	0.013327	60	10	60-180	60	153	GapPrac	1	17	2	6	0	distractor	1	360	820	161398	13.328	12.980	13.693
DTProbeTrack03	17	ProbeTrackDT	1.1	SCS215a	20110128.100138	20110128.100321	dt-shadow	8	0.013327	60	10	60-180	60	93	GapPrac	1	18	2	6	1	target	1	534	733	162131	13.328	13.308	13.346
DTProbeTrack03	17	ProbeTrackDT	1.1	SCS215a	20110128.100138	20110128.100326	dt-shadow	8	0.013327	60	10	60-180	60	156	GapPrac	1	19	2	9	0	distractor	1	320	840	162971	13.328	13.309	13.348
DTProbeTrack03	17	ProbeTrackDT	1.1	SCS215a	20110128.100138	20110128.100332	dt-shadow	8	0.013327	60	10	60-180	60	96	GapPrac	1	20	2	1	0	distractor	1	360	820	163791	13.328	12.974	13.701
DTProbeTrack03	17	ProbeTrackDT	1.1	SCS215a	20110128.100450	20110128.100454	dt-shadow	8	0.013327	60	10	60-180	60	117	GapExp	1	1	2	6	0	distractor	1	520	740	164531	13.328	12.853	13.823
DTProbeTrack03	17	ProbeTrackDT	1.1	SCS215a	20110128.100450	20110128.100500	dt-shadow	8	0.013327	60	10	60-180	60	97	GapExp	1	2	2	9	0	distractor	1	334	833	165364	13.328	12.873	13.775
DTProbeTrack03	17	ProbeTrackDT	1.1	SCS215a	20110128.100450	20110128.100505	dt-shadow	8	0.013327	60	10	60-180	60	106	GapExp	1	3	2	45	0	distractor	1	387	807	166171	13.328	13.306	13.347
DTProbeTrack03	17	ProbeTrackDT	1.1	SCS215a	20110128.100450	20110128.100511	dt-shadow	8	0.013327	60	10	60-180	60	73	GapExp	1	4	2	6	1	distractor	0	334	-1000	165171	13.328	13.308	13.347
DTProbeTrack03	17	ProbeTrackDT	1.1	SCS215a	20110128.100450	20110128.100516	dt-shadow	8	0.013327	60	10	60-180	60	115	GapExp	1	5	2	9	1	target	1	347	827	165998	13.328	13.118	13.545
DTProbeTrack03	17	ProbeTrackDT	1.1	SCS215a	20110128.100450	20110128.100521	dt-shadow	8	0.013327	60	10	60-180	60	122	GapExp	0	6	2	6	0	distractor	1	347	827	166825	13.328	13.306	13.347
DTProbeTrack03	17	ProbeTrackDT	1.1	SCS215a	20110128.100450	20110128.100526	dt-shadow	8	0.013327	60	10	60-180	60	117	GapExp	0	7	2	9	1	target	1	400	800	167625	13.328	13.305	13.349
DTProbeTrack03	17	ProbeTrackDT	1.1	SCS215a	20110128.100450	20110128.100532	dt-shadow	8	0.013327	60	10	60-180	60	142	GapExp	0	8	2	9	0	distractor	1	360	820	168445	13.328	12.883	13.779
DTProbeTrack03	17	ProbeTrackDT	1.1	SCS215a	20110128.100450	20110128.100538	dt-shadow	8	0.013327	60	10	60-180	60	100	GapExp	0	9	2	1	1	target	1	347	827	169272	13.328	13.304	13.347
DTProbeTrack03	17	ProbeTrackDT	1.1	SCS215a	20110128.100450	20110128.100543	dt-shadow	8	0.013327	60	10	60-180	60	66	GapExp	0	10	2	45	1	target	1	414	793	170065	13.328	13.099	13.553
DTProbeTrack03	17	ProbeTrackDT	1.1	SCS215a	20110128.100450	20110128.100548	dt-shadow	8	0.013327	60	10	60-180	60	71	GapExp	0	11	2	45	0	target	0	440	-1000	169065	13.328	13.308	13.347
DTProbeTrack03	17	ProbeTrackDT	1.1	SCS215a	20110128.100450	20110128.100553	dt-shadow	8	0.013327	60	10	60-180	60	154	GapExp	0	12	2	9	0	distractor	1	347	827	169892	13.328	13.210	13.447
DTProbeTrack03	17	ProbeTrackDT	1.1	SCS215a	20110128.100450	20110128.100559	dt-shadow	8	0.013327	60	10	60-180	60	97	GapExp	0	13	2	9	1	distractor	0	334	-1000	168892	13.328	13.306	13.349
DTProbeTrack03	17	ProbeTrackDT	1.1	SCS215a	20110128.100450	20110128.100604	dt-shadow	8	0.013327	60	10	60-180	60	175	GapExp	0	14	2	1	1	distractor	0	374	-1000	167892	13.328	13.103	13.558
DTProbeTrack03	17	ProbeTrackDT	1.1	SCS215a	20110128.100450	20110128.100611	dt-shadow	8	0.013327	60	10	60-180	60	105	GapExp	0	15	2	6	1	target	1	454	773	168665	13.328	13.092	13.558
DTProbeTrack03	17	ProbeTrackDT	1.1	SCS215a	20110128.100450	20110128.100616	dt-shadow	8	0.013327	60	10	60-180	60	115	GapExp	0	16	2	6	1	distractor	0	347	-1000	167665	13.328	13.307	13.348
DTProbeTrack03	17	ProbeTrackDT	1.1	SCS215a	20110128.100450	20110128.100621	dt-shadow	8	0.013327	60	10	60-180	60	166	GapExp	0	17	2	6	0	target	0	107	-1000	166665	13.328	12.920	13.733
DTProbeTrack03	17	ProbeTrackDT	1.1	SCS215a	20110128.100450	20110128.100627	dt-shadow	8	0.013327	60	10	60-180	60	83	GapExp	0	18	2	6	1	distractor	0	160	-1000	165665	13.328	13.280	13.368
DTProbeTrack03	17	ProbeTrackDT	1.1	SCS215a	20110128.100450	20110128.100632	dt-shadow	8	0.013327	60	10	60-180	60	77	GapExp	0	19	2	6	0	target	0	120	-1000	164665	13.328	13.106	13.549
DTProbeTrack03	17	ProbeTrackDT	1.1	SCS215a	20110128.100450	20110128.100636	dt-shadow	8	0.013327	60	10	60-180	60	165	GapExp	0	20	2	6	1	distractor	0	280	-1000	163665	13.328	13.310	13.349
DTProbeTrack03	17	ProbeTrackDT	1.1	SCS215a	20110128.100450	20110128.100642	dt-shadow	8	0.013327	60	10	60-180	60	126	GapExp	0	21	2	3	1	target	1	187	907	164572	13.328	12.912	13.731
DTProbeTrack03	17	ProbeTrackDT	1.1	SCS215a	20110128.100450	20110128.100647	dt-shadow	8	0.013327	60	10	60-180	60	102	GapExp	0	22	2	45	1	distractor	0	347	-1000	163572	13.328	12.872	13.784
DTProbeTrack03	17	ProbeTrackDT	1.1	SCS215a	20110128.100450	20110128.100653	dt-shadow	8	0.013327	60	10	60-180	60	148	GapExp	0	23	2	1	0	distractor	1	360	820	164392	13.328	13.094	13.570
DTProbeTrack03	17	ProbeTrackDT	1.1	SCS215a	20110128.100450	20110128.100659	dt-shadow	8	0.013327	60	10	60-180	60	87	GapExp	0	24	2	3	0	distractor	1	440	780	165172	13.328	12.994	13.652
DTProbeTrack03	17	ProbeTrackDT	1.1	SCS215a	20110128.100450	20110128.100704	dt-shadow	8	0.013327	60	10	60-180	60	134	GapExp	0	25	2	1	0	target	0	400	-1000	164172	13.328	13.306	13.348
DTProbeTrack03	17	ProbeTrackDT	1.1	SCS215a	20110128.100450	20110128.100709	dt-shadow	8	0.013327	60	10	60-180	60	92	GapExp	0	26	2	9	1	distractor	0	334	-1000	163172	13.328	13.307	13.355
DTProbeTrack03	17	ProbeTrackDT	1.1	SCS215a	20110128.100450	20110128.100714	dt-shadow	8	0.013327	60	10	60-180	60	109	GapExp	0	27	2	9	1	target	1	454	773	163945	13.328	13.092	13.570
DTProbeTrack03	17	ProbeTrackDT	1.1	SCS215a	20110128.100450	20110128.100720	dt-shadow	8	0.013327	60	10	60-180	60	86	GapExp	0	28	2	45	1	distractor	0	360	-1000	162945	13.491	13.007	40.332
DTProbeTrack03	17	ProbeTrackDT	1.1	SCS215a	20110128.100450	20110128.100725	dt-shadow	8	0.013327	60	10	60-180	60	154	GapExp	0	29	2	3	1	target	1	987	507	163452	13.328	13.085	13.572
DTProbeTrack03	17	ProbeTrackDT	1.1	SCS215a	20110128.100450	20110128.100732	dt-shadow	8	0.013327	60	10	60-180	60	71	GapExp	0	30	2	6	1	distractor	0	334	-1000	162452	13.328	13.311	13.348
DTProbeTrack03	17	ProbeTrackDT	1.1	SCS215a	20110128.100450	20110128.100737	dt-shadow	8	0.013327	60	10	60-180	60	81	GapExp	0	31	2	45	1	target	1	440	780	163232	13.328	13.304	13.345
DTProbeTrack03	17	ProbeTrackDT	1.1	SCS215a	20110128.100450	20110128.100742	dt-shadow	8	0.013327	60	10	60-180	60	163	GapExp	0	32	2	45	1	target	1	294	853	164085	13.328	13.086	13.550
DTProbeTrack03	17	ProbeTrackDT	1.1	SCS215a	20110128.100450	20110128.100749	dt-shadow	8	0.013327	60	10	60-180	60	125	GapExp	0	33	2	45	1	target	1	360	820	164905	13.328	13.109	13.556
DTProbeTrack03	17	ProbeTrackDT	1.1	SCS215a	20110128.100450	20110128.100755	dt-shadow	8	0.013327	60	10	60-180	60	160	GapExp	0	34	2	45	1	target	1	294	853	165758	13.328	13.103	13.550
DTProbeTrack03	17	ProbeTrackDT	1.1	SCS215a	20110128.100450	20110128.100801	dt-shadow	8	0.013327	60	10	60-180	60	123	GapExp	0	35	2	1	1	target	1	347	827	166585	13.328	13.303	13.348
